block,trial,freq_trials,correct_response,actual_response,acc,rts,probe_trials,trials_colorind0,trials_colorind1,trials_colorind2,trials_colorind3,trials_colorind4,trials_colorind5,wholereport_resp0,wholereport_resp1,wholereport_resp2,wholereport_resp3,wholereport_resp4,wholereport_resp5,wholereport_respacc0,wholereport_respacc1,wholereport_respacc2,wholereport_respacc3,wholereport_respacc4,wholereport_respacc5,wholereport_respacc_total,wholereport_respcolorind0,wholereport_respcolorind1,wholereport_respcolorind2,wholereport_respcolorind3,wholereport_respcolorind4,wholereport_respcolorind5,wholereport_resporder0,wholereport_resporder1,wholereport_resporder2,wholereport_resporder3,wholereport_resporder4,wholereport_resporder5,wholereport_rts0,wholereport_rts1,wholereport_rts2,wholereport_rts3,wholereport_rts4,wholereport_rts5,time_blockstart,time_encarray_offset,time_encarray_onset,time_response,time_iti_offset,time_iti_onset,time_memprobe_offset,time_memprobe_onset
1,1,1,1,0.0,0.0,0.3370326032018056,0,6,0,1,5,4,8,nan,nan,nan,nan,nan,nan,nan,nan,nan,nan,nan,nan,0.0,nan,nan,nan,nan,nan,nan,nan,nan,nan,nan,nan,nan,nan,nan,nan,nan,nan,nan,168.79953522968572,169.8224706838664,nan,170.15950328706822,nan,nan,nan,nan
1,2,1,1,1.0,1.0,0.3689065182261402,0,3,7,5,6,4,8,nan,nan,nan,nan,nan,nan,nan,nan,nan,nan,nan,nan,0.0,nan,nan,nan,nan,nan,nan,nan,nan,nan,nan,nan,nan,nan,nan,nan,nan,nan,nan,168.79953522968572,170.82262720385916,nan,171.1915337220853,nan,nan,nan,nan
1,3,1,1,1.0,1.0,0.4487371345021529,0,6,3,2,4,7,1,nan,nan,nan,nan,nan,nan,nan,nan,nan,nan,nan,nan,0.0,nan,nan,nan,nan,nan,nan,nan,nan,nan,nan,nan,nan,nan,nan,nan,nan,nan,nan,168.79953522968572,171.82275920524262,nan,172.27149633974477,nan,nan,nan,nan
1,4,0,0,0.0,1.0,0.3685914825182408,0,5,4,0,2,8,7,nan,nan,nan,nan,nan,nan,nan,nan,nan,nan,nan,nan,0.0,nan,nan,nan,nan,nan,nan,nan,nan,nan,nan,nan,nan,nan,nan,nan,nan,nan,nan,168.79953522968572,172.82290032983292,nan,173.19149181235116,nan,nan,nan,nan
1,5,1,1,1.0,1.0,0.4161316524259746,0,2,7,3,8,4,5,nan,nan,nan,nan,nan,nan,nan,nan,nan,nan,nan,nan,0.0,nan,nan,nan,nan,nan,nan,nan,nan,nan,nan,nan,nan,nan,nan,nan,nan,nan,nan,168.79953522968572,173.83133473354974,nan,174.2474663859757,nan,nan,nan,nan
1,6,1,1,1.0,1.0,0.6639755110372789,0,8,4,0,6,5,2,nan,nan,nan,nan,nan,nan,nan,nan,nan,nan,nan,nan,0.0,nan,nan,nan,nan,nan,nan,nan,nan,nan,nan,nan,nan,nan,nan,nan,nan,nan,nan,168.79953522968572,174.83149610026157,nan,175.49547161129885,nan,nan,nan,nan
1,7,0,0,0.0,1.0,0.5198300004703924,0,7,5,6,2,3,4,nan,nan,nan,nan,nan,nan,nan,nan,nan,nan,nan,nan,0.0,nan,nan,nan,nan,nan,nan,nan,nan,nan,nan,nan,nan,nan,nan,nan,nan,nan,nan,168.79953522968572,175.8316318079451,nan,176.35146180841548,nan,nan,nan,nan
1,8,1,1,1.0,1.0,0.32770868692023214,0,3,4,1,0,6,8,nan,nan,nan,nan,nan,nan,nan,nan,nan,nan,nan,nan,0.0,nan,nan,nan,nan,nan,nan,nan,nan,nan,nan,nan,nan,nan,nan,nan,nan,nan,nan,168.79953522968572,176.83174556291488,nan,177.1594542498351,nan,nan,nan,nan
1,9,1,1,1.0,1.0,0.3675460201629903,0,7,2,3,1,5,4,nan,nan,nan,nan,nan,nan,nan,nan,nan,nan,nan,nan,0.0,nan,nan,nan,nan,nan,nan,nan,nan,nan,nan,nan,nan,nan,nan,nan,nan,nan,nan,168.79953522968572,177.83190407861548,nan,178.19945009877847,nan,nan,nan,nan
1,10,1,1,1.0,1.0,0.4314024733612314,0,8,7,4,2,1,0,nan,nan,nan,nan,nan,nan,nan,nan,nan,nan,nan,nan,0.0,nan,nan,nan,nan,nan,nan,nan,nan,nan,nan,nan,nan,nan,nan,nan,nan,nan,nan,168.79953522968572,178.83203607999894,nan,179.26343855336017,nan,nan,nan,nan
1,11,1,1,1.0,1.0,0.35925530693202745,0,4,1,5,3,0,7,nan,nan,nan,nan,nan,nan,nan,nan,nan,nan,nan,nan,0.0,nan,nan,nan,nan,nan,nan,nan,nan,nan,nan,nan,nan,nan,nan,nan,nan,nan,nan,168.79953522968572,179.8321754939825,nan,180.19143080091453,nan,nan,nan,nan
1,12,1,1,1.0,1.0,0.3431354576605372,0,2,5,3,7,6,0,nan,nan,nan,nan,nan,nan,nan,nan,nan,nan,nan,nan,0.0,nan,nan,nan,nan,nan,nan,nan,nan,nan,nan,nan,nan,nan,nan,nan,nan,nan,nan,168.79953522968572,180.83227784495102,nan,181.17541330261156,nan,nan,nan,nan
1,13,1,1,1.0,1.0,0.27895627105317544,0,7,4,0,3,5,6,nan,nan,nan,nan,nan,nan,nan,nan,nan,nan,nan,nan,0.0,nan,nan,nan,nan,nan,nan,nan,nan,nan,nan,nan,nan,nan,nan,nan,nan,nan,nan,168.79953522968572,181.832450330563,nan,182.11140660161618,nan,nan,nan,nan
1,14,1,1,1.0,1.0,0.2628084819589276,0,0,1,7,6,3,2,nan,nan,nan,nan,nan,nan,nan,nan,nan,nan,nan,nan,0.0,nan,nan,nan,nan,nan,nan,nan,nan,nan,nan,nan,nan,nan,nan,nan,nan,nan,nan,168.79953522968572,182.83258831904095,nan,183.09539680099988,nan,nan,nan,nan
1,15,1,1,1.0,1.0,0.28667678392957896,0,6,3,4,2,1,8,nan,nan,nan,nan,nan,nan,nan,nan,nan,nan,nan,nan,0.0,nan,nan,nan,nan,nan,nan,nan,nan,nan,nan,nan,nan,nan,nan,nan,nan,nan,nan,168.79953522968572,183.83272203103115,nan,184.11939881496073,nan,nan,nan,nan
1,16,0,0,1.0,0.0,0.28655932264518924,0,3,0,6,1,5,7,nan,nan,nan,nan,nan,nan,nan,nan,nan,nan,nan,nan,0.0,nan,nan,nan,nan,nan,nan,nan,nan,nan,nan,nan,nan,nan,nan,nan,nan,nan,nan,168.79953522968572,184.83282723299635,nan,185.11938655564154,nan,nan,nan,nan
1,17,1,1,1.0,1.0,0.3823729401192395,0,8,1,3,0,7,2,nan,nan,nan,nan,nan,nan,nan,nan,nan,nan,nan,nan,0.0,nan,nan,nan,nan,nan,nan,nan,nan,nan,nan,nan,nan,nan,nan,nan,nan,nan,nan,168.79953522968572,185.83299031030037,nan,186.2153632504196,nan,nan,nan,nan
1,18,1,1,1.0,1.0,0.4062033237569267,0,5,7,6,4,8,3,nan,nan,nan,nan,nan,nan,nan,nan,nan,nan,nan,nan,0.0,nan,nan,nan,nan,nan,nan,nan,nan,nan,nan,nan,nan,nan,nan,nan,nan,nan,nan,168.79953522968572,186.8331565237022,nan,187.23935984745913,nan,nan,nan,nan
1,19,1,1,1.0,1.0,0.35010701236024033,0,3,6,7,8,2,1,nan,nan,nan,nan,nan,nan,nan,nan,nan,nan,nan,nan,0.0,nan,nan,nan,nan,nan,nan,nan,nan,nan,nan,nan,nan,nan,nan,nan,nan,nan,nan,168.79953522968572,187.83324404945597,nan,188.1833510618162,nan,nan,nan,nan
1,20,1,1,1.0,1.0,0.3259419210953638,0,5,4,2,6,8,0,nan,nan,nan,nan,nan,nan,nan,nan,nan,nan,nan,nan,0.0,nan,nan,nan,nan,nan,nan,nan,nan,nan,nan,nan,nan,nan,nan,nan,nan,nan,nan,168.79953522968572,188.83340427576331,nan,189.15934619685868,nan,nan,nan,nan
1,21,1,1,1.0,1.0,0.3337679210380884,0,0,2,7,1,4,3,nan,nan,nan,nan,nan,nan,nan,nan,nan,nan,nan,nan,0.0,nan,nan,nan,nan,nan,nan,nan,nan,nan,nan,nan,nan,nan,nan,nan,nan,nan,nan,168.79953522968572,189.8335636467673,nan,190.16733156780538,nan,nan,nan,nan
1,22,1,1,1.0,1.0,0.31763894855976105,1,5,6,4,7,1,2,1.0,1.0,1.0,1.0,1.0,1.0,0.0,1.0,0.0,0.0,0.0,0.0,1.0,7.0,6.0,3.0,2.0,8.0,0.0,6.0,1.0,2.0,3.0,4.0,5.0,5.216789891710505,1.2090154949110001,2.097377677055192,2.9686247251956956,3.8970680012425873,4.392802760004997,168.79953522968572,190.833680822936,191.64209663812653,191.15131977149576,197.91795757653017,198.91879263495503,192.65892096994503,197.90962181746727
1,23,1,1,1.0,1.0,0.4168087653379189,0,6,2,8,1,7,3,nan,nan,nan,nan,nan,nan,nan,nan,nan,nan,nan,nan,0.0,nan,nan,nan,nan,nan,nan,nan,nan,nan,nan,nan,nan,nan,nan,nan,nan,nan,nan,168.79953522968572,199.12646188681538,nan,199.5432706521533,nan,nan,nan,nan
1,24,1,1,1.0,1.0,0.3286275647988077,0,7,4,5,3,8,2,nan,nan,nan,nan,nan,nan,nan,nan,nan,nan,nan,nan,0.0,nan,nan,nan,nan,nan,nan,nan,nan,nan,nan,nan,nan,nan,nan,nan,nan,nan,nan,168.79953522968572,200.12661298990133,nan,200.45524055470014,nan,nan,nan,nan
1,25,1,1,1.0,1.0,0.2724579826463014,0,6,3,1,4,2,8,nan,nan,nan,nan,nan,nan,nan,nan,nan,nan,nan,nan,0.0,nan,nan,nan,nan,nan,nan,nan,nan,nan,nan,nan,nan,nan,nan,nan,nan,nan,nan,168.79953522968572,201.1267635227996,nan,201.3992215054459,nan,nan,nan,nan
1,26,1,1,1.0,1.0,0.25632672937354073,0,4,6,3,2,7,5,nan,nan,nan,nan,nan,nan,nan,nan,nan,nan,nan,nan,0.0,nan,nan,nan,nan,nan,nan,nan,nan,nan,nan,nan,nan,nan,nan,nan,nan,nan,nan,168.79953522968572,202.126925174598,nan,202.38325190397154,nan,nan,nan,nan
1,27,1,1,1.0,1.0,0.27221650279534515,0,6,7,5,1,0,8,nan,nan,nan,nan,nan,nan,nan,nan,nan,nan,nan,nan,0.0,nan,nan,nan,nan,nan,nan,nan,nan,nan,nan,nan,nan,nan,nan,nan,nan,nan,nan,168.79953522968572,203.12699160294142,nan,203.39920810573676,nan,nan,nan,nan
1,28,1,1,1.0,1.0,0.28802986937807873,0,1,6,2,5,8,3,nan,nan,nan,nan,nan,nan,nan,nan,nan,nan,nan,nan,0.0,nan,nan,nan,nan,nan,nan,nan,nan,nan,nan,nan,nan,nan,nan,nan,nan,nan,nan,168.79953522968572,204.12716922035906,nan,204.41519908973714,nan,nan,nan,nan
1,29,1,1,1.0,1.0,0.30387032046564855,0,8,7,1,3,0,4,nan,nan,nan,nan,nan,nan,nan,nan,nan,nan,nan,nan,0.0,nan,nan,nan,nan,nan,nan,nan,nan,nan,nan,nan,nan,nan,nan,nan,nan,nan,nan,168.79953522968572,205.12731576185615,nan,205.4311860823218,nan,nan,nan,nan
1,30,1,1,1.0,1.0,0.2797320286335889,0,0,2,5,7,4,1,nan,nan,nan,nan,nan,nan,nan,nan,nan,nan,nan,nan,0.0,nan,nan,nan,nan,nan,nan,nan,nan,nan,nan,nan,nan,nan,nan,nan,nan,nan,nan,168.79953522968572,206.12744690793625,nan,206.40717893656984,nan,nan,nan,nan
1,31,1,1,1.0,1.0,0.31158056974527426,0,2,7,4,6,1,5,nan,nan,nan,nan,nan,nan,nan,nan,nan,nan,nan,nan,0.0,nan,nan,nan,nan,nan,nan,nan,nan,nan,nan,nan,nan,nan,nan,nan,nan,nan,nan,168.79953522968572,207.1275848964142,nan,207.43916546615947,nan,nan,nan,nan
1,32,1,1,1.0,1.0,0.29544475485454313,0,1,3,2,5,6,7,nan,nan,nan,nan,nan,nan,nan,nan,nan,nan,nan,nan,0.0,nan,nan,nan,nan,nan,nan,nan,nan,nan,nan,nan,nan,nan,nan,nan,nan,nan,nan,168.79953522968572,208.12771461700322,nan,208.42315937185776,nan,nan,nan,nan
1,33,1,1,1.0,1.0,0.2872968768206192,0,0,5,1,3,2,4,nan,nan,nan,nan,nan,nan,nan,nan,nan,nan,nan,nan,0.0,nan,nan,nan,nan,nan,nan,nan,nan,nan,nan,nan,nan,nan,nan,nan,nan,nan,nan,168.79953522968572,209.12784519288107,nan,209.4151420697017,nan,nan,nan,nan
1,34,1,1,1.0,1.0,0.3191565368178999,0,6,7,4,1,5,2,nan,nan,nan,nan,nan,nan,nan,nan,nan,nan,nan,nan,0.0,nan,nan,nan,nan,nan,nan,nan,nan,nan,nan,nan,nan,nan,nan,nan,nan,nan,nan,168.79953522968572,210.12798204096907,nan,210.44713857778697,nan,nan,nan,nan
1,35,1,1,1.0,1.0,0.3270062000665348,0,0,3,7,8,4,6,nan,nan,nan,nan,nan,nan,nan,nan,nan,nan,nan,nan,0.0,nan,nan,nan,nan,nan,nan,nan,nan,nan,nan,nan,nan,nan,nan,nan,nan,nan,nan,168.79953522968572,211.12811974436045,nan,211.45512594442698,nan,nan,nan,nan
1,36,1,1,1.0,1.0,0.2868652351316996,0,5,4,8,0,2,7,nan,nan,nan,nan,nan,nan,nan,nan,nan,nan,nan,nan,0.0,nan,nan,nan,nan,nan,nan,nan,nan,nan,nan,nan,nan,nan,nan,nan,nan,nan,nan,168.79953522968572,212.1282571626507,nan,212.4151223977824,nan,nan,nan,nan
1,37,1,1,1.0,1.0,0.294705204985803,0,6,7,5,3,8,1,nan,nan,nan,nan,nan,nan,nan,nan,nan,nan,nan,nan,0.0,nan,nan,nan,nan,nan,nan,nan,nan,nan,nan,nan,nan,nan,nan,nan,nan,nan,nan,168.79953522968572,213.12840826573665,nan,213.42311347072246,nan,nan,nan,nan
1,38,1,1,1.0,1.0,0.2862611078599002,0,5,4,3,6,2,8,nan,nan,nan,nan,nan,nan,nan,nan,nan,nan,nan,nan,0.0,nan,nan,nan,nan,nan,nan,nan,nan,nan,nan,nan,nan,nan,nan,nan,nan,nan,nan,168.79953522968572,214.13683867806685,nan,214.42309978592675,nan,nan,nan,nan
1,39,1,1,1.0,1.0,0.30973083978460636,0,4,2,1,8,0,5,nan,nan,nan,nan,nan,nan,nan,nan,nan,nan,nan,nan,0.0,nan,nan,nan,nan,nan,nan,nan,nan,nan,nan,nan,nan,nan,nan,nan,nan,nan,nan,168.79953522968572,215.14536773503642,nan,215.45509857482102,nan,nan,nan,nan
1,40,1,1,1.0,1.0,0.26962579746032134,0,1,7,0,3,8,2,nan,nan,nan,nan,nan,nan,nan,nan,nan,nan,nan,nan,0.0,nan,nan,nan,nan,nan,nan,nan,nan,nan,nan,nan,nan,nan,nan,nan,nan,nan,nan,168.79953522968572,216.14544870349346,nan,216.41507450095378,nan,nan,nan,nan
1,41,1,1,1.0,1.0,0.43746712438587565,0,7,4,3,0,5,6,nan,nan,nan,nan,nan,nan,nan,nan,nan,nan,nan,nan,0.0,nan,nan,nan,nan,nan,nan,nan,nan,nan,nan,nan,nan,nan,nan,nan,nan,nan,nan,168.79953522968572,217.14560693409294,nan,217.58307405847881,nan,nan,nan,nan
1,42,1,1,1.0,1.0,0.48530436867440585,0,0,5,8,4,1,3,nan,nan,nan,nan,nan,nan,nan,nan,nan,nan,nan,nan,0.0,nan,nan,nan,nan,nan,nan,nan,nan,nan,nan,nan,nan,nan,nan,nan,nan,nan,nan,168.79953522968572,218.1457443523832,nan,218.6310487210576,nan,nan,nan,nan
1,43,1,1,1.0,1.0,0.4531601786875399,0,2,3,7,0,4,5,nan,nan,nan,nan,nan,nan,nan,nan,nan,nan,nan,nan,0.0,nan,nan,nan,nan,nan,nan,nan,nan,nan,nan,nan,nan,nan,nan,nan,nan,nan,nan,168.79953522968572,219.1458800600667,nan,219.59904023875424,nan,nan,nan,nan
1,44,1,1,1.0,1.0,0.421014278093935,0,8,6,0,5,7,4,nan,nan,nan,nan,nan,nan,nan,nan,nan,nan,nan,nan,0.0,nan,nan,nan,nan,nan,nan,nan,nan,nan,nan,nan,nan,nan,nan,nan,nan,nan,nan,168.79953522968572,220.14601719325583,nan,220.56703147134976,nan,nan,nan,nan
1,45,0,0,0.0,1.0,0.46889143642329145,0,1,2,8,6,0,3,nan,nan,nan,nan,nan,nan,nan,nan,nan,nan,nan,nan,0.0,nan,nan,nan,nan,nan,nan,nan,nan,nan,nan,nan,nan,nan,nan,nan,nan,nan,nan,168.79953522968572,221.1461611688428,nan,221.6150526052661,nan,nan,nan,nan
1,46,1,1,1.0,1.0,0.4127218542707851,0,4,1,5,3,6,7,nan,nan,nan,nan,nan,nan,nan,nan,nan,nan,nan,nan,0.0,nan,nan,nan,nan,nan,nan,nan,nan,nan,nan,nan,nan,nan,nan,nan,nan,nan,nan,168.79953522968572,222.14629744672857,nan,222.55901930099935,nan,nan,nan,nan
1,47,1,1,1.0,1.0,0.34060405315540265,0,3,6,7,0,8,1,nan,nan,nan,nan,nan,nan,nan,nan,nan,nan,nan,nan,0.0,nan,nan,nan,nan,nan,nan,nan,nan,nan,nan,nan,nan,nan,nan,nan,nan,nan,nan,168.79953522968572,223.14641832921188,nan,223.4870223823673,nan,nan,nan,nan
1,48,1,1,1.0,1.0,0.29209710854047444,0,2,5,0,6,1,3,nan,nan,nan,nan,nan,nan,nan,nan,nan,nan,nan,nan,0.0,nan,nan,nan,nan,nan,nan,nan,nan,nan,nan,nan,nan,nan,nan,nan,nan,nan,nan,168.79953522968572,224.15490661686636,nan,224.44700372540683,nan,nan,nan,nan
1,49,1,1,1.0,1.0,0.2919522776501253,0,7,8,1,0,4,6,nan,nan,nan,nan,nan,nan,nan,nan,nan,nan,nan,nan,0.0,nan,nan,nan,nan,nan,nan,nan,nan,nan,nan,nan,nan,nan,nan,nan,nan,nan,nan,168.79953522968572,225.15504489044542,nan,225.44699716809555,nan,nan,nan,nan
1,50,1,1,1.0,1.0,0.33181612521002535,0,8,3,5,7,6,1,nan,nan,nan,nan,nan,nan,nan,nan,nan,nan,nan,nan,0.0,nan,nan,nan,nan,nan,nan,nan,nan,nan,nan,nan,nan,nan,nan,nan,nan,nan,nan,168.79953522968572,226.1551726153266,nan,226.48698874053662,nan,nan,nan,nan
1,51,1,1,1.0,1.0,0.37166742836416233,0,0,5,4,8,1,2,nan,nan,nan,nan,nan,nan,nan,nan,nan,nan,nan,nan,0.0,nan,nan,nan,nan,nan,nan,nan,nan,nan,nan,nan,nan,nan,nan,nan,nan,nan,nan,168.79953522968572,227.15532343332598,nan,227.52699086169014,nan,nan,nan,nan
1,52,1,1,1.0,1.0,0.2995196917327121,0,8,6,7,4,3,0,nan,nan,nan,nan,nan,nan,nan,nan,nan,nan,nan,nan,0.0,nan,nan,nan,nan,nan,nan,nan,nan,nan,nan,nan,nan,nan,nan,nan,nan,nan,nan,168.79953522968572,228.15544574130035,nan,228.45496543303307,nan,nan,nan,nan
1,53,1,1,1.0,1.0,0.2830597179417964,0,0,3,5,8,2,7,nan,nan,nan,nan,nan,nan,nan,nan,nan,nan,nan,nan,0.0,nan,nan,nan,nan,nan,nan,nan,nan,nan,nan,nan,nan,nan,nan,nan,nan,nan,nan,168.79953522968572,229.16391492725234,nan,229.44697464519413,nan,nan,nan,nan
1,54,1,1,1.0,1.0,0.2988993137405487,0,4,1,7,3,6,2,nan,nan,nan,nan,nan,nan,nan,nan,nan,nan,nan,nan,0.0,nan,nan,nan,nan,nan,nan,nan,nan,nan,nan,nan,nan,nan,nan,nan,nan,nan,nan,168.79953522968572,230.16405804753595,nan,230.4629573612765,nan,nan,nan,nan
1,55,1,1,1.0,1.0,0.3627517755230656,0,2,8,6,7,3,1,nan,nan,nan,nan,nan,nan,nan,nan,nan,nan,nan,nan,0.0,nan,nan,nan,nan,nan,nan,nan,nan,nan,nan,nan,nan,nan,nan,nan,nan,nan,nan,168.79953522968572,231.16419261482952,nan,231.52694439035258,nan,nan,nan,nan
1,56,1,1,1.0,1.0,0.38661095428687986,0,8,2,5,0,6,4,nan,nan,nan,nan,nan,nan,nan,nan,nan,nan,nan,nan,0.0,nan,nan,nan,nan,nan,nan,nan,nan,nan,nan,nan,nan,nan,nan,nan,nan,nan,nan,168.79953522968572,232.16433174371195,nan,232.55094269799883,nan,nan,nan,nan
1,57,1,1,1.0,1.0,0.29045550171576906,0,3,0,6,5,8,7,nan,nan,nan,nan,nan,nan,nan,nan,nan,nan,nan,nan,0.0,nan,nan,nan,nan,nan,nan,nan,nan,nan,nan,nan,nan,nan,nan,nan,nan,nan,nan,168.79953522968572,233.1644623195898,nan,233.45491782130557,nan,nan,nan,nan
1,58,0,0,1.0,0.0,0.30632902441720944,0,7,6,1,4,0,5,nan,nan,nan,nan,nan,nan,nan,nan,nan,nan,nan,nan,0.0,nan,nan,nan,nan,nan,nan,nan,nan,nan,nan,nan,nan,nan,nan,nan,nan,nan,nan,168.79953522968572,234.1645874785754,nan,234.47091650299262,nan,nan,nan,nan
1,59,1,1,1.0,1.0,0.385816665191669,0,0,5,8,6,2,3,nan,nan,nan,nan,nan,nan,nan,nan,nan,nan,nan,nan,0.0,nan,nan,nan,nan,nan,nan,nan,nan,nan,nan,nan,nan,nan,nan,nan,nan,nan,nan,168.79953522968572,235.17308859573677,nan,235.55890526092844,nan,nan,nan,nan
1,60,0,0,0.0,1.0,0.40970349866256583,0,4,0,3,1,7,8,nan,nan,nan,nan,nan,nan,nan,nan,nan,nan,nan,nan,0.0,nan,nan,nan,nan,nan,nan,nan,nan,nan,nan,nan,nan,nan,nan,nan,nan,nan,nan,168.79953522968572,236.1732094782201,nan,236.58291297688265,nan,nan,nan,nan
1,61,1,1,1.0,1.0,0.36153439777262975,0,3,4,0,7,5,6,nan,nan,nan,nan,nan,nan,nan,nan,nan,nan,nan,nan,0.0,nan,nan,nan,nan,nan,nan,nan,nan,nan,nan,nan,nan,nan,nan,nan,nan,nan,nan,168.79953522968572,237.17334661139466,nan,237.5348810091673,nan,nan,nan,nan
1,62,1,1,1.0,1.0,0.321395998733351,0,8,0,6,2,7,4,nan,nan,nan,nan,nan,nan,nan,nan,nan,nan,nan,nan,0.0,nan,nan,nan,nan,nan,nan,nan,nan,nan,nan,nan,nan,nan,nan,nan,nan,nan,nan,168.79953522968572,238.1734851700894,nan,238.49488116882276,nan,nan,nan,nan
1,63,1,1,1.0,1.0,0.2972551410057349,0,1,2,7,4,8,5,nan,nan,nan,nan,nan,nan,nan,nan,nan,nan,nan,nan,0.0,nan,nan,nan,nan,nan,nan,nan,nan,nan,nan,nan,nan,nan,nan,nan,nan,nan,nan,168.79953522968572,239.17361973736843,nan,239.47087487837416,nan,nan,nan,nan
1,64,1,1,1.0,1.0,0.2970872169971699,0,6,1,8,5,4,7,nan,nan,nan,nan,nan,nan,nan,nan,nan,nan,nan,nan,0.0,nan,nan,nan,nan,nan,nan,nan,nan,nan,nan,nan,nan,nan,nan,nan,nan,nan,nan,168.79953522968572,240.17376570866327,nan,240.47085292566044,nan,nan,nan,nan
1,65,1,1,1.0,1.0,0.29695835171150975,0,3,2,6,1,7,8,nan,nan,nan,nan,nan,nan,nan,nan,nan,nan,nan,nan,0.0,nan,nan,nan,nan,nan,nan,nan,nan,nan,nan,nan,nan,nan,nan,nan,nan,nan,nan,168.79953522968572,241.1738954292523,nan,241.4708537809638,nan,nan,nan,nan
1,66,1,1,1.0,1.0,0.29681152511329856,0,8,5,7,0,6,4,nan,nan,nan,nan,nan,nan,nan,nan,nan,nan,nan,nan,0.0,nan,nan,nan,nan,nan,nan,nan,nan,nan,nan,nan,nan,nan,nan,nan,nan,nan,nan,168.79953522968572,242.17402714553464,nan,242.47083867064794,nan,nan,nan,nan
1,67,0,0,0.0,1.0,0.41665994306094944,0,7,8,2,5,1,6,nan,nan,nan,nan,nan,nan,nan,nan,nan,nan,nan,nan,0.0,nan,nan,nan,nan,nan,nan,nan,nan,nan,nan,nan,nan,nan,nan,nan,nan,nan,nan,168.79953522968572,243.17416884031263,nan,243.59082878337358,nan,nan,nan,nan
1,68,1,1,1.0,1.0,0.3281434646778507,0,0,2,4,7,3,5,nan,nan,nan,nan,nan,nan,nan,nan,nan,nan,nan,nan,0.0,nan,nan,nan,nan,nan,nan,nan,nan,nan,nan,nan,nan,nan,nan,nan,nan,nan,nan,168.79953522968572,244.1826793657965,nan,244.51082283047435,nan,nan,nan,nan
1,69,1,1,1.0,1.0,0.36003220491693355,1,8,7,5,2,0,3,1.0,1.0,1.0,1.0,1.0,1.0,0.0,1.0,1.0,0.0,0.0,0.0,2.0,1.0,7.0,5.0,3.0,8.0,4.0,3.0,2.0,1.0,6.0,5.0,4.0,5.338543349062093,2.858814684601384,1.7471703094488475,7.682487635931466,7.027178029951756,6.227959546566126,168.79953522968572,245.18277430415037,245.99119838724437,245.5428065090673,254.73404429716174,255.73350431740982,247.01633880620648,254.72574417562282
1,70,0,0,0.0,1.0,0.44845859162160195,0,3,4,8,7,1,6,nan,nan,nan,nan,nan,nan,nan,nan,nan,nan,nan,nan,0.0,nan,nan,nan,nan,nan,nan,nan,nan,nan,nan,nan,nan,nan,nan,nan,nan,nan,nan,168.79953522968572,255.9342536177137,nan,256.3827122093353,nan,nan,nan,nan
1,71,1,1,1.0,1.0,0.4082970994641073,0,2,0,4,1,8,7,nan,nan,nan,nan,nan,nan,nan,nan,nan,nan,nan,nan,0.0,nan,nan,nan,nan,nan,nan,nan,nan,nan,nan,nan,nan,nan,nan,nan,nan,nan,nan,168.79953522968572,256.9343901807006,nan,257.3426872801647,nan,nan,nan,nan
1,72,1,1,1.0,1.0,0.3602571489609545,0,6,4,1,0,5,2,nan,nan,nan,nan,nan,nan,nan,nan,nan,nan,nan,nan,0.0,nan,nan,nan,nan,nan,nan,nan,nan,nan,nan,nan,nan,nan,nan,nan,nan,nan,nan,168.79953522968572,257.9345201863762,nan,258.29477733533713,nan,nan,nan,nan
1,73,1,1,1.0,1.0,0.3200132628553547,0,5,0,6,4,3,8,nan,nan,nan,nan,nan,nan,nan,nan,nan,nan,nan,nan,0.0,nan,nan,nan,nan,nan,nan,nan,nan,nan,nan,nan,nan,nan,nan,nan,nan,nan,nan,168.79953522968572,258.9346584599698,nan,259.25467172282515,nan,nan,nan,nan
1,74,1,1,1.0,1.0,0.3118616785213817,0,4,1,8,3,7,0,nan,nan,nan,nan,nan,nan,nan,nan,nan,nan,nan,nan,0.0,nan,nan,nan,nan,nan,nan,nan,nan,nan,nan,nan,nan,nan,nan,nan,nan,nan,nan,168.79953522968572,259.93480414614896,nan,260.24666582467034,nan,nan,nan,nan
1,75,1,1,1.0,1.0,0.2717249900888419,0,3,7,2,6,0,4,nan,nan,nan,nan,nan,nan,nan,nan,nan,nan,nan,nan,0.0,nan,nan,nan,nan,nan,nan,nan,nan,nan,nan,nan,nan,nan,nan,nan,nan,nan,nan,168.79953522968572,260.9349253137334,nan,261.20665030382224,nan,nan,nan,nan
1,76,1,1,1.0,1.0,0.2875953767070314,0,7,3,0,8,4,6,nan,nan,nan,nan,nan,nan,nan,nan,nan,nan,nan,nan,0.0,nan,nan,nan,nan,nan,nan,nan,nan,nan,nan,nan,nan,nan,nan,nan,nan,nan,nan,168.79953522968572,261.9350595959113,nan,262.22265497261833,nan,nan,nan,nan
1,77,1,1,1.0,1.0,0.2634106135374168,0,8,4,3,1,2,0,nan,nan,nan,nan,nan,nan,nan,nan,nan,nan,nan,nan,0.0,nan,nan,nan,nan,nan,nan,nan,nan,nan,nan,nan,nan,nan,nan,nan,nan,nan,nan,168.79953522968572,262.9352260944288,nan,263.1986367079662,nan,nan,nan,nan
1,78,1,1,1.0,1.0,0.2587435235909652,1,7,0,8,2,1,3,1.0,1.0,1.0,1.0,1.0,1.0,0.0,1.0,1.0,0.0,0.0,0.0,2.0,1.0,0.0,8.0,6.0,5.0,4.0,3.0,2.0,1.0,6.0,5.0,4.0,3.747147786518326,2.9316019009274896,1.9570368283748394,7.250044831991545,5.866190796441515,4.915356892670388,168.79953522968572,263.93988862277183,264.7437576602824,264.1986321463628,273.05322677809454,274.063352396086,265.76055006089155,273.04489529553393
1,79,1,1,1.0,1.0,0.5204446764546447,0,1,8,2,5,7,4,nan,nan,nan,nan,nan,nan,nan,nan,nan,nan,nan,nan,0.0,nan,nan,nan,nan,nan,nan,nan,nan,nan,nan,nan,nan,nan,nan,nan,nan,nan,nan,168.79953522968572,274.27010277006775,nan,274.7905474465224,nan,nan,nan,nan
1,80,1,1,1.0,1.0,0.3203177498508012,0,0,6,4,7,3,8,nan,nan,nan,nan,nan,nan,nan,nan,nan,nan,nan,nan,0.0,nan,nan,nan,nan,nan,nan,nan,nan,nan,nan,nan,nan,nan,nan,nan,nan,nan,nan,168.79953522968572,275.27021852073085,nan,275.59053627058165,nan,nan,nan,nan
1,81,1,1,1.0,1.0,0.2961518032971071,0,3,7,1,2,4,5,nan,nan,nan,nan,nan,nan,nan,nan,nan,nan,nan,nan,0.0,nan,nan,nan,nan,nan,nan,nan,nan,nan,nan,nan,nan,nan,nan,nan,nan,nan,nan,168.79953522968572,276.2703644920257,nan,276.5665162953228,nan,nan,nan,nan
1,82,1,1,1.0,1.0,0.2640232938283589,0,2,3,8,6,5,1,nan,nan,nan,nan,nan,nan,nan,nan,nan,nan,nan,nan,0.0,nan,nan,nan,nan,nan,nan,nan,nan,nan,nan,nan,nan,nan,nan,nan,nan,nan,nan,168.79953522968572,277.2704788171977,nan,277.5345021110261,nan,nan,nan,nan
1,83,1,1,1.0,1.0,0.23987388309615199,0,8,6,5,2,1,0,nan,nan,nan,nan,nan,nan,nan,nan,nan,nan,nan,nan,0.0,nan,nan,nan,nan,nan,nan,nan,nan,nan,nan,nan,nan,nan,nan,nan,nan,nan,nan,168.79953522968572,278.2706316308904,nan,278.5105055139866,nan,nan,nan,nan
1,84,1,1,1.0,1.0,0.22371269429277163,0,0,5,4,6,3,7,nan,nan,nan,nan,nan,nan,nan,nan,nan,nan,nan,nan,0.0,nan,nan,nan,nan,nan,nan,nan,nan,nan,nan,nan,nan,nan,nan,nan,nan,nan,nan,168.79953522968572,279.27078301909205,nan,279.4944957133848,nan,nan,nan,nan
1,85,1,1,1.0,1.0,0.2955952877528034,0,4,6,8,7,0,1,nan,nan,nan,nan,nan,nan,nan,nan,nan,nan,nan,nan,0.0,nan,nan,nan,nan,nan,nan,nan,nan,nan,nan,nan,nan,nan,nan,nan,nan,nan,nan,168.79953522968572,280.2708879359561,nan,280.56648322370893,nan,nan,nan,nan
1,86,1,1,1.0,1.0,0.2874228910950478,0,1,5,6,0,4,7,nan,nan,nan,nan,nan,nan,nan,nan,nan,nan,nan,nan,0.0,nan,nan,nan,nan,nan,nan,nan,nan,nan,nan,nan,nan,nan,nan,nan,nan,nan,nan,168.79953522968572,281.27104531125224,nan,281.5584682023473,nan,nan,nan,nan
1,87,1,1,1.0,1.0,0.2952774010482244,0,8,1,3,4,0,2,nan,nan,nan,nan,nan,nan,nan,nan,nan,nan,nan,nan,0.0,nan,nan,nan,nan,nan,nan,nan,nan,nan,nan,nan,nan,nan,nan,nan,nan,nan,nan,168.79953522968572,282.2711764573469,nan,282.5664538583951,nan,nan,nan,nan
1,88,1,1,1.0,1.0,0.3431451510696206,0,0,7,1,5,4,8,nan,nan,nan,nan,nan,nan,nan,nan,nan,nan,nan,nan,0.0,nan,nan,nan,nan,nan,nan,nan,nan,nan,nan,nan,nan,nan,nan,nan,nan,nan,nan,168.79953522968572,283.2713141607237,nan,283.6144593117933,nan,nan,nan,nan
1,89,0,0,0.0,1.0,0.4389787255349802,0,2,4,3,8,6,5,nan,nan,nan,nan,nan,nan,nan,nan,nan,nan,nan,nan,0.0,nan,nan,nan,nan,nan,nan,nan,nan,nan,nan,nan,nan,nan,nan,nan,nan,nan,nan,168.79953522968572,284.2714607022208,nan,284.7104394277558,nan,nan,nan,nan
1,90,1,1,1.0,1.0,0.3588664302806137,0,8,7,0,5,2,1,nan,nan,nan,nan,nan,nan,nan,nan,nan,nan,nan,nan,0.0,nan,nan,nan,nan,nan,nan,nan,nan,nan,nan,nan,nan,nan,nan,nan,nan,nan,nan,168.79953522968572,285.27159698010655,nan,285.63046341038716,nan,nan,nan,nan
1,91,1,1,1.0,1.0,0.42269693936395925,1,4,1,5,8,7,6,1.0,1.0,1.0,1.0,1.0,1.0,0.0,0.0,1.0,1.0,0.0,0.0,2.0,1.0,2.0,5.0,8.0,6.0,4.0,4.0,3.0,2.0,1.0,6.0,5.0,4.458262901709531,3.6259325983264716,2.7473419397429097,1.6095898007042706,6.217513761075679,5.289909534854814,168.79953522968572,286.27172499008884,287.08015249438176,286.6944219294528,294.3561437235621,295.3571658077126,288.0969565840933,294.34780710919586
1,92,1,1,1.0,1.0,0.3937048169755144,0,1,8,4,3,5,2,nan,nan,nan,nan,nan,nan,nan,nan,nan,nan,nan,nan,0.0,nan,nan,nan,nan,nan,nan,nan,nan,nan,nan,nan,nan,nan,nan,nan,nan,nan,nan,168.79953522968572,295.56464831894846,nan,295.95835313592397,nan,nan,nan,nan
1,93,0,0,1.0,0.0,0.2895736868522363,0,4,1,7,0,2,5,nan,nan,nan,nan,nan,nan,nan,nan,nan,nan,nan,nan,0.0,nan,nan,nan,nan,nan,nan,nan,nan,nan,nan,nan,nan,nan,nan,nan,nan,nan,nan,168.79953522968572,296.56477347793407,nan,296.8543471647863,nan,nan,nan,nan
1,94,1,1,1.0,1.0,0.3134149042889476,0,3,6,5,8,0,4,nan,nan,nan,nan,nan,nan,nan,nan,nan,nan,nan,nan,0.0,nan,nan,nan,nan,nan,nan,nan,nan,nan,nan,nan,nan,nan,nan,nan,nan,nan,nan,168.79953522968572,297.56489721141406,nan,297.878312115703,nan,nan,nan,nan
1,95,1,1,1.0,1.0,0.3372281819174532,0,1,0,6,3,4,7,nan,nan,nan,nan,nan,nan,nan,nan,nan,nan,nan,nan,0.0,nan,nan,nan,nan,nan,nan,nan,nan,nan,nan,nan,nan,nan,nan,nan,nan,nan,nan,168.79953522968572,298.56506827152043,nan,298.9022964534379,nan,nan,nan,nan
1,96,1,1,1.0,1.0,0.3530791817320278,0,7,4,5,0,1,6,nan,nan,nan,nan,nan,nan,nan,nan,nan,nan,nan,nan,0.0,nan,nan,nan,nan,nan,nan,nan,nan,nan,nan,nan,nan,nan,nan,nan,nan,nan,nan,168.79953522968572,299.565220800112,nan,299.91829998184403,nan,nan,nan,nan
1,97,1,1,1.0,1.0,0.32893604319542646,0,1,6,4,8,0,2,nan,nan,nan,nan,nan,nan,nan,nan,nan,nan,nan,nan,0.0,nan,nan,nan,nan,nan,nan,nan,nan,nan,nan,nan,nan,nan,nan,nan,nan,nan,nan,168.79953522968572,300.5653479547909,nan,300.89428399798635,nan,nan,nan,nan
1,98,1,1,1.0,1.0,0.3367976806475781,0,7,5,1,6,8,3,nan,nan,nan,nan,nan,nan,nan,nan,nan,nan,nan,nan,0.0,nan,nan,nan,nan,nan,nan,nan,nan,nan,nan,nan,nan,nan,nan,nan,nan,nan,nan,168.79953522968572,301.56547311377653,nan,301.9022707944241,nan,nan,nan,nan
1,99,1,1,1.0,1.0,0.3206775462749647,0,2,1,8,0,6,5,nan,nan,nan,nan,nan,nan,nan,nan,nan,nan,nan,nan,0.0,nan,nan,nan,nan,nan,nan,nan,nan,nan,nan,nan,nan,nan,nan,nan,nan,nan,nan,168.79953522968572,302.5655939962453,nan,302.88627154252026,nan,nan,nan,nan
1,100,1,1,1.0,1.0,0.3124928903125692,0,5,6,1,2,8,4,nan,nan,nan,nan,nan,nan,nan,nan,nan,nan,nan,nan,0.0,nan,nan,nan,nan,nan,nan,nan,nan,nan,nan,nan,nan,nan,nan,nan,nan,nan,nan,168.79953522968572,303.5657602096471,nan,303.8782530999597,nan,nan,nan,nan
1,101,1,1,1.0,1.0,0.6560206458088942,0,7,3,0,4,2,8,nan,nan,nan,nan,nan,nan,nan,nan,nan,nan,nan,nan,0.0,nan,nan,nan,nan,nan,nan,nan,nan,nan,nan,nan,nan,nan,nan,nan,nan,nan,nan,168.79953522968572,304.57422882539686,nan,305.23024947120575,nan,nan,nan,nan
1,102,1,1,1.0,1.0,0.3838702862558421,0,5,0,2,1,7,4,nan,nan,nan,nan,nan,nan,nan,nan,nan,nan,nan,nan,0.0,nan,nan,nan,nan,nan,nan,nan,nan,nan,nan,nan,nan,nan,nan,nan,nan,nan,nan,168.79953522968572,305.5743648181815,nan,305.95823510443734,nan,nan,nan,nan
1,103,1,1,1.0,1.0,0.40774657102883793,0,0,7,1,2,6,5,nan,nan,nan,nan,nan,nan,nan,nan,nan,nan,nan,nan,0.0,nan,nan,nan,nan,nan,nan,nan,nan,nan,nan,nan,nan,nan,nan,nan,nan,nan,nan,168.79953522968572,306.57447828805016,nan,306.982224859079,nan,nan,nan,nan
1,104,1,1,1.0,1.0,0.3275621454231441,0,2,0,5,1,3,7,nan,nan,nan,nan,nan,nan,nan,nan,nan,nan,nan,nan,0.0,nan,nan,nan,nan,nan,nan,nan,nan,nan,nan,nan,nan,nan,nan,nan,nan,nan,nan,168.79953522968572,307.57468356018944,nan,307.9022457056126,nan,nan,nan,nan
1,105,1,1,1.0,1.0,0.28744997561443597,0,7,6,3,2,8,0,nan,nan,nan,nan,nan,nan,nan,nan,nan,nan,nan,nan,0.0,nan,nan,nan,nan,nan,nan,nan,nan,nan,nan,nan,nan,nan,nan,nan,nan,nan,nan,168.79953522968572,308.57475512032397,nan,308.8622050959384,nan,nan,nan,nan
1,106,1,1,1.0,1.0,0.3672971277119359,0,1,2,8,7,4,6,nan,nan,nan,nan,nan,nan,nan,nan,nan,nan,nan,nan,0.0,nan,nan,nan,nan,nan,nan,nan,nan,nan,nan,nan,nan,nan,nan,nan,nan,nan,nan,168.79953522968572,309.57490878932003,nan,309.94220591703197,nan,nan,nan,nan
1,107,1,1,1.0,1.0,0.3511556108132936,0,7,4,1,2,5,0,nan,nan,nan,nan,nan,nan,nan,nan,nan,nan,nan,nan,0.0,nan,nan,nan,nan,nan,nan,nan,nan,nan,nan,nan,nan,nan,nan,nan,nan,nan,nan,168.79953522968572,310.57502511019993,nan,310.9261807210132,nan,nan,nan,nan
1,108,1,1,1.0,1.0,0.3509771381068276,0,2,3,7,4,8,6,nan,nan,nan,nan,nan,nan,nan,nan,nan,nan,nan,nan,0.0,nan,nan,nan,nan,nan,nan,nan,nan,nan,nan,nan,nan,nan,nan,nan,nan,nan,nan,168.79953522968572,311.57519018319726,nan,311.9261673213041,nan,nan,nan,nan
1,109,1,1,1.0,1.0,0.3268411270692013,0,7,6,0,8,1,4,nan,nan,nan,nan,nan,nan,nan,nan,nan,nan,nan,nan,0.0,nan,nan,nan,nan,nan,nan,nan,nan,nan,nan,nan,nan,nan,nan,nan,nan,nan,nan,168.79953522968572,312.5753315928887,nan,312.9021727199579,nan,nan,nan,nan
1,110,1,1,1.0,1.0,0.2866898985230364,1,4,1,3,6,8,5,1.0,1.0,1.0,1.0,1.0,1.0,0.0,1.0,0.0,1.0,0.0,0.0,2.0,8.0,1.0,5.0,6.0,4.0,4.0,4.0,1.0,3.0,2.0,6.0,5.0,5.418427279073512,1.1383747978252359,3.8420918484480353,1.9323494336131262,7.281749967718497,6.609939048430533,168.79953522968572,313.5754567518743,314.3838839710661,313.86214665039734,322.71834839184885,323.71773457116797,315.4006692441617,322.7100191900972
1,111,1,1,1.0,1.0,0.39953568585042376,0,5,7,2,8,0,6,nan,nan,nan,nan,nan,nan,nan,nan,nan,nan,nan,nan,0.0,nan,nan,nan,nan,nan,nan,nan,nan,nan,nan,nan,nan,nan,nan,nan,nan,nan,nan,168.79953522968572,323.9185445977928,nan,324.3180802836432,nan,nan,nan,nan
1,112,0,0,0.0,1.0,0.43936817238864023,0,6,2,8,3,4,5,nan,nan,nan,nan,nan,nan,nan,nan,nan,nan,nan,nan,0.0,nan,nan,nan,nan,nan,nan,nan,nan,nan,nan,nan,nan,nan,nan,nan,nan,nan,nan,168.79953522968572,324.91867659917625,nan,325.3580447715649,nan,nan,nan,nan
1,113,1,1,1.0,1.0,0.32721859971934464,0,5,8,7,4,0,3,nan,nan,nan,nan,nan,nan,nan,nan,nan,nan,nan,nan,0.0,nan,nan,nan,nan,nan,nan,nan,nan,nan,nan,nan,nan,nan,nan,nan,nan,nan,nan,168.79953522968572,325.91881658336206,nan,326.2460351830814,nan,nan,nan,nan
1,114,1,1,1.0,1.0,0.3271037043450633,0,3,1,4,2,6,7,nan,nan,nan,nan,nan,nan,nan,nan,nan,nan,nan,nan,0.0,nan,nan,nan,nan,nan,nan,nan,nan,nan,nan,nan,nan,nan,nan,nan,nan,nan,nan,168.79953522968572,326.91893889133644,nan,327.2460425956815,nan,nan,nan,nan
1,115,1,1,1.0,1.0,0.3029317706823349,0,0,3,8,6,5,1,nan,nan,nan,nan,nan,nan,nan,nan,nan,nan,nan,nan,0.0,nan,nan,nan,nan,nan,nan,nan,nan,nan,nan,nan,nan,nan,nan,nan,nan,nan,nan,168.79953522968572,327.91909141994256,nan,328.2220231906249,nan,nan,nan,nan
1,116,1,1,1.0,1.0,0.31880187219940126,0,2,1,6,0,8,5,nan,nan,nan,nan,nan,nan,nan,nan,nan,nan,nan,nan,0.0,nan,nan,nan,nan,nan,nan,nan,nan,nan,nan,nan,nan,nan,nan,nan,nan,nan,nan,168.79953522968572,328.9192060302157,nan,329.2380079024151,nan,nan,nan,nan
1,117,1,1,1.0,1.0,0.28663487419544253,0,5,2,0,1,6,3,nan,nan,nan,nan,nan,nan,nan,nan,nan,nan,nan,nan,0.0,nan,nan,nan,nan,nan,nan,nan,nan,nan,nan,nan,nan,nan,nan,nan,nan,nan,nan,168.79953522968572,329.919369677722,nan,330.20600455191743,nan,nan,nan,nan
1,118,1,1,1.0,1.0,0.27846675403998233,0,7,3,5,4,2,1,nan,nan,nan,nan,nan,nan,nan,nan,nan,nan,nan,nan,0.0,nan,nan,nan,nan,nan,nan,nan,nan,nan,nan,nan,nan,nan,nan,nan,nan,nan,nan,168.79953522968572,330.91951536390116,nan,331.19798211794114,nan,nan,nan,nan
1,119,1,1,1.0,1.0,0.2703528029087465,1,3,1,6,5,4,7,1.0,1.0,1.0,1.0,1.0,1.0,0.0,1.0,1.0,0.0,0.0,0.0,2.0,5.0,1.0,6.0,7.0,5.0,8.0,3.0,2.0,1.0,6.0,5.0,4.0,3.8653255173994694,2.7310615790629527,1.788450819789432,6.4095475488575175,5.3778156137268525,4.69862116999866,168.79953522968572,331.9196294039866,332.72806460598076,332.18998220689537,340.1957412305346,341.2051831782883,333.7448647042911,340.1874197264842
1,120,1,1,1.0,1.0,0.33729660596873146,0,7,6,3,4,2,1,nan,nan,nan,nan,nan,nan,nan,nan,nan,nan,nan,nan,0.0,nan,nan,nan,nan,nan,nan,nan,nan,nan,nan,nan,nan,nan,nan,nan,nan,nan,nan,168.79953522968572,341.4126169374067,nan,341.74991354337544,nan,nan,nan,nan
1,121,1,1,1.0,1.0,0.3181221933627967,0,6,4,1,7,8,3,nan,nan,nan,nan,nan,nan,nan,nan,nan,nan,nan,nan,0.0,nan,nan,nan,nan,nan,nan,nan,nan,nan,nan,nan,nan,nan,nan,nan,nan,nan,nan,168.79953522968572,342.4157718560018,nan,342.7338940493646,nan,nan,nan,nan
1,122,1,1,1.0,1.0,0.27267066738568246,0,8,3,0,5,6,4,nan,nan,nan,nan,nan,nan,nan,nan,nan,nan,nan,nan,0.0,nan,nan,nan,nan,nan,nan,nan,nan,nan,nan,nan,nan,nan,nan,nan,nan,nan,nan,168.79953522968572,343.42121441842755,nan,343.69388508581324,nan,nan,nan,nan
1,123,1,1,1.0,1.0,0.2805670870584436,0,5,6,8,4,2,0,nan,nan,nan,nan,nan,nan,nan,nan,nan,nan,nan,nan,0.0,nan,nan,nan,nan,nan,nan,nan,nan,nan,nan,nan,nan,nan,nan,nan,nan,nan,nan,168.79953522968572,344.421309356796,nan,344.7018764438544,nan,nan,nan,nan
1,124,1,1,1.0,1.0,0.26437425214680843,0,8,2,1,6,7,4,nan,nan,nan,nan,nan,nan,nan,nan,nan,nan,nan,nan,0.0,nan,nan,nan,nan,nan,nan,nan,nan,nan,nan,nan,nan,nan,nan,nan,nan,nan,nan,168.79953522968572,345.4214932464092,nan,345.68586749855604,nan,nan,nan,nan
1,125,1,1,1.0,1.0,0.3042286913987482,0,0,8,2,1,4,5,nan,nan,nan,nan,nan,nan,nan,nan,nan,nan,nan,nan,0.0,nan,nan,nan,nan,nan,nan,nan,nan,nan,nan,nan,nan,nan,nan,nan,nan,nan,nan,168.79953522968572,346.42161812027916,nan,346.7258468116779,nan,nan,nan,nan
1,126,1,1,1.0,1.0,0.28809173611807637,0,8,5,4,0,3,6,nan,nan,nan,nan,nan,nan,nan,nan,nan,nan,nan,nan,0.0,nan,nan,nan,nan,nan,nan,nan,nan,nan,nan,nan,nan,nan,nan,nan,nan,nan,nan,168.79953522968572,347.4217524024716,nan,347.7098441385897,nan,nan,nan,nan
1,127,1,1,1.0,1.0,0.2879386373242596,0,5,1,8,7,2,0,nan,nan,nan,nan,nan,nan,nan,nan,nan,nan,nan,nan,0.0,nan,nan,nan,nan,nan,nan,nan,nan,nan,nan,nan,nan,nan,nan,nan,nan,nan,nan,168.79953522968572,348.42189039094956,nan,348.7098290282738,nan,nan,nan,nan
1,128,1,1,1.0,1.0,0.31178042496321723,0,1,6,5,3,0,8,nan,nan,nan,nan,nan,nan,nan,nan,nan,nan,nan,nan,0.0,nan,nan,nan,nan,nan,nan,nan,nan,nan,nan,nan,nan,nan,nan,nan,nan,nan,nan,168.79953522968572,349.4220329410455,nan,349.7338133660087,nan,nan,nan,nan
1,129,0,0,1.0,0.0,0.2556504717358621,0,6,8,7,1,2,0,nan,nan,nan,nan,nan,nan,nan,nan,nan,nan,nan,nan,0.0,nan,nan,nan,nan,nan,nan,nan,nan,nan,nan,nan,nan,nan,nan,nan,nan,nan,nan,168.79953522968572,350.4221646573278,nan,350.6778151290637,nan,nan,nan,nan
1,130,1,1,1.0,1.0,0.25547656063281465,0,2,7,8,5,0,1,nan,nan,nan,nan,nan,nan,nan,nan,nan,nan,nan,nan,0.0,nan,nan,nan,nan,nan,nan,nan,nan,nan,nan,nan,nan,nan,nan,nan,nan,nan,nan,168.79953522968572,351.42231690081826,nan,351.6777934614511,nan,nan,nan,nan
1,131,1,1,1.0,1.0,0.30336626335338224,0,5,0,2,3,4,6,nan,nan,nan,nan,nan,nan,nan,nan,nan,nan,nan,nan,0.0,nan,nan,nan,nan,nan,nan,nan,nan,nan,nan,nan,nan,nan,nan,nan,nan,nan,nan,168.79953522968572,352.42242780479137,nan,352.72579406814475,nan,nan,nan,nan
1,132,1,1,1.0,1.0,0.34315769546083175,0,7,1,8,0,6,3,nan,nan,nan,nan,nan,nan,nan,nan,nan,nan,nan,nan,0.0,nan,nan,nan,nan,nan,nan,nan,nan,nan,nan,nan,nan,nan,nan,nan,nan,nan,nan,168.79953522968572,353.4226193921204,nan,353.7657770875812,nan,nan,nan,nan
1,133,1,1,1.0,1.0,0.32705324159178417,0,2,3,4,6,1,0,nan,nan,nan,nan,nan,nan,nan,nan,nan,nan,nan,nan,0.0,nan,nan,nan,nan,nan,nan,nan,nan,nan,nan,nan,nan,nan,nan,nan,nan,nan,nan,168.79953522968572,354.4227168963844,nan,354.74977013797616,nan,nan,nan,nan
1,134,1,1,1.0,1.0,0.3025762507604668,0,0,2,1,3,5,4,nan,nan,nan,nan,nan,nan,nan,nan,nan,nan,nan,nan,0.0,nan,nan,nan,nan,nan,nan,nan,nan,nan,nan,nan,nan,nan,nan,nan,nan,nan,nan,168.79953522968572,355.4311783846206,nan,355.73375463538105,nan,nan,nan,nan
1,135,1,1,1.0,1.0,0.3504402944527101,0,8,1,2,5,3,7,nan,nan,nan,nan,nan,nan,nan,nan,nan,nan,nan,nan,0.0,nan,nan,nan,nan,nan,nan,nan,nan,nan,nan,nan,nan,nan,nan,nan,nan,nan,nan,168.79953522968572,356.43132036451425,nan,356.78176065896696,nan,nan,nan,nan
1,136,1,1,1.0,1.0,0.3342682718648575,1,1,3,7,4,0,2,1.0,1.0,1.0,1.0,1.0,1.0,0.0,0.0,1.0,0.0,0.0,0.0,1.0,4.0,5.0,7.0,5.0,6.0,8.0,5.0,2.0,1.0,6.0,3.0,4.0,5.274117265696987,2.428211061953334,1.5075564377184492,6.105711440424784,3.5392598628386622,4.5619082211196655,168.79953522968572,357.43146148909,358.23988215098507,357.76572976095486,365.3908512492635,366.39895522188453,359.2483621707361,365.38251834121183
1,137,1,1,1.0,1.0,0.7102894650597591,0,3,0,4,5,8,7,nan,nan,nan,nan,nan,nan,nan,nan,nan,nan,nan,nan,0.0,nan,nan,nan,nan,nan,nan,nan,nan,nan,nan,nan,nan,nan,nan,nan,nan,nan,nan,168.79953522968572,366.5993763718725,nan,367.30966583693225,nan,nan,nan,nan
1,138,1,1,1.0,1.0,0.4781192739465041,0,8,6,2,1,0,4,nan,nan,nan,nan,nan,nan,nan,nan,nan,nan,nan,nan,0.0,nan,nan,nan,nan,nan,nan,nan,nan,nan,nan,nan,nan,nan,nan,nan,nan,nan,nan,168.79953522968572,367.5995180666505,nan,368.077637340597,nan,nan,nan,nan
1,139,1,1,1.0,1.0,0.29398333132849075,0,3,8,1,0,5,6,nan,nan,nan,nan,nan,nan,nan,nan,nan,nan,nan,nan,0.0,nan,nan,nan,nan,nan,nan,nan,nan,nan,nan,nan,nan,nan,nan,nan,nan,nan,nan,168.79953522968572,368.5996517786407,nan,368.8936351099692,nan,nan,nan,nan
1,140,1,1,1.0,1.0,0.2058927926409524,0,6,5,0,2,8,1,nan,nan,nan,nan,nan,nan,nan,nan,nan,nan,nan,nan,0.0,nan,nan,nan,nan,nan,nan,nan,nan,nan,nan,nan,nan,nan,nan,nan,nan,nan,nan,168.79953522968572,369.59975755080814,nan,369.8056503434491,nan,nan,nan,nan
1,141,1,1,1.0,1.0,0.269693081107107,0,7,2,3,5,6,8,nan,nan,nan,nan,nan,nan,nan,nan,nan,nan,nan,nan,0.0,nan,nan,nan,nan,nan,nan,nan,nan,nan,nan,nan,nan,nan,nan,nan,nan,nan,nan,168.79953522968572,370.5999360235146,nan,370.8696291046217,nan,nan,nan,nan
1,142,0,0,0.0,1.0,0.4295367777813226,0,6,0,5,8,7,3,nan,nan,nan,nan,nan,nan,nan,nan,nan,nan,nan,nan,0.0,nan,nan,nan,nan,nan,nan,nan,nan,nan,nan,nan,nan,nan,nan,nan,nan,nan,nan,168.79953522968572,371.6000751524116,nan,372.0296119301929,nan,nan,nan,nan
1,143,1,1,1.0,1.0,0.26138640225690324,0,1,2,8,7,3,0,nan,nan,nan,nan,nan,nan,nan,nan,nan,nan,nan,nan,0.0,nan,nan,nan,nan,nan,nan,nan,nan,nan,nan,nan,nan,nan,nan,nan,nan,nan,nan,168.79953522968572,372.6002148514963,nan,372.8616012537532,nan,nan,nan,nan
1,144,1,1,1.0,1.0,0.2452434598671971,0,0,8,2,3,6,7,nan,nan,nan,nan,nan,nan,nan,nan,nan,nan,nan,nan,0.0,nan,nan,nan,nan,nan,nan,nan,nan,nan,nan,nan,nan,nan,nan,nan,nan,nan,nan,168.79953522968572,373.6003477081831,nan,373.8455911680503,nan,nan,nan,nan
1,145,1,1,1.0,1.0,0.2451046160858823,0,1,7,3,4,8,5,nan,nan,nan,nan,nan,nan,nan,nan,nan,nan,nan,nan,0.0,nan,nan,nan,nan,nan,nan,nan,nan,nan,nan,nan,nan,nan,nan,nan,nan,nan,nan,168.79953522968572,374.60048797747004,nan,374.8455925935559,nan,nan,nan,nan
1,146,1,1,1.0,1.0,0.30896106928412337,0,6,1,8,3,7,4,nan,nan,nan,nan,nan,nan,nan,nan,nan,nan,nan,nan,0.0,nan,nan,nan,nan,nan,nan,nan,nan,nan,nan,nan,nan,nan,nan,nan,nan,nan,nan,168.79953522968572,375.60061798314564,nan,375.90957905242976,nan,nan,nan,nan
1,147,1,1,1.0,1.0,0.27679834778246004,0,2,4,7,8,5,1,nan,nan,nan,nan,nan,nan,nan,nan,nan,nan,nan,nan,0.0,nan,nan,nan,nan,nan,nan,nan,nan,nan,nan,nan,nan,nan,nan,nan,nan,nan,nan,168.79953522968572,376.6007565418404,nan,376.87755488962284,nan,nan,nan,nan
1,148,1,1,1.0,1.0,0.2846611256536562,0,0,6,8,1,7,3,nan,nan,nan,nan,nan,nan,nan,nan,nan,nan,nan,nan,0.0,nan,nan,nan,nan,nan,nan,nan,nan,nan,nan,nan,nan,nan,nan,nan,nan,nan,nan,168.79953522968572,377.60089481541945,nan,377.8855559410731,nan,nan,nan,nan
1,149,1,1,1.0,1.0,0.2925048017932568,0,8,5,0,6,2,4,nan,nan,nan,nan,nan,nan,nan,nan,nan,nan,nan,nan,0.0,nan,nan,nan,nan,nan,nan,nan,nan,nan,nan,nan,nan,nan,nan,nan,nan,nan,nan,168.79953522968572,378.6010390761221,nan,378.89354387791536,nan,nan,nan,nan
1,150,0,0,0.0,1.0,0.4123669045511633,0,0,4,3,1,7,5,nan,nan,nan,nan,nan,nan,nan,nan,nan,nan,nan,nan,0.0,nan,nan,nan,nan,nan,nan,nan,nan,nan,nan,nan,nan,nan,nan,nan,nan,nan,nan,168.79953522968572,379.60116394999204,nan,380.0135308545432,nan,nan,nan,nan
1,151,1,1,1.0,1.0,0.3482353296712972,0,6,7,4,3,2,1,nan,nan,nan,nan,nan,nan,nan,nan,nan,nan,nan,nan,0.0,nan,nan,nan,nan,nan,nan,nan,nan,nan,nan,nan,nan,nan,nan,nan,nan,nan,nan,168.79953522968572,380.6012973768811,nan,380.9495327065524,nan,nan,nan,nan
1,152,1,1,1.0,1.0,0.3400860261172056,0,4,0,7,5,6,8,nan,nan,nan,nan,nan,nan,nan,nan,nan,nan,nan,nan,0.0,nan,nan,nan,nan,nan,nan,nan,nan,nan,nan,nan,nan,nan,nan,nan,nan,nan,nan,168.79953522968572,381.6014305186691,nan,381.9415165447863,nan,nan,nan,nan
1,153,1,1,1.0,1.0,0.2759390558494488,1,2,6,8,0,7,3,1.0,1.0,1.0,1.0,1.0,1.0,1.0,1.0,0.0,0.0,0.0,0.0,2.0,2.0,6.0,5.0,6.0,0.0,8.0,2.0,1.0,4.0,5.0,6.0,3.0,2.969341181960772,1.9202620412834221,5.264019872629433,8.199424724865821,10.566910303779878,4.32011532872275,168.79953522968572,382.6015747793572,383.40999316044326,382.8775138352066,395.03658034878026,396.0387029196281,384.42680865415605,395.0282531427365
1,154,1,1,1.0,1.0,0.4002909162227297,0,5,4,1,3,0,7,nan,nan,nan,nan,nan,nan,nan,nan,nan,nan,nan,nan,0.0,nan,nan,nan,nan,nan,nan,nan,nan,nan,nan,nan,nan,nan,nan,nan,nan,nan,nan,168.79953522968572,396.2451026203926,nan,396.6453935366153,nan,nan,nan,nan
1,155,0,0,1.0,0.0,0.33616589865414426,0,4,2,3,5,6,8,nan,nan,nan,nan,nan,nan,nan,nan,nan,nan,nan,nan,0.0,nan,nan,nan,nan,nan,nan,nan,nan,nan,nan,nan,nan,nan,nan,nan,nan,nan,nan,168.79953522968572,397.2452046862454,nan,397.58137058489956,nan,nan,nan,nan
1,156,1,1,1.0,1.0,0.23996739594440442,0,6,0,7,2,8,3,nan,nan,nan,nan,nan,nan,nan,nan,nan,nan,nan,nan,0.0,nan,nan,nan,nan,nan,nan,nan,nan,nan,nan,nan,nan,nan,nan,nan,nan,nan,nan,168.79953522968572,398.2453871503676,nan,398.485354546312,nan,nan,nan,nan
1,157,1,1,1.0,1.0,0.2958413292071782,0,5,4,6,0,7,1,nan,nan,nan,nan,nan,nan,nan,nan,nan,nan,nan,nan,0.0,nan,nan,nan,nan,nan,nan,nan,nan,nan,nan,nan,nan,nan,nan,nan,nan,nan,nan,168.79953522968572,399.24551002854423,nan,399.5413513577514,nan,nan,nan,nan
1,158,1,1,1.0,1.0,0.2716722465411294,0,1,0,5,4,2,7,nan,nan,nan,nan,nan,nan,nan,nan,nan,nan,nan,nan,0.0,nan,nan,nan,nan,nan,nan,nan,nan,nan,nan,nan,nan,nan,nan,nan,nan,nan,nan,168.79953522968572,400.24566113164474,nan,400.51733337818587,nan,nan,nan,nan
1,159,0,0,1.0,0.0,0.23154011972656008,0,3,1,2,0,8,6,nan,nan,nan,nan,nan,nan,nan,nan,nan,nan,nan,nan,0.0,nan,nan,nan,nan,nan,nan,nan,nan,nan,nan,nan,nan,nan,nan,nan,nan,nan,nan,168.79953522968572,401.2457934181148,nan,401.47733353784133,nan,nan,nan,nan
1,160,1,1,1.0,1.0,0.4233962901053019,0,8,6,1,2,7,4,nan,nan,nan,nan,nan,nan,nan,nan,nan,nan,nan,nan,0.0,nan,nan,nan,nan,nan,nan,nan,nan,nan,nan,nan,nan,nan,nan,nan,nan,nan,nan,168.79953522968572,402.24591629630595,nan,402.66931258641125,nan,nan,nan,nan
1,161,1,1,1.0,1.0,0.4072542030189652,0,7,5,0,1,6,8,nan,nan,nan,nan,nan,nan,nan,nan,nan,nan,nan,nan,0.0,nan,nan,nan,nan,nan,nan,nan,nan,nan,nan,nan,nan,nan,nan,nan,nan,nan,nan,168.79953522968572,403.24606255268736,nan,403.6533167557063,nan,nan,nan,nan
1,162,1,1,1.0,1.0,0.39910946108284406,1,3,8,6,7,2,1,1.0,1.0,1.0,1.0,1.0,1.0,0.0,1.0,1.0,0.0,0.0,1.0,3.0,5.0,8.0,6.0,6.0,7.0,1.0,3.0,2.0,1.0,6.0,5.0,4.0,3.0584033420600463,2.3245303901057923,1.307237353597884,6.162347731558839,5.067108876057318,3.778190634518978,168.79953522968572,404.2462028219743,405.0546260497795,404.64531228305714,412.26389613914944,413.2609539052937,406.06309694632364,412.25556180559215
1,163,1,1,1.0,1.0,0.40510625825845636,0,6,5,4,8,7,0,nan,nan,nan,nan,nan,nan,nan,nan,nan,nan,nan,nan,0.0,nan,nan,nan,nan,nan,nan,nan,nan,nan,nan,nan,nan,nan,nan,nan,nan,nan,nan,168.79953522968572,413.4641345399141,nan,413.86924079817254,nan,nan,nan,nan
1,164,1,1,1.0,1.0,0.3409242206689669,0,2,3,1,4,5,7,nan,nan,nan,nan,nan,nan,nan,nan,nan,nan,nan,nan,0.0,nan,nan,nan,nan,nan,nan,nan,nan,nan,nan,nan,nan,nan,nan,nan,nan,nan,nan,168.79953522968572,414.4642656859942,nan,414.80518990666314,nan,nan,nan,nan
1,165,1,1,1.0,1.0,0.3807752387074288,0,6,8,4,2,0,1,nan,nan,nan,nan,nan,nan,nan,nan,nan,nan,nan,nan,0.0,nan,nan,nan,nan,nan,nan,nan,nan,nan,nan,nan,nan,nan,nan,nan,nan,nan,nan,168.79953522968572,415.46441308279464,nan,415.84518832150206,nan,nan,nan,nan
1,166,1,1,1.0,1.0,0.3486415974330157,0,8,2,0,4,5,7,nan,nan,nan,nan,nan,nan,nan,nan,nan,nan,nan,nan,0.0,nan,nan,nan,nan,nan,nan,nan,nan,nan,nan,nan,nan,nan,nan,nan,nan,nan,nan,168.79953522968572,416.46454451397585,nan,416.81318611140887,nan,nan,nan,nan
1,167,1,1,1.0,1.0,0.3084858072834322,0,0,4,6,5,3,1,nan,nan,nan,nan,nan,nan,nan,nan,nan,nan,nan,nan,0.0,nan,nan,nan,nan,nan,nan,nan,nan,nan,nan,nan,nan,nan,nan,nan,nan,nan,nan,168.79953522968572,417.46470417008095,nan,417.7731899773644,nan,nan,nan,nan
1,168,1,1,1.0,1.0,0.34834480813879054,0,1,7,3,8,4,2,nan,nan,nan,nan,nan,nan,nan,nan,nan,nan,nan,nan,0.0,nan,nan,nan,nan,nan,nan,nan,nan,nan,nan,nan,nan,nan,nan,nan,nan,nan,nan,168.79953522968572,418.4648535625747,nan,418.8131983707135,nan,nan,nan,nan
1,169,1,1,1.0,1.0,0.3162091711710673,0,7,5,4,1,0,8,nan,nan,nan,nan,nan,nan,nan,nan,nan,nan,nan,nan,0.0,nan,nan,nan,nan,nan,nan,nan,nan,nan,nan,nan,nan,nan,nan,nan,nan,nan,nan,168.79953522968572,419.464960190031,nan,419.78116936120205,nan,nan,nan,nan
1,170,0,0,0.0,1.0,0.4040690638066735,0,1,8,2,0,7,6,nan,nan,nan,nan,nan,nan,nan,nan,nan,nan,nan,nan,0.0,nan,nan,nan,nan,nan,nan,nan,nan,nan,nan,nan,nan,nan,nan,nan,nan,nan,nan,168.79953522968572,420.46508591921884,nan,420.8691549830255,nan,nan,nan,nan
1,171,1,1,1.0,1.0,0.3159086755622411,0,7,0,8,6,5,4,nan,nan,nan,nan,nan,nan,nan,nan,nan,nan,nan,nan,0.0,nan,nan,nan,nan,nan,nan,nan,nan,nan,nan,nan,nan,nan,nan,nan,nan,nan,nan,168.79953522968572,421.4652233375091,nan,421.7811320130713,nan,nan,nan,nan
1,172,1,1,1.0,1.0,0.37180969334440306,0,6,5,3,4,8,2,nan,nan,nan,nan,nan,nan,nan,nan,nan,nan,nan,nan,0.0,nan,nan,nan,nan,nan,nan,nan,nan,nan,nan,nan,nan,nan,nan,nan,nan,nan,nan,168.79953522968572,422.4653231225675,nan,422.8371328159119,nan,nan,nan,nan
1,173,1,1,1.0,1.0,0.3876835011760704,1,1,3,5,6,0,8,1.0,1.0,1.0,1.0,1.0,1.0,1.0,0.0,0.0,1.0,0.0,0.0,2.0,1.0,2.0,1.0,6.0,8.0,6.0,4.0,3.0,2.0,1.0,6.0,5.0,4.159800361449015,3.1912982293288223,2.3031541488162475,1.592696189545677,6.30276584236708,5.247356337305973,168.79953522968572,423.46549703367054,424.27392254227016,423.8531805348466,431.6249184969929,432.63599264327786,425.28239600472443,431.61659186113684
1,174,1,1,1.0,1.0,0.3792627822549548,0,5,7,4,1,2,6,nan,nan,nan,nan,nan,nan,nan,nan,nan,nan,nan,nan,0.0,nan,nan,nan,nan,nan,nan,nan,nan,nan,nan,nan,nan,nan,nan,nan,nan,nan,nan,168.79953522968572,432.84177966375137,nan,433.2210424460063,nan,nan,nan,nan
1,175,1,1,1.0,1.0,0.2831201591761783,0,7,8,5,0,1,3,nan,nan,nan,nan,nan,nan,nan,nan,nan,nan,nan,nan,0.0,nan,nan,nan,nan,nan,nan,nan,nan,nan,nan,nan,nan,nan,nan,nan,nan,nan,nan,168.79953522968572,433.84189769522345,nan,434.12501785439963,nan,nan,nan,nan
1,176,1,1,1.0,1.0,0.29895177217258606,0,6,4,7,3,2,0,nan,nan,nan,nan,nan,nan,nan,nan,nan,nan,nan,nan,0.0,nan,nan,nan,nan,nan,nan,nan,nan,nan,nan,nan,nan,nan,nan,nan,nan,nan,nan,168.79953522968572,434.84204936851165,nan,435.14100114068424,nan,nan,nan,nan
1,177,1,1,1.0,1.0,0.33880735182901844,0,3,1,8,6,0,4,nan,nan,nan,nan,nan,nan,nan,nan,nan,nan,nan,nan,0.0,nan,nan,nan,nan,nan,nan,nan,nan,nan,nan,nan,nan,nan,nan,nan,nan,nan,nan,168.79953522968572,435.84219191860757,nan,436.1809992704366,nan,nan,nan,nan
1,178,0,0,0.0,1.0,0.4666759229148738,0,1,2,7,4,3,0,nan,nan,nan,nan,nan,nan,nan,nan,nan,nan,nan,nan,0.0,nan,nan,nan,nan,nan,nan,nan,nan,nan,nan,nan,nan,nan,nan,nan,nan,nan,nan,168.79953522968572,436.8423216391966,nan,437.3089975621115,nan,nan,nan,nan
1,179,1,1,1.0,1.0,0.3625057340832427,0,4,0,1,2,5,3,nan,nan,nan,nan,nan,nan,nan,nan,nan,nan,nan,nan,0.0,nan,nan,nan,nan,nan,nan,nan,nan,nan,nan,nan,nan,nan,nan,nan,nan,nan,nan,168.79953522968572,437.8424718869792,nan,438.2049776210624,nan,nan,nan,nan
1,180,1,1,1.0,1.0,0.4343743576318957,0,0,1,4,6,7,8,nan,nan,nan,nan,nan,nan,nan,nan,nan,nan,nan,nan,0.0,nan,nan,nan,nan,nan,nan,nan,nan,nan,nan,nan,nan,nan,nan,nan,nan,nan,nan,168.79953522968572,438.842604743666,nan,439.2769791012979,nan,nan,nan,nan
1,181,1,1,1.0,1.0,0.33826167006918695,0,5,3,1,7,8,2,nan,nan,nan,nan,nan,nan,nan,nan,nan,nan,nan,nan,0.0,nan,nan,nan,nan,nan,nan,nan,nan,nan,nan,nan,nan,nan,nan,nan,nan,nan,nan,168.79953522968572,439.84270424363785,nan,440.18096591370704,nan,nan,nan,nan
1,182,1,1,1.0,1.0,0.28209123262786306,1,4,2,3,6,5,8,1.0,1.0,1.0,1.0,1.0,1.0,0.0,0.0,1.0,1.0,1.0,1.0,4.0,2.0,1.0,3.0,6.0,5.0,8.0,4.0,3.0,2.0,1.0,6.0,5.0,4.189330182780395,3.494867198911379,2.719553225208074,1.6613657039852114,5.909531155601144,5.1259350216714665,168.79953522968572,440.8428727378341,441.651304803745,441.124963970462,448.6105756771285,449.60864241281524,442.65977969169035,448.60224162867235
1,183,0,0,0.0,1.0,0.4901083067088621,0,2,0,1,8,3,5,nan,nan,nan,nan,nan,nan,nan,nan,nan,nan,nan,nan,0.0,nan,nan,nan,nan,nan,nan,nan,nan,nan,nan,nan,nan,nan,nan,nan,nan,nan,nan,168.79953522968572,449.8107750191848,nan,450.30088332589366,nan,nan,nan,nan
1,184,1,1,1.0,1.0,0.36995568688143976,0,0,6,4,5,2,7,nan,nan,nan,nan,nan,nan,nan,nan,nan,nan,nan,nan,0.0,nan,nan,nan,nan,nan,nan,nan,nan,nan,nan,nan,nan,nan,nan,nan,nan,nan,nan,168.79953522968572,450.8109053099615,nan,451.18086099684297,nan,nan,nan,nan
1,185,1,1,1.0,1.0,0.36179668993281666,0,6,4,0,3,8,2,nan,nan,nan,nan,nan,nan,nan,nan,nan,nan,nan,nan,0.0,nan,nan,nan,nan,nan,nan,nan,nan,nan,nan,nan,nan,nan,nan,nan,nan,nan,nan,168.79953522968572,451.81104244315065,nan,452.17283913308347,nan,nan,nan,nan
1,186,1,1,1.0,1.0,0.3136541033454705,0,8,3,4,7,1,0,nan,nan,nan,nan,nan,nan,nan,nan,nan,nan,nan,nan,0.0,nan,nan,nan,nan,nan,nan,nan,nan,nan,nan,nan,nan,nan,nan,nan,nan,nan,nan,168.79953522968572,452.81118356774095,nan,453.1248376710864,nan,nan,nan,nan
1,187,1,1,1.0,1.0,0.29750945036357734,0,2,7,6,0,5,1,nan,nan,nan,nan,nan,nan,nan,nan,nan,nan,nan,nan,0.0,nan,nan,nan,nan,nan,nan,nan,nan,nan,nan,nan,nan,nan,nan,nan,nan,nan,nan,168.79953522968572,453.8113261178223,nan,454.1088355681859,nan,nan,nan,nan
1,188,1,1,1.0,1.0,0.2893530193105107,0,1,8,0,3,7,2,nan,nan,nan,nan,nan,nan,nan,nan,nan,nan,nan,nan,0.0,nan,nan,nan,nan,nan,nan,nan,nan,nan,nan,nan,nan,nan,nan,nan,nan,nan,nan,168.79953522968572,454.8114652467193,nan,455.1008182660298,nan,nan,nan,nan
1,189,1,1,1.0,1.0,0.34520471475843806,0,5,3,1,2,8,4,nan,nan,nan,nan,nan,nan,nan,nan,nan,nan,nan,nan,0.0,nan,nan,nan,nan,nan,nan,nan,nan,nan,nan,nan,nan,nan,nan,nan,nan,nan,nan,168.79953522968572,455.8115998139983,nan,456.15680452875677,nan,nan,nan,nan
1,190,1,1,1.0,1.0,0.32905122365627903,0,3,4,6,8,5,2,nan,nan,nan,nan,nan,nan,nan,nan,nan,nan,nan,nan,0.0,nan,nan,nan,nan,nan,nan,nan,nan,nan,nan,nan,nan,nan,nan,nan,nan,nan,nan,168.79953522968572,456.8117432193976,nan,457.1407944430539,nan,nan,nan,nan
1,191,1,1,1.0,1.0,0.3049100808275398,1,4,1,8,0,7,3,1.0,1.0,1.0,1.0,1.0,1.0,1.0,1.0,0.0,0.0,0.0,0.0,2.0,4.0,1.0,7.0,1.0,4.0,8.0,2.0,1.0,6.0,5.0,4.0,3.0,2.3162704677088186,1.2790506392193493,5.292132175862207,4.283980021325988,3.5885841896524653,2.9815828134742333,168.79953522968572,457.8118740803766,458.6202910359716,458.1167841612041,464.97115812539414,465.97290151299967,459.6371039637743,464.96282350673573
1,192,1,1,1.0,1.0,0.2970364691573195,0,6,4,7,5,8,1,nan,nan,nan,nan,nan,nan,nan,nan,nan,nan,nan,nan,0.0,nan,nan,nan,nan,nan,nan,nan,nan,nan,nan,nan,nan,nan,nan,nan,nan,nan,nan,168.79953522968572,466.17967925660196,nan,466.4767157257593,nan,nan,nan,nan
1,193,1,1,1.0,1.0,0.20888862531865016,0,2,0,3,8,7,5,nan,nan,nan,nan,nan,nan,nan,nan,nan,nan,nan,nan,0.0,nan,nan,nan,nan,nan,nan,nan,nan,nan,nan,nan,nan,nan,nan,nan,nan,nan,nan,168.79953522968572,467.1798152493866,nan,467.38870387470524,nan,nan,nan,nan
1,194,1,1,1.0,1.0,0.024756103928666562,0,7,5,8,6,0,2,nan,nan,nan,nan,nan,nan,nan,nan,nan,nan,nan,nan,0.0,nan,nan,nan,nan,nan,nan,nan,nan,nan,nan,nan,nan,nan,nan,nan,nan,nan,nan,168.79953522968572,468.1799538080668,nan,468.20470991199545,nan,nan,nan,nan
1,195,1,1,1.0,1.0,0.4325636863941327,0,5,8,1,3,7,6,nan,nan,nan,nan,nan,nan,nan,nan,nan,nan,nan,nan,0.0,nan,nan,nan,nan,nan,nan,nan,nan,nan,nan,nan,nan,nan,nan,nan,nan,nan,nan,168.79953522968572,469.1800832435547,nan,469.6126469299488,nan,nan,nan,nan
1,196,1,1,1.0,1.0,0.3284442453732481,0,6,7,8,5,4,3,nan,nan,nan,nan,nan,nan,nan,nan,nan,nan,nan,nan,0.0,nan,nan,nan,nan,nan,nan,nan,nan,nan,nan,nan,nan,nan,nan,nan,nan,nan,nan,168.79953522968572,470.1802277893439,nan,470.50867203471716,nan,nan,nan,nan
1,197,0,0,1.0,0.0,0.25629365774511825,0,1,5,6,0,8,2,nan,nan,nan,nan,nan,nan,nan,nan,nan,nan,nan,nan,0.0,nan,nan,nan,nan,nan,nan,nan,nan,nan,nan,nan,nan,nan,nan,nan,nan,nan,nan,168.79953522968572,471.18035950562626,nan,471.4366531633714,nan,nan,nan,nan
1,198,1,1,1.0,1.0,0.26415358460508287,0,8,1,4,2,3,7,nan,nan,nan,nan,nan,nan,nan,nan,nan,nan,nan,nan,0.0,nan,nan,nan,nan,nan,nan,nan,nan,nan,nan,nan,nan,nan,nan,nan,nan,nan,nan,168.79953522968572,472.1804883709119,nan,472.444641955517,nan,nan,nan,nan
1,199,1,1,1.0,1.0,0.29601638071471825,0,1,6,2,4,5,8,nan,nan,nan,nan,nan,nan,nan,nan,nan,nan,nan,nan,0.0,nan,nan,nan,nan,nan,nan,nan,nan,nan,nan,nan,nan,nan,nan,nan,nan,nan,nan,168.79953522968572,473.18064032930124,nan,473.47665671001596,nan,nan,nan,nan
1,200,1,1,1.0,1.0,0.279846638921299,0,0,7,5,6,8,2,nan,nan,nan,nan,nan,nan,nan,nan,nan,nan,nan,nan,0.0,nan,nan,nan,nan,nan,nan,nan,nan,nan,nan,nan,nan,nan,nan,nan,nan,nan,nan,168.79953522968572,474.1807851601916,nan,474.4606317991129,nan,nan,nan,nan
1,201,1,1,1.0,1.0,0.2717036075773649,0,7,6,0,2,1,8,nan,nan,nan,nan,nan,nan,nan,nan,nan,nan,nan,nan,0.0,nan,nan,nan,nan,nan,nan,nan,nan,nan,nan,nan,nan,nan,nan,nan,nan,nan,nan,168.79953522968572,475.18091858708067,nan,475.45262219465803,nan,nan,nan,nan
1,202,1,1,1.0,1.0,0.2156591843959177,0,6,3,4,5,7,2,nan,nan,nan,nan,nan,nan,nan,nan,nan,nan,nan,nan,0.0,nan,nan,nan,nan,nan,nan,nan,nan,nan,nan,nan,nan,nan,nan,nan,nan,nan,nan,168.79953522968572,476.1810557202698,nan,476.3967149046657,nan,nan,nan,nan
1,203,1,1,1.0,1.0,0.2394328330992721,0,4,8,3,6,5,1,nan,nan,nan,nan,nan,nan,nan,nan,nan,nan,nan,nan,0.0,nan,nan,nan,nan,nan,nan,nan,nan,nan,nan,nan,nan,nan,nan,nan,nan,nan,nan,168.79953522968572,477.18118857695663,nan,477.4206214100559,nan,nan,nan,nan
1,204,1,1,1.0,1.0,0.2152731587557355,0,6,5,7,0,8,4,nan,nan,nan,nan,nan,nan,nan,nan,nan,nan,nan,nan,0.0,nan,nan,nan,nan,nan,nan,nan,nan,nan,nan,nan,nan,nan,nan,nan,nan,nan,nan,168.79953522968572,478.1813314121391,nan,478.39660457089485,nan,nan,nan,nan
1,205,0,0,0.0,1.0,0.39110384802916087,0,3,4,2,8,0,5,nan,nan,nan,nan,nan,nan,nan,nan,nan,nan,nan,nan,0.0,nan,nan,nan,nan,nan,nan,nan,nan,nan,nan,nan,nan,nan,nan,nan,nan,nan,nan,168.79953522968572,479.1814682602271,nan,479.5725721082563,nan,nan,nan,nan
1,206,1,1,1.0,1.0,0.3029816632042639,0,7,5,6,4,2,1,nan,nan,nan,nan,nan,nan,nan,nan,nan,nan,nan,nan,0.0,nan,nan,nan,nan,nan,nan,nan,nan,nan,nan,nan,nan,nan,nan,nan,nan,nan,nan,168.79953522968572,480.1816014020151,nan,480.48458306521934,nan,nan,nan,nan
1,207,1,1,1.0,1.0,0.28683273372007534,0,0,8,7,5,1,2,nan,nan,nan,nan,nan,nan,nan,nan,nan,nan,nan,nan,0.0,nan,nan,nan,nan,nan,nan,nan,nan,nan,nan,nan,nan,nan,nan,nan,nan,nan,nan,168.79953522968572,481.1817348288896,nan,481.4685675626097,nan,nan,nan,nan
1,208,0,0,1.0,0.0,0.3026911461347481,0,1,3,5,8,4,0,nan,nan,nan,nan,nan,nan,nan,nan,nan,nan,nan,nan,0.0,nan,nan,nan,nan,nan,nan,nan,nan,nan,nan,nan,nan,nan,nan,nan,nan,nan,nan,168.79953522968572,482.1818671153742,nan,482.48455826150894,nan,nan,nan,nan
1,209,1,1,1.0,1.0,0.26254191328189336,0,3,1,0,5,6,4,nan,nan,nan,nan,nan,nan,nan,nan,nan,nan,nan,nan,0.0,nan,nan,nan,nan,nan,nan,nan,nan,nan,nan,nan,nan,nan,nan,nan,nan,nan,nan,168.79953522968572,483.1820011124655,nan,483.4445430257474,nan,nan,nan,nan
1,210,1,1,1.0,1.0,0.3503995251376182,0,0,5,4,8,3,1,nan,nan,nan,nan,nan,nan,nan,nan,nan,nan,nan,nan,0.0,nan,nan,nan,nan,nan,nan,nan,nan,nan,nan,nan,nan,nan,nan,nan,nan,nan,nan,168.79953522968572,484.18215421125933,nan,484.53255373639695,nan,nan,nan,nan
1,211,0,0,0.0,1.0,0.4542529676837148,0,8,6,3,1,4,0,nan,nan,nan,nan,nan,nan,nan,nan,nan,nan,nan,nan,0.0,nan,nan,nan,nan,nan,nan,nan,nan,nan,nan,nan,nan,nan,nan,nan,nan,nan,nan,168.79953522968572,485.18228108083713,nan,485.63653404852084,nan,nan,nan,nan
1,212,1,1,1.0,1.0,0.350106442157994,0,3,8,2,7,0,4,nan,nan,nan,nan,nan,nan,nan,nan,nan,nan,nan,nan,0.0,nan,nan,nan,nan,nan,nan,nan,nan,nan,nan,nan,nan,nan,nan,nan,nan,nan,nan,168.79953522968572,486.18242135012406,nan,486.53252779228205,nan,nan,nan,nan
1,213,1,1,1.0,1.0,0.3099583497096319,0,0,6,5,3,7,2,nan,nan,nan,nan,nan,nan,nan,nan,nan,nan,nan,nan,0.0,nan,nan,nan,nan,nan,nan,nan,nan,nan,nan,nan,nan,nan,nan,nan,nan,nan,nan,168.79953522968572,487.18255591741763,nan,487.49251426712726,nan,nan,nan,nan
1,214,1,1,1.0,1.0,0.3818303944717627,0,7,5,3,0,4,6,nan,nan,nan,nan,nan,nan,nan,nan,nan,nan,nan,nan,0.0,nan,nan,nan,nan,nan,nan,nan,nan,nan,nan,nan,nan,nan,nan,nan,nan,nan,nan,168.79953522968572,488.1826833571977,nan,488.56451375166944,nan,nan,nan,nan
1,215,1,1,1.0,1.0,0.4136755143699702,0,6,2,8,3,0,7,nan,nan,nan,nan,nan,nan,nan,nan,nan,nan,nan,nan,0.0,nan,nan,nan,nan,nan,nan,nan,nan,nan,nan,nan,nan,nan,nan,nan,nan,nan,nan,168.79953522968572,489.182828188088,nan,489.596503702458,nan,nan,nan,nan
1,216,1,1,1.0,1.0,0.3975126149744028,0,7,8,1,5,2,3,nan,nan,nan,nan,nan,nan,nan,nan,nan,nan,nan,nan,0.0,nan,nan,nan,nan,nan,nan,nan,nan,nan,nan,nan,nan,nan,nan,nan,nan,nan,nan,168.79953522968572,490.182979291174,nan,490.5804919061484,nan,nan,nan,nan
1,217,1,1,1.0,1.0,0.34937373468710575,0,5,7,2,4,3,8,nan,nan,nan,nan,nan,nan,nan,nan,nan,nan,nan,nan,0.0,nan,nan,nan,nan,nan,nan,nan,nan,nan,nan,nan,nan,nan,nan,nan,nan,nan,nan,168.79953522968572,491.1831172796665,nan,491.5324910143536,nan,nan,nan,nan
1,218,1,1,1.0,1.0,0.45323287924111355,0,2,3,5,8,0,6,nan,nan,nan,nan,nan,nan,nan,nan,nan,nan,nan,nan,0.0,nan,nan,nan,nan,nan,nan,nan,nan,nan,nan,nan,nan,nan,nan,nan,nan,nan,nan,168.79953522968572,492.1832390174386,nan,492.6364718966797,nan,nan,nan,nan
1,219,0,0,0.0,1.0,0.4610634407872567,0,6,5,1,7,3,8,nan,nan,nan,nan,nan,nan,nan,nan,nan,nan,nan,nan,0.0,nan,nan,nan,nan,nan,nan,nan,nan,nan,nan,nan,nan,nan,nan,nan,nan,nan,nan,168.79953522968572,493.18340209474263,nan,493.6444655355299,nan,nan,nan,nan
1,220,1,1,1.0,1.0,0.37293384336226154,0,5,2,7,1,8,0,nan,nan,nan,nan,nan,nan,nan,nan,nan,nan,nan,nan,0.0,nan,nan,nan,nan,nan,nan,nan,nan,nan,nan,nan,nan,nan,nan,nan,nan,nan,nan,168.79953522968572,494.1835226921248,nan,494.5564565354871,nan,nan,nan,nan
1,221,1,1,1.0,1.0,0.31678478841786273,0,2,8,3,0,1,5,nan,nan,nan,nan,nan,nan,nan,nan,nan,nan,nan,nan,0.0,nan,nan,nan,nan,nan,nan,nan,nan,nan,nan,nan,nan,nan,nan,nan,nan,nan,nan,168.79953522968572,495.18366296141176,nan,495.5004477498296,nan,nan,nan,nan
1,222,1,1,1.0,1.0,0.33265203893824946,0,4,2,5,6,7,3,nan,nan,nan,nan,nan,nan,nan,nan,nan,nan,nan,nan,0.0,nan,nan,nan,nan,nan,nan,nan,nan,nan,nan,nan,nan,nan,nan,nan,nan,nan,nan,168.79953522968572,496.183798098893,nan,496.51645013783127,nan,nan,nan,nan
1,223,1,1,1.0,1.0,0.3405031276779482,0,0,4,6,3,5,7,nan,nan,nan,nan,nan,nan,nan,nan,nan,nan,nan,nan,0.0,nan,nan,nan,nan,nan,nan,nan,nan,nan,nan,nan,nan,nan,nan,nan,nan,nan,nan,168.79953522968572,497.1839286747854,nan,497.52443180246337,nan,nan,nan,nan
1,224,1,1,1.0,1.0,0.4523325328627834,0,8,3,4,5,0,1,nan,nan,nan,nan,nan,nan,nan,nan,nan,nan,nan,nan,0.0,nan,nan,nan,nan,nan,nan,nan,nan,nan,nan,nan,nan,nan,nan,nan,nan,nan,nan,168.79953522968572,498.18407179506903,nan,498.6364043279318,nan,nan,nan,nan
1,225,1,1,1.0,1.0,0.5321967909694649,0,0,5,7,3,8,4,nan,nan,nan,nan,nan,nan,nan,nan,nan,nan,nan,nan,0.0,nan,nan,nan,nan,nan,nan,nan,nan,nan,nan,nan,nan,nan,nan,nan,nan,nan,nan,168.79953522968572,499.1841995199502,nan,499.71639631091966,nan,nan,nan,nan
1,226,1,1,1.0,1.0,0.46004734373127576,0,2,6,4,5,7,1,nan,nan,nan,nan,nan,nan,nan,nan,nan,nan,nan,nan,0.0,nan,nan,nan,nan,nan,nan,nan,nan,nan,nan,nan,nan,nan,nan,nan,nan,nan,nan,168.79953522968572,500.1843349425326,nan,500.64438228626386,nan,nan,nan,nan
1,227,1,1,1.0,1.0,0.45187209607684053,0,6,8,1,0,3,2,nan,nan,nan,nan,nan,nan,nan,nan,nan,nan,nan,nan,0.0,nan,nan,nan,nan,nan,nan,nan,nan,nan,nan,nan,nan,nan,nan,nan,nan,nan,nan,168.79953522968572,501.1844923178287,nan,501.63636441390554,nan,nan,nan,nan
1,228,1,1,1.0,1.0,0.3797580012760591,0,8,4,5,7,6,1,nan,nan,nan,nan,nan,nan,nan,nan,nan,nan,nan,nan,0.0,nan,nan,nan,nan,nan,nan,nan,nan,nan,nan,nan,nan,nan,nan,nan,nan,nan,nan,168.79953522968572,502.1846106344019,nan,502.56436863567797,nan,nan,nan,nan
1,229,1,1,1.0,1.0,0.3556185690249549,0,2,8,7,4,5,3,nan,nan,nan,nan,nan,nan,nan,nan,nan,nan,nan,nan,0.0,nan,nan,nan,nan,nan,nan,nan,nan,nan,nan,nan,nan,nan,nan,nan,nan,nan,nan,168.79953522968572,503.18474491659435,nan,503.5403634856193,nan,nan,nan,nan
1,230,1,1,1.0,1.0,0.3474755376810208,0,7,1,4,8,0,5,nan,nan,nan,nan,nan,nan,nan,nan,nan,nan,nan,nan,0.0,nan,nan,nan,nan,nan,nan,nan,nan,nan,nan,nan,nan,nan,nan,nan,nan,nan,nan,168.79953522968572,504.18488718158915,nan,504.53236271927017,nan,nan,nan,nan
1,231,1,1,1.0,1.0,0.3393213874369394,0,0,4,5,2,3,8,nan,nan,nan,nan,nan,nan,nan,nan,nan,nan,nan,nan,0.0,nan,nan,nan,nan,nan,nan,nan,nan,nan,nan,nan,nan,nan,nan,nan,nan,nan,nan,168.79953522968572,505.1850188978715,nan,505.5243402853084,nan,nan,nan,nan
1,232,1,1,1.0,1.0,0.3551621236401843,0,5,0,2,1,4,6,nan,nan,nan,nan,nan,nan,nan,nan,nan,nan,nan,nan,0.0,nan,nan,nan,nan,nan,nan,nan,nan,nan,nan,nan,nan,nan,nan,nan,nan,nan,nan,168.79953522968572,506.1851642989641,nan,506.54032642260427,nan,nan,nan,nan
1,233,1,1,1.0,1.0,0.33101670430914965,0,7,6,8,4,0,2,nan,nan,nan,nan,nan,nan,nan,nan,nan,nan,nan,nan,0.0,nan,nan,nan,nan,nan,nan,nan,nan,nan,nan,nan,nan,nan,nan,nan,nan,nan,nan,168.79953522968572,507.18530143213866,nan,507.5163181364478,nan,nan,nan,nan
1,234,1,1,1.0,1.0,0.29888306303473655,0,0,1,5,7,6,4,nan,nan,nan,nan,nan,nan,nan,nan,nan,nan,nan,nan,0.0,nan,nan,nan,nan,nan,nan,nan,nan,nan,nan,nan,nan,nan,nan,nan,nan,nan,nan,168.79953522968572,508.18544227162783,nan,508.48432533466257,nan,nan,nan,nan
1,235,0,0,0.0,1.0,0.5547331048874184,0,5,4,8,6,2,1,nan,nan,nan,nan,nan,nan,nan,nan,nan,nan,nan,nan,0.0,nan,nan,nan,nan,nan,nan,nan,nan,nan,nan,nan,nan,nan,nan,nan,nan,nan,nan,168.79953522968572,509.18557598361804,nan,509.74030908850546,nan,nan,nan,nan
1,236,1,1,1.0,1.0,0.394564679110772,0,8,7,0,3,6,4,nan,nan,nan,nan,nan,nan,nan,nan,nan,nan,nan,nan,0.0,nan,nan,nan,nan,nan,nan,nan,nan,nan,nan,nan,nan,nan,nan,nan,nan,nan,nan,168.79953522968572,510.1857210996095,nan,510.5802857787203,nan,nan,nan,nan
1,237,1,1,1.0,1.0,0.3944383797352202,0,0,3,7,6,5,8,nan,nan,nan,nan,nan,nan,nan,nan,nan,nan,nan,nan,0.0,nan,nan,nan,nan,nan,nan,nan,nan,nan,nan,nan,nan,nan,nan,nan,nan,nan,nan,168.79953522968572,511.1858562370908,nan,511.580294616826,nan,nan,nan,nan
1,238,1,1,1.0,1.0,0.3622842112381477,0,4,7,5,8,3,2,nan,nan,nan,nan,nan,nan,nan,nan,nan,nan,nan,nan,0.0,nan,nan,nan,nan,nan,nan,nan,nan,nan,nan,nan,nan,nan,nan,nan,nan,nan,nan,168.79953522968572,512.1859905192832,nan,512.5482747305214,nan,nan,nan,nan
1,239,0,0,0.0,1.0,0.46615190878219437,0,7,5,6,1,2,0,nan,nan,nan,nan,nan,nan,nan,nan,nan,nan,nan,nan,0.0,nan,nan,nan,nan,nan,nan,nan,nan,nan,nan,nan,nan,nan,nan,nan,nan,nan,nan,168.79953522968572,513.1861188143666,nan,513.6522707231488,nan,nan,nan,nan
1,240,1,1,1.0,1.0,0.3620005365664838,0,3,8,2,6,7,4,nan,nan,nan,nan,nan,nan,nan,nan,nan,nan,nan,nan,0.0,nan,nan,nan,nan,nan,nan,nan,nan,nan,nan,nan,nan,nan,nan,nan,nan,nan,nan,168.79953522968572,514.1862619346502,nan,514.5482624712167,nan,nan,nan,nan
1,241,1,1,1.0,1.0,0.3378516960074194,0,8,2,3,1,0,7,nan,nan,nan,nan,nan,nan,nan,nan,nan,nan,nan,nan,0.0,nan,nan,nan,nan,nan,nan,nan,nan,nan,nan,nan,nan,nan,nan,nan,nan,nan,nan,168.79953522968572,515.186391085037,nan,515.5242427810444,nan,nan,nan,nan
1,242,1,1,1.0,1.0,0.33771000122942496,0,5,3,4,7,2,1,nan,nan,nan,nan,nan,nan,nan,nan,nan,nan,nan,nan,0.0,nan,nan,nan,nan,nan,nan,nan,nan,nan,nan,nan,nan,nan,nan,nan,nan,nan,nan,168.79953522968572,516.186527933125,nan,516.5242379343545,nan,nan,nan,nan
1,243,1,1,1.0,1.0,0.24956500840198714,0,4,0,2,5,1,6,nan,nan,nan,nan,nan,nan,nan,nan,nan,nan,nan,nan,0.0,nan,nan,nan,nan,nan,nan,nan,nan,nan,nan,nan,nan,nan,nan,nan,nan,nan,nan,168.79953522968572,517.1866656365019,nan,517.4362306449038,nan,nan,nan,nan
1,244,1,1,1.0,1.0,0.2334232064167736,0,3,2,7,4,0,8,nan,nan,nan,nan,nan,nan,nan,nan,nan,nan,nan,nan,0.0,nan,nan,nan,nan,nan,nan,nan,nan,nan,nan,nan,nan,nan,nan,nan,nan,nan,nan,168.79953522968572,518.1867982080876,nan,518.4202214145043,nan,nan,nan,nan
1,245,1,1,1.0,1.0,0.2172757024236489,0,8,7,0,1,2,4,nan,nan,nan,nan,nan,nan,nan,nan,nan,nan,nan,nan,0.0,nan,nan,nan,nan,nan,nan,nan,nan,nan,nan,nan,nan,nan,nan,nan,nan,nan,nan,168.79953522968572,519.1869481707836,nan,519.4042238732072,nan,nan,nan,nan
1,246,1,1,1.0,1.0,0.36914030036132317,0,7,4,3,0,5,2,nan,nan,nan,nan,nan,nan,nan,nan,nan,nan,nan,nan,0.0,nan,nan,nan,nan,nan,nan,nan,nan,nan,nan,nan,nan,nan,nan,nan,nan,nan,nan,168.79953522968572,520.1870773211704,nan,520.5562176215317,nan,nan,nan,nan
1,247,1,1,1.0,1.0,0.32097433556918986,0,0,8,7,3,1,5,nan,nan,nan,nan,nan,nan,nan,nan,nan,nan,nan,nan,0.0,nan,nan,nan,nan,nan,nan,nan,nan,nan,nan,nan,nan,nan,nan,nan,nan,nan,nan,168.79953522968572,521.1872087523516,nan,521.5081830879208,nan,nan,nan,nan
1,248,0,0,1.0,0.0,0.27283631059981417,0,8,1,0,5,2,3,nan,nan,nan,nan,nan,nan,nan,nan,nan,nan,nan,nan,0.0,nan,nan,nan,nan,nan,nan,nan,nan,nan,nan,nan,nan,nan,nan,nan,nan,nan,nan,168.79953522968572,522.1873467408295,nan,522.4601830514293,nan,nan,nan,nan
1,249,1,1,1.0,1.0,0.2806546128122136,0,0,5,3,8,4,6,nan,nan,nan,nan,nan,nan,nan,nan,nan,nan,nan,nan,0.0,nan,nan,nan,nan,nan,nan,nan,nan,nan,nan,nan,nan,nan,nan,nan,nan,nan,nan,168.79953522968572,523.1874912866333,nan,523.4681458994455,nan,nan,nan,nan
1,250,1,1,1.0,1.0,0.3045246253896039,0,5,8,1,4,3,2,nan,nan,nan,nan,nan,nan,nan,nan,nan,nan,nan,nan,0.0,nan,nan,nan,nan,nan,nan,nan,nan,nan,nan,nan,nan,nan,nan,nan,nan,nan,nan,168.79953522968572,524.1876289900101,nan,524.4921536153997,nan,nan,nan,nan
1,251,1,1,1.0,1.0,0.34439189414842986,0,2,6,8,0,7,1,nan,nan,nan,nan,nan,nan,nan,nan,nan,nan,nan,nan,0.0,nan,nan,nan,nan,nan,nan,nan,nan,nan,nan,nan,nan,nan,nan,nan,nan,nan,nan,168.79953522968572,525.1877575701947,nan,525.5321494643431,nan,nan,nan,nan
1,252,0,0,0.0,1.0,0.4882374793232884,0,8,4,2,5,1,7,nan,nan,nan,nan,nan,nan,nan,nan,nan,nan,nan,nan,0.0,nan,nan,nan,nan,nan,nan,nan,nan,nan,nan,nan,nan,nan,nan,nan,nan,nan,nan,168.79953522968572,526.1878932778782,nan,526.6761307572015,nan,nan,nan,nan
1,253,1,1,1.0,1.0,0.4080921124404995,0,5,7,8,4,0,2,nan,nan,nan,nan,nan,nan,nan,nan,nan,nan,nan,nan,0.0,nan,nan,nan,nan,nan,nan,nan,nan,nan,nan,nan,nan,nan,nan,nan,nan,nan,nan,168.79953522968572,527.1880318365729,nan,527.5961239490134,nan,nan,nan,nan
1,254,1,1,1.0,1.0,0.3359378185123205,0,0,1,2,5,6,4,nan,nan,nan,nan,nan,nan,nan,nan,nan,nan,nan,nan,0.0,nan,nan,nan,nan,nan,nan,nan,nan,nan,nan,nan,nan,nan,nan,nan,nan,nan,nan,168.79953522968572,528.1881815141678,nan,528.5241193326801,nan,nan,nan,nan
1,255,1,1,1.0,1.0,0.3118126412737183,0,6,4,8,7,5,0,nan,nan,nan,nan,nan,nan,nan,nan,nan,nan,nan,nan,0.0,nan,nan,nan,nan,nan,nan,nan,nan,nan,nan,nan,nan,nan,nan,nan,nan,nan,nan,168.79953522968572,529.1883046774456,nan,529.5001173187193,nan,nan,nan,nan
1,256,0,0,0.0,1.0,0.4156646583287511,0,5,0,4,3,7,1,nan,nan,nan,nan,nan,nan,nan,nan,nan,nan,nan,nan,0.0,nan,nan,nan,nan,nan,nan,nan,nan,nan,nan,nan,nan,nan,nan,nan,nan,nan,nan,168.79953522968572,530.1884554954304,nan,530.6041201537591,nan,nan,nan,nan
1,257,1,1,1.0,1.0,0.35154990437149536,0,2,3,6,5,1,7,nan,nan,nan,nan,nan,nan,nan,nan,nan,nan,nan,nan,0.0,nan,nan,nan,nan,nan,nan,nan,nan,nan,nan,nan,nan,nan,nan,nan,nan,nan,nan,168.79953522968572,531.1885561357922,nan,531.5401060401637,nan,nan,nan,nan
1,258,1,1,1.0,1.0,0.3753457908751443,0,6,5,1,0,7,4,nan,nan,nan,nan,nan,nan,nan,nan,nan,nan,nan,nan,0.0,nan,nan,nan,nan,nan,nan,nan,nan,nan,nan,nan,nan,nan,nan,nan,nan,nan,nan,168.79953522968572,532.1887214939052,nan,532.5640672847803,nan,nan,nan,nan
1,259,1,1,1.0,1.0,0.31089689950749744,0,1,2,6,5,0,3,nan,nan,nan,nan,nan,nan,nan,nan,nan,nan,nan,nan,0.0,nan,nan,nan,nan,nan,nan,nan,nan,nan,nan,nan,nan,nan,nan,nan,nan,nan,nan,168.79953522968572,533.1971801311447,nan,533.5080770306522,nan,nan,nan,nan
1,260,1,1,1.0,1.0,0.3187248951435322,0,7,6,8,0,1,4,nan,nan,nan,nan,nan,nan,nan,nan,nan,nan,nan,nan,0.0,nan,nan,nan,nan,nan,nan,nan,nan,nan,nan,nan,nan,nan,nan,nan,nan,nan,nan,168.79953522968572,534.1973238216306,nan,534.5160487167741,nan,nan,nan,nan
1,261,1,1,1.0,1.0,0.27859875542344525,0,2,0,3,4,6,1,nan,nan,nan,nan,nan,nan,nan,nan,nan,nan,nan,nan,0.0,nan,nan,nan,nan,nan,nan,nan,nan,nan,nan,nan,nan,nan,nan,nan,nan,nan,nan,168.79953522968572,535.1974655164231,nan,535.4760642718466,nan,nan,nan,nan
1,262,1,1,1.0,1.0,0.2864501292788191,0,7,2,6,8,1,3,nan,nan,nan,nan,nan,nan,nan,nan,nan,nan,nan,nan,0.0,nan,nan,nan,nan,nan,nan,nan,nan,nan,nan,nan,nan,nan,nan,nan,nan,nan,nan,168.79953522968572,536.1976032198145,nan,536.4840533490933,nan,nan,nan,nan
1,263,1,1,1.0,1.0,0.31034637105767615,0,6,1,5,3,0,4,nan,nan,nan,nan,nan,nan,nan,nan,nan,nan,nan,nan,0.0,nan,nan,nan,nan,nan,nan,nan,nan,nan,nan,nan,nan,nan,nan,nan,nan,nan,nan,168.79953522968572,537.1977064260718,nan,537.5080527971295,nan,nan,nan,nan
1,264,1,1,1.0,1.0,0.3181672391947359,0,4,7,8,5,6,2,nan,nan,nan,nan,nan,nan,nan,nan,nan,nan,nan,nan,0.0,nan,nan,nan,nan,nan,nan,nan,nan,nan,nan,nan,nan,nan,nan,nan,nan,nan,nan,168.79953522968572,538.1978717841848,nan,538.5160390233796,nan,nan,nan,nan
1,265,1,1,1.0,1.0,0.3420152990584029,0,2,8,7,0,5,1,nan,nan,nan,nan,nan,nan,nan,nan,nan,nan,nan,nan,0.0,nan,nan,nan,nan,nan,nan,nan,nan,nan,nan,nan,nan,nan,nan,nan,nan,nan,nan,168.79953522968572,539.1979866795446,nan,539.540001978603,nan,nan,nan,nan
1,266,1,1,1.0,1.0,0.30982577812392265,0,5,7,2,6,4,8,nan,nan,nan,nan,nan,nan,nan,nan,nan,nan,nan,nan,0.0,nan,nan,nan,nan,nan,nan,nan,nan,nan,nan,nan,nan,nan,nan,nan,nan,nan,nan,168.79953522968572,540.1982218871999,nan,540.5080476653238,nan,nan,nan,nan
1,267,1,1,1.0,1.0,0.3333616532763699,0,7,8,1,4,5,6,nan,nan,nan,nan,nan,nan,nan,nan,nan,nan,nan,nan,0.0,nan,nan,nan,nan,nan,nan,nan,nan,nan,nan,nan,nan,nan,nan,nan,nan,nan,nan,168.79953522968572,541.2066377594165,nan,541.5399994126929,nan,nan,nan,nan
1,268,1,1,1.0,1.0,0.2772371169703547,0,0,7,6,8,2,5,nan,nan,nan,nan,nan,nan,nan,nan,nan,nan,nan,nan,0.0,nan,nan,nan,nan,nan,nan,nan,nan,nan,nan,nan,nan,nan,nan,nan,nan,nan,nan,168.79953522968572,542.2067592120875,nan,542.4839963290578,nan,nan,nan,nan
1,269,1,1,1.0,1.0,0.2850916269235313,0,1,5,0,2,8,3,nan,nan,nan,nan,nan,nan,nan,nan,nan,nan,nan,nan,0.0,nan,nan,nan,nan,nan,nan,nan,nan,nan,nan,nan,nan,nan,nan,nan,nan,nan,nan,168.79953522968572,543.20690090688,nan,543.4919925338036,nan,nan,nan,nan
1,270,1,1,1.0,1.0,0.2929398646665504,0,4,7,2,8,1,5,nan,nan,nan,nan,nan,nan,nan,nan,nan,nan,nan,nan,0.0,nan,nan,nan,nan,nan,nan,nan,nan,nan,nan,nan,nan,nan,nan,nan,nan,nan,nan,168.79953522968572,544.2070408910658,nan,544.4999807557324,nan,nan,nan,nan
1,271,1,1,1.0,1.0,0.2768071859027259,0,5,3,7,1,6,0,nan,nan,nan,nan,nan,nan,nan,nan,nan,nan,nan,nan,0.0,nan,nan,nan,nan,nan,nan,nan,nan,nan,nan,nan,nan,nan,nan,nan,nan,nan,nan,168.79953522968572,545.2071711818426,nan,545.4839783677453,nan,nan,nan,nan
1,272,1,1,1.0,1.0,0.2446119629748864,0,2,0,3,5,4,6,nan,nan,nan,nan,nan,nan,nan,nan,nan,nan,nan,nan,0.0,nan,nan,nan,nan,nan,nan,nan,nan,nan,nan,nan,nan,nan,nan,nan,nan,nan,nan,168.79953522968572,546.2073402462556,nan,546.4519522092305,nan,nan,nan,nan
1,273,1,1,1.0,1.0,0.24416606630256865,0,0,6,1,8,3,7,nan,nan,nan,nan,nan,nan,nan,nan,nan,nan,nan,nan,0.0,nan,nan,nan,nan,nan,nan,nan,nan,nan,nan,nan,nan,nan,nan,nan,nan,nan,nan,168.79953522968572,547.2157575439633,nan,547.4599236102658,nan,nan,nan,nan
1,274,1,1,1.0,1.0,0.17203515057917684,0,5,7,0,4,8,6,nan,nan,nan,nan,nan,nan,nan,nan,nan,nan,nan,nan,0.0,nan,nan,nan,nan,nan,nan,nan,nan,nan,nan,nan,nan,nan,nan,nan,nan,nan,nan,168.79953522968572,548.2159112129593,nan,548.3879463635385,nan,nan,nan,nan
1,275,1,1,1.0,1.0,0.1238760281848954,0,8,3,1,2,6,0,nan,nan,nan,nan,nan,nan,nan,nan,nan,nan,nan,nan,0.0,nan,nan,nan,nan,nan,nan,nan,nan,nan,nan,nan,nan,nan,nan,nan,nan,nan,nan,168.79953522968572,549.2160526226507,nan,549.3399286508356,nan,nan,nan,nan
1,276,1,1,1.0,1.0,0.2837798809923697,0,2,7,8,1,4,3,nan,nan,nan,nan,nan,nan,nan,nan,nan,nan,nan,nan,0.0,nan,nan,nan,nan,nan,nan,nan,nan,nan,nan,nan,nan,nan,nan,nan,nan,nan,nan,168.79953522968572,550.2161475610192,nan,550.4999274420115,nan,nan,nan,nan
1,277,1,1,1.0,1.0,0.2755789743241621,0,3,8,0,7,6,1,nan,nan,nan,nan,nan,nan,nan,nan,nan,nan,nan,nan,0.0,nan,nan,nan,nan,nan,nan,nan,nan,nan,nan,nan,nan,nan,nan,nan,nan,nan,nan,168.79953522968572,551.2163328761235,nan,551.4919118504477,nan,nan,nan,nan
1,278,1,1,1.0,1.0,0.2914439440355636,0,6,1,8,4,7,3,nan,nan,nan,nan,nan,nan,nan,nan,nan,nan,nan,nan,0.0,nan,nan,nan,nan,nan,nan,nan,nan,nan,nan,nan,nan,nan,nan,nan,nan,nan,nan,168.79953522968572,552.2164557543001,nan,552.5078996983357,nan,nan,nan,nan
1,279,1,1,1.0,1.0,0.32327765991794877,0,0,2,4,6,3,7,nan,nan,nan,nan,nan,nan,nan,nan,nan,nan,nan,nan,0.0,nan,nan,nan,nan,nan,nan,nan,nan,nan,nan,nan,nan,nan,nan,nan,nan,nan,nan,168.79953522968572,553.2166040064039,nan,553.5398816663219,nan,nan,nan,nan
1,280,1,1,1.0,1.0,0.3391508975328179,0,7,4,1,0,5,8,nan,nan,nan,nan,nan,nan,nan,nan,nan,nan,nan,nan,0.0,nan,nan,nan,nan,nan,nan,nan,nan,nan,nan,nan,nan,nan,nan,nan,nan,nan,nan,168.79953522968572,554.216714910377,nan,554.5558658079099,nan,nan,nan,nan
1,281,1,1,1.0,1.0,0.37100713633117266,1,6,5,7,3,2,0,1.0,1.0,1.0,1.0,1.0,1.0,1.0,1.0,0.0,1.0,0.0,0.0,3.0,6.0,5.0,2.0,3.0,1.0,8.0,1.0,4.0,3.0,2.0,6.0,5.0,1.2808222517196555,4.749909266873146,3.6789837547112256,2.5347048172552604,7.166316896255012,6.013827073620632,168.79953522968572,555.216868294272,556.0252949432615,555.5878754306032,564.251408466167,565.2504542358656,557.0420853481628,564.2430861068133
1,282,1,1,1.0,1.0,0.5041606094746385,0,4,1,0,8,5,6,nan,nan,nan,nan,nan,nan,nan,nan,nan,nan,nan,nan,0.0,nan,nan,nan,nan,nan,nan,nan,nan,nan,nan,nan,nan,nan,nan,nan,nan,nan,nan,168.79953522968572,565.4516251993191,nan,565.9557858087937,nan,nan,nan,nan
1,283,1,1,1.0,1.0,0.3360133700480219,0,6,3,8,1,7,5,nan,nan,nan,nan,nan,nan,nan,nan,nan,nan,nan,nan,0.0,nan,nan,nan,nan,nan,nan,nan,nan,nan,nan,nan,nan,nan,nan,nan,nan,nan,nan,168.79953522968572,566.4517380990001,nan,566.7877514690481,nan,nan,nan,nan
1,284,1,1,1.0,1.0,0.24786495602165814,0,5,8,4,2,6,0,nan,nan,nan,nan,nan,nan,nan,nan,nan,nan,nan,nan,0.0,nan,nan,nan,nan,nan,nan,nan,nan,nan,nan,nan,nan,nan,nan,nan,nan,nan,nan,168.79953522968572,567.4518815043848,nan,567.6997464604065,nan,nan,nan,nan
1,285,1,1,1.0,1.0,0.18374079375644214,0,3,7,0,5,4,1,nan,nan,nan,nan,nan,nan,nan,nan,nan,nan,nan,nan,0.0,nan,nan,nan,nan,nan,nan,nan,nan,nan,nan,nan,nan,nan,nan,nan,nan,nan,nan,168.79953522968572,568.4520174971694,nan,568.6357582909259,nan,nan,nan,nan
1,286,1,1,1.0,1.0,0.055580850268597715,0,0,6,7,8,3,2,nan,nan,nan,nan,nan,nan,nan,nan,nan,nan,nan,nan,0.0,nan,nan,nan,nan,nan,nan,nan,nan,nan,nan,nan,nan,nan,nan,nan,nan,nan,nan,168.79953522968572,569.4521546303586,nan,569.5077354806272,nan,nan,nan,nan
1,287,1,1,1.0,1.0,0.07947081985184923,0,6,2,3,1,4,5,nan,nan,nan,nan,nan,nan,nan,nan,nan,nan,nan,nan,0.0,nan,nan,nan,nan,nan,nan,nan,nan,nan,nan,nan,nan,nan,nan,nan,nan,nan,nan,168.79953522968572,570.4522535601136,nan,570.5317243799655,nan,nan,nan,nan
1,288,1,1,1.0,1.0,0.15131777580245398,0,7,3,8,4,1,0,nan,nan,nan,nan,nan,nan,nan,nan,nan,nan,nan,nan,0.0,nan,nan,nan,nan,nan,nan,nan,nan,nan,nan,nan,nan,nan,nan,nan,nan,nan,nan,168.79953522968572,571.4523961102095,nan,571.603713886012,nan,nan,nan,nan
1,289,0,0,1.0,0.0,0.1511378775758203,0,4,0,2,6,5,1,nan,nan,nan,nan,nan,nan,nan,nan,nan,nan,nan,nan,0.0,nan,nan,nan,nan,nan,nan,nan,nan,nan,nan,nan,nan,nan,nan,nan,nan,nan,nan,168.79953522968572,572.4525643193192,nan,572.603702196895,nan,nan,nan,nan
1,290,1,1,1.0,1.0,0.20697759883478284,0,3,8,1,5,7,2,nan,nan,nan,nan,nan,nan,nan,nan,nan,nan,nan,nan,0.0,nan,nan,nan,nan,nan,nan,nan,nan,nan,nan,nan,nan,nan,nan,nan,nan,nan,nan,168.79953522968572,573.4526980312949,nan,573.6596756301296,nan,nan,nan,nan
1,291,1,1,1.0,1.0,0.2228414281271398,0,5,2,0,3,4,6,nan,nan,nan,nan,nan,nan,nan,nan,nan,nan,nan,nan,0.0,nan,nan,nan,nan,nan,nan,nan,nan,nan,nan,nan,nan,nan,nan,nan,nan,nan,nan,168.79953522968572,574.4528497045976,nan,574.6756911327248,nan,nan,nan,nan
1,292,1,1,1.0,1.0,0.23870326174073853,0,6,4,7,2,3,8,nan,nan,nan,nan,nan,nan,nan,nan,nan,nan,nan,nan,0.0,nan,nan,nan,nan,nan,nan,nan,nan,nan,nan,nan,nan,nan,nan,nan,nan,nan,nan,168.79953522968572,575.4529802804755,nan,575.6916835422162,nan,nan,nan,nan
1,293,1,1,1.0,1.0,0.2385550096660154,0,2,6,1,5,0,4,nan,nan,nan,nan,nan,nan,nan,nan,nan,nan,nan,nan,0.0,nan,nan,nan,nan,nan,nan,nan,nan,nan,nan,nan,nan,nan,nan,nan,nan,nan,nan,168.79953522968572,576.4531105712522,nan,576.6916655809182,nan,nan,nan,nan
1,294,1,1,1.0,1.0,0.1984034960187273,0,3,4,0,6,8,5,nan,nan,nan,nan,nan,nan,nan,nan,nan,nan,nan,nan,0.0,nan,nan,nan,nan,nan,nan,nan,nan,nan,nan,nan,nan,nan,nan,nan,nan,nan,nan,168.79953522968572,577.4532605339482,nan,577.6516640299669,nan,nan,nan,nan
1,295,1,1,1.0,1.0,0.19030322969774716,0,4,1,8,3,2,7,nan,nan,nan,nan,nan,nan,nan,nan,nan,nan,nan,nan,0.0,nan,nan,nan,nan,nan,nan,nan,nan,nan,nan,nan,nan,nan,nan,nan,nan,nan,nan,168.79953522968572,578.4533603190212,nan,578.6436635487189,nan,nan,nan,nan
1,296,1,1,1.0,1.0,0.18212370554101653,0,8,5,3,2,4,1,nan,nan,nan,nan,nan,nan,nan,nan,nan,nan,nan,nan,0.0,nan,nan,nan,nan,nan,nan,nan,nan,nan,nan,nan,nan,nan,nan,nan,nan,nan,nan,168.79953522968572,579.4535216857184,nan,579.6356453912595,nan,nan,nan,nan
1,297,1,1,1.0,1.0,0.26196230461937375,0,7,4,0,3,1,8,nan,nan,nan,nan,nan,nan,nan,nan,nan,nan,nan,nan,0.0,nan,nan,nan,nan,nan,nan,nan,nan,nan,nan,nan,nan,nan,nan,nan,nan,nan,nan,168.79953522968572,580.4536713633133,nan,580.7156336679327,nan,nan,nan,nan
1,298,1,1,1.0,1.0,0.2618254565313691,0,5,1,8,2,3,0,nan,nan,nan,nan,nan,nan,nan,nan,nan,nan,nan,nan,0.0,nan,nan,nan,nan,nan,nan,nan,nan,nan,nan,nan,nan,nan,nan,nan,nan,nan,nan,168.79953522968572,581.4538084965025,nan,581.7156339530338,nan,nan,nan,nan
1,299,1,1,1.0,1.0,0.22166938130976632,0,4,8,6,0,1,7,nan,nan,nan,nan,nan,nan,nan,nan,nan,nan,nan,nan,0.0,nan,nan,nan,nan,nan,nan,nan,nan,nan,nan,nan,nan,nan,nan,nan,nan,nan,nan,168.79953522968572,582.453941923377,nan,582.6756113046868,nan,nan,nan,nan
1,300,1,1,1.0,1.0,0.17352993082022294,0,7,6,3,5,2,8,nan,nan,nan,nan,nan,nan,nan,nan,nan,nan,nan,nan,0.0,nan,nan,nan,nan,nan,nan,nan,nan,nan,nan,nan,nan,nan,nan,nan,nan,nan,nan,168.79953522968572,583.4540850436751,nan,583.6276149744954,nan,nan,nan,nan
1,301,1,1,1.0,1.0,0.18938406671804842,0,6,0,1,2,7,4,nan,nan,nan,nan,nan,nan,nan,nan,nan,nan,nan,nan,0.0,nan,nan,nan,nan,nan,nan,nan,nan,nan,nan,nan,nan,nan,nan,nan,nan,nan,nan,168.79953522968572,584.4542116281518,nan,584.6435956948699,nan,nan,nan,nan
1,302,1,1,1.0,1.0,0.22123688431747723,0,0,7,2,6,1,3,nan,nan,nan,nan,nan,nan,nan,nan,nan,nan,nan,nan,0.0,nan,nan,nan,nan,nan,nan,nan,nan,nan,nan,nan,nan,nan,nan,nan,nan,nan,nan,168.79953522968572,585.4543464805465,nan,585.675583364864,nan,nan,nan,nan
1,303,1,1,1.0,1.0,0.19709431598312221,0,4,5,8,1,3,6,nan,nan,nan,nan,nan,nan,nan,nan,nan,nan,nan,nan,0.0,nan,nan,nan,nan,nan,nan,nan,nan,nan,nan,nan,nan,nan,nan,nan,nan,nan,nan,168.79953522968572,586.4544813329267,nan,586.6515756489098,nan,nan,nan,nan
1,304,1,1,1.0,1.0,0.22097003056842368,0,5,1,0,3,6,4,nan,nan,nan,nan,nan,nan,nan,nan,nan,nan,nan,nan,0.0,nan,nan,nan,nan,nan,nan,nan,nan,nan,nan,nan,nan,nan,nan,nan,nan,nan,nan,168.79953522968572,587.4546016451932,nan,587.6755716757616,nan,nan,nan,nan
1,305,1,1,1.0,1.0,0.22080581284535583,0,6,8,7,4,2,0,nan,nan,nan,nan,nan,nan,nan,nan,nan,nan,nan,nan,0.0,nan,nan,nan,nan,nan,nan,nan,nan,nan,nan,nan,nan,nan,nan,nan,nan,nan,nan,168.79953522968572,588.4547595907061,nan,588.6755654035514,nan,nan,nan,nan
1,306,1,1,1.0,1.0,0.2523051062307786,0,2,7,0,8,5,4,nan,nan,nan,nan,nan,nan,nan,nan,nan,nan,nan,nan,0.0,nan,nan,nan,nan,nan,nan,nan,nan,nan,nan,nan,nan,nan,nan,nan,nan,nan,nan,168.79953522968572,589.4632458826527,nan,589.7155509888835,nan,nan,nan,nan
1,307,0,0,1.0,0.0,0.23617071684566326,0,8,2,7,1,0,6,nan,nan,nan,nan,nan,nan,nan,nan,nan,nan,nan,nan,0.0,nan,nan,nan,nan,nan,nan,nan,nan,nan,nan,nan,nan,nan,nan,nan,nan,nan,nan,168.79953522968572,590.4633659098326,nan,590.6995366266783,nan,nan,nan,nan
1,308,1,1,1.0,1.0,0.2040136973519111,0,3,7,1,2,6,5,nan,nan,nan,nan,nan,nan,nan,nan,nan,nan,nan,nan,0.0,nan,nan,nan,nan,nan,nan,nan,nan,nan,nan,nan,nan,nan,nan,nan,nan,nan,nan,168.79953522968572,591.4635004771117,nan,591.6675141744636,nan,nan,nan,nan
1,309,1,1,1.0,1.0,0.2518728943541646,0,4,6,0,1,5,8,nan,nan,nan,nan,nan,nan,nan,nan,nan,nan,nan,nan,0.0,nan,nan,nan,nan,nan,nan,nan,nan,nan,nan,nan,nan,nan,nan,nan,nan,nan,nan,168.79953522968572,592.4636427421065,nan,592.7155156364606,nan,nan,nan,nan
1,310,1,1,1.0,1.0,0.2677324471587781,0,5,2,8,6,7,1,nan,nan,nan,nan,nan,nan,nan,nan,nan,nan,nan,nan,0.0,nan,nan,nan,nan,nan,nan,nan,nan,nan,nan,nan,nan,nan,nan,nan,nan,nan,nan,168.79953522968572,593.4637850071013,nan,593.73151745426,nan,nan,nan,nan
1,311,1,1,1.0,1.0,0.2515829474723432,0,7,1,2,5,4,0,nan,nan,nan,nan,nan,nan,nan,nan,nan,nan,nan,nan,0.0,nan,nan,nan,nan,nan,nan,nan,nan,nan,nan,nan,nan,nan,nan,nan,nan,nan,nan,168.79953522968572,594.463921284987,nan,594.7155042324594,nan,nan,nan,nan
1,312,1,1,1.0,1.0,0.22742526882211678,0,0,3,6,4,8,5,nan,nan,nan,nan,nan,nan,nan,nan,nan,nan,nan,nan,0.0,nan,nan,nan,nan,nan,nan,nan,nan,nan,nan,nan,nan,nan,nan,nan,nan,nan,nan,168.79953522968572,595.4640604138694,nan,595.6914856826916,nan,nan,nan,nan
1,313,1,1,1.0,1.0,0.25128758368373383,0,3,8,4,7,2,0,nan,nan,nan,nan,nan,nan,nan,nan,nan,nan,nan,nan,0.0,nan,nan,nan,nan,nan,nan,nan,nan,nan,nan,nan,nan,nan,nan,nan,nan,nan,nan,168.79953522968572,596.4642012533586,nan,596.7154888370424,nan,nan,nan,nan
1,314,1,1,1.0,1.0,0.31515601110004354,0,0,6,3,5,7,1,nan,nan,nan,nan,nan,nan,nan,nan,nan,nan,nan,nan,0.0,nan,nan,nan,nan,nan,nan,nan,nan,nan,nan,nan,nan,nan,nan,nan,nan,nan,nan,168.79953522968572,597.4643284080375,nan,597.7794844191376,nan,nan,nan,nan
1,315,1,1,1.0,1.0,0.3390146196616115,0,4,5,7,2,6,0,nan,nan,nan,nan,nan,nan,nan,nan,nan,nan,nan,nan,0.0,nan,nan,nan,nan,nan,nan,nan,nan,nan,nan,nan,nan,nan,nan,nan,nan,nan,nan,168.79953522968572,598.4644547074131,nan,598.8034693270747,nan,nan,nan,nan
1,316,1,1,1.0,1.0,0.3465318561065942,0,1,8,2,4,0,6,nan,nan,nan,nan,nan,nan,nan,nan,nan,nan,nan,nan,0.0,nan,nan,nan,nan,nan,nan,nan,nan,nan,nan,nan,nan,nan,nan,nan,nan,nan,nan,168.79953522968572,599.4729350122652,nan,599.8194668683718,nan,nan,nan,nan
1,317,1,1,1.0,1.0,0.41037690528901294,0,2,4,3,5,7,1,nan,nan,nan,nan,nan,nan,nan,nan,nan,nan,nan,nan,0.0,nan,nan,nan,nan,nan,nan,nan,nan,nan,nan,nan,nan,nan,nan,nan,nan,nan,nan,168.79953522968572,600.4730730007577,nan,600.8834499060467,nan,nan,nan,nan
1,318,1,1,1.0,1.0,0.4102583036146825,0,5,6,2,8,4,0,nan,nan,nan,nan,nan,nan,nan,nan,nan,nan,nan,nan,0.0,nan,nan,nan,nan,nan,nan,nan,nan,nan,nan,nan,nan,nan,nan,nan,nan,nan,nan,168.79953522968572,601.473174781524,nan,601.8834330851387,nan,nan,nan,nan
1,319,1,1,1.0,1.0,0.37008654786041006,0,4,5,3,7,0,2,nan,nan,nan,nan,nan,nan,nan,nan,nan,nan,nan,nan,0.0,nan,nan,nan,nan,nan,nan,nan,nan,nan,nan,nan,nan,nan,nan,nan,nan,nan,nan,168.79953522968572,602.4733444161247,nan,602.8434309639852,nan,nan,nan,nan
1,320,1,1,1.0,1.0,0.35393305675825104,0,1,4,8,0,5,3,nan,nan,nan,nan,nan,nan,nan,nan,nan,nan,nan,nan,0.0,nan,nan,nan,nan,nan,nan,nan,nan,nan,nan,nan,nan,nan,nan,nan,nan,nan,nan,168.79953522968572,603.4734829748195,nan,603.8274160315777,nan,nan,nan,nan
1,321,1,1,1.0,1.0,0.30577906616963446,0,4,5,0,3,8,6,nan,nan,nan,nan,nan,nan,nan,nan,nan,nan,nan,nan,0.0,nan,nan,nan,nan,nan,nan,nan,nan,nan,nan,nan,nan,nan,nan,nan,nan,nan,nan,168.79953522968572,604.4736192527052,nan,604.7793983188749,nan,nan,nan,nan
1,322,1,1,1.0,1.0,0.30567329400219023,0,6,4,8,1,3,7,nan,nan,nan,nan,nan,nan,nan,nan,nan,nan,nan,nan,0.0,nan,nan,nan,nan,nan,nan,nan,nan,nan,nan,nan,nan,nan,nan,nan,nan,nan,nan,168.79953522968572,605.4737204632693,nan,605.7793937572715,nan,nan,nan,nan
1,323,1,1,1.0,1.0,0.2974803701363271,0,7,2,3,6,4,8,nan,nan,nan,nan,nan,nan,nan,nan,nan,nan,nan,nan,0.0,nan,nan,nan,nan,nan,nan,nan,nan,nan,nan,nan,nan,nan,nan,nan,nan,nan,nan,168.79953522968572,606.4738915233756,nan,606.771371893512,nan,nan,nan,nan
1,324,1,1,1.0,1.0,0.21733984997263178,0,5,1,8,7,0,4,nan,nan,nan,nan,nan,nan,nan,nan,nan,nan,nan,nan,0.0,nan,nan,nan,nan,nan,nan,nan,nan,nan,nan,nan,nan,nan,nan,nan,nan,nan,nan,168.79953522968572,607.4740349287604,nan,607.691374778733,nan,nan,nan,nan
1,325,1,1,1.0,1.0,0.28087613567186054,0,4,7,1,6,2,3,nan,nan,nan,nan,nan,nan,nan,nan,nan,nan,nan,nan,0.0,nan,nan,nan,nan,nan,nan,nan,nan,nan,nan,nan,nan,nan,nan,nan,nan,nan,nan,168.79953522968572,608.4825283482205,nan,608.7634044838924,nan,nan,nan,nan
1,326,1,1,1.0,1.0,0.4406964541267371,0,7,8,0,1,5,4,nan,nan,nan,nan,nan,nan,nan,nan,nan,nan,nan,nan,0.0,nan,nan,nan,nan,nan,nan,nan,nan,nan,nan,nan,nan,nan,nan,nan,nan,nan,nan,168.79953522968572,609.4826463796926,nan,609.9233428338193,nan,nan,nan,nan
1,327,1,1,1.0,1.0,0.3205552383005852,0,6,5,2,7,8,0,nan,nan,nan,nan,nan,nan,nan,nan,nan,nan,nan,nan,0.0,nan,nan,nan,nan,nan,nan,nan,nan,nan,nan,nan,nan,nan,nan,nan,nan,nan,nan,168.79953522968572,610.4827852234885,nan,610.803340461789,nan,nan,nan,nan
1,328,1,1,1.0,1.0,0.29640668285719585,0,4,1,6,3,7,2,nan,nan,nan,nan,nan,nan,nan,nan,nan,nan,nan,nan,0.0,nan,nan,nan,nan,nan,nan,nan,nan,nan,nan,nan,nan,nan,nan,nan,nan,nan,nan,168.79953522968572,611.4829223566776,nan,611.7793290395348,nan,nan,nan,nan
1,329,1,1,1.0,1.0,0.3042791541374754,0,2,4,7,5,1,6,nan,nan,nan,nan,nan,nan,nan,nan,nan,nan,nan,nan,0.0,nan,nan,nan,nan,nan,nan,nan,nan,nan,nan,nan,nan,nan,nan,nan,nan,nan,nan,168.79953522968572,612.4830512219487,nan,612.7873303760862,nan,nan,nan,nan
1,330,1,1,1.0,1.0,0.3681068122241413,0,8,3,1,6,4,7,nan,nan,nan,nan,nan,nan,nan,nan,nan,nan,nan,nan,0.0,nan,nan,nan,nan,nan,nan,nan,nan,nan,nan,nan,nan,nan,nan,nan,nan,nan,nan,168.79953522968572,613.4832008995436,nan,613.8513077117677,nan,nan,nan,nan
1,331,1,1,1.0,1.0,0.3039746671420289,0,7,5,0,3,6,8,nan,nan,nan,nan,nan,nan,nan,nan,nan,nan,nan,nan,0.0,nan,nan,nan,nan,nan,nan,nan,nan,nan,nan,nan,nan,nan,nan,nan,nan,nan,nan,168.79953522968572,614.4833368923282,nan,614.7873115594703,nan,nan,nan,nan
1,332,1,1,1.0,1.0,0.3998259178188164,0,1,8,7,5,2,6,nan,nan,nan,nan,nan,nan,nan,nan,nan,nan,nan,nan,0.0,nan,nan,nan,nan,nan,nan,nan,nan,nan,nan,nan,nan,nan,nan,nan,nan,nan,nan,168.79953522968572,615.4834817232331,nan,615.8833076410519,nan,nan,nan,nan
1,333,1,1,1.0,1.0,0.279682136097108,0,7,5,3,1,6,8,nan,nan,nan,nan,nan,nan,nan,nan,nan,nan,nan,nan,0.0,nan,nan,nan,nan,nan,nan,nan,nan,nan,nan,nan,nan,nan,nan,nan,nan,nan,nan,168.79953522968572,616.4836094481143,nan,616.7632915842114,nan,nan,nan,nan
1,334,1,1,1.0,1.0,0.3115383749100147,0,1,6,7,4,0,2,nan,nan,nan,nan,nan,nan,nan,nan,nan,nan,nan,nan,0.0,nan,nan,nan,nan,nan,nan,nan,nan,nan,nan,nan,nan,nan,nan,nan,nan,nan,nan,168.79953522968572,617.4837366027932,nan,617.7952749777032,nan,nan,nan,nan
1,335,1,1,1.0,1.0,0.33544088889902923,0,0,7,3,2,8,6,nan,nan,nan,nan,nan,nan,nan,nan,nan,nan,nan,nan,0.0,nan,nan,nan,nan,nan,nan,nan,nan,nan,nan,nan,nan,nan,nan,nan,nan,nan,nan,168.79953522968572,618.4838355325483,nan,618.8192764214473,nan,nan,nan,nan
1,336,1,1,1.0,1.0,0.35925103042973205,1,5,0,6,3,7,4,1.0,1.0,1.0,1.0,1.0,1.0,0.0,1.0,0.0,0.0,0.0,0.0,1.0,8.0,0.0,3.0,6.0,1.0,2.0,6.0,1.0,2.0,3.0,4.0,5.0,7.986422674133792,2.6991460394347087,3.7947250194556545,5.15458616426622,6.011173646256793,6.970727053922019,168.79953522968572,619.4840114393592,620.2924395138543,619.8432624697889,629.3353296998248,630.3330922336172,621.3092609946762,629.3269985023653
1,337,0,0,1.0,0.0,0.32364800505456515,0,2,3,8,1,4,5,nan,nan,nan,nan,nan,nan,nan,nan,nan,nan,nan,nan,0.0,nan,nan,nan,nan,nan,nan,nan,nan,nan,nan,nan,nan,nan,nan,nan,nan,nan,nan,168.79953522968572,630.5355327481811,nan,630.8591807532357,nan,nan,nan,nan
1,338,1,1,1.0,1.0,0.34750034140597563,0,4,7,2,5,6,3,nan,nan,nan,nan,nan,nan,nan,nan,nan,nan,nan,nan,0.0,nan,nan,nan,nan,nan,nan,nan,nan,nan,nan,nan,nan,nan,nan,nan,nan,nan,nan,168.79953522968572,631.5356473584543,nan,631.8831476998603,nan,nan,nan,nan
1,339,1,1,1.0,1.0,0.3153387603088049,0,5,3,1,4,8,2,nan,nan,nan,nan,nan,nan,nan,nan,nan,nan,nan,nan,0.0,nan,nan,nan,nan,nan,nan,nan,nan,nan,nan,nan,nan,nan,nan,nan,nan,nan,nan,168.79953522968572,632.535797891338,nan,632.8511366516468,nan,nan,nan,nan
1,340,1,1,1.0,1.0,0.29120189398236107,0,7,5,2,0,4,8,nan,nan,nan,nan,nan,nan,nan,nan,nan,nan,nan,nan,0.0,nan,nan,nan,nan,nan,nan,nan,nan,nan,nan,nan,nan,nan,nan,nan,nan,nan,nan,168.79953522968572,633.5359338841226,nan,633.827135778105,nan,nan,nan,nan
1,341,0,0,1.0,0.0,0.2350562602368882,0,8,6,0,4,1,3,nan,nan,nan,nan,nan,nan,nan,nan,nan,nan,nan,nan,0.0,nan,nan,nan,nan,nan,nan,nan,nan,nan,nan,nan,nan,nan,nan,nan,nan,nan,nan,168.79953522968572,634.5360681663151,nan,634.771124426552,nan,nan,nan,nan
1,342,1,1,1.0,1.0,0.21088974349549972,0,1,0,3,6,7,4,nan,nan,nan,nan,nan,nan,nan,nan,nan,nan,nan,nan,0.0,nan,nan,nan,nan,nan,nan,nan,nan,nan,nan,nan,nan,nan,nan,nan,nan,nan,nan,168.79953522968572,635.536202448493,nan,635.7470921919885,nan,nan,nan,nan
1,343,1,1,1.0,1.0,0.2664312499546213,1,7,3,4,5,8,2,1.0,1.0,1.0,1.0,1.0,1.0,0.0,1.0,0.0,0.0,0.0,0.0,1.0,5.0,3.0,3.0,4.0,6.0,8.0,3.0,2.0,1.0,6.0,5.0,4.0,4.591702900521341,3.5515619355865056,1.551798283631797,9.269768062440562,8.102079834323376,6.165706496773055,168.79953522968572,636.5446784768428,637.3531119682448,636.8111097267974,647.6711717246799,648.6785315858288,638.3615820095001,647.6628410974226
1,344,1,1,1.0,1.0,0.5073423274880042,0,6,8,0,4,2,7,nan,nan,nan,nan,nan,nan,nan,nan,nan,nan,nan,nan,0.0,nan,nan,nan,nan,nan,nan,nan,nan,nan,nan,nan,nan,nan,nan,nan,nan,nan,nan,168.79953522968572,648.879672328665,nan,649.387014656153,nan,nan,nan,nan
1,345,1,1,1.0,1.0,0.33113901228352915,0,4,2,6,8,3,1,nan,nan,nan,nan,nan,nan,nan,nan,nan,nan,nan,nan,0.0,nan,nan,nan,nan,nan,nan,nan,nan,nan,nan,nan,nan,nan,nan,nan,nan,nan,nan,168.79953522968572,649.8798393973702,nan,650.2109784096538,nan,nan,nan,nan
1,346,0,0,1.0,0.0,0.2589832928497344,0,3,4,1,5,8,0,nan,nan,nan,nan,nan,nan,nan,nan,nan,nan,nan,nan,0.0,nan,nan,nan,nan,nan,nan,nan,nan,nan,nan,nan,nan,nan,nan,nan,nan,nan,nan,168.79953522968572,650.8799776709493,nan,651.138960963799,nan,nan,nan,nan
1,347,1,1,1.0,1.0,0.25883988745044917,1,5,1,7,2,0,4,1.0,1.0,1.0,1.0,1.0,1.0,1.0,0.0,0.0,0.0,0.0,0.0,1.0,5.0,0.0,1.0,8.0,6.0,3.0,3.0,5.0,6.0,1.0,2.0,4.0,3.3921618547901744,5.174475608102512,5.862092481358559,1.8723948614642723,2.680448599421652,4.2384674838976935,168.79953522968572,651.8801062511338,652.6885445892403,652.1389461385843,659.5977838022663,660.5968315676582,653.6970180516946,659.5894782638206
1,348,1,1,1.0,1.0,0.4048972798336763,0,7,0,5,4,8,2,nan,nan,nan,nan,nan,nan,nan,nan,nan,nan,nan,nan,0.0,nan,nan,nan,nan,nan,nan,nan,nan,nan,nan,nan,nan,nan,nan,nan,nan,nan,nan,168.79953522968572,660.7979928377172,nan,661.2028901175509,nan,nan,nan,nan
1,349,1,1,1.0,1.0,0.4047145306249149,0,3,8,1,0,4,5,nan,nan,nan,nan,nan,nan,nan,nan,nan,nan,nan,nan,0.0,nan,nan,nan,nan,nan,nan,nan,nan,nan,nan,nan,nan,nan,nan,nan,nan,nan,nan,168.79953522968572,661.798162757419,nan,662.202877288044,nan,nan,nan,nan
1,350,1,1,1.0,1.0,0.34056699014035985,0,5,1,0,2,7,6,nan,nan,nan,nan,nan,nan,nan,nan,nan,nan,nan,nan,0.0,nan,nan,nan,nan,nan,nan,nan,nan,nan,nan,nan,nan,nan,nan,nan,nan,nan,nan,168.79953522968572,662.7982847802923,nan,663.1388517704327,nan,nan,nan,nan
1,351,1,1,1.0,1.0,0.30041747220093384,0,6,0,8,1,4,3,nan,nan,nan,nan,nan,nan,nan,nan,nan,nan,nan,nan,0.0,nan,nan,nan,nan,nan,nan,nan,nan,nan,nan,nan,nan,nan,nan,nan,nan,nan,nan,168.79953522968572,663.7984167816758,nan,664.0988342538767,nan,nan,nan,nan
1,352,1,1,1.0,1.0,0.37227925335173495,0,4,5,7,8,1,0,nan,nan,nan,nan,nan,nan,nan,nan,nan,nan,nan,nan,0.0,nan,nan,nan,nan,nan,nan,nan,nan,nan,nan,nan,nan,nan,nan,nan,nan,nan,nan,168.79953522968572,664.7985459320626,nan,665.1708251854143,nan,nan,nan,nan
1,353,1,1,1.0,1.0,0.34011938284675125,0,8,2,3,1,6,5,nan,nan,nan,nan,nan,nan,nan,nan,nan,nan,nan,nan,0.0,nan,nan,nan,nan,nan,nan,nan,nan,nan,nan,nan,nan,nan,nan,nan,nan,nan,nan,168.79953522968572,665.7987010265642,nan,666.138820409411,nan,nan,nan,nan
1,354,1,1,1.0,1.0,0.3320111337379785,0,3,7,5,4,1,6,nan,nan,nan,nan,nan,nan,nan,nan,nan,nan,nan,nan,0.0,nan,nan,nan,nan,nan,nan,nan,nan,nan,nan,nan,nan,nan,nan,nan,nan,nan,nan,168.79953522968572,666.7987971053226,nan,667.1308082390606,nan,nan,nan,nan
1,355,1,1,1.0,1.0,0.25983859338157345,0,1,3,2,0,7,5,nan,nan,nan,nan,nan,nan,nan,nan,nan,nan,nan,nan,0.0,nan,nan,nan,nan,nan,nan,nan,nan,nan,nan,nan,nan,nan,nan,nan,nan,nan,nan,168.79953522968572,667.7989638889267,nan,668.0588024823082,nan,nan,nan,nan
1,356,1,1,1.0,1.0,0.29168913018656895,0,4,1,0,8,2,7,nan,nan,nan,nan,nan,nan,nan,nan,nan,nan,nan,nan,0.0,nan,nan,nan,nan,nan,nan,nan,nan,nan,nan,nan,nan,nan,nan,nan,nan,nan,nan,168.79953522968572,668.7990984562057,nan,669.0907875863923,nan,nan,nan,nan
1,357,1,1,1.0,1.0,0.2915511417086236,0,3,0,8,7,6,5,nan,nan,nan,nan,nan,nan,nan,nan,nan,nan,nan,nan,0.0,nan,nan,nan,nan,nan,nan,nan,nan,nan,nan,nan,nan,nan,nan,nan,nan,nan,nan,168.79953522968572,669.7992355893948,nan,670.0907867311034,nan,nan,nan,nan
1,358,1,1,1.0,1.0,0.35539733128098305,0,4,2,7,6,3,1,nan,nan,nan,nan,nan,nan,nan,nan,nan,nan,nan,nan,0.0,nan,nan,nan,nan,nan,nan,nan,nan,nan,nan,nan,nan,nan,nan,nan,nan,nan,nan,168.79953522968572,670.7993741480896,nan,671.1547714793705,nan,nan,nan,nan
1,359,1,1,1.0,1.0,0.339242129586637,0,7,6,1,2,0,8,nan,nan,nan,nan,nan,nan,nan,nan,nan,nan,nan,nan,0.0,nan,nan,nan,nan,nan,nan,nan,nan,nan,nan,nan,nan,nan,nan,nan,nan,nan,nan,168.79953522968572,671.7995115663798,nan,672.1387536959664,nan,nan,nan,nan
1,360,1,1,1.0,1.0,0.2990849139605416,0,4,5,7,0,6,3,nan,nan,nan,nan,nan,nan,nan,nan,nan,nan,nan,nan,0.0,nan,nan,nan,nan,nan,nan,nan,nan,nan,nan,nan,nan,nan,nan,nan,nan,nan,nan,168.79953522968572,672.799670367167,nan,673.0987552811275,nan,nan,nan,nan
1,361,0,0,0.0,1.0,0.4509748858108651,0,3,8,0,6,5,4,nan,nan,nan,nan,nan,nan,nan,nan,nan,nan,nan,nan,0.0,nan,nan,nan,nan,nan,nan,nan,nan,nan,nan,nan,nan,nan,nan,nan,nan,nan,nan,168.79953522968572,673.7997784201434,nan,674.2507533059543,nan,nan,nan,nan
1,362,1,1,1.0,1.0,0.33080344936752226,0,0,6,4,1,8,2,nan,nan,nan,nan,nan,nan,nan,nan,nan,nan,nan,nan,0.0,nan,nan,nan,nan,nan,nan,nan,nan,nan,nan,nan,nan,nan,nan,nan,nan,nan,nan,168.79953522968572,674.7999269573338,nan,675.1307304067013,nan,nan,nan,nan
1,363,1,1,1.0,1.0,0.37865722946298774,0,6,0,2,5,4,7,nan,nan,nan,nan,nan,nan,nan,nan,nan,nan,nan,nan,0.0,nan,nan,nan,nan,nan,nan,nan,nan,nan,nan,nan,nan,nan,nan,nan,nan,nan,nan,168.79953522968572,675.8000598140206,nan,676.1787170434836,nan,nan,nan,nan
1,364,0,0,0.0,1.0,0.4505155894148629,0,7,4,0,6,8,3,nan,nan,nan,nan,nan,nan,nan,nan,nan,nan,nan,nan,0.0,nan,nan,nan,nan,nan,nan,nan,nan,nan,nan,nan,nan,nan,nan,nan,nan,nan,nan,168.79953522968572,676.8001958068053,nan,677.2507113962201,nan,nan,nan,nan
1,365,1,1,1.0,1.0,0.3623717369919177,0,0,3,1,7,5,2,nan,nan,nan,nan,nan,nan,nan,nan,nan,nan,nan,nan,0.0,nan,nan,nan,nan,nan,nan,nan,nan,nan,nan,nan,nan,nan,nan,nan,nan,nan,nan,168.79953522968572,677.80033550589,nan,678.1627072428819,nan,nan,nan,nan
1,366,1,1,1.0,1.0,0.31421518049319275,0,4,7,2,1,3,6,nan,nan,nan,nan,nan,nan,nan,nan,nan,nan,nan,nan,0.0,nan,nan,nan,nan,nan,nan,nan,nan,nan,nan,nan,nan,nan,nan,nan,nan,nan,nan,168.79953522968572,678.8004837579938,nan,679.114698938487,nan,nan,nan,nan
1,367,1,1,1.0,1.0,0.32207653285877313,0,0,6,7,4,5,2,nan,nan,nan,nan,nan,nan,nan,nan,nan,nan,nan,nan,0.0,nan,nan,nan,nan,nan,nan,nan,nan,nan,nan,nan,nan,nan,nan,nan,nan,nan,nan,168.79953522968572,679.8006191805762,nan,680.122695713435,nan,nan,nan,nan
1,368,1,1,1.0,1.0,0.31394376514072064,0,1,3,0,8,6,7,nan,nan,nan,nan,nan,nan,nan,nan,nan,nan,nan,nan,0.0,nan,nan,nan,nan,nan,nan,nan,nan,nan,nan,nan,nan,nan,nan,nan,nan,nan,nan,168.79953522968572,680.8007443395472,nan,681.114688104688,nan,nan,nan,nan
1,369,1,1,1.0,1.0,0.2897775334859034,0,4,6,8,0,2,3,nan,nan,nan,nan,nan,nan,nan,nan,nan,nan,nan,nan,0.0,nan,nan,nan,nan,nan,nan,nan,nan,nan,nan,nan,nan,nan,nan,nan,nan,nan,nan,168.79953522968572,681.8008945873444,nan,682.0906721208303,nan,nan,nan,nan
1,370,1,1,1.0,1.0,0.21763663925230503,0,3,0,2,5,7,4,nan,nan,nan,nan,nan,nan,nan,nan,nan,nan,nan,nan,0.0,nan,nan,nan,nan,nan,nan,nan,nan,nan,nan,nan,nan,nan,nan,nan,nan,nan,nan,168.79953522968572,682.801021171821,nan,683.0186578110734,nan,nan,nan,nan
1,371,1,1,1.0,1.0,0.27350658109935466,0,4,1,7,6,8,3,nan,nan,nan,nan,nan,nan,nan,nan,nan,nan,nan,nan,0.0,nan,nan,nan,nan,nan,nan,nan,nan,nan,nan,nan,nan,nan,nan,nan,nan,nan,nan,168.79953522968572,683.8011563093169,nan,684.0746628904162,nan,nan,nan,nan
1,372,1,1,1.0,1.0,0.29734380714944564,0,7,4,0,8,1,5,nan,nan,nan,nan,nan,nan,nan,nan,nan,nan,nan,nan,0.0,nan,nan,nan,nan,nan,nan,nan,nan,nan,nan,nan,nan,nan,nan,nan,nan,nan,nan,168.79953522968572,684.8012957233004,nan,685.0986395304499,nan,nan,nan,nan
1,373,1,1,1.0,1.0,0.4092037180525949,0,3,0,8,6,7,2,nan,nan,nan,nan,nan,nan,nan,nan,nan,nan,nan,nan,0.0,nan,nan,nan,nan,nan,nan,nan,nan,nan,nan,nan,nan,nan,nan,nan,nan,nan,nan,168.79953522968572,685.8014320011862,nan,686.2106357192388,nan,nan,nan,nan
1,374,1,1,1.0,1.0,0.3290526491618948,0,2,8,4,1,5,7,nan,nan,nan,nan,nan,nan,nan,nan,nan,nan,nan,nan,0.0,nan,nan,nan,nan,nan,nan,nan,nan,nan,nan,nan,nan,nan,nan,nan,nan,nan,nan,168.79953522968572,686.8015685641731,nan,687.130621213335,nan,nan,nan,nan
1,375,0,0,0.0,1.0,0.45690810565429274,0,6,1,2,3,7,0,nan,nan,nan,nan,nan,nan,nan,nan,nan,nan,nan,nan,0.0,nan,nan,nan,nan,nan,nan,nan,nan,nan,nan,nan,nan,nan,nan,nan,nan,nan,nan,168.79953522968572,687.8017065526656,nan,688.2586146583199,nan,nan,nan,nan
1,376,1,1,1.0,1.0,0.37682745650818106,0,4,0,3,7,1,6,nan,nan,nan,nan,nan,nan,nan,nan,nan,nan,nan,nan,0.0,nan,nan,nan,nan,nan,nan,nan,nan,nan,nan,nan,nan,nan,nan,nan,nan,nan,nan,168.79953522968572,688.8018465368514,nan,689.1786739933596,nan,nan,nan,nan
1,377,0,0,0.0,1.0,0.48860440326097887,0,3,5,2,1,0,8,nan,nan,nan,nan,nan,nan,nan,nan,nan,nan,nan,nan,0.0,nan,nan,nan,nan,nan,nan,nan,nan,nan,nan,nan,nan,nan,nan,nan,nan,nan,nan,168.79953522968572,689.801995644244,nan,690.290600047505,nan,nan,nan,nan
1,378,1,1,1.0,1.0,0.35246821204782464,0,6,7,8,2,5,0,nan,nan,nan,nan,nan,nan,nan,nan,nan,nan,nan,nan,0.0,nan,nan,nan,nan,nan,nan,nan,nan,nan,nan,nan,nan,nan,nan,nan,nan,nan,nan,168.79953522968572,690.8021168118139,nan,691.1545850238617,nan,nan,nan,nan
1,379,1,1,1.0,1.0,0.38431988924276084,0,2,8,4,1,6,3,nan,nan,nan,nan,nan,nan,nan,nan,nan,nan,nan,nan,0.0,nan,nan,nan,nan,nan,nan,nan,nan,nan,nan,nan,nan,nan,nan,nan,nan,nan,nan,168.79953522968572,691.8022616427043,nan,692.186581531947,nan,nan,nan,nan
1,380,1,1,1.0,1.0,0.3998641212529037,0,5,4,2,8,7,0,nan,nan,nan,nan,nan,nan,nan,nan,nan,nan,nan,nan,0.0,nan,nan,nan,nan,nan,nan,nan,nan,nan,nan,nan,nan,nan,nan,nan,nan,nan,nan,168.79953522968572,692.8107225607528,nan,693.2105866820057,nan,nan,nan,nan
1,381,1,1,1.0,1.0,0.41570400215277914,0,8,0,6,4,3,1,nan,nan,nan,nan,nan,nan,nan,nan,nan,nan,nan,nan,0.0,nan,nan,nan,nan,nan,nan,nan,nan,nan,nan,nan,nan,nan,nan,nan,nan,nan,nan,168.79953522968572,693.8108662512386,nan,694.2265702533914,nan,nan,nan,nan
1,382,1,1,1.0,1.0,0.3195485495671164,0,0,7,1,6,5,8,nan,nan,nan,nan,nan,nan,nan,nan,nan,nan,nan,nan,0.0,nan,nan,nan,nan,nan,nan,nan,nan,nan,nan,nan,nan,nan,nan,nan,nan,nan,nan,168.79953522968572,694.8109985377232,nan,695.1305470872903,nan,nan,nan,nan
1,383,1,1,1.0,1.0,0.351435008997214,0,8,5,7,0,2,6,nan,nan,nan,nan,nan,nan,nan,nan,nan,nan,nan,nan,0.0,nan,nan,nan,nan,nan,nan,nan,nan,nan,nan,nan,nan,nan,nan,nan,nan,nan,nan,168.79953522968572,695.8110980376805,nan,696.1625330466777,nan,nan,nan,nan
