block,trial,freq_trials,correct_response,actual_response,acc,rts,probe_trials,trials_colorind0,trials_colorind1,trials_colorind2,trials_colorind3,trials_colorind4,trials_colorind5,wholereport_resp0,wholereport_resp1,wholereport_resp2,wholereport_resp3,wholereport_resp4,wholereport_resp5,wholereport_respacc0,wholereport_respacc1,wholereport_respacc2,wholereport_respacc3,wholereport_respacc4,wholereport_respacc5,wholereport_respacc_total,wholereport_respcolorind0,wholereport_respcolorind1,wholereport_respcolorind2,wholereport_respcolorind3,wholereport_respcolorind4,wholereport_respcolorind5,wholereport_resporder0,wholereport_resporder1,wholereport_resporder2,wholereport_resporder3,wholereport_resporder4,wholereport_resporder5,wholereport_rts0,wholereport_rts1,wholereport_rts2,wholereport_rts3,wholereport_rts4,wholereport_rts5,time_blockstart,time_encarray_offset,time_encarray_onset,time_response,time_iti_offset,time_iti_onset,time_memprobe_offset,time_memprobe_onset
1,1,1,1,1.0,1.0,0.5748436175053939,0,8,0,2,5,1,7,nan,nan,nan,nan,nan,nan,nan,nan,nan,nan,nan,nan,0.0,nan,nan,nan,nan,nan,nan,nan,nan,nan,nan,nan,nan,nan,nan,nan,nan,nan,nan,238.54587412939873,239.56299444602337,nan,240.13783806352876,nan,nan,nan,nan
1,2,1,1,1.0,1.0,0.34223242360167205,0,4,3,5,6,2,0,nan,nan,nan,nan,nan,nan,nan,nan,nan,nan,nan,nan,0.0,nan,nan,nan,nan,nan,nan,nan,nan,nan,nan,nan,nan,nan,nan,nan,nan,nan,nan,238.54587412939873,240.57159123918973,nan,240.9138236627914,nan,nan,nan,nan
1,3,1,1,1.0,1.0,0.33388223871588707,0,6,2,7,3,4,8,nan,nan,nan,nan,nan,nan,nan,nan,nan,nan,nan,nan,0.0,nan,nan,nan,nan,nan,nan,nan,nan,nan,nan,nan,nan,nan,nan,nan,nan,nan,nan,238.54587412939873,241.57991405483335,nan,241.91379629354924,nan,nan,nan,nan
1,4,1,1,1.0,1.0,0.3413925300119445,0,1,4,3,2,6,7,nan,nan,nan,nan,nan,nan,nan,nan,nan,nan,nan,nan,0.0,nan,nan,nan,nan,nan,nan,nan,nan,nan,nan,nan,nan,nan,nan,nan,nan,nan,nan,238.54587412939873,242.58837485709228,nan,242.92976738710422,nan,nan,nan,nan
1,5,1,1,1.0,1.0,0.3009176964405924,0,5,8,4,0,1,6,nan,nan,nan,nan,nan,nan,nan,nan,nan,nan,nan,nan,0.0,nan,nan,nan,nan,nan,nan,nan,nan,nan,nan,nan,nan,nan,nan,nan,nan,nan,nan,238.54587412939873,243.59683394874446,nan,243.89775164518505,nan,nan,nan,nan
1,6,1,1,1.0,1.0,0.252397445961833,0,3,5,2,6,8,1,nan,nan,nan,nan,nan,nan,nan,nan,nan,nan,nan,nan,0.0,nan,nan,nan,nan,nan,nan,nan,nan,nan,nan,nan,nan,nan,nan,nan,nan,nan,nan,238.54587412939873,244.6053543360904,nan,244.85775178205222,nan,nan,nan,nan
1,7,1,1,1.0,1.0,0.24427761882543564,0,4,0,6,1,2,7,nan,nan,nan,nan,nan,nan,nan,nan,nan,nan,nan,nan,0.0,nan,nan,nan,nan,nan,nan,nan,nan,nan,nan,nan,nan,nan,nan,nan,nan,nan,nan,238.54587412939873,245.60543273761868,nan,245.84971035644412,nan,nan,nan,nan
1,8,1,1,1.0,1.0,0.21179802529513836,0,5,2,0,4,1,3,nan,nan,nan,nan,nan,nan,nan,nan,nan,nan,nan,nan,0.0,nan,nan,nan,nan,nan,nan,nan,nan,nan,nan,nan,nan,nan,nan,nan,nan,nan,nan,238.54587412939873,246.61388441675808,nan,246.82568244205322,nan,nan,nan,nan
1,9,1,1,1.0,1.0,0.2113384500844404,0,1,5,7,3,6,4,nan,nan,nan,nan,nan,nan,nan,nan,nan,nan,nan,nan,0.0,nan,nan,nan,nan,nan,nan,nan,nan,nan,nan,nan,nan,nan,nan,nan,nan,nan,nan,238.54587412939873,247.6223249771865,nan,247.83366342727095,nan,nan,nan,nan
1,10,1,1,1.0,1.0,0.18682501674629748,0,7,1,5,0,8,3,nan,nan,nan,nan,nan,nan,nan,nan,nan,nan,nan,nan,0.0,nan,nan,nan,nan,nan,nan,nan,nan,nan,nan,nan,nan,nan,nan,nan,nan,nan,nan,238.54587412939873,248.63081599969883,nan,248.81764101644512,nan,nan,nan,nan
1,11,1,1,1.0,1.0,0.14631568652112037,0,5,6,1,8,2,4,nan,nan,nan,nan,nan,nan,nan,nan,nan,nan,nan,nan,0.0,nan,nan,nan,nan,nan,nan,nan,nan,nan,nan,nan,nan,nan,nan,nan,nan,nan,nan,238.54587412939873,249.63927794236224,nan,249.78559362888336,nan,nan,nan,nan
1,12,1,1,1.0,1.0,0.0338517619529739,0,0,1,7,2,4,8,nan,nan,nan,nan,nan,nan,nan,nan,nan,nan,nan,nan,0.0,nan,nan,nan,nan,nan,nan,nan,nan,nan,nan,nan,nan,nan,nan,nan,nan,nan,nan,238.54587412939873,250.64774615701754,nan,250.6815979189705,nan,nan,nan,nan
1,13,1,1,1.0,1.0,0.1856826359871775,0,6,4,5,3,7,1,nan,nan,nan,nan,nan,nan,nan,nan,nan,nan,nan,nan,0.0,nan,nan,nan,nan,nan,nan,nan,nan,nan,nan,nan,nan,nan,nan,nan,nan,nan,nan,238.54587412939873,251.6478735951241,nan,251.8335562311113,nan,nan,nan,nan
1,14,1,1,1.0,1.0,0.2012021370464936,0,7,2,6,0,5,8,nan,nan,nan,nan,nan,nan,nan,nan,nan,nan,nan,nan,0.0,nan,nan,nan,nan,nan,nan,nan,nan,nan,nan,nan,nan,nan,nan,nan,nan,nan,nan,238.54587412939873,252.65633069106843,nan,252.85753282811493,nan,nan,nan,nan
1,15,0,0,1.0,0.0,0.20870273502077907,0,1,0,2,6,8,5,nan,nan,nan,nan,nan,nan,nan,nan,nan,nan,nan,nan,0.0,nan,nan,nan,nan,nan,nan,nan,nan,nan,nan,nan,nan,nan,nan,nan,nan,nan,nan,238.54587412939873,253.66479234863073,nan,253.8734950836515,nan,nan,nan,nan
1,16,1,1,1.0,1.0,0.4802298559807241,0,2,3,7,5,1,0,nan,nan,nan,nan,nan,nan,nan,nan,nan,nan,nan,nan,0.0,nan,nan,nan,nan,nan,nan,nan,nan,nan,nan,nan,nan,nan,nan,nan,nan,nan,nan,238.54587412939873,254.67326084850356,nan,255.15349070448428,nan,nan,nan,nan
1,17,1,1,1.0,1.0,0.3677459745667875,0,7,5,1,3,8,4,nan,nan,nan,nan,nan,nan,nan,nan,nan,nan,nan,nan,0.0,nan,nan,nan,nan,nan,nan,nan,nan,nan,nan,nan,nan,nan,nan,nan,nan,nan,nan,238.54587412939873,255.68171765946317,nan,256.04946363402996,nan,nan,nan,nan
1,18,1,1,1.0,1.0,0.29525768000166863,0,8,2,3,4,6,1,nan,nan,nan,nan,nan,nan,nan,nan,nan,nan,nan,nan,0.0,nan,nan,nan,nan,nan,nan,nan,nan,nan,nan,nan,nan,nan,nan,nan,nan,nan,nan,238.54587412939873,256.69017646601424,nan,256.9854341460159,nan,nan,nan,nan
1,19,1,1,1.0,1.0,0.23882486729416996,0,2,5,8,0,1,7,nan,nan,nan,nan,nan,nan,nan,nan,nan,nan,nan,nan,0.0,nan,nan,nan,nan,nan,nan,nan,nan,nan,nan,nan,nan,nan,nan,nan,nan,nan,nan,238.54587412939873,257.69860277161933,nan,257.9374276389135,nan,nan,nan,nan
1,20,1,1,1.0,1.0,0.2623210771707818,0,1,4,7,2,0,8,nan,nan,nan,nan,nan,nan,nan,nan,nan,nan,nan,nan,0.0,nan,nan,nan,nan,nan,nan,nan,nan,nan,nan,nan,nan,nan,nan,nan,nan,nan,nan,238.54587412939873,258.707093223813,nan,258.9694143009838,nan,nan,nan,nan
1,21,1,1,1.0,1.0,0.22982238209806383,0,2,1,3,7,8,5,nan,nan,nan,nan,nan,nan,nan,nan,nan,nan,nan,nan,0.0,nan,nan,nan,nan,nan,nan,nan,nan,nan,nan,nan,nan,nan,nan,nan,nan,nan,nan,238.54587412939873,259.7155585876899,nan,259.94538096978795,nan,nan,nan,nan
1,22,1,1,1.0,1.0,0.24565748474560678,0,1,2,7,4,6,0,nan,nan,nan,nan,nan,nan,nan,nan,nan,nan,nan,nan,0.0,nan,nan,nan,nan,nan,nan,nan,nan,nan,nan,nan,nan,nan,nan,nan,nan,nan,nan,238.54587412939873,260.7156957190018,nan,260.9613532037474,nan,nan,nan,nan
1,23,1,1,1.0,1.0,0.2292000170564279,0,7,6,8,5,3,2,nan,nan,nan,nan,nan,nan,nan,nan,nan,nan,nan,nan,0.0,nan,nan,nan,nan,nan,nan,nan,nan,nan,nan,nan,nan,nan,nan,nan,nan,nan,nan,238.54587412939873,261.72412487550173,nan,261.95332489255816,nan,nan,nan,nan
1,24,1,1,1.0,1.0,0.3010328753152862,0,8,1,4,3,2,5,nan,nan,nan,nan,nan,nan,nan,nan,nan,nan,nan,nan,0.0,nan,nan,nan,nan,nan,nan,nan,nan,nan,nan,nan,nan,nan,nan,nan,nan,nan,nan,238.54587412939873,262.72427483613137,nan,263.02530771144666,nan,nan,nan,nan
1,25,0,0,0.0,1.0,0.348528774920851,0,6,4,0,5,7,1,nan,nan,nan,nan,nan,nan,nan,nan,nan,nan,nan,nan,0.0,nan,nan,nan,nan,nan,nan,nan,nan,nan,nan,nan,nan,nan,nan,nan,nan,nan,nan,238.54587412939873,263.73274248070084,nan,264.0812712556217,nan,nan,nan,nan
1,26,1,1,1.0,1.0,0.3000490079866722,0,8,6,7,2,1,3,nan,nan,nan,nan,nan,nan,nan,nan,nan,nan,nan,nan,0.0,nan,nan,nan,nan,nan,nan,nan,nan,nan,nan,nan,nan,nan,nan,nan,nan,nan,nan,238.54587412939873,264.74120927008335,nan,265.04125827807,nan,nan,nan,nan
1,27,1,1,1.0,1.0,0.2515709517756477,0,0,1,8,7,6,2,nan,nan,nan,nan,nan,nan,nan,nan,nan,nan,nan,nan,0.0,nan,nan,nan,nan,nan,nan,nan,nan,nan,nan,nan,nan,nan,nan,nan,nan,nan,nan,238.54587412939873,265.74967748473864,nan,266.0012484365143,nan,nan,nan,nan
1,28,1,1,1.0,1.0,0.22708802379202098,0,2,6,4,0,8,5,nan,nan,nan,nan,nan,nan,nan,nan,nan,nan,nan,nan,0.0,nan,nan,nan,nan,nan,nan,nan,nan,nan,nan,nan,nan,nan,nan,nan,nan,nan,nan,238.54587412939873,266.7581271682866,nan,266.9852151920786,nan,nan,nan,nan
1,29,1,1,1.0,1.0,0.2105986252427101,0,7,1,6,5,2,3,nan,nan,nan,nan,nan,nan,nan,nan,nan,nan,nan,nan,0.0,nan,nan,nan,nan,nan,nan,nan,nan,nan,nan,nan,nan,nan,nan,nan,nan,nan,nan,238.54587412939873,267.7665931022493,nan,267.977191727492,nan,nan,nan,nan
1,30,1,1,1.0,1.0,0.1461007238831371,0,0,5,4,8,6,7,nan,nan,nan,nan,nan,nan,nan,nan,nan,nan,nan,nan,0.0,nan,nan,nan,nan,nan,nan,nan,nan,nan,nan,nan,nan,nan,nan,nan,nan,nan,nan,238.54587412939873,268.7750655935379,nan,268.921166317421,nan,nan,nan,nan
1,31,0,0,0.0,1.0,0.3216256645973772,0,2,7,5,6,3,0,nan,nan,nan,nan,nan,nan,nan,nan,nan,nan,nan,nan,0.0,nan,nan,nan,nan,nan,nan,nan,nan,nan,nan,nan,nan,nan,nan,nan,nan,nan,nan,238.54587412939873,269.7835201235721,nan,270.10514578816947,nan,nan,nan,nan
1,32,1,1,1.0,1.0,0.2331514514517039,0,8,5,1,7,6,3,nan,nan,nan,nan,nan,nan,nan,nan,nan,nan,nan,nan,0.0,nan,nan,nan,nan,nan,nan,nan,nan,nan,nan,nan,nan,nan,nan,nan,nan,nan,nan,238.54587412939873,270.7919740835205,nan,271.0251255349722,nan,nan,nan,nan
1,33,1,1,1.0,1.0,0.35266124550253153,0,3,6,4,8,0,1,nan,nan,nan,nan,nan,nan,nan,nan,nan,nan,nan,nan,0.0,nan,nan,nan,nan,nan,nan,nan,nan,nan,nan,nan,nan,nan,nan,nan,nan,nan,nan,238.54587412939873,271.80044087278657,nan,272.1531021182891,nan,nan,nan,nan
1,34,1,1,1.0,1.0,0.2641750582261011,0,7,4,6,3,2,0,nan,nan,nan,nan,nan,nan,nan,nan,nan,nan,nan,nan,0.0,nan,nan,nan,nan,nan,nan,nan,nan,nan,nan,nan,nan,nan,nan,nan,nan,nan,nan,238.54587412939873,272.8089045260567,nan,273.0730795842828,nan,nan,nan,nan
1,35,1,1,1.0,1.0,0.2876801061211154,0,3,1,2,0,4,6,nan,nan,nan,nan,nan,nan,nan,nan,nan,nan,nan,nan,0.0,nan,nan,nan,nan,nan,nan,nan,nan,nan,nan,nan,nan,nan,nan,nan,nan,nan,nan,238.54587412939873,273.81737559172325,nan,274.10505569784436,nan,nan,nan,nan
1,36,1,1,1.0,1.0,0.2712186467833817,0,6,2,1,7,5,0,nan,nan,nan,nan,nan,nan,nan,nan,nan,nan,nan,nan,0.0,nan,nan,nan,nan,nan,nan,nan,nan,nan,nan,nan,nan,nan,nan,nan,nan,nan,nan,238.54587412939873,274.8258152969647,nan,275.0970339437481,nan,nan,nan,nan
1,37,1,1,1.0,1.0,0.3427065387368202,0,2,5,8,4,0,1,nan,nan,nan,nan,nan,nan,nan,nan,nan,nan,nan,nan,0.0,nan,nan,nan,nan,nan,nan,nan,nan,nan,nan,nan,nan,nan,nan,nan,nan,nan,nan,238.54587412939873,275.8342943453463,nan,276.1770008840831,nan,nan,nan,nan
1,38,0,0,0.0,1.0,0.36655683803837746,0,7,0,6,3,1,5,nan,nan,nan,nan,nan,nan,nan,nan,nan,nan,nan,nan,0.0,nan,nan,nan,nan,nan,nan,nan,nan,nan,nan,nan,nan,nan,nan,nan,nan,nan,nan,238.54587412939873,276.83441807713825,nan,277.20097491517663,nan,nan,nan,nan
1,39,1,1,1.0,1.0,0.33407752960920334,0,1,6,7,5,0,3,nan,nan,nan,nan,nan,nan,nan,nan,nan,nan,nan,nan,0.0,nan,nan,nan,nan,nan,nan,nan,nan,nan,nan,nan,nan,nan,nan,nan,nan,nan,nan,238.54587412939873,277.8428854366066,nan,278.1769629662158,nan,nan,nan,nan
1,40,1,1,1.0,1.0,0.3899341627256945,0,6,8,3,1,7,2,nan,nan,nan,nan,nan,nan,nan,nan,nan,nan,nan,nan,0.0,nan,nan,nan,nan,nan,nan,nan,nan,nan,nan,nan,nan,nan,nan,nan,nan,nan,nan,238.54587412939873,278.8429946284741,nan,279.2329287911998,nan,nan,nan,nan
1,41,0,0,0.0,1.0,0.38944351207464933,0,3,0,5,4,2,6,nan,nan,nan,nan,nan,nan,nan,nan,nan,nan,nan,nan,0.0,nan,nan,nan,nan,nan,nan,nan,nan,nan,nan,nan,nan,nan,nan,nan,nan,nan,nan,238.54587412939873,279.8514725364512,nan,280.24091604852583,nan,nan,nan,nan
1,42,1,1,1.0,1.0,0.2289320264244452,0,6,5,2,7,8,3,nan,nan,nan,nan,nan,nan,nan,nan,nan,nan,nan,nan,0.0,nan,nan,nan,nan,nan,nan,nan,nan,nan,nan,nan,nan,nan,nan,nan,nan,nan,nan,238.54587412939873,280.8599518700503,nan,281.0888838964747,nan,nan,nan,nan
1,43,1,1,1.0,1.0,0.30846847139764577,0,2,4,5,1,7,6,nan,nan,nan,nan,nan,nan,nan,nan,nan,nan,nan,nan,0.0,nan,nan,nan,nan,nan,nan,nan,nan,nan,nan,nan,nan,nan,nan,nan,nan,nan,nan,238.54587412939873,281.86840098327957,nan,282.1768694546772,nan,nan,nan,nan
1,44,1,1,1.0,1.0,0.3239945296663791,0,8,1,7,0,3,4,nan,nan,nan,nan,nan,nan,nan,nan,nan,nan,nan,nan,0.0,nan,nan,nan,nan,nan,nan,nan,nan,nan,nan,nan,nan,nan,nan,nan,nan,nan,nan,238.54587412939873,282.8768540879246,nan,283.20084861759096,nan,nan,nan,nan
1,45,1,1,1.0,1.0,0.3954829915892333,0,1,2,4,7,8,5,nan,nan,nan,nan,nan,nan,nan,nan,nan,nan,nan,nan,0.0,nan,nan,nan,nan,nan,nan,nan,nan,nan,nan,nan,nan,nan,nan,nan,nan,nan,nan,238.54587412939873,283.8853274344001,nan,284.28081042598933,nan,nan,nan,nan
1,46,1,1,1.0,1.0,0.34700721607077867,0,0,8,7,1,6,3,nan,nan,nan,nan,nan,nan,nan,nan,nan,nan,nan,nan,0.0,nan,nan,nan,nan,nan,nan,nan,nan,nan,nan,nan,nan,nan,nan,nan,nan,nan,nan,238.54587412939873,284.89378481556196,nan,285.24079203163274,nan,nan,nan,nan
1,47,1,1,1.0,1.0,0.31451935484074056,0,1,7,6,8,0,4,nan,nan,nan,nan,nan,nan,nan,nan,nan,nan,nan,nan,0.0,nan,nan,nan,nan,nan,nan,nan,nan,nan,nan,nan,nan,nan,nan,nan,nan,nan,nan,238.54587412939873,285.90225531102624,nan,286.216774665867,nan,nan,nan,nan
1,48,1,1,1.0,1.0,0.282359354197979,0,4,2,1,6,8,7,nan,nan,nan,nan,nan,nan,nan,nan,nan,nan,nan,nan,0.0,nan,nan,nan,nan,nan,nan,nan,nan,nan,nan,nan,nan,nan,nan,nan,nan,nan,nan,238.54587412939873,286.9023827491328,nan,287.1847421033308,nan,nan,nan,nan
1,49,1,1,1.0,1.0,0.26588478055782616,0,2,8,4,5,3,1,nan,nan,nan,nan,nan,nan,nan,nan,nan,nan,nan,nan,0.0,nan,nan,nan,nan,nan,nan,nan,nan,nan,nan,nan,nan,nan,nan,nan,nan,nan,nan,238.54587412939873,287.9108381345868,nan,288.17672291514464,nan,nan,nan,nan
1,50,0,0,0.0,1.0,0.3773859351640567,0,5,1,2,6,0,4,nan,nan,nan,nan,nan,nan,nan,nan,nan,nan,nan,nan,0.0,nan,nan,nan,nan,nan,nan,nan,nan,nan,nan,nan,nan,nan,nan,nan,nan,nan,nan,238.54587412939873,288.9193086300511,nan,289.29669456521515,nan,nan,nan,nan
1,51,1,1,1.0,1.0,0.43291556276381016,0,7,8,3,5,1,0,nan,nan,nan,nan,nan,nan,nan,nan,nan,nan,nan,nan,0.0,nan,nan,nan,nan,nan,nan,nan,nan,nan,nan,nan,nan,nan,nan,nan,nan,nan,nan,238.54587412939873,289.9277654410107,nan,290.3606810037745,nan,nan,nan,nan
1,52,1,1,1.0,1.0,0.3044329334516078,0,5,2,8,7,0,6,nan,nan,nan,nan,nan,nan,nan,nan,nan,nan,nan,nan,0.0,nan,nan,nan,nan,nan,nan,nan,nan,nan,nan,nan,nan,nan,nan,nan,nan,nan,nan,238.54587412939873,290.93622766877525,nan,291.24066060222685,nan,nan,nan,nan
1,53,1,1,1.0,1.0,0.2639196119271219,0,7,4,6,5,3,1,nan,nan,nan,nan,nan,nan,nan,nan,nan,nan,nan,nan,0.0,nan,nan,nan,nan,nan,nan,nan,nan,nan,nan,nan,nan,nan,nan,nan,nan,nan,nan,238.54587412939873,291.94471213396173,nan,292.20863174588885,nan,nan,nan,nan
1,54,1,1,1.0,1.0,0.31946178374346346,0,1,6,0,7,4,2,nan,nan,nan,nan,nan,nan,nan,nan,nan,nan,nan,nan,0.0,nan,nan,nan,nan,nan,nan,nan,nan,nan,nan,nan,nan,nan,nan,nan,nan,nan,nan,238.54587412939873,292.9531484179897,nan,293.2726102017332,nan,nan,nan,nan
1,55,1,1,1.0,1.0,0.30297894251998514,1,8,1,5,4,2,0,1.0,1.0,1.0,1.0,1.0,1.0,1.0,0.0,0.0,1.0,0.0,0.0,2.0,8.0,2.0,4.0,4.0,4.0,4.0,2.0,1.0,6.0,5.0,4.0,3.0,5.089796204585582,3.8897566902451217,11.727991066174582,10.872624399606138,9.624743163818493,8.560970832593739,238.54587412939873,293.9616046586307,294.7700253763469,294.26458360115066,307.55498324055225,308.5523024802096,295.78683294239454,307.54665215709247
1,56,1,1,nan,nan,nan,0,0,5,6,2,7,1,nan,nan,nan,nan,nan,nan,nan,nan,nan,nan,nan,nan,0.0,nan,nan,nan,nan,nan,nan,nan,nan,nan,nan,nan,nan,nan,nan,nan,nan,nan,nan,238.54587412939873,308.75516245211475,nan,nan,nan,nan,nan,nan
1,57,1,1,1.0,1.0,0.6449085938511416,0,7,0,4,6,8,5,nan,nan,nan,nan,nan,nan,nan,nan,nan,nan,nan,nan,0.0,nan,nan,nan,nan,nan,nan,nan,nan,nan,nan,nan,nan,nan,nan,nan,nan,nan,nan,238.54587412939873,309.75531184254214,nan,310.4002204363933,nan,nan,nan,nan
1,58,1,1,1.0,1.0,0.5487476148409769,1,0,8,1,2,4,3,1.0,1.0,1.0,1.0,1.0,1.0,0.0,0.0,0.0,0.0,0.0,1.0,1.0,8.0,1.0,0.0,3.0,3.0,3.0,2.0,1.0,3.0,4.0,5.0,6.0,2.8791288712527603,1.9194640076020733,3.8226612767903134,6.086026946664788,7.126167647424154,8.157953031477518,238.54587412939873,310.75544013583567,311.5638343396131,311.30418775067665,320.76500939240213,321.7652012621984,312.57231053709984,320.75667574314866
1,59,1,1,nan,nan,nan,0,2,7,6,8,5,1,nan,nan,nan,nan,nan,nan,nan,nan,nan,nan,nan,nan,0.0,nan,nan,nan,nan,nan,nan,nan,nan,nan,nan,nan,nan,nan,nan,nan,nan,nan,nan,238.54587412939873,321.9735347975511,nan,nan,nan,nan,nan,nan
1,60,1,1,nan,nan,nan,0,4,1,0,3,8,2,nan,nan,nan,nan,nan,nan,nan,nan,nan,nan,nan,nan,0.0,nan,nan,nan,nan,nan,nan,nan,nan,nan,nan,nan,nan,nan,nan,nan,nan,nan,nan,238.54587412939873,322.98196281376295,nan,nan,nan,nan,nan,nan
1,61,1,1,1.0,1.0,0.049456791719421744,0,6,2,8,1,7,4,nan,nan,nan,nan,nan,nan,nan,nan,nan,nan,nan,nan,0.0,nan,nan,nan,nan,nan,nan,nan,nan,nan,nan,nan,nan,nan,nan,nan,nan,nan,nan,238.54587412939873,323.99045640206896,nan,324.0399131937884,nan,nan,nan,nan
1,62,1,1,1.0,1.0,0.5209079631604254,0,5,0,1,7,3,8,nan,nan,nan,nan,nan,nan,nan,nan,nan,nan,nan,nan,0.0,nan,nan,nan,nan,nan,nan,nan,nan,nan,nan,nan,nan,nan,nan,nan,nan,nan,nan,238.54587412939873,324.99891520862,nan,325.51982317178044,nan,nan,nan,nan
1,63,1,1,1.0,1.0,0.44846243294887245,0,2,8,5,0,7,3,nan,nan,nan,nan,nan,nan,nan,nan,nan,nan,nan,nan,0.0,nan,nan,nan,nan,nan,nan,nan,nan,nan,nan,nan,nan,nan,nan,nan,nan,nan,nan,238.54587412939873,326.0073788618902,nan,326.45584129483905,nan,nan,nan,nan
1,64,1,1,1.0,1.0,0.5039578491123393,0,5,6,7,2,8,1,nan,nan,nan,nan,nan,nan,nan,nan,nan,nan,nan,nan,0.0,nan,nan,nan,nan,nan,nan,nan,nan,nan,nan,nan,nan,nan,nan,nan,nan,nan,nan,238.54587412939873,327.0158445107518,nan,327.5198023598641,nan,nan,nan,nan
1,65,1,1,1.0,1.0,0.4074946680339053,0,3,5,8,4,6,7,nan,nan,nan,nan,nan,nan,nan,nan,nan,nan,nan,nan,0.0,nan,nan,nan,nan,nan,nan,nan,nan,nan,nan,nan,nan,nan,nan,nan,nan,nan,nan,238.54587412939873,328.02430246199947,nan,328.4317971300334,nan,nan,nan,nan
1,66,1,1,1.0,1.0,0.32700628659222275,0,7,4,6,5,2,3,nan,nan,nan,nan,nan,nan,nan,nan,nan,nan,nan,nan,0.0,nan,nan,nan,nan,nan,nan,nan,nan,nan,nan,nan,nan,nan,nan,nan,nan,nan,nan,238.54587412939873,329.03276640037075,nan,329.35977268696297,nan,nan,nan,nan
1,67,1,1,1.0,1.0,0.34250811173114926,0,2,1,0,8,3,6,nan,nan,nan,nan,nan,nan,nan,nan,nan,nan,nan,nan,0.0,nan,nan,nan,nan,nan,nan,nan,nan,nan,nan,nan,nan,nan,nan,nan,nan,nan,nan,238.54587412939873,330.04124373814557,nan,330.3837518498767,nan,nan,nan,nan
1,68,1,1,1.0,1.0,0.30200904491357505,0,3,8,6,1,7,0,nan,nan,nan,nan,nan,nan,nan,nan,nan,nan,nan,nan,0.0,nan,nan,nan,nan,nan,nan,nan,nan,nan,nan,nan,nan,nan,nan,nan,nan,nan,nan,238.54587412939873,331.0497085318202,nan,331.3517175767338,nan,nan,nan,nan
1,69,1,1,1.0,1.0,0.2695551101351157,0,7,0,1,4,8,2,nan,nan,nan,nan,nan,nan,nan,nan,nan,nan,nan,nan,0.0,nan,nan,nan,nan,nan,nan,nan,nan,nan,nan,nan,nan,nan,nan,nan,nan,nan,nan,238.54587412939873,332.058156504645,nan,332.3277116147801,nan,nan,nan,nan
1,70,1,1,1.0,1.0,0.2290925356792286,0,6,3,2,5,0,8,nan,nan,nan,nan,nan,nan,nan,nan,nan,nan,nan,nan,0.0,nan,nan,nan,nan,nan,nan,nan,nan,nan,nan,nan,nan,nan,nan,nan,nan,nan,nan,238.54587412939873,333.06660590309184,nan,333.29569843877107,nan,nan,nan,nan
1,71,1,1,1.0,1.0,0.21258460590615869,0,1,8,4,6,2,7,nan,nan,nan,nan,nan,nan,nan,nan,nan,nan,nan,nan,0.0,nan,nan,nan,nan,nan,nan,nan,nan,nan,nan,nan,nan,nan,nan,nan,nan,nan,nan,238.54587412939873,334.0750758284703,nan,334.28766043437645,nan,nan,nan,nan
1,72,0,0,1.0,0.0,0.18839390156790614,0,3,6,5,8,4,1,nan,nan,nan,nan,nan,nan,nan,nan,nan,nan,nan,nan,0.0,nan,nan,nan,nan,nan,nan,nan,nan,nan,nan,nan,nan,nan,nan,nan,nan,nan,nan,238.54587412939873,335.07525116263423,nan,335.26364506420214,nan,nan,nan,nan
1,73,1,1,1.0,1.0,0.3079473153920844,0,7,5,2,1,0,6,nan,nan,nan,nan,nan,nan,nan,nan,nan,nan,nan,nan,0.0,nan,nan,nan,nan,nan,nan,nan,nan,nan,nan,nan,nan,nan,nan,nan,nan,nan,nan,238.54587412939873,336.0836646389216,nan,336.3916119543137,nan,nan,nan,nan
1,74,1,1,1.0,1.0,0.339463853626512,1,1,6,4,5,3,0,1.0,1.0,1.0,1.0,1.0,1.0,0.0,0.0,0.0,0.0,0.0,0.0,0.0,6.0,2.0,8.0,7.0,7.0,7.0,2.0,1.0,3.0,4.0,5.0,6.0,4.486259357188828,1.948633348220028,6.636033831862733,8.308362130424939,9.244085178826936,9.995686208247207,238.54587412939873,337.0921262964839,337.9005478695035,337.4315901501104,348.96029777731746,349.9693712515291,338.92568081698846,348.9519932077965
1,75,1,1,nan,nan,nan,0,8,7,1,6,0,4,nan,nan,nan,nan,nan,nan,nan,nan,nan,nan,nan,nan,0.0,nan,nan,nan,nan,nan,nan,nan,nan,nan,nan,nan,nan,nan,nan,nan,nan,nan,nan,238.54587412939873,350.17715626151767,nan,nan,nan,nan,nan,nan
1,76,1,1,nan,nan,nan,0,3,6,7,4,8,2,nan,nan,nan,nan,nan,nan,nan,nan,nan,nan,nan,nan,0.0,nan,nan,nan,nan,nan,nan,nan,nan,nan,nan,nan,nan,nan,nan,nan,nan,nan,nan,238.54587412939873,351.17727628699504,nan,nan,nan,nan,nan,nan
1,77,1,1,1.0,1.0,0.7178658718476072,0,8,1,0,6,5,3,nan,nan,nan,nan,nan,nan,nan,nan,nan,nan,nan,nan,0.0,nan,nan,nan,nan,nan,nan,nan,nan,nan,nan,nan,nan,nan,nan,nan,nan,nan,nan,238.54587412939873,352.17739175108727,nan,352.8952576229349,nan,nan,nan,nan
1,78,1,1,1.0,1.0,0.4456944331759587,0,5,8,2,1,0,7,nan,nan,nan,nan,nan,nan,nan,nan,nan,nan,nan,nan,0.0,nan,nan,nan,nan,nan,nan,nan,nan,nan,nan,nan,nan,nan,nan,nan,nan,nan,nan,238.54587412939873,353.17752061458305,nan,353.623215047759,nan,nan,nan,nan
1,79,1,1,1.0,1.0,0.4055588642368093,0,8,6,7,3,4,1,nan,nan,nan,nan,nan,nan,nan,nan,nan,nan,nan,nan,0.0,nan,nan,nan,nan,nan,nan,nan,nan,nan,nan,nan,nan,nan,nan,nan,nan,nan,nan,238.54587412939873,354.17763066175394,nan,354.58318952599075,nan,nan,nan,nan
1,80,1,1,1.0,1.0,0.341372002963908,0,7,3,1,0,2,6,nan,nan,nan,nan,nan,nan,nan,nan,nan,nan,nan,nan,0.0,nan,nan,nan,nan,nan,nan,nan,nan,nan,nan,nan,nan,nan,nan,nan,nan,nan,nan,238.54587412939873,355.17779544740915,nan,355.51916745037306,nan,nan,nan,nan
1,81,1,1,1.0,1.0,0.30925590731203556,0,5,1,3,7,0,8,nan,nan,nan,nan,nan,nan,nan,nan,nan,nan,nan,nan,0.0,nan,nan,nan,nan,nan,nan,nan,nan,nan,nan,nan,nan,nan,nan,nan,nan,nan,nan,238.54587412939873,356.1778883887455,nan,356.4871442960575,nan,nan,nan,nan
1,82,1,1,1.0,1.0,0.2610791977494955,0,6,8,0,1,4,7,nan,nan,nan,nan,nan,nan,nan,nan,nan,nan,nan,nan,0.0,nan,nan,nan,nan,nan,nan,nan,nan,nan,nan,nan,nan,nan,nan,nan,nan,nan,nan,238.54587412939873,357.1780443363823,nan,357.4391235341318,nan,nan,nan,nan
1,83,0,0,0.0,1.0,0.3648964373860508,0,2,7,6,5,3,1,nan,nan,nan,nan,nan,nan,nan,nan,nan,nan,nan,nan,0.0,nan,nan,nan,nan,nan,nan,nan,nan,nan,nan,nan,nan,nan,nan,nan,nan,nan,nan,238.54587412939873,358.17818831000477,nan,358.5430847473908,nan,nan,nan,nan
1,84,1,1,1.0,1.0,0.2444418342784047,0,1,3,0,4,6,5,nan,nan,nan,nan,nan,nan,nan,nan,nan,nan,nan,nan,0.0,nan,nan,nan,nan,nan,nan,nan,nan,nan,nan,nan,nan,nan,nan,nan,nan,nan,nan,238.54587412939873,359.18662944063544,nan,359.43107127491385,nan,nan,nan,nan
1,85,1,1,1.0,1.0,0.19595836114604026,0,3,7,5,0,4,6,nan,nan,nan,nan,nan,nan,nan,nan,nan,nan,nan,nan,0.0,nan,nan,nan,nan,nan,nan,nan,nan,nan,nan,nan,nan,nan,nan,nan,nan,nan,nan,238.54587412939873,360.19508111977484,nan,360.3910394809209,nan,nan,nan,nan
1,86,1,1,1.0,1.0,0.21185105317272246,0,5,1,7,6,8,2,nan,nan,nan,nan,nan,nan,nan,nan,nan,nan,nan,nan,0.0,nan,nan,nan,nan,nan,nan,nan,nan,nan,nan,nan,nan,nan,nan,nan,nan,nan,nan,238.54587412939873,361.19519259245135,nan,361.40704364562407,nan,nan,nan,nan
1,87,1,1,1.0,1.0,0.21967694605700672,0,8,4,6,2,7,1,nan,nan,nan,nan,nan,nan,nan,nan,nan,nan,nan,nan,0.0,nan,nan,nan,nan,nan,nan,nan,nan,nan,nan,nan,nan,nan,nan,nan,nan,nan,nan,238.54587412939873,362.19534854008816,nan,362.41502548614517,nan,nan,nan,nan
1,88,1,1,1.0,1.0,0.24350671842694283,0,3,1,0,7,4,8,nan,nan,nan,nan,nan,nan,nan,nan,nan,nan,nan,nan,0.0,nan,nan,nan,nan,nan,nan,nan,nan,nan,nan,nan,nan,nan,nan,nan,nan,nan,nan,238.54587412939873,363.1954702762887,nan,363.43897699471563,nan,nan,nan,nan
1,89,1,1,1.0,1.0,0.26738353178370744,0,6,8,2,4,1,5,nan,nan,nan,nan,nan,nan,nan,nan,nan,nan,nan,nan,0.0,nan,nan,nan,nan,nan,nan,nan,nan,nan,nan,nan,nan,nan,nan,nan,nan,nan,nan,238.54587412939873,364.1956025608815,nan,364.46298609266523,nan,nan,nan,nan
1,90,1,1,1.0,1.0,0.22721631708554924,0,7,6,1,5,8,2,nan,nan,nan,nan,nan,nan,nan,nan,nan,nan,nan,nan,0.0,nan,nan,nan,nan,nan,nan,nan,nan,nan,nan,nan,nan,nan,nan,nan,nan,nan,nan,238.54587412939873,365.195725152269,nan,365.42294146935456,nan,nan,nan,nan
1,91,1,1,1.0,1.0,0.25108457752503455,0,3,7,8,2,6,0,nan,nan,nan,nan,nan,nan,nan,nan,nan,nan,nan,nan,0.0,nan,nan,nan,nan,nan,nan,nan,nan,nan,nan,nan,nan,nan,nan,nan,nan,nan,nan,238.54587412939873,366.19585601147264,nan,366.4469405889977,nan,nan,nan,nan
1,92,1,1,1.0,1.0,0.378889532876201,0,5,2,3,4,1,7,nan,nan,nan,nan,nan,nan,nan,nan,nan,nan,nan,nan,0.0,nan,nan,nan,nan,nan,nan,nan,nan,nan,nan,nan,nan,nan,nan,nan,nan,nan,nan,238.54587412939873,367.19598886638414,nan,367.57487839926034,nan,nan,nan,nan
1,93,0,0,0.0,1.0,0.4107356424210593,0,7,5,4,6,3,0,nan,nan,nan,nan,nan,nan,nan,nan,nan,nan,nan,nan,0.0,nan,nan,nan,nan,nan,nan,nan,nan,nan,nan,nan,nan,nan,nan,nan,nan,nan,nan,238.54587412939873,368.1961200106889,nan,368.60685565310996,nan,nan,nan,nan
1,94,1,1,1.0,1.0,0.26659609586931765,0,5,0,6,7,4,1,nan,nan,nan,nan,nan,nan,nan,nan,nan,nan,nan,nan,0.0,nan,nan,nan,nan,nan,nan,nan,nan,nan,nan,nan,nan,nan,nan,nan,nan,nan,nan,238.54587412939873,369.1962406063685,nan,369.46283670223784,nan,nan,nan,nan
1,95,1,1,1.0,1.0,0.21845502336509526,0,0,1,7,2,6,3,nan,nan,nan,nan,nan,nan,nan,nan,nan,nan,nan,nan,0.0,nan,nan,nan,nan,nan,nan,nan,nan,nan,nan,nan,nan,nan,nan,nan,nan,nan,nan,238.54587412939873,370.1963708953699,nan,370.414825918735,nan,nan,nan,nan
1,96,1,1,1.0,1.0,0.19430081138852984,0,7,3,5,0,8,6,nan,nan,nan,nan,nan,nan,nan,nan,nan,nan,nan,nan,0.0,nan,nan,nan,nan,nan,nan,nan,nan,nan,nan,nan,nan,nan,nan,nan,nan,nan,nan,238.54587412939873,371.1964960526675,nan,371.39079686405603,nan,nan,nan,nan
1,97,1,1,1.0,1.0,0.1781538133509457,0,1,6,4,8,3,0,nan,nan,nan,nan,nan,nan,nan,nan,nan,nan,nan,nan,0.0,nan,nan,nan,nan,nan,nan,nan,nan,nan,nan,nan,nan,nan,nan,nan,nan,nan,nan,238.54587412939873,372.19662691187114,nan,372.3747807252221,nan,nan,nan,nan
1,98,0,0,1.0,0.0,0.10599936649668962,0,3,8,5,2,6,4,nan,nan,nan,nan,nan,nan,nan,nan,nan,nan,nan,nan,0.0,nan,nan,nan,nan,nan,nan,nan,nan,nan,nan,nan,nan,nan,nan,nan,nan,nan,nan,238.54587412939873,373.19675862637814,nan,373.30275799287483,nan,nan,nan,nan
1,99,1,1,1.0,1.0,0.22583331493660808,1,0,7,2,5,8,6,1.0,1.0,1.0,1.0,1.0,1.0,0.0,0.0,0.0,0.0,0.0,0.0,0.0,8.0,0.0,5.0,8.0,7.0,7.0,2.0,3.0,1.0,6.0,4.0,5.0,3.188103958731517,4.092762061278336,2.0055499692680314,9.395280003082007,7.442789017106406,8.219588566222228,238.54587412939873,374.1968886302784,375.00530108017847,374.422721945215,385.44827826076653,386.45695944246836,376.01377898815554,385.43996969994623
1,100,1,1,1.0,1.0,0.5896201577270404,0,4,8,3,1,0,2,nan,nan,nan,nan,nan,nan,nan,nan,nan,nan,nan,nan,0.0,nan,nan,nan,nan,nan,nan,nan,nan,nan,nan,nan,nan,nan,nan,nan,nan,nan,nan,238.54587412939873,386.6568241927307,nan,387.24644435045775,nan,nan,nan,nan
1,101,1,1,1.0,1.0,0.49346602091100067,0,7,0,4,6,3,1,nan,nan,nan,nan,nan,nan,nan,nan,nan,nan,nan,nan,0.0,nan,nan,nan,nan,nan,nan,nan,nan,nan,nan,nan,nan,nan,nan,nan,nan,nan,nan,238.54587412939873,387.6569390866207,nan,388.1504051075317,nan,nan,nan,nan
1,102,1,1,1.0,1.0,0.4133163340156898,0,4,5,3,8,2,6,nan,nan,nan,nan,nan,nan,nan,nan,nan,nan,nan,nan,0.0,nan,nan,nan,nan,nan,nan,nan,nan,nan,nan,nan,nan,nan,nan,nan,nan,nan,nan,238.54587412939873,388.65706424380187,nan,389.07038057781756,nan,nan,nan,nan
1,103,1,1,1.0,1.0,0.29315538005903363,0,5,7,2,6,3,4,nan,nan,nan,nan,nan,nan,nan,nan,nan,nan,nan,nan,0.0,nan,nan,nan,nan,nan,nan,nan,nan,nan,nan,nan,nan,nan,nan,nan,nan,nan,nan,238.54587412939873,389.6572010900127,nan,389.9503564700717,nan,nan,nan,nan
1,104,1,1,1.0,1.0,0.26901428250130266,0,1,8,6,4,7,0,nan,nan,nan,nan,nan,nan,nan,nan,nan,nan,nan,nan,0.0,nan,nan,nan,nan,nan,nan,nan,nan,nan,nan,nan,nan,nan,nan,nan,nan,nan,nan,238.54587412939873,390.65732368140016,nan,390.92633796390146,nan,nan,nan,nan
1,105,1,1,1.0,1.0,0.16486633114982396,0,6,0,4,3,8,2,nan,nan,nan,nan,nan,nan,nan,nan,nan,nan,nan,nan,0.0,nan,nan,nan,nan,nan,nan,nan,nan,nan,nan,nan,nan,nan,nan,nan,nan,nan,nan,238.54587412939873,391.6574531152146,nan,391.8223194463644,nan,nan,nan,nan
1,106,0,0,1.0,0.0,0.22071555175352842,0,4,8,3,5,0,6,nan,nan,nan,nan,nan,nan,nan,nan,nan,nan,nan,nan,0.0,nan,nan,nan,nan,nan,nan,nan,nan,nan,nan,nan,nan,nan,nan,nan,nan,nan,nan,238.54587412939873,392.6575925272191,nan,392.8783080789726,nan,nan,nan,nan
1,107,1,1,1.0,1.0,0.2525736354291439,0,5,4,7,3,6,1,nan,nan,nan,nan,nan,nan,nan,nan,nan,nan,nan,nan,0.0,nan,nan,nan,nan,nan,nan,nan,nan,nan,nan,nan,nan,nan,nan,nan,nan,nan,nan,238.54587412939873,393.6577077060938,nan,393.91028134152293,nan,nan,nan,nan
1,108,1,1,1.0,1.0,0.44441463612020016,0,7,8,1,4,2,6,nan,nan,nan,nan,nan,nan,nan,nan,nan,nan,nan,nan,0.0,nan,nan,nan,nan,nan,nan,nan,nan,nan,nan,nan,nan,nan,nan,nan,nan,nan,nan,238.54587412939873,394.6578308676835,nan,395.1022455038037,nan,nan,nan,nan
1,109,1,1,1.0,1.0,0.5482521174708381,0,0,5,6,1,8,2,nan,nan,nan,nan,nan,nan,nan,nan,nan,nan,nan,nan,0.0,nan,nan,nan,nan,nan,nan,nan,nan,nan,nan,nan,nan,nan,nan,nan,nan,nan,nan,238.54587412939873,395.65796799899545,nan,396.2062201164663,nan,nan,nan,nan
1,110,1,1,1.0,1.0,0.44410616194363683,0,4,2,1,3,7,8,nan,nan,nan,nan,nan,nan,nan,nan,nan,nan,nan,nan,0.0,nan,nan,nan,nan,nan,nan,nan,nan,nan,nan,nan,nan,nan,nan,nan,nan,nan,nan,238.54587412939873,396.6580991433002,nan,397.10220530524384,nan,nan,nan,nan
1,111,1,1,1.0,1.0,0.3239663050044328,0,2,6,5,0,8,3,nan,nan,nan,nan,nan,nan,nan,nan,nan,nan,nan,nan,0.0,nan,nan,nan,nan,nan,nan,nan,nan,nan,nan,nan,nan,nan,nan,nan,nan,nan,nan,238.54587412939873,397.65822487080004,nan,397.9821911758045,nan,nan,nan,nan
1,112,1,1,1.0,1.0,0.3398205090779811,0,0,8,3,2,4,1,nan,nan,nan,nan,nan,nan,nan,nan,nan,nan,nan,nan,0.0,nan,nan,nan,nan,nan,nan,nan,nan,nan,nan,nan,nan,nan,nan,nan,nan,nan,nan,238.54587412939873,398.65835401939694,nan,398.9981745284749,nan,nan,nan,nan
1,113,1,1,1.0,1.0,0.2996504434850067,0,1,5,2,8,7,6,nan,nan,nan,nan,nan,nan,nan,nan,nan,nan,nan,nan,0.0,nan,nan,nan,nan,nan,nan,nan,nan,nan,nan,nan,nan,nan,nan,nan,nan,nan,nan,238.54587412939873,399.65848573390394,nan,399.95813617738895,nan,nan,nan,nan
1,114,1,1,1.0,1.0,0.3795175999403,0,4,7,3,5,0,2,nan,nan,nan,nan,nan,nan,nan,nan,nan,nan,nan,nan,0.0,nan,nan,nan,nan,nan,nan,nan,nan,nan,nan,nan,nan,nan,nan,nan,nan,nan,nan,238.54587412939873,400.65860091277864,nan,401.03811851271894,nan,nan,nan,nan
1,115,1,1,1.0,1.0,0.41134603356476873,1,1,6,7,3,4,8,1.0,1.0,1.0,1.0,1.0,1.0,0.0,0.0,0.0,0.0,0.0,1.0,1.0,3.0,0.0,1.0,5.0,6.0,8.0,6.0,5.0,4.0,3.0,2.0,1.0,9.003619012073614,7.83627547940705,6.301012063282542,4.612730061984621,3.461604801239446,1.6062834649346769,238.54587412939873,401.6587406100007,402.46714564738795,402.07008664356545,412.5351003409596,413.5379575758707,403.49227517377585,412.5267658364028
1,116,1,1,1.0,1.0,0.24622368591371924,0,4,7,3,2,0,5,nan,nan,nan,nan,nan,nan,nan,nan,nan,nan,nan,nan,0.0,nan,nan,nan,nan,nan,nan,nan,nan,nan,nan,nan,nan,nan,nan,nan,nan,nan,nan,238.54587412939873,413.74362004420254,nan,413.98984373011626,nan,nan,nan,nan
1,117,1,1,1.0,1.0,0.24603837332688272,0,0,3,8,7,5,2,nan,nan,nan,nan,nan,nan,nan,nan,nan,nan,nan,nan,0.0,nan,nan,nan,nan,nan,nan,nan,nan,nan,nan,nan,nan,nan,nan,nan,nan,nan,nan,238.54587412939873,414.7437483374961,nan,414.98978671082295,nan,nan,nan,nan
1,118,0,0,0.0,1.0,0.4298943975009024,0,3,0,5,2,6,7,nan,nan,nan,nan,nan,nan,nan,nan,nan,nan,nan,nan,0.0,nan,nan,nan,nan,nan,nan,nan,nan,nan,nan,nan,nan,nan,nan,nan,nan,nan,nan,238.54587412939873,415.743864086573,nan,416.1737584840739,nan,nan,nan,nan
1,119,1,1,1.0,1.0,0.437779875472188,0,8,7,4,5,3,1,nan,nan,nan,nan,nan,nan,nan,nan,nan,nan,nan,nan,0.0,nan,nan,nan,nan,nan,nan,nan,nan,nan,nan,nan,nan,nan,nan,nan,nan,nan,nan,238.54587412939873,416.7439578832127,nan,417.1817377586849,nan,nan,nan,nan
1,120,1,1,1.0,1.0,0.24559647415298969,0,2,8,7,6,1,0,nan,nan,nan,nan,nan,nan,nan,nan,nan,nan,nan,nan,0.0,nan,nan,nan,nan,nan,nan,nan,nan,nan,nan,nan,nan,nan,nan,nan,nan,nan,nan,238.54587412939873,417.7441312217852,nan,417.9897276959382,nan,nan,nan,nan
1,121,1,1,1.0,1.0,0.2934390507871285,0,8,2,0,1,4,5,nan,nan,nan,nan,nan,nan,nan,nan,nan,nan,nan,nan,0.0,nan,nan,nan,nan,nan,nan,nan,nan,nan,nan,nan,nan,nan,nan,nan,nan,nan,nan,238.54587412939873,418.74425466847606,nan,419.0376937192632,nan,nan,nan,nan
1,122,1,1,1.0,1.0,0.4292874274542555,0,2,6,4,3,5,8,nan,nan,nan,nan,nan,nan,nan,nan,nan,nan,nan,nan,0.0,nan,nan,nan,nan,nan,nan,nan,nan,nan,nan,nan,nan,nan,nan,nan,nan,nan,nan,238.54587412939873,419.744380681077,nan,420.1736681085313,nan,nan,nan,nan
1,123,1,1,1.0,1.0,0.34114392602350563,0,4,7,1,2,8,0,nan,nan,nan,nan,nan,nan,nan,nan,nan,nan,nan,nan,0.0,nan,nan,nan,nan,nan,nan,nan,nan,nan,nan,nan,nan,nan,nan,nan,nan,nan,nan,238.54587412939873,420.7445098296739,nan,421.0856537556974,nan,nan,nan,nan
1,124,1,1,1.0,1.0,0.34097543417010456,0,0,8,4,3,5,6,nan,nan,nan,nan,nan,nan,nan,nan,nan,nan,nan,nan,0.0,nan,nan,nan,nan,nan,nan,nan,nan,nan,nan,nan,nan,nan,nan,nan,nan,nan,nan,238.54587412939873,421.7446423993679,nan,422.085617833538,nan,nan,nan,nan
1,125,1,1,1.0,1.0,0.27682449494022876,0,3,4,7,8,2,5,nan,nan,nan,nan,nan,nan,nan,nan,nan,nan,nan,nan,0.0,nan,nan,nan,nan,nan,nan,nan,nan,nan,nan,nan,nan,nan,nan,nan,nan,nan,nan,238.54587412939873,422.7447695523733,nan,423.02159404731356,nan,nan,nan,nan
1,126,1,1,1.0,1.0,0.2766822319244966,0,2,1,8,6,3,0,nan,nan,nan,nan,nan,nan,nan,nan,nan,nan,nan,nan,0.0,nan,nan,nan,nan,nan,nan,nan,nan,nan,nan,nan,nan,nan,nan,nan,nan,nan,nan,238.54587412939873,423.7448944245698,nan,424.0215766564943,nan,nan,nan,nan
1,127,1,1,1.0,1.0,0.28453549405094236,0,4,5,7,2,1,6,nan,nan,nan,nan,nan,nan,nan,nan,nan,nan,nan,nan,0.0,nan,nan,nan,nan,nan,nan,nan,nan,nan,nan,nan,nan,nan,nan,nan,nan,nan,nan,238.54587412939873,424.74501958175097,nan,425.0295550758019,nan,nan,nan,nan
1,128,1,1,1.0,1.0,0.2523868973366916,0,3,2,6,7,4,5,nan,nan,nan,nan,nan,nan,nan,nan,nan,nan,nan,nan,0.0,nan,nan,nan,nan,nan,nan,nan,nan,nan,nan,nan,nan,nan,nan,nan,nan,nan,nan,238.54587412939873,425.745149015449,nan,425.9975359127857,nan,nan,nan,nan
1,129,0,0,1.0,0.0,0.23622535937465727,0,2,1,4,6,0,8,nan,nan,nan,nan,nan,nan,nan,nan,nan,nan,nan,nan,0.0,nan,nan,nan,nan,nan,nan,nan,nan,nan,nan,nan,nan,nan,nan,nan,nan,nan,nan,238.54587412939873,426.745271892054,nan,426.98149725142866,nan,nan,nan,nan
1,130,1,1,1.0,1.0,0.24374220799654722,0,1,4,3,8,7,6,nan,nan,nan,nan,nan,nan,nan,nan,nan,nan,nan,nan,0.0,nan,nan,nan,nan,nan,nan,nan,nan,nan,nan,nan,nan,nan,nan,nan,nan,nan,nan,238.54587412939873,427.7537403918104,nan,427.997482599807,nan,nan,nan,nan
1,131,1,1,1.0,1.0,0.22760661388747394,0,8,2,7,3,4,0,nan,nan,nan,nan,nan,nan,nan,nan,nan,nan,nan,nan,0.0,nan,nan,nan,nan,nan,nan,nan,nan,nan,nan,nan,nan,nan,nan,nan,nan,nan,nan,238.54587412939873,428.7538626982132,nan,428.98146931210067,nan,nan,nan,nan
1,132,1,1,1.0,1.0,0.20344185340218246,0,0,8,4,7,6,5,nan,nan,nan,nan,nan,nan,nan,nan,nan,nan,nan,nan,0.0,nan,nan,nan,nan,nan,nan,nan,nan,nan,nan,nan,nan,nan,nan,nan,nan,nan,nan,238.54587412939873,429.7539955530083,nan,429.95743740641046,nan,nan,nan,nan
1,133,0,0,1.0,0.0,0.10730938392225653,0,7,4,2,5,1,6,nan,nan,nan,nan,nan,nan,nan,nan,nan,nan,nan,nan,0.0,nan,nan,nan,nan,nan,nan,nan,nan,nan,nan,nan,nan,nan,nan,nan,nan,nan,nan,238.54587412939873,430.7541084511904,nan,430.86141783511266,nan,nan,nan,nan
1,134,1,1,1.0,1.0,0.40313982230145484,0,6,5,4,7,3,1,nan,nan,nan,nan,nan,nan,nan,nan,nan,nan,nan,nan,0.0,nan,nan,nan,nan,nan,nan,nan,nan,nan,nan,nan,nan,nan,nan,nan,nan,nan,nan,238.54587412939873,431.7542427314911,nan,432.15738255379256,nan,nan,nan,nan
1,135,1,1,1.0,1.0,0.3949894899269566,0,8,2,5,1,7,0,nan,nan,nan,nan,nan,nan,nan,nan,nan,nan,nan,nan,0.0,nan,nan,nan,nan,nan,nan,nan,nan,nan,nan,nan,nan,nan,nan,nan,nan,nan,nan,238.54587412939873,432.75437387579586,nan,433.1493633657228,nan,nan,nan,nan
1,136,1,1,1.0,1.0,0.3468270351877436,0,5,4,1,6,0,7,nan,nan,nan,nan,nan,nan,nan,nan,nan,nan,nan,nan,0.0,nan,nan,nan,nan,nan,nan,nan,nan,nan,nan,nan,nan,nan,nan,nan,nan,nan,nan,238.54587412939873,433.75450673070736,nan,434.1013337658951,nan,nan,nan,nan
1,137,1,1,1.0,1.0,0.33868040901143104,0,6,2,3,4,1,0,nan,nan,nan,nan,nan,nan,nan,nan,nan,nan,nan,nan,0.0,nan,nan,nan,nan,nan,nan,nan,nan,nan,nan,nan,nan,nan,nan,nan,nan,nan,nan,238.54587412939873,434.7546341686975,nan,435.09331457770895,nan,nan,nan,nan
1,138,1,1,1.0,1.0,0.3065215488895774,0,3,6,0,1,8,2,nan,nan,nan,nan,nan,nan,nan,nan,nan,nan,nan,nan,0.0,nan,nan,nan,nan,nan,nan,nan,nan,nan,nan,nan,nan,nan,nan,nan,nan,nan,nan,238.54587412939873,435.75477015960496,nan,436.06129170849454,nan,nan,nan,nan
1,139,0,0,1.0,0.0,0.28237218351569027,0,7,1,5,0,4,3,nan,nan,nan,nan,nan,nan,nan,nan,nan,nan,nan,nan,0.0,nan,nan,nan,nan,nan,nan,nan,nan,nan,nan,nan,nan,nan,nan,nan,nan,nan,nan,238.54587412939873,436.754899593303,nan,437.03727177681867,nan,nan,nan,nan
1,140,1,1,1.0,1.0,0.2422522947890684,0,4,2,6,7,3,8,nan,nan,nan,nan,nan,nan,nan,nan,nan,nan,nan,nan,0.0,nan,nan,nan,nan,nan,nan,nan,nan,nan,nan,nan,nan,nan,nan,nan,nan,nan,nan,238.54587412939873,437.7550153423799,nan,437.997267637169,nan,nan,nan,nan
1,141,1,1,1.0,1.0,0.2900914503261447,0,3,0,7,1,8,5,nan,nan,nan,nan,nan,nan,nan,nan,nan,nan,nan,nan,0.0,nan,nan,nan,nan,nan,nan,nan,nan,nan,nan,nan,nan,nan,nan,nan,nan,nan,nan,238.54587412939873,438.7551501929993,nan,439.0452416433254,nan,nan,nan,nan
1,142,1,1,1.0,1.0,0.2739396058022976,0,0,7,6,8,2,3,nan,nan,nan,nan,nan,nan,nan,nan,nan,nan,nan,nan,0.0,nan,nan,nan,nan,nan,nan,nan,nan,nan,nan,nan,nan,nan,nan,nan,nan,nan,nan,238.54587412939873,439.75527164398227,nan,440.02921124978457,nan,nan,nan,nan
1,143,1,1,1.0,1.0,0.353788516134955,0,8,4,2,1,6,7,nan,nan,nan,nan,nan,nan,nan,nan,nan,nan,nan,nan,0.0,nan,nan,nan,nan,nan,nan,nan,nan,nan,nan,nan,nan,nan,nan,nan,nan,nan,nan,238.54587412939873,440.75540164788254,nan,441.1091901640175,nan,nan,nan,nan
1,144,1,1,1.0,1.0,0.33762526768259704,0,7,1,0,6,2,4,nan,nan,nan,nan,nan,nan,nan,nan,nan,nan,nan,nan,0.0,nan,nan,nan,nan,nan,nan,nan,nan,nan,nan,nan,nan,nan,nan,nan,nan,nan,nan,238.54587412939873,441.7555327921873,nan,442.0931580598699,nan,nan,nan,nan
1,145,1,1,1.0,1.0,0.38548580545466393,0,3,0,5,1,6,8,nan,nan,nan,nan,nan,nan,nan,nan,nan,nan,nan,nan,0.0,nan,nan,nan,nan,nan,nan,nan,nan,nan,nan,nan,nan,nan,nan,nan,nan,nan,nan,238.54587412939873,442.7556553835748,nan,443.14114118902944,nan,nan,nan,nan
1,146,1,1,1.0,1.0,0.39331797044724226,0,8,7,6,2,0,4,nan,nan,nan,nan,nan,nan,nan,nan,nan,nan,nan,nan,0.0,nan,nan,nan,nan,nan,nan,nan,nan,nan,nan,nan,nan,nan,nan,nan,nan,nan,nan,238.54587412939873,443.755788523471,nan,444.1491064939182,nan,nan,nan,nan
1,147,1,1,1.0,1.0,0.4492056790040806,0,4,2,8,3,1,6,nan,nan,nan,nan,nan,nan,nan,nan,nan,nan,nan,nan,0.0,nan,nan,nan,nan,nan,nan,nan,nan,nan,nan,nan,nan,nan,nan,nan,nan,nan,nan,238.54587412939873,444.75590826396365,nan,445.2051139429677,nan,nan,nan,nan
1,148,1,1,1.0,1.0,0.34502636711113155,0,0,7,3,6,2,1,nan,nan,nan,nan,nan,nan,nan,nan,nan,nan,nan,nan,0.0,nan,nan,nan,nan,nan,nan,nan,nan,nan,nan,nan,nan,nan,nan,nan,nan,nan,nan,238.54587412939873,445.7560402635718,nan,446.1010666306829,nan,nan,nan,nan
1,149,1,1,1.0,1.0,0.5368690782925114,0,6,8,0,2,3,5,nan,nan,nan,nan,nan,nan,nan,nan,nan,nan,nan,nan,0.0,nan,nan,nan,nan,nan,nan,nan,nan,nan,nan,nan,nan,nan,nan,nan,nan,nan,nan,238.54587412939873,446.756164565566,nan,447.2930336438585,nan,nan,nan,nan
1,150,1,1,1.0,1.0,0.344395449035801,0,1,0,5,7,8,4,nan,nan,nan,nan,nan,nan,nan,nan,nan,nan,nan,nan,0.0,nan,nan,nan,nan,nan,nan,nan,nan,nan,nan,nan,nan,nan,nan,nan,nan,nan,nan,238.54587412939873,447.76463620143477,nan,448.10903165047057,nan,nan,nan,nan
1,151,1,1,1.0,1.0,0.30423821276053786,0,7,2,3,4,0,8,nan,nan,nan,nan,nan,nan,nan,nan,nan,nan,nan,nan,0.0,nan,nan,nan,nan,nan,nan,nan,nan,nan,nan,nan,nan,nan,nan,nan,nan,nan,nan,238.54587412939873,448.76475622691214,nan,449.0689944396727,nan,nan,nan,nan
1,152,1,1,1.0,1.0,0.28808266192208976,0,6,7,1,2,5,4,nan,nan,nan,nan,nan,nan,nan,nan,nan,nan,nan,nan,0.0,nan,nan,nan,nan,nan,nan,nan,nan,nan,nan,nan,nan,nan,nan,nan,nan,nan,nan,238.54587412939873,449.76488908182364,nan,450.05297174374573,nan,nan,nan,nan
1,153,1,1,1.0,1.0,0.3439367291284725,1,7,4,5,1,8,3,1.0,1.0,1.0,1.0,1.0,1.0,1.0,0.0,0.0,0.0,0.0,0.0,1.0,7.0,3.0,4.0,4.0,4.0,4.0,1.0,2.0,3.0,4.0,5.0,6.0,1.9944907994940877,3.7373670275555924,5.98458085290622,7.081727979937568,7.937155372113921,10.86423487146385,238.54587412939873,450.76501338381786,451.5734303952195,451.10895011294633,463.4999499655096,464.50203601503745,452.5985599216074,463.49161916715093
1,154,1,1,1.0,1.0,0.6241820943541825,0,8,3,6,5,7,1,nan,nan,nan,nan,nan,nan,nan,nan,nan,nan,nan,nan,0.0,nan,nan,nan,nan,nan,nan,nan,nan,nan,nan,nan,nan,nan,nan,nan,nan,nan,nan,238.54587412939873,464.7084608307341,nan,465.3326429250883,nan,nan,nan,nan
1,155,1,1,1.0,1.0,0.39200538711156696,0,1,8,5,0,2,6,nan,nan,nan,nan,nan,nan,nan,nan,nan,nan,nan,nan,0.0,nan,nan,nan,nan,nan,nan,nan,nan,nan,nan,nan,nan,nan,nan,nan,nan,nan,nan,238.54587412939873,465.7085914048366,nan,466.1005967919482,nan,nan,nan,nan
1,156,1,1,1.0,1.0,0.34387429303023964,0,3,4,6,2,8,0,nan,nan,nan,nan,nan,nan,nan,nan,nan,nan,nan,nan,0.0,nan,nan,nan,nan,nan,nan,nan,nan,nan,nan,nan,nan,nan,nan,nan,nan,nan,nan,238.54587412939873,466.70871428132523,nan,467.05258857435547,nan,nan,nan,nan
1,157,1,1,1.0,1.0,0.2796694707358256,0,1,0,8,4,5,7,nan,nan,nan,nan,nan,nan,nan,nan,nan,nan,nan,nan,0.0,nan,nan,nan,nan,nan,nan,nan,nan,nan,nan,nan,nan,nan,nan,nan,nan,nan,nan,238.54587412939873,467.7088861943921,nan,467.98855566512793,nan,nan,nan,nan
1,158,1,1,1.0,1.0,0.2155755510320887,0,8,1,2,5,7,6,nan,nan,nan,nan,nan,nan,nan,nan,nan,nan,nan,nan,0.0,nan,nan,nan,nan,nan,nan,nan,nan,nan,nan,nan,nan,nan,nan,nan,nan,nan,nan,238.54587412939873,468.7089708679123,nan,468.9245464189444,nan,nan,nan,nan
1,159,1,1,1.0,1.0,0.2393967704847455,0,4,2,1,3,8,5,nan,nan,nan,nan,nan,nan,nan,nan,nan,nan,nan,nan,0.0,nan,nan,nan,nan,nan,nan,nan,nan,nan,nan,nan,nan,nan,nan,nan,nan,nan,nan,238.54587412939873,469.70912339445204,nan,469.9485201649368,nan,nan,nan,nan
1,160,1,1,1.0,1.0,0.2712651175679639,0,1,7,0,2,3,8,nan,nan,nan,nan,nan,nan,nan,nan,nan,nan,nan,nan,0.0,nan,nan,nan,nan,nan,nan,nan,nan,nan,nan,nan,nan,nan,nan,nan,nan,nan,nan,238.54587412939873,470.7092251738068,nan,470.98049029137474,nan,nan,nan,nan
1,161,0,0,0.0,1.0,0.30309953819960356,0,8,0,7,6,1,2,nan,nan,nan,nan,nan,nan,nan,nan,nan,nan,nan,nan,0.0,nan,nan,nan,nan,nan,nan,nan,nan,nan,nan,nan,nan,nan,nan,nan,nan,nan,nan,238.54587412939873,471.70935631811153,nan,472.01245585631113,nan,nan,nan,nan
1,162,1,1,1.0,1.0,0.2149728573858738,0,6,5,2,8,7,3,nan,nan,nan,nan,nan,nan,nan,nan,nan,nan,nan,nan,0.0,nan,nan,nan,nan,nan,nan,nan,nan,nan,nan,nan,nan,nan,nan,nan,nan,nan,nan,238.54587412939873,472.70948176051024,nan,472.9244546178961,nan,nan,nan,nan
1,163,1,1,1.0,1.0,0.18281314196065068,0,2,0,6,3,4,5,nan,nan,nan,nan,nan,nan,nan,nan,nan,nan,nan,nan,0.0,nan,nan,nan,nan,nan,nan,nan,nan,nan,nan,nan,nan,nan,nan,nan,nan,nan,nan,238.54587412939873,473.7096154706087,nan,473.89242861256935,nan,nan,nan,nan
1,164,1,1,1.0,1.0,0.2066434845328331,1,4,5,0,7,6,1,1.0,1.0,1.0,1.0,1.0,1.0,0.0,1.0,1.0,1.0,0.0,0.0,3.0,7.0,5.0,0.0,7.0,7.0,7.0,6.0,2.0,1.0,3.0,4.0,5.0,6.391366201336496,3.0013926953542978,2.1437543815700337,3.8791553851915523,4.880263839499094,5.503281030571088,238.54587412939873,474.7097480404191,475.51815934991464,474.9163915249519,482.97746142861433,483.98600462370086,476.5432948633097,482.9691106735263
1,165,0,0,0.0,1.0,0.7462104290025309,0,6,0,5,8,1,7,nan,nan,nan,nan,nan,nan,nan,nan,nan,nan,nan,nan,0.0,nan,nan,nan,nan,nan,nan,nan,nan,nan,nan,nan,nan,nan,nan,nan,nan,nan,nan,238.54587412939873,484.1859845528379,nan,484.93219498184044,nan,nan,nan,nan
1,166,1,1,1.0,1.0,0.4181276187300682,0,0,1,7,2,6,5,nan,nan,nan,nan,nan,nan,nan,nan,nan,nan,nan,nan,0.0,nan,nan,nan,nan,nan,nan,nan,nan,nan,nan,nan,nan,nan,nan,nan,nan,nan,nan,238.54587412939873,485.18604955484625,nan,485.6041771735763,nan,nan,nan,nan
1,167,1,1,1.0,1.0,0.4339057020843029,0,7,2,0,6,4,1,nan,nan,nan,nan,nan,nan,nan,nan,nan,nan,nan,nan,0.0,nan,nan,nan,nan,nan,nan,nan,nan,nan,nan,nan,nan,nan,nan,nan,nan,nan,nan,238.54587412939873,486.1862157660071,nan,486.6201214680914,nan,nan,nan,nan
1,168,1,1,1.0,1.0,0.3138086097314954,0,6,0,3,7,2,8,nan,nan,nan,nan,nan,nan,nan,nan,nan,nan,nan,nan,0.0,nan,nan,nan,nan,nan,nan,nan,nan,nan,nan,nan,nan,nan,nan,nan,nan,nan,nan,238.54587412939873,487.1863164049573,nan,487.5001250146888,nan,nan,nan,nan
1,169,1,1,1.0,1.0,0.289634155924432,0,3,6,7,1,8,4,nan,nan,nan,nan,nan,nan,nan,nan,nan,nan,nan,nan,0.0,nan,nan,nan,nan,nan,nan,nan,nan,nan,nan,nan,nan,nan,nan,nan,nan,nan,nan,238.54587412939873,488.1864580977708,nan,488.47609225369524,nan,nan,nan,nan
1,170,1,1,1.0,1.0,0.24147711810655892,0,6,1,0,5,3,7,nan,nan,nan,nan,nan,nan,nan,nan,nan,nan,nan,nan,0.0,nan,nan,nan,nan,nan,nan,nan,nan,nan,nan,nan,nan,nan,nan,nan,nan,nan,nan,238.54587412939873,489.186593518476,nan,489.42807063658256,nan,nan,nan,nan
1,171,1,1,1.0,1.0,0.23331082030199468,0,8,3,7,6,5,2,nan,nan,nan,nan,nan,nan,nan,nan,nan,nan,nan,nan,0.0,nan,nan,nan,nan,nan,nan,nan,nan,nan,nan,nan,nan,nan,nan,nan,nan,nan,nan,238.54587412939873,490.1867178204702,nan,490.4200286407722,nan,nan,nan,nan
1,172,1,1,1.0,1.0,0.201161083066836,0,3,4,8,5,1,7,nan,nan,nan,nan,nan,nan,nan,nan,nan,nan,nan,nan,0.0,nan,nan,nan,nan,nan,nan,nan,nan,nan,nan,nan,nan,nan,nan,nan,nan,nan,nan,238.54587412939873,491.1868449734757,nan,491.3880060565425,nan,nan,nan,nan
1,173,1,1,1.0,1.0,0.18501265964005142,0,6,2,0,1,7,3,nan,nan,nan,nan,nan,nan,nan,nan,nan,nan,nan,nan,0.0,nan,nan,nan,nan,nan,nan,nan,nan,nan,nan,nan,nan,nan,nan,nan,nan,nan,nan,238.54587412939873,492.1869735518703,nan,492.3719862115104,nan,nan,nan,nan
1,174,1,1,1.0,1.0,0.19285993475932628,0,7,0,5,6,2,1,nan,nan,nan,nan,nan,nan,nan,nan,nan,nan,nan,nan,0.0,nan,nan,nan,nan,nan,nan,nan,nan,nan,nan,nan,nan,nan,nan,nan,nan,nan,nan,238.54587412939873,493.1871012749616,nan,493.37996120972093,nan,nan,nan,nan
1,175,1,1,1.0,1.0,0.1287175485631451,0,3,7,0,1,4,6,nan,nan,nan,nan,nan,nan,nan,nan,nan,nan,nan,nan,0.0,nan,nan,nan,nan,nan,nan,nan,nan,nan,nan,nan,nan,nan,nan,nan,nan,nan,nan,238.54587412939873,494.1872366956668,nan,494.31595424422994,nan,nan,nan,nan
1,176,1,1,1.0,1.0,0.2405690863961354,0,6,4,1,5,7,3,nan,nan,nan,nan,nan,nan,nan,nan,nan,nan,nan,nan,0.0,nan,nan,nan,nan,nan,nan,nan,nan,nan,nan,nan,nan,nan,nan,nan,nan,nan,nan,238.54587412939873,495.18735643615946,nan,495.4279255225556,nan,nan,nan,nan
1,177,1,1,1.0,1.0,0.2164262782316655,0,7,8,2,0,5,1,nan,nan,nan,nan,nan,nan,nan,nan,nan,nan,nan,nan,0.0,nan,nan,nan,nan,nan,nan,nan,nan,nan,nan,nan,nan,nan,nan,nan,nan,nan,nan,238.54587412939873,496.1874821636593,nan,496.40390844189096,nan,nan,nan,nan
1,178,1,1,1.0,1.0,0.16825498547405005,0,3,1,0,2,4,6,nan,nan,nan,nan,nan,nan,nan,nan,nan,nan,nan,nan,0.0,nan,nan,nan,nan,nan,nan,nan,nan,nan,nan,nan,nan,nan,nan,nan,nan,nan,nan,238.54587412939873,497.1876198651735,nan,497.3558748506475,nan,nan,nan,nan
1,179,1,1,1.0,1.0,0.1281259737443179,0,4,5,2,1,0,3,nan,nan,nan,nan,nan,nan,nan,nan,nan,nan,nan,nan,0.0,nan,nan,nan,nan,nan,nan,nan,nan,nan,nan,nan,nan,nan,nan,nan,nan,nan,nan,238.54587412939873,498.1877427416621,nan,498.3158687154064,nan,nan,nan,nan
1,180,1,1,1.0,1.0,0.08796018455177546,0,1,7,0,5,4,6,nan,nan,nan,nan,nan,nan,nan,nan,nan,nan,nan,nan,0.0,nan,nan,nan,nan,nan,nan,nan,nan,nan,nan,nan,nan,nan,nan,nan,nan,nan,nan,238.54587412939873,499.18786960945,nan,499.27582979400177,nan,nan,nan,nan
1,181,1,1,1.0,1.0,0.07184255158063024,0,2,4,7,6,1,3,nan,nan,nan,nan,nan,nan,nan,nan,nan,nan,nan,nan,0.0,nan,nan,nan,nan,nan,nan,nan,nan,nan,nan,nan,nan,nan,nan,nan,nan,nan,nan,238.54587412939873,500.18798193742987,nan,500.2598244890105,nan,nan,nan,nan
1,182,1,1,1.0,1.0,0.24765087792184204,0,3,8,5,4,2,7,nan,nan,nan,nan,nan,nan,nan,nan,nan,nan,nan,nan,0.0,nan,nan,nan,nan,nan,nan,nan,nan,nan,nan,nan,nan,nan,nan,nan,nan,nan,nan,238.54587412939873,501.188133038464,nan,501.43578391638584,nan,nan,nan,nan
1,183,1,1,1.0,1.0,0.15952619281597435,0,7,3,2,8,0,6,nan,nan,nan,nan,nan,nan,nan,nan,nan,nan,nan,nan,0.0,nan,nan,nan,nan,nan,nan,nan,nan,nan,nan,nan,nan,nan,nan,nan,nan,nan,nan,238.54587412939873,502.18823766871355,nan,502.34776386152953,nan,nan,nan,nan
1,184,0,0,1.0,0.0,0.16734381776768714,0,4,8,7,3,1,2,nan,nan,nan,nan,nan,nan,nan,nan,nan,nan,nan,nan,0.0,nan,nan,nan,nan,nan,nan,nan,nan,nan,nan,nan,nan,nan,nan,nan,nan,nan,nan,238.54587412939873,503.18839304626454,nan,503.3557368640322,nan,nan,nan,nan
1,185,1,1,1.0,1.0,0.23121222644113004,0,5,3,6,2,0,4,nan,nan,nan,nan,nan,nan,nan,nan,nan,nan,nan,nan,0.0,nan,nan,nan,nan,nan,nan,nan,nan,nan,nan,nan,nan,nan,nan,nan,nan,nan,nan,238.54587412939873,504.18850993574597,nan,504.4197221621871,nan,nan,nan,nan
1,186,0,0,1.0,0.0,0.223021695506759,0,8,1,2,4,6,7,nan,nan,nan,nan,nan,nan,nan,nan,nan,nan,nan,nan,0.0,nan,nan,nan,nan,nan,nan,nan,nan,nan,nan,nan,nan,nan,nan,nan,nan,nan,nan,238.54587412939873,505.1886787127005,nan,505.41170040820725,nan,nan,nan,nan
1,187,1,1,1.0,1.0,0.3668898305622861,0,1,6,7,3,5,8,nan,nan,nan,nan,nan,nan,nan,nan,nan,nan,nan,nan,0.0,nan,nan,nan,nan,nan,nan,nan,nan,nan,nan,nan,nan,nan,nan,nan,nan,nan,nan,238.54587412939873,506.18876794783864,nan,506.5556577784009,nan,nan,nan,nan
1,188,1,1,1.0,1.0,0.3187541748629883,0,2,8,6,1,4,3,nan,nan,nan,nan,nan,nan,nan,nan,nan,nan,nan,nan,0.0,nan,nan,nan,nan,nan,nan,nan,nan,nan,nan,nan,nan,nan,nan,nan,nan,nan,nan,238.54587412939873,507.18889339023735,nan,507.50764756510034,nan,nan,nan,nan
1,189,1,1,1.0,1.0,0.27859209186863154,1,1,0,4,2,7,8,1.0,1.0,1.0,1.0,1.0,1.0,0.0,0.0,0.0,0.0,0.0,0.0,0.0,0.0,4.0,8.0,6.0,6.0,3.0,6.0,1.0,2.0,3.0,4.0,5.0,6.279031995451078,1.466010679025203,2.2013865942135453,3.0959212130401284,4.144018095568754,5.415133822709322,238.54587412939873,508.18902253883425,508.9974438267527,508.4676146307029,516.340025208192,517.338051486644,510.02257363824174,516.3317143665627
1,190,1,1,1.0,1.0,0.3512029779376462,1,8,7,2,0,3,1,1.0,1.0,1.0,1.0,1.0,1.0,1.0,1.0,0.0,1.0,1.0,0.0,4.0,8.0,7.0,5.0,0.0,3.0,3.0,1.0,2.0,4.0,3.0,5.0,6.0,1.1839940106729046,2.642297111917287,5.008363869506866,3.704515098244883,6.872329324949533,8.376344763441011,238.54587412939873,517.5402038495522,518.3486376816873,517.8914068274898,527.7831631830195,528.7881891453872,519.365435269312,527.7748409375781
1,191,1,1,1.0,1.0,0.4754550635116175,0,0,8,3,5,6,4,nan,nan,nan,nan,nan,nan,nan,nan,nan,nan,nan,nan,0.0,nan,nan,nan,nan,nan,nan,nan,nan,nan,nan,nan,nan,nan,nan,nan,nan,nan,nan,238.54587412939873,528.9916817458579,nan,529.4671368093695,nan,nan,nan,nan
1,192,1,1,1.0,1.0,0.57930337858852,0,4,3,1,8,0,7,nan,nan,nan,nan,nan,nan,nan,nan,nan,nan,nan,nan,0.0,nan,nan,nan,nan,nan,nan,nan,nan,nan,nan,nan,nan,nan,nan,nan,nan,nan,nan,238.54587412939873,529.9918069031555,nan,530.571110281744,nan,nan,nan,nan
1,193,1,1,1.0,1.0,0.38714164472185075,0,6,1,7,5,2,3,nan,nan,nan,nan,nan,nan,nan,nan,nan,nan,nan,nan,0.0,nan,nan,nan,nan,nan,nan,nan,nan,nan,nan,nan,nan,nan,nan,nan,nan,nan,nan,238.54587412939873,530.9919403281529,nan,531.3790819728747,nan,nan,nan,nan
1,194,1,1,1.0,1.0,0.299002704792656,0,7,6,0,3,5,1,nan,nan,nan,nan,nan,nan,nan,nan,nan,nan,nan,nan,0.0,nan,nan,nan,nan,nan,nan,nan,nan,nan,nan,nan,nan,nan,nan,nan,nan,nan,nan,238.54587412939873,531.992062064237,nan,532.2910647690296,nan,nan,nan,nan
1,195,0,0,1.0,0.0,0.1868503902805969,0,3,4,5,1,7,8,nan,nan,nan,nan,nan,nan,nan,nan,nan,nan,nan,nan,0.0,nan,nan,nan,nan,nan,nan,nan,nan,nan,nan,nan,nan,nan,nan,nan,nan,nan,nan,238.54587412939873,532.9921957744518,nan,533.1790461647324,nan,nan,nan,nan
1,196,1,1,1.0,1.0,0.18674946622923017,0,1,8,3,6,2,4,nan,nan,nan,nan,nan,nan,nan,nan,nan,nan,nan,nan,0.0,nan,nan,nan,nan,nan,nan,nan,nan,nan,nan,nan,nan,nan,nan,nan,nan,nan,nan,238.54587412939873,533.9922852946911,nan,534.1790347609203,nan,nan,nan,nan
1,197,1,1,1.0,1.0,0.3225519424304366,0,4,0,2,3,7,5,nan,nan,nan,nan,nan,nan,nan,nan,nan,nan,nan,nan,0.0,nan,nan,nan,nan,nan,nan,nan,nan,nan,nan,nan,nan,nan,nan,nan,nan,nan,nan,238.54587412939873,534.9924455187283,nan,535.3149974611588,nan,nan,nan,nan
1,198,1,1,1.0,1.0,0.338408712297678,0,6,5,1,2,8,0,nan,nan,nan,nan,nan,nan,nan,nan,nan,nan,nan,nan,0.0,nan,nan,nan,nan,nan,nan,nan,nan,nan,nan,nan,nan,nan,nan,nan,nan,nan,nan,238.54587412939873,535.9925789438421,nan,536.3309876561398,nan,nan,nan,nan
1,199,1,1,1.0,1.0,0.33027234964538366,0,7,3,6,8,4,5,nan,nan,nan,nan,nan,nan,nan,nan,nan,nan,nan,nan,0.0,nan,nan,nan,nan,nan,nan,nan,nan,nan,nan,nan,nan,nan,nan,nan,nan,nan,nan,238.54587412939873,536.9926949780202,nan,537.3229673276655,nan,nan,nan,nan
1,200,1,1,1.0,1.0,0.4020875319838524,0,5,7,8,6,1,2,nan,nan,nan,nan,nan,nan,nan,nan,nan,nan,nan,nan,0.0,nan,nan,nan,nan,nan,nan,nan,nan,nan,nan,nan,nan,nan,nan,nan,nan,nan,nan,238.54587412939873,537.9928358155303,nan,538.3949233475141,nan,nan,nan,nan
1,201,1,1,1.0,1.0,0.3059467946877703,0,8,0,3,4,2,1,nan,nan,nan,nan,nan,nan,nan,nan,nan,nan,nan,nan,0.0,nan,nan,nan,nan,nan,nan,nan,nan,nan,nan,nan,nan,nan,nan,nan,nan,nan,nan,238.54587412939873,538.9929649642436,nan,539.2989117589314,nan,nan,nan,nan
1,202,1,1,1.0,1.0,0.3217981478665024,0,7,5,8,2,1,4,nan,nan,nan,nan,nan,nan,nan,nan,nan,nan,nan,nan,0.0,nan,nan,nan,nan,nan,nan,nan,nan,nan,nan,nan,nan,nan,nan,nan,nan,nan,nan,238.54587412939873,539.9930924022337,nan,540.3148905501002,nan,nan,nan,nan
1,203,1,1,1.0,1.0,0.305642026825808,0,0,2,4,3,6,5,nan,nan,nan,nan,nan,nan,nan,nan,nan,nan,nan,nan,0.0,nan,nan,nan,nan,nan,nan,nan,nan,nan,nan,nan,nan,nan,nan,nan,nan,nan,nan,238.54587412939873,540.9932275378378,nan,541.2988695646636,nan,nan,nan,nan
1,204,1,1,1.0,1.0,0.3134912975365296,0,2,7,0,5,4,8,nan,nan,nan,nan,nan,nan,nan,nan,nan,nan,nan,nan,0.0,nan,nan,nan,nan,nan,nan,nan,nan,nan,nan,nan,nan,nan,nan,nan,nan,nan,nan,238.54587412939873,541.9933535504388,nan,542.3068448479753,nan,nan,nan,nan
1,205,1,1,1.0,1.0,0.3213548230705783,0,5,8,6,3,0,2,nan,nan,nan,nan,nan,nan,nan,nan,nan,nan,nan,nan,0.0,nan,nan,nan,nan,nan,nan,nan,nan,nan,nan,nan,nan,nan,nan,nan,nan,nan,nan,238.54587412939873,542.9934553297935,nan,543.3148101528641,nan,nan,nan,nan
1,206,1,1,1.0,1.0,0.4091830081306398,0,4,7,0,6,1,5,nan,nan,nan,nan,nan,nan,nan,nan,nan,nan,nan,nan,0.0,nan,nan,nan,nan,nan,nan,nan,nan,nan,nan,nan,nan,nan,nan,nan,nan,nan,nan,238.54587412939873,543.9936138433404,nan,544.4027968514711,nan,nan,nan,nan
1,207,1,1,1.0,1.0,0.32102639216464013,0,8,0,5,2,3,4,nan,nan,nan,nan,nan,nan,nan,nan,nan,nan,nan,nan,0.0,nan,nan,nan,nan,nan,nan,nan,nan,nan,nan,nan,nan,nan,nan,nan,nan,nan,nan,238.54587412939873,544.9937441323418,nan,545.3147705245065,nan,nan,nan,nan
1,208,1,1,1.0,1.0,0.36889491265174,0,3,6,2,5,7,0,nan,nan,nan,nan,nan,nan,nan,nan,nan,nan,nan,nan,0.0,nan,nan,nan,nan,nan,nan,nan,nan,nan,nan,nan,nan,nan,nan,nan,nan,nan,nan,238.54587412939873,545.9938567453064,nan,546.3627516579581,nan,nan,nan,nan
1,209,1,1,1.0,1.0,0.3767450386658311,0,5,2,8,7,4,6,nan,nan,nan,nan,nan,nan,nan,nan,nan,nan,nan,nan,0.0,nan,nan,nan,nan,nan,nan,nan,nan,nan,nan,nan,nan,nan,nan,nan,nan,nan,nan,238.54587412939873,546.9939779113047,nan,547.3707229499705,nan,nan,nan,nan
1,210,1,1,1.0,1.0,0.36059661535546184,0,8,7,1,0,5,4,nan,nan,nan,nan,nan,nan,nan,nan,nan,nan,nan,nan,0.0,nan,nan,nan,nan,nan,nan,nan,nan,nan,nan,nan,nan,nan,nan,nan,nan,nan,nan,238.54587412939873,547.994111336302,nan,548.3547079516575,nan,nan,nan,nan
1,211,1,1,1.0,1.0,0.3844474848592654,1,2,1,8,3,6,7,1.0,1.0,1.0,1.0,1.0,1.0,0.0,0.0,1.0,1.0,0.0,1.0,3.0,3.0,5.0,8.0,3.0,3.0,7.0,6.0,3.0,2.0,4.0,5.0,1.0,8.36161041771993,4.906806017970666,3.339653442730196,6.473363597295247,7.146201077848673,1.5385839325608686,238.54587412939873,548.9942344978917,549.8026597772259,549.378681982751,559.2121840455802,560.2214910135372,550.8111285620835,559.2038640808314
1,212,1,1,1.0,1.0,0.32541259843856096,1,3,5,0,4,8,2,1.0,1.0,1.0,1.0,1.0,1.0,1.0,0.0,0.0,1.0,0.0,0.0,2.0,3.0,8.0,7.0,4.0,7.0,7.0,1.0,3.0,4.0,2.0,5.0,6.0,1.585259610088542,3.8792839635862038,7.086875678272918,2.6797735878499225,8.071296307025477,8.934778809431009,238.54587412939873,560.4290157307405,561.2374535541749,560.7544283291791,571.2220649124356,572.2332244360587,562.2459183478495,571.2137301226612
1,213,0,0,1.0,0.0,0.27521740726660937,0,2,7,4,1,6,3,nan,nan,nan,nan,nan,nan,nan,nan,nan,nan,nan,nan,0.0,nan,nan,nan,nan,nan,nan,nan,nan,nan,nan,nan,nan,nan,nan,nan,nan,nan,nan,238.54587412939873,572.438943068264,nan,572.7141604755307,nan,nan,nan,nan
1,214,1,1,1.0,1.0,0.7390713330823928,0,8,5,6,7,2,4,nan,nan,nan,nan,nan,nan,nan,nan,nan,nan,nan,nan,0.0,nan,nan,nan,nan,nan,nan,nan,nan,nan,nan,nan,nan,nan,nan,nan,nan,nan,nan,238.54587412939873,573.4390391457127,nan,574.1781104787951,nan,nan,nan,nan
1,215,1,1,1.0,1.0,0.5309156979201362,0,1,4,0,2,5,8,nan,nan,nan,nan,nan,nan,nan,nan,nan,nan,nan,nan,0.0,nan,nan,nan,nan,nan,nan,nan,nan,nan,nan,nan,nan,nan,nan,nan,nan,nan,nan,238.54587412939873,574.439158886089,nan,574.9700745840091,nan,nan,nan,nan
1,216,1,1,1.0,1.0,0.29081188852433115,0,5,0,2,4,6,7,nan,nan,nan,nan,nan,nan,nan,nan,nan,nan,nan,nan,0.0,nan,nan,nan,nan,nan,nan,nan,nan,nan,nan,nan,nan,nan,nan,nan,nan,nan,nan,238.54587412939873,575.4392589549534,nan,575.7300708434777,nan,nan,nan,nan
1,217,1,1,1.0,1.0,0.2583237423095852,1,2,6,3,8,5,4,1.0,1.0,1.0,1.0,1.0,1.0,1.0,1.0,1.0,0.0,0.0,0.0,3.0,2.0,6.0,3.0,3.0,0.0,0.0,1.0,2.0,3.0,4.0,5.0,6.0,1.4284301429288462,2.3341143070720136,3.2846637873444706,4.259556498494931,6.371295708348043,7.475685706478544,238.54587412939873,576.4477131998865,577.2561724056723,576.7060369421961,585.7822588576237,586.7876996350242,578.2646329228301,585.7739232126623
1,218,1,1,1.0,1.0,0.5390383759513497,0,6,8,7,5,0,1,nan,nan,nan,nan,nan,nan,nan,nan,nan,nan,nan,nan,0.0,nan,nan,nan,nan,nan,nan,nan,nan,nan,nan,nan,nan,nan,nan,nan,nan,nan,nan,238.54587412939873,586.9907663016347,nan,587.5298046775861,nan,nan,nan,nan
1,219,1,1,1.0,1.0,0.45888213184662163,0,7,2,4,1,5,0,nan,nan,nan,nan,nan,nan,nan,nan,nan,nan,nan,nan,0.0,nan,nan,nan,nan,nan,nan,nan,nan,nan,nan,nan,nan,nan,nan,nan,nan,nan,nan,238.54587412939873,587.9908977310406,nan,588.4497798628872,nan,nan,nan,nan
1,220,1,1,1.0,1.0,0.25873513624537736,0,2,8,3,0,6,7,nan,nan,nan,nan,nan,nan,nan,nan,nan,nan,nan,nan,0.0,nan,nan,nan,nan,nan,nan,nan,nan,nan,nan,nan,nan,nan,nan,nan,nan,nan,nan,238.54587412939873,588.9910265945364,nan,589.2497617307818,nan,nan,nan,nan
1,221,0,0,1.0,0.0,0.21856164932250977,0,0,4,6,7,3,8,nan,nan,nan,nan,nan,nan,nan,nan,nan,nan,nan,nan,0.0,nan,nan,nan,nan,nan,nan,nan,nan,nan,nan,nan,nan,nan,nan,nan,nan,nan,nan,238.54587412939873,589.9911742744735,nan,590.209735923796,nan,nan,nan,nan
1,222,1,1,1.0,1.0,0.31441101827658713,0,6,3,7,1,5,0,nan,nan,nan,nan,nan,nan,nan,nan,nan,nan,nan,nan,0.0,nan,nan,nan,nan,nan,nan,nan,nan,nan,nan,nan,nan,nan,nan,nan,nan,nan,nan,238.54587412939873,590.991286887438,nan,591.3056979057146,nan,nan,nan,nan
1,223,1,1,1.0,1.0,0.29826487554237247,0,8,7,0,5,3,4,nan,nan,nan,nan,nan,nan,nan,nan,nan,nan,nan,nan,0.0,nan,nan,nan,nan,nan,nan,nan,nan,nan,nan,nan,nan,nan,nan,nan,nan,nan,nan,238.54587412939873,591.9914191721473,nan,592.2896840476897,nan,nan,nan,nan
1,224,1,1,1.0,1.0,0.3621116168797016,0,3,1,6,2,8,7,nan,nan,nan,nan,nan,nan,nan,nan,nan,nan,nan,nan,0.0,nan,nan,nan,nan,nan,nan,nan,nan,nan,nan,nan,nan,nan,nan,nan,nan,nan,nan,238.54587412939873,592.9915463251527,nan,593.3536579420324,nan,nan,nan,nan
1,225,1,1,1.0,1.0,0.32996073947288096,0,8,5,4,1,7,0,nan,nan,nan,nan,nan,nan,nan,nan,nan,nan,nan,nan,0.0,nan,nan,nan,nan,nan,nan,nan,nan,nan,nan,nan,nan,nan,nan,nan,nan,nan,nan,238.54587412939873,593.9916706270305,nan,594.3216313665034,nan,nan,nan,nan
1,226,1,1,1.0,1.0,0.3058242033002898,0,7,8,0,6,2,3,nan,nan,nan,nan,nan,nan,nan,nan,nan,nan,nan,nan,0.0,nan,nan,nan,nan,nan,nan,nan,nan,nan,nan,nan,nan,nan,nan,nan,nan,nan,nan,238.54587412939873,594.9917917930288,nan,595.2976159963291,nan,nan,nan,nan
1,227,1,1,1.0,1.0,0.34569235204253346,0,2,1,4,0,3,5,nan,nan,nan,nan,nan,nan,nan,nan,nan,nan,nan,nan,0.0,nan,nan,nan,nan,nan,nan,nan,nan,nan,nan,nan,nan,nan,nan,nan,nan,nan,nan,238.54587412939873,595.991889866069,nan,596.3375822181115,nan,nan,nan,nan
1,228,1,1,1.0,1.0,0.6495148944668472,1,1,3,5,4,8,7,1.0,1.0,1.0,1.0,1.0,1.0,1.0,0.0,0.0,0.0,0.0,0.0,1.0,1.0,6.0,8.0,8.0,2.0,2.0,1.0,4.0,2.0,3.0,6.0,5.0,1.8121224077185616,5.243642424233258,3.4208805083762854,4.220383699634112,9.01867779751774,8.234544716891833,238.54587412939873,596.9920492349193,597.8004605445312,597.6415641293861,607.8684101063991,608.8768110384699,598.8089284742018,607.8600847248454
1,229,1,1,1.0,1.0,0.5323026912519708,0,4,7,8,5,3,2,nan,nan,nan,nan,nan,nan,nan,nan,nan,nan,nan,nan,0.0,nan,nan,nan,nan,nan,nan,nan,nan,nan,nan,nan,nan,nan,nan,nan,nan,nan,nan,238.54587412939873,609.0769945264328,nan,609.6092972176848,nan,nan,nan,nan
1,230,1,1,1.0,1.0,0.4042183414567262,0,0,3,1,8,5,7,nan,nan,nan,nan,nan,nan,nan,nan,nan,nan,nan,nan,0.0,nan,nan,nan,nan,nan,nan,nan,nan,nan,nan,nan,nan,nan,nan,nan,nan,nan,nan,238.54587412939873,610.0770700769499,nan,610.4812884184066,nan,nan,nan,nan
1,231,1,1,1.0,1.0,0.2760612922720611,0,1,0,6,3,8,4,nan,nan,nan,nan,nan,nan,nan,nan,nan,nan,nan,nan,0.0,nan,nan,nan,nan,nan,nan,nan,nan,nan,nan,nan,nan,nan,nan,nan,nan,nan,nan,238.54587412939873,611.0771707159001,nan,611.3532320081722,nan,nan,nan,nan
1,232,1,1,1.0,1.0,0.25190679519437253,0,4,6,0,7,3,2,nan,nan,nan,nan,nan,nan,nan,nan,nan,nan,nan,nan,0.0,nan,nan,nan,nan,nan,nan,nan,nan,nan,nan,nan,nan,nan,nan,nan,nan,nan,nan,238.54587412939873,612.0773138342192,nan,612.3292206294136,nan,nan,nan,nan
1,233,1,1,1.0,1.0,0.3397415374638513,0,2,0,1,8,6,3,nan,nan,nan,nan,nan,nan,nan,nan,nan,nan,nan,nan,0.0,nan,nan,nan,nan,nan,nan,nan,nan,nan,nan,nan,nan,nan,nan,nan,nan,nan,nan,238.54587412939873,613.0774498251267,nan,613.4171913625905,nan,nan,nan,nan
1,234,1,1,1.0,1.0,0.23559501161798835,0,6,1,2,0,4,7,nan,nan,nan,nan,nan,nan,nan,nan,nan,nan,nan,nan,0.0,nan,nan,nan,nan,nan,nan,nan,nan,nan,nan,nan,nan,nan,nan,nan,nan,nan,nan,238.54587412939873,614.0775735569187,nan,614.3131685685366,nan,nan,nan,nan
1,235,1,1,1.0,1.0,0.2354282302549109,0,1,8,7,2,0,5,nan,nan,nan,nan,nan,nan,nan,nan,nan,nan,nan,nan,0.0,nan,nan,nan,nan,nan,nan,nan,nan,nan,nan,nan,nan,nan,nan,nan,nan,nan,nan,238.54587412939873,615.0777052714257,nan,615.3131335016806,nan,nan,nan,nan
1,236,1,1,1.0,1.0,0.3632967621088028,0,3,0,2,5,6,7,nan,nan,nan,nan,nan,nan,nan,nan,nan,nan,nan,nan,0.0,nan,nan,nan,nan,nan,nan,nan,nan,nan,nan,nan,nan,nan,nan,nan,nan,nan,nan,238.54587412939873,616.0778338498203,nan,616.4411306119291,nan,nan,nan,nan
1,237,1,1,1.0,1.0,0.29114516626577824,0,7,4,5,6,0,1,nan,nan,nan,nan,nan,nan,nan,nan,nan,nan,nan,nan,0.0,nan,nan,nan,nan,nan,nan,nan,nan,nan,nan,nan,nan,nan,nan,nan,nan,nan,nan,238.54587412939873,617.0779487435939,nan,617.3690939098597,nan,nan,nan,nan
1,238,1,1,1.0,1.0,0.3149880530545488,0,6,3,2,8,4,0,nan,nan,nan,nan,nan,nan,nan,nan,nan,nan,nan,nan,0.0,nan,nan,nan,nan,nan,nan,nan,nan,nan,nan,nan,nan,nan,nan,nan,nan,nan,nan,238.54587412939873,618.0780810283031,nan,618.3930690813577,nan,nan,nan,nan
1,239,1,1,1.0,1.0,0.2668498314451426,0,8,2,1,4,6,5,nan,nan,nan,nan,nan,nan,nan,nan,nan,nan,nan,nan,0.0,nan,nan,nan,nan,nan,nan,nan,nan,nan,nan,nan,nan,nan,nan,nan,nan,nan,nan,238.54587412939873,619.0782073260052,nan,619.3450571574504,nan,nan,nan,nan
1,240,1,1,1.0,1.0,0.19469652487896383,0,5,0,6,1,2,3,nan,nan,nan,nan,nan,nan,nan,nan,nan,nan,nan,nan,0.0,nan,nan,nan,nan,nan,nan,nan,nan,nan,nan,nan,nan,nan,nan,nan,nan,nan,nan,238.54587412939873,620.0783310577972,nan,620.2730275826761,nan,nan,nan,nan
1,241,0,0,1.0,0.0,0.18653820978943259,0,0,4,5,2,8,6,nan,nan,nan,nan,nan,nan,nan,nan,nan,nan,nan,nan,0.0,nan,nan,nan,nan,nan,nan,nan,nan,nan,nan,nan,nan,nan,nan,nan,nan,nan,nan,238.54587412939873,621.0784681891091,nan,621.2650063988985,nan,nan,nan,nan
1,242,1,1,1.0,1.0,0.3144281239947304,0,6,3,1,0,7,4,nan,nan,nan,nan,nan,nan,nan,nan,nan,nan,nan,nan,0.0,nan,nan,nan,nan,nan,nan,nan,nan,nan,nan,nan,nan,nan,nan,nan,nan,nan,nan,238.54587412939873,622.0785574241308,nan,622.3929855481256,nan,nan,nan,nan
1,243,1,1,1.0,1.0,0.338247062638402,0,8,0,7,3,2,5,nan,nan,nan,nan,nan,nan,nan,nan,nan,nan,nan,nan,0.0,nan,nan,nan,nan,nan,nan,nan,nan,nan,nan,nan,nan,nan,nan,nan,nan,nan,nan,238.54587412939873,623.0787133718841,nan,623.4169604345225,nan,nan,nan,nan
1,244,1,1,1.0,1.0,0.330083045642823,0,1,6,2,5,7,4,nan,nan,nan,nan,nan,nan,nan,nan,nan,nan,nan,nan,0.0,nan,nan,nan,nan,nan,nan,nan,nan,nan,nan,nan,nan,nan,nan,nan,nan,nan,nan,238.54587412939873,624.0788493627915,nan,624.4089324084343,nan,nan,nan,nan
1,245,1,1,1.0,1.0,0.32992966391611844,0,7,3,8,1,5,2,nan,nan,nan,nan,nan,nan,nan,nan,nan,nan,nan,nan,0.0,nan,nan,nan,nan,nan,nan,nan,nan,nan,nan,nan,nan,nan,nan,nan,nan,nan,nan,238.54587412939873,625.07898307289,nan,625.4089127368061,nan,nan,nan,nan
1,246,1,1,1.0,1.0,0.2657772994134575,0,2,5,4,8,3,7,nan,nan,nan,nan,nan,nan,nan,nan,nan,nan,nan,nan,0.0,nan,nan,nan,nan,nan,nan,nan,nan,nan,nan,nan,nan,nan,nan,nan,nan,nan,nan,238.54587412939873,626.0791133618914,nan,626.3448906613048,nan,nan,nan,nan
1,247,1,1,1.0,1.0,0.2576591828837991,0,0,7,8,2,5,6,nan,nan,nan,nan,nan,nan,nan,nan,nan,nan,nan,nan,0.0,nan,nan,nan,nan,nan,nan,nan,nan,nan,nan,nan,nan,nan,nan,nan,nan,nan,nan,238.54587412939873,627.07920943934,nan,627.3368686222238,nan,nan,nan,nan
1,248,1,1,1.0,1.0,0.2415198824601248,0,6,4,7,1,0,8,nan,nan,nan,nan,nan,nan,nan,nan,nan,nan,nan,nan,0.0,nan,nan,nan,nan,nan,nan,nan,nan,nan,nan,nan,nan,nan,nan,nan,nan,nan,nan,238.54587412939873,628.0793271841248,nan,628.320847066585,nan,nan,nan,nan
1,249,1,1,1.0,1.0,0.22533211577683687,0,3,7,8,2,6,0,nan,nan,nan,nan,nan,nan,nan,nan,nan,nan,nan,nan,0.0,nan,nan,nan,nan,nan,nan,nan,nan,nan,nan,nan,nan,nan,nan,nan,nan,nan,nan,238.54587412939873,629.0794979567872,nan,629.3048300725641,nan,nan,nan,nan
1,250,1,1,1.0,1.0,0.2571793657261878,0,7,2,4,5,8,1,nan,nan,nan,nan,nan,nan,nan,nan,nan,nan,nan,nan,0.0,nan,nan,nan,nan,nan,nan,nan,nan,nan,nan,nan,nan,nan,nan,nan,nan,nan,nan,238.54587412939873,630.0796165568754,nan,630.3367959226016,nan,nan,nan,nan
1,251,1,1,1.0,1.0,0.24103892501443624,0,8,7,1,0,2,3,nan,nan,nan,nan,nan,nan,nan,nan,nan,nan,nan,nan,0.0,nan,nan,nan,nan,nan,nan,nan,nan,nan,nan,nan,nan,nan,nan,nan,nan,nan,nan,238.54587412939873,631.0797468458768,nan,631.3207857708912,nan,nan,nan,nan
1,252,1,1,1.0,1.0,0.3928803476737812,0,6,8,2,7,4,0,nan,nan,nan,nan,nan,nan,nan,nan,nan,nan,nan,nan,0.0,nan,nan,nan,nan,nan,nan,nan,nan,nan,nan,nan,nan,nan,nan,nan,nan,nan,nan,238.54587412939873,632.0798777050804,nan,632.4727580527542,nan,nan,nan,nan
1,253,1,1,1.0,1.0,0.2887229882180691,0,1,2,4,8,0,7,nan,nan,nan,nan,nan,nan,nan,nan,nan,nan,nan,nan,0.0,nan,nan,nan,nan,nan,nan,nan,nan,nan,nan,nan,nan,nan,nan,nan,nan,nan,nan,238.54587412939873,633.0800034324639,nan,633.3687264206819,nan,nan,nan,nan
1,254,1,1,1.0,1.0,0.28858414629939944,0,8,6,0,1,5,3,nan,nan,nan,nan,nan,nan,nan,nan,nan,nan,nan,nan,0.0,nan,nan,nan,nan,nan,nan,nan,nan,nan,nan,nan,nan,nan,nan,nan,nan,nan,nan,238.54587412939873,634.0801223176531,nan,634.3687064639525,nan,nan,nan,nan
1,255,1,1,1.0,1.0,0.2404379420913756,0,1,3,7,8,2,4,nan,nan,nan,nan,nan,nan,nan,nan,nan,nan,nan,nan,0.0,nan,nan,nan,nan,nan,nan,nan,nan,nan,nan,nan,nan,nan,nan,nan,nan,nan,nan,238.54587412939873,635.0802477600519,nan,635.3206857021432,nan,nan,nan,nan
1,256,1,1,1.0,1.0,0.2962743332609534,0,5,4,2,1,3,6,nan,nan,nan,nan,nan,nan,nan,nan,nan,nan,nan,nan,0.0,nan,nan,nan,nan,nan,nan,nan,nan,nan,nan,nan,nan,nan,nan,nan,nan,nan,nan,238.54587412939873,636.0803783341544,nan,636.3766526674153,nan,nan,nan,nan
1,257,1,1,1.0,1.0,0.24012889771256596,0,6,5,4,3,7,0,nan,nan,nan,nan,nan,nan,nan,nan,nan,nan,nan,nan,0.0,nan,nan,nan,nan,nan,nan,nan,nan,nan,nan,nan,nan,nan,nan,nan,nan,nan,nan,238.54587412939873,637.0805089082569,nan,637.3206378059695,nan,nan,nan,nan
1,258,1,1,1.0,1.0,0.2959758375072852,0,1,7,3,4,0,2,nan,nan,nan,nan,nan,nan,nan,nan,nan,nan,nan,nan,0.0,nan,nan,nan,nan,nan,nan,nan,nan,nan,nan,nan,nan,nan,nan,nan,nan,nan,nan,238.54587412939873,638.0806391972583,nan,638.3766150347656,nan,nan,nan,nan
1,259,1,1,1.0,1.0,0.3038288145326078,0,7,5,0,6,4,3,nan,nan,nan,nan,nan,nan,nan,nan,nan,nan,nan,nan,0.0,nan,nan,nan,nan,nan,nan,nan,nan,nan,nan,nan,nan,nan,nan,nan,nan,nan,nan,238.54587412939873,639.0807603631401,nan,639.3845891776728,nan,nan,nan,nan
1,260,1,1,1.0,1.0,0.2796728918328881,0,2,6,7,1,8,0,nan,nan,nan,nan,nan,nan,nan,nan,nan,nan,nan,nan,0.0,nan,nan,nan,nan,nan,nan,nan,nan,nan,nan,nan,nan,nan,nan,nan,nan,nan,nan,238.54587412939873,640.0808926478494,nan,640.3605655396823,nan,nan,nan,nan
1,261,1,1,1.0,1.0,0.2555443386081606,0,3,0,4,6,2,5,nan,nan,nan,nan,nan,nan,nan,nan,nan,nan,nan,nan,0.0,nan,nan,nan,nan,nan,nan,nan,nan,nan,nan,nan,nan,nan,nan,nan,nan,nan,nan,238.54587412939873,641.0810066863196,nan,641.3365510249278,nan,nan,nan,nan
1,262,1,1,1.0,1.0,0.2393699714448303,0,6,1,3,2,7,8,nan,nan,nan,nan,nan,nan,nan,nan,nan,nan,nan,nan,0.0,nan,nan,nan,nan,nan,nan,nan,nan,nan,nan,nan,nan,nan,nan,nan,nan,nan,nan,238.54587412939873,642.0811569320504,nan,642.3205269034952,nan,nan,nan,nan
1,263,1,1,1.0,1.0,0.24722922057844698,0,8,4,7,3,5,1,nan,nan,nan,nan,nan,nan,nan,nan,nan,nan,nan,nan,0.0,nan,nan,nan,nan,nan,nan,nan,nan,nan,nan,nan,nan,nan,nan,nan,nan,nan,nan,238.54587412939873,643.0812726811273,nan,643.3285019017057,nan,nan,nan,nan
1,264,1,1,1.0,1.0,0.23905494005884975,0,6,2,5,8,7,4,nan,nan,nan,nan,nan,nan,nan,nan,nan,nan,nan,nan,0.0,nan,nan,nan,nan,nan,nan,nan,nan,nan,nan,nan,nan,nan,nan,nan,nan,nan,nan,238.54587412939873,644.0814152292442,nan,644.320470169303,nan,nan,nan,nan
1,265,1,1,1.0,1.0,0.20691233035176992,1,7,5,8,1,3,2,1.0,1.0,1.0,1.0,1.0,1.0,1.0,0.0,0.0,1.0,0.0,0.0,2.0,7.0,0.0,0.0,1.0,6.0,6.0,2.0,5.0,6.0,1.0,3.0,4.0,2.8080612113699317,6.064231621334329,7.007745780865662,1.640504141454585,3.7774336031870916,4.632002855534665,238.54587412939873,645.0815381057328,645.8899494153447,645.2884504360845,653.9492976225447,654.9581857840531,646.9067444370594,653.9409691048786
1,266,1,1,1.0,1.0,0.28242606669664383,0,3,4,5,7,8,1,nan,nan,nan,nan,nan,nan,nan,nan,nan,nan,nan,nan,0.0,nan,nan,nan,nan,nan,nan,nan,nan,nan,nan,nan,nan,nan,nan,nan,nan,nan,nan,238.54587412939873,655.1578301549889,nan,655.4402562216856,nan,nan,nan,nan
1,267,1,1,1.0,1.0,0.3942690516123548,0,7,2,0,1,4,6,nan,nan,nan,nan,nan,nan,nan,nan,nan,nan,nan,nan,0.0,nan,nan,nan,nan,nan,nan,nan,nan,nan,nan,nan,nan,nan,nan,nan,nan,nan,nan,238.54587412939873,656.157948469976,nan,656.5522175215883,nan,nan,nan,nan
1,268,1,1,1.0,1.0,0.3540984158171341,0,2,4,8,5,3,7,nan,nan,nan,nan,nan,nan,nan,nan,nan,nan,nan,nan,0.0,nan,nan,nan,nan,nan,nan,nan,nan,nan,nan,nan,nan,nan,nan,nan,nan,nan,nan,238.54587412939873,657.1580702060601,nan,657.5121686218772,nan,nan,nan,nan
1,269,1,1,1.0,1.0,0.3539538719924167,0,3,2,5,7,8,1,nan,nan,nan,nan,nan,nan,nan,nan,nan,nan,nan,nan,0.0,nan,nan,nan,nan,nan,nan,nan,nan,nan,nan,nan,nan,nan,nan,nan,nan,nan,nan,238.54587412939873,658.1582013503648,nan,658.5121552223573,nan,nan,nan,nan
1,270,1,1,1.0,1.0,0.32980279601179063,0,2,0,1,4,3,8,nan,nan,nan,nan,nan,nan,nan,nan,nan,nan,nan,nan,0.0,nan,nan,nan,nan,nan,nan,nan,nan,nan,nan,nan,nan,nan,nan,nan,nan,nan,nan,238.54587412939873,659.1583265076624,nan,659.4881293036742,nan,nan,nan,nan
1,271,1,1,1.0,1.0,0.32163934921845794,0,5,2,8,6,4,0,nan,nan,nan,nan,nan,nan,nan,nan,nan,nan,nan,nan,0.0,nan,nan,nan,nan,nan,nan,nan,nan,nan,nan,nan,nan,nan,nan,nan,nan,nan,nan,238.54587412939873,660.158460502862,nan,660.4800998520805,nan,nan,nan,nan
1,272,1,1,1.0,1.0,0.26549163286108524,0,0,3,1,5,8,6,nan,nan,nan,nan,nan,nan,nan,nan,nan,nan,nan,nan,0.0,nan,nan,nan,nan,nan,nan,nan,nan,nan,nan,nan,nan,nan,nan,nan,nan,nan,nan,238.54587412939873,661.1585902216611,nan,661.4240818545222,nan,nan,nan,nan
1,273,0,0,0.0,1.0,0.4013382989214733,0,1,6,8,0,4,5,nan,nan,nan,nan,nan,nan,nan,nan,nan,nan,nan,nan,0.0,nan,nan,nan,nan,nan,nan,nan,nan,nan,nan,nan,nan,nan,nan,nan,nan,nan,nan,238.54587412939873,662.1587156640599,nan,662.5600539629813,nan,nan,nan,nan
1,274,1,1,1.0,1.0,0.28919653315097094,0,3,8,4,5,2,1,nan,nan,nan,nan,nan,nan,nan,nan,nan,nan,nan,nan,0.0,nan,nan,nan,nan,nan,nan,nan,nan,nan,nan,nan,nan,nan,nan,nan,nan,nan,nan,238.54587412939873,663.1588442424545,nan,663.4480407756055,nan,nan,nan,nan
1,275,0,0,1.0,0.0,0.265027211047709,0,7,1,0,2,5,3,nan,nan,nan,nan,nan,nan,nan,nan,nan,nan,nan,nan,0.0,nan,nan,nan,nan,nan,nan,nan,nan,nan,nan,nan,nan,nan,nan,nan,nan,nan,nan,238.54587412939873,664.1589799482608,nan,664.4240071593085,nan,nan,nan,nan
1,276,1,1,1.0,1.0,0.2968673335853964,0,3,7,4,1,6,8,nan,nan,nan,nan,nan,nan,nan,nan,nan,nan,nan,nan,0.0,nan,nan,nan,nan,nan,nan,nan,nan,nan,nan,nan,nan,nan,nan,nan,nan,nan,nan,238.54587412939873,665.1591051055584,nan,665.4559724391438,nan,nan,nan,nan
1,277,1,1,1.0,1.0,0.3847322961082682,1,7,4,6,3,1,5,1.0,1.0,1.0,1.0,1.0,1.0,1.0,1.0,0.0,1.0,0.0,0.0,3.0,7.0,4.0,4.0,3.0,6.0,4.0,1.0,5.0,6.0,3.0,2.0,4.0,1.595462635741569,9.450368871795945,10.75335636723321,4.866433533956297,3.0737430034205317,7.970682124258019,238.54587412939873,666.1592325435486,666.9676424276549,666.5439648396568,678.7774846353568,679.7772300444776,667.9844388748752,678.7691538369982
1,278,1,1,1.0,1.0,0.645974283805117,0,5,3,1,7,0,8,nan,nan,nan,nan,nan,nan,nan,nan,nan,nan,nan,nan,0.0,nan,nan,nan,nan,nan,nan,nan,nan,nan,nan,nan,nan,nan,nan,nan,nan,nan,nan,238.54587412939873,679.9776570046088,nan,680.6236312884139,nan,nan,nan,nan
1,279,1,1,1.0,1.0,0.453815400833264,0,0,6,2,8,1,5,nan,nan,nan,nan,nan,nan,nan,nan,nan,nan,nan,nan,0.0,nan,nan,nan,nan,nan,nan,nan,nan,nan,nan,nan,nan,nan,nan,nan,nan,nan,nan,238.54587412939873,680.9777841574978,nan,681.4315995583311,nan,nan,nan,nan
1,280,1,1,1.0,1.0,0.36569071549456567,0,7,4,0,6,5,3,nan,nan,nan,nan,nan,nan,nan,nan,nan,nan,nan,nan,0.0,nan,nan,nan,nan,nan,nan,nan,nan,nan,nan,nan,nan,nan,nan,nan,nan,nan,nan,238.54587412939873,681.9779133062111,nan,682.3436040217057,nan,nan,nan,nan
1,281,1,1,1.0,1.0,0.2855281992815435,0,6,7,8,5,2,1,nan,nan,nan,nan,nan,nan,nan,nan,nan,nan,nan,nan,0.0,nan,nan,nan,nan,nan,nan,nan,nan,nan,nan,nan,nan,nan,nan,nan,nan,nan,nan,238.54587412939873,682.9780435952125,nan,683.263571794494,nan,nan,nan,nan
1,282,1,1,1.0,1.0,0.24538464762736112,0,1,0,2,8,3,7,nan,nan,nan,nan,nan,nan,nan,nan,nan,nan,nan,nan,0.0,nan,nan,nan,nan,nan,nan,nan,nan,nan,nan,nan,nan,nan,nan,nan,nan,nan,nan,238.54587412939873,683.9781747394009,nan,684.2235593870282,nan,nan,nan,nan
1,283,0,0,1.0,0.0,0.18121916858945042,0,8,5,6,3,0,4,nan,nan,nan,nan,nan,nan,nan,nan,nan,nan,nan,nan,0.0,nan,nan,nan,nan,nan,nan,nan,nan,nan,nan,nan,nan,nan,nan,nan,nan,nan,nan,238.54587412939873,684.9783204236301,nan,685.1595395922195,nan,nan,nan,nan
1,284,1,1,1.0,1.0,0.21317703591194004,0,2,7,0,1,3,6,nan,nan,nan,nan,nan,nan,nan,nan,nan,nan,nan,nan,0.0,nan,nan,nan,nan,nan,nan,nan,nan,nan,nan,nan,nan,nan,nan,nan,nan,nan,nan,238.54587412939873,685.9784270497039,nan,686.1916040856158,nan,nan,nan,nan
1,285,0,0,1.0,0.0,0.28493491385597736,0,6,8,5,3,0,4,nan,nan,nan,nan,nan,nan,nan,nan,nan,nan,nan,nan,0.0,nan,nan,nan,nan,nan,nan,nan,nan,nan,nan,nan,nan,nan,nan,nan,nan,nan,nan,238.54587412939873,686.978556768503,nan,687.263491682359,nan,nan,nan,nan
1,286,1,1,1.0,1.0,0.2767651949543506,0,8,0,6,7,2,3,nan,nan,nan,nan,nan,nan,nan,nan,nan,nan,nan,nan,0.0,nan,nan,nan,nan,nan,nan,nan,nan,nan,nan,nan,nan,nan,nan,nan,nan,nan,nan,238.54587412939873,687.9786984613165,nan,688.2554636562709,nan,nan,nan,nan
1,287,1,1,1.0,1.0,0.32461176300421357,0,5,6,0,4,1,8,nan,nan,nan,nan,nan,nan,nan,nan,nan,nan,nan,nan,0.0,nan,nan,nan,nan,nan,nan,nan,nan,nan,nan,nan,nan,nan,nan,nan,nan,nan,nan,238.54587412939873,688.978813069989,nan,689.3034248329932,nan,nan,nan,nan
1,288,1,1,1.0,1.0,0.2524650137638673,0,0,1,5,3,6,7,nan,nan,nan,nan,nan,nan,nan,nan,nan,nan,nan,nan,0.0,nan,nan,nan,nan,nan,nan,nan,nan,nan,nan,nan,nan,nan,nan,nan,nan,nan,nan,238.54587412939873,689.9789444993949,nan,690.2314095131587,nan,nan,nan,nan
1,289,1,1,1.0,1.0,0.28430998290423304,0,1,6,7,4,8,0,nan,nan,nan,nan,nan,nan,nan,nan,nan,nan,nan,nan,0.0,nan,nan,nan,nan,nan,nan,nan,nan,nan,nan,nan,nan,nan,nan,nan,nan,nan,nan,238.54587412939873,690.9790690864902,nan,691.2633790693944,nan,nan,nan,nan
1,290,0,0,0.0,1.0,0.5161431491142139,0,5,8,6,1,4,3,nan,nan,nan,nan,nan,nan,nan,nan,nan,nan,nan,nan,0.0,nan,nan,nan,nan,nan,nan,nan,nan,nan,nan,nan,nan,nan,nan,nan,nan,nan,nan,238.54587412939873,691.9792073582066,nan,692.4953505073208,nan,nan,nan,nan
1,291,1,1,1.0,1.0,0.46799437899608165,0,3,1,8,6,7,4,nan,nan,nan,nan,nan,nan,nan,nan,nan,nan,nan,nan,0.0,nan,nan,nan,nan,nan,nan,nan,nan,nan,nan,nan,nan,nan,nan,nan,nan,nan,nan,238.54587412939873,692.9793316602008,nan,693.4473260391969,nan,nan,nan,nan
1,292,1,1,1.0,1.0,0.4198598638176918,0,5,7,3,1,0,2,nan,nan,nan,nan,nan,nan,nan,nan,nan,nan,nan,nan,0.0,nan,nan,nan,nan,nan,nan,nan,nan,nan,nan,nan,nan,nan,nan,nan,nan,nan,nan,238.54587412939873,693.9794588130899,nan,694.3993186769076,nan,nan,nan,nan
1,293,1,1,1.0,1.0,0.3636779357912019,0,3,8,1,7,2,5,nan,nan,nan,nan,nan,nan,nan,nan,nan,nan,nan,nan,0.0,nan,nan,nan,nan,nan,nan,nan,nan,nan,nan,nan,nan,nan,nan,nan,nan,nan,nan,238.54587412939873,694.9796036420157,nan,695.3432815778069,nan,nan,nan,nan
1,294,1,1,1.0,1.0,0.40356746676843613,0,5,2,0,6,3,1,nan,nan,nan,nan,nan,nan,nan,nan,nan,nan,nan,nan,0.0,nan,nan,nan,nan,nan,nan,nan,nan,nan,nan,nan,nan,nan,nan,nan,nan,nan,nan,238.54587412939873,695.9797037107637,nan,696.3832711775322,nan,nan,nan,nan
1,295,1,1,1.0,1.0,0.3393865926191211,0,3,4,6,7,0,2,nan,nan,nan,nan,nan,nan,nan,nan,nan,nan,nan,nan,0.0,nan,nan,nan,nan,nan,nan,nan,nan,nan,nan,nan,nan,nan,nan,nan,nan,nan,nan,238.54587412939873,696.9798533862922,nan,697.3192399789114,nan,nan,nan,nan
1,296,1,1,1.0,1.0,0.29930975334718823,0,8,0,4,1,5,3,nan,nan,nan,nan,nan,nan,nan,nan,nan,nan,nan,nan,0.0,nan,nan,nan,nan,nan,nan,nan,nan,nan,nan,nan,nan,nan,nan,nan,nan,nan,nan,238.54587412939873,697.9799320729217,nan,698.2792418262688,nan,nan,nan,nan
1,297,0,0,1.0,0.0,0.3230970464646816,0,0,4,1,5,3,8,nan,nan,nan,nan,nan,nan,nan,nan,nan,nan,nan,nan,0.0,nan,nan,nan,nan,nan,nan,nan,nan,nan,nan,nan,nan,nan,nan,nan,nan,nan,nan,238.54587412939873,698.9801056965953,nan,699.30320274306,nan,nan,nan,nan
1,298,1,1,1.0,1.0,0.5069436624180526,0,7,2,8,3,6,5,nan,nan,nan,nan,nan,nan,nan,nan,nan,nan,nan,nan,0.0,nan,nan,nan,nan,nan,nan,nan,nan,nan,nan,nan,nan,nan,nan,nan,nan,nan,nan,238.54587412939873,699.9802217307733,nan,700.4871653931914,nan,nan,nan,nan
1,299,0,0,0.0,1.0,0.47479364019818604,0,1,3,5,4,7,6,nan,nan,nan,nan,nan,nan,nan,nan,nan,nan,nan,nan,0.0,nan,nan,nan,nan,nan,nan,nan,nan,nan,nan,nan,nan,nan,nan,nan,nan,nan,nan,238.54587412939873,700.9803471730556,nan,701.4551408132538,nan,nan,nan,nan
1,300,1,1,1.0,1.0,0.3786571794189513,0,7,6,3,1,8,2,nan,nan,nan,nan,nan,nan,nan,nan,nan,nan,nan,nan,0.0,nan,nan,nan,nan,nan,nan,nan,nan,nan,nan,nan,nan,nan,nan,nan,nan,nan,nan,238.54587412939873,701.9804697644431,nan,702.3591269438621,nan,nan,nan,nan
1,301,1,1,1.0,1.0,0.40250291721895337,0,1,3,8,7,4,0,nan,nan,nan,nan,nan,nan,nan,nan,nan,nan,nan,nan,0.0,nan,nan,nan,nan,nan,nan,nan,nan,nan,nan,nan,nan,nan,nan,nan,nan,nan,nan,238.54587412939873,702.9806051852647,nan,703.3831081024837,nan,nan,nan,nan
1,302,1,1,1.0,1.0,0.40235666290391237,0,5,6,4,3,7,2,nan,nan,nan,nan,nan,nan,nan,nan,nan,nan,nan,nan,0.0,nan,nan,nan,nan,nan,nan,nan,nan,nan,nan,nan,nan,nan,nan,nan,nan,nan,nan,238.54587412939873,703.980732908356,nan,704.3830895712599,nan,nan,nan,nan
1,303,0,0,0.0,1.0,0.5061958548612893,0,6,8,2,4,3,5,nan,nan,nan,nan,nan,nan,nan,nan,nan,nan,nan,nan,0.0,nan,nan,nan,nan,nan,nan,nan,nan,nan,nan,nan,nan,nan,nan,nan,nan,nan,nan,238.54587412939873,704.9808620569529,nan,705.4870579118142,nan,nan,nan,nan
1,304,1,1,1.0,1.0,0.4580510761588812,0,0,6,3,8,4,2,nan,nan,nan,nan,nan,nan,nan,nan,nan,nan,nan,nan,0.0,nan,nan,nan,nan,nan,nan,nan,nan,nan,nan,nan,nan,nan,nan,nan,nan,nan,nan,238.54587412939873,705.9809852185426,nan,706.4390362947015,nan,nan,nan,nan
1,305,1,1,1.0,1.0,0.44188839790876955,0,5,4,2,7,3,6,nan,nan,nan,nan,nan,nan,nan,nan,nan,nan,nan,nan,0.0,nan,nan,nan,nan,nan,nan,nan,nan,nan,nan,nan,nan,nan,nan,nan,nan,nan,nan,238.54587412939873,706.9811266263714,nan,707.4230150242802,nan,nan,nan,nan
1,306,1,1,1.0,1.0,0.433741771732457,0,3,1,4,2,8,5,nan,nan,nan,nan,nan,nan,nan,nan,nan,nan,nan,nan,0.0,nan,nan,nan,nan,nan,nan,nan,nan,nan,nan,nan,nan,nan,nan,nan,nan,nan,nan,238.54587412939873,707.9812435158528,nan,708.4149852875853,nan,nan,nan,nan
1,307,1,1,1.0,1.0,0.4176064628409222,0,2,7,5,0,1,3,nan,nan,nan,nan,nan,nan,nan,nan,nan,nan,nan,nan,0.0,nan,nan,nan,nan,nan,nan,nan,nan,nan,nan,nan,nan,nan,nan,nan,nan,nan,nan,238.54587412939873,708.9813549884129,nan,709.3989614512539,nan,nan,nan,nan
1,308,1,1,1.0,1.0,0.34544488857500255,0,8,0,7,5,4,1,nan,nan,nan,nan,nan,nan,nan,nan,nan,nan,nan,nan,0.0,nan,nan,nan,nan,nan,nan,nan,nan,nan,nan,nan,nan,nan,nan,nan,nan,nan,nan,238.54587412939873,709.9814972514287,nan,710.3269421400037,nan,nan,nan,nan
1,309,1,1,1.0,1.0,0.3773457366041839,0,0,4,6,8,5,3,nan,nan,nan,nan,nan,nan,nan,nan,nan,nan,nan,nan,0.0,nan,nan,nan,nan,nan,nan,nan,nan,nan,nan,nan,nan,nan,nan,nan,nan,nan,nan,238.54587412939873,710.9815998860868,nan,711.358945622691,nan,nan,nan,nan
1,310,0,0,1.0,0.0,0.2648239373229444,0,2,0,1,3,7,6,nan,nan,nan,nan,nan,nan,nan,nan,nan,nan,nan,nan,0.0,nan,nan,nan,nan,nan,nan,nan,nan,nan,nan,nan,nan,nan,nan,nan,nan,nan,nan,238.54587412939873,711.9900792196859,nan,712.2549031570088,nan,nan,nan,nan
1,311,1,1,1.0,1.0,0.23266137100290507,0,3,7,6,2,4,1,nan,nan,nan,nan,nan,nan,nan,nan,nan,nan,nan,nan,0.0,nan,nan,nan,nan,nan,nan,nan,nan,nan,nan,nan,nan,nan,nan,nan,nan,nan,nan,238.54587412939873,712.9902123595821,nan,713.222873730585,nan,nan,nan,nan
1,312,1,1,0.0,0.0,0.2725209667114541,0,7,4,5,3,0,8,nan,nan,nan,nan,nan,nan,nan,nan,nan,nan,nan,nan,0.0,nan,nan,nan,nan,nan,nan,nan,nan,nan,nan,nan,nan,nan,nan,nan,nan,nan,nan,238.54587412939873,713.9903426485835,nan,714.2628636152949,nan,nan,nan,nan
1,313,1,1,1.0,1.0,0.29640120116528124,0,5,3,8,4,2,6,nan,nan,nan,nan,nan,nan,nan,nan,nan,nan,nan,nan,0.0,nan,nan,nan,nan,nan,nan,nan,nan,nan,nan,nan,nan,nan,nan,nan,nan,nan,nan,238.54587412939873,714.9904452832416,nan,715.2868464844069,nan,nan,nan,nan
1,314,1,1,1.0,1.0,0.3998894396936521,0,8,1,6,7,4,0,nan,nan,nan,nan,nan,nan,nan,nan,nan,nan,nan,nan,0.0,nan,nan,nan,nan,nan,nan,nan,nan,nan,nan,nan,nan,nan,nan,nan,nan,nan,nan,238.54587412939873,715.9989266124321,nan,716.3988160521258,nan,nan,nan,nan
1,315,1,1,1.0,1.0,0.28775879251770675,0,0,6,7,2,3,1,nan,nan,nan,nan,nan,nan,nan,nan,nan,nan,nan,nan,0.0,nan,nan,nan,nan,nan,nan,nan,nan,nan,nan,nan,nan,nan,nan,nan,nan,nan,nan,238.54587412939873,716.999025540892,nan,717.2867843334097,nan,nan,nan,nan
1,316,1,1,1.0,1.0,0.2555882434826344,0,6,0,2,1,8,7,nan,nan,nan,nan,nan,nan,nan,nan,nan,nan,nan,nan,0.0,nan,nan,nan,nan,nan,nan,nan,nan,nan,nan,nan,nan,nan,nan,nan,nan,nan,nan,238.54587412939873,717.999187475536,nan,718.2547757190187,nan,nan,nan,nan
1,317,1,1,1.0,1.0,0.28741297079250216,0,2,7,1,4,0,8,nan,nan,nan,nan,nan,nan,nan,nan,nan,nan,nan,nan,0.0,nan,nan,nan,nan,nan,nan,nan,nan,nan,nan,nan,nan,nan,nan,nan,nan,nan,nan,238.54587412939873,718.9993297385518,nan,719.2867427093443,nan,nan,nan,nan
1,318,1,1,1.0,1.0,0.2872644356684759,0,1,3,4,7,2,5,nan,nan,nan,nan,nan,nan,nan,nan,nan,nan,nan,nan,0.0,nan,nan,nan,nan,nan,nan,nan,nan,nan,nan,nan,nan,nan,nan,nan,nan,nan,nan,238.54587412939873,719.9994497641455,nan,720.286714199814,nan,nan,nan,nan
1,319,1,1,1.0,1.0,0.3351158502046019,0,5,4,7,1,8,0,nan,nan,nan,nan,nan,nan,nan,nan,nan,nan,nan,nan,0.0,nan,nan,nan,nan,nan,nan,nan,nan,nan,nan,nan,nan,nan,nan,nan,nan,nan,nan,238.54587412939873,720.9995886060642,nan,721.3347044562688,nan,nan,nan,nan
1,320,1,1,1.0,1.0,0.33497159159742296,0,7,1,0,8,2,5,nan,nan,nan,nan,nan,nan,nan,nan,nan,nan,nan,nan,0.0,nan,nan,nan,nan,nan,nan,nan,nan,nan,nan,nan,nan,nan,nan,nan,nan,nan,nan,238.54587412939873,721.9997029296355,nan,722.334674521233,nan,nan,nan,nan
1,321,1,1,1.0,1.0,0.35082836158107966,0,4,5,2,1,8,6,nan,nan,nan,nan,nan,nan,nan,nan,nan,nan,nan,nan,0.0,nan,nan,nan,nan,nan,nan,nan,nan,nan,nan,nan,nan,nan,nan,nan,nan,nan,nan,238.54587412939873,722.9998300825246,nan,723.3506584441056,nan,nan,nan,nan
1,322,1,1,1.0,1.0,0.4623514683917165,0,0,1,3,2,5,8,nan,nan,nan,nan,nan,nan,nan,nan,nan,nan,nan,nan,0.0,nan,nan,nan,nan,nan,nan,nan,nan,nan,nan,nan,nan,nan,nan,nan,nan,nan,nan,238.54587412939873,724.0082789107691,nan,724.4706303791609,nan,nan,nan,nan
1,323,1,1,1.0,1.0,0.4141853074543178,0,3,2,5,0,7,4,nan,nan,nan,nan,nan,nan,nan,nan,nan,nan,nan,nan,0.0,nan,nan,nan,nan,nan,nan,nan,nan,nan,nan,nan,nan,nan,nan,nan,nan,nan,nan,238.54587412939873,725.0084197483957,nan,725.42260505585,nan,nan,nan,nan
1,324,1,1,1.0,1.0,0.5100378122879192,1,2,0,8,1,3,6,1.0,1.0,1.0,1.0,1.0,1.0,1.0,0.0,0.0,0.0,0.0,1.0,2.0,2.0,4.0,4.0,3.0,8.0,6.0,1.0,6.0,5.0,4.0,3.0,2.0,2.703296026564203,8.495093350531533,7.607114520622417,6.310851306072436,5.007027053041384,3.8328018663451076,238.54587412939873,726.008547471487,726.8169553598855,726.5185852837749,736.3681707680225,737.3711485987296,727.8337786061456,736.3598510884913
1,325,1,1,1.0,1.0,0.27759625064209104,0,3,5,1,6,2,8,nan,nan,nan,nan,nan,nan,nan,nan,nan,nan,nan,nan,0.0,nan,nan,nan,nan,nan,nan,nan,nan,nan,nan,nan,nan,nan,nan,nan,nan,nan,nan,238.54587412939873,737.5767395077273,nan,737.8543357583694,nan,nan,nan,nan
1,326,1,1,1.0,1.0,0.30949367757420987,0,2,8,5,1,0,6,nan,nan,nan,nan,nan,nan,nan,nan,nan,nan,nan,nan,0.0,nan,nan,nan,nan,nan,nan,nan,nan,nan,nan,nan,nan,nan,nan,nan,nan,nan,nan,238.54587412939873,738.5768301683711,nan,738.8863238459453,nan,nan,nan,nan
1,327,1,1,1.0,1.0,0.22132081119343638,0,5,7,4,2,6,3,nan,nan,nan,nan,nan,nan,nan,nan,nan,nan,nan,nan,0.0,nan,nan,nan,nan,nan,nan,nan,nan,nan,nan,nan,nan,nan,nan,nan,nan,nan,nan,238.54587412939873,739.5769450621447,nan,739.7982658733381,nan,nan,nan,nan
1,328,1,1,1.0,1.0,0.1971711607184261,0,4,6,3,0,8,1,nan,nan,nan,nan,nan,nan,nan,nan,nan,nan,nan,nan,0.0,nan,nan,nan,nan,nan,nan,nan,nan,nan,nan,nan,nan,nan,nan,nan,nan,nan,nan,238.54587412939873,740.5770747809438,nan,740.7742459416622,nan,nan,nan,nan
1,329,1,1,1.0,1.0,0.18100677186157554,0,6,3,5,1,0,8,nan,nan,nan,nan,nan,nan,nan,nan,nan,nan,nan,nan,0.0,nan,nan,nan,nan,nan,nan,nan,nan,nan,nan,nan,nan,nan,nan,nan,nan,nan,nan,238.54587412939873,741.5772107719677,nan,741.7582175438292,nan,nan,nan,nan
1,330,1,1,1.0,1.0,0.044861609931103885,0,1,0,2,8,7,3,nan,nan,nan,nan,nan,nan,nan,nan,nan,nan,nan,nan,0.0,nan,nan,nan,nan,nan,nan,nan,nan,nan,nan,nan,nan,nan,nan,nan,nan,nan,nan,238.54587412939873,742.5773316527484,nan,742.6221932626795,nan,nan,nan,nan
1,331,1,1,1.0,1.0,0.0687153305625543,0,0,2,8,1,5,7,nan,nan,nan,nan,nan,nan,nan,nan,nan,nan,nan,nan,0.0,nan,nan,nan,nan,nan,nan,nan,nan,nan,nan,nan,nan,nan,nan,nan,nan,nan,nan,238.54587412939873,743.5774605162442,nan,743.6461758468067,nan,nan,nan,nan
1,332,1,1,1.0,1.0,0.0685590977082029,0,2,7,4,3,8,6,nan,nan,nan,nan,nan,nan,nan,nan,nan,nan,nan,nan,0.0,nan,nan,nan,nan,nan,nan,nan,nan,nan,nan,nan,nan,nan,nan,nan,nan,nan,nan,238.54587412939873,744.5775976475561,nan,744.6461567452643,nan,nan,nan,nan
1,333,0,0,1.0,0.0,0.10042601928580552,0,6,2,3,5,0,8,nan,nan,nan,nan,nan,nan,nan,nan,nan,nan,nan,nan,0.0,nan,nan,nan,nan,nan,nan,nan,nan,nan,nan,nan,nan,nan,nan,nan,nan,nan,nan,238.54587412939873,745.5777039885288,nan,745.6781300078146,nan,nan,nan,nan
1,334,1,1,1.0,1.0,0.1402841896051541,0,5,8,0,4,6,7,nan,nan,nan,nan,nan,nan,nan,nan,nan,nan,nan,nan,0.0,nan,nan,nan,nan,nan,nan,nan,nan,nan,nan,nan,nan,nan,nan,nan,nan,nan,nan,238.54587412939873,746.5778536640573,nan,746.7181378536625,nan,nan,nan,nan
1,335,1,1,1.0,1.0,0.37212362803984433,0,1,6,8,3,2,4,nan,nan,nan,nan,nan,nan,nan,nan,nan,nan,nan,nan,0.0,nan,nan,nan,nan,nan,nan,nan,nan,nan,nan,nan,nan,nan,nan,nan,nan,nan,nan,238.54587412939873,747.5779543030076,nan,747.9500779310474,nan,nan,nan,nan
1,336,1,1,1.0,1.0,0.3240079290699214,0,5,8,3,6,7,2,nan,nan,nan,nan,nan,nan,nan,nan,nan,nan,nan,nan,0.0,nan,nan,nan,nan,nan,nan,nan,nan,nan,nan,nan,nan,nan,nan,nan,nan,nan,nan,238.54587412939873,748.5781016978435,nan,748.9021096269134,nan,nan,nan,nan
1,337,0,0,0.0,1.0,0.491813602973707,0,6,2,7,1,8,5,nan,nan,nan,nan,nan,nan,nan,nan,nan,nan,nan,nan,0.0,nan,nan,nan,nan,nan,nan,nan,nan,nan,nan,nan,nan,nan,nan,nan,nan,nan,nan,238.54587412939873,749.5782282805303,nan,750.070041883504,nan,nan,nan,nan
1,338,1,1,1.0,1.0,0.25164878310170025,0,1,6,2,3,7,4,nan,nan,nan,nan,nan,nan,nan,nan,nan,nan,nan,nan,0.0,nan,nan,nan,nan,nan,nan,nan,nan,nan,nan,nan,nan,nan,nan,nan,nan,nan,nan,238.54587412939873,750.5783656969434,nan,750.8300144800451,nan,nan,nan,nan
1,339,1,1,1.0,1.0,0.29151892743539065,0,4,2,0,6,3,8,nan,nan,nan,nan,nan,nan,nan,nan,nan,nan,nan,nan,0.0,nan,nan,nan,nan,nan,nan,nan,nan,nan,nan,nan,nan,nan,nan,nan,nan,nan,nan,238.54587412939873,751.5784814460203,nan,751.8700003734557,nan,nan,nan,nan
1,340,1,1,1.0,1.0,0.32335904997307807,0,3,1,7,0,5,2,nan,nan,nan,nan,nan,nan,nan,nan,nan,nan,nan,nan,0.0,nan,nan,nan,nan,nan,nan,nan,nan,nan,nan,nan,nan,nan,nan,nan,nan,nan,nan,238.54587412939873,752.5786097393138,nan,752.9019687892869,nan,nan,nan,nan
1,341,1,1,1.0,1.0,0.31524150364566594,0,6,2,0,4,7,3,nan,nan,nan,nan,nan,nan,nan,nan,nan,nan,nan,nan,0.0,nan,nan,nan,nan,nan,nan,nan,nan,nan,nan,nan,nan,nan,nan,nan,nan,nan,nan,238.54587412939873,753.578736322117,nan,753.8939778257627,nan,nan,nan,nan
1,342,1,1,1.0,1.0,0.3310526581481099,0,7,6,8,2,1,4,nan,nan,nan,nan,nan,nan,nan,nan,nan,nan,nan,nan,0.0,nan,nan,nan,nan,nan,nan,nan,nan,nan,nan,nan,nan,nan,nan,nan,nan,nan,nan,238.54587412939873,754.5788643303094,nan,754.9099169884576,nan,nan,nan,nan
1,343,1,1,1.0,1.0,0.2989043465349823,0,6,8,0,3,5,2,nan,nan,nan,nan,nan,nan,nan,nan,nan,nan,nan,nan,0.0,nan,nan,nan,nan,nan,nan,nan,nan,nan,nan,nan,nan,nan,nan,nan,nan,nan,nan,238.54587412939873,755.578992623603,nan,755.877896970138,nan,nan,nan,nan
1,344,1,1,1.0,1.0,0.29876037291251123,0,3,2,4,7,0,1,nan,nan,nan,nan,nan,nan,nan,nan,nan,nan,nan,nan,0.0,nan,nan,nan,nan,nan,nan,nan,nan,nan,nan,nan,nan,nan,nan,nan,nan,nan,nan,238.54587412939873,756.5791095130844,nan,756.8778698859969,nan,nan,nan,nan
1,345,1,1,1.0,1.0,0.2585888816975057,0,5,1,2,3,7,6,nan,nan,nan,nan,nan,nan,nan,nan,nan,nan,nan,nan,0.0,nan,nan,nan,nan,nan,nan,nan,nan,nan,nan,nan,nan,nan,nan,nan,nan,nan,nan,238.54587412939873,757.5792520613177,nan,757.8378409430152,nan,nan,nan,nan
1,346,1,1,1.0,1.0,0.28243861091323197,0,4,3,6,5,8,0,nan,nan,nan,nan,nan,nan,nan,nan,nan,nan,nan,nan,0.0,nan,nan,nan,nan,nan,nan,nan,nan,nan,nan,nan,nan,nan,nan,nan,nan,nan,nan,238.54587412939873,758.5793846310116,nan,758.8618232419249,nan,nan,nan,nan
1,347,1,1,1.0,1.0,0.26629702979698777,0,7,8,1,6,0,3,nan,nan,nan,nan,nan,nan,nan,nan,nan,nan,nan,nan,0.0,nan,nan,nan,nan,nan,nan,nan,nan,nan,nan,nan,nan,nan,nan,nan,nan,nan,nan,238.54587412939873,759.5795117840171,nan,759.8458088138141,nan,nan,nan,nan
1,348,1,1,1.0,1.0,0.24213654571212828,0,2,6,5,4,7,1,nan,nan,nan,nan,nan,nan,nan,nan,nan,nan,nan,nan,0.0,nan,nan,nan,nan,nan,nan,nan,nan,nan,nan,nan,nan,nan,nan,nan,nan,nan,nan,238.54587412939873,760.5796454941155,nan,760.8217820398277,nan,nan,nan,nan
1,349,1,1,1.0,1.0,0.35399207496084273,0,1,0,4,5,3,8,nan,nan,nan,nan,nan,nan,nan,nan,nan,nan,nan,nan,0.0,nan,nan,nan,nan,nan,nan,nan,nan,nan,nan,nan,nan,nan,nan,nan,nan,nan,nan,238.54587412939873,761.5797615282936,nan,761.9337536032544,nan,nan,nan,nan
1,350,1,1,1.0,1.0,0.29783067398238927,0,2,6,5,3,7,4,nan,nan,nan,nan,nan,nan,nan,nan,nan,nan,nan,nan,0.0,nan,nan,nan,nan,nan,nan,nan,nan,nan,nan,nan,nan,nan,nan,nan,nan,nan,nan,238.54587412939873,762.5799037913093,nan,762.8777344652917,nan,nan,nan,nan
1,351,1,1,1.0,1.0,0.29775825946126133,0,7,3,6,2,0,8,nan,nan,nan,nan,nan,nan,nan,nan,nan,nan,nan,nan,0.0,nan,nan,nan,nan,nan,nan,nan,nan,nan,nan,nan,nan,nan,nan,nan,nan,nan,nan,238.54587412939873,763.580017829896,nan,763.8777760893572,nan,nan,nan,nan
1,352,1,1,1.0,1.0,0.28954035928472877,0,1,6,5,4,7,2,nan,nan,nan,nan,nan,nan,nan,nan,nan,nan,nan,nan,0.0,nan,nan,nan,nan,nan,nan,nan,nan,nan,nan,nan,nan,nan,nan,nan,nan,nan,nan,238.54587412939873,764.5801466933917,nan,764.8696870526765,nan,nan,nan,nan
1,353,1,1,1.0,1.0,0.29739162558689713,0,6,8,0,7,4,1,nan,nan,nan,nan,nan,nan,nan,nan,nan,nan,nan,nan,0.0,nan,nan,nan,nan,nan,nan,nan,nan,nan,nan,nan,nan,nan,nan,nan,nan,nan,nan,238.54587412939873,765.5802658636821,nan,765.877657489269,nan,nan,nan,nan
1,354,1,1,1.0,1.0,0.27323370741214603,0,0,3,7,4,5,8,nan,nan,nan,nan,nan,nan,nan,nan,nan,nan,nan,nan,0.0,nan,nan,nan,nan,nan,nan,nan,nan,nan,nan,nan,nan,nan,nan,nan,nan,nan,nan,238.54587412939873,766.5804015694885,nan,766.8536352769006,nan,nan,nan,nan
1,355,1,1,1.0,1.0,0.20909217651933432,0,5,4,8,7,1,0,nan,nan,nan,nan,nan,nan,nan,nan,nan,nan,nan,nan,0.0,nan,nan,nan,nan,nan,nan,nan,nan,nan,nan,nan,nan,nan,nan,nan,nan,nan,nan,238.54587412939873,767.580527581973,nan,767.7896197584923,nan,nan,nan,nan
1,356,1,1,1.0,1.0,0.2169423025334254,0,4,2,0,3,5,6,nan,nan,nan,nan,nan,nan,nan,nan,nan,nan,nan,nan,0.0,nan,nan,nan,nan,nan,nan,nan,nan,nan,nan,nan,nan,nan,nan,nan,nan,nan,nan,238.54587412939873,768.5806544498773,nan,768.7975967524108,nan,nan,nan,nan
1,357,0,0,1.0,0.0,0.15244896279182285,0,0,5,2,1,8,7,nan,nan,nan,nan,nan,nan,nan,nan,nan,nan,nan,nan,0.0,nan,nan,nan,nan,nan,nan,nan,nan,nan,nan,nan,nan,nan,nan,nan,nan,nan,nan,238.54587412939873,769.5891255155439,nan,769.7415744783357,nan,nan,nan,nan
1,358,1,1,1.0,1.0,0.26428881159517914,0,7,0,4,2,6,5,nan,nan,nan,nan,nan,nan,nan,nan,nan,nan,nan,nan,0.0,nan,nan,nan,nan,nan,nan,nan,nan,nan,nan,nan,nan,nan,nan,nan,nan,nan,nan,238.54587412939873,770.5892669233726,nan,770.8535557349678,nan,nan,nan,nan
1,359,1,1,1.0,1.0,0.2721831275848672,1,6,8,5,1,2,7,1.0,1.0,1.0,1.0,1.0,1.0,1.0,0.0,0.0,1.0,0.0,1.0,3.0,6.0,1.0,1.0,1.0,5.0,7.0,1.0,6.0,5.0,4.0,3.0,2.0,1.673571033286862,7.008954874123447,5.88932762038894,4.63283248571679,3.650770743493922,2.5373665713705122,238.54587412939873,771.5893362017814,772.3977845738409,771.8615193293663,780.4738203214947,781.47130919341,773.422925789142,780.4654946548399
1,360,1,1,1.0,1.0,0.5633014946943149,1,5,0,7,4,6,8,1.0,1.0,1.0,1.0,1.0,1.0,1.0,1.0,0.0,0.0,1.0,1.0,4.0,5.0,0.0,0.0,0.0,6.0,8.0,1.0,6.0,5.0,4.0,3.0,2.0,1.0705610438017175,5.236277246964164,4.684053453267552,3.7165849342709407,2.9492810869123787,1.9081280092941597,238.54587412939873,781.6740035243565,782.4824136934476,782.2373050190508,788.7748768597376,789.7859773684759,783.4992090003798,788.7665457762778
1,361,1,1,1.0,1.0,0.3093440019292757,0,7,8,3,5,4,2,nan,nan,nan,nan,nan,nan,nan,nan,nan,nan,nan,nan,0.0,nan,nan,nan,nan,nan,nan,nan,nan,nan,nan,nan,nan,nan,nan,nan,nan,nan,nan,238.54587412939873,789.9917450372595,nan,790.3010890391888,nan,nan,nan,nan
1,362,1,1,1.0,1.0,0.5092073269188404,0,3,6,5,7,1,4,nan,nan,nan,nan,nan,nan,nan,nan,nan,nan,nan,nan,0.0,nan,nan,nan,nan,nan,nan,nan,nan,nan,nan,nan,nan,nan,nan,nan,nan,nan,nan,238.54587412939873,790.9918510930147,nan,791.5010584199335,nan,nan,nan,nan
1,363,1,1,1.0,1.0,0.31706184335052967,0,0,1,7,2,8,5,nan,nan,nan,nan,nan,nan,nan,nan,nan,nan,nan,nan,0.0,nan,nan,nan,nan,nan,nan,nan,nan,nan,nan,nan,nan,nan,nan,nan,nan,nan,nan,238.54587412939873,791.9919870839221,nan,792.3090489272727,nan,nan,nan,nan
1,364,1,1,1.0,1.0,0.20491180976387113,0,7,3,5,1,2,4,nan,nan,nan,nan,nan,nan,nan,nan,nan,nan,nan,nan,0.0,nan,nan,nan,nan,nan,nan,nan,nan,nan,nan,nan,nan,nan,nan,nan,nan,nan,nan,238.54587412939873,792.9921088200063,nan,793.1970206297701,nan,nan,nan,nan
1,365,1,1,1.0,1.0,0.14076343656051904,0,5,7,2,8,0,6,nan,nan,nan,nan,nan,nan,nan,nan,nan,nan,nan,nan,0.0,nan,nan,nan,nan,nan,nan,nan,nan,nan,nan,nan,nan,nan,nan,nan,nan,nan,nan,238.54587412939873,793.9922393941088,nan,794.1330028306693,nan,nan,nan,nan
1,366,1,1,nan,nan,nan,0,3,6,7,2,4,0,nan,nan,nan,nan,nan,nan,nan,nan,nan,nan,nan,nan,0.0,nan,nan,nan,nan,nan,nan,nan,nan,nan,nan,nan,nan,nan,nan,nan,nan,nan,nan,238.54587412939873,794.992363696103,nan,nan,nan,nan,nan,nan
1,367,1,1,1.0,1.0,0.3725256137549877,0,6,8,3,4,5,7,nan,nan,nan,nan,nan,nan,nan,nan,nan,nan,nan,nan,0.0,nan,nan,nan,nan,nan,nan,nan,nan,nan,nan,nan,nan,nan,nan,nan,nan,nan,nan,238.54587412939873,795.9924609139562,nan,796.3649865277112,nan,nan,nan,nan
1,368,0,0,1.0,0.0,0.36431541107594967,0,0,4,7,1,2,5,nan,nan,nan,nan,nan,nan,nan,nan,nan,nan,nan,nan,0.0,nan,nan,nan,nan,nan,nan,nan,nan,nan,nan,nan,nan,nan,nan,nan,nan,nan,nan,238.54587412939873,796.9926205679076,nan,797.3569359789835,nan,nan,nan,nan
1,369,1,1,1.0,1.0,0.3081759625347331,0,6,5,1,0,3,7,nan,nan,nan,nan,nan,nan,nan,nan,nan,nan,nan,nan,0.0,nan,nan,nan,nan,nan,nan,nan,nan,nan,nan,nan,nan,nan,nan,nan,nan,nan,nan,238.54587412939873,797.9927423039917,nan,798.3009182665264,nan,nan,nan,nan
1,370,0,0,1.0,0.0,0.3000176474452019,0,8,3,2,1,4,0,nan,nan,nan,nan,nan,nan,nan,nan,nan,nan,nan,nan,0.0,nan,nan,nan,nan,nan,nan,nan,nan,nan,nan,nan,nan,nan,nan,nan,nan,nan,nan,238.54587412939873,798.992878009798,nan,799.2928956572432,nan,nan,nan,nan
1,371,1,1,1.0,1.0,0.40385883522685617,0,4,6,7,2,1,8,nan,nan,nan,nan,nan,nan,nan,nan,nan,nan,nan,nan,0.0,nan,nan,nan,nan,nan,nan,nan,nan,nan,nan,nan,nan,nan,nan,nan,nan,nan,nan,238.54587412939873,799.9930151411099,nan,800.3968739763368,nan,nan,nan,nan
1,372,1,1,1.0,1.0,0.3156990831485018,0,6,2,8,1,3,5,nan,nan,nan,nan,nan,nan,nan,nan,nan,nan,nan,nan,0.0,nan,nan,nan,nan,nan,nan,nan,nan,nan,nan,nan,nan,nan,nan,nan,nan,nan,nan,238.54587412939873,800.9931411537109,nan,801.3088402368594,nan,nan,nan,nan
1,373,1,1,1.0,1.0,0.3235785741126165,0,3,1,5,6,8,0,nan,nan,nan,nan,nan,nan,nan,nan,nan,nan,nan,nan,0.0,nan,nan,nan,nan,nan,nan,nan,nan,nan,nan,nan,nan,nan,nan,nan,nan,nan,nan,238.54587412939873,801.9932514859829,nan,802.3168300600955,nan,nan,nan,nan
1,374,1,1,1.0,1.0,0.37142029544338584,0,2,4,8,0,3,5,nan,nan,nan,nan,nan,nan,nan,nan,nan,nan,nan,nan,0.0,nan,nan,nan,nan,nan,nan,nan,nan,nan,nan,nan,nan,nan,nan,nan,nan,nan,nan,238.54587412939873,802.9933894725982,nan,803.3648097680416,nan,nan,nan,nan
1,375,1,1,1.0,1.0,0.38726167019922286,0,8,3,2,4,1,0,nan,nan,nan,nan,nan,nan,nan,nan,nan,nan,nan,nan,0.0,nan,nan,nan,nan,nan,nan,nan,nan,nan,nan,nan,nan,nan,nan,nan,nan,nan,nan,238.54587412939873,803.9935251784045,nan,804.3807868486037,nan,nan,nan,nan
1,376,0,0,0.0,1.0,0.531089891679585,0,2,0,6,8,7,1,nan,nan,nan,nan,nan,nan,nan,nan,nan,nan,nan,nan,0.0,nan,nan,nan,nan,nan,nan,nan,nan,nan,nan,nan,nan,nan,nan,nan,nan,nan,nan,238.54587412939873,804.9936486250954,nan,805.524738516775,nan,nan,nan,nan
1,377,1,1,1.0,1.0,0.29094189254101366,0,7,5,3,1,6,4,nan,nan,nan,nan,nan,nan,nan,nan,nan,nan,nan,nan,0.0,nan,nan,nan,nan,nan,nan,nan,nan,nan,nan,nan,nan,nan,nan,nan,nan,nan,nan,238.54587412939873,805.9937829053961,nan,806.2847247979371,nan,nan,nan,nan
1,378,1,1,1.0,1.0,0.290798774221912,1,0,6,1,8,3,5,1.0,1.0,1.0,1.0,1.0,1.0,1.0,0.0,0.0,0.0,0.0,0.0,1.0,0.0,8.0,8.0,6.0,8.0,8.0,1.0,6.0,5.0,2.0,3.0,4.0,1.8929814143339172,9.803838650346734,9.060340057127178,4.852648558677174,7.317436174838804,8.109042769297957,238.54587412939873,806.9939020756865,807.8023247889942,807.2847008499084,818.653703528922,819.6593122279737,808.810801271582,818.645369594451
1,379,1,1,1.0,1.0,0.6221869906876236,0,2,0,4,5,7,6,nan,nan,nan,nan,nan,nan,nan,nan,nan,nan,nan,nan,0.0,nan,nan,nan,nan,nan,nan,nan,nan,nan,nan,nan,nan,nan,nan,nan,nan,nan,nan,238.54587412939873,819.8622229469474,nan,820.4844099376351,nan,nan,nan,nan
1,380,1,1,1.0,1.0,0.31802147743292153,0,5,2,3,6,1,8,nan,nan,nan,nan,nan,nan,nan,nan,nan,nan,nan,nan,0.0,nan,nan,nan,nan,nan,nan,nan,nan,nan,nan,nan,nan,nan,nan,nan,nan,nan,nan,238.54587412939873,820.8623515253421,nan,821.180373002775,nan,nan,nan,nan
1,381,1,1,1.0,1.0,0.3018716286169365,0,1,5,0,7,2,4,nan,nan,nan,nan,nan,nan,nan,nan,nan,nan,nan,nan,0.0,nan,nan,nan,nan,nan,nan,nan,nan,nan,nan,nan,nan,nan,nan,nan,nan,nan,nan,238.54587412939873,821.8624766826397,nan,822.1643483112566,nan,nan,nan,nan
1,382,1,1,nan,nan,nan,0,4,1,3,5,6,7,nan,nan,nan,nan,nan,nan,nan,nan,nan,nan,nan,nan,0.0,nan,nan,nan,nan,nan,nan,nan,nan,nan,nan,nan,nan,nan,nan,nan,nan,nan,nan,238.54587412939873,822.8626004144317,nan,nan,nan,nan,nan,nan
