block,trial,freq_trials,correct_response,actual_response,acc,rts,probe_trials,fast_rt_trigger,slow_rt_trigger,rt_triggered,rts_runningavg,rts_runningstd,rts_runningfastthresh,rts_runningslowthresh,rts_runningstd,rts_trailingavg,trials_colorind0,trials_colorind1,trials_colorind2,trials_colorind3,trials_colorind4,trials_colorind5,wholereport_resp0,wholereport_resp1,wholereport_resp2,wholereport_resp3,wholereport_resp4,wholereport_resp5,wholereport_respacc0,wholereport_respacc1,wholereport_respacc2,wholereport_respacc3,wholereport_respacc4,wholereport_respacc5,wholereport_respacc_total,wholereport_respcolorind0,wholereport_respcolorind1,wholereport_respcolorind2,wholereport_respcolorind3,wholereport_respcolorind4,wholereport_respcolorind5,wholereport_resporder0,wholereport_resporder1,wholereport_resporder2,wholereport_resporder3,wholereport_resporder4,wholereport_resporder5,wholereport_rts0,wholereport_rts1,wholereport_rts2,wholereport_rts3,wholereport_rts4,wholereport_rts5,time_blockstart,time_encarray_offset,time_encarray_onset,time_response,time_iti_offset,time_iti_onset,time_memprobe_offset,time_memprobe_onset
1,1,1,1,1.0,1.0,0.28154004010139033,0,nan,nan,nan,nan,nan,nan,nan,nan,nan,6,8,1,5,3,7,nan,nan,nan,nan,nan,nan,nan,nan,nan,nan,nan,nan,0.0,nan,nan,nan,nan,nan,nan,nan,nan,nan,nan,nan,nan,nan,nan,nan,nan,nan,nan,1497.134099498915,1498.1485241890769,nan,1498.4300642291782,nan,nan,nan,nan
1,2,1,1,1.0,1.0,0.36817370977951214,0,nan,nan,nan,nan,nan,nan,nan,nan,nan,2,3,0,4,5,1,nan,nan,nan,nan,nan,nan,nan,nan,nan,nan,nan,nan,0.0,nan,nan,nan,nan,nan,nan,nan,nan,nan,nan,nan,nan,nan,nan,nan,nan,nan,nan,1497.134099498915,1499.1738506447873,nan,1499.5420243545668,nan,nan,nan,nan
1,3,1,1,1.0,1.0,0.2235148450708948,0,nan,nan,nan,nan,nan,nan,nan,nan,nan,6,5,4,2,7,3,nan,nan,nan,nan,nan,nan,nan,nan,nan,nan,nan,nan,0.0,nan,nan,nan,nan,nan,nan,nan,nan,nan,nan,nan,nan,nan,nan,nan,nan,nan,nan,1497.134099498915,1500.1905159002054,nan,1500.4140307452762,nan,nan,nan,nan
1,4,1,1,1.0,1.0,0.15074793371604756,0,nan,nan,nan,nan,nan,nan,nan,nan,nan,8,1,2,4,6,5,nan,nan,nan,nan,nan,nan,nan,nan,nan,nan,nan,nan,0.0,nan,nan,nan,nan,nan,nan,nan,nan,nan,nan,nan,nan,nan,nan,nan,nan,nan,nan,1497.134099498915,1501.2072552804602,nan,1501.3580032141763,nan,nan,nan,nan
1,5,1,1,1.0,1.0,0.07791830133646727,0,nan,nan,nan,nan,nan,nan,nan,nan,nan,0,6,5,3,2,7,nan,nan,nan,nan,nan,nan,nan,nan,nan,nan,nan,nan,0.0,nan,nan,nan,nan,nan,nan,nan,nan,nan,nan,nan,nan,nan,nan,nan,nan,nan,nan,1497.134099498915,1502.2240508245304,nan,1502.301969125867,nan,nan,nan,nan
1,6,1,1,1.0,1.0,0.18078559200512245,0,nan,nan,nan,nan,nan,nan,nan,nan,nan,3,7,0,8,1,5,nan,nan,nan,nan,nan,nan,nan,nan,nan,nan,nan,nan,0.0,nan,nan,nan,nan,nan,nan,nan,nan,nan,nan,nan,nan,nan,nan,nan,nan,nan,nan,1497.134099498915,1503.249161748041,nan,1503.429947340046,nan,nan,nan,nan
1,7,0,0,1.0,0.0,0.16393502446589991,0,nan,nan,0.0,nan,nan,nan,nan,nan,nan,7,4,6,2,8,3,nan,nan,nan,nan,nan,nan,nan,nan,nan,nan,nan,nan,0.0,nan,nan,nan,nan,nan,nan,nan,nan,nan,nan,nan,nan,nan,nan,nan,nan,nan,nan,1497.134099498915,1504.265987227147,nan,1504.4299222516129,nan,nan,nan,nan
1,8,1,1,1.0,1.0,0.17882841161917895,0,nan,nan,nan,nan,nan,nan,nan,nan,nan,3,2,0,5,4,8,nan,nan,nan,nan,nan,nan,nan,nan,nan,nan,nan,nan,0.0,nan,nan,nan,nan,nan,nan,nan,nan,nan,nan,nan,nan,nan,nan,nan,nan,nan,nan,1497.134099498915,1505.2910659348709,nan,1505.46989434649,nan,nan,nan,nan
1,9,1,1,1.0,1.0,0.1699474027263932,0,nan,nan,nan,nan,nan,nan,nan,nan,nan,8,5,2,3,6,1,nan,nan,nan,nan,nan,nan,nan,nan,nan,nan,nan,nan,0.0,nan,nan,nan,nan,nan,nan,nan,nan,nan,nan,nan,nan,nan,nan,nan,nan,nan,nan,1497.134099498915,1506.3079176427564,nan,1506.4778650454828,nan,nan,nan,nan
1,10,1,1,1.0,1.0,0.19317926204530522,0,nan,nan,nan,nan,nan,nan,nan,nan,nan,4,2,3,7,5,6,nan,nan,nan,nan,nan,nan,nan,nan,nan,nan,nan,nan,0.0,nan,nan,nan,nan,nan,nan,nan,nan,nan,nan,nan,nan,nan,nan,nan,nan,nan,nan,1497.134099498915,1507.324667286477,nan,1507.5178465485224,nan,nan,nan,nan
1,11,1,1,1.0,1.0,0.1763332560658455,0,nan,nan,nan,nan,nan,nan,nan,nan,nan,5,1,7,6,4,8,nan,nan,nan,nan,nan,nan,nan,nan,nan,nan,nan,nan,0.0,nan,nan,nan,nan,nan,nan,nan,nan,nan,nan,nan,nan,nan,nan,nan,nan,nan,nan,1497.134099498915,1508.3414864934748,nan,1508.5178197495406,nan,nan,nan,nan
1,12,1,1,1.0,1.0,0.17520313762361184,0,nan,nan,nan,nan,nan,nan,nan,nan,nan,6,5,2,8,7,4,nan,nan,nan,nan,nan,nan,nan,nan,nan,nan,nan,nan,0.0,nan,nan,nan,nan,nan,nan,nan,nan,nan,nan,nan,nan,nan,nan,nan,nan,nan,nan,1497.134099498915,1509.36659399583,nan,1509.5417971334537,nan,nan,nan,nan
1,13,1,1,1.0,1.0,0.18235789344180375,0,nan,nan,nan,nan,nan,nan,nan,nan,nan,3,8,0,4,1,5,nan,nan,nan,nan,nan,nan,nan,nan,nan,nan,nan,nan,0.0,nan,nan,nan,nan,nan,nan,nan,nan,nan,nan,nan,nan,nan,nan,nan,nan,nan,nan,1497.134099498915,1510.3834094965714,nan,1510.5657673900132,nan,nan,nan,nan
1,14,0,0,1.0,0.0,0.16519571660319343,0,nan,nan,0.0,nan,nan,nan,nan,nan,nan,0,1,7,6,5,8,nan,nan,nan,nan,nan,nan,nan,nan,nan,nan,nan,nan,0.0,nan,nan,nan,nan,nan,nan,nan,nan,nan,nan,nan,nan,nan,nan,nan,nan,nan,nan,1497.134099498915,1511.4085346749052,nan,1511.5737303915084,nan,nan,nan,nan
1,15,1,1,1.0,1.0,0.10803892236435786,0,nan,nan,nan,nan,nan,nan,nan,nan,nan,1,2,8,5,3,4,nan,nan,nan,nan,nan,nan,nan,nan,nan,nan,nan,nan,0.0,nan,nan,nan,nan,nan,nan,nan,nan,nan,nan,nan,nan,nan,nan,nan,nan,nan,nan,1497.134099498915,1512.4336607084842,nan,1512.5416996308486,nan,nan,nan,nan
1,16,1,1,1.0,1.0,0.05922202573856339,0,nan,nan,nan,nan,nan,nan,nan,nan,nan,2,0,4,3,7,8,nan,nan,nan,nan,nan,nan,nan,nan,nan,nan,nan,nan,0.0,nan,nan,nan,nan,nan,nan,nan,nan,nan,nan,nan,nan,nan,nan,nan,nan,nan,nan,1497.134099498915,1513.4504650905146,nan,1513.5096871162532,nan,nan,nan,nan
1,17,1,1,1.0,1.0,0.12208358029602095,0,nan,nan,nan,nan,nan,nan,nan,nan,nan,0,7,1,6,2,5,nan,nan,nan,nan,nan,nan,nan,nan,nan,nan,nan,nan,0.0,nan,nan,nan,nan,nan,nan,nan,nan,nan,nan,nan,nan,nan,nan,nan,nan,nan,nan,1497.134099498915,1514.4755768692703,nan,1514.5976604495663,nan,nan,nan,nan
1,18,1,1,1.0,1.0,0.17692996084224433,1,nan,nan,nan,nan,nan,nan,nan,nan,nan,1,6,7,0,5,4,1.0,1.0,1.0,1.0,1.0,1.0,0.0,1.0,1.0,1.0,0.0,1.0,4.0,5.0,6.0,7.0,0.0,3.0,4.0,3.0,1.0,2.0,4.0,5.0,6.0,3.4750009764684364,1.3887174039846286,2.21030551684089,4.946277750830632,6.266218154458329,7.001913560787216,1497.134099498915,1515.500701762503,1516.309112762974,1515.6776317233453,1524.3684416995384,1525.3749435867649,1517.3259071666398,1524.3601072187303
1,19,1,1,1.0,1.0,0.6757569355540909,0,nan,nan,nan,nan,nan,nan,nan,nan,nan,0,7,6,4,3,8,nan,nan,nan,nan,nan,nan,nan,nan,nan,nan,nan,nan,0.0,nan,nan,nan,nan,nan,nan,nan,nan,nan,nan,nan,nan,nan,nan,nan,nan,nan,nan,1497.134099498915,1525.5936123791034,nan,1526.2693693146575,nan,nan,nan,nan
1,20,1,1,1.0,1.0,0.29890577506739646,0,nan,nan,nan,nan,nan,nan,nan,nan,nan,7,8,1,3,4,2,nan,nan,nan,nan,nan,nan,nan,nan,nan,nan,nan,nan,0.0,nan,nan,nan,nan,nan,nan,nan,nan,nan,nan,nan,nan,nan,nan,nan,nan,nan,nan,1497.134099498915,1526.610436717805,nan,1526.9093424928724,nan,nan,nan,nan
1,21,1,1,1.0,1.0,0.16980399971362203,0,nan,nan,nan,nan,nan,nan,nan,nan,nan,6,1,2,8,5,3,nan,nan,nan,nan,nan,nan,nan,nan,nan,nan,nan,nan,0.0,nan,nan,nan,nan,nan,nan,nan,nan,nan,nan,nan,nan,nan,nan,nan,nan,nan,nan,1497.134099498915,1527.6355154255289,nan,1527.8053194252425,nan,nan,nan,nan
1,22,1,1,1.0,1.0,0.3925485168583691,0,nan,nan,nan,nan,nan,nan,nan,nan,nan,1,0,8,2,7,6,nan,nan,nan,nan,nan,nan,nan,nan,nan,nan,nan,nan,0.0,nan,nan,nan,nan,nan,nan,nan,nan,nan,nan,nan,nan,nan,nan,nan,nan,nan,nan,1497.134099498915,1528.6606867892551,nan,1529.0532353061135,nan,nan,nan,nan
1,23,1,1,1.0,1.0,0.22377399686956778,0,nan,nan,nan,nan,nan,nan,nan,nan,nan,7,1,5,0,6,4,nan,nan,nan,nan,nan,nan,nan,nan,nan,nan,nan,nan,0.0,nan,nan,nan,nan,nan,nan,nan,nan,nan,nan,nan,nan,nan,nan,nan,nan,nan,nan,1497.134099498915,1529.6774863246828,nan,1529.9012603215524,nan,nan,nan,nan
1,24,1,1,1.0,1.0,0.07095142343314365,0,nan,nan,nan,nan,nan,nan,nan,nan,nan,2,0,3,8,7,6,nan,nan,nan,nan,nan,nan,nan,nan,nan,nan,nan,nan,0.0,nan,nan,nan,nan,nan,nan,nan,nan,nan,nan,nan,nan,nan,nan,nan,nan,nan,nan,1497.134099498915,1530.694284719706,nan,1530.7652361431392,nan,nan,nan,nan
1,25,1,1,1.0,1.0,0.16585229145130143,0,nan,nan,nan,nan,nan,nan,nan,nan,nan,7,2,4,1,8,5,nan,nan,nan,nan,nan,nan,nan,nan,nan,nan,nan,nan,0.0,nan,nan,nan,nan,nan,nan,nan,nan,nan,nan,nan,nan,nan,nan,nan,nan,nan,nan,1497.134099498915,1531.7193768269499,nan,1531.8852291184012,nan,nan,nan,nan
1,26,1,1,1.0,1.0,0.19665714161237702,0,nan,nan,nan,nan,nan,nan,nan,nan,nan,5,6,8,2,0,7,nan,nan,nan,nan,nan,nan,nan,nan,nan,nan,nan,nan,0.0,nan,nan,nan,nan,nan,nan,nan,nan,nan,nan,nan,nan,nan,nan,nan,nan,nan,nan,1497.134099498915,1532.7445191109437,nan,1532.941176252556,nan,nan,nan,nan
1,27,1,1,1.0,1.0,0.10750465345336124,0,nan,nan,nan,nan,nan,nan,nan,nan,nan,3,7,1,6,2,4,nan,nan,nan,nan,nan,nan,nan,nan,nan,nan,nan,nan,0.0,nan,nan,nan,nan,nan,nan,nan,nan,nan,nan,nan,nan,nan,nan,nan,nan,nan,nan,1497.134099498915,1533.769651416631,nan,1533.8771560700843,nan,nan,nan,nan
1,28,1,1,1.0,1.0,0.2023573403712362,0,nan,nan,nan,nan,nan,nan,nan,nan,nan,2,8,3,1,6,0,nan,nan,nan,nan,nan,nan,nan,nan,nan,nan,nan,nan,0.0,nan,nan,nan,nan,nan,nan,nan,nan,nan,nan,nan,nan,nan,nan,nan,nan,nan,nan,1497.134099498915,1534.7947623401415,nan,1534.9971196805127,nan,nan,nan,nan
1,29,1,1,1.0,1.0,0.2015014837961644,0,nan,nan,nan,nan,nan,nan,nan,nan,nan,8,0,4,7,2,5,nan,nan,nan,nan,nan,nan,nan,nan,nan,nan,nan,nan,0.0,nan,nan,nan,nan,nan,nan,nan,nan,nan,nan,nan,nan,nan,nan,nan,nan,nan,nan,1497.134099498915,1535.8115909553017,nan,1536.0130924390978,nan,nan,nan,nan
1,30,1,1,1.0,1.0,0.20836800802499056,0,nan,nan,nan,nan,nan,nan,nan,nan,nan,0,7,8,4,3,2,nan,nan,nan,nan,nan,nan,nan,nan,nan,nan,nan,nan,0.0,nan,nan,nan,nan,nan,nan,nan,nan,nan,nan,nan,nan,nan,nan,nan,nan,nan,nan,1497.134099498915,1536.8367090062238,nan,1537.0450770142488,nan,nan,nan,nan
1,31,1,1,1.0,1.0,0.2875110795139335,0,nan,nan,nan,nan,nan,nan,nan,nan,nan,5,3,0,6,7,8,nan,nan,nan,nan,nan,nan,nan,nan,nan,nan,nan,nan,0.0,nan,nan,nan,nan,nan,nan,nan,nan,nan,nan,nan,nan,nan,nan,nan,nan,nan,nan,1497.134099498915,1537.8535227963584,nan,1538.1410338758724,nan,nan,nan,nan
1,32,1,1,1.0,1.0,0.19040499808033928,0,nan,nan,nan,nan,nan,nan,nan,nan,nan,2,4,3,1,5,0,nan,nan,nan,nan,nan,nan,nan,nan,nan,nan,nan,nan,0.0,nan,nan,nan,nan,nan,nan,nan,nan,nan,nan,nan,nan,nan,nan,nan,nan,nan,nan,1497.134099498915,1538.8786109122448,nan,1539.069015910325,nan,nan,nan,nan
1,33,1,1,1.0,1.0,0.22958110639592633,0,nan,nan,nan,nan,nan,nan,nan,nan,nan,6,0,4,8,1,3,nan,nan,nan,nan,nan,nan,nan,nan,nan,nan,nan,nan,0.0,nan,nan,nan,nan,nan,nan,nan,nan,nan,nan,nan,nan,nan,nan,nan,nan,nan,nan,1497.134099498915,1539.8954264129861,nan,1540.125007519382,nan,nan,nan,nan
1,34,1,1,1.0,1.0,0.2204583365819417,0,nan,nan,nan,nan,nan,nan,nan,nan,nan,5,3,1,0,6,4,nan,nan,nan,nan,nan,nan,nan,nan,nan,nan,nan,nan,0.0,nan,nan,nan,nan,nan,nan,nan,nan,nan,nan,nan,nan,nan,nan,nan,nan,nan,nan,1497.134099498915,1540.9205039803637,nan,1541.1409623169457,nan,nan,nan,nan
1,35,1,1,1.0,1.0,0.1875999437761493,0,nan,nan,nan,nan,nan,nan,nan,nan,nan,7,1,8,3,4,0,nan,nan,nan,nan,nan,nan,nan,nan,nan,nan,nan,nan,0.0,nan,nan,nan,nan,nan,nan,nan,nan,nan,nan,nan,nan,nan,nan,nan,nan,nan,nan,1497.134099498915,1541.93733829743,nan,1542.124938241206,nan,nan,nan,nan
1,36,1,1,1.0,1.0,0.0504425109247677,0,nan,nan,nan,nan,nan,nan,nan,nan,nan,8,5,7,6,0,3,nan,nan,nan,nan,nan,nan,nan,nan,nan,nan,nan,nan,0.0,nan,nan,nan,nan,nan,nan,nan,nan,nan,nan,nan,nan,nan,nan,nan,nan,nan,nan,1497.134099498915,1542.962467467063,nan,1543.0129099779879,nan,nan,nan,nan
1,37,1,1,1.0,1.0,0.06560958974296227,0,nan,nan,nan,nan,nan,nan,nan,nan,nan,4,2,6,5,3,7,nan,nan,nan,nan,nan,nan,nan,nan,nan,nan,nan,nan,0.0,nan,nan,nan,nan,nan,nan,nan,nan,nan,nan,nan,nan,nan,nan,nan,nan,nan,nan,1497.134099498915,1543.9792729894398,nan,1544.0448825791827,nan,nan,nan,nan
1,38,1,1,1.0,1.0,0.17678741313284263,0,nan,nan,nan,nan,nan,nan,nan,nan,nan,3,0,7,2,6,1,nan,nan,nan,nan,nan,nan,nan,nan,nan,nan,nan,nan,0.0,nan,nan,nan,nan,nan,nan,nan,nan,nan,nan,nan,nan,nan,nan,nan,nan,nan,nan,1497.134099498915,1544.9960691037122,nan,1545.172856516845,nan,nan,nan,nan
1,39,1,1,1.0,1.0,0.2559732489171438,0,nan,nan,nan,nan,nan,nan,nan,nan,nan,5,2,1,7,4,0,nan,nan,nan,nan,nan,nan,nan,nan,nan,nan,nan,nan,0.0,nan,nan,nan,nan,nan,nan,nan,nan,nan,nan,nan,nan,nan,nan,nan,nan,nan,nan,1497.134099498915,1546.0128538141726,nan,1546.2688270630897,nan,nan,nan,nan
1,40,0,0,1.0,0.0,0.19883384549757466,0,nan,nan,0.0,nan,nan,nan,nan,nan,nan,4,5,2,3,0,6,nan,nan,nan,nan,nan,nan,nan,nan,nan,nan,nan,nan,0.0,nan,nan,nan,nan,nan,nan,nan,nan,nan,nan,nan,nan,nan,nan,nan,nan,nan,nan,1497.134099498915,1547.0379641674808,nan,1547.2367980129784,nan,nan,nan,nan
1,41,1,1,1.0,1.0,0.2380153706180863,0,nan,nan,nan,nan,nan,nan,nan,nan,nan,6,7,0,5,4,2,nan,nan,nan,nan,nan,nan,nan,nan,nan,nan,nan,nan,0.0,nan,nan,nan,nan,nan,nan,nan,nan,nan,nan,nan,nan,nan,nan,nan,nan,nan,nan,1497.134099498915,1548.0547605668544,nan,1548.2927759374725,nan,nan,nan,nan
1,42,1,1,1.0,1.0,0.1971820024191402,0,nan,nan,nan,nan,nan,nan,nan,nan,nan,2,4,7,3,0,5,nan,nan,nan,nan,nan,nan,nan,nan,nan,nan,nan,nan,0.0,nan,nan,nan,nan,nan,nan,nan,nan,nan,nan,nan,nan,nan,nan,nan,nan,nan,nan,1497.134099498915,1549.0715752122924,nan,1549.2687572147115,nan,nan,nan,nan
1,43,1,1,1.0,1.0,0.1563623187248595,0,nan,nan,nan,nan,nan,nan,nan,nan,nan,0,1,8,2,7,3,nan,nan,nan,nan,nan,nan,nan,nan,nan,nan,nan,nan,0.0,nan,nan,nan,nan,nan,nan,nan,nan,nan,nan,nan,nan,nan,nan,nan,nan,nan,nan,1497.134099498915,1550.088369045814,nan,1550.244731364539,nan,nan,nan,nan
1,44,1,1,1.0,1.0,0.17154450755333528,0,nan,nan,nan,nan,nan,nan,nan,nan,nan,7,4,2,0,3,5,nan,nan,nan,nan,nan,nan,nan,nan,nan,nan,nan,nan,0.0,nan,nan,nan,nan,nan,nan,nan,nan,nan,nan,nan,nan,nan,nan,nan,nan,nan,nan,1497.134099498915,1551.1051466288627,nan,1551.276691136416,nan,nan,nan,nan
1,45,0,0,1.0,0.0,0.22672387963393703,0,nan,nan,0.0,nan,nan,nan,nan,nan,nan,3,7,8,2,5,6,nan,nan,nan,nan,nan,nan,nan,nan,nan,nan,nan,nan,0.0,nan,nan,nan,nan,nan,nan,nan,nan,nan,nan,nan,nan,nan,nan,nan,nan,nan,nan,1497.134099498915,1552.1219524363987,nan,1552.3486763160327,nan,nan,nan,nan
1,46,1,1,1.0,1.0,0.0898982979124412,0,nan,nan,nan,nan,nan,nan,nan,nan,nan,0,8,3,7,4,5,nan,nan,nan,nan,nan,nan,nan,nan,nan,nan,nan,nan,0.0,nan,nan,nan,nan,nan,nan,nan,nan,nan,nan,nan,nan,nan,nan,nan,nan,nan,nan,1497.134099498915,1553.1387494059163,nan,1553.2286477038288,nan,nan,nan,nan
1,47,1,1,1.0,1.0,0.04109565610997379,0,nan,nan,nan,nan,nan,nan,nan,nan,nan,5,6,2,3,7,8,nan,nan,nan,nan,nan,nan,nan,nan,nan,nan,nan,nan,0.0,nan,nan,nan,nan,nan,nan,nan,nan,nan,nan,nan,nan,nan,nan,nan,nan,nan,nan,1497.134099498915,1554.1555224274634,nan,1554.1966180835734,nan,nan,nan,nan
1,48,1,1,1.0,1.0,0.1839341862942092,0,nan,nan,nan,nan,nan,nan,nan,nan,nan,1,4,6,8,0,5,nan,nan,nan,nan,nan,nan,nan,nan,nan,nan,nan,nan,0.0,nan,nan,nan,nan,nan,nan,nan,nan,nan,nan,nan,nan,nan,nan,nan,nan,nan,nan,1497.134099498915,1555.180660720158,nan,1555.364594906452,nan,nan,nan,nan
1,49,1,1,1.0,1.0,0.19111517089186236,0,nan,nan,nan,nan,nan,nan,nan,nan,nan,6,0,7,2,3,8,nan,nan,nan,nan,nan,nan,nan,nan,nan,nan,nan,nan,0.0,nan,nan,nan,nan,nan,nan,nan,nan,nan,nan,nan,nan,nan,nan,nan,nan,nan,nan,1497.134099498915,1556.19745883008,nan,1556.3885740009719,nan,nan,nan,nan
1,50,0,0,0.0,1.0,0.3662769696675241,0,nan,nan,nan,nan,nan,nan,nan,nan,nan,5,3,4,6,7,2,nan,nan,nan,nan,nan,nan,nan,nan,nan,nan,nan,nan,0.0,nan,nan,nan,nan,nan,nan,nan,nan,nan,nan,nan,nan,nan,nan,nan,nan,nan,nan,1497.134099498915,1557.2142612164607,nan,1557.5805381861283,nan,nan,nan,nan
1,51,1,1,1.0,1.0,0.2614773020031862,0,nan,nan,nan,nan,nan,nan,nan,nan,nan,6,1,5,2,0,7,nan,nan,nan,nan,nan,nan,nan,nan,nan,nan,nan,nan,0.0,nan,nan,nan,nan,nan,nan,nan,nan,nan,nan,nan,nan,nan,nan,nan,nan,nan,nan,1497.134099498915,1558.2310313869966,nan,1558.4925086889998,nan,nan,nan,nan
1,52,1,1,1.0,1.0,0.2286474187276326,0,nan,nan,nan,nan,nan,nan,nan,nan,nan,1,7,0,5,6,8,nan,nan,nan,nan,nan,nan,nan,nan,nan,nan,nan,nan,0.0,nan,nan,nan,nan,nan,nan,nan,nan,nan,nan,nan,nan,nan,nan,nan,nan,nan,nan,1497.134099498915,1559.2478377647349,nan,1559.4764851834625,nan,nan,nan,nan
1,53,1,1,1.0,1.0,0.21183819003636017,0,nan,nan,nan,nan,nan,nan,nan,nan,nan,2,0,3,4,5,7,nan,nan,nan,nan,nan,nan,nan,nan,nan,nan,nan,nan,0.0,nan,nan,nan,nan,nan,nan,nan,nan,nan,nan,nan,nan,nan,nan,nan,nan,nan,nan,1497.134099498915,1560.2646364448592,nan,1560.4764746348956,nan,nan,nan,nan
1,54,1,1,1.0,1.0,0.20299737964523956,0,nan,nan,nan,nan,nan,nan,nan,nan,nan,4,1,5,2,8,0,nan,nan,nan,nan,nan,nan,nan,nan,nan,nan,nan,nan,0.0,nan,nan,nan,nan,nan,nan,nan,nan,nan,nan,nan,nan,nan,nan,nan,nan,nan,nan,1497.134099498915,1561.2814294230775,nan,1561.4844268027227,nan,nan,nan,nan
1,55,1,1,1.0,1.0,0.09018881019437686,0,nan,nan,nan,nan,nan,nan,nan,nan,nan,7,8,3,4,0,1,nan,nan,nan,nan,nan,nan,nan,nan,nan,nan,nan,nan,0.0,nan,nan,nan,nan,nan,nan,nan,nan,nan,nan,nan,nan,nan,nan,nan,nan,nan,nan,1497.134099498915,1562.3065360701294,nan,1562.3967248803237,nan,nan,nan,nan
1,56,1,1,1.0,1.0,0.18504292255965993,0,nan,nan,nan,nan,nan,nan,nan,nan,nan,4,2,0,5,8,3,nan,nan,nan,nan,nan,nan,nan,nan,nan,nan,nan,nan,0.0,nan,nan,nan,nan,nan,nan,nan,nan,nan,nan,nan,nan,nan,nan,nan,nan,nan,nan,1497.134099498915,1563.3233470093692,nan,1563.5083899319288,nan,nan,nan,nan
1,57,1,1,1.0,1.0,0.20021456282120198,1,nan,nan,nan,nan,nan,nan,nan,nan,nan,5,1,3,4,0,7,1.0,1.0,1.0,1.0,1.0,1.0,1.0,1.0,1.0,1.0,0.0,0.0,4.0,5.0,1.0,3.0,4.0,8.0,6.0,2.0,1.0,4.0,5.0,6.0,3.0,2.2022025335463695,1.2911711351480335,5.121525078313425,6.177401508786716,7.193218890344724,3.2670095795183443,1497.134099498915,1564.3401314347284,1565.1485381587408,1564.5403459975496,1573.3995627205586,1574.4045042803045,1566.1653388345148,1573.3912273844471
1,58,1,1,1.0,1.0,0.2673146316665225,0,nan,nan,nan,nan,nan,nan,nan,nan,nan,6,3,1,8,2,0,nan,nan,nan,nan,nan,nan,nan,nan,nan,nan,nan,nan,0.0,nan,nan,nan,nan,nan,nan,nan,nan,nan,nan,nan,nan,nan,nan,nan,nan,nan,nan,1497.134099498915,1574.624798686942,nan,1574.8921133186086,nan,nan,nan,nan
1,59,1,1,1.0,1.0,0.22619103617034853,0,nan,nan,nan,nan,nan,nan,nan,nan,nan,3,8,6,5,7,4,nan,nan,nan,nan,nan,nan,nan,nan,nan,nan,nan,nan,0.0,nan,nan,nan,nan,nan,nan,nan,nan,nan,nan,nan,nan,nan,nan,nan,nan,nan,nan,1497.134099498915,1575.6498765394208,nan,1575.8760675755912,nan,nan,nan,nan
1,60,1,1,1.0,1.0,0.16907700628507882,0,nan,nan,nan,nan,nan,nan,nan,nan,nan,6,2,1,7,4,5,nan,nan,nan,nan,nan,nan,nan,nan,nan,nan,nan,nan,0.0,nan,nan,nan,nan,nan,nan,nan,nan,nan,nan,nan,nan,nan,nan,nan,nan,nan,nan,1497.134099498915,1576.674970072112,nan,1576.8440470783971,nan,nan,nan,nan
1,61,1,1,1.0,1.0,0.0002283614594489336,0,nan,nan,nan,nan,nan,nan,nan,nan,nan,7,5,6,1,0,3,nan,nan,nan,nan,nan,nan,nan,nan,nan,nan,nan,nan,0.0,nan,nan,nan,nan,nan,nan,nan,nan,nan,nan,nan,nan,nan,nan,nan,nan,nan,nan,1497.134099498915,1577.6917838623049,nan,1577.6920122237643,nan,nan,nan,nan
1,62,1,1,1.0,1.0,0.19103819510200992,0,nan,nan,nan,nan,nan,nan,nan,nan,nan,5,0,4,3,6,1,nan,nan,nan,nan,nan,nan,nan,nan,nan,nan,nan,nan,0.0,nan,nan,nan,nan,nan,nan,nan,nan,nan,nan,nan,nan,nan,nan,nan,nan,nan,nan,1497.134099498915,1578.7169232953456,nan,1578.9079614904476,nan,nan,nan,nan
1,63,1,1,1.0,1.0,0.19820578017970547,0,nan,nan,nan,nan,nan,nan,nan,nan,nan,7,5,8,4,3,0,nan,nan,nan,nan,nan,nan,nan,nan,nan,nan,nan,nan,0.0,nan,nan,nan,nan,nan,nan,nan,nan,nan,nan,nan,nan,nan,nan,nan,nan,nan,nan,1497.134099498915,1579.7337544763577,nan,1579.9319602565374,nan,nan,nan,nan
1,64,1,1,1.0,1.0,0.1970730958855711,0,nan,nan,nan,nan,nan,nan,nan,nan,nan,4,0,1,2,7,6,nan,nan,nan,nan,nan,nan,nan,nan,nan,nan,nan,nan,0.0,nan,nan,nan,nan,nan,nan,nan,nan,nan,nan,nan,nan,nan,nan,nan,nan,nan,nan,1497.134099498915,1580.7588491494535,nan,1580.955922245339,nan,nan,nan,nan
1,65,1,1,1.0,1.0,0.2119183019385673,0,nan,nan,nan,nan,nan,nan,nan,nan,nan,6,2,8,3,4,0,nan,nan,nan,nan,nan,nan,nan,nan,nan,nan,nan,nan,0.0,nan,nan,nan,nan,nan,nan,nan,nan,nan,nan,nan,nan,nan,nan,nan,nan,nan,nan,1497.134099498915,1581.7839794594329,nan,1581.9958977613715,nan,nan,nan,nan
1,66,0,0,1.0,0.0,0.21907904470572248,0,nan,nan,0.0,nan,nan,nan,nan,nan,nan,1,6,4,2,8,5,nan,nan,nan,nan,nan,nan,nan,nan,nan,nan,nan,nan,0.0,nan,nan,nan,nan,nan,nan,nan,nan,nan,nan,nan,nan,nan,nan,nan,nan,nan,nan,1497.134099498915,1582.800788117922,nan,1583.0198671626276,nan,nan,nan,nan
1,67,1,1,1.0,1.0,0.2099300461122766,0,nan,nan,nan,nan,nan,nan,nan,nan,nan,7,5,0,1,6,4,nan,nan,nan,nan,nan,nan,nan,nan,nan,nan,nan,nan,0.0,nan,nan,nan,nan,nan,nan,nan,nan,nan,nan,nan,nan,nan,nan,nan,nan,nan,nan,1497.134099498915,1583.8258970457828,nan,1584.035827091895,nan,nan,nan,nan
1,68,1,1,1.0,1.0,0.20879080466693267,0,nan,nan,nan,nan,nan,nan,nan,nan,nan,6,8,4,5,0,7,nan,nan,nan,nan,nan,nan,nan,nan,nan,nan,nan,nan,0.0,nan,nan,nan,nan,nan,nan,nan,nan,nan,nan,nan,nan,nan,nan,nan,nan,nan,nan,1497.134099498915,1584.8510179475998,nan,1585.0598087522667,nan,nan,nan,nan
1,69,1,1,1.0,1.0,0.20763189159333706,0,nan,nan,nan,nan,nan,nan,nan,nan,nan,7,4,6,0,2,3,nan,nan,nan,nan,nan,nan,nan,nan,nan,nan,nan,nan,0.0,nan,nan,nan,nan,nan,nan,nan,nan,nan,nan,nan,nan,nan,nan,nan,nan,nan,nan,1497.134099498915,1585.8761590912472,nan,1586.0837909828406,nan,nan,nan,nan
1,70,1,1,1.0,1.0,0.23045891529181972,0,nan,nan,nan,nan,nan,nan,nan,nan,nan,1,3,0,4,7,8,nan,nan,nan,nan,nan,nan,nan,nan,nan,nan,nan,nan,0.0,nan,nan,nan,nan,nan,nan,nan,nan,nan,nan,nan,nan,nan,nan,nan,nan,nan,nan,1497.134099498915,1586.9012956733932,nan,1587.131754588685,nan,nan,nan,nan
1,71,1,1,1.0,1.0,0.22932195459725335,0,nan,nan,nan,nan,nan,nan,nan,nan,nan,4,0,2,8,5,6,nan,nan,nan,nan,nan,nan,nan,nan,nan,nan,nan,nan,0.0,nan,nan,nan,nan,nan,nan,nan,nan,nan,nan,nan,nan,nan,nan,nan,nan,nan,nan,1497.134099498915,1587.9264225622173,nan,1588.1557445168146,nan,nan,nan,nan
1,72,1,1,1.0,1.0,0.26822351600276306,1,nan,nan,nan,nan,nan,nan,nan,nan,nan,2,5,0,4,8,1,1.0,1.0,1.0,1.0,1.0,1.0,0.0,0.0,0.0,1.0,0.0,0.0,1.0,0.0,2.0,5.0,4.0,0.0,6.0,3.0,2.0,1.0,4.0,5.0,6.0,3.6219813735806383,2.541361507610418,1.509976773231756,4.486373149440624,5.205772784014698,6.181378590525128,1497.134099498915,1588.951536621782,1589.759961591917,1589.2197601377848,1596.9941763548995,1597.9903087498387,1590.776747727883,1596.9858415889903
1,73,1,1,1.0,1.0,0.008494419394992292,0,nan,nan,nan,nan,nan,nan,nan,nan,nan,3,1,2,6,4,5,nan,nan,nan,nan,nan,nan,nan,nan,nan,nan,nan,nan,0.0,nan,nan,nan,nan,nan,nan,nan,nan,nan,nan,nan,nan,nan,nan,nan,nan,nan,nan,1497.134099498915,1598.2109991541365,nan,1598.2194935735315,nan,nan,nan,nan
1,74,1,1,1.0,1.0,0.19929028337355703,0,nan,nan,nan,nan,nan,nan,nan,nan,nan,0,8,1,4,2,6,nan,nan,nan,nan,nan,nan,nan,nan,nan,nan,nan,nan,0.0,nan,nan,nan,nan,nan,nan,nan,nan,nan,nan,nan,nan,nan,nan,nan,nan,nan,nan,1497.134099498915,1599.236140867928,nan,1599.4354311513016,nan,nan,nan,nan
1,75,1,1,1.0,1.0,0.2621387234539725,0,nan,nan,nan,nan,nan,nan,nan,nan,nan,2,1,6,5,0,7,nan,nan,nan,nan,nan,nan,nan,nan,nan,nan,nan,nan,0.0,nan,nan,nan,nan,nan,nan,nan,nan,nan,nan,nan,nan,nan,nan,nan,nan,nan,nan,1497.134099498915,1600.2612763096695,nan,1600.5234150331235,nan,nan,nan,nan
1,76,1,1,1.0,1.0,0.2769819337991066,0,nan,nan,nan,nan,nan,nan,nan,nan,nan,7,5,4,3,6,8,nan,nan,nan,nan,nan,nan,nan,nan,nan,nan,nan,nan,0.0,nan,nan,nan,nan,nan,nan,nan,nan,nan,nan,nan,nan,nan,nan,nan,nan,nan,nan,1497.134099498915,1601.2864171682158,nan,1601.563399102015,nan,nan,nan,nan
1,77,1,1,1.0,1.0,0.27622757118660957,1,nan,nan,nan,nan,nan,nan,nan,nan,nan,8,4,2,6,7,1,1.0,1.0,1.0,1.0,1.0,1.0,1.0,0.0,1.0,1.0,0.0,0.0,3.0,8.0,5.0,2.0,6.0,0.0,3.0,3.0,2.0,1.0,4.0,5.0,6.0,3.3729752876679413,2.638502655783668,1.4065512657398358,4.428824919159524,5.148783911019564,5.70877697749529,1497.134099498915,1602.303212712286,1603.1116448098328,1602.5794402834726,1609.8874485865817,1610.8911873285542,1604.1367497463361,1609.8791300710873
1,78,1,1,1.0,1.0,0.22651205369038507,0,nan,nan,nan,nan,nan,nan,nan,nan,nan,5,8,7,3,1,4,nan,nan,nan,nan,nan,nan,nan,nan,nan,nan,nan,nan,0.0,nan,nan,nan,nan,nan,nan,nan,nan,nan,nan,nan,nan,nan,nan,nan,nan,nan,nan,1497.134099498915,1611.1126377973123,nan,1611.3391498510027,nan,nan,nan,nan
1,79,1,1,1.0,1.0,0.22567472828086466,0,nan,nan,nan,nan,nan,nan,nan,nan,nan,2,0,8,5,4,7,nan,nan,nan,nan,nan,nan,nan,nan,nan,nan,nan,nan,0.0,nan,nan,nan,nan,nan,nan,nan,nan,nan,nan,nan,nan,nan,nan,nan,nan,nan,nan,1497.134099498915,1612.1294353370904,nan,1612.3551100653713,nan,nan,nan,nan
1,80,0,0,0.0,1.0,0.43283507198793814,0,nan,nan,nan,nan,nan,nan,nan,nan,nan,6,1,5,7,0,3,nan,nan,nan,nan,nan,nan,nan,nan,nan,nan,nan,nan,0.0,nan,nan,nan,nan,nan,nan,nan,nan,nan,nan,nan,nan,nan,nan,nan,nan,nan,nan,1497.134099498915,1613.14623487246,nan,1613.5790699444478,nan,nan,nan,nan
1,81,1,1,1.0,1.0,0.2960670795291662,0,0.0,0.0,0.0,0.2014538870906108,0.09328752570344817,0.10816636138716262,0.29474141279405897,0.09328752570344817,0.3181922932659897,3,0,8,2,7,1,nan,nan,nan,nan,nan,nan,nan,nan,nan,nan,nan,nan,0.0,nan,nan,nan,nan,nan,nan,nan,nan,nan,nan,nan,nan,nan,nan,nan,nan,nan,nan,1497.134099498915,1614.1629970603972,nan,1614.4590641399263,nan,nan,nan,nan
1,82,1,1,1.0,1.0,0.27922477980609983,0,0.0,0.0,0.0,0.2026219511947905,0.09329669506136676,0.10932525613342375,0.29591864625615727,0.09329669506136676,0.3360423104410681,5,1,4,3,8,2,nan,nan,nan,nan,nan,nan,nan,nan,nan,nan,nan,nan,0.0,nan,nan,nan,nan,nan,nan,nan,nan,nan,nan,nan,nan,nan,nan,nan,nan,nan,nan,1497.134099498915,1615.1798119909363,nan,1615.4590367707424,nan,nan,nan,nan
1,83,0,0,1.0,0.0,0.30207603669259697,0,0.0,0.0,0.0,0.2035561320315138,0.09310645431741497,0.11044967771409882,0.2966625863489288,0.09310645431741497,0.292455965342621,2,5,0,1,7,8,nan,nan,nan,nan,nan,nan,nan,nan,nan,nan,nan,nan,0.0,nan,nan,nan,nan,nan,nan,nan,nan,nan,nan,nan,nan,nan,nan,nan,nan,nan,nan,1497.134099498915,1616.2049328928115,nan,1616.507008929504,nan,nan,nan,nan
1,84,1,1,1.0,1.0,0.27725648070918396,0,0.0,0.0,0.0,0.20474311883465937,0.09316598740140529,0.11157713143325408,0.29790910623606465,0.09316598740140529,0.2861857657359603,0,6,2,4,1,3,nan,nan,nan,nan,nan,nan,nan,nan,nan,nan,nan,nan,0.0,nan,nan,nan,nan,nan,nan,nan,nan,nan,nan,nan,nan,nan,nan,nan,nan,nan,nan,1497.134099498915,1617.2217272964772,nan,1617.4989837771864,nan,nan,nan,nan
1,85,1,1,1.0,1.0,0.26841681072255597,0,0.0,0.0,0.0,0.20560637314268942,0.09294310794923208,0.11266326519345735,0.2985494810919215,0.09294310794923208,0.282583109374779,6,8,3,1,2,7,nan,nan,nan,nan,nan,nan,nan,nan,nan,nan,nan,nan,0.0,nan,nan,nan,nan,nan,nan,nan,nan,nan,nan,nan,nan,nan,nan,nan,nan,nan,nan,1497.134099498915,1618.2385245511541,nan,1618.5069413618767,nan,nan,nan,nan
1,86,1,1,1.0,1.0,0.251561111479532,0,0.0,0.0,0.0,0.20634531946715845,0.092642648545463,0.11370267092169545,0.29898796801262145,0.092642648545463,0.26574480097042397,0,5,4,7,8,2,nan,nan,nan,nan,nan,nan,nan,nan,nan,nan,nan,nan,0.0,nan,nan,nan,nan,nan,nan,nan,nan,nan,nan,nan,nan,nan,nan,nan,nan,nan,nan,1497.134099498915,1619.255371982581,nan,1619.5069330940605,nan,nan,nan,nan
1,87,1,1,1.0,1.0,0.32242871687049046,0,0.0,0.0,0.0,0.20687108449055813,0.09222992142834743,0.1146411630622107,0.29910100591890554,0.09222992142834743,0.2808022130241928,8,2,6,0,7,5,nan,nan,nan,nan,nan,nan,nan,nan,nan,nan,nan,nan,0.0,nan,nan,nan,nan,nan,nan,nan,nan,nan,nan,nan,nan,nan,nan,nan,nan,nan,nan,1497.134099498915,1620.2804965907126,nan,1620.602925307583,nan,nan,nan,nan
1,88,1,1,1.0,1.0,0.2973009726847522,0,0.0,0.0,0.0,0.20819933313860334,0.09252193900166883,0.11567739413693451,0.30072127214027217,0.09252193900166883,0.2904302670115915,2,6,4,5,1,0,nan,nan,nan,nan,nan,nan,nan,nan,nan,nan,nan,nan,0.0,nan,nan,nan,nan,nan,nan,nan,nan,nan,nan,nan,nan,nan,nan,nan,nan,nan,nan,1497.134099498915,1621.3055698816315,nan,1621.6028708543163,nan,nan,nan,nan
1,89,1,1,1.0,1.0,0.28046979173086584,0,0.0,0.0,0.0,0.20921185176980958,0.09247823977504495,0.11673361199476463,0.30169009154485454,0.09247823977504495,0.30006649376203615,4,1,6,0,2,3,nan,nan,nan,nan,nan,nan,nan,nan,nan,nan,nan,nan,0.0,nan,nan,nan,nan,nan,nan,nan,nan,nan,nan,nan,nan,nan,nan,nan,nan,nan,nan,1497.134099498915,1622.3223773996579,nan,1622.6028471913887,nan,nan,nan,nan
1,90,1,1,1.0,1.0,0.1996879915241152,0,0.0,0.0,0.0,0.21001250278060796,0.09226344952181971,0.11774905325878825,0.30227595230242765,0.09226344952181971,0.25915291864657775,5,7,3,2,6,1,nan,nan,nan,nan,nan,nan,nan,nan,nan,nan,nan,nan,0.0,nan,nan,nan,nan,nan,nan,nan,nan,nan,nan,nan,nan,nan,nan,nan,nan,nan,nan,1497.134099498915,1623.3391373068443,nan,1623.5388252983685,nan,nan,nan,nan
1,91,1,1,1.0,1.0,0.20684445789083838,0,0.0,0.0,0.0,0.20989778598886916,0.09175582558617776,0.1181419604026914,0.3016536115750469,0.09175582558617776,0.22900074704860648,0,6,5,8,7,2,nan,nan,nan,nan,nan,nan,nan,nan,nan,nan,nan,nan,0.0,nan,nan,nan,nan,nan,nan,nan,nan,nan,nan,nan,nan,nan,nan,nan,nan,nan,nan,1497.134099498915,1624.3559528075857,nan,1624.5627972654765,nan,nan,nan,nan
1,92,1,1,1.0,1.0,0.33370167668908834,0,0.0,0.0,0.0,0.20986423293284684,0.09125083518955926,0.11861339774328758,0.30111506812240607,0.09125083518955926,0.24674470870134732,5,8,2,4,1,7,nan,nan,nan,nan,nan,nan,nan,nan,nan,nan,nan,nan,0.0,nan,nan,nan,nan,nan,nan,nan,nan,nan,nan,nan,nan,nan,nan,nan,nan,nan,nan,1497.134099498915,1625.3810554633383,nan,1625.7147571400274,nan,nan,nan,nan
1,93,1,1,1.0,1.0,0.3965352918021381,0,0.0,1.0,0.0,0.21121029210411033,0.09165744816169369,0.11955284394241664,0.302867740265804,0.09165744816169369,0.3123604754606883,2,4,8,5,0,6,nan,nan,nan,nan,nan,nan,nan,nan,nan,nan,nan,nan,0.0,nan,nan,nan,nan,nan,nan,nan,nan,nan,nan,nan,nan,nan,nan,nan,nan,nan,nan,1497.134099498915,1626.4062077256967,nan,1626.8027430174989,nan,nan,nan,nan
1,94,1,1,1.0,1.0,0.3473568941699341,1,0.0,0.0,1.0,0.2132030340363472,0.09314551735664996,0.12005751667969723,0.30634855139299716,0.09314551735664996,0.35919795422038686,7,0,3,8,6,1,1.0,1.0,1.0,1.0,1.0,1.0,1.0,1.0,1.0,0.0,0.0,0.0,3.0,7.0,0.0,3.0,1.0,2.0,6.0,2.0,1.0,4.0,5.0,6.0,3.0,1.774499750114046,1.1669188335654326,3.7407829348230734,4.476866641140077,5.164792021387257,2.797662901401054,1497.134099498915,1627.4313480140409,1628.2397487510461,1627.7787049082108,1634.4488528756192,1635.444992683013,1629.2482163715176,1634.4405172544066
1,95,1,1,1.0,1.0,0.23282691824715585,0,0.0,0.0,0.0,0.21463020276117256,0.09366542576852865,0.12096477699264391,0.3082956285297012,0.09366542576852865,0.3255730347397427,5,2,7,4,1,6,nan,nan,nan,nan,nan,nan,nan,nan,nan,nan,nan,nan,0.0,nan,nan,nan,nan,nan,nan,nan,nan,nan,nan,nan,nan,nan,nan,nan,nan,nan,nan,1497.134099498915,1635.66570047813,nan,1635.8985273963772,nan,nan,nan,nan
1,96,1,1,1.0,1.0,0.19198043562937528,0,0.0,0.0,0.0,0.21482174713470925,0.09318965164536845,0.1216320954893408,0.3080113987800777,0.09318965164536845,0.2573880826821551,7,0,5,6,2,4,nan,nan,nan,nan,nan,nan,nan,nan,nan,nan,nan,nan,0.0,nan,nan,nan,nan,nan,nan,nan,nan,nan,nan,nan,nan,nan,nan,nan,nan,nan,nan,1497.134099498915,1636.6825045750593,nan,1636.8744850106887,nan,nan,nan,nan
1,97,0,0,1.0,0.0,0.142908378620632,0,0.0,0.0,0.0,0.2145838168065287,0.09273202051589118,0.12185179629063751,0.30731583732241985,0.09273202051589118,0.18923857749905437,0,8,4,1,5,6,nan,nan,nan,nan,nan,nan,nan,nan,nan,nan,nan,nan,0.0,nan,nan,nan,nan,nan,nan,nan,nan,nan,nan,nan,nan,nan,nan,nan,nan,nan,nan,1497.134099498915,1637.7075889846892,nan,1637.8504973633098,nan,nan,nan,nan
1,98,1,1,1.0,1.0,0.06197205663193017,0,0.0,0.0,0.0,0.2138448947633751,0.09253643797540333,0.12130845678797177,0.30638133273877843,0.09253643797540333,0.13228695696064582,1,3,6,0,7,8,nan,nan,nan,nan,nan,nan,nan,nan,nan,nan,nan,nan,0.0,nan,nan,nan,nan,nan,nan,nan,nan,nan,nan,nan,nan,nan,nan,nan,nan,nan,nan,1497.134099498915,1638.7244506709394,nan,1638.7864227275713,nan,nan,nan,nan
1,99,0,0,1.0,0.0,0.020860150107182562,0,0.0,0.0,0.0,0.21229517192529915,0.09331974091822662,0.11897543100707253,0.30561491284352577,0.09331974091822662,0.07524686178658158,6,4,8,3,2,7,nan,nan,nan,nan,nan,nan,nan,nan,nan,nan,nan,nan,0.0,nan,nan,nan,nan,nan,nan,nan,nan,nan,nan,nan,nan,nan,nan,nan,nan,nan,nan,1497.134099498915,1639.749542207981,nan,1639.7704023580882,nan,nan,nan,nan
1,100,1,1,1.0,1.0,0.14003176533151418,0,0.0,0.0,0.0,0.21036148483622724,0.09480002602836135,0.11556145880786589,0.3051615108645886,0.09480002602836135,0.07428799069020897,1,7,2,8,0,5,nan,nan,nan,nan,nan,nan,nan,nan,nan,nan,nan,nan,0.0,nan,nan,nan,nan,nan,nan,nan,nan,nan,nan,nan,nan,nan,nan,nan,nan,nan,nan,1497.134099498915,1640.7663460198091,nan,1640.9063777851406,nan,nan,nan,nan
1,101,1,1,1.0,1.0,0.2348679166752845,0,0.0,0.0,0.0,0.20965818764118013,0.09458405020477695,0.11507413743640318,0.30424223784595705,0.09458405020477695,0.13191994403799376,3,6,4,0,7,8,nan,nan,nan,nan,nan,nan,nan,nan,nan,nan,nan,nan,0.0,nan,nan,nan,nan,nan,nan,nan,nan,nan,nan,nan,nan,nan,nan,nan,nan,nan,nan,1497.134099498915,1641.7914697726374,nan,1642.0263376893126,nan,nan,nan,nan
1,102,0,0,0.0,1.0,0.4420365281403065,0,0.0,0.0,0.0,0.2099077889187455,0.0941477400901,0.1157600488286455,0.3040555290088455,0.0941477400901,0.27231207004903507,8,7,5,3,0,4,nan,nan,nan,nan,nan,nan,nan,nan,nan,nan,nan,nan,0.0,nan,nan,nan,nan,nan,nan,nan,nan,nan,nan,nan,nan,nan,nan,nan,nan,nan,nan,1497.134099498915,1642.8082738695666,nan,1643.250310397707,nan,nan,nan,nan
1,103,1,1,1.0,1.0,0.3769418208976276,0,0.0,0.0,0.0,0.21218356087189807,0.09643645539989196,0.11574710547200612,0.30862001627179003,0.09643645539989196,0.35128208857107285,7,5,0,8,1,2,nan,nan,nan,nan,nan,nan,nan,nan,nan,nan,nan,nan,0.0,nan,nan,nan,nan,nan,nan,nan,nan,nan,nan,nan,nan,nan,nan,nan,nan,nan,nan,1497.134099498915,1643.8333508666838,nan,1644.2102926875814,nan,nan,nan,nan
1,104,0,0,1.0,0.0,0.22405510098906234,0,0.0,0.0,0.0,0.21378315562942943,0.09731745224436529,0.11646570338506414,0.31110060787379473,0.09731745224436529,0.3476778166756655,1,2,8,4,0,3,nan,nan,nan,nan,nan,nan,nan,nan,nan,nan,nan,nan,0.0,nan,nan,nan,nan,nan,nan,nan,nan,nan,nan,nan,nan,nan,nan,nan,nan,nan,nan,1497.134099498915,1644.850199153414,nan,1645.074254254403,nan,nan,nan,nan
1,105,1,1,1.0,1.0,0.18325052736327052,0,0.0,0.0,0.0,0.2138819243348105,0.09685363704809363,0.11702828728671688,0.31073556138290415,0.09685363704809363,0.2614158164166535,5,4,7,8,3,0,nan,nan,nan,nan,nan,nan,nan,nan,nan,nan,nan,nan,0.0,nan,nan,nan,nan,nan,nan,nan,nan,nan,nan,nan,nan,nan,nan,nan,nan,nan,nan,1497.134099498915,1645.8669904210838,nan,1646.050240948447,nan,nan,nan,nan
1,106,1,1,1.0,1.0,0.21441944438265637,0,0.0,0.0,0.0,0.21359019674460536,0.09643722633520858,0.11715297040939678,0.31002742307981396,0.09643722633520858,0.20724169091166308,2,3,6,1,8,4,nan,nan,nan,nan,nan,nan,nan,nan,nan,nan,nan,nan,0.0,nan,nan,nan,nan,nan,nan,nan,nan,nan,nan,nan,nan,nan,nan,nan,nan,nan,nan,1497.134099498915,1646.8837928074645,nan,1647.0982122518471,nan,nan,nan,nan
1,107,1,1,1.0,1.0,0.25326740788295865,0,0.0,0.0,0.0,0.21359801983553037,0.09598128928329863,0.11761673055223174,0.309579309118829,0.09598128928329863,0.21697912654296184,4,1,0,6,7,8,nan,nan,nan,nan,nan,nan,nan,nan,nan,nan,nan,nan,0.0,nan,nan,nan,nan,nan,nan,nan,nan,nan,nan,nan,nan,nan,nan,nan,nan,nan,nan,1497.134099498915,1647.908898884314,nan,1648.162166292197,nan,nan,nan,nan
1,108,1,1,1.0,1.0,0.23639973462559283,0,0.0,0.0,0.0,0.21396876177989888,0.09560795091899177,0.1183608108609071,0.30957671269889064,0.09560795091899177,0.23469552896373594,8,2,1,4,6,0,nan,nan,nan,nan,nan,nan,nan,nan,nan,nan,nan,nan,0.0,nan,nan,nan,nan,nan,nan,nan,nan,nan,nan,nan,nan,nan,nan,nan,nan,nan,nan,1497.134099498915,1648.9257505921996,nan,1649.1621503268252,nan,nan,nan,nan
1,109,1,1,1.0,1.0,0.2593102913815528,0,0.0,0.0,0.0,0.21417645597291454,0.09518853998509391,0.11898791598782063,0.3093649959580085,0.09518853998509391,0.24965914463003477,6,7,3,2,8,5,nan,nan,nan,nan,nan,nan,nan,nan,nan,nan,nan,nan,0.0,nan,nan,nan,nan,nan,nan,nan,nan,nan,nan,nan,nan,nan,nan,nan,nan,nan,nan,1497.134099498915,1649.9508178961114,nan,1650.210128187493,nan,nan,nan,nan
1,110,1,1,1.0,1.0,0.30616031429963186,0,0.0,0.0,0.0,0.21459052785739746,0.09484855403383644,0.11974197382356103,0.3094390818912339,0.09484855403383644,0.2672901134355925,8,5,2,6,0,1,nan,nan,nan,nan,nan,nan,nan,nan,nan,nan,nan,nan,0.0,nan,nan,nan,nan,nan,nan,nan,nan,nan,nan,nan,nan,nan,nan,nan,nan,nan,nan,1497.134099498915,1650.9759362321347,nan,1651.2820965464343,nan,nan,nan,nan
1,111,1,1,1.0,1.0,0.28899756725877523,0,0.0,0.0,0.0,0.21542298046141778,0.09481560344995238,0.1206073770114654,0.31023858391137016,0.09481560344995238,0.28482272431331995,5,2,0,8,7,4,nan,nan,nan,nan,nan,nan,nan,nan,nan,nan,nan,nan,0.0,nan,nan,nan,nan,nan,nan,nan,nan,nan,nan,nan,nan,nan,nan,nan,nan,nan,nan,1497.134099498915,1652.001071103674,nan,1652.2900686709327,nan,nan,nan,nan
1,112,1,1,1.0,1.0,0.240190934156999,0,0.0,0.0,0.0,0.21608581457670928,0.09464320406539968,0.1214426105113096,0.31072901864210895,0.09464320406539968,0.2784496052384687,7,6,8,4,1,5,nan,nan,nan,nan,nan,nan,nan,nan,nan,nan,nan,nan,0.0,nan,nan,nan,nan,nan,nan,nan,nan,nan,nan,nan,nan,nan,nan,nan,nan,nan,nan,1497.134099498915,1653.0178740601987,nan,1653.2580649943557,nan,nan,nan,nan
1,113,1,1,1.0,1.0,0.22335576178738847,0,0.0,0.0,0.0,0.21630103885867616,0.09424702407166258,0.12205401478701358,0.31054806293033876,0.09424702407166258,0.25084808773438755,2,8,5,3,7,4,nan,nan,nan,nan,nan,nan,nan,nan,nan,nan,nan,nan,0.0,nan,nan,nan,nan,nan,nan,nan,nan,nan,nan,nan,nan,nan,nan,nan,nan,nan,nan,1497.134099498915,1654.0346610514098,nan,1654.2580168131972,nan,nan,nan,nan
1,114,0,0,1.0,0.0,0.17424065538216382,0,0.0,0.0,0.0,0.21636347003503645,0.09383140132700349,0.12253206870803296,0.31019487136203994,0.09383140132700349,0.2125957837755171,5,0,1,8,3,7,nan,nan,nan,nan,nan,nan,nan,nan,nan,nan,nan,nan,0.0,nan,nan,nan,nan,nan,nan,nan,nan,nan,nan,nan,nan,nan,nan,nan,nan,nan,nan,1497.134099498915,1655.0597605711082,nan,1655.2340012264904,nan,nan,nan,nan
1,115,1,1,1.0,1.0,0.19736845482839271,0,0.0,0.0,0.0,0.21599397166088843,0.09350149023470114,0.1224924814261873,0.3094954618955896,0.09350149023470114,0.198321623999315,8,2,6,4,7,0,nan,nan,nan,nan,nan,nan,nan,nan,nan,nan,nan,nan,0.0,nan,nan,nan,nan,nan,nan,nan,nan,nan,nan,nan,nan,nan,nan,nan,nan,nan,nan,1497.134099498915,1656.0765948881744,nan,1656.2739633430028,nan,nan,nan,nan
1,116,1,1,1.0,1.0,0.16454227780923247,0,0.0,0.0,0.0,0.2158320106449537,0.09311013405575046,0.12272187658920324,0.30894214470070414,0.09311013405575046,0.17871712933992967,3,0,1,7,8,5,nan,nan,nan,nan,nan,nan,nan,nan,nan,nan,nan,nan,0.0,nan,nan,nan,nan,nan,nan,nan,nan,nan,nan,nan,nan,nan,nan,nan,nan,nan,nan,1497.134099498915,1657.093388436595,nan,1657.2579307144042,nan,nan,nan,nan
1,117,1,1,1.0,1.0,0.12373855948681012,0,0.0,0.0,0.0,0.21538985777568023,0.09282910332219879,0.12256075445348144,0.30821896109787905,0.09282910332219879,0.16188309737481177,7,2,0,8,3,4,nan,nan,nan,nan,nan,nan,nan,nan,nan,nan,nan,nan,0.0,nan,nan,nan,nan,nan,nan,nan,nan,nan,nan,nan,nan,nan,nan,nan,nan,nan,nan,1497.134099498915,1658.1101856912137,nan,1658.2339242507005,nan,nan,nan,nan
1,118,1,1,1.0,1.0,0.09092036518268287,0,0.0,0.0,0.0,0.21460651334586084,0.09281579436961065,0.12179071897625018,0.3074223077154715,0.09281579436961065,0.12640040082624182,2,3,5,4,7,1,nan,nan,nan,nan,nan,nan,nan,nan,nan,nan,nan,nan,0.0,nan,nan,nan,nan,nan,nan,nan,nan,nan,nan,nan,nan,nan,nan,nan,nan,nan,nan,1497.134099498915,1659.1269752482767,nan,1659.2178956134594,nan,nan,nan,nan
1,119,1,1,1.0,1.0,0.21776247379602864,0,0.0,0.0,0.0,0.21355832564956273,0.09311451415339876,0.12044381149616397,0.3066728398029615,0.09311451415339876,0.14414046615517387,1,0,2,6,3,4,nan,nan,nan,nan,nan,nan,nan,nan,nan,nan,nan,nan,0.0,nan,nan,nan,nan,nan,nan,nan,nan,nan,nan,nan,nan,nan,nan,nan,nan,nan,nan,1497.134099498915,1660.1520861718454,nan,1660.3698486456415,nan,nan,nan,nan
1,120,1,1,1.0,1.0,0.36093570612138137,0,0.0,0.0,0.0,0.21359365462558344,0.09272324549518864,0.1208704091303948,0.30631690012077206,0.09272324549518864,0.22320618170003095,8,4,0,2,1,6,nan,nan,nan,nan,nan,nan,nan,nan,nan,nan,nan,nan,0.0,nan,nan,nan,nan,nan,nan,nan,nan,nan,nan,nan,nan,nan,nan,nan,nan,nan,nan,1497.134099498915,1661.1689096552436,nan,1661.529845361365,nan,nan,nan,nan
1,121,1,1,1.0,1.0,0.24011909012915567,0,0.0,0.0,0.0,0.2148215050547151,0.09330251856648858,0.12151898648822651,0.30812402362120367,0.09330251856648858,0.2729390900155219,3,2,8,7,6,5,nan,nan,nan,nan,nan,nan,nan,nan,nan,nan,nan,nan,0.0,nan,nan,nan,nan,nan,nan,nan,nan,nan,nan,nan,nan,nan,nan,nan,nan,nan,nan,1497.134099498915,1662.185692369996,nan,1662.4258114601253,nan,nan,nan,nan
1,122,1,1,1.0,1.0,0.2313387198955752,0,0.0,0.0,0.0,0.21503057600574352,0.09294439265836098,0.12208618334738254,0.3079749686641045,0.09294439265836098,0.27746450538203743,5,6,3,2,7,4,nan,nan,nan,nan,nan,nan,nan,nan,nan,nan,nan,nan,0.0,nan,nan,nan,nan,nan,nan,nan,nan,nan,nan,nan,nan,nan,nan,nan,nan,nan,nan,1497.134099498915,1663.2024460050743,nan,1663.4337847249699,nan,nan,nan,nan
1,123,1,1,1.0,1.0,0.23051450890488923,0,0.0,0.0,0.0,0.21516424931631592,0.09257436757600948,0.12258988174030644,0.3077386168923254,0.09257436757600948,0.23399077297654003,8,2,1,3,6,5,nan,nan,nan,nan,nan,nan,nan,nan,nan,nan,nan,nan,0.0,nan,nan,nan,nan,nan,nan,nan,nan,nan,nan,nan,nan,nan,nan,nan,nan,nan,nan,1497.134099498915,1664.2192449702998,nan,1664.4497594792047,nan,nan,nan,nan
1,124,1,1,1.0,1.0,0.1976529800449498,0,0.0,0.0,0.0,0.2152890481747596,0.09220758507547788,0.12308146309928172,0.30749663325023746,0.09220758507547788,0.2198354029484714,6,0,7,1,4,8,nan,nan,nan,nan,nan,nan,nan,nan,nan,nan,nan,nan,0.0,nan,nan,nan,nan,nan,nan,nan,nan,nan,nan,nan,nan,nan,nan,nan,nan,nan,nan,1497.134099498915,1665.236079002265,nan,1665.4337319823098,nan,nan,nan,nan
1,125,1,1,1.0,1.0,0.2368604489020072,0,0.0,0.0,0.0,0.21514682181887404,0.09184857314799101,0.12329824867088303,0.30699539496686507,0.09184857314799101,0.22167597928394875,2,1,0,5,7,3,nan,nan,nan,nan,nan,nan,nan,nan,nan,nan,nan,nan,0.0,nan,nan,nan,nan,nan,nan,nan,nan,nan,nan,nan,nan,nan,nan,nan,nan,nan,nan,1497.134099498915,1666.2528352031368,nan,1666.4896956520388,nan,nan,nan,nan
1,126,1,1,1.0,1.0,0.1957211732515134,0,0.0,0.0,0.0,0.2153205308355391,0.09150088952678904,0.12381964130875005,0.3068214203623281,0.09150088952678904,0.21007820073282346,3,6,2,1,8,4,nan,nan,nan,nan,nan,nan,nan,nan,nan,nan,nan,nan,0.0,nan,nan,nan,nan,nan,nan,nan,nan,nan,nan,nan,nan,nan,nan,nan,nan,nan,nan,1497.134099498915,1667.277986895293,nan,1667.4737080685445,nan,nan,nan,nan
1,127,1,1,1.0,1.0,0.20255975815234706,0,0.0,0.0,0.0,0.21516498037852302,0.09115365904213019,0.12401132133639284,0.3063186394206532,0.09115365904213019,0.2117137934352892,7,3,5,8,6,1,nan,nan,nan,nan,nan,nan,nan,nan,nan,nan,nan,nan,0.0,nan,nan,nan,nan,nan,nan,nan,nan,nan,nan,nan,nan,nan,nan,nan,nan,nan,nan,1497.134099498915,1668.3030864149914,nan,1668.5056461731438,nan,nan,nan,nan
1,128,1,1,1.0,1.0,0.1937089694547467,0,0.0,0.0,0.0,0.21506572666020668,0.09080091247352222,0.12426481418668446,0.3058666391337289,0.09080091247352222,0.19732996695286906,8,5,6,4,0,7,nan,nan,nan,nan,nan,nan,nan,nan,nan,nan,nan,nan,0.0,nan,nan,nan,nan,nan,nan,nan,nan,nan,nan,nan,nan,nan,nan,nan,nan,nan,nan,1497.134099498915,1669.3199141748482,nan,1669.513623144303,nan,nan,nan,nan
1,129,1,1,1.0,1.0,0.008556855318602175,0,0.0,0.0,0.0,0.21489887699453902,0.09046506889642252,0.12443380809811651,0.30536394589096155,0.09046506889642252,0.13494186097523198,4,2,5,6,3,8,nan,nan,nan,nan,nan,nan,nan,nan,nan,nan,nan,nan,0.0,nan,nan,nan,nan,nan,nan,nan,nan,nan,nan,nan,nan,nan,nan,nan,nan,nan,nan,1497.134099498915,1670.3450470507378,nan,1670.3536039060564,nan,nan,nan,nan
1,130,1,1,1.0,1.0,0.039412737532984465,0,1.0,0.0,0.0,0.2132993264389116,0.09191291158590129,0.12138641485301033,0.3052122380248129,0.09191291158590129,0.08055952076877777,1,8,6,7,0,5,nan,nan,nan,nan,nan,nan,nan,nan,nan,nan,nan,nan,0.0,nan,nan,nan,nan,nan,nan,nan,nan,nan,nan,nan,nan,nan,nan,nan,nan,nan,nan,1497.134099498915,1671.370149136288,nan,1671.409561873821,nan,nan,nan,nan
1,131,1,1,1.0,1.0,0.07029541878728196,1,0.0,0.0,1.0,0.2119617372934814,0.09281055165380989,0.1191511856396715,0.30477228894729125,0.09281055165380989,0.03942167054628953,7,0,2,3,4,8,1.0,1.0,1.0,1.0,1.0,1.0,0.0,1.0,0.0,0.0,0.0,0.0,1.0,2.0,0.0,6.0,0.0,3.0,7.0,2.0,1.0,4.0,5.0,6.0,3.0,1.8893287911778316,1.1141801637713797,4.2159238932072185,4.759960166469682,5.463109644595534,3.03319109918084,1497.134099498915,1672.3952922755852,1673.2037141096662,1672.4655876943725,1679.7211766346009,1680.7305494331522,1674.220505662437,1679.71285441285
1,132,1,1,1.0,1.0,0.23064878885634243,0,0.0,0.0,0.0,0.2108803150148081,0.09327419766527142,0.11760611734953669,0.30415451268007954,0.09327419766527142,0.11345231505886962,5,4,8,0,7,2,nan,nan,nan,nan,nan,nan,nan,nan,nan,nan,nan,nan,0.0,nan,nan,nan,nan,nan,nan,nan,nan,nan,nan,nan,nan,nan,nan,nan,nan,nan,nan,1497.134099498915,1680.9546914882376,nan,1681.185340277094,nan,nan,nan,nan
1,133,1,1,1.0,1.0,0.22182023763889447,0,0.0,0.0,0.0,0.21103007618027428,0.0929360231830844,0.11809405299718988,0.30396609936335867,0.0929360231830844,0.17425481509417295,6,1,4,8,3,0,nan,nan,nan,nan,nan,nan,nan,nan,nan,nan,nan,nan,0.0,nan,nan,nan,nan,nan,nan,nan,nan,nan,nan,nan,nan,nan,nan,nan,nan,nan,nan,1497.134099498915,1681.9714647948276,nan,1682.1932850324665,nan,nan,nan,nan
1,134,1,1,1.0,1.0,0.22097179346019402,0,0.0,0.0,0.0,0.21111120521379775,0.09259067222951083,0.11852053298428693,0.30370187744330857,0.09259067222951083,0.22448027331847697,3,4,2,1,7,6,nan,nan,nan,nan,nan,nan,nan,nan,nan,nan,nan,nan,0.0,nan,nan,nan,nan,nan,nan,nan,nan,nan,nan,nan,nan,nan,nan,nan,nan,nan,nan,1497.134099498915,1682.9882919845404,nan,1683.2092637780006,nan,nan,nan,nan
1,135,0,0,1.0,0.0,0.18816785392118618,0,0.0,0.0,0.0,0.21118479169324847,0.09224844128663252,0.11893635040661595,0.303433232979881,0.09224844128663252,0.2103199616734249,5,2,6,3,4,1,nan,nan,nan,nan,nan,nan,nan,nan,nan,nan,nan,nan,0.0,nan,nan,nan,nan,nan,nan,nan,nan,nan,nan,nan,nan,nan,nan,nan,nan,nan,nan,1497.134099498915,1684.0050727036432,nan,1684.1932405575644,nan,nan,nan,nan
1,136,1,1,1.0,1.0,0.10732333274791017,0,0.0,0.0,0.0,0.21101429585789985,0.09192733420065895,0.1190869616572409,0.3029416300585588,0.09192733420065895,0.17215432670976347,4,7,5,2,0,8,nan,nan,nan,nan,nan,nan,nan,nan,nan,nan,nan,nan,0.0,nan,nan,nan,nan,nan,nan,nan,nan,nan,nan,nan,nan,nan,nan,nan,nan,nan,nan,1497.134099498915,1685.0218884894857,nan,1685.1292118222336,nan,nan,nan,nan
1,137,1,1,1.0,1.0,0.058534660609439015,0,0.0,0.0,0.0,0.2102518623056205,0.09201616117438145,0.11823570113123906,0.302268023480002,0.09201616117438145,0.11800861575951178,5,8,0,1,2,6,nan,nan,nan,nan,nan,nan,nan,nan,nan,nan,nan,nan,0.0,nan,nan,nan,nan,nan,nan,nan,nan,nan,nan,nan,nan,nan,nan,nan,nan,nan,nan,1497.134099498915,1686.0386580898776,nan,1686.097192750487,nan,nan,nan,nan
1,138,1,1,1.0,1.0,0.20972078607883304,0,0.0,0.0,0.0,0.2091444374757214,0.09258488102532669,0.1165595564503947,0.3017293185010481,0.09258488102532669,0.1251929264787274,8,5,7,2,4,1,nan,nan,nan,nan,nan,nan,nan,nan,nan,nan,nan,nan,0.0,nan,nan,nan,nan,nan,nan,nan,nan,nan,nan,nan,nan,nan,nan,nan,nan,nan,nan,1497.134099498915,1687.0554288306157,nan,1687.2651496166945,nan,nan,nan,nan
1,139,0,0,1.0,0.0,0.20888460107380524,0,0.0,0.0,0.0,0.20914861391487438,0.09224883159440547,0.11689978232046891,0.3013974455092798,0.09224883159440547,0.1590466825873591,0,2,1,8,5,7,nan,nan,nan,nan,nan,nan,nan,nan,nan,nan,nan,nan,0.0,nan,nan,nan,nan,nan,nan,nan,nan,nan,nan,nan,nan,nan,nan,nan,nan,nan,nan,1497.134099498915,1688.072244331357,nan,1688.2811289324309,nan,nan,nan,nan
1,140,1,1,1.0,1.0,0.18405421148054302,0,0.0,0.0,0.0,0.20914671454191705,0.09191640499943776,0.11723030954247929,0.3010631195413548,0.09191640499943776,0.2008865328777271,4,7,8,3,2,6,nan,nan,nan,nan,nan,nan,nan,nan,nan,nan,nan,nan,0.0,nan,nan,nan,nan,nan,nan,nan,nan,nan,nan,nan,nan,nan,nan,nan,nan,nan,nan,1497.134099498915,1689.0890518494416,nan,1689.2731060609221,nan,nan,nan,nan
1,141,0,0,1.0,0.0,0.17524818272795528,0,0.0,0.0,0.0,0.20896748237719293,0.09161191757864554,0.11735556479854739,0.3005793999558385,0.09161191757864554,0.1893956650941012,5,8,3,4,1,2,nan,nan,nan,nan,nan,nan,nan,nan,nan,nan,nan,nan,0.0,nan,nan,nan,nan,nan,nan,nan,nan,nan,nan,nan,nan,nan,nan,nan,nan,nan,nan,1497.134099498915,1690.1058328536456,nan,1690.2810810363735,nan,nan,nan,nan
1,142,1,1,1.0,1.0,0.1584569150581956,0,0.0,0.0,0.0,0.2087283384080494,0.09133031816771238,0.11739802024033703,0.3000586565757618,0.09133031816771238,0.1725864364222313,4,6,2,7,5,8,nan,nan,nan,nan,nan,nan,nan,nan,nan,nan,nan,nan,0.0,nan,nan,nan,nan,nan,nan,nan,nan,nan,nan,nan,nan,nan,nan,nan,nan,nan,nan,1497.134099498915,1691.1225887694745,nan,1691.2810456845327,nan,nan,nan,nan
1,143,1,1,1.0,1.0,0.25328194769099355,0,0.0,0.0,0.0,0.20837431429995185,0.09110520261781106,0.11726911168214078,0.2994795169177629,0.09110520261781106,0.19566234849238148,7,8,0,6,2,4,nan,nan,nan,nan,nan,nan,nan,nan,nan,nan,nan,nan,0.0,nan,nan,nan,nan,nan,nan,nan,nan,nan,nan,nan,nan,nan,nan,nan,nan,nan,nan,1497.134099498915,1692.1477587077534,nan,1692.4010406554444,nan,nan,nan,nan
1,144,1,1,1.0,1.0,0.2605285043246113,0,0.0,0.0,0.0,0.20868835369429478,0.09086318851293425,0.11782516518136053,0.299551542207229,0.09086318851293425,0.22408912235793346,1,3,2,8,0,5,nan,nan,nan,nan,nan,nan,nan,nan,nan,nan,nan,nan,0.0,nan,nan,nan,nan,nan,nan,nan,nan,nan,nan,nan,nan,nan,nan,nan,nan,nan,nan,1497.134099498915,1693.1645231763832,nan,1693.4250516807078,nan,nan,nan,nan
1,145,1,1,1.0,1.0,0.2676459125941619,0,0.0,0.0,0.0,0.20904835474033867,0.0906494223618108,0.11839893237852787,0.29969777710214945,0.0906494223618108,0.26048545486992225,5,4,0,3,6,1,nan,nan,nan,nan,nan,nan,nan,nan,nan,nan,nan,nan,0.0,nan,nan,nan,nan,nan,nan,nan,nan,nan,nan,nan,nan,nan,nan,nan,nan,nan,nan,1497.134099498915,1694.1813372516772,nan,1694.4489831642713,nan,nan,nan,nan
1,146,1,1,1.0,1.0,0.2587780181202106,0,0.0,0.0,0.0,0.2094524758289857,0.09046636840551242,0.11898610742347329,0.2999188442344981,0.09046636840551242,0.26231747834632796,2,6,7,5,0,8,nan,nan,nan,nan,nan,nan,nan,nan,nan,nan,nan,nan,0.0,nan,nan,nan,nan,nan,nan,nan,nan,nan,nan,nan,nan,nan,nan,nan,nan,nan,nan,1497.134099498915,1695.1981695730938,nan,1695.456947591214,nan,nan,nan,nan
1,147,0,0,1.0,0.0,0.24198789085494354,0,0.0,0.0,0.0,0.20979032200906259,0.09024776009386584,0.11954256191519674,0.3000380821029284,0.09024776009386584,0.2561372738564387,0,3,6,8,2,7,nan,nan,nan,nan,nan,nan,nan,nan,nan,nan,nan,nan,0.0,nan,nan,nan,nan,nan,nan,nan,nan,nan,nan,nan,nan,nan,nan,nan,nan,nan,nan,1497.134099498915,1696.2149360374315,nan,1696.4569239282864,nan,nan,nan,nan
1,148,1,1,1.0,1.0,0.17718255543150008,0,0.0,0.0,0.0,0.21000935308964683,0.08997920124969785,0.12003015183994897,0.2999885543393447,0.08997920124969785,0.22598282146888474,7,4,5,1,0,6,nan,nan,nan,nan,nan,nan,nan,nan,nan,nan,nan,nan,0.0,nan,nan,nan,nan,nan,nan,nan,nan,nan,nan,nan,nan,nan,nan,nan,nan,nan,nan,1497.134099498915,1697.2317250242922,nan,1697.4089075797237,nan,nan,nan,nan
1,149,1,1,1.0,1.0,0.20802446804009378,0,0.0,0.0,0.0,0.20978755040276745,0.0897150160014962,0.12007253440127125,0.29950256640426365,0.0897150160014962,0.20906497144217914,3,7,4,5,6,0,nan,nan,nan,nan,nan,nan,nan,nan,nan,nan,nan,nan,0.0,nan,nan,nan,nan,nan,nan,nan,nan,nan,nan,nan,nan,nan,nan,nan,nan,nan,nan,1497.134099498915,1698.2568427901133,nan,1698.4648672581534,nan,nan,nan,nan
1,150,0,0,0.0,1.0,0.4071684973896481,0,0.0,0.0,0.0,0.20977571763523273,0.08941356794731446,0.12036214968791827,0.2991892855825472,0.08941356794731446,0.264125173620414,8,2,1,4,0,5,nan,nan,nan,nan,nan,nan,nan,nan,nan,nan,nan,nan,0.0,nan,nan,nan,nan,nan,nan,nan,nan,nan,nan,nan,nan,nan,nan,nan,nan,nan,nan,1497.134099498915,1699.2736705499701,nan,1699.6808390473598,nan,nan,nan,nan
1,151,1,1,1.0,1.0,0.22236277430783957,0,0.0,0.0,0.0,0.21109166950026217,0.09055117462627779,0.12054049487398438,0.30164284412653997,0.09055117462627779,0.2791852465791938,1,5,2,8,7,3,nan,nan,nan,nan,nan,nan,nan,nan,nan,nan,nan,nan,0.0,nan,nan,nan,nan,nan,nan,nan,nan,nan,nan,nan,nan,nan,nan,nan,nan,nan,nan,1497.134099498915,1700.2904532647226,nan,1700.5128160390304,nan,nan,nan,nan
1,152,1,1,1.0,1.0,0.22153827821603045,0,0.0,0.0,0.0,0.21116631257845805,0.09025546819571639,0.12091084438274166,0.3014217807741745,0.09025546819571639,0.2836898499711727,7,8,3,5,4,6,nan,nan,nan,nan,nan,nan,nan,nan,nan,nan,nan,nan,0.0,nan,nan,nan,nan,nan,nan,nan,nan,nan,nan,nan,nan,nan,nan,nan,nan,nan,nan,1497.134099498915,1701.3072482385905,nan,1701.5287865168066,nan,nan,nan,nan
1,153,1,1,1.0,1.0,0.2447376365889795,0,0.0,0.0,0.0,0.2112345491944947,0.08996199308402317,0.12127255611047152,0.3011965422785179,0.08996199308402317,0.22954622970428318,0,6,4,1,8,5,nan,nan,nan,nan,nan,nan,nan,nan,nan,nan,nan,nan,0.0,nan,nan,nan,nan,nan,nan,nan,nan,nan,nan,nan,nan,nan,nan,nan,nan,nan,nan,1497.134099498915,1702.324030383199,nan,1702.568768019788,nan,nan,nan,nan
1,154,1,1,1.0,1.0,0.2759253699914552,0,0.0,0.0,0.0,0.21145352362190964,0.08970814955919933,0.12174537406271031,0.301161673181109,0.08970814955919933,0.2474004282654884,2,3,6,4,0,7,nan,nan,nan,nan,nan,nan,nan,nan,nan,nan,nan,nan,0.0,nan,nan,nan,nan,nan,nan,nan,nan,nan,nan,nan,nan,nan,nan,nan,nan,nan,nan,1497.134099498915,1703.340822506114,nan,1703.6167478761054,nan,nan,nan,nan
1,155,1,1,1.0,1.0,0.2908036470762454,0,0.0,0.0,0.0,0.21187217197495864,0.0895662382340127,0.12230593374094594,0.30143841020897133,0.0895662382340127,0.2704888845522267,4,6,5,3,7,2,nan,nan,nan,nan,nan,nan,nan,nan,nan,nan,nan,nan,0.0,nan,nan,nan,nan,nan,nan,nan,nan,nan,nan,nan,nan,nan,nan,nan,nan,nan,nan,1497.134099498915,1704.3659052051953,nan,1704.6567088522715,nan,nan,nan,nan
1,156,1,1,1.0,1.0,0.3779311021207832,0,0.0,1.0,0.0,0.21238140729819274,0.08950022821743417,0.12288117908075857,0.3018816355156269,0.08950022821743417,0.3148867063961613,3,0,6,4,1,5,nan,nan,nan,nan,nan,nan,nan,nan,nan,nan,nan,nan,0.0,nan,nan,nan,nan,nan,nan,nan,nan,nan,nan,nan,nan,nan,nan,nan,nan,nan,nan,1497.134099498915,1705.3827483602217,nan,1705.7606794623425,nan,nan,nan,nan
1,157,1,1,1.0,1.0,0.23311971127986908,1,0.0,0.0,1.0,0.21344262329064526,0.09018592260993986,0.12325670068070539,0.30362854590058513,0.09018592260993986,0.3006181534922992,8,1,0,6,5,2,1.0,1.0,1.0,1.0,1.0,1.0,0.0,0.0,0.0,0.0,0.0,0.0,0.0,6.0,0.0,1.0,8.0,4.0,7.0,3.0,2.0,1.0,6.0,5.0,4.0,4.082952517084777,3.2739724660641514,2.3646964004146867,6.234135506441817,5.5627898529637605,4.682853817008436,1497.134099498915,1706.399544189393,1707.207941505243,1706.632663900673,1714.5005104634329,1715.5113589161192,1708.224749878631,1714.4921856758301
1,158,1,1,1.0,1.0,0.37830571754602715,0,0.0,0.0,0.0,0.21356795506127724,0.08991187550424283,0.1236560795570344,0.3034798305655201,0.08991187550424283,0.3297855103155598,7,2,5,4,6,1,nan,nan,nan,nan,nan,nan,nan,nan,nan,nan,nan,nan,0.0,nan,nan,nan,nan,nan,nan,nan,nan,nan,nan,nan,nan,nan,nan,nan,nan,nan,nan,1497.134099498915,1715.73406266456,nan,1716.112368382106,nan,nan,nan,nan
1,159,1,1,1.0,1.0,0.2815810938482173,0,0.0,0.0,0.0,0.21461059912763641,0.0905740339372178,0.12403656519041861,0.3051846330648542,0.0905740339372178,0.2976688408913712,1,0,2,8,5,3,nan,nan,nan,nan,nan,nan,nan,nan,nan,nan,nan,nan,0.0,nan,nan,nan,nan,nan,nan,nan,nan,nan,nan,nan,nan,nan,nan,nan,nan,nan,nan,1497.134099498915,1716.750799193862,nan,1717.03238028771,nan,nan,nan,nan
1,160,1,1,1.0,1.0,0.20876315038185567,0,0.0,0.0,0.0,0.21503179720764007,0.09044385408220441,0.12458794312543565,0.3054756512898445,0.09044385408220441,0.2895499872587,4,3,1,6,2,5,nan,nan,nan,nan,nan,nan,nan,nan,nan,nan,nan,nan,0.0,nan,nan,nan,nan,nan,nan,nan,nan,nan,nan,nan,nan,nan,nan,nan,nan,nan,nan,1497.134099498915,1717.7676172604552,nan,1717.976380410837,nan,nan,nan,nan
1,161,0,0,1.0,0.0,0.03194494696799666,0,0.0,0.0,0.0,0.21499261816497892,0.09016212751867797,0.12483049064630095,0.30515474568365686,0.09016212751867797,0.1740963970660232,0,8,4,5,6,2,nan,nan,nan,nan,nan,nan,nan,nan,nan,nan,nan,nan,0.0,nan,nan,nan,nan,nan,nan,nan,nan,nan,nan,nan,nan,nan,nan,nan,nan,nan,nan,1497.134099498915,1718.7844307655469,nan,1718.8163757125149,nan,nan,nan,nan
1,162,1,1,1.0,1.0,0.2147675459855236,0,0.0,0.0,0.0,0.2138556761078548,0.09102493732184896,0.12283073878600584,0.30488061342970374,0.09102493732184896,0.1518252144451253,1,6,5,8,7,3,nan,nan,nan,nan,nan,nan,nan,nan,nan,nan,nan,nan,0.0,nan,nan,nan,nan,nan,nan,nan,nan,nan,nan,nan,nan,nan,nan,nan,nan,nan,nan,1497.134099498915,1719.8095200218377,nan,1720.0242875678232,nan,nan,nan,nan
1,163,1,1,1.0,1.0,0.10993822838645428,0,0.0,0.0,0.0,0.21386130493426017,0.09074358936986796,0.12311771556439222,0.3046048943041281,0.09074358936986796,0.11888357377999152,2,4,1,5,0,7,nan,nan,nan,nan,nan,nan,nan,nan,nan,nan,nan,nan,0.0,nan,nan,nan,nan,nan,nan,nan,nan,nan,nan,nan,nan,nan,nan,nan,nan,nan,nan,1497.134099498915,1720.82634664129,nan,1720.9362848696765,nan,nan,nan,nan
1,164,1,1,nan,nan,nan,0,0.0,0.0,0.0,0.2132237400474638,0.09082803775227696,0.12239570229518684,0.3040517777997408,0.09082803775227696,0.16235288718598895,0,8,2,6,1,5,nan,nan,nan,nan,nan,nan,nan,nan,nan,nan,nan,nan,0.0,nan,nan,nan,nan,nan,nan,nan,nan,nan,nan,nan,nan,nan,nan,nan,nan,nan,nan,1497.134099498915,1721.8514453057433,nan,nan,nan,nan,nan,nan
1,165,1,1,1.0,1.0,0.41192217922070995,0,0.0,0.0,0.0,0.2132237400474638,0.09082803775227696,0.12239570229518684,0.3040517777997408,0.09082803775227696,0.2609302038035821,1,5,3,4,2,7,nan,nan,nan,nan,nan,nan,nan,nan,nan,nan,nan,nan,0.0,nan,nan,nan,nan,nan,nan,nan,nan,nan,nan,nan,nan,nan,nan,nan,nan,nan,nan,1497.134099498915,1722.8682630872354,nan,1723.280185266456,nan,nan,nan,nan
1,166,1,1,1.0,1.0,0.29079395381268114,0,0.0,0.0,0.0,0.21443531589608117,0.09186239442424324,0.12257292147183793,0.3062977103203244,0.09186239442424324,0.35135806651669554,7,6,4,3,8,0,nan,nan,nan,nan,nan,nan,nan,nan,nan,nan,nan,nan,0.0,nan,nan,nan,nan,nan,nan,nan,nan,nan,nan,nan,nan,nan,nan,nan,nan,nan,nan,1497.134099498915,1723.8934087923844,nan,1724.1842027461971,nan,nan,nan,nan
1,167,1,1,1.0,1.0,0.20166256272932515,0,0.0,0.0,0.0,0.21489809551981814,0.09177515422329274,0.1231229412965254,0.3066732497431109,0.09177515422329274,0.3014595652542387,3,7,1,2,0,5,nan,nan,nan,nan,nan,nan,nan,nan,nan,nan,nan,nan,0.0,nan,nan,nan,nan,nan,nan,nan,nan,nan,nan,nan,nan,nan,nan,nan,nan,nan,nan,1497.134099498915,1724.9185037505813,nan,1725.1201663133106,nan,nan,nan,nan
1,168,1,1,1.0,1.0,0.22483854333404452,0,0.0,0.0,0.0,0.21481836339457422,0.09150403730404676,0.12331432609052746,0.306322400698621,0.09150403730404676,0.23909835329201692,0,8,6,5,7,4,nan,nan,nan,nan,nan,nan,nan,nan,nan,nan,nan,nan,0.0,nan,nan,nan,nan,nan,nan,nan,nan,nan,nan,nan,nan,nan,nan,nan,nan,nan,nan,1497.134099498915,1725.935303856153,nan,1726.160142399487,nan,nan,nan,nan
1,169,1,1,1.0,1.0,0.22367991536157206,0,0.0,0.0,0.0,0.21487836447205608,0.09123293707133324,0.12364542740072283,0.30611130154338934,0.09123293707133324,0.21672700714164725,7,0,5,6,4,8,nan,nan,nan,nan,nan,nan,nan,nan,nan,nan,nan,nan,0.0,nan,nan,nan,nan,nan,nan,nan,nan,nan,nan,nan,nan,nan,nan,nan,nan,nan,nan,1497.134099498915,1726.9604418637464,nan,1727.184121779108,nan,nan,nan,nan
1,170,1,1,1.0,1.0,0.30284322856459767,0,0.0,0.0,0.0,0.21493075465592223,0.09096352477045402,0.12396722988546821,0.30589427942637626,0.09096352477045402,0.25045389575340476,8,1,4,2,3,5,nan,nan,nan,nan,nan,nan,nan,nan,nan,nan,nan,nan,0.0,nan,nan,nan,nan,nan,nan,nan,nan,nan,nan,nan,nan,nan,nan,nan,nan,nan,nan,1497.134099498915,1727.9772394035244,nan,1728.280082632089,nan,nan,nan,nan
1,171,1,1,1.0,1.0,0.29403548926347867,0,0.0,0.0,0.0,0.215450946809228,0.09094428454299713,0.12450666226623086,0.30639523135222513,0.09094428454299713,0.27351954439654946,1,0,7,5,2,8,nan,nan,nan,nan,nan,nan,nan,nan,nan,nan,nan,nan,0.0,nan,nan,nan,nan,nan,nan,nan,nan,nan,nan,nan,nan,nan,nan,nan,nan,nan,nan,1497.134099498915,1728.9940238288254,nan,1729.288059318089,nan,nan,nan,nan
1,172,1,1,1.0,1.0,0.2532135248184204,0,0.0,0.0,0.0,0.21591320882366477,0.09087531963692325,0.12503788918674152,0.306788528460588,0.09087531963692325,0.2833640808821656,7,5,1,2,8,3,nan,nan,nan,nan,nan,nan,nan,nan,nan,nan,nan,nan,0.0,nan,nan,nan,nan,nan,nan,nan,nan,nan,nan,nan,nan,nan,nan,nan,nan,nan,nan,1497.134099498915,1730.0108199430979,nan,1730.2640334679163,nan,nan,nan,nan
1,173,0,0,0.0,1.0,0.46038413187488914,0,0.0,0.0,0.0,0.2161313393265581,0.09065383711750785,0.12547750220905024,0.30678517644406594,0.09065383711750785,0.3358777153189294,2,7,8,3,4,5,nan,nan,nan,nan,nan,nan,nan,nan,nan,nan,nan,nan,0.0,nan,nan,nan,nan,nan,nan,nan,nan,nan,nan,nan,nan,nan,nan,nan,nan,nan,nan,1497.134099498915,1731.0276323078433,nan,1731.4880164397182,nan,nan,nan,nan
1,174,1,1,1.0,1.0,0.2675863276235759,0,0.0,0.0,0.0,0.21755141370183909,0.09227772725745124,0.12527368644438786,0.3098291409592903,0.09227772725745124,0.3270613281056285,6,2,0,4,3,8,nan,nan,nan,nan,nan,nan,nan,nan,nan,nan,nan,nan,0.0,nan,nan,nan,nan,nan,nan,nan,nan,nan,nan,nan,nan,nan,nan,nan,nan,nan,nan,1497.134099498915,1732.0444039038848,nan,1732.3119902315084,nan,nan,nan,nan
1,175,1,1,1.0,1.0,0.18676974577829242,0,0.0,0.0,0.0,0.21784063285745606,0.09208879230436708,0.12575184055308897,0.30992942516182315,0.09208879230436708,0.3049134017589192,1,4,3,5,0,2,nan,nan,nan,nan,nan,nan,nan,nan,nan,nan,nan,nan,0.0,nan,nan,nan,nan,nan,nan,nan,nan,nan,nan,nan,nan,nan,nan,nan,nan,nan,nan,1497.134099498915,1733.0612068604096,nan,1733.2479766061879,nan,nan,nan,nan
1,176,1,1,1.0,1.0,0.20993945433292538,0,0.0,0.0,0.0,0.21766206454090914,0.09185382103456817,0.12580824350634096,0.3095158855754773,0.09185382103456817,0.22143184257826456,8,1,4,0,5,7,nan,nan,nan,nan,nan,nan,nan,nan,nan,nan,nan,nan,0.0,nan,nan,nan,nan,nan,nan,nan,nan,nan,nan,nan,nan,nan,nan,nan,nan,nan,nan,1497.134099498915,1734.0780018342775,nan,1734.2879412886105,nan,nan,nan,nan
1,177,1,1,1.0,1.0,0.06515258166473359,0,0.0,0.0,0.0,0.21761793533972065,0.09159285531215969,0.12602508002756097,0.30921079065188034,0.09159285531215969,0.15395392725865045,7,8,1,6,4,0,nan,nan,nan,nan,nan,nan,nan,nan,nan,nan,nan,nan,0.0,nan,nan,nan,nan,nan,nan,nan,nan,nan,nan,nan,nan,nan,nan,nan,nan,nan,nan,1497.134099498915,1735.0947862596367,nan,1735.1599388413015,nan,nan,nan,nan
1,178,1,1,1.0,1.0,0.0883100310456939,0,1.0,0.0,0.0,0.21675165492111279,0.09204842341502743,0.12470323150608535,0.3088000783361402,0.09204842341502743,0.1211340223477843,2,4,7,0,1,8,nan,nan,nan,nan,nan,nan,nan,nan,nan,nan,nan,nan,0.0,nan,nan,nan,nan,nan,nan,nan,nan,nan,nan,nan,nan,nan,nan,nan,nan,nan,nan,1497.134099498915,1736.1115860801656,nan,1736.1998961112113,nan,nan,nan,nan
1,179,1,1,1.0,1.0,0.11152136349119246,1,0.0,0.0,1.0,0.21602599602916125,0.0922914997064957,0.12373449632266556,0.3083174957356569,0.0922914997064957,0.08832799206720665,0,3,8,5,6,2,1.0,1.0,1.0,1.0,1.0,1.0,1.0,0.0,0.0,1.0,0.0,0.0,2.0,0.0,6.0,3.0,5.0,2.0,7.0,1.0,3.0,4.0,5.0,6.0,2.0,1.1873587530571967,3.496510574070271,4.264388696872629,5.15319576341426,5.872213655151427,2.034427273145411,1497.134099498915,1737.1283451319905,1737.936779225187,1737.2398664954817,1744.8626347325626,1745.868201221514,1738.9535807562643,1744.8543016772019
1,180,1,1,1.0,1.0,0.23180485103512183,0,0.0,0.0,0.0,0.21543889135198166,0.09236275775448578,0.12307613359749588,0.30780164910646746,0.09236275775448578,0.14387874852400273,2,0,6,8,1,7,nan,nan,nan,nan,nan,nan,nan,nan,nan,nan,nan,nan,0.0,nan,nan,nan,nan,nan,nan,nan,nan,nan,nan,nan,nan,nan,nan,nan,nan,nan,nan,1497.134099498915,1746.0878467509174,nan,1746.3196516019525,nan,nan,nan,nan
1,181,1,1,1.0,1.0,0.24699217156739905,0,0.0,0.0,0.0,0.21553032129434557,0.09211247720758993,0.12341784408675564,0.3076427985019355,0.09211247720758993,0.19677279536457112,4,2,7,1,8,5,nan,nan,nan,nan,nan,nan,nan,nan,nan,nan,nan,nan,0.0,nan,nan,nan,nan,nan,nan,nan,nan,nan,nan,nan,nan,nan,nan,nan,nan,nan,nan,1497.134099498915,1747.1046209128108,nan,1747.3516130843782,nan,nan,nan,nan
1,182,1,1,1.0,1.0,0.25383132667047903,0,0.0,0.0,0.0,0.2157051093514181,0.09188601521955168,0.12381909413186641,0.30759112457096977,0.09188601521955168,0.24420944975766665,0,8,2,3,5,4,nan,nan,nan,nan,nan,nan,nan,nan,nan,nan,nan,nan,0.0,nan,nan,nan,nan,nan,nan,nan,nan,nan,nan,nan,nan,nan,nan,nan,nan,nan,nan,1497.134099498915,1748.1297483718954,nan,1748.3835796985659,nan,nan,nan,nan
1,183,1,1,1.0,1.0,0.19704743730835617,0,0.0,0.0,0.0,0.2159157514360538,0.09167540444440384,0.12424034699164996,0.3075911558804576,0.09167540444440384,0.2326236451820781,5,6,0,2,8,3,nan,nan,nan,nan,nan,nan,nan,nan,nan,nan,nan,nan,0.0,nan,nan,nan,nan,nan,nan,nan,nan,nan,nan,nan,nan,nan,nan,nan,nan,nan,nan,1497.134099498915,1749.146497730515,nan,1749.3435451678233,nan,nan,nan,nan
1,184,1,1,1.0,1.0,0.22017381130717695,0,0.0,0.0,0.0,0.21581207938040708,0.09143384077125238,0.1243782386091547,0.30724592015165947,0.09143384077125238,0.22368419176200405,8,7,2,6,1,4,nan,nan,nan,nan,nan,nan,nan,nan,nan,nan,nan,nan,0.0,nan,nan,nan,nan,nan,nan,nan,nan,nan,nan,nan,nan,nan,nan,nan,nan,nan,nan,1497.134099498915,1750.1633443066385,nan,1750.3835181179456,nan,nan,nan,nan
1,185,1,1,1.0,1.0,0.22738644143100828,0,0.0,0.0,0.0,0.21583591398109983,0.09118424625747489,0.12465166772362495,0.3070201602385747,0.09118424625747489,0.2148692300155138,1,8,4,0,2,6,nan,nan,nan,nan,nan,nan,nan,nan,nan,nan,nan,nan,0.0,nan,nan,nan,nan,nan,nan,nan,nan,nan,nan,nan,nan,nan,nan,nan,nan,nan,nan,1497.134099498915,1751.1801130517852,nan,1751.4074994932162,nan,nan,nan,nan
1,186,1,1,1.0,1.0,0.21054556721355766,0,0.0,0.0,0.0,0.21589868858680586,0.09094009039935495,0.1249585981874509,0.3068387789861608,0.09094009039935495,0.21936860665058097,6,7,8,4,5,0,nan,nan,nan,nan,nan,nan,nan,nan,nan,nan,nan,nan,0.0,nan,nan,nan,nan,nan,nan,nan,nan,nan,nan,nan,nan,nan,nan,nan,nan,nan,nan,1497.134099498915,1752.1969251313712,nan,1752.4074706985848,nan,nan,nan,nan
1,187,1,1,1.0,1.0,0.21773225371725857,0,0.0,0.0,0.0,0.2158697527955991,0.09069482266312547,0.12517493013247366,0.30656457545872456,0.09069482266312547,0.21855475412060818,4,2,0,3,8,6,nan,nan,nan,nan,nan,nan,nan,nan,nan,nan,nan,nan,0.0,nan,nan,nan,nan,nan,nan,nan,nan,nan,nan,nan,nan,nan,nan,nan,nan,nan,nan,1497.134099498915,1753.2137229561922,nan,1753.4314552099095,nan,nan,nan,nan
1,188,1,1,1.0,1.0,0.19290414493298158,0,0.0,0.0,0.0,0.21587976624141447,0.09045079334074203,0.12542897290067245,0.3063305595821565,0.09045079334074203,0.2070606552879326,2,7,4,8,3,1,nan,nan,nan,nan,nan,nan,nan,nan,nan,nan,nan,nan,0.0,nan,nan,nan,nan,nan,nan,nan,nan,nan,nan,nan,nan,nan,nan,nan,nan,nan,nan,1497.134099498915,1754.2305167897139,nan,1754.4234209346469,nan,nan,nan,nan
1,189,1,1,1.0,1.0,0.160082244372461,0,0.0,0.0,0.0,0.21575690195634264,0.09022418351067986,0.12553271844566277,0.3059810854670225,0.09022418351067986,0.1902395476742337,4,3,6,7,8,0,nan,nan,nan,nan,nan,nan,nan,nan,nan,nan,nan,nan,0.0,nan,nan,nan,nan,nan,nan,nan,nan,nan,nan,nan,nan,nan,nan,nan,nan,nan,nan,1497.134099498915,1755.2473143294337,nan,1755.4073965738062,nan,nan,nan,nan
1,190,1,1,1.0,1.0,0.2152770115644671,0,0.0,0.0,0.0,0.2154607601606837,0.09007498634901029,0.1253857738116734,0.30553574650969395,0.09007498634901029,0.18942113362330323,8,6,4,5,1,7,nan,nan,nan,nan,nan,nan,nan,nan,nan,nan,nan,nan,0.0,nan,nan,nan,nan,nan,nan,nan,nan,nan,nan,nan,nan,nan,nan,nan,nan,nan,nan,1497.134099498915,1756.2640939081903,nan,1756.4793709197547,nan,nan,nan,nan
1,191,1,1,1.0,1.0,0.21445394097827375,0,0.0,0.0,0.0,0.2154597879458889,0.0898363776835063,0.1256234102623826,0.3052961656293952,0.0898363776835063,0.19660439897173396,2,4,6,3,7,1,nan,nan,nan,nan,nan,nan,nan,nan,nan,nan,nan,nan,0.0,nan,nan,nan,nan,nan,nan,nan,nan,nan,nan,nan,nan,nan,nan,nan,nan,nan,nan,1497.134099498915,1757.28089144791,nan,1757.4953453888884,nan,nan,nan,nan
1,192,1,1,1.0,1.0,0.197620194114279,0,0.0,0.0,0.0,0.21545449401448039,0.08959968383266956,0.12585481018181083,0.30505417784714994,0.08959968383266956,0.20911704888567328,0,6,1,7,3,4,nan,nan,nan,nan,nan,nan,nan,nan,nan,nan,nan,nan,0.0,nan,nan,nan,nan,nan,nan,nan,nan,nan,nan,nan,nan,nan,nan,nan,nan,nan,nan,1497.134099498915,1758.2976986808935,nan,1758.4953188750078,nan,nan,nan,nan
1,193,1,1,1.0,1.0,0.21247509331442416,0,0.0,0.0,0.0,0.2153611207165736,0.08937408974117825,0.12598703097539535,0.30473521045775187,0.08937408974117825,0.20818307613565898,2,1,3,5,0,8,nan,nan,nan,nan,nan,nan,nan,nan,nan,nan,nan,nan,0.0,nan,nan,nan,nan,nan,nan,nan,nan,nan,nan,nan,nan,nan,nan,nan,nan,nan,nan,1497.134099498915,1759.3228195827687,nan,1759.5352946760831,nan,nan,nan,nan
1,194,1,1,1.0,1.0,0.21964495920110494,0,0.0,0.0,0.0,0.21534608932385405,0.08914128293088816,0.12620480639296588,0.3044873722547422,0.08914128293088816,0.20991341554326937,3,5,6,0,2,4,nan,nan,nan,nan,nan,nan,nan,nan,nan,nan,nan,nan,0.0,nan,nan,nan,nan,nan,nan,nan,nan,nan,nan,nan,nan,nan,nan,nan,nan,nan,nan,1497.134099498915,1760.3396082845284,nan,1760.5592532437295,nan,nan,nan,nan
1,195,1,1,1.0,1.0,0.2344981479109265,0,0.0,0.0,0.0,0.2153683632610419,0.08891058273681711,0.1264577805242248,0.304278945997859,0.08891058273681711,0.22220606680881852,7,0,5,4,1,2,nan,nan,nan,nan,nan,nan,nan,nan,nan,nan,nan,nan,0.0,nan,nan,nan,nan,nan,nan,nan,nan,nan,nan,nan,nan,nan,nan,nan,nan,nan,nan,1497.134099498915,1761.3647331777029,nan,1761.5992313256138,nan,nan,nan,nan
1,196,1,1,1.0,1.0,0.21734110271790996,0,0.0,0.0,0.0,0.21546697039841242,0.08869171571831486,0.12677525468009757,0.30415868611672725,0.08869171571831486,0.2238280699433138,8,1,4,7,3,5,nan,nan,nan,nan,nan,nan,nan,nan,nan,nan,nan,nan,0.0,nan,nan,nan,nan,nan,nan,nan,nan,nan,nan,nan,nan,nan,nan,nan,nan,nan,nan,1497.134099498915,1762.389858926239,nan,1762.6072000289569,nan,nan,nan,nan
1,197,1,1,1.0,1.0,0.2245158152654767,0,0.0,0.0,0.0,0.2154765813333842,0.08846411003829319,0.12701247129509102,0.3039406913716774,0.08846411003829319,0.22545168863143772,0,4,2,8,7,3,nan,nan,nan,nan,nan,nan,nan,nan,nan,nan,nan,nan,0.0,nan,nan,nan,nan,nan,nan,nan,nan,nan,nan,nan,nan,nan,nan,nan,nan,nan,nan,1497.134099498915,1763.4066593169118,nan,1763.6311751321773,nan,nan,nan,nan
1,198,1,1,1.0,1.0,0.27937388472491875,0,0.0,0.0,0.0,0.21552269987385406,0.08824049784141401,0.12728220203244006,0.30376319771526805,0.08824049784141401,0.24041026756943515,8,1,6,5,2,0,nan,nan,nan,nan,nan,nan,nan,nan,nan,nan,nan,nan,0.0,nan,nan,nan,nan,nan,nan,nan,nan,nan,nan,nan,nan,nan,nan,nan,nan,nan,nan,1497.134099498915,1764.4317685298738,nan,1764.7111424145987,nan,nan,nan,nan
1,199,1,1,1.0,1.0,0.1985527413780801,0,0.0,0.0,0.0,0.21584681756345336,0.0881331430634934,0.12771367449995996,0.30397996062694677,0.0881331430634934,0.23414748045615852,3,0,1,2,6,8,nan,nan,nan,nan,nan,nan,nan,nan,nan,nan,nan,nan,0.0,nan,nan,nan,nan,nan,nan,nan,nan,nan,nan,nan,nan,nan,nan,nan,nan,nan,nan,1497.134099498915,1765.4485840306152,nan,1765.6471367719932,nan,nan,nan,nan
1,200,1,1,1.0,1.0,0.1733981982106343,0,0.0,0.0,0.0,0.21575947374433532,0.08791885041296912,0.1278406233313662,0.30367832415730445,0.08791885041296912,0.21710827477121106,4,1,8,6,2,7,nan,nan,nan,nan,nan,nan,nan,nan,nan,nan,nan,nan,0.0,nan,nan,nan,nan,nan,nan,nan,nan,nan,nan,nan,nan,nan,nan,nan,nan,nan,nan,1497.134099498915,1766.4737046473892,nan,1766.6471028455999,nan,nan,nan,nan
1,201,1,1,1.0,1.0,0.1886014841729775,0,0.0,0.0,0.0,0.2155466030130102,0.08774880958865187,0.12779779342435832,0.3032954126016621,0.08774880958865187,0.18685080792056397,3,0,7,5,6,2,nan,nan,nan,nan,nan,nan,nan,nan,nan,nan,nan,nan,0.0,nan,nan,nan,nan,nan,nan,nan,nan,nan,nan,nan,nan,nan,nan,nan,nan,nan,nan,1497.134099498915,1767.4904731073766,nan,1767.6790745915496,nan,nan,nan,nan
1,202,1,1,1.0,1.0,0.2277633376652375,0,0.0,0.0,0.0,0.21541187741881004,0.08754979361749028,0.12786208380131975,0.30296167103630034,0.08754979361749028,0.19658767334961644,8,5,1,2,3,4,nan,nan,nan,nan,nan,nan,nan,nan,nan,nan,nan,nan,0.0,nan,nan,nan,nan,nan,nan,nan,nan,nan,nan,nan,nan,nan,nan,nan,nan,nan,nan,1497.134099498915,1768.5072894634213,nan,1768.7350528010866,nan,nan,nan,nan
1,203,1,1,1.0,1.0,0.22694283298915252,0,0.0,0.0,0.0,0.21547332746978728,0.08733606026843022,0.12813726720135707,0.30280938773821753,0.08733606026843022,0.21443588494245583,5,2,4,8,1,0,nan,nan,nan,nan,nan,nan,nan,nan,nan,nan,nan,nan,0.0,nan,nan,nan,nan,nan,nan,nan,nan,nan,nan,nan,nan,nan,nan,nan,nan,nan,nan,1497.134099498915,1769.52408671804,nan,1769.7510295510292,nan,nan,nan,nan
1,204,1,1,1.0,1.0,0.1857756178942509,0,0.0,0.0,0.0,0.21553010720008117,0.08712333270097525,0.12840677449910592,0.3026534399010564,0.08712333270097525,0.21349392951621363,2,8,1,4,6,3,nan,nan,nan,nan,nan,nan,nan,nan,nan,nan,nan,nan,0.0,nan,nan,nan,nan,nan,nan,nan,nan,nan,nan,nan,nan,nan,nan,nan,nan,nan,nan,1497.134099498915,1770.5492087603197,nan,1770.734984378214,nan,nan,nan,nan
1,205,1,1,1.0,1.0,0.20065902662463486,0,0.0,0.0,0.0,0.2153835333611362,0.08693344203353358,0.1284500913276026,0.3023169753946698,0.08693344203353358,0.2044591591693461,6,1,3,8,2,4,nan,nan,nan,nan,nan,nan,nan,nan,nan,nan,nan,nan,0.0,nan,nan,nan,nan,nan,nan,nan,nan,nan,nan,nan,nan,nan,nan,nan,nan,nan,nan,1497.134099498915,1771.5743145521265,nan,1771.774973578751,nan,nan,nan,nan
1,206,1,1,1.0,1.0,0.13578783423872665,0,0.0,0.0,0.0,0.2153113544065455,0.08672620561651252,0.12858514879003297,0.30203756002305804,0.08672620561651252,0.1740741595858708,8,3,4,0,5,7,nan,nan,nan,nan,nan,nan,nan,nan,nan,nan,nan,nan,0.0,nan,nan,nan,nan,nan,nan,nan,nan,nan,nan,nan,nan,nan,nan,nan,nan,nan,nan,1497.134099498915,1772.5911468734848,nan,1772.7269347077236,nan,nan,nan,nan
1,207,1,1,1.0,1.0,0.09497242694487795,0,0.0,0.0,0.0,0.21492343479597079,0.08669165511411282,0.12823177968185795,0.3016150899100836,0.08669165511411282,0.14380642926941314,5,8,1,2,6,0,nan,nan,nan,nan,nan,nan,nan,nan,nan,nan,nan,nan,0.0,nan,nan,nan,nan,nan,nan,nan,nan,nan,nan,nan,nan,nan,nan,nan,nan,nan,nan,1497.134099498915,1773.6079381411546,nan,1773.7029105680995,nan,nan,nan,nan
1,208,1,1,1.0,1.0,0.07015230087563396,0,1.0,0.0,0.0,0.2143411483500917,0.08688191481331602,0.12745923353677568,0.3012230631634077,0.08688191481331602,0.10030418735307951,7,5,6,3,4,1,nan,nan,nan,nan,nan,nan,nan,nan,nan,nan,nan,nan,0.0,nan,nan,nan,nan,nan,nan,nan,nan,nan,nan,nan,nan,nan,nan,nan,nan,nan,nan,1497.134099498915,1774.6247257025097,nan,1774.6948780033854,nan,nan,nan,nan
1,209,1,1,1.0,1.0,0.15731453755870461,1,0.0,0.0,1.0,0.21364458386953875,0.08724650551427914,0.12639807835525962,0.30089108938381787,0.08724650551427914,0.10747975512640551,8,2,1,7,3,6,1.0,1.0,1.0,1.0,1.0,1.0,1.0,1.0,1.0,0.0,0.0,1.0,4.0,8.0,2.0,1.0,0.0,1.0,6.0,2.0,1.0,4.0,5.0,6.0,3.0,1.9841948776156642,1.3043816037243232,3.5752476695924997,4.247344264469575,5.430513539642561,2.8243284505442716,1497.134099498915,1775.6415397778037,1776.4499311067048,1775.7988543153624,1782.925726074027,1783.9364684711327,1777.458388178551,1782.9173950143158
1,210,1,1,1.0,1.0,0.23940749181201681,0,0.0,0.0,0.0,0.2133737663391982,0.08712369723435982,0.12625006910483838,0.300497463573558,0.08712369723435982,0.15562477674878514,4,3,6,2,8,0,nan,nan,nan,nan,nan,nan,nan,nan,nan,nan,nan,nan,0.0,nan,nan,nan,nan,nan,nan,nan,nan,nan,nan,nan,nan,nan,nan,nan,nan,nan,nan,1497.134099498915,1784.1592511910712,nan,1784.3986586828833,nan,nan,nan,nan
1,211,1,1,1.0,1.0,0.22258144250372425,0,0.0,0.0,0.0,0.21349832961897244,0.08693358144814653,0.1265647481708259,0.300431911067119,0.08693358144814653,0.20643449062481523,0,6,3,5,1,2,nan,nan,nan,nan,nan,nan,nan,nan,nan,nan,nan,nan,0.0,nan,nan,nan,nan,nan,nan,nan,nan,nan,nan,nan,nan,nan,nan,nan,nan,nan,nan,1497.134099498915,1785.1760341909248,nan,1785.3986156334286,nan,nan,nan,nan
1,212,1,1,1.0,1.0,0.17377594974823296,0,0.0,0.0,0.0,0.21354158253747127,0.08672860392104005,0.1268129786164312,0.30027018645851133,0.08672860392104005,0.21192162802132467,8,1,4,6,2,5,nan,nan,nan,nan,nan,nan,nan,nan,nan,nan,nan,nan,0.0,nan,nan,nan,nan,nan,nan,nan,nan,nan,nan,nan,nan,nan,nan,nan,nan,nan,nan,1497.134099498915,1786.192829734995,nan,1786.3666056847433,nan,nan,nan,nan
1,213,1,1,1.0,1.0,0.14893529668916017,0,0.0,0.0,0.0,0.21335311982283034,0.08656593427732173,0.1267871855455086,0.29991905410015207,0.08656593427732173,0.18176422964703912,6,4,5,1,0,7,nan,nan,nan,nan,nan,nan,nan,nan,nan,nan,nan,nan,0.0,nan,nan,nan,nan,nan,nan,nan,nan,nan,nan,nan,nan,nan,nan,nan,nan,nan,nan,1497.134099498915,1787.209629840625,nan,1787.3585651373141,nan,nan,nan,nan
1,214,1,1,1.0,1.0,0.012108574621379375,0,1.0,0.0,0.0,0.21304926216653944,0.08647424494698372,0.12657501721955572,0.29952350711352316,0.08647424494698372,0.11160660701959084,2,3,0,7,5,6,nan,nan,nan,nan,nan,nan,nan,nan,nan,nan,nan,nan,0.0,nan,nan,nan,nan,nan,nan,nan,nan,nan,nan,nan,nan,nan,nan,nan,nan,nan,nan,1497.134099498915,1788.2264162616339,nan,1788.2385248362552,nan,nan,nan,nan
1,215,1,1,1.0,1.0,0.03527087060501799,1,0.0,0.0,1.0,0.21210587865693775,0.0873576681166555,0.12474821054028225,0.29946354677359327,0.0873576681166555,0.06543824730518584,8,4,7,0,3,1,1.0,1.0,1.0,1.0,1.0,1.0,1.0,1.0,1.0,0.0,0.0,1.0,4.0,8.0,4.0,7.0,6.0,0.0,1.0,2.0,1.0,4.0,5.0,6.0,3.0,1.9028406057041138,1.0873127671075054,3.772505222237669,4.437409428763203,5.5567674963967875,2.6925464926753193,1497.134099498915,1789.2432411705377,1790.0516276527778,1789.2785120411427,1796.65244097315,1797.6485015240032,1791.060092422238,1796.6441133345943
1,216,1,1,1.0,1.0,0.21699328627437353,0,0.0,0.0,0.0,0.21127954684361103,0.08798376655070142,0.12329578029290961,0.29926331339431245,0.08798376655070142,0.0881242438335903,6,1,0,3,2,8,nan,nan,nan,nan,nan,nan,nan,nan,nan,nan,nan,nan,0.0,nan,nan,nan,nan,nan,nan,nan,nan,nan,nan,nan,nan,nan,nan,nan,nan,nan,nan,1497.134099498915,1797.8693042558734,nan,1798.0862975421478,nan,nan,nan,nan
1,217,0,0,1.0,0.0,0.2001438591396436,0,0.0,0.0,0.0,0.21130612237584712,0.08777977556792955,0.12352634680791756,0.29908589794377666,0.08777977556792955,0.15080267200634503,4,5,8,6,0,3,nan,nan,nan,nan,nan,nan,nan,nan,nan,nan,nan,nan,0.0,nan,nan,nan,nan,nan,nan,nan,nan,nan,nan,nan,nan,nan,nan,nan,nan,nan,nan,1497.134099498915,1798.8861072124564,nan,1799.086251071596,nan,nan,nan,nan
1,218,1,1,1.0,1.0,0.11901709350058809,0,0.0,0.0,0.0,0.21125444523123507,0.08757962393083658,0.12367482130039849,0.29883406916207167,0.08757962393083658,0.17871807963820174,5,8,6,2,3,1,nan,nan,nan,nan,nan,nan,nan,nan,nan,nan,nan,nan,0.0,nan,nan,nan,nan,nan,nan,nan,nan,nan,nan,nan,nan,nan,nan,nan,nan,nan,nan,1497.134099498915,1799.911216140259,nan,1800.0302332337596,nan,nan,nan,nan
1,219,1,1,1.0,1.0,0.2541928277350962,0,0.0,0.0,0.0,0.21082938831081735,0.0876006248780616,0.12322876343275575,0.29843001318887896,0.0876006248780616,0.19111792679177597,1,7,8,0,6,4,nan,nan,nan,nan,nan,nan,nan,nan,nan,nan,nan,nan,0.0,nan,nan,nan,nan,nan,nan,nan,nan,nan,nan,nan,nan,nan,nan,nan,nan,nan,nan,1497.134099498915,1800.9280165309901,nan,1801.1822093587252,nan,nan,nan,nan
1,220,1,1,1.0,1.0,0.30139522871468216,0,0.0,0.0,0.0,0.21102830317056173,0.08744858093893935,0.12357972223162238,0.2984768841095011,0.08744858093893935,0.22486838331678882,0,1,5,6,8,7,nan,nan,nan,nan,nan,nan,nan,nan,nan,nan,nan,nan,0.0,nan,nan,nan,nan,nan,nan,nan,nan,nan,nan,nan,nan,nan,nan,nan,nan,nan,nan,1497.134099498915,1801.9447735871654,nan,1802.24616881588,nan,nan,nan,nan
1,221,1,1,1.0,1.0,0.20452720200410113,0,0.0,0.0,0.0,0.2114409375337769,0.08746115463707382,0.12397978289670308,0.29890209217085073,0.08746115463707382,0.2533717528179598,6,4,8,0,3,2,nan,nan,nan,nan,nan,nan,nan,nan,nan,nan,nan,nan,0.0,nan,nan,nan,nan,nan,nan,nan,nan,nan,nan,nan,nan,nan,nan,nan,nan,nan,nan,1497.134099498915,1802.9616178825381,nan,1803.1661450845422,nan,nan,nan,nan
1,222,1,1,1.0,1.0,0.19576308224350214,0,0.0,0.0,0.0,0.21140951146318746,0.08726339215782855,0.1241461193053589,0.298672903621016,0.08726339215782855,0.23389517098742849,4,3,6,8,2,7,nan,nan,nan,nan,nan,nan,nan,nan,nan,nan,nan,nan,0.0,nan,nan,nan,nan,nan,nan,nan,nan,nan,nan,nan,nan,nan,nan,nan,nan,nan,nan,1497.134099498915,1803.9783589733997,nan,1804.1741220556432,nan,nan,nan,nan
1,223,1,1,1.0,1.0,0.11491314426530153,0,0.0,0.0,0.0,0.21133871314092645,0.08707207233149657,0.12426664080942988,0.298410785472423,0.08707207233149657,0.17173447617096826,3,6,8,5,1,2,nan,nan,nan,nan,nan,nan,nan,nan,nan,nan,nan,nan,0.0,nan,nan,nan,nan,nan,nan,nan,nan,nan,nan,nan,nan,nan,nan,nan,nan,nan,nan,1497.134099498915,1804.995185307751,nan,1805.1100984520162,nan,nan,nan,nan
1,224,1,1,1.0,1.0,0.1941018309444189,0,0.0,0.0,0.0,0.21090436373157678,0.0871153740878252,0.12378898964375158,0.298019737819402,0.0871153740878252,0.16825935248440752,4,3,1,2,5,0,nan,nan,nan,nan,nan,nan,nan,nan,nan,nan,nan,nan,0.0,nan,nan,nan,nan,nan,nan,nan,nan,nan,nan,nan,nan,nan,nan,nan,nan,nan,nan,1497.134099498915,1806.0119720139191,nan,1806.2060738448636,nan,nan,nan,nan
1,225,1,1,1.0,1.0,0.09725233539938927,0,0.0,0.0,0.0,0.2108290160509169,0.0869270784652593,0.1239019375856576,0.2977560945161762,0.0869270784652593,0.13542243686970323,0,8,7,4,2,1,nan,nan,nan,nan,nan,nan,nan,nan,nan,nan,nan,nan,0.0,nan,nan,nan,nan,nan,nan,nan,nan,nan,nan,nan,nan,nan,nan,nan,nan,nan,nan,1497.134099498915,1807.0287815276533,nan,1807.1260338630527,nan,nan,nan,nan
1,226,1,1,1.0,1.0,0.06444925110554323,0,1.0,0.0,0.0,0.21032197729800828,0.08706270213370018,0.1232592751643081,0.29738467943170843,0.08706270213370018,0.1186011391497838,7,0,2,6,5,8,nan,nan,nan,nan,nan,nan,nan,nan,nan,nan,nan,nan,0.0,nan,nan,nan,nan,nan,nan,nan,nan,nan,nan,nan,nan,nan,nan,nan,nan,nan,nan,1497.134099498915,1808.0455628169584,nan,1808.110012068064,nan,nan,nan,nan
1,227,0,0,1.0,0.0,0.06362675077980384,0,0.0,0.0,0.0,0.20967365407048622,0.08740925551303448,0.12226439855745173,0.2970829095835207,0.08740925551303448,0.07510944576157878,5,7,0,1,3,4,nan,nan,nan,nan,nan,nan,nan,nan,nan,nan,nan,nan,0.0,nan,nan,nan,nan,nan,nan,nan,nan,nan,nan,nan,nan,nan,nan,nan,nan,nan,nan,1497.134099498915,1809.0623589311726,nan,1809.1259856819524,nan,nan,nan,nan
1,228,1,1,1.0,1.0,0.014795884490013123,0,0.0,0.0,0.0,0.20902742883468672,0.08775267833364193,0.12127475050104479,0.29678010716832864,0.08775267833364193,0.047623962125120066,7,1,8,4,2,5,nan,nan,nan,nan,nan,nan,nan,nan,nan,nan,nan,nan,0.0,nan,nan,nan,nan,nan,nan,nan,nan,nan,nan,nan,nan,nan,nan,nan,nan,nan,nan,1497.134099498915,1810.0791587517015,nan,1810.0939546361915,nan,nan,nan,nan
1,229,1,1,1.0,1.0,0.005971039412543178,0,0.0,0.0,0.0,0.20817178326488642,0.08849898719713477,0.11967279606775165,0.29667077046202117,0.08849898719713477,0.02813122489412005,1,5,2,0,6,4,nan,nan,nan,nan,nan,nan,nan,nan,nan,nan,nan,nan,0.0,nan,nan,nan,nan,nan,nan,nan,nan,nan,nan,nan,nan,nan,nan,nan,nan,nan,nan,1497.134099498915,1811.0959557212773,nan,1811.1019267606898,nan,nan,nan,nan
1,230,1,1,1.0,1.0,0.04516510874964297,0,1.0,0.0,0.0,0.20728493789711297,0.08930987541041707,0.1179750624866959,0.29659481330753,0.08930987541041707,0.021977344217399757,3,0,4,8,7,6,nan,nan,nan,nan,nan,nan,nan,nan,nan,nan,nan,nan,0.0,nan,nan,nan,nan,nan,nan,nan,nan,nan,nan,nan,nan,nan,nan,nan,nan,nan,nan,1497.134099498915,1812.112741857185,nan,1812.1579069659347,nan,nan,nan,nan
1,231,1,1,1.0,1.0,0.14834543416509405,1,0.0,0.0,1.0,0.20657699104494062,0.08975351846573035,0.11682347257921027,0.29633050951067097,0.08975351846573035,0.06649386077576007,6,5,1,3,2,8,1.0,1.0,1.0,1.0,1.0,1.0,1.0,0.0,0.0,0.0,0.0,1.0,2.0,6.0,1.0,5.0,6.0,7.0,8.0,3.0,2.0,1.0,4.0,5.0,6.0,2.3891404856112786,1.7890384784550406,1.079182414629031,3.132844223524444,3.7651908129337244,4.557018380379304,1497.134099498915,1813.1295442435658,1813.9379529632279,1813.2778896777309,1819.5553080926766,1820.5643196752644,1814.9630835583666,1819.5469815945253
1,232,1,1,1.0,1.0,0.25685305352089927,0,0.0,0.0,0.0,0.20632381036285433,0.08964010444524136,0.11668370591761297,0.2959639148080957,0.08964010444524136,0.15012119881187877,5,2,0,4,7,3,nan,nan,nan,nan,nan,nan,nan,nan,nan,nan,nan,nan,0.0,nan,nan,nan,nan,nan,nan,nan,nan,nan,nan,nan,nan,nan,nan,nan,nan,nan,nan,1497.134099498915,1820.78882209101,nan,1821.0456751445308,nan,nan,nan,nan
1,233,0,0,1.0,0.0,0.12802069337340072,0,0.0,0.0,0.0,0.2065425516752268,0.08950736423596573,0.11703518743926108,0.29604991591119256,0.08950736423596573,0.177739727019798,2,6,4,5,8,7,nan,nan,nan,nan,nan,nan,nan,nan,nan,nan,nan,nan,0.0,nan,nan,nan,nan,nan,nan,nan,nan,nan,nan,nan,nan,nan,nan,nan,nan,nan,nan,1497.134099498915,1821.8056387321558,nan,1821.9336594255292,nan,nan,nan,nan
1,234,1,1,1.0,1.0,0.11120918393135071,0,0.0,0.0,0.0,0.2062040953894431,0.08946226743464662,0.11674182795479647,0.2956663628240897,0.08946226743464662,0.16536097694188356,4,5,8,0,1,6,nan,nan,nan,nan,nan,nan,nan,nan,nan,nan,nan,nan,0.0,nan,nan,nan,nan,nan,nan,nan,nan,nan,nan,nan,nan,nan,nan,nan,nan,nan,nan,1497.134099498915,1822.8224208767642,nan,1822.9336300606956,nan,nan,nan,nan
1,235,1,1,1.0,1.0,0.1983905220986344,0,0.0,0.0,0.0,0.20579639190679033,0.0894858148247971,0.11631057708199323,0.29528220673158745,0.0894858148247971,0.14587346646779528,3,1,0,2,5,8,nan,nan,nan,nan,nan,nan,nan,nan,nan,nan,nan,nan,0.0,nan,nan,nan,nan,nan,nan,nan,nan,nan,nan,nan,nan,nan,nan,nan,nan,nan,nan,1497.134099498915,1823.8392206972349,nan,1824.0376112193335,nan,nan,nan,nan
1,236,1,1,1.0,1.0,0.13356893620220944,0,0.0,0.0,0.0,0.20576474289051616,0.08929570792752475,0.11646903496299141,0.2950604508180409,0.08929570792752475,0.14772288074406484,0,7,6,4,3,5,nan,nan,nan,nan,nan,nan,nan,nan,nan,nan,nan,nan,0.0,nan,nan,nan,nan,nan,nan,nan,nan,nan,nan,nan,nan,nan,nan,nan,nan,nan,nan,1497.134099498915,1824.8560088288505,nan,1824.9895777650527,nan,nan,nan,nan
1,237,1,1,1.0,1.0,0.0927982889697887,0,0.0,0.0,0.0,0.2054575266918425,0.08922935646788409,0.11622817022395841,0.2946868831597266,0.08922935646788409,0.1415859157568775,8,5,7,2,1,3,nan,nan,nan,nan,nan,nan,nan,nan,nan,nan,nan,nan,0.0,nan,nan,nan,nan,nan,nan,nan,nan,nan,nan,nan,nan,nan,nan,nan,nan,nan,nan,1497.134099498915,1825.8727647446212,nan,1825.965563033591,nan,nan,nan,nan
1,238,0,0,1.0,0.0,0.19594497315119952,0,0.0,0.0,0.0,0.20498015704047787,0.08934032406198629,0.11563983297849158,0.29432048110246417,0.08934032406198629,0.14077073277439922,4,7,5,1,6,0,nan,nan,nan,nan,nan,nan,nan,nan,nan,nan,nan,nan,0.0,nan,nan,nan,nan,nan,nan,nan,nan,nan,nan,nan,nan,nan,nan,nan,nan,nan,nan,1497.134099498915,1826.8895836665179,nan,1827.085528639669,nan,nan,nan,nan
1,239,1,1,1.0,1.0,0.18711613677442074,0,0.0,0.0,0.0,0.20494203390170454,0.0891535667712511,0.11578846713045345,0.29409560067295565,0.0891535667712511,0.15861979963180298,7,8,4,6,5,2,nan,nan,nan,nan,nan,nan,nan,nan,nan,nan,nan,nan,0.0,nan,nan,nan,nan,nan,nan,nan,nan,nan,nan,nan,nan,nan,nan,nan,nan,nan,nan,1497.134099498915,1827.9063832019456,nan,1828.09349933872,nan,nan,nan,nan
1,240,1,1,1.0,1.0,0.2819788020569831,0,0.0,0.0,0.0,0.20486713517427899,0.08897354399525287,0.11589359117902612,0.2938406791695318,0.08897354399525287,0.22167997066086778,3,1,7,8,4,5,nan,nan,nan,nan,nan,nan,nan,nan,nan,nan,nan,nan,0.0,nan,nan,nan,nan,nan,nan,nan,nan,nan,nan,nan,nan,nan,nan,nan,nan,nan,nan,1497.134099498915,1828.9314878533478,nan,1829.2134666554048,nan,nan,nan,nan
1,241,1,1,1.0,1.0,0.2011625052546151,0,0.0,0.0,0.0,0.2051897781319472,0.08892662374206838,0.11626315438987882,0.29411640187401555,0.08892662374206838,0.223419148028673,1,7,6,2,3,4,nan,nan,nan,nan,nan,nan,nan,nan,nan,nan,nan,nan,0.0,nan,nan,nan,nan,nan,nan,nan,nan,nan,nan,nan,nan,nan,nan,nan,nan,nan,nan,1497.134099498915,1829.9482739893137,nan,1830.1494364945684,nan,nan,nan,nan
1,242,1,1,1.0,1.0,0.1763760203612037,0,0.0,0.0,0.0,0.20517299782829165,0.0887415457329368,0.11643145209535485,0.2939145435612285,0.0887415457329368,0.2198391092242673,4,5,3,6,7,0,nan,nan,nan,nan,nan,nan,nan,nan,nan,nan,nan,nan,0.0,nan,nan,nan,nan,nan,nan,nan,nan,nan,nan,nan,nan,nan,nan,nan,nan,nan,nan,1497.134099498915,1830.9650538531132,nan,1831.1414298734744,nan,nan,nan,nan
1,243,1,1,1.0,1.0,0.5114484360674396,0,0.0,1.0,0.0,0.2050535082952332,0.08857658829034414,0.11647692000488906,0.2936300965855773,0.08857658829034414,0.2963289872277528,3,7,4,1,6,2,nan,nan,nan,nan,nan,nan,nan,nan,nan,nan,nan,nan,0.0,nan,nan,nan,nan,nan,nan,nan,nan,nan,nan,nan,nan,nan,nan,nan,nan,nan,nan,1497.134099498915,1831.9818944422877,nan,1832.4933428783552,nan,nan,nan,nan
1,244,1,1,1.0,1.0,0.30270438705338165,1,0.0,0.0,1.0,0.20631960303809355,0.0905522682975704,0.11576733474052314,0.29687187133566395,0.0905522682975704,0.330176281160675,5,3,8,7,4,1,1.0,1.0,1.0,1.0,1.0,1.0,0.0,0.0,0.0,1.0,0.0,0.0,1.0,1.0,6.0,1.0,7.0,8.0,4.0,6.0,3.0,2.0,1.0,4.0,5.0,5.703655807650648,2.4974784731166437,1.8417015979648568,1.1691194854793139,4.136215192324016,4.863662501680665,1497.134099498915,1832.998654349416,1833.8070915786666,1833.3013587364694,1840.557922703214,1841.5613914597197,1834.8155717432965,1840.5495936391526
1,245,0,0,1.0,0.0,0.15805521560832858,0,0.0,0.0,0.0,0.20671624823980256,0.09057617154864872,0.11614007669115384,0.2972924197884513,0.09057617154864872,0.32406934624304995,4,5,1,6,0,8,nan,nan,nan,nan,nan,nan,nan,nan,nan,nan,nan,nan,0.0,nan,nan,nan,nan,nan,nan,nan,nan,nan,nan,nan,nan,nan,nan,nan,nan,nan,nan,1497.134099498915,1841.78311077354,nan,1841.9411659891484,nan,nan,nan,nan
1,246,1,1,1.0,1.0,0.1972338897176087,0,0.0,0.0,0.0,0.20651681777819816,0.09044381927836066,0.1160729984998375,0.29696063705655884,0.09044381927836066,0.21933116412643963,2,3,4,0,8,6,nan,nan,nan,nan,nan,nan,nan,nan,nan,nan,nan,nan,0.0,nan,nan,nan,nan,nan,nan,nan,nan,nan,nan,nan,nan,nan,nan,nan,nan,nan,nan,1497.134099498915,1842.7998795186868,nan,1842.9971134084044,nan,nan,nan,nan
1,247,1,1,1.0,1.0,0.25238247151719406,0,0.0,0.0,0.0,0.20647892827591002,0.09026099177268206,0.11621793650322797,0.29673992004859207,0.09026099177268206,0.20255719228104377,4,6,0,2,3,1,nan,nan,nan,nan,nan,nan,nan,nan,nan,nan,nan,nan,0.0,nan,nan,nan,nan,nan,nan,nan,nan,nan,nan,nan,nan,nan,nan,nan,nan,nan,nan,1497.134099498915,1843.8167069934425,nan,1844.0690894649597,nan,nan,nan,nan
1,248,1,1,1.0,1.0,0.19557320862077177,0,0.0,0.0,0.0,0.20666552804518354,0.09012468768953773,0.11654084035564581,0.29679021573472125,0.09012468768953773,0.21506318995185816,2,1,8,6,4,5,nan,nan,nan,nan,nan,nan,nan,nan,nan,nan,nan,nan,0.0,nan,nan,nan,nan,nan,nan,nan,nan,nan,nan,nan,nan,nan,nan,nan,nan,nan,nan,1497.134099498915,1844.8334879976464,nan,1845.0290612062672,nan,nan,nan,nan
1,249,1,1,1.0,1.0,0.21873436431633309,0,0.0,0.0,0.0,0.20662061986937622,0.08994482197152837,0.11667579789784785,0.2965654418409046,0.08994482197152837,0.22223001481809965,6,3,5,2,1,8,nan,nan,nan,nan,nan,nan,nan,nan,nan,nan,nan,nan,0.0,nan,nan,nan,nan,nan,nan,nan,nan,nan,nan,nan,nan,nan,nan,nan,nan,nan,nan,1497.134099498915,1845.8502858224674,nan,1846.0690201867837,nan,nan,nan,nan
1,250,1,1,1.0,1.0,0.2736192327574827,0,0.0,0.0,0.0,0.20666946561311395,0.0897665809998911,0.11690288461322285,0.29643604661300504,0.0897665809998911,0.22930893523152918,0,2,3,4,8,5,nan,nan,nan,nan,nan,nan,nan,nan,nan,nan,nan,nan,0.0,nan,nan,nan,nan,nan,nan,nan,nan,nan,nan,nan,nan,nan,nan,nan,nan,nan,nan,1497.134099498915,1846.875399596931,nan,1847.1490188296884,nan,nan,nan,nan
1,251,1,1,1.0,1.0,0.29675729566952214,0,0.0,0.0,0.0,0.2069383401799588,0.08968615421485253,0.11725218596510627,0.2966244943948113,0.08968615421485253,0.2630369642477793,8,7,6,2,1,4,nan,nan,nan,nan,nan,nan,nan,nan,nan,nan,nan,nan,0.0,nan,nan,nan,nan,nan,nan,nan,nan,nan,nan,nan,nan,nan,nan,nan,nan,nan,nan,1497.134099498915,1847.8922131020227,nan,1848.1889703976922,nan,nan,nan,nan
1,252,1,1,1.0,1.0,0.31993384641828015,0,0.0,0.0,0.0,0.20729761600191704,0.08968596619741355,0.11761164980450349,0.2969835821993306,0.08968596619741355,0.2967701249484283,1,0,8,3,7,2,nan,nan,nan,nan,nan,nan,nan,nan,nan,nan,nan,nan,0.0,nan,nan,nan,nan,nan,nan,nan,nan,nan,nan,nan,nan,nan,nan,nan,nan,nan,nan,1497.134099498915,1848.9090037994902,nan,1849.2289376459084,nan,nan,nan,nan
1,253,1,1,1.0,1.0,0.2711172349518165,0,0.0,0.0,0.0,0.2077463659238946,0.08978791984545637,0.11795844607843822,0.2975342857693509,0.08978791984545637,0.29593612567987293,4,6,1,5,0,8,nan,nan,nan,nan,nan,nan,nan,nan,nan,nan,nan,nan,0.0,nan,nan,nan,nan,nan,nan,nan,nan,nan,nan,nan,nan,nan,nan,nan,nan,nan,nan,1497.134099498915,1849.925809606968,nan,1850.1969268419198,nan,nan,nan,nan
1,254,1,1,1.0,1.0,0.22997852944536135,0,0.0,0.0,0.0,0.20799783762638635,0.08969811448786144,0.11829972313852491,0.2976959521142478,0.08969811448786144,0.273676536938486,8,5,2,7,1,3,nan,nan,nan,nan,nan,nan,nan,nan,nan,nan,nan,nan,0.0,nan,nan,nan,nan,nan,nan,nan,nan,nan,nan,nan,nan,nan,nan,nan,nan,nan,nan,1497.134099498915,1850.950921670883,nan,1851.1809002003283,nan,nan,nan,nan
1,255,1,1,1.0,1.0,0.28481236583320424,0,0.0,0.0,0.0,0.20808471783120444,0.08953129336286572,0.11855342446833872,0.29761601119407016,0.08953129336286572,0.2619693767434607,5,2,4,1,7,8,nan,nan,nan,nan,nan,nan,nan,nan,nan,nan,nan,nan,0.0,nan,nan,nan,nan,nan,nan,nan,nan,nan,nan,nan,nan,nan,nan,nan,nan,nan,nan,1497.134099498915,1851.9760514107184,nan,1852.2608637765516,nan,nan,nan,nan
1,256,1,1,1.0,1.0,0.21198529936373234,0,0.0,0.0,0.0,0.208386795185543,0.08948396756423842,0.1189028276213046,0.2978707627497814,0.08948396756423842,0.24225873154743263,1,7,0,2,3,5,nan,nan,nan,nan,nan,nan,nan,nan,nan,nan,nan,nan,0.0,nan,nan,nan,nan,nan,nan,nan,nan,nan,nan,nan,nan,nan,nan,nan,nan,nan,nan,1497.134099498915,1852.9928575032973,nan,1853.204842802661,nan,nan,nan,nan
1,257,1,1,1.0,1.0,0.2591708796680905,0,0.0,0.0,0.0,0.20840090696663394,0.08930861963569738,0.11909228733093656,0.2977095266023313,0.08930861963569738,0.25198951495500904,0,6,5,3,7,2,nan,nan,nan,nan,nan,nan,nan,nan,nan,nan,nan,nan,0.0,nan,nan,nan,nan,nan,nan,nan,nan,nan,nan,nan,nan,nan,nan,nan,nan,nan,nan,1497.134099498915,1854.0096376521979,nan,1854.268808531866,nan,nan,nan,nan
1,258,1,1,1.0,1.0,0.25799571617972106,0,0.0,0.0,0.0,0.208599227172499,0.08919026043448965,0.11940896673800937,0.29778948760698865,0.08919026043448965,0.2430506317371813,2,5,7,0,1,4,nan,nan,nan,nan,nan,nan,nan,nan,nan,nan,nan,nan,0.0,nan,nan,nan,nan,nan,nan,nan,nan,nan,nan,nan,nan,nan,nan,nan,nan,nan,nan,1497.134099498915,1855.0348107265308,nan,1855.2928064427106,nan,nan,nan,nan
1,259,1,1,1.0,1.0,0.20920134213520214,0,0.0,0.0,0.0,0.2087914314098812,0.08906967441372682,0.1197217569961544,0.29786110582360803,0.08906967441372682,0.2421226459943379,3,2,4,5,8,7,nan,nan,nan,nan,nan,nan,nan,nan,nan,nan,nan,nan,0.0,nan,nan,nan,nan,nan,nan,nan,nan,nan,nan,nan,nan,nan,nan,nan,nan,nan,nan,1497.134099498915,1856.0515566639951,nan,1856.2607580061303,nan,nan,nan,nan
1,260,1,1,1.0,1.0,0.2403802375192754,0,0.0,0.0,0.0,0.20879302021114213,0.08889689482631974,0.11989612538482239,0.2976899150374619,0.08889689482631974,0.23585909861139953,5,0,3,6,2,1,nan,nan,nan,nan,nan,nan,nan,nan,nan,nan,nan,nan,0.0,nan,nan,nan,nan,nan,nan,nan,nan,nan,nan,nan,nan,nan,nan,nan,nan,nan,nan,1497.134099498915,1857.0683579099714,nan,1857.3087381474907,nan,nan,nan,nan
1,261,1,1,1.0,1.0,0.19123690662672743,0,0.0,0.0,0.0,0.2089149785791272,0.08874673610160849,0.1201682424775187,0.29766171468073566,0.08874673610160849,0.21360616209373498,0,8,1,7,5,3,nan,nan,nan,nan,nan,nan,nan,nan,nan,nan,nan,nan,0.0,nan,nan,nan,nan,nan,nan,nan,nan,nan,nan,nan,nan,nan,nan,nan,nan,nan,nan,1497.134099498915,1858.093487934908,nan,1858.2847248415346,nan,nan,nan,nan
1,262,1,1,1.0,1.0,0.20640712144086137,0,0.0,0.0,0.0,0.2088469859946949,0.08858266354394821,0.12026432245074668,0.2974296495386431,0.08858266354394821,0.2126747551956214,4,1,3,5,2,8,nan,nan,nan,nan,nan,nan,nan,nan,nan,nan,nan,nan,0.0,nan,nan,nan,nan,nan,nan,nan,nan,nan,nan,nan,nan,nan,nan,nan,nan,nan,nan,1497.134099498915,1859.1102843342815,nan,1859.3166914557223,nan,nan,nan,nan
1,263,1,1,1.0,1.0,0.26161956461146474,0,0.0,0.0,0.0,0.2088376378546419,0.08841293058875753,0.12042470726588438,0.2972505684433994,0.08841293058875753,0.21975453089301786,5,8,7,2,0,4,nan,nan,nan,nan,nan,nan,nan,nan,nan,nan,nan,nan,0.0,nan,nan,nan,nan,nan,nan,nan,nan,nan,nan,nan,nan,nan,nan,nan,nan,nan,nan,1497.134099498915,1860.1270431010053,nan,1860.3886626656167,nan,nan,nan,nan
1,264,1,1,1.0,1.0,0.24477954563917592,0,0.0,0.0,0.0,0.20903909559035497,0.08830404150615517,0.1207350540841998,0.29734313709651017,0.08830404150615517,0.23760207723050067,4,3,5,1,7,8,nan,nan,nan,nan,nan,nan,nan,nan,nan,nan,nan,nan,0.0,nan,nan,nan,nan,nan,nan,nan,nan,nan,nan,nan,nan,nan,nan,nan,nan,nan,nan,1497.134099498915,1861.1438691503135,nan,1861.3886486959527,nan,nan,nan,nan
1,265,1,1,1.0,1.0,0.20394389663124457,0,0.0,0.0,0.0,0.20917499083768887,0.08816344793992378,0.12101154289776508,0.2973384387776127,0.08816344793992378,0.23678100229396173,2,6,0,8,3,1,nan,nan,nan,nan,nan,nan,nan,nan,nan,nan,nan,nan,0.0,nan,nan,nan,nan,nan,nan,nan,nan,nan,nan,nan,nan,nan,nan,nan,nan,nan,nan,1497.134099498915,1862.1606527203694,nan,1862.3645966170006,nan,nan,nan,nan
1,266,1,1,1.0,1.0,0.18712868099100888,0,0.0,0.0,0.0,0.2091551760869069,0.08799690001948168,0.12115827606742521,0.2971520761063886,0.08799690001948168,0.21195070775380978,1,4,5,7,0,6,nan,nan,nan,nan,nan,nan,nan,nan,nan,nan,nan,nan,0.0,nan,nan,nan,nan,nan,nan,nan,nan,nan,nan,nan,nan,nan,nan,nan,nan,nan,nan,1497.134099498915,1863.1774622341036,nan,1863.3645909150946,nan,nan,nan,nan
1,267,1,1,1.0,1.0,0.22597892518388107,0,0.0,0.0,0.0,0.20907205723748842,0.08784109367792449,0.12123096355956393,0.2969131509154129,0.08784109367792449,0.2056838342687115,7,8,3,5,6,0,nan,nan,nan,nan,nan,nan,nan,nan,nan,nan,nan,nan,0.0,nan,nan,nan,nan,nan,nan,nan,nan,nan,nan,nan,nan,nan,nan,nan,nan,nan,nan,1497.134099498915,1864.2025851316284,nan,1864.4285640568123,nan,nan,nan,nan
1,268,0,0,1.0,0.0,0.24881877820007503,0,0.0,0.0,0.0,0.2091356168914222,0.08768192834057043,0.12145368855085178,0.29681754523199266,0.08768192834057043,0.22064212812498832,3,5,4,8,1,6,nan,nan,nan,nan,nan,nan,nan,nan,nan,nan,nan,nan,0.0,nan,nan,nan,nan,nan,nan,nan,nan,nan,nan,nan,nan,nan,nan,nan,nan,nan,nan,1497.134099498915,1865.22770973976,nan,1865.47652851796,nan,nan,nan,nan
1,269,1,1,1.0,1.0,0.26400125212967396,0,0.0,0.0,0.0,0.20928424296373926,0.08755113911992837,0.12173310384381089,0.29683538208366766,0.08755113911992837,0.24626631850454336,4,8,6,5,7,3,nan,nan,nan,nan,nan,nan,nan,nan,nan,nan,nan,nan,0.0,nan,nan,nan,nan,nan,nan,nan,nan,nan,nan,nan,nan,nan,nan,nan,nan,nan,nan,1497.134099498915,1866.2445058540325,nan,1866.5085071061621,nan,nan,nan,nan
1,270,1,1,1.0,1.0,0.39115468511590734,0,0.0,0.0,0.0,0.20948841090838827,0.0874513020834508,0.12203710882493747,0.2969397129918391,0.0874513020834508,0.3013249051485521,0,2,1,6,8,4,nan,nan,nan,nan,nan,nan,nan,nan,nan,nan,nan,nan,0.0,nan,nan,nan,nan,nan,nan,nan,nan,nan,nan,nan,nan,nan,nan,nan,nan,nan,nan,1497.134099498915,1867.261319644167,nan,1867.652474329283,nan,nan,nan,nan
1,271,1,1,1.0,1.0,0.35842116409912705,0,0.0,1.0,0.0,0.21016375021770992,0.0879859665238304,0.12217778369387952,0.29814971674154034,0.0879859665238304,0.33785903378156945,5,7,8,3,4,2,nan,nan,nan,nan,nan,nan,nan,nan,nan,nan,nan,nan,0.0,nan,nan,nan,nan,nan,nan,nan,nan,nan,nan,nan,nan,nan,nan,nan,nan,nan,nan,1497.134099498915,1868.278047335567,nan,1868.636468499666,nan,nan,nan,nan
1,272,1,1,1.0,1.0,0.26956517522921786,1,0.0,0.0,1.0,0.21071285175060406,0.08828343463754074,0.12242941711306332,0.2989962863881448,0.08828343463754074,0.33971367481475073,7,6,1,0,3,8,1.0,1.0,1.0,1.0,1.0,1.0,1.0,0.0,0.0,0.0,0.0,0.0,1.0,7.0,1.0,2.0,8.0,4.0,6.0,2.0,1.0,4.0,5.0,6.0,3.0,2.7185953802545555,1.873269363597501,5.470871938799974,6.030806275608484,6.718431735411286,3.4802780934842303,1497.134099498915,1869.2948545685504,1870.1032986400533,1869.5644197437796,1877.8792529472266,1878.8788515328197,1871.1200876269722,1877.8709204620682
1,273,1,1,1.0,1.0,0.3400755560141988,0,0.0,0.0,0.0,0.2109300189959126,0.08819262128392774,0.12273739771198486,0.29912264027984037,0.08819262128392774,0.3226872984475146,4,8,5,6,2,3,nan,nan,nan,nan,nan,nan,nan,nan,nan,nan,nan,nan,0.0,nan,nan,nan,nan,nan,nan,nan,nan,nan,nan,nan,nan,nan,nan,nan,nan,nan,nan,1497.134099498915,1879.0961062516435,nan,1879.4361818076577,nan,nan,nan,nan
