block,trial,freq_trials,correct_response,actual_response,acc,rts,probe_trials,fast_rt_trigger,slow_rt_trigger,rt_triggered,rts_runningavg,rts_runningstd,rts_runningfastthresh,rts_runningslowthresh,rts_runningstd,rts_trailingavg,trials_colorind0,trials_colorind1,trials_colorind2,trials_colorind3,trials_colorind4,trials_colorind5,wholereport_resp0,wholereport_resp1,wholereport_resp2,wholereport_resp3,wholereport_resp4,wholereport_resp5,wholereport_respacc0,wholereport_respacc1,wholereport_respacc2,wholereport_respacc3,wholereport_respacc4,wholereport_respacc5,wholereport_respacc_total,wholereport_respcolorind0,wholereport_respcolorind1,wholereport_respcolorind2,wholereport_respcolorind3,wholereport_respcolorind4,wholereport_respcolorind5,wholereport_resporder0,wholereport_resporder1,wholereport_resporder2,wholereport_resporder3,wholereport_resporder4,wholereport_resporder5,wholereport_rts0,wholereport_rts1,wholereport_rts2,wholereport_rts3,wholereport_rts4,wholereport_rts5,time_blockstart,time_encarray_offset,time_encarray_onset,time_response,time_iti_offset,time_iti_onset,time_memprobe_offset,time_memprobe_onset
1,1,1,1,1.0,1.0,0.41454221273306757,0,nan,nan,nan,nan,nan,nan,nan,nan,nan,0,4,5,6,7,1,nan,nan,nan,nan,nan,nan,nan,nan,nan,nan,nan,nan,0.0,nan,nan,nan,nan,nan,nan,nan,nan,nan,nan,nan,nan,nan,nan,nan,nan,nan,nan,578.3267021480424,579.3521514051827,nan,579.7666936179157,nan,nan,nan,nan
1,2,1,1,1.0,1.0,0.33331755790277384,0,nan,nan,nan,nan,nan,nan,nan,nan,nan,6,5,0,4,8,7,nan,nan,nan,nan,nan,nan,nan,nan,nan,nan,nan,nan,0.0,nan,nan,nan,nan,nan,nan,nan,nan,nan,nan,nan,nan,nan,nan,nan,nan,nan,nan,578.3267021480424,580.3773691629176,nan,580.7106867208204,nan,nan,nan,nan
1,3,1,1,1.0,1.0,0.3245838712027762,0,nan,nan,nan,nan,nan,nan,nan,nan,nan,3,8,5,6,2,4,nan,nan,nan,nan,nan,nan,nan,nan,nan,nan,nan,nan,0.0,nan,nan,nan,nan,nan,nan,nan,nan,nan,nan,nan,nan,nan,nan,nan,nan,nan,nan,578.3267021480424,581.3940878694411,nan,581.7186717406439,nan,nan,nan,nan
1,4,1,1,1.0,1.0,0.30775283614639193,0,nan,nan,nan,nan,nan,nan,nan,nan,nan,1,6,8,3,0,7,nan,nan,nan,nan,nan,nan,nan,nan,nan,nan,nan,nan,0.0,nan,nan,nan,nan,nan,nan,nan,nan,nan,nan,nan,nan,nan,nan,nan,nan,nan,nan,578.3267021480424,582.4108861182467,nan,582.7186389543931,nan,nan,nan,nan
1,5,1,1,1.0,1.0,0.2749460595077835,0,nan,nan,nan,nan,nan,nan,nan,nan,nan,3,5,0,4,6,2,nan,nan,nan,nan,nan,nan,nan,nan,nan,nan,nan,nan,0.0,nan,nan,nan,nan,nan,nan,nan,nan,nan,nan,nan,nan,nan,nan,nan,nan,nan,nan,578.3267021480424,583.4276803756948,nan,583.7026264352025,nan,nan,nan,nan
1,6,1,1,1.0,1.0,0.30612407228909433,0,nan,nan,nan,nan,nan,nan,nan,nan,nan,0,6,7,8,4,1,nan,nan,nan,nan,nan,nan,nan,nan,nan,nan,nan,nan,0.0,nan,nan,nan,nan,nan,nan,nan,nan,nan,nan,nan,nan,nan,nan,nan,nan,nan,nan,578.3267021480424,584.4444771990238,nan,584.7506012713129,nan,nan,nan,nan
1,7,1,1,1.0,1.0,0.32932590329437517,0,nan,nan,nan,nan,nan,nan,nan,nan,nan,1,7,6,3,8,4,nan,nan,nan,nan,nan,nan,nan,nan,nan,nan,nan,nan,0.0,nan,nan,nan,nan,nan,nan,nan,nan,nan,nan,nan,nan,nan,nan,nan,nan,nan,nan,578.3267021480424,585.4612643290311,nan,585.7905902323255,nan,nan,nan,nan
1,8,1,1,1.0,1.0,0.2881594882637728,0,nan,nan,nan,nan,nan,nan,nan,nan,nan,3,4,8,0,5,7,nan,nan,nan,nan,nan,nan,nan,nan,nan,nan,nan,nan,0.0,nan,nan,nan,nan,nan,nan,nan,nan,nan,nan,nan,nan,nan,nan,nan,nan,nan,nan,578.3267021480424,586.4863851534901,nan,586.7745446417539,nan,nan,nan,nan
1,9,1,1,1.0,1.0,0.26300958383944817,0,nan,nan,nan,nan,nan,nan,nan,nan,nan,0,6,4,1,3,5,nan,nan,nan,nan,nan,nan,nan,nan,nan,nan,nan,nan,0.0,nan,nan,nan,nan,nan,nan,nan,nan,nan,nan,nan,nan,nan,nan,nan,nan,nan,nan,578.3267021480424,587.5115501680993,nan,587.7745597519388,nan,nan,nan,nan
1,10,1,1,1.0,1.0,0.2702188524999656,0,nan,nan,nan,nan,nan,nan,nan,nan,nan,3,0,2,5,6,4,nan,nan,nan,nan,nan,nan,nan,nan,nan,nan,nan,nan,0.0,nan,nan,nan,nan,nan,nan,nan,nan,nan,nan,nan,nan,nan,nan,nan,nan,nan,nan,578.3267021480424,588.528328174958,nan,588.798547027458,nan,nan,nan,nan
1,11,0,0,1.0,0.0,0.3013726319768466,0,0.0,0.0,0.0,nan,nan,nan,nan,nan,nan,7,5,8,2,3,6,nan,nan,nan,nan,nan,nan,nan,nan,nan,nan,nan,nan,0.0,nan,nan,nan,nan,nan,nan,nan,nan,nan,nan,nan,nan,nan,nan,nan,nan,nan,nan,578.3267021480424,589.5451352618111,nan,589.8465078937879,nan,nan,nan,nan
1,12,1,1,1.0,1.0,0.6762226705322973,0,nan,nan,nan,nan,nan,nan,nan,nan,nan,2,1,6,7,8,4,nan,nan,nan,nan,nan,nan,nan,nan,nan,nan,nan,nan,0.0,nan,nan,nan,nan,nan,nan,nan,nan,nan,nan,nan,nan,nan,nan,nan,nan,nan,nan,578.3267021480424,590.570260932931,nan,591.2464836034633,nan,nan,nan,nan
1,13,1,1,1.0,1.0,0.5393953873426653,0,nan,nan,nan,nan,nan,nan,nan,nan,nan,8,4,1,3,7,0,nan,nan,nan,nan,nan,nan,nan,nan,nan,nan,nan,nan,0.0,nan,nan,nan,nan,nan,nan,nan,nan,nan,nan,nan,nan,nan,nan,nan,nan,nan,nan,578.3267021480424,591.5870734366472,nan,592.1264688239899,nan,nan,nan,nan
1,14,1,1,1.0,1.0,0.48228088521864265,0,nan,nan,nan,nan,nan,nan,nan,nan,nan,1,2,3,4,6,7,nan,nan,nan,nan,nan,nan,nan,nan,nan,nan,nan,nan,0.0,nan,nan,nan,nan,nan,nan,nan,nan,nan,nan,nan,nan,nan,nan,nan,nan,nan,nan,578.3267021480424,592.6121743042604,nan,593.094455189479,nan,nan,nan,nan
1,15,1,1,1.0,1.0,0.40111239469842985,1,nan,nan,nan,nan,nan,nan,nan,nan,nan,2,1,6,0,5,8,1.0,1.0,1.0,1.0,1.0,1.0,0.0,0.0,0.0,1.0,0.0,0.0,1.0,7.0,8.0,3.0,0.0,2.0,6.0,4.0,3.0,2.0,1.0,6.0,5.0,5.979665967985056,4.9251113592181355,4.0300316344655585,2.7321474594355095,10.507700207090238,7.5236830761423334,578.3267021480424,593.6373264894646,594.4457367612049,594.038438884163,606.0138962380879,607.0148421926715,595.4708869507303,606.0055631138093
1,16,1,1,1.0,1.0,0.7591696012823377,0,nan,nan,nan,nan,nan,nan,nan,nan,nan,8,6,2,7,3,1,nan,nan,nan,nan,nan,nan,nan,nan,nan,nan,nan,nan,0.0,nan,nan,nan,nan,nan,nan,nan,nan,nan,nan,nan,nan,nan,nan,nan,nan,nan,nan,578.3267021480424,607.2390610816365,nan,607.9982306829188,nan,nan,nan,nan
1,17,1,1,1.0,1.0,0.6382815671677236,0,nan,nan,nan,nan,nan,nan,nan,nan,nan,6,0,4,8,7,2,nan,nan,nan,nan,nan,nan,nan,nan,nan,nan,nan,nan,0.0,nan,nan,nan,nan,nan,nan,nan,nan,nan,nan,nan,nan,nan,nan,nan,nan,nan,nan,578.3267021480424,608.2558952527761,nan,608.8941768199438,nan,nan,nan,nan
1,18,1,1,1.0,1.0,0.5334750459587667,0,nan,nan,nan,nan,nan,nan,nan,nan,nan,2,8,5,7,6,3,nan,nan,nan,nan,nan,nan,nan,nan,nan,nan,nan,nan,0.0,nan,nan,nan,nan,nan,nan,nan,nan,nan,nan,nan,nan,nan,nan,nan,nan,nan,nan,578.3267021480424,609.2726923612063,nan,609.806167407165,nan,nan,nan,nan
1,19,1,1,1.0,1.0,0.5246509832504671,0,nan,nan,nan,nan,nan,nan,nan,nan,nan,3,0,8,4,1,5,nan,nan,nan,nan,nan,nan,nan,nan,nan,nan,nan,nan,0.0,nan,nan,nan,nan,nan,nan,nan,nan,nan,nan,nan,nan,nan,nan,nan,nan,nan,nan,578.3267021480424,610.2894888994342,nan,610.8141398826847,nan,nan,nan,nan
1,20,1,1,1.0,1.0,0.49982095856103115,0,nan,nan,nan,nan,nan,nan,nan,nan,nan,4,1,3,5,8,6,nan,nan,nan,nan,nan,nan,nan,nan,nan,nan,nan,nan,0.0,nan,nan,nan,nan,nan,nan,nan,nan,nan,nan,nan,nan,nan,nan,nan,nan,nan,nan,578.3267021480424,611.3063102411688,nan,611.8061311997299,nan,nan,nan,nan
1,21,1,1,1.0,1.0,0.491028826800175,0,nan,nan,nan,nan,nan,nan,nan,nan,nan,5,8,6,1,4,7,nan,nan,nan,nan,nan,nan,nan,nan,nan,nan,nan,nan,0.0,nan,nan,nan,nan,nan,nan,nan,nan,nan,nan,nan,nan,nan,nan,nan,nan,nan,nan,578.3267021480424,612.3230825460923,nan,612.8141113728925,nan,nan,nan,nan
1,22,1,1,1.0,1.0,0.5058678833884187,0,nan,nan,nan,nan,nan,nan,nan,nan,nan,1,7,8,2,0,5,nan,nan,nan,nan,nan,nan,nan,nan,nan,nan,nan,nan,0.0,nan,nan,nan,nan,nan,nan,nan,nan,nan,nan,nan,nan,nan,nan,nan,nan,nan,nan,578.3267021480424,613.3481939623307,nan,613.8540618457191,nan,nan,nan,nan
1,23,1,1,1.0,1.0,0.5450503026368096,0,nan,nan,nan,nan,nan,nan,nan,nan,nan,0,5,7,6,4,8,nan,nan,nan,nan,nan,nan,nan,nan,nan,nan,nan,nan,0.0,nan,nan,nan,nan,nan,nan,nan,nan,nan,nan,nan,nan,nan,nan,nan,nan,nan,nan,578.3267021480424,614.3650230017083,nan,614.9100733043451,nan,nan,nan,nan
1,24,1,1,1.0,1.0,0.584256955247838,0,nan,nan,nan,nan,nan,nan,nan,nan,nan,8,1,6,2,0,3,nan,nan,nan,nan,nan,nan,nan,nan,nan,nan,nan,nan,0.0,nan,nan,nan,nan,nan,nan,nan,nan,nan,nan,nan,nan,nan,nan,nan,nan,nan,nan,578.3267021480424,615.3817987277871,nan,615.9660556830349,nan,nan,nan,nan
1,25,1,1,1.0,1.0,0.5431022292468697,0,nan,nan,nan,nan,nan,nan,nan,nan,nan,1,0,2,6,4,7,nan,nan,nan,nan,nan,nan,nan,nan,nan,nan,nan,nan,0.0,nan,nan,nan,nan,nan,nan,nan,nan,nan,nan,nan,nan,nan,nan,nan,nan,nan,nan,578.3267021480424,616.4069132800796,nan,616.9500155093265,nan,nan,nan,nan
1,26,1,1,1.0,1.0,0.5502755755442195,0,nan,nan,nan,nan,nan,nan,nan,nan,nan,3,7,8,0,5,1,nan,nan,nan,nan,nan,nan,nan,nan,nan,nan,nan,nan,0.0,nan,nan,nan,nan,nan,nan,nan,nan,nan,nan,nan,nan,nan,nan,nan,nan,nan,nan,578.3267021480424,617.4237360473198,nan,617.974011622864,nan,nan,nan,nan
1,27,0,0,0.0,1.0,0.5655100627918728,0,nan,nan,nan,nan,nan,nan,nan,nan,nan,6,1,2,7,4,8,nan,nan,nan,nan,nan,nan,nan,nan,nan,nan,nan,nan,0.0,nan,nan,nan,nan,nan,nan,nan,nan,nan,nan,nan,nan,nan,nan,nan,nan,nan,nan,578.3267021480424,618.4404932420584,nan,619.0060033048503,nan,nan,nan,nan
1,28,1,1,1.0,1.0,0.524657255387865,0,nan,nan,nan,nan,nan,nan,nan,nan,nan,1,2,4,8,6,7,nan,nan,nan,nan,nan,nan,nan,nan,nan,nan,nan,nan,0.0,nan,nan,nan,nan,nan,nan,nan,nan,nan,nan,nan,nan,nan,nan,nan,nan,nan,nan,578.3267021480424,619.4573291237757,nan,619.9819863791636,nan,nan,nan,nan
1,29,1,1,1.0,1.0,0.5398370038892608,1,nan,nan,nan,nan,nan,nan,nan,nan,nan,6,4,5,1,8,3,1.0,1.0,1.0,1.0,1.0,1.0,0.0,0.0,1.0,0.0,0.0,0.0,1.0,3.0,6.0,5.0,2.0,0.0,1.0,3.0,2.0,1.0,6.0,5.0,4.0,3.7279388454044238,2.7835252231743652,1.7028009150526486,6.790836556843715,5.791292998474091,4.743180460092844,578.3267021480424,620.4741225259204,621.2825504737266,621.0139595298097,629.1252084065054,630.1336718204839,622.2993230637221,629.1168875414587
1,30,1,1,1.0,1.0,0.6713834200636484,0,nan,nan,nan,nan,nan,nan,nan,nan,nan,4,0,1,8,7,6,nan,nan,nan,nan,nan,nan,nan,nan,nan,nan,nan,nan,0.0,nan,nan,nan,nan,nan,nan,nan,nan,nan,nan,nan,nan,nan,nan,nan,nan,nan,nan,578.3267021480424,630.3503963430121,nan,631.0217797630758,nan,nan,nan,nan
1,31,1,1,1.0,1.0,0.630260054836981,0,nan,nan,nan,nan,nan,nan,nan,nan,nan,8,5,4,0,1,7,nan,nan,nan,nan,nan,nan,nan,nan,nan,nan,nan,nan,0.0,nan,nan,nan,nan,nan,nan,nan,nan,nan,nan,nan,nan,nan,nan,nan,nan,nan,nan,578.3267021480424,631.3755060486437,nan,632.0057661034807,nan,nan,nan,nan
1,32,1,1,1.0,1.0,0.5733967238629702,0,nan,nan,nan,nan,nan,nan,nan,nan,nan,4,1,8,7,6,5,nan,nan,nan,nan,nan,nan,nan,nan,nan,nan,nan,nan,0.0,nan,nan,nan,nan,nan,nan,nan,nan,nan,nan,nan,nan,nan,nan,nan,nan,nan,nan,578.3267021480424,632.3923507684085,nan,632.9657474922715,nan,nan,nan,nan
1,33,1,1,1.0,1.0,0.5565930582233705,0,nan,nan,nan,nan,nan,nan,nan,nan,nan,8,2,0,3,4,6,nan,nan,nan,nan,nan,nan,nan,nan,nan,nan,nan,nan,0.0,nan,nan,nan,nan,nan,nan,nan,nan,nan,nan,nan,nan,nan,nan,nan,nan,nan,nan,578.3267021480424,633.4091359027079,nan,633.9657289609313,nan,nan,nan,nan
1,34,1,1,1.0,1.0,0.4357808601344004,0,nan,nan,nan,nan,nan,nan,nan,nan,nan,0,5,1,8,3,2,nan,nan,nan,nan,nan,nan,nan,nan,nan,nan,nan,nan,0.0,nan,nan,nan,nan,nan,nan,nan,nan,nan,nan,nan,nan,nan,nan,nan,nan,nan,nan,578.3267021480424,634.4259284495784,nan,634.8617093097128,nan,nan,nan,nan
1,35,1,1,1.0,1.0,0.4109756389516406,0,nan,nan,nan,nan,nan,nan,nan,nan,nan,8,7,2,0,5,6,nan,nan,nan,nan,nan,nan,nan,nan,nan,nan,nan,nan,0.0,nan,nan,nan,nan,nan,nan,nan,nan,nan,nan,nan,nan,nan,nan,nan,nan,nan,nan,578.3267021480424,635.4427175752644,nan,635.853693214216,nan,nan,nan,nan
1,36,1,1,1.0,1.0,0.42584548611193895,1,nan,nan,nan,nan,nan,nan,nan,nan,nan,1,6,5,8,4,3,1.0,1.0,1.0,1.0,1.0,1.0,0.0,0.0,0.0,0.0,0.0,0.0,0.0,0.0,1.0,7.0,3.0,8.0,5.0,1.0,6.0,5.0,4.0,3.0,2.0,4.358389915752923,9.17246707691811,8.029478829790605,6.997629126504762,6.069218615302816,5.228787581610959,578.3267021480424,636.4678258554195,637.2762617859407,636.8936713415314,647.5025447831722,648.5101329468307,638.2930660218117,647.4942461557512
1,37,1,1,1.0,1.0,0.6376982570218388,0,nan,nan,nan,nan,nan,nan,nan,nan,nan,6,7,2,5,8,0,nan,nan,nan,nan,nan,nan,nan,nan,nan,nan,nan,nan,0.0,nan,nan,nan,nan,nan,nan,nan,nan,nan,nan,nan,nan,nan,nan,nan,nan,nan,nan,578.3267021480424,648.727761229442,nan,649.3654594864638,nan,nan,nan,nan
1,38,1,1,1.0,1.0,0.4689026698761154,0,nan,nan,nan,nan,nan,nan,nan,nan,nan,3,2,5,6,0,1,nan,nan,nan,nan,nan,nan,nan,nan,nan,nan,nan,nan,0.0,nan,nan,nan,nan,nan,nan,nan,nan,nan,nan,nan,nan,nan,nan,nan,nan,nan,nan,578.3267021480424,649.7445494998246,nan,650.2134521697008,nan,nan,nan,nan
1,39,1,1,1.0,1.0,0.4680459509254433,0,nan,nan,nan,nan,nan,nan,nan,nan,nan,8,6,3,4,2,7,nan,nan,nan,nan,nan,nan,nan,nan,nan,nan,nan,nan,0.0,nan,nan,nan,nan,nan,nan,nan,nan,nan,nan,nan,nan,nan,nan,nan,nan,nan,nan,578.3267021480424,650.7613708415593,nan,651.2294167924847,nan,nan,nan,nan
1,40,1,1,1.0,1.0,0.5469216847850475,0,nan,nan,nan,nan,nan,nan,nan,nan,nan,6,2,1,0,3,5,nan,nan,nan,nan,nan,nan,nan,nan,nan,nan,nan,nan,0.0,nan,nan,nan,nan,nan,nan,nan,nan,nan,nan,nan,nan,nan,nan,nan,nan,nan,nan,578.3267021480424,651.7864585946663,nan,652.3333802794514,nan,nan,nan,nan
1,41,1,1,1.0,1.0,0.5780871532624587,0,nan,nan,nan,nan,nan,nan,nan,nan,nan,4,3,5,7,8,2,nan,nan,nan,nan,nan,nan,nan,nan,nan,nan,nan,nan,0.0,nan,nan,nan,nan,nan,nan,nan,nan,nan,nan,nan,nan,nan,nan,nan,nan,nan,nan,578.3267021480424,652.8032998932758,nan,653.3813870465383,nan,nan,nan,nan
1,42,1,1,1.0,1.0,0.7052932402293663,0,nan,nan,nan,nan,nan,nan,nan,nan,nan,8,0,1,5,6,3,nan,nan,nan,nan,nan,nan,nan,nan,nan,nan,nan,nan,0.0,nan,nan,nan,nan,nan,nan,nan,nan,nan,nan,nan,nan,nan,nan,nan,nan,nan,nan,578.3267021480424,653.8200796107121,nan,654.5253728509415,nan,nan,nan,nan
1,43,1,1,1.0,1.0,0.7764411124808248,0,nan,nan,nan,nan,nan,nan,nan,nan,nan,0,2,8,6,3,7,nan,nan,nan,nan,nan,nan,nan,nan,nan,nan,nan,nan,0.0,nan,nan,nan,nan,nan,nan,nan,nan,nan,nan,nan,nan,nan,nan,nan,nan,nan,nan,578.3267021480424,654.8369038034289,nan,655.6133449159097,nan,nan,nan,nan
1,44,1,1,1.0,1.0,0.7913021215645131,0,nan,nan,nan,nan,nan,nan,nan,nan,nan,7,8,6,1,5,4,nan,nan,nan,nan,nan,nan,nan,nan,nan,nan,nan,nan,0.0,nan,nan,nan,nan,nan,nan,nan,nan,nan,nan,nan,nan,nan,nan,nan,nan,nan,nan,578.3267021480424,655.8620314702566,nan,656.6533335918211,nan,nan,nan,nan
1,45,1,1,1.0,1.0,0.6064920195494778,0,nan,nan,nan,nan,nan,nan,nan,nan,nan,6,0,4,7,2,5,nan,nan,nan,nan,nan,nan,nan,nan,nan,nan,nan,nan,0.0,nan,nan,nan,nan,nan,nan,nan,nan,nan,nan,nan,nan,nan,nan,nan,nan,nan,nan,578.3267021480424,656.878826582979,nan,657.4853186025284,nan,nan,nan,nan
1,46,1,1,1.0,1.0,0.6216777550580446,0,nan,nan,nan,nan,nan,nan,nan,nan,nan,7,4,5,6,0,2,nan,nan,nan,nan,nan,nan,nan,nan,nan,nan,nan,nan,0.0,nan,nan,nan,nan,nan,nan,nan,nan,nan,nan,nan,nan,nan,nan,nan,nan,nan,nan,578.3267021480424,657.8956142831885,nan,658.5172920382465,nan,nan,nan,nan
1,47,1,1,1.0,1.0,0.6685187571565621,0,nan,nan,nan,nan,nan,nan,nan,nan,nan,5,2,1,0,8,7,nan,nan,nan,nan,nan,nan,nan,nan,nan,nan,nan,nan,0.0,nan,nan,nan,nan,nan,nan,nan,nan,nan,nan,nan,nan,nan,nan,nan,nan,nan,nan,578.3267021480424,658.9207510731067,nan,659.5892698302632,nan,nan,nan,nan
1,48,1,1,1.0,1.0,0.5477108355553355,0,nan,nan,nan,nan,nan,nan,nan,nan,nan,6,5,4,7,3,1,nan,nan,nan,nan,nan,nan,nan,nan,nan,nan,nan,nan,0.0,nan,nan,nan,nan,nan,nan,nan,nan,nan,nan,nan,nan,nan,nan,nan,nan,nan,nan,578.3267021480424,659.937543334876,nan,660.4852541704313,nan,nan,nan,nan
1,49,0,0,0.0,1.0,0.49890294356737286,0,nan,nan,nan,nan,nan,nan,nan,nan,nan,4,3,8,5,7,0,nan,nan,nan,nan,nan,nan,nan,nan,nan,nan,nan,nan,0.0,nan,nan,nan,nan,nan,nan,nan,nan,nan,nan,nan,nan,nan,nan,nan,nan,nan,nan,578.3267021480424,660.9543321754609,nan,661.4532351190282,nan,nan,nan,nan
1,50,1,1,1.0,1.0,0.5380588487605564,1,nan,nan,nan,nan,nan,nan,nan,nan,nan,2,7,6,0,3,1,1.0,1.0,1.0,1.0,1.0,1.0,1.0,0.0,1.0,1.0,1.0,1.0,5.0,2.0,8.0,6.0,0.0,3.0,1.0,2.0,5.0,6.0,1.0,3.0,4.0,2.503446262475336,6.012897255306598,7.709063088725088,1.5272217103338335,3.39008595130872,4.380782924243249,578.3267021480424,661.9711566532787,662.7795575167693,662.5092155020393,671.5473436295579,672.5493584158539,663.7963620377413,671.5390159221424
1,51,1,1,1.0,1.0,0.6005015440750867,0,nan,nan,nan,nan,nan,nan,nan,nan,nan,5,3,4,1,6,8,nan,nan,nan,nan,nan,nan,nan,nan,nan,nan,nan,nan,0.0,nan,nan,nan,nan,nan,nan,nan,nan,nan,nan,nan,nan,nan,nan,nan,nan,nan,nan,578.3267021480424,672.7725093284098,nan,673.3730108724849,nan,nan,nan,nan
1,52,1,1,1.0,1.0,0.527692691917764,0,nan,nan,nan,nan,nan,nan,nan,nan,nan,0,5,7,8,2,4,nan,nan,nan,nan,nan,nan,nan,nan,nan,nan,nan,nan,0.0,nan,nan,nan,nan,nan,nan,nan,nan,nan,nan,nan,nan,nan,nan,nan,nan,nan,nan,578.3267021480424,673.7893266787869,nan,674.3170193707047,nan,nan,nan,nan
1,53,1,1,1.0,1.0,0.4948793580115307,0,nan,nan,nan,nan,nan,nan,nan,nan,nan,8,0,3,7,6,1,nan,nan,nan,nan,nan,nan,nan,nan,nan,nan,nan,nan,0.0,nan,nan,nan,nan,nan,nan,nan,nan,nan,nan,nan,nan,nan,nan,nan,nan,nan,nan,578.3267021480424,674.8061269232712,nan,675.3010062812828,nan,nan,nan,nan
1,54,1,1,1.0,1.0,0.48605443999986164,0,nan,nan,nan,nan,nan,nan,nan,nan,nan,0,6,1,8,7,4,nan,nan,nan,nan,nan,nan,nan,nan,nan,nan,nan,nan,0.0,nan,nan,nan,nan,nan,nan,nan,nan,nan,nan,nan,nan,nan,nan,nan,nan,nan,nan,578.3267021480424,675.822923176398,nan,676.3089776163979,nan,nan,nan,nan
1,55,1,1,1.0,1.0,0.5092348886537366,0,nan,nan,nan,nan,nan,nan,nan,nan,nan,4,0,3,7,8,5,nan,nan,nan,nan,nan,nan,nan,nan,nan,nan,nan,nan,0.0,nan,nan,nan,nan,nan,nan,nan,nan,nan,nan,nan,nan,nan,nan,nan,nan,nan,nan,578.3267021480424,676.8397211401316,nan,677.3489560287853,nan,nan,nan,nan
1,56,0,0,1.0,0.0,0.5804112707264721,0,0.0,0.0,0.0,nan,nan,nan,nan,nan,nan,6,4,7,5,2,0,nan,nan,nan,nan,nan,nan,nan,nan,nan,nan,nan,nan,0.0,nan,nan,nan,nan,nan,nan,nan,nan,nan,nan,nan,nan,nan,nan,nan,nan,nan,nan,578.3267021480424,677.8565222399193,nan,678.4369335106458,nan,nan,nan,nan
1,57,1,1,1.0,1.0,0.5236203546228353,0,nan,nan,nan,nan,nan,nan,nan,nan,nan,2,0,4,7,6,8,nan,nan,nan,nan,nan,nan,nan,nan,nan,nan,nan,nan,0.0,nan,nan,nan,nan,nan,nan,nan,nan,nan,nan,nan,nan,nan,nan,nan,nan,nan,nan,578.3267021480424,678.873313076183,nan,679.3969334308058,nan,nan,nan,nan
1,58,1,1,1.0,1.0,0.45080351969227195,0,nan,nan,nan,nan,nan,nan,nan,nan,nan,0,5,1,4,7,6,nan,nan,nan,nan,nan,nan,nan,nan,nan,nan,nan,nan,0.0,nan,nan,nan,nan,nan,nan,nan,nan,nan,nan,nan,nan,nan,nan,nan,nan,nan,nan,578.3267021480424,679.8901133206964,nan,680.3409168403887,nan,nan,nan,nan
1,59,1,1,1.0,1.0,0.4979766607284546,0,nan,nan,nan,nan,nan,nan,nan,nan,nan,5,7,2,1,0,3,nan,nan,nan,nan,nan,nan,nan,nan,nan,nan,nan,nan,0.0,nan,nan,nan,nan,nan,nan,nan,nan,nan,nan,nan,nan,nan,nan,nan,nan,nan,nan,578.3267021480424,680.9069127099065,nan,681.4048893706349,nan,nan,nan,nan
1,60,1,1,1.0,1.0,0.5291706390271429,0,nan,nan,nan,nan,nan,nan,nan,nan,nan,0,5,4,6,8,1,nan,nan,nan,nan,nan,nan,nan,nan,nan,nan,nan,nan,0.0,nan,nan,nan,nan,nan,nan,nan,nan,nan,nan,nan,nan,nan,nan,nan,nan,nan,nan,578.3267021480424,681.9237092481344,nan,682.4528798871615,nan,nan,nan,nan
1,61,0,0,0.0,1.0,0.696337747387588,0,nan,nan,nan,nan,nan,nan,nan,nan,nan,1,0,3,5,4,8,nan,nan,nan,nan,nan,nan,nan,nan,nan,nan,nan,nan,0.0,nan,nan,nan,nan,nan,nan,nan,nan,nan,nan,nan,nan,nan,nan,nan,nan,nan,nan,578.3267021480424,682.9405060714635,nan,683.636843818851,nan,nan,nan,nan
1,62,1,1,1.0,1.0,0.5035252345842309,0,nan,nan,nan,nan,nan,nan,nan,nan,nan,5,4,2,3,6,7,nan,nan,nan,nan,nan,nan,nan,nan,nan,nan,nan,nan,0.0,nan,nan,nan,nan,nan,nan,nan,nan,nan,nan,nan,nan,nan,nan,nan,nan,nan,nan,578.3267021480424,683.9573071712512,nan,684.4608324058354,nan,nan,nan,nan
1,63,1,1,1.0,1.0,0.446326343488181,0,nan,nan,nan,nan,nan,nan,nan,nan,nan,3,5,1,7,8,0,nan,nan,nan,nan,nan,nan,nan,nan,nan,nan,nan,nan,0.0,nan,nan,nan,nan,nan,nan,nan,nan,nan,nan,nan,nan,nan,nan,nan,nan,nan,nan,578.3267021480424,684.9824853003665,nan,685.4288116438547,nan,nan,nan,nan
1,64,1,1,1.0,1.0,0.5172247551381588,0,nan,nan,nan,nan,nan,nan,nan,nan,nan,7,8,0,1,4,5,nan,nan,nan,nan,nan,nan,nan,nan,nan,nan,nan,nan,0.0,nan,nan,nan,nan,nan,nan,nan,nan,nan,nan,nan,nan,nan,nan,nan,nan,nan,nan,578.3267021480424,686.0075838871999,nan,686.524808642338,nan,nan,nan,nan
1,65,1,1,1.0,1.0,0.468084724212531,0,nan,nan,nan,nan,nan,nan,nan,nan,nan,5,0,4,3,7,8,nan,nan,nan,nan,nan,nan,nan,nan,nan,nan,nan,nan,0.0,nan,nan,nan,nan,nan,nan,nan,nan,nan,nan,nan,nan,nan,nan,nan,nan,nan,nan,578.3267021480424,687.0327067073376,nan,687.5007914315502,nan,nan,nan,nan
1,66,1,1,1.0,1.0,0.4752703297708649,0,nan,nan,nan,nan,nan,nan,nan,nan,nan,7,8,0,2,6,1,nan,nan,nan,nan,nan,nan,nan,nan,nan,nan,nan,nan,0.0,nan,nan,nan,nan,nan,nan,nan,nan,nan,nan,nan,nan,nan,nan,nan,nan,nan,nan,578.3267021480424,688.0494847141963,nan,688.5247550439672,nan,nan,nan,nan
1,67,1,1,1.0,1.0,0.5464452862797771,0,nan,nan,nan,nan,nan,nan,nan,nan,nan,4,1,6,3,7,0,nan,nan,nan,nan,nan,nan,nan,nan,nan,nan,nan,nan,0.0,nan,nan,nan,nan,nan,nan,nan,nan,nan,nan,nan,nan,nan,nan,nan,nan,nan,nan,578.3267021480424,689.0663080516388,nan,689.6127533379185,nan,nan,nan,nan
1,68,1,1,nan,nan,nan,0,nan,nan,nan,nan,nan,nan,nan,nan,nan,1,7,3,2,5,4,nan,nan,nan,nan,nan,nan,nan,nan,nan,nan,nan,nan,0.0,nan,nan,nan,nan,nan,nan,nan,nan,nan,nan,nan,nan,nan,nan,nan,nan,nan,nan,578.3267021480424,690.0831071557477,nan,nan,nan,nan,nan,nan
1,69,1,1,1.0,1.0,0.6088343832525425,0,nan,nan,nan,nan,nan,nan,nan,nan,nan,7,3,5,4,8,0,nan,nan,nan,nan,nan,nan,nan,nan,nan,nan,nan,nan,0.0,nan,nan,nan,nan,nan,nan,nan,nan,nan,nan,nan,nan,nan,nan,nan,nan,nan,nan,578.3267021480424,691.0998900092673,nan,691.7087243925198,nan,nan,nan,nan
1,70,1,1,1.0,1.0,0.49599494578433223,0,nan,nan,nan,nan,nan,nan,nan,nan,nan,4,1,6,5,3,7,nan,nan,nan,nan,nan,nan,nan,nan,nan,nan,nan,nan,0.0,nan,nan,nan,nan,nan,nan,nan,nan,nan,nan,nan,nan,nan,nan,nan,nan,nan,nan,578.3267021480424,692.1167050788645,nan,692.6127000246488,nan,nan,nan,nan
1,71,1,1,1.0,1.0,0.5111872385605238,0,nan,nan,nan,nan,nan,nan,nan,nan,nan,2,7,3,6,8,0,nan,nan,nan,nan,nan,nan,nan,nan,nan,nan,nan,nan,0.0,nan,nan,nan,nan,nan,nan,nan,nan,nan,nan,nan,nan,nan,nan,nan,nan,nan,nan,578.3267021480424,693.1334865069075,nan,693.644673745468,nan,nan,nan,nan
1,72,1,1,1.0,1.0,0.5503605346893892,0,nan,nan,nan,nan,nan,nan,nan,nan,nan,8,3,1,2,4,7,nan,nan,nan,nan,nan,nan,nan,nan,nan,nan,nan,nan,0.0,nan,nan,nan,nan,nan,nan,nan,nan,nan,nan,nan,nan,nan,nan,nan,nan,nan,nan,578.3267021480424,694.1502984404215,nan,694.7006589751109,nan,nan,nan,nan
1,73,1,1,1.0,1.0,0.6372395346406847,0,nan,nan,nan,nan,nan,nan,nan,nan,nan,1,2,0,7,8,4,nan,nan,nan,nan,nan,nan,nan,nan,nan,nan,nan,nan,0.0,nan,nan,nan,nan,nan,nan,nan,nan,nan,nan,nan,nan,nan,nan,nan,nan,nan,nan,578.3267021480424,695.1753950315469,nan,695.8126345661876,nan,nan,nan,nan
1,74,0,0,0.0,1.0,0.7720568781660404,0,nan,nan,nan,nan,nan,nan,nan,nan,nan,0,6,1,5,7,2,nan,nan,nan,nan,nan,nan,nan,nan,nan,nan,nan,nan,0.0,nan,nan,nan,nan,nan,nan,nan,nan,nan,nan,nan,nan,nan,nan,nan,nan,nan,nan,578.3267021480424,696.2005600461562,nan,696.9726169243222,nan,nan,nan,nan
1,75,1,1,1.0,1.0,0.6352270290954039,0,nan,nan,nan,nan,nan,nan,nan,nan,nan,5,1,7,4,2,3,nan,nan,nan,nan,nan,nan,nan,nan,nan,nan,nan,nan,0.0,nan,nan,nan,nan,nan,nan,nan,nan,nan,nan,nan,nan,nan,nan,nan,nan,nan,nan,578.3267021480424,697.2173759710568,nan,697.8526030001522,nan,nan,nan,nan
1,76,0,0,0.0,1.0,0.6661028382077347,0,nan,nan,nan,nan,nan,nan,nan,nan,nan,8,2,3,7,1,0,nan,nan,nan,nan,nan,nan,nan,nan,nan,nan,nan,nan,0.0,nan,nan,nan,nan,nan,nan,nan,nan,nan,nan,nan,nan,nan,nan,nan,nan,nan,nan,578.3267021480424,698.2424788343487,nan,698.9085816725565,nan,nan,nan,nan
1,77,1,1,1.0,1.0,0.6252751193824224,0,nan,nan,nan,nan,nan,nan,nan,nan,nan,4,1,7,8,3,2,nan,nan,nan,nan,nan,nan,nan,nan,nan,nan,nan,nan,0.0,nan,nan,nan,nan,nan,nan,nan,nan,nan,nan,nan,nan,nan,nan,nan,nan,nan,nan,578.3267021480424,699.2592978953035,nan,699.8845730146859,nan,nan,nan,nan
1,78,1,1,1.0,1.0,0.6964506461226847,0,nan,nan,nan,nan,nan,nan,nan,nan,nan,2,0,4,3,1,6,nan,nan,nan,nan,nan,nan,nan,nan,nan,nan,nan,nan,0.0,nan,nan,nan,nan,nan,nan,nan,nan,nan,nan,nan,nan,nan,nan,nan,nan,nan,nan,578.3267021480424,700.2760901570728,nan,700.9725408031954,nan,nan,nan,nan
1,79,1,1,1.0,1.0,0.7116871291073039,0,nan,nan,nan,nan,nan,nan,nan,nan,nan,0,3,8,2,6,5,nan,nan,nan,nan,nan,nan,nan,nan,nan,nan,nan,nan,0.0,nan,nan,nan,nan,nan,nan,nan,nan,nan,nan,nan,nan,nan,nan,nan,nan,nan,nan,578.3267021480424,701.2929023756587,nan,702.004589504766,nan,nan,nan,nan
1,80,1,1,1.0,1.0,0.6224965559958946,0,nan,nan,nan,nan,nan,nan,nan,nan,nan,1,6,2,5,0,3,nan,nan,nan,nan,nan,nan,nan,nan,nan,nan,nan,nan,0.0,nan,nan,nan,nan,nan,nan,nan,nan,nan,nan,nan,nan,nan,nan,nan,nan,nan,nan,578.3267021480424,702.3180423016893,nan,702.9405388576852,nan,nan,nan,nan
1,81,1,1,1.0,1.0,0.6217222303384915,0,0.0,0.0,0.0,0.5299001249607764,0.12280742179891675,0.4070927031618597,0.6527075467596932,0.12280742179891675,0.6519686384805633,6,5,0,1,4,8,nan,nan,nan,nan,nan,nan,nan,nan,nan,nan,nan,nan,0.0,nan,nan,nan,nan,nan,nan,nan,nan,nan,nan,nan,nan,nan,nan,nan,nan,nan,nan,578.3267021480424,703.3347715568088,nan,703.9564937871473,nan,nan,nan,nan
1,82,0,0,0.0,1.0,0.6288633605872747,0,0.0,0.0,0.0,0.5310479012779978,0.1224631206149893,0.4085847806630085,0.6535110218929872,0.1224631206149893,0.6243607156405536,0,3,6,5,1,4,nan,nan,nan,nan,nan,nan,nan,nan,nan,nan,nan,nan,0.0,nan,nan,nan,nan,nan,nan,nan,nan,nan,nan,nan,nan,nan,nan,nan,nan,nan,nan,578.3267021480424,704.3516065832519,nan,704.9804699438391,nan,nan,nan,nan
1,83,1,1,1.0,1.0,0.5320404337253422,0,0.0,0.0,0.0,0.5322554995410753,0.12218317634702143,0.4100723231940539,0.6544386758880968,0.12218317634702143,0.5942086748837028,2,8,3,1,7,6,nan,nan,nan,nan,nan,nan,nan,nan,nan,nan,nan,nan,0.0,nan,nan,nan,nan,nan,nan,nan,nan,nan,nan,nan,nan,nan,nan,nan,nan,nan,nan,578.3267021480424,705.3684102489206,nan,705.9004506826459,nan,nan,nan,nan
1,84,1,1,1.0,1.0,0.7152337460138369,0,0.0,0.0,0.0,0.532252876787225,0.1214358739162198,0.4108170028710052,0.6536887507034448,0.1214358739162198,0.6253791801088179,6,5,2,4,8,0,nan,nan,nan,nan,nan,nan,nan,nan,nan,nan,nan,nan,0.0,nan,nan,nan,nan,nan,nan,nan,nan,nan,nan,nan,nan,nan,nan,nan,nan,nan,nan,578.3267021480424,706.3851968087256,nan,707.1004305547394,nan,nan,nan,nan
1,85,1,1,1.0,1.0,0.650093169970205,0,0.0,0.0,0.0,0.5344574655730877,0.12234189018385139,0.4121155753892363,0.6567993557569392,0.12234189018385139,0.6324557832364613,5,1,6,2,4,8,nan,nan,nan,nan,nan,nan,nan,nan,nan,nan,nan,nan,0.0,nan,nan,nan,nan,nan,nan,nan,nan,nan,nan,nan,nan,nan,nan,nan,nan,nan,nan,578.3267021480424,707.4103276116075,nan,708.0604207815777,nan,nan,nan,nan
1,86,1,1,1.0,1.0,0.601278435671702,0,0.0,0.0,0.0,0.5358340811016249,0.12225646793713575,0.41357761316448916,0.6580905490387606,0.12225646793713575,0.6555351172185814,4,0,1,3,2,5,nan,nan,nan,nan,nan,nan,nan,nan,nan,nan,nan,nan,0.0,nan,nan,nan,nan,nan,nan,nan,nan,nan,nan,nan,nan,nan,nan,nan,nan,nan,nan,578.3267021480424,708.4271173074958,nan,709.0283957431675,nan,nan,nan,nan
1,87,1,1,1.0,1.0,0.608427548664622,0,0.0,0.0,0.0,0.5366040146848022,0.12173987058940586,0.4148641440953964,0.6583438852742081,0.12173987058940586,0.6199330514355097,6,1,8,4,3,7,nan,nan,nan,nan,nan,nan,nan,nan,nan,nan,nan,nan,0.0,nan,nan,nan,nan,nan,nan,nan,nan,nan,nan,nan,nan,nan,nan,nan,nan,nan,nan,578.3267021480424,709.4439506233321,nan,710.0523781719967,nan,nan,nan,nan
1,88,1,1,1.0,1.0,0.5596219374856446,0,0.0,0.0,0.0,0.5374391720566606,0.12127468839159379,0.4161644836650668,0.6587138604482544,0.12127468839159379,0.5897759739406562,2,7,6,5,8,4,nan,nan,nan,nan,nan,nan,nan,nan,nan,nan,nan,nan,0.0,nan,nan,nan,nan,nan,nan,nan,nan,nan,nan,nan,nan,nan,nan,nan,nan,nan,nan,578.3267021480424,710.4607477317622,nan,711.0203696692479,nan,nan,nan,nan
1,89,0,0,0.0,1.0,0.6068255839927588,0,0.0,0.0,0.0,0.5376941463719362,0.1205988754866358,0.41709527088530046,0.6582930218585721,0.1205988754866358,0.5916250233810084,6,4,2,0,7,5,nan,nan,nan,nan,nan,nan,nan,nan,nan,nan,nan,nan,0.0,nan,nan,nan,nan,nan,nan,nan,nan,nan,nan,nan,nan,nan,nan,nan,nan,nan,nan,578.3267021480424,711.4775183261081,nan,712.0843439101009,nan,nan,nan,nan
1,90,1,1,1.0,1.0,0.6056877585942857,0,0.0,0.0,0.0,0.5384797308903547,0.1201353673017615,0.4183443635885932,0.6586150981921162,0.1201353673017615,0.5907117600242296,4,0,1,5,2,8,nan,nan,nan,nan,nan,nan,nan,nan,nan,nan,nan,nan,0.0,nan,nan,nan,nan,nan,nan,nan,nan,nan,nan,nan,nan,nan,nan,nan,nan,nan,nan,578.3267021480424,712.5026374399604,nan,713.1083251985547,nan,nan,nan,nan
1,91,1,1,1.0,1.0,0.5488512268348131,0,0.0,0.0,0.0,0.5392348772690506,0.11966839656022492,0.4195664807088257,0.6589032738292755,0.11966839656022492,0.5871215231406192,2,8,0,1,6,7,nan,nan,nan,nan,nan,nan,nan,nan,nan,nan,nan,nan,0.0,nan,nan,nan,nan,nan,nan,nan,nan,nan,nan,nan,nan,nan,nan,nan,nan,nan,nan,578.3267021480424,713.5194670495403,nan,714.0683182763751,nan,nan,nan,nan
1,92,1,1,1.0,1.0,0.6437049830565229,0,0.0,0.0,0.0,0.5393417255975591,0.11900598415062866,0.4203357414469304,0.6583477097481878,0.11900598415062866,0.599414656161874,0,5,7,2,1,4,nan,nan,nan,nan,nan,nan,nan,nan,nan,nan,nan,nan,0.0,nan,nan,nan,nan,nan,nan,nan,nan,nan,nan,nan,nan,nan,nan,nan,nan,nan,nan,578.3267021480424,714.5445781806775,nan,715.188283163734,nan,nan,nan,nan
1,93,1,1,1.0,1.0,0.6188989065994974,0,0.0,0.0,0.0,0.5404885745806246,0.11884934522702069,0.42163922935360393,0.6593379198076453,0.11884934522702069,0.6038183721636111,6,8,4,3,2,1,nan,nan,nan,nan,nan,nan,nan,nan,nan,nan,nan,nan,0.0,nan,nan,nan,nan,nan,nan,nan,nan,nan,nan,nan,nan,nan,nan,nan,nan,nan,nan,578.3267021480424,715.5613795655663,nan,716.1802784721658,nan,nan,nan,nan
1,94,1,1,1.0,1.0,0.5780709026730619,0,0.0,0.0,0.0,0.5413408607982211,0.11848094400362741,0.42285991679459367,0.6598218048018485,0.11848094400362741,0.613558264109694,7,0,6,8,5,2,nan,nan,nan,nan,nan,nan,nan,nan,nan,nan,nan,nan,0.0,nan,nan,nan,nan,nan,nan,nan,nan,nan,nan,nan,nan,nan,nan,nan,nan,nan,nan,578.3267021480424,716.5781917841814,nan,717.1562626868545,nan,nan,nan,nan
1,95,1,1,1.0,1.0,0.46525370283052325,0,0.0,0.0,0.0,0.5417358074850472,0.1179031006382677,0.42383270684677954,0.6596389081233149,0.1179031006382677,0.5540745040343609,4,5,7,3,1,6,nan,nan,nan,nan,nan,nan,nan,nan,nan,nan,nan,nan,0.0,nan,nan,nan,nan,nan,nan,nan,nan,nan,nan,nan,nan,nan,nan,nan,nan,nan,nan,578.3267021480424,717.5949883224093,nan,718.0602420252399,nan,nan,nan,nan
1,96,0,0,0.0,1.0,0.6804424034198746,0,0.0,0.0,0.0,0.540922168073829,0.11753647733964048,0.4233856907341885,0.6584586454134694,0.11753647733964048,0.5745890029744866,8,7,4,5,3,2,nan,nan,nan,nan,nan,nan,nan,nan,nan,nan,nan,nan,0.0,nan,nan,nan,nan,nan,nan,nan,nan,nan,nan,nan,nan,nan,nan,nan,nan,nan,nan,578.3267021480424,718.6117754523875,nan,719.2922178558074,nan,nan,nan,nan
1,97,1,1,1.0,1.0,0.5276083029748406,0,0.0,0.0,0.0,0.5423908021301032,0.11778009846232664,0.42461070366777653,0.6601709005924298,0.11778009846232664,0.5577681364084128,5,4,2,6,8,7,nan,nan,nan,nan,nan,nan,nan,nan,nan,nan,nan,nan,0.0,nan,nan,nan,nan,nan,nan,nan,nan,nan,nan,nan,nan,nan,nan,nan,nan,nan,nan,578.3267021480424,719.6285876710026,nan,720.1561959739774,nan,nan,nan,nan
1,98,1,1,1.0,1.0,0.5348218480648939,0,0.0,0.0,0.0,0.5422368177639024,0.11717466696036123,0.4250621508035412,0.6594114847242637,0.11717466696036123,0.5809575181532031,3,6,7,1,4,0,nan,nan,nan,nan,nan,nan,nan,nan,nan,nan,nan,nan,0.0,nan,nan,nan,nan,nan,nan,nan,nan,nan,nan,nan,nan,nan,nan,nan,nan,nan,nan,578.3267021480424,720.6453542739619,nan,721.1801761220268,nan,nan,nan,nan
1,99,1,1,1.0,1.0,0.509959322254872,0,0.0,0.0,0.0,0.5421603747773147,0.11657151525469707,0.42558885952261766,0.6587318900320118,0.11657151525469707,0.5241298244315354,0,5,2,4,7,1,nan,nan,nan,nan,nan,nan,nan,nan,nan,nan,nan,nan,0.0,nan,nan,nan,nan,nan,nan,nan,nan,nan,nan,nan,nan,nan,nan,nan,nan,nan,nan,578.3267021480424,721.6622009894054,nan,722.1721603116603,nan,nan,nan,nan
1,100,1,1,1.0,1.0,0.4451831012265757,0,0.0,0.0,0.0,0.5418317926087184,0.11602037951976293,0.4258114130889554,0.6578521721284813,0.11602037951976293,0.4966547571821138,6,7,3,1,4,5,nan,nan,nan,nan,nan,nan,nan,nan,nan,nan,nan,nan,0.0,nan,nan,nan,nan,nan,nan,nan,nan,nan,nan,nan,nan,nan,nan,nan,nan,nan,nan,578.3267021480424,722.678963315906,nan,723.1241464171326,nan,nan,nan,nan
1,101,1,1,1.0,1.0,0.38837992592016235,0,0.0,0.0,0.0,0.540855543200818,0.11583678895134594,0.425018754249472,0.6566923321521639,0.11583678895134594,0.44784078313387,0,2,1,4,3,7,nan,nan,nan,nan,nan,nan,nan,nan,nan,nan,nan,nan,0.0,nan,nan,nan,nan,nan,nan,nan,nan,nan,nan,nan,nan,nan,nan,nan,nan,nan,nan,578.3267021480424,723.6957607094082,nan,724.0841406353284,nan,nan,nan,nan
1,102,1,1,1.0,1.0,0.3955529871454928,0,1.0,0.0,0.0,0.5393307870280114,0.11625034759121254,0.42308043943679885,0.655581134619224,0.11625034759121254,0.4097053380974103,5,3,6,2,7,8,nan,nan,nan,nan,nan,nan,nan,nan,nan,nan,nan,nan,0.0,nan,nan,nan,nan,nan,nan,nan,nan,nan,nan,nan,nan,nan,nan,nan,nan,nan,nan,578.3267021480424,724.7125703621423,nan,725.1081233492878,nan,nan,nan,nan
1,103,1,1,1.0,1.0,0.41041200057952665,1,0.0,0.0,1.0,0.5379072444549171,0.11654607355745507,0.42136117089746206,0.6544533180123722,0.11654607355745507,0.3981149712150606,6,8,7,0,5,2,1.0,1.0,1.0,1.0,1.0,1.0,1.0,0.0,0.0,1.0,0.0,0.0,2.0,6.0,5.0,1.0,0.0,2.0,3.0,2.0,3.0,4.0,1.0,5.0,6.0,3.5030414235952776,4.870151056238683,6.3581980449089315,1.6796518271439709,7.653743277391186,8.7492809832911,578.3267021480424,725.7376883356192,726.5461134324432,726.1481003361987,736.3473714551073,737.3506489396677,727.562907119689,736.3390397563344
1,104,1,1,1.0,1.0,0.5673814449110068,0,0.0,0.0,0.0,0.5366572910835898,0.11665171000186197,0.42000558108172786,0.6533090010854519,0.11665171000186197,0.45778214421200875,5,6,8,4,2,0,nan,nan,nan,nan,nan,nan,nan,nan,nan,nan,nan,nan,0.0,nan,nan,nan,nan,nan,nan,nan,nan,nan,nan,nan,nan,nan,nan,nan,nan,nan,nan,578.3267021480424,737.5725189076911,nan,738.1399003526021,nan,nan,nan,nan
1,105,1,1,1.0,1.0,0.4305048398382496,0,0.0,0.0,0.0,0.5369555838391958,0.11612314338977828,0.4208324404494176,0.6530787272289741,0.11612314338977828,0.46943276177626103,8,0,1,5,4,3,nan,nan,nan,nan,nan,nan,nan,nan,nan,nan,nan,nan,0.0,nan,nan,nan,nan,nan,nan,nan,nan,nan,nan,nan,nan,nan,nan,nan,nan,nan,nan,578.3267021480424,738.5893798780162,nan,739.0198847178544,nan,nan,nan,nan
1,106,0,0,0.0,1.0,0.5177108469360974,0,0.0,0.0,0.0,0.5359320189930329,0.11602946401434394,0.41990255497868895,0.6519614830073768,0.11602946401434394,0.5051990438951179,0,5,3,8,2,6,nan,nan,nan,nan,nan,nan,nan,nan,nan,nan,nan,nan,0.0,nan,nan,nan,nan,nan,nan,nan,nan,nan,nan,nan,nan,nan,nan,nan,nan,nan,nan,578.3267021480424,739.6061476213799,nan,740.123858468316,nan,nan,nan,nan
1,107,1,1,1.0,1.0,0.5088850736501627,0,0.0,0.0,0.0,0.5357584840210621,0.11548918098674925,0.4202693030343128,0.6512476650078113,0.11548918098674925,0.48570025347483653,3,2,5,6,8,0,nan,nan,nan,nan,nan,nan,nan,nan,nan,nan,nan,nan,0.0,nan,nan,nan,nan,nan,nan,nan,nan,nan,nan,nan,nan,nan,nan,nan,nan,nan,nan,578.3267021480424,740.6229467254889,nan,741.131831799139,nan,nan,nan,nan
1,108,1,1,1.0,1.0,0.4280712447944097,0,0.0,0.0,0.0,0.5355049612817139,0.11497248293791265,0.42053247834380125,0.6504774442196265,0.11497248293791265,0.4848890551268899,4,7,6,3,1,5,nan,nan,nan,nan,nan,nan,nan,nan,nan,nan,nan,nan,0.0,nan,nan,nan,nan,nan,nan,nan,nan,nan,nan,nan,nan,nan,nan,nan,nan,nan,nan,578.3267021480424,741.639741268038,nan,742.0678125128325,nan,nan,nan,nan
1,109,1,1,1.0,1.0,0.4032611769507639,0,0.0,0.0,0.0,0.534500907856599,0.11489992998930608,0.4196009778672929,0.6494008378459051,0.11489992998930608,0.44673916513177875,7,0,8,4,5,1,nan,nan,nan,nan,nan,nan,nan,nan,nan,nan,nan,nan,0.0,nan,nan,nan,nan,nan,nan,nan,nan,nan,nan,nan,nan,nan,nan,nan,nan,nan,nan,578.3267021480424,742.6565380913671,nan,743.0597992683179,nan,nan,nan,nan
1,110,1,1,1.0,1.0,0.37044698777026497,0,1.0,0.0,0.0,0.5332857251630264,0.11505545101344998,0.4182302741495764,0.6483411761764764,0.11505545101344998,0.4005931365051462,0,7,6,1,4,2,nan,nan,nan,nan,nan,nan,nan,nan,nan,nan,nan,nan,0.0,nan,nan,nan,nan,nan,nan,nan,nan,nan,nan,nan,nan,nan,nan,nan,nan,nan,nan,578.3267021480424,743.6733380507503,nan,744.0437850385206,nan,nan,nan,nan
1,111,1,1,1.0,1.0,0.32163225347176194,1,0.0,0.0,1.0,0.5317917917924506,0.11557399311541436,0.41621779867703623,0.647365784907865,0.11557399311541436,0.36511347273093026,7,5,4,0,2,6,1.0,1.0,1.0,1.0,1.0,1.0,0.0,1.0,0.0,1.0,0.0,0.0,2.0,6.0,5.0,8.0,0.0,7.0,7.0,2.0,6.0,5.0,1.0,4.0,3.0,4.3254557003383525,8.332293201441644,7.212328884284943,2.2375948235276155,6.173067777999677,5.222119428624865,578.3267021480424,744.6901374399604,745.4985602560046,745.0117696934321,754.8914242004685,755.8987227047328,746.5236939098686,754.8830887954391
1,112,1,1,1.0,1.0,0.42293720322777517,0,0.0,0.0,0.0,0.5298812505349898,0.11676380325272491,0.4131174472822649,0.6466450537877148,0.11676380325272491,0.3716721481566007,0,4,8,5,1,3,nan,nan,nan,nan,nan,nan,nan,nan,nan,nan,nan,nan,0.0,nan,nan,nan,nan,nan,nan,nan,nan,nan,nan,nan,nan,nan,nan,nan,nan,nan,nan,578.3267021480424,756.1166232557734,nan,756.5395604590012,nan,nan,nan,nan
1,113,1,1,1.0,1.0,0.4461262048280332,0,0.0,0.0,0.0,0.5289177906493392,0.1166750483009559,0.4122427423483833,0.6455928389502951,0.1166750483009559,0.3968985538425234,4,5,0,7,3,2,nan,nan,nan,nan,nan,nan,nan,nan,nan,nan,nan,nan,0.0,nan,nan,nan,nan,nan,nan,nan,nan,nan,nan,nan,nan,nan,nan,nan,nan,nan,nan,578.3267021480424,757.1334149473405,nan,757.5795411521685,nan,nan,nan,nan
1,114,1,1,1.0,1.0,0.4213474977586884,0,0.0,0.0,0.0,0.528178580061649,0.1164138120688653,0.41176476799278366,0.6445923921305142,0.1164138120688653,0.43013696860483225,7,6,3,4,2,5,nan,nan,nan,nan,nan,nan,nan,nan,nan,nan,nan,nan,0.0,nan,nan,nan,nan,nan,nan,nan,nan,nan,nan,nan,nan,nan,nan,nan,nan,nan,nan,578.3267021480424,758.1501855416573,nan,758.571533039416,nan,nan,nan,nan
1,115,1,1,1.0,1.0,0.41251944366376847,0,0.0,0.0,0.0,0.5272331722536582,0.11632862943380409,0.4109045428198541,0.6435618016874622,0.11632862943380409,0.4266643820834967,1,7,8,2,0,3,nan,nan,nan,nan,nan,nan,nan,nan,nan,nan,nan,nan,0.0,nan,nan,nan,nan,nan,nan,nan,nan,nan,nan,nan,nan,nan,nan,nan,nan,nan,nan,578.3267021480424,759.166999185778,nan,759.5795186294417,nan,nan,nan,nan
1,116,1,1,1.0,1.0,0.4116926599817816,0,0.0,0.0,0.0,0.5262269114765539,0.11631020834854591,0.409916703128008,0.6425371198250998,0.11631020834854591,0.41518653380141285,4,3,0,7,8,1,nan,nan,nan,nan,nan,nan,nan,nan,nan,nan,nan,nan,0.0,nan,nan,nan,nan,nan,nan,nan,nan,nan,nan,nan,nan,nan,nan,nan,nan,nan,nan,578.3267021480424,760.1838108341908,nan,760.5955034941726,nan,nan,nan,nan
1,117,1,1,1.0,1.0,0.39455799575080164,0,1.0,0.0,0.0,0.5252309614635559,0.11629061739824849,0.4089403440653074,0.6415215788618044,0.11629061739824849,0.4062566997987839,6,8,4,0,2,5,nan,nan,nan,nan,nan,nan,nan,nan,nan,nan,nan,nan,0.0,nan,nan,nan,nan,nan,nan,nan,nan,nan,nan,nan,nan,nan,nan,nan,nan,nan,nan,578.3267021480424,761.2089193994179,nan,761.6034773951687,nan,nan,nan,nan
1,118,1,1,1.0,1.0,0.3857196781318635,1,0.0,0.0,1.0,0.5241044703798252,0.1164167457051492,0.407687724674676,0.6405212160849745,0.1164167457051492,0.3973234446214822,3,4,2,8,1,0,1.0,1.0,1.0,1.0,1.0,1.0,1.0,0.0,1.0,1.0,0.0,0.0,3.0,3.0,0.0,2.0,8.0,6.0,1.0,1.0,3.0,4.0,2.0,5.0,6.0,2.117387032863917,6.508444027334917,7.652499680698384,3.26926120891585,8.901339617674239,9.772771903517423,578.3267021480424,762.2257281968778,763.0341464513331,762.6114478750096,773.8605329960992,774.8680008484516,764.0509498319007,773.8522138416301
1,119,1,1,nan,nan,nan,0,0.0,0.0,0.0,0.5229216943777059,0.11661604320956892,0.40630565116813694,0.6395377375872748,0.11661604320956892,0.39013883694133256,0,8,4,7,3,6,nan,nan,nan,nan,nan,nan,nan,nan,nan,nan,nan,nan,0.0,nan,nan,nan,nan,nan,nan,nan,nan,nan,nan,nan,nan,nan,nan,nan,nan,nan,nan,578.3267021480424,775.0857320513751,nan,nan,nan,nan,nan,nan
1,120,1,1,1.0,1.0,0.3726753123337403,0,0.0,0.0,0.0,0.5229216943777059,0.11661604320956892,0.40630565116813694,0.6395377375872748,0.11661604320956892,0.3791974952328019,3,5,6,8,0,1,nan,nan,nan,nan,nan,nan,nan,nan,nan,nan,nan,nan,0.0,nan,nan,nan,nan,nan,nan,nan,nan,nan,nan,nan,nan,nan,nan,nan,nan,nan,nan,578.3267021480424,776.1025331511919,nan,776.4752084635256,nan,nan,nan,nan
1,121,1,1,1.0,1.0,0.451864083588589,0,0.0,0.0,0.0,0.5216484199536044,0.11693475472922411,0.40471366522438035,0.6385831746828285,0.11693475472922411,0.41226969796116464,1,2,3,6,5,8,nan,nan,nan,nan,nan,nan,nan,nan,nan,nan,nan,nan,0.0,nan,nan,nan,nan,nan,nan,nan,nan,nan,nan,nan,nan,nan,nan,nan,nan,nan,nan,578.3267021480424,777.1193168600148,nan,777.5711809436034,nan,nan,nan,nan
1,122,1,1,1.0,1.0,0.38706305908272043,0,1.0,0.0,0.0,0.5210619969589405,0.1166165115211912,0.40444548543774933,0.6376785084801317,0.1166165115211912,0.40386748500168324,3,4,6,2,7,0,nan,nan,nan,nan,nan,nan,nan,nan,nan,nan,nan,nan,0.0,nan,nan,nan,nan,nan,nan,nan,nan,nan,nan,nan,nan,nan,nan,nan,nan,nan,nan,578.3267021480424,778.1361119727371,nan,778.5231750318198,nan,nan,nan,nan
1,123,1,1,1.0,1.0,0.33788596544764005,1,0.0,0.0,1.0,0.5199453391433053,0.11676671774511102,0.40317862139819427,0.6367120568884164,0.11676671774511102,0.3922710360396498,6,2,8,3,1,5,1.0,1.0,1.0,1.0,1.0,1.0,1.0,0.0,0.0,1.0,0.0,0.0,2.0,6.0,5.0,1.0,3.0,7.0,6.0,1.0,3.0,4.0,2.0,5.0,6.0,1.5119150933169294,4.269546591822291,5.110632210125914,2.79058025390259,6.149793817254249,7.285300527320942,578.3267021480424,779.1612678642268,779.9696735744074,779.4991538296745,788.3040639554383,789.3133840883675,780.978119882493,788.2957299758855
1,124,1,1,nan,nan,nan,0,0.0,0.0,0.0,0.5184407162202006,0.11744552630722815,0.40099518991297245,0.6358862425274288,0.11744552630722815,0.36247451226518024,8,1,5,0,4,2,nan,nan,nan,nan,nan,nan,nan,nan,nan,nan,nan,nan,0.0,nan,nan,nan,nan,nan,nan,nan,nan,nan,nan,nan,nan,nan,nan,nan,nan,nan,nan,578.3267021480424,789.5375790291291,nan,nan,nan,nan,nan,nan
1,125,1,1,1.0,1.0,0.2885848542500753,0,0.0,0.0,0.0,0.5184407162202006,0.11744552630722815,0.40099518991297245,0.6358862425274288,0.11744552630722815,0.31323540984885767,5,4,6,8,3,7,nan,nan,nan,nan,nan,nan,nan,nan,nan,nan,nan,nan,0.0,nan,nan,nan,nan,nan,nan,nan,nan,nan,nan,nan,nan,nan,nan,nan,nan,nan,nan,578.3267021480424,790.5543818394945,nan,790.8429666937445,nan,nan,nan,nan
1,126,0,0,0.0,1.0,0.5997665618779138,0,0.0,0.0,0.0,0.5165566517778226,0.11878511745195158,0.39777153432587103,0.6353417692297743,0.11878511745195158,0.44417570806399453,6,5,1,7,8,0,nan,nan,nan,nan,nan,nan,nan,nan,nan,nan,nan,nan,0.0,nan,nan,nan,nan,nan,nan,nan,nan,nan,nan,nan,nan,nan,nan,nan,nan,nan,nan,578.3267021480424,791.571197764395,nan,792.170964326273,nan,nan,nan,nan
1,127,1,1,1.0,1.0,0.47894980225828476,0,0.0,0.0,0.0,0.5172331551119697,0.11853701356631899,0.3986961415456507,0.6357701686782886,0.11853701356631899,0.4557670727954246,1,2,5,4,7,6,nan,nan,nan,nan,nan,nan,nan,nan,nan,nan,nan,nan,0.0,nan,nan,nan,nan,nan,nan,nan,nan,nan,nan,nan,nan,nan,nan,nan,nan,nan,nan,578.3267021480424,792.5879700692894,nan,793.0669198715477,nan,nan,nan,nan
1,128,1,1,1.0,1.0,0.4541251944610849,0,0.0,0.0,0.0,0.5169244183954077,0.11810771794081933,0.3988167004545884,0.635032136336227,0.11810771794081933,0.5109471861990945,8,5,4,1,6,2,nan,nan,nan,nan,nan,nan,nan,nan,nan,nan,nan,nan,0.0,nan,nan,nan,nan,nan,nan,nan,nan,nan,nan,nan,nan,nan,nan,nan,nan,nan,nan,578.3267021480424,793.6047763008391,nan,794.0589014953002,nan,nan,nan,nan
1,129,1,1,1.0,1.0,0.4613019619428087,0,0.0,0.0,0.0,0.516422024603933,0.1177672922062104,0.39865473239772264,0.6341893168101435,0.1177672922062104,0.4647923195540595,7,0,3,6,5,1,nan,nan,nan,nan,nan,nan,nan,nan,nan,nan,nan,nan,0.0,nan,nan,nan,nan,nan,nan,nan,nan,nan,nan,nan,nan,nan,nan,nan,nan,nan,nan,578.3267021480424,794.6215856684721,nan,795.0828876304149,nan,nan,nan,nan
1,130,1,1,1.0,1.0,0.5004923639353365,0,0.0,0.0,0.0,0.5159845637891622,0.11740095446051103,0.3985836093286512,0.6333855182496733,0.11740095446051103,0.47197317344641004,8,1,2,5,3,6,nan,nan,nan,nan,nan,nan,nan,nan,nan,nan,nan,nan,0.0,nan,nan,nan,nan,nan,nan,nan,nan,nan,nan,nan,nan,nan,nan,nan,nan,nan,nan,578.3267021480424,795.6383727984794,nan,796.1388651624147,nan,nan,nan,nan
1,131,0,0,0.0,1.0,0.6436436870135367,0,0.0,0.0,0.0,0.5158625779635416,0.11694584910360882,0.3989167288599328,0.6328084270671505,0.11694584910360882,0.5351460042972273,6,4,8,7,1,3,nan,nan,nan,nan,nan,nan,nan,nan,nan,nan,nan,nan,0.0,nan,nan,nan,nan,nan,nan,nan,nan,nan,nan,nan,nan,nan,nan,nan,nan,nan,nan,578.3267021480424,796.6551847319934,nan,797.2988284190069,nan,nan,nan,nan
1,132,1,1,1.0,1.0,0.45851940716966055,0,0.0,0.0,0.0,0.5168608678779947,0.11703012984454773,0.39983073803344693,0.6338909977225424,0.11703012984454773,0.5342184860395113,0,1,6,2,7,8,nan,nan,nan,nan,nan,nan,nan,nan,nan,nan,nan,nan,0.0,nan,nan,nan,nan,nan,nan,nan,nan,nan,nan,nan,nan,nan,nan,nan,nan,nan,nan,578.3267021480424,797.6803064117557,nan,798.1388258189254,nan,nan,nan,nan
1,133,1,1,1.0,1.0,0.5697032815951388,0,0.0,0.0,0.0,0.5164086084926588,0.11668787977247667,0.3997207287201821,0.6330964882651354,0.11668787977247667,0.557288791926112,7,2,4,3,6,1,nan,nan,nan,nan,nan,nan,nan,nan,nan,nan,nan,nan,0.0,nan,nan,nan,nan,nan,nan,nan,nan,nan,nan,nan,nan,nan,nan,nan,nan,nan,nan,578.3267021480424,798.6971006691747,nan,799.2668039507698,nan,nan,nan,nan
1,134,1,1,1.0,1.0,0.6968620422994718,0,0.0,0.0,0.0,0.516818567516524,0.1163314356422604,0.4004871318742636,0.6331500031587844,0.1163314356422604,0.5750282436880904,5,0,3,6,1,2,nan,nan,nan,nan,nan,nan,nan,nan,nan,nan,nan,nan,0.0,nan,nan,nan,nan,nan,nan,nan,nan,nan,nan,nan,nan,nan,nan,nan,nan,nan,nan,578.3267021480424,799.7139214407362,nan,800.4107834830356,nan,nan,nan,nan
1,135,1,1,1.0,1.0,0.6640489934943616,0,0.0,1.0,0.0,0.5181929451866228,0.11694125178997886,0.401251693396644,0.6351341969766017,0.11694125178997886,0.6435381057963241,6,2,8,3,5,7,nan,nan,nan,nan,nan,nan,nan,nan,nan,nan,nan,nan,0.0,nan,nan,nan,nan,nan,nan,nan,nan,nan,nan,nan,nan,nan,nan,nan,nan,nan,nan,578.3267021480424,800.7307077154401,nan,801.3947567089344,nan,nan,nan,nan
1,136,1,1,1.0,1.0,0.7112477933405899,1,0.0,0.0,1.0,0.5192979152495603,0.11718191648543143,0.40211599876412885,0.6364798317349917,0.11718191648543143,0.6907196097114744,3,0,4,8,7,5,1.0,1.0,1.0,1.0,1.0,1.0,0.0,0.0,0.0,1.0,1.0,0.0,2.0,6.0,5.0,1.0,8.0,7.0,0.0,3.0,5.0,6.0,2.0,1.0,4.0,5.219244217092637,6.978980307729216,8.130282862664899,3.874299799761502,1.9886479749111459,6.178449284518138,578.3267021480424,801.7474982666026,802.5559188018669,802.4587460599432,811.7404178621946,812.7441614817071,803.5727093530295,811.7320835975406
1,137,1,1,nan,nan,nan,0,0.0,0.0,0.0,0.5207411474156582,0.11791226291615228,0.40282888449950593,0.6386534103318106,0.11791226291615228,0.6876483934174757,6,3,2,1,8,4,nan,nan,nan,nan,nan,nan,nan,nan,nan,nan,nan,nan,0.0,nan,nan,nan,nan,nan,nan,nan,nan,nan,nan,nan,nan,nan,nan,nan,nan,nan,nan,578.3267021480424,812.9656140665174,nan,nan,nan,nan,nan,nan
1,138,1,1,nan,nan,nan,0,0.0,0.0,0.0,0.5207411474156582,0.11791226291615228,0.40282888449950593,0.6386534103318106,0.11791226291615228,0.7112477933405899,4,2,8,3,1,7,nan,nan,nan,nan,nan,nan,nan,nan,nan,nan,nan,nan,0.0,nan,nan,nan,nan,nan,nan,nan,nan,nan,nan,nan,nan,nan,nan,nan,nan,nan,nan,578.3267021480424,813.9824100345431,nan,nan,nan,nan,nan,nan
1,139,1,1,nan,nan,nan,0,0.0,0.0,0.0,0.5207411474156582,0.11791226291615228,0.40282888449950593,0.6386534103318106,0.11791226291615228,nan,3,5,1,0,7,4,nan,nan,nan,nan,nan,nan,nan,nan,nan,nan,nan,nan,0.0,nan,nan,nan,nan,nan,nan,nan,nan,nan,nan,nan,nan,nan,nan,nan,nan,nan,nan,578.3267021480424,814.9992097088543,nan,nan,nan,nan,nan,nan
1,140,1,1,nan,nan,nan,0,0.0,0.0,0.0,0.5207411474156582,0.11791226291615228,0.40282888449950593,0.6386534103318106,0.11791226291615228,nan,6,3,5,8,4,0,nan,nan,nan,nan,nan,nan,nan,nan,nan,nan,nan,nan,0.0,nan,nan,nan,nan,nan,nan,nan,nan,nan,nan,nan,nan,nan,nan,nan,nan,nan,nan,578.3267021480424,816.0243162784027,nan,nan,nan,nan,nan,nan
1,141,1,1,1.0,1.0,0.6893357448861934,0,0.0,0.0,0.0,0.5207411474156582,0.11791226291615228,0.40282888449950593,0.6386534103318106,0.11791226291615228,0.6893357448861934,4,2,1,5,0,3,nan,nan,nan,nan,nan,nan,nan,nan,nan,nan,nan,nan,0.0,nan,nan,nan,nan,nan,nan,nan,nan,nan,nan,nan,nan,nan,nan,nan,nan,nan,nan,578.3267021480424,817.0411387605418,nan,817.730474505428,nan,nan,nan,nan
1,142,0,0,1.0,0.0,0.6165251821221318,0,0.0,0.0,0.0,0.521999316053498,0.11836419732991083,0.4036351187235872,0.6403635133834089,0.11836419732991083,0.6529304635041626,0,1,2,3,6,8,nan,nan,nan,nan,nan,nan,nan,nan,nan,nan,nan,nan,0.0,nan,nan,nan,nan,nan,nan,nan,nan,nan,nan,nan,nan,nan,nan,nan,nan,nan,nan,578.3267021480424,818.0579270309245,nan,818.6744522130466,nan,nan,nan,nan
1,143,1,1,1.0,1.0,0.7277196051436476,0,0.0,0.0,0.0,0.5226995076540064,0.11820321808048984,0.4044962895735166,0.6409027257344962,0.11820321808048984,0.677860177383991,7,5,0,1,3,4,nan,nan,nan,nan,nan,nan,nan,nan,nan,nan,nan,nan,0.0,nan,nan,nan,nan,nan,nan,nan,nan,nan,nan,nan,nan,nan,nan,nan,nan,nan,nan,578.3267021480424,819.0747295562178,nan,819.8024491613614,nan,nan,nan,nan
1,144,1,1,1.0,1.0,0.5828836390282959,0,0.0,0.0,0.0,0.524207008370842,0.11906326406731983,0.4051437443035222,0.6432702724381618,0.11906326406731983,0.6423761420980251,3,1,2,4,5,6,nan,nan,nan,nan,nan,nan,nan,nan,nan,nan,nan,nan,0.0,nan,nan,nan,nan,nan,nan,nan,nan,nan,nan,nan,nan,nan,nan,nan,nan,nan,nan,578.3267021480424,820.0915335069876,nan,820.6744171460159,nan,nan,nan,nan
1,145,1,1,1.0,1.0,0.5260707704001106,0,0.0,0.0,0.0,0.524635304944984,0.11873303464320158,0.40590227030178244,0.6433683395881856,0.11873303464320158,0.612224671524018,6,3,8,0,4,2,nan,nan,nan,nan,nan,nan,nan,nan,nan,nan,nan,nan,0.0,nan,nan,nan,nan,nan,nan,nan,nan,nan,nan,nan,nan,nan,nan,nan,nan,nan,nan,578.3267021480424,821.1083434448228,nan,821.6344142152229,nan,nan,nan,nan
1,146,1,1,1.0,1.0,0.4932152420224156,0,0.0,0.0,0.0,0.5246457068685719,0.11830212296919133,0.4063435838993806,0.6429478298377632,0.11830212296919133,0.5340565504836073,5,0,6,8,2,4,nan,nan,nan,nan,nan,nan,nan,nan,nan,nan,nan,nan,0.0,nan,nan,nan,nan,nan,nan,nan,nan,nan,nan,nan,nan,nan,nan,nan,nan,nan,nan,578.3267021480424,822.1251653567306,nan,822.618380598753,nan,nan,nan,nan
1,147,1,1,1.0,1.0,0.5084331936086528,0,0.0,0.0,0.0,0.5244195884164413,0.11790573311756954,0.4065138552988718,0.6423253215340109,0.11790573311756954,0.5092397353437264,4,3,1,5,8,0,nan,nan,nan,nan,nan,nan,nan,nan,nan,nan,nan,nan,0.0,nan,nan,nan,nan,nan,nan,nan,nan,nan,nan,nan,nan,nan,nan,nan,nan,nan,nan,578.3267021480424,823.1419479251781,nan,823.6503811187868,nan,nan,nan,nan
1,148,1,1,1.0,1.0,0.5395846923056524,0,0.0,0.0,0.0,0.5243053998820999,0.11749159981318973,0.40681380006891016,0.6417969996952896,0.11749159981318973,0.513744375978907,8,0,2,7,4,5,nan,nan,nan,nan,nan,nan,nan,nan,nan,nan,nan,nan,0.0,nan,nan,nan,nan,nan,nan,nan,nan,nan,nan,nan,nan,nan,nan,nan,nan,nan,nan,578.3267021480424,824.1587590033887,nan,824.6983436956943,nan,nan,nan,nan
1,149,1,1,1.0,1.0,0.538819204637548,0,0.0,0.0,0.0,0.5244137636581535,0.11708124247257304,0.4073325211855805,0.6414950061307265,0.11708124247257304,0.5289456968506178,4,7,6,8,5,2,nan,nan,nan,nan,nan,nan,nan,nan,nan,nan,nan,nan,0.0,nan,nan,nan,nan,nan,nan,nan,nan,nan,nan,nan,nan,nan,nan,nan,nan,nan,nan,578.3267021480424,825.1755159130262,nan,825.7143351176637,nan,nan,nan,nan
1,150,1,1,1.0,1.0,0.5379929911578074,0,0.0,0.0,0.0,0.524515210425614,0.1166744749271379,0.4078407354984761,0.6411896853527519,0.1166744749271379,0.5387989627003359,3,4,8,0,7,5,nan,nan,nan,nan,nan,nan,nan,nan,nan,nan,nan,nan,0.0,nan,nan,nan,nan,nan,nan,nan,nan,nan,nan,nan,nan,nan,nan,nan,nan,nan,nan,578.3267021480424,826.1923215743736,nan,826.7303145655314,nan,nan,nan,nan
1,151,1,1,1.0,1.0,0.4891885203542188,0,0.0,0.0,0.0,0.5246094606405245,0.11627123102380288,0.4083382296167216,0.6408806916643274,0.11627123102380288,0.5220002387165247,2,8,6,5,4,7,nan,nan,nan,nan,nan,nan,nan,nan,nan,nan,nan,nan,0.0,nan,nan,nan,nan,nan,nan,nan,nan,nan,nan,nan,nan,nan,nan,nan,nan,nan,nan,578.3267021480424,827.2091095596843,nan,827.6982980800385,nan,nan,nan,nan
1,152,0,0,0.0,1.0,0.5203611163015012,0,0.0,0.0,0.0,0.5243634818885362,0.11590413934925944,0.40845934253927674,0.6402676212377957,0.11590413934925944,0.5158475426045092,8,2,3,7,1,4,nan,nan,nan,nan,nan,nan,nan,nan,nan,nan,nan,nan,0.0,nan,nan,nan,nan,nan,nan,nan,nan,nan,nan,nan,nan,nan,nan,nan,nan,nan,nan,578.3267021480424,828.2259109445731,nan,828.7462720608746,nan,nan,nan,nan
1,153,1,1,1.0,1.0,0.43925449199741706,0,0.0,0.0,0.0,0.5243358793672463,0.11550425336515381,0.40883162600209255,0.6398401327324001,0.11550425336515381,0.48293470955104567,6,7,5,0,3,2,nan,nan,nan,nan,nan,nan,nan,nan,nan,nan,nan,nan,0.0,nan,nan,nan,nan,nan,nan,nan,nan,nan,nan,nan,nan,nan,nan,nan,nan,nan,nan,578.3267021480424,829.2510514407768,nan,829.6903059327742,nan,nan,nan,nan
1,154,1,1,1.0,1.0,0.478409256786108,0,0.0,0.0,0.0,0.5237531301386859,0.11532170548741949,0.40843142465126636,0.6390748356261053,0.11532170548741949,0.47934162169500877,2,0,8,7,5,4,nan,nan,nan,nan,nan,nan,nan,nan,nan,nan,nan,nan,0.0,nan,nan,nan,nan,nan,nan,nan,nan,nan,nan,nan,nan,nan,nan,nan,nan,nan,nan,578.3267021480424,830.2678368601773,nan,830.7462461169634,nan,nan,nan,nan
1,155,1,1,1.0,1.0,0.5096297491691075,0,0.0,0.0,0.0,0.5234446684151989,0.11498920565886225,0.4084554627563366,0.6384338740740612,0.11498920565886225,0.4757644993175442,4,8,6,2,1,0,nan,nan,nan,nan,nan,nan,nan,nan,nan,nan,nan,nan,0.0,nan,nan,nan,nan,nan,nan,nan,nan,nan,nan,nan,nan,nan,nan,nan,nan,nan,nan,578.3267021480424,831.2846134415595,nan,831.7942431907286,nan,nan,nan,nan
1,156,1,1,1.0,1.0,0.5407641420024447,0,0.0,0.0,0.0,0.5233513243662389,0.11460565828761399,0.4087456660786249,0.6379569826538529,0.11460565828761399,0.5096010493192201,3,2,4,8,6,5,nan,nan,nan,nan,nan,nan,nan,nan,nan,nan,nan,nan,0.0,nan,nan,nan,nan,nan,nan,nan,nan,nan,nan,nan,nan,nan,nan,nan,nan,nan,nan,578.3267021480424,832.3014327876153,nan,832.8421969296178,nan,nan,nan,nan
1,157,1,1,1.0,1.0,0.5399481920176186,0,0.0,0.0,0.0,0.5234681889141328,0.11422927592236724,0.40923891299176557,0.6376974648365,0.11422927592236724,0.5301140277297236,1,0,8,2,4,7,nan,nan,nan,nan,nan,nan,nan,nan,nan,nan,nan,nan,0.0,nan,nan,nan,nan,nan,nan,nan,nan,nan,nan,nan,nan,nan,nan,nan,nan,nan,nan,578.3267021480424,833.3182384489919,nan,833.8581866410095,nan,nan,nan,nan
1,158,1,1,1.0,1.0,0.5471514736127574,0,0.0,0.0,0.0,0.5235780556014894,0.11385577350559026,0.4097222820958991,0.6374338291070797,0.11385577350559026,0.5426212692109402,5,2,4,6,7,1,nan,nan,nan,nan,nan,nan,nan,nan,nan,nan,nan,nan,0.0,nan,nan,nan,nan,nan,nan,nan,nan,nan,nan,nan,nan,nan,nan,nan,nan,nan,nan,578.3267021480424,834.3350261491723,nan,834.8821776227851,nan,nan,nan,nan
1,159,1,1,1.0,1.0,0.6023273105383851,0,0.0,0.0,0.0,0.5237341709525574,0.11349424818251748,0.4102399227700399,0.6372284191350749,0.11349424818251748,0.563142325389587,8,3,6,5,0,4,nan,nan,nan,nan,nan,nan,nan,nan,nan,nan,nan,nan,0.0,nan,nan,nan,nan,nan,nan,nan,nan,nan,nan,nan,nan,nan,nan,nan,nan,nan,nan,578.3267021480424,835.3518303850433,nan,835.9541576955817,nan,nan,nan,nan
1,160,1,1,1.0,1.0,0.5535028829181101,0,0.0,0.0,0.0,0.5242512310814116,0.11329859373862565,0.4109526373427859,0.6375498248200372,0.11329859373862565,0.5676605556897508,3,7,2,8,1,6,nan,nan,nan,nan,nan,nan,nan,nan,nan,nan,nan,nan,0.0,nan,nan,nan,nan,nan,nan,nan,nan,nan,nan,nan,nan,nan,nan,nan,nan,nan,nan,578.3267021480424,836.3686337656109,nan,836.922136648529,nan,nan,nan,nan
1,161,0,0,0.0,1.0,0.5846925846999511,0,0.0,0.0,0.0,0.5244424183483181,0.11295232700055684,0.4114900913477612,0.6373947453488749,0.11295232700055684,0.5801742593854821,2,3,1,5,4,0,nan,nan,nan,nan,nan,nan,nan,nan,nan,nan,nan,nan,0.0,nan,nan,nan,nan,nan,nan,nan,nan,nan,nan,nan,nan,nan,nan,nan,nan,nan,nan,578.3267021480424,837.3854271677847,nan,837.9701197524846,nan,nan,nan,nan
1,162,1,1,1.0,1.0,0.5118891494057607,0,0.0,0.0,0.0,0.5248336531947573,0.11268895880793825,0.412144694386819,0.6375226120026956,0.11268895880793825,0.5500282056746073,5,4,8,6,2,7,nan,nan,nan,nan,nan,nan,nan,nan,nan,nan,nan,nan,0.0,nan,nan,nan,nan,nan,nan,nan,nan,nan,nan,nan,nan,nan,nan,nan,nan,nan,nan,578.3267021480424,838.4022137275897,nan,838.9141028769955,nan,nan,nan,nan
1,163,1,1,1.0,1.0,0.5030630910187028,0,0.0,0.0,0.0,0.5247501402670863,0.11232963876470416,0.4124205015023822,0.6370797790317905,0.11232963876470416,0.5332149417081382,1,2,7,0,3,8,nan,nan,nan,nan,nan,nan,nan,nan,nan,nan,nan,nan,0.0,nan,nan,nan,nan,nan,nan,nan,nan,nan,nan,nan,nan,nan,nan,nan,nan,nan,nan,578.3267021480424,839.4190396308841,nan,839.9221027219028,nan,nan,nan,nan
1,164,1,1,1.0,1.0,0.5182308653602377,0,0.0,0.0,0.0,0.5246111207206223,0.11198240514432861,0.4126287155762937,0.6365935258649509,0.11198240514432861,0.5110610352615671,0,4,2,1,5,7,nan,nan,nan,nan,nan,nan,nan,nan,nan,nan,nan,nan,0.0,nan,nan,nan,nan,nan,nan,nan,nan,nan,nan,nan,nan,nan,nan,nan,nan,nan,nan,578.3267021480424,840.4358247652126,nan,840.9540556305728,nan,nan,nan,nan
1,165,1,1,1.0,1.0,0.597381433530245,0,0.0,0.0,0.0,0.5245704821514479,0.11162635758282448,0.4129441245686234,0.6361968397342723,0.11162635758282448,0.5395584633030618,7,1,0,8,3,2,nan,nan,nan,nan,nan,nan,nan,nan,nan,nan,nan,nan,0.0,nan,nan,nan,nan,nan,nan,nan,nan,nan,nan,nan,nan,nan,nan,nan,nan,nan,nan,578.3267021480424,841.4526500983047,nan,842.050031531835,nan,nan,nan,nan
1,166,1,1,1.0,1.0,0.732603901065886,0,0.0,0.0,0.0,0.5250313109576428,0.11142226510017933,0.41360904585746344,0.636453576057822,0.11142226510017933,0.6160720666521229,8,3,7,0,1,6,nan,nan,nan,nan,nan,nan,nan,nan,nan,nan,nan,nan,0.0,nan,nan,nan,nan,nan,nan,nan,nan,nan,nan,nan,nan,nan,nan,nan,nan,nan,nan,578.3267021480424,842.4694206926215,nan,843.2020245936874,nan,nan,nan,nan
1,167,0,0,nan,nan,nan,0,0.0,0.0,0.0,0.5263367989457449,0.1122769750173897,0.4140598239283552,0.6386137739631346,0.1122769750173897,0.6649926672980655,2,6,4,3,0,7,nan,nan,nan,nan,nan,nan,nan,nan,nan,nan,nan,nan,0.0,nan,nan,nan,nan,nan,nan,nan,nan,nan,nan,nan,nan,nan,nan,nan,nan,nan,nan,578.3267021480424,843.4862106736109,nan,nan,nan,nan,nan,nan
1,168,1,1,1.0,1.0,0.7149768728413619,0,0.0,0.0,0.0,0.5263367989457449,0.1122769750173897,0.4140598239283552,0.6386137739631346,0.1122769750173897,0.723790386953624,6,3,7,1,4,2,nan,nan,nan,nan,nan,nan,nan,nan,nan,nan,nan,nan,0.0,nan,nan,nan,nan,nan,nan,nan,nan,nan,nan,nan,nan,nan,nan,nan,nan,nan,nan,578.3267021480424,844.5030057863623,nan,845.2179826592037,nan,nan,nan,nan
1,169,1,1,1.0,1.0,0.6021676557720639,0,0.0,0.0,0.0,0.5275157994075925,0.11290858057170994,0.4146072188358826,0.6404243799793025,0.11290858057170994,0.6585722643067129,1,5,8,0,6,3,nan,nan,nan,nan,nan,nan,nan,nan,nan,nan,nan,nan,0.0,nan,nan,nan,nan,nan,nan,nan,nan,nan,nan,nan,nan,nan,nan,nan,nan,nan,nan,578.3267021480424,845.5198060308467,nan,846.1219736866187,nan,nan,nan,nan
1,170,1,1,1.0,1.0,0.5133730835805181,0,0.0,0.0,0.0,0.52797947553408,0.11271009081594743,0.4152693847181326,0.6406895663500274,0.11271009081594743,0.6101725373979813,3,8,6,1,7,2,nan,nan,nan,nan,nan,nan,nan,nan,nan,nan,nan,nan,0.0,nan,nan,nan,nan,nan,nan,nan,nan,nan,nan,nan,nan,nan,nan,nan,nan,nan,nan,578.3267021480424,846.5365797612467,nan,847.0499528448272,nan,nan,nan,nan
1,171,1,1,1.0,1.0,0.4965226618514862,0,0.0,0.0,0.0,0.5278893126207864,0.11236750567660464,0.4155218069441818,0.6402568182973911,0.11236750567660464,0.5373544670680227,4,5,1,8,3,6,nan,nan,nan,nan,nan,nan,nan,nan,nan,nan,nan,nan,0.0,nan,nan,nan,nan,nan,nan,nan,nan,nan,nan,nan,nan,nan,nan,nan,nan,nan,nan,578.3267021480424,847.5534048092668,nan,848.0499274711183,nan,nan,nan,nan
1,172,0,0,0.0,1.0,0.519708242296474,0,0.0,0.0,0.0,0.5276968791804839,0.11204906234140934,0.4156478168390746,0.6397459415218932,0.11204906234140934,0.5098679959094928,8,0,6,7,1,4,nan,nan,nan,nan,nan,nan,nan,nan,nan,nan,nan,nan,0.0,nan,nan,nan,nan,nan,nan,nan,nan,nan,nan,nan,nan,nan,nan,nan,nan,nan,nan,578.3267021480424,848.5701984965126,nan,849.0899067388091,nan,nan,nan,nan
1,173,1,1,1.0,1.0,0.4788910720963031,0,0.0,0.0,0.0,0.5276481679799717,0.1117086581396759,0.4159395098402958,0.6393568261196476,0.1117086581396759,0.49837399208142114,5,3,7,0,8,2,nan,nan,nan,nan,nan,nan,nan,nan,nan,nan,nan,nan,0.0,nan,nan,nan,nan,nan,nan,nan,nan,nan,nan,nan,nan,nan,nan,nan,nan,nan,nan,578.3267021480424,849.586996175145,nan,850.0658872472413,nan,nan,nan,nan
1,174,1,1,1.0,1.0,0.4541095140739344,0,0.0,0.0,0.0,0.5273526704291616,0.1114339057413876,0.41591876468777395,0.6387865761705491,0.1114339057413876,0.4842362761555705,7,8,3,1,4,5,nan,nan,nan,nan,nan,nan,nan,nan,nan,nan,nan,nan,0.0,nan,nan,nan,nan,nan,nan,nan,nan,nan,nan,nan,nan,nan,nan,nan,nan,nan,nan,578.3267021480424,850.6037579314143,nan,851.0578674454882,nan,nan,nan,nan
1,175,1,1,1.0,1.0,0.5092708109878004,0,0.0,0.0,0.0,0.5269114465956963,0.11124222663719646,0.41566921995849987,0.6381536732328927,0.11124222663719646,0.48075713238601264,1,0,6,8,2,7,nan,nan,nan,nan,nan,nan,nan,nan,nan,nan,nan,nan,0.0,nan,nan,nan,nan,nan,nan,nan,nan,nan,nan,nan,nan,nan,nan,nan,nan,nan,nan,578.3267021480424,851.6205935280595,nan,852.1298643390473,nan,nan,nan,nan
1,176,0,0,0.0,1.0,0.5564339736301918,0,0.0,0.0,0.0,0.5268058140471461,0.11091701608830283,0.41588879795884326,0.637722830135449,0.11091701608830283,0.5066047662306422,7,4,2,0,5,8,nan,nan,nan,nan,nan,nan,nan,nan,nan,nan,nan,nan,0.0,nan,nan,nan,nan,nan,nan,nan,nan,nan,nan,nan,nan,nan,nan,nan,nan,nan,nan,578.3267021480424,852.637401755288,nan,853.1938357289182,nan,nan,nan,nan
1,177,1,1,1.0,1.0,0.49162895770859905,0,0.0,0.0,0.0,0.5269821721399023,0.11060989491035345,0.41637227722954884,0.6375920670502557,0.11060989491035345,0.519111247442197,8,7,6,1,4,5,nan,nan,nan,nan,nan,nan,nan,nan,nan,nan,nan,nan,0.0,nan,nan,nan,nan,nan,nan,nan,nan,nan,nan,nan,nan,nan,nan,nan,nan,nan,nan,578.3267021480424,853.6541894554975,nan,854.1458184132061,nan,nan,nan,nan
1,178,1,1,1.0,1.0,0.5148496051842812,0,0.0,0.0,0.0,0.5267729815219656,0.11031548790604118,0.41645749361592443,0.6370884694280068,0.11031548790604118,0.5209708455076907,5,6,0,2,1,8,nan,nan,nan,nan,nan,nan,nan,nan,nan,nan,nan,nan,0.0,nan,nan,nan,nan,nan,nan,nan,nan,nan,nan,nan,nan,nan,nan,nan,nan,nan,nan,578.3267021480424,854.6709611902188,nan,855.1858107954031,nan,nan,nan,nan
1,179,1,1,1.0,1.0,0.5459971125237644,0,0.0,0.0,0.0,0.5267028440140968,0.10999433119046974,0.4167085128236271,0.6366971752045666,0.10999433119046974,0.5174918918055482,6,7,1,3,5,4,nan,nan,nan,nan,nan,nan,nan,nan,nan,nan,nan,nan,0.0,nan,nan,nan,nan,nan,nan,nan,nan,nan,nan,nan,nan,nan,nan,nan,nan,nan,nan,578.3267021480424,855.6877805362747,nan,856.2337776487984,nan,nan,nan,nan
1,180,1,1,1.0,1.0,0.5211864744778723,0,0.0,0.0,0.0,0.5268156759936855,0.10968210534354715,0.41713357065013834,0.6364977813372327,0.10968210534354715,0.5273443973953059,3,2,8,1,4,6,nan,nan,nan,nan,nan,nan,nan,nan,nan,nan,nan,nan,0.0,nan,nan,nan,nan,nan,nan,nan,nan,nan,nan,nan,nan,nan,nan,nan,nan,nan,nan,578.3267021480424,856.7045799254847,nan,857.2257663999626,nan,nan,nan,nan
1,181,1,1,1.0,1.0,0.5203745159087703,0,0.0,0.0,0.0,0.5267829480778959,0.1093636346241469,0.41741931345374905,0.6361465827020428,0.1093636346241469,0.529186034303469,6,5,2,3,8,1,nan,nan,nan,nan,nan,nan,nan,nan,nan,nan,nan,nan,0.0,nan,nan,nan,nan,nan,nan,nan,nan,nan,nan,nan,nan,nan,nan,nan,nan,nan,nan,578.3267021480424,857.7213804550702,nan,858.241754970979,nan,nan,nan,nan
1,182,1,1,1.0,1.0,0.543568079097895,0,0.0,0.0,0.0,0.5267459051173807,0.10904817883276902,0.4176977262846117,0.6357940839501497,0.10904817883276902,0.5283763564948458,7,2,4,0,3,5,nan,nan,nan,nan,nan,nan,nan,nan,nan,nan,nan,nan,0.0,nan,nan,nan,nan,nan,nan,nan,nan,nan,nan,nan,nan,nan,nan,nan,nan,nan,nan,578.3267021480424,858.7381758528936,nan,859.2817439319915,nan,nan,nan,nan
1,183,1,1,1.0,1.0,0.6067115448822733,0,0.0,0.0,0.0,0.5268425842781883,0.10874180580174911,0.4181007784764392,0.6355843900799374,0.10874180580174911,0.5568847132963128,5,1,6,4,7,3,nan,nan,nan,nan,nan,nan,nan,nan,nan,nan,nan,nan,0.0,nan,nan,nan,nan,nan,nan,nan,nan,nan,nan,nan,nan,nan,nan,nan,nan,nan,nan,578.3267021480424,859.7549926330685,nan,860.3617041779507,nan,nan,nan,nan
1,184,0,0,0.0,1.0,0.6219320623204112,0,0.0,0.0,0.0,0.527298978338783,0.10859766838852314,0.4187013099502599,0.6358966467273062,0.10859766838852314,0.5907372287668599,3,2,1,8,0,7,nan,nan,nan,nan,nan,nan,nan,nan,nan,nan,nan,nan,0.0,nan,nan,nan,nan,nan,nan,nan,nan,nan,nan,nan,nan,nan,nan,nan,nan,nan,nan,578.3267021480424,860.7717729207361,nan,861.3937049830565,nan,nan,nan,nan
1,185,1,1,1.0,1.0,0.581162503483938,0,0.0,0.0,0.0,0.5278366663159514,0.10852206818701961,0.4193145981289318,0.636358734502971,0.10852206818701961,0.6032687035622075,1,4,0,6,3,5,nan,nan,nan,nan,nan,nan,nan,nan,nan,nan,nan,nan,0.0,nan,nan,nan,nan,nan,nan,nan,nan,nan,nan,nan,nan,nan,nan,nan,nan,nan,nan,578.3267021480424,861.7885432299518,nan,862.3697057334357,nan,nan,nan,nan
1,186,1,1,1.0,1.0,0.6762851069506723,0,0.0,0.0,0.0,0.5281379422321547,0.10828886074641068,0.419849081485744,0.6364268029785654,0.10828886074641068,0.6264598909183405,5,3,6,4,1,8,nan,nan,nan,nan,nan,nan,nan,nan,nan,nan,nan,nan,0.0,nan,nan,nan,nan,nan,nan,nan,nan,nan,nan,nan,nan,nan,nan,nan,nan,nan,nan,578.3267021480424,862.8053697034484,nan,863.481654810399,nan,nan,nan,nan
1,187,1,1,1.0,1.0,0.6834804058016744,0,0.0,1.0,0.0,0.5289702296743936,0.10855047949164265,0.4204197501827509,0.6375207091660362,0.10855047949164265,0.6469760054120949,0,4,1,7,8,3,nan,nan,nan,nan,nan,nan,nan,nan,nan,nan,nan,nan,0.0,nan,nan,nan,nan,nan,nan,nan,nan,nan,nan,nan,nan,nan,nan,nan,nan,nan,nan,578.3267021480424,863.8221639608964,nan,864.5056443666981,nan,nan,nan,nan
1,188,1,1,1.0,1.0,0.6746577685698867,1,0.0,0.0,1.0,0.5298334150158868,0.10885772576283176,0.420975689253055,0.6386911407787186,0.10885772576283176,0.6781410937740778,4,0,6,2,3,7,1.0,1.0,1.0,1.0,1.0,1.0,0.0,1.0,0.0,1.0,0.0,0.0,2.0,0.0,0.0,0.0,2.0,6.0,2.0,2.0,3.0,4.0,1.0,5.0,6.0,4.078211455896962,5.029397291800706,6.310600108088693,2.671642859088024,7.292982773244148,10.077182252774946,578.3267021480424,864.8389610693266,865.6473950041691,865.5136188378965,876.7904761931859,877.7950981991016,866.6725198200147,876.7821484857996
1,189,1,1,nan,nan,nan,0,0.0,0.0,0.0,0.5306379947578534,0.10908733424466036,0.4215506605131931,0.6397253290025138,0.10908733424466036,0.6790690871857805,3,7,0,8,2,1,nan,nan,nan,nan,nan,nan,nan,nan,nan,nan,nan,nan,0.0,nan,nan,nan,nan,nan,nan,nan,nan,nan,nan,nan,nan,nan,nan,nan,nan,nan,nan,578.3267021480424,878.0156381857814,nan,nan,nan,nan,nan,nan
1,190,1,1,1.0,1.0,0.3449218946043402,0,0.0,0.0,0.0,0.5306379947578534,0.10908733424466036,0.4215506605131931,0.6397253290025138,0.10908733424466036,0.5097898315871134,5,1,3,7,0,4,nan,nan,nan,nan,nan,nan,nan,nan,nan,nan,nan,nan,0.0,nan,nan,nan,nan,nan,nan,nan,nan,nan,nan,nan,nan,nan,nan,nan,nan,nan,nan,578.3267021480424,879.032456961635,nan,879.3773788562394,nan,nan,nan,nan
1,191,1,1,1.0,1.0,0.3681388357945252,0,0.0,0.0,0.0,0.5296119389559003,0.10965310151088899,0.41995883744501133,0.6392650404667893,0.10965310151088899,0.3565303651994327,0,6,1,4,8,7,nan,nan,nan,nan,nan,nan,nan,nan,nan,nan,nan,nan,0.0,nan,nan,nan,nan,nan,nan,nan,nan,nan,nan,nan,nan,nan,nan,nan,nan,nan,nan,578.3267021480424,880.0492195732368,nan,880.4173584090313,nan,nan,nan,nan
1,192,1,1,1.0,1.0,0.3512818568269722,0,1.0,0.0,0.0,0.5287247241033654,0.1100009636609245,0.41872376044244086,0.6387256877642898,0.1100009636609245,0.35478086240861256,3,5,4,8,1,6,nan,nan,nan,nan,nan,nan,nan,nan,nan,nan,nan,nan,0.0,nan,nan,nan,nan,nan,nan,nan,nan,nan,nan,nan,nan,nan,nan,nan,nan,nan,nan,578.3267021480424,881.0660557400552,nan,881.4173375968821,nan,nan,nan,nan
1,193,1,1,1.0,1.0,0.35845577335567214,1,0.0,0.0,1.0,0.5277550909488495,0.1104771692610625,0.41727792168778705,0.6382322602099121,0.1104771692610625,0.3592921553257232,7,4,0,3,8,2,1.0,1.0,1.0,1.0,1.0,1.0,1.0,0.0,0.0,0.0,0.0,0.0,1.0,7.0,3.0,5.0,0.0,2.0,4.0,1.0,2.0,4.0,3.0,5.0,6.0,2.401998478715541,3.4025960437429603,6.433818246703595,4.993364633264719,7.241299099550815,8.36173867477919,578.3267021480424,882.082867388468,882.8912716731429,882.4413231618237,892.3091435433307,893.3168377633847,883.9080764792161,892.3008101339801
1,194,1,1,nan,nan,nan,0,0.0,0.0,0.0,0.52683498596193,0.11087740457673115,0.4159575813851989,0.6377123905386611,0.11087740457673115,0.3548688150913222,2,1,7,0,4,3,nan,nan,nan,nan,nan,nan,nan,nan,nan,nan,nan,nan,0.0,nan,nan,nan,nan,nan,nan,nan,nan,nan,nan,nan,nan,nan,nan,nan,nan,nan,nan,578.3267021480424,893.5343366115703,nan,nan,nan,nan,nan,nan
1,195,1,1,1.0,1.0,0.27398071825155057,0,0.0,0.0,0.0,0.52683498596193,0.11087740457673115,0.4159575813851989,0.6377123905386611,0.11087740457673115,0.31621824580361135,6,8,0,7,1,2,nan,nan,nan,nan,nan,nan,nan,nan,nan,nan,nan,nan,0.0,nan,nan,nan,nan,nan,nan,nan,nan,nan,nan,nan,nan,nan,nan,nan,nan,nan,nan,578.3267021480424,894.5511397070659,nan,894.8251204253174,nan,nan,nan,nan
1,196,1,1,1.0,1.0,0.3051721306401305,0,0.0,0.0,0.0,0.5254682061364685,0.1121208004954293,0.4133474056410392,0.6375890066318978,0.1121208004954293,0.28957642444584053,2,6,7,3,5,8,nan,nan,nan,nan,nan,nan,nan,nan,nan,nan,nan,nan,0.0,nan,nan,nan,nan,nan,nan,nan,nan,nan,nan,nan,nan,nan,nan,nan,nan,nan,nan,578.3267021480424,895.5679040292453,nan,895.8730761598854,nan,nan,nan,nan
1,197,1,1,1.0,1.0,0.6083112287451513,0,1.0,0.0,0.0,0.5242838186338,0.11297345099556298,0.41131036763823703,0.637257269629363,0.11297345099556298,0.39582135921227746,8,5,3,2,6,7,nan,nan,nan,nan,nan,nan,nan,nan,nan,nan,nan,nan,0.0,nan,nan,nan,nan,nan,nan,nan,nan,nan,nan,nan,nan,nan,nan,nan,nan,nan,nan,578.3267021480424,896.5847396258614,nan,897.1930508546066,nan,nan,nan,nan
1,198,1,1,1.0,1.0,0.6155162209179252,1,0.0,0.0,1.0,0.5247331630728982,0.11283751427881028,0.4118956487940879,0.6375706773517085,0.11283751427881028,0.5096665267677357,1,8,6,5,4,2,1.0,1.0,1.0,1.0,1.0,1.0,0.0,1.0,0.0,1.0,0.0,0.0,2.0,8.0,8.0,8.0,5.0,6.0,0.0,2.0,3.0,4.0,1.0,5.0,6.0,3.1308721598470584,4.316051178466296,5.259837300371146,2.012575094762724,6.218276024854276,7.770210014452459,578.3267021480424,897.6015338833095,898.4099492868118,898.2170501042274,907.2360712607915,908.2457873945823,899.4267304297537,907.2277352855308
1,199,1,1,nan,nan,nan,0,0.0,0.0,0.0,0.5252160516784569,0.11273058381293938,0.4124854678655175,0.6379466354913963,0.11273058381293938,0.6119137248315383,3,4,1,7,6,8,nan,nan,nan,nan,nan,nan,nan,nan,nan,nan,nan,nan,0.0,nan,nan,nan,nan,nan,nan,nan,nan,nan,nan,nan,nan,nan,nan,nan,nan,nan,nan,578.3267021480424,908.4695646670298,nan,nan,nan,nan,nan,nan
1,200,1,1,1.0,1.0,0.33011391368927434,0,0.0,0.0,0.0,0.5252160516784569,0.11273058381293938,0.4124854678655175,0.6379466354913963,0.11273058381293938,0.4728150673035998,8,5,4,0,7,3,nan,nan,nan,nan,nan,nan,nan,nan,nan,nan,nan,nan,0.0,nan,nan,nan,nan,nan,nan,nan,nan,nan,nan,nan,nan,nan,nan,nan,nan,nan,nan,578.3267021480424,909.4947291114659,nan,909.8248430251551,nan,nan,nan,nan
1,201,1,1,1.0,1.0,0.4652964675333351,0,0.0,0.0,0.0,0.5241837652340696,0.11331937668487978,0.41086438854918983,0.6375031419189494,0.11331937668487978,0.3977051906113047,1,2,6,5,3,4,nan,nan,nan,nan,nan,nan,nan,nan,nan,nan,nan,nan,0.0,nan,nan,nan,nan,nan,nan,nan,nan,nan,nan,nan,nan,nan,nan,nan,nan,nan,nan,578.3267021480424,910.5115225136105,nan,910.9768189811439,nan,nan,nan,nan
1,202,1,1,1.0,1.0,0.5284861191466916,0,0.0,0.0,0.0,0.5238738320882763,0.11310106325295415,0.41077276883532216,0.6369748953412304,0.11310106325295415,0.44129883345643367,6,4,8,3,0,5,nan,nan,nan,nan,nan,nan,nan,nan,nan,nan,nan,nan,0.0,nan,nan,nan,nan,nan,nan,nan,nan,nan,nan,nan,nan,nan,nan,nan,nan,nan,nan,578.3267021480424,911.5283224730229,nan,912.0568085921695,nan,nan,nan,nan
1,203,1,1,1.0,1.0,0.5276792923395988,0,0.0,0.0,0.0,0.5238979801880586,0.11280508970996057,0.411092890478098,0.6367030698980192,0.11280508970996057,0.5071539596732085,3,5,4,6,2,7,nan,nan,nan,nan,nan,nan,nan,nan,nan,nan,nan,nan,0.0,nan,nan,nan,nan,nan,nan,nan,nan,nan,nan,nan,nan,nan,nan,nan,nan,nan,nan,578.3267021480424,912.545119866525,nan,913.0727991588647,nan,nan,nan,nan
1,204,1,1,1.0,1.0,0.5824887785711326,0,0.0,0.0,0.0,0.5239176745221812,0.11251127217521927,0.4114064023469619,0.6364289466974005,0.11251127217521927,0.5462180633524744,0,4,6,5,8,3,nan,nan,nan,nan,nan,nan,nan,nan,nan,nan,nan,nan,0.0,nan,nan,nan,nan,nan,nan,nan,nan,nan,nan,nan,nan,nan,nan,nan,nan,nan,nan,578.3267021480424,913.5702680603717,nan,914.1527568389429,nan,nan,nan,nan
1,205,1,1,1.0,1.0,0.5977055897528771,0,0.0,0.0,0.0,0.5242211517452328,0.11229817317037472,0.41192297857485805,0.6365193249156075,0.11229817317037472,0.5692912202212028,7,6,2,1,0,8,nan,nan,nan,nan,nan,nan,nan,nan,nan,nan,nan,nan,0.0,nan,nan,nan,nan,nan,nan,nan,nan,nan,nan,nan,nan,nan,nan,nan,nan,nan,nan,578.3267021480424,914.5870457821584,nan,915.1847513719113,nan,nan,nan,nan
1,206,1,1,1.0,1.0,0.6048817870323546,0,0.0,0.0,0.0,0.5245999375081587,0.1121319158096413,0.4124680216985174,0.6367318533178,0.1121319158096413,0.5950253851187881,2,8,0,6,1,5,nan,nan,nan,nan,nan,nan,nan,nan,nan,nan,nan,nan,0.0,nan,nan,nan,nan,nan,nan,nan,nan,nan,nan,nan,nan,nan,nan,nan,nan,nan,nan,578.3267021480424,915.603846596845,nan,916.2087283838773,nan,nan,nan,nan
1,207,1,1,1.0,1.0,0.5640660423377994,0,0.0,0.0,0.0,0.5250116393005905,0.11199093444425348,0.413020704856337,0.6370025737448439,0.11199093444425348,0.5888844730410104,6,1,5,4,8,2,nan,nan,nan,nan,nan,nan,nan,nan,nan,nan,nan,nan,0.0,nan,nan,nan,nan,nan,nan,nan,nan,nan,nan,nan,nan,nan,nan,nan,nan,nan,nan,578.3267021480424,916.6206411393941,nan,917.1847071817319,nan,nan,nan,nan
1,208,1,1,1.0,1.0,0.4989223302109167,0,0.0,0.0,0.0,0.5252108964589436,0.11173952713282854,0.41347136932611506,0.6369504235917721,0.11173952713282854,0.5559567198603569,2,0,8,1,3,7,nan,nan,nan,nan,nan,nan,nan,nan,nan,nan,nan,nan,0.0,nan,nan,nan,nan,nan,nan,nan,nan,nan,nan,nan,nan,nan,nan,nan,nan,nan,nan,578.3267021480424,917.6457676658174,nan,918.1446899960283,nan,nan,nan,nan
1,209,1,1,1.0,1.0,0.3861390570527874,0,0.0,0.0,0.0,0.5250774519602227,0.11147121997122406,0.41360623198899865,0.6365486719314468,0.11147121997122406,0.48304247653383453,0,4,7,3,1,5,nan,nan,nan,nan,nan,nan,nan,nan,nan,nan,nan,nan,0.0,nan,nan,nan,nan,nan,nan,nan,nan,nan,nan,nan,nan,nan,nan,nan,nan,nan,nan,578.3267021480424,918.6625502342358,nan,919.0486892912886,nan,nan,nan,nan
1,210,1,1,1.0,1.0,0.39317299050162546,0,0.0,0.0,0.0,0.5243757428950336,0.11162471986860073,0.4127510230264329,0.6360004627636344,0.11162471986860073,0.4260781259217765,5,8,2,4,6,3,nan,nan,nan,nan,nan,nan,nan,nan,nan,nan,nan,nan,0.0,nan,nan,nan,nan,nan,nan,nan,nan,nan,nan,nan,nan,nan,nan,nan,nan,nan,nan,578.3267021480424,919.6794867555145,nan,920.0726597460161,nan,nan,nan,nan
1,211,0,0,0.0,1.0,0.6564599745615851,0,0.0,0.0,0.0,0.5237164325814989,0.11172973313202651,0.4119866994494724,0.6354461657135254,0.11172973313202651,0.478590674038666,1,2,8,7,4,5,nan,nan,nan,nan,nan,nan,nan,nan,nan,nan,nan,nan,0.0,nan,nan,nan,nan,nan,nan,nan,nan,nan,nan,nan,nan,nan,nan,nan,nan,nan,nan,578.3267021480424,920.6961703949783,nan,921.3526303695398,nan,nan,nan,nan
1,212,1,1,1.0,1.0,0.5356734352535568,0,0.0,0.0,0.0,0.5243801502913993,0.11184265428678698,0.4125374960046123,0.6362228045781863,0.11184265428678698,0.5284354667722558,2,1,4,6,3,8,nan,nan,nan,nan,nan,nan,nan,nan,nan,nan,nan,nan,0.0,nan,nan,nan,nan,nan,nan,nan,nan,nan,nan,nan,nan,nan,nan,nan,nan,nan,nan,578.3267021480424,921.7129888857598,nan,922.2486623210134,nan,nan,nan,nan
1,213,1,1,1.0,1.0,0.4945004629844334,0,0.0,0.0,0.0,0.5244363357887235,0.1115669213835836,0.4128694144051399,0.6360032571723071,0.1115669213835836,0.5622112909331918,3,7,2,8,4,0,nan,nan,nan,nan,nan,nan,nan,nan,nan,nan,nan,nan,0.0,nan,nan,nan,nan,nan,nan,nan,nan,nan,nan,nan,nan,nan,nan,nan,nan,nan,nan,578.3267021480424,922.7380920341529,nan,923.2325924971374,nan,nan,nan,nan
1,214,1,1,1.0,1.0,0.5416681871865876,0,0.0,0.0,0.0,0.5242881383986032,0.11131025428934149,0.41297788410926173,0.6355983926879447,0.11131025428934149,0.5239473618081926,5,8,7,3,6,4,nan,nan,nan,nan,nan,nan,nan,nan,nan,nan,nan,nan,0.0,nan,nan,nan,nan,nan,nan,nan,nan,nan,nan,nan,nan,nan,nan,nan,nan,nan,nan,578.3267021480424,923.7549179374473,nan,924.2965861246339,nan,nan,nan,nan
1,215,1,1,1.0,1.0,0.5008293495629914,0,0.0,0.0,0.0,0.5243737544024849,0.11104242001081084,0.4133313343916741,0.6354161744132958,0.11104242001081084,0.5123326665780041,8,6,3,5,7,0,nan,nan,nan,nan,nan,nan,nan,nan,nan,nan,nan,nan,0.0,nan,nan,nan,nan,nan,nan,nan,nan,nan,nan,nan,nan,nan,nan,nan,nan,nan,nan,578.3267021480424,924.7717307262647,nan,925.2725600758276,nan,nan,nan,nan
1,216,1,1,1.0,1.0,0.5960437545436434,0,0.0,0.0,0.0,0.5242583406532717,0.11078212779578663,0.4134762128574851,0.6350404684490584,0.11078212779578663,0.5461804304310741,2,7,0,4,3,1,nan,nan,nan,nan,nan,nan,nan,nan,nan,nan,nan,nan,0.0,nan,nan,nan,nan,nan,nan,nan,nan,nan,nan,nan,nan,nan,nan,nan,nan,nan,nan,578.3267021480424,925.7885001801769,nan,926.3845439347206,nan,nan,nan,nan
1,217,1,1,1.0,1.0,0.5712222828005906,0,0.0,0.0,0.0,0.5246085134039565,0.11062471596766225,0.41398379743629427,0.6352332293716187,0.11062471596766225,0.5560317956357418,4,8,5,6,2,0,nan,nan,nan,nan,nan,nan,nan,nan,nan,nan,nan,nan,0.0,nan,nan,nan,nan,nan,nan,nan,nan,nan,nan,nan,nan,nan,nan,nan,nan,nan,nan,578.3267021480424,926.8053024203691,nan,927.3765247031697,nan,nan,nan,nan
1,218,1,1,1.0,1.0,0.5939958968665451,0,0.0,0.0,0.0,0.5248347938379208,0.11040343035012025,0.4144313634878005,0.635238224188041,0.11040343035012025,0.587087311403593,1,3,6,0,8,4,nan,nan,nan,nan,nan,nan,nan,nan,nan,nan,nan,nan,0.0,nan,nan,nan,nan,nan,nan,nan,nan,nan,nan,nan,nan,nan,nan,nan,nan,nan,nan,578.3267021480424,927.830504782818,nan,928.4245006796846,nan,nan,nan,nan
1,219,1,1,1.0,1.0,0.6892599088605493,0,0.0,0.0,0.0,0.5251689054467547,0.1102407804345168,0.41492812501223786,0.6354096858812714,0.1102407804345168,0.6181593628425617,3,5,0,6,4,7,nan,nan,nan,nan,nan,nan,nan,nan,nan,nan,nan,nan,0.0,nan,nan,nan,nan,nan,nan,nan,nan,nan,nan,nan,nan,nan,nan,nan,nan,nan,nan,578.3267021480424,928.8472254850203,nan,929.5364853938809,nan,nan,nan,nan
1,220,1,1,nan,nan,nan,0,0.0,0.0,0.0,0.5259578045016287,0.11055962427276748,0.41539818022886116,0.6365174287743961,0.11055962427276748,0.6416279028635472,7,6,3,5,1,4,nan,nan,nan,nan,nan,nan,nan,nan,nan,nan,nan,nan,0.0,nan,nan,nan,nan,nan,nan,nan,nan,nan,nan,nan,nan,nan,nan,nan,nan,nan,nan,578.3267021480424,929.8640260146058,nan,nan,nan,nan,nan,nan
1,221,1,1,nan,nan,nan,0,0.0,0.0,0.0,0.5259578045016287,0.11055962427276748,0.41539818022886116,0.6365174287743961,0.11055962427276748,0.6892599088605493,0,1,8,2,7,5,nan,nan,nan,nan,nan,nan,nan,nan,nan,nan,nan,nan,0.0,nan,nan,nan,nan,nan,nan,nan,nan,nan,nan,nan,nan,nan,nan,nan,nan,nan,nan,578.3267021480424,930.8808128595119,nan,nan,nan,nan,nan,nan
1,222,1,1,nan,nan,nan,0,0.0,0.0,0.0,0.5259578045016287,0.11055962427276748,0.41539818022886116,0.6365174287743961,0.11055962427276748,nan,4,7,2,5,0,1,nan,nan,nan,nan,nan,nan,nan,nan,nan,nan,nan,nan,0.0,nan,nan,nan,nan,nan,nan,nan,nan,nan,nan,nan,nan,nan,nan,nan,nan,nan,nan,578.3267021480424,931.8975894408941,nan,nan,nan,nan,nan,nan
1,223,1,1,1.0,1.0,0.6940019409521483,0,0.0,0.0,0.0,0.5259578045016287,0.11055962427276748,0.41539818022886116,0.6365174287743961,0.11055962427276748,0.6940019409521483,2,5,4,8,3,7,nan,nan,nan,nan,nan,nan,nan,nan,nan,nan,nan,nan,0.0,nan,nan,nan,nan,nan,nan,nan,nan,nan,nan,nan,nan,nan,nan,nan,nan,nan,nan,578.3267021480424,932.9144238971348,nan,933.608425838087,nan,nan,nan,nan
1,224,0,0,0.0,1.0,0.5971827203175053,0,0.0,0.0,0.0,0.5267618434320139,0.11090271752745057,0.41585912590456336,0.6376645609594644,0.11090271752745057,0.6455923306348268,4,1,8,2,0,5,nan,nan,nan,nan,nan,nan,nan,nan,nan,nan,nan,nan,0.0,nan,nan,nan,nan,nan,nan,nan,nan,nan,nan,nan,nan,nan,nan,nan,nan,nan,nan,578.3267021480424,933.9312084612611,nan,934.5283911815786,nan,nan,nan,nan
1,225,1,1,1.0,1.0,0.6283843962592073,0,0.0,0.0,0.0,0.5270971809409924,0.11074450971942981,0.4163526712215626,0.6378416906604223,0.11074450971942981,0.6398563525096203,2,6,0,5,3,8,nan,nan,nan,nan,nan,nan,nan,nan,nan,nan,nan,nan,0.0,nan,nan,nan,nan,nan,nan,nan,nan,nan,nan,nan,nan,nan,nan,nan,nan,nan,nan,578.3267021480424,934.9480047143879,nan,935.5763891106471,nan,nan,nan,nan
1,226,1,1,1.0,1.0,0.6995844414341263,0,0.0,0.0,0.0,0.5275772151368134,0.11070055312647985,0.4168766620103336,0.6382777682632933,0.11070055312647985,0.6417171860036129,6,7,4,8,2,0,nan,nan,nan,nan,nan,nan,nan,nan,nan,nan,nan,nan,0.0,nan,nan,nan,nan,nan,nan,nan,nan,nan,nan,nan,nan,nan,nan,nan,nan,nan,nan,578.3267021480424,935.9647724577226,nan,936.6643568991567,nan,nan,nan,nan
1,227,1,1,1.0,1.0,0.5707464545266703,0,0.0,0.0,0.0,0.5283885699778385,0.11106623377882047,0.417322336199018,0.639454803756659,0.11106623377882047,0.632905097406668,3,8,0,4,7,2,nan,nan,nan,nan,nan,nan,nan,nan,nan,nan,nan,nan,0.0,nan,nan,nan,nan,nan,nan,nan,nan,nan,nan,nan,nan,nan,nan,nan,nan,nan,nan,578.3267021480424,936.9816017822013,nan,937.552348236728,nan,nan,nan,nan
1,228,1,1,1.0,1.0,0.5139526874409057,0,0.0,0.0,0.0,0.5285874332855794,0.11084303336168294,0.4177443999238965,0.6394304666472623,0.11084303336168294,0.5947611944672341,5,4,8,1,3,7,nan,nan,nan,nan,nan,nan,nan,nan,nan,nan,nan,nan,0.0,nan,nan,nan,nan,nan,nan,nan,nan,nan,nan,nan,nan,nan,nan,nan,nan,nan,nan,578.3267021480424,937.9983792188868,nan,938.5123319063277,nan,nan,nan,nan
1,229,1,1,1.0,1.0,0.4651060221949592,0,0.0,0.0,0.0,0.5285190466227538,0.11058825499380447,0.41793079162894936,0.6391073016165583,0.11058825499380447,0.5166017213875117,4,2,6,8,0,1,nan,nan,nan,nan,nan,nan,nan,nan,nan,nan,nan,nan,0.0,nan,nan,nan,nan,nan,nan,nan,nan,nan,nan,nan,nan,nan,nan,nan,nan,nan,nan,578.3267021480424,939.0152079731633,nan,939.4803139953583,nan,nan,nan,nan
1,230,1,1,1.0,1.0,0.44027970379102044,0,0.0,0.0,0.0,0.5282241023230897,0.11041510696411805,0.41780899535897165,0.6386392092872077,0.11041510696411805,0.4731128044756285,5,1,2,0,7,8,nan,nan,nan,nan,nan,nan,nan,nan,nan,nan,nan,nan,0.0,nan,nan,nan,nan,nan,nan,nan,nan,nan,nan,nan,nan,nan,nan,nan,nan,nan,nan,578.3267021480424,940.032011638832,nan,940.4722913426231,nan,nan,nan,nan
1,231,1,1,1.0,1.0,0.46349550457671285,0,0.0,0.0,0.0,0.5278169523298857,0.11032087076182663,0.41749608156805906,0.6381378230917123,0.11032087076182663,0.4562937435208975,6,2,5,8,4,0,nan,nan,nan,nan,nan,nan,nan,nan,nan,nan,nan,nan,0.0,nan,nan,nan,nan,nan,nan,nan,nan,nan,nan,nan,nan,nan,nan,nan,nan,nan,nan,578.3267021480424,941.048792781774,nan,941.5122882863507,nan,nan,nan,nan
1,232,0,0,1.0,0.0,0.5746728217345662,0,0.0,0.0,0.0,0.5275205401282581,0.11015255865165814,0.4173679814766,0.6376730987799163,0.11015255865165814,0.49281601003409986,7,1,6,0,8,4,nan,nan,nan,nan,nan,nan,nan,nan,nan,nan,nan,nan,0.0,nan,nan,nan,nan,nan,nan,nan,nan,nan,nan,nan,nan,nan,nan,nan,nan,nan,nan,578.3267021480424,942.0655924560851,nan,942.6402652778197,nan,nan,nan,nan
1,233,1,1,1.0,1.0,0.5178437025169842,0,0.0,0.0,0.0,0.5277368349980118,0.10994580273232142,0.4177910322656904,0.6376826377303333,0.10994580273232142,0.5186706762760878,0,5,2,6,7,3,nan,nan,nan,nan,nan,nan,nan,nan,nan,nan,nan,nan,0.0,nan,nan,nan,nan,nan,nan,nan,nan,nan,nan,nan,nan,nan,nan,nan,nan,nan,nan,578.3267021480424,943.0823975472595,nan,943.6002412497764,nan,nan,nan,nan
1,234,1,1,1.0,1.0,0.5566820087551605,0,0.0,0.0,0.0,0.527691660877094,0.10969652547412354,0.4179951354029704,0.6373881863512175,0.10969652547412354,0.5497328443355703,7,2,8,4,1,6,nan,nan,nan,nan,nan,nan,nan,nan,nan,nan,nan,nan,0.0,nan,nan,nan,nan,nan,nan,nan,nan,nan,nan,nan,nan,nan,nan,nan,nan,nan,nan,578.3267021480424,944.1075317712966,nan,944.6642137800518,nan,nan,nan,nan
1,235,1,1,1.0,1.0,0.555569557036506,0,0.0,0.0,0.0,0.5278234351856306,0.1094643027455829,0.4183591324400477,0.6372877379312135,0.1094643027455829,0.5433650894362169,6,5,0,8,3,7,nan,nan,nan,nan,nan,nan,nan,nan,nan,nan,nan,nan,0.0,nan,nan,nan,nan,nan,nan,nan,nan,nan,nan,nan,nan,nan,nan,nan,nan,nan,nan,578.3267021480424,945.1326474639936,nan,945.6882170210301,nan,nan,nan,nan
1,236,1,1,1.0,1.0,0.5227445341006387,0,0.0,0.0,0.0,0.5279489832483042,0.10923223941975693,0.4187167438285473,0.6371812226680611,0.10923223941975693,0.5449986999641018,3,6,8,4,0,2,nan,nan,nan,nan,nan,nan,nan,nan,nan,nan,nan,nan,0.0,nan,nan,nan,nan,nan,nan,nan,nan,nan,nan,nan,nan,nan,nan,nan,nan,nan,nan,578.3267021480424,946.149452555168,nan,946.6721970892686,nan,nan,nan,nan
1,237,1,1,1.0,1.0,0.5139310200174805,0,0.0,0.0,0.0,0.5279255397836751,0.10898650041855519,0.4189390393651199,0.6369120402022302,0.10898650041855519,0.5307483703848751,5,4,7,2,6,1,nan,nan,nan,nan,nan,nan,nan,nan,nan,nan,nan,nan,0.0,nan,nan,nan,nan,nan,nan,nan,nan,nan,nan,nan,nan,nan,nan,nan,nan,nan,nan,578.3267021480424,947.1662470977171,nan,947.6801781177346,nan,nan,nan,nan
1,238,0,0,0.0,1.0,0.5370986392954364,0,0.0,0.0,0.0,0.5278627840896563,0.10874588148607832,0.4191169026035779,0.6366086655757346,0.10874588148607832,0.5245913978045186,0,8,5,7,2,4,nan,nan,nan,nan,nan,nan,nan,nan,nan,nan,nan,nan,0.0,nan,nan,nan,nan,nan,nan,nan,nan,nan,nan,nan,nan,nan,nan,nan,nan,nan,nan,578.3267021480424,948.1830476273026,nan,948.720146266598,nan,nan,nan,nan
1,239,1,1,1.0,1.0,0.5202906971389893,0,0.0,0.0,0.0,0.5279040155861107,0.10850462060755271,0.41939939497855794,0.6364086361936634,0.10850462060755271,0.5237734521506354,4,0,7,3,1,2,nan,nan,nan,nan,nan,nan,nan,nan,nan,nan,nan,nan,0.0,nan,nan,nan,nan,nan,nan,nan,nan,nan,nan,nan,nan,nan,nan,nan,nan,nan,nan,578.3267021480424,949.1998438804294,nan,949.7201345775684,nan,nan,nan,nan
1,240,1,1,1.0,1.0,0.46310634605470113,0,0.0,0.0,0.0,0.5278701786152346,0.10826441517118003,0.41960576344405454,0.6361345937864146,0.10826441517118003,0.5068318941630423,5,4,2,8,0,6,nan,nan,nan,nan,nan,nan,nan,nan,nan,nan,nan,nan,0.0,nan,nan,nan,nan,nan,nan,nan,nan,nan,nan,nan,nan,nan,nan,nan,nan,nan,nan,578.3267021480424,950.2249855170376,nan,950.6880918630923,nan,nan,nan,nan
1,241,1,1,1.0,1.0,0.3983161552459933,0,0.0,0.0,0.0,0.5275836129844358,0.10811011477569324,0.4194734982087426,0.635693727760129,0.10811011477569324,0.46057106614656124,8,5,3,0,6,7,nan,nan,nan,nan,nan,nan,nan,nan,nan,nan,nan,nan,0.0,nan,nan,nan,nan,nan,nan,nan,nan,nan,nan,nan,nan,nan,nan,nan,nan,nan,nan,578.3267021480424,951.2417920336884,nan,951.6401081889344,nan,nan,nan,nan
1,242,1,1,1.0,1.0,0.44550127038382925,0,0.0,0.0,0.0,0.5270141528181871,0.10821089227874588,0.4188032605394412,0.635225045096933,0.10821089227874588,0.43564125722817454,0,3,7,6,4,1,nan,nan,nan,nan,nan,nan,nan,nan,nan,nan,nan,nan,0.0,nan,nan,nan,nan,nan,nan,nan,nan,nan,nan,nan,nan,nan,nan,nan,nan,nan,nan,578.3267021480424,952.258569755475,nan,952.7040710258589,nan,nan,nan,nan
1,243,1,1,1.0,1.0,0.35637170827249065,0,1.0,0.0,0.0,0.5266566401759312,0.10810760100917877,0.4185490391667524,0.63476424118511,0.10810760100917877,0.4000630446341044,7,2,0,1,3,6,nan,nan,nan,nan,nan,nan,nan,nan,nan,nan,nan,nan,0.0,nan,nan,nan,nan,nan,nan,nan,nan,nan,nan,nan,nan,nan,nan,nan,nan,nan,nan,578.3267021480424,953.2837039795122,nan,953.6400756877847,nan,nan,nan,nan
1,244,1,1,1.0,1.0,0.44352611267822795,1,0.0,0.0,1.0,0.5259130378532088,0.10845408559110659,0.41745895226210217,0.6343671234443153,0.10845408559110659,0.4151330304448493,3,4,7,2,5,1,1.0,1.0,1.0,1.0,1.0,1.0,0.0,0.0,0.0,0.0,0.0,0.0,0.0,5.0,0.0,2.0,8.0,3.0,6.0,1.0,2.0,3.0,4.0,5.0,6.0,2.4315930582233705,3.4245605502219405,4.335069769149413,5.247902535309549,5.983600032835966,7.247084589675069,578.3267021480424,954.3005161981273,955.1089216232067,954.7440423108055,963.4016047586338,964.4048078326741,956.117392449698,963.3932827531826
1,245,1,1,nan,nan,nan,0,0.0,0.0,0.0,0.5255548338307088,0.10835373234784806,0.4172011014828607,0.6339085661785568,0.10835373234784806,0.3999489104753593,6,0,1,4,2,8,nan,nan,nan,nan,nan,nan,nan,nan,nan,nan,nan,nan,0.0,nan,nan,nan,nan,nan,nan,nan,nan,nan,nan,nan,nan,nan,nan,nan,nan,nan,nan,578.3267021480424,964.6268511401722,nan,nan,nan,nan,nan,nan
1,246,1,1,1.0,1.0,0.5161978327960242,0,0.0,0.0,0.0,0.5255548338307088,0.10835373234784806,0.4172011014828607,0.6339085661785568,0.10835373234784806,0.47986197273712605,4,5,8,6,3,1,nan,nan,nan,nan,nan,nan,nan,nan,nan,nan,nan,nan,0.0,nan,nan,nan,nan,nan,nan,nan,nan,nan,nan,nan,nan,nan,nan,nan,nan,nan,nan,578.3267021480424,965.643639695656,nan,966.159837528452,nan,nan,nan,nan
1,247,1,1,1.0,1.0,0.4193820333457552,0,0.0,0.0,0.0,0.5255143273327232,0.10812069127319908,0.4173936360595241,0.6336350186059223,0.10812069127319908,0.4677899330708897,3,6,7,8,1,0,nan,nan,nan,nan,nan,nan,nan,nan,nan,nan,nan,nan,0.0,nan,nan,nan,nan,nan,nan,nan,nan,nan,nan,nan,nan,nan,nan,nan,nan,nan,nan,578.3267021480424,966.6604419358482,nan,967.079823969194,nan,nan,nan,nan
1,248,1,1,1.0,1.0,0.3705738562857732,0,0.0,0.0,0.0,0.5250568605482966,0.10811123120285603,0.41694562934544055,0.6331680917511526,0.10811123120285603,0.4353845741425175,6,7,5,4,8,1,nan,nan,nan,nan,nan,nan,nan,nan,nan,nan,nan,nan,0.0,nan,nan,nan,nan,nan,nan,nan,nan,nan,nan,nan,nan,nan,nan,nan,nan,nan,nan,578.3267021480424,967.6772282105521,nan,968.0478020668379,nan,nan,nan,nan
1,249,1,1,1.0,1.0,0.36977130593732,0,1.0,0.0,0.0,0.5243938433626205,0.10835063614289961,0.4160432072197209,0.6327444795055202,0.10835063614289961,0.3865757318562828,7,4,0,1,2,5,nan,nan,nan,nan,nan,nan,nan,nan,nan,nan,nan,nan,0.0,nan,nan,nan,nan,nan,nan,nan,nan,nan,nan,nan,nan,nan,nan,nan,nan,nan,nan,578.3267021480424,968.6940250338812,nan,969.0637963398185,nan,nan,nan,nan
1,250,1,1,1.0,1.0,0.36894680303521454,1,0.0,0.0,1.0,0.5237330632881534,0.10858832750655724,0.41514473578159616,0.6323213907947106,0.10858832750655724,0.3697639884194359,1,3,5,0,8,2,1.0,1.0,1.0,1.0,1.0,1.0,0.0,0.0,0.0,0.0,0.0,0.0,0.0,3.0,7.0,0.0,1.0,0.0,6.0,3.0,4.0,2.0,1.0,6.0,5.0,9.333967010781635,10.477550257055555,5.502145646227291,2.333502016233979,12.71601206305786,11.915916669327999,578.3267021480424,969.7108215721091,970.5192421073443,970.0797683751443,984.2793422679242,985.2772567773645,971.5277049511205,984.27101256483
1,251,1,1,nan,nan,nan,0,0.0,0.0,0.0,0.5230743983509069,0.10882447811739092,0.4142499202335159,0.6318988764682978,0.10882447811739092,0.36935905448626727,3,8,2,1,5,6,nan,nan,nan,nan,nan,nan,nan,nan,nan,nan,nan,nan,0.0,nan,nan,nan,nan,nan,nan,nan,nan,nan,nan,nan,nan,nan,nan,nan,nan,nan,nan,578.3267021480424,985.496201356611,nan,nan,nan,nan,nan,nan
1,252,1,1,1.0,1.0,0.43848814905504696,0,0.0,0.0,0.0,0.5230743983509069,0.10882447811739092,0.4142499202335159,0.6318988764682978,0.10882447811739092,0.40371747604513075,1,5,0,8,6,3,nan,nan,nan,nan,nan,nan,nan,nan,nan,nan,nan,nan,0.0,nan,nan,nan,nan,nan,nan,nan,nan,nan,nan,nan,nan,nan,nan,nan,nan,nan,nan,578.3267021480424,986.512990482297,nan,986.9514786313521,nan,nan,nan,nan
1,253,1,1,1.0,1.0,0.47766230048728175,0,0.0,0.0,0.0,0.5227159820403312,0.10873258228520179,0.41398339975512943,0.631448564325533,0.10873258228520179,0.45807522477116436,4,1,3,5,8,0,nan,nan,nan,nan,nan,nan,nan,nan,nan,nan,nan,nan,0.0,nan,nan,nan,nan,nan,nan,nan,nan,nan,nan,nan,nan,nan,nan,nan,nan,nan,nan,578.3267021480424,987.5297858801496,nan,988.0074481806369,nan,nan,nan,nan
1,254,1,1,1.0,1.0,0.4608460905146785,0,0.0,0.0,0.0,0.5225258821181664,0.10854224011655977,0.41398364200160664,0.6310681222347262,0.10854224011655977,0.4589988466856691,3,2,5,1,7,8,nan,nan,nan,nan,nan,nan,nan,nan,nan,nan,nan,nan,0.0,nan,nan,nan,nan,nan,nan,nan,nan,nan,nan,nan,nan,nan,nan,nan,nan,nan,nan,578.3267021480424,988.5465866948362,nan,989.0074327853508,nan,nan,nan,nan
1,255,1,1,1.0,1.0,0.5080300652771257,0,0.0,0.0,0.0,0.5222667233299164,0.10838742468781391,0.4138792986421025,0.6306541480177303,0.10838742468781391,0.48217948542636196,6,3,8,0,2,4,nan,nan,nan,nan,nan,nan,nan,nan,nan,nan,nan,nan,0.0,nan,nan,nan,nan,nan,nan,nan,nan,nan,nan,nan,nan,nan,nan,nan,nan,nan,nan,578.3267021480424,989.5633849436417,nan,990.0714150089188,nan,nan,nan,nan
1,256,1,1,1.0,1.0,0.4752190121507738,0,0.0,0.0,0.0,0.522207155723001,0.10816433889855749,0.41404281682444355,0.6303714946215585,0.10816433889855749,0.4813650559808593,4,8,1,2,6,5,nan,nan,nan,nan,nan,nan,nan,nan,nan,nan,nan,nan,0.0,nan,nan,nan,nan,nan,nan,nan,nan,nan,nan,nan,nan,nan,nan,nan,nan,nan,nan,578.3267021480424,990.580182337173,nan,991.0554013493238,nan,nan,nan,nan
1,257,1,1,1.0,1.0,0.4504052380216308,0,0.0,0.0,0.0,0.5220113717914501,0.10798118995436189,0.4140301818370882,0.629992561745812,0.10798118995436189,0.47788477181651007,2,4,8,1,0,6,nan,nan,nan,nan,nan,nan,nan,nan,nan,nan,nan,nan,0.0,nan,nan,nan,nan,nan,nan,nan,nan,nan,nan,nan,nan,nan,nan,nan,nan,nan,nan,578.3267021480424,991.5969820114842,nan,992.0473872495058,nan,nan,nan,nan
1,258,1,1,1.0,1.0,0.5375818800821435,0,0.0,0.0,0.0,0.5217142509044383,0.10785519597218604,0.4138590549322523,0.6295694468766244,0.10785519597218604,0.487735376751516,1,8,0,5,2,7,nan,nan,nan,nan,nan,nan,nan,nan,nan,nan,nan,nan,0.0,nan,nan,nan,nan,nan,nan,nan,nan,nan,nan,nan,nan,nan,nan,nan,nan,nan,nan,578.3267021480424,992.6137814006943,nan,993.1513632807764,nan,nan,nan,nan
1,259,1,1,1.0,1.0,0.5287772040464915,0,0.0,0.0,0.0,0.5217798196200487,0.10763693711651458,0.41414288250353415,0.6294167567365633,0.10763693711651458,0.505588107383422,3,1,5,0,6,4,nan,nan,nan,nan,nan,nan,nan,nan,nan,nan,nan,nan,0.0,nan,nan,nan,nan,nan,nan,nan,nan,nan,nan,nan,nan,nan,nan,nan,nan,nan,nan,578.3267021480424,993.6305742326367,nan,994.1593514366832,nan,nan,nan,nan
1,260,1,1,1.0,1.0,0.5519294280384202,0,0.0,0.0,0.0,0.5218086154407336,0.10741616767585958,0.41439244776487405,0.6292247831165932,0.10741616767585958,0.539429504055685,8,0,4,3,7,6,nan,nan,nan,nan,nan,nan,nan,nan,nan,nan,nan,nan,0.0,nan,nan,nan,nan,nan,nan,nan,nan,nan,nan,nan,nan,nan,nan,nan,nan,nan,nan,578.3267021480424,994.6473858810496,nan,995.199315309088,nan,nan,nan,nan
1,261,1,1,1.0,1.0,0.5831385164929088,0,0.0,0.0,0.0,0.5219320613940028,0.10721309757303475,0.41471896382096807,0.6291451589670376,0.10721309757303475,0.5546150495259402,3,2,7,8,0,5,nan,nan,nan,nan,nan,nan,nan,nan,nan,nan,nan,nan,0.0,nan,nan,nan,nan,nan,nan,nan,nan,nan,nan,nan,nan,nan,nan,nan,nan,nan,nan,578.3267021480424,995.6641695898725,nan,996.2473081063654,nan,nan,nan,nan
1,262,0,0,nan,nan,nan,0,0.0,0.0,0.0,0.5221818836597127,0.10706521229385699,0.4151166713658557,0.6292470959535698,0.10706521229385699,0.5675339722656645,5,3,2,0,4,7,nan,nan,nan,nan,nan,nan,nan,nan,nan,nan,nan,nan,0.0,nan,nan,nan,nan,nan,nan,nan,nan,nan,nan,nan,nan,nan,nan,nan,nan,nan,nan,578.3267021480424,996.6809692641837,nan,nan,nan,nan,nan,nan
1,263,1,1,1.0,1.0,0.581456724437885,0,0.0,0.0,0.0,0.5221818836597127,0.10706521229385699,0.4151166713658557,0.6292470959535698,0.10706521229385699,0.5822976204653969,0,4,8,6,7,1,nan,nan,nan,nan,nan,nan,nan,nan,nan,nan,nan,nan,0.0,nan,nan,nan,nan,nan,nan,nan,nan,nan,nan,nan,nan,nan,nan,nan,nan,nan,nan,578.3267021480424,997.6977632365306,nan,998.2792199609685,nan,nan,nan,nan
1,264,1,1,1.0,1.0,0.45268288455554284,0,0.0,0.0,0.0,0.5224228382970223,0.10691392226957723,0.41550891602744505,0.6293367605665995,0.10691392226957723,0.5170698044967139,7,1,0,2,6,4,nan,nan,nan,nan,nan,nan,nan,nan,nan,nan,nan,nan,0.0,nan,nan,nan,nan,nan,nan,nan,nan,nan,nan,nan,nan,nan,nan,nan,nan,nan,nan,578.3267021480424,998.7145640512172,nan,999.1672469357727,nan,nan,nan,nan
1,265,1,1,1.0,1.0,0.451875772618223,0,0.0,0.0,0.0,0.5221404903061662,0.10678913948172489,0.4153513508244413,0.628929629787891,0.10678913948172489,0.4953384605372169,8,7,4,6,1,3,nan,nan,nan,nan,nan,nan,nan,nan,nan,nan,nan,nan,0.0,nan,nan,nan,nan,nan,nan,nan,nan,nan,nan,nan,nan,nan,nan,nan,nan,nan,nan,578.3267021480424,999.7313617298496,nan,1000.1832375024678,nan,nan,nan,nan
1,266,1,1,1.0,1.0,0.5230609926802572,0,0.0,0.0,0.0,0.521857164831618,0.10666660336189376,0.4151905614697243,0.6285237681935119,0.10666660336189376,0.4758732166180077,4,1,5,2,8,0,nan,nan,nan,nan,nan,nan,nan,nan,nan,nan,nan,nan,0.0,nan,nan,nan,nan,nan,nan,nan,nan,nan,nan,nan,nan,nan,nan,nan,nan,nan,nan,578.3267021480424,1000.7481599786552,nan,1001.2712209713354,nan,nan,nan,nan
1,267,1,1,1.0,1.0,0.4902399611310102,0,0.0,0.0,0.0,0.5218619994816125,0.10645222513905142,0.4154097743425611,0.6283142246206639,0.10645222513905142,0.48839224214316346,0,7,8,4,6,1,nan,nan,nan,nan,nan,nan,nan,nan,nan,nan,nan,nan,0.0,nan,nan,nan,nan,nan,nan,nan,nan,nan,nan,nan,nan,nan,nan,nan,nan,nan,nan,578.3267021480424,1001.7649568019842,nan,1002.2551967631152,nan,nan,nan,nan
1,268,0,0,0.0,1.0,0.5694201794685796,0,0.0,0.0,0.0,0.5217355113282102,0.10625785498536994,0.41547765634284023,0.6279933663135802,0.10625785498536994,0.5275737110932823,7,6,0,5,2,3,nan,nan,nan,nan,nan,nan,nan,nan,nan,nan,nan,nan,0.0,nan,nan,nan,nan,nan,nan,nan,nan,nan,nan,nan,nan,nan,nan,nan,nan,nan,nan,578.3267021480424,1002.7817604676529,nan,1003.3511806471215,nan,nan,nan,nan
1,269,1,1,1.0,1.0,0.5766043594921939,0,0.0,0.0,0.0,0.5219254900857415,0.10608850895910381,0.4158369811266377,0.6280139990448453,0.10608850895910381,0.5454215000305945,5,8,4,0,3,7,nan,nan,nan,nan,nan,nan,nan,nan,nan,nan,nan,nan,0.0,nan,nan,nan,nan,nan,nan,nan,nan,nan,nan,nan,nan,nan,nan,nan,nan,nan,nan,578.3267021480424,1003.798557290982,nan,1004.3751616504742,nan,nan,nan,nan
1,270,1,1,1.0,1.0,0.5994441162911244,0,0.0,0.0,0.0,0.5221424697262432,0.10593359741761055,0.4162088723086327,0.6280760671438538,0.10593359741761055,0.581822885083966,6,4,0,3,1,5,nan,nan,nan,nan,nan,nan,nan,nan,nan,nan,nan,nan,0.0,nan,nan,nan,nan,nan,nan,nan,nan,nan,nan,nan,nan,nan,nan,nan,nan,nan,nan,578.3267021480424,1004.8236946511024,nan,1005.4231387673935,nan,nan,nan,nan
1,271,1,1,1.0,1.0,0.6146170223946683,0,0.0,0.0,0.0,0.5224480098312428,0.10583523523551375,0.4166127745957291,0.6282832450667566,0.10583523523551375,0.5968884993926622,0,8,2,4,7,1,nan,nan,nan,nan,nan,nan,nan,nan,nan,nan,nan,nan,0.0,nan,nan,nan,nan,nan,nan,nan,nan,nan,nan,nan,nan,nan,nan,nan,nan,nan,nan,578.3267021480424,1005.8405040187354,nan,1006.45512104113,nan,nan,nan,nan
1,272,1,1,1.0,1.0,0.5978176331846043,0,0.0,0.0,0.0,0.5228108799594453,0.10578427064964255,0.41702660930980273,0.6285951506090879,0.10578427064964255,0.6039595906234657,7,5,3,1,4,2,nan,nan,nan,nan,nan,nan,nan,nan,nan,nan,nan,nan,0.0,nan,nan,nan,nan,nan,nan,nan,nan,nan,nan,nan,nan,nan,nan,nan,nan,nan,nan,578.3267021480424,1006.8572783193376,nan,1007.4550959525222,nan,nan,nan,nan
1,273,1,1,1.0,1.0,0.5889764646126423,0,0.0,0.0,0.0,0.52310502408974,0.10568067286006685,0.41742435122967314,0.6287856969498069,0.10568067286006685,0.600470373397305,6,7,4,0,3,1,nan,nan,nan,nan,nan,nan,nan,nan,nan,nan,nan,nan,0.0,nan,nan,nan,nan,nan,nan,nan,nan,nan,nan,nan,nan,nan,nan,nan,nan,nan,nan,578.3267021480424,1007.8741070736141,nan,1008.4630835382268,nan,nan,nan,nan
1,274,1,1,1.0,1.0,0.7481827864830848,0,0.0,1.0,0.0,0.5233623344042826,0.10555406779516818,0.4178082666091144,0.6289164021994508,0.10555406779516818,0.6449922947601104,2,1,7,4,5,3,nan,nan,nan,nan,nan,nan,nan,nan,nan,nan,nan,nan,0.0,nan,nan,nan,nan,nan,nan,nan,nan,nan,nan,nan,nan,nan,nan,nan,nan,nan,nan,578.3267021480424,1008.8908825146209,nan,1009.639065301104,nan,nan,nan,nan
1,275,1,1,1.0,1.0,0.699363490624819,1,0.0,0.0,1.0,0.524237122155562,0.10627423669351034,0.4179628854620516,0.6305113588490723,0.10627423669351034,0.6788409139068486,8,4,0,2,3,7,1.0,1.0,1.0,1.0,1.0,1.0,1.0,0.0,0.0,1.0,0.0,0.0,2.0,8.0,7.0,6.0,2.0,0.0,2.0,2.0,3.0,4.0,1.0,5.0,6.0,2.6716799218265805,4.032246844551992,5.119377015653299,1.481449539976893,6.0864462214231025,6.926356381416554,578.3267021480424,1009.9076801932242,1010.716096737131,1010.607043683849,1018.7004482878256,1019.7059067707451,1011.7328793055494,1018.6921160188504
1,276,1,1,1.0,1.0,0.6892393818125129,0,0.0,0.0,0.0,0.5249159065294738,0.10662480789228923,0.4182910986371846,0.6315407144217631,0.10662480789228923,0.7122618863068055,6,3,8,5,4,2,nan,nan,nan,nan,nan,nan,nan,nan,nan,nan,nan,nan,0.0,nan,nan,nan,nan,nan,nan,nan,nan,nan,nan,nan,nan,nan,nan,nan,nan,nan,nan,578.3267021480424,1019.9256416411663,nan,1020.6148810229788,nan,nan,nan,nan
