block,trial,freq_trials,correct_response,actual_response,acc,rts,probe_trials,fast_rt_trigger,slow_rt_trigger,rt_triggered,rts_runningavg,rts_runningstd,rts_runningfastthresh,rts_runningslowthresh,rts_runningstd,rts_trailingavg,trials_colorind0,trials_colorind1,trials_colorind2,trials_colorind3,trials_colorind4,trials_colorind5,wholereport_resp0,wholereport_resp1,wholereport_resp2,wholereport_resp3,wholereport_resp4,wholereport_resp5,wholereport_respacc0,wholereport_respacc1,wholereport_respacc2,wholereport_respacc3,wholereport_respacc4,wholereport_respacc5,wholereport_respacc_total,wholereport_respcolorind0,wholereport_respcolorind1,wholereport_respcolorind2,wholereport_respcolorind3,wholereport_respcolorind4,wholereport_respcolorind5,wholereport_resporder0,wholereport_resporder1,wholereport_resporder2,wholereport_resporder3,wholereport_resporder4,wholereport_resporder5,wholereport_rts0,wholereport_rts1,wholereport_rts2,wholereport_rts3,wholereport_rts4,wholereport_rts5,time_blockstart,time_encarray_offset,time_encarray_onset,time_response,time_iti_offset,time_iti_onset,time_memprobe_offset,time_memprobe_onset
1,1,1,1,1.0,1.0,0.3211661789100617,0,nan,nan,nan,nan,nan,nan,nan,nan,nan,6,2,4,3,8,7,nan,nan,nan,nan,nan,nan,nan,nan,nan,nan,nan,nan,0.0,nan,nan,nan,nan,nan,nan,nan,nan,nan,nan,nan,nan,nan,nan,nan,nan,nan,nan,7763.6373482635245,7764.660143895075,nan,7764.981310073985,nan,nan,nan,nan
1,2,1,1,1.0,1.0,0.4559260318055749,0,nan,nan,nan,nan,nan,nan,nan,nan,nan,3,2,0,5,6,1,nan,nan,nan,nan,nan,nan,nan,nan,nan,nan,nan,nan,0.0,nan,nan,nan,nan,nan,nan,nan,nan,nan,nan,nan,nan,nan,nan,nan,nan,nan,nan,7763.6373482635245,7765.685399357695,nan,7766.141325389501,nan,nan,nan,nan
1,3,1,1,1.0,1.0,0.5671760810073465,0,nan,nan,nan,nan,nan,nan,nan,nan,nan,6,1,4,0,8,5,nan,nan,nan,nan,nan,nan,nan,nan,nan,nan,nan,nan,0.0,nan,nan,nan,nan,nan,nan,nan,nan,nan,nan,nan,nan,nan,nan,nan,nan,nan,nan,7763.6373482635245,7766.702118396992,nan,7767.269294477999,nan,nan,nan,nan
1,4,1,1,1.0,1.0,0.6060430076904595,0,nan,nan,nan,nan,nan,nan,nan,nan,nan,1,0,6,5,3,2,nan,nan,nan,nan,nan,nan,nan,nan,nan,nan,nan,nan,0.0,nan,nan,nan,nan,nan,nan,nan,nan,nan,nan,nan,nan,nan,nan,nan,nan,nan,nan,7763.6373482635245,7767.727236442035,nan,7768.3332794497255,nan,nan,nan,nan
1,5,1,1,1.0,1.0,0.6289025014266372,0,nan,nan,nan,nan,nan,nan,nan,nan,nan,3,7,8,4,1,5,nan,nan,nan,nan,nan,nan,nan,nan,nan,nan,nan,nan,0.0,nan,nan,nan,nan,nan,nan,nan,nan,nan,nan,nan,nan,nan,nan,nan,nan,nan,nan,7763.6373482635245,7768.752370167524,nan,7769.38127266895,nan,nan,nan,nan
1,6,1,1,1.0,1.0,0.6517206558492035,0,nan,nan,nan,nan,nan,nan,nan,nan,nan,6,2,0,5,8,1,nan,nan,nan,nan,nan,nan,nan,nan,nan,nan,nan,nan,0.0,nan,nan,nan,nan,nan,nan,nan,nan,nan,nan,nan,nan,nan,nan,nan,nan,nan,nan,7763.6373482635245,7769.777513016248,nan,7770.429233672097,nan,nan,nan,nan
1,7,1,1,1.0,1.0,0.6349212187342346,0,nan,nan,nan,nan,nan,nan,nan,nan,nan,5,0,2,4,3,7,nan,nan,nan,nan,nan,nan,nan,nan,nan,nan,nan,nan,0.0,nan,nan,nan,nan,nan,nan,nan,nan,nan,nan,nan,nan,nan,nan,nan,nan,nan,nan,7763.6373482635245,7770.794308747165,nan,7771.429229965899,nan,nan,nan,nan
1,8,1,1,1.0,1.0,0.649712136015296,0,nan,nan,nan,nan,nan,nan,nan,nan,nan,8,2,6,7,1,4,nan,nan,nan,nan,nan,nan,nan,nan,nan,nan,nan,nan,0.0,nan,nan,nan,nan,nan,nan,nan,nan,nan,nan,nan,nan,nan,nan,nan,nan,nan,nan,7763.6373482635245,7771.819504053798,nan,7772.469216189813,nan,nan,nan,nan
1,9,0,0,nan,nan,nan,0,nan,nan,nan,nan,nan,nan,nan,nan,nan,0,5,8,1,4,3,nan,nan,nan,nan,nan,nan,nan,nan,nan,nan,nan,nan,0.0,nan,nan,nan,nan,nan,nan,nan,nan,nan,nan,nan,nan,nan,nan,nan,nan,nan,nan,7763.6373482635245,7772.83627013443,nan,nan,nan,nan,nan,nan
1,10,1,1,nan,nan,nan,0,nan,nan,nan,nan,nan,nan,nan,nan,nan,1,4,6,7,3,0,nan,nan,nan,nan,nan,nan,nan,nan,nan,nan,nan,nan,0.0,nan,nan,nan,nan,nan,nan,nan,nan,nan,nan,nan,nan,nan,nan,nan,nan,nan,nan,7763.6373482635245,7773.861383332871,nan,nan,nan,nan,nan,nan
1,11,1,1,1.0,1.0,0.19864190416410565,0,nan,nan,nan,nan,nan,nan,nan,nan,nan,6,7,2,5,8,1,nan,nan,nan,nan,nan,nan,nan,nan,nan,nan,nan,nan,0.0,nan,nan,nan,nan,nan,nan,nan,nan,nan,nan,nan,nan,nan,nan,nan,nan,nan,nan,7763.6373482635245,7774.886539296014,nan,7775.085181200178,nan,nan,nan,nan
1,12,1,1,1.0,1.0,0.021468782564625144,0,nan,nan,nan,nan,nan,nan,nan,nan,nan,3,1,8,2,4,6,nan,nan,nan,nan,nan,nan,nan,nan,nan,nan,nan,nan,0.0,nan,nan,nan,nan,nan,nan,nan,nan,nan,nan,nan,nan,nan,nan,nan,nan,nan,nan,7763.6373482635245,7775.911671596114,nan,7775.933140378678,nan,nan,nan,nan
1,13,1,1,1.0,1.0,0.14064229279756546,0,nan,nan,nan,nan,nan,nan,nan,nan,nan,2,4,0,7,3,8,nan,nan,nan,nan,nan,nan,nan,nan,nan,nan,nan,nan,0.0,nan,nan,nan,nan,nan,nan,nan,nan,nan,nan,nan,nan,nan,nan,nan,nan,nan,nan,7763.6373482635245,7776.92849583691,nan,7777.069138129707,nan,nan,nan,nan
1,14,1,1,1.0,1.0,0.14751773164607584,0,nan,nan,nan,nan,nan,nan,nan,nan,nan,8,6,3,0,4,2,nan,nan,nan,nan,nan,nan,nan,nan,nan,nan,nan,nan,0.0,nan,nan,nan,nan,nan,nan,nan,nan,nan,nan,nan,nan,nan,nan,nan,nan,nan,nan,7763.6373482635245,7777.953605614137,nan,7778.101123345783,nan,nan,nan,nan
1,15,1,1,1.0,1.0,0.09035402978770435,1,nan,nan,nan,nan,nan,nan,nan,nan,nan,6,7,1,8,5,0,1.0,1.0,1.0,1.0,1.0,1.0,0.0,0.0,0.0,0.0,1.0,0.0,1.0,4.0,6.0,8.0,1.0,5.0,2.0,6.0,1.0,2.0,3.0,4.0,5.0,8.269994109869003,1.5905727006029338,2.5502061548177153,3.5022844953928143,5.390669805230573,6.197541138390079,7763.6373482635245,7778.978754164651,7779.787167026196,7779.069108194439,7789.105073387269,7790.112560362555,7780.79563702154,7789.096733396873
1,16,1,1,nan,nan,nan,0,nan,nan,nan,nan,nan,nan,nan,nan,nan,7,3,0,6,1,8,nan,nan,nan,nan,nan,nan,nan,nan,nan,nan,nan,nan,0.0,nan,nan,nan,nan,nan,nan,nan,nan,nan,nan,nan,nan,nan,nan,nan,nan,nan,nan,7763.6373482635245,7790.3302554085385,nan,nan,nan,nan,nan,nan
1,17,1,1,1.0,1.0,0.11386839486658573,0,nan,nan,nan,nan,nan,nan,nan,nan,nan,2,6,8,3,5,4,nan,nan,nan,nan,nan,nan,nan,nan,nan,nan,nan,nan,0.0,nan,nan,nan,nan,nan,nan,nan,nan,nan,nan,nan,nan,nan,nan,nan,nan,nan,nan,7763.6373482635245,7791.347065679496,nan,7791.460934074363,nan,nan,nan,nan
1,18,1,1,1.0,1.0,0.4570416226051748,0,nan,nan,nan,nan,nan,nan,nan,nan,nan,6,7,2,5,4,0,nan,nan,nan,nan,nan,nan,nan,nan,nan,nan,nan,nan,0.0,nan,nan,nan,nan,nan,nan,nan,nan,nan,nan,nan,nan,nan,nan,nan,nan,nan,nan,7763.6373482635245,7792.363858844386,nan,7792.820900466992,nan,nan,nan,nan
1,19,1,1,1.0,1.0,0.4239100250415504,0,nan,nan,nan,nan,nan,nan,nan,nan,nan,8,3,1,0,5,7,nan,nan,nan,nan,nan,nan,nan,nan,nan,nan,nan,nan,0.0,nan,nan,nan,nan,nan,nan,nan,nan,nan,nan,nan,nan,nan,nan,nan,nan,nan,nan,7763.6373482635245,7793.388988863677,nan,7793.812898888718,nan,nan,nan,nan
1,20,1,1,1.0,1.0,0.4068713902961463,0,nan,nan,nan,nan,nan,nan,nan,nan,nan,1,8,4,7,0,5,nan,nan,nan,nan,nan,nan,nan,nan,nan,nan,nan,nan,0.0,nan,nan,nan,nan,nan,nan,nan,nan,nan,nan,nan,nan,nan,nan,nan,nan,nan,nan,7763.6373482635245,7794.406007826561,nan,7794.812879216857,nan,nan,nan,nan
1,21,1,1,1.0,1.0,0.40590490587055683,0,nan,nan,nan,nan,nan,nan,nan,nan,nan,8,6,5,0,2,7,nan,nan,nan,nan,nan,nan,nan,nan,nan,nan,nan,nan,0.0,nan,nan,nan,nan,nan,nan,nan,nan,nan,nan,nan,nan,nan,nan,nan,nan,nan,nan,7763.6373482635245,7795.430947970133,nan,7795.836852876004,nan,nan,nan,nan
1,22,1,1,1.0,1.0,0.3650824874639511,0,nan,nan,nan,nan,nan,nan,nan,nan,nan,7,0,3,1,4,6,nan,nan,nan,nan,nan,nan,nan,nan,nan,nan,nan,nan,0.0,nan,nan,nan,nan,nan,nan,nan,nan,nan,nan,nan,nan,nan,nan,nan,nan,nan,nan,7763.6373482635245,7796.447758241091,nan,7796.812840728555,nan,nan,nan,nan
1,23,1,1,1.0,1.0,0.39627541438676417,0,nan,nan,nan,nan,nan,nan,nan,nan,nan,8,2,7,6,0,1,nan,nan,nan,nan,nan,nan,nan,nan,nan,nan,nan,nan,0.0,nan,nan,nan,nan,nan,nan,nan,nan,nan,nan,nan,nan,nan,nan,nan,nan,nan,nan,7763.6373482635245,7797.464553116588,nan,7797.860828530975,nan,nan,nan,nan
1,24,1,1,1.0,1.0,0.4594384469091892,0,nan,nan,nan,nan,nan,nan,nan,nan,nan,5,1,3,4,7,6,nan,nan,nan,nan,nan,nan,nan,nan,nan,nan,nan,nan,0.0,nan,nan,nan,nan,nan,nan,nan,nan,nan,nan,nan,nan,nan,nan,nan,nan,nan,nan,7763.6373482635245,7798.481371370144,nan,7798.940809817053,nan,nan,nan,nan
1,25,1,1,1.0,1.0,0.4103575765620917,0,nan,nan,nan,nan,nan,nan,nan,nan,nan,4,3,5,8,2,7,nan,nan,nan,nan,nan,nan,nan,nan,nan,nan,nan,nan,0.0,nan,nan,nan,nan,nan,nan,nan,nan,nan,nan,nan,nan,nan,nan,nan,nan,nan,nan,7763.6373482635245,7799.506455773488,nan,7799.91681335005,nan,nan,nan,nan
1,26,1,1,1.0,1.0,0.3455041942652315,0,nan,nan,nan,nan,nan,nan,nan,nan,nan,2,5,6,1,0,3,nan,nan,nan,nan,nan,nan,nan,nan,nan,nan,nan,nan,0.0,nan,nan,nan,nan,nan,nan,nan,nan,nan,nan,nan,nan,nan,nan,nan,nan,nan,nan,7763.6373482635245,7800.523308238946,nan,7800.868812433211,nan,nan,nan,nan
1,27,1,1,1.0,1.0,0.3366558726411313,0,nan,nan,nan,nan,nan,nan,nan,nan,nan,6,8,5,2,1,7,nan,nan,nan,nan,nan,nan,nan,nan,nan,nan,nan,nan,0.0,nan,nan,nan,nan,nan,nan,nan,nan,nan,nan,nan,nan,nan,nan,nan,nan,nan,nan,7763.6373482635245,7801.540114803705,nan,7801.8767706763465,nan,nan,nan,nan
1,28,1,1,1.0,1.0,0.3598503575194627,0,nan,nan,nan,nan,nan,nan,nan,nan,nan,5,2,8,7,0,3,nan,nan,nan,nan,nan,nan,nan,nan,nan,nan,nan,nan,0.0,nan,nan,nan,nan,nan,nan,nan,nan,nan,nan,nan,nan,nan,nan,nan,nan,nan,nan,7763.6373482635245,7802.55690825358,nan,7802.9167586111,nan,nan,nan,nan
1,29,1,1,1.0,1.0,0.33502596407197416,0,nan,nan,nan,nan,nan,nan,nan,nan,nan,7,3,6,0,4,2,nan,nan,nan,nan,nan,nan,nan,nan,nan,nan,nan,nan,0.0,nan,nan,nan,nan,nan,nan,nan,nan,nan,nan,nan,nan,nan,nan,nan,nan,nan,nan,7763.6373482635245,7803.573706550291,nan,7803.908732514363,nan,nan,nan,nan
1,30,0,0,nan,nan,nan,0,nan,nan,nan,nan,nan,nan,nan,nan,nan,3,6,8,4,2,7,nan,nan,nan,nan,nan,nan,nan,nan,nan,nan,nan,nan,0.0,nan,nan,nan,nan,nan,nan,nan,nan,nan,nan,nan,nan,nan,nan,nan,nan,nan,nan,7763.6373482635245,7804.590504562017,nan,nan,nan,nan,nan,nan
1,31,1,1,nan,nan,nan,0,nan,nan,nan,nan,nan,nan,nan,nan,nan,7,1,0,2,6,8,nan,nan,nan,nan,nan,nan,nan,nan,nan,nan,nan,nan,0.0,nan,nan,nan,nan,nan,nan,nan,nan,nan,nan,nan,nan,nan,nan,nan,nan,nan,nan,7763.6373482635245,7805.607302003307,nan,nan,nan,nan,nan,nan
1,32,1,1,1.0,1.0,0.1565969828516245,0,nan,nan,nan,nan,nan,nan,nan,nan,nan,1,6,4,8,0,5,nan,nan,nan,nan,nan,nan,nan,nan,nan,nan,nan,nan,0.0,nan,nan,nan,nan,nan,nan,nan,nan,nan,nan,nan,nan,nan,nan,nan,nan,nan,nan,7763.6373482635245,7806.624107142445,nan,7806.780704125296,nan,nan,nan,nan
1,33,1,1,nan,nan,nan,0,nan,nan,nan,nan,nan,nan,nan,nan,nan,3,5,2,1,4,0,nan,nan,nan,nan,nan,nan,nan,nan,nan,nan,nan,nan,0.0,nan,nan,nan,nan,nan,nan,nan,nan,nan,nan,nan,nan,nan,nan,nan,nan,nan,nan,7763.6373482635245,7807.64925854397,nan,nan,nan,nan,nan,nan
1,34,1,1,nan,nan,nan,0,nan,nan,nan,nan,nan,nan,nan,nan,nan,8,6,3,7,5,1,nan,nan,nan,nan,nan,nan,nan,nan,nan,nan,nan,nan,0.0,nan,nan,nan,nan,nan,nan,nan,nan,nan,nan,nan,nan,nan,nan,nan,nan,nan,nan,7763.6373482635245,7808.666058551287,nan,nan,nan,nan,nan,nan
1,35,1,1,1.0,1.0,0.13746914500370622,0,nan,nan,nan,nan,nan,nan,nan,nan,nan,1,0,8,6,4,5,nan,nan,nan,nan,nan,nan,nan,nan,nan,nan,nan,nan,0.0,nan,nan,nan,nan,nan,nan,nan,nan,nan,nan,nan,nan,nan,nan,nan,nan,nan,nan,7763.6373482635245,7809.6911899962,nan,7809.828659141203,nan,nan,nan,nan
1,36,1,1,1.0,1.0,0.1685833849478513,0,nan,nan,nan,nan,nan,nan,nan,nan,nan,0,4,5,1,2,3,nan,nan,nan,nan,nan,nan,nan,nan,nan,nan,nan,nan,0.0,nan,nan,nan,nan,nan,nan,nan,nan,nan,nan,nan,nan,nan,nan,nan,nan,nan,nan,7763.6373482635245,7810.708049303852,nan,7810.8766326888,nan,nan,nan,nan
1,37,0,0,1.0,0.0,0.2154995014425367,0,nan,nan,nan,nan,nan,nan,nan,nan,nan,8,5,1,6,3,0,nan,nan,nan,nan,nan,nan,nan,nan,nan,nan,nan,nan,0.0,nan,nan,nan,nan,nan,nan,nan,nan,nan,nan,nan,nan,nan,nan,nan,nan,nan,nan,7763.6373482635245,7811.733130000997,nan,7811.94862950244,nan,nan,nan,nan
1,38,1,1,nan,nan,nan,0,nan,nan,nan,nan,nan,nan,nan,nan,nan,1,8,5,0,7,2,nan,nan,nan,nan,nan,nan,nan,nan,nan,nan,nan,nan,0.0,nan,nan,nan,nan,nan,nan,nan,nan,nan,nan,nan,nan,nan,nan,nan,nan,nan,nan,7763.6373482635245,7812.749936280539,nan,nan,nan,nan,nan,nan
1,39,1,1,1.0,1.0,0.3095330139622092,0,nan,nan,nan,nan,nan,nan,nan,nan,nan,6,3,0,5,4,1,nan,nan,nan,nan,nan,nan,nan,nan,nan,nan,nan,nan,0.0,nan,nan,nan,nan,nan,nan,nan,nan,nan,nan,nan,nan,nan,nan,nan,nan,nan,nan,7763.6373482635245,7813.77507143165,nan,7814.084604445612,nan,nan,nan,nan
1,40,0,0,1.0,0.0,0.2124289891216904,0,nan,nan,nan,nan,nan,nan,nan,nan,nan,5,1,3,2,6,0,nan,nan,nan,nan,nan,nan,nan,nan,nan,nan,nan,nan,0.0,nan,nan,nan,nan,nan,nan,nan,nan,nan,nan,nan,nan,nan,nan,nan,nan,nan,nan,7763.6373482635245,7814.800202591112,nan,7815.012631580234,nan,nan,nan,nan
1,41,1,1,nan,nan,nan,0,nan,nan,nan,nan,nan,nan,nan,nan,nan,7,4,1,6,8,2,nan,nan,nan,nan,nan,nan,nan,nan,nan,nan,nan,nan,0.0,nan,nan,nan,nan,nan,nan,nan,nan,nan,nan,nan,nan,nan,nan,nan,nan,nan,nan,7763.6373482635245,7815.817011151463,nan,nan,nan,nan,nan,nan
1,42,1,1,1.0,1.0,0.29873518855310977,0,nan,nan,nan,nan,nan,nan,nan,nan,nan,4,8,2,5,6,7,nan,nan,nan,nan,nan,nan,nan,nan,nan,nan,nan,nan,0.0,nan,nan,nan,nan,nan,nan,nan,nan,nan,nan,nan,nan,nan,nan,nan,nan,nan,nan,7763.6373482635245,7816.83382712421,nan,7817.132562312763,nan,nan,nan,nan
1,43,1,1,1.0,1.0,0.27361885411664844,0,nan,nan,nan,nan,nan,nan,nan,nan,nan,2,3,8,4,5,1,nan,nan,nan,nan,nan,nan,nan,nan,nan,nan,nan,nan,0.0,nan,nan,nan,nan,nan,nan,nan,nan,nan,nan,nan,nan,nan,nan,nan,nan,nan,nan,7763.6373482635245,7817.858957428485,nan,7818.132576282602,nan,nan,nan,nan
1,44,1,1,1.0,1.0,0.2647602690849453,0,nan,nan,nan,nan,nan,nan,nan,nan,nan,6,7,3,2,4,8,nan,nan,nan,nan,nan,nan,nan,nan,nan,nan,nan,nan,0.0,nan,nan,nan,nan,nan,nan,nan,nan,nan,nan,nan,nan,nan,nan,nan,nan,nan,nan,7763.6373482635245,7818.875748312799,nan,7819.140508581884,nan,nan,nan,nan
1,45,1,1,1.0,1.0,0.2959349495358765,0,nan,nan,nan,nan,nan,nan,nan,nan,nan,1,6,4,0,7,2,nan,nan,nan,nan,nan,nan,nan,nan,nan,nan,nan,nan,0.0,nan,nan,nan,nan,nan,nan,nan,nan,nan,nan,nan,nan,nan,nan,nan,nan,nan,nan,7763.6373482635245,7819.892562004738,nan,7820.188496954273,nan,nan,nan,nan
1,46,1,1,1.0,1.0,0.27910529216751456,0,nan,nan,nan,nan,nan,nan,nan,nan,nan,5,7,2,4,0,8,nan,nan,nan,nan,nan,nan,nan,nan,nan,nan,nan,nan,0.0,nan,nan,nan,nan,nan,nan,nan,nan,nan,nan,nan,nan,nan,nan,nan,nan,nan,nan,7763.6373482635245,7820.909369139466,nan,7821.188474431634,nan,nan,nan,nan
1,47,1,1,1.0,1.0,0.3342835670337081,0,nan,nan,nan,nan,nan,nan,nan,nan,nan,0,2,1,7,6,3,nan,nan,nan,nan,nan,nan,nan,nan,nan,nan,nan,nan,0.0,nan,nan,nan,nan,nan,nan,nan,nan,nan,nan,nan,nan,nan,nan,nan,nan,nan,nan,7763.6373482635245,7821.926169716986,nan,7822.26045328402,nan,nan,nan,nan
1,48,1,1,1.0,1.0,0.31714828382246196,0,nan,nan,nan,nan,nan,nan,nan,nan,nan,7,8,3,5,0,1,nan,nan,nan,nan,nan,nan,nan,nan,nan,nan,nan,nan,0.0,nan,nan,nan,nan,nan,nan,nan,nan,nan,nan,nan,nan,nan,nan,nan,nan,nan,nan,7763.6373482635245,7822.951296885265,nan,7823.2684451690875,nan,nan,nan,nan
1,49,1,1,1.0,1.0,0.30031206901185215,1,nan,nan,nan,nan,nan,nan,nan,nan,nan,6,1,0,2,3,7,1.0,1.0,1.0,1.0,1.0,1.0,0.0,0.0,0.0,1.0,0.0,0.0,1.0,8.0,8.0,2.0,2.0,1.0,4.0,3.0,4.0,2.0,1.0,5.0,6.0,13.792177919764072,14.640046722022817,12.431446322472766,8.375397926429287,17.38362672831863,18.18350544734858,7763.6373482635245,7823.968110577203,7824.776512890356,7824.268422646215,7844.004084323067,7845.008134434465,7825.784992864123,7843.995750604896
1,50,1,1,1.0,1.0,0.7588236602023244,0,nan,nan,nan,nan,nan,nan,nan,nan,nan,1,0,4,8,5,6,nan,nan,nan,nan,nan,nan,nan,nan,nan,nan,nan,nan,0.0,nan,nan,nan,nan,nan,nan,nan,nan,nan,nan,nan,nan,nan,nan,nan,nan,nan,nan,7763.6373482635245,7845.229293713812,nan,7845.988117374014,nan,nan,nan,nan
1,51,1,1,1.0,1.0,0.43798477458767593,1,nan,nan,nan,nan,nan,nan,nan,nan,nan,2,3,1,6,7,5,1.0,1.0,1.0,1.0,1.0,1.0,1.0,0.0,0.0,0.0,0.0,0.0,1.0,2.0,6.0,8.0,1.0,4.0,0.0,4.0,3.0,2.0,1.0,5.0,6.0,10.808860751567408,9.25802110764198,8.306722226785496,6.169057218823582,11.912891818210483,14.344281691126525,7763.6373482635245,7846.246111397166,7847.054524258943,7846.6840961717535,7862.4648849712685,7863.462729910854,7848.079649431398,7862.45656208694
1,52,0,0,nan,nan,nan,0,nan,nan,nan,nan,nan,nan,nan,nan,nan,3,2,8,1,4,0,nan,nan,nan,nan,nan,nan,nan,nan,nan,nan,nan,nan,0.0,nan,nan,nan,nan,nan,nan,nan,nan,nan,nan,nan,nan,nan,nan,nan,nan,nan,nan,7763.6373482635245,7863.690092081204,nan,nan,nan,nan,nan,nan
1,53,1,1,0.0,0.0,0.1209396964404732,0,nan,nan,nan,nan,nan,nan,nan,nan,nan,0,4,6,5,3,7,nan,nan,nan,nan,nan,nan,nan,nan,nan,nan,nan,nan,0.0,nan,nan,nan,nan,nan,nan,nan,nan,nan,nan,nan,nan,nan,nan,nan,nan,nan,nan,7763.6373482635245,7864.706908054184,nan,7864.827847750625,nan,nan,nan,nan
1,54,1,1,1.0,1.0,0.663785174721852,0,nan,nan,nan,nan,nan,nan,nan,nan,nan,4,1,2,8,7,5,nan,nan,nan,nan,nan,nan,nan,nan,nan,nan,nan,nan,0.0,nan,nan,nan,nan,nan,nan,nan,nan,nan,nan,nan,nan,nan,nan,nan,nan,nan,nan,7763.6373482635245,7865.7320124143735,nan,7866.395797589095,nan,nan,nan,nan
1,55,1,1,1.0,1.0,0.3669872316531837,0,nan,nan,nan,nan,nan,nan,nan,nan,nan,7,6,5,0,3,8,nan,nan,nan,nan,nan,nan,nan,nan,nan,nan,nan,nan,0.0,nan,nan,nan,nan,nan,nan,nan,nan,nan,nan,nan,nan,nan,nan,nan,nan,nan,nan,7763.6373482635245,7866.748836369952,nan,7867.115823601605,nan,nan,nan,nan
1,56,1,1,1.0,1.0,0.2621362213976681,0,nan,nan,nan,nan,nan,nan,nan,nan,nan,1,8,3,6,2,0,nan,nan,nan,nan,nan,nan,nan,nan,nan,nan,nan,nan,0.0,nan,nan,nan,nan,nan,nan,nan,nan,nan,nan,nan,nan,nan,nan,nan,nan,nan,nan,7763.6373482635245,7867.765643504681,nan,7868.027779726079,nan,nan,nan,nan
1,57,1,1,1.0,1.0,0.2693229876458645,1,nan,nan,nan,nan,nan,nan,nan,nan,nan,3,0,1,4,6,7,1.0,1.0,1.0,1.0,1.0,1.0,0.0,1.0,0.0,0.0,0.0,0.0,1.0,4.0,0.0,5.0,6.0,8.0,1.0,4.0,5.0,6.0,1.0,2.0,3.0,6.2813418910373,8.209021205082536,9.816132477484643,3.067593180341646,4.0884826423134655,4.936541605275124,7763.6373482635245,7868.782442086609,7869.590848390944,7869.051765074255,7880.4589614770375,7881.464905783534,7870.607660372276,7880.450623482233
1,58,1,1,1.0,1.0,0.6474267852026969,0,nan,nan,nan,nan,nan,nan,nan,nan,nan,5,7,6,8,4,0,nan,nan,nan,nan,nan,nan,nan,nan,nan,nan,nan,nan,0.0,nan,nan,nan,nan,nan,nan,nan,nan,nan,nan,nan,nan,nan,nan,nan,nan,nan,nan,7763.6373482635245,7881.684156327741,nan,7882.331583112944,nan,nan,nan,nan
1,59,1,1,1.0,1.0,0.43859346001408994,0,nan,nan,nan,nan,nan,nan,nan,nan,nan,7,2,5,6,1,8,nan,nan,nan,nan,nan,nan,nan,nan,nan,nan,nan,nan,0.0,nan,nan,nan,nan,nan,nan,nan,nan,nan,nan,nan,nan,nan,nan,nan,nan,nan,nan,7763.6373482635245,7882.700966883684,nan,7883.139560343698,nan,nan,nan,nan
1,60,1,1,1.0,1.0,0.6054300456307828,0,nan,nan,nan,nan,nan,nan,nan,nan,nan,5,8,4,3,2,1,nan,nan,nan,nan,nan,nan,nan,nan,nan,nan,nan,nan,0.0,nan,nan,nan,nan,nan,nan,nan,nan,nan,nan,nan,nan,nan,nan,nan,nan,nan,nan,7763.6373482635245,7883.726100323955,nan,7884.331530369585,nan,nan,nan,nan
1,61,1,1,1.0,1.0,0.4923126003704965,0,nan,nan,nan,nan,nan,nan,nan,nan,nan,0,6,5,4,8,7,nan,nan,nan,nan,nan,nan,nan,nan,nan,nan,nan,nan,0.0,nan,nan,nan,nan,nan,nan,nan,nan,nan,nan,nan,nan,nan,nan,nan,nan,nan,nan,7763.6373482635245,7884.751222645631,nan,7885.243535246002,nan,nan,nan,nan
1,62,1,1,1.0,1.0,0.4831421177368611,0,nan,nan,nan,nan,nan,nan,nan,nan,nan,8,3,0,1,6,4,nan,nan,nan,nan,nan,nan,nan,nan,nan,nan,nan,nan,0.0,nan,nan,nan,nan,nan,nan,nan,nan,nan,nan,nan,nan,nan,nan,nan,nan,nan,nan,7763.6373482635245,7885.776372621767,nan,7886.259514739504,nan,nan,nan,nan
1,63,1,1,1.0,1.0,0.3783367231953889,0,nan,nan,nan,nan,nan,nan,nan,nan,nan,3,1,7,6,4,0,nan,nan,nan,nan,nan,nan,nan,nan,nan,nan,nan,nan,0.0,nan,nan,nan,nan,nan,nan,nan,nan,nan,nan,nan,nan,nan,nan,nan,nan,nan,nan,7763.6373482635245,7886.79318317771,nan,7887.171519900905,nan,nan,nan,nan
1,64,1,1,1.0,1.0,0.3375160153955221,0,nan,nan,nan,nan,nan,nan,nan,nan,nan,7,8,4,1,2,6,nan,nan,nan,nan,nan,nan,nan,nan,nan,nan,nan,nan,0.0,nan,nan,nan,nan,nan,nan,nan,nan,nan,nan,nan,nan,nan,nan,nan,nan,nan,nan,7763.6373482635245,7887.809973776806,nan,7888.147489792202,nan,nan,nan,nan
1,65,1,1,1.0,1.0,0.2886529602110386,0,nan,nan,nan,nan,nan,nan,nan,nan,nan,1,7,2,4,0,5,nan,nan,nan,nan,nan,nan,nan,nan,nan,nan,nan,nan,0.0,nan,nan,nan,nan,nan,nan,nan,nan,nan,nan,nan,nan,nan,nan,nan,nan,nan,nan,7763.6373482635245,7888.82682424644,nan,7889.115477206651,nan,nan,nan,nan
1,66,1,1,1.0,1.0,0.27952438686043024,0,nan,nan,nan,nan,nan,nan,nan,nan,nan,5,3,7,0,2,4,nan,nan,nan,nan,nan,nan,nan,nan,nan,nan,nan,nan,0.0,nan,nan,nan,nan,nan,nan,nan,nan,nan,nan,nan,nan,nan,nan,nan,nan,nan,nan,7763.6373482635245,7889.851923190057,nan,7890.131447576918,nan,nan,nan,nan
1,67,1,1,1.0,1.0,0.310731568839401,0,nan,nan,nan,nan,nan,nan,nan,nan,nan,4,7,2,6,8,0,nan,nan,nan,nan,nan,nan,nan,nan,nan,nan,nan,nan,0.0,nan,nan,nan,nan,nan,nan,nan,nan,nan,nan,nan,nan,nan,nan,nan,nan,nan,nan,7763.6373482635245,7890.86871179333,nan,7891.179443362169,nan,nan,nan,nan
1,68,1,1,1.0,1.0,0.30189750250428915,0,nan,nan,nan,nan,nan,nan,nan,nan,nan,3,4,6,1,0,7,nan,nan,nan,nan,nan,nan,nan,nan,nan,nan,nan,nan,0.0,nan,nan,nan,nan,nan,nan,nan,nan,nan,nan,nan,nan,nan,nan,nan,nan,nan,nan,7763.6373482635245,7891.885535463691,nan,7892.187432966195,nan,nan,nan,nan
1,69,1,1,1.0,1.0,0.2930728446226567,0,nan,nan,nan,nan,nan,nan,nan,nan,nan,5,8,3,4,6,1,nan,nan,nan,nan,nan,nan,nan,nan,nan,nan,nan,nan,0.0,nan,nan,nan,nan,nan,nan,nan,nan,nan,nan,nan,nan,nan,nan,nan,nan,nan,nan,7763.6373482635245,7892.902333190199,nan,7893.195406034822,nan,nan,nan,nan
1,70,1,1,1.0,1.0,0.3242560778744519,0,nan,nan,nan,nan,nan,nan,nan,nan,nan,2,1,6,7,5,4,nan,nan,nan,nan,nan,nan,nan,nan,nan,nan,nan,nan,0.0,nan,nan,nan,nan,nan,nan,nan,nan,nan,nan,nan,nan,nan,nan,nan,nan,nan,nan,7763.6373482635245,7893.919133482734,nan,7894.243389560608,nan,nan,nan,nan
1,71,1,1,1.0,1.0,0.3234022075776011,0,nan,nan,nan,nan,nan,nan,nan,nan,nan,3,2,4,8,7,0,nan,nan,nan,nan,nan,nan,nan,nan,nan,nan,nan,nan,0.0,nan,nan,nan,nan,nan,nan,nan,nan,nan,nan,nan,nan,nan,nan,nan,nan,nan,nan,7763.6373482635245,7894.935985662974,nan,7895.259387870552,nan,nan,nan,nan
1,72,0,0,1.0,0.0,0.2506247938144952,0,nan,nan,nan,nan,nan,nan,nan,nan,nan,5,4,7,3,6,2,nan,nan,nan,nan,nan,nan,nan,nan,nan,nan,nan,nan,0.0,nan,nan,nan,nan,nan,nan,nan,nan,nan,nan,nan,nan,nan,nan,nan,nan,nan,nan,7763.6373482635245,7895.952746041585,nan,7896.203370835399,nan,nan,nan,nan
1,73,1,1,nan,nan,nan,0,nan,nan,nan,nan,nan,nan,nan,nan,nan,2,1,0,5,4,8,nan,nan,nan,nan,nan,nan,nan,nan,nan,nan,nan,nan,0.0,nan,nan,nan,nan,nan,nan,nan,nan,nan,nan,nan,nan,nan,nan,nan,nan,nan,nan,7763.6373482635245,7896.969535785494,nan,nan,nan,nan,nan,nan
1,74,1,1,1.0,1.0,0.7286288638133556,0,nan,nan,nan,nan,nan,nan,nan,nan,nan,0,8,1,7,2,5,nan,nan,nan,nan,nan,nan,nan,nan,nan,nan,nan,nan,0.0,nan,nan,nan,nan,nan,nan,nan,nan,nan,nan,nan,nan,nan,nan,nan,nan,nan,nan,7763.6373482635245,7897.9946615281515,nan,7898.723290391965,nan,nan,nan,nan
1,75,1,1,1.0,1.0,0.743839445989579,0,nan,nan,nan,nan,nan,nan,nan,nan,nan,2,4,6,3,7,0,nan,nan,nan,nan,nan,nan,nan,nan,nan,nan,nan,nan,0.0,nan,nan,nan,nan,nan,nan,nan,nan,nan,nan,nan,nan,nan,nan,nan,nan,nan,nan,7763.6373482635245,7899.01148120733,nan,7899.755320653319,nan,nan,nan,nan
1,76,1,1,1.0,1.0,0.6626903959549963,0,nan,nan,nan,nan,nan,nan,nan,nan,nan,5,7,4,0,6,2,nan,nan,nan,nan,nan,nan,nan,nan,nan,nan,nan,nan,0.0,nan,nan,nan,nan,nan,nan,nan,nan,nan,nan,nan,nan,nan,nan,nan,nan,nan,nan,7763.6373482635245,7900.036600677762,nan,7900.699291073717,nan,nan,nan,nan
1,77,1,1,1.0,1.0,0.6378526028711349,0,nan,nan,nan,nan,nan,nan,nan,nan,nan,4,1,2,6,0,7,nan,nan,nan,nan,nan,nan,nan,nan,nan,nan,nan,nan,0.0,nan,nan,nan,nan,nan,nan,nan,nan,nan,nan,nan,nan,nan,nan,nan,nan,nan,nan,7763.6373482635245,7901.053424063139,nan,7901.69127666601,nan,nan,nan,nan
1,78,0,0,nan,nan,nan,0,nan,nan,nan,nan,nan,nan,nan,nan,nan,3,8,1,5,6,0,nan,nan,nan,nan,nan,nan,nan,nan,nan,nan,nan,nan,0.0,nan,nan,nan,nan,nan,nan,nan,nan,nan,nan,nan,nan,nan,nan,nan,nan,nan,nan,7763.6373482635245,7902.070230627898,nan,nan,nan,nan,nan,nan
1,79,1,1,1.0,1.0,0.7721910800319165,0,nan,nan,nan,nan,nan,nan,nan,nan,nan,2,3,5,8,4,7,nan,nan,nan,nan,nan,nan,nan,nan,nan,nan,nan,nan,0.0,nan,nan,nan,nan,nan,nan,nan,nan,nan,nan,nan,nan,nan,nan,nan,nan,nan,nan,7763.6373482635245,7903.087026358582,nan,7903.859217438614,nan,nan,nan,nan
1,80,0,0,nan,nan,nan,0,nan,nan,nan,nan,nan,nan,nan,nan,nan,6,1,2,3,5,8,nan,nan,nan,nan,nan,nan,nan,nan,nan,nan,nan,nan,0.0,nan,nan,nan,nan,nan,nan,nan,nan,nan,nan,nan,nan,nan,nan,nan,nan,nan,nan,7763.6373482635245,7904.10382408509,nan,nan,nan,nan,nan,nan
1,81,1,1,0.0,0.0,0.1463297256268561,0,0.0,0.0,0.0,0.38319538687633825,0.18030913776783167,0.20288624910850658,0.5635045246441699,0.18030913776783167,0.4592604028293863,0,2,8,7,1,6,nan,nan,nan,nan,nan,nan,nan,nan,nan,nan,nan,nan,0.0,nan,nan,nan,nan,nan,nan,nan,nan,nan,nan,nan,nan,nan,nan,nan,nan,nan,nan,7763.6373482635245,7905.12892787531,nan,7905.275257600937,nan,nan,nan,nan
1,82,0,0,1.0,0.0,0.10542976064607501,0,0.0,0.0,0.0,0.37971206832855176,0.18123526588472105,0.1984768024438307,0.5609473342132728,0.18123526588472105,0.12587974313646555,8,7,1,4,0,3,nan,nan,nan,nan,nan,nan,nan,nan,nan,nan,nan,nan,0.0,nan,nan,nan,nan,nan,nan,nan,nan,nan,nan,nan,nan,nan,nan,nan,nan,nan,nan,7763.6373482635245,7906.145778915146,nan,7906.251208675792,nan,nan,nan,nan
1,83,1,1,1.0,1.0,0.16065678745508194,1,1.0,0.0,1.0,0.37573696242011,0.1828788920517236,0.1928580703683864,0.5586158544718336,0.1828788920517236,0.137472091242671,6,5,8,7,3,1,1.0,1.0,1.0,1.0,1.0,1.0,1.0,0.0,0.0,0.0,0.0,0.0,1.0,6.0,8.0,2.0,3.0,1.0,4.0,3.0,4.0,1.0,2.0,5.0,6.0,4.141388111049309,7.683762036031112,1.6760774874128401,2.9423396561760455,9.0845040907152,10.652079880004749,7763.6373482635245,7907.162552408408,7907.970984086394,7907.3232091958635,7919.6725374178495,7920.68273625127,7908.979456077563,7919.664212822914
1,84,1,1,1.0,1.0,0.7049348861910403,0,0.0,0.0,0.0,0.3726643884920382,0.18335298446406187,0.18931140402797633,0.5560173729561001,0.18335298446406187,0.3236738114307324,5,1,7,0,2,3,nan,nan,nan,nan,nan,nan,nan,nan,nan,nan,nan,nan,0.0,nan,nan,nan,nan,nan,nan,nan,nan,nan,nan,nan,nan,nan,nan,nan,nan,nan,nan,7763.6373482635245,7920.906062850729,nan,7921.61099773692,nan,nan,nan,nan
1,85,1,1,1.0,1.0,0.47178863477893174,0,0.0,0.0,0.0,0.37734425465681287,0.186220030617006,0.19112422403980686,0.5635642852738189,0.186220030617006,0.44579343614168465,0,2,3,4,8,1,nan,nan,nan,nan,nan,nan,nan,nan,nan,nan,nan,nan,0.0,nan,nan,nan,nan,nan,nan,nan,nan,nan,nan,nan,nan,nan,nan,nan,nan,nan,nan,7763.6373482635245,7921.931168921525,nan,7922.402957556304,nan,nan,nan,nan
1,86,1,1,1.0,1.0,0.3661598751787096,0,0.0,0.0,0.0,0.378655982158509,0.18525233323087434,0.19340364892763465,0.5639083153893834,0.18525233323087434,0.5142944653828939,6,8,2,5,4,7,nan,nan,nan,nan,nan,nan,nan,nan,nan,nan,nan,nan,0.0,nan,nan,nan,nan,nan,nan,nan,nan,nan,nan,nan,nan,nan,nan,nan,nan,nan,nan,7763.6373482635245,7922.948789442889,nan,7923.314949318068,nan,nan,nan,nan
1,87,1,1,1.0,1.0,0.30210505425930023,0,0.0,0.0,0.0,0.3784848026108405,0.18398483987838526,0.19449996273245523,0.5624696424892257,0.18398483987838526,0.38001785473898053,3,4,0,7,6,5,nan,nan,nan,nan,nan,nan,nan,nan,nan,nan,nan,nan,0.0,nan,nan,nan,nan,nan,nan,nan,nan,nan,nan,nan,nan,nan,nan,nan,nan,nan,nan,7763.6373482635245,7923.964836504543,nan,7924.2669415588025,nan,nan,nan,nan
1,88,1,1,1.0,1.0,0.29331004642881453,0,0.0,0.0,0.0,0.3774526438493332,0.18295014034999976,0.19450250349933343,0.560402784199333,0.18295014034999976,0.32052499195560813,4,7,2,0,3,6,nan,nan,nan,nan,nan,nan,nan,nan,nan,nan,nan,nan,0.0,nan,nan,nan,nan,nan,nan,nan,nan,nan,nan,nan,nan,nan,nan,nan,nan,nan,nan,7763.6373482635245,7924.981621401617,nan,7925.274931448046,nan,nan,nan,nan
1,89,1,1,1.0,1.0,0.28449650714173913,0,0.0,0.0,0.0,0.37633074255039295,0.181982466635794,0.19434827591459894,0.558313209186187,0.181982466635794,0.29330386927661795,3,4,5,2,0,1,nan,nan,nan,nan,nan,nan,nan,nan,nan,nan,nan,nan,0.0,nan,nan,nan,nan,nan,nan,nan,nan,nan,nan,nan,nan,nan,nan,nan,nan,nan,nan,7763.6373482635245,7925.99841599213,nan,7926.282912499271,nan,nan,nan,nan
1,90,1,1,1.0,1.0,0.3313786971848458,0,0.0,0.0,0.0,0.3751223973476475,0.18108386838368853,0.19403852896395898,0.556206265731336,0.18108386838368853,0.3030617502517998,7,1,4,8,6,3,nan,nan,nan,nan,nan,nan,nan,nan,nan,nan,nan,nan,0.0,nan,nan,nan,nan,nan,nan,nan,nan,nan,nan,nan,nan,nan,nan,nan,nan,nan,nan,7763.6373482635245,7927.023545156,nan,7927.354923853185,nan,nan,nan,nan
1,91,1,1,1.0,1.0,0.34652114077471197,0,0.0,0.0,0.0,0.3745542973455332,0.17997231324068524,0.19458198410484795,0.5545266105862184,0.17997231324068524,0.3207987817004323,1,4,6,2,7,0,nan,nan,nan,nan,nan,nan,nan,nan,nan,nan,nan,nan,0.0,nan,nan,nan,nan,nan,nan,nan,nan,nan,nan,nan,nan,nan,nan,nan,nan,nan,nan,7763.6373482635245,7928.040355426958,nan,7928.3868765677325,nan,nan,nan,nan
1,92,1,1,1.0,1.0,0.36970051540993154,0,0.0,0.0,0.0,0.3741948979023175,0.17884273154349162,0.1953521663588259,0.5530376294458091,0.17884273154349162,0.3492001177898298,4,6,0,5,3,2,nan,nan,nan,nan,nan,nan,nan,nan,nan,nan,nan,nan,0.0,nan,nan,nan,nan,nan,nan,nan,nan,nan,nan,nan,nan,nan,nan,nan,nan,nan,nan,7763.6373482635245,7929.057172825094,nan,7929.426873340504,nan,nan,nan,nan
1,93,0,0,0.0,1.0,0.5048674889840186,0,0.0,0.0,0.0,0.3741380069846924,0.17770792096090599,0.19643008602378642,0.5518459279455984,0.17770792096090599,0.4070297150562207,5,3,4,0,8,7,nan,nan,nan,nan,nan,nan,nan,nan,nan,nan,nan,nan,0.0,nan,nan,nan,nan,nan,nan,nan,nan,nan,nan,nan,nan,nan,nan,nan,nan,nan,nan,7763.6373482635245,7930.0739728324115,nan,7930.578840321396,nan,nan,nan,nan
1,94,1,1,nan,nan,nan,0,0.0,0.0,0.0,0.0,0.0,0.0,0.0,0.0,0.0,2,5,7,8,4,3,nan,nan,nan,nan,nan,nan,nan,nan,nan,nan,nan,nan,0.0,nan,nan,nan,nan,nan,nan,nan,nan,nan,nan,nan,nan,nan,nan,nan,nan,nan,nan,7763.6373482635245,7931.090764286928,nan,nan,nan,nan,nan,nan
1,95,1,1,1.0,1.0,0.11927329492755234,0,0.0,0.0,0.0,0.375772125509684,0.17719004199598368,0.1985820835137003,0.5529621675056676,0.17719004199598368,0.31207039195578545,0,2,4,7,3,6,nan,nan,nan,nan,nan,nan,nan,nan,nan,nan,nan,nan,0.0,nan,nan,nan,nan,nan,nan,nan,nan,nan,nan,nan,nan,nan,nan,nan,nan,nan,nan,7763.6373482635245,7932.107566860039,nan,7932.226840154966,nan,nan,nan,nan
1,96,1,1,nan,nan,nan,0,0.0,0.0,0.0,0.0,0.0,0.0,0.0,0.0,0.0,6,5,8,1,4,2,nan,nan,nan,nan,nan,nan,nan,nan,nan,nan,nan,nan,0.0,nan,nan,nan,nan,nan,nan,nan,nan,nan,nan,nan,nan,nan,nan,nan,nan,nan,nan,7763.6373482635245,7933.124377986183,nan,nan,nan,nan,nan,nan
1,97,1,1,nan,nan,nan,0,0.0,0.0,0.0,0.0,0.0,0.0,0.0,0.0,0.0,4,6,0,2,1,3,nan,nan,nan,nan,nan,nan,nan,nan,nan,nan,nan,nan,0.0,nan,nan,nan,nan,nan,nan,nan,nan,nan,nan,nan,nan,nan,nan,nan,nan,nan,nan,7763.6373482635245,7934.14117941889,nan,nan,nan,nan,nan,nan
1,98,1,1,1.0,1.0,0.07680215127766132,1,1.0,0.0,1.0,0.37260547328027493,0.17835615243758185,0.19424932084269309,0.5509616257178568,0.17835615243758185,0.07680215127766132,2,5,1,3,7,0,1.0,1.0,1.0,1.0,1.0,1.0,0.0,0.0,0.0,0.0,0.0,0.0,0.0,5.0,8.0,3.0,0.0,0.0,2.0,2.0,3.0,4.0,1.0,5.0,6.0,2.75430028536357,7.295598818222061,9.408276071306318,1.6323738624341786,13.383560015354306,14.367847088957205,7763.6373482635245,7935.157999953255,7935.966400555801,7935.234802104533,7951.393448091345,7952.397085950011,7936.9832002779,7951.3851152283605
1,99,1,1,1.0,1.0,0.526925285346806,0,0.0,0.0,0.0,0.3689981156948772,0.18021385747892946,0.18878425821594777,0.5492119731738067,0.18021385747892946,0.3018637183122337,8,0,2,4,3,6,nan,nan,nan,nan,nan,nan,nan,nan,nan,nan,nan,nan,0.0,nan,nan,nan,nan,nan,nan,nan,nan,nan,nan,nan,nan,nan,nan,nan,nan,nan,nan,7763.6373482635245,7952.619599733036,nan,7953.146525018383,nan,nan,nan,nan
1,100,1,1,1.0,1.0,0.3907236885279417,0,0.0,0.0,0.0,0.3709008526786354,0.1799517110627977,0.19094914161583768,0.5508525637414331,0.1799517110627977,0.3314837083841364,0,2,8,6,1,4,nan,nan,nan,nan,nan,nan,nan,nan,nan,nan,nan,nan,0.0,nan,nan,nan,nan,nan,nan,nan,nan,nan,nan,nan,nan,nan,nan,nan,nan,nan,nan,7763.6373482635245,7953.643766118912,nan,7954.03448980744,nan,nan,nan,nan
1,101,1,1,1.0,1.0,0.29388452018611133,0,0.0,0.0,0.0,0.37113683881969856,0.17889028251590636,0.1922465563037922,0.5500271213356049,0.17889028251590636,0.4038444980202864,2,6,0,8,4,7,nan,nan,nan,nan,nan,nan,nan,nan,nan,nan,nan,nan,0.0,nan,nan,nan,nan,nan,nan,nan,nan,nan,nan,nan,nan,nan,nan,nan,nan,nan,nan,7763.6373482635245,7954.660602618707,nan,7954.9544871388935,nan,nan,nan,nan
1,102,1,1,1.0,1.0,0.32507545151747763,0,0.0,0.0,0.0,0.3702279880122446,0.17802984868393953,0.19219813932830507,0.5482578366961841,0.17802984868393953,0.33656122007717687,7,5,3,0,6,4,nan,nan,nan,nan,nan,nan,nan,nan,nan,nan,nan,nan,0.0,nan,nan,nan,nan,nan,nan,nan,nan,nan,nan,nan,nan,nan,nan,nan,nan,nan,nan,7763.6373482635245,7955.677402626025,nan,7956.002478077542,nan,nan,nan,nan
1,103,1,1,1.0,1.0,0.3082885586190969,0,0.0,0.0,0.0,0.3697029585181194,0.1770579442023759,0.19264501431574352,0.5467609027204953,0.1770579442023759,0.30908284344089526,3,8,7,2,1,6,nan,nan,nan,nan,nan,nan,nan,nan,nan,nan,nan,nan,0.0,nan,nan,nan,nan,nan,nan,nan,nan,nan,nan,nan,nan,nan,nan,nan,nan,nan,nan,7763.6373482635245,7956.694171272451,nan,7957.00245983107,nan,nan,nan,nan
1,104,1,1,1.0,1.0,0.2510940660722554,0,0.0,0.0,0.0,0.3689970458756019,0.17615910772368418,0.19283793815191771,0.545156153599286,0.17615910772368418,0.2948193587362766,2,6,1,3,4,7,nan,nan,nan,nan,nan,nan,nan,nan,nan,nan,nan,nan,0.0,nan,nan,nan,nan,nan,nan,nan,nan,nan,nan,nan,nan,nan,nan,nan,nan,nan,nan,7763.6373482635245,7957.719358026283,nan,7957.970452092355,nan,nan,nan,nan
1,105,0,0,1.0,0.0,0.2742819932755083,0,0.0,0.0,0.0,0.3676572392869275,0.17560058833302963,0.19205665095389787,0.5432578276199571,0.17560058833302963,0.27788820598895353,5,7,4,8,0,1,nan,nan,nan,nan,nan,nan,nan,nan,nan,nan,nan,nan,0.0,nan,nan,nan,nan,nan,nan,nan,nan,nan,nan,nan,nan,nan,nan,nan,nan,nan,nan,7763.6373482635245,7958.736152616795,nan,7959.010434610071,nan,nan,nan,nan
1,106,1,1,1.0,1.0,0.6014520642347634,0,0.0,0.0,0.0,0.3666080792193835,0.17488843422240444,0.19171964499697905,0.541496513441788,0.17488843422240444,0.37560937452750903,2,8,7,4,3,0,nan,nan,nan,nan,nan,nan,nan,nan,nan,nan,nan,nan,0.0,nan,nan,nan,nan,nan,nan,nan,nan,nan,nan,nan,nan,nan,nan,nan,nan,nan,nan,7763.6373482635245,7959.752943215892,nan,7960.3543952801265,nan,nan,nan,nan
1,107,0,0,nan,nan,nan,0,0.0,0.0,0.0,0.0,0.0,0.0,0.0,0.0,0.0,6,5,8,0,7,1,nan,nan,nan,nan,nan,nan,nan,nan,nan,nan,nan,nan,0.0,nan,nan,nan,nan,nan,nan,nan,nan,nan,nan,nan,nan,nan,nan,nan,nan,nan,nan,7763.6373482635245,7960.769722981146,nan,nan,nan,nan,nan,nan
1,108,1,1,0.0,0.0,0.4318041212391108,0,0.0,0.0,0.0,0.3692174568306655,0.17564768191104987,0.1935697749196156,0.5448651387417154,0.17564768191104987,0.5166280927369371,2,7,0,8,1,4,nan,nan,nan,nan,nan,nan,nan,nan,nan,nan,nan,nan,0.0,nan,nan,nan,nan,nan,nan,nan,nan,nan,nan,nan,nan,nan,nan,nan,nan,nan,nan,7763.6373482635245,7961.786544085713,nan,7962.218348206952,nan,nan,nan,nan
1,109,1,1,nan,nan,nan,0,0.0,0.0,0.0,0.0,0.0,0.0,0.0,0.0,0.0,8,3,6,5,2,7,nan,nan,nan,nan,nan,nan,nan,nan,nan,nan,nan,nan,0.0,nan,nan,nan,nan,nan,nan,nan,nan,nan,nan,nan,nan,nan,nan,nan,nan,nan,nan,7763.6373482635245,7962.803320714971,nan,nan,nan,nan,nan,nan
1,110,1,1,1.0,1.0,0.5898371457587928,0,0.0,0.0,0.0,0.3699052223736154,0.17480173321480316,0.19510348915881223,0.5447069555884185,0.17480173321480316,0.5108206334989518,5,0,7,6,1,3,nan,nan,nan,nan,nan,nan,nan,nan,nan,nan,nan,nan,0.0,nan,nan,nan,nan,nan,nan,nan,nan,nan,nan,nan,nan,nan,nan,nan,nan,nan,nan,7763.6373482635245,7963.828466984909,nan,7964.418304130668,nan,nan,nan,nan
1,111,1,1,nan,nan,nan,0,0.0,0.0,0.0,0.0,0.0,0.0,0.0,0.0,0.0,2,8,0,5,4,7,nan,nan,nan,nan,nan,nan,nan,nan,nan,nan,nan,nan,0.0,nan,nan,nan,nan,nan,nan,nan,nan,nan,nan,nan,nan,nan,nan,nan,nan,nan,nan,7763.6373482635245,7964.845268417615,nan,nan,nan,nan,nan,nan
1,112,1,1,1.0,1.0,0.5058750275056809,1,0.0,1.0,1.0,0.37229578675823694,0.17533843267709223,0.1969573540811447,0.5476342194353292,0.17533843267709223,0.5478560866322368,4,6,7,3,8,2,1.0,1.0,1.0,1.0,1.0,1.0,0.0,0.0,0.0,0.0,0.0,0.0,0.0,0.0,2.0,5.0,8.0,4.0,7.0,4.0,3.0,2.0,1.0,6.0,5.0,5.126237399410456,4.398578726220876,3.2697857026942074,2.1899834584910423,7.508972054114565,6.364752913592383,7763.6373482635245,7965.920424694428,7966.728846679209,7966.426299721934,7975.296644560294,7976.295956617221,7967.745652103331,7975.28831084189
1,113,1,1,nan,nan,nan,0,0.0,0.0,0.0,0.0,0.0,0.0,0.0,0.0,0.0,5,4,0,6,7,8,nan,nan,nan,nan,nan,nan,nan,nan,nan,nan,nan,nan,0.0,nan,nan,nan,nan,nan,nan,nan,nan,nan,nan,nan,nan,nan,nan,nan,nan,nan,nan,7763.6373482635245,7976.51350227138,nan,nan,nan,nan,nan,nan
1,114,1,1,1.0,1.0,0.5438056904822588,0,0.0,0.0,0.0,0.37373212268025247,0.17493653591084982,0.19879558676940265,0.5486686585911023,0.17493653591084982,0.5248403589939699,8,0,5,4,2,1,nan,nan,nan,nan,nan,nan,nan,nan,nan,nan,nan,nan,0.0,nan,nan,nan,nan,nan,nan,nan,nan,nan,nan,nan,nan,nan,nan,nan,nan,nan,nan,7763.6373482635245,7977.530311116716,nan,7978.074116807198,nan,nan,nan,nan
1,115,1,1,1.0,1.0,0.4230076880194247,0,0.0,0.0,0.0,0.3755414159547419,0.17487615447509974,0.20066526147964214,0.5504175704298416,0.17487615447509974,0.48340668925084174,6,3,2,7,4,0,nan,nan,nan,nan,nan,nan,nan,nan,nan,nan,nan,nan,0.0,nan,nan,nan,nan,nan,nan,nan,nan,nan,nan,nan,nan,nan,nan,nan,nan,nan,nan,7763.6373482635245,7978.547114830464,nan,7978.970122518484,nan,nan,nan,nan
1,116,1,1,1.0,1.0,0.390201672911644,0,0.0,0.0,0.0,0.3760410609238438,0.174020756616638,0.20202030430720583,0.5500618175404818,0.174020756616638,0.45233835047110915,3,8,4,1,0,2,nan,nan,nan,nan,nan,nan,nan,nan,nan,nan,nan,nan,0.0,nan,nan,nan,nan,nan,nan,nan,nan,nan,nan,nan,nan,nan,nan,nan,nan,nan,nan,7763.6373482635245,7979.563917688793,nan,7979.954119361704,nan,nan,nan,nan
1,117,1,1,1.0,1.0,0.3170533459633589,0,0.0,0.0,0.0,0.3761885672987167,0.1731179959120762,0.2030705713866405,0.5493065632107929,0.1731179959120762,0.37675423563147586,2,6,1,4,8,5,nan,nan,nan,nan,nan,nan,nan,nan,nan,nan,nan,nan,0.0,nan,nan,nan,nan,nan,nan,nan,nan,nan,nan,nan,nan,nan,nan,nan,nan,nan,nan,7763.6373482635245,7980.589059682097,nan,7980.906113028061,nan,nan,nan,nan
1,118,1,1,1.0,1.0,0.3162034668494016,0,0.0,0.0,0.0,0.37557892584165115,0.17232687747557657,0.20325204836607458,0.5479058033172277,0.17232687747557657,0.3411528285748015,7,3,6,5,4,1,nan,nan,nan,nan,nan,nan,nan,nan,nan,nan,nan,nan,0.0,nan,nan,nan,nan,nan,nan,nan,nan,nan,nan,nan,nan,nan,nan,nan,nan,nan,nan,7763.6373482635245,7981.605872518849,nan,7981.922075985698,nan,nan,nan,nan
1,119,1,1,1.0,1.0,0.2993994683492929,0,0.0,0.0,0.0,0.374973053811118,0.17154921597461287,0.20342383783650514,0.5465222697857308,0.17154921597461287,0.3108854270540178,6,0,2,8,3,5,nan,nan,nan,nan,nan,nan,nan,nan,nan,nan,nan,nan,0.0,nan,nan,nan,nan,nan,nan,nan,nan,nan,nan,nan,nan,nan,nan,nan,nan,nan,nan,7763.6373482635245,7982.622672811151,nan,7982.9220722795,nan,nan,nan,nan
1,120,1,1,1.0,1.0,0.30623926944099367,0,0.0,0.0,0.0,0.37420968426099854,0.17084781932353293,0.2033618649374656,0.5450575035845315,0.17084781932353293,0.30728073487989604,1,2,4,7,6,3,nan,nan,nan,nan,nan,nan,nan,nan,nan,nan,nan,nan,0.0,nan,nan,nan,nan,nan,nan,nan,nan,nan,nan,nan,nan,nan,nan,nan,nan,nan,nan,7763.6373482635245,7983.6478008348495,nan,7983.9540401042905,nan,nan,nan,nan
1,121,1,1,1.0,1.0,0.44941608933731914,0,0.0,0.0,0.0,0.37352998011279853,0.17012591034028135,0.20340406977251718,0.5436558904530799,0.17012591034028135,0.35168494237586856,3,5,1,8,4,2,nan,nan,nan,nan,nan,nan,nan,nan,nan,nan,nan,nan,0.0,nan,nan,nan,nan,nan,nan,nan,nan,nan,nan,nan,nan,nan,nan,nan,nan,nan,nan,7763.6373482635245,7984.664606258972,nan,7985.114022348309,nan,nan,nan,nan
1,122,1,1,1.0,1.0,0.4802352518308908,0,0.0,0.0,0.0,0.3742813277288829,0.16944826663531287,0.20483306109357002,0.5437295943641958,0.16944826663531287,0.4119635368697345,2,6,5,7,3,0,nan,nan,nan,nan,nan,nan,nan,nan,nan,nan,nan,nan,0.0,nan,nan,nan,nan,nan,nan,nan,nan,nan,nan,nan,nan,nan,nan,nan,nan,nan,nan,7763.6373482635245,7985.689774196362,nan,7986.170009448193,nan,nan,nan,nan
1,123,0,0,0.0,1.0,0.5914493787568063,0,0.0,0.0,0.0,0.37532009169066727,0.16893845017219733,0.20638164151846994,0.5442585418628646,0.16893845017219733,0.5070335733083388,5,0,3,4,1,6,nan,nan,nan,nan,nan,nan,nan,nan,nan,nan,nan,nan,0.0,nan,nan,nan,nan,nan,nan,nan,nan,nan,nan,nan,nan,nan,nan,nan,nan,nan,nan,7763.6373482635245,7986.706555672223,nan,7987.29800505098,nan,nan,nan,nan
1,124,1,1,nan,nan,nan,0,0.0,0.0,0.0,0.0,0.0,0.0,0.0,0.0,0.0,1,8,5,0,2,4,nan,nan,nan,nan,nan,nan,nan,nan,nan,nan,nan,nan,0.0,nan,nan,nan,nan,nan,nan,nan,nan,nan,nan,nan,nan,nan,nan,nan,nan,nan,nan,7763.6373482635245,7987.731678849086,nan,nan,nan,nan,nan,nan
1,125,1,1,nan,nan,nan,0,0.0,0.0,0.0,0.0,0.0,0.0,0.0,0.0,0.0,2,1,6,8,4,3,nan,nan,nan,nan,nan,nan,nan,nan,nan,nan,nan,nan,0.0,nan,nan,nan,nan,nan,nan,nan,nan,nan,nan,nan,nan,nan,nan,nan,nan,nan,nan,7763.6373482635245,7988.748533595353,nan,nan,nan,nan,nan,nan
1,126,1,1,1.0,1.0,0.7803089783992618,1,0.0,1.0,1.0,0.3774184342835424,0.16944680839040846,0.20797162589313392,0.5468652426739509,0.16944680839040846,0.7803089783992618,0,6,5,1,2,7,1.0,1.0,1.0,1.0,1.0,1.0,0.0,0.0,1.0,0.0,0.0,0.0,1.0,2.0,5.0,5.0,0.0,8.0,8.0,2.0,4.0,3.0,1.0,5.0,6.0,5.329181441804394,7.903925751103088,6.279317975509912,2.1833723061718047,10.51164570893161,11.471032267902046,7763.6373482635245,7989.773620279506,7990.582034851657,7990.553929257905,8003.108701552497,8004.11036367761,7991.5988545308355,8003.100364983315
1,127,1,1,nan,nan,nan,0,0.0,0.0,0.0,0.0,0.0,0.0,0.0,0.0,0.0,2,8,3,7,0,5,nan,nan,nan,nan,nan,nan,nan,nan,nan,nan,nan,nan,0.0,nan,nan,nan,nan,nan,nan,nan,nan,nan,nan,nan,nan,nan,nan,nan,nan,nan,nan,7763.6373482635245,8004.333909802837,nan,nan,nan,nan,nan,nan
1,128,1,1,1.0,1.0,0.5230162979569286,0,0.0,0.0,0.0,0.38129238182311664,0.1731528549848046,0.20813952683831205,0.5544452368079212,0.1731528549848046,0.6516626381780952,8,7,0,4,5,6,nan,nan,nan,nan,nan,nan,nan,nan,nan,nan,nan,nan,0.0,nan,nan,nan,nan,nan,nan,nan,nan,nan,nan,nan,nan,nan,nan,nan,nan,nan,nan,7763.6373482635245,8005.350705818739,nan,8005.873722116696,nan,nan,nan,nan
1,129,1,1,1.0,1.0,0.41018651728518307,0,0.0,0.0,0.0,0.3826421334053434,0.17287521345979165,0.20976691994555177,0.5555173468651351,0.17287521345979165,0.46660140762105584,2,1,7,6,3,8,nan,nan,nan,nan,nan,nan,nan,nan,nan,nan,nan,nan,0.0,nan,nan,nan,nan,nan,nan,nan,nan,nan,nan,nan,nan,nan,nan,nan,nan,nan,nan,7763.6373482635245,8006.367518085288,nan,8006.777704602573,nan,nan,nan,nan
1,130,1,1,1.0,1.0,0.32935791788622737,0,0.0,0.0,0.0,0.3829019860834551,0.17207843416845947,0.21082355191499563,0.5549804202519146,0.17207843416845947,0.42085357770944637,3,7,8,0,2,6,nan,nan,nan,nan,nan,nan,nan,nan,nan,nan,nan,nan,0.0,nan,nan,nan,nan,nan,nan,nan,nan,nan,nan,nan,nan,nan,nan,nan,nan,nan,nan,7763.6373482635245,8007.384345747298,nan,8007.713703665184,nan,nan,nan,nan
1,131,1,1,1.0,1.0,0.32021537492983043,0,0.0,0.0,0.0,0.38240157423114457,0.17134991385817588,0.21105166037296869,0.5537514880893204,0.17134991385817588,0.35325327003374696,1,3,6,8,4,2,nan,nan,nan,nan,nan,nan,nan,nan,nan,nan,nan,nan,0.0,nan,nan,nan,nan,nan,nan,nan,nan,nan,nan,nan,nan,nan,nan,nan,nan,nan,nan,7763.6373482635245,8008.409494012827,nan,8008.729709387757,nan,nan,nan,nan
1,132,1,1,1.0,1.0,0.4154291960876435,0,0.0,0.0,0.0,0.3818257760894657,0.17065874996450728,0.21116702612495844,0.552484526053973,0.17065874996450728,0.3550008296345671,5,8,0,1,2,3,nan,nan,nan,nan,nan,nan,nan,nan,nan,nan,nan,nan,0.0,nan,nan,nan,nan,nan,nan,nan,nan,nan,nan,nan,nan,nan,nan,nan,nan,nan,nan,7763.6373482635245,8009.426243272377,nan,8009.841672468465,nan,nan,nan,nan
1,133,1,1,1.0,1.0,0.4626064628828317,0,0.0,0.0,0.0,0.38213406434632974,0.1699043172650015,0.21222974708132825,0.5520383816113312,0.1699043172650015,0.3994170113001019,4,3,7,8,0,1,nan,nan,nan,nan,nan,nan,nan,nan,nan,nan,nan,nan,0.0,nan,nan,nan,nan,nan,nan,nan,nan,nan,nan,nan,nan,nan,nan,nan,nan,nan,nan,7763.6373482635245,8010.443051262526,nan,8010.905657725409,nan,nan,nan,nan
1,134,1,1,1.0,1.0,0.38978514401242137,0,0.0,0.0,0.0,0.3828656316057525,0.16930263198594098,0.2135629996198115,0.5521682635916935,0.16930263198594098,0.4226069343276322,6,7,3,4,1,0,nan,nan,nan,nan,nan,nan,nan,nan,nan,nan,nan,nan,0.0,nan,nan,nan,nan,nan,nan,nan,nan,nan,nan,nan,nan,nan,nan,nan,nan,nan,nan,7763.6373482635245,8011.459870656487,nan,8011.849655800499,nan,nan,nan,nan
1,135,1,1,1.0,1.0,0.4046362170483917,0,0.0,0.0,0.0,0.3829279695553621,0.168539550254909,0.21438841930045313,0.5514675198102711,0.168539550254909,0.41900927464788157,2,1,0,6,7,5,nan,nan,nan,nan,nan,nan,nan,nan,nan,nan,nan,nan,0.0,nan,nan,nan,nan,nan,nan,nan,nan,nan,nan,nan,nan,nan,nan,nan,nan,nan,nan,7763.6373482635245,8012.48499383335,nan,8012.889630050398,nan,nan,nan,nan
1,136,1,1,1.0,1.0,0.38782052928581834,0,0.0,0.0,0.0,0.3831217931936927,0.16779788066013815,0.21532391253355457,0.5509196738538309,0.16779788066013815,0.3940806301155438,4,0,8,5,2,3,nan,nan,nan,nan,nan,nan,nan,nan,nan,nan,nan,nan,0.0,nan,nan,nan,nan,nan,nan,nan,nan,nan,nan,nan,nan,nan,nan,nan,nan,nan,nan,7763.6373482635245,8013.501801538281,nan,8013.889622067567,nan,nan,nan,nan
1,137,1,1,1.0,1.0,0.35471544601023197,0,0.0,0.0,0.0,0.3831633749290213,0.16705434183398124,0.21610903309504007,0.5502177167630026,0.16705434183398124,0.38239073078148067,3,6,5,4,8,2,nan,nan,nan,nan,nan,nan,nan,nan,nan,nan,nan,nan,0.0,nan,nan,nan,nan,nan,nan,nan,nan,nan,nan,nan,nan,nan,nan,nan,nan,nan,nan,7763.6373482635245,8014.526895635063,nan,8014.881611081073,nan,nan,nan,nan
1,138,0,0,0.0,1.0,0.5618464471772313,0,0.0,0.0,0.0,0.38291383169289156,0.16634118628042976,0.2165726454124618,0.5492550179733213,0.16634118628042976,0.4347941408244272,4,8,1,3,7,5,nan,nan,nan,nan,nan,nan,nan,nan,nan,nan,nan,nan,0.0,nan,nan,nan,nan,nan,nan,nan,nan,nan,nan,nan,nan,nan,nan,nan,nan,nan,nan,7763.6373482635245,8015.54373356048,nan,8016.105580007657,nan,nan,nan,nan
1,139,1,1,1.0,1.0,0.673028357559815,0,0.0,0.0,0.0,0.3844697674797119,0.1664475099944828,0.2180222574852291,0.5509172774741947,0.1664475099944828,0.5298634169157594,8,5,6,0,2,3,nan,nan,nan,nan,nan,nan,nan,nan,nan,nan,nan,nan,0.0,nan,nan,nan,nan,nan,nan,nan,nan,nan,nan,nan,nan,nan,nan,nan,nan,nan,nan,7763.6373482635245,8016.560531572206,nan,8017.233559929766,nan,nan,nan,nan
1,140,1,1,1.0,1.0,0.6881930392701179,1,0.0,1.0,1.0,0.3869573415321266,0.16786173526135384,0.21909560627077274,0.5548190767934804,0.16786173526135384,0.6410226146690547,5,7,4,8,1,6,1.0,1.0,1.0,1.0,1.0,1.0,0.0,0.0,0.0,0.0,0.0,0.0,0.0,4.0,2.0,1.0,3.0,7.0,3.0,2.0,5.0,4.0,1.0,3.0,6.0,2.772931766230613,7.620066724484786,6.252682350575924,1.8524323760066181,3.860830241581425,8.69145485269837,7763.6373482635245,8017.577359233983,8018.3857529941015,8018.265552273253,8028.128711485304,8029.132441430818,8019.394230116857,8028.120392877376
1,141,1,1,nan,nan,nan,0,0.0,0.0,0.0,0.0,0.0,0.0,0.0,0.0,0.0,1,8,0,7,3,2,nan,nan,nan,nan,nan,nan,nan,nan,nan,nan,nan,nan,0.0,nan,nan,nan,nan,nan,nan,nan,nan,nan,nan,nan,nan,nan,nan,nan,nan,nan,nan,7763.6373482635245,8029.353915744228,nan,nan,nan,nan,nan,nan
1,142,1,1,1.0,1.0,0.6065923927817494,0,0.0,0.0,0.0,0.3895320056153573,0.16942750702500048,0.2201044985903568,0.5589595126403577,0.16942750702500048,0.6473927160259336,6,1,8,4,5,0,nan,nan,nan,nan,nan,nan,nan,nan,nan,nan,nan,nan,0.0,nan,nan,nan,nan,nan,nan,nan,nan,nan,nan,nan,nan,nan,nan,nan,nan,nan,nan,7763.6373482635245,8030.370730861789,nan,8030.97732325457,nan,nan,nan,nan
1,143,1,1,1.0,1.0,0.38149504573084414,0,0.0,0.0,0.0,0.39137150042185215,0.169877336259776,0.22149416416207615,0.5612488366816282,0.169877336259776,0.49404371925629675,8,5,2,3,6,7,nan,nan,nan,nan,nan,nan,nan,nan,nan,nan,nan,nan,0.0,nan,nan,nan,nan,nan,nan,nan,nan,nan,nan,nan,nan,nan,nan,nan,nan,nan,nan,7763.6373482635245,8031.395848621847,nan,8031.777343667578,nan,nan,nan,nan
1,144,1,1,1.0,1.0,0.2046785824932158,0,0.0,0.0,0.0,0.39128850500428064,0.16916446253717315,0.22212404246710749,0.5604529675414538,0.16916446253717315,0.3975886736686031,5,8,7,2,1,6,nan,nan,nan,nan,nan,nan,nan,nan,nan,nan,nan,nan,0.0,nan,nan,nan,nan,nan,nan,nan,nan,nan,nan,nan,nan,nan,nan,nan,nan,nan,nan,7763.6373482635245,8032.412650339771,nan,8032.617328922264,nan,nan,nan,nan
1,145,1,1,1.0,1.0,0.07552433921955526,0,0.0,0.0,0.0,0.38973342231668845,0.16931012718758498,0.22042329512910347,0.5590435495042734,0.16931012718758498,0.22056598914787173,7,3,8,5,6,0,nan,nan,nan,nan,nan,nan,nan,nan,nan,nan,nan,nan,0.0,nan,nan,nan,nan,nan,nan,nan,nan,nan,nan,nan,nan,nan,nan,nan,nan,nan,nan,7763.6373482635245,8033.437787486473,nan,8033.513311825693,nan,nan,nan,nan
1,146,1,1,1.0,1.0,0.010667250724509358,1,1.0,0.0,1.0,0.3871366530348939,0.17099180105999956,0.21614485197489436,0.5581284540948934,0.17099180105999956,0.09695672414576013,6,8,5,2,0,4,1.0,1.0,1.0,1.0,1.0,1.0,1.0,0.0,0.0,1.0,1.0,0.0,3.0,6.0,4.0,8.0,2.0,0.0,1.0,4.0,3.0,2.0,1.0,6.0,5.0,6.526694355532527,5.694103989051655,4.463174094446003,3.033189472509548,8.525754385162145,7.510572027647868,7763.6373482635245,8034.454637956107,8035.263018601574,8034.4653052068315,8044.8392856228165,8045.839780553943,8036.271484320518,8044.830953900237
1,147,1,1,1.0,1.0,0.34464262588880956,0,0.0,0.0,0.0,0.384050838261858,0.17363965928228575,0.21041117897957223,0.5576904975441437,0.17363965928228575,0.14361140527762473,2,7,1,6,8,3,nan,nan,nan,nan,nan,nan,nan,nan,nan,nan,nan,nan,0.0,nan,nan,nan,nan,nan,nan,nan,nan,nan,nan,nan,nan,nan,nan,nan,nan,nan,nan,7763.6373482635245,8046.064486460527,nan,8046.409129086416,nan,nan,nan,nan
1,148,1,1,1.0,1.0,0.3274853900074959,0,0.0,0.0,0.0,0.3837304462913454,0.17296857172018257,0.21076187457116283,0.556699018011528,0.17296857172018257,0.22759842220693827,6,1,0,5,3,4,nan,nan,nan,nan,nan,nan,nan,nan,nan,nan,nan,nan,0.0,nan,nan,nan,nan,nan,nan,nan,nan,nan,nan,nan,nan,nan,nan,nan,nan,nan,nan,7763.6373482635245,8047.089620756218,nan,8047.417106146226,nan,nan,nan,nan
1,149,1,1,1.0,1.0,0.39065783098340034,0,0.0,0.0,0.0,0.383276857127766,0.17234314025128275,0.21093371687648324,0.5556199973790488,0.17234314025128275,0.35426194895990193,4,2,3,0,7,8,nan,nan,nan,nan,nan,nan,nan,nan,nan,nan,nan,nan,0.0,nan,nan,nan,nan,nan,nan,nan,nan,nan,nan,nan,nan,nan,nan,nan,nan,nan,nan,7763.6373482635245,8048.106431597145,nan,8048.497089428129,nan,nan,nan,nan
1,150,1,1,1.0,1.0,0.46982972184196115,0,0.0,0.0,0.0,0.383335904918611,0.17165364275569217,0.21168226216291885,0.5549895476743032,0.17165364275569217,0.3959909809442858,2,8,7,3,6,0,nan,nan,nan,nan,nan,nan,nan,nan,nan,nan,nan,nan,0.0,nan,nan,nan,nan,nan,nan,nan,nan,nan,nan,nan,nan,nan,nan,nan,nan,nan,nan,7763.6373482635245,8049.123238161905,nan,8049.593067883747,nan,nan,nan,nan
1,151,1,1,1.0,1.0,0.5006950704846531,0,0.0,0.0,0.0,0.3840223637830821,0.1711432946400349,0.2128790691430472,0.5551656584231169,0.1711432946400349,0.4537275411033382,0,4,2,8,5,1,nan,nan,nan,nan,nan,nan,nan,nan,nan,nan,nan,nan,0.0,nan,nan,nan,nan,nan,nan,nan,nan,nan,nan,nan,nan,nan,nan,nan,nan,nan,nan,7763.6373482635245,8050.148359342944,nan,8050.6490544134285,nan,nan,nan,nan
1,152,1,1,1.0,1.0,0.5558650775346905,0,0.0,0.0,0.0,0.3849410465130157,0.17077979501910184,0.21416125149391385,0.5557208415321175,0.17077979501910184,0.5087966232871016,1,3,7,5,0,4,nan,nan,nan,nan,nan,nan,nan,nan,nan,nan,nan,nan,0.0,nan,nan,nan,nan,nan,nan,nan,nan,nan,nan,nan,nan,nan,nan,nan,nan,nan,nan,7763.6373482635245,8051.165185294347,nan,8051.721050371882,nan,nan,nan,nan
1,153,1,1,1.0,1.0,0.6187187780160457,1,0.0,1.0,1.0,0.38627639050537255,0.17077570169674644,0.2155006888086261,0.5570520922021189,0.17077570169674644,0.5584263086784631,3,4,1,6,2,8,1.0,1.0,1.0,1.0,1.0,1.0,0.0,0.0,0.0,0.0,0.0,0.0,0.0,4.0,1.0,6.0,0.0,8.0,3.0,4.0,3.0,2.0,1.0,5.0,6.0,8.709986264118925,7.662911917781457,6.87794414232485,5.565876031294465,10.318212557118386,12.069970332784578,7763.6373482635245,8052.190309611615,8052.998728745384,8052.809028389631,8066.125471624546,8067.133507984923,8054.0155030936,8066.11713163415
1,154,1,1,nan,nan,nan,0,0.0,0.0,0.0,0.0,0.0,0.0,0.0,0.0,0.0,2,7,8,0,4,1,nan,nan,nan,nan,nan,nan,nan,nan,nan,nan,nan,nan,0.0,nan,nan,nan,nan,nan,nan,nan,nan,nan,nan,nan,nan,nan,nan,nan,nan,nan,nan,7763.6373482635245,8067.359017014271,nan,nan,nan,nan,nan,nan
1,155,0,0,1.0,0.0,0.05693619325757027,0,0.0,0.0,0.0,0.3880782694783235,0.1713296425472662,0.21674862693105731,0.5594079120255897,0.1713296425472662,0.337827485636808,5,4,6,3,0,7,nan,nan,nan,nan,nan,nan,nan,nan,nan,nan,nan,nan,0.0,nan,nan,nan,nan,nan,nan,nan,nan,nan,nan,nan,nan,nan,nan,nan,nan,nan,nan,7763.6373482635245,8068.375812744955,nan,8068.432748938212,nan,nan,nan,nan
1,156,1,1,nan,nan,nan,0,0.0,0.0,0.0,0.0,0.0,0.0,0.0,0.0,0.0,4,2,1,8,5,3,nan,nan,nan,nan,nan,nan,nan,nan,nan,nan,nan,nan,0.0,nan,nan,nan,nan,nan,nan,nan,nan,nan,nan,nan,nan,nan,nan,nan,nan,nan,nan,7763.6373482635245,8069.400943619665,nan,nan,nan,nan,nan,nan
1,157,1,1,nan,nan,nan,0,0.0,0.0,0.0,0.0,0.0,0.0,0.0,0.0,0.0,2,7,0,5,4,1,nan,nan,nan,nan,nan,nan,nan,nan,nan,nan,nan,nan,0.0,nan,nan,nan,nan,nan,nan,nan,nan,nan,nan,nan,nan,nan,nan,nan,nan,nan,nan,7763.6373482635245,8070.417741060955,nan,nan,nan,nan,nan,nan
1,158,1,1,nan,nan,nan,0,0.0,0.0,0.0,0.0,0.0,0.0,0.0,0.0,0.0,8,3,1,0,7,5,nan,nan,nan,nan,nan,nan,nan,nan,nan,nan,nan,nan,0.0,nan,nan,nan,nan,nan,nan,nan,nan,nan,nan,nan,nan,nan,nan,nan,nan,nan,nan,7763.6373482635245,8071.434553327505,nan,nan,nan,nan,nan,nan
1,159,1,1,1.0,1.0,0.7250574331264943,1,0.0,1.0,1.0,0.38553102273816386,0.17310418742775105,0.21242683531041281,0.5586352101659149,0.17310418742775105,0.7250574331264943,7,1,2,4,5,6,1.0,1.0,1.0,1.0,1.0,1.0,0.0,0.0,0.0,0.0,0.0,0.0,0.0,5.0,3.0,3.0,6.0,4.0,1.0,2.0,4.0,3.0,1.0,5.0,6.0,2.9595550522208214,5.239942432846874,4.304640436545014,1.4808650347404182,7.783695665188134,9.471367829013616,7763.6373482635245,8072.459652270889,8073.268098774133,8073.184709704015,8083.802835192066,8084.808038242161,8074.293248465285,8083.794515158515
1,160,1,1,1.0,1.0,0.7725192285142839,0,0.0,0.0,0.0,0.3881228273976168,0.17495595866475142,0.21316686873286536,0.5630787860623682,0.17495595866475142,0.7487883308203891,2,3,8,5,0,7,nan,nan,nan,nan,nan,nan,nan,nan,nan,nan,nan,nan,0.0,nan,nan,nan,nan,nan,nan,nan,nan,nan,nan,nan,nan,nan,nan,nan,nan,nan,nan,7763.6373482635245,8085.028030897956,nan,8085.800550126471,nan,nan,nan,nan
1,161,1,1,1.0,1.0,0.5156961055472493,0,0.0,0.0,0.0,0.3910349213454703,0.17745031642751583,0.21358460491795447,0.5684852377729861,0.17745031642751583,0.6710909223960092,3,8,6,1,2,4,nan,nan,nan,nan,nan,nan,nan,nan,nan,nan,nan,nan,0.0,nan,nan,nan,nan,nan,nan,nan,nan,nan,nan,nan,nan,nan,nan,nan,nan,nan,nan,7763.6373482635245,8086.044832330663,nan,8086.56052843621,nan,nan,nan,nan
1,162,1,1,1.0,1.0,0.3628749686758965,0,0.0,0.0,0.0,0.3919722234823258,0.1771096410617098,0.214862582420616,0.5690818645440356,0.1771096410617098,0.5503634342458099,1,6,4,7,5,0,nan,nan,nan,nan,nan,nan,nan,nan,nan,nan,nan,nan,0.0,nan,nan,nan,nan,nan,nan,nan,nan,nan,nan,nan,nan,nan,nan,nan,nan,nan,nan,7763.6373482635245,8087.0616326231975,nan,8087.424507591873,nan,nan,nan,nan
1,163,1,1,1.0,1.0,0.33806254947558045,0,0.0,0.0,0.0,0.3917550797897405,0.17646531626648165,0.21528976352325885,0.5682203960562222,0.17646531626648165,0.4055445412329088,7,0,5,2,4,3,nan,nan,nan,nan,nan,nan,nan,nan,nan,nan,nan,nan,0.0,nan,nan,nan,nan,nan,nan,nan,nan,nan,nan,nan,nan,nan,nan,nan,nan,nan,nan,7763.6373482635245,8088.0784343411215,nan,8088.416496890597,nan,nan,nan,nan
1,164,1,1,1.0,1.0,0.34522223146632314,0,0.0,0.0,0.0,0.39135735734296895,0.17587079820605986,0.2154865591369091,0.5672281555490288,0.17587079820605986,0.3487199165392667,0,5,6,8,7,2,nan,nan,nan,nan,nan,nan,nan,nan,nan,nan,nan,nan,0.0,nan,nan,nan,nan,nan,nan,nan,nan,nan,nan,nan,nan,nan,nan,nan,nan,nan,nan,7763.6373482635245,8089.0952474628575,nan,8089.440469694324,nan,nan,nan,nan
1,165,0,0,0.0,1.0,0.5364113722462207,0,0.0,0.0,0.0,0.3910181284762289,0.1752673458688127,0.2157507826074162,0.5662854743450416,0.1752673458688127,0.40656538439604145,2,6,0,1,4,3,nan,nan,nan,nan,nan,nan,nan,nan,nan,nan,nan,nan,0.0,nan,nan,nan,nan,nan,nan,nan,nan,nan,nan,nan,nan,nan,nan,nan,nan,nan,nan,7763.6373482635245,8090.112058873987,nan,8090.648470246233,nan,nan,nan,nan
1,166,1,1,1.0,1.0,0.503599940566346,0,0.0,0.0,0.0,0.3920793930292945,0.175064540307933,0.2170148527213615,0.5671439333372275,0.175064540307933,0.46174451475962996,0,8,3,5,6,2,nan,nan,nan,nan,nan,nan,nan,nan,nan,nan,nan,nan,0.0,nan,nan,nan,nan,nan,nan,nan,nan,nan,nan,nan,nan,nan,nan,nan,nan,nan,nan,7763.6373482635245,8091.12884605187,nan,8091.632445992436,nan,nan,nan,nan
1,167,0,0,1.0,0.0,0.550791462417692,0,0.0,0.0,0.0,0.39288751293898333,0.17468536910977195,0.21820214382921138,0.5675728820487553,0.17468536910977195,0.5302675917434195,5,2,1,8,7,4,nan,nan,nan,nan,nan,nan,nan,nan,nan,nan,nan,nan,0.0,nan,nan,nan,nan,nan,nan,nan,nan,nan,nan,nan,nan,nan,nan,nan,nan,nan,nan,7763.6373482635245,8092.145646059187,nan,8092.696437521605,nan,nan,nan,nan
1,168,1,1,1.0,1.0,0.6779959162231535,1,0.0,1.0,1.0,0.39402351257552076,0.1745667044368114,0.21945680813870935,0.5685902170123321,0.1745667044368114,0.5774624397357305,6,7,8,1,2,3,1.0,1.0,1.0,1.0,1.0,1.0,0.0,0.0,0.0,1.0,0.0,0.0,1.0,2.0,3.0,5.0,1.0,7.0,2.0,2.0,4.0,3.0,1.0,5.0,6.0,3.394966241437942,8.409104567719623,6.858822576701641,2.1851920909248292,10.921025967225432,12.024779918137938,7763.6373482635245,8093.16242896067,8093.970871187514,8093.840424876893,8107.05594661599,8108.051702637691,8094.987691151677,8107.04761061701
1,169,1,1,1.0,1.0,0.615384264383465,0,0.0,0.0,0.0,0.3960518868872896,0.1755783421218644,0.2204735447654252,0.571630229009154,0.1755783421218644,0.6147238810081035,8,2,1,0,4,6,nan,nan,nan,nan,nan,nan,nan,nan,nan,nan,nan,nan,0.0,nan,nan,nan,nan,nan,nan,nan,nan,nan,nan,nan,nan,nan,nan,nan,nan,nan,nan,7763.6373482635245,8108.272822573548,nan,8108.888206837932,nan,nan,nan,nan
1,170,1,1,1.0,1.0,0.47055073641240597,0,0.0,0.0,0.0,0.3976074356638582,0.17592009591565833,0.22168733974819987,0.5735275315795165,0.17592009591565833,0.5879769723396748,2,4,3,1,7,0,nan,nan,nan,nan,nan,nan,nan,nan,nan,nan,nan,nan,0.0,nan,nan,nan,nan,nan,nan,nan,nan,nan,nan,nan,nan,nan,nan,nan,nan,nan,nan,7763.6373482635245,8109.289620014839,nan,8109.760170751251,nan,nan,nan,nan
1,171,1,1,1.0,1.0,0.4857393663842231,0,0.0,0.0,0.0,0.39812112088039725,0.17540565370527936,0.2227154671751179,0.5735267745856766,0.17540565370527936,0.523891455726698,4,6,7,2,5,1,nan,nan,nan,nan,nan,nan,nan,nan,nan,nan,nan,nan,0.0,nan,nan,nan,nan,nan,nan,nan,nan,nan,nan,nan,nan,nan,nan,nan,nan,nan,nan,7763.6373482635245,8110.306417741347,nan,8110.792157107731,nan,nan,nan,nan
1,172,1,1,1.0,1.0,0.42892491025850177,0,0.0,0.0,0.0,0.39873383588392053,0.17494369979250357,0.22379013609141696,0.5736775356764241,0.17494369979250357,0.46173833768504363,8,1,2,0,6,4,nan,nan,nan,nan,nan,nan,nan,nan,nan,nan,nan,nan,0.0,nan,nan,nan,nan,nan,nan,nan,nan,nan,nan,nan,nan,nan,nan,nan,nan,nan,nan,7763.6373482635245,8111.323227727087,nan,8111.752152637346,nan,nan,nan,nan
1,173,1,1,1.0,1.0,0.3637858589645475,0,0.0,0.0,0.0,0.3989434961226329,0.1743532254223975,0.2245902707002354,0.5732967215450304,0.1743532254223975,0.4261500452024241,2,8,5,3,4,1,nan,nan,nan,nan,nan,nan,nan,nan,nan,nan,nan,nan,0.0,nan,nan,nan,nan,nan,nan,nan,nan,nan,nan,nan,nan,nan,nan,nan,nan,nan,nan,7763.6373482635245,8112.348356035771,nan,8112.712141894735,nan,nan,nan,nan
1,174,1,1,1.0,1.0,0.45094592892564833,0,0.0,0.0,0.0,0.3987010296594737,0.17377532728111397,0.2249257023783597,0.5724763569405876,0.17377532728111397,0.41455223271623254,4,1,3,2,0,7,nan,nan,nan,nan,nan,nan,nan,nan,nan,nan,nan,nan,0.0,nan,nan,nan,nan,nan,nan,nan,nan,nan,nan,nan,nan,nan,nan,nan,nan,nan,nan,7763.6373482635245,8113.3651626002975,nan,8113.816108529223,nan,nan,nan,nan
1,175,1,1,1.0,1.0,0.5061458712443709,0,0.0,0.0,0.0,0.3990588714352694,0.1732327828125333,0.22582608862273612,0.5722916542478027,0.1732327828125333,0.4402925530448556,7,4,2,3,5,0,nan,nan,nan,nan,nan,nan,nan,nan,nan,nan,nan,nan,0.0,nan,nan,nan,nan,nan,nan,nan,nan,nan,nan,nan,nan,nan,nan,nan,nan,nan,nan,7763.6373482635245,8114.3819634630345,nan,8114.888109334279,nan,nan,nan,nan
1,176,1,1,1.0,1.0,0.5133109700400382,0,0.0,0.0,0.0,0.39978735442716806,0.1728667998572113,0.22692055456995677,0.5726541542843794,0.1728667998572113,0.4901342567366858,0,5,4,2,8,6,nan,nan,nan,nan,nan,nan,nan,nan,nan,nan,nan,nan,0.0,nan,nan,nan,nan,nan,nan,nan,nan,nan,nan,nan,nan,nan,nan,nan,nan,nan,nan,7763.6373482635245,8115.39877744019,nan,8115.91208841023,nan,nan,nan,nan
1,177,1,1,1.0,1.0,0.6005112389102578,0,0.0,0.0,0.0,0.40055440588401175,0.17253263136913638,0.22802177451487537,0.5730870372531481,0.17253263136913638,0.539989360064889,3,2,7,8,0,1,nan,nan,nan,nan,nan,nan,nan,nan,nan,nan,nan,nan,0.0,nan,nan,nan,nan,nan,nan,nan,nan,nan,nan,nan,nan,nan,nan,nan,nan,nan,nan,7763.6373482635245,8116.415559486253,nan,8117.016070725163,nan,nan,nan,nan
1,178,1,1,1.0,1.0,0.5916746065486223,0,0.0,0.0,0.0,0.40189639805197314,0.1727259867801919,0.22917041127178123,0.574622384832165,0.1727259867801919,0.5684989384996394,4,1,3,7,6,8,nan,nan,nan,nan,nan,nan,nan,nan,nan,nan,nan,nan,0.0,nan,nan,nan,nan,nan,nan,nan,nan,nan,nan,nan,nan,nan,nan,nan,nan,nan,nan,7763.6373482635245,8117.432368331589,nan,8118.024042938137,nan,nan,nan,nan
1,179,1,1,1.0,1.0,0.5985634450335056,1,0.0,1.0,1.0,0.40316158610861746,0.1728406081368392,0.23032097797177825,0.5760021942454567,0.1728406081368392,0.5969164301641285,8,4,7,2,5,1,1.0,1.0,1.0,1.0,1.0,1.0,0.0,0.0,0.0,1.0,0.0,0.0,1.0,3.0,1.0,4.0,2.0,0.0,6.0,1.0,5.0,4.0,3.0,6.0,2.0,2.8741175485774875,7.553311734227464,6.177337053231895,5.138786015799269,8.713338168570772,3.97080561472103,7763.6373482635245,8118.457486946834,8119.265916629229,8119.056050391868,8129.033885398414,8130.0318050337955,8120.282730606385,8129.025553961052
1,180,1,1,1.0,1.0,0.5171797585207969,0,0.0,0.0,0.0,0.40445563815447766,0.17299485884989685,0.2314607793045808,0.5774504970043746,0.17299485884989685,0.5691392700343082,4,7,8,6,1,0,nan,nan,nan,nan,nan,nan,nan,nan,nan,nan,nan,nan,0.0,nan,nan,nan,nan,nan,nan,nan,nan,nan,nan,nan,nan,nan,nan,nan,nan,nan,nan,7763.6373482635245,8130.250707472442,nan,8130.7678872309625,nan,nan,nan,nan
1,181,1,1,1.0,1.0,0.3958948077633977,0,0.0,0.0,0.0,0.40519724420951925,0.17266551041272124,0.232531733796798,0.5778627546222405,0.17266551041272124,0.5038793371059,6,8,5,3,0,4,nan,nan,nan,nan,nan,nan,nan,nan,nan,nan,nan,nan,0.0,nan,nan,nan,nan,nan,nan,nan,nan,nan,nan,nan,nan,nan,nan,nan,nan,nan,nan,7763.6373482635245,8131.267990436638,nan,8131.663885244401,nan,nan,nan,nan
1,182,1,1,1.0,1.0,0.3151614312082529,0,0.0,0.0,0.0,0.4051364439713093,0.17210195146148938,0.23303449250981995,0.5772383954327986,0.17210195146148938,0.40941199916414917,5,4,8,2,6,3,nan,nan,nan,nan,nan,nan,nan,nan,nan,nan,nan,nan,0.0,nan,nan,nan,nan,nan,nan,nan,nan,nan,nan,nan,nan,nan,nan,nan,nan,nan,nan,7763.6373482635245,8132.29268482537,nan,8132.607846256578,nan,nan,nan,nan
1,183,1,1,1.0,1.0,0.48232359951362014,0,0.0,0.0,0.0,0.4045521906416791,0.171694428699244,0.23285776194243507,0.576246619340923,0.171694428699244,0.39779327949509025,7,0,3,8,1,6,nan,nan,nan,nan,nan,nan,nan,nan,nan,nan,nan,nan,0.0,nan,nan,nan,nan,nan,nan,nan,nan,nan,nan,nan,nan,nan,nan,nan,nan,nan,nan,7763.6373482635245,8133.309499942698,nan,8133.791823542211,nan,nan,nan,nan
1,184,1,1,1.0,1.0,0.42551883682608604,0,0.0,0.0,0.0,0.4050539416666593,0.17125291246863075,0.23380102919802856,0.57630685413529,0.17125291246863075,0.4076679558493197,2,7,5,4,6,8,nan,nan,nan,nan,nan,nan,nan,nan,nan,nan,nan,nan,0.0,nan,nan,nan,nan,nan,nan,nan,nan,nan,nan,nan,nan,nan,nan,nan,nan,nan,nan,7763.6373482635245,8134.326299379813,nan,8134.751818216639,nan,nan,nan,nan
1,185,1,1,1.0,1.0,0.35269523691385984,0,0.0,0.0,0.0,0.4051851268920403,0.17071095551146104,0.23447417138057924,0.5758960824035013,0.17071095551146104,0.4201792244178553,8,4,6,0,7,5,nan,nan,nan,nan,nan,nan,nan,nan,nan,nan,nan,nan,0.0,nan,nan,nan,nan,nan,nan,nan,nan,nan,nan,nan,nan,nan,nan,nan,nan,nan,nan,7763.6373482635245,8135.343090834329,nan,8135.695786071243,nan,nan,nan,nan
1,186,1,1,1.0,1.0,0.4158941919449717,0,0.0,0.0,0.0,0.4048507963826251,0.1702176495693871,0.23463314681323802,0.5750684459520122,0.1702176495693871,0.3980360885616392,1,7,8,6,4,3,nan,nan,nan,nan,nan,nan,nan,nan,nan,nan,nan,nan,0.0,nan,nan,nan,nan,nan,nan,nan,nan,nan,nan,nan,nan,nan,nan,nan,nan,nan,nan,7763.6373482635245,8136.359896828653,nan,8136.775791020598,nan,nan,nan,nan
1,187,1,1,1.0,1.0,0.5670626116916537,0,0.0,0.0,0.0,0.4049206912912476,0.16968039122036355,0.23524030007088403,0.5746010825116111,0.16968039122036355,0.44521734685016173,6,2,4,5,7,0,nan,nan,nan,nan,nan,nan,nan,nan,nan,nan,nan,nan,0.0,nan,nan,nan,nan,nan,nan,nan,nan,nan,nan,nan,nan,nan,nan,nan,nan,nan,nan,7763.6373482635245,8137.376708239783,nan,8137.943770851474,nan,nan,nan,nan
1,188,1,1,1.0,1.0,0.6622818496543914,0,0.0,0.0,0.0,0.40594045179691046,0.16963096112255097,0.2363094906743595,0.5755714129194615,0.16963096112255097,0.548412884430339,3,1,0,6,5,2,nan,nan,nan,nan,nan,nan,nan,nan,nan,nan,nan,nan,0.0,nan,nan,nan,nan,nan,nan,nan,nan,nan,nan,nan,nan,nan,nan,nan,nan,nan,nan,7763.6373482635245,8138.393478882033,nan,8139.055760731688,nan,nan,nan,nan
1,189,0,0,nan,nan,nan,0,0.0,0.0,0.0,0.0,0.0,0.0,0.0,0.0,0.0,5,0,6,7,1,8,nan,nan,nan,nan,nan,nan,nan,nan,nan,nan,nan,nan,0.0,nan,nan,nan,nan,nan,nan,nan,nan,nan,nan,nan,nan,nan,nan,nan,nan,nan,nan,7763.6373482635245,8139.410326785874,nan,nan,nan,nan,nan,nan
1,190,1,1,nan,nan,nan,0,0.0,0.0,0.0,0.0,0.0,0.0,0.0,0.0,0.0,4,6,8,5,2,7,nan,nan,nan,nan,nan,nan,nan,nan,nan,nan,nan,nan,0.0,nan,nan,nan,nan,nan,nan,nan,nan,nan,nan,nan,nan,nan,nan,nan,nan,nan,nan,7763.6373482635245,8140.427126222989,nan,nan,nan,nan,nan,nan
1,191,1,1,1.0,1.0,0.003809202928096056,1,1.0,0.0,1.0,0.40754258553351974,0.17030251817538244,0.2372400673581373,0.5778451037089022,0.17030251817538244,0.003809202928096056,0,1,5,7,3,2,1.0,1.0,1.0,1.0,1.0,1.0,0.0,0.0,0.0,1.0,0.0,1.0,2.0,1.0,5.0,6.0,7.0,8.0,2.0,2.0,4.0,3.0,1.0,6.0,5.0,3.2795280932914466,5.2473572781309485,4.472194330068305,1.8091908956412226,9.390520128188655,8.286474806489423,7763.6373482635245,8141.443909124238,8142.252333389828,8141.4477183271665,8152.69538864377,8153.696668451419,8143.269148222404,8152.687052359572
1,192,0,0,1.0,0.0,0.7349298286717385,0,0.0,0.0,0.0,0.4050349247719954,0.1727105762939258,0.23232434847806957,0.5777455010659212,0.1727105762939258,0.3693695157999173,5,2,3,6,0,4,nan,nan,nan,nan,nan,nan,nan,nan,nan,nan,nan,nan,0.0,nan,nan,nan,nan,nan,nan,nan,nan,nan,nan,nan,nan,nan,nan,nan,nan,nan,nan,7763.6373482635245,8153.920586915454,nan,8154.655516744126,nan,nan,nan,nan
1,193,1,1,0.0,0.0,0.13412579335272312,0,0.0,0.0,0.0,0.4070713130676728,0.17410474183320077,0.23296657123447204,0.5811760549008735,0.17410474183320077,0.29095494165085256,4,6,2,8,1,7,nan,nan,nan,nan,nan,nan,nan,nan,nan,nan,nan,nan,0.0,nan,nan,nan,nan,nan,nan,nan,nan,nan,nan,nan,nan,nan,nan,nan,nan,nan,nan,7763.6373482635245,8154.937388918595,nan,8155.071514711948,nan,nan,nan,nan
1,194,0,0,1.0,0.0,0.46929601742886007,0,0.0,0.0,0.0,0.4053968006767835,0.17487350220277376,0.23052329847400976,0.5802703028795573,0.17487350220277376,0.44611721315110725,5,2,0,7,4,6,nan,nan,nan,nan,nan,nan,nan,nan,nan,nan,nan,nan,0.0,nan,nan,nan,nan,nan,nan,nan,nan,nan,nan,nan,nan,nan,nan,nan,nan,nan,nan,7763.6373482635245,8155.954185789684,nan,8156.423481807113,nan,nan,nan,nan
1,195,1,1,0.0,0.0,0.6444976818747818,0,0.0,0.0,0.0,0.40578643004722303,0.17441049003879813,0.2313759400084249,0.5801969200860212,0.17441049003879813,0.4159731642187883,7,6,8,5,3,2,nan,nan,nan,nan,nan,nan,nan,nan,nan,nan,nan,nan,0.0,nan,nan,nan,nan,nan,nan,nan,nan,nan,nan,nan,nan,nan,nan,nan,nan,nan,nan,7763.6373482635245,8156.970985226799,nan,8157.615482908674,nan,nan,nan,nan
1,196,1,1,nan,nan,nan,0,0.0,0.0,0.0,0.0,0.0,0.0,0.0,0.0,0.0,3,0,2,8,5,4,nan,nan,nan,nan,nan,nan,nan,nan,nan,nan,nan,nan,0.0,nan,nan,nan,nan,nan,nan,nan,nan,nan,nan,nan,nan,nan,nan,nan,nan,nan,nan,7763.6373482635245,8157.987786944723,nan,nan,nan,nan,nan,nan
1,197,1,1,1.0,1.0,0.562767885858193,1,0.0,1.0,1.0,0.40723316490678396,0.17486543452633377,0.2323677303804502,0.5820985994331177,0.17486543452633377,0.6036327838664874,2,1,6,0,7,5,1.0,1.0,1.0,1.0,1.0,1.0,0.0,0.0,0.0,0.0,0.0,0.0,0.0,5.0,6.0,8.0,2.0,1.0,4.0,2.0,4.0,3.0,1.0,5.0,6.0,3.640733524458483,8.223096524598077,7.278115144465119,2.6569413819815964,9.566628121305257,10.966431061038747,7763.6373482635245,8159.004627435934,8159.813012643019,8159.567395321792,8171.831277772319,8172.837601260049,8160.821491476614,8171.822945764754
1,198,1,1,1.0,1.0,0.7347610502038151,0,0.0,0.0,0.0,0.40817012105709366,0.17475287459762,0.23341724645947365,0.5829229956547137,0.17475287459762,0.6487644680310041,5,3,2,1,8,4,nan,nan,nan,nan,nan,nan,nan,nan,nan,nan,nan,nan,0.0,nan,nan,nan,nan,nan,nan,nan,nan,nan,nan,nan,nan,nan,nan,nan,nan,nan,nan,7763.6373482635245,8173.0564731932245,nan,8173.791234243428,nan,nan,nan,nan
1,199,1,1,1.0,1.0,0.469937204150483,0,0.0,0.0,0.0,0.4101257553633615,0.17604138555467444,0.23408436980868705,0.5861671409180359,0.17604138555467444,0.5891553800708303,7,6,4,5,3,8,nan,nan,nan,nan,nan,nan,nan,nan,nan,nan,nan,nan,0.0,nan,nan,nan,nan,nan,nan,nan,nan,nan,nan,nan,nan,nan,nan,nan,nan,nan,nan,7763.6373482635245,8174.073270919733,nan,8174.543208123883,nan,nan,nan,nan
1,200,1,1,1.0,1.0,0.38076718896627426,0,0.0,0.0,0.0,0.41048177589185625,0.17557696063502565,0.2349048152568306,0.5860587365268819,0.17557696063502565,0.5284884811068574,5,2,8,7,0,4,nan,nan,nan,nan,nan,nan,nan,nan,nan,nan,nan,nan,0.0,nan,nan,nan,nan,nan,nan,nan,nan,nan,nan,nan,nan,nan,nan,nan,nan,nan,nan,7763.6373482635245,8175.09841775964,nan,8175.479184948606,nan,nan,nan,nan
1,201,1,1,1.0,1.0,0.291966091375798,0,0.0,0.0,0.0,0.4103059499337167,0.17507156511100488,0.23523438482271183,0.5853775150447216,0.17507156511100488,0.3808901614975184,1,7,0,2,8,3,nan,nan,nan,nan,nan,nan,nan,nan,nan,nan,nan,nan,0.0,nan,nan,nan,nan,nan,nan,nan,nan,nan,nan,nan,nan,nan,nan,nan,nan,nan,nan,7763.6373482635245,8176.115209499141,nan,8176.407175590517,nan,nan,nan,nan
1,202,1,1,1.0,1.0,0.36310475831851363,0,0.0,0.0,0.0,0.4096098331186701,0.17479030942344667,0.23481952369522344,0.5844001425421168,0.17479030942344667,0.3452793462201953,6,0,7,3,4,2,nan,nan,nan,nan,nan,nan,nan,nan,nan,nan,nan,nan,0.0,nan,nan,nan,nan,nan,nan,nan,nan,nan,nan,nan,nan,nan,nan,nan,nan,nan,nan,7763.6373482635245,8177.132063389989,nan,8177.495168148307,nan,nan,nan,nan
1,203,0,0,0.0,1.0,0.6659755876753479,0,0.0,0.0,0.0,0.4093378736169148,0.17431454663967996,0.23502332697723485,0.5836524202565948,0.17431454663967996,0.44034881245655316,1,2,8,6,5,3,nan,nan,nan,nan,nan,nan,nan,nan,nan,nan,nan,nan,0.0,nan,nan,nan,nan,nan,nan,nan,nan,nan,nan,nan,nan,nan,nan,nan,nan,nan,nan,7763.6373482635245,8178.157164329197,nan,8178.823139916873,nan,nan,nan,nan
1,204,1,1,nan,nan,nan,0,0.0,0.0,0.0,0.0,0.0,0.0,0.0,0.0,0.0,5,6,3,0,8,4,nan,nan,nan,nan,nan,nan,nan,nan,nan,nan,nan,nan,0.0,nan,nan,nan,nan,nan,nan,nan,nan,nan,nan,nan,nan,nan,nan,nan,nan,nan,nan,7763.6373482635245,8179.1739552132785,nan,nan,nan,nan,nan,nan
1,205,1,1,nan,nan,nan,0,0.0,0.0,0.0,0.0,0.0,0.0,0.0,0.0,0.0,2,0,6,8,4,1,nan,nan,nan,nan,nan,nan,nan,nan,nan,nan,nan,nan,0.0,nan,nan,nan,nan,nan,nan,nan,nan,nan,nan,nan,nan,nan,nan,nan,nan,nan,nan,7763.6373482635245,8180.199096636614,nan,nan,nan,nan,nan,nan
1,206,1,1,1.0,1.0,0.08723020390607417,1,1.0,0.0,1.0,0.4108299533498127,0.17489882378320915,0.23593112956660356,0.5857287771330218,0.17489882378320915,0.08723020390607417,6,7,8,0,5,4,1.0,1.0,1.0,1.0,1.0,1.0,0.0,0.0,1.0,0.0,0.0,0.0,1.0,1.0,2.0,8.0,6.0,0.0,1.0,2.0,4.0,3.0,1.0,5.0,6.0,2.6928888987749815,5.22769402526319,4.011863809544593,1.5397672683466226,8.298911664402112,8.994585406733677,7763.6373482635245,8181.215900635347,8182.02430979046,8181.303130839253,8192.06731749,8193.070514586056,8183.032802878879,8192.058980350615
1,207,1,1,nan,nan,nan,0,0.0,0.0,0.0,0.0,0.0,0.0,0.0,0.0,0.0,4,1,2,5,6,0,nan,nan,nan,nan,nan,nan,nan,nan,nan,nan,nan,nan,0.0,nan,nan,nan,nan,nan,nan,nan,nan,nan,nan,nan,nan,nan,nan,nan,nan,nan,nan,7763.6373482635245,8193.292530871928,nan,nan,nan,nan,nan,nan
1,208,1,1,1.0,1.0,0.7532343014609069,0,0.0,0.0,0.0,0.4089594345669009,0.17610956998676255,0.23284986458013837,0.5850690045536635,0.17610956998676255,0.4202322526834905,6,5,1,0,8,2,nan,nan,nan,nan,nan,nan,nan,nan,nan,nan,nan,nan,0.0,nan,nan,nan,nan,nan,nan,nan,nan,nan,nan,nan,nan,nan,nan,nan,nan,nan,nan,7763.6373482635245,8194.317642359762,nan,8195.070876661222,nan,nan,nan,nan
1,209,1,1,1.0,1.0,0.4964576493948698,1,0.0,1.0,1.0,0.4109380257559469,0.17752070391858069,0.23341732183736622,0.5884587296745276,0.17752070391858069,0.6248459754278883,8,2,7,4,3,6,1.0,1.0,1.0,1.0,1.0,1.0,0.0,0.0,0.0,0.0,0.0,0.0,0.0,1.0,6.0,8.0,1.0,5.0,2.0,3.0,2.0,1.0,6.0,5.0,4.0,4.971957698231563,3.8282075449824333,2.694786230335012,8.731540861306712,7.668428576318547,5.829293200746179,7763.6373482635245,8195.334449209506,8196.14286862826,8195.8309068589,8205.919173396425,8206.923120587133,8197.15134261502,8205.910850512097
1,210,1,1,1.0,1.0,0.406373037956655,0,0.0,0.0,0.0,0.4114267093195979,0.17713010988099145,0.23429659943860645,0.5885568192005893,0.17713010988099145,0.5520216629374772,6,7,4,0,1,2,nan,nan,nan,nan,nan,nan,nan,nan,nan,nan,nan,nan,0.0,nan,nan,nan,nan,nan,nan,nan,nan,nan,nan,nan,nan,nan,nan,nan,nan,nan,nan,7763.6373482635245,8207.144372808747,nan,8207.550745846704,nan,nan,nan,nan
1,211,1,1,1.0,1.0,0.43753773998469114,0,0.0,0.0,0.0,0.411397995277763,0.17662659096806513,0.23477140430969787,0.5880245862458281,0.17662659096806513,0.4467894757787387,2,1,0,3,8,6,nan,nan,nan,nan,nan,nan,nan,nan,nan,nan,nan,nan,0.0,nan,nan,nan,nan,nan,nan,nan,nan,nan,nan,nan,nan,nan,nan,nan,nan,nan,nan,7763.6373482635245,8208.161173671251,nan,8208.598711411236,nan,nan,nan,nan
1,212,0,0,0.0,1.0,0.6367355864495039,0,0.0,0.0,0.0,0.4115456774512485,0.17613783588879459,0.2354078415624539,0.5876835133400431,0.17613783588879459,0.49354878813028336,1,5,6,2,3,7,nan,nan,nan,nan,nan,nan,nan,nan,nan,nan,nan,nan,0.0,nan,nan,nan,nan,nan,nan,nan,nan,nan,nan,nan,nan,nan,nan,nan,nan,nan,nan,7763.6373482635245,8209.177965410752,nan,8209.814700997202,nan,nan,nan,nan
1,213,1,1,1.0,1.0,0.6199387153610587,0,0.0,0.0,0.0,0.4128107892995533,0.17644696651573563,0.23636382278381765,0.5892577558152889,0.17644696651573563,0.5647373472650846,4,6,2,0,8,1,nan,nan,nan,nan,nan,nan,nan,nan,nan,nan,nan,nan,0.0,nan,nan,nan,nan,nan,nan,nan,nan,nan,nan,nan,nan,nan,nan,nan,nan,nan,nan,7763.6373482635245,8210.194732916774,nan,8210.814671632135,nan,nan,nan,nan
1,214,1,1,1.0,1.0,0.635096839396283,1,0.0,1.0,1.0,0.41396792855129355,0.17662938183781068,0.23733854671348287,0.5905973103891042,0.17662938183781068,0.6305903804022819,7,5,3,8,0,4,1.0,1.0,1.0,1.0,1.0,1.0,0.0,1.0,0.0,0.0,0.0,0.0,1.0,1.0,5.0,6.0,2.0,3.0,8.0,3.0,4.0,2.0,1.0,6.0,5.0,2.9582244968041778,5.198196009732783,1.886016424978152,1.1281578235793859,8.198024380486459,7.334083427675068,7763.6373482635245,8211.21158053563,8212.019997103605,8211.846677375026,8221.271224595606,8222.2732485109,8213.036804238334,8221.262894583633
1,215,1,1,1.0,1.0,0.6540718644391745,0,0.0,0.0,0.0,0.41519642250043237,0.1769032588147076,0.23829316368572478,0.59209968131514,0.1769032588147076,0.6363691397321721,3,1,4,7,5,6,nan,nan,nan,nan,nan,nan,nan,nan,nan,nan,nan,nan,0.0,nan,nan,nan,nan,nan,nan,nan,nan,nan,nan,nan,nan,nan,nan,nan,nan,nan,nan,7763.6373482635245,8222.496436552145,nan,8223.150508416584,nan,nan,nan,nan
1,216,1,1,1.0,1.0,0.46926750731654465,0,0.0,0.0,0.0,0.41651617632329835,0.1773002503208006,0.23921592600249775,0.593816426644099,0.1773002503208006,0.586145403717334,6,3,7,4,0,2,nan,nan,nan,nan,nan,nan,nan,nan,nan,nan,nan,nan,0.0,nan,nan,nan,nan,nan,nan,nan,nan,nan,nan,nan,nan,nan,nan,nan,nan,nan,nan,7763.6373482635245,8223.513219168643,nan,8223.982486675959,nan,nan,nan,nan
1,217,1,1,1.0,1.0,0.452454385580495,0,0.0,0.0,0.0,0.4168060188012832,0.17685548470519347,0.23995053409608974,0.5936615035064767,0.17685548470519347,0.525264585778738,2,7,3,5,8,6,nan,nan,nan,nan,nan,nan,nan,nan,nan,nan,nan,nan,0.0,nan,nan,nan,nan,nan,nan,nan,nan,nan,nan,nan,nan,nan,nan,nan,nan,nan,nan,7763.6373482635245,8224.530020601349,nan,8224.98247498693,nan,nan,nan,nan
1,218,1,1,1.0,1.0,0.38763464498333633,0,0.0,0.0,0.0,0.41700081861974886,0.1763911889450783,0.24060962967467056,0.5933920075648271,0.1763911889450783,0.43645217929345864,7,8,1,3,2,0,nan,nan,nan,nan,nan,nan,nan,nan,nan,nan,nan,nan,0.0,nan,nan,nan,nan,nan,nan,nan,nan,nan,nan,nan,nan,nan,nan,nan,nan,nan,nan,7763.6373482635245,8225.546826025471,nan,8225.934460670454,nan,nan,nan,nan
1,219,1,1,1.0,1.0,0.5948152532801032,0,0.0,0.0,0.0,0.41684121984998573,0.17592446064049966,0.24091675920948608,0.5927656804904854,0.17592446064049966,0.4783014279479782,4,6,2,7,8,3,nan,nan,nan,nan,nan,nan,nan,nan,nan,nan,nan,nan,0.0,nan,nan,nan,nan,nan,nan,nan,nan,nan,nan,nan,nan,nan,nan,nan,nan,nan,nan,7763.6373482635245,8226.563630594406,nan,8227.158445847686,nan,nan,nan,nan
1,220,1,1,1.0,1.0,0.48901771544478834,0,0.0,0.0,0.0,0.4178032416523107,0.1759329733914919,0.2418702682608188,0.5937362150438026,0.1759329733914919,0.4904892045694093,2,7,4,0,3,6,nan,nan,nan,nan,nan,nan,nan,nan,nan,nan,nan,nan,0.0,nan,nan,nan,nan,nan,nan,nan,nan,nan,nan,nan,nan,nan,nan,nan,nan,nan,nan,7763.6373482635245,8227.581414191984,nan,8228.070431907428,nan,nan,nan,nan
1,221,1,1,1.0,1.0,0.4808462185319513,0,0.0,0.0,0.0,0.418186115167324,0.1755366624316307,0.2426494527356933,0.5937227775989548,0.1755366624316307,0.5215597290856143,3,8,5,6,1,4,nan,nan,nan,nan,nan,nan,nan,nan,nan,nan,nan,nan,0.0,nan,nan,nan,nan,nan,nan,nan,nan,nan,nan,nan,nan,nan,nan,nan,nan,nan,nan,7763.6373482635245,8228.605578582035,nan,8229.086424800567,nan,nan,nan,nan
1,222,1,1,1.0,1.0,0.47202070499770343,0,0.0,0.0,0.0,0.4185211959339798,0.17512631935825862,0.24339487657572118,0.5936475152922385,0.17512631935825862,0.480628212991481,1,3,8,7,0,5,nan,nan,nan,nan,nan,nan,nan,nan,nan,nan,nan,nan,0.0,nan,nan,nan,nan,nan,nan,nan,nan,nan,nan,nan,nan,nan,nan,nan,nan,nan,nan,7763.6373482635245,8229.622385146795,nan,8230.094405851793,nan,nan,nan,nan
1,223,1,1,1.0,1.0,0.4871762632392347,0,0.0,0.0,0.0,0.4188057677907017,0.1747032827836771,0.2441024850070246,0.5935090505743789,0.1747032827836771,0.4800143955896298,0,5,7,2,4,6,nan,nan,nan,nan,nan,nan,nan,nan,nan,nan,nan,nan,0.0,nan,nan,nan,nan,nan,nan,nan,nan,nan,nan,nan,nan,nan,nan,nan,nan,nan,nan,7763.6373482635245,8230.639201119542,nan,8231.126377382781,nan,nan,nan,nan
1,224,1,1,1.0,1.0,0.42209879332222044,0,0.0,0.0,0.0,0.41916751644386857,0.17431107555578268,0.2448564408880859,0.5934785919996513,0.17431107555578268,0.46043192051971954,7,4,6,5,1,0,nan,nan,nan,nan,nan,nan,nan,nan,nan,nan,nan,nan,0.0,nan,nan,nan,nan,nan,nan,nan,nan,nan,nan,nan,nan,nan,nan,nan,nan,nan,nan,7763.6373482635245,8231.664279821096,nan,8232.086378614418,nan,nan,nan,nan
1,225,1,1,1.0,1.0,0.4132353621535003,0,0.0,0.0,0.0,0.4191829442169125,0.1738518864128505,0.245331057804062,0.593034830629763,0.1738518864128505,0.4408368062383185,6,2,1,7,8,4,nan,nan,nan,nan,nan,nan,nan,nan,nan,nan,nan,nan,0.0,nan,nan,nan,nan,nan,nan,nan,nan,nan,nan,nan,nan,nan,nan,nan,nan,nan,nan,7763.6373482635245,8232.681126299314,nan,8233.094361661468,nan,nan,nan,nan
1,226,1,1,1.0,1.0,0.3960633010137826,0,0.0,0.0,0.0,0.41915180504380567,0.17339671075308463,0.24575509429072104,0.5925485157968903,0.17339671075308463,0.41046581882983446,7,5,0,8,1,3,nan,nan,nan,nan,nan,nan,nan,nan,nan,nan,nan,nan,0.0,nan,nan,nan,nan,nan,nan,nan,nan,nan,nan,nan,nan,nan,nan,nan,nan,nan,nan,7763.6373482635245,8233.706258599414,nan,8234.102321900427,nan,nan,nan,nan
1,227,1,1,1.0,1.0,0.379249608842656,0,0.0,0.0,0.0,0.41903155241864926,0.17295255233346943,0.24607900008517983,0.5919841047521187,0.17295255233346943,0.3961827573366463,1,3,8,6,0,2,nan,nan,nan,nan,nan,nan,nan,nan,nan,nan,nan,nan,0.0,nan,nan,nan,nan,nan,nan,nan,nan,nan,nan,nan,nan,nan,nan,nan,nan,nan,nan,7763.6373482635245,8234.723073146772,nan,8235.102322755614,nan,nan,nan,nan
1,228,1,1,1.0,1.0,0.3624558737501502,0,0.0,0.0,0.0,0.41882542835867004,0.17252754967932551,0.24629787867934452,0.5913529780379956,0.17252754967932551,0.3792562612021963,8,4,3,0,6,5,nan,nan,nan,nan,nan,nan,nan,nan,nan,nan,nan,nan,0.0,nan,nan,nan,nan,nan,nan,nan,nan,nan,nan,nan,nan,nan,nan,nan,nan,nan,nan,7763.6373482635245,8235.739855192835,nan,8236.102311066585,nan,nan,nan,nan
1,229,1,1,1.0,1.0,0.5452842118684202,0,0.0,0.0,0.0,0.4185348636441931,0.1721296553333602,0.24640520831083293,0.5906645189775533,0.1721296553333602,0.4289965648204088,3,5,1,4,0,7,nan,nan,nan,nan,nan,nan,nan,nan,nan,nan,nan,nan,0.0,nan,nan,nan,nan,nan,nan,nan,nan,nan,nan,nan,nan,nan,nan,nan,nan,nan,nan,7763.6373482635245,8236.76500231796,nan,8237.310286529828,nan,nan,nan,nan
1,230,1,1,1.0,1.0,0.5044569470919669,0,0.0,0.0,0.0,0.4191848603017533,0.17192626550412138,0.2472585947976319,0.5911111258058747,0.17192626550412138,0.4707323442368458,1,3,2,5,7,6,nan,nan,nan,nan,nan,nan,nan,nan,nan,nan,nan,nan,0.0,nan,nan,nan,nan,nan,nan,nan,nan,nan,nan,nan,nan,nan,nan,nan,nan,nan,nan,7763.6373482635245,8237.781814869493,nan,8238.286271816585,nan,nan,nan,nan
1,231,1,1,1.0,1.0,0.5993106884416193,0,0.0,0.0,0.0,0.4196199219690503,0.1715946989743782,0.24802522299467208,0.5912146209434285,0.1715946989743782,0.5496839491340021,4,7,8,2,1,5,nan,nan,nan,nan,nan,nan,nan,nan,nan,nan,nan,nan,0.0,nan,nan,nan,nan,nan,nan,nan,nan,nan,nan,nan,nan,nan,nan,nan,nan,nan,nan,7763.6373482635245,8238.806944318581,nan,8239.406255007023,nan,nan,nan,nan
1,232,1,1,1.0,1.0,0.6144850633572787,0,0.0,0.0,0.0,0.4205320578394694,0.1716343363928962,0.2488977214465732,0.5921663942323656,0.1716343363928962,0.5727508996302882,5,8,6,3,0,1,nan,nan,nan,nan,nan,nan,nan,nan,nan,nan,nan,nan,0.0,nan,nan,nan,nan,nan,nan,nan,nan,nan,nan,nan,nan,nan,nan,nan,nan,nan,nan,7763.6373482635245,8239.823745181318,nan,8240.438230244676,nan,nan,nan,nan
1,233,1,1,1.0,1.0,0.6857143915258348,1,0.0,1.0,1.0,0.42151161847339774,0.1717515504927475,0.24976006798065023,0.5932631689661453,0.1717515504927475,0.6331700477749109,2,7,5,0,3,4,1.0,1.0,1.0,1.0,1.0,1.0,0.0,0.0,1.0,0.0,0.0,0.0,1.0,4.0,3.0,5.0,6.0,1.0,2.0,4.0,3.0,1.0,2.0,6.0,5.0,5.59363237884827,4.8348141356837,2.4817687976174057,3.5135564401280135,7.512753602350131,6.785117737250403,7763.6373482635245,8240.840541767422,8241.648962611798,8241.526256158948,8250.208434472093,8251.210902856197,8242.657453704393,8250.200111587765
1,234,1,1,1.0,1.0,0.3084396608173847,0,0.0,0.0,0.0,0.4228392705992894,0.17233504479237693,0.25050422580691245,0.5951743153916663,0.17233504479237693,0.5362130385668328,3,5,8,1,0,2,nan,nan,nan,nan,nan,nan,nan,nan,nan,nan,nan,nan,0.0,nan,nan,nan,nan,nan,nan,nan,nan,nan,nan,nan,nan,nan,nan,nan,nan,nan,nan,7763.6373482635245,8251.433647284051,nan,8251.742086944869,nan,nan,nan,nan
1,235,1,1,1.0,1.0,0.31562813790515065,0,0.0,0.0,0.0,0.4222672725503799,0.17209293999782768,0.25017433255255217,0.5943602125482076,0.17209293999782768,0.4365940634161234,0,2,5,7,4,6,nan,nan,nan,nan,nan,nan,nan,nan,nan,nan,nan,nan,0.0,nan,nan,nan,nan,nan,nan,nan,nan,nan,nan,nan,nan,nan,nan,nan,nan,nan,nan,7763.6373482635245,8252.450437027728,nan,8252.766065165633,nan,nan,nan,nan
1,236,1,1,1.0,1.0,0.4348273070063442,0,0.0,0.0,0.0,0.42173672959194586,0.1718282048418697,0.24990852475007616,0.5935649344338155,0.1718282048418697,0.35296503524295986,4,1,7,2,0,8,nan,nan,nan,nan,nan,nan,nan,nan,nan,nan,nan,nan,0.0,nan,nan,nan,nan,nan,nan,nan,nan,nan,nan,nan,nan,nan,nan,nan,nan,nan,nan,7763.6373482635245,8253.467225061031,nan,8253.902052368037,nan,nan,nan,nan
1,237,0,0,0.0,1.0,0.698002427816391,0,0.0,0.0,0.0,0.421801534430631,0.17140482222700199,0.250396712203629,0.593206356657633,0.17140482222700199,0.48281929090929526,2,3,1,7,8,5,nan,nan,nan,nan,nan,nan,nan,nan,nan,nan,nan,nan,0.0,nan,nan,nan,nan,nan,nan,nan,nan,nan,nan,nan,nan,nan,nan,nan,nan,nan,nan,7763.6373482635245,8254.484026208753,nan,8255.18202863657,nan,nan,nan,nan
1,238,1,1,1.0,1.0,0.7291711212601513,1,0.0,1.0,1.0,0.42316212996455105,0.1720721720860927,0.25108995787845834,0.5952343020506438,0.1720721720860927,0.6206669520276288,6,5,8,4,1,3,1.0,1.0,1.0,1.0,1.0,1.0,0.0,0.0,0.0,0.0,0.0,0.0,0.0,5.0,1.0,3.0,7.0,0.0,4.0,4.0,3.0,2.0,1.0,6.0,5.0,4.805683327140287,2.709890470840037,1.9083544733002782,1.076600871514529,9.316073746886104,6.9729410032741725,7763.6373482635245,8255.500833913684,8256.309260745067,8256.230005034944,8266.677299135365,8267.68426865642,8257.326062462991,8266.668963991571
1,239,0,0,0.0,1.0,0.7113319293130189,0,0.0,0.0,0.0,0.42466217403952944,0.1729753390317721,0.25168683500775735,0.5976375130713015,0.1729753390317721,0.7128351594631871,1,0,7,5,2,6,nan,nan,nan,nan,nan,nan,nan,nan,nan,nan,nan,nan,0.0,nan,nan,nan,nan,nan,nan,nan,nan,nan,nan,nan,nan,nan,nan,nan,nan,nan,nan,7763.6373482635245,8267.902492275462,nan,8268.613824204775,nan,nan,nan,nan
1,240,1,1,1.0,1.0,0.6942485342733562,0,0.0,0.0,0.0,0.426060563089644,0.1737050222819683,0.25235554080767575,0.5997655853716123,0.1737050222819683,0.7115838616155088,2,6,1,8,4,3,nan,nan,nan,nan,nan,nan,nan,nan,nan,nan,nan,nan,0.0,nan,nan,nan,nan,nan,nan,nan,nan,nan,nan,nan,nan,nan,nan,nan,nan,nan,nan,7763.6373482635245,8268.927622864721,nan,8269.621871398995,nan,nan,nan,nan
1,241,1,1,1.0,1.0,0.6613481517415494,1,0.0,1.0,1.0,0.4273624464449048,0.17428257611469009,0.25307987033021473,0.6016450225595948,0.17428257611469009,0.6889762051093081,6,4,3,2,8,5,1.0,1.0,1.0,1.0,1.0,1.0,0.0,0.0,0.0,0.0,0.0,0.0,0.0,0.0,1.0,7.0,5.0,3.0,6.0,4.0,3.0,2.0,1.0,6.0,5.0,5.56807414162904,4.569089662982151,2.536594405537471,1.648722273297608,8.664423225447536,7.7849261509254575,7763.6373482635245,8269.944431139855,8270.752846567426,8270.605779291596,8280.470809606137,8281.474474263843,8271.769661684986,8280.462485010969
1,242,1,1,1.0,1.0,0.38961864658631384,0,0.0,0.0,0.0,0.4284928121709755,0.17461641309266515,0.2538763990783104,0.6031092252636406,0.17461641309266515,0.5817384442004064,1,3,5,6,4,7,nan,nan,nan,nan,nan,nan,nan,nan,nan,nan,nan,nan,0.0,nan,nan,nan,nan,nan,nan,nan,nan,nan,nan,nan,nan,nan,nan,nan,nan,nan,nan,7763.6373482635245,8281.696009018226,nan,8282.085627664812,nan,nan,nan,nan
1,243,1,1,1.0,1.0,0.4284276980906725,0,0.0,0.0,0.0,0.4283059171441262,0.17421690892170746,0.25408900822241876,0.6025228260658336,0.17421690892170746,0.49313149880617857,2,7,0,8,1,3,nan,nan,nan,nan,nan,nan,nan,nan,nan,nan,nan,nan,0.0,nan,nan,nan,nan,nan,nan,nan,nan,nan,nan,nan,nan,nan,nan,nan,nan,nan,nan,7763.6373482635245,8282.721144739538,nan,8283.14957243763,nan,nan,nan,nan
1,244,1,1,1.0,1.0,0.4272553725168109,0,0.0,0.0,0.0,0.42830649982808094,0.17379962251626516,0.25450687731181576,0.6021061223443461,0.17379962251626516,0.4151005723979324,5,2,4,6,8,0,nan,nan,nan,nan,nan,nan,nan,nan,nan,nan,nan,nan,0.0,nan,nan,nan,nan,nan,nan,nan,nan,nan,nan,nan,nan,nan,nan,nan,nan,nan,nan,7763.6373482635245,8283.746303268708,nan,8284.173558641225,nan,nan,nan,nan
1,245,1,1,1.0,1.0,0.3624541633762419,0,0.0,0.0,0.0,0.42830149445993204,0.1733853351854484,0.25491615927448363,0.6016868296453804,0.1733853351854484,0.40604574466124177,6,4,0,5,7,3,nan,nan,nan,nan,nan,nan,nan,nan,nan,nan,nan,nan,0.0,nan,nan,nan,nan,nan,nan,nan,nan,nan,nan,nan,nan,nan,nan,nan,nan,nan,nan,7763.6373482635245,8284.763114109635,nan,8285.125568273012,nan,nan,nan,nan
1,246,1,1,1.0,1.0,0.3936701831407845,0,0.0,0.0,0.0,0.42798942180076766,0.17303308942937318,0.2549563323713945,0.6010225112301408,0.17303308942937318,0.3944599063446124,1,7,3,8,2,0,nan,nan,nan,nan,nan,nan,nan,nan,nan,nan,nan,nan,0.0,nan,nan,nan,nan,nan,nan,nan,nan,nan,nan,nan,nan,nan,nan,nan,nan,nan,nan,7763.6373482635245,8285.779891879298,nan,8286.173562062439,nan,nan,nan,nan
1,247,0,0,0.0,1.0,0.5208241746295244,0,0.0,0.0,0.0,0.4278275385995413,0.1726405253745711,0.25518701322497017,0.6004680639741125,0.1726405253745711,0.42564950704885024,8,2,1,6,4,5,nan,nan,nan,nan,nan,nan,nan,nan,nan,nan,nan,nan,0.0,nan,nan,nan,nan,nan,nan,nan,nan,nan,nan,nan,nan,nan,nan,nan,nan,nan,nan,7763.6373482635245,8286.79670671164,nan,8287.31753088627,nan,nan,nan,nan
1,248,1,1,nan,nan,nan,0,0.0,0.0,0.0,0.0,0.0,0.0,0.0,0.0,0.0,6,1,4,7,0,2,nan,nan,nan,nan,nan,nan,nan,nan,nan,nan,nan,nan,0.0,nan,nan,nan,nan,nan,nan,nan,nan,nan,nan,nan,nan,nan,nan,nan,nan,nan,nan,7763.6373482635245,8287.813490753528,nan,nan,nan,nan,nan,nan
1,249,1,1,1.0,1.0,0.6788403785321862,0,0.0,0.0,0.0,0.4282641425245647,0.17235206603480852,0.25591207648975617,0.6006162085593731,0.17235206603480852,0.5998322765808553,7,6,1,0,3,5,nan,nan,nan,nan,nan,nan,nan,nan,nan,nan,nan,nan,0.0,nan,nan,nan,nan,nan,nan,nan,nan,nan,nan,nan,nan,nan,nan,nan,nan,nan,nan,7763.6373482635245,8288.838625334203,nan,8289.517465712735,nan,nan,nan,nan
1,250,1,1,1.0,1.0,0.677742748754099,1,0.0,1.0,1.0,0.4294350595152545,0.172796001355023,0.2566390581602315,0.6022310608702774,0.172796001355023,0.6782915636431426,6,0,5,1,2,8,1.0,1.0,1.0,1.0,1.0,1.0,0.0,0.0,0.0,0.0,0.0,0.0,0.0,8.0,2.0,1.0,6.0,4.0,3.0,4.0,1.0,2.0,3.0,6.0,5.0,4.137690951814875,1.1150954593904316,2.2992021800018847,3.122151080518961,6.529089184012264,5.305807060096413,7763.6373482635245,8289.855741230771,8290.663851317717,8290.533483979525,8298.239866881864,8299.24262977275,8291.67232216848,8298.231535444502
1,251,1,1,1.0,1.0,0.46830216352827847,0,0.0,0.0,0.0,0.43058997900008633,0.1732195805461234,0.2573703984539629,0.6038095595462097,0.1732195805461234,0.6082950969381878,7,3,4,5,0,2,nan,nan,nan,nan,nan,nan,nan,nan,nan,nan,nan,nan,0.0,nan,nan,nan,nan,nan,nan,nan,nan,nan,nan,nan,nan,nan,nan,nan,nan,nan,nan,7763.6373482635245,8299.465060877148,nan,8299.933363040676,nan,nan,nan,nan
1,252,0,0,0.0,1.0,0.6034870983567089,0,0.0,0.0,0.0,0.43076457244697614,0.172837104691324,0.2579274677556521,0.6036016771383002,0.172837104691324,0.5831773368796954,8,1,6,3,4,0,nan,nan,nan,nan,nan,nan,nan,nan,nan,nan,nan,nan,0.0,nan,nan,nan,nan,nan,nan,nan,nan,nan,nan,nan,nan,nan,nan,nan,nan,nan,nan,7763.6373482635245,8300.481853186851,nan,8301.085340285208,nan,nan,nan,nan
1,253,1,1,1.0,1.0,0.7146727154031396,0,0.0,0.0,0.0,0.431560528787574,0.17283474405243024,0.25872578473514374,0.6043952728400043,0.17283474405243024,0.595487325762709,4,6,1,5,2,8,nan,nan,nan,nan,nan,nan,nan,nan,nan,nan,nan,nan,0.0,nan,nan,nan,nan,nan,nan,nan,nan,nan,nan,nan,nan,nan,nan,nan,nan,nan,nan,7763.6373482635245,8301.49865005794,nan,8302.213322773343,nan,nan,nan,nan
1,254,1,1,nan,nan,nan,0,0.0,0.0,0.0,0.0,0.0,0.0,0.0,0.0,0.0,3,4,5,2,7,1,nan,nan,nan,nan,nan,nan,nan,nan,nan,nan,nan,nan,0.0,nan,nan,nan,nan,nan,nan,nan,nan,nan,nan,nan,nan,nan,nan,nan,nan,nan,nan,7763.6373482635245,8302.515454056673,nan,nan,nan,nan,nan,nan
1,255,1,1,nan,nan,nan,0,0.0,0.0,0.0,0.0,0.0,0.0,0.0,0.0,0.0,6,2,0,8,1,4,nan,nan,nan,nan,nan,nan,nan,nan,nan,nan,nan,nan,0.0,nan,nan,nan,nan,nan,nan,nan,nan,nan,nan,nan,nan,nan,nan,nan,nan,nan,nan,7763.6373482635245,8303.532248361968,nan,nan,nan,nan,nan,nan
1,256,0,0,nan,nan,nan,0,0.0,0.0,0.0,0.0,0.0,0.0,0.0,0.0,0.0,4,3,2,1,7,6,nan,nan,nan,nan,nan,nan,nan,nan,nan,nan,nan,nan,0.0,nan,nan,nan,nan,nan,nan,nan,nan,nan,nan,nan,nan,nan,nan,nan,nan,nan,nan,7763.6373482635245,8304.55739577231,nan,nan,nan,nan,nan,nan
1,257,1,1,nan,nan,nan,0,0.0,0.0,0.0,0.0,0.0,0.0,0.0,0.0,0.0,3,8,5,2,1,0,nan,nan,nan,nan,nan,nan,nan,nan,nan,nan,nan,nan,0.0,nan,nan,nan,nan,nan,nan,nan,nan,nan,nan,nan,nan,nan,nan,nan,nan,nan,nan,7763.6373482635245,8305.574190647807,nan,nan,nan,nan,nan,nan
1,258,1,1,1.0,1.0,0.18221623124554753,1,1.0,0.0,1.0,0.4328592085426913,0.17349584265512313,0.25936336588756814,0.6063550511978144,0.17349584265512313,0.18221623124554753,2,0,1,5,4,3,1.0,1.0,1.0,1.0,1.0,1.0,0.0,0.0,1.0,0.0,0.0,0.0,1.0,8.0,8.0,1.0,2.0,0.0,4.0,4.0,3.0,2.0,1.0,6.0,5.0,4.489249215461314,3.403425117954612,2.3224437057506293,1.2106622327119112,7.713070175843313,5.5938815551344305,7763.6373482635245,8306.59100633557,8307.399415205698,8306.773222566815,8316.167242280906,8317.166784982663,8308.41622661706,8316.158908562735
1,259,1,1,1.0,1.0,0.5729826847091317,0,0.0,0.0,0.0,0.4317147200618824,0.17392213474950036,0.257792585312382,0.6056368548113827,0.17392213474950036,0.3775994579773396,5,4,0,2,6,7,nan,nan,nan,nan,nan,nan,nan,nan,nan,nan,nan,nan,0.0,nan,nan,nan,nan,nan,nan,nan,nan,nan,nan,nan,nan,nan,nan,nan,nan,nan,nan,7763.6373482635245,8317.384115102468,nan,8317.957097787177,nan,nan,nan,nan
1,260,1,1,1.0,1.0,0.4921575067564845,0,0.0,0.0,0.0,0.4323568471739153,0.17378640216670801,0.2585704450072073,0.6061432493406234,0.17378640216670801,0.4157854742370546,1,7,5,6,0,8,nan,nan,nan,nan,nan,nan,nan,nan,nan,nan,nan,nan,0.0,nan,nan,nan,nan,nan,nan,nan,nan,nan,nan,nan,nan,nan,nan,nan,nan,nan,nan,7763.6373482635245,8318.400910548167,nan,8318.893068054924,nan,nan,nan,nan
1,261,1,1,1.0,1.0,0.515320630511269,0,0.0,0.0,0.0,0.43262743839374596,0.1734392186168008,0.2591882197769452,0.6060666570105467,0.1734392186168008,0.526820273992295,6,1,2,3,8,0,nan,nan,nan,nan,nan,nan,nan,nan,nan,nan,nan,nan,0.0,nan,nan,nan,nan,nan,nan,nan,nan,nan,nan,nan,nan,nan,nan,nan,nan,nan,nan,7763.6373482635245,8319.41773564415,nan,8319.933056274662,nan,nan,nan,nan
1,262,1,1,1.0,1.0,0.4581783111207187,0,0.0,0.0,0.0,0.43299993025013117,0.17313672519901305,0.25986320505111815,0.6061366554491442,0.17313672519901305,0.48855214946282405,1,5,7,0,4,8,nan,nan,nan,nan,nan,nan,nan,nan,nan,nan,nan,nan,0.0,nan,nan,nan,nan,nan,nan,nan,nan,nan,nan,nan,nan,nan,nan,nan,nan,nan,nan,7763.6373482635245,8320.442855114583,nan,8320.901033425704,nan,nan,nan,nan
1,263,1,1,1.0,1.0,0.5293657297734171,0,0.0,0.0,0.0,0.43311283778766746,0.17275628124238998,0.26035655654527745,0.6058691190300575,0.17275628124238998,0.5009548904684683,7,8,2,3,5,1,nan,nan,nan,nan,nan,nan,nan,nan,nan,nan,nan,nan,0.0,nan,nan,nan,nan,nan,nan,nan,nan,nan,nan,nan,nan,nan,nan,nan,nan,nan,nan,7763.6373482635245,8321.459656262305,nan,8321.989021992078,nan,nan,nan,nan
1,264,1,1,1.0,1.0,0.5685126231983304,0,0.0,0.0,0.0,0.4335425381983181,0.17248963029582765,0.26105290790249047,0.6060321684941458,0.17248963029582765,0.5186855546974888,3,6,5,8,0,2,nan,nan,nan,nan,nan,nan,nan,nan,nan,nan,nan,nan,0.0,nan,nan,nan,nan,nan,nan,nan,nan,nan,nan,nan,nan,nan,nan,nan,nan,nan,nan,7763.6373482635245,8322.47647765209,nan,8323.044990275288,nan,nan,nan,nan
1,265,1,1,1.0,1.0,0.5197325318586081,0,0.0,0.0,0.0,0.43414240524276265,0.17233990462116663,0.26180250062159605,0.6064823098639293,0.17233990462116663,0.5392036282767853,2,5,7,6,8,4,nan,nan,nan,nan,nan,nan,nan,nan,nan,nan,nan,nan,0.0,nan,nan,nan,nan,nan,nan,nan,nan,nan,nan,nan,nan,nan,nan,nan,nan,nan,nan,7763.6373482635245,8323.493258272763,nan,8324.012990804622,nan,nan,nan,nan
1,266,1,1,1.0,1.0,0.6229034557472914,0,0.0,0.0,0.0,0.434521122617169,0.1720520073204029,0.2624691152967661,0.606573129937572,0.1720520073204029,0.5703828702680767,4,1,0,2,6,5,nan,nan,nan,nan,nan,nan,nan,nan,nan,nan,nan,nan,0.0,nan,nan,nan,nan,nan,nan,nan,nan,nan,nan,nan,nan,nan,nan,nan,nan,nan,nan,7763.6373482635245,8324.51006483729,nan,8325.132968293037,nan,nan,nan,nan
1,267,1,1,1.0,1.0,0.5740911483298987,0,0.0,0.0,0.0,0.435351000736685,0.17212534411205838,0.2632256566246266,0.6074763448487434,0.17212534411205838,0.5722423786452661,5,3,1,6,7,4,nan,nan,nan,nan,nan,nan,nan,nan,nan,nan,nan,nan,0.0,nan,nan,nan,nan,nan,nan,nan,nan,nan,nan,nan,nan,nan,nan,nan,nan,nan,nan,7763.6373482635245,8325.526866269996,nan,8326.100957418326,nan,nan,nan,nan
1,268,1,1,1.0,1.0,0.621262428117916,0,0.0,0.0,0.0,0.43595951015595347,0.17199199085443206,0.2639675193015214,0.6079515010103855,0.17199199085443206,0.6060856773983687,0,6,4,7,1,8,nan,nan,nan,nan,nan,nan,nan,nan,nan,nan,nan,nan,0.0,nan,nan,nan,nan,nan,nan,nan,nan,nan,nan,nan,nan,nan,nan,nan,nan,nan,nan,7763.6373482635245,8326.543673974928,nan,8327.164936403045,nan,nan,nan,nan
1,269,1,1,1.0,1.0,0.5484046165365726,0,0.0,0.0,0.0,0.4367686932038223,0.1720504530037664,0.26471824020005585,0.6088191462075887,0.1720504530037664,0.5812527309947958,8,4,5,0,7,6,nan,nan,nan,nan,nan,nan,nan,nan,nan,nan,nan,nan,0.0,nan,nan,nan,nan,nan,nan,nan,nan,nan,nan,nan,nan,nan,nan,nan,nan,nan,nan,7763.6373482635245,8327.560539840022,nan,8328.108944456559,nan,nan,nan,nan
1,270,1,1,1.0,1.0,0.5876367546152323,0,0.0,0.0,0.0,0.4372540667835299,0.17183307702783138,0.2654209897556985,0.6090871438113613,0.17183307702783138,0.5857679330899069,5,6,8,4,2,1,nan,nan,nan,nan,nan,nan,nan,nan,nan,nan,nan,nan,0.0,nan,nan,nan,nan,nan,nan,nan,nan,nan,nan,nan,nan,nan,nan,nan,nan,nan,nan,7763.6373482635245,8328.577271708753,nan,8329.164908463368,nan,nan,nan,nan
1,271,1,1,1.0,1.0,0.5308111796621233,0,0.0,0.0,0.0,0.43790507409016066,0.17174475820866153,0.26616031588149913,0.6096498322988222,0.17174475820866153,0.5556175169379761,6,0,5,3,8,7,nan,nan,nan,nan,nan,nan,nan,nan,nan,nan,nan,nan,0.0,nan,nan,nan,nan,nan,nan,nan,nan,nan,nan,nan,nan,nan,nan,nan,nan,nan,nan,7763.6373482635245,8329.594094238942,nan,8330.124905418605,nan,nan,nan,nan
1,272,1,1,1.0,1.0,0.521984811173752,0,0.0,0.0,0.0,0.43830553144176393,0.1714822657851869,0.266823265656577,0.6097877972269509,0.1714822657851869,0.5468109151503692,7,8,1,2,0,3,nan,nan,nan,nan,nan,nan,nan,nan,nan,nan,nan,nan,0.0,nan,nan,nan,nan,nan,nan,nan,nan,nan,nan,nan,nan,nan,nan,nan,nan,nan,nan,7763.6373482635245,8330.610891680233,nan,8331.132876491407,nan,nan,nan,nan
1,273,1,1,1.0,1.0,0.47320015798322856,0,0.0,0.0,0.0,0.4386646699813862,0.1712012973819811,0.2674633725994051,0.6098659673633673,0.1712012973819811,0.5086653829397013,6,0,8,5,3,1,nan,nan,nan,nan,nan,nan,nan,nan,nan,nan,nan,nan,0.0,nan,nan,nan,nan,nan,nan,nan,nan,nan,nan,nan,nan,nan,nan,nan,nan,nan,nan,7763.6373482635245,8331.62768085394,nan,8332.100881011924,nan,nan,nan,nan
1,274,0,0,0.0,1.0,0.6883372992742807,0,0.0,0.0,0.0,0.43881225753694963,0.17084994450086524,0.2679623130360844,0.6096622020378148,0.17084994450086524,0.561174089477087,5,4,0,6,1,8,nan,nan,nan,nan,nan,nan,nan,nan,nan,nan,nan,nan,0.0,nan,nan,nan,nan,nan,nan,nan,nan,nan,nan,nan,nan,nan,nan,nan,nan,nan,nan,7763.6373482635245,8332.644520489732,nan,8333.332857789006,nan,nan,nan,nan
1,275,1,1,1.0,1.0,0.7275471994653344,1,0.0,1.0,1.0,0.4398740662251936,0.17125802886609767,0.2686160373590959,0.6111320950912913,0.17125802886609767,0.6296948855742812,6,0,5,7,2,1,1.0,1.0,1.0,1.0,1.0,1.0,0.0,0.0,0.0,0.0,0.0,0.0,0.0,5.0,4.0,0.0,6.0,8.0,3.0,2.0,4.0,3.0,1.0,5.0,6.0,2.731741000432521,4.443690453423187,3.619648484745994,1.7720103273168206,5.442214497830719,6.578315454768017,7763.6373482635245,8333.661291702185,8334.46976215369,8334.38883890165,8342.112386737484,8343.109211023897,8335.494852544274,8342.104058436118
1,276,1,1,1.0,1.0,0.6354609103873372,0,0.0,0.0,0.0,0.441093020179601,0.1719133798109497,0.2691796403686513,0.6130063999905507,0.1719133798109497,0.6837818030423174,4,2,8,1,5,6,nan,nan,nan,nan,nan,nan,nan,nan,nan,nan,nan,nan,0.0,nan,nan,nan,nan,nan,nan,nan,nan,nan,nan,nan,nan,nan,nan,nan,nan,nan,nan,7763.6373482635245,8343.32924615941,nan,8343.964707069797,nan,nan,nan,nan
1,277,1,1,1.0,1.0,0.5306213039439172,0,0.0,0.0,0.0,0.4419131378598024,0.17201232746391648,0.2699008103958859,0.6139254653237189,0.17201232746391648,0.6312098045988629,3,6,2,5,8,7,nan,nan,nan,nan,nan,nan,nan,nan,nan,nan,nan,nan,0.0,nan,nan,nan,nan,nan,nan,nan,nan,nan,nan,nan,nan,nan,nan,nan,nan,nan,nan,7763.6373482635245,8344.346054434543,nan,8344.876675738487,nan,nan,nan,nan
1,278,1,1,1.0,1.0,0.5218280067201704,0,0.0,0.0,0.0,0.44228586124671043,0.17174645599093402,0.2705394052557764,0.6140323172376445,0.17174645599093402,0.562636740350475,2,0,6,3,4,5,nan,nan,nan,nan,nan,nan,nan,nan,nan,nan,nan,nan,0.0,nan,nan,nan,nan,nan,nan,nan,nan,nan,nan,nan,nan,nan,nan,nan,nan,nan,nan,7763.6373482635245,8345.362848454854,nan,8345.884676461574,nan,nan,nan,nan
1,279,1,1,1.0,1.0,0.4169895409140736,0,0.0,0.0,0.0,0.44261867357086715,0.17146366736306362,0.27115500620780353,0.6140823409339308,0.17146366736306362,0.4898129505260537,7,6,1,0,3,8,nan,nan,nan,nan,nan,nan,nan,nan,nan,nan,nan,nan,0.0,nan,nan,nan,nan,nan,nan,nan,nan,nan,nan,nan,nan,nan,nan,nan,nan,nan,nan,7763.6373482635245,8346.379658725578,nan,8346.796648266492,nan,nan,nan,nan
