block,trial,freq_trials,correct_response,actual_response,acc,rts,probe_trials,trials_colorind0,trials_colorind1,trials_colorind2,trials_colorind3,trials_colorind4,trials_colorind5,wholereport_resp0,wholereport_resp1,wholereport_resp2,wholereport_resp3,wholereport_resp4,wholereport_resp5,wholereport_respacc0,wholereport_respacc1,wholereport_respacc2,wholereport_respacc3,wholereport_respacc4,wholereport_respacc5,wholereport_respacc_total,wholereport_respcolorind0,wholereport_respcolorind1,wholereport_respcolorind2,wholereport_respcolorind3,wholereport_respcolorind4,wholereport_respcolorind5,wholereport_resporder0,wholereport_resporder1,wholereport_resporder2,wholereport_resporder3,wholereport_resporder4,wholereport_resporder5,wholereport_rts0,wholereport_rts1,wholereport_rts2,wholereport_rts3,wholereport_rts4,wholereport_rts5,time_blockstart,time_encarray_offset,time_encarray_onset,time_response,time_iti_offset,time_iti_onset,time_memprobe_offset,time_memprobe_onset
1,1,1,1,1.0,1.0,0.6513452879153192,0,7,0,3,5,2,4,nan,nan,nan,nan,nan,nan,nan,nan,nan,nan,nan,nan,0.0,nan,nan,nan,nan,nan,nan,nan,nan,nan,nan,nan,nan,nan,nan,nan,nan,nan,nan,250.64274980255868,251.6634187103482,nan,252.31476399826352,nan,nan,nan,nan
1,2,1,1,1.0,1.0,0.3631757195107639,0,8,6,0,2,3,1,nan,nan,nan,nan,nan,nan,nan,nan,nan,nan,nan,nan,0.0,nan,nan,nan,nan,nan,nan,nan,nan,nan,nan,nan,nan,nan,nan,nan,nan,nan,nan,250.64274980255868,252.66361172311008,nan,253.02678744262084,nan,nan,nan,nan
1,3,1,1,1.0,1.0,0.4990690053673461,0,5,2,6,4,7,8,nan,nan,nan,nan,nan,nan,nan,nan,nan,nan,nan,nan,0.0,nan,nan,nan,nan,nan,nan,nan,nan,nan,nan,nan,nan,nan,nan,nan,nan,nan,nan,250.64274980255868,253.66369668301195,nan,254.1627656883793,nan,nan,nan,nan
1,4,1,1,1.0,1.0,0.43491348216775805,0,2,7,4,0,8,5,nan,nan,nan,nan,nan,nan,nan,nan,nan,nan,nan,nan,0.0,nan,nan,nan,nan,nan,nan,nan,nan,nan,nan,nan,nan,nan,nan,nan,nan,nan,nan,250.64274980255868,254.66382212704048,nan,255.09873560920823,nan,nan,nan,nan
1,5,1,1,1.0,1.0,0.39442555024288595,0,4,2,3,7,1,8,nan,nan,nan,nan,nan,nan,nan,nan,nan,nan,nan,nan,0.0,nan,nan,nan,nan,nan,nan,nan,nan,nan,nan,nan,nan,nan,nan,nan,nan,nan,nan,250.64274980255868,255.67230300209485,nan,256.06672855233774,nan,nan,nan,nan
1,6,0,0,0.0,1.0,0.4099258767673746,0,1,8,6,5,0,7,nan,nan,nan,nan,nan,nan,nan,nan,nan,nan,nan,nan,0.0,nan,nan,nan,nan,nan,nan,nan,nan,nan,nan,nan,nan,nan,nan,nan,nan,nan,nan,250.64274980255868,256.68077789014205,nan,257.0907037669094,nan,nan,nan,nan
1,7,1,1,1.0,1.0,0.3457934466423467,0,2,3,4,6,8,1,nan,nan,nan,nan,nan,nan,nan,nan,nan,nan,nan,nan,0.0,nan,nan,nan,nan,nan,nan,nan,nan,nan,nan,nan,nan,nan,nan,nan,nan,nan,nan,250.64274980255868,257.68090932129417,nan,258.0267027679365,nan,nan,nan,nan
1,8,1,1,1.0,1.0,0.441646407940425,0,0,8,7,4,2,5,nan,nan,nan,nan,nan,nan,nan,nan,nan,nan,nan,nan,0.0,nan,nan,nan,nan,nan,nan,nan,nan,nan,nan,nan,nan,nan,nan,nan,nan,nan,nan,250.64274980255868,258.68104531406425,nan,259.1226917220047,nan,nan,nan,nan
1,9,1,1,1.0,1.0,0.4895061751594767,0,1,7,5,0,6,8,nan,nan,nan,nan,nan,nan,nan,nan,nan,nan,nan,nan,0.0,nan,nan,nan,nan,nan,nan,nan,nan,nan,nan,nan,nan,nan,nan,nan,nan,nan,nan,250.64274980255868,259.6811787409242,nan,260.1706849160837,nan,nan,nan,nan
1,10,1,1,1.0,1.0,0.61733882362023,0,4,5,1,6,8,7,nan,nan,nan,nan,nan,nan,nan,nan,nan,nan,nan,nan,0.0,nan,nan,nan,nan,nan,nan,nan,nan,nan,nan,nan,nan,nan,nan,nan,nan,nan,nan,250.64274980255868,260.68133012915496,nan,261.2986689527752,nan,nan,nan,nan
1,11,0,0,0.0,1.0,0.6652082841610536,0,2,7,0,1,5,4,nan,nan,nan,nan,nan,nan,nan,nan,nan,nan,nan,nan,0.0,nan,nan,nan,nan,nan,nan,nan,nan,nan,nan,nan,nan,nan,nan,nan,nan,nan,nan,250.64274980255868,261.6814507265808,nan,262.34665901074186,nan,nan,nan,nan
1,12,1,1,1.0,1.0,0.6170676932670176,0,7,0,6,3,8,2,nan,nan,nan,nan,nan,nan,nan,nan,nan,nan,nan,nan,0.0,nan,nan,nan,nan,nan,nan,nan,nan,nan,nan,nan,nan,nan,nan,nan,nan,nan,nan,250.64274980255868,262.6815830130363,nan,263.2986507063033,nan,nan,nan,nan
1,13,1,1,1.0,1.0,0.6809261422604322,0,8,3,2,1,4,5,nan,nan,nan,nan,nan,nan,nan,nan,nan,nan,nan,nan,0.0,nan,nan,nan,nan,nan,nan,nan,nan,nan,nan,nan,nan,nan,nan,nan,nan,nan,nan,250.64274980255868,263.6817215717165,nan,264.3626477139769,nan,nan,nan,nan
1,14,1,1,1.0,1.0,0.6408407718408853,0,2,0,7,4,5,3,nan,nan,nan,nan,nan,nan,nan,nan,nan,nan,nan,nan,0.0,nan,nan,nan,nan,nan,nan,nan,nan,nan,nan,nan,nan,nan,nan,nan,nan,nan,nan,250.64274980255868,264.6818293395918,nan,265.32267011143267,nan,nan,nan,nan
1,15,1,1,1.0,1.0,0.656629049568437,0,1,4,6,8,3,0,nan,nan,nan,nan,nan,nan,nan,nan,nan,nan,nan,nan,0.0,nan,nan,nan,nan,nan,nan,nan,nan,nan,nan,nan,nan,nan,nan,nan,nan,nan,nan,250.64274980255868,265.6819932721555,nan,266.33862232172396,nan,nan,nan,nan
1,16,1,1,1.0,1.0,0.6804768242873251,0,5,7,8,6,4,1,nan,nan,nan,nan,nan,nan,nan,nan,nan,nan,nan,nan,0.0,nan,nan,nan,nan,nan,nan,nan,nan,nan,nan,nan,nan,nan,nan,nan,nan,nan,nan,250.64274980255868,266.6821477964986,nan,267.36262462078594,nan,nan,nan,nan
1,17,1,1,1.0,1.0,0.6563832933316007,0,6,3,1,8,2,4,nan,nan,nan,nan,nan,nan,nan,nan,nan,nan,nan,nan,0.0,nan,nan,nan,nan,nan,nan,nan,nan,nan,nan,nan,nan,nan,nan,nan,nan,nan,nan,250.64274980255868,267.6822316158796,nan,268.3386149092112,nan,nan,nan,nan
1,18,1,1,1.0,1.0,0.656181157217361,0,0,7,2,4,8,3,nan,nan,nan,nan,nan,nan,nan,nan,nan,nan,nan,nan,0.0,nan,nan,nan,nan,nan,nan,nan,nan,nan,nan,nan,nan,nan,nan,nan,nan,nan,nan,250.64274980255868,268.68242291815113,nan,269.3386040753685,nan,nan,nan,nan
1,19,1,1,1.0,1.0,0.6960378772346303,0,5,8,1,6,4,0,nan,nan,nan,nan,nan,nan,nan,nan,nan,nan,nan,nan,0.0,nan,nan,nan,nan,nan,nan,nan,nan,nan,nan,nan,nan,nan,nan,nan,nan,nan,nan,250.64274980255868,269.6825563450111,nan,270.37859422224574,nan,nan,nan,nan
1,20,1,1,1.0,1.0,0.6718576757702976,0,8,6,0,1,5,7,nan,nan,nan,nan,nan,nan,nan,nan,nan,nan,nan,nan,0.0,nan,nan,nan,nan,nan,nan,nan,nan,nan,nan,nan,nan,nan,nan,nan,nan,nan,nan,250.64274980255868,270.68269775470253,nan,271.35455543047283,nan,nan,nan,nan
1,21,1,1,1.0,1.0,0.511746269883588,0,1,7,8,3,6,4,nan,nan,nan,nan,nan,nan,nan,nan,nan,nan,nan,nan,0.0,nan,nan,nan,nan,nan,nan,nan,nan,nan,nan,nan,nan,nan,nan,nan,nan,nan,nan,250.64274980255868,271.6828160713194,nan,272.194562341203,nan,nan,nan,nan
1,22,1,1,1.0,1.0,0.6156022783834487,0,5,8,3,2,0,6,nan,nan,nan,nan,nan,nan,nan,nan,nan,nan,nan,nan,0.0,nan,nan,nan,nan,nan,nan,nan,nan,nan,nan,nan,nan,nan,nan,nan,nan,nan,nan,250.64274980255868,272.68295520020183,nan,273.2985574785853,nan,nan,nan,nan
1,23,1,1,1.0,1.0,0.6234545075567439,0,2,5,0,3,1,7,nan,nan,nan,nan,nan,nan,nan,nan,nan,nan,nan,nan,0.0,nan,nan,nan,nan,nan,nan,nan,nan,nan,nan,nan,nan,nan,nan,nan,nan,nan,nan,250.64274980255868,273.68309261847753,nan,274.3065471260343,nan,nan,nan,nan
1,24,1,1,1.0,1.0,0.583299572695978,0,0,1,4,8,7,6,nan,nan,nan,nan,nan,nan,nan,nan,nan,nan,nan,nan,0.0,nan,nan,nan,nan,nan,nan,nan,nan,nan,nan,nan,nan,nan,nan,nan,nan,nan,nan,250.64274980255868,274.68323773448355,nan,275.26653730717953,nan,nan,nan,nan
1,25,1,1,1.0,1.0,0.5191628660541028,0,7,3,5,0,4,1,nan,nan,nan,nan,nan,nan,nan,nan,nan,nan,nan,nan,0.0,nan,nan,nan,nan,nan,nan,nan,nan,nan,nan,nan,nan,nan,nan,nan,nan,nan,nan,250.64274980255868,275.6833734421525,nan,276.2025363082066,nan,nan,nan,nan
1,26,1,1,1.0,1.0,0.4790324498899281,0,1,5,4,6,0,2,nan,nan,nan,nan,nan,nan,nan,nan,nan,nan,nan,nan,0.0,nan,nan,nan,nan,nan,nan,nan,nan,nan,nan,nan,nan,nan,nan,nan,nan,nan,nan,250.64274980255868,276.68350145209115,nan,277.1625339019811,nan,nan,nan,nan
1,27,1,1,1.0,1.0,0.390924520092085,0,4,8,0,3,7,6,nan,nan,nan,nan,nan,nan,nan,nan,nan,nan,nan,nan,0.0,nan,nan,nan,nan,nan,nan,nan,nan,nan,nan,nan,nan,nan,nan,nan,nan,nan,nan,250.64274980255868,277.6836023775395,nan,278.0745268976316,nan,nan,nan,nan
1,28,0,0,0.0,1.0,0.44673744193278253,0,5,1,4,0,2,3,nan,nan,nan,nan,nan,nan,nan,nan,nan,nan,nan,nan,0.0,nan,nan,nan,nan,nan,nan,nan,nan,nan,nan,nan,nan,nan,nan,nan,nan,nan,nan,250.64274980255868,278.6837745780358,nan,279.1305120199686,nan,nan,nan,nan
1,29,1,1,1.0,1.0,0.33461238781455904,0,0,2,7,3,1,5,nan,nan,nan,nan,nan,nan,nan,nan,nan,nan,nan,nan,0.0,nan,nan,nan,nan,nan,nan,nan,nan,nan,nan,nan,nan,nan,nan,nan,nan,nan,nan,250.64274980255868,279.68388776283246,nan,280.018500150647,nan,nan,nan,nan
1,30,1,1,1.0,1.0,0.4544439847813919,0,3,5,0,7,4,8,nan,nan,nan,nan,nan,nan,nan,nan,nan,nan,nan,nan,0.0,nan,nan,nan,nan,nan,nan,nan,nan,nan,nan,nan,nan,nan,nan,nan,nan,nan,nan,250.64274980255868,280.68404627859127,nan,281.13849026337266,nan,nan,nan,nan
1,31,1,1,1.0,1.0,0.47029270383063704,0,6,3,8,2,1,5,nan,nan,nan,nan,nan,nan,nan,nan,nan,nan,nan,nan,0.0,nan,nan,nan,nan,nan,nan,nan,nan,nan,nan,nan,nan,nan,nan,nan,nan,nan,nan,250.64274980255868,281.68418113095686,nan,282.1544738347875,nan,nan,nan,nan
1,32,1,1,1.0,1.0,0.48614512907806784,0,4,0,1,6,3,2,nan,nan,nan,nan,nan,nan,nan,nan,nan,nan,nan,nan,0.0,nan,nan,nan,nan,nan,nan,nan,nan,nan,nan,nan,nan,nan,nan,nan,nan,nan,nan,250.64274980255868,282.6843205449404,nan,283.1704656740185,nan,nan,nan,nan
1,33,1,1,1.0,1.0,0.46999819530174136,0,5,3,0,7,1,4,nan,nan,nan,nan,nan,nan,nan,nan,nan,nan,nan,nan,0.0,nan,nan,nan,nan,nan,nan,nan,nan,nan,nan,nan,nan,nan,nan,nan,nan,nan,nan,250.64274980255868,283.68445824831724,nan,284.154456443619,nan,nan,nan,nan
1,34,1,1,1.0,1.0,0.45384641480632126,1,2,7,6,0,3,1,1.0,1.0,1.0,1.0,1.0,1.0,0.0,1.0,1.0,1.0,0.0,0.0,3.0,5.0,7.0,6.0,0.0,1.0,6.0,6.0,1.0,2.0,3.0,4.0,5.0,5.369010864873417,1.1392261069267988,1.9293028530664742,2.7463520718738437,3.5539696066407487,4.465113288839348,250.64274980255868,284.68459709209856,285.493026021868,285.1384435069049,291.91055523545947,292.91591911017895,286.50149064627476,291.9022391482722
1,35,1,1,nan,nan,nan,0,6,3,2,5,4,8,nan,nan,nan,nan,nan,nan,nan,nan,nan,nan,nan,nan,0.0,nan,nan,nan,nan,nan,nan,nan,nan,nan,nan,nan,nan,nan,nan,nan,nan,nan,nan,250.64274980255868,293.1190834940644,nan,nan,nan,nan,nan,nan
1,36,1,1,1.0,1.0,0.2752034973818809,0,0,7,6,1,8,3,nan,nan,nan,nan,nan,nan,nan,nan,nan,nan,nan,nan,0.0,nan,nan,nan,nan,nan,nan,nan,nan,nan,nan,nan,nan,nan,nan,nan,nan,nan,nan,250.64274980255868,294.1191849898314,nan,294.3943884872133,nan,nan,nan,nan
1,37,1,1,1.0,1.0,0.3229908491484821,0,8,2,0,5,6,7,nan,nan,nan,nan,nan,nan,nan,nan,nan,nan,nan,nan,0.0,nan,nan,nan,nan,nan,nan,nan,nan,nan,nan,nan,nan,nan,nan,nan,nan,nan,nan,250.64274980255868,295.1193708750652,nan,295.4423617242137,nan,nan,nan,nan
1,38,1,1,1.0,1.0,0.1948454458033666,1,6,5,2,7,0,8,1.0,1.0,1.0,1.0,1.0,1.0,1.0,1.0,0.0,0.0,1.0,0.0,3.0,6.0,5.0,1.0,0.0,0.0,1.0,5.0,1.0,2.0,3.0,4.0,6.0,5.550169506226666,1.0157862820196897,2.0546086586546153,2.990158341708593,3.6700986075447872,14.197526242700405,250.64274980255868,296.11950487212744,296.92792581918184,296.3143503179308,312.18832891096827,313.19577629782725,297.9530633871909,312.1799991389271
1,39,1,1,nan,nan,nan,0,1,2,6,8,3,7,nan,nan,nan,nan,nan,nan,nan,nan,nan,nan,nan,nan,0.0,nan,nan,nan,nan,nan,nan,nan,nan,nan,nan,nan,nan,nan,nan,nan,nan,nan,nan,250.64274980255868,313.39685517386533,nan,nan,nan,nan,nan,nan
1,40,1,1,1.0,1.0,0.6771807812619954,0,0,4,5,7,2,3,nan,nan,nan,nan,nan,nan,nan,nan,nan,nan,nan,nan,0.0,nan,nan,nan,nan,nan,nan,nan,nan,nan,nan,nan,nan,nan,nan,nan,nan,nan,nan,250.64274980255868,314.3969649374485,nan,315.0741457187105,nan,nan,nan,nan
1,41,1,1,1.0,1.0,0.4370072578312829,0,2,5,8,4,7,1,nan,nan,nan,nan,nan,nan,nan,nan,nan,nan,nan,nan,0.0,nan,nan,nan,nan,nan,nan,nan,nan,nan,nan,nan,nan,nan,nan,nan,nan,nan,nan,250.64274980255868,315.3971502525965,nan,315.83415751042776,nan,nan,nan,nan
1,42,1,1,1.0,1.0,0.42086830688640475,0,8,6,1,5,3,0,nan,nan,nan,nan,nan,nan,nan,nan,nan,nan,nan,nan,0.0,nan,nan,nan,nan,nan,nan,nan,nan,nan,nan,nan,nan,nan,nan,nan,nan,nan,nan,250.64274980255868,316.39728481986094,nan,316.81815312674735,nan,nan,nan,nan
1,43,1,1,1.0,1.0,0.332722173538059,0,7,0,2,4,6,1,nan,nan,nan,nan,nan,nan,nan,nan,nan,nan,nan,nan,0.0,nan,nan,nan,nan,nan,nan,nan,nan,nan,nan,nan,nan,nan,nan,nan,nan,nan,nan,250.64274980255868,317.3974094087025,nan,317.7301315822406,nan,nan,nan,nan
1,44,1,1,1.0,1.0,0.348260133410804,0,6,5,4,2,3,0,nan,nan,nan,nan,nan,nan,nan,nan,nan,nan,nan,nan,0.0,nan,nan,nan,nan,nan,nan,nan,nan,nan,nan,nan,nan,nan,nan,nan,nan,nan,nan,250.64274980255868,318.4058717521839,nan,318.7541318855947,nan,nan,nan,nan
1,45,1,1,1.0,1.0,0.3237916955258697,0,4,6,1,3,7,8,nan,nan,nan,nan,nan,nan,nan,nan,nan,nan,nan,nan,0.0,nan,nan,nan,nan,nan,nan,nan,nan,nan,nan,nan,nan,nan,nan,nan,nan,nan,nan,250.64274980255868,319.414337231894,nan,319.7381289274199,nan,nan,nan,nan
1,46,1,1,1.0,1.0,0.32361692911945283,0,1,3,4,5,6,7,nan,nan,nan,nan,nan,nan,nan,nan,nan,nan,nan,nan,0.0,nan,nan,nan,nan,nan,nan,nan,nan,nan,nan,nan,nan,nan,nan,nan,nan,nan,nan,250.64274980255868,320.41449973895214,nan,320.7381166680716,nan,nan,nan,nan
1,47,1,1,1.0,1.0,0.41148309397976846,0,4,8,7,0,2,3,nan,nan,nan,nan,nan,nan,nan,nan,nan,nan,nan,nan,0.0,nan,nan,nan,nan,nan,nan,nan,nan,nan,nan,nan,nan,nan,nan,nan,nan,nan,nan,250.64274980255868,321.4146217618836,nan,321.8261048558634,nan,nan,nan,nan
1,48,1,1,1.0,1.0,0.31501802266575396,0,2,7,0,3,1,6,nan,nan,nan,nan,nan,nan,nan,nan,nan,nan,nan,nan,0.0,nan,nan,nan,nan,nan,nan,nan,nan,nan,nan,nan,nan,nan,nan,nan,nan,nan,nan,250.64274980255868,322.42307526723016,nan,322.7380932898959,nan,nan,nan,nan
1,49,0,0,0.0,1.0,0.6428321965504438,0,1,4,6,8,5,0,nan,nan,nan,nan,nan,nan,nan,nan,nan,nan,nan,nan,0.0,nan,nan,nan,nan,nan,nan,nan,nan,nan,nan,nan,nan,nan,nan,nan,nan,nan,nan,250.64274980255868,323.4232414807193,nan,324.06607367726974,nan,nan,nan,nan
1,50,1,1,1.0,1.0,0.43468397634569556,0,2,7,0,6,1,3,nan,nan,nan,nan,nan,nan,nan,nan,nan,nan,nan,nan,0.0,nan,nan,nan,nan,nan,nan,nan,nan,nan,nan,nan,nan,nan,nan,nan,nan,nan,nan,250.64274980255868,324.423381179804,nan,324.8580651561497,nan,nan,nan,nan
1,51,1,1,1.0,1.0,0.3385772759793326,0,0,3,1,8,5,4,nan,nan,nan,nan,nan,nan,nan,nan,nan,nan,nan,nan,0.0,nan,nan,nan,nan,nan,nan,nan,nan,nan,nan,nan,nan,nan,nan,nan,nan,nan,nan,250.64274980255868,325.42347868403886,nan,325.7620559600182,nan,nan,nan,nan
1,52,1,1,1.0,1.0,0.33040773030370474,0,5,8,0,7,6,3,nan,nan,nan,nan,nan,nan,nan,nan,nan,nan,nan,nan,0.0,nan,nan,nan,nan,nan,nan,nan,nan,nan,nan,nan,nan,nan,nan,nan,nan,nan,nan,250.64274980255868,326.4236514547374,nan,326.7540591850411,nan,nan,nan,nan
1,53,0,0,nan,nan,nan,0,4,0,8,1,2,7,nan,nan,nan,nan,nan,nan,nan,nan,nan,nan,nan,nan,0.0,nan,nan,nan,nan,nan,nan,nan,nan,nan,nan,nan,nan,nan,nan,nan,nan,nan,nan,250.64274980255868,327.4321115174098,nan,nan,nan,nan,nan,nan
1,54,1,1,1.0,1.0,0.6897337421542034,0,0,8,7,4,5,2,nan,nan,nan,nan,nan,nan,nan,nan,nan,nan,nan,nan,0.0,nan,nan,nan,nan,nan,nan,nan,nan,nan,nan,nan,nan,nan,nan,nan,nan,nan,nan,250.64274980255868,328.4322651864495,nan,329.1219989286037,nan,nan,nan,nan
1,55,0,0,0.0,1.0,0.5216509352903813,0,4,2,1,7,6,5,nan,nan,nan,nan,nan,nan,nan,nan,nan,nan,nan,nan,0.0,nan,nan,nan,nan,nan,nan,nan,nan,nan,nan,nan,nan,nan,nan,nan,nan,nan,nan,250.64274980255868,329.43238464347087,nan,329.95403557876125,nan,nan,nan,nan
1,56,1,1,1.0,1.0,0.36946930596604943,0,7,5,2,8,1,6,nan,nan,nan,nan,nan,nan,nan,nan,nan,nan,nan,nan,0.0,nan,nan,nan,nan,nan,nan,nan,nan,nan,nan,nan,nan,nan,nan,nan,nan,nan,nan,250.64274980255868,330.43253660178743,nan,330.8020059077535,nan,nan,nan,nan
1,57,1,1,1.0,1.0,0.4493315683212131,0,1,8,3,0,6,4,nan,nan,nan,nan,nan,nan,nan,nan,nan,nan,nan,nan,0.0,nan,nan,nan,nan,nan,nan,nan,nan,nan,nan,nan,nan,nan,nan,nan,nan,nan,nan,250.64274980255868,331.43267259467393,nan,331.88200416299514,nan,nan,nan,nan
1,58,1,1,1.0,1.0,0.3691856312798336,0,3,1,5,4,7,8,nan,nan,nan,nan,nan,nan,nan,nan,nan,nan,nan,nan,0.0,nan,nan,nan,nan,nan,nan,nan,nan,nan,nan,nan,nan,nan,nan,nan,nan,nan,nan,250.64274980255868,332.43280801724177,nan,332.8019936485216,nan,nan,nan,nan
1,59,0,0,0.0,1.0,0.48902492597699165,0,7,8,1,5,6,0,nan,nan,nan,nan,nan,nan,nan,nan,nan,nan,nan,nan,0.0,nan,nan,nan,nan,nan,nan,nan,nan,nan,nan,nan,nan,nan,nan,nan,nan,nan,nan,250.64274980255868,333.43295284814667,nan,333.92197777412366,nan,nan,nan,nan
1,60,1,1,1.0,1.0,0.32887788268271834,0,6,1,5,2,8,4,nan,nan,nan,nan,nan,nan,nan,nan,nan,nan,nan,nan,0.0,nan,nan,nan,nan,nan,nan,nan,nan,nan,nan,nan,nan,nan,nan,nan,nan,nan,nan,250.64274980255868,334.43309511314146,nan,334.7619729958242,nan,nan,nan,nan
1,61,1,1,1.0,1.0,0.31276088452432305,0,3,0,2,5,4,6,nan,nan,nan,nan,nan,nan,nan,nan,nan,nan,nan,nan,0.0,nan,nan,nan,nan,nan,nan,nan,nan,nan,nan,nan,nan,nan,nan,nan,nan,nan,nan,250.64274980255868,335.4332082978217,nan,335.745969182346,nan,nan,nan,nan
1,62,1,1,1.0,1.0,0.28060044383164495,0,4,5,7,2,6,1,nan,nan,nan,nan,nan,nan,nan,nan,nan,nan,nan,nan,0.0,nan,nan,nan,nan,nan,nan,nan,nan,nan,nan,nan,nan,nan,nan,nan,nan,nan,nan,250.64274980255868,336.43335284362547,nan,336.7139532874571,nan,nan,nan,nan
1,63,1,1,1.0,1.0,0.38443335914053023,0,7,2,6,8,3,4,nan,nan,nan,nan,nan,nan,nan,nan,nan,nan,nan,nan,0.0,nan,nan,nan,nan,nan,nan,nan,nan,nan,nan,nan,nan,nan,nan,nan,nan,nan,nan,250.64274980255868,337.4335045169573,nan,337.81793787609786,nan,nan,nan,nan
1,64,1,1,1.0,1.0,0.34431406180374324,0,2,4,3,6,0,7,nan,nan,nan,nan,nan,nan,nan,nan,nan,nan,nan,nan,0.0,nan,nan,nan,nan,nan,nan,nan,nan,nan,nan,nan,nan,nan,nan,nan,nan,nan,nan,250.64274980255868,338.43363480770495,nan,338.7779488695087,nan,nan,nan,nan
1,65,1,1,1.0,1.0,0.3598409027326852,0,3,8,5,1,4,6,nan,nan,nan,nan,nan,nan,nan,nan,nan,nan,nan,nan,0.0,nan,nan,nan,nan,nan,nan,nan,nan,nan,nan,nan,nan,nan,nan,nan,nan,nan,nan,250.64274980255868,339.4420871727634,nan,339.8019280754961,nan,nan,nan,nan
1,66,1,1,1.0,1.0,0.35136002767831087,0,2,4,7,6,1,8,nan,nan,nan,nan,nan,nan,nan,nan,nan,nan,nan,nan,0.0,nan,nan,nan,nan,nan,nan,nan,nan,nan,nan,nan,nan,nan,nan,nan,nan,nan,nan,250.64274980255868,340.45055151195265,nan,340.80191153963096,nan,nan,nan,nan
1,67,1,1,1.0,1.0,0.35120721405837685,0,7,1,5,3,0,2,nan,nan,nan,nan,nan,nan,nan,nan,nan,nan,nan,nan,0.0,nan,nan,nan,nan,nan,nan,nan,nan,nan,nan,nan,nan,nan,nan,nan,nan,nan,nan,250.64274980255868,341.4506909259362,nan,341.8018981399946,nan,nan,nan,nan
1,68,1,1,1.0,1.0,0.5030763735994697,0,8,4,2,1,7,6,nan,nan,nan,nan,nan,nan,nan,nan,nan,nan,nan,nan,0.0,nan,nan,nan,nan,nan,nan,nan,nan,nan,nan,nan,nan,nan,nan,nan,nan,nan,nan,250.64274980255868,342.45083262072876,nan,342.95390899432823,nan,nan,nan,nan
1,69,0,0,nan,nan,nan,0,5,2,3,8,4,1,nan,nan,nan,nan,nan,nan,nan,nan,nan,nan,nan,nan,0.0,nan,nan,nan,nan,nan,nan,nan,nan,nan,nan,nan,nan,nan,nan,nan,nan,nan,nan,250.64274980255868,343.4509669030085,nan,nan,nan,nan,nan,nan
1,70,1,1,1.0,1.0,0.6227500250097364,0,4,5,8,6,2,0,nan,nan,nan,nan,nan,nan,nan,nan,nan,nan,nan,nan,0.0,nan,nan,nan,nan,nan,nan,nan,nan,nan,nan,nan,nan,nan,nan,nan,nan,nan,nan,250.64274980255868,344.45111971662845,nan,345.0738697416382,nan,nan,nan,nan
1,71,1,1,1.0,1.0,0.43862833734601736,0,3,7,6,8,0,1,nan,nan,nan,nan,nan,nan,nan,nan,nan,nan,nan,nan,0.0,nan,nan,nan,nan,nan,nan,nan,nan,nan,nan,nan,nan,nan,nan,nan,nan,nan,nan,250.64274980255868,345.45124088425655,nan,345.88986922160257,nan,nan,nan,nan
1,72,1,1,1.0,1.0,0.4224745612591505,0,1,2,5,7,6,4,nan,nan,nan,nan,nan,nan,nan,nan,nan,nan,nan,nan,0.0,nan,nan,nan,nan,nan,nan,nan,nan,nan,nan,nan,nan,nan,nan,nan,nan,nan,nan,250.64274980255868,346.4513825790491,nan,346.87385714030825,nan,nan,nan,nan
1,73,1,1,1.0,1.0,0.45432395755779,0,5,4,3,2,0,7,nan,nan,nan,nan,nan,nan,nan,nan,nan,nan,nan,nan,0.0,nan,nan,nan,nan,nan,nan,nan,nan,nan,nan,nan,nan,nan,nan,nan,nan,nan,nan,250.64274980255868,347.4515308311675,nan,347.90585478872526,nan,nan,nan,nan
1,74,1,1,1.0,1.0,0.31018585967831314,0,7,0,4,6,2,3,nan,nan,nan,nan,nan,nan,nan,nan,nan,nan,nan,nan,0.0,nan,nan,nan,nan,nan,nan,nan,nan,nan,nan,nan,nan,nan,nan,nan,nan,nan,nan,250.64274980255868,348.45165342418477,nan,348.7618392838631,nan,nan,nan,nan
1,75,1,1,1.0,1.0,0.46204760659020394,0,8,1,5,0,3,2,nan,nan,nan,nan,nan,nan,nan,nan,nan,nan,nan,nan,0.0,nan,nan,nan,nan,nan,nan,nan,nan,nan,nan,nan,nan,nan,nan,nan,nan,nan,nan,250.64274980255868,349.451801391202,nan,349.91384899779223,nan,nan,nan,nan
1,76,1,1,1.0,1.0,0.36589985177852213,1,0,3,6,8,1,4,1.0,1.0,1.0,1.0,1.0,1.0,0.0,0.0,1.0,0.0,0.0,0.0,1.0,3.0,0.0,6.0,7.0,0.0,1.0,3.0,2.0,1.0,6.0,5.0,4.0,3.690676568308845,2.8660701990593225,1.761593812610954,6.0093615495134145,5.225448669283651,4.426426334772259,250.64274980255868,350.45192826073617,351.2603554800153,350.8178281125147,358.31964776443783,359.32455890008714,352.26883036794607,358.3113245497225
1,77,1,1,1.0,1.0,0.7135926357004791,0,3,5,0,6,2,1,nan,nan,nan,nan,nan,nan,nan,nan,nan,nan,nan,nan,0.0,nan,nan,nan,nan,nan,nan,nan,nan,nan,nan,nan,nan,nan,nan,nan,nan,nan,nan,250.64274980255868,359.5281563511817,nan,360.24174898688216,nan,nan,nan,nan
1,78,1,1,1.0,1.0,0.5214205742813647,0,4,3,7,8,5,0,nan,nan,nan,nan,nan,nan,nan,nan,nan,nan,nan,nan,0.0,nan,nan,nan,nan,nan,nan,nan,nan,nan,nan,nan,nan,nan,nan,nan,nan,nan,nan,250.64274980255868,360.5283123010304,nan,361.04973287531175,nan,nan,nan,nan
1,79,1,1,1.0,1.0,0.36128293932415545,0,5,6,0,3,4,8,nan,nan,nan,nan,nan,nan,nan,nan,nan,nan,nan,nan,0.0,nan,nan,nan,nan,nan,nan,nan,nan,nan,nan,nan,nan,nan,nan,nan,nan,nan,nan,250.64274980255868,361.5284477235982,nan,361.8897306629224,nan,nan,nan,nan
1,80,1,1,1.0,1.0,0.34512944833841175,0,3,7,4,0,6,5,nan,nan,nan,nan,nan,nan,nan,nan,nan,nan,nan,nan,0.0,nan,nan,nan,nan,nan,nan,nan,nan,nan,nan,nan,nan,nan,nan,nan,nan,nan,nan,250.64274980255868,362.5285837163683,nan,362.8737131647067,nan,nan,nan,nan
1,81,1,1,1.0,1.0,0.3529888049233705,0,0,6,5,3,1,2,nan,nan,nan,nan,nan,nan,nan,nan,nan,nan,nan,nan,0.0,nan,nan,nan,nan,nan,nan,nan,nan,nan,nan,nan,nan,nan,nan,nan,nan,nan,nan,250.64274980255868,363.5287222750485,nan,363.88171107997186,nan,nan,nan,nan
1,82,1,1,1.0,1.0,0.30484222702216357,0,8,7,1,0,6,4,nan,nan,nan,nan,nan,nan,nan,nan,nan,nan,nan,nan,0.0,nan,nan,nan,nan,nan,nan,nan,nan,nan,nan,nan,nan,nan,nan,nan,nan,nan,nan,250.64274980255868,364.52885655721184,nan,364.833698784234,nan,nan,nan,nan
1,83,1,1,1.0,1.0,0.29669206822291017,0,6,5,7,8,0,3,nan,nan,nan,nan,nan,nan,nan,nan,nan,nan,nan,nan,0.0,nan,nan,nan,nan,nan,nan,nan,nan,nan,nan,nan,nan,nan,nan,nan,nan,nan,nan,250.64274980255868,365.52899312018417,nan,365.8256851884071,nan,nan,nan,nan
1,84,1,1,1.0,1.0,0.31253280432429165,0,7,2,3,5,4,1,nan,nan,nan,nan,nan,nan,nan,nan,nan,nan,nan,nan,0.0,nan,nan,nan,nan,nan,nan,nan,nan,nan,nan,nan,nan,nan,nan,nan,nan,nan,nan,250.64274980255868,366.52913395967335,nan,366.84166676399764,nan,nan,nan,nan
1,85,1,1,1.0,1.0,0.3443898984696716,0,4,0,1,6,8,7,nan,nan,nan,nan,nan,nan,nan,nan,nan,nan,nan,nan,0.0,nan,nan,nan,nan,nan,nan,nan,nan,nan,nan,nan,nan,nan,nan,nan,nan,nan,nan,250.64274980255868,367.5292705226457,nan,367.87366042111535,nan,nan,nan,nan
1,86,1,1,1.0,1.0,0.34425533120520413,0,1,6,8,4,0,3,nan,nan,nan,nan,nan,nan,nan,nan,nan,nan,nan,nan,0.0,nan,nan,nan,nan,nan,nan,nan,nan,nan,nan,nan,nan,nan,nan,nan,nan,nan,nan,250.64274980255868,368.52940537501127,nan,368.87366070621647,nan,nan,nan,nan
1,87,0,0,0.0,1.0,0.656035756226629,0,3,0,7,6,5,2,nan,nan,nan,nan,nan,nan,nan,nan,nan,nan,nan,nan,0.0,nan,nan,nan,nan,nan,nan,nan,nan,nan,nan,nan,nan,nan,nan,nan,nan,nan,nan,250.64274980255868,369.529618915054,nan,370.18565467128064,nan,nan,nan,nan
1,88,1,1,1.0,1.0,0.7199928497429937,0,6,4,3,7,8,0,nan,nan,nan,nan,nan,nan,nan,nan,nan,nan,nan,nan,0.0,nan,nan,nan,nan,nan,nan,nan,nan,nan,nan,nan,nan,nan,nan,nan,nan,nan,nan,250.64274980255868,370.529652271769,nan,371.249645121512,nan,nan,nan,nan
1,89,1,1,1.0,1.0,0.6158046994823962,0,7,2,4,1,0,8,nan,nan,nan,nan,nan,nan,nan,nan,nan,nan,nan,nan,0.0,nan,nan,nan,nan,nan,nan,nan,nan,nan,nan,nan,nan,nan,nan,nan,nan,nan,nan,250.64274980255868,371.52981734485365,nan,372.14562204433605,nan,nan,nan,nan
1,90,1,1,nan,nan,nan,0,1,0,6,8,7,3,nan,nan,nan,nan,nan,nan,nan,nan,nan,nan,nan,nan,0.0,nan,nan,nan,nan,nan,nan,nan,nan,nan,nan,nan,nan,nan,nan,nan,nan,nan,nan,250.64274980255868,372.5299359464552,nan,nan,nan,nan,nan,nan
1,91,1,1,1.0,1.0,0.6714839093619958,0,5,4,8,2,3,0,nan,nan,nan,nan,nan,nan,nan,nan,nan,nan,nan,nan,0.0,nan,nan,nan,nan,nan,nan,nan,nan,nan,nan,nan,nan,nan,nan,nan,nan,nan,nan,250.64274980255868,373.530085053877,nan,374.20156896323897,nan,nan,nan,nan
1,92,1,1,1.0,1.0,0.4073288992512971,0,3,2,4,0,8,6,nan,nan,nan,nan,nan,nan,nan,nan,nan,nan,nan,nan,0.0,nan,nan,nan,nan,nan,nan,nan,nan,nan,nan,nan,nan,nan,nan,nan,nan,nan,nan,250.64274980255868,374.5303091426613,nan,374.9376380419126,nan,nan,nan,nan
1,93,1,1,1.0,1.0,0.3272094764979556,0,6,1,5,7,2,4,nan,nan,nan,nan,nan,nan,nan,nan,nan,nan,nan,nan,0.0,nan,nan,nan,nan,nan,nan,nan,nan,nan,nan,nan,nan,nan,nan,nan,nan,nan,nan,250.64274980255868,375.53037043916993,nan,375.8575799156679,nan,nan,nan,nan
1,94,0,0,0.0,1.0,0.5111187645234168,0,2,7,4,1,8,5,nan,nan,nan,nan,nan,nan,nan,nan,nan,nan,nan,nan,0.0,nan,nan,nan,nan,nan,nan,nan,nan,nan,nan,nan,nan,nan,nan,nan,nan,nan,nan,250.64274980255868,376.5304750709329,nan,377.0415938354563,nan,nan,nan,nan
1,95,1,1,1.0,1.0,0.3029252134729177,0,8,2,0,4,6,3,nan,nan,nan,nan,nan,nan,nan,nan,nan,nan,nan,nan,0.0,nan,nan,nan,nan,nan,nan,nan,nan,nan,nan,nan,nan,nan,nan,nan,nan,nan,nan,250.64274980255868,377.5306401439011,nan,377.833565357374,nan,nan,nan,nan
1,96,1,1,1.0,1.0,0.3027589999837801,0,7,6,1,0,8,5,nan,nan,nan,nan,nan,nan,nan,nan,nan,nan,nan,nan,0.0,nan,nan,nan,nan,nan,nan,nan,nan,nan,nan,nan,nan,nan,nan,nan,nan,nan,nan,250.64274980255868,378.53079267253634,nan,378.8335516725201,nan,nan,nan,nan
1,97,1,1,1.0,1.0,0.4383095954544842,0,1,0,7,8,3,2,nan,nan,nan,nan,nan,nan,nan,nan,nan,nan,nan,nan,0.0,nan,nan,nan,nan,nan,nan,nan,nan,nan,nan,nan,nan,nan,nan,nan,nan,nan,nan,250.64274980255868,379.53923962067347,nan,379.97754921612795,nan,nan,nan,nan
1,98,1,1,1.0,1.0,0.3901516133919358,0,3,2,5,6,8,7,nan,nan,nan,nan,nan,nan,nan,nan,nan,nan,nan,nan,0.0,nan,nan,nan,nan,nan,nan,nan,nan,nan,nan,nan,nan,nan,nan,nan,nan,nan,nan,250.64274980255868,380.53938673238736,nan,380.9295383457793,nan,nan,nan,nan
1,99,1,1,1.0,1.0,0.39000963349826634,0,8,1,4,0,2,3,nan,nan,nan,nan,nan,nan,nan,nan,nan,nan,nan,nan,0.0,nan,nan,nan,nan,nan,nan,nan,nan,nan,nan,nan,nan,nan,nan,nan,nan,nan,nan,250.64274980255868,381.53952044434845,nan,381.9295300778467,nan,nan,nan,nan
1,100,1,1,1.0,1.0,0.2858505635522306,0,5,2,1,8,3,4,nan,nan,nan,nan,nan,nan,nan,nan,nan,nan,nan,nan,0.0,nan,nan,nan,nan,nan,nan,nan,nan,nan,nan,nan,nan,nan,nan,nan,nan,nan,nan,250.64274980255868,382.5396595732309,nan,382.8255101367831,nan,nan,nan,nan
1,101,1,1,1.0,1.0,0.25365876185242087,1,1,4,7,0,5,6,1.0,1.0,1.0,1.0,1.0,1.0,0.0,1.0,0.0,0.0,0.0,0.0,1.0,6.0,4.0,3.0,1.0,0.0,8.0,3.0,1.0,2.0,6.0,5.0,4.0,4.274854534654878,1.6906172675080597,3.1696907717268914,6.585157000343315,5.849922980181873,5.072862482746132,250.64274980255868,383.5398525861092,384.3482205044711,383.7935113479616,391.9825883617159,392.9890601359075,385.35670080932323,391.9742657173192
1,102,1,1,1.0,1.0,0.7782835771795362,0,5,0,4,8,7,1,nan,nan,nan,nan,nan,nan,nan,nan,nan,nan,nan,nan,0.0,nan,nan,nan,nan,nan,nan,nan,nan,nan,nan,nan,nan,nan,nan,nan,nan,nan,nan,250.64274980255868,393.1911197565496,nan,393.96940333372913,nan,nan,nan,nan
1,103,1,1,1.0,1.0,0.5221498606260866,0,7,3,8,4,0,2,nan,nan,nan,nan,nan,nan,nan,nan,nan,nan,nan,nan,0.0,nan,nan,nan,nan,nan,nan,nan,nan,nan,nan,nan,nan,nan,nan,nan,nan,nan,nan,250.64274980255868,394.1912668682635,nan,394.71341672888957,nan,nan,nan,nan
1,104,1,1,1.0,1.0,0.33001115603838116,0,2,1,4,8,7,5,nan,nan,nan,nan,nan,nan,nan,nan,nan,nan,nan,nan,0.0,nan,nan,nan,nan,nan,nan,nan,nan,nan,nan,nan,nan,nan,nan,nan,nan,nan,nan,250.64274980255868,395.19139886961784,nan,395.5214100256562,nan,nan,nan,nan
1,105,1,1,1.0,1.0,0.36183261254336685,0,8,4,5,2,3,7,nan,nan,nan,nan,nan,nan,nan,nan,nan,nan,nan,nan,0.0,nan,nan,nan,nan,nan,nan,nan,nan,nan,nan,nan,nan,nan,nan,nan,nan,nan,nan,250.64274980255868,396.1915613767924,nan,396.55339398933575,nan,nan,nan,nan
1,106,1,1,1.0,1.0,0.2977209946839139,0,2,3,7,5,1,8,nan,nan,nan,nan,nan,nan,nan,nan,nan,nan,nan,nan,0.0,nan,nan,nan,nan,nan,nan,nan,nan,nan,nan,nan,nan,nan,nan,nan,nan,nan,nan,250.64274980255868,397.1916668638587,nan,397.4893878585426,nan,nan,nan,nan
1,107,1,1,1.0,1.0,0.29757502337452024,0,1,0,3,6,4,5,nan,nan,nan,nan,nan,nan,nan,nan,nan,nan,nan,nan,0.0,nan,nan,nan,nan,nan,nan,nan,nan,nan,nan,nan,nan,nan,nan,nan,nan,nan,nan,250.64274980255868,398.19180627784226,nan,398.4893813012168,nan,nan,nan,nan
1,108,1,1,1.0,1.0,0.39344109932426363,0,8,5,7,2,0,1,nan,nan,nan,nan,nan,nan,nan,nan,nan,nan,nan,nan,0.0,nan,nan,nan,nan,nan,nan,nan,nan,nan,nan,nan,nan,nan,nan,nan,nan,nan,nan,250.64274980255868,399.19193628348876,nan,399.585377382813,nan,nan,nan,nan
1,109,0,0,0.0,1.0,0.7452789548551664,0,1,0,5,7,8,4,nan,nan,nan,nan,nan,nan,nan,nan,nan,nan,nan,nan,0.0,nan,nan,nan,nan,nan,nan,nan,nan,nan,nan,nan,nan,nan,nan,nan,nan,nan,nan,250.64274980255868,400.19208453560714,nan,400.9373634904623,nan,nan,nan,nan
1,110,1,1,1.0,1.0,0.6411332846619189,0,2,4,6,8,5,7,nan,nan,nan,nan,nan,nan,nan,nan,nan,nan,nan,nan,0.0,nan,nan,nan,nan,nan,nan,nan,nan,nan,nan,nan,nan,nan,nan,nan,nan,nan,nan,250.64274980255868,401.19221368595026,nan,401.8333469706122,nan,nan,nan,nan
1,111,1,1,1.0,1.0,0.4890001224121079,0,8,5,1,3,6,0,nan,nan,nan,nan,nan,nan,nan,nan,nan,nan,nan,nan,0.0,nan,nan,nan,nan,nan,nan,nan,nan,nan,nan,nan,nan,nan,nan,nan,nan,nan,nan,250.64274980255868,402.19234369159676,nan,402.68134381400887,nan,nan,nan,nan
1,112,1,1,1.0,1.0,0.46484957123175263,0,0,2,6,7,5,8,nan,nan,nan,nan,nan,nan,nan,nan,nan,nan,nan,nan,0.0,nan,nan,nan,nan,nan,nan,nan,nan,nan,nan,nan,nan,nan,nan,nan,nan,nan,nan,250.64274980255868,403.19248709699605,nan,403.6573366682278,nan,nan,nan,nan
1,113,1,1,1.0,1.0,0.41669329977594316,0,3,1,8,2,0,4,nan,nan,nan,nan,nan,nan,nan,nan,nan,nan,nan,nan,0.0,nan,nan,nan,nan,nan,nan,nan,nan,nan,nan,nan,nan,nan,nan,nan,nan,nan,nan,250.64274980255868,404.1926239450695,nan,404.60931724484544,nan,nan,nan,nan
1,114,1,1,1.0,1.0,0.4085639532422647,0,4,3,2,7,5,1,nan,nan,nan,nan,nan,nan,nan,nan,nan,nan,nan,nan,0.0,nan,nan,nan,nan,nan,nan,nan,nan,nan,nan,nan,nan,nan,nan,nan,nan,nan,nan,250.64274980255868,405.192743687192,nan,405.60130764043424,nan,nan,nan,nan
1,115,1,1,nan,nan,nan,0,5,1,4,0,8,7,nan,nan,nan,nan,nan,nan,nan,nan,nan,nan,nan,nan,0.0,nan,nan,nan,nan,nan,nan,nan,nan,nan,nan,nan,nan,nan,nan,nan,nan,nan,nan,250.64274980255868,406.20120317977853,nan,nan,nan,nan,nan,nan
1,116,1,1,nan,nan,nan,0,6,4,1,5,7,3,nan,nan,nan,nan,nan,nan,nan,nan,nan,nan,nan,nan,0.0,nan,nan,nan,nan,nan,nan,nan,nan,nan,nan,nan,nan,nan,nan,nan,nan,nan,nan,250.64274980255868,407.20136682724115,nan,nan,nan,nan,nan,nan
1,117,1,1,1.0,1.0,0.7037293099565431,0,4,0,2,3,5,8,nan,nan,nan,nan,nan,nan,nan,nan,nan,nan,nan,nan,0.0,nan,nan,nan,nan,nan,nan,nan,nan,nan,nan,nan,nan,nan,nan,nan,nan,nan,nan,250.64274980255868,408.20150567102246,nan,408.905234980979,nan,nan,nan,nan
1,118,1,1,1.0,1.0,0.479624888044782,0,6,7,0,8,1,2,nan,nan,nan,nan,nan,nan,nan,nan,nan,nan,nan,nan,0.0,nan,nan,nan,nan,nan,nan,nan,nan,nan,nan,nan,nan,nan,nan,nan,nan,nan,nan,250.64274980255868,409.2016462254105,nan,409.6812711134553,nan,nan,nan,nan
1,119,1,1,1.0,1.0,0.45547120075207204,0,8,0,5,6,2,4,nan,nan,nan,nan,nan,nan,nan,nan,nan,nan,nan,nan,0.0,nan,nan,nan,nan,nan,nan,nan,nan,nan,nan,nan,nan,nan,nan,nan,nan,nan,nan,250.64274980255868,410.2017822181806,nan,410.65725341893267,nan,nan,nan,nan
1,120,0,0,1.0,0.0,0.3353342614136636,0,1,3,6,2,4,8,nan,nan,nan,nan,nan,nan,nan,nan,nan,nan,nan,nan,0.0,nan,nan,nan,nan,nan,nan,nan,nan,nan,nan,nan,nan,nan,nan,nan,nan,nan,nan,250.64274980255868,411.2019187811529,nan,411.5372530425666,nan,nan,nan,nan
1,121,1,1,1.0,1.0,0.4151862602448091,0,5,1,8,4,7,2,nan,nan,nan,nan,nan,nan,nan,nan,nan,nan,nan,nan,0.0,nan,nan,nan,nan,nan,nan,nan,nan,nan,nan,nan,nan,nan,nan,nan,nan,nan,nan,250.64274980255868,412.202059335541,nan,412.6172455957858,nan,nan,nan,nan
1,122,1,1,1.0,1.0,0.4230313617736101,0,8,7,4,6,1,5,nan,nan,nan,nan,nan,nan,nan,nan,nan,nan,nan,nan,0.0,nan,nan,nan,nan,nan,nan,nan,nan,nan,nan,nan,nan,nan,nan,nan,nan,nan,nan,250.64274980255868,413.202191907214,nan,413.6252232689876,nan,nan,nan,nan
1,123,1,1,1.0,1.0,0.5428794947220013,0,0,3,1,4,5,8,nan,nan,nan,nan,nan,nan,nan,nan,nan,nan,nan,nan,0.0,nan,nan,nan,nan,nan,nan,nan,nan,nan,nan,nan,nan,nan,nan,nan,nan,nan,nan,250.64274980255868,414.2023384486092,nan,414.7452179433312,nan,nan,nan,nan
1,124,1,1,1.0,1.0,0.3747274085180834,0,5,6,0,8,3,4,nan,nan,nan,nan,nan,nan,nan,nan,nan,nan,nan,nan,0.0,nan,nan,nan,nan,nan,nan,nan,nan,nan,nan,nan,nan,nan,nan,nan,nan,nan,nan,250.64274980255868,415.20247501169797,nan,415.57720242021605,nan,nan,nan,nan
1,125,0,0,0.0,1.0,0.47857714479323477,0,8,0,4,7,2,3,nan,nan,nan,nan,nan,nan,nan,nan,nan,nan,nan,nan,0.0,nan,nan,nan,nan,nan,nan,nan,nan,nan,nan,nan,nan,nan,nan,nan,nan,nan,nan,250.64274980255868,416.2026138554793,nan,416.6811910002725,nan,nan,nan,nan
1,126,1,1,1.0,1.0,0.2624332901323214,0,7,2,3,4,1,0,nan,nan,nan,nan,nan,nan,nan,nan,nan,nan,nan,nan,0.0,nan,nan,nan,nan,nan,nan,nan,nan,nan,nan,nan,nan,nan,nan,nan,nan,nan,nan,250.64274980255868,417.20276467339136,nan,417.4651979635237,nan,nan,nan,nan
1,127,1,1,1.0,1.0,0.23831124906428158,0,3,7,0,6,8,4,nan,nan,nan,nan,nan,nan,nan,nan,nan,nan,nan,nan,0.0,nan,nan,nan,nan,nan,nan,nan,nan,nan,nan,nan,nan,nan,nan,nan,nan,nan,nan,250.64274980255868,418.20287700288463,nan,418.4411882519489,nan,nan,nan,nan
1,128,1,1,1.0,1.0,0.3021617151098326,0,4,5,2,0,7,1,nan,nan,nan,nan,nan,nan,nan,nan,nan,nan,nan,nan,0.0,nan,nan,nan,nan,nan,nan,nan,nan,nan,nan,nan,nan,nan,nan,nan,nan,nan,nan,250.64274980255868,419.2030186976772,nan,419.505180412787,nan,nan,nan,nan
1,129,1,1,1.0,1.0,0.31002164201345295,0,5,4,7,2,0,3,nan,nan,nan,nan,nan,nan,nan,nan,nan,nan,nan,nan,0.0,nan,nan,nan,nan,nan,nan,nan,nan,nan,nan,nan,nan,nan,nan,nan,nan,nan,nan,250.64274980255868,420.20314727781806,nan,420.5131689198315,nan,nan,nan,nan
1,130,1,1,1.0,1.0,0.34986325178761035,0,1,5,3,0,7,4,nan,nan,nan,nan,nan,nan,nan,nan,nan,nan,nan,nan,0.0,nan,nan,nan,nan,nan,nan,nan,nan,nan,nan,nan,nan,nan,nan,nan,nan,nan,nan,250.64274980255868,421.20328697690275,nan,421.55315022869036,nan,nan,nan,nan
1,131,1,1,1.0,1.0,0.3817585492506623,0,3,7,5,6,1,2,nan,nan,nan,nan,nan,nan,nan,nan,nan,nan,nan,nan,0.0,nan,nan,nan,nan,nan,nan,nan,nan,nan,nan,nan,nan,nan,nan,nan,nan,nan,nan,250.64274980255868,422.20339474477805,nan,422.5851532940287,nan,nan,nan,nan
1,132,1,1,nan,nan,nan,0,0,6,8,1,7,5,nan,nan,nan,nan,nan,nan,nan,nan,nan,nan,nan,nan,0.0,nan,nan,nan,nan,nan,nan,nan,nan,nan,nan,nan,nan,nan,nan,nan,nan,nan,nan,250.64274980255868,423.2035638092784,nan,nan,nan,nan,nan,nan
1,133,1,1,1.0,1.0,0.7814259513979778,0,5,3,4,8,1,2,nan,nan,nan,nan,nan,nan,nan,nan,nan,nan,nan,nan,0.0,nan,nan,nan,nan,nan,nan,nan,nan,nan,nan,nan,nan,nan,nan,nan,nan,nan,nan,250.64274980255868,424.2036926745204,nan,424.9851186259184,nan,nan,nan,nan
1,134,1,1,1.0,1.0,0.5572790494188666,0,8,1,5,2,6,0,nan,nan,nan,nan,nan,nan,nan,nan,nan,nan,nan,nan,0.0,nan,nan,nan,nan,nan,nan,nan,nan,nan,nan,nan,nan,nan,nan,nan,nan,nan,nan,250.64274980255868,425.2038406415377,nan,425.76111969095655,nan,nan,nan,nan
1,135,1,1,1.0,1.0,0.46113357541617006,0,1,7,0,6,8,2,nan,nan,nan,nan,nan,nan,nan,nan,nan,nan,nan,nan,0.0,nan,nan,nan,nan,nan,nan,nan,nan,nan,nan,nan,nan,nan,nan,nan,nan,nan,nan,250.64274980255868,426.20398262143135,nan,426.6651161968475,nan,nan,nan,nan
1,136,1,1,1.0,1.0,0.3889923960668966,1,4,2,6,3,1,0,1.0,1.0,1.0,1.0,1.0,1.0,0.0,1.0,0.0,0.0,0.0,0.0,1.0,8.0,2.0,3.0,2.0,0.0,6.0,2.0,1.0,3.0,4.0,5.0,6.0,2.0254457612754777,1.016294330591336,4.834172335686162,5.625463323434815,6.288158734678291,6.960175496293232,250.64274980255868,427.2041143376846,428.01253243361134,427.5931067337515,436.0219552797498,437.0274765298236,429.02102613821626,436.0136200909037
1,137,1,1,nan,nan,nan,0,5,8,3,0,6,1,nan,nan,nan,nan,nan,nan,nan,nan,nan,nan,nan,nan,0.0,nan,nan,nan,nan,nan,nan,nan,nan,nan,nan,nan,nan,nan,nan,nan,nan,nan,nan,250.64274980255868,437.23048467887565,nan,nan,nan,nan,nan,nan
1,138,0,0,nan,nan,nan,0,0,2,6,1,8,3,nan,nan,nan,nan,nan,nan,nan,nan,nan,nan,nan,nan,0.0,nan,nan,nan,nan,nan,nan,nan,nan,nan,nan,nan,nan,nan,nan,nan,nan,nan,nan,250.64274980255868,438.2306223822525,nan,nan,nan,nan,nan,nan
1,139,1,1,nan,nan,nan,0,1,5,3,7,2,0,nan,nan,nan,nan,nan,nan,nan,nan,nan,nan,nan,nan,0.0,nan,nan,nan,nan,nan,nan,nan,nan,nan,nan,nan,nan,nan,nan,nan,nan,nan,nan,250.64274980255868,439.23076208133716,nan,nan,nan,nan,nan,nan
1,140,0,0,1.0,0.0,0.026118882815353572,0,6,3,2,0,5,8,nan,nan,nan,nan,nan,nan,nan,nan,nan,nan,nan,nan,0.0,nan,nan,nan,nan,nan,nan,nan,nan,nan,nan,nan,nan,nan,nan,nan,nan,nan,nan,250.64274980255868,440.230892942287,nan,440.2570118251024,nan,nan,nan,nan
1,141,1,1,1.0,1.0,0.2899394703563303,0,0,6,4,2,3,5,nan,nan,nan,nan,nan,nan,nan,nan,nan,nan,nan,nan,0.0,nan,nan,nan,nan,nan,nan,nan,nan,nan,nan,nan,nan,nan,nan,nan,nan,nan,nan,250.64274980255868,441.23103292647284,nan,441.52097239682917,nan,nan,nan,nan
1,142,1,1,1.0,1.0,0.30583437567111105,0,2,8,3,5,1,7,nan,nan,nan,nan,nan,nan,nan,nan,nan,nan,nan,nan,0.0,nan,nan,nan,nan,nan,nan,nan,nan,nan,nan,nan,nan,nan,nan,nan,nan,nan,nan,250.64274980255868,442.23117034474853,nan,442.53700472041965,nan,nan,nan,nan
1,143,1,1,1.0,1.0,0.34563207998871803,0,7,3,2,0,5,6,nan,nan,nan,nan,nan,nan,nan,nan,nan,nan,nan,nan,0.0,nan,nan,nan,nan,nan,nan,nan,nan,nan,nan,nan,nan,nan,nan,nan,nan,nan,nan,250.64274980255868,443.231307192822,nan,443.5769392728107,nan,nan,nan,nan
1,144,1,1,1.0,1.0,0.2975003272294998,0,1,2,0,6,4,8,nan,nan,nan,nan,nan,nan,nan,nan,nan,nan,nan,nan,0.0,nan,nan,nan,nan,nan,nan,nan,nan,nan,nan,nan,nan,nan,nan,nan,nan,nan,nan,250.64274980255868,444.2314448961988,nan,444.5289452234283,nan,nan,nan,nan
1,145,1,1,1.0,1.0,0.22534688853193074,0,8,5,6,0,3,2,nan,nan,nan,nan,nan,nan,nan,nan,nan,nan,nan,nan,0.0,nan,nan,nan,nan,nan,nan,nan,nan,nan,nan,nan,nan,nan,nan,nan,nan,nan,nan,250.64274980255868,445.23158288467675,nan,445.4569297732087,nan,nan,nan,nan
1,146,1,1,1.0,1.0,0.31317969667725265,0,2,1,3,6,4,0,nan,nan,nan,nan,nan,nan,nan,nan,nan,nan,nan,nan,0.0,nan,nan,nan,nan,nan,nan,nan,nan,nan,nan,nan,nan,nan,nan,nan,nan,nan,nan,250.64274980255868,446.2317391196266,nan,446.54491881630383,nan,nan,nan,nan
1,147,1,1,1.0,1.0,0.27304642950184643,0,8,3,6,5,0,7,nan,nan,nan,nan,nan,nan,nan,nan,nan,nan,nan,nan,0.0,nan,nan,nan,nan,nan,nan,nan,nan,nan,nan,nan,nan,nan,nan,nan,nan,nan,nan,250.64274980255868,447.2318617126439,nan,447.5049081421457,nan,nan,nan,nan
1,148,1,1,1.0,1.0,0.25692857580725104,0,7,5,1,2,6,0,nan,nan,nan,nan,nan,nan,nan,nan,nan,nan,nan,nan,0.0,nan,nan,nan,nan,nan,nan,nan,nan,nan,nan,nan,nan,nan,nan,nan,nan,nan,nan,250.64274980255868,448.23198031436186,nan,448.4889088901691,nan,nan,nan,nan
1,149,1,1,1.0,1.0,0.3367526347283274,0,4,8,5,7,0,2,nan,nan,nan,nan,nan,nan,nan,nan,nan,nan,nan,nan,0.0,nan,nan,nan,nan,nan,nan,nan,nan,nan,nan,nan,nan,nan,nan,nan,nan,nan,nan,250.64274980255868,449.2321356940083,nan,449.56888832873665,nan,nan,nan,nan
1,150,0,0,0.0,1.0,0.4966191395651549,0,6,3,8,4,5,1,nan,nan,nan,nan,nan,nan,nan,nan,nan,nan,nan,nan,0.0,nan,nan,nan,nan,nan,nan,nan,nan,nan,nan,nan,nan,nan,nan,nan,nan,nan,nan,250.64274980255868,450.23225629131775,nan,450.7288754308829,nan,nan,nan,nan
1,151,1,1,1.0,1.0,0.288433856330812,0,0,1,4,6,7,3,nan,nan,nan,nan,nan,nan,nan,nan,nan,nan,nan,nan,0.0,nan,nan,nan,nan,nan,nan,nan,nan,nan,nan,nan,nan,nan,nan,nan,nan,nan,nan,250.64274980255868,451.2324302024208,nan,451.5208640587516,nan,nan,nan,nan
1,152,1,1,1.0,1.0,0.2963094636797905,0,7,6,2,0,8,4,nan,nan,nan,nan,nan,nan,nan,nan,nan,nan,nan,nan,0.0,nan,nan,nan,nan,nan,nan,nan,nan,nan,nan,nan,nan,nan,nan,nan,nan,nan,nan,250.64274980255868,452.2325465233298,nan,452.5288559870096,nan,nan,nan,nan
1,153,1,1,1.0,1.0,0.3281964933266863,0,1,8,5,4,2,0,nan,nan,nan,nan,nan,nan,nan,nan,nan,nan,nan,nan,0.0,nan,nan,nan,nan,nan,nan,nan,nan,nan,nan,nan,nan,nan,nan,nan,nan,nan,nan,250.64274980255868,453.23265343590174,nan,453.5608499292284,nan,nan,nan,nan
1,154,1,1,1.0,1.0,0.31202047935221344,0,7,4,0,2,6,5,nan,nan,nan,nan,nan,nan,nan,nan,nan,nan,nan,nan,0.0,nan,nan,nan,nan,nan,nan,nan,nan,nan,nan,nan,nan,nan,nan,nan,nan,nan,nan,250.64274980255868,454.23282677680254,nan,454.54484725615475,nan,nan,nan,nan
1,155,0,0,1.0,0.0,0.2478572583058849,0,6,1,8,4,2,3,nan,nan,nan,nan,nan,nan,nan,nan,nan,nan,nan,nan,0.0,nan,nan,nan,nan,nan,nan,nan,nan,nan,nan,nan,nan,nan,nan,nan,nan,nan,nan,250.64274980255868,455.23296533548273,nan,455.4808225937886,nan,nan,nan,nan
1,156,1,1,1.0,1.0,0.3197401368524879,0,8,6,4,0,1,7,nan,nan,nan,nan,nan,nan,nan,nan,nan,nan,nan,nan,0.0,nan,nan,nan,nan,nan,nan,nan,nan,nan,nan,nan,nan,nan,nan,nan,nan,nan,nan,250.64274980255868,456.2330870733131,nan,456.55282721016556,nan,nan,nan,nan
1,157,1,1,1.0,1.0,0.2955576544627547,0,2,1,0,7,6,3,nan,nan,nan,nan,nan,nan,nan,nan,nan,nan,nan,nan,0.0,nan,nan,nan,nan,nan,nan,nan,nan,nan,nan,nan,nan,nan,nan,nan,nan,nan,nan,250.64274980255868,457.2332635503262,nan,457.528821204789,nan,nan,nan,nan
1,158,1,1,1.0,1.0,0.27944664331153035,0,1,2,6,3,0,4,nan,nan,nan,nan,nan,nan,nan,nan,nan,nan,nan,nan,0.0,nan,nan,nan,nan,nan,nan,nan,nan,nan,nan,nan,nan,nan,nan,nan,nan,nan,nan,250.64274980255868,458.2333633353701,nan,458.5128099786816,nan,nan,nan,nan
1,159,0,0,1.0,0.0,0.22330842225346714,0,3,4,1,8,2,6,nan,nan,nan,nan,nan,nan,nan,nan,nan,nan,nan,nan,0.0,nan,nan,nan,nan,nan,nan,nan,nan,nan,nan,nan,nan,nan,nan,nan,nan,nan,nan,250.64274980255868,459.2334788008593,nan,459.45678722311277,nan,nan,nan,nan
1,160,1,1,1.0,1.0,0.23914972867351025,0,6,8,4,5,1,2,nan,nan,nan,nan,nan,nan,nan,nan,nan,nan,nan,nan,0.0,nan,nan,nan,nan,nan,nan,nan,nan,nan,nan,nan,nan,nan,nan,nan,nan,nan,nan,250.64274980255868,460.2336358911125,nan,460.472785619786,nan,nan,nan,nan
1,161,1,1,1.0,1.0,0.28697357315104455,0,0,3,1,2,5,6,nan,nan,nan,nan,nan,nan,nan,nan,nan,nan,nan,nan,0.0,nan,nan,nan,nan,nan,nan,nan,nan,nan,nan,nan,nan,nan,nan,nan,nan,nan,nan,250.64274980255868,461.2337795816129,nan,461.52075315476395,nan,nan,nan,nan
1,162,1,1,1.0,1.0,0.3268476844532415,0,6,7,0,8,3,1,nan,nan,nan,nan,nan,nan,nan,nan,nan,nan,nan,nan,0.0,nan,nan,nan,nan,nan,nan,nan,nan,nan,nan,nan,nan,nan,nan,nan,nan,nan,nan,250.64274980255868,462.23390901705716,nan,462.5607567015104,nan,nan,nan,nan
1,163,1,1,1.0,1.0,0.3186949596274644,0,8,2,7,6,5,4,nan,nan,nan,nan,nan,nan,nan,nan,nan,nan,nan,nan,0.0,nan,nan,nan,nan,nan,nan,nan,nan,nan,nan,nan,nan,nan,nan,nan,nan,nan,nan,250.64274980255868,463.2340544181643,nan,463.55274937779177,nan,nan,nan,nan
1,164,1,1,1.0,1.0,0.438555636908859,0,5,0,1,2,7,3,nan,nan,nan,nan,nan,nan,nan,nan,nan,nan,nan,nan,0.0,nan,nan,nan,nan,nan,nan,nan,nan,nan,nan,nan,nan,nan,nan,nan,nan,nan,nan,250.64274980255868,464.23419098113663,nan,464.6727466180455,nan,nan,nan,nan
1,165,1,1,1.0,1.0,0.40639804722741246,0,4,8,6,1,2,7,nan,nan,nan,nan,nan,nan,nan,nan,nan,nan,nan,nan,0.0,nan,nan,nan,nan,nan,nan,nan,nan,nan,nan,nan,nan,nan,nan,nan,nan,nan,nan,250.64274980255868,465.2343295398168,nan,465.64072758704424,nan,nan,nan,nan
1,166,1,1,1.0,1.0,0.47827379824593663,0,3,4,0,5,8,2,nan,nan,nan,nan,nan,nan,nan,nan,nan,nan,nan,nan,0.0,nan,nan,nan,nan,nan,nan,nan,nan,nan,nan,nan,nan,nan,nan,nan,nan,nan,nan,250.64274980255868,466.2344641070813,nan,466.71273790532723,nan,nan,nan,nan
1,167,1,1,1.0,1.0,0.334120019688271,0,0,7,4,2,1,8,nan,nan,nan,nan,nan,nan,nan,nan,nan,nan,nan,nan,0.0,nan,nan,nan,nan,nan,nan,nan,nan,nan,nan,nan,nan,nan,nan,nan,nan,nan,nan,250.64274980255868,467.23459582345095,nan,467.5687158431392,nan,nan,nan,nan
1,168,0,0,0.0,1.0,0.45397157373372465,0,4,8,5,1,2,3,nan,nan,nan,nan,nan,nan,nan,nan,nan,nan,nan,nan,0.0,nan,nan,nan,nan,nan,nan,nan,nan,nan,nan,nan,nan,nan,nan,nan,nan,nan,nan,250.64274980255868,468.23473951395135,nan,468.6887110876851,nan,nan,nan,nan
1,169,1,1,1.0,1.0,0.24582221324089915,0,8,2,7,0,1,5,nan,nan,nan,nan,nan,nan,nan,nan,nan,nan,nan,nan,0.0,nan,nan,nan,nan,nan,nan,nan,nan,nan,nan,nan,nan,nan,nan,nan,nan,nan,nan,250.64274980255868,469.23487579182256,nan,469.48069800506346,nan,nan,nan,nan
1,170,1,1,1.0,1.0,0.3176825689151883,0,5,3,0,8,4,6,nan,nan,nan,nan,nan,nan,nan,nan,nan,nan,nan,nan,0.0,nan,nan,nan,nan,nan,nan,nan,nan,nan,nan,nan,nan,nan,nan,nan,nan,nan,nan,250.64274980255868,470.23501435050275,nan,470.55269691941794,nan,nan,nan,nan
1,171,1,1,1.0,1.0,0.34953339071944356,0,3,6,5,1,8,2,nan,nan,nan,nan,nan,nan,nan,nan,nan,nan,nan,nan,0.0,nan,nan,nan,nan,nan,nan,nan,nan,nan,nan,nan,nan,nan,nan,nan,nan,nan,nan,250.64274980255868,471.2351514836773,nan,471.58468487439677,nan,nan,nan,nan
1,172,1,1,1.0,1.0,0.33338731224648654,0,4,0,1,5,7,3,nan,nan,nan,nan,nan,nan,nan,nan,nan,nan,nan,nan,0.0,nan,nan,nan,nan,nan,nan,nan,nan,nan,nan,nan,nan,nan,nan,nan,nan,nan,nan,250.64274980255868,472.23528776154853,nan,472.568675073795,nan,nan,nan,nan
1,173,1,1,1.0,1.0,0.6612385493936017,0,7,3,4,2,5,6,nan,nan,nan,nan,nan,nan,nan,nan,nan,nan,nan,nan,0.0,nan,nan,nan,nan,nan,nan,nan,nan,nan,nan,nan,nan,nan,nan,nan,nan,nan,nan,250.64274980255868,473.2354197629029,nan,473.8966583122965,nan,nan,nan,nan
1,174,1,1,1.0,1.0,0.42908974073361605,1,1,6,3,7,0,4,1.0,1.0,1.0,1.0,1.0,1.0,1.0,1.0,1.0,0.0,0.0,0.0,3.0,1.0,6.0,3.0,8.0,5.0,0.0,3.0,2.0,1.0,6.0,5.0,4.0,2.984268172062002,2.1218341406201944,1.0733172175241634,5.760694321594201,4.936427506618202,4.009886989137158,250.64274980255868,474.2355717213359,475.0439818345476,474.6646614620695,481.8532389802858,482.85991517128423,476.05245757778175,481.8449063573498
1,175,1,1,nan,nan,nan,0,8,4,6,1,5,3,nan,nan,nan,nan,nan,nan,nan,nan,nan,nan,nan,nan,0.0,nan,nan,nan,nan,nan,nan,nan,nan,nan,nan,nan,nan,nan,nan,nan,nan,nan,nan,250.64274980255868,483.0617641028948,nan,nan,nan,nan,nan,nan
1,176,1,1,1.0,1.0,0.522658764384687,0,5,8,3,2,1,0,nan,nan,nan,nan,nan,nan,nan,nan,nan,nan,nan,nan,0.0,nan,nan,nan,nan,nan,nan,nan,nan,nan,nan,nan,nan,nan,nan,nan,nan,nan,nan,250.64274980255868,484.06189667456783,nan,484.5845554389525,nan,nan,nan,nan
1,177,1,1,1.0,1.0,0.29851414333097637,0,2,5,0,7,3,1,nan,nan,nan,nan,nan,nan,nan,nan,nan,nan,nan,nan,0.0,nan,nan,nan,nan,nan,nan,nan,nan,nan,nan,nan,nan,nan,nan,nan,nan,nan,nan,250.64274980255868,485.06203922466375,nan,485.3605533679947,nan,nan,nan,nan
1,178,1,1,1.0,1.0,0.37033857649657875,0,4,7,3,2,8,5,nan,nan,nan,nan,nan,nan,nan,nan,nan,nan,nan,nan,0.0,nan,nan,nan,nan,nan,nan,nan,nan,nan,nan,nan,nan,nan,nan,nan,nan,nan,nan,250.64274980255868,486.0621920382837,nan,486.43253061478026,nan,nan,nan,nan
1,179,1,1,1.0,1.0,0.27422218257561326,0,7,6,4,5,0,1,nan,nan,nan,nan,nan,nan,nan,nan,nan,nan,nan,nan,0.0,nan,nan,nan,nan,nan,nan,nan,nan,nan,nan,nan,nan,nan,nan,nan,nan,nan,nan,250.64274980255868,487.06231434631627,nan,487.3365365288919,nan,nan,nan,nan
1,180,1,1,1.0,1.0,0.3941167867742479,0,3,7,2,1,4,6,nan,nan,nan,nan,nan,nan,nan,nan,nan,nan,nan,nan,0.0,nan,nan,nan,nan,nan,nan,nan,nan,nan,nan,nan,nan,nan,nan,nan,nan,nan,nan,250.64274980255868,488.06241071014665,nan,488.4565274969209,nan,nan,nan,nan
1,181,1,1,1.0,1.0,0.36991890892386436,0,7,4,8,0,6,5,nan,nan,nan,nan,nan,nan,nan,nan,nan,nan,nan,nan,0.0,nan,nan,nan,nan,nan,nan,nan,nan,nan,nan,nan,nan,nan,nan,nan,nan,nan,nan,250.64274980255868,489.0625894679688,nan,489.43250837689266,nan,nan,nan,nan
1,182,1,1,1.0,1.0,0.281767358770594,0,4,0,7,6,5,1,nan,nan,nan,nan,nan,nan,nan,nan,nan,nan,nan,nan,0.0,nan,nan,nan,nan,nan,nan,nan,nan,nan,nan,nan,nan,nan,nan,nan,nan,nan,nan,250.64274980255868,490.062728026649,nan,490.3444953854196,nan,nan,nan,nan
1,183,1,1,1.0,1.0,0.30565960914827883,0,8,6,2,4,7,3,nan,nan,nan,nan,nan,nan,nan,nan,nan,nan,nan,nan,0.0,nan,nan,nan,nan,nan,nan,nan,nan,nan,nan,nan,nan,nan,nan,nan,nan,nan,nan,250.64274980255868,491.0628337988164,nan,491.3684934079647,nan,nan,nan,nan
1,184,1,1,1.0,1.0,0.31348019221331924,0,5,0,3,7,1,2,nan,nan,nan,nan,nan,nan,nan,nan,nan,nan,nan,nan,0.0,nan,nan,nan,nan,nan,nan,nan,nan,nan,nan,nan,nan,nan,nan,nan,nan,nan,nan,250.64274980255868,492.06300115259364,nan,492.37648134480696,nan,nan,nan,nan
1,185,1,1,1.0,1.0,0.4013703055679798,0,2,3,8,5,4,1,nan,nan,nan,nan,nan,nan,nan,nan,nan,nan,nan,nan,0.0,nan,nan,nan,nan,nan,nan,nan,nan,nan,nan,nan,nan,nan,nan,nan,nan,nan,nan,250.64274980255868,493.0631049290532,nan,493.4644752346212,nan,nan,nan,nan
1,186,1,1,1.0,1.0,0.3691708060214296,0,8,1,4,0,6,7,nan,nan,nan,nan,nan,nan,nan,nan,nan,nan,nan,nan,0.0,nan,nan,nan,nan,nan,nan,nan,nan,nan,nan,nan,nan,nan,nan,nan,nan,nan,nan,250.64274980255868,494.0632976568304,nan,494.43246846285183,nan,nan,nan,nan
1,187,1,1,1.0,1.0,0.33705911750439554,0,5,3,1,6,8,2,nan,nan,nan,nan,nan,nan,nan,nan,nan,nan,nan,nan,0.0,nan,nan,nan,nan,nan,nan,nan,nan,nan,nan,nan,nan,nan,nan,nan,nan,nan,nan,250.64274980255868,495.063399152481,nan,495.4004582699854,nan,nan,nan,nan
1,188,1,1,1.0,1.0,0.4009241237072274,0,8,1,7,4,3,6,nan,nan,nan,nan,nan,nan,nan,nan,nan,nan,nan,nan,0.0,nan,nan,nan,nan,nan,nan,nan,nan,nan,nan,nan,nan,nan,nan,nan,nan,nan,nan,250.64274980255868,496.0635599489324,nan,496.4644840726396,nan,nan,nan,nan
1,189,1,1,1.0,1.0,0.27274564874824136,0,2,3,4,6,5,1,nan,nan,nan,nan,nan,nan,nan,nan,nan,nan,nan,nan,0.0,nan,nan,nan,nan,nan,nan,nan,nan,nan,nan,nan,nan,nan,nan,nan,nan,nan,nan,250.64274980255868,497.06368425267283,nan,497.33642990142107,nan,nan,nan,nan
1,190,1,1,1.0,1.0,0.34459773648995906,0,3,1,0,7,8,5,nan,nan,nan,nan,nan,nan,nan,nan,nan,nan,nan,nan,0.0,nan,nan,nan,nan,nan,nan,nan,nan,nan,nan,nan,nan,nan,nan,nan,nan,nan,nan,250.64274980255868,498.06382053054404,nan,498.408418267034,nan,nan,nan,nan
1,191,1,1,1.0,1.0,0.34445974801201373,0,0,4,6,5,7,8,nan,nan,nan,nan,nan,nan,nan,nan,nan,nan,nan,nan,0.0,nan,nan,nan,nan,nan,nan,nan,nan,nan,nan,nan,nan,nan,nan,nan,nan,nan,nan,250.64274980255868,499.0639673571568,nan,499.4084271051688,nan,nan,nan,nan
1,192,1,1,1.0,1.0,0.3363215633435175,0,4,7,2,1,0,5,nan,nan,nan,nan,nan,nan,nan,nan,nan,nan,nan,nan,0.0,nan,nan,nan,nan,nan,nan,nan,nan,nan,nan,nan,nan,nan,nan,nan,nan,nan,nan,250.64274980255868,500.0640976479044,nan,500.40041921124794,nan,nan,nan,nan
1,193,0,0,0.0,1.0,0.5281580617884174,0,5,8,6,4,7,2,nan,nan,nan,nan,nan,nan,nan,nan,nan,nan,nan,nan,0.0,nan,nan,nan,nan,nan,nan,nan,nan,nan,nan,nan,nan,nan,nan,nan,nan,nan,nan,250.64274980255868,501.0642419086071,nan,501.5923999703955,nan,nan,nan,nan
1,194,1,1,1.0,1.0,0.33602448902092874,0,3,6,0,2,4,5,nan,nan,nan,nan,nan,nan,nan,nan,nan,nan,nan,nan,0.0,nan,nan,nan,nan,nan,nan,nan,nan,nan,nan,nan,nan,nan,nan,nan,nan,nan,nan,250.64274980255868,502.06437390996143,nan,502.40039839898236,nan,nan,nan,nan
1,195,1,1,1.0,1.0,0.31187536334618926,0,7,4,8,6,1,3,nan,nan,nan,nan,nan,nan,nan,nan,nan,nan,nan,nan,0.0,nan,nan,nan,nan,nan,nan,nan,nan,nan,nan,nan,nan,nan,nan,nan,nan,nan,nan,250.64274980255868,503.0645070517203,nan,503.3763824150665,nan,nan,nan,nan
1,196,1,1,1.0,1.0,0.29573213576804847,0,2,1,6,0,7,5,nan,nan,nan,nan,nan,nan,nan,nan,nan,nan,nan,nan,0.0,nan,nan,nan,nan,nan,nan,nan,nan,nan,nan,nan,nan,nan,nan,nan,nan,nan,nan,250.64274980255868,504.0646444701124,nan,504.36037660588045,nan,nan,nan,nan
1,197,1,1,1.0,1.0,0.30358522036112845,0,7,4,8,3,5,1,nan,nan,nan,nan,nan,nan,nan,nan,nan,nan,nan,nan,0.0,nan,nan,nan,nan,nan,nan,nan,nan,nan,nan,nan,nan,nan,nan,nan,nan,nan,nan,250.64274980255868,505.06478644988965,nan,505.3683716702508,nan,nan,nan,nan
1,198,1,1,1.0,1.0,0.3034352575195953,0,3,0,2,5,7,6,nan,nan,nan,nan,nan,nan,nan,nan,nan,nan,nan,nan,0.0,nan,nan,nan,nan,nan,nan,nan,nan,nan,nan,nan,nan,nan,nan,nan,nan,nan,nan,250.64274980255868,506.06492244277615,nan,506.36835770029575,nan,nan,nan,nan
1,199,1,1,1.0,1.0,0.33528066251892596,0,2,5,7,3,4,1,nan,nan,nan,nan,nan,nan,nan,nan,nan,nan,nan,nan,0.0,nan,nan,nan,nan,nan,nan,nan,nan,nan,nan,nan,nan,nan,nan,nan,nan,nan,nan,250.64274980255868,507.0650655630743,nan,507.40034622559324,nan,nan,nan,nan
1,200,1,1,1.0,1.0,0.38312332378700376,0,4,0,2,1,3,8,nan,nan,nan,nan,nan,nan,nan,nan,nan,nan,nan,nan,0.0,nan,nan,nan,nan,nan,nan,nan,nan,nan,nan,nan,nan,nan,nan,nan,nan,nan,nan,250.64274980255868,508.0652064025635,nan,508.4483297263505,nan,nan,nan,nan
1,201,1,1,1.0,1.0,0.3189894681563601,0,1,4,3,5,8,2,nan,nan,nan,nan,nan,nan,nan,nan,nan,nan,nan,nan,0.0,nan,nan,nan,nan,nan,nan,nan,nan,nan,nan,nan,nan,nan,nan,nan,nan,nan,nan,250.64274980255868,509.065331846592,nan,509.3843213147484,nan,nan,nan,nan
1,202,1,1,1.0,1.0,0.22287706565111876,0,5,7,4,6,0,8,nan,nan,nan,nan,nan,nan,nan,nan,nan,nan,nan,nan,0.0,nan,nan,nan,nan,nan,nan,nan,nan,nan,nan,nan,nan,nan,nan,nan,nan,nan,nan,250.64274980255868,510.0654470270965,nan,510.28832409274764,nan,nan,nan,nan
1,203,1,1,1.0,1.0,0.19870883831754327,0,4,3,1,0,7,2,nan,nan,nan,nan,nan,nan,nan,nan,nan,nan,nan,nan,0.0,nan,nan,nan,nan,nan,nan,nan,nan,nan,nan,nan,nan,nan,nan,nan,nan,nan,nan,250.64274980255868,511.0656066831434,nan,511.26431552146096,nan,nan,nan,nan
1,204,1,1,1.0,1.0,0.17456313385628164,0,2,8,4,6,3,0,nan,nan,nan,nan,nan,nan,nan,nan,nan,nan,nan,nan,0.0,nan,nan,nan,nan,nan,nan,nan,nan,nan,nan,nan,nan,nan,nan,nan,nan,nan,nan,250.64274980255868,512.0657426759135,nan,512.2403058097698,nan,nan,nan,nan
1,205,0,0,1.0,0.0,0.21438792266417295,0,0,7,6,4,1,3,nan,nan,nan,nan,nan,nan,nan,nan,nan,nan,nan,nan,0.0,nan,nan,nan,nan,nan,nan,nan,nan,nan,nan,nan,nan,nan,nan,nan,nan,nan,nan,250.64274980255868,513.0658954896498,nan,513.280283412314,nan,nan,nan,nan
1,206,1,1,1.0,1.0,0.5582503858022392,0,7,3,8,1,2,4,nan,nan,nan,nan,nan,nan,nan,nan,nan,nan,nan,nan,0.0,nan,nan,nan,nan,nan,nan,nan,nan,nan,nan,nan,nan,nan,nan,nan,nan,nan,nan,250.64274980255868,514.0660106701544,nan,514.6242610559566,nan,nan,nan,nan
1,207,1,1,1.0,1.0,0.4301178118912503,0,6,7,5,2,1,0,nan,nan,nan,nan,nan,nan,nan,nan,nan,nan,nan,nan,0.0,nan,nan,nan,nan,nan,nan,nan,nan,nan,nan,nan,nan,nan,nan,nan,nan,nan,nan,250.64274980255868,515.0661520798458,nan,515.496269891737,nan,nan,nan,nan
1,208,1,1,1.0,1.0,0.3819558385293931,1,5,6,1,3,0,8,1.0,1.0,1.0,1.0,1.0,1.0,0.0,1.0,0.0,1.0,0.0,0.0,2.0,1.0,6.0,5.0,3.0,8.0,2.0,3.0,2.0,1.0,6.0,5.0,4.0,4.1061467884574085,2.721206806250848,1.7949143260484561,6.680944103631191,5.873787005664781,4.880987495882437,250.64274980255868,516.0662949150428,516.8747201384977,516.4482507535722,524.6091122578364,525.6191241209162,517.8915282195667,524.6007770689903
1,209,1,1,1.0,1.0,0.7421864731004462,1,7,4,5,8,3,0,1.0,1.0,1.0,1.0,1.0,1.0,0.0,1.0,0.0,0.0,0.0,0.0,1.0,8.0,4.0,3.0,3.0,6.0,7.0,3.0,1.0,2.0,6.0,5.0,4.0,3.6653055034112185,1.3698379405541345,2.0653911475092173,6.2732708032708615,5.56205447751563,4.490739518543705,250.64274980255868,525.8259654418798,526.6343912355369,526.5681519149803,533.9520532771712,534.9478429177543,527.642862132052,533.9437249307521
1,210,1,1,nan,nan,nan,0,5,7,2,1,6,8,nan,nan,nan,nan,nan,nan,nan,nan,nan,nan,nan,nan,0.0,nan,nan,nan,nan,nan,nan,nan,nan,nan,nan,nan,nan,nan,nan,nan,nan,nan,nan,250.64274980255868,535.1522463470465,nan,nan,nan,nan,nan,nan
1,211,1,1,1.0,1.0,0.5916649822611362,0,1,8,7,6,3,4,nan,nan,nan,nan,nan,nan,nan,nan,nan,nan,nan,nan,0.0,nan,nan,nan,nan,nan,nan,nan,nan,nan,nan,nan,nan,nan,nan,nan,nan,nan,nan,250.64274980255868,536.1523774930974,nan,536.7440424753586,nan,nan,nan,nan
1,212,1,1,1.0,1.0,0.4875384137267247,0,7,5,4,0,6,1,nan,nan,nan,nan,nan,nan,nan,nan,nan,nan,nan,nan,0.0,nan,nan,nan,nan,nan,nan,nan,nan,nan,nan,nan,nan,nan,nan,nan,nan,nan,nan,250.64274980255868,537.1525171921821,nan,537.6400556059089,nan,nan,nan,nan
1,213,1,1,1.0,1.0,0.3513950950000435,0,2,1,8,3,7,4,nan,nan,nan,nan,nan,nan,nan,nan,nan,nan,nan,nan,0.0,nan,nan,nan,nan,nan,nan,nan,nan,nan,nan,nan,nan,nan,nan,nan,nan,nan,nan,250.64274980255868,538.1526523296488,nan,538.5040474246489,nan,nan,nan,nan
1,214,0,0,0.0,1.0,0.5672518538776785,0,5,0,4,1,6,3,nan,nan,nan,nan,nan,nan,nan,nan,nan,nan,nan,nan,0.0,nan,nan,nan,nan,nan,nan,nan,nan,nan,nan,nan,nan,nan,nan,nan,nan,nan,nan,250.64274980255868,539.1527917436324,nan,539.7200435975101,nan,nan,nan,nan
1,215,1,1,1.0,1.0,0.5030997516587377,0,6,1,3,7,0,8,nan,nan,nan,nan,nan,nan,nan,nan,nan,nan,nan,nan,0.0,nan,nan,nan,nan,nan,nan,nan,nan,nan,nan,nan,nan,nan,nan,nan,nan,nan,nan,250.64274980255868,540.1529305875301,nan,540.6560303391889,nan,nan,nan,nan
1,216,1,1,1.0,1.0,0.3509491983568296,0,8,3,2,1,7,5,nan,nan,nan,nan,nan,nan,nan,nan,nan,nan,nan,nan,0.0,nan,nan,nan,nan,nan,nan,nan,nan,nan,nan,nan,nan,nan,nan,nan,nan,nan,nan,250.64274980255868,541.1530725673074,nan,541.5040217656642,nan,nan,nan,nan
1,217,1,1,1.0,1.0,0.27081266953609884,0,7,6,1,0,8,4,nan,nan,nan,nan,nan,nan,nan,nan,nan,nan,nan,nan,0.0,nan,nan,nan,nan,nan,nan,nan,nan,nan,nan,nan,nan,nan,nan,nan,nan,nan,nan,250.64274980255868,542.1532037134748,nan,542.4240163830109,nan,nan,nan,nan
1,218,1,1,1.0,1.0,0.35866258363239467,0,3,0,2,1,5,8,nan,nan,nan,nan,nan,nan,nan,nan,nan,nan,nan,nan,0.0,nan,nan,nan,nan,nan,nan,nan,nan,nan,nan,nan,nan,nan,nan,nan,nan,nan,nan,250.64274980255868,543.1533431274584,nan,543.5120057110908,nan,nan,nan,nan
1,219,1,1,1.0,1.0,0.3025155244395137,0,1,8,4,5,0,2,nan,nan,nan,nan,nan,nan,nan,nan,nan,nan,nan,nan,0.0,nan,nan,nan,nan,nan,nan,nan,nan,nan,nan,nan,nan,nan,nan,nan,nan,nan,nan,250.64274980255868,544.1534742735093,nan,544.4559897979489,nan,nan,nan,nan
1,220,0,0,1.0,0.0,0.23837454128079116,0,0,6,5,8,7,3,nan,nan,nan,nan,nan,nan,nan,nan,nan,nan,nan,nan,0.0,nan,nan,nan,nan,nan,nan,nan,nan,nan,nan,nan,nan,nan,nan,nan,nan,nan,nan,250.64274980255868,545.1536205299199,nan,545.3919950712007,nan,nan,nan,nan
1,221,1,1,1.0,1.0,0.3022093267645687,1,6,5,1,3,0,2,1.0,1.0,1.0,1.0,1.0,1.0,1.0,1.0,0.0,0.0,1.0,0.0,3.0,6.0,5.0,8.0,1.0,0.0,4.0,2.0,1.0,3.0,4.0,5.0,6.0,1.7870338718639687,1.1000388021348044,2.6578261852264404,3.466805358417332,4.162432121229358,5.185828297282569,250.64274980255868,546.1537630800158,546.9621865928639,546.4559724067803,553.1963698763866,554.1980762010207,547.970652072574,553.1880341173382
1,222,1,1,1.0,1.0,0.7470021003391594,0,1,6,4,8,5,3,nan,nan,nan,nan,nan,nan,nan,nan,nan,nan,nan,nan,0.0,nan,nan,nan,nan,nan,nan,nan,nan,nan,nan,nan,nan,nan,nan,nan,nan,nan,nan,250.64274980255868,554.4048858757596,nan,555.1518879760988,nan,nan,nan,nan
1,223,1,1,1.0,1.0,0.5308645179029554,0,8,7,2,3,4,0,nan,nan,nan,nan,nan,nan,nan,nan,nan,nan,nan,nan,0.0,nan,nan,nan,nan,nan,nan,nan,nan,nan,nan,nan,nan,nan,nan,nan,nan,nan,nan,250.64274980255868,555.4050232940353,nan,555.9358878119383,nan,nan,nan,nan
1,224,1,1,1.0,1.0,0.33872467279434204,0,3,5,1,4,2,6,nan,nan,nan,nan,nan,nan,nan,nan,nan,nan,nan,nan,0.0,nan,nan,nan,nan,nan,nan,nan,nan,nan,nan,nan,nan,nan,nan,nan,nan,nan,nan,250.64274980255868,556.4051601421088,nan,556.7438848149031,nan,nan,nan,nan
1,225,1,1,1.0,1.0,0.5545497855637223,0,7,0,4,6,3,2,nan,nan,nan,nan,nan,nan,nan,nan,nan,nan,nan,nan,0.0,nan,nan,nan,nan,nan,nan,nan,nan,nan,nan,nan,nan,nan,nan,nan,nan,nan,nan,250.64274980255868,557.405305543216,nan,557.9598553287797,nan,nan,nan,nan
1,226,1,1,1.0,1.0,0.418412453844212,0,8,5,6,1,7,3,nan,nan,nan,nan,nan,nan,nan,nan,nan,nan,nan,nan,0.0,nan,nan,nan,nan,nan,nan,nan,nan,nan,nan,nan,nan,nan,nan,nan,nan,nan,nan,250.64274980255868,558.4054489486152,nan,558.8238614024594,nan,nan,nan,nan
1,227,1,1,1.0,1.0,0.47427726385649294,0,0,7,2,5,6,1,nan,nan,nan,nan,nan,nan,nan,nan,nan,nan,nan,nan,0.0,nan,nan,nan,nan,nan,nan,nan,nan,nan,nan,nan,nan,nan,nan,nan,nan,nan,nan,250.64274980255868,559.4055732523557,nan,559.8798505162122,nan,nan,nan,nan
1,228,1,1,1.0,1.0,0.3861311306245625,0,4,8,6,3,7,0,nan,nan,nan,nan,nan,nan,nan,nan,nan,nan,nan,nan,0.0,nan,nan,nan,nan,nan,nan,nan,nan,nan,nan,nan,nan,nan,nan,nan,nan,nan,nan,250.64274980255868,560.4057132365415,nan,560.791844367166,nan,nan,nan,nan
1,229,1,1,1.0,1.0,0.3859880104428157,0,5,0,3,1,6,2,nan,nan,nan,nan,nan,nan,nan,nan,nan,nan,nan,nan,0.0,nan,nan,nan,nan,nan,nan,nan,nan,nan,nan,nan,nan,nan,nan,nan,nan,nan,nan,250.64274980255868,561.4058460931992,nan,561.791834103642,nan,nan,nan,nan
1,230,1,1,1.0,1.0,0.44982650224119425,0,0,6,4,5,2,7,nan,nan,nan,nan,nan,nan,nan,nan,nan,nan,nan,nan,0.0,nan,nan,nan,nan,nan,nan,nan,nan,nan,nan,nan,nan,nan,nan,nan,nan,nan,nan,250.64274980255868,562.4059892134974,nan,562.8558157157386,nan,nan,nan,nan
1,231,1,1,1.0,1.0,0.4016833455534652,0,7,4,6,2,3,8,nan,nan,nan,nan,nan,nan,nan,nan,nan,nan,nan,nan,0.0,nan,nan,nan,nan,nan,nan,nan,nan,nan,nan,nan,nan,nan,nan,nan,nan,nan,nan,250.64274980255868,563.4061209297506,nan,563.8078042753041,nan,nan,nan,nan
1,232,1,1,1.0,1.0,0.36953174287918955,0,4,8,3,1,2,7,nan,nan,nan,nan,nan,nan,nan,nan,nan,nan,nan,nan,0.0,nan,nan,nan,nan,nan,nan,nan,nan,nan,nan,nan,nan,nan,nan,nan,nan,nan,nan,250.64274980255868,564.406264620251,nan,564.7757963631302,nan,nan,nan,nan
1,233,0,0,1.0,0.0,0.3373835615348071,0,3,7,5,4,8,6,nan,nan,nan,nan,nan,nan,nan,nan,nan,nan,nan,nan,0.0,nan,nan,nan,nan,nan,nan,nan,nan,nan,nan,nan,nan,nan,nan,nan,nan,nan,nan,250.64274980255868,565.4064023236278,nan,565.7437858851627,nan,nan,nan,nan
1,234,1,1,1.0,1.0,0.3692503491183743,0,4,6,7,8,5,3,nan,nan,nan,nan,nan,nan,nan,nan,nan,nan,nan,nan,0.0,nan,nan,nan,nan,nan,nan,nan,nan,nan,nan,nan,nan,nan,nan,nan,nan,nan,nan,250.64274980255868,566.4065348951844,nan,566.7757852443028,nan,nan,nan,nan
1,235,1,1,1.0,1.0,0.3291416004067287,0,7,2,3,4,6,5,nan,nan,nan,nan,nan,nan,nan,nan,nan,nan,nan,nan,0.0,nan,nan,nan,nan,nan,nan,nan,nan,nan,nan,nan,nan,nan,nan,nan,nan,nan,nan,250.64274980255868,567.4066289783223,nan,567.735770578729,nan,nan,nan,nan
1,236,1,1,1.0,1.0,0.3929484460968524,0,3,0,1,5,4,8,nan,nan,nan,nan,nan,nan,nan,nan,nan,nan,nan,nan,0.0,nan,nan,nan,nan,nan,nan,nan,nan,nan,nan,nan,nan,nan,nan,nan,nan,nan,nan,250.64274980255868,568.4068074510433,nan,568.7997558971401,nan,nan,nan,nan
1,237,1,1,1.0,1.0,0.35281688952818513,0,5,6,3,8,7,4,nan,nan,nan,nan,nan,nan,nan,nan,nan,nan,nan,nan,0.0,nan,nan,nan,nan,nan,nan,nan,nan,nan,nan,nan,nan,nan,nan,nan,nan,nan,nan,250.64274980255868,569.4069440140156,nan,569.7597609035438,nan,nan,nan,nan
1,238,1,1,1.0,1.0,0.37666466424707323,0,2,4,0,1,3,6,nan,nan,nan,nan,nan,nan,nan,nan,nan,nan,nan,nan,0.0,nan,nan,nan,nan,nan,nan,nan,nan,nan,nan,nan,nan,nan,nan,nan,nan,nan,nan,250.64274980255868,570.4070802918868,nan,570.7837449561339,nan,nan,nan,nan
1,239,1,1,1.0,1.0,0.29651302518323064,0,6,7,5,4,8,2,nan,nan,nan,nan,nan,nan,nan,nan,nan,nan,nan,nan,0.0,nan,nan,nan,nan,nan,nan,nan,nan,nan,nan,nan,nan,nan,nan,nan,nan,nan,nan,250.64274980255868,571.407223412185,nan,571.7037364373682,nan,nan,nan,nan
1,240,1,1,1.0,1.0,0.40832617972046137,0,2,6,1,8,3,0,nan,nan,nan,nan,nan,nan,nan,nan,nan,nan,nan,nan,0.0,nan,nan,nan,nan,nan,nan,nan,nan,nan,nan,nan,nan,nan,nan,nan,nan,nan,nan,250.64274980255868,572.4073961828835,nan,572.815722362604,nan,nan,nan,nan
1,241,1,1,1.0,1.0,0.4082101439125836,0,1,0,4,2,7,5,nan,nan,nan,nan,nan,nan,nan,nan,nan,nan,nan,nan,0.0,nan,nan,nan,nan,nan,nan,nan,nan,nan,nan,nan,nan,nan,nan,nan,nan,nan,nan,250.64274980255868,573.4074956828263,nan,573.8157058267388,nan,nan,nan,nan
1,242,1,1,1.0,1.0,0.3360709602711722,0,8,1,0,5,4,2,nan,nan,nan,nan,nan,nan,nan,nan,nan,nan,nan,nan,0.0,nan,nan,nan,nan,nan,nan,nan,nan,nan,nan,nan,nan,nan,nan,nan,nan,nan,nan,250.64274980255868,574.4076282543829,nan,574.743699214654,nan,nan,nan,nan
1,243,1,1,1.0,1.0,0.35992500733118504,0,6,3,4,0,1,5,nan,nan,nan,nan,nan,nan,nan,nan,nan,nan,nan,nan,0.0,nan,nan,nan,nan,nan,nan,nan,nan,nan,nan,nan,nan,nan,nan,nan,nan,nan,nan,250.64274980255868,575.4077682385687,nan,575.7676932458999,nan,nan,nan,nan
1,244,1,1,1.0,1.0,0.3837921688100323,0,1,2,7,5,4,3,nan,nan,nan,nan,nan,nan,nan,nan,nan,nan,nan,nan,0.0,nan,nan,nan,nan,nan,nan,nan,nan,nan,nan,nan,nan,nan,nan,nan,nan,nan,nan,250.64274980255868,576.4078933976125,nan,576.7916855664225,nan,nan,nan,nan
1,245,1,1,1.0,1.0,0.3276285737520084,0,0,4,6,8,7,1,nan,nan,nan,nan,nan,nan,nan,nan,nan,nan,nan,nan,0.0,nan,nan,nan,nan,nan,nan,nan,nan,nan,nan,nan,nan,nan,nan,nan,nan,nan,nan,250.64274980255868,577.4080416497309,nan,577.7356702234829,nan,nan,nan,nan
1,246,1,1,1.0,1.0,0.33547538600396365,0,5,8,4,1,3,0,nan,nan,nan,nan,nan,nan,nan,nan,nan,nan,nan,nan,0.0,nan,nan,nan,nan,nan,nan,nan,nan,nan,nan,nan,nan,nan,nan,nan,nan,nan,nan,250.64274980255868,578.4081884762272,nan,578.7436638622312,nan,nan,nan,nan
1,247,1,1,1.0,1.0,0.3193381455494091,0,0,1,7,3,6,2,nan,nan,nan,nan,nan,nan,nan,nan,nan,nan,nan,nan,0.0,nan,nan,nan,nan,nan,nan,nan,nan,nan,nan,nan,nan,nan,nan,nan,nan,nan,nan,250.64274980255868,579.4083199074958,nan,579.7276580530452,nan,nan,nan,nan
1,248,1,1,1.0,1.0,0.3431981796165928,0,2,4,3,7,0,5,nan,nan,nan,nan,nan,nan,nan,nan,nan,nan,nan,nan,0.0,nan,nan,nan,nan,nan,nan,nan,nan,nan,nan,nan,nan,nan,nan,nan,nan,nan,nan,250.64274980255868,580.408458466176,nan,580.7516566457925,nan,nan,nan,nan
1,249,1,1,1.0,1.0,0.30304723628796637,0,3,1,5,8,6,2,nan,nan,nan,nan,nan,nan,nan,nan,nan,nan,nan,nan,0.0,nan,nan,nan,nan,nan,nan,nan,nan,nan,nan,nan,nan,nan,nan,nan,nan,nan,nan,250.64274980255868,581.4085924632382,nan,581.7116396995261,nan,nan,nan,nan
1,250,1,1,1.0,1.0,0.3508987354580313,0,6,4,2,0,3,1,nan,nan,nan,nan,nan,nan,nan,nan,nan,nan,nan,nan,0.0,nan,nan,nan,nan,nan,nan,nan,nan,nan,nan,nan,nan,nan,nan,nan,nan,nan,nan,250.64274980255868,582.4087398600532,nan,582.7596385955112,nan,nan,nan,nan
1,251,1,1,1.0,1.0,0.4547521780477837,0,8,7,0,2,6,4,nan,nan,nan,nan,nan,nan,nan,nan,nan,nan,nan,nan,0.0,nan,nan,nan,nan,nan,nan,nan,nan,nan,nan,nan,nan,nan,nan,nan,nan,nan,nan,250.64274980255868,583.4088744273176,nan,583.8636266053654,nan,nan,nan,nan
1,252,1,1,1.0,1.0,0.31859431928023696,0,2,0,8,4,7,6,nan,nan,nan,nan,nan,nan,nan,nan,nan,nan,nan,nan,0.0,nan,nan,nan,nan,nan,nan,nan,nan,nan,nan,nan,nan,nan,nan,nan,nan,nan,nan,250.64274980255868,584.409008709481,nan,584.7276030287612,nan,nan,nan,nan
1,253,1,1,1.0,1.0,0.35045369423460215,0,4,6,3,5,8,1,nan,nan,nan,nan,nan,nan,nan,nan,nan,nan,nan,nan,0.0,nan,nan,nan,nan,nan,nan,nan,nan,nan,nan,nan,nan,nan,nan,nan,nan,nan,nan,250.64274980255868,585.409139855532,nan,585.7595935497666,nan,nan,nan,nan
1,254,1,1,1.0,1.0,0.35030686762183905,0,7,2,8,1,4,5,nan,nan,nan,nan,nan,nan,nan,nan,nan,nan,nan,nan,0.0,nan,nan,nan,nan,nan,nan,nan,nan,nan,nan,nan,nan,nan,nan,nan,nan,nan,nan,250.64274980255868,586.4092769887066,nan,586.7595838563284,nan,nan,nan,nan
1,255,1,1,1.0,1.0,0.486157103208825,0,5,1,4,7,3,8,nan,nan,nan,nan,nan,nan,nan,nan,nan,nan,nan,nan,0.0,nan,nan,nan,nan,nan,nan,nan,nan,nan,nan,nan,nan,nan,nan,nan,nan,nan,nan,250.64274980255868,587.409412981593,nan,587.8955700848019,nan,nan,nan,nan
1,256,1,1,1.0,1.0,0.27001125284004956,0,4,6,7,1,8,3,nan,nan,nan,nan,nan,nan,nan,nan,nan,nan,nan,nan,0.0,nan,nan,nan,nan,nan,nan,nan,nan,nan,nan,nan,nan,nan,nan,nan,nan,nan,nan,250.64274980255868,588.409550970071,nan,588.679562222911,nan,nan,nan,nan
1,257,1,1,1.0,1.0,0.3898177611408755,0,0,8,1,7,6,4,nan,nan,nan,nan,nan,nan,nan,nan,nan,nan,nan,nan,0.0,nan,nan,nan,nan,nan,nan,nan,nan,nan,nan,nan,nan,nan,nan,nan,nan,nan,nan,250.64274980255868,589.4097439828329,nan,589.7995617439738,nan,nan,nan,nan
1,258,1,1,1.0,1.0,0.4217293093679473,0,8,1,3,5,4,6,nan,nan,nan,nan,nan,nan,nan,nan,nan,nan,nan,nan,0.0,nan,nan,nan,nan,nan,nan,nan,nan,nan,nan,nan,nan,nan,nan,nan,nan,nan,nan,250.64274980255868,590.4098252364201,nan,590.8315545457881,nan,nan,nan,nan
1,259,1,1,1.0,1.0,0.2615782746579498,0,3,8,0,7,2,5,nan,nan,nan,nan,nan,nan,nan,nan,nan,nan,nan,nan,0.0,nan,nan,nan,nan,nan,nan,nan,nan,nan,nan,nan,nan,nan,nan,nan,nan,nan,nan,250.64274980255868,591.4099615142914,nan,591.6715397889493,nan,nan,nan,nan
1,260,1,1,1.0,1.0,0.34943617158569396,0,4,7,6,1,0,3,nan,nan,nan,nan,nan,nan,nan,nan,nan,nan,nan,nan,0.0,nan,nan,nan,nan,nan,nan,nan,nan,nan,nan,nan,nan,nan,nan,nan,nan,nan,nan,250.64274980255868,592.4101029239828,nan,592.7595390955685,nan,nan,nan,nan
1,261,1,1,1.0,1.0,0.25327957863919437,0,0,1,2,3,4,5,nan,nan,nan,nan,nan,nan,nan,nan,nan,nan,nan,nan,0.0,nan,nan,nan,nan,nan,nan,nan,nan,nan,nan,nan,nan,nan,nan,nan,nan,nan,nan,250.64274980255868,593.4102466144832,nan,593.6635261931224,nan,nan,nan,nan
1,262,0,0,1.0,0.0,0.22112854628358036,0,7,4,6,8,3,0,nan,nan,nan,nan,nan,nan,nan,nan,nan,nan,nan,nan,0.0,nan,nan,nan,nan,nan,nan,nan,nan,nan,nan,nan,nan,nan,nan,nan,nan,nan,nan,250.64274980255868,594.4103860284667,nan,594.6315145747503,nan,nan,nan,nan
1,263,1,1,1.0,1.0,0.18097959854640067,0,2,5,1,0,8,6,nan,nan,nan,nan,nan,nan,nan,nan,nan,nan,nan,nan,0.0,nan,nan,nan,nan,nan,nan,nan,nan,nan,nan,nan,nan,nan,nan,nan,nan,nan,nan,250.64274980255868,595.4105225914391,nan,595.5915021899855,nan,nan,nan,nan
1,264,1,1,1.0,1.0,0.04483456921298057,0,6,8,3,4,5,1,nan,nan,nan,nan,nan,nan,nan,nan,nan,nan,nan,nan,0.0,nan,nan,nan,nan,nan,nan,nan,nan,nan,nan,nan,nan,nan,nan,nan,nan,nan,nan,250.64274980255868,596.4106677074451,nan,596.4555022766581,nan,nan,nan,nan
1,265,1,1,1.0,1.0,0.40468801627866924,0,3,5,8,0,2,6,nan,nan,nan,nan,nan,nan,nan,nan,nan,nan,nan,nan,0.0,nan,nan,nan,nan,nan,nan,nan,nan,nan,nan,nan,nan,nan,nan,nan,nan,nan,nan,250.64274980255868,597.4107868793653,nan,597.815474895644,nan,nan,nan,nan
1,266,1,1,1.0,1.0,0.29255697515327483,0,6,2,7,1,4,3,nan,nan,nan,nan,nan,nan,nan,nan,nan,nan,nan,nan,0.0,nan,nan,nan,nan,nan,nan,nan,nan,nan,nan,nan,nan,nan,nan,nan,nan,nan,nan,250.64274980255868,598.4109305697493,nan,598.7034875449026,nan,nan,nan,nan
1,267,0,0,0.0,1.0,0.6524212560616434,0,8,3,4,5,6,7,nan,nan,nan,nan,nan,nan,nan,nan,nan,nan,nan,nan,0.0,nan,nan,nan,nan,nan,nan,nan,nan,nan,nan,nan,nan,nan,nan,nan,nan,nan,nan,250.64274980255868,599.4110520224785,nan,600.0634732785402,nan,nan,nan,nan
1,268,1,1,1.0,1.0,0.39624705526512116,0,0,4,5,7,2,6,nan,nan,nan,nan,nan,nan,nan,nan,nan,nan,nan,nan,0.0,nan,nan,nan,nan,nan,nan,nan,nan,nan,nan,nan,nan,nan,nan,nan,nan,nan,nan,250.64274980255868,600.4112065468216,nan,600.8074536020868,nan,nan,nan,nan
1,269,1,1,1.0,1.0,0.31610796065069735,0,7,8,2,6,0,3,nan,nan,nan,nan,nan,nan,nan,nan,nan,nan,nan,nan,0.0,nan,nan,nan,nan,nan,nan,nan,nan,nan,nan,nan,nan,nan,nan,nan,nan,nan,nan,250.64274980255868,601.4113325610524,nan,601.7274405217031,nan,nan,nan,nan
1,270,1,1,1.0,1.0,0.451949643320404,0,6,2,1,3,7,5,nan,nan,nan,nan,nan,nan,nan,nan,nan,nan,nan,nan,0.0,nan,nan,nan,nan,nan,nan,nan,nan,nan,nan,nan,nan,nan,nan,nan,nan,nan,nan,250.64274980255868,602.411471975036,nan,602.8634216183564,nan,nan,nan,nan
1,271,1,1,1.0,1.0,0.34780482831411064,0,2,6,8,1,5,3,nan,nan,nan,nan,nan,nan,nan,nan,nan,nan,nan,nan,0.0,nan,nan,nan,nan,nan,nan,nan,nan,nan,nan,nan,nan,nan,nan,nan,nan,nan,nan,250.64274980255868,603.4116296354914,nan,603.7594344638055,nan,nan,nan,nan
1,272,0,0,0.0,1.0,0.6836679506814107,0,5,2,0,7,1,4,nan,nan,nan,nan,nan,nan,nan,nan,nan,nan,nan,nan,0.0,nan,nan,nan,nan,nan,nan,nan,nan,nan,nan,nan,nan,nan,nan,nan,nan,nan,nan,250.64274980255868,604.4117473817896,nan,605.095415332471,nan,nan,nan,nan
1,273,1,1,1.0,1.0,0.4515271248528734,0,7,8,5,6,4,3,nan,nan,nan,nan,nan,nan,nan,nan,nan,nan,nan,nan,0.0,nan,nan,nan,nan,nan,nan,nan,nan,nan,nan,nan,nan,nan,nan,nan,nan,nan,nan,250.64274980255868,605.411886510672,nan,605.8634136355249,nan,nan,nan,nan
1,274,1,1,1.0,1.0,0.2753836807096377,0,0,5,3,8,1,6,nan,nan,nan,nan,nan,nan,nan,nan,nan,nan,nan,nan,0.0,nan,nan,nan,nan,nan,nan,nan,nan,nan,nan,nan,nan,nan,nan,nan,nan,nan,nan,250.64274980255868,606.4120253544534,nan,606.687409035163,nan,nan,nan,nan
1,275,1,1,1.0,1.0,0.27524312620516866,0,4,6,7,1,2,0,nan,nan,nan,nan,nan,nan,nan,nan,nan,nan,nan,nan,0.0,nan,nan,nan,nan,nan,nan,nan,nan,nan,nan,nan,nan,nan,nan,nan,nan,nan,nan,250.64274980255868,607.4121559304185,nan,607.6873990566237,nan,nan,nan,nan
1,276,1,1,1.0,1.0,0.3550688959658146,0,2,4,6,5,7,8,nan,nan,nan,nan,nan,nan,nan,nan,nan,nan,nan,nan,0.0,nan,nan,nan,nan,nan,nan,nan,nan,nan,nan,nan,nan,nan,nan,nan,nan,nan,nan,250.64274980255868,608.412307603634,nan,608.7673764995998,nan,nan,nan,nan
1,277,1,1,1.0,1.0,0.4269363790517673,0,1,5,3,7,8,0,nan,nan,nan,nan,nan,nan,nan,nan,nan,nan,nan,nan,0.0,nan,nan,nan,nan,nan,nan,nan,nan,nan,nan,nan,nan,nan,nan,nan,nan,nan,nan,250.64274980255868,609.4124464474153,nan,609.839382826467,nan,nan,nan,nan
1,278,1,1,1.0,1.0,0.4027744239429012,0,6,1,5,3,4,2,nan,nan,nan,nan,nan,nan,nan,nan,nan,nan,nan,nan,0.0,nan,nan,nan,nan,nan,nan,nan,nan,nan,nan,nan,nan,nan,nan,nan,nan,nan,nan,250.64274980255868,610.4125830103876,nan,610.8153574343305,nan,nan,nan,nan
1,279,1,1,1.0,1.0,0.3786358468933031,0,7,4,0,2,3,8,nan,nan,nan,nan,nan,nan,nan,nan,nan,nan,nan,nan,0.0,nan,nan,nan,nan,nan,nan,nan,nan,nan,nan,nan,nan,nan,nan,nan,nan,nan,nan,250.64274980255868,611.4127144416561,nan,611.7913502885494,nan,nan,nan,nan
1,280,1,1,1.0,1.0,0.3144860255997628,0,8,0,6,1,7,2,nan,nan,nan,nan,nan,nan,nan,nan,nan,nan,nan,nan,0.0,nan,nan,nan,nan,nan,nan,nan,nan,nan,nan,nan,nan,nan,nan,nan,nan,nan,nan,250.64274980255868,612.4128564215498,nan,612.7273424471496,nan,nan,nan,nan
1,281,1,1,1.0,1.0,0.4343486985890195,0,4,1,2,8,5,7,nan,nan,nan,nan,nan,nan,nan,nan,nan,nan,nan,nan,0.0,nan,nan,nan,nan,nan,nan,nan,nan,nan,nan,nan,nan,nan,nan,nan,nan,nan,nan,250.64274980255868,613.4129946951289,nan,613.8473433937179,nan,nan,nan,nan
1,282,1,1,1.0,1.0,0.30618248286191374,0,8,5,1,6,7,2,nan,nan,nan,nan,nan,nan,nan,nan,nan,nan,nan,nan,0.0,nan,nan,nan,nan,nan,nan,nan,nan,nan,nan,nan,nan,nan,nan,nan,nan,nan,nan,250.64274980255868,614.413135534618,nan,614.71931801748,nan,nan,nan,nan
1,283,1,1,1.0,1.0,0.33004821895156056,0,7,4,0,1,5,6,nan,nan,nan,nan,nan,nan,nan,nan,nan,nan,nan,nan,0.0,nan,nan,nan,nan,nan,nan,nan,nan,nan,nan,nan,nan,nan,nan,nan,nan,nan,nan,250.64274980255868,615.4132629743544,nan,615.743311193306,nan,nan,nan,nan
1,284,1,1,1.0,1.0,0.3219183023320511,0,3,8,1,4,0,7,nan,nan,nan,nan,nan,nan,nan,nan,nan,nan,nan,nan,0.0,nan,nan,nan,nan,nan,nan,nan,nan,nan,nan,nan,nan,nan,nan,nan,nan,nan,nan,250.64274980255868,616.4133986820234,nan,616.7353169843554,nan,nan,nan,nan
1,285,1,1,1.0,1.0,0.2417857648106292,0,4,2,5,0,6,1,nan,nan,nan,nan,nan,nan,nan,nan,nan,nan,nan,nan,0.0,nan,nan,nan,nan,nan,nan,nan,nan,nan,nan,nan,nan,nan,nan,nan,nan,nan,nan,250.64274980255868,617.4135315387975,nan,617.6553173036082,nan,nan,nan,nan
1,286,1,1,1.0,1.0,0.17761513125151396,0,1,3,2,8,7,5,nan,nan,nan,nan,nan,nan,nan,nan,nan,nan,nan,nan,0.0,nan,nan,nan,nan,nan,nan,nan,nan,nan,nan,nan,nan,nan,nan,nan,nan,nan,nan,250.64274980255868,618.4136718080845,nan,618.591286939336,nan,nan,nan,nan
1,287,1,1,1.0,1.0,0.17747942358255386,0,8,7,1,3,0,6,nan,nan,nan,nan,nan,nan,nan,nan,nan,nan,nan,nan,0.0,nan,nan,nan,nan,nan,nan,nan,nan,nan,nan,nan,nan,nan,nan,nan,nan,nan,nan,250.64274980255868,619.4138066604501,nan,619.5912860840326,nan,nan,nan,nan
1,288,1,1,1.0,1.0,0.08133195375557989,0,5,0,8,2,6,1,nan,nan,nan,nan,nan,nan,nan,nan,nan,nan,nan,nan,0.0,nan,nan,nan,nan,nan,nan,nan,nan,nan,nan,nan,nan,nan,nan,nan,nan,nan,nan,250.64274980255868,620.4139437936246,nan,620.4952757473802,nan,nan,nan,nan
1,289,0,0,nan,nan,nan,0,7,6,2,3,1,5,nan,nan,nan,nan,nan,nan,nan,nan,nan,nan,nan,nan,0.0,nan,nan,nan,nan,nan,nan,nan,nan,nan,nan,nan,nan,nan,nan,nan,nan,nan,nan,250.64274980255868,621.41407351417,nan,nan,nan,nan,nan,nan
1,290,1,1,nan,nan,nan,0,3,2,8,0,7,4,nan,nan,nan,nan,nan,nan,nan,nan,nan,nan,nan,nan,0.0,nan,nan,nan,nan,nan,nan,nan,nan,nan,nan,nan,nan,nan,nan,nan,nan,nan,nan,250.64274980255868,622.414213783457,nan,nan,nan,nan,nan,nan
1,291,1,1,1.0,1.0,0.5369134884094819,0,4,8,0,6,3,7,nan,nan,nan,nan,nan,nan,nan,nan,nan,nan,nan,nan,0.0,nan,nan,nan,nan,nan,nan,nan,nan,nan,nan,nan,nan,nan,nan,nan,nan,nan,nan,250.64274980255868,623.4143557633506,nan,623.9512692517601,nan,nan,nan,nan
1,292,0,0,0.0,1.0,0.4887321281712502,0,2,1,7,4,6,8,nan,nan,nan,nan,nan,nan,nan,nan,nan,nan,nan,nan,0.0,nan,nan,nan,nan,nan,nan,nan,nan,nan,nan,nan,nan,nan,nan,nan,nan,nan,nan,250.64274980255868,624.4144946071319,nan,624.9032267353032,nan,nan,nan,nan
1,293,1,1,1.0,1.0,0.28059046529233456,0,6,3,2,1,0,4,nan,nan,nan,nan,nan,nan,nan,nan,nan,nan,nan,nan,0.0,nan,nan,nan,nan,nan,nan,nan,nan,nan,nan,nan,nan,nan,nan,nan,nan,nan,nan,250.64274980255868,625.414630599902,nan,625.6952210651943,nan,nan,nan,nan
1,294,1,1,1.0,1.0,0.37643915007356554,0,3,4,6,8,1,0,nan,nan,nan,nan,nan,nan,nan,nan,nan,nan,nan,nan,0.0,nan,nan,nan,nan,nan,nan,nan,nan,nan,nan,nan,nan,nan,nan,nan,nan,nan,nan,250.64274980255868,626.4147717244923,nan,626.7912108745659,nan,nan,nan,nan
1,295,0,0,0.0,1.0,0.4482798338867724,0,6,1,4,3,0,2,nan,nan,nan,nan,nan,nan,nan,nan,nan,nan,nan,nan,0.0,nan,nan,nan,nan,nan,nan,nan,nan,nan,nan,nan,nan,nan,nan,nan,nan,nan,nan,250.64274980255868,627.4149134192849,nan,627.8631932531716,nan,nan,nan,nan
1,296,1,1,1.0,1.0,0.2721449425444007,0,8,2,3,5,6,7,nan,nan,nan,nan,nan,nan,nan,nan,nan,nan,nan,nan,0.0,nan,nan,nan,nan,nan,nan,nan,nan,nan,nan,nan,nan,nan,nan,nan,nan,nan,nan,250.64274980255868,628.4150428548455,nan,628.6871877973899,nan,nan,nan,nan
1,297,1,1,1.0,1.0,0.2639959242660552,0,0,4,7,6,5,2,nan,nan,nan,nan,nan,nan,nan,nan,nan,nan,nan,nan,0.0,nan,nan,nan,nan,nan,nan,nan,nan,nan,nan,nan,nan,nan,nan,nan,nan,nan,nan,250.64274980255868,629.4151925323531,nan,629.6791884566192,nan,nan,nan,nan
1,298,1,1,1.0,1.0,0.3358770922059193,0,4,2,8,3,1,7,nan,nan,nan,nan,nan,nan,nan,nan,nan,nan,nan,nan,0.0,nan,nan,nan,nan,nan,nan,nan,nan,nan,nan,nan,nan,nan,nan,nan,nan,nan,nan,250.64274980255868,630.415304006543,nan,630.7511810987489,nan,nan,nan,nan
1,299,1,1,1.0,1.0,0.31171314127277583,0,7,4,1,6,8,5,nan,nan,nan,nan,nan,nan,nan,nan,nan,nan,nan,nan,0.0,nan,nan,nan,nan,nan,nan,nan,nan,nan,nan,nan,nan,nan,nan,nan,nan,nan,nan,250.64274980255868,631.4154568202794,nan,631.7271699615521,nan,nan,nan,nan
1,300,1,1,1.0,1.0,0.28755346697289497,1,6,3,5,0,2,4,1.0,1.0,1.0,1.0,1.0,1.0,0.0,1.0,0.0,0.0,0.0,0.0,1.0,4.0,3.0,4.0,2.0,8.0,5.0,3.0,1.0,2.0,6.0,5.0,4.0,3.2604105044156313,1.0756573198596016,2.0424308895599097,5.922336430172436,4.938727694912814,4.066680940683,250.64274980255868,632.4156002256786,633.2240114791784,632.7031536926515,640.1999604280572,641.1985340719111,634.2408714485355,640.1916309412336
1,301,1,1,1.0,1.0,0.5588978482410312,0,1,0,7,6,4,5,nan,nan,nan,nan,nan,nan,nan,nan,nan,nan,nan,nan,0.0,nan,nan,nan,nan,nan,nan,nan,nan,nan,nan,nan,nan,nan,nan,nan,nan,nan,nan,250.64274980255868,641.4001586297527,nan,641.9590564779937,nan,nan,nan,nan
1,302,1,1,1.0,1.0,0.3908315773587674,0,5,4,6,0,7,1,nan,nan,nan,nan,nan,nan,nan,nan,nan,nan,nan,nan,0.0,nan,nan,nan,nan,nan,nan,nan,nan,nan,nan,nan,nan,nan,nan,nan,nan,nan,nan,250.64274980255868,642.400295192725,nan,642.7911267700838,nan,nan,nan,nan
1,303,1,1,1.0,1.0,0.2866169128101319,0,6,8,1,2,5,0,nan,nan,nan,nan,nan,nan,nan,nan,nan,nan,nan,nan,0.0,nan,nan,nan,nan,nan,nan,nan,nan,nan,nan,nan,nan,nan,nan,nan,nan,nan,nan,250.64274980255868,643.4004357471131,nan,643.6870526599232,nan,nan,nan,nan
1,304,1,1,1.0,1.0,0.3184683049330488,0,3,6,8,5,7,2,nan,nan,nan,nan,nan,nan,nan,nan,nan,nan,nan,nan,0.0,nan,nan,nan,nan,nan,nan,nan,nan,nan,nan,nan,nan,nan,nan,nan,nan,nan,nan,250.64274980255868,644.4005720249843,nan,644.7190403299173,nan,nan,nan,nan
1,305,1,1,1.0,1.0,0.33430676034186035,0,2,5,4,0,8,6,nan,nan,nan,nan,nan,nan,nan,nan,nan,nan,nan,nan,0.0,nan,nan,nan,nan,nan,nan,nan,nan,nan,nan,nan,nan,nan,nan,nan,nan,nan,nan,250.64274980255868,645.400718851597,nan,645.7350256119389,nan,nan,nan,nan
1,306,0,0,0.0,1.0,0.4941524526802823,0,3,8,7,4,6,0,nan,nan,nan,nan,nan,nan,nan,nan,nan,nan,nan,nan,0.0,nan,nan,nan,nan,nan,nan,nan,nan,nan,nan,nan,nan,nan,nan,nan,nan,nan,nan,250.64274980255868,646.4008559847716,nan,646.8950084374519,nan,nan,nan,nan
1,307,1,1,1.0,1.0,0.33402622176799923,0,5,7,6,3,1,2,nan,nan,nan,nan,nan,nan,nan,nan,nan,nan,nan,nan,0.0,nan,nan,nan,nan,nan,nan,nan,nan,nan,nan,nan,nan,nan,nan,nan,nan,nan,nan,250.64274980255868,647.4009828543058,nan,647.7350090760738,nan,nan,nan,nan
1,308,1,1,1.0,1.0,0.26988124719355255,0,0,6,1,4,3,7,nan,nan,nan,nan,nan,nan,nan,nan,nan,nan,nan,nan,0.0,nan,nan,nan,nan,nan,nan,nan,nan,nan,nan,nan,nan,nan,nan,nan,nan,nan,nan,250.64274980255868,648.4011216980871,nan,648.6710029452806,nan,nan,nan,nan
1,309,1,1,1.0,1.0,0.2937449875753373,0,6,1,8,0,2,5,nan,nan,nan,nan,nan,nan,nan,nan,nan,nan,nan,nan,0.0,nan,nan,nan,nan,nan,nan,nan,nan,nan,nan,nan,nan,nan,nan,nan,nan,nan,nan,250.64274980255868,649.4012608269695,nan,649.6950058145449,nan,nan,nan,nan
1,310,1,1,1.0,1.0,0.3096016894560307,0,3,7,6,4,5,0,nan,nan,nan,nan,nan,nan,nan,nan,nan,nan,nan,nan,0.0,nan,nan,nan,nan,nan,nan,nan,nan,nan,nan,nan,nan,nan,nan,nan,nan,nan,nan,250.64274980255868,650.401393113425,nan,650.710994802881,nan,nan,nan,nan
1,311,1,1,1.0,1.0,0.29343622410669923,0,7,4,0,8,2,3,nan,nan,nan,nan,nan,nan,nan,nan,nan,nan,nan,nan,0.0,nan,nan,nan,nan,nan,nan,nan,nan,nan,nan,nan,nan,nan,nan,nan,nan,nan,nan,250.64274980255868,651.4015339529142,nan,651.6949701770209,nan,nan,nan,nan
1,312,1,1,1.0,1.0,0.35728897096123546,0,3,5,8,7,6,1,nan,nan,nan,nan,nan,nan,nan,nan,nan,nan,nan,nan,0.0,nan,nan,nan,nan,nan,nan,nan,nan,nan,nan,nan,nan,nan,nan,nan,nan,nan,nan,250.64274980255868,652.4016699458007,nan,652.7589589167619,nan,nan,nan,nan
1,313,1,1,1.0,1.0,0.2211867067962885,0,7,1,6,8,5,3,nan,nan,nan,nan,nan,nan,nan,nan,nan,nan,nan,nan,0.0,nan,nan,nan,nan,nan,nan,nan,nan,nan,nan,nan,nan,nan,nan,nan,nan,nan,nan,250.64274980255868,653.4017805645708,nan,653.6229672713671,nan,nan,nan,nan
1,314,1,1,1.0,1.0,0.3169940519146621,0,5,2,7,4,6,8,nan,nan,nan,nan,nan,nan,nan,nan,nan,nan,nan,nan,0.0,nan,nan,nan,nan,nan,nan,nan,nan,nan,nan,nan,nan,nan,nan,nan,nan,nan,nan,250.64274980255868,654.4019487737678,nan,654.7189428256825,nan,nan,nan,nan
1,315,1,1,1.0,1.0,0.26086466887500137,0,2,0,6,3,8,5,nan,nan,nan,nan,nan,nan,nan,nan,nan,nan,nan,nan,0.0,nan,nan,nan,nan,nan,nan,nan,nan,nan,nan,nan,nan,nan,nan,nan,nan,nan,nan,250.64274980255868,655.4020816304255,nan,655.6629462993005,nan,nan,nan,nan
1,316,1,1,1.0,1.0,0.308707045041956,0,4,2,7,8,1,3,nan,nan,nan,nan,nan,nan,nan,nan,nan,nan,nan,nan,0.0,nan,nan,nan,nan,nan,nan,nan,nan,nan,nan,nan,nan,nan,nan,nan,nan,nan,nan,250.64274980255868,656.4022179082967,nan,656.7109249533387,nan,nan,nan,nan
1,317,1,1,1.0,1.0,0.3165424532489851,0,0,4,1,6,7,5,nan,nan,nan,nan,nan,nan,nan,nan,nan,nan,nan,nan,0.0,nan,nan,nan,nan,nan,nan,nan,nan,nan,nan,nan,nan,nan,nan,nan,nan,nan,nan,250.64274980255868,657.4023735730443,nan,657.7189160262933,nan,nan,nan,nan
1,318,0,0,0.0,1.0,0.492446698481217,0,1,5,7,0,6,2,nan,nan,nan,nan,nan,nan,nan,nan,nan,nan,nan,nan,0.0,nan,nan,nan,nan,nan,nan,nan,nan,nan,nan,nan,nan,nan,nan,nan,nan,nan,nan,250.64274980255868,658.402487898129,nan,658.8949345966103,nan,nan,nan,nan
1,319,1,1,1.0,1.0,0.3883115769131109,0,3,7,8,5,4,0,nan,nan,nan,nan,nan,nan,nan,nan,nan,nan,nan,nan,0.0,nan,nan,nan,nan,nan,nan,nan,nan,nan,nan,nan,nan,nan,nan,nan,nan,nan,nan,250.64274980255868,659.4025976617122,nan,659.7909092386253,nan,nan,nan,nan
1,320,1,1,1.0,1.0,0.2681318725226447,0,0,8,7,6,5,1,nan,nan,nan,nan,nan,nan,nan,nan,nan,nan,nan,nan,0.0,nan,nan,nan,nan,nan,nan,nan,nan,nan,nan,nan,nan,nan,nan,nan,nan,nan,nan,250.64274980255868,660.4027647303883,nan,660.670896602911,nan,nan,nan,nan
1,321,1,1,1.0,1.0,0.35597408888861537,0,1,0,4,7,8,5,nan,nan,nan,nan,nan,nan,nan,nan,nan,nan,nan,nan,0.0,nan,nan,nan,nan,nan,nan,nan,nan,nan,nan,nan,nan,nan,nan,nan,nan,nan,nan,250.64274980255868,661.4029001530726,nan,661.7588742419612,nan,nan,nan,nan
1,322,1,1,1.0,1.0,0.3638257479760796,0,7,1,3,0,6,4,nan,nan,nan,nan,nan,nan,nan,nan,nan,nan,nan,nan,0.0,nan,nan,nan,nan,nan,nan,nan,nan,nan,nan,nan,nan,nan,nan,nan,nan,nan,nan,250.64274980255868,662.4030469795689,nan,662.766872727545,nan,nan,nan,nan
1,323,1,1,1.0,1.0,0.2996867604088038,0,1,2,7,8,5,0,nan,nan,nan,nan,nan,nan,nan,nan,nan,nan,nan,nan,0.0,nan,nan,nan,nan,nan,nan,nan,nan,nan,nan,nan,nan,nan,nan,nan,nan,nan,nan,250.64274980255868,663.4031824022532,nan,663.702869162662,nan,nan,nan,nan
1,324,1,1,1.0,1.0,0.29151921055745333,0,4,5,6,1,8,7,nan,nan,nan,nan,nan,nan,nan,nan,nan,nan,nan,nan,0.0,nan,nan,nan,nan,nan,nan,nan,nan,nan,nan,nan,nan,nan,nan,nan,nan,nan,nan,250.64274980255868,664.4033295138506,nan,664.6948487244081,nan,nan,nan,nan
1,325,1,1,1.0,1.0,0.27538082969840616,0,2,7,8,4,0,1,nan,nan,nan,nan,nan,nan,nan,nan,nan,nan,nan,nan,0.0,nan,nan,nan,nan,nan,nan,nan,nan,nan,nan,nan,nan,nan,nan,nan,nan,nan,nan,250.64274980255868,665.4034603749169,nan,665.6788412046153,nan,nan,nan,nan
1,326,1,1,1.0,1.0,0.28324189700651914,1,8,0,2,7,1,6,1.0,1.0,1.0,1.0,1.0,1.0,0.0,1.0,0.0,0.0,0.0,1.0,2.0,5.0,0.0,5.0,8.0,3.0,6.0,3.0,1.0,2.0,4.0,5.0,6.0,3.552182883839123,1.015363193466328,2.19906407315284,4.767119339201599,5.902775421738625,7.029949773917906,250.64274980255868,666.4035926613724,667.2120158891194,666.6868345583789,675.2964483074611,676.298251851229,668.2288433570648,675.2881173951318
1,327,1,1,1.0,1.0,0.5097021016990766,0,2,6,0,5,8,4,nan,nan,nan,nan,nan,nan,nan,nan,nan,nan,nan,nan,0.0,nan,nan,nan,nan,nan,nan,nan,nan,nan,nan,nan,nan,nan,nan,nan,nan,nan,nan,250.64274980255868,676.505028454354,nan,677.0147305560531,nan,nan,nan,nan
1,328,1,1,1.0,1.0,0.3416227160487324,0,4,2,1,3,7,8,nan,nan,nan,nan,nan,nan,nan,nan,nan,nan,nan,nan,0.0,nan,nan,nan,nan,nan,nan,nan,nan,nan,nan,nan,nan,nan,nan,nan,nan,nan,nan,250.64274980255868,677.5050874701701,nan,677.8467101862188,nan,nan,nan,nan
1,329,1,1,1.0,1.0,0.3094263527309522,0,7,8,6,4,1,0,nan,nan,nan,nan,nan,nan,nan,nan,nan,nan,nan,nan,0.0,nan,nan,nan,nan,nan,nan,nan,nan,nan,nan,nan,nan,nan,nan,nan,nan,nan,nan,250.64274980255868,678.5052602408687,nan,678.8146865935996,nan,nan,nan,nan
1,330,1,1,1.0,1.0,0.33331119059585035,0,0,4,2,6,7,5,nan,nan,nan,nan,nan,nan,nan,nan,nan,nan,nan,nan,0.0,nan,nan,nan,nan,nan,nan,nan,nan,nan,nan,nan,nan,nan,nan,nan,nan,nan,nan,250.64274980255868,679.5053839742905,nan,679.8386951648863,nan,nan,nan,nan
1,331,1,1,1.0,1.0,0.30086023279000074,0,7,0,5,1,8,2,nan,nan,nan,nan,nan,nan,nan,nan,nan,nan,nan,nan,0.0,nan,nan,nan,nan,nan,nan,nan,nan,nan,nan,nan,nan,nan,nan,nan,nan,nan,nan,250.64274980255868,680.5138431817759,nan,680.8147034145659,nan,nan,nan,nan
1,332,1,1,1.0,1.0,0.28438799956347793,0,0,3,7,4,1,6,nan,nan,nan,nan,nan,nan,nan,nan,nan,nan,nan,nan,0.0,nan,nan,nan,nan,nan,nan,nan,nan,nan,nan,nan,nan,nan,nan,nan,nan,nan,nan,250.64274980255868,681.5222964021377,nan,681.8066844017012,nan,nan,nan,nan
1,333,1,1,1.0,1.0,0.31624651921447366,0,2,4,6,0,5,1,nan,nan,nan,nan,nan,nan,nan,nan,nan,nan,nan,nan,0.0,nan,nan,nan,nan,nan,nan,nan,nan,nan,nan,nan,nan,nan,nan,nan,nan,nan,nan,250.64274980255868,682.5224298289977,nan,682.8386763482122,nan,nan,nan,nan
1,334,1,1,1.0,1.0,0.3560376662062481,0,7,3,8,4,1,5,nan,nan,nan,nan,nan,nan,nan,nan,nan,nan,nan,nan,0.0,nan,nan,nan,nan,nan,nan,nan,nan,nan,nan,nan,nan,nan,nan,nan,nan,nan,nan,250.64274980255868,683.5226102974266,nan,683.8786479636328,nan,nan,nan,nan
1,335,1,1,1.0,1.0,0.34789092873688787,0,5,1,2,0,7,6,nan,nan,nan,nan,nan,nan,nan,nan,nan,nan,nan,nan,0.0,nan,nan,nan,nan,nan,nan,nan,nan,nan,nan,nan,nan,nan,nan,nan,nan,nan,nan,250.64274980255868,684.5227556984173,nan,684.8706466271542,nan,nan,nan,nan
1,336,1,1,1.0,1.0,0.2677538297139108,1,0,7,4,5,6,2,1.0,1.0,1.0,1.0,1.0,1.0,0.0,1.0,0.0,1.0,0.0,0.0,2.0,6.0,7.0,3.0,5.0,1.0,4.0,2.0,1.0,3.0,4.0,5.0,6.0,1.6160419029183686,0.7051670701475814,2.512056173873134,3.344298666343093,4.183468523086049,4.943281600018963,250.64274980255868,685.5228837084724,686.3313049405115,685.7906375381863,692.3237959720427,693.333283820888,687.3397997855209,692.3154627789045
1,337,1,1,1.0,1.0,0.5776229430921376,0,1,2,3,0,8,7,nan,nan,nan,nan,nan,nan,nan,nan,nan,nan,nan,nan,0.0,nan,nan,nan,nan,nan,nan,nan,nan,nan,nan,nan,nan,nan,nan,nan,nan,nan,nan,250.64274980255868,693.5489498476963,nan,694.1265727907885,nan,nan,nan,nan
1,338,1,1,1.0,1.0,0.4654314606450498,0,5,7,6,8,4,3,nan,nan,nan,nan,nan,nan,nan,nan,nan,nan,nan,nan,0.0,nan,nan,nan,nan,nan,nan,nan,nan,nan,nan,nan,nan,nan,nan,nan,nan,nan,nan,250.64274980255868,694.5491189120803,nan,695.0145503727254,nan,nan,nan,nan
1,339,1,1,1.0,1.0,0.37729302514344454,0,6,3,8,4,0,1,nan,nan,nan,nan,nan,nan,nan,nan,nan,nan,nan,nan,0.0,nan,nan,nan,nan,nan,nan,nan,nan,nan,nan,nan,nan,nan,nan,nan,nan,nan,nan,250.64274980255868,695.5492546197493,nan,695.9265476448927,nan,nan,nan,nan
1,340,1,1,1.0,1.0,0.3371549111325294,0,2,4,1,0,5,6,nan,nan,nan,nan,nan,nan,nan,nan,nan,nan,nan,nan,0.0,nan,nan,nan,nan,nan,nan,nan,nan,nan,nan,nan,nan,nan,nan,nan,nan,nan,nan,250.64274980255868,696.5493908977369,nan,696.8865458088694,nan,nan,nan,nan
1,341,1,1,1.0,1.0,0.2970396053278819,0,4,6,3,7,8,0,nan,nan,nan,nan,nan,nan,nan,nan,nan,nan,nan,nan,0.0,nan,nan,nan,nan,nan,nan,nan,nan,nan,nan,nan,nan,nan,nan,nan,nan,nan,nan,250.64274980255868,697.5495086440351,nan,697.846548249363,nan,nan,nan,nan
1,342,1,1,1.0,1.0,0.3128546824445948,0,0,2,4,8,6,1,nan,nan,nan,nan,nan,nan,nan,nan,nan,nan,nan,nan,0.0,nan,nan,nan,nan,nan,nan,nan,nan,nan,nan,nan,nan,nan,nan,nan,nan,nan,nan,250.64274980255868,698.5496814147336,nan,698.8625360971782,nan,nan,nan,nan
1,343,1,1,1.0,1.0,0.3127406424609944,0,6,3,1,4,8,2,nan,nan,nan,nan,nan,nan,nan,nan,nan,nan,nan,nan,0.0,nan,nan,nan,nan,nan,nan,nan,nan,nan,nan,nan,nan,nan,nan,nan,nan,nan,nan,250.64274980255868,699.5497806295753,nan,699.8625212720362,nan,nan,nan,nan
1,344,1,1,1.0,1.0,0.24058207194320858,0,3,4,2,6,1,7,nan,nan,nan,nan,nan,nan,nan,nan,nan,nan,nan,nan,0.0,nan,nan,nan,nan,nan,nan,nan,nan,nan,nan,nan,nan,nan,nan,nan,nan,nan,nan,250.64274980255868,700.5499400006374,nan,700.7905220725806,nan,nan,nan,nan
1,345,1,1,1.0,1.0,0.29641894216183573,0,6,2,8,4,5,0,nan,nan,nan,nan,nan,nan,nan,nan,nan,nan,nan,nan,0.0,nan,nan,nan,nan,nan,nan,nan,nan,nan,nan,nan,nan,nan,nan,nan,nan,nan,nan,250.64274980255868,701.5500916739693,nan,701.8465106161311,nan,nan,nan,nan
1,346,1,1,1.0,1.0,0.2642650587949902,0,2,6,4,5,3,1,nan,nan,nan,nan,nan,nan,nan,nan,nan,nan,nan,nan,0.0,nan,nan,nan,nan,nan,nan,nan,nan,nan,nan,nan,nan,nan,nan,nan,nan,nan,nan,250.64274980255868,702.5502236753237,nan,702.8144887341186,nan,nan,nan,nan
1,347,1,1,1.0,1.0,0.29612642934080213,0,4,3,7,2,1,0,nan,nan,nan,nan,nan,nan,nan,nan,nan,nan,nan,nan,0.0,nan,nan,nan,nan,nan,nan,nan,nan,nan,nan,nan,nan,nan,nan,nan,nan,nan,nan,250.64274980255868,703.5503622340038,nan,703.8464886633446,nan,nan,nan,nan
1,348,1,1,1.0,1.0,0.24799182557035238,0,6,4,1,0,7,5,nan,nan,nan,nan,nan,nan,nan,nan,nan,nan,nan,nan,0.0,nan,nan,nan,nan,nan,nan,nan,nan,nan,nan,nan,nan,nan,nan,nan,nan,nan,nan,250.64274980255868,704.5504785549128,nan,704.7984703804832,nan,nan,nan,nan
1,349,1,1,1.0,1.0,0.23182921134866774,0,3,1,6,2,5,0,nan,nan,nan,nan,nan,nan,nan,nan,nan,nan,nan,nan,0.0,nan,nan,nan,nan,nan,nan,nan,nan,nan,nan,nan,nan,nan,nan,nan,nan,nan,nan,250.64274980255868,705.5506373556564,nan,705.782466567005,nan,nan,nan,nan
1,350,1,1,1.0,1.0,0.14367851649876684,0,4,8,0,1,2,3,nan,nan,nan,nan,nan,nan,nan,nan,nan,nan,nan,nan,0.0,nan,nan,nan,nan,nan,nan,nan,nan,nan,nan,nan,nan,nan,nan,nan,nan,nan,nan,250.64274980255868,706.5507704974152,nan,706.694449013914,nan,nan,nan,nan
1,351,1,1,1.0,1.0,0.39953910710755736,0,2,0,4,5,3,6,nan,nan,nan,nan,nan,nan,nan,nan,nan,nan,nan,nan,0.0,nan,nan,nan,nan,nan,nan,nan,nan,nan,nan,nan,nan,nan,nan,nan,nan,nan,nan,250.64274980255868,707.5509067752864,nan,707.950445882394,nan,nan,nan,nan
1,352,1,1,1.0,1.0,0.3913855269784108,0,1,3,2,6,4,0,nan,nan,nan,nan,nan,nan,nan,nan,nan,nan,nan,nan,0.0,nan,nan,nan,nan,nan,nan,nan,nan,nan,nan,nan,nan,nan,nan,nan,nan,nan,nan,250.64274980255868,708.5510444787797,nan,708.9424300057581,nan,nan,nan,nan
1,353,1,1,1.0,1.0,0.31925432616844773,0,8,6,5,0,7,4,nan,nan,nan,nan,nan,nan,nan,nan,nan,nan,nan,nan,0.0,nan,nan,nan,nan,nan,nan,nan,nan,nan,nan,nan,nan,nan,nan,nan,nan,nan,nan,250.64274980255868,709.5511750546284,nan,709.8704293807968,nan,nan,nan,nan
1,354,1,1,1.0,1.0,0.4390990377869457,0,0,4,8,6,1,2,nan,nan,nan,nan,nan,nan,nan,nan,nan,nan,nan,nan,0.0,nan,nan,nan,nan,nan,nan,nan,nan,nan,nan,nan,nan,nan,nan,nan,nan,nan,nan,250.64274980255868,710.5513178898254,nan,710.9904169276124,nan,nan,nan,nan
1,355,1,1,1.0,1.0,0.32695402670651674,0,4,2,3,0,6,7,nan,nan,nan,nan,nan,nan,nan,nan,nan,nan,nan,nan,0.0,nan,nan,nan,nan,nan,nan,nan,nan,nan,nan,nan,nan,nan,nan,nan,nan,nan,nan,250.64274980255868,711.5514564485056,nan,711.8784104752121,nan,nan,nan,nan
1,356,1,1,1.0,1.0,0.29480527515988797,0,6,8,0,2,1,4,nan,nan,nan,nan,nan,nan,nan,nan,nan,nan,nan,nan,0.0,nan,nan,nan,nan,nan,nan,nan,nan,nan,nan,nan,nan,nan,nan,nan,nan,nan,nan,250.64274980255868,712.551593011478,nan,712.8463982866379,nan,nan,nan,nan
1,357,1,1,1.0,1.0,0.3106457262765616,0,8,4,6,3,2,7,nan,nan,nan,nan,nan,nan,nan,nan,nan,nan,nan,nan,0.0,nan,nan,nan,nan,nan,nan,nan,nan,nan,nan,nan,nan,nan,nan,nan,nan,nan,nan,250.64274980255868,713.5517298595514,nan,713.862375585828,nan,nan,nan,nan
1,358,0,0,1.0,0.0,0.2276211327407509,0,7,2,8,0,3,4,nan,nan,nan,nan,nan,nan,nan,nan,nan,nan,nan,nan,0.0,nan,nan,nan,nan,nan,nan,nan,nan,nan,nan,nan,nan,nan,nan,nan,nan,nan,nan,250.64274980255868,714.5547818569466,nan,714.7824029896874,nan,nan,nan,nan
1,359,1,1,1.0,1.0,0.23802187235560268,0,8,1,4,3,5,0,nan,nan,nan,nan,nan,nan,nan,nan,nan,nan,nan,nan,0.0,nan,nan,nan,nan,nan,nan,nan,nan,nan,nan,nan,nan,nan,nan,nan,nan,nan,nan,250.64274980255868,715.5603461571736,nan,715.7983680295292,nan,nan,nan,nan
1,360,1,1,1.0,1.0,0.2298868236830458,1,0,7,2,1,4,8,1.0,1.0,1.0,1.0,1.0,1.0,0.0,1.0,0.0,1.0,0.0,0.0,2.0,3.0,7.0,8.0,1.0,2.0,6.0,2.0,1.0,3.0,4.0,5.0,6.0,1.7697231591446325,0.7621640129946172,2.609848386608064,3.3206835334422067,4.209765593521297,5.625041660270654,250.64274980255868,716.5604727417231,717.36889596947,716.7903595654061,724.0531284185126,725.0634134075372,718.3857106078649,724.0447952253744
1,361,1,1,1.0,1.0,0.6482867331942543,0,7,4,5,6,3,0,nan,nan,nan,nan,nan,nan,nan,nan,nan,nan,nan,nan,0.0,nan,nan,nan,nan,nan,nan,nan,nan,nan,nan,nan,nan,nan,nan,nan,nan,nan,nan,250.64274980255868,725.2699855938554,nan,725.9182723270496,nan,nan,nan,nan
1,362,1,1,1.0,1.0,0.4161279461113736,0,3,2,7,8,5,1,nan,nan,nan,nan,nan,nan,nan,nan,nan,nan,nan,nan,0.0,nan,nan,nan,nan,nan,nan,nan,nan,nan,nan,nan,nan,nan,nan,nan,nan,nan,nan,250.64274980255868,726.270141258603,nan,726.6862692047143,nan,nan,nan,nan
1,363,1,1,1.0,1.0,0.35200520930811763,0,7,6,8,3,0,2,nan,nan,nan,nan,nan,nan,nan,nan,nan,nan,nan,nan,0.0,nan,nan,nan,nan,nan,nan,nan,nan,nan,nan,nan,nan,nan,nan,nan,nan,nan,nan,250.64274980255868,727.2702444648603,nan,727.6222496741684,nan,nan,nan,nan
1,364,1,1,1.0,1.0,0.35982636257540435,1,4,3,5,0,1,6,1.0,1.0,1.0,1.0,1.0,1.0,0.0,1.0,1.0,0.0,1.0,0.0,3.0,6.0,3.0,5.0,7.0,1.0,1.0,3.0,1.0,2.0,6.0,5.0,4.0,4.019165004370734,0.9795449174707755,2.603873542160727,6.378830570378341,5.69921674428042,4.9553042746847495,250.64274980255868,728.2704180908622,729.0788450249238,728.6302444534376,736.5131948639173,737.5121035004267,730.0956519655883,736.5048648068914
1,365,1,1,1.0,1.0,0.5167363784275949,0,0,6,4,1,2,8,nan,nan,nan,nan,nan,nan,nan,nan,nan,nan,nan,nan,0.0,nan,nan,nan,nan,nan,nan,nan,nan,nan,nan,nan,nan,nan,nan,nan,nan,nan,nan,250.64274980255868,737.7134181543952,nan,738.2301545328228,nan,nan,nan,nan
1,366,1,1,1.0,1.0,0.33266686415299773,0,6,4,8,5,1,0,nan,nan,nan,nan,nan,nan,nan,nan,nan,nan,nan,nan,0.0,nan,nan,nan,nan,nan,nan,nan,nan,nan,nan,nan,nan,nan,nan,nan,nan,nan,nan,250.64274980255868,738.7134931357577,nan,739.0461599999107,nan,nan,nan,nan
1,367,1,1,1.0,1.0,0.3244622511556372,0,3,8,2,0,6,1,nan,nan,nan,nan,nan,nan,nan,nan,nan,nan,nan,nan,0.0,nan,nan,nan,nan,nan,nan,nan,nan,nan,nan,nan,nan,nan,nan,nan,nan,nan,nan,250.64274980255868,739.7136679021642,nan,740.0381301533198,nan,nan,nan,nan
1,368,0,0,1.0,0.0,0.26833714463282377,0,4,1,0,3,2,6,nan,nan,nan,nan,nan,nan,nan,nan,nan,nan,nan,nan,0.0,nan,nan,nan,nan,nan,nan,nan,nan,nan,nan,nan,nan,nan,nan,nan,nan,nan,nan,250.64274980255868,740.7137930610916,nan,740.9821302057244,nan,nan,nan,nan
1,369,1,1,1.0,1.0,0.3081576570402831,0,2,0,4,1,7,3,nan,nan,nan,nan,nan,nan,nan,nan,nan,nan,nan,nan,0.0,nan,nan,nan,nan,nan,nan,nan,nan,nan,nan,nan,nan,nan,nan,nan,nan,nan,nan,250.64274980255868,741.7139358962886,nan,742.0220935533289,nan,nan,nan,nan
1,370,0,0,0.0,1.0,0.5320280117448419,0,7,1,8,5,3,4,nan,nan,nan,nan,nan,nan,nan,nan,nan,nan,nan,nan,0.0,nan,nan,nan,nan,nan,nan,nan,nan,nan,nan,nan,nan,nan,nan,nan,nan,nan,nan,250.64274980255868,742.7140753102722,nan,743.246103322017,nan,nan,nan,nan
1,371,1,1,1.0,1.0,0.3398898772429675,0,5,3,0,1,2,7,nan,nan,nan,nan,nan,nan,nan,nan,nan,nan,nan,nan,0.0,nan,nan,nan,nan,nan,nan,nan,nan,nan,nan,nan,nan,nan,nan,nan,nan,nan,nan,250.64274980255868,743.7142275538063,nan,744.0541174310492,nan,nan,nan,nan
1,372,1,1,1.0,1.0,0.33175226277671754,0,8,7,5,0,6,1,nan,nan,nan,nan,nan,nan,nan,nan,nan,nan,nan,nan,0.0,nan,nan,nan,nan,nan,nan,nan,nan,nan,nan,nan,nan,nan,nan,nan,nan,nan,nan,250.64274980255868,744.7143358918838,nan,745.0460881546605,nan,nan,nan,nan
1,373,1,1,1.0,1.0,0.34759841579943895,0,5,1,4,2,7,3,nan,nan,nan,nan,nan,nan,nan,nan,nan,nan,nan,nan,0.0,nan,nan,nan,nan,nan,nan,nan,nan,nan,nan,nan,nan,nan,nan,nan,nan,nan,nan,250.64274980255868,745.7144858546089,nan,746.0620842704084,nan,nan,nan,nan
1,374,1,1,1.0,1.0,0.27545381523668766,0,8,4,3,1,6,5,nan,nan,nan,nan,nan,nan,nan,nan,nan,nan,nan,nan,0.0,nan,nan,nan,nan,nan,nan,nan,nan,nan,nan,nan,nan,nan,nan,nan,nan,nan,nan,250.64274980255868,746.7146298302105,nan,746.9900836454472,nan,nan,nan,nan
1,375,1,1,1.0,1.0,0.2512998429592699,0,1,7,5,0,8,2,nan,nan,nan,nan,nan,nan,nan,nan,nan,nan,nan,nan,0.0,nan,nan,nan,nan,nan,nan,nan,nan,nan,nan,nan,nan,nan,nan,nan,nan,nan,nan,250.64274980255868,747.7147578401491,nan,747.9660576831084,nan,nan,nan,nan
1,376,1,1,1.0,1.0,0.3551703914999962,0,2,5,0,3,7,8,nan,nan,nan,nan,nan,nan,nan,nan,nan,nan,nan,nan,0.0,nan,nan,nan,nan,nan,nan,nan,nan,nan,nan,nan,nan,nan,nan,nan,nan,nan,nan,250.64274980255868,748.7148955435259,nan,749.0700659350259,nan,nan,nan,nan
1,377,0,0,0.0,1.0,0.49102689954452217,0,0,6,1,7,4,2,nan,nan,nan,nan,nan,nan,nan,nan,nan,nan,nan,nan,0.0,nan,nan,nan,nan,nan,nan,nan,nan,nan,nan,nan,nan,nan,nan,nan,nan,nan,nan,250.64274980255868,749.7150264044758,nan,750.2060533040203,nan,nan,nan,nan
1,378,1,1,1.0,1.0,0.3708748498465866,0,5,0,6,3,1,8,nan,nan,nan,nan,nan,nan,nan,nan,nan,nan,nan,nan,0.0,nan,nan,nan,nan,nan,nan,nan,nan,nan,nan,nan,nan,nan,nan,nan,nan,nan,nan,250.64274980255868,750.7151666737627,nan,751.0860415236093,nan,nan,nan,nan
1,379,1,1,1.0,1.0,0.2987413682276383,1,0,7,1,5,6,4,1.0,1.0,1.0,1.0,1.0,1.0,0.0,1.0,0.0,0.0,0.0,0.0,1.0,8.0,7.0,3.0,3.0,4.0,5.0,3.0,1.0,2.0,6.0,5.0,4.0,2.8855453924043104,0.8636357287177816,1.9173751168418676,6.037219543359242,4.90957106964197,3.6862977147102356,250.64274980255868,751.715297534829,752.5237261794973,752.0140389030566,759.6246929827612,760.6311014645034,753.5488740110304,759.6163452494657
1,380,0,0,1.0,0.0,0.37270975462161005,0,6,0,3,7,5,1,nan,nan,nan,nan,nan,nan,nan,nan,nan,nan,nan,nan,0.0,nan,nan,nan,nan,nan,nan,nan,nan,nan,nan,nan,nan,nan,nan,nan,nan,nan,nan,250.64274980255868,760.8332238072762,nan,761.2059335618978,nan,nan,nan,nan
1,381,1,1,1.0,1.0,0.2842386072734371,0,8,2,1,5,4,0,nan,nan,nan,nan,nan,nan,nan,nan,nan,nan,nan,nan,0.0,nan,nan,nan,nan,nan,nan,nan,nan,nan,nan,nan,nan,nan,nan,nan,nan,nan,nan,250.64274980255868,761.8416966994992,nan,762.1259353067726,nan,nan,nan,nan
1,382,1,1,1.0,1.0,0.30010044074151665,0,1,3,5,0,6,7,nan,nan,nan,nan,nan,nan,nan,nan,nan,nan,nan,nan,0.0,nan,nan,nan,nan,nan,nan,nan,nan,nan,nan,nan,nan,nan,nan,nan,nan,nan,nan,250.64274980255868,762.8418258499587,nan,763.1419262907002,nan,nan,nan,nan
1,383,0,0,0.0,1.0,0.4439388985047117,0,2,4,8,7,0,6,nan,nan,nan,nan,nan,nan,nan,nan,nan,nan,nan,nan,0.0,nan,nan,nan,nan,nan,nan,nan,nan,nan,nan,nan,nan,nan,nan,nan,nan,nan,nan,250.64274980255868,763.8419826549944,nan,764.2859215534991,nan,nan,nan,nan
1,384,1,1,1.0,1.0,0.31585650227498263,0,6,8,7,0,1,3,nan,nan,nan,nan,nan,nan,nan,nan,nan,nan,nan,nan,0.0,nan,nan,nan,nan,nan,nan,nan,nan,nan,nan,nan,nan,nan,nan,nan,nan,nan,nan,250.64274980255868,764.8420961248921,nan,765.1579526271671,nan,nan,nan,nan
1,385,1,1,1.0,1.0,0.32365969417151064,0,0,4,3,5,2,8,nan,nan,nan,nan,nan,nan,nan,nan,nan,nan,nan,nan,0.0,nan,nan,nan,nan,nan,nan,nan,nan,nan,nan,nan,nan,nan,nan,nan,nan,nan,nan,250.64274980255868,765.842243236606,nan,766.1659029307775,nan,nan,nan,nan
1,386,1,1,1.0,1.0,0.2835104613332078,0,7,5,6,1,8,2,nan,nan,nan,nan,nan,nan,nan,nan,nan,nan,nan,nan,0.0,nan,nan,nan,nan,nan,nan,nan,nan,nan,nan,nan,nan,nan,nan,nan,nan,nan,nan,250.64274980255868,766.842381225084,nan,767.1258916864172,nan,nan,nan,nan
