block,trial,freq_trials,correct_response,actual_response,acc,rts,probe_trials,fast_rt_trigger,slow_rt_trigger,rt_triggered,rts_runningavg,rts_runningstd,rts_runningfastthresh,rts_runningslowthresh,rts_runningstd,rts_trailingavg,trials_colorind0,trials_colorind1,trials_colorind2,trials_colorind3,trials_colorind4,trials_colorind5,wholereport_resp0,wholereport_resp1,wholereport_resp2,wholereport_resp3,wholereport_resp4,wholereport_resp5,wholereport_respacc0,wholereport_respacc1,wholereport_respacc2,wholereport_respacc3,wholereport_respacc4,wholereport_respacc5,wholereport_respacc_total,wholereport_respcolorind0,wholereport_respcolorind1,wholereport_respcolorind2,wholereport_respcolorind3,wholereport_respcolorind4,wholereport_respcolorind5,wholereport_resporder0,wholereport_resporder1,wholereport_resporder2,wholereport_resporder3,wholereport_resporder4,wholereport_resporder5,wholereport_rts0,wholereport_rts1,wholereport_rts2,wholereport_rts3,wholereport_rts4,wholereport_rts5,time_blockstart,time_encarray_offset,time_encarray_onset,time_response,time_iti_offset,time_iti_onset,time_memprobe_offset,time_memprobe_onset
1,1,1,1,1.0,1.0,0.4985863580368459,0,nan,nan,nan,nan,nan,nan,nan,nan,nan,0,6,1,4,5,8,nan,nan,nan,nan,nan,nan,nan,nan,nan,nan,nan,nan,0.0,nan,nan,nan,nan,nan,nan,nan,nan,nan,nan,nan,nan,nan,nan,nan,nan,nan,nan,1282.3911510040052,1283.4285414528567,nan,1283.9271278108936,nan,nan,nan,nan
1,2,1,1,1.0,1.0,0.3534098886884749,0,nan,nan,nan,nan,nan,nan,nan,nan,nan,5,0,7,6,2,3,nan,nan,nan,nan,nan,nan,nan,nan,nan,nan,nan,nan,0.0,nan,nan,nan,nan,nan,nan,nan,nan,nan,nan,nan,nan,nan,nan,nan,nan,nan,nan,1282.3911510040052,1284.4536964944564,nan,1284.8071063831449,nan,nan,nan,nan
1,3,1,1,1.0,1.0,0.3845924015622586,0,nan,nan,nan,nan,nan,nan,nan,nan,nan,0,8,6,3,4,1,nan,nan,nan,nan,nan,nan,nan,nan,nan,nan,nan,nan,0.0,nan,nan,nan,nan,nan,nan,nan,nan,nan,nan,nan,nan,nan,nan,nan,nan,nan,nan,1282.3911510040052,1285.4704783060588,nan,1285.855070707621,nan,nan,nan,nan
1,4,1,1,1.0,1.0,0.31147103989496827,0,nan,nan,nan,nan,nan,nan,nan,nan,nan,2,5,1,4,7,3,nan,nan,nan,nan,nan,nan,nan,nan,nan,nan,nan,nan,0.0,nan,nan,nan,nan,nan,nan,nan,nan,nan,nan,nan,nan,nan,nan,nan,nan,nan,nan,1282.3911510040052,1286.4955680610146,nan,1286.8070391009096,nan,nan,nan,nan
1,5,1,1,1.0,1.0,0.3026339609641582,0,nan,nan,nan,nan,nan,nan,nan,nan,nan,4,0,5,7,3,1,nan,nan,nan,nan,nan,nan,nan,nan,nan,nan,nan,nan,0.0,nan,nan,nan,nan,nan,nan,nan,nan,nan,nan,nan,nan,nan,nan,nan,nan,nan,nan,1282.3911510040052,1287.5123735354282,nan,1287.8150074963924,nan,nan,nan,nan
1,6,1,1,1.0,1.0,0.30782952602021396,0,nan,nan,nan,nan,nan,nan,nan,nan,nan,7,2,3,5,4,8,nan,nan,nan,nan,nan,nan,nan,nan,nan,nan,nan,nan,0.0,nan,nan,nan,nan,nan,nan,nan,nan,nan,nan,nan,nan,nan,nan,nan,nan,nan,nan,1282.3911510040052,1288.5791452690028,nan,1288.886974795023,nan,nan,nan,nan
1,7,1,1,1.0,1.0,0.3469906975515187,0,nan,nan,nan,nan,nan,nan,nan,nan,nan,1,6,8,3,5,0,nan,nan,nan,nan,nan,nan,nan,nan,nan,nan,nan,nan,0.0,nan,nan,nan,nan,nan,nan,nan,nan,nan,nan,nan,nan,nan,nan,nan,nan,nan,nan,1282.3911510040052,1289.5959376292303,nan,1289.9429283267818,nan,nan,nan,nan
1,8,0,0,0.0,1.0,0.47418140061199665,0,nan,nan,nan,nan,nan,nan,nan,nan,nan,2,5,6,8,4,1,nan,nan,nan,nan,nan,nan,nan,nan,nan,nan,nan,nan,0.0,nan,nan,nan,nan,nan,nan,nan,nan,nan,nan,nan,nan,nan,nan,nan,nan,nan,nan,1282.3911510040052,1290.6127265682444,nan,1291.0869079688564,nan,nan,nan,nan
1,9,1,1,1.0,1.0,0.41737600578926504,0,nan,nan,nan,nan,nan,nan,nan,nan,nan,6,4,0,7,1,3,nan,nan,nan,nan,nan,nan,nan,nan,nan,nan,nan,nan,0.0,nan,nan,nan,nan,nan,nan,nan,nan,nan,nan,nan,nan,nan,nan,nan,nan,nan,nan,1282.3911510040052,1291.6295058140531,nan,1292.0468818198424,nan,nan,nan,nan
1,10,1,1,1.0,1.0,0.4085437736939639,0,nan,nan,nan,nan,nan,nan,nan,nan,nan,3,0,5,2,6,8,nan,nan,nan,nan,nan,nan,nan,nan,nan,nan,nan,nan,0.0,nan,nan,nan,nan,nan,nan,nan,nan,nan,nan,nan,nan,nan,nan,nan,nan,nan,nan,1282.3911510040052,1292.6462970336434,nan,1293.0548408073373,nan,nan,nan,nan
1,11,0,0,0.0,1.0,0.4467396147083491,0,nan,nan,nan,nan,nan,nan,nan,nan,nan,5,7,6,4,8,1,nan,nan,nan,nan,nan,nan,nan,nan,nan,nan,nan,nan,0.0,nan,nan,nan,nan,nan,nan,nan,nan,nan,nan,nan,nan,nan,nan,nan,nan,nan,nan,1282.3911510040052,1293.6880673917476,nan,1294.134807006456,nan,nan,nan,nan
1,12,1,1,1.0,1.0,0.5019185445271432,0,nan,nan,nan,nan,nan,nan,nan,nan,nan,2,3,5,0,7,8,nan,nan,nan,nan,nan,nan,nan,nan,nan,nan,nan,nan,0.0,nan,nan,nan,nan,nan,nan,nan,nan,nan,nan,nan,nan,nan,nan,nan,nan,nan,nan,1282.3911510040052,1294.7048711555544,nan,1295.2067897000816,nan,nan,nan,nan
1,13,1,1,1.0,1.0,0.42109364038333297,1,nan,nan,nan,nan,nan,nan,nan,nan,nan,4,5,0,7,1,2,1.0,1.0,1.0,1.0,1.0,1.0,0.0,0.0,0.0,1.0,0.0,0.0,1.0,1.0,2.0,5.0,7.0,8.0,6.0,4.0,5.0,6.0,1.0,2.0,3.0,8.87336950795725,10.265247218310833,11.169279511552304,4.732122213114053,6.217662639915943,7.218107957858592,1282.3911510040052,1295.7216541075613,1296.5300499740988,1296.1427477479447,1308.7481231505517,1309.7586639551446,1297.5385027455632,1308.7398095054086
1,14,1,1,1.0,1.0,0.7286714275833219,0,nan,nan,nan,nan,nan,nan,nan,nan,nan,0,1,8,2,4,3,nan,nan,nan,nan,nan,nan,nan,nan,nan,nan,nan,nan,0.0,nan,nan,nan,nan,nan,nan,nan,nan,nan,nan,nan,nan,nan,nan,nan,nan,nan,nan,1282.3911510040052,1309.9816852342337,nan,1310.710356661817,nan,nan,nan,nan
1,15,1,1,1.0,1.0,0.4075684647541493,0,nan,nan,nan,nan,nan,nan,nan,nan,nan,3,5,1,7,0,2,nan,nan,nan,nan,nan,nan,nan,nan,nan,nan,nan,nan,0.0,nan,nan,nan,nan,nan,nan,nan,nan,nan,nan,nan,nan,nan,nan,nan,nan,nan,nan,1282.3911510040052,1311.0067758446094,nan,1311.4143443093635,nan,nan,nan,nan
1,16,1,1,1.0,1.0,0.4943757951259613,0,nan,nan,nan,nan,nan,nan,nan,nan,nan,5,6,2,0,4,3,nan,nan,nan,nan,nan,nan,nan,nan,nan,nan,nan,nan,0.0,nan,nan,nan,nan,nan,nan,nan,nan,nan,nan,nan,nan,nan,nan,nan,nan,nan,nan,1282.3911510040052,1312.0319280351978,nan,1312.5263038303237,nan,nan,nan,nan
1,17,1,1,1.0,1.0,0.3976058322004974,0,nan,nan,nan,nan,nan,nan,nan,nan,nan,4,1,5,8,0,2,nan,nan,nan,nan,nan,nan,nan,nan,nan,nan,nan,nan,0.0,nan,nan,nan,nan,nan,nan,nan,nan,nan,nan,nan,nan,nan,nan,nan,nan,nan,nan,1282.3911510040052,1313.048667082563,nan,1313.4462729147635,nan,nan,nan,nan
1,18,1,1,1.0,1.0,0.380794370546937,1,nan,nan,nan,nan,nan,nan,nan,nan,nan,1,0,4,2,7,6,1.0,1.0,1.0,1.0,1.0,1.0,0.0,1.0,0.0,0.0,0.0,0.0,1.0,6.0,0.0,3.0,8.0,2.0,1.0,3.0,4.0,5.0,6.0,1.0,2.0,4.450126539217308,5.769697118317708,6.649102080147713,7.712959576165304,1.7451242399401963,3.0431704577058554,1282.3911510040052,1314.0654497495852,1314.8738461860921,1314.4462441201322,1323.633196364157,1324.6406430366915,1315.8823157781735,1323.6248627624009
1,19,1,1,1.0,1.0,0.5795364188961685,0,nan,nan,nan,nan,nan,nan,nan,nan,nan,4,8,3,6,0,1,nan,nan,nan,nan,nan,nan,nan,nan,nan,nan,nan,nan,0.0,nan,nan,nan,nan,nan,nan,nan,nan,nan,nan,nan,nan,nan,nan,nan,nan,nan,nan,1282.3911510040052,1324.858390920097,nan,1325.4379273389932,nan,nan,nan,nan
1,20,1,1,1.0,1.0,0.49871949735097587,0,nan,nan,nan,nan,nan,nan,nan,nan,nan,8,6,4,5,1,3,nan,nan,nan,nan,nan,nan,nan,nan,nan,nan,nan,nan,0.0,nan,nan,nan,nan,nan,nan,nan,nan,nan,nan,nan,nan,nan,nan,nan,nan,nan,nan,1282.3911510040052,1325.8751747272909,nan,1326.3738942246418,nan,nan,nan,nan
1,21,0,0,0.0,1.0,0.5218951266724616,0,nan,nan,nan,nan,nan,nan,nan,nan,nan,0,3,8,7,4,2,nan,nan,nan,nan,nan,nan,nan,nan,nan,nan,nan,nan,0.0,nan,nan,nan,nan,nan,nan,nan,nan,nan,nan,nan,nan,nan,nan,nan,nan,nan,nan,1282.3911510040052,1326.891955113504,nan,1327.4138502401765,nan,nan,nan,nan
1,22,1,1,1.0,1.0,0.5290840736124665,0,nan,nan,nan,nan,nan,nan,nan,nan,nan,5,4,2,6,8,1,nan,nan,nan,nan,nan,nan,nan,nan,nan,nan,nan,nan,0.0,nan,nan,nan,nan,nan,nan,nan,nan,nan,nan,nan,nan,nan,nan,nan,nan,nan,nan,1282.3911510040052,1327.9087454779074,nan,1328.4378295515198,nan,nan,nan,nan
1,23,1,1,1.0,1.0,0.5042825492564589,0,nan,nan,nan,nan,nan,nan,nan,nan,nan,1,6,5,4,0,2,nan,nan,nan,nan,nan,nan,nan,nan,nan,nan,nan,nan,0.0,nan,nan,nan,nan,nan,nan,nan,nan,nan,nan,nan,nan,nan,nan,nan,nan,nan,nan,1282.3911510040052,1328.9255432549398,nan,1329.4298258041963,nan,nan,nan,nan
1,24,1,1,1.0,1.0,0.42318480950780213,0,nan,nan,nan,nan,nan,nan,nan,nan,nan,8,2,3,7,5,0,nan,nan,nan,nan,nan,nan,nan,nan,nan,nan,nan,nan,0.0,nan,nan,nan,nan,nan,nan,nan,nan,nan,nan,nan,nan,nan,nan,nan,nan,nan,nan,1282.3911510040052,1329.9506124830805,nan,1330.3737972925883,nan,nan,nan,nan
1,25,1,1,1.0,1.0,0.40632260125130415,0,nan,nan,nan,nan,nan,nan,nan,nan,nan,1,6,2,5,8,3,nan,nan,nan,nan,nan,nan,nan,nan,nan,nan,nan,nan,0.0,nan,nan,nan,nan,nan,nan,nan,nan,nan,nan,nan,nan,nan,nan,nan,nan,nan,nan,1282.3911510040052,1330.9674216636922,nan,1331.3737442649435,nan,nan,nan,nan
1,26,1,1,1.0,1.0,0.309474237030372,0,nan,nan,nan,nan,nan,nan,nan,nan,nan,2,0,4,6,3,7,nan,nan,nan,nan,nan,nan,nan,nan,nan,nan,nan,nan,0.0,nan,nan,nan,nan,nan,nan,nan,nan,nan,nan,nan,nan,nan,nan,nan,nan,nan,nan,1282.3911510040052,1331.9842365463264,nan,1332.2937107833568,nan,nan,nan,nan
1,27,1,1,1.0,1.0,0.28471405152231455,0,nan,nan,nan,nan,nan,nan,nan,nan,nan,0,5,7,8,6,4,nan,nan,nan,nan,nan,nan,nan,nan,nan,nan,nan,nan,0.0,nan,nan,nan,nan,nan,nan,nan,nan,nan,nan,nan,nan,nan,nan,nan,nan,nan,nan,1282.3911510040052,1333.0010405953508,nan,1333.285754646873,nan,nan,nan,nan
1,28,1,1,1.0,1.0,0.2755434119608253,0,nan,nan,nan,nan,nan,nan,nan,nan,nan,7,2,1,4,8,3,nan,nan,nan,nan,nan,nan,nan,nan,nan,nan,nan,nan,0.0,nan,nan,nan,nan,nan,nan,nan,nan,nan,nan,nan,nan,nan,nan,nan,nan,nan,nan,1282.3911510040052,1334.026115525281,nan,1334.3016589372419,nan,nan,nan,nan
1,29,1,1,1.0,1.0,0.41037864284589887,0,nan,nan,nan,nan,nan,nan,nan,nan,nan,8,3,2,6,5,1,nan,nan,nan,nan,nan,nan,nan,nan,nan,nan,nan,nan,0.0,nan,nan,nan,nan,nan,nan,nan,nan,nan,nan,nan,nan,nan,nan,nan,nan,nan,nan,1282.3911510040052,1335.0512708520982,nan,1335.4616494949441,nan,nan,nan,nan
1,30,1,1,1.0,1.0,0.3532145991921425,0,nan,nan,nan,nan,nan,nan,nan,nan,nan,0,2,8,3,1,6,nan,nan,nan,nan,nan,nan,nan,nan,nan,nan,nan,nan,0.0,nan,nan,nan,nan,nan,nan,nan,nan,nan,nan,nan,nan,nan,nan,nan,nan,nan,nan,1282.3911510040052,1336.07641049847,nan,1336.4296250976622,nan,nan,nan,nan
1,31,1,1,1.0,1.0,0.30406399583444,0,nan,nan,nan,nan,nan,nan,nan,nan,nan,3,1,5,6,8,0,nan,nan,nan,nan,nan,nan,nan,nan,nan,nan,nan,nan,0.0,nan,nan,nan,nan,nan,nan,nan,nan,nan,nan,nan,nan,nan,nan,nan,nan,nan,nan,1282.3911510040052,1337.1015259120613,nan,1337.4055899078958,nan,nan,nan,nan
1,32,1,1,1.0,1.0,0.27094369451515377,0,nan,nan,nan,nan,nan,nan,nan,nan,nan,1,8,0,4,2,7,nan,nan,nan,nan,nan,nan,nan,nan,nan,nan,nan,nan,0.0,nan,nan,nan,nan,nan,nan,nan,nan,nan,nan,nan,nan,nan,nan,nan,nan,nan,nan,1282.3911510040052,1338.1266156670172,nan,1338.3975593615323,nan,nan,nan,nan
1,33,1,1,1.0,1.0,0.2701260431203991,0,nan,nan,nan,nan,nan,nan,nan,nan,nan,5,2,4,1,7,0,nan,nan,nan,nan,nan,nan,nan,nan,nan,nan,nan,nan,0.0,nan,nan,nan,nan,nan,nan,nan,nan,nan,nan,nan,nan,nan,nan,nan,nan,nan,nan,1282.3911510040052,1339.143394912826,nan,1339.4135209559463,nan,nan,nan,nan
1,34,1,1,1.0,1.0,0.24529943079687655,0,nan,nan,nan,nan,nan,nan,nan,nan,nan,1,8,3,0,6,2,nan,nan,nan,nan,nan,nan,nan,nan,nan,nan,nan,nan,0.0,nan,nan,nan,nan,nan,nan,nan,nan,nan,nan,nan,nan,nan,nan,nan,nan,nan,nan,1282.3911510040052,1340.1601752988063,nan,1340.4054747296032,nan,nan,nan,nan
1,35,1,1,1.0,1.0,0.2764899260364473,0,nan,nan,nan,nan,nan,nan,nan,nan,nan,7,1,8,2,4,6,nan,nan,nan,nan,nan,nan,nan,nan,nan,nan,nan,nan,0.0,nan,nan,nan,nan,nan,nan,nan,nan,nan,nan,nan,nan,nan,nan,nan,nan,nan,nan,1282.3911510040052,1341.1769668038469,nan,1341.4534567298833,nan,nan,nan,nan
1,36,0,0,0.0,1.0,0.4276713440194726,0,nan,nan,nan,nan,nan,nan,nan,nan,nan,6,7,0,3,5,4,nan,nan,nan,nan,nan,nan,nan,nan,nan,nan,nan,nan,0.0,nan,nan,nan,nan,nan,nan,nan,nan,nan,nan,nan,nan,nan,nan,nan,nan,nan,nan,1282.3911510040052,1342.1937674316578,nan,1342.6214387756772,nan,nan,nan,nan
1,37,1,1,1.0,1.0,0.3868380922358483,0,nan,nan,nan,nan,nan,nan,nan,nan,nan,1,6,2,8,7,5,nan,nan,nan,nan,nan,nan,nan,nan,nan,nan,nan,nan,0.0,nan,nan,nan,nan,nan,nan,nan,nan,nan,nan,nan,nan,nan,nan,nan,nan,nan,nan,1282.3911510040052,1343.210540120257,nan,1343.597378212493,nan,nan,nan,nan
1,38,1,1,1.0,1.0,0.29804279655218124,0,nan,nan,nan,nan,nan,nan,nan,nan,nan,4,1,5,0,6,2,nan,nan,nan,nan,nan,nan,nan,nan,nan,nan,nan,nan,0.0,nan,nan,nan,nan,nan,nan,nan,nan,nan,nan,nan,nan,nan,nan,nan,nan,nan,nan,1282.3911510040052,1344.2273227872793,nan,1344.5253655838314,nan,nan,nan,nan
1,39,1,1,1.0,1.0,0.2812130891252309,0,nan,nan,nan,nan,nan,nan,nan,nan,nan,0,4,6,5,7,3,nan,nan,nan,nan,nan,nan,nan,nan,nan,nan,nan,nan,0.0,nan,nan,nan,nan,nan,nan,nan,nan,nan,nan,nan,nan,nan,nan,nan,nan,nan,nan,1282.3911510040052,1345.244114292087,nan,1345.5253273812123,nan,nan,nan,nan
1,40,1,1,1.0,1.0,0.2724447180517018,0,nan,nan,nan,nan,nan,nan,nan,nan,nan,2,5,4,6,3,8,nan,nan,nan,nan,nan,nan,nan,nan,nan,nan,nan,nan,0.0,nan,nan,nan,nan,nan,nan,nan,nan,nan,nan,nan,nan,nan,nan,nan,nan,nan,nan,1282.3911510040052,1346.260894963285,nan,1346.5333396813367,nan,nan,nan,nan
1,41,1,1,1.0,1.0,0.2396012437529862,0,nan,nan,nan,nan,nan,nan,nan,nan,nan,4,0,6,7,8,3,nan,nan,nan,nan,nan,nan,nan,nan,nan,nan,nan,nan,0.0,nan,nan,nan,nan,nan,nan,nan,nan,nan,nan,nan,nan,nan,nan,nan,nan,nan,nan,1282.3911510040052,1347.2776790556964,nan,1347.5172802994493,nan,nan,nan,nan
1,42,1,1,1.0,1.0,0.27076408499851823,0,nan,nan,nan,nan,nan,nan,nan,nan,nan,1,4,2,8,3,6,nan,nan,nan,nan,nan,nan,nan,nan,nan,nan,nan,nan,0.0,nan,nan,nan,nan,nan,nan,nan,nan,nan,nan,nan,nan,nan,nan,nan,nan,nan,nan,1282.3911510040052,1348.2944748371374,nan,1348.565238922136,nan,nan,nan,nan
1,43,1,1,1.0,1.0,0.24594830628484488,0,nan,nan,nan,nan,nan,nan,nan,nan,nan,0,6,5,4,2,7,nan,nan,nan,nan,nan,nan,nan,nan,nan,nan,nan,nan,0.0,nan,nan,nan,nan,nan,nan,nan,nan,nan,nan,nan,nan,nan,nan,nan,nan,nan,nan,1282.3911510040052,1349.3112843027338,nan,1349.5572326090187,nan,nan,nan,nan
1,44,1,1,1.0,1.0,0.24375421763397753,0,nan,nan,nan,nan,nan,nan,nan,nan,nan,5,2,4,7,3,8,nan,nan,nan,nan,nan,nan,nan,nan,nan,nan,nan,nan,0.0,nan,nan,nan,nan,nan,nan,nan,nan,nan,nan,nan,nan,nan,nan,nan,nan,nan,nan,1282.3911510040052,1350.361450413242,nan,1350.605204630876,nan,nan,nan,nan
1,45,0,0,1.0,0.0,0.306675462750718,0,nan,nan,nan,nan,nan,nan,nan,nan,nan,8,5,2,4,6,3,nan,nan,nan,nan,nan,nan,nan,nan,nan,nan,nan,nan,0.0,nan,nan,nan,nan,nan,nan,nan,nan,nan,nan,nan,nan,nan,nan,nan,nan,nan,nan,1282.3911510040052,1351.3864996847697,nan,1351.6931751475204,nan,nan,nan,nan
1,46,1,1,1.0,1.0,0.40982955042272806,0,nan,nan,nan,nan,nan,nan,nan,nan,nan,0,3,8,7,2,5,nan,nan,nan,nan,nan,nan,nan,nan,nan,nan,nan,nan,0.0,nan,nan,nan,nan,nan,nan,nan,nan,nan,nan,nan,nan,nan,nan,nan,nan,nan,nan,1282.3911510040052,1352.4033051591832,nan,1352.813134709606,nan,nan,nan,nan
1,47,0,0,0.0,1.0,0.4571022354066372,0,nan,nan,nan,nan,nan,nan,nan,nan,nan,1,5,4,8,0,2,nan,nan,nan,nan,nan,nan,nan,nan,nan,nan,nan,nan,0.0,nan,nan,nan,nan,nan,nan,nan,nan,nan,nan,nan,nan,nan,nan,nan,nan,nan,nan,1282.3911510040052,1353.420056750765,nan,1353.8771589861717,nan,nan,nan,nan
1,48,1,1,1.0,1.0,0.3201875239610672,0,nan,nan,nan,nan,nan,nan,nan,nan,nan,7,0,6,2,5,4,nan,nan,nan,nan,nan,nan,nan,nan,nan,nan,nan,nan,0.0,nan,nan,nan,nan,nan,nan,nan,nan,nan,nan,nan,nan,nan,nan,nan,nan,nan,nan,1282.3911510040052,1354.4368873136118,nan,1354.7570748375729,nan,nan,nan,nan
1,49,1,1,1.0,1.0,0.35939117474481463,1,nan,nan,nan,nan,nan,nan,nan,nan,nan,5,4,8,1,3,7,1.0,1.0,1.0,1.0,1.0,1.0,0.0,0.0,0.0,0.0,0.0,1.0,1.0,4.0,3.0,0.0,8.0,1.0,7.0,6.0,5.0,4.0,3.0,2.0,1.0,8.123645265819505,6.932092734379694,5.668747097253799,4.019992832560092,2.854173514759168,2.0449303470086306,1282.3911510040052,1355.453658576822,1356.2620712639764,1355.8130497515667,1365.4298081283923,1366.4319004379213,1357.2705092104152,1365.4214719606098
1,50,1,1,1.0,1.0,0.4297861761879176,0,nan,nan,nan,nan,nan,nan,nan,nan,nan,2,8,3,7,0,1,nan,nan,nan,nan,nan,nan,nan,nan,nan,nan,nan,nan,0.0,nan,nan,nan,nan,nan,nan,nan,nan,nan,nan,nan,nan,nan,nan,nan,nan,nan,nan,1282.3911510040052,1366.6549399632495,nan,1367.0847261394374,nan,nan,nan,nan
1,51,1,1,1.0,1.0,0.37262669391930103,0,nan,nan,nan,nan,nan,nan,nan,nan,nan,1,0,6,4,5,2,nan,nan,nan,nan,nan,nan,nan,nan,nan,nan,nan,nan,0.0,nan,nan,nan,nan,nan,nan,nan,nan,nan,nan,nan,nan,nan,nan,nan,nan,nan,nan,1282.3911510040052,1367.6800727674272,nan,1368.0526994613465,nan,nan,nan,nan
1,52,1,1,1.0,1.0,0.31583184795454144,1,nan,nan,nan,nan,nan,nan,nan,nan,nan,6,4,1,5,8,3,1.0,1.0,1.0,1.0,1.0,1.0,1.0,1.0,0.0,0.0,0.0,0.0,2.0,6.0,4.0,3.0,0.0,1.0,5.0,1.0,2.0,3.0,4.0,5.0,6.0,2.345836064312607,3.786224340321496,4.728440215811133,5.689474904211238,7.071827887324616,8.728181064827368,1282.3911510040052,1368.6968480218202,1369.5052455989644,1369.0126798697747,1379.2813855712302,1380.2842892603949,1370.5136986554135,1379.2730553906877
1,53,1,1,1.0,1.0,0.4257412531878799,0,nan,nan,nan,nan,nan,nan,nan,nan,nan,4,3,0,8,6,7,nan,nan,nan,nan,nan,nan,nan,nan,nan,nan,nan,nan,0.0,nan,nan,nan,nan,nan,nan,nan,nan,nan,nan,nan,nan,nan,nan,nan,nan,nan,nan,1282.3911510040052,1380.5065764207393,nan,1380.9323176739272,nan,nan,nan,nan
1,54,1,1,1.0,1.0,0.43253334844484925,0,nan,nan,nan,nan,nan,nan,nan,nan,nan,3,5,2,7,1,6,nan,nan,nan,nan,nan,nan,nan,nan,nan,nan,nan,nan,0.0,nan,nan,nan,nan,nan,nan,nan,nan,nan,nan,nan,nan,nan,nan,nan,nan,nan,nan,1282.3911510040052,1381.5317611121573,nan,1381.964294460602,nan,nan,nan,nan
1,55,0,0,0.0,1.0,0.5174590540118515,0,nan,nan,nan,nan,nan,nan,nan,nan,nan,2,6,1,3,4,0,nan,nan,nan,nan,nan,nan,nan,nan,nan,nan,nan,nan,0.0,nan,nan,nan,nan,nan,nan,nan,nan,nan,nan,nan,nan,nan,nan,nan,nan,nan,nan,1282.3911510040052,1382.5747970053926,nan,1383.0922560594045,nan,nan,nan,nan
1,56,1,1,1.0,1.0,0.5815876750275493,0,nan,nan,nan,nan,nan,nan,nan,nan,nan,1,4,2,6,7,3,nan,nan,nan,nan,nan,nan,nan,nan,nan,nan,nan,nan,0.0,nan,nan,nan,nan,nan,nan,nan,nan,nan,nan,nan,nan,nan,nan,nan,nan,nan,nan,1282.3911510040052,1383.598638330819,nan,1384.1802260058466,nan,nan,nan,nan
1,57,0,0,0.0,1.0,0.6205019548069686,0,nan,nan,nan,nan,nan,nan,nan,nan,nan,7,2,4,8,6,1,nan,nan,nan,nan,nan,nan,nan,nan,nan,nan,nan,nan,0.0,nan,nan,nan,nan,nan,nan,nan,nan,nan,nan,nan,nan,nan,nan,nan,nan,nan,nan,1282.3911510040052,1384.6237052781507,nan,1385.2442072329577,nan,nan,nan,nan
1,58,1,1,1.0,1.0,0.3634033116977662,0,nan,nan,nan,nan,nan,nan,nan,nan,nan,3,4,0,1,8,7,nan,nan,nan,nan,nan,nan,nan,nan,nan,nan,nan,nan,0.0,nan,nan,nan,nan,nan,nan,nan,nan,nan,nan,nan,nan,nan,nan,nan,nan,nan,nan,1282.3911510040052,1385.6487944629043,nan,1386.012197774602,nan,nan,nan,nan
1,59,1,1,1.0,1.0,0.31418229010887444,0,nan,nan,nan,nan,nan,nan,nan,nan,nan,7,0,6,5,1,3,nan,nan,nan,nan,nan,nan,nan,nan,nan,nan,nan,nan,0.0,nan,nan,nan,nan,nan,nan,nan,nan,nan,nan,nan,nan,nan,nan,nan,nan,nan,nan,1282.3911510040052,1386.6739677505102,nan,1386.988150040619,nan,nan,nan,nan
1,60,1,1,1.0,1.0,0.3450911119580269,0,nan,nan,nan,nan,nan,nan,nan,nan,nan,4,6,1,0,3,5,nan,nan,nan,nan,nan,nan,nan,nan,nan,nan,nan,nan,0.0,nan,nan,nan,nan,nan,nan,nan,nan,nan,nan,nan,nan,nan,nan,nan,nan,nan,nan,1282.3911510040052,1387.6990332724527,nan,1388.0441243844107,nan,nan,nan,nan
1,61,1,1,1.0,1.0,0.34422014793381095,0,nan,nan,nan,nan,nan,nan,nan,nan,nan,8,7,4,3,0,2,nan,nan,nan,nan,nan,nan,nan,nan,nan,nan,nan,nan,0.0,nan,nan,nan,nan,nan,nan,nan,nan,nan,nan,nan,nan,nan,nan,nan,nan,nan,nan,1282.3911510040052,1388.7158798004966,nan,1389.0600999484304,nan,nan,nan,nan
1,62,1,1,1.0,1.0,0.31899810885079205,0,nan,nan,nan,nan,nan,nan,nan,nan,nan,0,2,3,4,7,6,nan,nan,nan,nan,nan,nan,nan,nan,nan,nan,nan,nan,0.0,nan,nan,nan,nan,nan,nan,nan,nan,nan,nan,nan,nan,nan,nan,nan,nan,nan,nan,1282.3911510040052,1389.741037978325,nan,1390.0600360871758,nan,nan,nan,nan
1,63,1,1,1.0,1.0,0.28627123846672475,0,nan,nan,nan,nan,nan,nan,nan,nan,nan,7,6,8,5,2,4,nan,nan,nan,nan,nan,nan,nan,nan,nan,nan,nan,nan,0.0,nan,nan,nan,nan,nan,nan,nan,nan,nan,nan,nan,nan,nan,nan,nan,nan,nan,nan,1282.3911510040052,1390.7577630560845,nan,1391.0440342945512,nan,nan,nan,nan
1,64,1,1,1.0,1.0,0.30142059805803,0,nan,nan,nan,nan,nan,nan,nan,nan,nan,6,7,2,0,1,8,nan,nan,nan,nan,nan,nan,nan,nan,nan,nan,nan,nan,0.0,nan,nan,nan,nan,nan,nan,nan,nan,nan,nan,nan,nan,nan,nan,nan,nan,nan,nan,1282.3911510040052,1391.77459076792,nan,1392.076011365978,nan,nan,nan,nan
1,65,1,1,1.0,1.0,0.36456592776812613,0,nan,nan,nan,nan,nan,nan,nan,nan,nan,1,0,4,2,6,3,nan,nan,nan,nan,nan,nan,nan,nan,nan,nan,nan,nan,0.0,nan,nan,nan,nan,nan,nan,nan,nan,nan,nan,nan,nan,nan,nan,nan,nan,nan,nan,1282.3911510040052,1392.7913768559229,nan,1393.155942783691,nan,nan,nan,nan
1,66,1,1,1.0,1.0,0.28377723041921854,0,nan,nan,nan,nan,nan,nan,nan,nan,nan,0,6,8,5,1,2,nan,nan,nan,nan,nan,nan,nan,nan,nan,nan,nan,nan,0.0,nan,nan,nan,nan,nan,nan,nan,nan,nan,nan,nan,nan,nan,nan,nan,nan,nan,nan,1282.3911510040052,1393.8081407067366,nan,1394.0919179371558,nan,nan,nan,nan
1,67,1,1,1.0,1.0,0.3069785183761269,0,nan,nan,nan,nan,nan,nan,nan,nan,nan,1,2,0,8,7,4,nan,nan,nan,nan,nan,nan,nan,nan,nan,nan,nan,nan,0.0,nan,nan,nan,nan,nan,nan,nan,nan,nan,nan,nan,nan,nan,nan,nan,nan,nan,nan,1282.3911510040052,1394.8249236587435,nan,1395.1319021771196,nan,nan,nan,nan
1,68,1,1,1.0,1.0,0.2501774001866579,0,nan,nan,nan,nan,nan,nan,nan,nan,nan,4,0,8,2,1,6,nan,nan,nan,nan,nan,nan,nan,nan,nan,nan,nan,nan,0.0,nan,nan,nan,nan,nan,nan,nan,nan,nan,nan,nan,nan,nan,nan,nan,nan,nan,nan,1282.3911510040052,1395.8417182995472,nan,1396.0918956997339,nan,nan,nan,nan
1,69,1,1,1.0,1.0,0.2803780469112098,0,nan,nan,nan,nan,nan,nan,nan,nan,nan,2,7,6,5,4,0,nan,nan,nan,nan,nan,nan,nan,nan,nan,nan,nan,nan,0.0,nan,nan,nan,nan,nan,nan,nan,nan,nan,nan,nan,nan,nan,nan,nan,nan,nan,nan,1282.3911510040052,1396.88344389759,nan,1397.1638219445013,nan,nan,nan,nan
1,70,1,1,1.0,1.0,0.21558030880987644,0,nan,nan,nan,nan,nan,nan,nan,nan,nan,4,8,2,7,3,1,nan,nan,nan,nan,nan,nan,nan,nan,nan,nan,nan,nan,0.0,nan,nan,nan,nan,nan,nan,nan,nan,nan,nan,nan,nan,nan,nan,nan,nan,nan,nan,1282.3911510040052,1397.900265052449,nan,1398.1158453612588,nan,nan,nan,nan
1,71,0,0,1.0,0.0,0.2304308891762048,0,nan,nan,nan,nan,nan,nan,nan,nan,nan,1,4,0,6,7,2,nan,nan,nan,nan,nan,nan,nan,nan,nan,nan,nan,nan,0.0,nan,nan,nan,nan,nan,nan,nan,nan,nan,nan,nan,nan,nan,nan,nan,nan,nan,nan,1282.3911510040052,1398.9253744788002,nan,1399.1558053679764,nan,nan,nan,nan
1,72,1,1,1.0,1.0,0.4212872195057571,0,nan,nan,nan,nan,nan,nan,nan,nan,nan,7,1,5,2,8,4,nan,nan,nan,nan,nan,nan,nan,nan,nan,nan,nan,nan,0.0,nan,nan,nan,nan,nan,nan,nan,nan,nan,nan,nan,nan,nan,nan,nan,nan,nan,nan,1282.3911510040052,1399.950488751987,nan,1400.3717759714928,nan,nan,nan,nan
1,73,1,1,1.0,1.0,0.34808403556235135,0,nan,nan,nan,nan,nan,nan,nan,nan,nan,1,3,0,4,5,8,nan,nan,nan,nan,nan,nan,nan,nan,nan,nan,nan,nan,0.0,nan,nan,nan,nan,nan,nan,nan,nan,nan,nan,nan,nan,nan,nan,nan,nan,nan,nan,1282.3911510040052,1400.9756563378032,nan,1401.3237403733656,nan,nan,nan,nan
1,74,1,1,1.0,1.0,0.33895188360475004,0,nan,nan,nan,nan,nan,nan,nan,nan,nan,8,4,6,7,2,1,nan,nan,nan,nan,nan,nan,nan,nan,nan,nan,nan,nan,0.0,nan,nan,nan,nan,nan,nan,nan,nan,nan,nan,nan,nan,nan,nan,nan,nan,nan,nan,1282.3911510040052,1402.000763768563,nan,1402.3397156521678,nan,nan,nan,nan
1,75,1,1,1.0,1.0,0.4578526043333113,0,nan,nan,nan,nan,nan,nan,nan,nan,nan,2,7,5,8,1,0,nan,nan,nan,nan,nan,nan,nan,nan,nan,nan,nan,nan,0.0,nan,nan,nan,nan,nan,nan,nan,nan,nan,nan,nan,nan,nan,nan,nan,nan,nan,nan,1282.3911510040052,1403.0258543787058,nan,1403.4837069830392,nan,nan,nan,nan
1,76,1,1,1.0,1.0,0.38464913540519774,0,nan,nan,nan,nan,nan,nan,nan,nan,nan,3,5,6,4,8,7,nan,nan,nan,nan,nan,nan,nan,nan,nan,nan,nan,nan,0.0,nan,nan,nan,nan,nan,nan,nan,nan,nan,nan,nan,nan,nan,nan,nan,nan,nan,nan,1282.3911510040052,1404.0510022928938,nan,1404.435651428299,nan,nan,nan,nan
1,77,1,1,1.0,1.0,0.375631021335721,0,nan,nan,nan,nan,nan,nan,nan,nan,nan,4,6,7,8,2,0,nan,nan,nan,nan,nan,nan,nan,nan,nan,nan,nan,nan,0.0,nan,nan,nan,nan,nan,nan,nan,nan,nan,nan,nan,nan,nan,nan,nan,nan,nan,nan,1282.3911510040052,1405.0679922236595,nan,1405.4436232449953,nan,nan,nan,nan
1,78,1,1,1.0,1.0,0.3266754229553044,0,nan,nan,nan,nan,nan,nan,nan,nan,nan,0,4,8,5,1,3,nan,nan,nan,nan,nan,nan,nan,nan,nan,nan,nan,nan,0.0,nan,nan,nan,nan,nan,nan,nan,nan,nan,nan,nan,nan,nan,nan,nan,nan,nan,nan,1282.3911510040052,1406.0929094962776,nan,1406.4195849192329,nan,nan,nan,nan
1,79,1,1,1.0,1.0,0.3018861578311771,0,nan,nan,nan,nan,nan,nan,nan,nan,nan,4,1,6,3,8,0,nan,nan,nan,nan,nan,nan,nan,nan,nan,nan,nan,nan,0.0,nan,nan,nan,nan,nan,nan,nan,nan,nan,nan,nan,nan,nan,nan,nan,nan,nan,nan,1282.3911510040052,1407.1096719214693,nan,1407.4115580793004,nan,nan,nan,nan
1,80,1,1,1.0,1.0,0.28505673515610397,0,nan,nan,nan,nan,nan,nan,nan,nan,nan,0,7,8,4,5,1,nan,nan,nan,nan,nan,nan,nan,nan,nan,nan,nan,nan,0.0,nan,nan,nan,nan,nan,nan,nan,nan,nan,nan,nan,nan,nan,nan,nan,nan,nan,nan,1282.3911510040052,1408.1264890849125,nan,1408.4115458200686,nan,nan,nan,nan
1,81,1,1,1.0,1.0,0.24426824343390763,0,0.0,0.0,0.0,0.37135921299923214,0.09886723653668197,0.2724919764625502,0.4702264495359141,0.09886723653668197,0.2770703788070629,2,8,6,5,7,3,nan,nan,nan,nan,nan,nan,nan,nan,nan,nan,nan,nan,0.0,nan,nan,nan,nan,nan,nan,nan,nan,nan,nan,nan,nan,nan,nan,nan,nan,nan,nan,1282.3911510040052,1409.1432389658876,nan,1409.3875072093215,nan,nan,nan,nan
1,82,1,1,1.0,1.0,0.29937276314012706,0,0.0,0.0,0.0,0.3697901886836108,0.09925221287177828,0.27053797581183253,0.46904240155538907,0.09925221287177828,0.2762325805767129,3,1,2,7,4,0,nan,nan,nan,nan,nan,nan,nan,nan,nan,nan,nan,nan,0.0,nan,nan,nan,nan,nan,nan,nan,nan,nan,nan,nan,nan,nan,nan,nan,nan,nan,nan,1282.3911510040052,1410.1600909109693,nan,1410.4594636741094,nan,nan,nan,nan
1,83,1,1,1.0,1.0,0.24263237020932138,1,1.0,0.0,1.0,0.3689314395916171,0.09894746607358668,0.26998397351803044,0.4678789056652038,0.09894746607358668,0.262091125594452,4,7,6,1,0,3,1.0,1.0,1.0,1.0,1.0,1.0,0.0,1.0,1.0,1.0,0.0,0.0,3.0,8.0,7.0,6.0,1.0,3.0,2.0,4.0,5.0,6.0,1.0,2.0,3.0,6.7920907330699265,8.302478869445622,9.518791301175952,2.0067903844173998,3.0889463955536485,4.151264950633049,1282.3911510040052,1411.1768239713274,1411.985238083871,1411.4194563415367,1422.5531152719632,1423.5574775051791,1412.9936831577215,1422.544803907629
1,84,1,1,1.0,1.0,0.4487563744187355,0,0.0,0.0,0.0,0.3674097640568907,0.0993101842772681,0.2680995797796226,0.46671994833415875,0.0993101842772681,0.330253835922728,2,4,7,8,3,5,nan,nan,nan,nan,nan,nan,nan,nan,nan,nan,nan,nan,0.0,nan,nan,nan,nan,nan,nan,nan,nan,nan,nan,nan,nan,nan,nan,nan,nan,nan,nan,1282.3911510040052,1423.7783417582978,nan,1424.2270981327165,nan,nan,nan,nan
1,85,1,1,1.0,1.0,0.4319566017948091,0,0.0,0.0,0.0,0.3683781760850079,0.09911075143373406,0.26926742465127385,0.46748892751874194,0.09911075143373406,0.374448448807622,3,1,0,2,5,8,nan,nan,nan,nan,nan,nan,nan,nan,nan,nan,nan,nan,0.0,nan,nan,nan,nan,nan,nan,nan,nan,nan,nan,nan,nan,nan,nan,nan,nan,nan,nan,1282.3911510040052,1424.7950890734792,nan,1425.227045675274,nan,nan,nan,nan
1,86,1,1,1.0,1.0,0.34313279669731855,0,0.0,0.0,0.0,0.3691261575639467,0.0987642295874751,0.27036192797647157,0.4678903871514218,0.0987642295874751,0.40794859097028774,4,2,5,8,1,3,nan,nan,nan,nan,nan,nan,nan,nan,nan,nan,nan,nan,0.0,nan,nan,nan,nan,nan,nan,nan,nan,nan,nan,nan,nan,nan,nan,nan,nan,nan,nan,1282.3911510040052,1425.8118768720888,nan,1426.155009668786,nan,nan,nan,nan
1,87,1,1,1.0,1.0,0.27831652760505676,0,0.0,0.0,0.0,0.3688239091817766,0.098227873848499,0.2705960353332776,0.4670517830302756,0.098227873848499,0.35113530869906145,2,8,6,4,3,0,nan,nan,nan,nan,nan,nan,nan,nan,nan,nan,nan,nan,0.0,nan,nan,nan,nan,nan,nan,nan,nan,nan,nan,nan,nan,nan,nan,nan,nan,nan,nan,1282.3911510040052,1426.8286575432867,nan,1427.1069740708917,nan,nan,nan,nan
1,88,1,1,1.0,1.0,0.24548901873640716,0,0.0,0.0,0.0,0.3677835944510097,0.09813706912238634,0.2696465253286234,0.46592066357339607,0.09813706912238634,0.28897944767959416,6,5,4,7,1,2,nan,nan,nan,nan,nan,nan,nan,nan,nan,nan,nan,nan,0.0,nan,nan,nan,nan,nan,nan,nan,nan,nan,nan,nan,nan,nan,nan,nan,nan,nan,nan,1282.3911510040052,1427.8454496182967,nan,1428.090938637033,nan,nan,nan,nan
1,89,1,1,1.0,1.0,0.2206715289503336,1,1.0,0.0,1.0,0.3663938833633438,0.09843508164980139,0.26795880171354236,0.4648289650131452,0.09843508164980139,0.24815902509726584,7,3,5,4,8,1,1.0,1.0,1.0,1.0,1.0,1.0,0.0,0.0,1.0,0.0,0.0,0.0,1.0,1.0,4.0,5.0,8.0,5.0,0.0,3.0,2.0,1.0,6.0,5.0,4.0,3.31423645792529,2.4326776061207056,1.52335623675026,6.536605725763366,5.584530992200598,4.488643111893907,1282.3911510040052,1428.8622525271494,1429.6706375598442,1429.0829240560997,1437.263189975405,1438.2678646722343,1430.687432771083,1437.2548566586338
1,90,1,1,1.0,1.0,0.6182622511405498,0,0.0,0.0,0.0,0.36475655353847847,0.09907830040354537,0.2656782531349331,0.46383485394202384,0.09907830040354537,0.3614742662757635,5,1,7,2,3,6,nan,nan,nan,nan,nan,nan,nan,nan,nan,nan,nan,nan,0.0,nan,nan,nan,nan,nan,nan,nan,nan,nan,nan,nan,nan,nan,nan,nan,nan,nan,nan,1282.3911510040052,1438.4883970750961,nan,1439.1066593262367,nan,nan,nan,nan
1,91,1,1,1.0,1.0,0.4411506191827357,0,0.0,0.0,0.0,0.3675732835118348,0.1020468539983239,0.2655264295135109,0.46962013751015874,0.1020468539983239,0.426694799757873,8,7,5,6,0,4,nan,nan,nan,nan,nan,nan,nan,nan,nan,nan,nan,nan,0.0,nan,nan,nan,nan,nan,nan,nan,nan,nan,nan,nan,nan,nan,nan,nan,nan,nan,nan,1282.3911510040052,1439.5134865450673,nan,1439.95463716425,nan,nan,nan,nan
1,92,1,1,1.0,1.0,0.3038903730921447,0,0.0,0.0,0.0,0.3683818256620645,0.10177407488131417,0.26660775078075033,0.4701559005433787,0.10177407488131417,0.45443441447181004,5,3,0,4,8,2,nan,nan,nan,nan,nan,nan,nan,nan,nan,nan,nan,nan,0.0,nan,nan,nan,nan,nan,nan,nan,nan,nan,nan,nan,nan,nan,nan,nan,nan,nan,nan,1282.3911510040052,1440.5387085839175,nan,1440.8425989570096,nan,nan,nan,nan
1,93,1,1,1.0,1.0,0.2548230173997581,0,0.0,0.0,0.0,0.36768083161239146,0.10144009317258014,0.26624073843981133,0.4691209247849716,0.10144009317258014,0.3332880032248795,1,4,2,5,3,7,nan,nan,nan,nan,nan,nan,nan,nan,nan,nan,nan,nan,0.0,nan,nan,nan,nan,nan,nan,nan,nan,nan,nan,nan,nan,nan,nan,nan,nan,nan,nan,1282.3911510040052,1441.5637621318456,nan,1441.8185851492453,nan,nan,nan,nan
1,94,1,1,1.0,1.0,0.2697403102647513,0,0.0,0.0,0.0,0.3664673067283847,0.10156244123776532,0.26490486549061937,0.46802974796615,0.10156244123776532,0.2761512335855514,3,2,1,6,4,0,nan,nan,nan,nan,nan,nan,nan,nan,nan,nan,nan,nan,0.0,nan,nan,nan,nan,nan,nan,nan,nan,nan,nan,nan,nan,nan,nan,nan,nan,nan,nan,1282.3911510040052,1442.5888076969422,nan,1442.858548007207,nan,nan,nan,nan
1,95,1,1,1.0,1.0,0.24457956664264202,1,1.0,0.0,1.0,0.36543829612770773,0.10150699690097748,0.26393129922673025,0.4669452930286852,0.10150699690097748,0.2563809647690505,5,6,3,0,7,1,1.0,1.0,1.0,1.0,1.0,1.0,0.0,0.0,0.0,1.0,0.0,1.0,2.0,3.0,7.0,5.0,0.0,4.0,1.0,4.0,5.0,6.0,1.0,2.0,3.0,6.672433086205274,8.168592718662694,9.232415148057044,2.865814499789849,4.129602888831869,5.154359368141741,1282.3911510040052,1443.6139436373487,1444.4223737150896,1443.8585232039914,1454.706883923849,1455.7082156010438,1445.4391626541037,1454.6985543135088
1,96,1,1,1.0,1.0,0.36605868325568736,0,0.0,0.0,0.0,0.36416609897523333,0.10172191689666885,0.26244418207856446,0.4658880158719022,0.10172191689666885,0.2934595200543602,1,0,5,7,6,8,nan,nan,nan,nan,nan,nan,nan,nan,nan,nan,nan,nan,0.0,nan,nan,nan,nan,nan,nan,nan,nan,nan,nan,nan,nan,nan,nan,nan,nan,nan,nan,1282.3911510040052,1455.93210784439,nan,1456.2981665276457,nan,nan,nan,nan
1,97,0,0,1.0,0.0,0.30093337153084576,0,0.0,0.0,0.0,0.3641858133948214,0.10119091076152348,0.26299490263329794,0.4653767241563449,0.10119091076152348,0.30385720714305836,8,3,1,2,0,7,nan,nan,nan,nan,nan,nan,nan,nan,nan,nan,nan,nan,0.0,nan,nan,nan,nan,nan,nan,nan,nan,nan,nan,nan,nan,nan,nan,nan,nan,nan,nan,1282.3911510040052,1456.9571956035215,nan,1457.2581289750524,nan,nan,nan,nan
1,98,1,1,1.0,1.0,0.4277759736869484,0,0.0,0.0,0.0,0.3635337263652959,0.10087050316738941,0.26266322319790647,0.46440422953268534,0.10087050316738941,0.3649226761578272,1,8,6,5,2,0,nan,nan,nan,nan,nan,nan,nan,nan,nan,nan,nan,nan,0.0,nan,nan,nan,nan,nan,nan,nan,nan,nan,nan,nan,nan,nan,nan,nan,nan,nan,nan,1282.3911510040052,1457.9823061705101,nan,1458.410082144197,nan,nan,nan,nan
1,99,1,1,1.0,1.0,0.3869361646939069,0,0.0,0.0,0.0,0.3641892595012311,0.10056200336900464,0.2636272561322265,0.4647512628702357,0.10056200336900464,0.3718818366372337,5,2,8,6,0,3,nan,nan,nan,nan,nan,nan,nan,nan,nan,nan,nan,nan,0.0,nan,nan,nan,nan,nan,nan,nan,nan,nan,nan,nan,nan,nan,nan,nan,nan,nan,nan,1282.3911510040052,1458.9991116449237,nan,1459.3860478096176,nan,nan,nan,nan
1,100,1,1,1.0,1.0,0.33012563828378916,0,0.0,0.0,0.0,0.36441902622034905,0.10007867684419837,0.2643403493761507,0.4644977030645474,0.10007867684419837,0.38161259222154814,2,3,7,8,1,5,nan,nan,nan,nan,nan,nan,nan,nan,nan,nan,nan,nan,0.0,nan,nan,nan,nan,nan,nan,nan,nan,nan,nan,nan,nan,nan,nan,nan,nan,nan,nan,1282.3911510040052,1460.0158914609347,nan,1460.3460170992184,nan,nan,nan,nan
1,101,1,1,1.0,1.0,0.3293025700841099,0,0.0,0.0,0.0,0.3640760923409834,0.09963547011086307,0.2644406222301203,0.4637115624518465,0.09963547011086307,0.3487881243539353,8,5,2,1,4,7,nan,nan,nan,nan,nan,nan,nan,nan,nan,nan,nan,nan,0.0,nan,nan,nan,nan,nan,nan,nan,nan,nan,nan,nan,nan,nan,nan,nan,nan,nan,nan,1282.3911510040052,1461.0326795447618,nan,1461.361982114846,nan,nan,nan,nan
1,102,1,1,1.0,1.0,0.3118513561785221,0,0.0,0.0,0.0,0.3637318000414104,0.0992007623341574,0.26453103770725306,0.4629325623755678,0.0992007623341574,0.32375985484880704,5,6,8,4,7,0,nan,nan,nan,nan,nan,nan,nan,nan,nan,nan,nan,nan,0.0,nan,nan,nan,nan,nan,nan,nan,nan,nan,nan,nan,nan,nan,nan,nan,nan,nan,nan,1282.3911510040052,1462.0661319810897,nan,1462.3779833372682,nan,nan,nan,nan
1,103,1,1,1.0,1.0,0.31867224583402276,0,0.0,0.0,0.0,0.3632231682388331,0.09884554739330655,0.2643776208455266,0.46206871563213964,0.09884554739330655,0.3199420573655516,7,3,4,8,5,1,nan,nan,nan,nan,nan,nan,nan,nan,nan,nan,nan,nan,0.0,nan,nan,nan,nan,nan,nan,nan,nan,nan,nan,nan,nan,nan,nan,nan,nan,nan,nan,1282.3911510040052,1463.0912810356822,nan,1463.4099532815162,nan,nan,nan,nan
1,104,0,0,0.0,1.0,0.5895073194988072,0,0.0,0.0,0.0,0.3627906350116019,0.0984614962623176,0.2643291387492843,0.4612521312739195,0.0984614962623176,0.4066769738371174,0,7,3,2,1,5,nan,nan,nan,nan,nan,nan,nan,nan,nan,nan,nan,nan,0.0,nan,nan,nan,nan,nan,nan,nan,nan,nan,nan,nan,nan,nan,nan,nan,nan,nan,nan,1282.3911510040052,1464.1164001552388,nan,1464.7059074747376,nan,nan,nan,nan
1,105,1,1,1.0,1.0,0.4283929185476154,0,0.0,0.0,0.0,0.36497060313167123,0.1004536270375771,0.26451697609409414,0.46542423016924833,0.1004536270375771,0.44552416129348177,4,1,5,0,2,7,nan,nan,nan,nan,nan,nan,nan,nan,nan,nan,nan,nan,0.0,nan,nan,nan,nan,nan,nan,nan,nan,nan,nan,nan,nan,nan,nan,nan,nan,nan,nan,1282.3911510040052,1465.1415272576269,nan,1465.5699201761745,nan,nan,nan,nan
1,106,1,1,1.0,1.0,0.36328243161551654,0,0.0,0.0,0.0,0.3655746251832516,0.10016371954413189,0.26541090563911973,0.4657383447273835,0.10016371954413189,0.4603942232206464,7,6,4,8,3,0,nan,nan,nan,nan,nan,nan,nan,nan,nan,nan,nan,nan,0.0,nan,nan,nan,nan,nan,nan,nan,nan,nan,nan,nan,nan,nan,nan,nan,nan,nan,nan,1282.3911510040052,1466.166600762168,nan,1466.5298831937835,nan,nan,nan,nan
1,107,1,1,1.0,1.0,0.4260942004621029,0,0.0,0.0,0.0,0.3655530007156315,0.09969037582662114,0.26586262488901036,0.4652433765422527,0.09969037582662114,0.40592318354174495,0,7,5,3,2,8,nan,nan,nan,nan,nan,nan,nan,nan,nan,nan,nan,nan,0.0,nan,nan,nan,nan,nan,nan,nan,nan,nan,nan,nan,nan,nan,nan,nan,nan,nan,nan,1282.3911510040052,1467.191727864556,nan,1467.6178220650181,nan,nan,nan,nan
1,108,1,1,1.0,1.0,0.36098228790797293,0,0.0,0.0,0.0,0.36611880632073873,0.09939429230856081,0.2667245140121779,0.46551309862929957,0.09939429230856081,0.3834529733285308,3,0,8,4,6,1,nan,nan,nan,nan,nan,nan,nan,nan,nan,nan,nan,nan,0.0,nan,nan,nan,nan,nan,nan,nan,nan,nan,nan,nan,nan,nan,nan,nan,nan,nan,nan,1282.3911510040052,1468.2168187599164,nan,1468.5778010478243,nan,nan,nan,nan
1,109,0,0,0.0,1.0,0.4877932448871434,0,0.0,0.0,0.0,0.36607124596506496,0.0989342866120666,0.26713695935299836,0.46500553257713156,0.0989342866120666,0.4249565777524064,8,5,4,2,7,0,nan,nan,nan,nan,nan,nan,nan,nan,nan,nan,nan,nan,0.0,nan,nan,nan,nan,nan,nan,nan,nan,nan,nan,nan,nan,nan,nan,nan,nan,nan,nan,1282.3911510040052,1469.2419698101003,nan,1469.7297630549874,nan,nan,nan,nan
1,110,1,1,1.0,1.0,0.4226414191070944,0,0.0,0.0,0.0,0.367187961551506,0.09916086307415067,0.26802709847735534,0.4663488246256567,0.09916086307415067,0.4238056506340702,6,2,0,1,3,5,nan,nan,nan,nan,nan,nan,nan,nan,nan,nan,nan,nan,0.0,nan,nan,nan,nan,nan,nan,nan,nan,nan,nan,nan,nan,nan,nan,nan,nan,nan,nan,1282.3911510040052,1470.2670732494444,nan,1470.6897146685515,nan,nan,nan,nan
1,111,0,0,0.0,1.0,0.5578196188434958,0,0.0,0.0,0.0,0.36769208389292046,0.09884932050529996,0.2688427633876205,0.46654140439822045,0.09884932050529996,0.48941809427924454,2,3,4,6,5,8,nan,nan,nan,nan,nan,nan,nan,nan,nan,nan,nan,nan,0.0,nan,nan,nan,nan,nan,nan,nan,nan,nan,nan,nan,nan,nan,nan,nan,nan,nan,nan,1282.3911510040052,1471.2838690308854,nan,1471.841688649729,nan,nan,nan,nan
1,112,1,1,1.0,1.0,0.4049943450372666,0,0.0,0.0,0.0,0.3694049445681509,0.10002943331020459,0.2693755112579463,0.46943437787835546,0.10002943331020459,0.4618184609959523,6,5,0,7,2,4,nan,nan,nan,nan,nan,nan,nan,nan,nan,nan,nan,nan,0.0,nan,nan,nan,nan,nan,nan,nan,nan,nan,nan,nan,nan,nan,nan,nan,nan,nan,nan,1282.3911510040052,1472.3006525530946,nan,1472.7056468981318,nan,nan,nan,nan
1,113,1,1,1.0,1.0,0.6841906746849418,1,0.0,1.0,1.0,0.3697227070723394,0.09963813151030086,0.2700845755620385,0.46936083858264027,0.09963813151030086,0.5490015461885681,5,4,1,6,3,8,1.0,1.0,1.0,1.0,1.0,1.0,1.0,0.0,1.0,0.0,1.0,0.0,3.0,5.0,7.0,1.0,0.0,3.0,6.0,1.0,6.0,5.0,4.0,3.0,2.0,2.3447045234497637,9.159950929461047,7.984670175239444,6.3762280095834285,4.79236242827028,3.5618465808220208,1282.3911510040052,1473.3174372157082,1474.1258476220537,1474.0016278903931,1484.343686165521,1485.3473476360086,1475.1425997838378,1484.335376226576
1,114,1,1,1.0,1.0,0.448392023332417,0,0.0,0.0,0.0,0.3725056094405925,0.10347603634767055,0.26902957309292197,0.4759816457882631,0.10347603634767055,0.5125256810182085,3,5,8,4,1,6,nan,nan,nan,nan,nan,nan,nan,nan,nan,nan,nan,nan,0.0,nan,nan,nan,nan,nan,nan,nan,nan,nan,nan,nan,nan,nan,nan,nan,nan,nan,nan,1282.3911510040052,1485.568911511451,nan,1486.0173035347834,nan,nan,nan,nan
1,115,1,1,1.0,1.0,0.535259508760646,0,0.0,0.0,0.0,0.3731712797378892,0.10326392746561133,0.2699073522722779,0.4764352072035005,0.10326392746561133,0.5559474022593349,0,8,6,3,2,4,nan,nan,nan,nan,nan,nan,nan,nan,nan,nan,nan,nan,0.0,nan,nan,nan,nan,nan,nan,nan,nan,nan,nan,nan,nan,nan,nan,nan,nan,nan,nan,1282.3911510040052,1486.5939855861943,nan,1487.129245094955,nan,nan,nan,nan
1,116,1,1,1.0,1.0,0.4304307750426233,0,0.0,0.0,0.0,0.3745807425989567,0.10390949867572831,0.2706712439232284,0.478490241274685,0.10390949867572831,0.4713607690452288,2,3,5,1,8,0,nan,nan,nan,nan,nan,nan,nan,nan,nan,nan,nan,nan,0.0,nan,nan,nan,nan,nan,nan,nan,nan,nan,nan,nan,nan,nan,nan,nan,nan,nan,nan,1282.3911510040052,1487.610790205421,nan,1488.0412209804635,nan,nan,nan,nan
1,117,1,1,1.0,1.0,0.38964627450332046,0,0.0,0.0,0.0,0.37506220839588483,0.10358939527975408,0.27147281311613075,0.4786516036756389,0.10358939527975408,0.45177885276886326,5,0,4,8,7,2,nan,nan,nan,nan,nan,nan,nan,nan,nan,nan,nan,nan,0.0,nan,nan,nan,nan,nan,nan,nan,nan,nan,nan,nan,nan,nan,nan,nan,nan,nan,nan,1282.3911510040052,1488.6275663150009,nan,1489.0172125895042,nan,nan,nan,nan
1,118,1,1,1.0,1.0,0.3244619481265545,0,0.0,0.0,0.0,0.37518685853355527,0.10315449220041553,0.27203236633313976,0.47834135073397077,0.10315449220041553,0.3815129992241661,0,2,1,3,6,5,nan,nan,nan,nan,nan,nan,nan,nan,nan,nan,nan,nan,0.0,nan,nan,nan,nan,nan,nan,nan,nan,nan,nan,nan,nan,nan,nan,nan,nan,nan,nan,1282.3911510040052,1489.652720216196,nan,1489.9771821643226,nan,nan,nan,nan
1,119,0,0,1.0,0.0,0.28330596908926964,0,0.0,0.0,0.0,0.374756986411462,0.10282165631475831,0.2719353300967037,0.4775786427262203,0.10282165631475831,0.33247139723971486,8,5,3,7,4,2,nan,nan,nan,nan,nan,nan,nan,nan,nan,nan,nan,nan,0.0,nan,nan,nan,nan,nan,nan,nan,nan,nan,nan,nan,nan,nan,nan,nan,nan,nan,nan,1282.3911510040052,1490.6778487439733,nan,1490.9611547130626,nan,nan,nan,nan
1,120,1,1,1.0,1.0,0.3941539062652737,0,0.0,0.0,0.0,0.37398849046757804,0.10272847394364387,0.27126001652393417,0.4767169644112219,0.10272847394364387,0.33397394116036594,2,7,6,1,8,4,nan,nan,nan,nan,nan,nan,nan,nan,nan,nan,nan,nan,0.0,nan,nan,nan,nan,nan,nan,nan,nan,nan,nan,nan,nan,nan,nan,nan,nan,nan,nan,1282.3911510040052,1491.7029675785452,nan,1492.0971214848105,nan,nan,nan,nan
1,121,1,1,1.0,1.0,0.3370312009938061,0,0.0,0.0,0.0,0.3741565355992255,0.10231596645483139,0.27184056914439414,0.4764725020540569,0.10231596645483139,0.33816369211611647,0,5,8,6,1,2,nan,nan,nan,nan,nan,nan,nan,nan,nan,nan,nan,nan,0.0,nan,nan,nan,nan,nan,nan,nan,nan,nan,nan,nan,nan,nan,nan,nan,nan,nan,nan,1282.3911510040052,1492.728056478314,nan,1493.065087679308,nan,nan,nan,nan
1,122,1,1,1.0,1.0,0.5362285454757512,0,0.0,0.0,0.0,0.3738497146520733,0.10194771543732152,0.2719019992147518,0.4757974300893948,0.10194771543732152,0.422471217578277,6,1,3,0,4,7,nan,nan,nan,nan,nan,nan,nan,nan,nan,nan,nan,nan,0.0,nan,nan,nan,nan,nan,nan,nan,nan,nan,nan,nan,nan,nan,nan,nan,nan,nan,nan,1282.3911510040052,1493.7448277415242,nan,1494.281056287,nan,nan,nan,nan
1,123,1,1,1.0,1.0,0.40741080744192004,0,0.0,0.0,0.0,0.3751806886752182,0.1025792177416448,0.2726014709335734,0.477759906416863,0.1025792177416448,0.4268901846371591,2,7,8,5,1,6,nan,nan,nan,nan,nan,nan,nan,nan,nan,nan,nan,nan,0.0,nan,nan,nan,nan,nan,nan,nan,nan,nan,nan,nan,nan,nan,nan,nan,nan,nan,nan,1282.3911510040052,1494.7616135443095,nan,1495.1690243517514,nan,nan,nan,nan
1,124,1,1,1.0,1.0,0.4305619187653065,0,0.0,0.0,0.0,0.37544272216112634,0.10220236726248426,0.27324035489864207,0.4776450894236106,0.10220236726248426,0.45806709056099254,5,4,7,8,6,2,nan,nan,nan,nan,nan,nan,nan,nan,nan,nan,nan,nan,0.0,nan,nan,nan,nan,nan,nan,nan,nan,nan,nan,nan,nan,nan,nan,nan,nan,nan,nan,1282.3911510040052,1495.7784298525658,nan,1496.208991771331,nan,nan,nan,nan
1,125,1,1,1.0,1.0,0.37375937518663704,0,0.0,0.0,0.0,0.37588723181116,0.1019087376880124,0.2739784941231476,0.4777959694991724,0.1019087376880124,0.4039107004646212,3,8,1,7,2,5,nan,nan,nan,nan,nan,nan,nan,nan,nan,nan,nan,nan,0.0,nan,nan,nan,nan,nan,nan,nan,nan,nan,nan,nan,nan,nan,nan,nan,nan,nan,nan,1282.3911510040052,1496.7951914223377,nan,1497.1689507975243,nan,nan,nan,nan
1,126,1,1,1.0,1.0,0.30096416152082384,0,0.0,0.0,0.0,0.37587020895816387,0.10150046119619258,0.2743697477619713,0.4773706701543564,0.10150046119619258,0.36842848515758914,5,6,4,2,3,8,nan,nan,nan,nan,nan,nan,nan,nan,nan,nan,nan,nan,0.0,nan,nan,nan,nan,nan,nan,nan,nan,nan,nan,nan,nan,nan,nan,nan,nan,nan,nan,1282.3911510040052,1497.811973234173,nan,1498.1129373956937,nan,nan,nan,nan
1,127,1,1,1.0,1.0,0.3001325405202806,0,0.0,0.0,0.0,0.375275716518185,0.10131513533900013,0.27396058117918487,0.4765908518571851,0.10131513533900013,0.3249520257425805,3,4,1,8,0,5,nan,nan,nan,nan,nan,nan,nan,nan,nan,nan,nan,nan,0.0,nan,nan,nan,nan,nan,nan,nan,nan,nan,nan,nan,nan,nan,nan,nan,nan,nan,nan,1282.3911510040052,1498.8287755725905,nan,1499.1289081131108,nan,nan,nan,nan
1,128,1,1,1.0,1.0,0.30735883489251137,0,0.0,0.0,0.0,0.3746840379670204,0.10113378424272627,0.2735502537242941,0.47581782220974667,0.10113378424272627,0.30281851231120527,1,3,4,5,2,8,nan,nan,nan,nan,nan,nan,nan,nan,nan,nan,nan,nan,0.0,nan,nan,nan,nan,nan,nan,nan,nan,nan,nan,nan,nan,nan,nan,nan,nan,nan,nan,1282.3911510040052,1499.8455365721602,nan,1500.1528954070527,nan,nan,nan,nan
1,129,1,1,1.0,1.0,0.3064969936385751,0,0.0,0.0,0.0,0.37415805981800077,0.10091219285769502,0.2732458669603057,0.4750702526756958,0.10091219285769502,0.304662789683789,8,2,1,7,4,6,nan,nan,nan,nan,nan,nan,nan,nan,nan,nan,nan,nan,0.0,nan,nan,nan,nan,nan,nan,nan,nan,nan,nan,nan,nan,nan,nan,nan,nan,nan,nan,1282.3911510040052,1500.8623568715993,nan,1501.168853865238,nan,nan,nan,nan
1,130,0,0,0.0,1.0,0.42568965116515756,0,0.0,0.0,0.0,0.37363355542901294,0.10069530279996503,0.2729382526290479,0.47432885822897797,0.10069530279996503,0.346515159898748,3,5,0,2,7,4,nan,nan,nan,nan,nan,nan,nan,nan,nan,nan,nan,nan,0.0,nan,nan,nan,nan,nan,nan,nan,nan,nan,nan,nan,nan,nan,nan,nan,nan,nan,nan,1282.3911510040052,1501.8791426746175,nan,1502.3048323257826,nan,nan,nan,nan
1,131,1,1,1.0,1.0,0.4648790471255779,0,0.0,0.0,0.0,0.3740339869346756,0.1004103185386183,0.2736236683960573,0.4744443054732939,0.1004103185386183,0.39902189730977017,0,3,4,8,2,1,nan,nan,nan,nan,nan,nan,nan,nan,nan,nan,nan,nan,0.0,nan,nan,nan,nan,nan,nan,nan,nan,nan,nan,nan,nan,nan,nan,nan,nan,nan,nan,1282.3911510040052,1502.8959276224487,nan,1503.3608066695742,nan,nan,nan,nan
1,132,1,1,1.0,1.0,0.41606143466196954,0,0.0,0.0,0.0,0.3747274606765909,0.10033835868420819,0.2743891019923827,0.4750658193607991,0.10033835868420819,0.4355433776509017,6,0,3,1,8,5,nan,nan,nan,nan,nan,nan,nan,nan,nan,nan,nan,nan,0.0,nan,nan,nan,nan,nan,nan,nan,nan,nan,nan,nan,nan,nan,nan,nan,nan,nan,nan,1282.3911510040052,1503.9127128550317,nan,1504.3287742896937,nan,nan,nan,nan
1,133,1,1,1.0,1.0,0.3432456941809505,0,0.0,0.0,0.0,0.3750405968431468,0.1000217987420291,0.2750187981011177,0.4750623955851759,0.1000217987420291,0.408062058656166,1,6,8,3,5,2,nan,nan,nan,nan,nan,nan,nan,nan,nan,nan,nan,nan,0.0,nan,nan,nan,nan,nan,nan,nan,nan,nan,nan,nan,nan,nan,nan,nan,nan,nan,nan,1282.3911510040052,1504.9294960922562,nan,1505.272741786437,nan,nan,nan,nan
1,134,1,1,1.0,1.0,0.43042706907726824,0,0.0,0.0,0.0,0.37480153742463407,0.09968291323775932,0.2751186241868747,0.4744844506623934,0.09968291323775932,0.3965780659733961,3,2,4,6,7,8,nan,nan,nan,nan,nan,nan,nan,nan,nan,nan,nan,nan,0.0,nan,nan,nan,nan,nan,nan,nan,nan,nan,nan,nan,nan,nan,nan,nan,nan,nan,nan,1282.3911510040052,1505.9462545260321,nan,1506.3766815951094,nan,nan,nan,nan
1,135,1,1,1.0,1.0,0.4696124738547951,0,0.0,0.0,0.0,0.37521665333248955,0.09942558806084958,0.27579106527164,0.4746422413933391,0.09942558806084958,0.41442841237100464,8,5,3,0,6,1,nan,nan,nan,nan,nan,nan,nan,nan,nan,nan,nan,nan,0.0,nan,nan,nan,nan,nan,nan,nan,nan,nan,nan,nan,nan,nan,nan,nan,nan,nan,nan,1282.3911510040052,1506.9630457458552,nan,1507.43265821971,nan,nan,nan,nan
1,136,1,1,1.0,1.0,0.4528537546284497,0,0.0,0.0,0.0,0.37591588163265477,0.09938680663280114,0.27652907499985363,0.4753026882654559,0.09938680663280114,0.450964432520171,5,4,0,7,3,8,nan,nan,nan,nan,nan,nan,nan,nan,nan,nan,nan,nan,0.0,nan,nan,nan,nan,nan,nan,nan,nan,nan,nan,nan,nan,nan,nan,nan,nan,nan,nan,1282.3911510040052,1507.9798084562644,nan,1508.4326622108929,nan,nan,nan,nan
1,137,0,0,0.0,1.0,0.5000007126946002,0,0.0,0.0,0.0,0.3764816012870356,0.09923866252270187,0.27724293876433376,0.4757202638097375,0.09923866252270187,0.47415564705928165,4,6,2,8,7,3,nan,nan,nan,nan,nan,nan,nan,nan,nan,nan,nan,nan,0.0,nan,nan,nan,nan,nan,nan,nan,nan,nan,nan,nan,nan,nan,nan,nan,nan,nan,nan,1282.3911510040052,1508.9966150710825,nan,1509.496615783777,nan,nan,nan,nan
1,138,1,1,1.0,1.0,0.38686147006228566,0,0.0,0.0,0.0,0.3773832006403755,0.0994332867746164,0.2779499138657591,0.4768164874149919,0.0994332867746164,0.4465719791284452,6,5,4,7,0,8,nan,nan,nan,nan,nan,nan,nan,nan,nan,nan,nan,nan,0.0,nan,nan,nan,nan,nan,nan,nan,nan,nan,nan,nan,nan,nan,nan,nan,nan,nan,nan,1282.3911510040052,1510.02172193164,nan,1510.4085834017023,nan,nan,nan,nan
1,139,1,1,0.0,0.0,0.5619914089329541,1,0.0,1.0,1.0,0.37745188375212846,0.09907562781328116,0.2783762559388473,0.4765275115654096,0.09907562781328116,0.48295119722994667,8,0,7,3,5,2,1.0,1.0,1.0,1.0,1.0,1.0,0.0,0.0,1.0,1.0,0.0,0.0,2.0,1.0,5.0,7.0,3.0,6.0,0.0,5.0,6.0,2.0,1.0,3.0,4.0,6.7021807176060975,8.061556211905554,2.917717976961285,1.8796507134102285,4.134793892269954,5.325883429963142,1282.3911510040052,1511.038538524881,1511.8469289746135,1511.600529933814,1520.9646579562686,1521.975131763611,1512.863734449027,1520.9563280607108
1,140,1,1,1.0,1.0,0.4260420280043036,0,0.0,0.0,0.0,0.37877950623544376,0.09994297227161889,0.2788365339638249,0.4787224785070626,0.09994297227161889,0.4582983023331811,0,3,4,6,7,5,nan,nan,nan,nan,nan,nan,nan,nan,nan,nan,nan,nan,0.0,nan,nan,nan,nan,nan,nan,nan,nan,nan,nan,nan,nan,nan,nan,nan,nan,nan,nan,1282.3911510040052,1522.1982043597382,nan,1522.6242463877425,nan,nan,nan,nan
1,141,0,0,1.0,0.0,0.32122298749163747,0,0.0,0.0,0.0,0.3791170956766499,0.09966489824252976,0.27945219743412014,0.4787819939191797,0.09966489824252976,0.436418808142965,2,8,1,7,0,4,nan,nan,nan,nan,nan,nan,nan,nan,nan,nan,nan,nan,0.0,nan,nan,nan,nan,nan,nan,nan,nan,nan,nan,nan,nan,nan,nan,nan,nan,nan,nan,1282.3911510040052,1523.2149907329585,nan,1523.5362137204502,nan,nan,nan,nan
1,142,1,1,1.0,1.0,0.3524189000017941,0,0.0,0.0,0.0,0.37870649916469945,0.0994296083191624,0.2792768908455371,0.4781361074838618,0.0994296083191624,0.36656130516591173,1,4,0,2,8,3,nan,nan,nan,nan,nan,nan,nan,nan,nan,nan,nan,nan,0.0,nan,nan,nan,nan,nan,nan,nan,nan,nan,nan,nan,nan,nan,nan,nan,nan,nan,nan,1282.3911510040052,1524.2317594301421,nan,1524.584178330144,nan,nan,nan,nan
1,143,1,1,1.0,1.0,0.39127159933559597,0,0.0,0.0,0.0,0.3785213752269325,0.0991032680877919,0.2794181071391406,0.47762464331472443,0.0991032680877919,0.3549711622763425,6,5,3,4,0,1,nan,nan,nan,nan,nan,nan,nan,nan,nan,nan,nan,nan,0.0,nan,nan,nan,nan,nan,nan,nan,nan,nan,nan,nan,nan,nan,nan,nan,nan,nan,nan,1282.3911510040052,1525.2568916641176,nan,1525.6481632634532,nan,nan,nan,nan
1,144,1,1,1.0,1.0,0.5024157494772226,0,0.0,0.0,0.0,0.3786105376332868,0.09876186062297561,0.2798486770103112,0.4773723982562624,0.09876186062297561,0.41536874960487086,2,3,4,0,7,8,nan,nan,nan,nan,nan,nan,nan,nan,nan,nan,nan,nan,0.0,nan,nan,nan,nan,nan,nan,nan,nan,nan,nan,nan,nan,nan,nan,nan,nan,nan,nan,1282.3911510040052,1526.273684879765,nan,1526.7761006292421,nan,nan,nan,nan
1,145,1,1,1.0,1.0,0.5496174455620348,1,0.0,1.0,1.0,0.37947029604886967,0.09895389355541391,0.2805164024934558,0.47842418960428357,0.09895389355541391,0.4811015981249511,7,1,6,2,5,4,1.0,1.0,1.0,1.0,1.0,1.0,1.0,1.0,0.0,0.0,0.0,0.0,2.0,7.0,1.0,4.0,5.0,2.0,6.0,1.0,6.0,5.0,4.0,3.0,2.0,2.5382173657417297,8.529770581517369,7.457566939527169,6.617251875810325,4.746996171539649,3.6657356426585466,1282.3911510040052,1527.2904510111548,1528.0988443116657,1527.8400684567168,1537.6833105874248,1538.682286242256,1529.1156355314888,1537.674980691867
1,146,1,1,1.0,1.0,0.44364776322618127,0,0.0,0.0,0.0,0.3806437246662019,0.09961235611352881,0.2810313685526731,0.4802560807797307,0.09961235611352881,0.4985603194218129,6,2,8,4,0,7,nan,nan,nan,nan,nan,nan,nan,nan,nan,nan,nan,nan,0.0,nan,nan,nan,nan,nan,nan,nan,nan,nan,nan,nan,nan,nan,nan,nan,nan,nan,nan,1282.3911510040052,1538.9001165181398,nan,1539.343764281366,nan,nan,nan,nan
1,147,1,1,1.0,1.0,0.3864934127777815,0,0.0,0.0,0.0,0.38107525917688667,0.09940654165854458,0.2816687175183421,0.48048180083543124,0.09940654165854458,0.4599195405219992,4,0,2,5,6,8,nan,nan,nan,nan,nan,nan,nan,nan,nan,nan,nan,nan,0.0,nan,nan,nan,nan,nan,nan,nan,nan,nan,nan,nan,nan,nan,nan,nan,nan,nan,nan,1282.3911510040052,1539.9252470415086,nan,1540.3117404542863,nan,nan,nan,nan
1,148,1,1,1.0,1.0,0.3212996779475361,0,0.0,0.0,0.0,0.38111211736464784,0.09906884822622013,0.2820432691384277,0.480180965590868,0.09906884822622013,0.38381361798383296,6,4,8,3,0,5,nan,nan,nan,nan,nan,nan,nan,nan,nan,nan,nan,nan,0.0,nan,nan,nan,nan,nan,nan,nan,nan,nan,nan,nan,nan,nan,nan,nan,nan,nan,nan,1282.3911510040052,1540.9503980919253,nan,1541.2716977698728,nan,nan,nan,nan
1,149,1,1,1.0,1.0,0.32015958474949,0,0.0,0.0,0.0,0.38070797926047817,0.09885509968823944,0.2818528795722387,0.47956307894871764,0.09885509968823944,0.34265089182493585,7,1,3,2,5,4,nan,nan,nan,nan,nan,nan,nan,nan,nan,nan,nan,nan,0.0,nan,nan,nan,nan,nan,nan,nan,nan,nan,nan,nan,nan,nan,nan,nan,nan,nan,nan,1282.3911510040052,1541.9755203474779,nan,1542.2956799322274,nan,nan,nan,nan
1,150,1,1,1.0,1.0,0.2633929627481848,0,0.0,0.0,0.0,0.38030161419664604,0.09864676498342877,0.28165484921321726,0.4789483791800748,0.09864676498342877,0.30161740848173696,4,6,0,8,7,3,nan,nan,nan,nan,nan,nan,nan,nan,nan,nan,nan,nan,0.0,nan,nan,nan,nan,nan,nan,nan,nan,nan,nan,nan,nan,nan,nan,nan,nan,nan,nan,1282.3911510040052,1542.992290755501,nan,1543.2556837182492,nan,nan,nan,nan
1,151,1,1,1.0,1.0,0.262551078107208,0,0.0,0.0,0.0,0.37952222318698964,0.09877661556071139,0.28074560762627826,0.478298838747701,0.09877661556071139,0.2820345418682943,2,8,6,1,3,4,nan,nan,nan,nan,nan,nan,nan,nan,nan,nan,nan,nan,0.0,nan,nan,nan,nan,nan,nan,nan,nan,nan,nan,nan,nan,nan,nan,nan,nan,nan,nan,1282.3911510040052,1544.0090617334936,nan,1544.2716128116008,nan,nan,nan,nan
1,152,1,1,1.0,1.0,0.2617625065613538,1,1.0,0.0,1.0,0.3787475798420904,0.09890508544992761,0.2798424943921628,0.477652665292018,0.09890508544992761,0.26256884913891554,4,6,3,5,2,1,1.0,1.0,1.0,1.0,1.0,1.0,0.0,1.0,0.0,1.0,1.0,0.0,3.0,3.0,6.0,8.0,5.0,2.0,4.0,4.0,5.0,6.0,1.0,2.0,3.0,5.538637595251203,6.585792821133509,7.241853206418455,2.300834158435464,3.522065328201279,4.482441732892767,1282.3911510040052,1545.0258218778763,1545.8342439730186,1545.2875843844377,1554.1351898885332,1555.1397947375663,1546.8510175170377,1554.1268742477987
1,153,1,1,1.0,1.0,0.44689841265790164,0,0.0,0.0,0.0,0.37797794120208555,0.09903182888943353,0.27894611231265204,0.47700977009151907,0.09903182888943353,0.32373733244215447,8,1,2,0,7,6,nan,nan,nan,nan,nan,nan,nan,nan,nan,nan,nan,nan,0.0,nan,nan,nan,nan,nan,nan,nan,nan,nan,nan,nan,nan,nan,nan,nan,nan,nan,nan,1282.3911510040052,1555.3603904312477,nan,1555.8072888439056,nan,nan,nan,nan
1,154,1,1,1.0,1.0,0.34177489089779556,0,0.0,0.0,0.0,0.378428401799836,0.0988637757458555,0.27956462605398047,0.47729217754569153,0.0988637757458555,0.350145270039017,0,5,6,7,3,1,nan,nan,nan,nan,nan,nan,nan,nan,nan,nan,nan,nan,0.0,nan,nan,nan,nan,nan,nan,nan,nan,nan,nan,nan,nan,nan,nan,nan,nan,nan,nan,1282.3911510040052,1556.3854830372147,nan,1556.7272579281125,nan,nan,nan,nan
1,155,1,1,1.0,1.0,0.32492323126643896,0,0.0,0.0,0.0,0.3781903919887838,0.09858623417641679,0.279604157812367,0.47677662616520056,0.09858623417641679,0.37119884494071204,1,6,3,5,0,8,nan,nan,nan,nan,nan,nan,nan,nan,nan,nan,nan,nan,0.0,nan,nan,nan,nan,nan,nan,nan,nan,nan,nan,nan,nan,nan,nan,nan,nan,nan,nan,1282.3911510040052,1557.4022896520328,nan,1557.7272128832992,nan,nan,nan,nan
1,156,1,1,1.0,1.0,0.332087944727391,0,0.0,0.0,0.0,0.3778467328873493,0.09836019724449498,0.27948653564285436,0.4762069301318443,0.09836019724449498,0.3329286889638752,6,7,8,4,3,5,nan,nan,nan,nan,nan,nan,nan,nan,nan,nan,nan,nan,0.0,nan,nan,nan,nan,nan,nan,nan,nan,nan,nan,nan,nan,nan,nan,nan,nan,nan,nan,1282.3911510040052,1558.4190842930693,nan,1558.7511722377967,nan,nan,nan,nan
1,157,1,1,1.0,1.0,0.4032652461901307,0,0.0,0.0,0.0,0.37755340732222137,0.09811242069549163,0.2794409866267297,0.475665828017713,0.09811242069549163,0.35342547406132024,8,4,3,1,5,7,nan,nan,nan,nan,nan,nan,nan,nan,nan,nan,nan,nan,0.0,nan,nan,nan,nan,nan,nan,nan,nan,nan,nan,nan,nan,nan,nan,nan,nan,nan,nan,1282.3911510040052,1559.4358712362591,nan,1559.8391364824492,nan,nan,nan,nan
1,158,1,1,1.0,1.0,0.37816665321588516,0,0.0,0.0,0.0,0.3777171769965393,0.09782084998518036,0.2798963270113589,0.47553802698171965,0.09782084998518036,0.3711732813778023,7,2,8,6,3,1,nan,nan,nan,nan,nan,nan,nan,nan,nan,nan,nan,nan,0.0,nan,nan,nan,nan,nan,nan,nan,nan,nan,nan,nan,nan,nan,nan,nan,nan,nan,nan,1282.3911510040052,1560.4609726802446,nan,1560.8391393334605,nan,nan,nan,nan
1,159,1,1,1.0,1.0,0.33733710763044655,0,0.0,0.0,0.0,0.37772002178273767,0.09751080548259035,0.28020921630014733,0.475230827265328,0.09751080548259035,0.3729230023454875,8,6,7,0,5,2,nan,nan,nan,nan,nan,nan,nan,nan,nan,nan,nan,nan,0.0,nan,nan,nan,nan,nan,nan,nan,nan,nan,nan,nan,nan,nan,nan,nan,nan,nan,nan,1282.3911510040052,1561.4777653254569,nan,1561.8151024330873,nan,nan,nan,nan
1,160,1,1,1.0,1.0,0.32018695352599025,0,0.0,0.0,0.0,0.37746604119058486,0.09725609578623491,0.28020994540434996,0.47472213697681975,0.09725609578623491,0.3452302381241073,3,7,4,5,2,8,nan,nan,nan,nan,nan,nan,nan,nan,nan,nan,nan,nan,0.0,nan,nan,nan,nan,nan,nan,nan,nan,nan,nan,nan,nan,nan,nan,nan,nan,nan,nan,1282.3911510040052,1562.5028927128296,nan,1562.8230796663556,nan,nan,nan,nan
1,161,0,0,0.0,1.0,0.4713766393251717,0,0.0,0.0,0.0,0.3771080468926812,0.09705672783681529,0.2800513190558659,0.4741647747294965,0.09705672783681529,0.3763002334938695,7,2,5,3,0,4,nan,nan,nan,nan,nan,nan,nan,nan,nan,nan,nan,nan,0.0,nan,nan,nan,nan,nan,nan,nan,nan,nan,nan,nan,nan,nan,nan,nan,nan,nan,nan,1282.3911510040052,1563.5196636908222,nan,1563.9910403301474,nan,nan,nan,nan
1,162,1,1,1.0,1.0,0.3585743785370141,0,0.0,0.0,0.0,0.3776935661003364,0.09703789099180087,0.2806556751085355,0.47473145709213727,0.09703789099180087,0.3833793237960587,4,7,1,0,6,2,nan,nan,nan,nan,nan,nan,nan,nan,nan,nan,nan,nan,0.0,nan,nan,nan,nan,nan,nan,nan,nan,nan,nan,nan,nan,nan,nan,nan,nan,nan,nan,1282.3911510040052,1564.536446642829,nan,1564.8950210213661,nan,nan,nan,nan
1,163,1,1,1.0,1.0,0.34943224815651774,0,0.0,0.0,0.0,0.3775755464240196,0.09674951766500979,0.2808260287590098,0.47432506408902936,0.09674951766500979,0.39312775533956784,6,2,0,4,3,5,nan,nan,nan,nan,nan,nan,nan,nan,nan,nan,nan,nan,0.0,nan,nan,nan,nan,nan,nan,nan,nan,nan,nan,nan,nan,nan,nan,nan,nan,nan,nan,1282.3911510040052,1565.5615566396154,nan,1565.910988887772,nan,nan,nan,nan
1,164,1,1,1.0,1.0,0.49228690657764673,0,0.0,0.0,0.0,0.37740288815243983,0.09647731515517763,0.2809255729972622,0.4738802033076175,0.09647731515517763,0.4000978444237262,1,4,6,8,0,2,nan,nan,nan,nan,nan,nan,nan,nan,nan,nan,nan,nan,0.0,nan,nan,nan,nan,nan,nan,nan,nan,nan,nan,nan,nan,nan,nan,nan,nan,nan,nan,1282.3911510040052,1566.5866774697788,nan,1567.0789643763565,nan,nan,nan,nan
1,165,1,1,1.0,1.0,0.3951463205739856,0,0.0,0.0,0.0,0.3781034004599106,0.09659763957651087,0.28150576088339974,0.47470104003642144,0.09659763957651087,0.41228849176938337,5,3,0,1,8,7,nan,nan,nan,nan,nan,nan,nan,nan,nan,nan,nan,nan,0.0,nan,nan,nan,nan,nan,nan,nan,nan,nan,nan,nan,nan,nan,nan,nan,nan,nan,nan,1282.3911510040052,1567.6117957341485,nan,1568.0069420547225,nan,nan,nan,nan
1,166,1,1,1.0,1.0,0.3459928664378822,0,0.0,0.0,0.0,0.3782066908848444,0.09631355838104495,0.28189313250379944,0.4745202492658893,0.09631355838104495,0.41114203119650483,6,0,4,7,2,3,nan,nan,nan,nan,nan,nan,nan,nan,nan,nan,nan,nan,0.0,nan,nan,nan,nan,nan,nan,nan,nan,nan,nan,nan,nan,nan,nan,nan,nan,nan,nan,1282.3911510040052,1568.6369208407123,nan,1568.9829137071501,nan,nan,nan,nan
1,167,1,1,1.0,1.0,0.3048354620113969,0,0.0,0.0,0.0,0.37801263170142896,0.09605536904834115,0.2819572626530878,0.4740680007497701,0.09605536904834115,0.34865821634108823,0,2,5,8,6,4,nan,nan,nan,nan,nan,nan,nan,nan,nan,nan,nan,nan,0.0,nan,nan,nan,nan,nan,nan,nan,nan,nan,nan,nan,nan,nan,nan,nan,nan,nan,nan,1282.3911510040052,1569.6620408156887,nan,1569.9668762777,nan,nan,nan,nan
1,168,1,1,1.0,1.0,0.26369088678620756,0,0.0,0.0,0.0,0.37757444505657844,0.09593361177926743,0.28164083327731104,0.47350805683584585,0.09593361177926743,0.3048397384118289,3,6,0,2,8,7,nan,nan,nan,nan,nan,nan,nan,nan,nan,nan,nan,nan,0.0,nan,nan,nan,nan,nan,nan,nan,nan,nan,nan,nan,nan,nan,nan,nan,nan,nan,nan,1282.3911510040052,1570.687158509856,nan,1570.9508493966423,nan,nan,nan,nan
1,169,1,1,1.0,1.0,0.33451524074189365,0,0.0,0.0,0.0,0.37689656673354055,0.09604798930043715,0.28084857743310343,0.47294455603397767,0.09604798930043715,0.3010138631798327,1,2,8,6,5,3,nan,nan,nan,nan,nan,nan,nan,nan,nan,nan,nan,nan,0.0,nan,nan,nan,nan,nan,nan,nan,nan,nan,nan,nan,nan,nan,nan,nan,nan,nan,nan,1282.3911510040052,1571.7123007222544,nan,1572.0468159629963,nan,nan,nan,nan
1,170,1,1,1.0,1.0,0.30970430839806795,0,0.0,0.0,0.0,0.3766457896566669,0.09581855011513374,0.28082723954153316,0.47246433977180063,0.09581855011513374,0.3026368119753897,8,0,5,7,2,4,nan,nan,nan,nan,nan,nan,nan,nan,nan,nan,nan,nan,0.0,nan,nan,nan,nan,nan,nan,nan,nan,nan,nan,nan,nan,nan,nan,nan,nan,nan,nan,1282.3911510040052,1572.7290756916627,nan,1573.0387800000608,nan,nan,nan,nan
1,171,1,1,1.0,1.0,0.24488404765725136,0,0.0,0.0,0.0,0.37625201623749865,0.09567336221685734,0.2805786540206413,0.471925378454356,0.09567336221685734,0.29636786559907097,0,7,3,4,8,5,nan,nan,nan,nan,nan,nan,nan,nan,nan,nan,nan,nan,0.0,nan,nan,nan,nan,nan,nan,nan,nan,nan,nan,nan,nan,nan,nan,nan,nan,nan,nan,1282.3911510040052,1573.7458825916983,nan,1573.9907666393556,nan,nan,nan,nan
1,172,1,1,1.0,1.0,0.25939650600776076,1,1.0,0.0,1.0,0.3754837825031112,0.09591764566705331,0.2795661368360579,0.4714014281701645,0.09591764566705331,0.27132828735436004,7,0,8,6,5,3,1.0,1.0,1.0,1.0,1.0,1.0,0.0,0.0,0.0,1.0,0.0,0.0,1.0,5.0,4.0,0.0,6.0,7.0,8.0,4.0,5.0,6.0,1.0,2.0,3.0,6.5361806496512145,7.663249617209658,8.567443273961544,2.273313401499763,3.551842324435711,5.3688158337026834,1282.3911510040052,1574.7793310366105,1575.58773830696,1575.0387275426183,1585.2138292572927,1586.2141320277005,1576.604538079584,1585.205503067933
1,173,1,1,1.0,1.0,0.5037177768535912,0,0.0,0.0,0.0,0.3748088564769755,0.09604478145645029,0.2787640750205252,0.4708536379334258,0.09604478145645029,0.3359994435062011,5,1,3,4,8,2,nan,nan,nan,nan,nan,nan,nan,nan,nan,nan,nan,nan,0.0,nan,nan,nan,nan,nan,nan,nan,nan,nan,nan,nan,nan,nan,nan,nan,nan,nan,nan,1282.3911510040052,1586.4306799478363,nan,1586.93439772469,nan,nan,nan,nan
1,174,1,1,1.0,1.0,0.3585544219240546,0,0.0,0.0,0.0,0.3755539947450484,0.09626410751730823,0.2792898872277402,0.47181810226235665,0.09626410751730823,0.3738895682618022,2,6,5,0,7,4,nan,nan,nan,nan,nan,nan,nan,nan,nan,nan,nan,nan,0.0,nan,nan,nan,nan,nan,nan,nan,nan,nan,nan,nan,nan,nan,nan,nan,nan,nan,nan,1282.3911510040052,1587.4558099010028,nan,1587.8143643229268,nan,nan,nan,nan
1,175,1,1,1.0,1.0,0.31740642548538744,0,0.0,0.0,0.0,0.3754562960506749,0.09599568917422527,0.2794606068764496,0.47145198522490017,0.09599568917422527,0.3932262080876778,1,7,2,6,5,0,nan,nan,nan,nan,nan,nan,nan,nan,nan,nan,nan,nan,0.0,nan,nan,nan,nan,nan,nan,nan,nan,nan,nan,nan,nan,nan,nan,nan,nan,nan,nan,1282.3911510040052,1588.4809241741896,nan,1588.798330599675,nan,nan,nan,nan
1,176,1,1,1.0,1.0,0.39622369315475225,0,0.0,0.0,0.0,0.3751245825045875,0.09582097947169814,0.27930360303288937,0.4709455619762857,0.09582097947169814,0.35739484685473144,3,2,1,8,0,6,nan,nan,nan,nan,nan,nan,nan,nan,nan,nan,nan,nan,0.0,nan,nan,nan,nan,nan,nan,nan,nan,nan,nan,nan,nan,nan,nan,nan,nan,nan,nan,1282.3911510040052,1589.5060484255664,nan,1589.9022721187212,nan,nan,nan,nan
1,177,1,1,1.0,1.0,0.2750881155952811,0,0.0,0.0,0.0,0.3752444638150998,0.09556153306162278,0.279682930753477,0.4708059968767226,0.09556153306162278,0.32957274474514026,5,0,3,6,2,7,nan,nan,nan,nan,nan,nan,nan,nan,nan,nan,nan,nan,0.0,nan,nan,nan,nan,nan,nan,nan,nan,nan,nan,nan,nan,nan,nan,nan,nan,nan,nan,1282.3911510040052,1590.53115842212,nan,1590.8062465377152,nan,nan,nan,nan
1,178,1,1,1.0,1.0,0.3062700582668185,0,0.0,0.0,0.0,0.3746786087404116,0.09558643799928543,0.27909217074112613,0.47026504673969705,0.09558643799928543,0.32586062233895063,7,8,4,2,3,1,nan,nan,nan,nan,nan,nan,nan,nan,nan,nan,nan,nan,0.0,nan,nan,nan,nan,nan,nan,nan,nan,nan,nan,nan,nan,nan,nan,nan,nan,nan,nan,1282.3911510040052,1591.5479542033281,nan,1591.854224261595,nan,nan,nan,nan
1,179,0,0,0.0,1.0,0.40142039861530066,0,0.0,0.0,0.0,0.3742942910411217,0.09545459597952685,0.2788396950615949,0.46974888702064854,0.09545459597952685,0.32759285749246675,5,1,0,3,6,8,nan,nan,nan,nan,nan,nan,nan,nan,nan,nan,nan,nan,0.0,nan,nan,nan,nan,nan,nan,nan,nan,nan,nan,nan,nan,nan,nan,nan,nan,nan,nan,1282.3911510040052,1592.5647536909673,nan,1592.9661740895826,nan,nan,nan,nan
1,180,1,1,1.0,1.0,0.3446141486056149,0,0.0,0.0,0.0,0.37444583354153615,0.09520905947273955,0.2792367740687966,0.4696548930142757,0.09520905947273955,0.3507682018292447,4,7,1,2,3,0,nan,nan,nan,nan,nan,nan,nan,nan,nan,nan,nan,nan,0.0,nan,nan,nan,nan,nan,nan,nan,nan,nan,nan,nan,nan,nan,nan,nan,nan,nan,nan,1282.3911510040052,1593.5815363579895,nan,1593.9261505065951,nan,nan,nan,nan
1,181,1,1,1.0,1.0,0.2878161664120853,0,0.0,0.0,0.0,0.37428010195855876,0.09497010995837712,0.27930999200018164,0.4692502119169359,0.09497010995837712,0.34461690454433364,8,2,3,0,7,4,nan,nan,nan,nan,nan,nan,nan,nan,nan,nan,nan,nan,0.0,nan,nan,nan,nan,nan,nan,nan,nan,nan,nan,nan,nan,nan,nan,nan,nan,nan,nan,1282.3911510040052,1594.5983198801987,nan,1594.8861360466108,nan,nan,nan,nan
1,182,1,1,1.0,1.0,0.2550194477662444,0,0.0,0.0,0.0,0.37380240065719705,0.09492400652312397,0.2788783941340731,0.468726407180321,0.09492400652312397,0.2958165875946482,5,4,6,7,1,0,nan,nan,nan,nan,nan,nan,nan,nan,nan,nan,nan,nan,0.0,nan,nan,nan,nan,nan,nan,nan,nan,nan,nan,nan,nan,nan,nan,nan,nan,nan,nan,1282.3911510040052,1595.6151031171903,nan,1595.8701225649565,nan,nan,nan,nan
1,183,1,1,1.0,1.0,0.22990660020150244,1,1.0,0.0,1.0,0.37314974706988413,0.09506921987711749,0.27808052719276666,0.4682189669470016,0.09506921987711749,0.2575807381266107,7,0,5,8,4,6,1.0,1.0,1.0,1.0,1.0,1.0,1.0,1.0,0.0,0.0,0.0,0.0,2.0,7.0,0.0,6.0,5.0,2.0,1.0,2.0,1.0,6.0,5.0,4.0,3.0,3.187546666478738,1.8352135801687837,7.713280877796933,6.945767584722489,5.545804019784555,4.266386456787586,1282.3911510040052,1596.6401940125506,1597.44860612927,1596.8701006127521,1606.2246451782994,1607.2267383432481,1598.4737537584733,1606.216314142337
1,184,1,1,1.0,1.0,0.47591933771036565,0,0.0,0.0,0.0,0.3723669976334449,0.09539538002515277,0.27697161760829214,0.46776237765859763,0.09539538002515277,0.3202817952260375,0,2,8,1,5,3,nan,nan,nan,nan,nan,nan,nan,nan,nan,nan,nan,nan,0.0,nan,nan,nan,nan,nan,nan,nan,nan,nan,nan,nan,nan,nan,nan,nan,nan,nan,nan,1282.3911510040052,1607.4498582649976,nan,1607.925777602708,nan,nan,nan,nan
1,185,1,1,1.0,1.0,0.33917425759136677,0,0.0,0.0,0.0,0.3729297820903847,0.0954399361681653,0.27748984592221937,0.46836971825855,0.0954399361681653,0.3483333985010783,4,1,6,0,2,8,nan,nan,nan,nan,nan,nan,nan,nan,nan,nan,nan,nan,0.0,nan,nan,nan,nan,nan,nan,nan,nan,nan,nan,nan,nan,nan,nan,nan,nan,nan,nan,1282.3911510040052,1608.4665836279746,nan,1608.805757885566,nan,nan,nan,nan
1,186,1,1,1.0,1.0,0.274009317625314,0,0.0,0.0,0.0,0.3727473197957954,0.09521381505563226,0.27753350474016314,0.46796113485142765,0.09521381505563226,0.36303430430901545,1,6,7,2,0,4,nan,nan,nan,nan,nan,nan,nan,nan,nan,nan,nan,nan,0.0,nan,nan,nan,nan,nan,nan,nan,nan,nan,nan,nan,nan,nan,nan,nan,nan,nan,nan,1282.3911510040052,1609.4917298315559,nan,1609.7657391491812,nan,nan,nan,nan
1,187,1,1,1.0,1.0,0.30485655879601836,0,0.0,0.0,0.0,0.37221647032176053,0.09523163144884493,0.2769848388729156,0.4674481017706055,0.09523163144884493,0.30601337800423306,7,4,6,8,2,0,nan,nan,nan,nan,nan,nan,nan,nan,nan,nan,nan,nan,0.0,nan,nan,nan,nan,nan,nan,nan,nan,nan,nan,nan,nan,nan,nan,nan,nan,nan,nan,1282.3911510040052,1610.5168463855516,nan,1610.8217029443476,nan,nan,nan,nan
1,188,1,1,1.0,1.0,0.23163855029270053,1,1.0,0.0,1.0,0.3718562568911416,0.09510362849569848,0.2767526283954431,0.4669598853868401,0.09510362849569848,0.27016814223801094,5,6,7,2,8,3,1.0,1.0,1.0,1.0,1.0,1.0,0.0,1.0,1.0,1.0,0.0,0.0,3.0,1.0,6.0,7.0,2.0,5.0,4.0,4.0,5.0,6.0,1.0,2.0,3.0,5.972937390208244,7.331541703548282,8.379470391198993,2.380223040934652,3.596110396552831,4.845408564899117,1282.3911510040052,1611.542030791752,1612.3503830388654,1611.7736693420447,1621.784780621063,1622.7951318377163,1613.3671437534504,1621.776447874494
1,189,1,1,1.0,1.0,0.531030414858833,0,0.0,0.0,0.0,0.3711104180262563,0.0953971361486528,0.27571328187760347,0.4665075541749091,0.0953971361486528,0.3558418413158506,4,3,0,1,6,8,nan,nan,nan,nan,nan,nan,nan,nan,nan,nan,nan,nan,0.0,nan,nan,nan,nan,nan,nan,nan,nan,nan,nan,nan,nan,nan,nan,nan,nan,nan,nan,1282.3911510040052,1623.0183102039155,nan,1623.5493406187743,nan,nan,nan,nan
1,190,0,0,0.0,1.0,0.5138930901885033,0,0.0,0.0,0.0,0.371956555575635,0.09584915521900618,0.27610740035662884,0.46780571079464117,0.09584915521900618,0.42552068511334556,1,6,8,0,7,2,nan,nan,nan,nan,nan,nan,nan,nan,nan,nan,nan,nan,0.0,nan,nan,nan,nan,nan,nan,nan,nan,nan,nan,nan,nan,nan,nan,nan,nan,nan,nan,1282.3911510040052,1624.0434085116722,nan,1624.5573016018607,nan,nan,nan,nan
1,191,1,1,1.0,1.0,0.3847392254974693,1,0.0,1.0,1.0,0.3727035899683343,0.09614666410465761,0.2765569258636767,0.4688502540729919,0.09614666410465761,0.4765542435149352,7,8,0,4,3,1,1.0,1.0,1.0,1.0,1.0,1.0,0.0,0.0,1.0,0.0,0.0,0.0,1.0,5.0,2.0,0.0,3.0,1.0,8.0,5.0,6.0,1.0,2.0,3.0,4.0,6.204723334172741,7.860423074802384,1.4767318572849035,2.6301672337576747,3.9730961876921356,5.2373814969323575,1282.3911510040052,1625.068544166861,1625.876965121599,1625.4532833923586,1634.7946822433732,1635.8051460725255,1626.8937494992279,1634.7863614708185
1,192,1,1,1.0,1.0,0.44076117989607155,0,0.0,0.0,0.0,0.37276660376691617,0.09589857457401714,0.27686802919289905,0.4686651783409333,0.09589857457401714,0.44646449852734804,6,7,4,8,5,2,nan,nan,nan,nan,nan,nan,nan,nan,nan,nan,nan,nan,0.0,nan,nan,nan,nan,nan,nan,nan,nan,nan,nan,nan,nan,nan,nan,nan,nan,nan,nan,1282.3911510040052,1636.0282029884402,nan,1636.4689641683362,nan,nan,nan,nan
1,193,1,1,1.0,1.0,0.33595183258876204,0,0.0,0.0,0.0,0.3731207421842555,0.09577365010656624,0.27734709207768926,0.46889439229082175,0.09577365010656624,0.387150745994101,7,1,8,2,6,0,nan,nan,nan,nan,nan,nan,nan,nan,nan,nan,nan,nan,0.0,nan,nan,nan,nan,nan,nan,nan,nan,nan,nan,nan,nan,nan,nan,nan,nan,nan,nan,1282.3911510040052,1637.0449828044511,nan,1637.38093463704,nan,nan,nan,nan
1,194,1,1,1.0,1.0,0.39881662908010185,0,0.0,0.0,0.0,0.37292815716044464,0.09556247567628082,0.27736568148416385,0.46849063283672543,0.09556247567628082,0.3918432138549785,5,6,0,3,1,2,nan,nan,nan,nan,nan,nan,nan,nan,nan,nan,nan,nan,0.0,nan,nan,nan,nan,nan,nan,nan,nan,nan,nan,nan,nan,nan,nan,nan,nan,nan,nan,1282.3911510040052,1638.0700819673948,nan,1638.468898596475,nan,nan,nan,nan
1,195,1,1,1.0,1.0,0.3016908678691834,0,0.0,0.0,0.0,0.3730616028919893,0.09533388971438764,0.2777277131776017,0.4683954926063769,0.09533388971438764,0.3454864431793491,8,3,5,6,7,4,nan,nan,nan,nan,nan,nan,nan,nan,nan,nan,nan,nan,0.0,nan,nan,nan,nan,nan,nan,nan,nan,nan,nan,nan,nan,nan,nan,nan,nan,nan,nan,1282.3911510040052,1639.0951965255663,nan,1639.3968873934355,nan,nan,nan,nan
1,196,1,1,1.0,1.0,0.2928460913244635,0,0.0,0.0,0.0,0.37269559912264155,0.09522568233375536,0.2774699167888862,0.4679212814563969,0.09522568233375536,0.33111786275791627,6,1,3,5,8,0,nan,nan,nan,nan,nan,nan,nan,nan,nan,nan,nan,nan,0.0,nan,nan,nan,nan,nan,nan,nan,nan,nan,nan,nan,nan,nan,nan,nan,nan,nan,nan,1282.3911510040052,1640.1119752011728,nan,1640.4048212924972,nan,nan,nan,nan
1,197,1,1,1.0,1.0,0.4674976416863501,0,0.0,0.0,0.0,0.3722882036746917,0.09515266669388876,0.2771355369808029,0.46744087036858045,0.09515266669388876,0.35401153362666565,2,0,4,8,3,1,nan,nan,nan,nan,nan,nan,nan,nan,nan,nan,nan,nan,0.0,nan,nan,nan,nan,nan,nan,nan,nan,nan,nan,nan,nan,nan,nan,nan,nan,nan,nan,1282.3911510040052,1641.1532817101106,nan,1641.620779351797,nan,nan,nan,nan
1,198,1,1,1.0,1.0,0.5222041695378721,0,0.0,0.0,0.0,0.37277150031434475,0.09515172758142798,0.27761977273291677,0.46792322789577273,0.09515172758142798,0.42751596751622856,8,6,3,5,2,0,nan,nan,nan,nan,nan,nan,nan,nan,nan,nan,nan,nan,0.0,nan,nan,nan,nan,nan,nan,nan,nan,nan,nan,nan,nan,nan,nan,nan,nan,nan,nan,1282.3911510040052,1642.1705524590798,nan,1642.6927566286176,nan,nan,nan,nan
1,199,1,1,1.0,1.0,0.4173788568004966,1,0.0,1.0,1.0,0.3735262107649686,0.09550043743077688,0.27802577333419176,0.46902664819574547,0.09550043743077688,0.46902688934157294,2,4,0,8,1,7,1.0,1.0,1.0,1.0,1.0,1.0,0.0,0.0,1.0,0.0,0.0,0.0,1.0,5.0,3.0,0.0,1.0,4.0,8.0,3.0,2.0,1.0,6.0,5.0,4.0,4.535155164077878,3.1094934523571283,1.5276494773570448,8.205556095577776,7.165813045809045,5.68618719256483,1282.3911510040052,1643.1873402579222,1643.9957406858448,1643.6047191147227,1653.2468261125032,1654.2438348992728,1645.0041666582692,1653.2384925105143
1,200,1,1,1.0,1.0,0.4767352784983814,0,0.0,0.0,0.0,0.37374657582042353,0.09531063821856874,0.2784359376018548,0.46905721403899225,0.09531063821856874,0.47210610161225003,3,2,4,7,5,6,nan,nan,nan,nan,nan,nan,nan,nan,nan,nan,nan,nan,0.0,nan,nan,nan,nan,nan,nan,nan,nan,nan,nan,nan,nan,nan,nan,nan,nan,nan,nan,1282.3911510040052,1654.4636596972123,nan,1654.9403949757107,nan,nan,nan,nan
1,201,1,1,1.0,1.0,0.3718672019895166,0,0.0,0.0,0.0,0.37426151933381335,0.09534917601331017,0.2789123433205032,0.4696106953471235,0.09534917601331017,0.4219937790961315,2,7,3,6,4,0,nan,nan,nan,nan,nan,nan,nan,nan,nan,nan,nan,nan,0.0,nan,nan,nan,nan,nan,nan,nan,nan,nan,nan,nan,nan,nan,nan,nan,nan,nan,nan,1282.3911510040052,1655.480517058866,nan,1655.8523842608556,nan,nan,nan,nan
1,202,0,0,0.0,1.0,0.4831139862071723,0,0.0,0.0,0.0,0.3742496073072248,0.09511184245253318,0.2791377648546916,0.46936144975975796,0.09511184245253318,0.44390548889835674,7,0,2,3,1,4,nan,nan,nan,nan,nan,nan,nan,nan,nan,nan,nan,nan,0.0,nan,nan,nan,nan,nan,nan,nan,nan,nan,nan,nan,nan,nan,nan,nan,nan,nan,nan,1282.3911510040052,1656.4972330138553,nan,1656.9803470000625,nan,nan,nan,nan
1,203,1,1,1.0,1.0,0.3862852936144918,0,0.0,0.0,0.0,0.37478853987603644,0.09518329269195171,0.27960524718408475,0.46997183256798813,0.09518329269195171,0.41375549393706024,4,3,5,7,8,0,nan,nan,nan,nan,nan,nan,nan,nan,nan,nan,nan,nan,0.0,nan,nan,nan,nan,nan,nan,nan,nan,nan,nan,nan,nan,nan,nan,nan,nan,nan,nan,1282.3911510040052,1657.514026799472,nan,1657.9003120930865,nan,nan,nan,nan
1,204,1,1,1.0,1.0,0.35347888176329434,0,0.0,0.0,0.0,0.3748451741309057,0.0949519734497952,0.27989320068111045,0.4697971475807009,0.0949519734497952,0.4076260538616528,0,8,1,4,6,5,nan,nan,nan,nan,nan,nan,nan,nan,nan,nan,nan,nan,0.0,nan,nan,nan,nan,nan,nan,nan,nan,nan,nan,nan,nan,nan,nan,nan,nan,nan,nan,1282.3911510040052,1658.5308117470704,nan,1658.8842906288337,nan,nan,nan,nan
1,205,1,1,1.0,1.0,0.2726628154050559,0,0.0,0.0,0.0,0.37474043740361346,0.09473071651260195,0.2800097208910115,0.4694711539162154,0.09473071651260195,0.33747566359428066,2,5,0,1,3,7,nan,nan,nan,nan,nan,nan,nan,nan,nan,nan,nan,nan,0.0,nan,nan,nan,nan,nan,nan,nan,nan,nan,nan,nan,nan,nan,nan,nan,nan,nan,nan,1282.3911510040052,1659.5475992606953,nan,1659.8202620761003,nan,nan,nan,nan
1,206,1,1,1.0,1.0,0.35182761354371905,0,0.0,0.0,0.0,0.3742424977841083,0.09476662933350041,0.2794758684506079,0.46900912711760867,0.09476662933350041,0.3259897702373564,8,1,2,4,0,3,nan,nan,nan,nan,nan,nan,nan,nan,nan,nan,nan,nan,0.0,nan,nan,nan,nan,nan,nan,nan,nan,nan,nan,nan,nan,nan,nan,nan,nan,nan,nan,1282.3911510040052,1660.5643976076972,nan,1660.916225221241,nan,nan,nan,nan
1,207,1,1,1.0,1.0,0.3110388363711536,0,0.0,0.0,0.0,0.3741336876664365,0.09454916954993835,0.27958451811649815,0.46868285721637487,0.09454916954993835,0.31184308843997616,5,7,0,6,1,2,nan,nan,nan,nan,nan,nan,nan,nan,nan,nan,nan,nan,0.0,nan,nan,nan,nan,nan,nan,nan,nan,nan,nan,nan,nan,nan,nan,nan,nan,nan,nan,1282.3911510040052,1661.5811862617265,nan,1661.8922250980977,nan,nan,nan,nan
1,208,1,1,1.0,1.0,0.469896427821368,0,0.0,0.0,0.0,0.3738288816215318,0.09442191503020356,0.27940696659132824,0.4682507966517353,0.09442191503020356,0.3775876259120802,2,6,3,5,7,8,nan,nan,nan,nan,nan,nan,nan,nan,nan,nan,nan,nan,0.0,nan,nan,nan,nan,nan,nan,nan,nan,nan,nan,nan,nan,nan,nan,nan,nan,nan,nan,1282.3911510040052,1662.6062802930828,nan,1663.0761767209042,nan,nan,nan,nan
1,209,1,1,1.0,1.0,0.3330988904926926,0,0.0,0.0,0.0,0.3742907448244156,0.09442876581634141,0.2798619790080742,0.468719510640757,0.09442876581634141,0.3713447182284047,6,1,8,2,0,4,nan,nan,nan,nan,nan,nan,nan,nan,nan,nan,nan,nan,0.0,nan,nan,nan,nan,nan,nan,nan,nan,nan,nan,nan,nan,nan,nan,nan,nan,nan,nan,1282.3911510040052,1663.6230612492654,nan,1663.9561601397581,nan,nan,nan,nan
1,210,1,1,1.0,1.0,0.31626348104327917,0,0.0,0.0,0.0,0.37409365461230204,0.09424546357618588,0.27984819103611613,0.46833911818848795,0.09424546357618588,0.3730862664524466,2,8,4,0,5,3,nan,nan,nan,nan,nan,nan,nan,nan,nan,nan,nan,nan,0.0,nan,nan,nan,nan,nan,nan,nan,nan,nan,nan,nan,nan,nan,nan,nan,nan,nan,nan,1282.3911510040052,1664.6398801233154,nan,1664.9561436043587,nan,nan,nan,nan
1,211,1,1,1.0,1.0,0.32346354657784104,0,0.0,0.0,0.0,0.37381827283340197,0.09410505151106899,0.279713221322333,0.4679233243444709,0.09410505151106899,0.3242753060379376,1,3,7,6,2,4,nan,nan,nan,nan,nan,nan,nan,nan,nan,nan,nan,nan,0.0,nan,nan,nan,nan,nan,nan,nan,nan,nan,nan,nan,nan,nan,nan,nan,nan,nan,nan,1282.3911510040052,1665.6566436889116,nan,1665.9801072354894,nan,nan,nan,nan
1,212,1,1,1.0,1.0,0.3303944827057421,0,0.0,0.0,0.0,0.37357962484166946,0.09394546498570319,0.2796341598559663,0.4675250898273726,0.09394546498570319,0.32337383677562076,3,2,4,5,1,0,nan,nan,nan,nan,nan,nan,nan,nan,nan,nan,nan,nan,0.0,nan,nan,nan,nan,nan,nan,nan,nan,nan,nan,nan,nan,nan,nan,nan,nan,nan,nan,1282.3911510040052,1666.7056685653515,nan,1667.0360630480573,nan,nan,nan,nan
1,213,1,1,1.0,1.0,0.29651896585710347,0,0.0,0.0,0.0,0.37337592134102826,0.09377033093052428,0.279605590410504,0.46714625227155254,0.09377033093052428,0.3167923317135622,0,5,8,6,3,1,nan,nan,nan,nan,nan,nan,nan,nan,nan,nan,nan,nan,0.0,nan,nan,nan,nan,nan,nan,nan,nan,nan,nan,nan,nan,nan,nan,nan,nan,nan,nan,1282.3911510040052,1667.723526609363,nan,1668.0200455752201,nan,nan,nan,nan
1,214,1,1,1.0,1.0,0.33565904037095606,0,0.0,0.0,0.0,0.3730150905641084,0.09369736397475434,0.27931772658935405,0.4667124545388628,0.09369736397475434,0.3208574963112672,1,8,2,5,0,7,nan,nan,nan,nan,nan,nan,nan,nan,nan,nan,nan,nan,0.0,nan,nan,nan,nan,nan,nan,nan,nan,nan,nan,nan,nan,nan,nan,nan,nan,nan,nan,1282.3911510040052,1668.7403517554048,nan,1669.0760107957758,nan,nan,nan,nan
1,215,1,1,1.0,1.0,0.29490333423018456,0,0.0,0.0,0.0,0.37284052958189745,0.0935128984292893,0.27932763115260817,0.46635342801118673,0.0935128984292893,0.30902711348608136,8,6,3,1,5,0,nan,nan,nan,nan,nan,nan,nan,nan,nan,nan,nan,nan,0.0,nan,nan,nan,nan,nan,nan,nan,nan,nan,nan,nan,nan,nan,nan,nan,nan,nan,nan,1282.3911510040052,1669.757095364388,nan,1670.0519986986183,nan,nan,nan,nan
1,216,1,1,1.0,1.0,0.2620538731571287,0,0.0,0.0,0.0,0.3724780309988662,0.0934457598984013,0.2790322711004649,0.46592379089726754,0.0934457598984013,0.2975387492527564,5,3,1,6,0,7,nan,nan,nan,nan,nan,nan,nan,nan,nan,nan,nan,nan,0.0,nan,nan,nan,nan,nan,nan,nan,nan,nan,nan,nan,nan,nan,nan,nan,nan,nan,nan,1282.3911510040052,1670.7739011240192,nan,1671.0359549971763,nan,nan,nan,nan
1,217,1,1,1.0,1.0,0.25319455680437386,1,1.0,0.0,1.0,0.3719668080458952,0.09353006801424342,0.2784367400316518,0.4654968760601386,0.09353006801424342,0.2700505880638957,0,5,7,2,4,6,1.0,1.0,1.0,1.0,1.0,1.0,0.0,1.0,1.0,1.0,0.0,0.0,3.0,3.0,5.0,7.0,2.0,1.0,4.0,6.0,2.0,1.0,3.0,4.0,5.0,8.209173946641386,2.898243731353432,1.7716169455088675,4.234252012800425,5.729484802577645,7.208819859195501,1282.3911510040052,1671.790723989252,1672.5990939121693,1672.0439185460564,1681.8668006421067,1682.869023525156,1673.6158822809812,1681.8584661849309
1,218,1,1,1.0,1.0,0.4156292309053242,0,0.0,0.0,0.0,0.37141947048257024,0.09366039599133816,0.27775907449123205,0.4650798664739084,0.09366039599133816,0.3102925536222756,6,4,5,0,1,7,nan,nan,nan,nan,nan,nan,nan,nan,nan,nan,nan,nan,0.0,nan,nan,nan,nan,nan,nan,nan,nan,nan,nan,nan,nan,nan,nan,nan,nan,nan,nan,1282.3911510040052,1683.0919903512113,nan,1683.5076195821166,nan,nan,nan,nan
1,219,1,1,1.0,1.0,0.4227933743968606,0,0.0,0.0,0.0,0.3716222675487297,0.09349307188606622,0.2781291956626635,0.4651153394347959,0.09349307188606622,0.3638723873688529,1,8,6,4,7,0,nan,nan,nan,nan,nan,nan,nan,nan,nan,nan,nan,nan,0.0,nan,nan,nan,nan,nan,nan,nan,nan,nan,nan,nan,nan,nan,nan,nan,nan,nan,nan,1282.3911510040052,1684.1087815710343,nan,1684.5315749454312,nan,nan,nan,nan
1,220,1,1,1.0,1.0,0.2939687939360738,0,0.0,0.0,0.0,0.3718559255708672,0.09334314865074181,0.27851277692012544,0.465199074221609,0.09334314865074181,0.3774637997460862,5,2,1,8,6,4,nan,nan,nan,nan,nan,nan,nan,nan,nan,nan,nan,nan,0.0,nan,nan,nan,nan,nan,nan,nan,nan,nan,nan,nan,nan,nan,nan,nan,nan,nan,nan,1282.3911510040052,1685.1255747864489,nan,1685.419543580385,nan,nan,nan,nan
1,221,1,1,1.0,1.0,0.25286555755883455,0,0.0,0.0,0.0,0.37150189315434545,0.09327801639362394,0.2782238767607215,0.4647799095479694,0.09327801639362394,0.323209241963923,3,5,4,0,8,7,nan,nan,nan,nan,nan,nan,nan,nan,nan,nan,nan,nan,0.0,nan,nan,nan,nan,nan,nan,nan,nan,nan,nan,nan,nan,nan,nan,nan,nan,nan,nan,1282.3911510040052,1686.1506531375926,nan,1686.4035186951514,nan,nan,nan,nan
1,222,1,1,1.0,1.0,0.26000290224328637,1,1.0,0.0,1.0,0.3709650771561757,0.09340672337058091,0.2775583537855948,0.46437180052675664,0.09340672337058091,0.2689457512460649,4,2,1,6,0,3,1.0,1.0,1.0,1.0,1.0,1.0,1.0,1.0,1.0,0.0,0.0,1.0,4.0,4.0,2.0,1.0,8.0,5.0,3.0,6.0,2.0,1.0,3.0,4.0,5.0,7.647682593669742,2.7198198086116463,1.5779926313553005,4.463833604939282,5.544401353923604,6.5118743346538395,1282.3911510040052,1687.1674905426335,1687.9758781413548,1687.4274934448767,1696.6769070765004,1697.6730084070005,1688.9926850413904,1696.6685786063317
1,223,1,1,1.0,1.0,0.4534071234520525,0,0.0,0.0,0.0,0.370465247539451,0.09349185713043973,0.27697339040901126,0.4639571046698907,0.09349185713043973,0.3220918610847245,3,8,2,7,5,0,nan,nan,nan,nan,nan,nan,nan,nan,nan,nan,nan,nan,0.0,nan,nan,nan,nan,nan,nan,nan,nan,nan,nan,nan,nan,nan,nan,nan,nan,nan,nan,1282.3911510040052,1697.8937663198449,nan,1698.347173443297,nan,nan,nan,nan
1,224,1,1,1.0,1.0,0.29257496632635593,0,0.0,0.0,0.0,0.3708371842027362,0.09344646622864161,0.2773907179740946,0.4642836504313778,0.09344646622864161,0.3353283306738983,1,4,5,0,3,7,nan,nan,nan,nan,nan,nan,nan,nan,nan,nan,nan,nan,0.0,nan,nan,nan,nan,nan,nan,nan,nan,nan,nan,nan,nan,nan,nan,nan,nan,nan,nan,1282.3911510040052,1698.9105649520643,nan,1699.2031399183907,nan,nan,nan,nan
1,225,1,1,1.0,1.0,0.30774827394634485,0,0.0,0.0,0.0,0.3704877993015024,0.09338351243465977,0.27710428686684263,0.46387131173616214,0.09338351243465977,0.35124345457491774,4,8,2,7,1,5,nan,nan,nan,nan,nan,nan,nan,nan,nan,nan,nan,nan,0.0,nan,nan,nan,nan,nan,nan,nan,nan,nan,nan,nan,nan,nan,nan,nan,nan,nan,nan,1282.3911510040052,1699.9273698562756,nan,1700.235118130222,nan,nan,nan,nan
1,226,1,1,1.0,1.0,0.28260463615879416,0,0.0,0.0,0.0,0.37020895696659056,0.09326917704517923,0.27693977992141133,0.4634781340117698,0.09326917704517923,0.29430929214383167,5,4,0,8,6,3,nan,nan,nan,nan,nan,nan,nan,nan,nan,nan,nan,nan,0.0,nan,nan,nan,nan,nan,nan,nan,nan,nan,nan,nan,nan,nan,nan,nan,nan,nan,nan,1282.3911510040052,1700.9524767168332,nan,1701.235081352992,nan,nan,nan,nan
1,227,1,1,1.0,1.0,0.21747647318989038,1,1.0,0.0,1.0,0.36982132722850297,0.0932440636319733,0.2765772635965297,0.46306539086047627,0.0932440636319733,0.26927646109834313,4,1,8,0,3,2,1.0,1.0,1.0,1.0,1.0,1.0,0.0,0.0,1.0,0.0,0.0,0.0,1.0,3.0,6.0,8.0,7.0,0.0,1.0,4.0,3.0,1.0,2.0,6.0,5.0,4.5025856657885015,3.6389929088763893,1.3675528643652797,2.494841924868524,6.317048631608486,5.590070666279644,1282.3911510040052,1701.9775944112334,1702.785995694343,1702.1950708844233,1710.1618245714344,1711.1666332629975,1703.8027951819822,1710.153488974087
1,228,0,0,0.0,1.0,0.5197600529063493,0,0.0,0.0,0.0,0.36915020452348707,0.09358389563277279,0.27556630889071426,0.4627341001562599,0.09358389563277279,0.3399470540850113,0,2,4,6,1,8,nan,nan,nan,nan,nan,nan,nan,nan,nan,nan,nan,nan,0.0,nan,nan,nan,nan,nan,nan,nan,nan,nan,nan,nan,nan,nan,nan,nan,nan,nan,nan,1282.3911510040052,1711.387005157536,nan,1711.9067652104422,nan,nan,nan,nan
1,229,1,1,1.0,1.0,0.6229321015998721,0,0.0,0.0,0.0,0.3698107740339382,0.09390732347256339,0.2759034505613748,0.4637180975065016,0.09390732347256339,0.4533895425653706,7,1,6,8,0,2,nan,nan,nan,nan,nan,nan,nan,nan,nan,nan,nan,nan,0.0,nan,nan,nan,nan,nan,nan,nan,nan,nan,nan,nan,nan,nan,nan,nan,nan,nan,nan,1282.3911510040052,1712.4037955219392,nan,1713.026727623539,nan,nan,nan,nan
1,230,1,1,1.0,1.0,0.3900747715961188,1,0.0,1.0,1.0,0.37091610734208635,0.09517687727521781,0.2757392300668685,0.4660929846173042,0.09517687727521781,0.51092230870078,3,4,8,5,2,1,1.0,1.0,1.0,1.0,1.0,1.0,0.0,0.0,1.0,1.0,0.0,0.0,2.0,4.0,2.0,8.0,5.0,0.0,3.0,4.0,3.0,1.0,2.0,6.0,5.0,4.9471083846874535,3.7622390422038734,1.475096839480102,2.7631724420934916,7.009552096249536,6.066395408473909,1282.3911510040052,1713.4206280806102,1714.2289740554988,1713.8107028522063,1722.304912437452,1723.303092108108,1715.2541387903038,1722.296578265261
1,231,1,1,0.0,0.0,0.7366341212764382,0,0.0,0.0,0.0,0.3709994058823213,0.09497811082302762,0.2760212950592936,0.4659775167053489,0.09497811082302762,0.583213664824143,0,3,4,7,5,6,nan,nan,nan,nan,nan,nan,nan,nan,nan,nan,nan,nan,0.0,nan,nan,nan,nan,nan,nan,nan,nan,nan,nan,nan,nan,nan,nan,nan,nan,nan,nan,1282.3911510040052,1723.5217833695933,nan,1724.2584174908698,nan,nan,nan,nan
1,232,1,1,nan,nan,nan,0,0.0,0.0,0.0,0.0,0.0,0.0,0.0,0.0,0.0,5,8,2,3,7,4,nan,nan,nan,nan,nan,nan,nan,nan,nan,nan,nan,nan,0.0,nan,nan,nan,nan,nan,nan,nan,nan,nan,nan,nan,nan,nan,nan,nan,nan,nan,nan,1282.3911510040052,1724.5385686024092,nan,nan,nan,nan,nan,nan
1,233,1,1,1.0,1.0,0.5270530593115836,1,0.0,1.0,1.0,0.3725822401480967,0.09776514749859869,0.27481709264949805,0.47034738764669537,0.09776514749859869,0.6318435902940109,2,6,5,7,3,8,1.0,1.0,1.0,1.0,1.0,1.0,0.0,0.0,0.0,1.0,0.0,0.0,1.0,5.0,4.0,6.0,7.0,1.0,2.0,4.0,3.0,2.0,1.0,6.0,5.0,5.786436735885218,4.708325362531468,2.9083939562551677,1.9325332057196647,8.266377333551645,7.082568543264642,1282.3911510040052,1725.55530650937,1726.36373886792,1726.0823595686816,1735.6981372199953,1736.7031220998615,1727.3888374608941,1735.6898170176428
1,234,1,1,1.0,1.0,0.5026774662546813,0,0.0,0.0,0.0,0.37324806264449106,0.09807768610988547,0.2751703765346056,0.47132574875437655,0.09807768610988547,0.5148652627831325,0,4,8,2,7,1,nan,nan,nan,nan,nan,nan,nan,nan,nan,nan,nan,nan,0.0,nan,nan,nan,nan,nan,nan,nan,nan,nan,nan,nan,nan,nan,nan,nan,nan,nan,nan,1282.3911510040052,1736.9233600001317,nan,1737.4260374663863,nan,nan,nan,nan
1,235,1,1,1.0,1.0,0.3578861600253731,0,0.0,0.0,0.0,0.3738035536471099,0.09823205460481822,0.27557149904229167,0.4720356082519281,0.09823205460481822,0.4625388951972127,3,8,4,5,6,2,nan,nan,nan,nan,nan,nan,nan,nan,nan,nan,nan,nan,0.0,nan,nan,nan,nan,nan,nan,nan,nan,nan,nan,nan,nan,nan,nan,nan,nan,nan,nan,1282.3911510040052,1737.9401321185287,nan,1738.298018278554,nan,nan,nan,nan
1,236,1,1,1.0,1.0,0.30908508296124637,0,0.0,0.0,0.0,0.37373553059744435,0.09802743156236304,0.2757080990350813,0.4717629621598074,0.09802743156236304,0.3898829030804336,4,6,1,7,0,5,nan,nan,nan,nan,nan,nan,nan,nan,nan,nan,nan,nan,0.0,nan,nan,nan,nan,nan,nan,nan,nan,nan,nan,nan,nan,nan,nan,nan,nan,nan,nan,1282.3911510040052,1738.95690024551,nan,1739.2659853284713,nan,nan,nan,nan
1,237,1,1,1.0,1.0,0.27627011807635427,0,0.0,0.0,0.0,0.3734604223096307,0.0979091239910793,0.2755512983185514,0.47136954630071004,0.0979091239910793,0.31441378702099126,2,3,8,5,6,0,nan,nan,nan,nan,nan,nan,nan,nan,nan,nan,nan,nan,0.0,nan,nan,nan,nan,nan,nan,nan,nan,nan,nan,nan,nan,nan,nan,nan,nan,nan,nan,1282.3911510040052,1739.9736866187304,nan,1740.2499567368068,nan,nan,nan,nan
1,238,1,1,1.0,1.0,0.2590948757715523,0,0.0,0.0,0.0,0.37304859898660836,0.0979052231464386,0.2751433758401698,0.47095382213304693,0.0979052231464386,0.2814833589363843,8,2,1,4,7,6,nan,nan,nan,nan,nan,nan,nan,nan,nan,nan,nan,nan,0.0,nan,nan,nan,nan,nan,nan,nan,nan,nan,nan,nan,nan,nan,nan,nan,nan,nan,nan,1282.3911510040052,1740.9988331075292,nan,1741.2579279833008,nan,nan,nan,nan
1,239,1,1,1.0,1.0,0.23430304462090135,1,1.0,0.0,1.0,0.3725677815890765,0.09797728105446057,0.2745905005346159,0.47054506264353707,0.09797728105446057,0.256556012822936,2,7,3,6,5,0,1.0,1.0,1.0,1.0,1.0,1.0,0.0,0.0,0.0,1.0,1.0,0.0,2.0,3.0,6.0,8.0,6.0,5.0,1.0,4.0,3.0,2.0,1.0,6.0,5.0,6.135208134772256,4.207673778757453,3.1747162668034434,2.040060075232759,8.893823053687811,7.7980822823010385,1282.3911510040052,1742.01559781353,1742.824033878278,1742.2499008581508,1752.7751335881185,1753.784639784135,1743.8407934524585,1752.7668253597803
1,240,0,0,0.0,1.0,0.6248547800350934,0,0.0,0.0,0.0,0.37198683731610094,0.09817942747870996,0.273807409837391,0.4701662647948109,0.09817942747870996,0.3727509001425157,0,8,2,7,1,6,nan,nan,nan,nan,nan,nan,nan,nan,nan,nan,nan,nan,0.0,nan,nan,nan,nan,nan,nan,nan,nan,nan,nan,nan,nan,nan,nan,nan,nan,nan,nan,1282.3911510040052,1754.0086979526095,nan,1754.6335527326446,nan,nan,nan,nan
1,241,1,1,1.0,1.0,0.4640477111097425,0,0.0,0.0,0.0,0.373044862181034,0.09932416500380938,0.27372069717722464,0.47236902718484336,0.09932416500380938,0.44106851192191243,2,3,1,6,0,8,nan,nan,nan,nan,nan,nan,nan,nan,nan,nan,nan,nan,0.0,nan,nan,nan,nan,nan,nan,nan,nan,nan,nan,nan,nan,nan,nan,nan,nan,nan,nan,1282.3911510040052,1755.0254829004407,nan,1755.4895306115504,nan,nan,nan,nan
1,242,1,1,1.0,1.0,0.3909311960451305,1,0.0,1.0,1.0,0.3734240407182369,0.09929021568364729,0.2741338250345896,0.47271425640188425,0.09929021568364729,0.4932778957299888,7,5,4,2,6,0,1.0,1.0,1.0,1.0,1.0,1.0,0.0,0.0,1.0,1.0,1.0,0.0,3.0,0.0,1.0,4.0,2.0,6.0,3.0,5.0,6.0,1.0,2.0,3.0,4.0,9.26682350691408,10.546859155176207,1.7892138429451734,4.779787188395858,6.0119018466211855,7.508401311933994,1282.3911510040052,1756.0505703745876,1756.8589799255133,1756.4415015706327,1768.4519705313724,1769.4622077101376,1757.8674295607489,1768.4436346488073
1,243,1,1,1.0,1.0,0.5395906667690724,0,0.0,0.0,0.0,0.3734966845162738,0.09909039613354585,0.27440628838272796,0.4725870806498197,0.09909039613354585,0.46485652464131516,2,3,5,1,8,4,nan,nan,nan,nan,nan,nan,nan,nan,nan,nan,nan,nan,0.0,nan,nan,nan,nan,nan,nan,nan,nan,nan,nan,nan,nan,nan,nan,nan,nan,nan,nan,1282.3911510040052,1769.6854901360348,nan,1770.2250808028039,nan,nan,nan,nan
1,244,1,1,1.0,1.0,0.3387560236733407,0,0.0,0.0,0.0,0.3741830232859135,0.09945782166416572,0.2747252016217478,0.47364084495007924,0.09945782166416572,0.4230926288291812,8,0,3,4,6,2,nan,nan,nan,nan,nan,nan,nan,nan,nan,nan,nan,nan,0.0,nan,nan,nan,nan,nan,nan,nan,nan,nan,nan,nan,nan,nan,nan,nan,nan,nan,nan,1282.3911510040052,1770.702285062056,nan,1771.0410410857294,nan,nan,nan,nan
1,245,1,1,1.0,1.0,0.30594932683743536,0,0.0,0.0,0.0,0.3740372331640511,0.09927887341348128,0.2747583597505698,0.47331610657753237,0.09927887341348128,0.3947653390932828,6,8,0,7,5,3,nan,nan,nan,nan,nan,nan,nan,nan,nan,nan,nan,nan,0.0,nan,nan,nan,nan,nan,nan,nan,nan,nan,nan,nan,nan,nan,nan,nan,nan,nan,nan,1282.3911510040052,1771.719065733254,nan,1772.0250150600914,nan,nan,nan,nan
1,246,1,1,1.0,1.0,0.28114666207693517,0,0.0,0.0,0.0,0.37375818436763053,0.09917067124858558,0.27458751311904495,0.4729288556162161,0.09917067124858558,0.3086173375292371,8,3,2,5,7,4,nan,nan,nan,nan,nan,nan,nan,nan,nan,nan,nan,nan,0.0,nan,nan,nan,nan,nan,nan,nan,nan,nan,nan,nan,nan,nan,nan,nan,nan,nan,nan,1282.3911510040052,1772.7358512512874,nan,1773.0169979133643,nan,nan,nan,nan
1,247,1,1,1.0,1.0,0.24031654628925025,0,0.0,0.0,0.0,0.3733801781541991,0.09914406057500429,0.2742361175791948,0.4725242387292034,0.09914406057500429,0.2758041784012069,4,7,1,8,0,3,nan,nan,nan,nan,nan,nan,nan,nan,nan,nan,nan,nan,0.0,nan,nan,nan,nan,nan,nan,nan,nan,nan,nan,nan,nan,nan,nan,nan,nan,nan,nan,1282.3911510040052,1773.752639905084,nan,1773.9929564513732,nan,nan,nan,nan
1,248,1,1,1.0,1.0,0.2395026010926813,1,1.0,0.0,1.0,0.37283926908157733,0.09930392737155092,0.2735353417100264,0.47214319645312824,0.09930392737155092,0.2536552698196222,0,5,3,2,8,6,1.0,1.0,1.0,1.0,1.0,1.0,1.0,0.0,1.0,1.0,0.0,0.0,3.0,0.0,1.0,3.0,2.0,5.0,4.0,4.0,5.0,6.0,1.0,2.0,3.0,6.428840802283958,7.835492972750217,8.715898901922628,2.555840491782874,3.603612377308309,4.93344864458777,1282.3911510040052,1774.7694282738958,1775.5778346888255,1775.0089308749884,1785.3372783779632,1786.3409341466613,1776.5862914517056,1785.3289519036189
1,249,1,1,1.0,1.0,0.702104882337153,0,0.0,0.0,0.0,0.37229944451482067,0.09946372615117303,0.2728357183636476,0.4717631706659937,0.09946372615117303,0.39397467657302815,7,8,4,1,0,3,nan,nan,nan,nan,nan,nan,nan,nan,nan,nan,nan,nan,0.0,nan,nan,nan,nan,nan,nan,nan,nan,nan,nan,nan,nan,nan,nan,nan,nan,nan,nan,1282.3911510040052,1786.5624977368861,nan,1787.2646026192233,nan,nan,nan,nan
1,250,0,0,0.0,1.0,0.49328502314165235,0,0.0,0.0,0.0,0.3736293051512011,0.10143948096583005,0.272189824185371,0.4750687861170311,0.10143948096583005,0.47829750219049555,2,3,6,0,5,4,nan,nan,nan,nan,nan,nan,nan,nan,nan,nan,nan,nan,0.0,nan,nan,nan,nan,nan,nan,nan,nan,nan,nan,nan,nan,nan,nan,nan,nan,nan,nan,1282.3911510040052,1787.5792977947276,nan,1788.0725828178693,nan,nan,nan,nan
1,251,1,1,1.0,1.0,0.3645308611448854,1,0.0,1.0,1.0,0.37410985020337156,0.10151803861592296,0.2725918115874486,0.4756278888192945,0.10151803861592296,0.5199735888745636,1,0,7,8,3,2,1.0,1.0,1.0,1.0,1.0,1.0,0.0,0.0,1.0,1.0,0.0,0.0,2.0,0.0,2.0,7.0,8.0,5.0,1.0,5.0,6.0,1.0,2.0,3.0,4.0,7.1446211049333215,8.056321018841118,2.000950505491346,3.2580705306027085,4.360886781010777,5.576607071328908,1282.3911510040052,1788.5960285742767,1789.404426151421,1788.9605594354216,1798.513812408084,1799.5225759327877,1790.4212390384637,1798.50549106556
1,252,1,1,1.0,1.0,0.41321020293980837,0,0.0,0.0,0.0,0.3740715342471376,0.10131660315949877,0.2727549310876389,0.4753881374066364,0.10131660315949877,0.42367536240878206,4,2,8,0,1,5,nan,nan,nan,nan,nan,nan,nan,nan,nan,nan,nan,nan,0.0,nan,nan,nan,nan,nan,nan,nan,nan,nan,nan,nan,nan,nan,nan,nan,nan,nan,nan,1282.3911510040052,1799.7390351882204,nan,1800.1522453911602,nan,nan,nan,nan
1,253,1,1,1.0,1.0,0.44443433941341937,0,0.0,0.0,0.0,0.3742274651981044,0.10114462942421969,0.2730828357738847,0.4753720946223241,0.10114462942421969,0.40739180116603774,7,3,0,5,4,6,nan,nan,nan,nan,nan,nan,nan,nan,nan,nan,nan,nan,0.0,nan,nan,nan,nan,nan,nan,nan,nan,nan,nan,nan,nan,nan,nan,nan,nan,nan,nan,1282.3911510040052,1800.7557719550095,nan,1801.200206294423,nan,nan,nan,nan
1,254,1,1,1.0,1.0,0.31559806992299855,0,0.0,0.0,0.0,0.37450606390530805,0.10104019899856487,0.2734658649067432,0.4755462629038729,0.10104019899856487,0.3910808707587421,3,0,5,6,1,2,nan,nan,nan,nan,nan,nan,nan,nan,nan,nan,nan,nan,0.0,nan,nan,nan,nan,nan,nan,nan,nan,nan,nan,nan,nan,nan,nan,nan,nan,nan,nan,1282.3911510040052,1801.7725685916375,nan,1802.0881666615605,nan,nan,nan,nan
1,255,1,1,1.0,1.0,0.3464530089404434,0,0.0,0.0,0.0,0.37427322598442936,0.10090803414436872,0.27336519184006064,0.4751812601287981,0.10090803414436872,0.36882847275895375,8,6,4,7,3,0,nan,nan,nan,nan,nan,nan,nan,nan,nan,nan,nan,nan,0.0,nan,nan,nan,nan,nan,nan,nan,nan,nan,nan,nan,nan,nan,nan,nan,nan,nan,nan,1282.3911510040052,1802.797697689617,nan,1803.1441506985575,nan,nan,nan,nan
1,256,1,1,1.0,1.0,0.2816102260258049,0,0.0,0.0,0.0,0.37416369757087037,0.10072426793094408,0.2734394296399263,0.47488796550181445,0.10072426793094408,0.3145537682964156,5,3,8,2,0,7,nan,nan,nan,nan,nan,nan,nan,nan,nan,nan,nan,nan,0.0,nan,nan,nan,nan,nan,nan,nan,nan,nan,nan,nan,nan,nan,nan,nan,nan,nan,nan,1282.3911510040052,1803.814525116235,nan,1804.0961353422608,nan,nan,nan,nan
1,257,1,1,1.0,1.0,0.29678666964173317,0,0.0,0.0,0.0,0.3738007427804976,0.10069286639698029,0.2731078763835173,0.47449360917747785,0.10069286639698029,0.3082833015359938,6,4,0,8,3,2,nan,nan,nan,nan,nan,nan,nan,nan,nan,nan,nan,nan,0.0,nan,nan,nan,nan,nan,nan,nan,nan,nan,nan,nan,nan,nan,nan,nan,nan,nan,nan,1282.3911510040052,1804.8313160510734,nan,1805.128102720715,nan,nan,nan,nan
1,258,1,1,1.0,1.0,0.27196376328356564,0,0.0,0.0,0.0,0.37349990655729925,0.10061076377098568,0.2728891427863136,0.4741106703282849,0.10061076377098568,0.28345355298370123,8,1,7,6,5,0,nan,nan,nan,nan,nan,nan,nan,nan,nan,nan,nan,nan,0.0,nan,nan,nan,nan,nan,nan,nan,nan,nan,nan,nan,nan,nan,nan,nan,nan,nan,nan,1282.3911510040052,1805.8480844632722,nan,1806.1200482265558,nan,nan,nan,nan
1,259,1,1,1.0,1.0,0.25482216221280396,0,0.0,0.0,0.0,0.37310482428775166,0.10061360527601178,0.2724912190117399,0.4737184295637634,0.10061360527601178,0.2745241983793676,2,7,4,5,0,1,nan,nan,nan,nan,nan,nan,nan,nan,nan,nan,nan,nan,0.0,nan,nan,nan,nan,nan,nan,nan,nan,nan,nan,nan,nan,nan,nan,nan,nan,nan,nan,1282.3911510040052,1806.8732161270455,nan,1807.1280382892583,nan,nan,nan,nan
1,260,1,1,1.0,1.0,0.23765946412459016,1,1.0,0.0,1.0,0.3726463643572286,0.10068703208403942,0.27195933227318914,0.47333339644126804,0.10068703208403942,0.25481512987365323,1,6,5,3,8,2,1.0,1.0,1.0,1.0,1.0,1.0,0.0,1.0,1.0,0.0,0.0,0.0,2.0,3.0,6.0,5.0,8.0,1.0,0.0,4.0,3.0,1.0,2.0,6.0,5.0,6.490069725783542,4.851155502954498,2.1787235571537167,3.651836708188057,9.689239130821079,7.721506428904831,1282.3911510040052,1807.8983432294335,1808.7067539207637,1808.136002693558,1819.4496142240241,1820.4571746492293,1809.7235425745603,1819.4412780564744
1,261,0,0,0.0,1.0,0.47683221055194736,0,0.0,0.0,0.0,0.37212517941424544,0.10084055507725359,0.27128462433699185,0.47296573449149903,0.10084055507725359,0.32310461229644716,6,3,2,8,7,5,nan,nan,nan,nan,nan,nan,nan,nan,nan,nan,nan,nan,0.0,nan,nan,nan,nan,nan,nan,nan,nan,nan,nan,nan,nan,nan,nan,nan,nan,nan,nan,1282.3911510040052,1820.6747873977292,nan,1821.1516196082812,nan,nan,nan,nan
1,262,1,1,1.0,1.0,0.3719980602618307,0,0.0,0.0,0.0,0.37252789876477505,0.10085490605947138,0.27167299270530365,0.47338280482424644,0.10085490605947138,0.36216324497945607,0,7,1,3,5,6,nan,nan,nan,nan,nan,nan,nan,nan,nan,nan,nan,nan,0.0,nan,nan,nan,nan,nan,nan,nan,nan,nan,nan,nan,nan,nan,nan,nan,nan,nan,nan,1282.3911510040052,1821.6915994293522,nan,1822.063597489614,nan,nan,nan,nan
1,263,1,1,1.0,1.0,0.33118248428218067,0,0.0,0.0,0.0,0.37252586873219673,0.1006615173281857,0.271864351404011,0.47318738606038246,0.1006615173281857,0.39333758503198624,6,1,5,2,4,8,nan,nan,nan,nan,nan,nan,nan,nan,nan,nan,nan,nan,0.0,nan,nan,nan,nan,nan,nan,nan,nan,nan,nan,nan,nan,nan,nan,nan,nan,nan,nan,1282.3911510040052,1822.7083863727748,nan,1823.039568857057,nan,nan,nan,nan
1,264,1,1,1.0,1.0,0.250375826144591,0,0.0,0.0,0.0,0.3723680695549066,0.10050156982876007,0.2718664997261465,0.47286963938366666,0.10050156982876007,0.31785212356286746,1,5,4,3,2,0,nan,nan,nan,nan,nan,nan,nan,nan,nan,nan,nan,nan,0.0,nan,nan,nan,nan,nan,nan,nan,nan,nan,nan,nan,nan,nan,nan,nan,nan,nan,nan,1282.3911510040052,1823.725167614175,nan,1823.9755434403196,nan,nan,nan,nan
1,265,1,1,1.0,1.0,0.3055775633547455,0,0.0,0.0,0.0,0.3719042207206468,0.1005909098777759,0.2713133108428709,0.47249513059842274,0.1005909098777759,0.29571195792717236,3,2,8,4,0,7,nan,nan,nan,nan,nan,nan,nan,nan,nan,nan,nan,nan,0.0,nan,nan,nan,nan,nan,nan,nan,nan,nan,nan,nan,nan,nan,nan,nan,nan,nan,nan,1282.3911510040052,1824.7419403027743,nan,1825.047517866129,nan,nan,nan,nan
1,266,0,0,1.0,0.0,0.28074667416512966,0,0.0,0.0,0.0,0.37165298338213965,0.10048285422498476,0.2711701291571549,0.4721358376071244,0.10048285422498476,0.2789000212214887,4,1,0,6,2,8,nan,nan,nan,nan,nan,nan,nan,nan,nan,nan,nan,nan,0.0,nan,nan,nan,nan,nan,nan,nan,nan,nan,nan,nan,nan,nan,nan,nan,nan,nan,nan,1282.3911510040052,1825.7587446370162,nan,1826.0394913111813,nan,nan,nan,nan
1,267,1,1,1.0,1.0,0.5999477705918252,0,0.0,0.0,0.0,0.37130994070584905,0.10044784672347704,0.27086209398237204,0.47175778742932606,0.10044784672347704,0.39542400270390016,2,5,8,3,0,7,nan,nan,nan,nan,nan,nan,nan,nan,nan,nan,nan,nan,0.0,nan,nan,nan,nan,nan,nan,nan,nan,nan,nan,nan,nan,nan,nan,nan,nan,nan,nan,1282.3911510040052,1826.7755096280016,nan,1827.3754573985934,nan,nan,nan,nan
1,268,1,1,1.0,1.0,0.4711069397162646,0,0.0,0.0,0.0,0.37216948141970607,0.10123054459414417,0.2709389368255619,0.47340002601385023,0.10123054459414417,0.4506004614910732,0,6,1,5,3,2,nan,nan,nan,nan,nan,nan,nan,nan,nan,nan,nan,nan,0.0,nan,nan,nan,nan,nan,nan,nan,nan,nan,nan,nan,nan,nan,nan,nan,nan,nan,nan,1282.3911510040052,1827.7923176684417,nan,1828.263424608158,nan,nan,nan,nan
