block,trial,freq_trials,correct_response,actual_response,acc,rts,probe_trials,trials_colorind0,trials_colorind1,trials_colorind2,trials_colorind3,trials_colorind4,trials_colorind5,wholereport_resp0,wholereport_resp1,wholereport_resp2,wholereport_resp3,wholereport_resp4,wholereport_resp5,wholereport_respacc0,wholereport_respacc1,wholereport_respacc2,wholereport_respacc3,wholereport_respacc4,wholereport_respacc5,wholereport_respacc_total,wholereport_respcolorind0,wholereport_respcolorind1,wholereport_respcolorind2,wholereport_respcolorind3,wholereport_respcolorind4,wholereport_respcolorind5,wholereport_resporder0,wholereport_resporder1,wholereport_resporder2,wholereport_resporder3,wholereport_resporder4,wholereport_resporder5,wholereport_rts0,wholereport_rts1,wholereport_rts2,wholereport_rts3,wholereport_rts4,wholereport_rts5,time_blockstart,time_encarray_offset,time_encarray_onset,time_response,time_iti_offset,time_iti_onset,time_memprobe_offset,time_memprobe_onset
1,1,1,1,1.0,1.0,0.32905185245908797,0.0,5,0,6,8,4,1,nan,nan,nan,nan,nan,nan,nan,nan,nan,nan,nan,nan,0.0,nan,nan,nan,nan,nan,nan,nan,nan,nan,nan,nan,nan,nan,nan,nan,nan,nan,nan,601.5298685393063,602.5527951266849,nan,602.881846979144,nan,nan,nan,nan
1,2,1,1,1.0,1.0,0.39240138593595475,0.0,2,1,3,8,4,5,nan,nan,nan,nan,nan,nan,nan,nan,nan,nan,nan,nan,0.0,nan,nan,nan,nan,nan,nan,nan,nan,nan,nan,nan,nan,nan,nan,nan,nan,nan,nan,601.5298685393063,603.561447513639,nan,603.953848899575,nan,nan,nan,nan
1,3,1,1,1.0,1.0,0.3600660510128364,0.0,4,7,1,3,5,0,nan,nan,nan,nan,nan,nan,nan,nan,nan,nan,nan,nan,0.0,nan,nan,nan,nan,nan,nan,nan,nan,nan,nan,nan,nan,nan,nan,nan,nan,nan,nan,601.5298685393063,604.5697261394234,nan,604.9297921904363,nan,nan,nan,nan
1,4,1,1,1.0,1.0,0.4959101512795314,0.0,8,0,4,2,7,5,nan,nan,nan,nan,nan,nan,nan,nan,nan,nan,nan,nan,0.0,nan,nan,nan,nan,nan,nan,nan,nan,nan,nan,nan,nan,nan,nan,nan,nan,nan,nan,601.5298685393063,605.5698555731215,nan,606.065765724401,nan,nan,nan,nan
1,5,1,1,1.0,1.0,0.4794515431858599,0.0,0,1,8,6,3,7,nan,nan,nan,nan,nan,nan,nan,nan,nan,nan,nan,nan,0.0,nan,nan,nan,nan,nan,nan,nan,nan,nan,nan,nan,nan,nan,nan,nan,nan,nan,nan,601.5298685393063,606.5782890061382,nan,607.0577405493241,nan,nan,nan,nan
1,6,1,1,1.0,1.0,0.5029959342209622,0.0,4,8,2,3,0,1,nan,nan,nan,nan,nan,nan,nan,nan,nan,nan,nan,nan,0.0,nan,nan,nan,nan,nan,nan,nan,nan,nan,nan,nan,nan,nan,nan,nan,nan,nan,nan,601.5298685393063,607.5867327025626,nan,608.0897286367835,nan,nan,nan,nan
1,7,0,0,0.0,1.0,0.6944805645616725,0.0,0,7,3,1,6,8,nan,nan,nan,nan,nan,nan,nan,nan,nan,nan,nan,nan,0.0,nan,nan,nan,nan,nan,nan,nan,nan,nan,nan,nan,nan,nan,nan,nan,nan,nan,nan,601.5298685393063,608.5952174529666,nan,609.2896980175283,nan,nan,nan,nan
1,8,1,1,1.0,1.0,0.7339957640506327,0.0,6,3,2,7,8,0,nan,nan,nan,nan,nan,nan,nan,nan,nan,nan,nan,nan,0.0,nan,nan,nan,nan,nan,nan,nan,nan,nan,nan,nan,nan,nan,nan,nan,nan,nan,nan,601.5298685393063,609.6036736936076,nan,610.3376694576582,nan,nan,nan,nan
1,9,1,1,1.0,1.0,0.6375206089578569,0.0,7,4,6,1,3,8,nan,nan,nan,nan,nan,nan,nan,nan,nan,nan,nan,nan,0.0,nan,nan,nan,nan,nan,nan,nan,nan,nan,nan,nan,nan,nan,nan,nan,nan,nan,nan,601.5298685393063,610.6121285088593,nan,611.2496491178172,nan,nan,nan,nan
1,10,1,1,1.0,1.0,0.541054576751776,0.0,2,7,1,3,5,0,nan,nan,nan,nan,nan,nan,nan,nan,nan,nan,nan,nan,0.0,nan,nan,nan,nan,nan,nan,nan,nan,nan,nan,nan,nan,nan,nan,nan,nan,nan,nan,601.5298685393063,611.6205784775084,nan,612.1616330542602,nan,nan,nan,nan
1,11,1,1,1.0,1.0,0.4528911185916513,0.0,3,2,0,6,7,1,nan,nan,nan,nan,nan,nan,nan,nan,nan,nan,nan,nan,0.0,nan,nan,nan,nan,nan,nan,nan,nan,nan,nan,nan,nan,nan,nan,nan,nan,nan,nan,601.5298685393063,612.6207193150185,nan,613.0736104336102,nan,nan,nan,nan
1,12,1,1,1.0,1.0,0.35642708220984787,0.0,6,8,1,3,2,5,nan,nan,nan,nan,nan,nan,nan,nan,nan,nan,nan,nan,0.0,nan,nan,nan,nan,nan,nan,nan,nan,nan,nan,nan,nan,nan,nan,nan,nan,nan,nan,601.5298685393063,613.629160160548,nan,613.9855872427579,nan,nan,nan,nan
1,13,1,1,1.0,1.0,0.32426736666820943,0.0,3,6,0,4,1,8,nan,nan,nan,nan,nan,nan,nan,nan,nan,nan,nan,nan,0.0,nan,nan,nan,nan,nan,nan,nan,nan,nan,nan,nan,nan,nan,nan,nan,nan,nan,nan,601.5298685393063,614.6292990024667,nan,614.9535663691349,nan,nan,nan,nan
1,14,1,1,1.0,1.0,0.29180003225337714,0.0,5,2,7,6,4,0,nan,nan,nan,nan,nan,nan,nan,nan,nan,nan,nan,nan,0.0,nan,nan,nan,nan,nan,nan,nan,nan,nan,nan,nan,nan,nan,nan,nan,nan,nan,nan,601.5298685393063,615.6377398479963,nan,615.9295398802496,nan,nan,nan,nan
1,15,1,1,1.0,1.0,0.2996376141672954,0.0,8,4,6,3,2,5,nan,nan,nan,nan,nan,nan,nan,nan,nan,nan,nan,nan,0.0,nan,nan,nan,nan,nan,nan,nan,nan,nan,nan,nan,nan,nan,nan,nan,nan,nan,nan,601.5298685393063,616.6378789748996,nan,616.937516589067,nan,nan,nan,nan
1,16,1,1,1.0,1.0,0.4594896718626842,0.0,2,3,1,7,4,0,nan,nan,nan,nan,nan,nan,nan,nan,nan,nan,nan,nan,0.0,nan,nan,nan,nan,nan,nan,nan,nan,nan,nan,nan,nan,nan,nan,nan,nan,nan,nan,601.5298685393063,617.6379995706957,nan,618.0974892425584,nan,nan,nan,nan
1,17,1,1,1.0,1.0,0.6590043239993975,0.0,3,1,7,6,5,2,nan,nan,nan,nan,nan,nan,nan,nan,nan,nan,nan,nan,0.0,nan,nan,nan,nan,nan,nan,nan,nan,nan,nan,nan,nan,nan,nan,nan,nan,nan,nan,601.5298685393063,618.646464649355,nan,619.3054689733544,nan,nan,nan,nan
1,18,1,1,1.0,1.0,0.546528140315786,0.0,8,4,2,1,3,0,nan,nan,nan,nan,nan,nan,nan,nan,nan,nan,nan,nan,0.0,nan,nan,nan,nan,nan,nan,nan,nan,nan,nan,nan,nan,nan,nan,nan,nan,nan,nan,601.5298685393063,619.6549026438734,nan,620.2014307841891,nan,nan,nan,nan
1,19,0,0,0.0,1.0,0.578361420542933,1.0,6,3,5,0,1,2,1.0,1.0,1.0,1.0,1.0,1.0,1.0,1.0,0.0,0.0,0.0,0.0,2.0,6.0,3.0,4.0,2.0,0.0,5.0,2.0,1.0,6.0,5.0,4.0,3.0,3.4303525472059846,2.2874075539875776,9.205614572041668,8.238382112816907,7.293674540356733,4.431125443195924,601.5298685393063,620.6550491834059,621.4634431020822,621.2334106039489,631.7147021584678,632.7106395364972,622.4718896495178,631.7063725005137
1,20,1,1,1.0,1.0,0.7582771289162338,0.0,3,8,6,1,4,5,nan,nan,nan,nan,nan,nan,nan,nan,nan,nan,nan,nan,0.0,nan,nan,nan,nan,nan,nan,nan,nan,nan,nan,nan,nan,nan,nan,nan,nan,nan,nan,601.5298685393063,632.9148699662182,nan,633.6731470951345,nan,nan,nan,nan
1,21,1,1,1.0,1.0,0.5417687429580837,0.0,1,2,7,4,5,0,nan,nan,nan,nan,nan,nan,nan,nan,nan,nan,nan,nan,0.0,nan,nan,nan,nan,nan,nan,nan,nan,nan,nan,nan,nan,nan,nan,nan,nan,nan,nan,601.5298685393063,633.9233484443976,nan,634.4651171873556,nan,nan,nan,nan
1,22,1,1,1.0,1.0,0.3256076043471694,0.0,8,7,1,6,3,2,nan,nan,nan,nan,nan,nan,nan,nan,nan,nan,nan,nan,0.0,nan,nan,nan,nan,nan,nan,nan,nan,nan,nan,nan,nan,nan,nan,nan,nan,nan,nan,601.5298685393063,634.9234767376911,nan,635.2490843420383,nan,nan,nan,nan
1,23,1,1,1.0,1.0,0.35715436283499,0.0,5,6,4,2,0,1,nan,nan,nan,nan,nan,nan,nan,nan,nan,nan,nan,nan,0.0,nan,nan,nan,nan,nan,nan,nan,nan,nan,nan,nan,nan,nan,nan,nan,nan,nan,nan,601.5298685393063,635.9319115962135,nan,636.2890659590485,nan,nan,nan,nan
1,24,1,1,1.0,1.0,0.28498737164773047,0.0,7,4,0,3,2,8,nan,nan,nan,nan,nan,nan,nan,nan,nan,nan,nan,nan,0.0,nan,nan,nan,nan,nan,nan,nan,nan,nan,nan,nan,nan,nan,nan,nan,nan,nan,nan,601.5298685393063,636.932047872222,nan,637.2170352438698,nan,nan,nan,nan
1,25,1,1,1.0,1.0,0.2528402003226802,0.0,2,3,5,4,8,1,nan,nan,nan,nan,nan,nan,nan,nan,nan,nan,nan,nan,0.0,nan,nan,nan,nan,nan,nan,nan,nan,nan,nan,nan,nan,nan,nan,nan,nan,nan,nan,601.5298685393063,637.9321747401264,nan,638.185014940449,nan,nan,nan,nan
1,26,1,1,1.0,1.0,0.2447072588838637,0.0,0,5,7,1,2,8,nan,nan,nan,nan,nan,nan,nan,nan,nan,nan,nan,nan,0.0,nan,nan,nan,nan,nan,nan,nan,nan,nan,nan,nan,nan,nan,nan,nan,nan,nan,nan,601.5298685393063,638.932295335806,nan,639.1770025946898,nan,nan,nan,nan
1,27,1,1,1.0,1.0,0.2205564680043608,0.0,2,8,3,4,0,1,nan,nan,nan,nan,nan,nan,nan,nan,nan,nan,nan,nan,0.0,nan,nan,nan,nan,nan,nan,nan,nan,nan,nan,nan,nan,nan,nan,nan,nan,nan,nan,601.5298685393063,639.9324182122946,nan,640.1529746802989,nan,nan,nan,nan
1,28,1,1,1.0,1.0,0.26839590864256024,0.0,7,1,8,2,5,6,nan,nan,nan,nan,nan,nan,nan,nan,nan,nan,nan,nan,0.0,nan,nan,nan,nan,nan,nan,nan,nan,nan,nan,nan,nan,nan,nan,nan,nan,nan,nan,601.5298685393063,640.932548501296,nan,641.2009444099385,nan,nan,nan,nan
1,29,1,1,1.0,1.0,0.2682545008137822,0.0,3,7,4,8,2,1,nan,nan,nan,nan,nan,nan,nan,nan,nan,nan,nan,nan,0.0,nan,nan,nan,nan,nan,nan,nan,nan,nan,nan,nan,nan,nan,nan,nan,nan,nan,nan,601.5298685393063,641.9326659609796,nan,642.2009204617934,nan,nan,nan,nan
1,30,0,0,1.0,0.0,0.3401061756303534,0.0,8,4,3,0,5,2,nan,nan,nan,nan,nan,nan,nan,nan,nan,nan,nan,nan,0.0,nan,nan,nan,nan,nan,nan,nan,nan,nan,nan,nan,nan,nan,nan,nan,nan,nan,nan,601.5298685393063,642.9327988157747,nan,643.2729049914051,nan,nan,nan,nan
1,31,1,1,1.0,1.0,0.4276330138090998,0.0,5,6,4,7,2,1,nan,nan,nan,nan,nan,nan,nan,nan,nan,nan,nan,nan,0.0,nan,nan,nan,nan,nan,nan,nan,nan,nan,nan,nan,nan,nan,nan,nan,nan,nan,nan,601.5298685393063,643.9412419421133,nan,644.3688749559224,nan,nan,nan,nan
1,32,1,1,1.0,1.0,0.33918474428355694,0.0,8,2,1,4,6,3,nan,nan,nan,nan,nan,nan,nan,nan,nan,nan,nan,nan,0.0,nan,nan,nan,nan,nan,nan,nan,nan,nan,nan,nan,nan,nan,nan,nan,nan,nan,nan,601.5298685393063,644.9496710987296,nan,645.2888558430132,nan,nan,nan,nan
1,33,1,1,1.0,1.0,0.32300353492610157,0.0,5,6,3,1,8,7,nan,nan,nan,nan,nan,nan,nan,nan,nan,nan,nan,nan,0.0,nan,nan,nan,nan,nan,nan,nan,nan,nan,nan,nan,nan,nan,nan,nan,nan,nan,nan,601.5298685393063,645.9498398756841,nan,646.2728434106102,nan,nan,nan,nan
1,34,1,1,1.0,1.0,0.5628490468952805,0.0,0,7,6,2,3,4,nan,nan,nan,nan,nan,nan,nan,nan,nan,nan,nan,nan,0.0,nan,nan,nan,nan,nan,nan,nan,nan,nan,nan,nan,nan,nan,nan,nan,nan,nan,nan,601.5298685393063,646.9499581906712,nan,647.5128072375664,nan,nan,nan,nan
1,35,0,0,0.0,1.0,0.6427008082391694,1.0,1,0,3,4,6,2,1.0,1.0,1.0,1.0,1.0,1.0,0.0,1.0,1.0,0.0,0.0,0.0,2.0,8.0,0.0,3.0,6.0,2.0,1.0,2.0,1.0,6.0,5.0,4.0,3.0,2.7734961385140195,1.5664156014099717,6.725900740362704,5.798374495119788,4.886858686571941,3.8704265924170613,601.5298685393063,647.9500853435602,648.758480402641,648.5927861517994,656.5427605930017,657.5452928181039,649.7752697224496,656.5344286542386
1,36,1,1,1.0,1.0,0.40930160821881145,0.0,7,2,8,6,5,1,nan,nan,nan,nan,nan,nan,nan,nan,nan,nan,nan,nan,0.0,nan,nan,nan,nan,nan,nan,nan,nan,nan,nan,nan,nan,nan,nan,nan,nan,nan,nan,601.5298685393063,657.7512783004204,nan,658.1605799086392,nan,nan,nan,nan
1,37,1,1,1.0,1.0,0.2968063229927793,0.0,0,5,7,3,1,6,nan,nan,nan,nan,nan,nan,nan,nan,nan,nan,nan,nan,0.0,nan,nan,nan,nan,nan,nan,nan,nan,nan,nan,nan,nan,nan,nan,nan,nan,nan,nan,601.5298685393063,658.7597353964811,nan,659.0565417194739,nan,nan,nan,nan
1,38,1,1,1.0,1.0,0.264338988577947,0.0,7,1,2,5,8,0,nan,nan,nan,nan,nan,nan,nan,nan,nan,nan,nan,nan,0.0,nan,nan,nan,nan,nan,nan,nan,nan,nan,nan,nan,nan,nan,nan,nan,nan,nan,nan,601.5298685393063,659.768185935216,nan,660.032524923794,nan,nan,nan,nan
1,39,0,0,1.0,0.0,0.24785443663131446,1.0,2,6,0,7,5,4,1.0,1.0,1.0,1.0,1.0,1.0,0.0,0.0,0.0,0.0,0.0,0.0,0.0,3.0,8.0,5.0,2.0,1.0,7.0,1.0,3.0,4.0,5.0,6.0,2.0,2.7889423697488382,6.883463189937174,7.732455958961509,8.619956967537291,9.506955636432394,5.733206617529504,601.5298685393063,660.776643601479,661.5850589022739,661.0244980381103,672.1363586990628,673.1449412374059,662.5935188493459,672.1280281858053
1,40,1,1,1.0,1.0,0.6310323877260089,0.0,1,5,4,8,2,6,nan,nan,nan,nan,nan,nan,nan,nan,nan,nan,nan,nan,0.0,nan,nan,nan,nan,nan,nan,nan,nan,nan,nan,nan,nan,nan,nan,nan,nan,nan,nan,601.5298685393063,673.3531826866092,nan,673.9842150743352,nan,nan,nan,nan
1,41,1,1,1.0,1.0,0.5265135262161493,0.0,5,0,3,7,4,2,nan,nan,nan,nan,nan,nan,nan,nan,nan,nan,nan,nan,0.0,nan,nan,nan,nan,nan,nan,nan,nan,nan,nan,nan,nan,nan,nan,nan,nan,nan,nan,601.5298685393063,674.3616568883881,nan,674.8881704146042,nan,nan,nan,nan
1,42,0,0,0.0,1.0,0.6703805208671838,1.0,2,7,4,1,5,6,1.0,1.0,1.0,1.0,1.0,1.0,1.0,1.0,0.0,1.0,1.0,1.0,5.0,2.0,7.0,3.0,1.0,5.0,6.0,2.0,1.0,6.0,3.0,4.0,5.0,3.2355790461879224,2.2518894042586908,7.761473628459498,4.578723207698204,5.929522774415091,6.713434905512258,601.5298685393063,675.361772637465,676.1701859426685,676.0321531583322,684.979609914124,685.9834544374608,677.1786547276424,684.971277405275
1,43,1,1,1.0,1.0,0.403476235922426,0.0,5,1,2,6,3,8,nan,nan,nan,nan,nan,nan,nan,nan,nan,nan,nan,nan,0.0,nan,nan,nan,nan,nan,nan,nan,nan,nan,nan,nan,nan,nan,nan,nan,nan,nan,nan,601.5298685393063,686.1964592753211,nan,686.5999355112435,nan,nan,nan,nan
1,44,0,0,0.0,1.0,0.7793032645713538,1.0,3,2,5,7,0,4,1.0,1.0,1.0,1.0,1.0,1.0,1.0,0.0,0.0,0.0,0.0,0.0,1.0,3.0,8.0,4.0,0.0,3.0,7.0,1.0,3.0,4.0,5.0,6.0,2.0,2.6309759387513623,4.974087029113434,6.03923922625836,6.878842064412311,8.582271230989136,3.592185739078559,601.5298685393063,687.1965821518097,688.0049757853849,687.9758854163811,697.6395445073722,698.6503753149882,689.0217839215184,697.6311715147458
1,45,1,1,1.0,1.0,0.35929372534155846,0.0,7,6,4,1,8,3,nan,nan,nan,nan,nan,nan,nan,nan,nan,nan,nan,nan,0.0,nan,nan,nan,nan,nan,nan,nan,nan,nan,nan,nan,nan,nan,nan,nan,nan,nan,nan,601.5298685393063,698.856334568467,nan,699.2156282938085,nan,nan,nan,nan
1,46,1,1,1.0,1.0,0.47111418761778623,0.0,6,7,2,5,1,4,nan,nan,nan,nan,nan,nan,nan,nan,nan,nan,nan,nan,0.0,nan,nan,nan,nan,nan,nan,nan,nan,nan,nan,nan,nan,nan,nan,nan,nan,nan,nan,601.5298685393063,699.856474265689,nan,700.3275884533068,nan,nan,nan,nan
1,47,1,1,1.0,1.0,0.4708752769511193,0.0,5,8,7,2,4,6,nan,nan,nan,nan,nan,nan,nan,nan,nan,nan,nan,nan,0.0,nan,nan,nan,nan,nan,nan,nan,nan,nan,nan,nan,nan,nan,nan,nan,nan,nan,nan,601.5298685393063,700.8566838114057,nan,701.3275590883568,nan,nan,nan,nan
1,48,1,1,1.0,1.0,0.5268037542700768,0.0,1,3,8,7,6,0,nan,nan,nan,nan,nan,nan,nan,nan,nan,nan,nan,nan,0.0,nan,nan,nan,nan,nan,nan,nan,nan,nan,nan,nan,nan,nan,nan,nan,nan,nan,nan,601.5298685393063,701.8567302820738,nan,702.3835340363439,nan,nan,nan,nan
1,49,1,1,1.0,1.0,0.6546577461995184,0.0,3,2,0,5,7,8,nan,nan,nan,nan,nan,nan,nan,nan,nan,nan,nan,nan,0.0,nan,nan,nan,nan,nan,nan,nan,nan,nan,nan,nan,nan,nan,nan,nan,nan,nan,nan,601.5298685393063,702.8568545840681,nan,703.5115123302676,nan,nan,nan,nan
1,50,1,1,1.0,1.0,0.6301913537317887,0.0,6,1,8,4,2,3,nan,nan,nan,nan,nan,nan,nan,nan,nan,nan,nan,nan,0.0,nan,nan,nan,nan,nan,nan,nan,nan,nan,nan,nan,nan,nan,nan,nan,nan,nan,nan,601.5298685393063,703.8653056931216,nan,704.4954970468534,nan,nan,nan,nan
1,51,1,1,1.0,1.0,0.6380283654434606,0.0,4,5,3,7,8,0,nan,nan,nan,nan,nan,nan,nan,nan,nan,nan,nan,nan,0.0,nan,nan,nan,nan,nan,nan,nan,nan,nan,nan,nan,nan,nan,nan,nan,nan,nan,nan,601.5298685393063,704.8654374075122,nan,705.5034657729557,nan,nan,nan,nan
1,52,1,1,1.0,1.0,0.6779053519712761,0.0,7,8,5,2,6,1,nan,nan,nan,nan,nan,nan,nan,nan,nan,nan,nan,nan,0.0,nan,nan,nan,nan,nan,nan,nan,nan,nan,nan,nan,nan,nan,nan,nan,nan,nan,nan,601.5298685393063,705.8655366210733,nan,706.5434419730445,nan,nan,nan,nan
1,53,1,1,1.0,1.0,0.6377398479962721,0.0,2,1,4,0,8,3,nan,nan,nan,nan,nan,nan,nan,nan,nan,nan,nan,nan,0.0,nan,nan,nan,nan,nan,nan,nan,nan,nan,nan,nan,nan,nan,nan,nan,nan,nan,nan,601.5298685393063,706.8656774585834,nan,707.5034173065796,nan,nan,nan,nan
1,54,1,1,1.0,1.0,0.6456096456386149,0.0,1,5,7,4,3,0,nan,nan,nan,nan,nan,nan,nan,nan,nan,nan,nan,nan,0.0,nan,nan,nan,nan,nan,nan,nan,nan,nan,nan,nan,nan,nan,nan,nan,nan,nan,nan,601.5298685393063,707.8657963437727,nan,708.5114059894113,nan,nan,nan,nan
1,55,1,1,1.0,1.0,0.5815080282045528,0.0,6,7,0,2,1,3,nan,nan,nan,nan,nan,nan,nan,nan,nan,nan,nan,nan,0.0,nan,nan,nan,nan,nan,nan,nan,nan,nan,nan,nan,nan,nan,nan,nan,nan,nan,nan,601.5298685393063,708.865883583203,nan,709.4473916114075,nan,nan,nan,nan
1,56,1,1,1.0,1.0,0.6052993125049397,0.0,4,8,3,1,2,6,nan,nan,nan,nan,nan,nan,nan,nan,nan,nan,nan,nan,0.0,nan,nan,nan,nan,nan,nan,nan,nan,nan,nan,nan,nan,nan,nan,nan,nan,nan,nan,601.5298685393063,709.8660523602739,nan,710.4713516727788,nan,nan,nan,nan
1,57,1,1,1.0,1.0,0.509186229784973,0.0,2,5,4,3,7,8,nan,nan,nan,nan,nan,nan,nan,nan,nan,nan,nan,nan,0.0,nan,nan,nan,nan,nan,nan,nan,nan,nan,nan,nan,nan,nan,nan,nan,nan,nan,nan,601.5298685393063,710.8661575607257,nan,711.3753437905107,nan,nan,nan,nan
1,58,1,1,1.0,1.0,0.5170215307734907,0.0,1,7,2,8,4,0,nan,nan,nan,nan,nan,nan,nan,nan,nan,nan,nan,nan,0.0,nan,nan,nan,nan,nan,nan,nan,nan,nan,nan,nan,nan,nan,nan,nan,nan,nan,nan,601.5298685393063,711.8662924112286,nan,712.3833139420021,nan,nan,nan,nan
1,59,1,1,1.0,1.0,0.39687426143791527,0.0,3,1,6,2,0,4,nan,nan,nan,nan,nan,nan,nan,nan,nan,nan,nan,nan,0.0,nan,nan,nan,nan,nan,nan,nan,nan,nan,nan,nan,nan,nan,nan,nan,nan,nan,nan,601.5298685393063,712.8664030286018,nan,713.2632772900397,nan,nan,nan,nan
1,60,1,1,1.0,1.0,0.3247086957562715,0.0,2,6,0,4,3,7,nan,nan,nan,nan,nan,nan,nan,nan,nan,nan,nan,nan,0.0,nan,nan,nan,nan,nan,nan,nan,nan,nan,nan,nan,nan,nan,nan,nan,nan,nan,nan,601.5298685393063,713.8665481426287,nan,714.191256838385,nan,nan,nan,nan
1,61,1,1,1.0,1.0,0.30856055743061006,0.0,5,0,3,6,8,2,nan,nan,nan,nan,nan,nan,nan,nan,nan,nan,nan,nan,0.0,nan,nan,nan,nan,nan,nan,nan,nan,nan,nan,nan,nan,nan,nan,nan,nan,nan,nan,601.5298685393063,714.866672444623,nan,715.1752330020536,nan,nan,nan,nan
1,62,1,1,1.0,1.0,0.3240646632621065,0.0,6,8,7,5,2,1,nan,nan,nan,nan,nan,nan,nan,nan,nan,nan,nan,nan,0.0,nan,nan,nan,nan,nan,nan,nan,nan,nan,nan,nan,nan,nan,nan,nan,nan,nan,nan,601.5298685393063,715.8751617565285,nan,716.1992264197906,nan,nan,nan,nan
1,63,1,1,1.0,1.0,0.3479500295361504,0.0,3,6,5,4,1,0,nan,nan,nan,nan,nan,nan,nan,nan,nan,nan,nan,nan,0.0,nan,nan,nan,nan,nan,nan,nan,nan,nan,nan,nan,nan,nan,nan,nan,nan,nan,nan,601.5298685393063,716.875247000251,nan,717.2231970297871,nan,nan,nan,nan
1,64,1,1,1.0,1.0,0.2918060193769634,0.0,7,3,2,5,6,4,nan,nan,nan,nan,nan,nan,nan,nan,nan,nan,nan,nan,0.0,nan,nan,nan,nan,nan,nan,nan,nan,nan,nan,nan,nan,nan,nan,nan,nan,nan,nan,601.5298685393063,717.8753590431297,nan,718.1671650625067,nan,nan,nan,nan
1,65,0,0,nan,nan,nan,0.0,4,0,3,8,2,5,nan,nan,nan,nan,nan,nan,nan,nan,nan,nan,nan,nan,0.0,nan,nan,nan,nan,nan,nan,nan,nan,nan,nan,nan,nan,nan,nan,nan,nan,nan,nan,601.5298685393063,718.875500165741,nan,nan,nan,nan,nan,nan
1,66,1,1,0.0,0.0,0.003561707795597613,0.0,8,2,5,3,0,1,nan,nan,nan,nan,nan,nan,nan,nan,nan,nan,nan,nan,0.0,nan,nan,nan,nan,nan,nan,nan,nan,nan,nan,nan,nan,nan,nan,nan,nan,nan,nan,601.5298685393063,719.8755990942009,nan,719.8791608019965,nan,nan,nan,nan
1,67,1,1,1.0,1.0,0.28336146753281355,0.0,3,0,1,4,2,5,nan,nan,nan,nan,nan,nan,nan,nan,nan,nan,nan,nan,0.0,nan,nan,nan,nan,nan,nan,nan,nan,nan,nan,nan,nan,nan,nan,nan,nan,nan,nan,601.5298685393063,720.8757322342135,nan,721.1590937017463,nan,nan,nan,nan
1,68,1,1,1.0,1.0,0.6991761003155261,0.0,7,1,4,5,0,3,nan,nan,nan,nan,nan,nan,nan,nan,nan,nan,nan,nan,0.0,nan,nan,nan,nan,nan,nan,nan,nan,nan,nan,nan,nan,nan,nan,nan,nan,nan,nan,601.5298685393063,721.8758645188063,nan,722.5750406191219,nan,nan,nan,nan
1,69,1,1,1.0,1.0,0.48307853809092194,0.0,6,8,1,4,7,2,nan,nan,nan,nan,nan,nan,nan,nan,nan,nan,nan,nan,0.0,nan,nan,nan,nan,nan,nan,nan,nan,nan,nan,nan,nan,nan,nan,nan,nan,nan,nan,601.5298685393063,722.8759745659772,nan,723.3590531040682,nan,nan,nan,nan
1,70,1,1,1.0,1.0,0.2989314306760207,0.0,5,2,8,6,3,0,nan,nan,nan,nan,nan,nan,nan,nan,nan,nan,nan,nan,0.0,nan,nan,nan,nan,nan,nan,nan,nan,nan,nan,nan,nan,nan,nan,nan,nan,nan,nan,601.5298685393063,723.8760925958632,nan,724.1750240265392,nan,nan,nan,nan
1,71,1,1,1.0,1.0,0.24279967963229865,0.0,4,0,2,1,5,8,nan,nan,nan,nan,nan,nan,nan,nan,nan,nan,nan,nan,0.0,nan,nan,nan,nan,nan,nan,nan,nan,nan,nan,nan,nan,nan,nan,nan,nan,nan,nan,601.5298685393063,724.8762727767462,nan,725.1190724563785,nan,nan,nan,nan
1,72,1,1,1.0,1.0,0.2746306791668758,0.0,7,3,5,2,1,6,nan,nan,nan,nan,nan,nan,nan,nan,nan,nan,nan,nan,0.0,nan,nan,nan,nan,nan,nan,nan,nan,nan,nan,nan,nan,nan,nan,nan,nan,nan,nan,601.5298685393063,725.8763631521724,nan,726.1509938313393,nan,nan,nan,nan
1,73,1,1,1.0,1.0,0.28248593700118363,0.0,3,6,8,0,4,5,nan,nan,nan,nan,nan,nan,nan,nan,nan,nan,nan,nan,0.0,nan,nan,nan,nan,nan,nan,nan,nan,nan,nan,nan,nan,nan,nan,nan,nan,nan,nan,601.5298685393063,726.8764800416538,nan,727.158965978655,nan,nan,nan,nan
1,74,1,1,1.0,1.0,0.4503554723924026,0.0,1,7,0,8,3,2,nan,nan,nan,nan,nan,nan,nan,nan,nan,nan,nan,nan,0.0,nan,nan,nan,nan,nan,nan,nan,nan,nan,nan,nan,nan,nan,nan,nan,nan,nan,nan,601.5298685393063,727.8765892335214,nan,728.3269447059138,nan,nan,nan,nan
1,75,1,1,1.0,1.0,0.44188412139192224,0.0,7,1,4,2,6,3,nan,nan,nan,nan,nan,nan,nan,nan,nan,nan,nan,nan,0.0,nan,nan,nan,nan,nan,nan,nan,nan,nan,nan,nan,nan,nan,nan,nan,nan,nan,nan,601.5298685393063,728.8850417680806,nan,729.3269258894725,nan,nan,nan,nan
1,76,1,1,1.0,1.0,0.40968905412591994,0.0,1,2,8,4,7,5,nan,nan,nan,nan,nan,nan,nan,nan,nan,nan,nan,nan,0.0,nan,nan,nan,nan,nan,nan,nan,nan,nan,nan,nan,nan,nan,nan,nan,nan,nan,nan,601.5298685393063,729.8851948647061,nan,730.294883918832,nan,nan,nan,nan
1,77,1,1,1.0,1.0,0.36155453883111477,0.0,3,5,6,1,2,7,nan,nan,nan,nan,nan,nan,nan,nan,nan,nan,nan,nan,0.0,nan,nan,nan,nan,nan,nan,nan,nan,nan,nan,nan,nan,nan,nan,nan,nan,nan,nan,601.5298685393063,730.8853128945921,nan,731.2468674334232,nan,nan,nan,nan
1,78,1,1,1.0,1.0,0.4174054699251428,0.0,1,4,7,3,6,2,nan,nan,nan,nan,nan,nan,nan,nan,nan,nan,nan,nan,0.0,nan,nan,nan,nan,nan,nan,nan,nan,nan,nan,nan,nan,nan,nan,nan,nan,nan,nan,601.5298685393063,731.8854283585679,nan,732.302833828493,nan,nan,nan,nan
1,79,0,0,0.0,1.0,0.5692850954364985,0.0,7,8,3,4,1,5,nan,nan,nan,nan,nan,nan,nan,nan,nan,nan,nan,nan,0.0,nan,nan,nan,nan,nan,nan,nan,nan,nan,nan,nan,nan,nan,nan,nan,nan,nan,nan,601.5298685393063,732.8855398312444,nan,733.4548249266809,nan,nan,nan,nan
1,80,1,1,1.0,1.0,0.5771141243167222,0.0,2,3,1,7,6,4,nan,nan,nan,nan,nan,nan,nan,nan,nan,nan,nan,nan,0.0,nan,nan,nan,nan,nan,nan,nan,nan,nan,nan,nan,nan,nan,nan,nan,nan,nan,nan,601.5298685393063,733.8856895067729,nan,734.4628036310896,nan,nan,nan,nan
1,81,1,1,1.0,1.0,0.5289704859023914,0.0,8,5,0,6,7,2,nan,nan,nan,nan,nan,nan,nan,nan,nan,nan,nan,nan,0.0,nan,nan,nan,nan,nan,nan,nan,nan,nan,nan,nan,nan,nan,nan,nan,nan,nan,nan,601.5298685393063,734.8858018347528,nan,735.4147723206552,nan,nan,nan,nan
1,82,1,1,1.0,1.0,0.36883447226136923,0.0,4,3,1,0,5,6,nan,nan,nan,nan,nan,nan,nan,nan,nan,nan,nan,nan,0.0,nan,nan,nan,nan,nan,nan,nan,nan,nan,nan,nan,nan,nan,nan,nan,nan,nan,nan,601.5298685393063,735.8859198645223,nan,736.2547543367837,nan,nan,nan,nan
1,83,1,1,1.0,1.0,0.33668416494037956,0.0,7,4,6,5,1,8,nan,nan,nan,nan,nan,nan,nan,nan,nan,nan,nan,nan,0.0,nan,nan,nan,nan,nan,nan,nan,nan,nan,nan,nan,nan,nan,nan,nan,nan,nan,nan,601.5298685393063,736.8860387497116,nan,737.222722914652,nan,nan,nan,nan
1,84,1,1,1.0,1.0,0.23253193718846887,0.0,5,6,4,1,2,7,nan,nan,nan,nan,nan,nan,nan,nan,nan,nan,nan,nan,0.0,nan,nan,nan,nan,nan,nan,nan,nan,nan,nan,nan,nan,nan,nan,nan,nan,nan,nan,601.5298685393063,737.8861784469336,nan,738.1187103841221,nan,nan,nan,nan
1,85,1,1,1.0,1.0,0.280394755769521,0.0,3,4,2,5,0,8,nan,nan,nan,nan,nan,nan,nan,nan,nan,nan,nan,nan,0.0,nan,nan,nan,nan,nan,nan,nan,nan,nan,nan,nan,nan,nan,nan,nan,nan,nan,nan,601.5298685393063,738.8862976171076,nan,739.1666923728772,nan,nan,nan,nan
1,86,1,1,1.0,1.0,0.30424676567781717,0.0,0,8,7,1,3,2,nan,nan,nan,nan,nan,nan,nan,nan,nan,nan,nan,nan,0.0,nan,nan,nan,nan,nan,nan,nan,nan,nan,nan,nan,nan,nan,nan,nan,nan,nan,nan,601.5298685393063,739.8864153618924,nan,740.1906621275702,nan,nan,nan,nan
1,87,1,1,1.0,1.0,0.3041127703618258,0.0,1,4,6,3,7,5,nan,nan,nan,nan,nan,nan,nan,nan,nan,nan,nan,nan,0.0,nan,nan,nan,nan,nan,nan,nan,nan,nan,nan,nan,nan,nan,nan,nan,nan,nan,nan,601.5298685393063,740.8865256941644,nan,741.1906384645263,nan,nan,nan,nan
1,88,1,1,1.0,1.0,0.34397550229914486,0.0,3,6,7,8,0,2,nan,nan,nan,nan,nan,nan,nan,nan,nan,nan,nan,nan,0.0,nan,nan,nan,nan,nan,nan,nan,nan,nan,nan,nan,nan,nan,nan,nan,nan,nan,nan,601.5298685393063,741.8866462898441,nan,742.2306217921432,nan,nan,nan,nan
1,89,0,0,1.0,0.0,0.30381741060409695,0.0,5,7,0,2,4,1,nan,nan,nan,nan,nan,nan,nan,nan,nan,nan,nan,nan,0.0,nan,nan,nan,nan,nan,nan,nan,nan,nan,nan,nan,nan,nan,nan,nan,nan,nan,nan,601.5298685393063,742.8867742981529,nan,743.190591708757,nan,nan,nan,nan
1,90,1,1,1.0,1.0,0.5676714504370466,0.0,1,5,6,7,2,0,nan,nan,nan,nan,nan,nan,nan,nan,nan,nan,nan,nan,0.0,nan,nan,nan,nan,nan,nan,nan,nan,nan,nan,nan,nan,nan,nan,nan,nan,nan,nan,601.5298685393063,743.8868971746415,nan,744.4545686250785,nan,nan,nan,nan
1,91,1,1,1.0,1.0,0.36750364280305803,0.0,0,2,4,1,6,5,nan,nan,nan,nan,nan,nan,nan,nan,nan,nan,nan,nan,0.0,nan,nan,nan,nan,nan,nan,nan,nan,nan,nan,nan,nan,nan,nan,nan,nan,nan,nan,601.5298685393063,744.8870351612568,nan,745.2545388040598,nan,nan,nan,nan
1,92,1,1,1.0,1.0,0.14337548858020455,0.0,1,0,3,2,4,6,nan,nan,nan,nan,nan,nan,nan,nan,nan,nan,nan,nan,0.0,nan,nan,nan,nan,nan,nan,nan,nan,nan,nan,nan,nan,nan,nan,nan,nan,nan,nan,601.5298685393063,745.8871574675431,nan,746.0305329561234,nan,nan,nan,nan
1,93,1,1,1.0,1.0,0.27920618932694197,0.0,7,8,1,6,2,3,nan,nan,nan,nan,nan,nan,nan,nan,nan,nan,nan,nan,0.0,nan,nan,nan,nan,nan,nan,nan,nan,nan,nan,nan,nan,nan,nan,nan,nan,nan,nan,601.5298685393063,746.8872908925405,nan,747.1664970818674,nan,nan,nan,nan
1,94,1,1,1.0,1.0,0.2950786395231262,0.0,0,4,5,3,8,1,nan,nan,nan,nan,nan,nan,nan,nan,nan,nan,nan,nan,0.0,nan,nan,nan,nan,nan,nan,nan,nan,nan,nan,nan,nan,nan,nan,nan,nan,nan,nan,601.5298685393063,747.8873989441199,nan,748.182477583643,nan,nan,nan,nan
1,95,1,1,1.0,1.0,0.2789350626990199,0.0,3,5,1,8,7,2,nan,nan,nan,nan,nan,nan,nan,nan,nan,nan,nan,nan,0.0,nan,nan,nan,nan,nan,nan,nan,nan,nan,nan,nan,nan,nan,nan,nan,nan,nan,nan,601.5298685393063,748.8875223908108,nan,749.1664574535098,nan,nan,nan,nan
1,96,1,1,1.0,1.0,0.33479426172561944,0.0,2,0,4,3,1,6,nan,nan,nan,nan,nan,nan,nan,nan,nan,nan,nan,nan,0.0,nan,nan,nan,nan,nan,nan,nan,nan,nan,nan,nan,nan,nan,nan,nan,nan,nan,nan,601.5298685393063,749.8876389950747,nan,750.2224332568003,nan,nan,nan,nan
1,97,1,1,1.0,1.0,0.27062992309220135,0.0,6,5,2,0,3,1,nan,nan,nan,nan,nan,nan,nan,nan,nan,nan,nan,nan,0.0,nan,nan,nan,nan,nan,nan,nan,nan,nan,nan,nan,nan,nan,nan,nan,nan,nan,nan,601.5298685393063,750.88777698169,nan,751.1584069047822,nan,nan,nan,nan
1,98,1,1,1.0,1.0,0.2304732569027692,0.0,3,8,1,6,5,7,nan,nan,nan,nan,nan,nan,nan,nan,nan,nan,nan,nan,0.0,nan,nan,nan,nan,nan,nan,nan,nan,nan,nan,nan,nan,nan,nan,nan,nan,nan,nan,601.5298685393063,751.8879044197965,nan,752.1183776766993,nan,nan,nan,nan
1,99,1,1,1.0,1.0,0.2623649820452556,0.0,2,5,8,7,6,0,nan,nan,nan,nan,nan,nan,nan,nan,nan,nan,nan,nan,0.0,nan,nan,nan,nan,nan,nan,nan,nan,nan,nan,nan,nan,nan,nan,nan,nan,nan,nan,601.5298685393063,752.8880104755517,nan,753.150375457597,nan,nan,nan,nan
1,100,1,1,1.0,1.0,0.2941922751488164,0.0,6,2,0,3,8,1,nan,nan,nan,nan,nan,nan,nan,nan,nan,nan,nan,nan,0.0,nan,nan,nan,nan,nan,nan,nan,nan,nan,nan,nan,nan,nan,nan,nan,nan,nan,nan,601.5298685393063,753.8881456112722,nan,754.182337886421,nan,nan,nan,nan
1,101,1,1,1.0,1.0,0.2860516360960901,0.0,1,4,8,6,3,0,nan,nan,nan,nan,nan,nan,nan,nan,nan,nan,nan,nan,0.0,nan,nan,nan,nan,nan,nan,nan,nan,nan,nan,nan,nan,nan,nan,nan,nan,nan,nan,601.5298685393063,754.8882630708395,nan,755.1743147069355,nan,nan,nan,nan
1,102,1,1,1.0,1.0,0.429920056136325,0.0,7,2,0,3,4,6,nan,nan,nan,nan,nan,nan,nan,nan,nan,nan,nan,nan,0.0,nan,nan,nan,nan,nan,nan,nan,nan,nan,nan,nan,nan,nan,nan,nan,nan,nan,nan,601.5298685393063,755.8883756839205,nan,756.3182957400568,nan,nan,nan,nan
1,103,1,1,1.0,1.0,0.4537580964388326,0.0,3,8,4,1,7,5,nan,nan,nan,nan,nan,nan,nan,nan,nan,nan,nan,nan,0.0,nan,nan,nan,nan,nan,nan,nan,nan,nan,nan,nan,nan,nan,nan,nan,nan,nan,nan,601.5298685393063,756.8885045474162,nan,757.3422626438551,nan,nan,nan,nan
1,104,1,1,1.0,1.0,0.4456051980378106,0.0,2,5,7,0,8,1,nan,nan,nan,nan,nan,nan,nan,nan,nan,nan,nan,nan,0.0,nan,nan,nan,nan,nan,nan,nan,nan,nan,nan,nan,nan,nan,nan,nan,nan,nan,nan,601.5298685393063,757.88863797253,nan,758.3342431705678,nan,nan,nan,nan
1,105,1,1,1.0,1.0,0.4534564644563943,0.0,8,2,1,4,7,3,nan,nan,nan,nan,nan,nan,nan,nan,nan,nan,nan,nan,0.0,nan,nan,nan,nan,nan,nan,nan,nan,nan,nan,nan,nan,nan,nan,nan,nan,nan,nan,601.5298685393063,758.8887611341197,nan,759.3422175985761,nan,nan,nan,nan
1,106,1,1,1.0,1.0,0.46142633096314967,0.0,7,1,6,3,5,4,nan,nan,nan,nan,nan,nan,nan,nan,nan,nan,nan,nan,0.0,nan,nan,nan,nan,nan,nan,nan,nan,nan,nan,nan,nan,nan,nan,nan,nan,nan,nan,601.5298685393063,759.888873176882,nan,760.3502995078452,nan,nan,nan,nan
1,107,0,0,0.0,1.0,0.5571562444092706,0.0,3,5,1,7,0,8,nan,nan,nan,nan,nan,nan,nan,nan,nan,nan,nan,nan,0.0,nan,nan,nan,nan,nan,nan,nan,nan,nan,nan,nan,nan,nan,nan,nan,nan,nan,nan,601.5298685393063,760.8890074572992,nan,761.4461637017084,nan,nan,nan,nan
1,108,1,1,1.0,1.0,0.44501590402796865,0.0,4,3,8,5,2,1,nan,nan,nan,nan,nan,nan,nan,nan,nan,nan,nan,nan,0.0,nan,nan,nan,nan,nan,nan,nan,nan,nan,nan,nan,nan,nan,nan,nan,nan,nan,nan,601.5298685393063,761.8891323294956,nan,762.3341482335236,nan,nan,nan,nan
1,109,1,1,1.0,1.0,0.6368708744412288,0.0,0,4,2,1,3,7,nan,nan,nan,nan,nan,nan,nan,nan,nan,nan,nan,nan,0.0,nan,nan,nan,nan,nan,nan,nan,nan,nan,nan,nan,nan,nan,nan,nan,nan,nan,nan,601.5298685393063,762.8892520698719,nan,763.5261229443131,nan,nan,nan,nan
1,110,1,1,1.0,1.0,0.5407144569326192,0.0,8,1,5,6,4,0,nan,nan,nan,nan,nan,nan,nan,nan,nan,nan,nan,nan,0.0,nan,nan,nan,nan,nan,nan,nan,nan,nan,nan,nan,nan,nan,nan,nan,nan,nan,nan,601.5298685393063,763.8893775122706,nan,764.4300919692032,nan,nan,nan,nan
1,111,1,1,1.0,1.0,0.5405670622130856,0.0,7,6,0,8,3,1,nan,nan,nan,nan,nan,nan,nan,nan,nan,nan,nan,nan,0.0,nan,nan,nan,nan,nan,nan,nan,nan,nan,nan,nan,nan,nan,nan,nan,nan,nan,nan,601.5298685393063,764.8895097968634,nan,765.4300768590765,nan,nan,nan,nan
1,112,1,1,1.0,1.0,0.45242070965468884,0.0,8,3,6,5,7,2,nan,nan,nan,nan,nan,nan,nan,nan,nan,nan,nan,nan,0.0,nan,nan,nan,nan,nan,nan,nan,nan,nan,nan,nan,nan,nan,nan,nan,nan,nan,nan,601.5298685393063,765.8896323883673,nan,766.342053098022,nan,nan,nan,nan
1,113,1,1,1.0,1.0,0.356281683081761,0.0,7,2,8,3,5,1,nan,nan,nan,nan,nan,nan,nan,nan,nan,nan,nan,nan,0.0,nan,nan,nan,nan,nan,nan,nan,nan,nan,nan,nan,nan,nan,nan,nan,nan,nan,nan,601.5298685393063,766.8897526989458,nan,767.2460343820276,nan,nan,nan,nan
1,114,1,1,1.0,1.0,0.35613200755324215,0.0,8,7,3,5,0,2,nan,nan,nan,nan,nan,nan,nan,nan,nan,nan,nan,nan,0.0,nan,nan,nan,nan,nan,nan,nan,nan,nan,nan,nan,nan,nan,nan,nan,nan,nan,nan,601.5298685393063,767.8898741499288,nan,768.246006157482,nan,nan,nan,nan
1,115,1,1,1.0,1.0,0.3159881707979366,0.0,3,6,4,1,7,8,nan,nan,nan,nan,nan,nan,nan,nan,nan,nan,nan,nan,0.0,nan,nan,nan,nan,nan,nan,nan,nan,nan,nan,nan,nan,nan,nan,nan,nan,nan,nan,601.5298685393063,768.8899893288035,nan,769.2059774996014,nan,nan,nan,nan
1,116,1,1,1.0,1.0,0.251532748923637,0.0,2,4,5,6,0,3,nan,nan,nan,nan,nan,nan,nan,nan,nan,nan,nan,nan,0.0,nan,nan,nan,nan,nan,nan,nan,nan,nan,nan,nan,nan,nan,nan,nan,nan,nan,nan,601.5298685393063,769.8984307445353,nan,770.1499634934589,nan,nan,nan,nan
1,117,1,1,1.0,1.0,0.29138350661378354,0.0,1,6,0,8,4,2,nan,nan,nan,nan,nan,nan,nan,nan,nan,nan,nan,nan,0.0,nan,nan,nan,nan,nan,nan,nan,nan,nan,nan,nan,nan,nan,nan,nan,nan,nan,nan,601.5298685393063,770.8985650249524,nan,771.1899485315662,nan,nan,nan,nan
1,118,1,1,1.0,1.0,0.3308952850056812,0.0,5,4,6,2,1,3,nan,nan,nan,nan,nan,nan,nan,nan,nan,nan,nan,nan,0.0,nan,nan,nan,nan,nan,nan,nan,nan,nan,nan,nan,nan,nan,nan,nan,nan,nan,nan,601.5298685393063,771.9070312440163,nan,772.2379265290219,nan,nan,nan,nan
1,119,1,1,1.0,1.0,0.3627416796516627,0.0,1,8,0,7,4,6,nan,nan,nan,nan,nan,nan,nan,nan,nan,nan,nan,nan,0.0,nan,nan,nan,nan,nan,nan,nan,nan,nan,nan,nan,nan,nan,nan,nan,nan,nan,nan,601.5298685393063,772.9071555460105,nan,773.2698972256621,nan,nan,nan,nan
1,120,1,1,1.0,1.0,0.2826219277922064,0.0,8,0,7,5,6,3,nan,nan,nan,nan,nan,nan,nan,nan,nan,nan,nan,nan,0.0,nan,nan,nan,nan,nan,nan,nan,nan,nan,nan,nan,nan,nan,nan,nan,nan,nan,nan,601.5298685393063,773.9072570402641,nan,774.1898789680563,nan,nan,nan,nan
1,121,1,1,1.0,1.0,0.27445078338496387,0.0,4,7,5,0,8,2,nan,nan,nan,nan,nan,nan,nan,nan,nan,nan,nan,nan,0.0,nan,nan,nan,nan,nan,nan,nan,nan,nan,nan,nan,nan,nan,nan,nan,nan,nan,nan,601.5298685393063,774.9074044349836,nan,775.1818552183686,nan,nan,nan,nan
1,122,1,1,1.0,1.0,0.25030997092835605,0.0,5,4,0,2,3,1,nan,nan,nan,nan,nan,nan,nan,nan,nan,nan,nan,nan,0.0,nan,nan,nan,nan,nan,nan,nan,nan,nan,nan,nan,nan,nan,nan,nan,nan,nan,nan,601.5298685393063,775.907525886083,nan,776.1578358570114,nan,nan,nan,nan
1,123,1,1,1.0,1.0,0.23415499029215425,0.0,2,3,4,6,5,7,nan,nan,nan,nan,nan,nan,nan,nan,nan,nan,nan,nan,0.0,nan,nan,nan,nan,nan,nan,nan,nan,nan,nan,nan,nan,nan,nan,nan,nan,nan,nan,601.5298685393063,776.9076624471927,nan,777.1418174374849,nan,nan,nan,nan
1,124,1,1,1.0,1.0,0.23402470129076391,0.0,6,8,5,2,0,3,nan,nan,nan,nan,nan,nan,nan,nan,nan,nan,nan,nan,0.0,nan,nan,nan,nan,nan,nan,nan,nan,nan,nan,nan,nan,nan,nan,nan,nan,nan,nan,601.5298685393063,777.9077590948436,nan,778.1417837961344,nan,nan,nan,nan
1,125,1,1,1.0,1.0,0.22586581599898636,0.0,2,1,0,6,3,4,nan,nan,nan,nan,nan,nan,nan,nan,nan,nan,nan,nan,0.0,nan,nan,nan,nan,nan,nan,nan,nan,nan,nan,nan,nan,nan,nan,nan,nan,nan,nan,601.5298685393063,778.9078816862311,nan,779.1337475022301,nan,nan,nan,nan
1,126,0,0,1.0,0.0,0.2737383279018104,0.0,0,2,1,5,6,3,nan,nan,nan,nan,nan,nan,nan,nan,nan,nan,nan,nan,0.0,nan,nan,nan,nan,nan,nan,nan,nan,nan,nan,nan,nan,nan,nan,nan,nan,nan,nan,601.5298685393063,779.9080068434123,nan,780.1817451713141,nan,nan,nan,nan
1,127,1,1,1.0,1.0,0.369563463376835,0.0,7,4,5,8,3,1,nan,nan,nan,nan,nan,nan,nan,nan,nan,nan,nan,nan,0.0,nan,nan,nan,nan,nan,nan,nan,nan,nan,nan,nan,nan,nan,nan,nan,nan,nan,nan,601.5298685393063,780.908142549335,nan,781.2777060127119,nan,nan,nan,nan
1,128,1,1,1.0,1.0,0.4494155098218471,0.0,1,7,8,0,4,2,nan,nan,nan,nan,nan,nan,nan,nan,nan,nan,nan,nan,0.0,nan,nan,nan,nan,nan,nan,nan,nan,nan,nan,nan,nan,nan,nan,nan,nan,nan,nan,601.5298685393063,781.9082654258236,nan,782.3576809356455,nan,nan,nan,nan
1,129,1,1,1.0,1.0,0.28126486961264163,0.0,4,1,7,2,3,8,nan,nan,nan,nan,nan,nan,nan,nan,nan,nan,nan,nan,0.0,nan,nan,nan,nan,nan,nan,nan,nan,nan,nan,nan,nan,nan,nan,nan,nan,nan,nan,601.5298685393063,782.908391153207,nan,783.1896560228197,nan,nan,nan,nan
1,130,1,1,1.0,1.0,0.2651489470154047,0.0,7,3,5,8,6,0,nan,nan,nan,nan,nan,nan,nan,nan,nan,nan,nan,nan,0.0,nan,nan,nan,nan,nan,nan,nan,nan,nan,nan,nan,nan,nan,nan,nan,nan,nan,nan,601.5298685393063,783.9084989196854,nan,784.1736478667008,nan,nan,nan,nan
1,131,1,1,1.0,1.0,0.24865669757127762,0.0,5,7,3,1,8,6,nan,nan,nan,nan,nan,nan,nan,nan,nan,nan,nan,nan,0.0,nan,nan,nan,nan,nan,nan,nan,nan,nan,nan,nan,nan,nan,nan,nan,nan,nan,nan,601.5298685393063,784.9169577262364,nan,785.1656144238077,nan,nan,nan,nan
1,132,1,1,1.0,1.0,0.3285004763165489,0.0,8,0,2,6,3,5,nan,nan,nan,nan,nan,nan,nan,nan,nan,nan,nan,nan,0.0,nan,nan,nan,nan,nan,nan,nan,nan,nan,nan,nan,nan,nan,nan,nan,nan,nan,nan,601.5298685393063,785.917097423342,nan,786.2455978996586,nan,nan,nan,nan
1,133,1,1,1.0,1.0,0.3120341704925522,0.0,0,8,1,3,5,7,nan,nan,nan,nan,nan,nan,nan,nan,nan,nan,nan,nan,0.0,nan,nan,nan,nan,nan,nan,nan,nan,nan,nan,nan,nan,nan,nan,nan,nan,nan,nan,601.5298685393063,786.9255456813844,nan,787.237579851877,nan,nan,nan,nan
1,134,1,1,1.0,1.0,0.391557500930503,0.0,4,7,6,0,3,5,nan,nan,nan,nan,nan,nan,nan,nan,nan,nan,nan,nan,0.0,nan,nan,nan,nan,nan,nan,nan,nan,nan,nan,nan,nan,nan,nan,nan,nan,nan,nan,601.5298685393063,787.934002492344,nan,788.3255599932745,nan,nan,nan,nan
1,135,1,1,1.0,1.0,0.45538542594294995,0.0,5,1,8,2,4,3,nan,nan,nan,nan,nan,nan,nan,nan,nan,nan,nan,nan,0.0,nan,nan,nan,nan,nan,nan,nan,nan,nan,nan,nan,nan,nan,nan,nan,nan,nan,nan,601.5298685393063,788.9341393385548,nan,789.3895247644978,nan,nan,nan,nan
1,136,1,1,1.0,1.0,0.2632430784869939,0.0,6,2,1,8,7,0,nan,nan,nan,nan,nan,nan,nan,nan,nan,nan,nan,nan,0.0,nan,nan,nan,nan,nan,nan,nan,nan,nan,nan,nan,nan,nan,nan,nan,nan,nan,nan,601.5298685393063,789.9342616448412,nan,790.1975047233282,nan,nan,nan,nan
1,137,1,1,1.0,1.0,0.43110178026836365,0.0,1,8,4,0,5,3,nan,nan,nan,nan,nan,nan,nan,nan,nan,nan,nan,nan,0.0,nan,nan,nan,nan,nan,nan,nan,nan,nan,nan,nan,nan,nan,nan,nan,nan,nan,nan,601.5298685393063,790.9343753982102,nan,791.3654771784786,nan,nan,nan,nan
1,138,1,1,1.0,1.0,0.3826257196487859,0.0,0,5,8,7,4,1,nan,nan,nan,nan,nan,nan,nan,nan,nan,nan,nan,nan,0.0,nan,nan,nan,nan,nan,nan,nan,nan,nan,nan,nan,nan,nan,nan,nan,nan,nan,nan,601.5298685393063,791.9428396216827,nan,792.3254653413314,nan,nan,nan,nan
1,139,1,1,1.0,1.0,0.4304648751858622,0.0,7,0,5,6,3,2,nan,nan,nan,nan,nan,nan,nan,nan,nan,nan,nan,nan,0.0,nan,nan,nan,nan,nan,nan,nan,nan,nan,nan,nan,nan,nan,nan,nan,nan,nan,nan,601.5298685393063,792.942961927969,nan,793.3734268031549,nan,nan,nan,nan
1,140,1,1,1.0,1.0,0.45431945100426674,0.0,0,5,7,1,4,8,nan,nan,nan,nan,nan,nan,nan,nan,nan,nan,nan,nan,0.0,nan,nan,nan,nan,nan,nan,nan,nan,nan,nan,nan,nan,nan,nan,nan,nan,nan,nan,601.5298685393063,793.9430830938509,nan,794.3974025448551,nan,nan,nan,nan
1,141,1,1,1.0,1.0,0.44618080742657185,0.0,3,6,1,8,5,4,nan,nan,nan,nan,nan,nan,nan,nan,nan,nan,nan,nan,0.0,nan,nan,nan,nan,nan,nan,nan,nan,nan,nan,nan,nan,nan,nan,nan,nan,nan,nan,601.5298685393063,794.9432088213507,nan,795.3893896287773,nan,nan,nan,nan
1,142,1,1,1.0,1.0,0.37368966185022146,0.0,6,0,8,3,4,2,nan,nan,nan,nan,nan,nan,nan,nan,nan,nan,nan,nan,0.0,nan,nan,nan,nan,nan,nan,nan,nan,nan,nan,nan,nan,nan,nan,nan,nan,nan,nan,601.5298685393063,795.9516650621081,nan,796.3253547239583,nan,nan,nan,nan
1,143,1,1,1.0,1.0,0.2935465320479125,0.0,5,2,6,4,0,8,nan,nan,nan,nan,nan,nan,nan,nan,nan,nan,nan,nan,0.0,nan,nan,nan,nan,nan,nan,nan,nan,nan,nan,nan,nan,nan,nan,nan,nan,nan,nan,601.5298685393063,796.9517873683944,nan,797.2453339004423,nan,nan,nan,nan
1,144,1,1,1.0,1.0,0.2614062032662332,0.0,2,0,7,8,6,1,nan,nan,nan,nan,nan,nan,nan,nan,nan,nan,nan,nan,0.0,nan,nan,nan,nan,nan,nan,nan,nan,nan,nan,nan,nan,nan,nan,nan,nan,nan,nan,601.5298685393063,797.9519125255756,nan,798.2133187288418,nan,nan,nan,nan
1,145,1,1,1.0,1.0,0.2532493135659024,0.0,8,7,3,2,0,6,nan,nan,nan,nan,nan,nan,nan,nan,nan,nan,nan,nan,0.0,nan,nan,nan,nan,nan,nan,nan,nan,nan,nan,nan,nan,nan,nan,nan,nan,nan,nan,601.5298685393063,798.9520527929999,nan,799.2053021065658,nan,nan,nan,nan
1,146,1,1,1.0,1.0,0.21281353826634586,0.0,5,6,7,4,3,2,nan,nan,nan,nan,nan,nan,nan,nan,nan,nan,nan,nan,0.0,nan,nan,nan,nan,nan,nan,nan,nan,nan,nan,nan,nan,nan,nan,nan,nan,nan,nan,601.5298685393063,799.9604637033772,nan,800.1732772416435,nan,nan,nan,nan
1,147,1,1,1.0,1.0,0.2526645811740309,0.0,4,8,5,0,6,7,nan,nan,nan,nan,nan,nan,nan,nan,nan,nan,nan,nan,0.0,nan,nan,nan,nan,nan,nan,nan,nan,nan,nan,nan,nan,nan,nan,nan,nan,nan,nan,601.5298685393063,800.9606002644869,nan,801.2132648456609,nan,nan,nan,nan
1,148,0,0,1.0,0.0,0.2921797805465758,0.0,2,5,4,6,3,8,nan,nan,nan,nan,nan,nan,nan,nan,nan,nan,nan,nan,0.0,nan,nan,nan,nan,nan,nan,nan,nan,nan,nan,nan,nan,nan,nan,nan,nan,nan,nan,601.5298685393063,801.9690545095364,nan,802.2612342900829,nan,nan,nan,nan
1,149,1,1,1.0,1.0,0.43604050297290087,0.0,8,4,3,2,1,0,nan,nan,nan,nan,nan,nan,nan,nan,nan,nan,nan,nan,0.0,nan,nan,nan,nan,nan,nan,nan,nan,nan,nan,nan,nan,nan,nan,nan,nan,nan,nan,601.5298685393063,802.9691619909136,nan,803.4052024938865,nan,nan,nan,nan
1,150,1,1,1.0,1.0,0.403567181667313,0.0,6,0,1,3,8,5,nan,nan,nan,nan,nan,nan,nan,nan,nan,nan,nan,nan,0.0,nan,nan,nan,nan,nan,nan,nan,nan,nan,nan,nan,nan,nan,nan,nan,nan,nan,nan,601.5298685393063,803.977621652768,nan,804.3811888344353,nan,nan,nan,nan
1,151,1,1,1.0,1.0,0.3393837414914742,0.0,7,2,6,5,3,4,nan,nan,nan,nan,nan,nan,nan,nan,nan,nan,nan,nan,0.0,nan,nan,nan,nan,nan,nan,nan,nan,nan,nan,nan,nan,nan,nan,nan,nan,nan,nan,601.5298685393063,804.9777793110115,nan,805.317163052503,nan,nan,nan,nan
1,152,1,1,1.0,1.0,0.35488841752521694,0.0,3,4,5,0,6,2,nan,nan,nan,nan,nan,nan,nan,nan,nan,nan,nan,nan,0.0,nan,nan,nan,nan,nan,nan,nan,nan,nan,nan,nan,nan,nan,nan,nan,nan,nan,nan,601.5298685393063,805.9862463853788,nan,806.341134802904,nan,nan,nan,nan
1,153,1,1,1.0,1.0,0.28275164659135044,0.0,8,6,7,3,1,5,nan,nan,nan,nan,nan,nan,nan,nan,nan,nan,nan,nan,0.0,nan,nan,nan,nan,nan,nan,nan,nan,nan,nan,nan,nan,nan,nan,nan,nan,nan,nan,601.5298685393063,806.9863615642535,nan,807.2691132108448,nan,nan,nan,nan
1,154,1,1,1.0,1.0,0.3146539202425629,0.0,0,3,5,4,7,1,nan,nan,nan,nan,nan,nan,nan,nan,nan,nan,nan,nan,0.0,nan,nan,nan,nan,nan,nan,nan,nan,nan,nan,nan,nan,nan,nan,nan,nan,nan,nan,601.5298685393063,807.9864539353875,nan,808.3011078556301,nan,nan,nan,nan
1,155,1,1,1.0,1.0,0.2821372641483322,0.0,3,2,0,5,6,4,nan,nan,nan,nan,nan,nan,nan,nan,nan,nan,nan,nan,0.0,nan,nan,nan,nan,nan,nan,nan,nan,nan,nan,nan,nan,nan,nan,nan,nan,nan,nan,601.5298685393063,808.9949289924698,nan,809.2770662566181,nan,nan,nan,nan
1,156,1,1,1.0,1.0,0.28959595307242125,0.0,2,6,3,1,5,8,nan,nan,nan,nan,nan,nan,nan,nan,nan,nan,nan,nan,0.0,nan,nan,nan,nan,nan,nan,nan,nan,nan,nan,nan,nan,nan,nan,nan,nan,nan,nan,601.5298685393063,810.0034374058014,nan,810.2930333588738,nan,nan,nan,nan
1,157,0,0,0.0,1.0,0.7694606006843969,0.0,1,4,8,6,0,2,nan,nan,nan,nan,nan,nan,nan,nan,nan,nan,nan,nan,0.0,nan,nan,nan,nan,nan,nan,nan,nan,nan,nan,nan,nan,nan,nan,nan,nan,nan,nan,601.5298685393063,811.0035371895647,nan,811.7729977902491,nan,nan,nan,nan
1,158,1,1,1.0,1.0,0.5530194974271581,0.0,0,2,1,3,7,8,nan,nan,nan,nan,nan,nan,nan,nan,nan,nan,nan,nan,0.0,nan,nan,nan,nan,nan,nan,nan,nan,nan,nan,nan,nan,nan,nan,nan,nan,nan,nan,601.5298685393063,812.011961784563,nan,812.5649812819902,nan,nan,nan,nan
1,159,0,0,0.0,1.0,0.7208442726405337,0.0,8,1,6,5,0,4,nan,nan,nan,nan,nan,nan,nan,nan,nan,nan,nan,nan,0.0,nan,nan,nan,nan,nan,nan,nan,nan,nan,nan,nan,nan,nan,nan,nan,nan,nan,nan,601.5298685393063,813.0121143111028,nan,813.7329585837433,nan,nan,nan,nan
1,160,1,1,1.0,1.0,0.696693196776323,0.0,5,2,7,3,4,6,nan,nan,nan,nan,nan,nan,nan,nan,nan,nan,nan,nan,0.0,nan,nan,nan,nan,nan,nan,nan,nan,nan,nan,nan,nan,nan,nan,nan,nan,nan,nan,601.5298685393063,814.0122329110745,nan,814.7089261078509,nan,nan,nan,nan
1,161,1,1,1.0,1.0,0.7365567839005962,0.0,3,7,6,1,8,2,nan,nan,nan,nan,nan,nan,nan,nan,nan,nan,nan,nan,0.0,nan,nan,nan,nan,nan,nan,nan,nan,nan,nan,nan,nan,nan,nan,nan,nan,nan,nan,601.5298685393063,815.0123503707582,nan,815.7489071546588,nan,nan,nan,nan
1,162,1,1,1.0,1.0,0.7120901063317433,0.0,6,4,1,7,3,5,nan,nan,nan,nan,nan,nan,nan,nan,nan,nan,nan,nan,0.0,nan,nan,nan,nan,nan,nan,nan,nan,nan,nan,nan,nan,nan,nan,nan,nan,nan,nan,601.5298685393063,816.0207991990028,nan,816.7328893053345,nan,nan,nan,nan
1,163,1,1,1.0,1.0,0.6959185901796445,0.0,8,5,3,1,2,6,nan,nan,nan,nan,nan,nan,nan,nan,nan,nan,nan,nan,0.0,nan,nan,nan,nan,nan,nan,nan,nan,nan,nan,nan,nan,nan,nan,nan,nan,nan,nan,601.5298685393063,817.0209474490257,nan,817.7168660392053,nan,nan,nan,nan
1,164,1,1,1.0,1.0,0.7114674561889842,0.0,7,6,2,5,0,1,nan,nan,nan,nan,nan,nan,nan,nan,nan,nan,nan,nan,0.0,nan,nan,nan,nan,nan,nan,nan,nan,nan,nan,nan,nan,nan,nan,nan,nan,nan,nan,601.5298685393063,818.0293751801364,nan,818.7408426363254,nan,nan,nan,nan
1,165,1,1,1.0,1.0,0.7352915265364572,0.0,3,7,5,2,1,4,nan,nan,nan,nan,nan,nan,nan,nan,nan,nan,nan,nan,0.0,nan,nan,nan,nan,nan,nan,nan,nan,nan,nan,nan,nan,nan,nan,nan,nan,nan,nan,601.5298685393063,819.0295148773585,nan,819.7648064038949,nan,nan,nan,nan
1,166,1,1,1.0,1.0,0.6471540122292936,0.0,1,3,8,6,2,5,nan,nan,nan,nan,nan,nan,nan,nan,nan,nan,nan,nan,0.0,nan,nan,nan,nan,nan,nan,nan,nan,nan,nan,nan,nan,nan,nan,nan,nan,nan,nan,601.5298685393063,820.0296346177347,nan,820.676788629964,nan,nan,nan,nan
1,167,1,1,1.0,1.0,0.5267053960124031,0.0,4,5,7,0,1,2,nan,nan,nan,nan,nan,nan,nan,nan,nan,nan,nan,nan,0.0,nan,nan,nan,nan,nan,nan,nan,nan,nan,nan,nan,nan,nan,nan,nan,nan,nan,nan,601.5298685393063,821.0380780291744,nan,821.5647834251868,nan,nan,nan,nan
1,168,0,0,0.0,1.0,0.5425407837610692,1.0,8,3,1,4,5,7,1.0,1.0,1.0,1.0,1.0,1.0,1.0,1.0,0.0,0.0,0.0,1.0,3.0,8.0,3.0,6.0,5.0,1.0,7.0,2.0,1.0,4.0,5.0,6.0,3.0,3.738346903468482,2.3566326366271824,6.546088521834463,8.241238777525723,9.025227599428035,5.074991154833697,601.5298685393063,822.0382248536916,822.8466261848807,822.5807656374527,832.9311786136823,833.9305650865426,823.8634197812062,832.9228825970786
1,169,1,1,1.0,1.0,0.3051291386364028,0.0,0,7,2,3,8,1,nan,nan,nan,nan,nan,nan,nan,nan,nan,nan,nan,nan,0.0,nan,nan,nan,nan,nan,nan,nan,nan,nan,nan,nan,nan,nan,nan,nan,nan,nan,nan,601.5298685393063,834.131380632869,nan,834.4365097715054,nan,nan,nan,nan
1,170,1,1,1.0,1.0,0.32864387962035835,0.0,3,5,4,6,7,2,nan,nan,nan,nan,nan,nan,nan,nan,nan,nan,nan,nan,0.0,nan,nan,nan,nan,nan,nan,nan,nan,nan,nan,nan,nan,nan,nan,nan,nan,nan,nan,601.5298685393063,835.1398177722003,nan,835.4684616518207,nan,nan,nan,nan
1,171,0,0,0.0,1.0,0.7364627020433545,0.0,2,4,3,5,0,8,nan,nan,nan,nan,nan,nan,nan,nan,nan,nan,nan,nan,0.0,nan,nan,nan,nan,nan,nan,nan,nan,nan,nan,nan,nan,nan,nan,nan,nan,nan,nan,601.5298685393063,836.139948631404,nan,836.8764113334473,nan,nan,nan,nan
1,172,1,1,1.0,1.0,0.5839943528408185,0.0,7,0,1,8,3,6,nan,nan,nan,nan,nan,nan,nan,nan,nan,nan,nan,nan,0.0,nan,nan,nan,nan,nan,nan,nan,nan,nan,nan,nan,nan,nan,nan,nan,nan,nan,nan,601.5298685393063,837.1484034465393,nan,837.7323977993801,nan,nan,nan,nan
1,173,1,1,1.0,1.0,0.47183377062901855,0.0,8,2,0,1,6,3,nan,nan,nan,nan,nan,nan,nan,nan,nan,nan,nan,nan,0.0,nan,nan,nan,nan,nan,nan,nan,nan,nan,nan,nan,nan,nan,nan,nan,nan,nan,nan,601.5298685393063,838.1485477052629,nan,838.6203814758919,nan,nan,nan,nan
1,174,1,1,1.0,1.0,0.3996989954030141,0.0,6,0,5,8,4,2,nan,nan,nan,nan,nan,nan,nan,nan,nan,nan,nan,nan,0.0,nan,nan,nan,nan,nan,nan,nan,nan,nan,nan,nan,nan,nan,nan,nan,nan,nan,nan,601.5298685393063,839.14866602025,nan,839.548365015653,nan,nan,nan,nan
1,175,0,0,1.0,0.0,0.3352207657881081,1.0,0,4,1,3,2,5,1.0,1.0,1.0,1.0,1.0,1.0,1.0,0.0,0.0,0.0,0.0,1.0,2.0,0.0,1.0,3.0,7.0,4.0,5.0,2.0,3.0,4.0,5.0,6.0,1.0,3.346331537817605,5.154366805450991,6.538918920559809,7.562202163506299,8.658614027197473,2.2212224529357627,601.5298685393063,840.1571119974833,840.9655235921964,840.4923327632714,850.6750438406598,851.6829723682022,841.9739832540508,850.6667167486157
1,176,1,1,1.0,1.0,0.27248589985538274,0.0,8,1,0,4,5,3,nan,nan,nan,nan,nan,nan,nan,nan,nan,nan,nan,nan,0.0,nan,nan,nan,nan,nan,nan,nan,nan,nan,nan,nan,nan,nan,nan,nan,nan,nan,nan,601.5298685393063,851.8836065933574,nan,852.1560924932128,nan,nan,nan,nan
1,177,1,1,1.0,1.0,0.3280360543867573,0.0,7,0,6,8,1,2,nan,nan,nan,nan,nan,nan,nan,nan,nan,nan,nan,nan,0.0,nan,nan,nan,nan,nan,nan,nan,nan,nan,nan,nan,nan,nan,nan,nan,nan,nan,nan,601.5298685393063,852.8920212100493,nan,853.220057264436,nan,nan,nan,nan
1,178,1,1,1.0,1.0,0.3115831481991336,0.0,3,8,7,5,4,6,nan,nan,nan,nan,nan,nan,nan,nan,nan,nan,nan,nan,0.0,nan,nan,nan,nan,nan,nan,nan,nan,nan,nan,nan,nan,nan,nan,nan,nan,nan,nan,601.5298685393063,853.9004344012355,nan,854.2120175494347,nan,nan,nan,nan
1,179,0,0,1.0,0.0,0.3033983191708103,1.0,4,2,8,6,5,0,1.0,1.0,1.0,1.0,1.0,1.0,0.0,0.0,0.0,0.0,0.0,0.0,0.0,6.0,1.0,2.0,0.0,4.0,8.0,3.0,4.0,5.0,6.0,1.0,2.0,5.091009004157968,6.012103762477636,6.65053496893961,7.490620475029573,1.93276374891866,3.1650513586355373,601.5298685393063,854.9006023228867,855.7090110665886,855.2040006420575,864.2433903991478,865.2546656718478,856.7174721539486,864.2350519031752
1,180,1,1,1.0,1.0,0.6955331399803981,0.0,7,8,6,2,0,4,nan,nan,nan,nan,nan,nan,nan,nan,nan,nan,nan,nan,0.0,nan,nan,nan,nan,nan,nan,nan,nan,nan,nan,nan,nan,nan,nan,nan,nan,nan,nan,601.5298685393063,865.4602292117197,nan,866.1557623517001,nan,nan,nan,nan
1,181,1,1,1.0,1.0,0.5673490065382794,0.0,6,5,3,7,4,2,nan,nan,nan,nan,nan,nan,nan,nan,nan,nan,nan,nan,0.0,nan,nan,nan,nan,nan,nan,nan,nan,nan,nan,nan,nan,nan,nan,nan,nan,nan,nan,601.5298685393063,866.4603686238406,nan,867.0277176303789,nan,nan,nan,nan
1,182,0,0,0.0,1.0,0.5832103380234912,1.0,2,7,5,4,0,8,1.0,1.0,1.0,1.0,1.0,1.0,1.0,1.0,0.0,0.0,1.0,1.0,4.0,2.0,7.0,3.0,6.0,0.0,8.0,1.0,3.0,4.0,5.0,6.0,2.0,1.4671801440417767,3.401975774206221,4.355125047499314,5.42571003944613,6.266120555228554,2.530237168772146,601.5298685393063,867.4604917854303,868.2688879847992,868.0437021234538,875.6031134794466,876.6112107839435,869.2940175111871,875.5947926595109
1,183,1,1,1.0,1.0,0.4955455132294446,0.0,7,0,3,1,4,2,nan,nan,nan,nan,nan,nan,nan,nan,nan,nan,nan,nan,0.0,nan,nan,nan,nan,nan,nan,nan,nan,nan,nan,nan,nan,nan,nan,nan,nan,nan,nan,601.5298685393063,876.8199582790257,nan,877.3155037922552,nan,nan,nan,nan
1,184,1,1,1.0,1.0,0.415358763653785,0.0,6,2,7,0,5,1,nan,nan,nan,nan,nan,nan,nan,nan,nan,nan,nan,nan,0.0,nan,nan,nan,nan,nan,nan,nan,nan,nan,nan,nan,nan,nan,nan,nan,nan,nan,nan,601.5298685393063,877.8201031079516,nan,878.2354618716054,nan,nan,nan,nan
1,185,1,1,1.0,1.0,0.3672256738645956,0.0,3,5,1,4,7,2,nan,nan,nan,nan,nan,nan,nan,nan,nan,nan,nan,nan,0.0,nan,nan,nan,nan,nan,nan,nan,nan,nan,nan,nan,nan,nan,nan,nan,nan,nan,nan,601.5298685393063,878.8202194272308,nan,879.1874451010954,nan,nan,nan,nan
1,186,1,1,1.0,1.0,0.34311023505870253,0.0,1,2,5,3,0,7,nan,nan,nan,nan,nan,nan,nan,nan,nan,nan,nan,nan,0.0,nan,nan,nan,nan,nan,nan,nan,nan,nan,nan,nan,nan,nan,nan,nan,nan,nan,nan,601.5298685393063,879.8203425888205,nan,880.1634528238792,nan,nan,nan,nan
1,187,1,1,1.0,1.0,0.3509244389133528,0.0,4,8,1,5,6,0,nan,nan,nan,nan,nan,nan,nan,nan,nan,nan,nan,nan,0.0,nan,nan,nan,nan,nan,nan,nan,nan,nan,nan,nan,nan,nan,nan,nan,nan,nan,nan,601.5298685393063,880.8204680312192,nan,881.1713924701326,nan,nan,nan,nan
1,188,1,1,1.0,1.0,0.2947875562822446,0.0,8,2,0,6,3,4,nan,nan,nan,nan,nan,nan,nan,nan,nan,nan,nan,nan,0.0,nan,nan,nan,nan,nan,nan,nan,nan,nan,nan,nan,nan,nan,nan,nan,nan,nan,nan,601.5298685393063,881.820592333097,nan,882.1153798893793,nan,nan,nan,nan
1,189,1,1,1.0,1.0,0.2706296379910782,0.0,7,1,8,5,0,3,nan,nan,nan,nan,nan,nan,nan,nan,nan,nan,nan,nan,0.0,nan,nan,nan,nan,nan,nan,nan,nan,nan,nan,nan,nan,nan,nan,nan,nan,nan,nan,601.5298685393063,882.8207186307991,nan,883.0913482687902,nan,nan,nan,nan
1,190,1,1,1.0,1.0,0.4061735317809507,0.0,8,7,5,2,4,1,nan,nan,nan,nan,nan,nan,nan,nan,nan,nan,nan,nan,0.0,nan,nan,nan,nan,nan,nan,nan,nan,nan,nan,nan,nan,nan,nan,nan,nan,nan,nan,601.5298685393063,883.829158050823,nan,884.235331582604,nan,nan,nan,nan
1,191,1,1,1.0,1.0,0.4220017921179533,0.0,0,1,2,3,7,6,nan,nan,nan,nan,nan,nan,nan,nan,nan,nan,nan,nan,0.0,nan,nan,nan,nan,nan,nan,nan,nan,nan,nan,nan,nan,nan,nan,nan,nan,nan,nan,601.5298685393063,884.8292980331462,nan,885.2512998252641,nan,nan,nan,nan
1,192,1,1,1.0,1.0,0.4055426138220355,0.0,3,4,7,2,8,1,nan,nan,nan,nan,nan,nan,nan,nan,nan,nan,nan,nan,0.0,nan,nan,nan,nan,nan,nan,nan,nan,nan,nan,nan,nan,nan,nan,nan,nan,nan,nan,601.5298685393063,885.8377403040649,nan,886.243282917887,nan,nan,nan,nan
1,193,1,1,1.0,1.0,0.33307798206806183,0.0,2,6,0,8,4,3,nan,nan,nan,nan,nan,nan,nan,nan,nan,nan,nan,nan,0.0,nan,nan,nan,nan,nan,nan,nan,nan,nan,nan,nan,nan,nan,nan,nan,nan,nan,nan,601.5298685393063,886.8461976852268,nan,887.1792756672949,nan,nan,nan,nan
1,194,1,1,1.0,1.0,0.30891863838769495,0.0,6,1,3,0,7,5,nan,nan,nan,nan,nan,nan,nan,nan,nan,nan,nan,nan,0.0,nan,nan,nan,nan,nan,nan,nan,nan,nan,nan,nan,nan,nan,nan,nan,nan,nan,nan,601.5298685393063,887.8463236977113,nan,888.155242336099,nan,nan,nan,nan
1,195,1,1,1.0,1.0,0.29275510483421385,0.0,8,2,4,6,1,7,nan,nan,nan,nan,nan,nan,nan,nan,nan,nan,nan,nan,0.0,nan,nan,nan,nan,nan,nan,nan,nan,nan,nan,nan,nan,nan,nan,nan,nan,nan,nan,601.5298685393063,888.846459118533,nan,889.1392142233672,nan,nan,nan,nan
1,196,1,1,1.0,1.0,0.35660526738502085,0.0,6,5,2,8,3,1,nan,nan,nan,nan,nan,nan,nan,nan,nan,nan,nan,nan,0.0,nan,nan,nan,nan,nan,nan,nan,nan,nan,nan,nan,nan,nan,nan,nan,nan,nan,nan,601.5298685393063,889.8465745825088,nan,890.2031798498938,nan,nan,nan,nan
1,197,1,1,1.0,1.0,0.30813547887373716,0.0,1,2,4,6,8,7,nan,nan,nan,nan,nan,nan,nan,nan,nan,nan,nan,nan,0.0,nan,nan,nan,nan,nan,nan,nan,nan,nan,nan,nan,nan,nan,nan,nan,nan,nan,nan,601.5298685393063,890.8550396611681,nan,891.1631751400419,nan,nan,nan,nan
1,198,1,1,1.0,1.0,0.22797695396002382,0.0,6,5,8,4,0,2,nan,nan,nan,nan,nan,nan,nan,nan,nan,nan,nan,nan,0.0,nan,nan,nan,nan,nan,nan,nan,nan,nan,nan,nan,nan,nan,nan,nan,nan,nan,nan,601.5298685393063,891.8551625376567,nan,892.0831394916167,nan,nan,nan,nan
1,199,1,1,1.0,1.0,0.3158253808505833,0.0,1,7,0,8,2,4,nan,nan,nan,nan,nan,nan,nan,nan,nan,nan,nan,nan,0.0,nan,nan,nan,nan,nan,nan,nan,nan,nan,nan,nan,nan,nan,nan,nan,nan,nan,nan,601.5298685393063,892.8552785718348,nan,893.1711039526854,nan,nan,nan,nan
1,200,1,1,1.0,1.0,0.29168285778723657,0.0,3,6,5,1,7,0,nan,nan,nan,nan,nan,nan,nan,nan,nan,nan,nan,nan,0.0,nan,nan,nan,nan,nan,nan,nan,nan,nan,nan,nan,nan,nan,nan,nan,nan,nan,nan,601.5298685393063,893.8554171286523,nan,894.1470999864396,nan,nan,nan,nan
1,201,1,1,1.0,1.0,0.29155228356830776,0.0,8,2,3,4,6,1,nan,nan,nan,nan,nan,nan,nan,nan,nan,nan,nan,nan,0.0,nan,nan,nan,nan,nan,nan,nan,nan,nan,nan,nan,nan,nan,nan,nan,nan,nan,nan,601.5298685393063,894.8555228994228,nan,895.1470751829911,nan,nan,nan,nan
1,202,1,1,1.0,1.0,0.2673977866070345,0.0,3,8,1,2,0,5,nan,nan,nan,nan,nan,nan,nan,nan,nan,nan,nan,nan,0.0,nan,nan,nan,nan,nan,nan,nan,nan,nan,nan,nan,nan,nan,nan,nan,nan,nan,nan,601.5298685393063,895.8556434951024,nan,896.1230412817094,nan,nan,nan,nan
1,203,1,1,1.0,1.0,0.2752464871155098,0.0,7,6,3,5,4,0,nan,nan,nan,nan,nan,nan,nan,nan,nan,nan,nan,nan,0.0,nan,nan,nan,nan,nan,nan,nan,nan,nan,nan,nan,nan,nan,nan,nan,nan,nan,nan,601.5298685393063,896.8557686524,nan,897.1310151395155,nan,nan,nan,nan
1,204,1,1,1.0,1.0,0.2431055880151689,0.0,6,8,0,2,1,5,nan,nan,nan,nan,nan,nan,nan,nan,nan,nan,nan,nan,0.0,nan,nan,nan,nan,nan,nan,nan,nan,nan,nan,nan,nan,nan,nan,nan,nan,nan,nan,601.5298685393063,897.8558972307947,nan,898.0990028188098,nan,nan,nan,nan
1,205,1,1,1.0,1.0,0.26693593070376664,0.0,2,4,8,0,7,3,nan,nan,nan,nan,nan,nan,nan,nan,nan,nan,nan,nan,0.0,nan,nan,nan,nan,nan,nan,nan,nan,nan,nan,nan,nan,nan,nan,nan,nan,nan,nan,601.5298685393063,898.8560372130014,nan,899.1229731437052,nan,nan,nan,nan
1,206,1,1,1.0,1.0,0.2668255983153358,0.0,0,1,6,4,5,7,nan,nan,nan,nan,nan,nan,nan,nan,nan,nan,nan,nan,0.0,nan,nan,nan,nan,nan,nan,nan,nan,nan,nan,nan,nan,nan,nan,nan,nan,nan,nan,601.5298685393063,899.8561498260824,nan,900.1229754243977,nan,nan,nan,nan
1,207,1,1,1.0,1.0,0.25033562968019396,0.0,2,7,1,5,3,6,nan,nan,nan,nan,nan,nan,nan,nan,nan,nan,nan,nan,0.0,nan,nan,nan,nan,nan,nan,nan,nan,nan,nan,nan,nan,nan,nan,nan,nan,nan,nan,601.5298685393063,900.8646009350196,nan,901.1149365646997,nan,nan,nan,nan
1,208,0,0,0.0,1.0,0.7141735899494961,0.0,4,3,8,1,0,2,nan,nan,nan,nan,nan,nan,nan,nan,nan,nan,nan,nan,0.0,nan,nan,nan,nan,nan,nan,nan,nan,nan,nan,nan,nan,nan,nan,nan,nan,nan,nan,601.5298685393063,901.8647275178228,nan,902.5789011077723,nan,nan,nan,nan
1,209,1,1,1.0,1.0,0.6580213120905682,0.0,8,7,3,0,5,1,nan,nan,nan,nan,nan,nan,nan,nan,nan,nan,nan,nan,0.0,nan,nan,nan,nan,nan,nan,nan,nan,nan,nan,nan,nan,nan,nan,nan,nan,nan,nan,601.5298685393063,902.8648523900192,nan,903.5228737021098,nan,nan,nan,nan
1,210,0,0,0.0,1.0,0.7458734451793134,0.0,0,1,6,3,4,5,nan,nan,nan,nan,nan,nan,nan,nan,nan,nan,nan,nan,0.0,nan,nan,nan,nan,nan,nan,nan,nan,nan,nan,nan,nan,nan,nan,nan,nan,nan,nan,601.5298685393063,903.8649821088184,nan,904.6108555539977,nan,nan,nan,nan
1,211,1,1,1.0,1.0,0.7457283311523497,0.0,6,7,5,1,0,4,nan,nan,nan,nan,nan,nan,nan,nan,nan,nan,nan,nan,0.0,nan,nan,nan,nan,nan,nan,nan,nan,nan,nan,nan,nan,nan,nan,nan,nan,nan,nan,601.5298685393063,904.865104985307,nan,905.6108333164593,nan,nan,nan,nan
1,212,1,1,1.0,1.0,0.6092641465365887,0.0,8,1,3,6,2,7,nan,nan,nan,nan,nan,nan,nan,nan,nan,nan,nan,nan,0.0,nan,nan,nan,nan,nan,nan,nan,nan,nan,nan,nan,nan,nan,nan,nan,nan,nan,nan,601.5298685393063,905.873555809143,nan,906.4828199556796,nan,nan,nan,nan
1,213,1,1,1.0,1.0,0.3607961826492101,0.0,4,5,0,2,8,6,nan,nan,nan,nan,nan,nan,nan,nan,nan,nan,nan,nan,0.0,nan,nan,nan,nan,nan,nan,nan,nan,nan,nan,nan,nan,nan,nan,nan,nan,nan,nan,601.5298685393063,906.8819997907849,nan,907.2427959734341,nan,nan,nan,nan
1,214,1,1,1.0,1.0,0.3126325876219198,0.0,2,7,4,3,1,5,nan,nan,nan,nan,nan,nan,nan,nan,nan,nan,nan,nan,0.0,nan,nan,nan,nan,nan,nan,nan,nan,nan,nan,nan,nan,nan,nan,nan,nan,nan,nan,601.5298685393063,907.8821414835984,nan,908.1947740712203,nan,nan,nan,nan
1,215,1,1,1.0,1.0,0.32047929242253304,0.0,0,4,5,1,6,2,nan,nan,nan,nan,nan,nan,nan,nan,nan,nan,nan,nan,0.0,nan,nan,nan,nan,nan,nan,nan,nan,nan,nan,nan,nan,nan,nan,nan,nan,nan,nan,601.5298685393063,908.8822652153904,nan,909.2027445078129,nan,nan,nan,nan
1,216,1,1,1.0,1.0,0.25635401206091046,0.0,7,8,6,5,1,0,nan,nan,nan,nan,nan,nan,nan,nan,nan,nan,nan,nan,0.0,nan,nan,nan,nan,nan,nan,nan,nan,nan,nan,nan,nan,nan,nan,nan,nan,nan,nan,601.5298685393063,909.8823789687594,nan,910.1387329808204,nan,nan,nan,nan
1,217,1,1,1.0,1.0,0.21624638244975358,0.0,8,7,3,0,6,1,nan,nan,nan,nan,nan,nan,nan,nan,nan,nan,nan,nan,0.0,nan,nan,nan,nan,nan,nan,nan,nan,nan,nan,nan,nan,nan,nan,nan,nan,nan,nan,601.5298685393063,910.8824756164104,nan,911.0987219988601,nan,nan,nan,nan
1,218,1,1,1.0,1.0,0.34373145981226116,0.0,6,5,2,1,8,0,nan,nan,nan,nan,nan,nan,nan,nan,nan,nan,nan,nan,0.0,nan,nan,nan,nan,nan,nan,nan,nan,nan,nan,nan,nan,nan,nan,nan,nan,nan,nan,601.5298685393063,911.8909575158032,nan,912.2346889756154,nan,nan,nan,nan
1,219,1,1,1.0,1.0,0.32756364985834807,0.0,5,3,8,6,2,4,nan,nan,nan,nan,nan,nan,nan,nan,nan,nan,nan,nan,0.0,nan,nan,nan,nan,nan,nan,nan,nan,nan,nan,nan,nan,nan,nan,nan,nan,nan,nan,601.5298685393063,912.8910935067106,nan,913.218657156569,nan,nan,nan,nan
1,220,1,1,1.0,1.0,0.2074106786167249,0.0,1,5,2,0,3,7,nan,nan,nan,nan,nan,nan,nan,nan,nan,nan,nan,nan,0.0,nan,nan,nan,nan,nan,nan,nan,nan,nan,nan,nan,nan,nan,nan,nan,nan,nan,nan,601.5298685393063,913.8912189491093,nan,914.098629627726,nan,nan,nan,nan
1,221,1,1,1.0,1.0,0.2309448062442243,0.0,2,8,6,4,5,1,nan,nan,nan,nan,nan,nan,nan,nan,nan,nan,nan,nan,0.0,nan,nan,nan,nan,nan,nan,nan,nan,nan,nan,nan,nan,nan,nan,nan,nan,nan,nan,601.5298685393063,914.8996629306348,nan,915.130607736879,nan,nan,nan,nan
1,222,0,0,1.0,0.0,0.20648924738634378,1.0,6,1,5,8,0,3,1.0,1.0,1.0,1.0,1.0,1.0,1.0,0.0,0.0,0.0,0.0,0.0,1.0,6.0,5.0,0.0,7.0,3.0,1.0,1.0,2.0,5.0,6.0,4.0,3.0,1.6608545989729464,2.6978084933944046,6.3456359029514715,7.16943186300341,5.226522107725032,4.105573147651739,601.5298685393063,915.9081148949917,916.716535612708,916.1146041423781,924.9342032000422,925.9373090389417,917.7249992658617,924.9258695507888
1,223,1,1,1.0,1.0,0.5956604925449938,0.0,2,8,6,5,3,4,nan,nan,nan,nan,nan,nan,nan,nan,nan,nan,nan,nan,0.0,nan,nan,nan,nan,nan,nan,nan,nan,nan,nan,nan,nan,nan,nan,nan,nan,nan,nan,601.5298685393063,926.1426949638408,nan,926.7383554563858,nan,nan,nan,nan
1,224,0,0,0.0,1.0,0.5714484060881659,1.0,1,3,4,2,5,6,1.0,1.0,1.0,1.0,1.0,1.0,1.0,1.0,1.0,0.0,0.0,1.0,4.0,1.0,3.0,4.0,7.0,2.0,6.0,1.0,2.0,4.0,3.0,5.0,6.0,1.5203716971445829,2.4707757784053683,5.342911237850785,3.4958032402209938,6.342780948849395,7.558908446226269,601.5298685393063,927.1428680171957,927.951248251251,927.7143164232839,936.560645252699,937.5590515645454,928.9597170362249,936.5523130288348
1,225,1,1,1.0,1.0,0.385271413018927,0.0,4,0,6,3,7,8,nan,nan,nan,nan,nan,nan,nan,nan,nan,nan,nan,nan,0.0,nan,nan,nan,nan,nan,nan,nan,nan,nan,nan,nan,nan,nan,nan,nan,nan,nan,nan,601.5298685393063,937.7608190474566,nan,938.1460904604755,nan,nan,nan,nan
1,226,1,1,1.0,1.0,0.32911770965438336,0.0,8,3,5,1,4,7,nan,nan,nan,nan,nan,nan,nan,nan,nan,nan,nan,nan,0.0,nan,nan,nan,nan,nan,nan,nan,nan,nan,nan,nan,nan,nan,nan,nan,nan,nan,nan,601.5298685393063,938.7609339412302,nan,939.0900516508846,nan,nan,nan,nan
1,227,1,1,1.0,1.0,0.2649667705409229,0.0,3,6,7,8,0,2,nan,nan,nan,nan,nan,nan,nan,nan,nan,nan,nan,nan,0.0,nan,nan,nan,nan,nan,nan,nan,nan,nan,nan,nan,nan,nan,nan,nan,nan,nan,nan,601.5298685393063,939.7610699321376,nan,940.0260367026785,nan,nan,nan,nan
1,228,1,1,1.0,1.0,0.25679391564335674,0.0,6,5,4,2,3,0,nan,nan,nan,nan,nan,nan,nan,nan,nan,nan,nan,nan,0.0,nan,nan,nan,nan,nan,nan,nan,nan,nan,nan,nan,nan,nan,nan,nan,nan,nan,nan,601.5298685393063,940.7612130504567,nan,941.0180069661001,nan,nan,nan,nan
1,229,1,1,1.0,1.0,0.2086793570779264,0.0,4,2,5,3,1,7,nan,nan,nan,nan,nan,nan,nan,nan,nan,nan,nan,nan,0.0,nan,nan,nan,nan,nan,nan,nan,nan,nan,nan,nan,nan,nan,nan,nan,nan,nan,nan,601.5298685393063,941.7613148298115,nan,941.9699941868894,nan,nan,nan,nan
1,230,1,1,1.0,1.0,0.22451816592365503,0.0,8,3,1,7,5,6,nan,nan,nan,nan,nan,nan,nan,nan,nan,nan,nan,nan,0.0,nan,nan,nan,nan,nan,nan,nan,nan,nan,nan,nan,nan,nan,nan,nan,nan,nan,nan,601.5298685393063,942.7614550972357,nan,942.9859732631594,nan,nan,nan,nan
1,231,1,1,1.0,1.0,0.24038919061422348,0.0,4,7,8,2,1,5,nan,nan,nan,nan,nan,nan,nan,nan,nan,nan,nan,nan,0.0,nan,nan,nan,nan,nan,nan,nan,nan,nan,nan,nan,nan,nan,nan,nan,nan,nan,nan,601.5298685393063,943.7615585871972,nan,944.0019477778114,nan,nan,nan,nan
1,232,1,1,1.0,1.0,0.32827496505342424,0.0,6,0,2,4,5,7,nan,nan,nan,nan,nan,nan,nan,nan,nan,nan,nan,nan,0.0,nan,nan,nan,nan,nan,nan,nan,nan,nan,nan,nan,nan,nan,nan,nan,nan,nan,nan,601.5298685393063,944.761652668938,nan,945.0899276339915,nan,nan,nan,nan
1,233,1,1,1.0,1.0,0.3280976351816207,0.0,2,5,6,3,1,4,nan,nan,nan,nan,nan,nan,nan,nan,nan,nan,nan,nan,0.0,nan,nan,nan,nan,nan,nan,nan,nan,nan,nan,nan,nan,nan,nan,nan,nan,nan,nan,601.5298685393063,945.7618017742643,nan,946.0898994094459,nan,nan,nan,nan
1,234,1,1,1.0,1.0,0.28794239461421967,0.0,4,8,1,2,7,6,nan,nan,nan,nan,nan,nan,nan,nan,nan,nan,nan,nan,0.0,nan,nan,nan,nan,nan,nan,nan,nan,nan,nan,nan,nan,nan,nan,nan,nan,nan,nan,601.5298685393063,946.7619306377601,nan,947.0498730323743,nan,nan,nan,nan
1,235,1,1,1.0,1.0,0.23980531352572143,0.0,1,7,4,5,0,3,nan,nan,nan,nan,nan,nan,nan,nan,nan,nan,nan,nan,0.0,nan,nan,nan,nan,nan,nan,nan,nan,nan,nan,nan,nan,nan,nan,nan,nan,nan,nan,601.5298685393063,947.7620392594254,nan,948.0018445729511,nan,nan,nan,nan
1,236,1,1,1.0,1.0,0.20764046616386622,0.0,4,2,5,7,1,8,nan,nan,nan,nan,nan,nan,nan,nan,nan,nan,nan,nan,0.0,nan,nan,nan,nan,nan,nan,nan,nan,nan,nan,nan,nan,nan,nan,nan,nan,nan,nan,601.5298685393063,948.7621823778609,nan,948.9698228440247,nan,nan,nan,nan
1,237,1,1,1.0,1.0,0.18353129946626723,0.0,8,3,1,6,7,0,nan,nan,nan,nan,nan,nan,nan,nan,nan,nan,nan,nan,0.0,nan,nan,nan,nan,nan,nan,nan,nan,nan,nan,nan,nan,nan,nan,nan,nan,nan,nan,601.5298685393063,949.7622784551932,nan,949.9458097546594,nan,nan,nan,nan
1,238,1,1,1.0,1.0,0.2073539444245398,0.0,5,8,2,4,1,7,nan,nan,nan,nan,nan,nan,nan,nan,nan,nan,nan,nan,0.0,nan,nan,nan,nan,nan,nan,nan,nan,nan,nan,nan,nan,nan,nan,nan,nan,nan,nan,601.5298685393063,950.7624181524152,nan,950.9697720968397,nan,nan,nan,nan
1,239,1,1,1.0,1.0,0.22322496911510825,0.0,6,1,5,2,0,4,nan,nan,nan,nan,nan,nan,nan,nan,nan,nan,nan,nan,0.0,nan,nan,nan,nan,nan,nan,nan,nan,nan,nan,nan,nan,nan,nan,nan,nan,nan,nan,601.5298685393063,951.762524778489,nan,951.9857497476041,nan,nan,nan,nan
1,240,1,1,1.0,1.0,0.23905436985660344,0.0,1,5,2,4,3,7,nan,nan,nan,nan,nan,nan,nan,nan,nan,nan,nan,nan,0.0,nan,nan,nan,nan,nan,nan,nan,nan,nan,nan,nan,nan,nan,nan,nan,nan,nan,nan,601.5298685393063,952.7626835770207,nan,953.0017379468773,nan,nan,nan,nan
1,241,1,1,1.0,1.0,0.20690377743449062,0.0,6,4,0,2,1,3,nan,nan,nan,nan,nan,nan,nan,nan,nan,nan,nan,nan,0.0,nan,nan,nan,nan,nan,nan,nan,nan,nan,nan,nan,nan,nan,nan,nan,nan,nan,nan,601.5298685393063,953.7628041728167,nan,953.9697079502512,nan,nan,nan,nan
1,242,1,1,1.0,1.0,0.19874859845731407,0.0,3,6,7,4,2,0,nan,nan,nan,nan,nan,nan,nan,nan,nan,nan,nan,nan,0.0,nan,nan,nan,nan,nan,nan,nan,nan,nan,nan,nan,nan,nan,nan,nan,nan,nan,nan,601.5298685393063,954.762929615099,nan,954.9616782135563,nan,nan,nan,nan
1,243,1,1,1.0,1.0,0.35863258701283485,0.0,7,4,8,0,6,3,nan,nan,nan,nan,nan,nan,nan,nan,nan,nan,nan,nan,0.0,nan,nan,nan,nan,nan,nan,nan,nan,nan,nan,nan,nan,nan,nan,nan,nan,nan,nan,601.5298685393063,955.7630373815773,nan,956.1216699685901,nan,nan,nan,nan
1,244,1,1,1.0,1.0,0.2544655343517661,0.0,8,6,5,1,4,0,nan,nan,nan,nan,nan,nan,nan,nan,nan,nan,nan,nan,0.0,nan,nan,nan,nan,nan,nan,nan,nan,nan,nan,nan,nan,nan,nan,nan,nan,nan,nan,601.5298685393063,956.7631770786829,nan,957.0176426130347,nan,nan,nan,nan
1,245,1,1,1.0,1.0,0.2462995215319097,0.0,3,8,4,0,2,5,nan,nan,nan,nan,nan,nan,nan,nan,nan,nan,nan,nan,0.0,nan,nan,nan,nan,nan,nan,nan,nan,nan,nan,nan,nan,nan,nan,nan,nan,nan,nan,601.5298685393063,957.7633116442012,nan,958.0096111657331,nan,nan,nan,nan
1,246,1,1,1.0,1.0,0.26217140164226294,0.0,8,6,0,2,7,1,nan,nan,nan,nan,nan,nan,nan,nan,nan,nan,nan,nan,0.0,nan,nan,nan,nan,nan,nan,nan,nan,nan,nan,nan,nan,nan,nan,nan,nan,nan,nan,601.5298685393063,958.7634234018624,nan,959.0255948035046,nan,nan,nan,nan
1,247,1,1,1.0,1.0,0.2060444972012192,0.0,6,4,1,5,0,8,nan,nan,nan,nan,nan,nan,nan,nan,nan,nan,nan,nan,0.0,nan,nan,nan,nan,nan,nan,nan,nan,nan,nan,nan,nan,nan,nan,nan,nan,nan,nan,601.5298685393063,959.763529457734,nan,959.9695739549352,nan,nan,nan,nan
1,248,1,1,1.0,1.0,0.22988937981426716,0.0,3,8,6,0,4,7,nan,nan,nan,nan,nan,nan,nan,nan,nan,nan,nan,nan,0.0,nan,nan,nan,nan,nan,nan,nan,nan,nan,nan,nan,nan,nan,nan,nan,nan,nan,nan,601.5298685393063,960.7636608871398,nan,960.9935502669541,nan,nan,nan,nan
1,249,0,0,1.0,0.0,0.22173077962361276,1.0,1,7,4,2,5,6,1.0,1.0,1.0,1.0,1.0,1.0,1.0,1.0,0.0,0.0,0.0,0.0,2.0,1.0,7.0,3.0,4.0,2.0,5.0,2.0,1.0,6.0,5.0,4.0,3.0,2.4965681534959003,1.7948926141252741,5.992661906871945,5.224503625999205,4.480459643527865,3.3298204719321802,601.5298685393063,961.763794027036,962.5721888010157,961.9855248066597,969.6230511175236,970.630331336055,963.5889835377457,969.6147137619555
1,250,1,1,1.0,1.0,0.36976445629261434,0.0,6,5,8,3,0,4,nan,nan,nan,nan,nan,nan,nan,nan,nan,nan,nan,nan,0.0,nan,nan,nan,nan,nan,nan,nan,nan,nan,nan,nan,nan,nan,nan,nan,nan,nan,nan,601.5298685393063,970.8315614124294,nan,971.201325868722,nan,nan,nan,nan
1,251,1,1,1.0,1.0,0.26560909242834896,0.0,8,3,1,0,4,6,nan,nan,nan,nan,nan,nan,nan,nan,nan,nan,nan,nan,0.0,nan,nan,nan,nan,nan,nan,nan,nan,nan,nan,nan,nan,nan,nan,nan,nan,nan,nan,601.5298685393063,971.8316811529221,nan,972.0972902453505,nan,nan,nan,nan
1,252,1,1,1.0,1.0,0.25745676434598863,0.0,0,1,5,6,3,8,nan,nan,nan,nan,nan,nan,nan,nan,nan,nan,nan,nan,0.0,nan,nan,nan,nan,nan,nan,nan,nan,nan,nan,nan,nan,nan,nan,nan,nan,nan,nan,601.5298685393063,972.8318057400174,nan,973.0892625043634,nan,nan,nan,nan
1,253,1,1,1.0,1.0,0.3373293378390372,0.0,3,5,2,1,7,4,nan,nan,nan,nan,nan,nan,nan,nan,nan,nan,nan,nan,0.0,nan,nan,nan,nan,nan,nan,nan,nan,nan,nan,nan,nan,nan,nan,nan,nan,nan,nan,601.5298685393063,973.8319226293825,nan,974.1692519672215,nan,nan,nan,nan
1,254,1,1,1.0,1.0,0.3211321629351005,0.0,0,7,1,6,4,2,nan,nan,nan,nan,nan,nan,nan,nan,nan,nan,nan,nan,0.0,nan,nan,nan,nan,nan,nan,nan,nan,nan,nan,nan,nan,nan,nan,nan,nan,nan,nan,601.5298685393063,974.8321025251644,nan,975.1532346880995,nan,nan,nan,nan
1,255,1,1,1.0,1.0,0.257009448367171,0.0,1,3,4,7,2,8,nan,nan,nan,nan,nan,nan,nan,nan,nan,nan,nan,nan,0.0,nan,nan,nan,nan,nan,nan,nan,nan,nan,nan,nan,nan,nan,nan,nan,nan,nan,nan,601.5298685393063,975.8321891945088,nan,976.089198642876,nan,nan,nan,nan
1,256,1,1,1.0,1.0,0.22487425117287785,0.0,7,4,6,2,3,5,nan,nan,nan,nan,nan,nan,nan,nan,nan,nan,nan,nan,0.0,nan,nan,nan,nan,nan,nan,nan,nan,nan,nan,nan,nan,nan,nan,nan,nan,nan,nan,601.5298685393063,976.8323038031813,nan,977.0571780543542,nan,nan,nan,nan
1,257,1,1,1.0,1.0,0.24871770828031003,0.0,1,0,3,8,4,2,nan,nan,nan,nan,nan,nan,nan,nan,nan,nan,nan,nan,0.0,nan,nan,nan,nan,nan,nan,nan,nan,nan,nan,nan,nan,nan,nan,nan,nan,nan,nan,601.5298685393063,977.8324366579764,nan,978.0811543662567,nan,nan,nan,nan
1,258,1,1,1.0,1.0,0.2965651316335425,0.0,5,2,0,1,3,6,nan,nan,nan,nan,nan,nan,nan,nan,nan,nan,nan,nan,0.0,nan,nan,nan,nan,nan,nan,nan,nan,nan,nan,nan,nan,nan,nan,nan,nan,nan,nan,601.5298685393063,978.8325598195661,nan,979.1291249511996,nan,nan,nan,nan
1,259,1,1,1.0,1.0,0.2564158778404817,0.0,4,0,3,8,7,5,nan,nan,nan,nan,nan,nan,nan,nan,nan,nan,nan,nan,0.0,nan,nan,nan,nan,nan,nan,nan,nan,nan,nan,nan,nan,nan,nan,nan,nan,nan,nan,601.5298685393063,979.83268241107,nan,980.0890982889105,nan,nan,nan,nan
1,260,1,1,1.0,1.0,0.3442948100855574,0.0,8,2,5,7,0,6,nan,nan,nan,nan,nan,nan,nan,nan,nan,nan,nan,nan,0.0,nan,nan,nan,nan,nan,nan,nan,nan,nan,nan,nan,nan,nan,nan,nan,nan,nan,nan,601.5298685393063,980.8327910327353,nan,981.1770858428208,nan,nan,nan,nan
1,261,1,1,1.0,1.0,0.2721708684694022,0.0,5,3,7,4,2,8,nan,nan,nan,nan,nan,nan,nan,nan,nan,nan,nan,nan,0.0,nan,nan,nan,nan,nan,nan,nan,nan,nan,nan,nan,nan,nan,nan,nan,nan,nan,nan,601.5298685393063,981.8328836889705,nan,982.1050545574399,nan,nan,nan,nan
1,262,1,1,1.0,1.0,0.37598041049204767,0.0,1,5,4,6,7,3,nan,nan,nan,nan,nan,nan,nan,nan,nan,nan,nan,nan,0.0,nan,nan,nan,nan,nan,nan,nan,nan,nan,nan,nan,nan,nan,nan,nan,nan,nan,nan,601.5298685393063,982.833057027543,nan,983.209037438035,nan,nan,nan,nan
1,263,1,1,1.0,1.0,0.3278855236712843,0.0,8,1,5,3,6,2,nan,nan,nan,nan,nan,nan,nan,nan,nan,nan,nan,nan,0.0,nan,nan,nan,nan,nan,nan,nan,nan,nan,nan,nan,nan,nan,nan,nan,nan,nan,nan,601.5298685393063,983.8331285866443,nan,984.1610141103156,nan,nan,nan,nan
1,264,1,1,1.0,1.0,0.3356886086985469,0.0,2,3,0,8,4,7,nan,nan,nan,nan,nan,nan,nan,nan,nan,nan,nan,nan,0.0,nan,nan,nan,nan,nan,nan,nan,nan,nan,nan,nan,nan,nan,nan,nan,nan,nan,nan,601.5298685393063,984.8332942276029,nan,985.1689828363014,nan,nan,nan,nan
1,265,1,1,1.0,1.0,0.5675374552374706,0.0,6,0,2,4,7,8,nan,nan,nan,nan,nan,nan,nan,nan,nan,nan,nan,nan,0.0,nan,nan,nan,nan,nan,nan,nan,nan,nan,nan,nan,nan,nan,nan,nan,nan,nan,nan,601.5298685393063,985.8334250868065,nan,986.400962542044,nan,nan,nan,nan
1,266,1,1,1.0,1.0,0.4873986019520089,0.0,8,5,7,1,4,3,nan,nan,nan,nan,nan,nan,nan,nan,nan,nan,nan,nan,0.0,nan,nan,nan,nan,nan,nan,nan,nan,nan,nan,nan,nan,nan,nan,nan,nan,nan,nan,601.5298685393063,986.8335394103779,nan,987.3209380123299,nan,nan,nan,nan
1,267,1,1,1.0,1.0,0.511288529727608,0.0,5,7,6,8,1,0,nan,nan,nan,nan,nan,nan,nan,nan,nan,nan,nan,nan,0.0,nan,nan,nan,nan,nan,nan,nan,nan,nan,nan,nan,nan,nan,nan,nan,nan,nan,nan,601.5298685393063,987.8336323518306,nan,988.3449208815582,nan,nan,nan,nan
1,268,1,1,1.0,1.0,0.4307930209906772,0.0,3,8,0,4,7,2,nan,nan,nan,nan,nan,nan,nan,nan,nan,nan,nan,nan,0.0,nan,nan,nan,nan,nan,nan,nan,nan,nan,nan,nan,nan,nan,nan,nan,nan,nan,nan,601.5298685393063,988.8421139661223,nan,989.272906987113,nan,nan,nan,nan
1,269,1,1,1.0,1.0,0.33466482802759856,0.0,4,3,2,8,1,6,nan,nan,nan,nan,nan,nan,nan,nan,nan,nan,nan,nan,0.0,nan,nan,nan,nan,nan,nan,nan,nan,nan,nan,nan,nan,nan,nan,nan,nan,nan,nan,601.5298685393063,989.842215745477,nan,990.1768805735046,nan,nan,nan,nan
1,270,1,1,1.0,1.0,0.23048893723171204,0.0,0,4,5,3,8,7,nan,nan,nan,nan,nan,nan,nan,nan,nan,nan,nan,nan,0.0,nan,nan,nan,nan,nan,nan,nan,nan,nan,nan,nan,nan,nan,nan,nan,nan,nan,nan,601.5298685393063,990.8423679869156,nan,991.0728569241473,nan,nan,nan,nan
1,271,1,1,1.0,1.0,0.25433895143214613,0.0,3,5,0,2,7,4,nan,nan,nan,nan,nan,nan,nan,nan,nan,nan,nan,nan,0.0,nan,nan,nan,nan,nan,nan,nan,nan,nan,nan,nan,nan,nan,nan,nan,nan,nan,nan,601.5298685393063,991.8424922889099,nan,992.096831240342,nan,nan,nan,nan
1,272,0,0,1.0,0.0,0.35817329690326005,1.0,6,2,5,4,1,3,1.0,1.0,1.0,1.0,1.0,1.0,1.0,1.0,0.0,1.0,0.0,0.0,3.0,6.0,2.0,1.0,4.0,8.0,0.0,1.0,2.0,4.0,3.0,5.0,6.0,1.0897297771880403,2.3148238376015797,5.602592038339935,4.331133910571225,6.649847031570971,7.697361462400295,601.5298685393063,992.8426319860155,993.6510273301974,993.2008052829187,1002.4020960849011,1003.405187953962,994.6677972634789,1002.3937644312391
1,273,1,1,1.0,1.0,0.2219733966048807,0.0,1,6,8,7,2,5,nan,nan,nan,nan,nan,nan,nan,nan,nan,nan,nan,nan,0.0,nan,nan,nan,nan,nan,nan,nan,nan,nan,nan,nan,nan,nan,nan,nan,nan,nan,nan,601.5298685393063,1003.6106123668142,nan,1003.832585763419,nan,nan,nan,nan
1,274,1,1,1.0,1.0,0.20577337068971246,0.0,5,3,2,0,6,7,nan,nan,nan,nan,nan,nan,nan,nan,nan,nan,nan,nan,0.0,nan,nan,nan,nan,nan,nan,nan,nan,nan,nan,nan,nan,nan,nan,nan,nan,nan,nan,601.5298685393063,1004.6107606169535,nan,1004.8165339876432,nan,nan,nan,nan
1,275,1,1,1.0,1.0,0.30165352986659855,0.0,6,5,7,1,8,4,nan,nan,nan,nan,nan,nan,nan,nan,nan,nan,nan,nan,0.0,nan,nan,nan,nan,nan,nan,nan,nan,nan,nan,nan,nan,nan,nan,nan,nan,nan,nan,601.5298685393063,1005.6108504222939,nan,1005.9125039521605,nan,nan,nan,nan
1,276,1,1,1.0,1.0,0.4854884569067508,0.0,2,1,8,3,6,5,nan,nan,nan,nan,nan,nan,nan,nan,nan,nan,nan,nan,0.0,nan,nan,nan,nan,nan,nan,nan,nan,nan,nan,nan,nan,nan,nan,nan,nan,nan,nan,601.5298685393063,1006.6109849876957,nan,1007.0964734446025,nan,nan,nan,nan
1,277,1,1,1.0,1.0,0.26136001758277416,0.0,1,7,3,5,2,6,nan,nan,nan,nan,nan,nan,nan,nan,nan,nan,nan,nan,0.0,nan,nan,nan,nan,nan,nan,nan,nan,nan,nan,nan,nan,nan,nan,nan,nan,nan,nan,601.5298685393063,1007.6110998814693,nan,1007.872459899052,nan,nan,nan,nan
1,278,0,0,1.0,0.0,0.24517652741633356,1.0,4,3,5,1,0,7,1.0,1.0,1.0,1.0,1.0,1.0,1.0,1.0,1.0,0.0,1.0,1.0,5.0,4.0,3.0,5.0,2.0,0.0,7.0,2.0,1.0,6.0,5.0,4.0,3.0,2.1626397292129695,1.0263859456172213,7.167850433848798,6.416876616305672,5.456424031639472,3.2737289195647463,601.5298685393063,1008.6112703690305,1009.4196409098804,1008.8564468964469,1017.6456484186929,1018.6460515448125,1010.4364393528085,1017.6373210415477
1,279,1,1,1.0,1.0,0.2180747048696503,0.0,6,0,1,5,7,8,nan,nan,nan,nan,nan,nan,nan,nan,nan,nan,nan,nan,0.0,nan,nan,nan,nan,nan,nan,nan,nan,nan,nan,nan,nan,nan,nan,nan,nan,nan,nan,601.5298685393063,1018.854156147805,nan,1019.0722308526747,nan,nan,nan,nan
1,280,1,1,1.0,1.0,0.38590233109425753,0.0,1,4,8,7,0,2,nan,nan,nan,nan,nan,nan,nan,nan,nan,nan,nan,nan,0.0,nan,nan,nan,nan,nan,nan,nan,nan,nan,nan,nan,nan,nan,nan,nan,nan,nan,nan,601.5298685393063,1019.8542681906838,nan,1020.240170521778,nan,nan,nan,nan
1,281,1,1,1.0,1.0,0.44975192355923355,0.0,8,3,5,6,2,1,nan,nan,nan,nan,nan,nan,nan,nan,nan,nan,nan,nan,0.0,nan,nan,nan,nan,nan,nan,nan,nan,nan,nan,nan,nan,nan,nan,nan,nan,nan,nan,601.5298685393063,1020.8544007603778,nan,1021.304152683937,nan,nan,nan,nan
1,282,1,1,1.0,1.0,0.32926909578964114,0.0,2,1,3,4,6,7,nan,nan,nan,nan,nan,nan,nan,nan,nan,nan,nan,nan,0.0,nan,nan,nan,nan,nan,nan,nan,nan,nan,nan,nan,nan,nan,nan,nan,nan,nan,nan,601.5298685393063,1021.8628555756295,nan,1022.1921246714192,nan,nan,nan,nan
1,283,1,1,1.0,1.0,0.393118973239325,0.0,5,0,6,8,7,3,nan,nan,nan,nan,nan,nan,nan,nan,nan,nan,nan,nan,0.0,nan,nan,nan,nan,nan,nan,nan,nan,nan,nan,nan,nan,nan,nan,nan,nan,nan,nan,601.5298685393063,1022.8629813031293,nan,1023.2561002763687,nan,nan,nan,nan
1,284,1,1,1.0,1.0,0.3769711200147867,0.0,0,4,8,5,6,7,nan,nan,nan,nan,nan,nan,nan,nan,nan,nan,nan,nan,0.0,nan,nan,nan,nan,nan,nan,nan,nan,nan,nan,nan,nan,nan,nan,nan,nan,nan,nan,601.5298685393063,1023.8631044647191,nan,1024.2400755847339,nan,nan,nan,nan
1,285,1,1,1.0,1.0,0.3368369765812531,0.0,8,0,4,3,7,1,nan,nan,nan,nan,nan,nan,nan,nan,nan,nan,nan,nan,0.0,nan,nan,nan,nan,nan,nan,nan,nan,nan,nan,nan,nan,nan,nan,nan,nan,nan,nan,601.5298685393063,1024.8632307623047,nan,1025.200067738886,nan,nan,nan,nan
1,286,1,1,1.0,1.0,0.4006694630952552,0.0,0,2,7,6,1,8,nan,nan,nan,nan,nan,nan,nan,nan,nan,nan,nan,nan,0.0,nan,nan,nan,nan,nan,nan,nan,nan,nan,nan,nan,nan,nan,nan,nan,nan,nan,nan,601.5298685393063,1025.8633676085155,nan,1026.2640370716108,nan,nan,nan,nan
1,287,0,0,nan,nan,nan,0.0,4,3,8,5,6,0,nan,nan,nan,nan,nan,nan,nan,nan,nan,nan,nan,nan,0.0,nan,nan,nan,nan,nan,nan,nan,nan,nan,nan,nan,nan,nan,nan,nan,nan,nan,nan,601.5298685393063,1026.863483357709,nan,nan,nan,nan,nan,nan
1,288,1,1,1.0,1.0,0.6640160315437242,0.0,1,4,2,8,7,3,nan,nan,nan,nan,nan,nan,nan,nan,nan,nan,nan,nan,0.0,nan,nan,nan,nan,nan,nan,nan,nan,nan,nan,nan,nan,nan,nan,nan,nan,nan,nan,601.5298685393063,1027.8719470108626,nan,1028.5359630424064,nan,nan,nan,nan
1,289,1,1,1.0,1.0,0.4638878522673622,0.0,0,8,7,2,4,6,nan,nan,nan,nan,nan,nan,nan,nan,nan,nan,nan,nan,0.0,nan,nan,nan,nan,nan,nan,nan,nan,nan,nan,nan,nan,nan,nan,nan,nan,nan,nan,601.5298685393063,1028.8720764445607,nan,1029.335964296828,nan,nan,nan,nan
1,290,0,0,0.0,1.0,0.6877625557826832,1.0,1,7,4,6,2,8,1.0,1.0,1.0,1.0,1.0,1.0,1.0,1.0,1.0,0.0,0.0,1.0,4.0,1.0,7.0,4.0,1.0,6.0,8.0,2.0,1.0,6.0,5.0,4.0,3.0,1.7876448965398595,0.8698432854143903,5.88282514445018,4.819169987807982,4.090985056012869,2.707844167482108,601.5298685393063,1029.8721753730206,1030.680596660939,1030.5599379288033,1037.6231218213215,1038.6292017846135,1031.6973674495239,1037.614782185061
1,291,1,1,1.0,1.0,0.5201353523880243,0.0,6,8,0,3,7,4,nan,nan,nan,nan,nan,nan,nan,nan,nan,nan,nan,nan,0.0,nan,nan,nan,nan,nan,nan,nan,nan,nan,nan,nan,nan,nan,nan,nan,nan,nan,nan,601.5298685393063,1038.8316209975164,nan,1039.3517563499045,nan,nan,nan,nan
1,292,1,1,1.0,1.0,0.32795166596770287,0.0,8,6,1,7,4,2,nan,nan,nan,nan,nan,nan,nan,nan,nan,nan,nan,nan,0.0,nan,nan,nan,nan,nan,nan,nan,nan,nan,nan,nan,nan,nan,nan,nan,nan,nan,nan,601.5298685393063,1039.83176525624,nan,1040.1597169222077,nan,nan,nan,nan
1,293,0,0,1.0,0.0,0.25581261422485113,1.0,4,1,8,5,3,7,1.0,1.0,1.0,1.0,1.0,1.0,1.0,1.0,0.0,0.0,1.0,1.0,4.0,4.0,1.0,0.0,6.0,3.0,7.0,2.0,1.0,6.0,5.0,4.0,3.0,2.1091585183748975,1.142051501548849,5.811124570784159,5.098989704390988,4.132567203603685,3.123358308686875,601.5298685393063,1040.83187758422,1041.6402860428207,1041.0876901984448,1048.4994567490648,1049.502161172335,1042.6487445642706,1048.4911299420055
1,294,1,1,1.0,1.0,0.33157523965928704,0.0,2,0,3,7,5,6,nan,nan,nan,nan,nan,nan,nan,nan,nan,nan,nan,nan,0.0,nan,nan,nan,nan,nan,nan,nan,nan,nan,nan,nan,nan,nan,nan,nan,nan,nan,nan,601.5298685393063,1049.7079336877214,nan,1050.0395089273807,nan,nan,nan,nan
1,295,1,1,1.0,1.0,0.2993730448652059,0.0,7,3,4,5,6,1,nan,nan,nan,nan,nan,nan,nan,nan,nan,nan,nan,nan,0.0,nan,nan,nan,nan,nan,nan,nan,nan,nan,nan,nan,nan,nan,nan,nan,nan,nan,nan,601.5298685393063,1050.7080830781488,nan,1051.007456123014,nan,nan,nan,nan
1,296,1,1,1.0,1.0,0.2592428926145658,0.0,8,7,3,0,2,4,nan,nan,nan,nan,nan,nan,nan,nan,nan,nan,nan,nan,0.0,nan,nan,nan,nan,nan,nan,nan,nan,nan,nan,nan,nan,nan,nan,nan,nan,nan,nan,601.5298685393063,1051.7081951210275,nan,1051.967438013642,nan,nan,nan,nan
1,297,1,1,1.0,1.0,0.315073866979219,0.0,3,2,8,7,6,0,nan,nan,nan,nan,nan,nan,nan,nan,nan,nan,nan,nan,0.0,nan,nan,nan,nan,nan,nan,nan,nan,nan,nan,nan,nan,nan,nan,nan,nan,nan,nan,601.5298685393063,1052.70834166056,nan,1053.0234155275393,nan,nan,nan,nan
1,298,1,1,1.0,1.0,0.27493829804006964,0.0,0,3,6,8,7,4,nan,nan,nan,nan,nan,nan,nan,nan,nan,nan,nan,nan,0.0,nan,nan,nan,nan,nan,nan,nan,nan,nan,nan,nan,nan,nan,nan,nan,nan,nan,nan,601.5298685393063,1053.7084562692326,nan,1053.9833945672726,nan,nan,nan,nan
1,299,1,1,1.0,1.0,0.298801141558215,0.0,3,7,2,4,8,5,nan,nan,nan,nan,nan,nan,nan,nan,nan,nan,nan,nan,0.0,nan,nan,nan,nan,nan,nan,nan,nan,nan,nan,nan,nan,nan,nan,nan,nan,nan,nan,601.5298685393063,1054.708575724624,nan,1055.0073768661823,nan,nan,nan,nan
1,300,1,1,1.0,1.0,0.22664669470395893,0.0,2,4,5,1,6,0,nan,nan,nan,nan,nan,nan,nan,nan,nan,nan,nan,nan,0.0,nan,nan,nan,nan,nan,nan,nan,nan,nan,nan,nan,nan,nan,nan,nan,nan,nan,nan,601.5298685393063,1055.7086986011127,nan,1055.9353452958167,nan,nan,nan,nan
1,301,1,1,1.0,1.0,0.3304878824856132,0.0,4,6,8,0,2,5,nan,nan,nan,nan,nan,nan,nan,nan,nan,nan,nan,nan,0.0,nan,nan,nan,nan,nan,nan,nan,nan,nan,nan,nan,nan,nan,nan,nan,nan,nan,nan,601.5298685393063,1056.7088365876116,nan,1057.0393244700972,nan,nan,nan,nan
1,302,1,1,1.0,1.0,0.25834883062634617,0.0,6,5,1,7,0,3,nan,nan,nan,nan,nan,nan,nan,nan,nan,nan,nan,nan,0.0,nan,nan,nan,nan,nan,nan,nan,nan,nan,nan,nan,nan,nan,nan,nan,nan,nan,nan,601.5298685393063,1057.7089643108193,nan,1057.9673131414456,nan,nan,nan,nan
1,303,1,1,1.0,1.0,0.37820245092734694,0.0,4,3,7,2,8,1,nan,nan,nan,nan,nan,nan,nan,nan,nan,nan,nan,nan,0.0,nan,nan,nan,nan,nan,nan,nan,nan,nan,nan,nan,nan,nan,nan,nan,nan,nan,nan,601.5298685393063,1058.709063524264,nan,1059.0872659751913,nan,nan,nan,nan
1,304,1,1,1.0,1.0,0.2740633375942707,0.0,2,0,8,3,5,4,nan,nan,nan,nan,nan,nan,nan,nan,nan,nan,nan,nan,0.0,nan,nan,nan,nan,nan,nan,nan,nan,nan,nan,nan,nan,nan,nan,nan,nan,nan,nan,601.5298685393063,1059.7091878262581,nan,1059.9832511638524,nan,nan,nan,nan
1,305,1,1,1.0,1.0,0.31390468718018383,0.0,0,3,5,8,1,6,nan,nan,nan,nan,nan,nan,nan,nan,nan,nan,nan,nan,0.0,nan,nan,nan,nan,nan,nan,nan,nan,nan,nan,nan,nan,nan,nan,nan,nan,nan,nan,601.5298685393063,1060.7093201109674,nan,1061.0232247981476,nan,nan,nan,nan
1,306,1,1,1.0,1.0,0.3057748817373067,0.0,6,0,8,7,3,1,nan,nan,nan,nan,nan,nan,nan,nan,nan,nan,nan,nan,0.0,nan,nan,nan,nan,nan,nan,nan,nan,nan,nan,nan,nan,nan,nan,nan,nan,nan,nan,601.5298685393063,1061.7094412768492,nan,1062.0152161585866,nan,nan,nan,nan
1,307,1,1,1.0,1.0,0.27330327092204243,0.0,4,1,7,3,0,8,nan,nan,nan,nan,nan,nan,nan,nan,nan,nan,nan,nan,0.0,nan,nan,nan,nan,nan,nan,nan,nan,nan,nan,nan,nan,nan,nan,nan,nan,nan,nan,601.5298685393063,1062.717893811292,nan,1062.991197082214,nan,nan,nan,nan
1,308,1,1,1.0,1.0,0.305139402160421,0.0,1,3,8,7,6,5,nan,nan,nan,nan,nan,nan,nan,nan,nan,nan,nan,nan,0.0,nan,nan,nan,nan,nan,nan,nan,nan,nan,nan,nan,nan,nan,nan,nan,nan,nan,nan,601.5298685393063,1063.7180258109001,nan,1064.0231652130606,nan,nan,nan,nan
1,309,1,1,1.0,1.0,0.17664337332826108,0.0,0,7,4,2,8,1,nan,nan,nan,nan,nan,nan,nan,nan,nan,nan,nan,nan,0.0,nan,nan,nan,nan,nan,nan,nan,nan,nan,nan,nan,nan,nan,nan,nan,nan,nan,nan,601.5298685393063,1064.7264940256719,nan,1064.9031373990001,nan,nan,nan,nan
1,310,1,1,1.0,1.0,0.200512774172239,0.0,1,2,7,0,4,8,nan,nan,nan,nan,nan,nan,nan,nan,nan,nan,nan,nan,0.0,nan,nan,nan,nan,nan,nan,nan,nan,nan,nan,nan,nan,nan,nan,nan,nan,nan,nan,601.5298685393063,1065.7266043579439,nan,1065.927117132116,nan,nan,nan,nan
1,311,1,1,1.0,1.0,0.2643543838057667,0.0,0,8,5,2,3,1,nan,nan,nan,nan,nan,nan,nan,nan,nan,nan,nan,nan,0.0,nan,nan,nan,nan,nan,nan,nan,nan,nan,nan,nan,nan,nan,nan,nan,nan,nan,nan,601.5298685393063,1066.7267557440791,nan,1066.991110127885,nan,nan,nan,nan
1,312,0,0,1.0,0.0,0.31219011812936515,0.0,2,0,4,6,7,3,nan,nan,nan,nan,nan,nan,nan,nan,nan,nan,nan,nan,0.0,nan,nan,nan,nan,nan,nan,nan,nan,nan,nan,nan,nan,nan,nan,nan,nan,nan,nan,601.5298685393063,1067.7268803311745,nan,1068.0390704493038,nan,nan,nan,nan
1,313,1,1,1.0,1.0,0.5837505954550579,0.0,0,3,6,4,8,7,nan,nan,nan,nan,nan,nan,nan,nan,nan,nan,nan,nan,0.0,nan,nan,nan,nan,nan,nan,nan,nan,nan,nan,nan,nan,nan,nan,nan,nan,nan,nan,601.5298685393063,1068.7353003646713,nan,1069.3190509601263,nan,nan,nan,nan
1,314,1,1,1.0,1.0,0.6315817683935165,0.0,4,8,5,6,1,2,nan,nan,nan,nan,nan,nan,nan,nan,nan,nan,nan,nan,0.0,nan,nan,nan,nan,nan,nan,nan,nan,nan,nan,nan,nan,nan,nan,nan,nan,nan,nan,601.5298685393063,1069.735432649264,nan,1070.3670144176576,nan,nan,nan,nan
1,315,1,1,1.0,1.0,0.7914266986772418,0.0,8,4,7,3,2,0,nan,nan,nan,nan,nan,nan,nan,nan,nan,nan,nan,nan,0.0,nan,nan,nan,nan,nan,nan,nan,nan,nan,nan,nan,nan,nan,nan,nan,nan,nan,nan,601.5298685393063,1070.7355521046557,nan,1071.526978803333,nan,nan,nan,nan
1,316,1,1,1.0,1.0,0.5192726509412751,0.0,4,7,3,1,5,6,nan,nan,nan,nan,nan,nan,nan,nan,nan,nan,nan,nan,0.0,nan,nan,nan,nan,nan,nan,nan,nan,nan,nan,nan,nan,nan,nan,nan,nan,nan,nan,601.5298685393063,1071.7356966484804,nan,1072.2549692994216,nan,nan,nan,nan
1,317,1,1,1.0,1.0,0.4950950611382723,0.0,8,4,0,7,6,1,nan,nan,nan,nan,nan,nan,nan,nan,nan,nan,nan,nan,0.0,nan,nan,nan,nan,nan,nan,nan,nan,nan,nan,nan,nan,nan,nan,nan,nan,nan,nan,601.5298685393063,1072.7358651403338,nan,1073.230960201472,nan,nan,nan,nan
1,318,1,1,1.0,1.0,0.3509797475999221,0.0,3,2,1,6,7,4,nan,nan,nan,nan,nan,nan,nan,nan,nan,nan,nan,nan,0.0,nan,nan,nan,nan,nan,nan,nan,nan,nan,nan,nan,nan,nan,nan,nan,nan,nan,nan,601.5298685393063,1073.735943541862,nan,1074.086923289462,nan,nan,nan,nan
1,319,1,1,1.0,1.0,0.3748522844398394,0.0,0,1,2,5,3,6,nan,nan,nan,nan,nan,nan,nan,nan,nan,nan,nan,nan,0.0,nan,nan,nan,nan,nan,nan,nan,nan,nan,nan,nan,nan,nan,nan,nan,nan,nan,nan,601.5298685393063,1074.7360504529206,nan,1075.1109027373604,nan,nan,nan,nan
1,320,1,1,1.0,1.0,0.39869232033379376,0.0,1,8,7,3,0,4,nan,nan,nan,nan,nan,nan,nan,nan,nan,nan,nan,nan,0.0,nan,nan,nan,nan,nan,nan,nan,nan,nan,nan,nan,nan,nan,nan,nan,nan,nan,nan,601.5298685393063,1075.7361875842325,nan,1076.1348799045663,nan,nan,nan,nan
1,321,1,1,1.0,1.0,0.3825444671092555,0.0,4,0,5,6,8,2,nan,nan,nan,nan,nan,nan,nan,nan,nan,nan,nan,nan,0.0,nan,nan,nan,nan,nan,nan,nan,nan,nan,nan,nan,nan,nan,nan,nan,nan,nan,nan,601.5298685393063,1076.7363056141185,nan,1077.1188500812277,nan,nan,nan,nan
1,322,1,1,1.0,1.0,0.47039859590586275,0.0,2,4,1,5,0,8,nan,nan,nan,nan,nan,nan,nan,nan,nan,nan,nan,nan,0.0,nan,nan,nan,nan,nan,nan,nan,nan,nan,nan,nan,nan,nan,nan,nan,nan,nan,nan,601.5298685393063,1077.7364302012138,nan,1078.2068287971197,nan,nan,nan,nan
1,323,1,1,1.0,1.0,0.4942471848335117,0.0,5,6,7,2,1,4,nan,nan,nan,nan,nan,nan,nan,nan,nan,nan,nan,nan,0.0,nan,nan,nan,nan,nan,nan,nan,nan,nan,nan,nan,nan,nan,nan,nan,nan,nan,nan,601.5298685393063,1078.7365550732939,nan,1079.2308022581274,nan,nan,nan,nan
1,324,1,1,1.0,1.0,0.3581216945312917,0.0,6,0,8,7,4,2,nan,nan,nan,nan,nan,nan,nan,nan,nan,nan,nan,nan,0.0,nan,nan,nan,nan,nan,nan,nan,nan,nan,nan,nan,nan,nan,nan,nan,nan,nan,nan,601.5298685393063,1079.7366662608692,nan,1080.0947879554005,nan,nan,nan,nan
1,325,1,1,1.0,1.0,0.541971446480602,0.0,1,4,3,2,8,5,nan,nan,nan,nan,nan,nan,nan,nan,nan,nan,nan,nan,0.0,nan,nan,nan,nan,nan,nan,nan,nan,nan,nan,nan,nan,nan,nan,nan,nan,nan,nan,601.5298685393063,1080.7367956945673,nan,1081.2787671410479,nan,nan,nan,nan
1,326,1,1,1.0,1.0,0.7018081091810018,0.0,4,2,5,8,6,3,nan,nan,nan,nan,nan,nan,nan,nan,nan,nan,nan,nan,0.0,nan,nan,nan,nan,nan,nan,nan,nan,nan,nan,nan,nan,nan,nan,nan,nan,nan,nan,601.5298685393063,1081.7369254133664,nan,1082.4387335225474,nan,nan,nan,nan
1,327,0,0,0.0,1.0,0.7256410176632926,1.0,8,7,1,5,3,4,1.0,1.0,1.0,1.0,1.0,1.0,1.0,1.0,0.0,0.0,0.0,1.0,3.0,8.0,7.0,6.0,1.0,5.0,4.0,2.0,1.0,6.0,5.0,4.0,3.0,2.434632697608322,1.5445182115072384,6.400093568605371,5.720038590603508,4.520856075687334,3.210154730360955,601.5298685393063,1082.737061689375,1083.5454501912463,1083.4627027070383,1091.0130274744006,1092.011213121703,1084.5705571949948,1091.0046929698437
1,328,1,1,1.0,1.0,0.3133133975788951,0.0,2,3,5,7,6,8,nan,nan,nan,nan,nan,nan,nan,nan,nan,nan,nan,nan,0.0,nan,nan,nan,nan,nan,nan,nan,nan,nan,nan,nan,nan,nan,nan,nan,nan,nan,nan,601.5298685393063,1092.2132109623635,nan,1092.5265243599424,nan,nan,nan,nan
1,329,1,1,1.0,1.0,0.25716511090286076,0.0,5,6,3,4,2,1,nan,nan,nan,nan,nan,nan,nan,nan,nan,nan,nan,nan,0.0,nan,nan,nan,nan,nan,nan,nan,nan,nan,nan,nan,nan,nan,nan,nan,nan,nan,nan,601.5298685393063,1093.2133264264558,nan,1093.4704915373586,nan,nan,nan,nan
1,330,1,1,1.0,1.0,0.26494795421604067,0.0,6,1,8,0,7,5,nan,nan,nan,nan,nan,nan,nan,nan,nan,nan,nan,nan,0.0,nan,nan,nan,nan,nan,nan,nan,nan,nan,nan,nan,nan,nan,nan,nan,nan,nan,nan,601.5298685393063,1094.213508032728,nan,1094.478455986944,nan,nan,nan,nan
1,331,1,1,1.0,1.0,0.23251055495347828,0.0,8,7,4,1,3,0,nan,nan,nan,nan,nan,nan,nan,nan,nan,nan,nan,nan,0.0,nan,nan,nan,nan,nan,nan,nan,nan,nan,nan,nan,nan,nan,nan,nan,nan,nan,nan,601.5298685393063,1095.2219215090154,nan,1095.4544320639689,nan,nan,nan,nan
1,332,1,1,1.0,1.0,0.24034899205435067,0.0,5,8,0,3,2,1,nan,nan,nan,nan,nan,nan,nan,nan,nan,nan,nan,nan,0.0,nan,nan,nan,nan,nan,nan,nan,nan,nan,nan,nan,nan,nan,nan,nan,nan,nan,nan,601.5298685393063,1096.2220877201762,nan,1096.4624367122306,nan,nan,nan,nan
1,333,1,1,1.0,1.0,0.32823334098793566,0.0,7,4,1,6,5,0,nan,nan,nan,nan,nan,nan,nan,nan,nan,nan,nan,nan,0.0,nan,nan,nan,nan,nan,nan,nan,nan,nan,nan,nan,nan,nan,nan,nan,nan,nan,nan,601.5298685393063,1097.2221607047832,nan,1097.550394045771,nan,nan,nan,nan
1,334,1,1,1.0,1.0,0.42408185452222824,0.0,5,7,0,2,8,4,nan,nan,nan,nan,nan,nan,nan,nan,nan,nan,nan,nan,0.0,nan,nan,nan,nan,nan,nan,nan,nan,nan,nan,nan,nan,nan,nan,nan,nan,nan,nan,601.5298685393063,1098.2222852918785,nan,1098.6463671464007,nan,nan,nan,nan
1,335,1,1,1.0,1.0,0.4559080074541271,0.0,4,8,3,1,2,0,nan,nan,nan,nan,nan,nan,nan,nan,nan,nan,nan,nan,0.0,nan,nan,nan,nan,nan,nan,nan,nan,nan,nan,nan,nan,nan,nan,nan,nan,nan,nan,601.5298685393063,1099.2224281250965,nan,1099.6783361325506,nan,nan,nan,nan
1,336,1,1,1.0,1.0,0.4154368800809607,0.0,6,2,8,7,3,1,nan,nan,nan,nan,nan,nan,nan,nan,nan,nan,nan,nan,0.0,nan,nan,nan,nan,nan,nan,nan,nan,nan,nan,nan,nan,nan,nan,nan,nan,nan,nan,601.5298685393063,1100.230876953341,nan,1100.646313833422,nan,nan,nan,nan
1,337,1,1,1.0,1.0,0.30329425900708884,0.0,7,5,6,3,0,2,nan,nan,nan,nan,nan,nan,nan,nan,nan,nan,nan,nan,0.0,nan,nan,nan,nan,nan,nan,nan,nan,nan,nan,nan,nan,nan,nan,nan,nan,nan,nan,601.5298685393063,1101.2310066721402,nan,1101.5343009311473,nan,nan,nan,nan
1,338,1,1,1.0,1.0,0.3831465905532241,0.0,8,3,2,5,7,0,nan,nan,nan,nan,nan,nan,nan,nan,nan,nan,nan,nan,0.0,nan,nan,nan,nan,nan,nan,nan,nan,nan,nan,nan,nan,nan,nan,nan,nan,nan,nan,601.5298685393063,1102.2311269827187,nan,1102.614273573272,nan,nan,nan,nan
1,339,1,1,1.0,1.0,0.3350023820530623,0.0,0,8,7,2,4,5,nan,nan,nan,nan,nan,nan,nan,nan,nan,nan,nan,nan,0.0,nan,nan,nan,nan,nan,nan,nan,nan,nan,nan,nan,nan,nan,nan,nan,nan,nan,nan,601.5298685393063,1103.2312430168968,nan,1103.5662453989498,nan,nan,nan,nan
1,340,1,1,1.0,1.0,0.47085104370489717,0.0,2,0,1,6,8,4,nan,nan,nan,nan,nan,nan,nan,nan,nan,nan,nan,nan,0.0,nan,nan,nan,nan,nan,nan,nan,nan,nan,nan,nan,nan,nan,nan,nan,nan,nan,nan,601.5298685393063,1104.2313630424906,nan,1104.7022140861955,nan,nan,nan,nan
1,341,1,1,1.0,1.0,0.47072816733270884,0.0,1,8,5,0,4,2,nan,nan,nan,nan,nan,nan,nan,nan,nan,nan,nan,nan,0.0,nan,nan,nan,nan,nan,nan,nan,nan,nan,nan,nan,nan,nan,nan,nan,nan,nan,nan,601.5298685393063,1105.231475085253,nan,1105.7022032525856,nan,nan,nan,nan
1,342,0,0,0.0,1.0,0.5985770274419338,1.0,5,0,7,2,3,1,1.0,1.0,1.0,1.0,1.0,1.0,0.0,1.0,1.0,0.0,0.0,0.0,2.0,1.0,0.0,7.0,6.0,8.0,5.0,2.0,1.0,6.0,5.0,4.0,3.0,2.8666399435605854,1.5553567167371511,6.321442347601987,5.506251163547859,4.801931641297415,3.899256098200567,601.5298685393063,1106.231603663764,1107.0400201049633,1106.830180691206,1114.4159175524255,1115.4262961973436,1108.056808854686,1114.407581622363
1,343,1,1,1.0,1.0,0.3172066722763702,0.0,8,2,0,5,4,7,nan,nan,nan,nan,nan,nan,nan,nan,nan,nan,nan,nan,0.0,nan,nan,nan,nan,nan,nan,nan,nan,nan,nan,nan,nan,nan,nan,nan,nan,nan,nan,601.5298685393063,1115.6327657732181,nan,1115.9499724454945,nan,nan,nan,nan
1,344,1,1,1.0,1.0,0.3250952862435952,0.0,3,4,5,2,7,1,nan,nan,nan,nan,nan,nan,nan,nan,nan,nan,nan,nan,0.0,nan,nan,nan,nan,nan,nan,nan,nan,nan,nan,nan,nan,nan,nan,nan,nan,nan,nan,601.5298685393063,1116.6328592847567,nan,1116.9579545710003,nan,nan,nan,nan
1,345,1,1,1.0,1.0,0.26097086106892675,0.0,7,0,3,1,2,5,nan,nan,nan,nan,nan,nan,nan,nan,nan,nan,nan,nan,0.0,nan,nan,nan,nan,nan,nan,nan,nan,nan,nan,nan,nan,nan,nan,nan,nan,nan,nan,601.5298685393063,1117.6330061093904,nan,1117.8939769704593,nan,nan,nan,nan
1,346,1,1,1.0,1.0,0.23676903813611716,0.0,6,7,0,8,5,3,nan,nan,nan,nan,nan,nan,nan,nan,nan,nan,nan,nan,0.0,nan,nan,nan,nan,nan,nan,nan,nan,nan,nan,nan,nan,nan,nan,nan,nan,nan,nan,601.5298685393063,1118.633130126167,nan,1118.8698991643032,nan,nan,nan,nan
1,347,1,1,1.0,1.0,0.2286101527279243,0.0,0,5,2,6,1,4,nan,nan,nan,nan,nan,nan,nan,nan,nan,nan,nan,nan,0.0,nan,nan,nan,nan,nan,nan,nan,nan,nan,nan,nan,nan,nan,nan,nan,nan,nan,nan,601.5298685393063,1119.6332587046782,nan,1119.861868857406,nan,nan,nan,nan
1,348,1,1,1.0,1.0,0.3004267605720088,0.0,1,8,7,5,2,0,nan,nan,nan,nan,nan,nan,nan,nan,nan,nan,nan,nan,0.0,nan,nan,nan,nan,nan,nan,nan,nan,nan,nan,nan,nan,nan,nan,nan,nan,nan,nan,601.5298685393063,1120.6334229201311,nan,1120.9338496807031,nan,nan,nan,nan
1,349,1,1,1.0,1.0,0.3483018382685259,0.0,4,6,3,2,0,7,nan,nan,nan,nan,nan,nan,nan,nan,nan,nan,nan,nan,0.0,nan,nan,nan,nan,nan,nan,nan,nan,nan,nan,nan,nan,nan,nan,nan,nan,nan,nan,601.5298685393063,1121.633522703778,nan,1121.9818245420465,nan,nan,nan,nan
1,350,1,1,1.0,1.0,0.35615681088529527,0.0,8,5,0,3,6,1,nan,nan,nan,nan,nan,nan,nan,nan,nan,nan,nan,nan,0.0,nan,nan,nan,nan,nan,nan,nan,nan,nan,nan,nan,nan,nan,nan,nan,nan,nan,nan,601.5298685393063,1122.6336395932594,nan,1122.9897964041447,nan,nan,nan,nan
1,351,1,1,1.0,1.0,0.29205120215192437,0.0,0,2,3,6,8,5,nan,nan,nan,nan,nan,nan,nan,nan,nan,nan,nan,nan,0.0,nan,nan,nan,nan,nan,nan,nan,nan,nan,nan,nan,nan,nan,nan,nan,nan,nan,nan,601.5298685393063,1123.6337336750003,nan,1123.9257848771522,nan,nan,nan,nan
1,352,1,1,1.0,1.0,0.25987438089214265,0.0,5,1,4,7,2,6,nan,nan,nan,nan,nan,nan,nan,nan,nan,nan,nan,nan,0.0,nan,nan,nan,nan,nan,nan,nan,nan,nan,nan,nan,nan,nan,nan,nan,nan,nan,nan,601.5298685393063,1124.6338742275257,nan,1124.8937486084178,nan,nan,nan,nan
1,353,1,1,1.0,1.0,0.20371469052042812,0.0,2,8,7,4,3,0,nan,nan,nan,nan,nan,nan,nan,nan,nan,nan,nan,nan,0.0,nan,nan,nan,nan,nan,nan,nan,nan,nan,nan,nan,nan,nan,nan,nan,nan,nan,nan,601.5298685393063,1125.634009933332,nan,1125.8377246238524,nan,nan,nan,nan
1,354,1,1,1.0,1.0,0.2115830626571551,0.0,5,6,4,2,8,3,nan,nan,nan,nan,nan,nan,nan,nan,nan,nan,nan,nan,0.0,nan,nan,nan,nan,nan,nan,nan,nan,nan,nan,nan,nan,nan,nan,nan,nan,nan,nan,601.5298685393063,1126.6341322396183,nan,1126.8457153022755,nan,nan,nan,nan
1,355,1,1,1.0,1.0,0.2994326299522072,0.0,8,3,2,0,1,5,nan,nan,nan,nan,nan,nan,nan,nan,nan,nan,nan,nan,0.0,nan,nan,nan,nan,nan,nan,nan,nan,nan,nan,nan,nan,nan,nan,nan,nan,nan,nan,601.5298685393063,1127.6342565416126,nan,1127.9336891715648,nan,nan,nan,nan
1,356,1,1,1.0,1.0,0.25929877150338143,0.0,2,0,5,3,8,7,nan,nan,nan,nan,nan,nan,nan,nan,nan,nan,nan,nan,0.0,nan,nan,nan,nan,nan,nan,nan,nan,nan,nan,nan,nan,nan,nan,nan,nan,nan,nan,601.5298685393063,1128.6343702949816,nan,1128.893669066485,nan,nan,nan,nan
1,357,0,0,1.0,0.0,0.23513515130616724,0.0,7,5,2,4,1,6,nan,nan,nan,nan,nan,nan,nan,nan,nan,nan,nan,nan,0.0,nan,nan,nan,nan,nan,nan,nan,nan,nan,nan,nan,nan,nan,nan,nan,nan,nan,nan,601.5298685393063,1129.6345054307021,nan,1129.8696405820083,nan,nan,nan,nan
1,358,1,1,1.0,1.0,0.53071499010548,0.0,5,1,6,8,3,4,nan,nan,nan,nan,nan,nan,nan,nan,nan,nan,nan,nan,0.0,nan,nan,nan,nan,nan,nan,nan,nan,nan,nan,nan,nan,nan,nan,nan,nan,nan,nan,601.5298685393063,1130.6429160559783,nan,1131.1736310460838,nan,nan,nan,nan
1,359,1,1,1.0,1.0,0.5545048491330817,0.0,1,3,8,0,2,6,nan,nan,nan,nan,nan,nan,nan,nan,nan,nan,nan,nan,0.0,nan,nan,nan,nan,nan,nan,nan,nan,nan,nan,nan,nan,nan,nan,nan,nan,nan,nan,601.5298685393063,1131.6430711483117,nan,1132.1975759974448,nan,nan,nan,nan
1,360,1,1,1.0,1.0,0.44202866533305496,0.0,6,1,4,2,0,8,nan,nan,nan,nan,nan,nan,nan,nan,nan,nan,nan,nan,0.0,nan,nan,nan,nan,nan,nan,nan,nan,nan,nan,nan,nan,nan,nan,nan,nan,nan,nan,601.5298685393063,1132.6515376524767,nan,1133.0935663178097,nan,nan,nan,nan
1,361,1,1,1.0,1.0,0.40187798626720905,0.0,3,2,0,8,7,6,nan,nan,nan,nan,nan,nan,nan,nan,nan,nan,nan,nan,0.0,nan,nan,nan,nan,nan,nan,nan,nan,nan,nan,nan,nan,nan,nan,nan,nan,nan,nan,601.5298685393063,1133.6516636650776,nan,1134.0535416513449,nan,nan,nan,nan
1,362,1,1,1.0,1.0,0.313726787106134,0.0,2,6,7,5,8,1,nan,nan,nan,nan,nan,nan,nan,nan,nan,nan,nan,nan,0.0,nan,nan,nan,nan,nan,nan,nan,nan,nan,nan,nan,nan,nan,nan,nan,nan,nan,nan,601.5298685393063,1134.6517893925775,nan,1134.9655161796836,nan,nan,nan,nan
1,363,1,1,1.0,1.0,0.22558157506864518,0.0,4,5,1,0,7,3,nan,nan,nan,nan,nan,nan,nan,nan,nan,nan,nan,nan,0.0,nan,nan,nan,nan,nan,nan,nan,nan,nan,nan,nan,nan,nan,nan,nan,nan,nan,nan,601.5298685393063,1135.6519108435605,nan,1135.8774924186291,nan,nan,nan,nan
1,364,0,0,1.0,0.0,0.1934301273431629,1.0,6,8,5,7,0,1,1.0,1.0,1.0,1.0,1.0,1.0,1.0,1.0,0.0,0.0,0.0,0.0,2.0,6.0,8.0,6.0,5.0,1.0,7.0,2.0,1.0,4.0,3.0,6.0,5.0,3.644931401591748,1.9577726796269417,6.012510594911873,4.9171592893544585,8.852108301245607,7.740795595454983,601.5298685393063,1136.6520402772585,1137.4604416084476,1136.8454704046017,1147.3699785636272,1148.3727588225156,1138.4772372003645,1147.3616771302186
1,365,1,1,1.0,1.0,0.49071598215959966,0.0,7,1,4,0,3,2,nan,nan,nan,nan,nan,nan,nan,nan,nan,nan,nan,nan,0.0,nan,nan,nan,nan,nan,nan,nan,nan,nan,nan,nan,nan,nan,nan,nan,nan,nan,nan,601.5298685393063,1148.578501402866,nan,1149.0692173850257,nan,nan,nan,nan
1,366,1,1,1.0,1.0,0.30657913826871663,0.0,4,5,7,2,1,6,nan,nan,nan,nan,nan,nan,nan,nan,nan,nan,nan,nan,0.0,nan,nan,nan,nan,nan,nan,nan,nan,nan,nan,nan,nan,nan,nan,nan,nan,nan,nan,601.5298685393063,1149.5785949144047,nan,1149.8851740526734,nan,nan,nan,nan
1,367,1,1,1.0,1.0,0.2024132258957252,0.0,5,2,4,8,0,1,nan,nan,nan,nan,nan,nan,nan,nan,nan,nan,nan,nan,0.0,nan,nan,nan,nan,nan,nan,nan,nan,nan,nan,nan,nan,nan,nan,nan,nan,nan,nan,601.5298685393063,1150.5787400284316,nan,1150.7811532543274,nan,nan,nan,nan
1,368,0,0,1.0,0.0,0.20195022970438004,0.0,4,3,7,1,5,8,nan,nan,nan,nan,nan,nan,nan,nan,nan,nan,nan,nan,0.0,nan,nan,nan,nan,nan,nan,nan,nan,nan,nan,nan,nan,nan,nan,nan,nan,nan,nan,601.5298685393063,1151.587189141661,nan,1151.7891393713653,nan,nan,nan,nan
1,369,1,1,1.0,1.0,0.32177362963557243,0.0,3,8,0,5,7,1,nan,nan,nan,nan,nan,nan,nan,nan,nan,nan,nan,nan,0.0,nan,nan,nan,nan,nan,nan,nan,nan,nan,nan,nan,nan,nan,nan,nan,nan,nan,nan,601.5298685393063,1152.587326558074,nan,1152.9091001877096,nan,nan,nan,nan
1,370,1,1,1.0,1.0,0.27362143842037767,0.0,2,7,5,0,1,3,nan,nan,nan,nan,nan,nan,nan,nan,nan,nan,nan,nan,0.0,nan,nan,nan,nan,nan,nan,nan,nan,nan,nan,nan,nan,nan,nan,nan,nan,nan,nan,601.5298685393063,1153.587463974487,nan,1153.8610854129074,nan,nan,nan,nan
1,371,1,1,1.0,1.0,0.29749768145848066,0.0,0,1,8,3,5,7,nan,nan,nan,nan,nan,nan,nan,nan,nan,nan,nan,nan,0.0,nan,nan,nan,nan,nan,nan,nan,nan,nan,nan,nan,nan,nan,nan,nan,nan,nan,nan,601.5298685393063,1154.5875700303586,nan,1154.885067711817,nan,nan,nan,nan
1,372,1,1,1.0,1.0,0.24130976654123515,0.0,6,2,0,5,8,4,nan,nan,nan,nan,nan,nan,nan,nan,nan,nan,nan,nan,0.0,nan,nan,nan,nan,nan,nan,nan,nan,nan,nan,nan,nan,nan,nan,nan,nan,nan,nan,601.5298685393063,1155.5877179952804,nan,1155.8290277618216,nan,nan,nan,nan
1,373,1,1,1.0,1.0,0.39318454544991255,0.0,4,7,5,8,2,1,nan,nan,nan,nan,nan,nan,nan,nan,nan,nan,nan,nan,0.0,nan,nan,nan,nan,nan,nan,nan,nan,nan,nan,nan,nan,nan,nan,nan,nan,nan,nan,601.5298685393063,1156.587819204433,nan,1156.9810037498828,nan,nan,nan,nan
1,374,1,1,1.0,1.0,0.32105319120455533,0.0,3,1,2,5,0,8,nan,nan,nan,nan,nan,nan,nan,nan,nan,nan,nan,nan,0.0,nan,nan,nan,nan,nan,nan,nan,nan,nan,nan,nan,nan,nan,nan,nan,nan,nan,nan,601.5298685393063,1157.587942081038,nan,1157.9089952722425,nan,nan,nan,nan
1,375,1,1,1.0,1.0,0.28089395933784544,0.0,5,4,0,2,8,6,nan,nan,nan,nan,nan,nan,nan,nan,nan,nan,nan,nan,0.0,nan,nan,nan,nan,nan,nan,nan,nan,nan,nan,nan,nan,nan,nan,nan,nan,nan,nan,601.5298685393063,1158.5880763613386,nan,1158.8689703206765,nan,nan,nan,nan
1,376,1,1,1.0,1.0,0.24075069278478622,0.0,3,6,4,8,7,0,nan,nan,nan,nan,nan,nan,nan,nan,nan,nan,nan,nan,0.0,nan,nan,nan,nan,nan,nan,nan,nan,nan,nan,nan,nan,nan,nan,nan,nan,nan,nan,601.5298685393063,1159.5881972421193,nan,1159.8289479349041,nan,nan,nan,nan
1,377,0,0,1.0,0.0,0.2566123092547059,0.0,4,0,7,2,8,5,nan,nan,nan,nan,nan,nan,nan,nan,nan,nan,nan,nan,0.0,nan,nan,nan,nan,nan,nan,nan,nan,nan,nan,nan,nan,nan,nan,nan,nan,nan,nan,601.5298685393063,1160.5883186932188,nan,1160.8449310024735,nan,nan,nan,nan
1,378,1,1,1.0,1.0,0.3444285203004256,0.0,6,4,2,1,0,8,nan,nan,nan,nan,nan,nan,nan,nan,nan,nan,nan,nan,0.0,nan,nan,nan,nan,nan,nan,nan,nan,nan,nan,nan,nan,nan,nan,nan,nan,nan,nan,601.5298685393063,1161.5884706494398,nan,1161.9328991697403,nan,nan,nan,nan
1,379,0,0,1.0,0.0,0.45631255907937884,0.0,2,3,0,7,4,5,nan,nan,nan,nan,nan,nan,nan,nan,nan,nan,nan,nan,0.0,nan,nan,nan,nan,nan,nan,nan,nan,nan,nan,nan,nan,nan,nan,nan,nan,nan,nan,601.5298685393063,1162.5885752798058,nan,1163.0448878388852,nan,nan,nan,nan
1,380,1,1,1.0,1.0,0.4161692925263196,0.0,1,5,8,3,0,7,nan,nan,nan,nan,nan,nan,nan,nan,nan,nan,nan,nan,0.0,nan,nan,nan,nan,nan,nan,nan,nan,nan,nan,nan,nan,nan,nan,nan,nan,nan,nan,601.5298685393063,1163.5886910288827,nan,1164.004860321409,nan,nan,nan,nan
