block,trial,freq_trials,correct_response,actual_response,acc,rts,probe_trials,fast_rt_trigger,slow_rt_trigger,rt_triggered,rts_runningavg,rts_runningstd,rts_runningfastthresh,rts_runningslowthresh,rts_runningstd,rts_trailingavg,trials_colorind0,trials_colorind1,trials_colorind2,trials_colorind3,trials_colorind4,trials_colorind5,wholereport_resp0,wholereport_resp1,wholereport_resp2,wholereport_resp3,wholereport_resp4,wholereport_resp5,wholereport_respacc0,wholereport_respacc1,wholereport_respacc2,wholereport_respacc3,wholereport_respacc4,wholereport_respacc5,wholereport_respacc_total,wholereport_respcolorind0,wholereport_respcolorind1,wholereport_respcolorind2,wholereport_respcolorind3,wholereport_respcolorind4,wholereport_respcolorind5,wholereport_resporder0,wholereport_resporder1,wholereport_resporder2,wholereport_resporder3,wholereport_resporder4,wholereport_resporder5,wholereport_rts0,wholereport_rts1,wholereport_rts2,wholereport_rts3,wholereport_rts4,wholereport_rts5,time_blockstart,time_encarray_offset,time_encarray_onset,time_response,time_iti_offset,time_iti_onset,time_memprobe_offset,time_memprobe_onset
1,1,1,1,1.0,1.0,0.31261092028580606,0,nan,nan,nan,nan,nan,nan,nan,nan,nan,4,5,6,3,1,2,nan,nan,nan,nan,nan,nan,nan,nan,nan,nan,nan,nan,0.0,nan,nan,nan,nan,nan,nan,nan,nan,nan,nan,nan,nan,nan,nan,nan,nan,nan,nan,834.4210909095127,835.4364761302713,nan,835.7490870505571,nan,nan,nan,nan
1,2,1,1,1.0,1.0,0.33536188839934766,0,nan,nan,nan,nan,nan,nan,nan,nan,nan,4,3,2,0,1,7,nan,nan,nan,nan,nan,nan,nan,nan,nan,nan,nan,nan,0.0,nan,nan,nan,nan,nan,nan,nan,nan,nan,nan,nan,nan,nan,nan,nan,nan,nan,nan,834.4210909095127,836.461700593587,nan,836.7970624819864,nan,nan,nan,nan
1,3,1,1,1.0,1.0,0.2946273321285844,0,nan,nan,nan,nan,nan,nan,nan,nan,nan,7,8,0,5,3,4,nan,nan,nan,nan,nan,nan,nan,nan,nan,nan,nan,nan,0.0,nan,nan,nan,nan,nan,nan,nan,nan,nan,nan,nan,nan,nan,nan,nan,nan,nan,nan,834.4210909095127,837.4784155033994,nan,837.773042835528,nan,nan,nan,nan
1,4,1,1,1.0,1.0,0.2694587477017194,0,nan,nan,nan,nan,nan,nan,nan,nan,nan,5,0,3,6,2,7,nan,nan,nan,nan,nan,nan,nan,nan,nan,nan,nan,nan,0.0,nan,nan,nan,nan,nan,nan,nan,nan,nan,nan,nan,nan,nan,nan,nan,nan,nan,nan,834.4210909095127,838.5035464551765,nan,838.7730052028783,nan,nan,nan,nan
1,5,1,1,1.0,1.0,0.380626909667626,0,nan,nan,nan,nan,nan,nan,nan,nan,nan,6,3,7,4,0,8,nan,nan,nan,nan,nan,nan,nan,nan,nan,nan,nan,nan,0.0,nan,nan,nan,nan,nan,nan,nan,nan,nan,nan,nan,nan,nan,nan,nan,nan,nan,nan,834.4210909095127,839.5203514553141,nan,839.9009783649817,nan,nan,nan,nan
1,6,1,1,1.0,1.0,0.37179234623908997,0,nan,nan,nan,nan,nan,nan,nan,nan,nan,5,7,0,2,4,1,nan,nan,nan,nan,nan,nan,nan,nan,nan,nan,nan,nan,0.0,nan,nan,nan,nan,nan,nan,nan,nan,nan,nan,nan,nan,nan,nan,nan,nan,nan,nan,834.4210909095127,840.5371613020543,nan,840.9089536482934,nan,nan,nan,nan
1,7,1,1,1.0,1.0,0.354977652663365,0,nan,nan,nan,nan,nan,nan,nan,nan,nan,2,8,1,4,3,5,nan,nan,nan,nan,nan,nan,nan,nan,nan,nan,nan,nan,0.0,nan,nan,nan,nan,nan,nan,nan,nan,nan,nan,nan,nan,nan,nan,nan,nan,nan,nan,834.4210909095127,841.5539720042143,nan,841.9089496568777,nan,nan,nan,nan
1,8,1,1,1.0,1.0,0.31384367658756673,0,nan,nan,nan,nan,nan,nan,nan,nan,nan,1,2,5,3,4,6,nan,nan,nan,nan,nan,nan,nan,nan,nan,nan,nan,nan,0.0,nan,nan,nan,nan,nan,nan,nan,nan,nan,nan,nan,nan,nan,nan,nan,nan,nan,nan,834.4210909095127,842.5790761569515,nan,842.892919833539,nan,nan,nan,nan
1,9,0,0,0.0,1.0,0.37700390606187284,0,nan,nan,nan,nan,nan,nan,nan,nan,nan,0,6,2,8,7,1,nan,nan,nan,nan,nan,nan,nan,nan,nan,nan,nan,nan,0.0,nan,nan,nan,nan,nan,nan,nan,nan,nan,nan,nan,nan,nan,nan,nan,nan,nan,nan,834.4210909095127,843.5959011139348,nan,843.9729050199967,nan,nan,nan,nan
1,10,1,1,1.0,1.0,0.35984339099377394,0,nan,nan,nan,nan,nan,nan,nan,nan,nan,8,1,0,2,5,7,nan,nan,nan,nan,nan,nan,nan,nan,nan,nan,nan,nan,0.0,nan,nan,nan,nan,nan,nan,nan,nan,nan,nan,nan,nan,nan,nan,nan,nan,nan,nan,834.4210909095127,844.6210232276935,nan,844.9808666186873,nan,nan,nan,nan
1,11,1,1,1.0,1.0,0.4230053308419883,0,nan,nan,nan,nan,nan,nan,nan,nan,nan,7,8,2,4,3,6,nan,nan,nan,nan,nan,nan,nan,nan,nan,nan,nan,nan,0.0,nan,nan,nan,nan,nan,nan,nan,nan,nan,nan,nan,nan,nan,nan,nan,nan,nan,nan,834.4210909095127,845.637837351067,nan,846.060842681909,nan,nan,nan,nan
1,12,1,1,1.0,1.0,0.3418732024729252,0,nan,nan,nan,nan,nan,nan,nan,nan,nan,8,7,0,5,2,1,nan,nan,nan,nan,nan,nan,nan,nan,nan,nan,nan,nan,0.0,nan,nan,nan,nan,nan,nan,nan,nan,nan,nan,nan,nan,nan,nan,nan,nan,nan,nan,834.4210909095127,846.6629466353916,nan,847.0048198378645,nan,nan,nan,nan
1,13,1,1,1.0,1.0,0.34873090824112296,0,nan,nan,nan,nan,nan,nan,nan,nan,nan,3,6,8,4,7,5,nan,nan,nan,nan,nan,nan,nan,nan,nan,nan,nan,nan,0.0,nan,nan,nan,nan,nan,nan,nan,nan,nan,nan,nan,nan,nan,nan,nan,nan,nan,nan,834.4210909095127,847.6880624771584,nan,848.0367933853995,nan,nan,nan,nan
1,14,1,1,1.0,1.0,0.29189810529351234,0,nan,nan,nan,nan,nan,nan,nan,nan,nan,0,8,1,6,5,2,nan,nan,nan,nan,nan,nan,nan,nan,nan,nan,nan,nan,0.0,nan,nan,nan,nan,nan,nan,nan,nan,nan,nan,nan,nan,nan,nan,nan,nan,nan,nan,834.4210909095127,848.7048885745462,nan,848.9967866798397,nan,nan,nan,nan
1,15,1,1,1.0,1.0,0.32306825183331966,0,nan,nan,nan,nan,nan,nan,nan,nan,nan,7,0,4,8,3,6,nan,nan,nan,nan,nan,nan,nan,nan,nan,nan,nan,nan,0.0,nan,nan,nan,nan,nan,nan,nan,nan,nan,nan,nan,nan,nan,nan,nan,nan,nan,nan,834.4210909095127,849.721691864077,nan,850.0447601159103,nan,nan,nan,nan
1,16,1,1,1.0,1.0,0.2662722263485193,0,nan,nan,nan,nan,nan,nan,nan,nan,nan,6,2,8,7,1,5,nan,nan,nan,nan,nan,nan,nan,nan,nan,nan,nan,nan,0.0,nan,nan,nan,nan,nan,nan,nan,nan,nan,nan,nan,nan,nan,nan,nan,nan,nan,nan,834.4210909095127,850.7384603719693,nan,851.0047325983178,nan,nan,nan,nan
1,17,1,1,1.0,1.0,0.3451061942614615,0,nan,nan,nan,nan,nan,nan,nan,nan,nan,2,4,1,5,3,6,nan,nan,nan,nan,nan,nan,nan,nan,nan,nan,nan,nan,0.0,nan,nan,nan,nan,nan,nan,nan,nan,nan,nan,nan,nan,nan,nan,nan,nan,nan,nan,834.4210909095127,851.7636101399548,nan,852.1087163342163,nan,nan,nan,nan
1,18,1,1,1.0,1.0,0.3039419976994395,0,nan,nan,nan,nan,nan,nan,nan,nan,nan,3,7,0,1,2,4,nan,nan,nan,nan,nan,nan,nan,nan,nan,nan,nan,nan,0.0,nan,nan,nan,nan,nan,nan,nan,nan,nan,nan,nan,nan,nan,nan,nan,nan,nan,nan,834.4210909095127,852.7887399515603,nan,853.0926819492597,nan,nan,nan,nan
1,19,0,0,0.0,1.0,0.4630864467471838,0,nan,nan,nan,nan,nan,nan,nan,nan,nan,0,8,2,6,4,5,nan,nan,nan,nan,nan,nan,nan,nan,nan,nan,nan,nan,0.0,nan,nan,nan,nan,nan,nan,nan,nan,nan,nan,nan,nan,nan,nan,nan,nan,nan,nan,834.4210909095127,853.8055660487153,nan,854.2686524954624,nan,nan,nan,nan
1,20,1,1,1.0,1.0,0.4059443143196404,1,nan,nan,nan,nan,nan,nan,nan,nan,nan,6,3,0,4,5,2,1.0,1.0,1.0,1.0,1.0,1.0,0.0,1.0,1.0,1.0,1.0,0.0,4.0,1.0,3.0,0.0,4.0,5.0,5.0,3.0,2.0,1.0,6.0,5.0,4.0,3.59411384514533,2.5629425584338605,1.6756260071415454,5.442106781760231,4.706424958305433,4.146258097141981,834.4210909095127,854.8306924391072,855.6391071698163,855.2366367534269,862.1399001651444,863.1359296292067,856.6559044723399,862.1316195437685
1,21,1,1,1.0,1.0,0.3116470098029822,0,nan,nan,nan,nan,nan,nan,nan,nan,nan,5,4,3,8,1,6,nan,nan,nan,nan,nan,nan,nan,nan,nan,nan,nan,nan,0.0,nan,nan,nan,nan,nan,nan,nan,nan,nan,nan,nan,nan,nan,nan,nan,nan,nan,nan,834.4210909095127,863.3567959968932,nan,863.6684430066962,nan,nan,nan,nan
1,22,0,0,1.0,0.0,0.41448038211092353,0,nan,nan,nan,nan,nan,nan,nan,nan,nan,4,0,2,7,5,1,nan,nan,nan,nan,nan,nan,nan,nan,nan,nan,nan,nan,0.0,nan,nan,nan,nan,nan,nan,nan,nan,nan,nan,nan,nan,nan,nan,nan,nan,nan,nan,834.4210909095127,864.3819240976591,nan,864.79640447977,nan,nan,nan,nan
1,23,1,1,1.0,1.0,0.3736466122791171,1,nan,nan,nan,nan,nan,nan,nan,nan,nan,1,3,6,5,0,7,1.0,1.0,1.0,1.0,1.0,1.0,0.0,0.0,0.0,0.0,1.0,0.0,1.0,7.0,8.0,3.0,2.0,0.0,4.0,6.0,1.0,2.0,3.0,4.0,5.0,6.6014009062200785,2.0195658726152033,2.8263119347393513,3.835556181613356,4.857928541721776,5.809929732233286,834.4210909095127,865.3987419272307,866.2071532367263,865.7723885395098,873.8664737325162,874.8668460682966,867.2239462628495,873.8581449298654
1,24,1,1,1.0,1.0,0.31254164199344814,0,nan,nan,nan,nan,nan,nan,nan,nan,nan,6,8,3,2,7,1,nan,nan,nan,nan,nan,nan,nan,nan,nan,nan,nan,nan,0.0,nan,nan,nan,nan,nan,nan,nan,nan,nan,nan,nan,nan,nan,nan,nan,nan,nan,nan,834.4210909095127,875.0916307992302,nan,875.4041724412236,nan,nan,nan,nan
1,25,0,0,0.0,1.0,0.4796365706715733,0,nan,nan,nan,nan,nan,nan,nan,nan,nan,3,5,4,6,8,0,nan,nan,nan,nan,nan,nan,nan,nan,nan,nan,nan,nan,0.0,nan,nan,nan,nan,nan,nan,nan,nan,nan,nan,nan,nan,nan,nan,nan,nan,nan,nan,834.4210909095127,876.108497380279,nan,876.5881339509506,nan,nan,nan,nan
1,26,1,1,1.0,1.0,0.4228453920222819,0,nan,nan,nan,nan,nan,nan,nan,nan,nan,2,6,7,4,0,3,nan,nan,nan,nan,nan,nan,nan,nan,nan,nan,nan,nan,0.0,nan,nan,nan,nan,nan,nan,nan,nan,nan,nan,nan,nan,nan,nan,nan,nan,nan,nan,834.4210909095127,877.1252738707699,nan,877.5481192627922,nan,nan,nan,nan
1,27,1,1,1.0,1.0,0.5500251310877502,0,nan,nan,nan,nan,nan,nan,nan,nan,nan,7,8,0,1,3,4,nan,nan,nan,nan,nan,nan,nan,nan,nan,nan,nan,nan,0.0,nan,nan,nan,nan,nan,nan,nan,nan,nan,nan,nan,nan,nan,nan,nan,nan,nan,nan,834.4210909095127,878.1420674670953,nan,878.6920925981831,nan,nan,nan,nan
1,28,1,1,1.0,1.0,0.39721637684851885,0,nan,nan,nan,nan,nan,nan,nan,nan,nan,2,4,7,3,8,6,nan,nan,nan,nan,nan,nan,nan,nan,nan,nan,nan,nan,0.0,nan,nan,nan,nan,nan,nan,nan,nan,nan,nan,nan,nan,nan,nan,nan,nan,nan,nan,834.4210909095127,879.1588619186077,nan,879.5560782954562,nan,nan,nan,nan
1,29,1,1,1.0,1.0,0.4763887538574636,0,nan,nan,nan,nan,nan,nan,nan,nan,nan,5,0,8,2,3,1,nan,nan,nan,nan,nan,nan,nan,nan,nan,nan,nan,nan,0.0,nan,nan,nan,nan,nan,nan,nan,nan,nan,nan,nan,nan,nan,nan,nan,nan,nan,nan,834.4210909095127,880.1756546595134,nan,880.6520434133708,nan,nan,nan,nan
1,30,1,1,1.0,1.0,0.5235639200545847,0,nan,nan,nan,nan,nan,nan,nan,nan,nan,7,8,0,1,6,3,nan,nan,nan,nan,nan,nan,nan,nan,nan,nan,nan,nan,0.0,nan,nan,nan,nan,nan,nan,nan,nan,nan,nan,nan,nan,nan,nan,nan,nan,nan,nan,834.4210909095127,881.1924593746662,nan,881.7160232947208,nan,nan,nan,nan
1,31,1,1,1.0,1.0,0.4747243619058281,0,nan,nan,nan,nan,nan,nan,nan,nan,nan,6,7,1,0,8,2,nan,nan,nan,nan,nan,nan,nan,nan,nan,nan,nan,nan,0.0,nan,nan,nan,nan,nan,nan,nan,nan,nan,nan,nan,nan,nan,nan,nan,nan,nan,nan,834.4210909095127,882.2092689361889,nan,882.6839932980947,nan,nan,nan,nan
1,32,0,0,0.0,1.0,0.4655767627991736,0,nan,nan,nan,nan,nan,nan,nan,nan,nan,8,4,3,2,6,7,nan,nan,nan,nan,nan,nan,nan,nan,nan,nan,nan,nan,0.0,nan,nan,nan,nan,nan,nan,nan,nan,nan,nan,nan,nan,nan,nan,nan,nan,nan,nan,834.4210909095127,883.2343890543561,nan,883.6999658171553,nan,nan,nan,nan
1,33,1,1,1.0,1.0,0.45644170767627656,0,nan,nan,nan,nan,nan,nan,nan,nan,nan,6,3,2,7,1,4,nan,nan,nan,nan,nan,nan,nan,nan,nan,nan,nan,nan,0.0,nan,nan,nan,nan,nan,nan,nan,nan,nan,nan,nan,nan,nan,nan,nan,nan,nan,nan,834.4210909095127,884.2595211467706,nan,884.7159628544468,nan,nan,nan,nan
1,34,1,1,1.0,1.0,0.3755929647013545,0,nan,nan,nan,nan,nan,nan,nan,nan,nan,1,2,4,3,0,6,nan,nan,nan,nan,nan,nan,nan,nan,nan,nan,nan,nan,0.0,nan,nan,nan,nan,nan,nan,nan,nan,nan,nan,nan,nan,nan,nan,nan,nan,nan,nan,834.4210909095127,885.2763366953004,nan,885.6519296600018,nan,nan,nan,nan
1,35,1,1,1.0,1.0,0.4064426627010107,0,nan,nan,nan,nan,nan,nan,nan,nan,nan,6,7,8,5,3,2,nan,nan,nan,nan,nan,nan,nan,nan,nan,nan,nan,nan,0.0,nan,nan,nan,nan,nan,nan,nan,nan,nan,nan,nan,nan,nan,nan,nan,nan,nan,nan,834.4210909095127,886.301451111678,nan,886.707893774379,nan,nan,nan,nan
1,36,1,1,1.0,1.0,0.38127978006377816,0,nan,nan,nan,nan,nan,nan,nan,nan,nan,3,6,2,0,4,1,nan,nan,nan,nan,nan,nan,nan,nan,nan,nan,nan,nan,0.0,nan,nan,nan,nan,nan,nan,nan,nan,nan,nan,nan,nan,nan,nan,nan,nan,nan,nan,834.4210909095127,887.3265997394919,nan,887.7078795195557,nan,nan,nan,nan
1,37,1,1,1.0,1.0,0.3801362591329962,0,nan,nan,nan,nan,nan,nan,nan,nan,nan,4,1,5,8,3,2,nan,nan,nan,nan,nan,nan,nan,nan,nan,nan,nan,nan,0.0,nan,nan,nan,nan,nan,nan,nan,nan,nan,nan,nan,nan,nan,nan,nan,nan,nan,nan,834.4210909095127,888.3517266998533,nan,888.7318629589863,nan,nan,nan,nan
1,38,1,1,1.0,1.0,0.3792858168017119,0,nan,nan,nan,nan,nan,nan,nan,nan,nan,7,5,2,6,1,3,nan,nan,nan,nan,nan,nan,nan,nan,nan,nan,nan,nan,0.0,nan,nan,nan,nan,nan,nan,nan,nan,nan,nan,nan,nan,nan,nan,nan,nan,nan,nan,834.4210909095127,889.3685459548142,nan,889.7478317716159,nan,nan,nan,nan
1,39,1,1,1.0,1.0,0.5464594322256744,1,nan,nan,nan,nan,nan,nan,nan,nan,nan,0,4,3,1,8,2,1.0,1.0,1.0,1.0,1.0,1.0,1.0,1.0,1.0,0.0,0.0,0.0,3.0,0.0,4.0,3.0,2.0,2.0,1.0,3.0,2.0,1.0,6.0,5.0,4.0,3.295019339537248,2.439236432313919,1.4573936441447586,5.94223806867376,5.062947547761723,4.278594087809324,834.4210909095127,890.3853378405329,891.1937397420406,890.9317972727586,898.1946543308441,899.2022983322386,892.2105498737656,898.1863212517928
1,40,1,1,1.0,1.0,0.6557371206581593,0,nan,nan,nan,nan,nan,nan,nan,nan,nan,2,6,4,0,1,8,nan,nan,nan,nan,nan,nan,nan,nan,nan,nan,nan,nan,0.0,nan,nan,nan,nan,nan,nan,nan,nan,nan,nan,nan,nan,nan,nan,nan,nan,nan,nan,834.4210909095127,899.4198781100567,nan,900.0756152307149,nan,nan,nan,nan
1,41,1,1,1.0,1.0,0.36693630111403763,0,nan,nan,nan,nan,nan,nan,nan,nan,nan,3,5,0,4,6,7,nan,nan,nan,nan,nan,nan,nan,nan,nan,nan,nan,nan,0.0,nan,nan,nan,nan,nan,nan,nan,nan,nan,nan,nan,nan,nan,nan,nan,nan,nan,nan,834.4210909095127,900.4366454775445,nan,900.8035817786586,nan,nan,nan,nan
1,42,1,1,1.0,1.0,0.6301160885486752,0,nan,nan,nan,nan,nan,nan,nan,nan,nan,8,4,3,6,7,2,nan,nan,nan,nan,nan,nan,nan,nan,nan,nan,nan,nan,0.0,nan,nan,nan,nan,nan,nan,nan,nan,nan,nan,nan,nan,nan,nan,nan,nan,nan,nan,834.4210909095127,901.4534325164277,nan,902.0835486049764,nan,nan,nan,nan
1,43,1,1,1.0,1.0,0.5412943428382277,0,nan,nan,nan,nan,nan,nan,nan,nan,nan,4,2,0,7,1,5,nan,nan,nan,nan,nan,nan,nan,nan,nan,nan,nan,nan,0.0,nan,nan,nan,nan,nan,nan,nan,nan,nan,nan,nan,nan,nan,nan,nan,nan,nan,nan,834.4210909095127,902.4702366613783,nan,903.0115310042165,nan,nan,nan,nan
1,44,1,1,1.0,1.0,0.4601465337909758,0,nan,nan,nan,nan,nan,nan,nan,nan,nan,2,5,3,8,7,1,nan,nan,nan,nan,nan,nan,nan,nan,nan,nan,nan,nan,0.0,nan,nan,nan,nan,nan,nan,nan,nan,nan,nan,nan,nan,nan,nan,nan,nan,nan,nan,834.4210909095127,903.4953616261482,nan,903.9555081599392,nan,nan,nan,nan
1,45,1,1,1.0,1.0,0.7469633682630956,0,nan,nan,nan,nan,nan,nan,nan,nan,nan,1,0,4,6,3,8,nan,nan,nan,nan,nan,nan,nan,nan,nan,nan,nan,nan,0.0,nan,nan,nan,nan,nan,nan,nan,nan,nan,nan,nan,nan,nan,nan,nan,nan,nan,nan,834.4210909095127,904.5205076881684,nan,905.2674710564315,nan,nan,nan,nan
1,46,1,1,1.0,1.0,0.4498300398699939,0,nan,nan,nan,nan,nan,nan,nan,nan,nan,6,1,3,8,4,2,nan,nan,nan,nan,nan,nan,nan,nan,nan,nan,nan,nan,0.0,nan,nan,nan,nan,nan,nan,nan,nan,nan,nan,nan,nan,nan,nan,nan,nan,nan,nan,834.4210909095127,905.5456337933429,nan,905.9954638332129,nan,nan,nan,nan
1,47,1,1,1.0,1.0,0.3526595348957926,0,nan,nan,nan,nan,nan,nan,nan,nan,nan,5,4,2,6,8,1,nan,nan,nan,nan,nan,nan,nan,nan,nan,nan,nan,nan,0.0,nan,nan,nan,nan,nan,nan,nan,nan,nan,nan,nan,nan,nan,nan,nan,nan,nan,nan,834.4210909095127,906.5707918293774,nan,906.9234513642732,nan,nan,nan,nan
1,48,0,0,0.0,1.0,0.5035034054890275,0,nan,nan,nan,nan,nan,nan,nan,nan,nan,1,5,7,3,2,8,nan,nan,nan,nan,nan,nan,nan,nan,nan,nan,nan,nan,0.0,nan,nan,nan,nan,nan,nan,nan,nan,nan,nan,nan,nan,nan,nan,nan,nan,nan,nan,834.4210909095127,907.5958994033281,nan,908.0994028088171,nan,nan,nan,nan
1,49,1,1,1.0,1.0,0.39863758184947073,0,nan,nan,nan,nan,nan,nan,nan,nan,nan,8,3,5,7,4,1,nan,nan,nan,nan,nan,nan,nan,nan,nan,nan,nan,nan,0.0,nan,nan,nan,nan,nan,nan,nan,nan,nan,nan,nan,nan,nan,nan,nan,nan,nan,nan,834.4210909095127,908.6127474529203,nan,909.0113850347698,nan,nan,nan,nan
1,50,1,1,1.0,1.0,0.3978467248380184,0,nan,nan,nan,nan,nan,nan,nan,nan,nan,2,8,4,3,1,0,nan,nan,nan,nan,nan,nan,nan,nan,nan,nan,nan,nan,0.0,nan,nan,nan,nan,nan,nan,nan,nan,nan,nan,nan,nan,nan,nan,nan,nan,nan,nan,834.4210909095127,909.6295250838157,nan,910.0273718086537,nan,nan,nan,nan
1,51,1,1,1.0,1.0,0.37301997072063386,0,nan,nan,nan,nan,nan,nan,nan,nan,nan,7,3,1,2,6,5,nan,nan,nan,nan,nan,nan,nan,nan,nan,nan,nan,nan,0.0,nan,nan,nan,nan,nan,nan,nan,nan,nan,nan,nan,nan,nan,nan,nan,nan,nan,nan,834.4210909095127,910.6463178249542,nan,911.0193377956748,nan,nan,nan,nan
1,52,1,1,1.0,1.0,0.5721973539330065,0,nan,nan,nan,nan,nan,nan,nan,nan,nan,2,5,4,3,7,1,nan,nan,nan,nan,nan,nan,nan,nan,nan,nan,nan,nan,0.0,nan,nan,nan,nan,nan,nan,nan,nan,nan,nan,nan,nan,nan,nan,nan,nan,nan,nan,834.4210909095127,911.6631062894594,nan,912.2353036433924,nan,nan,nan,nan
1,53,1,1,1.0,1.0,0.5553447427228093,0,nan,nan,nan,nan,nan,nan,nan,nan,nan,5,4,8,1,3,0,nan,nan,nan,nan,nan,nan,nan,nan,nan,nan,nan,nan,0.0,nan,nan,nan,nan,nan,nan,nan,nan,nan,nan,nan,nan,nan,nan,nan,nan,nan,nan,834.4210909095127,912.6799306760076,nan,913.2352754187305,nan,nan,nan,nan
1,54,1,1,1.0,1.0,0.5705740156117827,0,nan,nan,nan,nan,nan,nan,nan,nan,nan,6,5,0,3,7,2,nan,nan,nan,nan,nan,nan,nan,nan,nan,nan,nan,nan,0.0,nan,nan,nan,nan,nan,nan,nan,nan,nan,nan,nan,nan,nan,nan,nan,nan,nan,nan,834.4210909095127,913.6966954777017,nan,914.2672694933135,nan,nan,nan,nan
1,55,1,1,1.0,1.0,0.7057099367957562,0,nan,nan,nan,nan,nan,nan,nan,nan,nan,1,0,3,7,2,4,nan,nan,nan,nan,nan,nan,nan,nan,nan,nan,nan,nan,0.0,nan,nan,nan,nan,nan,nan,nan,nan,nan,nan,nan,nan,nan,nan,nan,nan,nan,nan,834.4210909095127,914.7135326936841,nan,915.4192426304799,nan,nan,nan,nan
1,56,1,1,1.0,1.0,0.6165871294215322,1,nan,nan,nan,nan,nan,nan,nan,nan,nan,5,2,4,0,7,8,1.0,1.0,1.0,1.0,1.0,1.0,0.0,0.0,0.0,0.0,0.0,0.0,0.0,6.0,5.0,1.0,2.0,4.0,7.0,1.0,2.0,3.0,4.0,5.0,6.0,1.6770429357420653,2.324916245881468,2.9898822181858122,4.285243958467618,5.004493402549997,5.6687052950728685,834.4210909095127,915.7386265830137,916.5470518623479,916.3552137124352,923.2729258034378,924.270934691187,917.5638537262566,923.2645932945888
1,57,1,1,1.0,1.0,0.24925197870470583,0,nan,nan,nan,nan,nan,nan,nan,nan,nan,3,7,1,5,4,2,nan,nan,nan,nan,nan,nan,nan,nan,nan,nan,nan,nan,0.0,nan,nan,nan,nan,nan,nan,nan,nan,nan,nan,nan,nan,nan,nan,nan,nan,nan,nan,834.4210909095127,924.4897837175522,nan,924.7390356962569,nan,nan,nan,nan
1,58,1,1,1.0,1.0,0.42442653607577085,0,nan,nan,nan,nan,nan,nan,nan,nan,nan,0,3,7,4,6,8,nan,nan,nan,nan,nan,nan,nan,nan,nan,nan,nan,nan,0.0,nan,nan,nan,nan,nan,nan,nan,nan,nan,nan,nan,nan,nan,nan,nan,nan,nan,nan,834.4210909095127,925.5065676204395,nan,925.9309941565152,nan,nan,nan,nan
1,59,1,1,1.0,1.0,0.5035803816281259,0,nan,nan,nan,nan,nan,nan,nan,nan,nan,4,5,6,1,7,0,nan,nan,nan,nan,nan,nan,nan,nan,nan,nan,nan,nan,0.0,nan,nan,nan,nan,nan,nan,nan,nan,nan,nan,nan,nan,nan,nan,nan,nan,nan,nan,834.4210909095127,926.5233706249855,nan,927.0269510066137,nan,nan,nan,nan
1,60,1,1,1.0,1.0,0.45476676686666906,0,nan,nan,nan,nan,nan,nan,nan,nan,nan,8,6,2,5,3,1,nan,nan,nan,nan,nan,nan,nan,nan,nan,nan,nan,nan,0.0,nan,nan,nan,nan,nan,nan,nan,nan,nan,nan,nan,nan,nan,nan,nan,nan,nan,nan,834.4210909095127,927.5401796165388,nan,927.9949463834055,nan,nan,nan,nan
1,61,1,1,1.0,1.0,0.4139401246793568,0,nan,nan,nan,nan,nan,nan,nan,nan,nan,7,5,4,8,0,6,nan,nan,nan,nan,nan,nan,nan,nan,nan,nan,nan,nan,0.0,nan,nan,nan,nan,nan,nan,nan,nan,nan,nan,nan,nan,nan,nan,nan,nan,nan,nan,834.4210909095127,928.5569834762719,nan,928.9709236009512,nan,nan,nan,nan
1,62,1,1,1.0,1.0,0.46912336023524404,0,nan,nan,nan,nan,nan,nan,nan,nan,nan,0,1,3,6,2,7,nan,nan,nan,nan,nan,nan,nan,nan,nan,nan,nan,nan,0.0,nan,nan,nan,nan,nan,nan,nan,nan,nan,nan,nan,nan,nan,nan,nan,nan,nan,nan,834.4210909095127,929.5737702301703,nan,930.0428935904056,nan,nan,nan,nan
1,63,1,1,1.0,1.0,0.49230938544496894,0,nan,nan,nan,nan,nan,nan,nan,nan,nan,8,4,1,2,5,6,nan,nan,nan,nan,nan,nan,nan,nan,nan,nan,nan,nan,0.0,nan,nan,nan,nan,nan,nan,nan,nan,nan,nan,nan,nan,nan,nan,nan,nan,nan,nan,834.4210909095127,930.590565251885,nan,931.08287463733,nan,nan,nan,nan
1,64,1,1,1.0,1.0,0.4194527461659163,0,nan,nan,nan,nan,nan,nan,nan,nan,nan,3,0,6,1,4,5,nan,nan,nan,nan,nan,nan,nan,nan,nan,nan,nan,nan,0.0,nan,nan,nan,nan,nan,nan,nan,nan,nan,nan,nan,nan,nan,nan,nan,nan,nan,nan,834.4210909095127,931.6074044636916,nan,932.0268572098576,nan,nan,nan,nan
1,65,1,1,1.0,1.0,0.42665912490338087,0,nan,nan,nan,nan,nan,nan,nan,nan,nan,2,7,8,0,5,6,nan,nan,nan,nan,nan,nan,nan,nan,nan,nan,nan,nan,0.0,nan,nan,nan,nan,nan,nan,nan,nan,nan,nan,nan,nan,nan,nan,nan,nan,nan,nan,834.4210909095127,932.6241666993592,nan,933.0508258242626,nan,nan,nan,nan
1,66,1,1,1.0,1.0,0.3538292848970741,0,nan,nan,nan,nan,nan,nan,nan,nan,nan,7,5,1,2,4,0,nan,nan,nan,nan,nan,nan,nan,nan,nan,nan,nan,nan,0.0,nan,nan,nan,nan,nan,nan,nan,nan,nan,nan,nan,nan,nan,nan,nan,nan,nan,nan,834.4210909095127,933.6409742652904,nan,933.9948035501875,nan,nan,nan,nan
1,67,1,1,1.0,1.0,0.3082249991130084,0,nan,nan,nan,nan,nan,nan,nan,nan,nan,3,2,4,6,0,8,nan,nan,nan,nan,nan,nan,nan,nan,nan,nan,nan,nan,0.0,nan,nan,nan,nan,nan,nan,nan,nan,nan,nan,nan,nan,nan,nan,nan,nan,nan,nan,834.4210909095127,934.6625711636152,nan,934.9707961627282,nan,nan,nan,nan
1,68,1,1,1.0,1.0,0.3358599515631795,0,nan,nan,nan,nan,nan,nan,nan,nan,nan,5,4,7,0,2,3,nan,nan,nan,nan,nan,nan,nan,nan,nan,nan,nan,nan,0.0,nan,nan,nan,nan,nan,nan,nan,nan,nan,nan,nan,nan,nan,nan,nan,nan,nan,nan,834.4210909095127,935.6829022346064,nan,936.0187621861696,nan,nan,nan,nan
1,69,1,1,1.0,1.0,0.35104874102398753,0,nan,nan,nan,nan,nan,nan,nan,nan,nan,1,7,0,3,8,5,nan,nan,nan,nan,nan,nan,nan,nan,nan,nan,nan,nan,0.0,nan,nan,nan,nan,nan,nan,nan,nan,nan,nan,nan,nan,nan,nan,nan,nan,nan,nan,834.4210909095127,936.6996955457143,nan,937.0507442867383,nan,nan,nan,nan
1,70,1,1,1.0,1.0,0.366215577814728,0,nan,nan,nan,nan,nan,nan,nan,nan,nan,7,8,4,2,6,0,nan,nan,nan,nan,nan,nan,nan,nan,nan,nan,nan,nan,0.0,nan,nan,nan,nan,nan,nan,nan,nan,nan,nan,nan,nan,nan,nan,nan,nan,nan,nan,834.4210909095127,937.716492848238,nan,938.0827084260527,nan,nan,nan,nan
1,71,1,1,1.0,1.0,0.48505282984115183,0,nan,nan,nan,nan,nan,nan,nan,nan,nan,0,2,7,4,5,6,nan,nan,nan,nan,nan,nan,nan,nan,nan,nan,nan,nan,0.0,nan,nan,nan,nan,nan,nan,nan,nan,nan,nan,nan,nan,nan,nan,nan,nan,nan,nan,834.4210909095127,938.7416334934533,nan,939.2266863232944,nan,nan,nan,nan
1,72,1,1,1.0,1.0,0.5638802400790155,0,nan,nan,nan,nan,nan,nan,nan,nan,nan,1,5,3,8,7,2,nan,nan,nan,nan,nan,nan,nan,nan,nan,nan,nan,nan,0.0,nan,nan,nan,nan,nan,nan,nan,nan,nan,nan,nan,nan,nan,nan,nan,nan,nan,nan,834.4210909095127,939.7667653006501,nan,940.3306455407292,nan,nan,nan,nan
1,73,1,1,1.0,1.0,0.7470614411868155,0,nan,nan,nan,nan,nan,nan,nan,nan,nan,3,6,1,5,2,8,nan,nan,nan,nan,nan,nan,nan,nan,nan,nan,nan,nan,0.0,nan,nan,nan,nan,nan,nan,nan,nan,nan,nan,nan,nan,nan,nan,nan,nan,nan,nan,834.4210909095127,940.7835708709899,nan,941.5306323121767,nan,nan,nan,nan
1,74,1,1,nan,nan,nan,0,nan,nan,nan,nan,nan,nan,nan,nan,nan,0,5,8,7,4,3,nan,nan,nan,nan,nan,nan,nan,nan,nan,nan,nan,nan,0.0,nan,nan,nan,nan,nan,nan,nan,nan,nan,nan,nan,nan,nan,nan,nan,nan,nan,nan,834.4210909095127,941.8087006823625,nan,nan,nan,nan,nan,nan
1,75,1,1,nan,nan,nan,0,nan,nan,nan,nan,nan,nan,nan,nan,nan,2,0,4,3,8,7,nan,nan,nan,nan,nan,nan,nan,nan,nan,nan,nan,nan,0.0,nan,nan,nan,nan,nan,nan,nan,nan,nan,nan,nan,nan,nan,nan,nan,nan,nan,nan,834.4210909095127,942.8255148055032,nan,nan,nan,nan,nan,nan
1,76,1,1,nan,nan,nan,0,nan,nan,nan,nan,nan,nan,nan,nan,nan,7,4,6,8,1,5,nan,nan,nan,nan,nan,nan,nan,nan,nan,nan,nan,nan,0.0,nan,nan,nan,nan,nan,nan,nan,nan,nan,nan,nan,nan,nan,nan,nan,nan,nan,nan,834.4210909095127,943.8423121080268,nan,nan,nan,nan,nan,nan
1,77,1,1,nan,nan,nan,0,nan,nan,nan,nan,nan,nan,nan,nan,nan,0,5,4,7,3,8,nan,nan,nan,nan,nan,nan,nan,nan,nan,nan,nan,nan,0.0,nan,nan,nan,nan,nan,nan,nan,nan,nan,nan,nan,nan,nan,nan,nan,nan,nan,nan,834.4210909095127,944.8591213847976,nan,nan,nan,nan,nan,nan
1,78,1,1,1.0,1.0,0.7982829790562391,0,nan,nan,nan,nan,nan,nan,nan,nan,nan,8,0,7,4,2,6,nan,nan,nan,nan,nan,nan,nan,nan,nan,nan,nan,nan,0.0,nan,nan,nan,nan,nan,nan,nan,nan,nan,nan,nan,nan,nan,nan,nan,nan,nan,nan,834.4210909095127,945.8842289587483,nan,946.6825119378045,nan,nan,nan,nan
1,79,1,1,1.0,1.0,0.6368038768414408,0,nan,nan,nan,nan,nan,nan,nan,nan,nan,5,4,8,2,6,1,nan,nan,nan,nan,nan,nan,nan,nan,nan,nan,nan,nan,0.0,nan,nan,nan,nan,nan,nan,nan,nan,nan,nan,nan,nan,nan,nan,nan,nan,nan,nan,834.4210909095127,946.917678164551,nan,947.5544820413925,nan,nan,nan,nan
1,80,1,1,1.0,1.0,0.4759776450227946,0,nan,nan,nan,nan,nan,nan,nan,nan,nan,0,7,4,6,1,2,nan,nan,nan,nan,nan,nan,nan,nan,nan,nan,nan,nan,0.0,nan,nan,nan,nan,nan,nan,nan,nan,nan,nan,nan,nan,nan,nan,nan,nan,nan,nan,834.4210909095127,947.934496564325,nan,948.4104742093477,nan,nan,nan,nan
1,81,0,0,0.0,1.0,0.571118549676612,0,0.0,0.0,0.0,0.4366297032898537,0.11809309617472853,0.31853660711512516,0.5547227994645823,0.11809309617472853,0.5613000238469491,4,3,2,7,8,0,nan,nan,nan,nan,nan,nan,nan,nan,nan,nan,nan,nan,0.0,nan,nan,nan,nan,nan,nan,nan,nan,nan,nan,nan,nan,nan,nan,nan,nan,nan,nan,834.4210909095127,948.9513155340683,nan,949.5224340837449,nan,nan,nan,nan
1,82,1,1,1.0,1.0,0.47433292446658015,0,0.0,0.0,0.0,0.43837631168448693,0.11830769821196975,0.3200686134725172,0.5566840098964567,0.11830769821196975,0.5071430397219956,0,1,6,3,7,4,nan,nan,nan,nan,nan,nan,nan,nan,nan,nan,nan,nan,0.0,nan,nan,nan,nan,nan,nan,nan,nan,nan,nan,nan,nan,nan,nan,nan,nan,nan,nan,834.4210909095127,949.9680894587655,nan,950.442422383232,nan,nan,nan,nan
1,83,1,1,1.0,1.0,0.5294913568068296,0,0.0,0.0,0.0,0.438837293899642,0.11761644992071545,0.32122084397892653,0.5564537438203574,0.11761644992071545,0.5249809436500072,1,2,5,8,0,3,nan,nan,nan,nan,nan,nan,nan,nan,nan,nan,nan,nan,0.0,nan,nan,nan,nan,nan,nan,nan,nan,nan,nan,nan,nan,nan,nan,nan,nan,nan,nan,834.4210909095127,950.9848981651012,nan,951.514389521908,nan,nan,nan,nan
1,84,0,0,0.0,1.0,0.5046788575127721,0,0.0,0.0,0.0,0.43998481368327724,0.11730827161546431,0.32267654206781293,0.5572930852987416,0.11730827161546431,0.5028343795953939,8,0,6,5,4,1,nan,nan,nan,nan,nan,nan,nan,nan,nan,nan,nan,nan,0.0,nan,nan,nan,nan,nan,nan,nan,nan,nan,nan,nan,nan,nan,nan,nan,nan,nan,nan,834.4210909095127,952.0016909062397,nan,952.5063697637524,nan,nan,nan,nan
1,85,1,1,1.0,1.0,0.4235199298709631,0,0.0,0.0,0.0,0.4407934892311459,0.11679416827151896,0.32399932095962697,0.5575876575026649,0.11679416827151896,0.48589671473018825,7,6,8,0,1,2,nan,nan,nan,nan,nan,nan,nan,nan,nan,nan,nan,nan,0.0,nan,nan,nan,nan,nan,nan,nan,nan,nan,nan,nan,nan,nan,nan,nan,nan,nan,nan,834.4210909095127,953.0268363978248,nan,953.4503563276958,nan,nan,nan,nan
1,86,1,1,1.0,1.0,0.39868091652169824,0,0.0,0.0,0.0,0.4405802354118844,0.11608664875642663,0.3244935866554578,0.556666884168311,0.11608664875642663,0.44229323463514447,4,1,0,2,8,7,nan,nan,nan,nan,nan,nan,nan,nan,nan,nan,nan,nan,0.0,nan,nan,nan,nan,nan,nan,nan,nan,nan,nan,nan,nan,nan,nan,nan,nan,nan,nan,834.4210909095127,954.0436402575579,nan,954.4423211740796,nan,nan,nan,nan
1,87,1,1,1.0,1.0,0.3739262919407338,0,0.0,0.0,0.0,0.44006926810834557,0.115468243724369,0.3246010243839766,0.5555375118327146,0.115468243724369,0.3987090461111317,7,2,3,0,1,6,nan,nan,nan,nan,nan,nan,nan,nan,nan,nan,nan,nan,0.0,nan,nan,nan,nan,nan,nan,nan,nan,nan,nan,nan,nan,nan,nan,nan,nan,nan,nan,834.4210909095127,955.0603888086043,nan,955.4343151005451,nan,nan,nan,nan
1,88,1,1,1.0,1.0,0.38904865365475416,0,0.0,0.0,0.0,0.43927236478102494,0.11499718378213966,0.3242751809988853,0.5542695485631646,0.11499718378213966,0.3872186207057287,6,3,2,4,0,1,nan,nan,nan,nan,nan,nan,nan,nan,nan,nan,nan,nan,0.0,nan,nan,nan,nan,nan,nan,nan,nan,nan,nan,nan,nan,nan,nan,nan,nan,nan,nan,834.4210909095127,956.0772382838186,nan,956.4662869374733,nan,nan,nan,nan
1,89,1,1,1.0,1.0,0.3802160860504955,0,0.0,0.0,0.0,0.43867446345809313,0.11444033751236493,0.3242341259457282,0.5531148009704581,0.11444033751236493,0.3810636772153278,7,0,5,8,4,3,nan,nan,nan,nan,nan,nan,nan,nan,nan,nan,nan,nan,0.0,nan,nan,nan,nan,nan,nan,nan,nan,nan,nan,nan,nan,nan,nan,nan,nan,nan,nan,834.4210909095127,957.0940410031471,nan,957.4742570891976,nan,nan,nan,nan
1,90,0,0,0.0,1.0,0.37942665442824364,0,0.0,0.0,0.0,0.4379867178415332,0.11393965424431074,0.32404706359722246,0.5519263720858439,0.11393965424431074,0.3828971313778311,0,4,6,5,1,8,nan,nan,nan,nan,nan,nan,nan,nan,nan,nan,nan,nan,0.0,nan,nan,nan,nan,nan,nan,nan,nan,nan,nan,nan,nan,nan,nan,nan,nan,nan,nan,834.4210909095127,958.1108115066309,nan,958.4902381610591,nan,nan,nan,nan
1,91,1,1,1.0,1.0,0.43459335435181856,0,0.0,0.0,0.0,0.4373057868716112,0.11344910827377169,0.3238566785978395,0.5507548951453829,0.11344910827377169,0.39807869827685255,8,0,3,6,7,2,nan,nan,nan,nan,nan,nan,nan,nan,nan,nan,nan,nan,0.0,nan,nan,nan,nan,nan,nan,nan,nan,nan,nan,nan,nan,nan,nan,nan,nan,nan,nan,834.4210909095127,959.1276310468093,nan,959.5622244011611,nan,nan,nan,nan
1,92,1,1,1.0,1.0,0.42577618174254894,0,0.0,0.0,0.0,0.43727460948632624,0.1127955880353759,0.3244790214509503,0.5500701975217022,0.1127955880353759,0.4132653968408704,3,5,7,1,8,4,nan,nan,nan,nan,nan,nan,nan,nan,nan,nan,nan,nan,0.0,nan,nan,nan,nan,nan,nan,nan,nan,nan,nan,nan,nan,nan,nan,nan,nan,nan,nan,834.4210909095127,960.144415234914,nan,960.5701914166566,nan,nan,nan,nan
1,93,1,1,1.0,1.0,0.4329734374769032,0,0.0,0.0,0.0,0.4371439455346924,0.11215949472392968,0.3249844508107627,0.5493034402586221,0.11215949472392968,0.4311143245237569,2,4,1,7,6,0,nan,nan,nan,nan,nan,nan,nan,nan,nan,nan,nan,nan,0.0,nan,nan,nan,nan,nan,nan,nan,nan,nan,nan,nan,nan,nan,nan,nan,nan,nan,nan,834.4210909095127,961.1612045546062,nan,961.5941779920831,nan,nan,nan,nan
1,94,1,1,1.0,1.0,0.7040982875041664,0,0.0,0.0,0.0,0.43709708589359364,0.1115284715148449,0.32556861437874873,0.5486255574084385,0.1115284715148449,0.5209493022412062,7,8,6,4,0,3,nan,nan,nan,nan,nan,nan,nan,nan,nan,nan,nan,nan,0.0,nan,nan,nan,nan,nan,nan,nan,nan,nan,nan,nan,nan,nan,nan,nan,nan,nan,nan,834.4210909095127,962.1780255201738,nan,962.882123807678,nan,nan,nan,nan
1,95,1,1,1.0,1.0,0.6152779676485807,1,0.0,1.0,1.0,0.4400637659114889,0.1143839990185526,0.32567976689293626,0.5544477649300414,0.1143839990185526,0.5841165642098834,4,7,8,1,2,6,1.0,1.0,1.0,1.0,1.0,1.0,0.0,0.0,0.0,0.0,0.0,0.0,0.0,1.0,4.0,4.0,5.0,3.0,8.0,2.0,5.0,6.0,1.0,3.0,4.0,3.3172579894308,6.020365852629766,6.587802954018116,2.101109395036474,4.533100105589256,5.1796172126196325,834.4210909095127,963.1948325159028,964.0032418298069,963.8101104835514,971.6375656542368,972.6454639614094,965.0117040576879,971.6292317197658
1,96,1,1,1.0,1.0,0.2831348159816116,0,0.0,0.0,0.0,0.4419891966998086,0.11521101445477978,0.3267781822450288,0.5572002111545884,0.11521101445477978,0.5341703570447862,3,1,7,6,4,8,nan,nan,nan,nan,nan,nan,nan,nan,nan,nan,nan,nan,0.0,nan,nan,nan,nan,nan,nan,nan,nan,nan,nan,nan,nan,nan,nan,nan,nan,nan,nan,834.4210909095127,972.8627609238029,nan,973.1458957397845,nan,nan,nan,nan
1,97,1,1,1.0,1.0,0.354333050083369,0,0.0,0.0,0.0,0.44026251864852384,0.11576099855744189,0.32450152009108196,0.5560235172059658,0.11576099855744189,0.4175819445711871,0,2,6,5,1,3,nan,nan,nan,nan,nan,nan,nan,nan,nan,nan,nan,nan,0.0,nan,nan,nan,nan,nan,nan,nan,nan,nan,nan,nan,nan,nan,nan,nan,nan,nan,nan,834.4210909095127,973.8795394098852,nan,974.2338724599686,nan,nan,nan,nan
1,98,0,0,1.0,0.0,0.3371759559959173,0,0.0,0.0,0.0,0.4393385458682534,0.11547752588141283,0.3238610199868406,0.5548160717496662,0.11547752588141283,0.3248812740202993,2,4,8,7,6,0,nan,nan,nan,nan,nan,nan,nan,nan,nan,nan,nan,nan,0.0,nan,nan,nan,nan,nan,nan,nan,nan,nan,nan,nan,nan,nan,nan,nan,nan,nan,nan,834.4210909095127,974.9046695064753,nan,975.2418454624712,nan,nan,nan,nan
1,99,1,1,1.0,1.0,0.36801168438978493,0,0.0,0.0,0.0,0.4382517098057817,0.11533884613763347,0.32291286366814825,0.5535905559434152,0.11533884613763347,0.3531735634896904,4,1,2,3,7,5,nan,nan,nan,nan,nan,nan,nan,nan,nan,nan,nan,nan,0.0,nan,nan,nan,nan,nan,nan,nan,nan,nan,nan,nan,nan,nan,nan,nan,nan,nan,nan,834.4210909095127,975.9298195599113,nan,976.297831244301,nan,nan,nan,nan
1,100,1,1,1.0,1.0,0.34288928541354835,0,0.0,0.0,0.0,0.4375123411171923,0.11495392093589253,0.32255842018129977,0.5524662620530848,0.11495392093589253,0.34935897526641685,6,2,4,0,3,8,nan,nan,nan,nan,nan,nan,nan,nan,nan,nan,nan,nan,0.0,nan,nan,nan,nan,nan,nan,nan,nan,nan,nan,nan,nan,nan,nan,nan,nan,nan,nan,834.4210909095127,976.9549163000192,nan,977.2978055854328,nan,nan,nan,nan
1,101,1,1,1.0,1.0,0.3019756886642426,0,0.0,0.0,0.0,0.43652668428694597,0.1147564736268725,0.3217702106600735,0.5512831579138184,0.1147564736268725,0.3376255528225253,4,0,7,3,1,6,nan,nan,nan,nan,nan,nan,nan,nan,nan,nan,nan,nan,0.0,nan,nan,nan,nan,nan,nan,nan,nan,nan,nan,nan,nan,nan,nan,nan,nan,nan,nan,834.4210909095127,977.9717982762959,nan,978.2737739649601,nan,nan,nan,nan
1,102,0,0,0.0,1.0,0.5331733752973378,0,0.0,0.0,0.0,0.4351395606207325,0.11496955950876951,0.320170001111963,0.550109120129502,0.11496955950876951,0.3926794497917096,7,4,2,6,3,5,nan,nan,nan,nan,nan,nan,nan,nan,nan,nan,nan,nan,0.0,nan,nan,nan,nan,nan,nan,nan,nan,nan,nan,nan,nan,nan,nan,nan,nan,nan,nan,834.4210909095127,978.9885664989706,nan,979.521739874268,nan,nan,nan,nan
1,103,1,1,1.0,1.0,0.33237464958801866,0,0.0,0.0,0.0,0.436139905668453,0.11480500432197596,0.321334901346477,0.550944909990429,0.11480500432197596,0.3891745711831997,3,0,4,5,8,2,nan,nan,nan,nan,nan,nan,nan,nan,nan,nan,nan,nan,0.0,nan,nan,nan,nan,nan,nan,nan,nan,nan,nan,nan,nan,nan,nan,nan,nan,nan,nan,834.4210909095127,980.005356388865,nan,980.3377310384531,nan,nan,nan,nan
1,104,1,1,1.0,1.0,0.28311172337271273,0,0.0,0.0,0.0,0.4350917717686506,0.1146940150697451,0.3203977566989055,0.5497857868383957,0.1146940150697451,0.3828865827526897,2,6,7,8,1,3,nan,nan,nan,nan,nan,nan,nan,nan,nan,nan,nan,nan,0.0,nan,nan,nan,nan,nan,nan,nan,nan,nan,nan,nan,nan,nan,nan,nan,nan,nan,nan,834.4210909095127,981.0305876946077,nan,981.3136994179804,nan,nan,nan,nan
1,105,1,1,1.0,1.0,0.2660561236552894,1,1.0,0.0,1.0,0.43357197128469127,0.11511663424320569,0.3184553370414856,0.548688605527897,0.11511663424320569,0.29384749887200695,7,4,6,5,0,2,1.0,1.0,1.0,1.0,1.0,1.0,0.0,1.0,1.0,0.0,0.0,1.0,3.0,4.0,4.0,6.0,1.0,2.0,2.0,3.0,2.0,1.0,6.0,5.0,4.0,3.8160342138726264,2.7981013727840036,2.006890206830576,6.0624549011699855,5.37411388498731,4.615474398713559,834.4210909095127,982.0556202882435,982.8640327383764,982.3216764118988,989.973282772582,990.9750546459109,983.8725038040429,989.9649593867362
1,106,1,1,1.0,1.0,0.2909989117179066,0,0.0,0.0,0.0,0.4319133985358853,0.11573987862578798,0.3161735199100973,0.5476532771616732,0.11573987862578798,0.28005558624863625,4,5,2,3,6,7,nan,nan,nan,nan,nan,nan,nan,nan,nan,nan,nan,nan,0.0,nan,nan,nan,nan,nan,nan,nan,nan,nan,nan,nan,nan,nan,nan,nan,nan,nan,nan,834.4210909095127,991.198478042148,nan,991.489476953866,nan,nan,nan,nan
1,107,1,1,1.0,1.0,0.4338452615775168,0,0.0,0.0,0.0,0.4305318839592384,0.11600498159997606,0.31452690235926234,0.5465368655592144,0.11600498159997606,0.33030009898357093,3,4,6,1,0,2,nan,nan,nan,nan,nan,nan,nan,nan,nan,nan,nan,nan,0.0,nan,nan,nan,nan,nan,nan,nan,nan,nan,nan,nan,nan,nan,nan,nan,nan,nan,nan,834.4210909095127,992.2236010113265,nan,992.657446272904,nan,nan,nan,nan
1,108,1,1,1.0,1.0,0.5683112065307796,0,0.0,0.0,0.0,0.430564052673979,0.1154409342939186,0.3151231183800604,0.5460049869678976,0.1154409342939186,0.431051793275401,1,2,8,6,3,7,nan,nan,nan,nan,nan,nan,nan,nan,nan,nan,nan,nan,0.0,nan,nan,nan,nan,nan,nan,nan,nan,nan,nan,nan,nan,nan,nan,nan,nan,nan,nan,834.4210909095127,993.2487108660862,nan,993.817022072617,nan,nan,nan,nan
1,109,1,1,1.0,1.0,0.49585569789633155,0,0.0,0.0,0.0,0.4318885445379867,0.11566831693418761,0.3162202276037991,0.5475568614721743,0.11566831693418761,0.4993373886682093,2,5,4,8,7,0,nan,nan,nan,nan,nan,nan,nan,nan,nan,nan,nan,nan,0.0,nan,nan,nan,nan,nan,nan,nan,nan,nan,nan,nan,nan,nan,nan,nan,nan,nan,nan,834.4210909095127,994.2655375334434,nan,994.7613932313398,nan,nan,nan,nan
1,110,1,1,1.0,1.0,0.47103122458793223,0,0.0,0.0,0.0,0.43249775552235187,0.11528372534646125,0.3172140301758906,0.5477814808688131,0.11528372534646125,0.5117327096716812,6,1,5,2,0,3,nan,nan,nan,nan,nan,nan,nan,nan,nan,nan,nan,nan,0.0,nan,nan,nan,nan,nan,nan,nan,nan,nan,nan,nan,nan,nan,nan,nan,nan,nan,nan,834.4210909095127,995.2823453845922,nan,995.7533766091801,nan,nan,nan,nan
1,111,1,1,1.0,1.0,0.42189374077133834,0,0.0,0.0,0.0,0.4328612788154234,0.11479909604737801,0.31806218276804543,0.5476603748628014,0.11479909604737801,0.46292688775186736,0,6,2,4,5,7,nan,nan,nan,nan,nan,nan,nan,nan,nan,nan,nan,nan,0.0,nan,nan,nan,nan,nan,nan,nan,nan,nan,nan,nan,nan,nan,nan,nan,nan,nan,nan,834.4210909095127,996.307462081546,nan,996.7293558223173,nan,nan,nan,nan
1,112,1,1,1.0,1.0,0.5250438549555838,0,0.0,0.0,0.0,0.4327587784598712,0.11426626564773731,0.31849251281213387,0.5470250441076085,0.11426626564773731,0.4726562734382848,5,8,1,7,2,0,nan,nan,nan,nan,nan,nan,nan,nan,nan,nan,nan,nan,0.0,nan,nan,nan,nan,nan,nan,nan,nan,nan,nan,nan,nan,nan,nan,nan,nan,nan,nan,834.4210909095127,997.3242836173158,nan,997.8493274722714,nan,nan,nan,nan
1,113,1,1,1.0,1.0,0.46821276284754276,0,0.0,0.0,0.0,0.4336132699089056,0.11407896393298692,0.3195343059759187,0.5476922338418925,0.11407896393298692,0.4717167861914883,6,2,5,8,3,4,nan,nan,nan,nan,nan,nan,nan,nan,nan,nan,nan,nan,0.0,nan,nan,nan,nan,nan,nan,nan,nan,nan,nan,nan,nan,nan,nan,nan,nan,nan,nan,834.4210909095127,998.3410897578578,nan,998.8093025207054,nan,nan,nan,nan
1,114,1,1,1.0,1.0,0.5070591263938695,0,0.0,0.0,0.0,0.433930696449627,0.11360236556737245,0.32032833088225454,0.5475330620169995,0.11360236556737245,0.5001052480656654,2,1,8,0,6,7,nan,nan,nan,nan,nan,nan,nan,nan,nan,nan,nan,nan,0.0,nan,nan,nan,nan,nan,nan,nan,nan,nan,nan,nan,nan,nan,nan,nan,nan,nan,nan,834.4210909095127,999.3662084506359,nan,999.8732675770298,nan,nan,nan,nan
1,115,1,1,1.0,1.0,0.3779102270491421,0,0.0,0.0,0.0,0.43459550035821104,0.1132976118906177,0.32129788846759333,0.5478931122488288,0.1132976118906177,0.4510607054301848,1,5,6,7,4,8,nan,nan,nan,nan,nan,nan,nan,nan,nan,nan,nan,nan,0.0,nan,nan,nan,nan,nan,nan,nan,nan,nan,nan,nan,nan,nan,nan,nan,nan,nan,nan,834.4210909095127,1000.3913433938287,nan,1000.7692536208779,nan,nan,nan,nan
1,116,1,1,1.0,1.0,0.3687497987411916,0,0.0,0.0,0.0,0.4340848222202915,0.11291321098637591,0.3211716112339156,0.5469980332066674,0.11291321098637591,0.41790638406140107,8,2,7,5,6,3,nan,nan,nan,nan,nan,nan,nan,nan,nan,nan,nan,nan,0.0,nan,nan,nan,nan,nan,nan,nan,nan,nan,nan,nan,nan,nan,nan,nan,nan,nan,nan,834.4210909095127,1001.416478051804,nan,1001.7852278505452,nan,nan,nan,nan
1,117,0,0,0.0,1.0,0.4719478089828044,0,0.0,0.0,0.0,0.433501473796371,0.11257589499910786,0.32092557879726313,0.5460773687954789,0.11257589499910786,0.40620261159104604,3,5,0,6,7,1,nan,nan,nan,nan,nan,nan,nan,nan,nan,nan,nan,nan,0.0,nan,nan,nan,nan,nan,nan,nan,nan,nan,nan,nan,nan,nan,nan,nan,nan,nan,nan,834.4210909095127,1002.4332596741151,nan,1002.9052074830979,nan,nan,nan,nan
1,118,1,1,1.0,1.0,0.4547721839044243,0,0.0,0.0,0.0,0.43384170685111817,0.11213448938064771,0.3217072174704705,0.5459761962317659,0.11213448938064771,0.4318232638761401,4,0,8,2,6,7,nan,nan,nan,nan,nan,nan,nan,nan,nan,nan,nan,nan,0.0,nan,nan,nan,nan,nan,nan,nan,nan,nan,nan,nan,nan,nan,nan,nan,nan,nan,nan,834.4210909095127,1003.45840602112,nan,1003.9131782050245,nan,nan,nan,nan
1,119,1,1,1.0,1.0,0.37394938454963267,0,0.0,0.0,0.0,0.43402530752702434,0.11165864652129778,0.32236666100572653,0.5456839540483222,0.11165864652129778,0.43355645914562047,2,7,0,1,3,4,nan,nan,nan,nan,nan,nan,nan,nan,nan,nan,nan,nan,0.0,nan,nan,nan,nan,nan,nan,nan,nan,nan,nan,nan,nan,nan,nan,nan,nan,nan,nan,834.4210909095127,1004.4752084554639,nan,1004.8491578400135,nan,nan,nan,nan
1,120,1,1,1.0,1.0,0.3491197794210166,0,0.0,0.0,0.0,0.43350290819678616,0.11131194763788542,0.32219096055890073,0.5448148558346716,0.11131194763788542,0.3926137826250245,7,6,2,5,0,8,nan,nan,nan,nan,nan,nan,nan,nan,nan,nan,nan,nan,0.0,nan,nan,nan,nan,nan,nan,nan,nan,nan,nan,nan,nan,nan,nan,nan,nan,nan,nan,834.4210909095127,1005.4920134556014,nan,1005.8411332350224,nan,nan,nan,nan
1,121,1,1,1.0,1.0,0.3563218815252185,0,0.0,0.0,0.0,0.4327754674314778,0.11110531438809715,0.32167015304338065,0.543880781819575,0.11110531438809715,0.3597970151652892,1,2,3,0,5,7,nan,nan,nan,nan,nan,nan,nan,nan,nan,nan,nan,nan,0.0,nan,nan,nan,nan,nan,nan,nan,nan,nan,nan,nan,nan,nan,nan,nan,nan,nan,nan,834.4210909095127,1006.508797073504,nan,1006.8651189550292,nan,nan,nan,nan
1,122,1,1,1.0,1.0,0.34716686978936195,0,0.0,0.0,0.0,0.43212201797928756,0.1108531227729543,0.3212688952063333,0.5429751407522418,0.1108531227729543,0.350869510245199,7,8,6,5,2,3,nan,nan,nan,nan,nan,nan,nan,nan,nan,nan,nan,nan,0.0,nan,nan,nan,nan,nan,nan,nan,nan,nan,nan,nan,nan,nan,nan,nan,nan,nan,nan,834.4210909095127,1007.5339260296896,nan,1007.881092899479,nan,nan,nan,nan
1,123,1,1,1.0,1.0,0.37034548236988485,0,0.0,0.0,0.0,0.4314020590963221,0.11065677382157528,0.3207452852747468,0.5420588329178974,0.11065677382157528,0.35794474456148845,4,5,1,2,7,8,nan,nan,nan,nan,nan,nan,nan,nan,nan,nan,nan,nan,0.0,nan,nan,nan,nan,nan,nan,nan,nan,nan,nan,nan,nan,nan,nan,nan,nan,nan,nan,834.4210909095127,1008.5507293192204,nan,1008.9210748015903,nan,nan,nan,nan
1,124,1,1,1.0,1.0,0.35349486698396504,0,0.0,0.0,0.0,0.4308889786196293,0.1103317124753241,0.32055726614430524,0.5412206910949534,0.1103317124753241,0.3570024063810706,8,0,3,7,2,4,nan,nan,nan,nan,nan,nan,nan,nan,nan,nan,nan,nan,0.0,nan,nan,nan,nan,nan,nan,nan,nan,nan,nan,nan,nan,nan,nan,nan,nan,nan,nan,834.4210909095127,1009.5675448677503,nan,1009.9210397347342,nan,nan,nan,nan
1,125,1,1,1.0,1.0,0.3846724256873131,0,0.0,0.0,0.0,0.4302440276893321,0.11009606637168996,0.32014796131764217,0.5403400940610221,0.11009606637168996,0.3695042583470543,3,1,2,5,6,7,nan,nan,nan,nan,nan,nan,nan,nan,nan,nan,nan,nan,0.0,nan,nan,nan,nan,nan,nan,nan,nan,nan,nan,nan,nan,nan,nan,nan,nan,nan,nan,834.4210909095127,1010.5843393194955,nan,1010.9690117451828,nan,nan,nan,nan
1,126,1,1,1.0,1.0,0.47941162972711027,0,0.0,0.0,0.0,0.4298674028793981,0.10971777721870561,0.3201496256606925,0.5395851800981037,0.10971777721870561,0.4058596407994628,5,3,1,6,4,0,nan,nan,nan,nan,nan,nan,nan,nan,nan,nan,nan,nan,0.0,nan,nan,nan,nan,nan,nan,nan,nan,nan,nan,nan,nan,nan,nan,nan,nan,nan,nan,834.4210909095127,1011.6095860202331,nan,1012.0889976499602,nan,nan,nan,nan
1,127,1,1,1.0,1.0,0.4946896543260664,0,0.0,0.0,0.0,0.43027350309946133,0.10935846372111395,0.32091503937834737,0.5396319668205752,0.10935846372111395,0.45292456991349656,6,7,3,2,0,5,nan,nan,nan,nan,nan,nan,nan,nan,nan,nan,nan,nan,0.0,nan,nan,nan,nan,nan,nan,nan,nan,nan,nan,nan,nan,nan,nan,nan,nan,nan,nan,834.4210909095127,1012.6262761265971,nan,1013.1209657809231,nan,nan,nan,nan
1,128,1,1,1.0,1.0,0.5978657123632729,0,0.0,0.0,0.0,0.4307972116460191,0.1090665152059495,0.3217306964400696,0.5398637268519686,0.1090665152059495,0.5239889988054832,3,8,6,5,7,1,nan,nan,nan,nan,nan,nan,nan,nan,nan,nan,nan,nan,0.0,nan,nan,nan,nan,nan,nan,nan,nan,nan,nan,nan,nan,nan,nan,nan,nan,nan,nan,834.4210909095127,1013.6430779907387,nan,1014.240943703102,nan,nan,nan,nan
1,129,1,1,1.0,1.0,0.661030218238011,1,0.0,1.0,1.0,0.4321445382647066,0.1096487747240285,0.3224957635406781,0.5417933129887351,0.1096487747240285,0.5845285283091167,4,1,8,3,0,6,1.0,1.0,1.0,1.0,1.0,1.0,0.0,1.0,0.0,0.0,1.0,0.0,2.0,6.0,1.0,5.0,2.0,0.0,2.0,6.0,2.0,3.0,4.0,1.0,5.0,5.929094559745863,2.4812479347456247,3.47384683531709,4.249063244787976,1.5051723590586334,5.217576641589403,834.4210909095127,1014.659880139865,1015.4682791903615,1015.320910358103,1022.4441936865915,1023.4535246025771,1016.4767499710433,1022.4358566161245
1,130,1,1,1.0,1.0,0.5630189643707126,0,0.0,0.0,0.0,0.43397562370449305,0.11109647757773351,0.32287914612675955,0.5450721012822266,0.11109647757773351,0.6073049649906656,0,8,3,1,5,2,nan,nan,nan,nan,nan,nan,nan,nan,nan,nan,nan,nan,0.0,nan,nan,nan,nan,nan,nan,nan,nan,nan,nan,nan,nan,nan,nan,nan,nan,nan,nan,834.4210909095127,1023.6777032187674,nan,1024.2407221831381,nan,nan,nan,nan
1,131,1,1,1.0,1.0,0.3861751682125032,0,0.0,0.0,0.0,0.434999777201844,0.1112455970184219,0.3237541801834221,0.546245374220266,0.1112455970184219,0.5367414502737423,5,2,6,3,8,0,nan,nan,nan,nan,nan,nan,nan,nan,nan,nan,nan,nan,0.0,nan,nan,nan,nan,nan,nan,nan,nan,nan,nan,nan,nan,nan,nan,nan,nan,nan,nan,834.4210909095127,1024.6945199079346,nan,1025.080695076147,nan,nan,nan,nan
1,132,0,0,0.0,1.0,0.5453398588579148,0,0.0,0.0,0.0,0.43461533146177045,0.11089075676581737,0.32372457469595306,0.5455060882275878,0.11089075676581737,0.4981779971470435,2,4,7,0,1,5,nan,nan,nan,nan,nan,nan,nan,nan,nan,nan,nan,nan,0.0,nan,nan,nan,nan,nan,nan,nan,nan,nan,nan,nan,nan,nan,nan,nan,nan,nan,nan,834.4210909095127,1025.711315785069,nan,1026.256655643927,nan,nan,nan,nan
1,133,1,1,1.0,1.0,0.44053561612963676,0,0.0,0.0,0.0,0.4354803668320528,0.1108860849947303,0.32459428183732253,0.5463664518267831,0.1108860849947303,0.4573502144000183,1,2,0,8,6,3,nan,nan,nan,nan,nan,nan,nan,nan,nan,nan,nan,nan,0.0,nan,nan,nan,nan,nan,nan,nan,nan,nan,nan,nan,nan,nan,nan,nan,nan,nan,nan,834.4210909095127,1026.7281108067837,nan,1027.1686464229133,nan,nan,nan,nan
1,134,1,1,1.0,1.0,0.46371308830566704,0,0.0,0.0,0.0,0.4355195548111039,0.11045634760410981,0.32506320720699405,0.5459759024152137,0.11045634760410981,0.4831961877644062,2,3,5,7,0,1,nan,nan,nan,nan,nan,nan,nan,nan,nan,nan,nan,nan,0.0,nan,nan,nan,nan,nan,nan,nan,nan,nan,nan,nan,nan,nan,nan,nan,nan,nan,nan,834.4210909095127,1027.7449063987006,nan,1028.2086194870062,nan,nan,nan,nan
1,135,1,1,1.0,1.0,0.5028784745372832,0,0.0,0.0,0.0,0.4357364281456774,0.11005826326102978,0.3256781648846476,0.5457946914067072,0.11005826326102978,0.4690423929908623,1,4,6,3,5,0,nan,nan,nan,nan,nan,nan,nan,nan,nan,nan,nan,nan,0.0,nan,nan,nan,nan,nan,nan,nan,nan,nan,nan,nan,nan,nan,nan,nan,nan,nan,nan,834.4210909095127,1028.761719096452,nan,1029.2645975709893,nan,nan,nan,nan
1,136,1,1,1.0,1.0,0.6060676469933242,0,0.0,0.0,0.0,0.4362489628509569,0.10979301874137772,0.3264559441095792,0.5460419815923346,0.10979301874137772,0.5242197366120914,0,5,8,1,4,7,nan,nan,nan,nan,nan,nan,nan,nan,nan,nan,nan,nan,0.0,nan,nan,nan,nan,nan,nan,nan,nan,nan,nan,nan,nan,nan,nan,nan,nan,nan,nan,834.4210909095127,1029.7785132629797,nan,1030.384580909973,nan,nan,nan,nan
1,137,1,1,1.0,1.0,0.5489397696219385,1,0.0,1.0,1.0,0.43753546803385357,0.1103630484519325,0.32717241958192106,0.547898516485786,0.1103630484519325,0.552628630384182,7,1,6,8,2,3,1.0,1.0,1.0,1.0,1.0,1.0,1.0,1.0,0.0,1.0,0.0,0.0,3.0,7.0,1.0,4.0,8.0,4.0,5.0,3.0,2.0,6.0,1.0,5.0,4.0,3.369980274233967,2.5386931244283915,5.737077940022573,1.585714623797685,4.921722255181521,4.250192511361092,834.4210909095127,1030.8036148499232,1031.6120600858703,1031.3525546195451,1038.396271282807,1039.3963787641842,1032.620525734732,1038.3879390589427
1,138,1,1,1.0,1.0,0.634897437877953,0,0.0,0.0,0.0,0.43837309436158356,0.1103677355746664,0.32800535878691717,0.54874082993625,0.1103677355746664,0.5966349514977386,1,6,0,5,3,7,nan,nan,nan,nan,nan,nan,nan,nan,nan,nan,nan,nan,0.0,nan,nan,nan,nan,nan,nan,nan,nan,nan,nan,nan,nan,nan,nan,nan,nan,nan,nan,834.4210909095127,1039.6214483063668,nan,1040.2563457442448,nan,nan,nan,nan
1,139,1,1,1.0,1.0,0.385728707537055,0,0.0,0.0,0.0,0.4398396939400639,0.1112483950414885,0.3285912988985754,0.5510880889815524,0.1112483950414885,0.5231886383456489,2,0,7,8,5,4,nan,nan,nan,nan,nan,nan,nan,nan,nan,nan,nan,nan,0.0,nan,nan,nan,nan,nan,nan,nan,nan,nan,nan,nan,nan,nan,nan,nan,nan,nan,nan,834.4210909095127,1040.6465918023605,nan,1041.0323205098975,nan,nan,nan,nan
1,140,1,1,1.0,1.0,0.360904804430902,0,0.0,0.0,0.0,0.4394388718185601,0.11093267339134259,0.3285061984272175,0.5503715452099027,0.11093267339134259,0.46051031661530334,0,6,4,1,2,7,nan,nan,nan,nan,nan,nan,nan,nan,nan,nan,nan,nan,0.0,nan,nan,nan,nan,nan,nan,nan,nan,nan,nan,nan,nan,nan,nan,nan,nan,nan,nan,834.4210909095127,1041.663404500112,nan,1042.0243093045428,nan,nan,nan,nan
1,141,1,1,1.0,1.0,0.45608362671919167,0,0.0,0.0,0.0,0.4388614154407097,0.11072754330877178,0.32813387213193795,0.5495889587494815,0.11072754330877178,0.40090571289571625,4,1,3,0,8,2,nan,nan,nan,nan,nan,nan,nan,nan,nan,nan,nan,nan,0.0,nan,nan,nan,nan,nan,nan,nan,nan,nan,nan,nan,nan,nan,nan,nan,nan,nan,nan,834.4210909095127,1042.6802032280248,nan,1043.136286854744,nan,nan,nan,nan
1,142,1,1,1.0,1.0,0.44726645410992205,0,0.0,0.0,0.0,0.4389871250120855,0.11033242810637293,0.32865469690571253,0.5493195531184584,0.11033242810637293,0.4214182950866719,3,6,4,1,0,7,nan,nan,nan,nan,nan,nan,nan,nan,nan,nan,nan,nan,0.0,nan,nan,nan,nan,nan,nan,nan,nan,nan,nan,nan,nan,nan,nan,nan,nan,nan,nan,834.4210909095127,1043.6969851355534,nan,1044.1442515896633,nan,nan,nan,nan
1,143,1,1,1.0,1.0,0.43844044348225,0,0.0,0.0,0.0,0.4390471201504756,0.1099341889216883,0.32911293122878726,0.5489813090721639,0.1099341889216883,0.4472635081037879,7,0,3,8,4,2,nan,nan,nan,nan,nan,nan,nan,nan,nan,nan,nan,nan,0.0,nan,nan,nan,nan,nan,nan,nan,nan,nan,nan,nan,nan,nan,nan,nan,nan,nan,nan,834.4210909095127,1044.7137949822936,nan,1045.1522354257759,nan,nan,nan,nan
1,144,1,1,1.0,1.0,0.5336181255988777,0,0.0,0.0,0.0,0.4390427555701287,0.10953804039353936,0.3295047151765893,0.548580795963668,0.10953804039353936,0.4731083410636832,4,3,8,1,0,5,nan,nan,nan,nan,nan,nan,nan,nan,nan,nan,nan,nan,0.0,nan,nan,nan,nan,nan,nan,nan,nan,nan,nan,nan,nan,nan,nan,nan,nan,nan,nan,834.4210909095127,1045.730584872188,nan,1046.264202997787,nan,nan,nan,nan
1,145,1,1,1.0,1.0,0.6287846888881177,0,0.0,0.0,0.0,0.43971829392747686,0.109436333418393,0.33028196050908387,0.5491546273458698,0.109436333418393,0.5336144193230817,0,4,2,7,5,6,nan,nan,nan,nan,nan,nan,nan,nan,nan,nan,nan,nan,0.0,nan,nan,nan,nan,nan,nan,nan,nan,nan,nan,nan,nan,nan,nan,nan,nan,nan,nan,834.4210909095127,1046.747382744914,nan,1047.376167433802,nan,nan,nan,nan
1,146,1,1,1.0,1.0,0.6279750152025372,1,0.0,1.0,1.0,0.44105919034563745,0.11019570383756846,0.33086348650806896,0.551254894183206,0.11019570383756846,0.5967926098965108,5,8,0,6,2,7,1.0,1.0,1.0,1.0,1.0,1.0,1.0,0.0,0.0,1.0,0.0,0.0,2.0,5.0,4.0,2.0,6.0,0.0,5.0,2.0,5.0,6.0,1.0,4.0,3.0,2.3126055034808815,5.176029275869951,5.991425444139168,1.521615857258439,4.135822147829458,3.425061730435118,834.4210909095127,1047.76418574946,1048.572600480169,1048.3921607646625,1055.6318682902493,1056.6339928277303,1049.5977454017848,1055.6235135437455
1,147,1,1,1.0,1.0,0.38288943376392126,0,0.0,0.0,0.0,0.4423754989713903,0.11091386138781388,0.3314616375835764,0.5532893603592042,0.11091386138781388,0.5465497126181921,2,7,3,0,6,4,nan,nan,nan,nan,nan,nan,nan,nan,nan,nan,nan,nan,0.0,nan,nan,nan,nan,nan,nan,nan,nan,nan,nan,nan,nan,nan,nan,nan,nan,nan,nan,834.4210909095127,1056.8570513005834,nan,1057.2399407343473,nan,nan,nan,nan
1,148,1,1,1.0,1.0,0.4860637809615582,0,0.0,0.0,0.0,0.44195951250140797,0.1106364760651769,0.33132303643623107,0.5525959885665849,0.1106364760651769,0.49897607664267224,3,5,4,6,2,1,nan,nan,nan,nan,nan,nan,nan,nan,nan,nan,nan,nan,0.0,nan,nan,nan,nan,nan,nan,nan,nan,nan,nan,nan,nan,nan,nan,nan,nan,nan,nan,834.4210909095127,1057.873836344108,nan,1058.3599001250695,nan,nan,nan,nan
1,149,1,1,1.0,1.0,0.4932579006999731,0,0.0,0.0,0.0,0.4422657921434923,0.11031247111494971,0.3319533210285426,0.5525782632584421,0.11031247111494971,0.4540703718084842,1,8,2,5,7,0,nan,nan,nan,nan,nan,nan,nan,nan,nan,nan,nan,nan,0.0,nan,nan,nan,nan,nan,nan,nan,nan,nan,nan,nan,nan,nan,nan,nan,nan,nan,nan,834.4210909095127,1058.890644195024,nan,1059.383902095724,nan,nan,nan,nan
1,150,1,1,1.0,1.0,0.46045842906460166,0,0.0,0.0,0.0,0.442617461857675,0.11001239452355349,0.3326050673341215,0.5526298563812284,0.11001239452355349,0.47992670357537764,3,5,8,1,0,6,nan,nan,nan,nan,nan,nan,nan,nan,nan,nan,nan,nan,0.0,nan,nan,nan,nan,nan,nan,nan,nan,nan,nan,nan,nan,nan,nan,nan,nan,nan,nan,834.4210909095127,1059.9074152687099,nan,1060.3678736977745,nan,nan,nan,nan
1,151,1,1,1.0,1.0,0.49161203973926604,0,0.0,0.0,0.0,0.4427396602632019,0.10964486656492904,0.33309479369827283,0.5523845268281309,0.10964486656492904,0.48177612316794693,8,0,7,2,4,5,nan,nan,nan,nan,nan,nan,nan,nan,nan,nan,nan,nan,0.0,nan,nan,nan,nan,nan,nan,nan,nan,nan,nan,nan,nan,nan,nan,nan,nan,nan,nan,834.4210909095127,1060.9242479233071,nan,1061.4158599630464,nan,nan,nan,nan
1,152,1,1,1.0,1.0,0.4587940371129662,0,0.0,0.0,0.0,0.4430721254297057,0.10934510644661818,0.33372701898308754,0.5524172318763239,0.10934510644661818,0.4702881686389446,5,2,1,0,7,3,nan,nan,nan,nan,nan,nan,nan,nan,nan,nan,nan,nan,0.0,nan,nan,nan,nan,nan,nan,nan,nan,nan,nan,nan,nan,nan,nan,nan,nan,nan,nan,834.4210909095127,1061.9410306857899,nan,1062.3998247229028,nan,nan,nan,nan
1,153,1,1,1.0,1.0,0.4019863228313625,0,0.0,0.0,0.0,0.4431783545627007,0.10898268201886796,0.33419567254383276,0.5521610365815687,0.10898268201886796,0.45079746656119823,0,5,6,7,3,4,nan,nan,nan,nan,nan,nan,nan,nan,nan,nan,nan,nan,0.0,nan,nan,nan,nan,nan,nan,nan,nan,nan,nan,nan,nan,nan,nan,nan,nan,nan,nan,834.4210909095127,1062.9578285585158,nan,1063.3598148813471,nan,nan,nan,nan
1,154,1,1,1.0,1.0,0.36114399996586144,0,0.0,0.0,0.0,0.4429018979738998,0.10866841050199173,0.33423348747190806,0.5515703084758915,0.10866841050199173,0.4073081199700634,6,1,4,8,5,2,nan,nan,nan,nan,nan,nan,nan,nan,nan,nan,nan,nan,0.0,nan,nan,nan,nan,nan,nan,nan,nan,nan,nan,nan,nan,nan,nan,nan,nan,nan,nan,834.4210909095127,1063.974630707875,nan,1064.3357747078408,nan,nan,nan,nan
1,155,1,1,1.0,1.0,0.376323951408267,0,0.0,0.0,0.0,0.44235684532051284,0.10850973794214132,0.33384710737837153,0.5508665832626541,0.10850973794214132,0.3798180914018303,2,6,3,0,8,1,nan,nan,nan,nan,nan,nan,nan,nan,nan,nan,nan,nan,0.0,nan,nan,nan,nan,nan,nan,nan,nan,nan,nan,nan,nan,nan,nan,nan,nan,nan,nan,834.4210909095127,1064.9914337121882,nan,1065.3677576635964,nan,nan,nan,nan
1,156,1,1,1.0,1.0,0.3275148984976113,0,0.0,0.0,0.0,0.44191954138731915,0.1082823740151238,0.33363716737219534,0.5502019154024429,0.1082823740151238,0.3549942832905799,0,2,6,8,4,5,nan,nan,nan,nan,nan,nan,nan,nan,nan,nan,nan,nan,0.0,nan,nan,nan,nan,nan,nan,nan,nan,nan,nan,nan,nan,nan,nan,nan,nan,nan,nan,834.4210909095127,1066.0082273085136,nan,1066.3357422070112,nan,nan,nan,nan
1,157,1,1,1.0,1.0,0.2946658201981336,1,1.0,0.0,1.0,0.44116687926304476,0.10832116796179125,0.3328457113012535,0.549488047224836,0.10832116796179125,0.33283489003467065,3,8,2,4,7,1,1.0,1.0,1.0,1.0,1.0,1.0,1.0,0.0,1.0,1.0,0.0,0.0,3.0,3.0,2.0,2.0,4.0,4.0,7.0,2.0,3.0,4.0,1.0,5.0,6.0,2.7791618569754064,4.082892598351464,4.828043039422482,1.7335267807357013,5.786925028543919,6.507037744158879,834.4210909095127,1067.0250425720587,1067.8334450437687,1067.3197083922569,1075.3843756406568,1076.383157424163,1068.841914113611,1075.3761038572993
1,158,1,1,1.0,1.0,0.5101789350155741,0,0.0,0.0,0.0,0.4402093560011826,0.10861007028754453,0.33159928571363806,0.5488194262887272,0.10861007028754453,0.377453217903773,2,3,0,6,1,7,nan,nan,nan,nan,nan,nan,nan,nan,nan,nan,nan,nan,0.0,nan,nan,nan,nan,nan,nan,nan,nan,nan,nan,nan,nan,nan,nan,nan,nan,nan,nan,834.4210909095127,1076.6012774594128,nan,1077.1114563944284,nan,nan,nan,nan
1,159,1,1,1.0,1.0,0.4613570524379611,0,0.0,0.0,0.0,0.4406637039168605,0.10840264345804182,0.33226106045881865,0.5490663473749023,0.10840264345804182,0.42206726921722293,6,7,1,8,4,0,nan,nan,nan,nan,nan,nan,nan,nan,nan,nan,nan,nan,0.0,nan,nan,nan,nan,nan,nan,nan,nan,nan,nan,nan,nan,nan,nan,nan,nan,nan,nan,834.4210909095127,1077.6180861659814,nan,1078.0794432184193,nan,nan,nan,nan
1,160,0,0,0.0,1.0,0.6125216567888856,0,0.0,0.0,0.0,0.44079720939119016,0.10806509241331301,0.33273211697787713,0.5488623018045031,0.10806509241331301,0.5280192147474736,5,0,3,4,6,1,nan,nan,nan,nan,nan,nan,nan,nan,nan,nan,nan,nan,0.0,nan,nan,nan,nan,nan,nan,nan,nan,nan,nan,nan,nan,nan,nan,nan,nan,nan,nan,834.4210909095127,1078.6348940168973,nan,1079.2474156736862,nan,nan,nan,nan
1,161,1,1,1.0,1.0,0.5716804743278772,0,0.0,0.0,0.0,0.441898007130919,0.10858649520220794,0.33331151192871106,0.550484502333127,0.10858649520220794,0.5485197278515747,0,6,8,2,7,3,nan,nan,nan,nan,nan,nan,nan,nan,nan,nan,nan,nan,0.0,nan,nan,nan,nan,nan,nan,nan,nan,nan,nan,nan,nan,nan,nan,nan,nan,nan,nan,834.4210909095127,1079.6517298074905,nan,1080.2234102818184,nan,nan,nan,nan
1,162,1,1,1.0,1.0,0.47487888392060995,1,0.0,1.0,1.0,0.4427246470493709,0.10873143470230791,0.33399321234706303,0.5514560817516788,0.10873143470230791,0.5530270050124576,8,1,2,0,4,6,1.0,1.0,1.0,1.0,1.0,1.0,0.0,1.0,1.0,0.0,0.0,0.0,2.0,5.0,1.0,2.0,4.0,8.0,3.0,5.0,2.0,1.0,6.0,3.0,4.0,4.550596179207787,2.1195722301490605,1.3924894807860255,5.398879628628492,3.048172433162108,3.632018535863608,834.4210909095127,1080.668485200964,1081.4768890978303,1081.1433640848845,1087.927718970459,1088.9252679976635,1082.493688681163,1087.9193958695978
1,163,0,0,1.0,0.0,0.3346155062317848,0,0.0,0.0,0.0,0.4429281548776699,0.10841679302113803,0.33451136185653185,0.551344947898808,0.10841679302113803,0.460391621493424,0,8,7,2,3,4,nan,nan,nan,nan,nan,nan,nan,nan,nan,nan,nan,nan,0.0,nan,nan,nan,nan,nan,nan,nan,nan,nan,nan,nan,nan,nan,nan,nan,nan,nan,nan,834.4210909095127,1089.1445837267675,nan,1089.4791992329992,nan,nan,nan,nan
1,164,1,1,1.0,1.0,0.4618126363493502,0,0.0,0.0,0.0,0.44224694325096625,0.10841399818646674,0.3338329450644995,0.550660941437433,0.10841399818646674,0.423769008833915,3,4,8,1,6,5,nan,nan,nan,nan,nan,nan,nan,nan,nan,nan,nan,nan,0.0,nan,nan,nan,nan,nan,nan,nan,nan,nan,nan,nan,nan,nan,nan,nan,nan,nan,nan,834.4210909095127,1090.161372761475,nan,1090.6231853978243,nan,nan,nan,nan
1,165,1,1,1.0,1.0,0.30098269833251834,0,0.0,0.0,0.0,0.44236922883283114,0.10808567288225329,0.33428355595057785,0.5504549017150844,0.10808567288225329,0.36580361363788444,2,8,7,6,4,0,nan,nan,nan,nan,nan,nan,nan,nan,nan,nan,nan,nan,0.0,nan,nan,nan,nan,nan,nan,nan,nan,nan,nan,nan,nan,nan,nan,nan,nan,nan,nan,834.4210909095127,1091.1781769064255,nan,1091.479159604758,nan,nan,nan,nan
1,166,1,1,1.0,1.0,0.34016832639463246,0,0.0,0.0,0.0,0.44149105162475466,0.10832055079827231,0.33317050082648236,0.549811602423027,0.10832055079827231,0.367654553692167,5,0,1,3,6,7,nan,nan,nan,nan,nan,nan,nan,nan,nan,nan,nan,nan,0.0,nan,nan,nan,nan,nan,nan,nan,nan,nan,nan,nan,nan,nan,nan,nan,nan,nan,nan,834.4210909095127,1092.1949724983424,nan,1092.535140824737,nan,nan,nan,nan
1,167,1,1,1.0,1.0,0.42227833555079997,0,0.0,0.0,0.0,0.44086560270358105,0.10827693518350363,0.33258866752007743,0.5491425378870847,0.10827693518350363,0.3544764534259836,2,1,0,7,8,4,nan,nan,nan,nan,nan,nan,nan,nan,nan,nan,nan,nan,0.0,nan,nan,nan,nan,nan,nan,nan,nan,nan,nan,nan,nan,nan,nan,nan,nan,nan,nan,834.4210909095127,1093.3288058144972,nan,1093.751084150048,nan,nan,nan,nan
1,168,1,1,1.0,1.0,0.5174671360291541,0,0.0,0.0,0.0,0.4407515703897603,0.10795404348209402,0.3327975269076663,0.5487056138718543,0.10795404348209402,0.4266379326581955,8,5,7,0,6,1,nan,nan,nan,nan,nan,nan,nan,nan,nan,nan,nan,nan,0.0,nan,nan,nan,nan,nan,nan,nan,nan,nan,nan,nan,nan,nan,nan,nan,nan,nan,nan,834.4210909095127,1094.3535960763693,nan,1094.8710632123984,nan,nan,nan,nan
1,169,1,1,1.0,1.0,0.5006527279037982,0,0.0,0.0,0.0,0.4412193482290249,0.10778998605417334,0.3334293621748516,0.5490093342831983,0.10778998605417334,0.48013273316125077,0,3,4,6,5,2,nan,nan,nan,nan,nan,nan,nan,nan,nan,nan,nan,nan,0.0,nan,nan,nan,nan,nan,nan,nan,nan,nan,nan,nan,nan,nan,nan,nan,nan,nan,nan,834.4210909095127,1095.370402501896,nan,1095.8710552297998,nan,nan,nan,nan
1,170,0,0,0.0,1.0,0.5794807083439082,0,0.0,0.0,0.0,0.44157955053008413,0.10756181078304651,0.33401773974703763,0.5491413613131306,0.10756181078304651,0.5325335240922868,6,2,1,5,8,3,nan,nan,nan,nan,nan,nan,nan,nan,nan,nan,nan,nan,0.0,nan,nan,nan,nan,nan,nan,nan,nan,nan,nan,nan,nan,nan,nan,nan,nan,nan,nan,834.4210909095127,1096.3955271816812,nan,1096.9750078900252,nan,nan,nan,nan
1,171,1,1,1.0,1.0,0.5626694362144917,0,0.0,0.0,0.0,0.4424102803964325,0.10776695038002804,0.33464333001640445,0.5501772307764605,0.10776695038002804,0.5476009574873993,4,6,7,2,3,8,nan,nan,nan,nan,nan,nan,nan,nan,nan,nan,nan,nan,0.0,nan,nan,nan,nan,nan,nan,nan,nan,nan,nan,nan,nan,nan,nan,nan,nan,nan,nan,834.4210909095127,1097.4123353178147,nan,1097.9750047540292,nan,nan,nan,nan
1,172,1,1,1.0,1.0,0.537850950146094,1,0.0,1.0,1.0,0.44313039510192986,0.1078436563199091,0.33528673878202075,0.550974051421839,0.1078436563199091,0.560000364901498,3,1,0,7,8,6,1.0,1.0,1.0,1.0,1.0,1.0,0.0,1.0,1.0,0.0,0.0,0.0,2.0,4.0,1.0,0.0,4.0,3.0,8.0,3.0,2.0,1.0,4.0,5.0,6.0,3.1902119605802,2.3441169098950922,1.6163707415107638,3.92673823912628,4.446162276202813,5.2302403333596885,834.4210909095127,1098.4291257779114,1099.2375410788227,1098.9669767280575,1105.5133537673391,1106.5216854207683,1100.2460070129018,1105.5050218284596
1,173,1,1,1.0,1.0,0.7318792091682553,0,0.0,0.0,0.0,0.4436942079295737,0.10776879550173969,0.335925412427834,0.5514630034313134,0.10776879550173969,0.6107998651762804,1,4,3,2,5,0,nan,nan,nan,nan,nan,nan,nan,nan,nan,nan,nan,nan,0.0,nan,nan,nan,nan,nan,nan,nan,nan,nan,nan,nan,nan,nan,nan,nan,nan,nan,nan,834.4210909095127,1106.746873277938,nan,1107.4787524871062,nan,nan,nan,nan
1,174,1,1,1.0,1.0,0.44274112093262374,0,0.0,0.0,0.0,0.44539944462329367,0.10969916374611109,0.33570028087718257,0.5550986083694047,0.10969916374611109,0.5708237600823244,2,1,0,4,3,5,nan,nan,nan,nan,nan,nan,nan,nan,nan,nan,nan,nan,0.0,nan,nan,nan,nan,nan,nan,nan,nan,nan,nan,nan,nan,nan,nan,nan,nan,nan,nan,834.4210909095127,1107.7720025191084,nan,1108.214743640041,nan,nan,nan,nan
1,175,1,1,1.0,1.0,0.3855311358347535,0,0.0,0.0,0.0,0.4453838074251133,0.10937623217755281,0.3360075752475605,0.5547600396026661,0.10937623217755281,0.5200504886452109,8,4,1,7,5,2,nan,nan,nan,nan,nan,nan,nan,nan,nan,nan,nan,nan,0.0,nan,nan,nan,nan,nan,nan,nan,nan,nan,nan,nan,nan,nan,nan,nan,nan,nan,nan,834.4210909095127,1108.797207025811,nan,1109.1827381616458,nan,nan,nan,nan
1,176,1,1,1.0,1.0,0.46480899839662015,0,0.0,0.0,0.0,0.4450337918017778,0.10915139496868258,0.33588239683309523,0.5541851867704604,0.10915139496868258,0.4310270850546658,7,5,2,8,6,4,nan,nan,nan,nan,nan,nan,nan,nan,nan,nan,nan,nan,0.0,nan,nan,nan,nan,nan,nan,nan,nan,nan,nan,nan,nan,nan,nan,nan,nan,nan,nan,834.4210909095127,1109.8139168038033,nan,1110.2787258022,nan,nan,nan,nan
1,177,1,1,1.0,1.0,0.49596232385374606,0,0.0,0.0,0.0,0.44514876393314323,0.10884401592965176,0.33630474800349147,0.553992779862795,0.10884401592965176,0.44876748602837324,1,0,5,6,4,7,nan,nan,nan,nan,nan,nan,nan,nan,nan,nan,nan,nan,0.0,nan,nan,nan,nan,nan,nan,nan,nan,nan,nan,nan,nan,nan,nan,nan,nan,nan,nan,834.4210909095127,1110.8307357737795,nan,1111.3266980976332,nan,nan,nan,nan
1,178,0,0,0.0,1.0,0.6391197140328586,0,0.0,0.0,0.0,0.44544248393268426,0.1085973232073165,0.33684516072536774,0.5540398071400008,0.1085973232073165,0.5332970120944083,6,5,4,0,2,3,nan,nan,nan,nan,nan,nan,nan,nan,nan,nan,nan,nan,0.0,nan,nan,nan,nan,nan,nan,nan,nan,nan,nan,nan,nan,nan,nan,nan,nan,nan,nan,834.4210909095127,1111.8475376376882,nan,1112.486657351721,nan,nan,nan,nan
1,179,1,1,1.0,1.0,0.5983084668405354,1,0.0,1.0,1.0,0.4465555714619956,0.1092700385078485,0.3372855329541471,0.5558256099698441,0.1092700385078485,0.5777968349090467,4,0,8,6,3,2,1.0,1.0,1.0,1.0,1.0,1.0,1.0,1.0,1.0,0.0,1.0,0.0,4.0,4.0,0.0,8.0,7.0,3.0,5.0,5.0,2.0,1.0,6.0,3.0,4.0,4.90642512938939,1.9563303776085377,1.178131575929001,7.506415664218366,2.9393603068310767,4.154974630801007,834.4210909095127,1112.864337791223,1113.6727565133478,1113.4626462580636,1122.2321558953263,1123.2289046572987,1114.6895278720185,1122.2238250968512
1,180,1,1,1.0,1.0,0.7733384801540524,0,0.0,0.0,0.0,0.4474227308641587,0.10955617309865426,0.33786655776550445,0.5569789039628129,0.10955617309865426,0.6702555536758155,3,2,4,5,7,1,nan,nan,nan,nan,nan,nan,nan,nan,nan,nan,nan,nan,0.0,nan,nan,nan,nan,nan,nan,nan,nan,nan,nan,nan,nan,nan,nan,nan,nan,nan,nan,834.4210909095127,1123.4490645565093,nan,1124.2224030366633,nan,nan,nan,nan
1,181,1,1,1.0,1.0,0.45249255397357047,0,0.0,0.0,0.0,0.44927452489421493,0.11195739558482874,0.3373171293093862,0.5612319204790437,0.11195739558482874,0.6080465003227195,0,5,2,1,6,4,nan,nan,nan,nan,nan,nan,nan,nan,nan,nan,nan,nan,0.0,nan,nan,nan,nan,nan,nan,nan,nan,nan,nan,nan,nan,nan,nan,nan,nan,nan,nan,834.4210909095127,1124.4658652802464,nan,1124.91835783422,nan,nan,nan,nan
1,182,1,1,1.0,1.0,0.43537594354711473,0,0.0,0.0,0.0,0.4492927058494655,0.11164094434002773,0.33765176150943776,0.5609336501894933,0.11164094434002773,0.5537356592249125,4,1,8,7,3,5,nan,nan,nan,nan,nan,nan,nan,nan,nan,nan,nan,nan,0.0,nan,nan,nan,nan,nan,nan,nan,nan,nan,nan,nan,nan,nan,nan,nan,nan,nan,nan,834.4210909095127,1125.4909802665934,nan,1125.9263562101405,nan,nan,nan,nan
1,183,1,1,1.0,1.0,0.5065322683658451,0,0.0,0.0,0.0,0.4492145217915871,0.11133176375263729,0.33788275803894985,0.5605462855442244,0.11133176375263729,0.4648002552955101,1,8,7,3,2,6,nan,nan,nan,nan,nan,nan,nan,nan,nan,nan,nan,nan,0.0,nan,nan,nan,nan,nan,nan,nan,nan,nan,nan,nan,nan,nan,nan,nan,nan,nan,nan,834.4210909095127,1126.507798951352,nan,1127.0143312197179,nan,nan,nan,nan
1,184,1,1,1.0,1.0,0.7136943431105465,0,0.0,0.0,0.0,0.44953473266630367,0.1111025129000714,0.3384322197662323,0.5606372455663751,0.1111025129000714,0.5518675183411688,2,3,0,1,4,8,nan,nan,nan,nan,nan,nan,nan,nan,nan,nan,nan,nan,0.0,nan,nan,nan,nan,nan,nan,nan,nan,nan,nan,nan,nan,nan,nan,nan,nan,nan,nan,834.4210909095127,1127.5245865606703,nan,1128.2382809037808,nan,nan,nan,nan
1,185,0,0,0.0,1.0,0.7048976975493133,0,0.0,0.0,0.0,0.4510022860576606,0.11251980492767269,0.3384824811299879,0.5635220909853332,0.11251980492767269,0.6417081030085683,4,6,1,2,3,7,nan,nan,nan,nan,nan,nan,nan,nan,nan,nan,nan,nan,0.0,nan,nan,nan,nan,nan,nan,nan,nan,nan,nan,nan,nan,nan,nan,nan,nan,nan,nan,834.4210909095127,1128.5413753101602,nan,1129.2462730077095,nan,nan,nan,nan
1,186,1,1,1.0,1.0,0.5520863772835582,1,0.0,1.0,1.0,0.45240502313772496,0.11377582644438064,0.33862919669334435,0.5661808495821056,0.11377582644438064,0.6568928059811393,8,2,5,6,7,1,1.0,1.0,1.0,1.0,1.0,1.0,0.0,1.0,1.0,0.0,0.0,0.0,2.0,5.0,2.0,5.0,3.0,3.0,4.0,6.0,2.0,1.0,5.0,3.0,4.0,7.732089040102437,2.0215780821163207,1.1730075406376272,6.668322981102392,3.019982398254797,4.557028236333281,834.4210909095127,1129.5581828763243,1130.366595611209,1130.1102692536078,1139.1510651055723,1140.1545412845444,1131.3834028921556,1139.1427448557224
1,187,1,1,1.0,1.0,0.7257821403909475,0,0.0,0.0,0.0,0.452952722885779,0.11370183870069484,0.33925088418508415,0.5666545615864738,0.11370183870069484,0.660922071741273,1,3,0,4,8,6,nan,nan,nan,nan,nan,nan,nan,nan,nan,nan,nan,nan,0.0,nan,nan,nan,nan,nan,nan,nan,nan,nan,nan,nan,nan,nan,nan,nan,nan,nan,nan,834.4210909095127,1140.3762338610832,nan,1141.102016001474,nan,nan,nan,nan
1,188,1,1,1.0,1.0,0.596914631081745,0,0.0,0.0,0.0,0.454443594019687,0.11516072911646594,0.339282864903221,0.569604323136153,0.11516072911646594,0.6249277162520835,4,7,1,0,2,5,nan,nan,nan,nan,nan,nan,nan,nan,nan,nan,nan,nan,0.0,nan,nan,nan,nan,nan,nan,nan,nan,nan,nan,nan,nan,nan,nan,nan,nan,nan,nan,834.4210909095127,1141.393073643092,nan,1141.9899882741738,nan,nan,nan,nan
1,189,1,1,1.0,1.0,0.5481104247737676,1,0.0,1.0,1.0,0.4552178931341547,0.11532403538532153,0.3398938577488332,0.5705419285194763,0.11532403538532153,0.6236023987488201,1,3,7,8,6,2,1.0,1.0,1.0,1.0,1.0,1.0,0.0,1.0,1.0,0.0,1.0,0.0,3.0,2.0,3.0,7.0,2.0,6.0,5.0,6.0,2.0,1.0,5.0,3.0,4.0,4.896231226855889,1.7842924494761974,1.033753688680008,4.2166554955765605,2.5453486968763173,3.2325715655460954,834.4210909095127,1142.4098629627842,1143.2182426266372,1142.957973387558,1149.16902617109,1150.1695034222212,1144.2350730004255,1149.1606939472258
1,190,1,1,1.0,1.0,0.5954478105995804,0,0.0,0.0,0.0,0.45572001492680125,0.11521343006316127,0.34050658486364,0.5709334449899626,0.11521343006316127,0.5801576221516976,7,1,4,3,5,6,nan,nan,nan,nan,nan,nan,nan,nan,nan,nan,nan,nan,0.0,nan,nan,nan,nan,nan,nan,nan,nan,nan,nan,nan,nan,nan,nan,nan,nan,nan,nan,834.4210909095127,1150.3943098206073,nan,1150.9897576312069,nan,nan,nan,nan
1,191,1,1,nan,nan,nan,0,0.0,0.0,0.0,0.0,0.0,0.0,0.0,0.0,0.0,8,5,2,6,4,1,nan,nan,nan,nan,nan,nan,nan,nan,nan,nan,nan,nan,0.0,nan,nan,nan,nan,nan,nan,nan,nan,nan,nan,nan,nan,nan,nan,nan,nan,nan,nan,834.4210909095127,1151.4110489634331,nan,nan,nan,nan,nan,nan
1,192,0,0,0.0,1.0,0.5698755297344178,0,0.0,0.0,0.0,0.4564712396347194,0.1153567110597005,0.3411145285750189,0.5718279506944199,0.1153567110597005,0.5826616701669991,7,2,6,4,8,0,nan,nan,nan,nan,nan,nan,nan,nan,nan,nan,nan,nan,0.0,nan,nan,nan,nan,nan,nan,nan,nan,nan,nan,nan,nan,nan,nan,nan,nan,nan,nan,834.4210909095127,1152.4278248837218,nan,1152.9977004134562,nan,nan,nan,nan
1,193,1,1,1.0,1.0,0.5530856396071613,0,0.0,0.0,0.0,0.45707767968872853,0.11534476398901124,0.3417329156997173,0.5724224436777398,0.11534476398901124,0.5614805846707895,8,6,3,7,2,5,nan,nan,nan,nan,nan,nan,nan,nan,nan,nan,nan,nan,0.0,nan,nan,nan,nan,nan,nan,nan,nan,nan,nan,nan,nan,nan,nan,nan,nan,nan,nan,834.4210909095127,1153.4446344454773,nan,1153.9977200850844,nan,nan,nan,nan
1,194,1,1,1.0,1.0,0.39996270928531885,0,0.0,0.0,0.0,0.4575883603265925,0.11524936020872352,0.342339000117869,0.572837720535316,0.11524936020872352,0.5076412928756326,5,3,7,1,0,4,nan,nan,nan,nan,nan,nan,nan,nan,nan,nan,nan,nan,0.0,nan,nan,nan,nan,nan,nan,nan,nan,nan,nan,nan,nan,nan,nan,nan,nan,nan,nan,834.4210909095127,1154.4697337516118,nan,1154.869696460897,nan,nan,nan,nan
1,195,0,0,0.0,1.0,0.503111113095656,0,0.0,0.0,0.0,0.4572834627020355,0.11502006199738136,0.34226340070465416,0.5723035246994169,0.11502006199738136,0.4853864873293787,4,7,5,0,1,2,nan,nan,nan,nan,nan,nan,nan,nan,nan,nan,nan,nan,0.0,nan,nan,nan,nan,nan,nan,nan,nan,nan,nan,nan,nan,nan,nan,nan,nan,nan,nan,834.4210909095127,1155.486551295966,nan,1155.9896624090616,nan,nan,nan,nan
1,196,1,1,1.0,1.0,0.3418657898437232,0,0.0,0.0,0.0,0.45752466086200194,0.11476489219019725,0.3427597686718047,0.5722895530521992,0.11476489219019725,0.414979870741566,3,5,7,2,6,1,nan,nan,nan,nan,nan,nan,nan,nan,nan,nan,nan,nan,0.0,nan,nan,nan,nan,nan,nan,nan,nan,nan,nan,nan,nan,nan,nan,nan,nan,nan,nan,834.4210909095127,1156.5117797506973,nan,1156.853645540541,nan,nan,nan,nan
1,197,1,1,1.0,1.0,0.5811328415293247,0,0.0,0.0,0.0,0.4569191170346811,0.11476799335415563,0.34215112368052547,0.5716871103888367,0.11476799335415563,0.4753699148229013,4,6,8,5,1,0,nan,nan,nan,nan,nan,nan,nan,nan,nan,nan,nan,nan,0.0,nan,nan,nan,nan,nan,nan,nan,nan,nan,nan,nan,nan,nan,nan,nan,nan,nan,nan,834.4210909095127,1157.5284909540787,nan,1158.109623795608,nan,nan,nan,nan
1,198,1,1,1.0,1.0,0.4519656961783767,0,0.0,0.0,0.0,0.45756606351642404,0.11481738033407822,0.3427486831823458,0.5723834438505022,0.11481738033407822,0.4583214425171415,8,0,1,6,2,4,nan,nan,nan,nan,nan,nan,nan,nan,nan,nan,nan,nan,0.0,nan,nan,nan,nan,nan,nan,nan,nan,nan,nan,nan,nan,nan,nan,nan,nan,nan,nan,834.4210909095127,1158.5536298886873,nan,1159.0055955848657,nan,nan,nan,nan
1,199,1,1,1.0,1.0,0.45081447740085423,0,0.0,0.0,0.0,0.45753704606907664,0.11452024551984843,0.34301680054922823,0.572057291588925,0.11452024551984843,0.49463767170285183,7,6,8,5,3,2,nan,nan,nan,nan,nan,nan,nan,nan,nan,nan,nan,nan,0.0,nan,nan,nan,nan,nan,nan,nan,nan,nan,nan,nan,nan,nan,nan,nan,nan,nan,nan,834.4210909095127,1159.5787559938617,nan,1160.0295704712626,nan,nan,nan,nan
1,200,1,1,1.0,1.0,0.4336525364778936,0,0.0,0.0,0.0,0.45750239365326106,0.11422572336369327,0.34327667028956776,0.5717281170169544,0.11422572336369327,0.4454775700190415,5,7,0,4,8,1,nan,nan,nan,nan,nan,nan,nan,nan,nan,nan,nan,nan,0.0,nan,nan,nan,nan,nan,nan,nan,nan,nan,nan,nan,nan,nan,nan,nan,nan,nan,nan,834.4210909095127,1160.6038954986725,nan,1161.0375480351504,nan,nan,nan,nan
1,201,1,1,1.0,1.0,0.44878943846561015,0,0.0,0.0,0.0,0.45738008669338737,0.11394519553125267,0.3434348911621347,0.5713252822246401,0.11394519553125267,0.44441881744811934,1,8,3,5,0,6,nan,nan,nan,nan,nan,nan,nan,nan,nan,nan,nan,nan,0.0,nan,nan,nan,nan,nan,nan,nan,nan,nan,nan,nan,nan,nan,nan,nan,nan,nan,nan,834.4210909095127,1161.6207292934414,nan,1162.069518731907,nan,nan,nan,nan
1,202,1,1,1.0,1.0,0.41598911164328456,0,0.0,0.0,0.0,0.45733625685549056,0.1136557952973977,0.34368046155809284,0.5709920521528883,0.1136557952973977,0.4328103621955961,7,2,4,1,5,0,nan,nan,nan,nan,nan,nan,nan,nan,nan,nan,nan,nan,0.0,nan,nan,nan,nan,nan,nan,nan,nan,nan,nan,nan,nan,nan,nan,nan,nan,nan,nan,834.4210909095127,1162.6375100603327,nan,1163.053499171976,nan,nan,nan,nan
1,203,0,0,0.0,1.0,0.5911764982156456,0,0.0,0.0,0.0,0.4571263728696418,0.1134050355203805,0.3437213373492613,0.5705314083900224,0.1134050355203805,0.4853183494415134,8,1,7,6,0,2,nan,nan,nan,nan,nan,nan,nan,nan,nan,nan,nan,nan,0.0,nan,nan,nan,nan,nan,nan,nan,nan,nan,nan,nan,nan,nan,nan,nan,nan,nan,nan,834.4210909095127,1163.6542970994487,nan,1164.2454735976644,nan,nan,nan,nan
1,204,1,1,1.0,1.0,0.40634430455975235,0,0.0,0.0,0.0,0.4578033937047226,0.11351671864160374,0.3442866750631189,0.5713201123463264,0.11351671864160374,0.47116997147289413,7,2,8,0,6,5,nan,nan,nan,nan,nan,nan,nan,nan,nan,nan,nan,nan,0.0,nan,nan,nan,nan,nan,nan,nan,nan,nan,nan,nan,nan,nan,nan,nan,nan,nan,nan,834.4210909095127,1164.6711129331961,nan,1165.0774572377559,nan,nan,nan,nan
1,205,1,1,1.0,1.0,0.46952249528840184,0,0.0,0.0,0.0,0.45754480531705943,0.11328959029431793,0.3442552150227415,0.5708343956113774,0.11328959029431793,0.48901443268793326,5,7,1,4,2,3,nan,nan,nan,nan,nan,nan,nan,nan,nan,nan,nan,nan,0.0,nan,nan,nan,nan,nan,nan,nan,nan,nan,nan,nan,nan,nan,nan,nan,nan,nan,nan,834.4210909095127,1165.687910805922,nan,1166.1574333012104,nan,nan,nan,nan
1,206,0,0,0.0,1.0,0.500696632778272,0,0.0,0.0,0.0,0.45760469376691615,0.11300916932429847,0.34459552444261765,0.5706138630912146,0.11300916932429847,0.4588544775421421,8,2,0,1,4,5,nan,nan,nan,nan,nan,nan,nan,nan,nan,nan,nan,nan,0.0,nan,nan,nan,nan,nan,nan,nan,nan,nan,nan,nan,nan,nan,nan,nan,nan,nan,nan,834.4210909095127,1166.704711529659,nan,1167.2054081624374,nan,nan,nan,nan
1,207,1,1,1.0,1.0,0.4679040035698563,0,0.0,0.0,0.0,0.45781908152319156,0.1127684667803293,0.34505061474286225,0.5705875483035209,0.1127684667803293,0.47937437721217674,2,3,4,7,5,6,nan,nan,nan,nan,nan,nan,nan,nan,nan,nan,nan,nan,0.0,nan,nan,nan,nan,nan,nan,nan,nan,nan,nan,nan,nan,nan,nan,nan,nan,nan,nan,834.4210909095127,1167.7214808927383,nan,1168.1893848963082,nan,nan,nan,nan
1,208,1,1,1.0,1.0,0.4590013020206243,0,0.0,0.0,0.0,0.4578690068798582,0.11249121746261236,0.34537778941724584,0.5703602243424706,0.11249121746261236,0.4758673127895842,7,0,8,6,4,2,nan,nan,nan,nan,nan,nan,nan,nan,nan,nan,nan,nan,0.0,nan,nan,nan,nan,nan,nan,nan,nan,nan,nan,nan,nan,nan,nan,nan,nan,nan,nan,834.4210909095127,1168.7383631539997,nan,1169.1973644560203,nan,nan,nan,nan
1,209,1,1,1.0,1.0,0.626213405514136,0,0.0,0.0,0.0,0.45787458468843345,0.11221383143659494,0.34566075325183854,0.5700884161250284,0.11221383143659494,0.5177062370348722,6,5,7,2,1,8,nan,nan,nan,nan,nan,nan,nan,nan,nan,nan,nan,nan,0.0,nan,nan,nan,nan,nan,nan,nan,nan,nan,nan,nan,nan,nan,nan,nan,nan,nan,nan,834.4210909095127,1169.7551236790605,nan,1170.3813370845746,nan,nan,nan,nan
1,210,1,1,1.0,1.0,0.48143467283807695,0,0.0,0.0,0.0,0.45869977498659864,0.11255420637579147,0.34614556861080714,0.5712539813623901,0.11255420637579147,0.522216460124279,1,2,6,0,4,5,nan,nan,nan,nan,nan,nan,nan,nan,nan,nan,nan,nan,0.0,nan,nan,nan,nan,nan,nan,nan,nan,nan,nan,nan,nan,nan,nan,nan,nan,nan,nan,834.4210909095127,1170.771875936538,nan,1171.253310609376,nan,nan,nan,nan
1,211,1,1,1.0,1.0,0.38459773059003055,0,0.0,0.0,0.0,0.45881067692733757,0.1122905209887458,0.34652015593859176,0.5711011979160834,0.1122905209887458,0.4974152696474145,4,8,2,6,3,7,nan,nan,nan,nan,nan,nan,nan,nan,nan,nan,nan,nan,0.0,nan,nan,nan,nan,nan,nan,nan,nan,nan,nan,nan,nan,nan,nan,nan,nan,nan,nan,834.4210909095127,1171.7886980422772,nan,1172.1732957728673,nan,nan,nan,nan
1,212,1,1,1.0,1.0,0.375446995254606,0,0.0,0.0,0.0,0.45845041990628266,0.11213633458363066,0.346314085322652,0.5705867544899134,0.11213633458363066,0.4138264662275712,8,2,3,0,5,4,nan,nan,nan,nan,nan,nan,nan,nan,nan,nan,nan,nan,0.0,nan,nan,nan,nan,nan,nan,nan,nan,nan,nan,nan,nan,nan,nan,nan,nan,nan,nan,834.4210909095127,1172.8138190158643,nan,1173.189266011119,nan,nan,nan,nan
1,213,1,1,1.0,1.0,0.5026210325304419,0,0.0,0.0,0.0,0.4580494371784968,0.11201309312568541,0.34603634405281136,0.5700625303041822,0.11201309312568541,0.42088858612502617,4,8,6,2,3,5,nan,nan,nan,nan,nan,nan,nan,nan,nan,nan,nan,nan,0.0,nan,nan,nan,nan,nan,nan,nan,nan,nan,nan,nan,nan,nan,nan,nan,nan,nan,nan,834.4210909095127,1173.8306168885902,nan,1174.3332379211206,nan,nan,nan,nan
1,214,0,0,0.0,1.0,0.5977967188227922,0,0.0,0.0,0.0,0.45826372369461194,0.11178602958928753,0.3464776941053244,0.5700497532838995,0.11178602958928753,0.49195491553594667,5,6,2,0,8,1,nan,nan,nan,nan,nan,nan,nan,nan,nan,nan,nan,nan,0.0,nan,nan,nan,nan,nan,nan,nan,nan,nan,nan,nan,nan,nan,nan,nan,nan,nan,nan,834.4210909095127,1174.8474164719228,nan,1175.4452131907456,nan,nan,nan,nan
1,215,1,1,1.0,1.0,0.4369582280050963,0,0.0,0.0,0.0,0.45893134568087113,0.11193317630131137,0.34699816937955974,0.5708645219821825,0.11193317630131137,0.5124586597861102,6,8,7,3,2,0,nan,nan,nan,nan,nan,nan,nan,nan,nan,nan,nan,nan,0.0,nan,nan,nan,nan,nan,nan,nan,nan,nan,nan,nan,nan,nan,nan,nan,nan,nan,nan,834.4210909095127,1175.8642334460746,nan,1176.3011916740797,nan,nan,nan,nan
1,216,1,1,1.0,1.0,0.4358127110172063,0,0.0,0.0,0.0,0.458826711787177,0.11167659587184113,0.34715011591533584,0.5705033076590181,0.11167659587184113,0.4901892192816983,4,6,1,0,8,2,nan,nan,nan,nan,nan,nan,nan,nan,nan,nan,nan,nan,0.0,nan,nan,nan,nan,nan,nan,nan,nan,nan,nan,nan,nan,nan,nan,nan,nan,nan,nan,834.4210909095127,1176.889353564242,nan,1177.325166275259,nan,nan,nan,nan
1,217,1,1,1.0,1.0,0.5309846911113709,0,0.0,0.0,0.0,0.4587176406934804,0.11142285639894185,0.3472947842945386,0.5701404970924223,0.11142285639894185,0.4679185433778912,0,8,6,2,3,4,nan,nan,nan,nan,nan,nan,nan,nan,nan,nan,nan,nan,0.0,nan,nan,nan,nan,nan,nan,nan,nan,nan,nan,nan,nan,nan,nan,nan,nan,nan,nan,834.4210909095127,1177.906161985593,nan,1178.4371466767043,nan,nan,nan,nan
1,218,1,1,1.0,1.0,0.7541594833601266,1,0.0,1.0,1.0,0.45905852300677236,0.11126998569359745,0.34778853731317494,0.5703285087003698,0.11126998569359745,0.5736522951629013,7,2,8,4,6,0,1.0,1.0,1.0,1.0,1.0,1.0,1.0,1.0,0.0,0.0,0.0,0.0,2.0,7.0,2.0,6.0,0.0,8.0,5.0,4.0,2.0,1.0,3.0,5.0,6.0,4.351641455898061,2.455076951533556,1.6396063731517643,3.518349794205278,5.118671040749177,5.966285939561203,834.4210909095127,1178.9229552967008,1179.7313648955896,1179.677114780061,1186.7489439321216,1187.749068804318,1180.739830544684,1186.7406137040816
1,219,1,1,1.0,1.0,0.5027826821897179,0,0.0,0.0,0.0,0.4604439735248632,0.1128264650485265,0.3476175084763367,0.5732704385733898,0.1128264650485265,0.5959756188870718,3,6,1,8,5,2,nan,nan,nan,nan,nan,nan,nan,nan,nan,nan,nan,nan,0.0,nan,nan,nan,nan,nan,nan,nan,nan,nan,nan,nan,nan,nan,nan,nan,nan,nan,nan,834.4210909095127,1187.9741004286334,nan,1188.476883110823,nan,nan,nan,nan
1,220,1,1,1.0,1.0,0.41394725209102035,0,0.0,0.0,0.0,0.46064181795787656,0.11259957127627034,0.3480422466816062,0.5732413892341469,0.11259957127627034,0.5569631392136216,2,4,6,0,1,5,nan,nan,nan,nan,nan,nan,nan,nan,nan,nan,nan,nan,0.0,nan,nan,nan,nan,nan,nan,nan,nan,nan,nan,nan,nan,nan,nan,nan,nan,nan,nan,834.4210909095127,1188.9909176880028,nan,1189.4048649400938,nan,nan,nan,nan
1,221,1,1,1.0,1.0,0.4371232988778502,0,0.0,0.0,0.0,0.46042463393058886,0.11238232542924054,0.3480423085013483,0.5728069593598294,0.11238232542924054,0.4512844110528628,7,0,8,4,6,2,nan,nan,nan,nan,nan,nan,nan,nan,nan,nan,nan,nan,0.0,nan,nan,nan,nan,nan,nan,nan,nan,nan,nan,nan,nan,nan,nan,nan,nan,nan,nan,834.4210909095127,1190.007722973125,nan,1190.444846272003,nan,nan,nan,nan
1,222,1,1,1.0,1.0,0.46031445544213057,0,0.0,0.0,0.0,0.4603167573794188,0.11213303644674287,0.3481837209326759,0.5724497938261617,0.11213303644674287,0.4371283354703337,2,6,3,7,5,1,nan,nan,nan,nan,nan,nan,nan,nan,nan,nan,nan,nan,0.0,nan,nan,nan,nan,nan,nan,nan,nan,nan,nan,nan,nan,nan,nan,nan,nan,nan,nan,834.4210909095127,1191.024534530472,nan,1191.4848489859141,nan,nan,nan,nan
1,223,1,1,1.0,1.0,0.547504595015198,0,0.0,0.0,0.0,0.4603167467714129,0.11187436704478881,0.34844237972662406,0.5721911138162017,0.11187436704478881,0.4816474497783929,0,5,1,3,7,6,nan,nan,nan,nan,nan,nan,nan,nan,nan,nan,nan,nan,0.0,nan,nan,nan,nan,nan,nan,nan,nan,nan,nan,nan,nan,nan,nan,nan,nan,nan,nan,834.4210909095127,1192.0413201441988,nan,1192.588824739214,nan,nan,nan,nan
1,224,1,1,1.0,1.0,0.6906391773372889,0,0.0,0.0,0.0,0.4607166910294119,0.1117728592256291,0.34894383180378274,0.572489550255041,0.1117728592256291,0.5661527425982058,4,7,5,1,0,3,nan,nan,nan,nan,nan,nan,nan,nan,nan,nan,nan,nan,0.0,nan,nan,nan,nan,nan,nan,nan,nan,nan,nan,nan,nan,nan,nan,nan,nan,nan,nan,834.4210909095127,1193.0581202975009,nan,1193.7487594748382,nan,nan,nan,nan
1,225,1,1,1.0,1.0,0.6557442480698228,1,0.0,1.0,1.0,0.4617665653961145,0.11258957811551419,0.3491769872806003,0.5743561435116287,0.11258957811551419,0.6312960068074366,0,3,8,6,7,1,1.0,1.0,1.0,1.0,1.0,1.0,0.0,0.0,1.0,0.0,0.0,0.0,1.0,4.0,6.0,8.0,4.0,2.0,0.0,6.0,2.0,1.0,5.0,4.0,3.0,4.971772332210094,2.0130246232729405,1.3185067111626267,4.227897126926109,3.6447745985351503,3.005045348778367,834.4210909095127,1194.1250087311491,1194.9333462007344,1194.780752979219,1200.9591271721292,1201.9603519458324,1195.9501531966962,1200.9507923824713
1,226,1,1,1.0,1.0,0.43624206632375717,0,0.0,0.0,0.0,0.46264828213554043,0.11308867753299998,0.34955960460254043,0.5757369596685404,0.11308867753299998,0.5942084972436229,6,1,3,7,0,8,nan,nan,nan,nan,nan,nan,nan,nan,nan,nan,nan,nan,0.0,nan,nan,nan,nan,nan,nan,nan,nan,nan,nan,nan,nan,nan,nan,nan,nan,nan,nan,834.4210909095127,1202.184317309875,nan,1202.6205593761988,nan,nan,nan,nan
1,227,1,1,1.0,1.0,0.4514325661584735,0,0.0,0.0,0.0,0.4625287969961206,0.11284644814926495,0.3496823488468557,0.5753752451453855,0.11284644814926495,0.5144729601840178,0,7,1,6,8,4,nan,nan,nan,nan,nan,nan,nan,nan,nan,nan,nan,nan,0.0,nan,nan,nan,nan,nan,nan,nan,nan,nan,nan,nan,nan,nan,nan,nan,nan,nan,nan,834.4210909095127,1203.20111746341,nan,1203.6525500295684,nan,nan,nan,nan
1,228,0,0,0.0,1.0,0.5706176355015486,0,0.0,0.0,0.0,0.46247881397432944,0.11259445447745102,0.3498843594968784,0.5750732684517804,0.11259445447745102,0.48609742266125977,8,6,0,1,2,7,nan,nan,nan,nan,nan,nan,nan,nan,nan,nan,nan,nan,0.0,nan,nan,nan,nan,nan,nan,nan,nan,nan,nan,nan,nan,nan,nan,nan,nan,nan,nan,834.4210909095127,1204.217918187147,nan,1204.7885358226486,nan,nan,nan,nan
1,229,1,1,1.0,1.0,0.5537769983056933,0,0.0,0.0,0.0,0.46296374142512414,0.11257382325204318,0.35038991817308096,0.5755375646771673,0.11257382325204318,0.5252757333219051,6,3,2,5,7,0,nan,nan,nan,nan,nan,nan,nan,nan,nan,nan,nan,nan,0.0,nan,nan,nan,nan,nan,nan,nan,nan,nan,nan,nan,nan,nan,nan,nan,nan,nan,nan,834.4210909095127,1205.2347260382958,nan,1205.7885030366015,nan,nan,nan,nan
1,230,1,1,1.0,1.0,0.5686288035940379,0,0.0,0.0,0.0,0.4633691577504838,0.11248530216371606,0.35088385558676777,0.5758544599141999,0.11248530216371606,0.5643411458004266,4,7,5,6,2,1,nan,nan,nan,nan,nan,nan,nan,nan,nan,nan,nan,nan,0.0,nan,nan,nan,nan,nan,nan,nan,nan,nan,nan,nan,nan,nan,nan,nan,nan,nan,nan,834.4210909095127,1206.2598578454927,nan,1206.8284866490867,nan,nan,nan,nan
1,231,1,1,1.0,1.0,0.5434682019986212,0,0.0,0.0,0.0,0.4638369783986774,0.11245324219126344,0.3513837362074139,0.5762902205899408,0.11245324219126344,0.5552913346327841,8,4,1,7,0,3,nan,nan,nan,nan,nan,nan,nan,nan,nan,nan,nan,nan,0.0,nan,nan,nan,nan,nan,nan,nan,nan,nan,nan,nan,nan,nan,nan,nan,nan,nan,nan,834.4210909095127,1207.2849939288571,nan,1207.8284621308558,nan,nan,nan,nan
1,232,1,1,1.0,1.0,0.63066575396806,1,0.0,1.0,1.0,0.4641893289455798,0.11232858526952177,0.351860743676058,0.5765179142151016,0.11232858526952177,0.5809209198535731,1,0,2,5,8,4,1.0,1.0,1.0,1.0,1.0,1.0,1.0,1.0,1.0,0.0,1.0,0.0,4.0,1.0,0.0,2.0,3.0,8.0,5.0,5.0,2.0,1.0,6.0,3.0,4.0,3.834936667466536,1.890558096114546,1.2348680160939693,4.690305899828672,2.555969388689846,3.178427220787853,834.4210909095127,1208.3017732703593,1209.1101976945065,1208.9324390243273,1214.8609337417874,1215.8596388343722,1210.1353349182755,1214.852607789915
1,233,1,1,1.0,1.0,0.48644495476037264,0,0.0,0.0,0.0,0.4649227052672647,0.11262183831653115,0.35230086695073354,0.5775445435837958,0.11262183831653115,0.5535263035756847,5,8,0,1,3,7,nan,nan,nan,nan,nan,nan,nan,nan,nan,nan,nan,nan,0.0,nan,nan,nan,nan,nan,nan,nan,nan,nan,nan,nan,nan,nan,nan,nan,nan,nan,nan,834.4210909095127,1216.0777902302798,nan,1216.5642351850402,nan,nan,nan,nan
1,234,1,1,1.0,1.0,0.4616532677318901,0,0.0,0.0,0.0,0.46501710109837485,0.11238358864683305,0.3526335124515418,0.5774006897452079,0.11238358864683305,0.5262546588201076,0,6,7,8,2,4,nan,nan,nan,nan,nan,nan,nan,nan,nan,nan,nan,nan,0.0,nan,nan,nan,nan,nan,nan,nan,nan,nan,nan,nan,nan,nan,nan,nan,nan,nan,nan,834.4210909095127,1217.094593234593,nan,1217.556246502325,nan,nan,nan,nan
1,235,1,1,1.0,1.0,0.6208042737562209,0,0.0,0.0,0.0,0.46500241186970026,0.11213816052096431,0.35286425134873595,0.5771405723906646,0.11213816052096431,0.5229674987494946,3,8,1,6,4,2,nan,nan,nan,nan,nan,nan,nan,nan,nan,nan,nan,nan,0.0,nan,nan,nan,nan,nan,nan,nan,nan,nan,nan,nan,nan,nan,nan,nan,nan,nan,nan,834.4210909095127,1218.1114022261463,nan,1218.7322064999025,nan,nan,nan,nan
1,236,1,1,1.0,1.0,0.659990472253412,1,0.0,1.0,1.0,0.4656798112692068,0.11236269173085019,0.35331711953835665,0.578042503000057,0.11236269173085019,0.5808160045805076,0,2,5,4,6,3,1.0,1.0,1.0,1.0,1.0,1.0,0.0,1.0,1.0,0.0,0.0,0.0,2.0,4.0,2.0,5.0,3.0,5.0,5.0,5.0,2.0,1.0,6.0,3.0,4.0,3.9203865791205317,2.009471468627453,1.0160366657655686,4.623885594308376,2.840074102161452,3.375831875251606,834.4210909095127,1219.1281889800448,1219.9366099829786,1219.7881794522982,1225.6206705635414,1226.6233992201742,1220.9617426453624,1225.6123503139243
1,237,1,1,1.0,1.0,0.3981566245201975,0,0.0,0.0,0.0,0.4665209829617792,0.11284263489450742,0.3536783480672718,0.5793636178562867,0.11284263489450742,0.5596504568432769,5,3,4,7,8,2,nan,nan,nan,nan,nan,nan,nan,nan,nan,nan,nan,nan,0.0,nan,nan,nan,nan,nan,nan,nan,nan,nan,nan,nan,nan,nan,nan,nan,nan,nan,nan,834.4210909095127,1226.8458709649276,nan,1227.2440275894478,nan,nan,nan,nan
1,238,1,1,1.0,1.0,0.35732085909694433,0,0.0,0.0,0.0,0.46622630900297923,0.1126882114899794,0.3535380975129998,0.5789145204929587,0.1126882114899794,0.4718226519568513,6,7,8,1,2,5,nan,nan,nan,nan,nan,nan,nan,nan,nan,nan,nan,nan,0.0,nan,nan,nan,nan,nan,nan,nan,nan,nan,nan,nan,nan,nan,nan,nan,nan,nan,nan,834.4210909095127,1227.8626628506463,nan,1228.2199837097432,nan,nan,nan,nan
1,239,1,1,1.0,1.0,0.35648695239797235,0,0.0,0.0,0.0,0.46575890363857564,0.11267127833516959,0.35308762530340604,0.5784301819737452,0.11267127833516959,0.3706548120050381,0,1,3,8,5,4,nan,nan,nan,nan,nan,nan,nan,nan,nan,nan,nan,nan,0.0,nan,nan,nan,nan,nan,nan,nan,nan,nan,nan,nan,nan,nan,nan,nan,nan,nan,nan,834.4210909095127,1228.8794726973865,nan,1229.2359596497845,nan,nan,nan,nan
1,240,1,1,1.0,1.0,0.45968809886835515,0,0.0,0.0,0.0,0.46529192948797476,0.1126560016994297,0.3526359277885451,0.5779479311874045,0.1126560016994297,0.39116530345442396,2,6,5,1,3,7,nan,nan,nan,nan,nan,nan,nan,nan,nan,nan,nan,nan,0.0,nan,nan,nan,nan,nan,nan,nan,nan,nan,nan,nan,nan,nan,nan,nan,nan,nan,nan,834.4210909095127,1229.8962571707089,nan,1230.3559452695772,nan,nan,nan,nan
1,241,1,1,1.0,1.0,0.5548677765764296,0,0.0,0.0,0.0,0.46526808340023174,0.11241664436299009,0.35285143903724164,0.5776847277632218,0.11241664436299009,0.4570142759475857,5,2,4,3,0,6,nan,nan,nan,nan,nan,nan,nan,nan,nan,nan,nan,nan,0.0,nan,nan,nan,nan,nan,nan,nan,nan,nan,nan,nan,nan,nan,nan,nan,nan,nan,nan,834.4210909095127,1230.913054188015,nan,1231.4679219645914,nan,nan,nan,nan
1,242,1,1,1.0,1.0,0.7860323921777308,1,0.0,1.0,1.0,0.46564774311708,0.11232909883678646,0.3533186442802936,0.5779768419538664,0.11232909883678646,0.6001960892075052,7,5,2,0,4,1,1.0,1.0,1.0,1.0,1.0,1.0,1.0,1.0,0.0,1.0,1.0,0.0,4.0,7.0,5.0,0.0,0.0,4.0,8.0,5.0,3.0,2.0,1.0,4.0,6.0,4.967002386692911,2.9033592040650547,1.9921857961453497,1.271586136193946,4.030901585705578,5.742275530239567,834.4210909095127,1231.9298532011453,1232.7382690722588,1232.715885593323,1239.5308224714827,1240.5382996916305,1233.7467444143258,1239.5224831202067
1,243,1,1,1.0,1.0,0.3116515714209527,0,0.0,0.0,0.0,0.46699957707936124,0.1139994125685967,0.35300016451076455,0.5809989896479579,0.1139994125685967,0.5508505800583711,5,2,8,6,7,0,nan,nan,nan,nan,nan,nan,nan,nan,nan,nan,nan,nan,0.0,nan,nan,nan,nan,nan,nan,nan,nan,nan,nan,nan,nan,nan,nan,nan,nan,nan,nan,834.4210909095127,1240.7560171708465,nan,1241.0676687422674,nan,nan,nan,nan
1,244,0,0,0.0,1.0,0.5104868391063064,0,0.0,0.0,0.0,0.4663468543665108,0.11420260378584049,0.35214425058067034,0.5805494581523513,0.11420260378584049,0.5360569342349967,8,6,1,5,2,7,nan,nan,nan,nan,nan,nan,nan,nan,nan,nan,nan,nan,0.0,nan,nan,nan,nan,nan,nan,nan,nan,nan,nan,nan,nan,nan,nan,nan,nan,nan,nan,834.4210909095127,1241.7811432760209,nan,1242.2916301151272,nan,nan,nan,nan
1,245,1,1,1.0,1.0,0.3416733497288078,0,0.0,0.0,0.0,0.4665315404951292,0.11399904659989568,0.3525324938952335,0.5805305870950248,0.11399904659989568,0.38793725341868895,0,1,2,6,4,8,nan,nan,nan,nan,nan,nan,nan,nan,nan,nan,nan,nan,0.0,nan,nan,nan,nan,nan,nan,nan,nan,nan,nan,nan,nan,nan,nan,nan,nan,nan,nan,834.4210909095127,1242.7979448551778,nan,1243.1396182049066,nan,nan,nan,nan
1,246,1,1,1.0,1.0,0.41285846941173077,0,0.0,0.0,0.0,0.46601129803360286,0.114045251596455,0.35196604643714785,0.5800565496300578,0.114045251596455,0.42167288608228165,5,0,3,2,8,7,nan,nan,nan,nan,nan,nan,nan,nan,nan,nan,nan,nan,0.0,nan,nan,nan,nan,nan,nan,nan,nan,nan,nan,nan,nan,nan,nan,nan,nan,nan,nan,834.4210909095127,1243.8147569824941,nan,1244.2276154519059,nan,nan,nan,nan
1,247,1,1,1.0,1.0,0.40404500300064683,0,0.0,0.0,0.0,0.4657907468774955,0.11385967484737601,0.3519310720301195,0.5796504217248715,0.11385967484737601,0.3861922740470618,3,7,6,0,2,8,nan,nan,nan,nan,nan,nan,nan,nan,nan,nan,nan,nan,0.0,nan,nan,nan,nan,nan,nan,nan,nan,nan,nan,nan,nan,nan,nan,nan,nan,nan,nan,834.4210909095127,1244.8315468726214,nan,1245.235591875622,nan,nan,nan,nan
1,248,1,1,1.0,1.0,0.5472371745854616,0,0.0,0.0,0.0,0.46553559917552506,0.1136932029064111,0.35184239626911396,0.5792288020819362,0.1136932029064111,0.45471354899927974,2,0,8,6,3,4,nan,nan,nan,nan,nan,nan,nan,nan,nan,nan,nan,nan,0.0,nan,nan,nan,nan,nan,nan,nan,nan,nan,nan,nan,nan,nan,nan,nan,nan,nan,nan,834.4210909095127,1245.848335052142,nan,1246.3955722267274,nan,nan,nan,nan
1,249,1,1,1.0,1.0,0.48210578970611095,0,0.0,0.0,0.0,0.46587181965046304,0.1135795187328005,0.3522923009176625,0.5794513383832636,0.1135795187328005,0.47779598909740645,6,1,5,4,7,3,nan,nan,nan,nan,nan,nan,nan,nan,nan,nan,nan,nan,0.0,nan,nan,nan,nan,nan,nan,nan,nan,nan,nan,nan,nan,nan,nan,nan,nan,nan,nan,834.4210909095127,1246.8734554552939,nan,1247.355561245,nan,nan,nan,nan
1,250,1,1,1.0,1.0,0.27327019977383316,0,0.0,0.0,0.0,0.46593835231462555,0.11335127977791624,0.3525870725367093,0.5792896320925418,0.11335127977791624,0.4342043880218019,7,2,3,8,6,4,nan,nan,nan,nan,nan,nan,nan,nan,nan,nan,nan,nan,0.0,nan,nan,nan,nan,nan,nan,nan,nan,nan,nan,nan,nan,nan,nan,nan,nan,nan,nan,834.4210909095127,1247.8902650170494,nan,1248.1635352168232,nan,nan,nan,nan
1,251,1,1,1.0,1.0,0.3681165997404605,0,0.0,0.0,0.0,0.46515195169201007,0.11378473380812397,0.3513672178838861,0.578936685500134,0.11378473380812397,0.3744975297401349,3,7,8,5,2,1,nan,nan,nan,nan,nan,nan,nan,nan,nan,nan,nan,nan,0.0,nan,nan,nan,nan,nan,nan,nan,nan,nan,nan,nan,nan,nan,nan,nan,nan,nan,nan,834.4210909095127,1248.9153945434373,nan,1249.2835111431777,nan,nan,nan,nan
1,252,1,1,1.0,1.0,0.4792727876920253,0,0.0,0.0,0.0,0.4647574990418005,0.11372095657782699,0.35103654246397353,0.5784784556196275,0.11372095657782699,0.37355319573543966,5,1,3,4,7,0,nan,nan,nan,nan,nan,nan,nan,nan,nan,nan,nan,nan,0.0,nan,nan,nan,nan,nan,nan,nan,nan,nan,nan,nan,nan,nan,nan,nan,nan,nan,nan,834.4210909095127,1249.9322089517955,nan,1250.4114817394875,nan,nan,nan,nan
1,253,1,1,1.0,1.0,0.7104513731319457,0,0.0,0.0,0.0,0.4648162653926111,0.11349426153212007,0.35132200386049106,0.5783105269247312,0.11349426153212007,0.5192802535214772,7,2,6,0,8,4,nan,nan,nan,nan,nan,nan,nan,nan,nan,nan,nan,nan,0.0,nan,nan,nan,nan,nan,nan,nan,nan,nan,nan,nan,nan,nan,nan,nan,nan,nan,nan,834.4210909095127,1250.94899884169,nan,1251.6594502148218,nan,nan,nan,nan
1,254,1,1,nan,nan,nan,0,0.0,0.0,0.0,0.0,0.0,0.0,0.0,0.0,0.0,1,3,8,4,5,0,nan,nan,nan,nan,nan,nan,nan,nan,nan,nan,nan,nan,0.0,nan,nan,nan,nan,nan,nan,nan,nan,nan,nan,nan,nan,nan,nan,nan,nan,nan,nan,834.4210909095127,1251.9658081182279,nan,nan,nan,nan,nan,nan
1,255,1,1,1.0,1.0,0.08485634159296751,0,0.0,0.0,0.0,0.46580672953672136,0.11432987293011304,0.3514768566066083,0.5801366024668344,0.11432987293011304,0.3976538573624566,8,2,5,3,7,4,nan,nan,nan,nan,nan,nan,nan,nan,nan,nan,nan,nan,0.0,nan,nan,nan,nan,nan,nan,nan,nan,nan,nan,nan,nan,nan,nan,nan,nan,nan,nan,834.4210909095127,1252.982598863542,nan,1253.067455205135,nan,nan,nan,nan
1,256,0,0,0.0,1.0,0.46798240509815514,0,0.0,0.0,0.0,0.46427680829999945,0.1166160709913487,0.34766073730865077,0.5808928792913481,0.1166160709913487,0.2764193733455613,4,5,2,0,3,7,nan,nan,nan,nan,nan,nan,nan,nan,nan,nan,nan,nan,0.0,nan,nan,nan,nan,nan,nan,nan,nan,nan,nan,nan,nan,nan,nan,nan,nan,nan,nan,834.4210909095127,1253.9993978766724,nan,1254.4673802817706,nan,nan,nan,nan
1,257,1,1,1.0,1.0,0.35482370061799884,1,1.0,0.0,1.0,0.4642916306871921,0.11638284017625967,0.34790879051093243,0.5806744708634518,0.11638284017625967,0.3025541491030405,8,1,0,4,7,6,1.0,1.0,1.0,1.0,1.0,1.0,0.0,1.0,1.0,0.0,0.0,0.0,2.0,5.0,1.0,0.0,3.0,8.0,2.0,5.0,2.0,1.0,6.0,3.0,4.0,4.1991101005114615,1.767401350196451,1.0712421387434006,4.9505363658536226,2.632287666667253,3.494630354223773,834.4210909095127,1255.0245331050828,1255.832950686803,1255.3793568057008,1261.8420703464653,1262.8457968400326,1256.8497713671532,1261.8337327057961
1,258,1,1,nan,nan,nan,0,0.0,0.0,0.0,0.0,0.0,0.0,0.0,0.0,0.0,7,2,3,1,8,5,nan,nan,nan,nan,nan,nan,nan,nan,nan,nan,nan,nan,0.0,nan,nan,nan,nan,nan,nan,nan,nan,nan,nan,nan,nan,nan,nan,nan,nan,nan,nan,834.4210909095127,1263.0672519314103,nan,nan,nan,nan,nan,nan
1,259,0,0,1.0,0.0,0.07909853686578572,0,0.0,0.0,0.0,0.46385550347576104,0.1163552887397225,0.34750021473603854,0.5802107922154836,0.1163552887397225,0.21696111874189228,3,1,4,2,5,6,nan,nan,nan,nan,nan,nan,nan,nan,nan,nan,nan,nan,0.0,nan,nan,nan,nan,nan,nan,nan,nan,nan,nan,nan,nan,nan,nan,nan,nan,nan,nan,834.4210909095127,1264.0840472383425,nan,1264.1631457752082,nan,nan,nan,nan
1,260,1,1,1.0,1.0,0.5102807143703103,1,1.0,0.0,1.0,0.46232869011619765,0.1186168188662294,0.34371187124996827,0.580945508982427,0.1186168188662294,0.294689625618048,8,4,0,7,2,3,1.0,1.0,1.0,1.0,1.0,1.0,0.0,1.0,1.0,0.0,0.0,0.0,2.0,5.0,4.0,0.0,3.0,8.0,2.0,5.0,2.0,1.0,6.0,3.0,4.0,4.682466322323307,2.5070254851598293,1.468183112796396,5.482285970356315,3.403980001108721,4.163195096887648,834.4210909095127,1265.100849957671,1265.909265543567,1265.6111306720413,1272.4434495852329,1273.4535884642974,1266.9260859389324,1272.4351119445637
1,261,1,1,1.0,1.0,0.26194817130453885,0,0.0,0.0,0.0,0.4625182238089016,0.11842039465258795,0.34409782915631365,0.5809386184614895,0.11842039465258795,0.283775807513545,0,5,1,6,7,4,nan,nan,nan,nan,nan,nan,nan,nan,nan,nan,nan,nan,0.0,nan,nan,nan,nan,nan,nan,nan,nan,nan,nan,nan,nan,nan,nan,nan,nan,nan,nan,834.4210909095127,1273.6769944694825,nan,1273.938942640787,nan,nan,nan,nan
1,262,1,1,1.0,1.0,0.3491596928797662,0,0.0,0.0,0.0,0.46172857793290023,0.11885257863225918,0.34287599930064105,0.5805811565651594,0.11885257863225918,0.3737961928515385,2,0,3,4,1,7,nan,nan,nan,nan,nan,nan,nan,nan,nan,nan,nan,nan,0.0,nan,nan,nan,nan,nan,nan,nan,nan,nan,nan,nan,nan,nan,nan,nan,nan,nan,nan,834.4210909095127,1274.6937564201653,nan,1275.042916113045,nan,nan,nan,nan
1,263,1,1,1.0,1.0,0.3083313398528844,1,1.0,0.0,1.0,0.4612871313248487,0.11882776569314084,0.34245936563170787,0.5801148970179896,0.11882776569314084,0.30647973467906314,4,3,7,8,2,0,1.0,1.0,1.0,1.0,1.0,1.0,0.0,1.0,1.0,0.0,0.0,0.0,2.0,8.0,3.0,7.0,7.0,0.0,1.0,3.0,2.0,1.0,6.0,5.0,4.0,3.4010184209328145,2.6343366536311805,1.881033884594217,5.280286704190075,4.600902842823416,3.9443269688636065,834.4210909095127,1275.710561990505,1276.5189770061988,1276.018893330358,1282.853153749369,1283.858523252653,1277.5357842871454,1282.844803849468
1,264,1,1,1.0,1.0,0.25236836611293256,0,0.0,0.0,0.0,0.46068964776441135,0.11897862449134199,0.34171102327306935,0.5796682722557533,0.11897862449134199,0.30328646628186107,7,5,1,0,6,3,nan,nan,nan,nan,nan,nan,nan,nan,nan,nan,nan,nan,0.0,nan,nan,nan,nan,nan,nan,nan,nan,nan,nan,nan,nan,nan,nan,nan,nan,nan,nan,834.4210909095127,1284.078326211311,nan,1284.3306945774239,nan,nan,nan,nan
1,265,0,0,0.0,1.0,0.42752752802334726,0,0.0,0.0,0.0,0.45987905911985305,0.11945307665921663,0.34042598246063643,0.5793321357790697,0.11945307665921663,0.3294090779963881,1,0,4,7,3,2,nan,nan,nan,nan,nan,nan,nan,nan,nan,nan,nan,nan,0.0,nan,nan,nan,nan,nan,nan,nan,nan,nan,nan,nan,nan,nan,nan,nan,nan,nan,nan,834.4210909095127,1285.095116386423,nan,1285.5226439144462,nan,nan,nan,nan
1,266,1,1,1.0,1.0,0.4346854405011982,0,0.0,0.0,0.0,0.45975366558847125,0.11923829974280509,0.34051536584566616,0.5789919653312763,0.11923829974280509,0.371527111545826,8,6,1,3,7,5,nan,nan,nan,nan,nan,nan,nan,nan,nan,nan,nan,nan,0.0,nan,nan,nan,nan,nan,nan,nan,nan,nan,nan,nan,nan,nan,nan,nan,nan,nan,nan,834.4210909095127,1286.1119208163582,nan,1286.5466062568594,nan,nan,nan,nan
1,267,1,1,1.0,1.0,0.4259093217551708,0,0.0,0.0,0.0,0.4596568770746208,0.1190180414925319,0.34063883558208885,0.5786749185671527,0.1190180414925319,0.4293740967599054,7,0,3,5,4,6,nan,nan,nan,nan,nan,nan,nan,nan,nan,nan,nan,nan,0.0,nan,nan,nan,nan,nan,nan,nan,nan,nan,nan,nan,nan,nan,nan,nan,nan,nan,nan,834.4210909095127,1287.1287152678706,nan,1287.5546245896257,nan,nan,nan,nan
1,268,1,1,1.0,1.0,0.4410619039554149,0,0.0,0.0,0.0,0.4595270787849306,0.11880730544588465,0.34071977333904596,0.5783343842308153,0.11880730544588465,0.433885555403928,2,5,6,0,8,7,nan,nan,nan,nan,nan,nan,nan,nan,nan,nan,nan,nan,0.0,nan,nan,nan,nan,nan,nan,nan,nan,nan,nan,nan,nan,nan,nan,nan,nan,nan,nan,834.4210909095127,1288.1455245444085,nan,1288.586586448364,nan,nan,nan,nan
1,269,1,1,1.0,1.0,0.38426046166568995,0,0.0,0.0,0.0,0.4594563309886489,0.1185849740019798,0.3408713569866691,0.5780413049906287,0.1185849740019798,0.4170772291254252,4,0,7,5,6,8,nan,nan,nan,nan,nan,nan,nan,nan,nan,nan,nan,nan,0.0,nan,nan,nan,nan,nan,nan,nan,nan,nan,nan,nan,nan,nan,nan,nan,nan,nan,nan,834.4210909095127,1289.1623121537268,nan,1289.5465726153925,nan,nan,nan,nan
1,270,1,1,1.0,1.0,0.4074256746098399,0,0.0,0.0,0.0,0.45916932385382847,0.11844923878843017,0.3407200850653983,0.5776185626422586,0.11844923878843017,0.4109160134103149,0,3,8,6,1,2,nan,nan,nan,nan,nan,nan,nan,nan,nan,nan,nan,nan,0.0,nan,nan,nan,nan,nan,nan,nan,nan,nan,nan,nan,nan,nan,nan,nan,nan,nan,nan,834.4210909095127,1290.179116583662,nan,1290.586542258272,nan,nan,nan,nan
1,271,1,1,1.0,1.0,0.47862305329181254,0,0.0,0.0,0.0,0.45897257994035323,0.11826671914399703,0.34070586079635623,0.5772392990843502,0.11826671914399703,0.42343639652244747,6,1,7,5,3,8,nan,nan,nan,nan,nan,nan,nan,nan,nan,nan,nan,nan,0.0,nan,nan,nan,nan,nan,nan,nan,nan,nan,nan,nan,nan,nan,nan,nan,nan,nan,nan,834.4210909095127,1291.1959024823736,nan,1291.6745255356655,nan,nan,nan,nan
1,272,1,1,1.0,1.0,0.4857903739903122,0,0.0,0.0,0.0,0.459047013551533,0.11804868846351867,0.3409983250880143,0.5770957020150517,0.11804868846351867,0.4572797006306549,7,8,0,1,4,3,nan,nan,nan,nan,nan,nan,nan,nan,nan,nan,nan,nan,0.0,nan,nan,nan,nan,nan,nan,nan,nan,nan,nan,nan,nan,nan,nan,nan,nan,nan,nan,834.4210909095127,1292.2127077674959,nan,1292.6984981414862,nan,nan,nan,nan
