block,trial,freq_trials,correct_response,actual_response,acc,rts,probe_trials,trials_colorind0,trials_colorind1,trials_colorind2,trials_colorind3,trials_colorind4,trials_colorind5,wholereport_resp0,wholereport_resp1,wholereport_resp2,wholereport_resp3,wholereport_resp4,wholereport_resp5,wholereport_respacc0,wholereport_respacc1,wholereport_respacc2,wholereport_respacc3,wholereport_respacc4,wholereport_respacc5,wholereport_respacc_total,wholereport_respcolorind0,wholereport_respcolorind1,wholereport_respcolorind2,wholereport_respcolorind3,wholereport_respcolorind4,wholereport_respcolorind5,wholereport_resporder0,wholereport_resporder1,wholereport_resporder2,wholereport_resporder3,wholereport_resporder4,wholereport_resporder5,wholereport_rts0,wholereport_rts1,wholereport_rts2,wholereport_rts3,wholereport_rts4,wholereport_rts5,time_blockstart,time_encarray_offset,time_encarray_onset,time_response,time_iti_offset,time_iti_onset,time_memprobe_offset,time_memprobe_onset
1,1,1,1,1.0,1.0,0.5375721867894754,0.0,4,7,3,6,8,1,nan,nan,nan,nan,nan,nan,nan,nan,nan,nan,nan,nan,0.0,nan,nan,nan,nan,nan,nan,nan,nan,nan,nan,nan,nan,nan,nan,nan,nan,nan,nan,220.52847300469875,221.54285733023426,nan,222.08042951702373,nan,nan,nan,nan
1,2,1,1,1.0,1.0,0.32109826523810625,0.0,2,5,0,3,4,7,nan,nan,nan,nan,nan,nan,nan,nan,nan,nan,nan,nan,0.0,nan,nan,nan,nan,nan,nan,nan,nan,nan,nan,nan,nan,nan,nan,nan,nan,nan,nan,220.52847300469875,222.55134269670816,nan,222.87244096194627,nan,nan,nan,nan
1,3,1,1,1.0,1.0,0.32863910269225016,0.0,4,0,5,8,2,3,nan,nan,nan,nan,nan,nan,nan,nan,nan,nan,nan,nan,0.0,nan,nan,nan,nan,nan,nan,nan,nan,nan,nan,nan,nan,nan,nan,nan,nan,nan,nan,220.52847300469875,223.55974909110228,nan,223.88838819379453,nan,nan,nan,nan
1,4,1,1,1.0,1.0,0.36014526308281347,0.0,6,1,3,0,8,5,nan,nan,nan,nan,nan,nan,nan,nan,nan,nan,nan,nan,0.0,nan,nan,nan,nan,nan,nan,nan,nan,nan,nan,nan,nan,nan,nan,nan,nan,nan,nan,220.52847300469875,224.5682170666405,nan,224.9283623297233,nan,nan,nan,nan
1,5,0,0,0.0,1.0,0.5676605556509458,0.0,2,6,7,5,3,4,nan,nan,nan,nan,nan,nan,nan,nan,nan,nan,nan,nan,0.0,nan,nan,nan,nan,nan,nan,nan,nan,nan,nan,nan,nan,nan,nan,nan,nan,nan,nan,220.52847300469875,225.57668304652907,nan,226.14434360218002,nan,nan,nan,nan
1,6,1,1,1.0,1.0,0.46319016482448205,0.0,4,7,8,3,0,5,nan,nan,nan,nan,nan,nan,nan,nan,nan,nan,nan,nan,0.0,nan,nan,nan,nan,nan,nan,nan,nan,nan,nan,nan,nan,nan,nan,nan,nan,nan,nan,220.52847300469875,226.58514332439518,nan,227.04833348921966,nan,nan,nan,nan
1,7,1,1,1.0,1.0,0.43870567867998034,0.0,6,3,7,2,1,8,nan,nan,nan,nan,nan,nan,nan,nan,nan,nan,nan,nan,0.0,nan,nan,nan,nan,nan,nan,nan,nan,nan,nan,nan,nan,nan,nan,nan,nan,nan,nan,220.52847300469875,227.59362070815405,nan,228.03232638683403,nan,nan,nan,nan
1,8,1,1,1.0,1.0,0.3342044972232543,0.0,3,6,2,1,5,0,nan,nan,nan,nan,nan,nan,nan,nan,nan,nan,nan,nan,0.0,nan,nan,nan,nan,nan,nan,nan,nan,nan,nan,nan,nan,nan,nan,nan,nan,nan,nan,220.52847300469875,228.60208355193026,nan,228.93628804915352,nan,nan,nan,nan
1,9,1,1,1.0,1.0,0.40573126456001773,0.0,8,2,0,7,1,4,nan,nan,nan,nan,nan,nan,nan,nan,nan,nan,nan,nan,0.0,nan,nan,nan,nan,nan,nan,nan,nan,nan,nan,nan,nan,nan,nan,nan,nan,nan,nan,220.52847300469875,229.61057405016618,nan,230.0163053147262,nan,nan,nan,nan
1,10,1,1,nan,nan,nan,0.0,6,5,3,1,0,8,nan,nan,nan,nan,nan,nan,nan,nan,nan,nan,nan,nan,0.0,nan,nan,nan,nan,nan,nan,nan,nan,nan,nan,nan,nan,nan,nan,nan,nan,nan,nan,220.52847300469875,230.6190368939424,nan,nan,nan,nan,nan,nan
1,11,1,1,nan,nan,nan,0.0,2,8,7,4,3,6,nan,nan,nan,nan,nan,nan,nan,nan,nan,nan,nan,nan,0.0,nan,nan,nan,nan,nan,nan,nan,nan,nan,nan,nan,nan,nan,nan,nan,nan,nan,nan,220.52847300469875,231.62749261030694,nan,nan,nan,nan,nan,nan
1,12,1,1,1.0,1.0,0.5082704027299769,0.0,1,7,6,0,4,3,nan,nan,nan,nan,nan,nan,nan,nan,nan,nan,nan,nan,0.0,nan,nan,nan,nan,nan,nan,nan,nan,nan,nan,nan,nan,nan,nan,nan,nan,nan,nan,220.52847300469875,232.63595659442944,nan,233.14422699715942,nan,nan,nan,nan
1,13,1,1,1.0,1.0,0.3958161324262619,0.0,0,2,4,3,6,8,nan,nan,nan,nan,nan,nan,nan,nan,nan,nan,nan,nan,0.0,nan,nan,nan,nan,nan,nan,nan,nan,nan,nan,nan,nan,nan,nan,nan,nan,nan,nan,220.52847300469875,233.64442514016991,nan,234.04024127259618,nan,nan,nan,nan
1,14,1,1,1.0,1.0,0.4113297304720618,0.0,2,1,3,0,4,6,nan,nan,nan,nan,nan,nan,nan,nan,nan,nan,nan,nan,0.0,nan,nan,nan,nan,nan,nan,nan,nan,nan,nan,nan,nan,nan,nan,nan,nan,nan,nan,220.52847300469875,234.65288798394613,nan,235.0642177144182,nan,nan,nan,nan
1,15,1,1,1.0,1.0,0.3228430639137514,0.0,5,4,6,1,8,2,nan,nan,nan,nan,nan,nan,nan,nan,nan,nan,nan,nan,0.0,nan,nan,nan,nan,nan,nan,nan,nan,nan,nan,nan,nan,nan,nan,nan,nan,nan,nan,220.52847300469875,235.66134940221673,nan,235.98419246613048,nan,nan,nan,nan
1,16,1,1,1.0,1.0,0.35435948782833293,0.0,4,2,3,5,0,8,nan,nan,nan,nan,nan,nan,nan,nan,nan,nan,nan,nan,0.0,nan,nan,nan,nan,nan,nan,nan,nan,nan,nan,nan,nan,nan,nan,nan,nan,nan,nan,220.52847300469875,236.6698131012963,nan,237.02417258912465,nan,nan,nan,nan
1,17,1,1,1.0,1.0,0.3378976544481702,0.0,0,7,6,2,5,3,nan,nan,nan,nan,nan,nan,nan,nan,nan,nan,nan,nan,0.0,nan,nan,nan,nan,nan,nan,nan,nan,nan,nan,nan,nan,nan,nan,nan,nan,nan,nan,220.52847300469875,237.678249145858,nan,238.01614680030616,nan,nan,nan,nan
1,18,1,1,1.0,1.0,0.6574452726054005,0.0,7,2,5,1,4,8,nan,nan,nan,nan,nan,nan,nan,nan,nan,nan,nan,nan,0.0,nan,nan,nan,nan,nan,nan,nan,nan,nan,nan,nan,nan,nan,nan,nan,nan,nan,nan,220.52847300469875,238.68669887515716,nan,239.34414414776256,nan,nan,nan,nan
1,19,0,0,0.0,1.0,0.4729892620816827,0.0,1,8,4,6,0,2,nan,nan,nan,nan,nan,nan,nan,nan,nan,nan,nan,nan,0.0,nan,nan,nan,nan,nan,nan,nan,nan,nan,nan,nan,nan,nan,nan,nan,nan,nan,nan,220.52847300469875,239.69516998674953,nan,240.16815924883122,nan,nan,nan,nan
1,20,1,1,1.0,1.0,0.31245638005202636,0.0,7,1,6,5,4,3,nan,nan,nan,nan,nan,nan,nan,nan,nan,nan,nan,nan,0.0,nan,nan,nan,nan,nan,nan,nan,nan,nan,nan,nan,nan,nan,nan,nan,nan,nan,nan,220.52847300469875,240.7036562085268,nan,241.01611258857884,nan,nan,nan,nan
1,21,1,1,1.0,1.0,0.33596811239840463,0.0,8,2,3,6,1,5,nan,nan,nan,nan,nan,nan,nan,nan,nan,nan,nan,nan,0.0,nan,nan,nan,nan,nan,nan,nan,nan,nan,nan,nan,nan,nan,nan,nan,nan,nan,nan,220.52847300469875,241.7121224734583,nan,242.0480905858567,nan,nan,nan,nan
1,22,1,1,1.0,1.0,0.3514908335637301,0.0,0,8,4,2,3,6,nan,nan,nan,nan,nan,nan,nan,nan,nan,nan,nan,nan,0.0,nan,nan,nan,nan,nan,nan,nan,nan,nan,nan,nan,nan,nan,nan,nan,nan,nan,nan,220.52847300469875,242.7205702070496,nan,243.07206104061333,nan,nan,nan,nan
1,23,0,0,0.0,1.0,0.44700601673685014,0.0,4,6,5,8,7,2,nan,nan,nan,nan,nan,nan,nan,nan,nan,nan,nan,nan,0.0,nan,nan,nan,nan,nan,nan,nan,nan,nan,nan,nan,nan,nan,nan,nan,nan,nan,nan,220.52847300469875,243.72903846768895,nan,244.1760444844258,nan,nan,nan,nan
1,24,1,1,1.0,1.0,0.37450991687364876,0.0,3,0,6,5,8,1,nan,nan,nan,nan,nan,nan,nan,nan,nan,nan,nan,nan,0.0,nan,nan,nan,nan,nan,nan,nan,nan,nan,nan,nan,nan,nan,nan,nan,nan,nan,nan,220.52847300469875,244.7375155663467,nan,245.11202548322035,nan,nan,nan,nan
1,25,1,1,1.0,1.0,0.3740326631232165,0.0,6,1,2,4,5,3,nan,nan,nan,nan,nan,nan,nan,nan,nan,nan,nan,nan,0.0,nan,nan,nan,nan,nan,nan,nan,nan,nan,nan,nan,nan,nan,nan,nan,nan,nan,nan,220.52847300469875,245.7459732783609,nan,246.12000594148412,nan,nan,nan,nan
1,26,1,1,1.0,1.0,0.38956507755210623,0.0,7,4,0,1,8,6,nan,nan,nan,nan,nan,nan,nan,nan,nan,nan,nan,nan,0.0,nan,nan,nan,nan,nan,nan,nan,nan,nan,nan,nan,nan,nan,nan,nan,nan,nan,nan,220.52847300469875,246.7544332711841,nan,247.1439983487362,nan,nan,nan,nan
1,27,1,1,1.0,1.0,0.5650980964419432,0.0,4,7,6,3,2,1,nan,nan,nan,nan,nan,nan,nan,nan,nan,nan,nan,nan,0.0,nan,nan,nan,nan,nan,nan,nan,nan,nan,nan,nan,nan,nan,nan,nan,nan,nan,nan,220.52847300469875,247.76288813218707,nan,248.32798622862902,nan,nan,nan,nan
1,28,1,1,1.0,1.0,0.3805879173451103,0.0,1,8,2,7,5,6,nan,nan,nan,nan,nan,nan,nan,nan,nan,nan,nan,nan,0.0,nan,nan,nan,nan,nan,nan,nan,nan,nan,nan,nan,nan,nan,nan,nan,nan,nan,nan,220.52847300469875,248.77135667792754,nan,249.15194459527265,nan,nan,nan,nan
1,29,1,1,1.0,1.0,0.4121676329523325,0.0,0,3,4,6,7,5,nan,nan,nan,nan,nan,nan,nan,nan,nan,nan,nan,nan,0.0,nan,nan,nan,nan,nan,nan,nan,nan,nan,nan,nan,nan,nan,nan,nan,nan,nan,nan,220.52847300469875,249.77979414799483,nan,250.19196178094717,nan,nan,nan,nan
1,30,1,1,1.0,1.0,0.46763740573078394,0.0,5,4,7,1,3,2,nan,nan,nan,nan,nan,nan,nan,nan,nan,nan,nan,nan,0.0,nan,nan,nan,nan,nan,nan,nan,nan,nan,nan,nan,nan,nan,nan,nan,nan,nan,nan,220.52847300469875,250.78829091839725,nan,251.25592832412804,nan,nan,nan,nan
1,31,1,1,1.0,1.0,0.4671219488955103,0.0,8,0,2,7,1,6,nan,nan,nan,nan,nan,nan,nan,nan,nan,nan,nan,nan,0.0,nan,nan,nan,nan,nan,nan,nan,nan,nan,nan,nan,nan,nan,nan,nan,nan,nan,nan,220.52847300469875,251.7967568982276,nan,252.26387884712312,nan,nan,nan,nan
1,32,1,1,1.0,1.0,0.42671817052178085,0.0,1,8,7,0,5,4,nan,nan,nan,nan,nan,nan,nan,nan,nan,nan,nan,nan,0.0,nan,nan,nan,nan,nan,nan,nan,nan,nan,nan,nan,nan,nan,nan,nan,nan,nan,nan,220.52847300469875,252.8051630075788,nan,253.2318811781006,nan,nan,nan,nan
1,33,1,1,1.0,1.0,0.46621049114037305,0.0,6,3,0,8,4,7,nan,nan,nan,nan,nan,nan,nan,nan,nan,nan,nan,nan,0.0,nan,nan,nan,nan,nan,nan,nan,nan,nan,nan,nan,nan,nan,nan,nan,nan,nan,nan,220.52847300469875,253.8136631991365,nan,254.27987369027687,nan,nan,nan,nan
1,34,1,1,1.0,1.0,0.45778157404856756,0.0,5,4,2,0,3,6,nan,nan,nan,nan,nan,nan,nan,nan,nan,nan,nan,nan,0.0,nan,nan,nan,nan,nan,nan,nan,nan,nan,nan,nan,nan,nan,nan,nan,nan,nan,nan,220.52847300469875,254.82209297153167,nan,255.27987454558024,nan,nan,nan,nan
1,35,1,1,1.0,1.0,0.41723895305767655,0.0,2,8,3,1,5,7,nan,nan,nan,nan,nan,nan,nan,nan,nan,nan,nan,nan,0.0,nan,nan,nan,nan,nan,nan,nan,nan,nan,nan,nan,nan,nan,nan,nan,nan,nan,nan,220.52847300469875,255.83059202274308,nan,256.24783097580075,nan,nan,nan,nan
1,36,1,1,1.0,1.0,0.47275234578410164,0.0,7,0,2,6,4,1,nan,nan,nan,nan,nan,nan,nan,nan,nan,nan,nan,nan,0.0,nan,nan,nan,nan,nan,nan,nan,nan,nan,nan,nan,nan,nan,nan,nan,nan,nan,nan,220.52847300469875,256.83906570024556,nan,257.31181804602966,nan,nan,nan,nan
1,37,1,1,1.0,1.0,0.34429097309475765,0.0,5,4,6,2,3,8,nan,nan,nan,nan,nan,nan,nan,nan,nan,nan,nan,nan,0.0,nan,nan,nan,nan,nan,nan,nan,nan,nan,nan,nan,nan,nan,nan,nan,nan,nan,nan,220.52847300469875,257.84751942090224,nan,258.191810393997,nan,nan,nan,nan
1,38,1,1,1.0,1.0,0.27979557344224304,0.0,1,8,3,6,0,4,nan,nan,nan,nan,nan,nan,nan,nan,nan,nan,nan,nan,0.0,nan,nan,nan,nan,nan,nan,nan,nan,nan,nan,nan,nan,nan,nan,nan,nan,nan,nan,220.52847300469875,258.85598711133935,nan,259.1357826847816,nan,nan,nan,nan
1,39,0,0,0.0,1.0,0.4713066147523932,0.0,8,6,7,5,4,3,nan,nan,nan,nan,nan,nan,nan,nan,nan,nan,nan,nan,0.0,nan,nan,nan,nan,nan,nan,nan,nan,nan,nan,nan,nan,nan,nan,nan,nan,nan,nan,220.52847300469875,259.8644453934976,nan,260.33575200825,nan,nan,nan,nan
1,40,1,1,1.0,1.0,0.33484397165011615,0.0,3,7,8,1,6,4,nan,nan,nan,nan,nan,nan,nan,nan,nan,nan,nan,nan,0.0,nan,nan,nan,nan,nan,nan,nan,nan,nan,nan,nan,nan,nan,nan,nan,nan,nan,nan,220.52847300469875,260.87288371886825,nan,261.20772769051837,nan,nan,nan,nan
1,41,1,1,1.0,1.0,0.40635420323815197,0.0,0,4,2,7,1,6,nan,nan,nan,nan,nan,nan,nan,nan,nan,nan,nan,nan,0.0,nan,nan,nan,nan,nan,nan,nan,nan,nan,nan,nan,nan,nan,nan,nan,nan,nan,nan,220.52847300469875,261.88135254970985,nan,262.287706752948,nan,nan,nan,nan
1,42,1,1,1.0,1.0,0.2939002180355601,0.0,1,2,5,6,7,4,nan,nan,nan,nan,nan,nan,nan,nan,nan,nan,nan,nan,0.0,nan,nan,nan,nan,nan,nan,nan,nan,nan,nan,nan,nan,nan,nan,nan,nan,nan,nan,220.52847300469875,262.8898099766229,nan,263.1837101946585,nan,nan,nan,nan
1,43,1,1,1.0,1.0,0.4053828749456443,0.0,6,7,8,4,0,3,nan,nan,nan,nan,nan,nan,nan,nan,nan,nan,nan,nan,0.0,nan,nan,nan,nan,nan,nan,nan,nan,nan,nan,nan,nan,nan,nan,nan,nan,nan,nan,220.52847300469875,263.8982984792092,nan,264.30368135415483,nan,nan,nan,nan
1,44,1,1,1.0,1.0,0.3409188360674307,0.0,8,6,0,2,3,1,nan,nan,nan,nan,nan,nan,nan,nan,nan,nan,nan,nan,0.0,nan,nan,nan,nan,nan,nan,nan,nan,nan,nan,nan,nan,nan,nan,nan,nan,nan,nan,220.52847300469875,264.9067636037362,nan,265.2476824398036,nan,nan,nan,nan
1,45,1,1,1.0,1.0,0.33236960764043033,0.0,4,2,8,0,5,6,nan,nan,nan,nan,nan,nan,nan,nan,nan,nan,nan,nan,0.0,nan,nan,nan,nan,nan,nan,nan,nan,nan,nan,nan,nan,nan,nan,nan,nan,nan,nan,220.52847300469875,265.91527206316823,nan,266.24764167080866,nan,nan,nan,nan
1,46,1,1,1.0,1.0,0.37203840381698683,0.0,1,4,6,5,8,7,nan,nan,nan,nan,nan,nan,nan,nan,nan,nan,nan,nan,0.0,nan,nan,nan,nan,nan,nan,nan,nan,nan,nan,nan,nan,nan,nan,nan,nan,nan,nan,220.52847300469875,266.9236425352283,nan,267.29568093904527,nan,nan,nan,nan
1,47,1,1,1.0,1.0,0.33889293094398454,0.0,6,1,5,4,3,2,nan,nan,nan,nan,nan,nan,nan,nan,nan,nan,nan,nan,0.0,nan,nan,nan,nan,nan,nan,nan,nan,nan,nan,nan,nan,nan,nan,nan,nan,nan,nan,220.52847300469875,267.9487633596873,nan,268.2876562906313,nan,nan,nan,nan
1,48,1,1,1.0,1.0,0.31431122648064047,0.0,2,6,4,3,7,0,nan,nan,nan,nan,nan,nan,nan,nan,nan,nan,nan,nan,0.0,nan,nan,nan,nan,nan,nan,nan,nan,nan,nan,nan,nan,nan,nan,nan,nan,nan,nan,220.52847300469875,268.9572678277618,nan,269.27157905424247,nan,nan,nan,nan
1,49,1,1,1.0,1.0,0.3058629226870835,0.0,7,1,3,8,5,4,nan,nan,nan,nan,nan,nan,nan,nan,nan,nan,nan,nan,0.0,nan,nan,nan,nan,nan,nan,nan,nan,nan,nan,nan,nan,nan,nan,nan,nan,nan,nan,220.52847300469875,269.9657013064716,nan,270.2715642291587,nan,nan,nan,nan
1,50,1,1,1.0,1.0,0.32140474539482966,0.0,0,2,4,3,6,1,nan,nan,nan,nan,nan,nan,nan,nan,nan,nan,nan,nan,0.0,nan,nan,nan,nan,nan,nan,nan,nan,nan,nan,nan,nan,nan,nan,nan,nan,nan,nan,220.52847300469875,270.9741638651467,nan,271.2955686105415,nan,nan,nan,nan
1,51,1,1,1.0,1.0,0.24090537946904078,0.0,7,3,5,4,1,2,nan,nan,nan,nan,nan,nan,nan,nan,nan,nan,nan,nan,0.0,nan,nan,nan,nan,nan,nan,nan,nan,nan,nan,nan,nan,nan,nan,nan,nan,nan,nan,220.52847300469875,271.98262870457256,nan,272.2235340840416,nan,nan,nan,nan
1,52,1,1,1.0,1.0,0.24043810414150357,0.0,6,1,4,5,2,3,nan,nan,nan,nan,nan,nan,nan,nan,nan,nan,nan,nan,0.0,nan,nan,nan,nan,nan,nan,nan,nan,nan,nan,nan,nan,nan,nan,nan,nan,nan,nan,220.52847300469875,272.9910915483488,nan,273.2315296524903,nan,nan,nan,nan
1,53,1,1,1.0,1.0,0.21592738898470998,0.0,8,2,6,3,1,0,nan,nan,nan,nan,nan,nan,nan,nan,nan,nan,nan,nan,0.0,nan,nan,nan,nan,nan,nan,nan,nan,nan,nan,nan,nan,nan,nan,nan,nan,nan,nan,220.52847300469875,273.9995897442568,nan,274.2155171332415,nan,nan,nan,nan
1,54,1,1,1.0,1.0,0.27146672568051144,0.0,3,1,0,7,4,5,nan,nan,nan,nan,nan,nan,nan,nan,nan,nan,nan,nan,0.0,nan,nan,nan,nan,nan,nan,nan,nan,nan,nan,nan,nan,nan,nan,nan,nan,nan,nan,220.52847300469875,275.0080408990034,nan,275.2795076246839,nan,nan,nan,nan
1,55,1,1,1.0,1.0,0.24692921136738732,0.0,1,5,8,6,3,7,nan,nan,nan,nan,nan,nan,nan,nan,nan,nan,nan,nan,0.0,nan,nan,nan,nan,nan,nan,nan,nan,nan,nan,nan,nan,nan,nan,nan,nan,nan,nan,220.52847300469875,276.01654707762646,nan,276.26347628899384,nan,nan,nan,nan
1,56,1,1,1.0,1.0,0.26252178149297833,0.0,5,6,3,0,4,8,nan,nan,nan,nan,nan,nan,nan,nan,nan,nan,nan,nan,0.0,nan,nan,nan,nan,nan,nan,nan,nan,nan,nan,nan,nan,nan,nan,nan,nan,nan,nan,220.52847300469875,277.02495176147204,nan,277.287473542965,nan,nan,nan,nan
1,57,1,1,1.0,1.0,0.29398916859645396,0.0,8,0,4,2,7,3,nan,nan,nan,nan,nan,nan,nan,nan,nan,nan,nan,nan,0.0,nan,nan,nan,nan,nan,nan,nan,nan,nan,nan,nan,nan,nan,nan,nan,nan,nan,nan,220.52847300469875,278.0334468212677,nan,278.32743598986417,nan,nan,nan,nan
1,58,1,1,1.0,1.0,0.18954130040947348,0.0,6,1,7,3,4,5,nan,nan,nan,nan,nan,nan,nan,nan,nan,nan,nan,nan,0.0,nan,nan,nan,nan,nan,nan,nan,nan,nan,nan,nan,nan,nan,nan,nan,nan,nan,nan,220.52847300469875,279.04186861100607,nan,279.23140991141554,nan,nan,nan,nan
1,59,0,0,1.0,0.0,0.205035796854645,0.0,2,7,0,1,8,6,nan,nan,nan,nan,nan,nan,nan,nan,nan,nan,nan,nan,0.0,nan,nan,nan,nan,nan,nan,nan,nan,nan,nan,nan,nan,nan,nan,nan,nan,nan,nan,220.52847300469875,280.0503442841582,nan,280.25538008101285,nan,nan,nan,nan
1,60,1,1,1.0,1.0,0.40459600498434156,0.0,8,2,7,4,5,0,nan,nan,nan,nan,nan,nan,nan,nan,nan,nan,nan,nan,0.0,nan,nan,nan,nan,nan,nan,nan,nan,nan,nan,nan,nan,nan,nan,nan,nan,nan,nan,220.52847300469875,281.0587903071428,nan,281.4633863121271,nan,nan,nan,nan
1,61,1,1,1.0,1.0,0.4680872901226394,0.0,7,6,8,3,0,1,nan,nan,nan,nan,nan,nan,nan,nan,nan,nan,nan,nan,0.0,nan,nan,nan,nan,nan,nan,nan,nan,nan,nan,nan,nan,nan,nan,nan,nan,nan,nan,220.52847300469875,282.06729391991394,nan,282.5353812100366,nan,nan,nan,nan
1,62,1,1,1.0,1.0,0.44356374558992684,0.0,6,8,1,4,5,0,nan,nan,nan,nan,nan,nan,nan,nan,nan,nan,nan,nan,0.0,nan,nan,nan,nan,nan,nan,nan,nan,nan,nan,nan,nan,nan,nan,nan,nan,nan,nan,220.52847300469875,283.07578698405996,nan,283.5193507296499,nan,nan,nan,nan
1,63,1,1,1.0,1.0,0.33114197640679777,0.0,5,6,7,1,2,4,nan,nan,nan,nan,nan,nan,nan,nan,nan,nan,nan,nan,0.0,nan,nan,nan,nan,nan,nan,nan,nan,nan,nan,nan,nan,nan,nan,nan,nan,nan,nan,220.52847300469875,284.0841785533703,nan,284.4153205297771,nan,nan,nan,nan
1,64,1,1,1.0,1.0,0.29867902770638466,0.0,0,1,2,3,7,6,nan,nan,nan,nan,nan,nan,nan,nan,nan,nan,nan,nan,0.0,nan,nan,nan,nan,nan,nan,nan,nan,nan,nan,nan,nan,nan,nan,nan,nan,nan,nan,220.52847300469875,285.0926473842119,nan,285.39132641191827,nan,nan,nan,nan
1,65,1,1,1.0,1.0,0.2981920806923881,0.0,3,6,4,7,0,8,nan,nan,nan,nan,nan,nan,nan,nan,nan,nan,nan,nan,0.0,nan,nan,nan,nan,nan,nan,nan,nan,nan,nan,nan,nan,nan,nan,nan,nan,nan,nan,220.52847300469875,286.1010865648277,nan,286.3992786455201,nan,nan,nan,nan
1,66,1,1,1.0,1.0,0.28170002688420936,0.0,4,2,5,0,1,3,nan,nan,nan,nan,nan,nan,nan,nan,nan,nan,nan,nan,0.0,nan,nan,nan,nan,nan,nan,nan,nan,nan,nan,nan,nan,nan,nan,nan,nan,nan,nan,220.52847300469875,287.1095653740922,nan,287.3912654009764,nan,nan,nan,nan
1,67,1,1,1.0,1.0,0.26521196449175477,0.0,5,7,0,1,8,6,nan,nan,nan,nan,nan,nan,nan,nan,nan,nan,nan,nan,0.0,nan,nan,nan,nan,nan,nan,nan,nan,nan,nan,nan,nan,nan,nan,nan,nan,nan,nan,220.52847300469875,288.11802878807066,nan,288.3832407525624,nan,nan,nan,nan
1,68,1,1,1.0,1.0,0.3447397170821205,0.0,7,3,8,2,4,1,nan,nan,nan,nan,nan,nan,nan,nan,nan,nan,nan,nan,0.0,nan,nan,nan,nan,nan,nan,nan,nan,nan,nan,nan,nan,nan,nan,nan,nan,nan,nan,220.52847300469875,289.1264904914424,nan,289.4712302085245,nan,nan,nan,nan
1,69,1,1,1.0,1.0,0.2882393156760372,0.0,1,2,6,5,7,0,nan,nan,nan,nan,nan,nan,nan,nan,nan,nan,nan,nan,0.0,nan,nan,nan,nan,nan,nan,nan,nan,nan,nan,nan,nan,nan,nan,nan,nan,nan,nan,220.52847300469875,290.13495875208173,nan,290.42319806775777,nan,nan,nan,nan
1,70,1,1,1.0,1.0,0.32776014611590654,0.0,6,1,5,0,2,4,nan,nan,nan,nan,nan,nan,nan,nan,nan,nan,nan,nan,0.0,nan,nan,nan,nan,nan,nan,nan,nan,nan,nan,nan,nan,nan,nan,nan,nan,nan,nan,220.52847300469875,291.1434327146271,nan,291.47119286074303,nan,nan,nan,nan
1,71,1,1,1.0,1.0,0.32728374761063606,0.0,7,5,6,4,0,1,nan,nan,nan,nan,nan,nan,nan,nan,nan,nan,nan,nan,0.0,nan,nan,nan,nan,nan,nan,nan,nan,nan,nan,nan,nan,nan,nan,nan,nan,nan,nan,220.52847300469875,292.1518801631173,nan,292.47916391072795,nan,nan,nan,nan
1,72,1,1,1.0,1.0,0.4148113450501114,0.0,4,3,7,6,8,5,nan,nan,nan,nan,nan,nan,nan,nan,nan,nan,nan,nan,0.0,nan,nan,nan,nan,nan,nan,nan,nan,nan,nan,nan,nan,nan,nan,nan,nan,nan,nan,220.52847300469875,293.16036581475055,nan,293.57517715980066,nan,nan,nan,nan
1,73,1,1,1.0,1.0,0.37017015781020746,0.0,2,4,0,7,6,3,nan,nan,nan,nan,nan,nan,nan,nan,nan,nan,nan,nan,0.0,nan,nan,nan,nan,nan,nan,nan,nan,nan,nan,nan,nan,nan,nan,nan,nan,nan,nan,220.52847300469875,294.17297854239587,nan,294.5431487002061,nan,nan,nan,nan
1,74,1,1,1.0,1.0,0.36551222956040874,0.0,6,1,8,0,2,5,nan,nan,nan,nan,nan,nan,nan,nan,nan,nan,nan,nan,0.0,nan,nan,nan,nan,nan,nan,nan,nan,nan,nan,nan,nan,nan,nan,nan,nan,nan,nan,220.52847300469875,295.185631183791,nan,295.5511434133514,nan,nan,nan,nan
1,75,1,1,1.0,1.0,0.34102147130761296,0.0,2,8,7,4,5,3,nan,nan,nan,nan,nan,nan,nan,nan,nan,nan,nan,nan,0.0,nan,nan,nan,nan,nan,nan,nan,nan,nan,nan,nan,nan,nan,nan,nan,nan,nan,nan,220.52847300469875,296.19410714204423,nan,296.53512861335184,nan,nan,nan,nan
1,76,1,1,1.0,1.0,0.37253789516398683,0.0,0,7,6,3,8,2,nan,nan,nan,nan,nan,nan,nan,nan,nan,nan,nan,nan,0.0,nan,nan,nan,nan,nan,nan,nan,nan,nan,nan,nan,nan,nan,nan,nan,nan,nan,nan,220.52847300469875,297.2025679901708,nan,297.5751058853348,nan,nan,nan,nan
1,77,1,1,1.0,1.0,0.3560757767409086,0.0,3,8,0,2,7,4,nan,nan,nan,nan,nan,nan,nan,nan,nan,nan,nan,nan,0.0,nan,nan,nan,nan,nan,nan,nan,nan,nan,nan,nan,nan,nan,nan,nan,nan,nan,nan,220.52847300469875,298.21099234570283,nan,298.56706812244374,nan,nan,nan,nan
1,78,0,0,0.0,1.0,0.4915522664086893,1.0,4,5,2,3,8,7,1.0,1.0,1.0,1.0,1.0,1.0,0.0,0.0,0.0,0.0,0.0,1.0,1.0,6.0,6.0,7.0,6.0,7.0,7.0,3.0,2.0,1.0,6.0,5.0,4.0,6.353283243544865,5.497534474066924,3.4494165187934414,9.312014193332288,8.423891140555497,7.38436546351295,220.52847300469875,299.21949054161087,300.0278634655406,299.71104280801956,310.38752035598736,311.38502432458336,301.03633828338934,310.37919036782114
1,79,1,1,1.0,1.0,0.5148096915218048,0.0,5,2,4,7,6,1,nan,nan,nan,nan,nan,nan,nan,nan,nan,nan,nan,nan,0.0,nan,nan,nan,nan,nan,nan,nan,nan,nan,nan,nan,nan,nan,nan,nan,nan,nan,nan,220.52847300469875,311.5960431843414,nan,312.1108528758632,nan,nan,nan,nan
1,80,1,1,nan,nan,nan,0.0,6,8,1,0,3,4,nan,nan,nan,nan,nan,nan,nan,nan,nan,nan,nan,nan,0.0,nan,nan,nan,nan,nan,nan,nan,nan,nan,nan,nan,nan,nan,nan,nan,nan,nan,nan,220.52847300469875,312.6045285508735,nan,nan,nan,nan,nan,nan
1,81,1,1,1.0,1.0,0.4978207122767344,0.0,8,2,4,1,7,5,nan,nan,nan,nan,nan,nan,nan,nan,nan,nan,nan,nan,0.0,nan,nan,nan,nan,nan,nan,nan,nan,nan,nan,nan,nan,nan,nan,nan,nan,nan,nan,220.52847300469875,313.6130039389245,nan,314.11082465120126,nan,nan,nan,nan
1,82,0,0,0.0,1.0,0.5533751590410247,0.0,7,8,0,4,5,6,nan,nan,nan,nan,nan,nan,nan,nan,nan,nan,nan,nan,0.0,nan,nan,nan,nan,nan,nan,nan,nan,nan,nan,nan,nan,nan,nan,nan,nan,nan,nan,220.52847300469875,314.6214334262768,nan,315.1748085853178,nan,nan,nan,nan
1,83,1,1,1.0,1.0,0.4484973634243943,0.0,8,7,5,3,4,1,nan,nan,nan,nan,nan,nan,nan,nan,nan,nan,nan,nan,0.0,nan,nan,nan,nan,nan,nan,nan,nan,nan,nan,nan,nan,nan,nan,nan,nan,nan,nan,220.52847300469875,315.6382522021304,nan,316.0867495655548,nan,nan,nan,nan
1,84,1,1,1.0,1.0,0.5200611934415065,0.0,0,2,7,1,8,5,nan,nan,nan,nan,nan,nan,nan,nan,nan,nan,nan,nan,0.0,nan,nan,nan,nan,nan,nan,nan,nan,nan,nan,nan,nan,nan,nan,nan,nan,nan,nan,220.52847300469875,316.64668168942444,nan,317.16674288286595,nan,nan,nan,nan
1,85,0,0,0.0,1.0,0.4396051623625681,1.0,5,1,2,0,7,3,1.0,1.0,1.0,1.0,1.0,1.0,0.0,0.0,0.0,1.0,0.0,0.0,1.0,6.0,6.0,6.0,0.0,6.0,6.0,4.0,3.0,2.0,1.0,6.0,5.0,5.803706727805547,4.853004132746719,3.6622346309013665,2.574298773368355,7.595575338811614,6.596191150078084,220.52847300469875,317.65514339279616,318.4635895868996,318.09474855515873,327.11466719961027,328.12354970740853,319.48040351609234,327.10633721144404
1,86,1,1,nan,nan,nan,0.0,0,8,5,7,2,4,nan,nan,nan,nan,nan,nan,nan,nan,nan,nan,nan,nan,0.0,nan,nan,nan,nan,nan,nan,nan,nan,nan,nan,nan,nan,nan,nan,nan,nan,nan,nan,220.52847300469875,328.33151374402223,nan,nan,nan,nan,nan,nan
1,87,1,1,nan,nan,nan,0.0,5,3,7,8,6,2,nan,nan,nan,nan,nan,nan,nan,nan,nan,nan,nan,nan,0.0,nan,nan,nan,nan,nan,nan,nan,nan,nan,nan,nan,nan,nan,nan,nan,nan,nan,nan,220.52847300469875,329.33998656622134,nan,nan,nan,nan,nan,nan
1,88,1,1,nan,nan,nan,0.0,8,0,4,7,5,6,nan,nan,nan,nan,nan,nan,nan,nan,nan,nan,nan,nan,0.0,nan,nan,nan,nan,nan,nan,nan,nan,nan,nan,nan,nan,nan,nan,nan,nan,nan,nan,220.52847300469875,330.3484511205461,nan,nan,nan,nan,nan,nan
1,89,1,1,nan,nan,nan,0.0,2,6,1,5,7,3,nan,nan,nan,nan,nan,nan,nan,nan,nan,nan,nan,nan,0.0,nan,nan,nan,nan,nan,nan,nan,nan,nan,nan,nan,nan,nan,nan,nan,nan,nan,nan,220.52847300469875,331.3569111133693,nan,nan,nan,nan,nan,nan
1,90,1,1,1.0,1.0,0.3370985252549872,0.0,3,0,7,1,6,8,nan,nan,nan,nan,nan,nan,nan,nan,nan,nan,nan,nan,0.0,nan,nan,nan,nan,nan,nan,nan,nan,nan,nan,nan,nan,nan,nan,nan,nan,nan,nan,220.52847300469875,332.3654004712007,nan,332.7024989964557,nan,nan,nan,nan
1,91,0,0,0.0,1.0,0.4486057005706243,0.0,7,4,5,8,2,0,nan,nan,nan,nan,nan,nan,nan,nan,nan,nan,nan,nan,0.0,nan,nan,nan,nan,nan,nan,nan,nan,nan,nan,nan,nan,nan,nan,nan,nan,nan,nan,220.52847300469875,333.3738444985356,nan,333.82245019910624,nan,nan,nan,nan
1,92,1,1,1.0,1.0,0.35212916758609936,0.0,4,7,6,5,0,1,nan,nan,nan,nan,nan,nan,nan,nan,nan,nan,nan,nan,0.0,nan,nan,nan,nan,nan,nan,nan,nan,nan,nan,nan,nan,nan,nan,nan,nan,nan,nan,220.52847300469875,334.38229137682356,nan,334.73442054440966,nan,nan,nan,nan
1,93,1,1,1.0,1.0,0.4796557044610381,0.0,5,0,1,7,4,2,nan,nan,nan,nan,nan,nan,nan,nan,nan,nan,nan,nan,0.0,nan,nan,nan,nan,nan,nan,nan,nan,nan,nan,nan,nan,nan,nan,nan,nan,nan,nan,220.52847300469875,335.39076533942716,nan,335.8704210438882,nan,nan,nan,nan
1,94,1,1,1.0,1.0,0.46316051465692,0.0,7,6,0,8,3,4,nan,nan,nan,nan,nan,nan,nan,nan,nan,nan,nan,nan,0.0,nan,nan,nan,nan,nan,nan,nan,nan,nan,nan,nan,nan,nan,nan,nan,nan,nan,nan,220.52847300469875,336.3992173494771,nan,336.86237786413403,nan,nan,nan,nan
1,95,1,1,1.0,1.0,0.39866682555293664,0.0,6,5,1,3,8,7,nan,nan,nan,nan,nan,nan,nan,nan,nan,nan,nan,nan,0.0,nan,nan,nan,nan,nan,nan,nan,nan,nan,nan,nan,nan,nan,nan,nan,nan,nan,nan,220.52847300469875,337.40771183912875,nan,337.8063786646817,nan,nan,nan,nan
1,96,1,1,1.0,1.0,0.43020776787307113,0.0,7,1,8,2,4,5,nan,nan,nan,nan,nan,nan,nan,nan,nan,nan,nan,nan,0.0,nan,nan,nan,nan,nan,nan,nan,nan,nan,nan,nan,nan,nan,nan,nan,nan,nan,nan,220.52847300469875,338.41613819036866,nan,338.8463459582417,nan,nan,nan,nan
1,97,1,1,1.0,1.0,0.38172374706482515,0.0,1,2,6,4,0,3,nan,nan,nan,nan,nan,nan,nan,nan,nan,nan,nan,nan,0.0,nan,nan,nan,nan,nan,nan,nan,nan,nan,nan,nan,nan,nan,nan,nan,nan,nan,nan,220.52847300469875,339.4246301141102,nan,339.806353861175,nan,nan,nan,nan
1,98,1,1,1.0,1.0,0.3332682360196486,0.0,7,5,2,8,3,6,nan,nan,nan,nan,nan,nan,nan,nan,nan,nan,nan,nan,0.0,nan,nan,nan,nan,nan,nan,nan,nan,nan,nan,nan,nan,nan,nan,nan,nan,nan,nan,220.52847300469875,340.4330653033685,nan,340.76633353938814,nan,nan,nan,nan
1,99,0,0,0.0,1.0,0.4367906766710803,0.0,5,0,8,4,6,1,nan,nan,nan,nan,nan,nan,nan,nan,nan,nan,nan,nan,0.0,nan,nan,nan,nan,nan,nan,nan,nan,nan,nan,nan,nan,nan,nan,nan,nan,nan,nan,220.52847300469875,341.4415369851631,nan,341.8783276618342,nan,nan,nan,nan
1,100,1,1,1.0,1.0,0.548263925302308,0.0,3,4,5,1,0,7,nan,nan,nan,nan,nan,nan,nan,nan,nan,nan,nan,nan,0.0,nan,nan,nan,nan,nan,nan,nan,nan,nan,nan,nan,nan,nan,nan,nan,nan,nan,nan,220.52847300469875,342.4500317599159,nan,342.9982956852182,nan,nan,nan,nan
1,101,1,1,1.0,1.0,0.6357975098653696,0.0,8,2,0,4,7,3,nan,nan,nan,nan,nan,nan,nan,nan,nan,nan,nan,nan,0.0,nan,nan,nan,nan,nan,nan,nan,nan,nan,nan,nan,nan,nan,nan,nan,nan,nan,nan,220.52847300469875,343.45848776132334,nan,344.0942852711887,nan,nan,nan,nan
1,102,1,1,nan,nan,nan,0.0,7,4,3,1,8,0,nan,nan,nan,nan,nan,nan,nan,nan,nan,nan,nan,nan,0.0,nan,nan,nan,nan,nan,nan,nan,nan,nan,nan,nan,nan,nan,nan,nan,nan,nan,nan,220.52847300469875,344.4669714172487,nan,nan,nan,nan,nan,nan
1,103,1,1,nan,nan,nan,0.0,2,7,6,5,0,3,nan,nan,nan,nan,nan,nan,nan,nan,nan,nan,nan,nan,0.0,nan,nan,nan,nan,nan,nan,nan,nan,nan,nan,nan,nan,nan,nan,nan,nan,nan,nan,220.52847300469875,345.47544309904333,nan,nan,nan,nan,nan,nan
1,104,1,1,1.0,1.0,0.7223646127386019,0.0,8,1,0,7,3,2,nan,nan,nan,nan,nan,nan,nan,nan,nan,nan,nan,nan,0.0,nan,nan,nan,nan,nan,nan,nan,nan,nan,nan,nan,nan,nan,nan,nan,nan,nan,nan,220.52847300469875,346.48384692758555,nan,347.20621154032415,nan,nan,nan,nan
1,105,1,1,1.0,1.0,0.6738720390130766,0.0,5,6,8,1,0,3,nan,nan,nan,nan,nan,nan,nan,nan,nan,nan,nan,nan,0.0,nan,nan,nan,nan,nan,nan,nan,nan,nan,nan,nan,nan,nan,nan,nan,nan,nan,nan,220.52847300469875,347.49234255758347,nan,348.16621459659655,nan,nan,nan,nan
1,106,1,1,1.0,1.0,0.6733996318653226,0.0,1,8,0,4,5,2,nan,nan,nan,nan,nan,nan,nan,nan,nan,nan,nan,nan,0.0,nan,nan,nan,nan,nan,nan,nan,nan,nan,nan,nan,nan,nan,nan,nan,nan,nan,nan,220.52847300469875,348.5008079672698,nan,349.1742075991351,nan,nan,nan,nan
1,107,1,1,1.0,1.0,0.7289041866315529,0.0,8,1,5,2,6,7,nan,nan,nan,nan,nan,nan,nan,nan,nan,nan,nan,nan,0.0,nan,nan,nan,nan,nan,nan,nan,nan,nan,nan,nan,nan,nan,nan,nan,nan,nan,nan,220.52847300469875,349.50926738983253,nan,350.2381715764641,nan,nan,nan,nan
1,108,1,1,1.0,1.0,0.584429724549409,0.0,0,2,3,1,7,5,nan,nan,nan,nan,nan,nan,nan,nan,nan,nan,nan,nan,0.0,nan,nan,nan,nan,nan,nan,nan,nan,nan,nan,nan,nan,nan,nan,nan,nan,nan,nan,220.52847300469875,350.517730803811,nan,351.1021605283604,nan,nan,nan,nan
1,109,1,1,1.0,1.0,0.5039571577799506,0.0,7,0,1,8,3,4,nan,nan,nan,nan,nan,nan,nan,nan,nan,nan,nan,nan,0.0,nan,nan,nan,nan,nan,nan,nan,nan,nan,nan,nan,nan,nan,nan,nan,nan,nan,nan,220.52847300469875,351.5261922220816,nan,352.03014937986154,nan,nan,nan,nan
1,110,1,1,1.0,1.0,0.4714628483634442,0.0,4,2,8,1,0,5,nan,nan,nan,nan,nan,nan,nan,nan,nan,nan,nan,nan,0.0,nan,nan,nan,nan,nan,nan,nan,nan,nan,nan,nan,nan,nan,nan,nan,nan,nan,nan,220.52847300469875,352.53466447407845,nan,353.0061273224419,nan,nan,nan,nan
1,111,1,1,1.0,1.0,0.5669882950023748,0.0,6,5,7,4,3,0,nan,nan,nan,nan,nan,nan,nan,nan,nan,nan,nan,nan,0.0,nan,nan,nan,nan,nan,nan,nan,nan,nan,nan,nan,nan,nan,nan,nan,nan,nan,nan,220.52847300469875,353.5431238966994,nan,354.1101121917018,nan,nan,nan,nan
1,112,1,1,1.0,1.0,0.3904947815462947,0.0,3,8,5,7,2,6,nan,nan,nan,nan,nan,nan,nan,nan,nan,nan,nan,nan,0.0,nan,nan,nan,nan,nan,nan,nan,nan,nan,nan,nan,nan,nan,nan,nan,nan,nan,nan,220.52847300469875,354.55157733225496,nan,354.94207211380126,nan,nan,nan,nan
1,113,1,1,1.0,1.0,0.33404883387265727,0.0,6,3,2,5,4,7,nan,nan,nan,nan,nan,nan,nan,nan,nan,nan,nan,nan,0.0,nan,nan,nan,nan,nan,nan,nan,nan,nan,nan,nan,nan,nan,nan,nan,nan,nan,nan,220.52847300469875,355.560011951311,nan,355.8940607851837,nan,nan,nan,nan
1,114,1,1,1.0,1.0,0.2695619870792143,0.0,5,7,8,4,1,0,nan,nan,nan,nan,nan,nan,nan,nan,nan,nan,nan,nan,0.0,nan,nan,nan,nan,nan,nan,nan,nan,nan,nan,nan,nan,nan,nan,nan,nan,nan,nan,220.52847300469875,356.56846253591357,nan,356.8380245229928,nan,nan,nan,nan
1,115,1,1,1.0,1.0,0.2611116876360029,0.0,0,1,2,5,7,4,nan,nan,nan,nan,nan,nan,nan,nan,nan,nan,nan,nan,0.0,nan,nan,nan,nan,nan,nan,nan,nan,nan,nan,nan,nan,nan,nan,nan,nan,nan,nan,220.52847300469875,357.5769319368992,nan,357.8380436245352,nan,nan,nan,nan
1,116,1,1,1.0,1.0,0.26060278806835413,0.0,5,4,1,6,2,8,nan,nan,nan,nan,nan,nan,nan,nan,nan,nan,nan,nan,0.0,nan,nan,nan,nan,nan,nan,nan,nan,nan,nan,nan,nan,nan,nan,nan,nan,nan,nan,220.52847300469875,358.58541901397984,nan,358.8460218020482,nan,nan,nan,nan
1,117,1,1,1.0,1.0,0.2841267795301974,0.0,1,8,6,2,7,3,nan,nan,nan,nan,nan,nan,nan,nan,nan,nan,nan,nan,0.0,nan,nan,nan,nan,nan,nan,nan,nan,nan,nan,nan,nan,nan,nan,nan,nan,nan,nan,220.52847300469875,359.5938547734986,nan,359.8779815530288,nan,nan,nan,nan
1,118,1,1,1.0,1.0,0.29164366878103465,0.0,6,5,3,0,2,4,nan,nan,nan,nan,nan,nan,nan,nan,nan,nan,nan,nan,0.0,nan,nan,nan,nan,nan,nan,nan,nan,nan,nan,nan,nan,nan,nan,nan,nan,nan,nan,220.52847300469875,360.60231818741886,nan,360.8939618561999,nan,nan,nan,nan
1,119,1,1,1.0,1.0,0.2671859818510711,0.0,0,1,7,4,6,3,nan,nan,nan,nan,nan,nan,nan,nan,nan,nan,nan,nan,0.0,nan,nan,nan,nan,nan,nan,nan,nan,nan,nan,nan,nan,nan,nan,nan,nan,nan,nan,220.52847300469875,361.61078302690294,nan,361.877969008754,nan,nan,nan,nan
1,120,1,1,1.0,1.0,0.16267368156695738,0.0,2,8,4,7,0,5,nan,nan,nan,nan,nan,nan,nan,nan,nan,nan,nan,nan,0.0,nan,nan,nan,nan,nan,nan,nan,nan,nan,nan,nan,nan,nan,nan,nan,nan,nan,nan,220.52847300469875,362.61927466554334,nan,362.7819483471103,nan,nan,nan,nan
1,121,1,1,1.0,1.0,0.18617172923404723,0.0,7,0,6,5,2,8,nan,nan,nan,nan,nan,nan,nan,nan,nan,nan,nan,nan,0.0,nan,nan,nan,nan,nan,nan,nan,nan,nan,nan,nan,nan,nan,nan,nan,nan,nan,nan,220.52847300469875,363.62774634733796,nan,363.813918076572,nan,nan,nan,nan
1,122,1,1,1.0,1.0,0.19368719292106107,0.0,4,7,2,6,3,5,nan,nan,nan,nan,nan,nan,nan,nan,nan,nan,nan,nan,0.0,nan,nan,nan,nan,nan,nan,nan,nan,nan,nan,nan,nan,nan,nan,nan,nan,nan,nan,220.52847300469875,364.63621118682204,nan,364.8298983797431,nan,nan,nan,nan
1,123,1,1,1.0,1.0,0.18524231034098193,0.0,8,4,5,1,7,2,nan,nan,nan,nan,nan,nan,nan,nan,nan,nan,nan,nan,0.0,nan,nan,nan,nan,nan,nan,nan,nan,nan,nan,nan,nan,nan,nan,nan,nan,nan,nan,220.52847300469875,365.6446572098066,nan,365.8298995201476,nan,nan,nan,nan
1,124,1,1,1.0,1.0,0.2007541977800429,0.0,0,2,1,4,6,7,nan,nan,nan,nan,nan,nan,nan,nan,nan,nan,nan,nan,0.0,nan,nan,nan,nan,nan,nan,nan,nan,nan,nan,nan,nan,nan,nan,nan,nan,nan,nan,220.52847300469875,366.6530921139638,nan,366.85384631174384,nan,nan,nan,nan
1,125,0,0,1.0,0.0,0.20026240404695272,0.0,7,3,0,1,2,5,nan,nan,nan,nan,nan,nan,nan,nan,nan,nan,nan,nan,0.0,nan,nan,nan,nan,nan,nan,nan,nan,nan,nan,nan,nan,nan,nan,nan,nan,nan,nan,220.52847300469875,367.66158033144893,nan,367.8618427354959,nan,nan,nan,nan
1,126,1,1,1.0,1.0,0.3116620974615216,0.0,8,5,6,3,4,2,nan,nan,nan,nan,nan,nan,nan,nan,nan,nan,nan,nan,0.0,nan,nan,nan,nan,nan,nan,nan,nan,nan,nan,nan,nan,nan,nan,nan,nan,nan,nan,220.52847300469875,368.6701708990731,nan,368.98183299653465,nan,nan,nan,nan
1,127,1,1,1.0,1.0,0.2793043499113992,0.0,4,0,1,8,2,5,nan,nan,nan,nan,nan,nan,nan,nan,nan,nan,nan,nan,0.0,nan,nan,nan,nan,nan,nan,nan,nan,nan,nan,nan,nan,nan,nan,nan,nan,nan,nan,220.52847300469875,369.67848178569693,nan,369.95778613560833,nan,nan,nan,nan
1,128,1,1,1.0,1.0,0.2388281567255035,0.0,8,3,0,6,4,1,nan,nan,nan,nan,nan,nan,nan,nan,nan,nan,nan,nan,0.0,nan,nan,nan,nan,nan,nan,nan,nan,nan,nan,nan,nan,nan,nan,nan,nan,nan,nan,220.52847300469875,370.6869477655273,nan,370.9257759222528,nan,nan,nan,nan
1,129,1,1,1.0,1.0,0.21433967928169295,0.0,4,0,3,5,1,2,nan,nan,nan,nan,nan,nan,nan,nan,nan,nan,nan,nan,0.0,nan,nan,nan,nan,nan,nan,nan,nan,nan,nan,nan,nan,nan,nan,nan,nan,nan,nan,220.52847300469875,371.6954442508286,nan,371.9097839301103,nan,nan,nan,nan
1,130,1,1,1.0,1.0,0.2698878539376892,0.0,1,6,4,8,7,5,nan,nan,nan,nan,nan,nan,nan,nan,nan,nan,nan,nan,0.0,nan,nan,nan,nan,nan,nan,nan,nan,nan,nan,nan,nan,nan,nan,nan,nan,nan,nan,220.52847300469875,372.7038640448591,nan,372.97375189879676,nan,nan,nan,nan
1,131,1,1,1.0,1.0,0.24538683210266754,0.0,3,1,2,5,4,7,nan,nan,nan,nan,nan,nan,nan,nan,nan,nan,nan,nan,0.0,nan,nan,nan,nan,nan,nan,nan,nan,nan,nan,nan,nan,nan,nan,nan,nan,nan,nan,220.52847300469875,373.71237307449337,nan,373.95775990659604,nan,nan,nan,nan
1,132,1,1,1.0,1.0,0.32493995840195566,0.0,0,4,5,1,2,6,nan,nan,nan,nan,nan,nan,nan,nan,nan,nan,nan,nan,0.0,nan,nan,nan,nan,nan,nan,nan,nan,nan,nan,nan,nan,nan,nan,nan,nan,nan,nan,220.52847300469875,374.72078659629915,nan,375.0457265547011,nan,nan,nan,nan
1,133,1,1,1.0,1.0,0.42042463610414416,0.0,6,3,8,0,7,5,nan,nan,nan,nan,nan,nan,nan,nan,nan,nan,nan,nan,0.0,nan,nan,nan,nan,nan,nan,nan,nan,nan,nan,nan,nan,nan,nan,nan,nan,nan,nan,220.52847300469875,375.7292825114564,nan,376.14970714756055,nan,nan,nan,nan
1,134,1,1,1.0,1.0,0.4039682195871137,0.0,3,8,7,2,0,4,nan,nan,nan,nan,nan,nan,nan,nan,nan,nan,nan,nan,0.0,nan,nan,nan,nan,nan,nan,nan,nan,nan,nan,nan,nan,nan,nan,nan,nan,nan,nan,220.52847300469875,376.7377339513041,nan,377.1417021708912,nan,nan,nan,nan
1,135,1,1,1.0,1.0,0.43545527843525633,0.0,6,7,2,1,3,5,nan,nan,nan,nan,nan,nan,nan,nan,nan,nan,nan,nan,0.0,nan,nan,nan,nan,nan,nan,nan,nan,nan,nan,nan,nan,nan,nan,nan,nan,nan,nan,220.52847300469875,377.74618938250933,nan,378.1816446609446,nan,nan,nan,nan
1,136,1,1,1.0,1.0,0.3870108861592598,0.0,2,1,8,7,0,3,nan,nan,nan,nan,nan,nan,nan,nan,nan,nan,nan,nan,0.0,nan,nan,nan,nan,nan,nan,nan,nan,nan,nan,nan,nan,nan,nan,nan,nan,nan,nan,220.52847300469875,378.754648234928,nan,379.1416591210873,nan,nan,nan,nan
1,137,1,1,1.0,1.0,0.3704863312304951,0.0,1,0,7,6,8,4,nan,nan,nan,nan,nan,nan,nan,nan,nan,nan,nan,nan,0.0,nan,nan,nan,nan,nan,nan,nan,nan,nan,nan,nan,nan,nan,nan,nan,nan,nan,nan,220.52847300469875,379.76314728613943,nan,380.1336336173699,nan,nan,nan,nan
1,138,1,1,1.0,1.0,0.27404572058003396,0.0,0,4,6,2,5,1,nan,nan,nan,nan,nan,nan,nan,nan,nan,nan,nan,nan,0.0,nan,nan,nan,nan,nan,nan,nan,nan,nan,nan,nan,nan,nan,nan,nan,nan,nan,nan,220.52847300469875,380.77158133499324,nan,381.0456270555733,nan,nan,nan,nan
1,139,1,1,1.0,1.0,0.21753334504319355,0.0,3,0,4,7,1,2,nan,nan,nan,nan,nan,nan,nan,nan,nan,nan,nan,nan,0.0,nan,nan,nan,nan,nan,nan,nan,nan,nan,nan,nan,nan,nan,nan,nan,nan,nan,nan,220.52847300469875,381.78006926737726,nan,381.99760261242045,nan,nan,nan,nan
1,140,0,0,1.0,0.0,0.3370697303907946,1.0,0,3,7,2,6,5,1.0,1.0,1.0,1.0,1.0,1.0,1.0,0.0,0.0,0.0,1.0,0.0,2.0,0.0,6.0,6.0,6.0,6.0,6.0,1.0,6.0,5.0,4.0,3.0,2.0,2.5920988559373654,7.925613701576367,7.1820483594201505,6.2052125575137325,5.405129423015751,4.503461087588221,220.52847300469875,382.7884970441228,383.59691216249485,383.1255667745136,392.5730805504136,393.58007599570556,384.60537757218117,392.56475170265185
1,141,1,1,nan,nan,nan,0.0,7,1,6,4,0,8,nan,nan,nan,nan,nan,nan,nan,nan,nan,nan,nan,nan,0.0,nan,nan,nan,nan,nan,nan,nan,nan,nan,nan,nan,nan,nan,nan,nan,nan,nan,nan,220.52847300469875,393.78990970383165,nan,nan,nan,nan,nan,nan
1,142,1,1,1.0,1.0,0.4149544641841203,0.0,5,7,2,3,8,0,nan,nan,nan,nan,nan,nan,nan,nan,nan,nan,nan,nan,0.0,nan,nan,nan,nan,nan,nan,nan,nan,nan,nan,nan,nan,nan,nan,nan,nan,nan,nan,220.52847300469875,394.7983617138816,nan,395.2133161780657,nan,nan,nan,nan
1,143,1,1,1.0,1.0,0.430526792362798,0.0,7,0,3,8,6,2,nan,nan,nan,nan,nan,nan,nan,nan,nan,nan,nan,nan,0.0,nan,nan,nan,nan,nan,nan,nan,nan,nan,nan,nan,nan,nan,nan,nan,nan,nan,nan,220.52847300469875,395.80682883411646,nan,396.23735562647926,nan,nan,nan,nan
1,144,1,1,1.0,1.0,0.3900018474087119,0.0,0,2,7,6,1,4,nan,nan,nan,nan,nan,nan,nan,nan,nan,nan,nan,nan,0.0,nan,nan,nan,nan,nan,nan,nan,nan,nan,nan,nan,nan,nan,nan,nan,nan,nan,nan,220.52847300469875,396.8153347276966,nan,397.2053365751053,nan,nan,nan,nan
1,145,1,1,1.0,1.0,0.48554867651546374,0.0,8,0,3,7,2,1,nan,nan,nan,nan,nan,nan,nan,nan,nan,nan,nan,nan,0.0,nan,nan,nan,nan,nan,nan,nan,nan,nan,nan,nan,nan,nan,nan,nan,nan,nan,nan,220.52847300469875,397.8237673510448,nan,398.30931602756027,nan,nan,nan,nan
1,146,1,1,1.0,1.0,0.34901361854281276,0.0,4,2,0,6,1,5,nan,nan,nan,nan,nan,nan,nan,nan,nan,nan,nan,nan,0.0,nan,nan,nan,nan,nan,nan,nan,nan,nan,nan,nan,nan,nan,nan,nan,nan,nan,nan,220.52847300469875,398.8322874995065,nan,399.1813011180493,nan,nan,nan,nan
1,147,1,1,1.0,1.0,0.36458936787676066,0.0,2,6,7,3,5,0,nan,nan,nan,nan,nan,nan,nan,nan,nan,nan,nan,nan,0.0,nan,nan,nan,nan,nan,nan,nan,nan,nan,nan,nan,nan,nan,nan,nan,nan,nan,nan,220.52847300469875,399.8406899025431,nan,400.20527927041985,nan,nan,nan,nan
1,148,1,1,1.0,1.0,0.3480899016140029,0.0,3,1,0,2,8,5,nan,nan,nan,nan,nan,nan,nan,nan,nan,nan,nan,nan,0.0,nan,nan,nan,nan,nan,nan,nan,nan,nan,nan,nan,nan,nan,nan,nan,nan,nan,nan,220.52847300469875,400.8491801156779,nan,401.1972700172919,nan,nan,nan,nan
1,149,1,1,1.0,1.0,0.35561049706302583,0.0,6,4,5,3,1,2,nan,nan,nan,nan,nan,nan,nan,nan,nan,nan,nan,nan,0.0,nan,nan,nan,nan,nan,nan,nan,nan,nan,nan,nan,nan,nan,nan,nan,nan,nan,nan,220.52847300469875,401.8576366873458,nan,402.21324718440883,nan,nan,nan,nan
1,150,1,1,1.0,1.0,0.30715327541111037,0.0,0,5,2,8,7,3,nan,nan,nan,nan,nan,nan,nan,nan,nan,nan,nan,nan,0.0,nan,nan,nan,nan,nan,nan,nan,nan,nan,nan,nan,nan,nan,nan,nan,nan,nan,nan,220.52847300469875,402.8660627534846,nan,403.1732160288957,nan,nan,nan,nan
1,151,1,1,1.0,1.0,0.26668192888610065,0.0,4,7,1,2,0,6,nan,nan,nan,nan,nan,nan,nan,nan,nan,nan,nan,nan,0.0,nan,nan,nan,nan,nan,nan,nan,nan,nan,nan,nan,nan,nan,nan,nan,nan,nan,nan,220.52847300469875,403.8745253121597,nan,404.1412072410458,nan,nan,nan,nan
1,152,1,1,1.0,1.0,0.28215589828323573,0.0,0,4,8,3,1,2,nan,nan,nan,nan,nan,nan,nan,nan,nan,nan,nan,nan,0.0,nan,nan,nan,nan,nan,nan,nan,nan,nan,nan,nan,nan,nan,nan,nan,nan,nan,nan,220.52847300469875,404.8830334864906,nan,405.16518938477384,nan,nan,nan,nan
1,153,1,1,1.0,1.0,0.3776688007055782,0.0,5,1,4,8,2,0,nan,nan,nan,nan,nan,nan,nan,nan,nan,nan,nan,nan,0.0,nan,nan,nan,nan,nan,nan,nan,nan,nan,nan,nan,nan,nan,nan,nan,nan,nan,nan,220.52847300469875,405.89149804081535,nan,406.2691668415209,nan,nan,nan,nan
1,154,1,1,1.0,1.0,0.32120745768770576,0.0,8,3,0,4,5,7,nan,nan,nan,nan,nan,nan,nan,nan,nan,nan,nan,nan,0.0,nan,nan,nan,nan,nan,nan,nan,nan,nan,nan,nan,nan,nan,nan,nan,nan,nan,nan,220.52847300469875,406.8999323748285,nan,407.2211398325162,nan,nan,nan,nan
1,155,0,0,1.0,0.0,0.5207440026570112,0.0,2,4,5,1,0,3,nan,nan,nan,nan,nan,nan,nan,nan,nan,nan,nan,nan,0.0,nan,nan,nan,nan,nan,nan,nan,nan,nan,nan,nan,nan,nan,nan,nan,nan,nan,nan,220.52847300469875,407.90836328762816,nan,408.4291072902852,nan,nan,nan,nan
1,156,1,1,nan,nan,nan,0.0,5,2,3,0,6,8,nan,nan,nan,nan,nan,nan,nan,nan,nan,nan,nan,nan,0.0,nan,nan,nan,nan,nan,nan,nan,nan,nan,nan,nan,nan,nan,nan,nan,nan,nan,nan,220.52847300469875,408.916837820434,nan,nan,nan,nan,nan,nan
1,157,1,1,nan,nan,nan,0.0,0,5,8,1,2,3,nan,nan,nan,nan,nan,nan,nan,nan,nan,nan,nan,nan,0.0,nan,nan,nan,nan,nan,nan,nan,nan,nan,nan,nan,nan,nan,nan,nan,nan,nan,nan,220.52847300469875,409.92528954538284,nan,nan,nan,nan,nan,nan
1,158,1,1,1.0,1.0,0.7992945539299399,0.0,7,0,1,2,8,4,nan,nan,nan,nan,nan,nan,nan,nan,nan,nan,nan,nan,0.0,nan,nan,nan,nan,nan,nan,nan,nan,nan,nan,nan,nan,nan,nan,nan,nan,nan,nan,220.52847300469875,410.93377263110597,nan,411.7330671850359,nan,nan,nan,nan
1,159,1,1,nan,nan,nan,0.0,6,2,5,8,3,1,nan,nan,nan,nan,nan,nan,nan,nan,nan,nan,nan,nan,0.0,nan,nan,nan,nan,nan,nan,nan,nan,nan,nan,nan,nan,nan,nan,nan,nan,nan,nan,220.52847300469875,411.950600244978,nan,nan,nan,nan,nan,nan
1,160,1,1,1.0,1.0,0.789965583011508,0.0,1,4,2,6,5,7,nan,nan,nan,nan,nan,nan,nan,nan,nan,nan,nan,nan,0.0,nan,nan,nan,nan,nan,nan,nan,nan,nan,nan,nan,nan,nan,nan,nan,nan,nan,nan,220.52847300469875,412.9590254558134,nan,413.7489910388249,nan,nan,nan,nan
1,161,1,1,1.0,1.0,0.7895194048760459,0.0,2,3,5,1,4,0,nan,nan,nan,nan,nan,nan,nan,nan,nan,nan,nan,nan,0.0,nan,nan,nan,nan,nan,nan,nan,nan,nan,nan,nan,nan,nan,nan,nan,nan,nan,nan,220.52847300469875,413.9674920059042,nan,414.75701141078025,nan,nan,nan,nan
1,162,1,1,1.0,1.0,0.7330706061911769,0.0,6,5,7,4,1,8,nan,nan,nan,nan,nan,nan,nan,nan,nan,nan,nan,nan,0.0,nan,nan,nan,nan,nan,nan,nan,nan,nan,nan,nan,nan,nan,nan,nan,nan,nan,nan,220.52847300469875,414.97594886261504,nan,415.7090194688062,nan,nan,nan,nan
1,163,1,1,1.0,1.0,0.5885374139761552,0.0,4,1,0,7,5,6,nan,nan,nan,nan,nan,nan,nan,nan,nan,nan,nan,nan,0.0,nan,nan,nan,nan,nan,nan,nan,nan,nan,nan,nan,nan,nan,nan,nan,nan,nan,nan,220.52847300469875,415.9844527604291,nan,416.5729901744053,nan,nan,nan,nan
1,164,1,1,1.0,1.0,0.5800643066177145,0.0,1,4,3,5,8,2,nan,nan,nan,nan,nan,nan,nan,nan,nan,nan,nan,nan,0.0,nan,nan,nan,nan,nan,nan,nan,nan,nan,nan,nan,nan,nan,nan,nan,nan,nan,nan,220.52847300469875,416.992883673287,nan,417.5729479799047,nan,nan,nan,nan
1,165,0,0,0.0,1.0,0.483591764990706,0.0,2,6,0,7,5,4,nan,nan,nan,nan,nan,nan,nan,nan,nan,nan,nan,nan,0.0,nan,nan,nan,nan,nan,nan,nan,nan,nan,nan,nan,nan,nan,nan,nan,nan,nan,nan,220.52847300469875,418.0013442362542,nan,418.48493600124493,nan,nan,nan,nan
1,166,1,1,1.0,1.0,0.6511189519078471,0.0,5,3,4,1,0,2,nan,nan,nan,nan,nan,nan,nan,nan,nan,nan,nan,nan,0.0,nan,nan,nan,nan,nan,nan,nan,nan,nan,nan,nan,nan,nan,nan,nan,nan,nan,nan,220.52847300469875,419.0098030886729,nan,419.6609220405808,nan,nan,nan,nan
1,167,0,0,nan,nan,nan,1.0,7,2,0,5,6,4,1.0,1.0,1.0,1.0,1.0,1.0,1.0,0.0,0.0,0.0,1.0,0.0,2.0,7.0,1.0,6.0,6.0,6.0,1.0,1.0,3.0,6.0,5.0,4.0,2.0,2.489756150112953,5.999327739293221,10.534667895233724,9.567088364332449,8.567299336718861,3.5289439862244762,220.52847300469875,420.01826336653903,420.82672666647704,nan,432.41985643614316,433.4218033691868,421.84352776629385,432.41152388206683
1,168,1,1,nan,nan,nan,0.0,5,7,1,6,0,2,nan,nan,nan,nan,nan,nan,nan,nan,nan,nan,nan,nan,0.0,nan,nan,nan,nan,nan,nan,nan,nan,nan,nan,nan,nan,nan,nan,nan,nan,nan,nan,220.52847300469875,433.6283781240927,nan,nan,nan,nan,nan,nan
1,169,1,1,1.0,1.0,0.015872251067776233,0.0,3,1,2,5,4,7,nan,nan,nan,nan,nan,nan,nan,nan,nan,nan,nan,nan,0.0,nan,nan,nan,nan,nan,nan,nan,nan,nan,nan,nan,nan,nan,nan,nan,nan,nan,nan,220.52847300469875,434.6368130283081,nan,434.6526852793759,nan,nan,nan,nan
1,170,0,0,0.0,1.0,0.5193279217928648,1.0,8,2,4,3,0,6,1.0,1.0,1.0,1.0,1.0,1.0,0.0,0.0,0.0,0.0,0.0,1.0,1.0,0.0,0.0,0.0,0.0,8.0,6.0,3.0,4.0,5.0,6.0,1.0,2.0,4.963569059851579,5.794802837772295,6.530745804542676,7.386724933050573,3.165014904923737,4.092438407475129,220.52847300469875,435.6453046669485,436.4537103770999,436.16463258874137,444.9047687742859,445.9015822359361,437.47886170702986,444.89644990488887
1,171,1,1,nan,nan,nan,0.0,5,8,6,1,4,0,nan,nan,nan,nan,nan,nan,nan,nan,nan,nan,nan,nan,0.0,nan,nan,nan,nan,nan,nan,nan,nan,nan,nan,nan,nan,nan,nan,nan,nan,nan,nan,220.52847300469875,446.1049735885463,nan,nan,nan,nan,nan,nan
1,172,0,0,0.0,1.0,0.5629783941549249,0.0,3,5,8,2,0,4,nan,nan,nan,nan,nan,nan,nan,nan,nan,nan,nan,nan,0.0,nan,nan,nan,nan,nan,nan,nan,nan,nan,nan,nan,nan,nan,nan,nan,nan,nan,nan,220.52847300469875,447.1134230327443,nan,447.67640142689925,nan,nan,nan,nan
1,173,1,1,1.0,1.0,0.7465186705230735,0.0,6,1,4,7,5,0,nan,nan,nan,nan,nan,nan,nan,nan,nan,nan,nan,nan,0.0,nan,nan,nan,nan,nan,nan,nan,nan,nan,nan,nan,nan,nan,nan,nan,nan,nan,nan,220.52847300469875,448.121902697254,nan,448.86842136777705,nan,nan,nan,nan
1,174,1,1,1.0,1.0,0.530047029722482,0.0,3,2,7,6,1,4,nan,nan,nan,nan,nan,nan,nan,nan,nan,nan,nan,nan,0.0,nan,nan,nan,nan,nan,nan,nan,nan,nan,nan,nan,nan,nan,nan,nan,nan,nan,nan,220.52847300469875,449.13036154967267,nan,449.66040857939515,nan,nan,nan,nan
1,175,1,1,1.0,1.0,0.36955577199114487,0.0,6,5,0,8,4,1,nan,nan,nan,nan,nan,nan,nan,nan,nan,nan,nan,nan,0.0,nan,nan,nan,nan,nan,nan,nan,nan,nan,nan,nan,nan,nan,nan,nan,nan,nan,nan,220.52847300469875,450.13883038051426,nan,450.5083861525054,nan,nan,nan,nan
1,176,1,1,1.0,1.0,0.5291233127936721,0.0,2,3,1,4,0,5,nan,nan,nan,nan,nan,nan,nan,nan,nan,nan,nan,nan,0.0,nan,nan,nan,nan,nan,nan,nan,nan,nan,nan,nan,nan,nan,nan,nan,nan,nan,nan,220.52847300469875,451.147294934839,nan,451.6764182476327,nan,nan,nan,nan
1,177,0,0,0.0,1.0,0.5446095414226875,0.0,5,1,6,7,3,8,nan,nan,nan,nan,nan,nan,nan,nan,nan,nan,nan,nan,0.0,nan,nan,nan,nan,nan,nan,nan,nan,nan,nan,nan,nan,nan,nan,nan,nan,nan,nan,220.52847300469875,452.15575549786445,nan,452.70036503928714,nan,nan,nan,nan
1,178,1,1,1.0,1.0,0.6561201379518025,0.0,1,8,5,2,4,6,nan,nan,nan,nan,nan,nan,nan,nan,nan,nan,nan,nan,0.0,nan,nan,nan,nan,nan,nan,nan,nan,nan,nan,nan,nan,nan,nan,nan,nan,nan,nan,220.52847300469875,453.1641798533965,nan,453.8202999913483,nan,nan,nan,nan
1,179,1,1,1.0,1.0,0.5036580901942216,0.0,5,3,2,7,1,4,nan,nan,nan,nan,nan,nan,nan,nan,nan,nan,nan,nan,0.0,nan,nan,nan,nan,nan,nan,nan,nan,nan,nan,nan,nan,nan,nan,nan,nan,nan,nan,220.52847300469875,454.17264184186934,nan,454.67629993206356,nan,nan,nan,nan
1,180,1,1,1.0,1.0,0.5111735538812354,0.0,6,8,3,1,7,5,nan,nan,nan,nan,nan,nan,nan,nan,nan,nan,nan,nan,0.0,nan,nan,nan,nan,nan,nan,nan,nan,nan,nan,nan,nan,nan,nan,nan,nan,nan,nan,220.52847300469875,455.1811303444556,nan,455.69230389833683,nan,nan,nan,nan
1,181,1,1,1.0,1.0,0.35067573888227344,0.0,1,2,5,4,3,7,nan,nan,nan,nan,nan,nan,nan,nan,nan,nan,nan,nan,0.0,nan,nan,nan,nan,nan,nan,nan,nan,nan,nan,nan,nan,nan,nan,nan,nan,nan,nan,220.52847300469875,456.18960858351784,nan,456.5402843224001,nan,nan,nan,nan
1,182,1,1,1.0,1.0,0.36617251607822254,0.0,0,7,8,3,6,2,nan,nan,nan,nan,nan,nan,nan,nan,nan,nan,nan,nan,0.0,nan,nan,nan,nan,nan,nan,nan,nan,nan,nan,nan,nan,nan,nan,nan,nan,nan,nan,220.52847300469875,457.19807285279967,nan,457.5642453688779,nan,nan,nan,nan
1,183,1,1,1.0,1.0,0.35773960762890056,0.0,7,4,0,6,1,8,nan,nan,nan,nan,nan,nan,nan,nan,nan,nan,nan,nan,0.0,nan,nan,nan,nan,nan,nan,nan,nan,nan,nan,nan,nan,nan,nan,nan,nan,nan,nan,220.52847300469875,458.2064972083317,nan,458.5642368159606,nan,nan,nan,nan
1,184,1,1,1.0,1.0,0.25322844774927944,0.0,8,7,5,1,3,4,nan,nan,nan,nan,nan,nan,nan,nan,nan,nan,nan,nan,0.0,nan,nan,nan,nan,nan,nan,nan,nan,nan,nan,nan,nan,nan,nan,nan,nan,nan,nan,220.52847300469875,459.21499939559726,nan,459.46822784334654,nan,nan,nan,nan
1,185,0,0,0.0,1.0,0.4847618064377457,1.0,6,3,0,8,7,2,1.0,1.0,1.0,1.0,1.0,1.0,0.0,0.0,0.0,0.0,0.0,1.0,1.0,2.0,2.0,2.0,2.0,2.0,2.0,6.0,7.0,2.0,1.0,3.0,5.0,6.400628583680373,7.096831764909439,3.2018846106366254,2.3147668127785437,4.193865949288011,5.375748096674215,220.52847300469875,460.2234539715573,461.031865383673,460.70821577799506,469.1829030827503,470.1903546845424,462.0486738960026,469.1745739498292
1,186,1,1,0.0,0.0,0.6686339366715401,0.0,7,8,5,2,1,4,nan,nan,nan,nan,nan,nan,nan,nan,nan,nan,nan,nan,0.0,nan,nan,nan,nan,nan,nan,nan,nan,nan,nan,nan,nan,nan,nan,nan,nan,nan,nan,220.52847300469875,470.39142163458746,nan,471.060055571259,nan,nan,nan,nan
1,187,1,1,1.0,1.0,0.6441682670265436,0.0,8,5,2,4,3,1,nan,nan,nan,nan,nan,nan,nan,nan,nan,nan,nan,nan,0.0,nan,nan,nan,nan,nan,nan,nan,nan,nan,nan,nan,nan,nan,nan,nan,nan,nan,nan,220.52847300469875,471.3998608152615,nan,472.04402908228803,nan,nan,nan,nan
1,188,1,1,1.0,1.0,0.4035186202963814,0.0,4,3,6,0,5,7,nan,nan,nan,nan,nan,nan,nan,nan,nan,nan,nan,nan,0.0,nan,nan,nan,nan,nan,nan,nan,nan,nan,nan,nan,nan,nan,nan,nan,nan,nan,nan,220.52847300469875,472.40845851029735,nan,472.81197713059373,nan,nan,nan,nan
1,189,1,1,1.0,1.0,0.45118469547014683,0.0,2,0,5,4,8,6,nan,nan,nan,nan,nan,nan,nan,nan,nan,nan,nan,nan,0.0,nan,nan,nan,nan,nan,nan,nan,nan,nan,nan,nan,nan,nan,nan,nan,nan,nan,nan,220.52847300469875,473.4167770945933,nan,473.8679617900634,nan,nan,nan,nan
1,190,1,1,1.0,1.0,0.5547000086517073,0.0,0,2,8,1,7,3,nan,nan,nan,nan,nan,nan,nan,nan,nan,nan,nan,nan,0.0,nan,nan,nan,nan,nan,nan,nan,nan,nan,nan,nan,nan,nan,nan,nan,nan,nan,nan,220.52847300469875,474.42523822776275,nan,474.97993823641445,nan,nan,nan,nan
1,191,1,1,1.0,1.0,0.48221103625837713,0.0,5,4,0,7,1,8,nan,nan,nan,nan,nan,nan,nan,nan,nan,nan,nan,nan,0.0,nan,nan,nan,nan,nan,nan,nan,nan,nan,nan,nan,nan,nan,nan,nan,nan,nan,nan,220.52847300469875,475.4337042075931,nan,475.9159152438515,nan,nan,nan,nan
1,192,1,1,1.0,1.0,0.4737336524412967,0.0,8,0,5,1,6,3,nan,nan,nan,nan,nan,nan,nan,nan,nan,nan,nan,nan,0.0,nan,nan,nan,nan,nan,nan,nan,nan,nan,nan,nan,nan,nan,nan,nan,nan,nan,nan,220.52847300469875,476.44216505571967,nan,476.91589870816097,nan,nan,nan,nan
1,193,0,0,0.0,1.0,0.4732794916490093,0.0,7,5,0,6,2,4,nan,nan,nan,nan,nan,nan,nan,nan,nan,nan,nan,nan,0.0,nan,nan,nan,nan,nan,nan,nan,nan,nan,nan,nan,nan,nan,nan,nan,nan,nan,nan,220.52847300469875,477.4506307504489,nan,477.9239102420979,nan,nan,nan,nan
1,194,1,1,1.0,1.0,0.5607877025031485,0.0,4,2,1,7,3,8,nan,nan,nan,nan,nan,nan,nan,nan,nan,nan,nan,nan,0.0,nan,nan,nan,nan,nan,nan,nan,nan,nan,nan,nan,nan,nan,nan,nan,nan,nan,nan,220.52847300469875,478.4590958749759,nan,479.01988357747905,nan,nan,nan,nan
1,195,1,1,1.0,1.0,0.4642820894951001,0.0,7,8,6,2,5,0,nan,nan,nan,nan,nan,nan,nan,nan,nan,nan,nan,nan,0.0,nan,nan,nan,nan,nan,nan,nan,nan,nan,nan,nan,nan,nan,nan,nan,nan,nan,nan,220.52847300469875,479.4675649909186,nan,479.9318470804137,nan,nan,nan,nan
1,196,1,1,nan,nan,nan,0.0,0,5,8,4,6,3,nan,nan,nan,nan,nan,nan,nan,nan,nan,nan,nan,nan,0.0,nan,nan,nan,nan,nan,nan,nan,nan,nan,nan,nan,nan,nan,nan,nan,nan,nan,nan,220.52847300469875,480.47601785627194,nan,nan,nan,nan,nan,nan
1,197,1,1,1.0,1.0,0.6713577612536028,0.0,1,8,5,0,2,7,nan,nan,nan,nan,nan,nan,nan,nan,nan,nan,nan,nan,0.0,nan,nan,nan,nan,nan,nan,nan,nan,nan,nan,nan,nan,nan,nan,nan,nan,nan,nan,220.52847300469875,481.48446558986325,nan,482.15582335111685,nan,nan,nan,nan
1,198,1,1,1.0,1.0,0.5748356126132421,0.0,6,5,7,8,3,2,nan,nan,nan,nan,nan,nan,nan,nan,nan,nan,nan,nan,0.0,nan,nan,nan,nan,nan,nan,nan,nan,nan,nan,nan,nan,nan,nan,nan,nan,nan,nan,220.52847300469875,482.49294610967627,nan,483.0677817222895,nan,nan,nan,nan
1,199,1,1,1.0,1.0,0.31038343376712874,0.0,0,7,5,3,4,1,nan,nan,nan,nan,nan,nan,nan,nan,nan,nan,nan,nan,0.0,nan,nan,nan,nan,nan,nan,nan,nan,nan,nan,nan,nan,nan,nan,nan,nan,nan,nan,220.52847300469875,483.5014066727017,nan,483.81179010646883,nan,nan,nan,nan
1,200,1,1,1.0,1.0,0.4538954055751674,0.0,6,3,4,2,8,7,nan,nan,nan,nan,nan,nan,nan,nan,nan,nan,nan,nan,0.0,nan,nan,nan,nan,nan,nan,nan,nan,nan,nan,nan,nan,nan,nan,nan,nan,nan,nan,220.52847300469875,484.5098683760734,nan,484.9637637816486,nan,nan,nan,nan
1,201,1,1,1.0,1.0,0.3174404602032155,0.0,1,5,2,7,6,0,nan,nan,nan,nan,nan,nan,nan,nan,nan,nan,nan,nan,0.0,nan,nan,nan,nan,nan,nan,nan,nan,nan,nan,nan,nan,nan,nan,nan,nan,nan,nan,220.52847300469875,485.5183320750948,nan,485.835772535298,nan,nan,nan,nan
1,202,1,1,1.0,1.0,0.32493539684219286,0.0,0,8,3,6,1,2,nan,nan,nan,nan,nan,nan,nan,nan,nan,nan,nan,nan,0.0,nan,nan,nan,nan,nan,nan,nan,nan,nan,nan,nan,nan,nan,nan,nan,nan,nan,nan,220.52847300469875,486.52679634437663,nan,486.8517317412188,nan,nan,nan,nan
1,203,0,0,0.0,1.0,0.4844359396956861,1.0,6,7,2,1,3,4,1.0,1.0,1.0,1.0,1.0,1.0,1.0,1.0,0.0,0.0,0.0,0.0,2.0,6.0,7.0,6.0,6.0,6.0,6.0,2.0,1.0,6.0,5.0,4.0,3.0,2.6189205740229227,1.904763927566819,7.664569867192768,6.536580616550054,5.6243690784904175,3.3862704870989546,220.52847300469875,487.53525804774836,488.34366717911325,488.01969398744404,497.0614317384898,498.06705842912197,489.36048681027023,497.0530997546157
1,204,1,1,1.0,1.0,0.7495620897389017,0.0,5,3,4,2,7,8,nan,nan,nan,nan,nan,nan,nan,nan,nan,nan,nan,nan,0.0,nan,nan,nan,nan,nan,nan,nan,nan,nan,nan,nan,nan,nan,nan,nan,nan,nan,nan,220.52847300469875,498.26996511546895,nan,499.01952720520785,nan,nan,nan,nan
1,205,1,1,1.0,1.0,0.32507423945935443,0.0,8,2,6,5,1,0,nan,nan,nan,nan,nan,nan,nan,nan,nan,nan,nan,nan,0.0,nan,nan,nan,nan,nan,nan,nan,nan,nan,nan,nan,nan,nan,nan,nan,nan,nan,nan,220.52847300469875,499.2784256784362,nan,499.60349991789553,nan,nan,nan,nan
1,206,1,1,1.0,1.0,0.44458211498567834,0.0,0,1,2,7,4,8,nan,nan,nan,nan,nan,nan,nan,nan,nan,nan,nan,nan,0.0,nan,nan,nan,nan,nan,nan,nan,nan,nan,nan,nan,nan,nan,nan,nan,nan,nan,nan,220.52847300469875,500.2868896626169,nan,500.73147177760256,nan,nan,nan,nan
1,207,1,1,1.0,1.0,0.5161008995492011,0.0,8,5,1,3,6,0,nan,nan,nan,nan,nan,nan,nan,nan,nan,nan,nan,nan,0.0,nan,nan,nan,nan,nan,nan,nan,nan,nan,nan,nan,nan,nan,nan,nan,nan,nan,nan,220.52847300469875,501.29534822987625,nan,501.81144912942545,nan,nan,nan,nan
1,208,1,1,1.0,1.0,0.4596218804945238,0.0,2,1,5,4,3,7,nan,nan,nan,nan,nan,nan,nan,nan,nan,nan,nan,nan,0.0,nan,nan,nan,nan,nan,nan,nan,nan,nan,nan,nan,nan,nan,nan,nan,nan,nan,nan,220.52847300469875,502.30381734581897,nan,502.7634392263135,nan,nan,nan,nan
1,209,1,1,1.0,1.0,0.4751408953452483,0.0,4,3,0,5,7,2,nan,nan,nan,nan,nan,nan,nan,nan,nan,nan,nan,nan,0.0,nan,nan,nan,nan,nan,nan,nan,nan,nan,nan,nan,nan,nan,nan,nan,nan,nan,nan,220.52847300469875,503.31231497152476,nan,503.78745586687,nan,nan,nan,nan
1,210,1,1,1.0,1.0,0.4426209271186963,0.0,1,2,5,4,0,7,nan,nan,nan,nan,nan,nan,nan,nan,nan,nan,nan,nan,0.0,nan,nan,nan,nan,nan,nan,nan,nan,nan,nan,nan,nan,nan,nan,nan,nan,nan,nan,220.52847300469875,504.3207772450987,nan,504.7633981722174,nan,nan,nan,nan
1,211,1,1,1.0,1.0,0.40217780525563285,0.0,6,1,0,7,3,2,nan,nan,nan,nan,nan,nan,nan,nan,nan,nan,nan,nan,0.0,nan,nan,nan,nan,nan,nan,nan,nan,nan,nan,nan,nan,nan,nan,nan,nan,nan,nan,220.52847300469875,505.3292195618269,nan,505.73139736708254,nan,nan,nan,nan
1,212,1,1,1.0,1.0,0.44156235887203366,0.0,7,3,1,2,4,6,nan,nan,nan,nan,nan,nan,nan,nan,nan,nan,nan,nan,0.0,nan,nan,nan,nan,nan,nan,nan,nan,nan,nan,nan,nan,nan,nan,nan,nan,nan,nan,220.52847300469875,506.3378266650834,nan,506.77938902395545,nan,nan,nan,nan
1,213,1,1,1.0,1.0,0.44922635855618864,0.0,0,2,5,8,6,4,nan,nan,nan,nan,nan,nan,nan,nan,nan,nan,nan,nan,0.0,nan,nan,nan,nan,nan,nan,nan,nan,nan,nan,nan,nan,nan,nan,nan,nan,nan,nan,220.52847300469875,507.34613897721283,nan,507.795365335769,nan,nan,nan,nan
1,214,1,1,1.0,1.0,0.5287352947052568,0.0,5,6,4,3,1,0,nan,nan,nan,nan,nan,nan,nan,nan,nan,nan,nan,nan,0.0,nan,nan,nan,nan,nan,nan,nan,nan,nan,nan,nan,nan,nan,nan,nan,nan,nan,nan,220.52847300469875,508.35459554882254,nan,508.8833308435278,nan,nan,nan,nan
1,215,1,1,1.0,1.0,0.4163032619981095,0.0,0,1,6,7,8,5,nan,nan,nan,nan,nan,nan,nan,nan,nan,nan,nan,nan,0.0,nan,nan,nan,nan,nan,nan,nan,nan,nan,nan,nan,nan,nan,nan,nan,nan,nan,nan,220.52847300469875,509.3630441377172,nan,509.77934739971533,nan,nan,nan,nan
1,216,1,1,1.0,1.0,0.32810796541161835,0.0,7,3,1,2,5,8,nan,nan,nan,nan,nan,nan,nan,nan,nan,nan,nan,nan,0.0,nan,nan,nan,nan,nan,nan,nan,nan,nan,nan,nan,nan,nan,nan,nan,nan,nan,nan,220.52847300469875,510.36321890266845,nan,510.69132686808007,nan,nan,nan,nan
1,217,1,1,1.0,1.0,0.35162711032899097,0.0,3,8,5,6,2,4,nan,nan,nan,nan,nan,nan,nan,nan,nan,nan,nan,nan,0.0,nan,nan,nan,nan,nan,nan,nan,nan,nan,nan,nan,nan,nan,nan,nan,nan,nan,nan,220.52847300469875,511.3716808911413,nan,511.7233080014703,nan,nan,nan,nan
1,218,1,1,1.0,1.0,0.3751425489317626,0.0,7,5,6,8,0,2,nan,nan,nan,nan,nan,nan,nan,nan,nan,nan,nan,nan,0.0,nan,nan,nan,nan,nan,nan,nan,nan,nan,nan,nan,nan,nan,nan,nan,nan,nan,nan,220.52847300469875,512.3801494368818,nan,512.7552919858135,nan,nan,nan,nan
1,219,1,1,1.0,1.0,0.36667999025667086,0.0,2,8,0,3,5,1,nan,nan,nan,nan,nan,nan,nan,nan,nan,nan,nan,nan,0.0,nan,nan,nan,nan,nan,nan,nan,nan,nan,nan,nan,nan,nan,nan,nan,nan,nan,nan,220.52847300469875,513.3885720818653,nan,513.755252072122,nan,nan,nan,nan
1,220,1,1,1.0,1.0,0.34221118449931964,0.0,8,2,1,4,0,7,nan,nan,nan,nan,nan,nan,nan,nan,nan,nan,nan,nan,0.0,nan,nan,nan,nan,nan,nan,nan,nan,nan,nan,nan,nan,nan,nan,nan,nan,nan,nan,220.52847300469875,514.3970249472186,nan,514.7392361317179,nan,nan,nan,nan
1,221,0,0,1.0,0.0,0.22974807617720217,0.0,2,4,6,1,5,3,nan,nan,nan,nan,nan,nan,nan,nan,nan,nan,nan,nan,0.0,nan,nan,nan,nan,nan,nan,nan,nan,nan,nan,nan,nan,nan,nan,nan,nan,nan,nan,220.52847300469875,515.4055305556394,nan,515.6352786318166,nan,nan,nan,nan
1,222,1,1,1.0,1.0,0.5252049283008091,0.0,0,7,1,2,6,5,nan,nan,nan,nan,nan,nan,nan,nan,nan,nan,nan,nan,0.0,nan,nan,nan,nan,nan,nan,nan,nan,nan,nan,nan,nan,nan,nan,nan,nan,nan,nan,220.52847300469875,516.4139968206291,nan,516.9392017489299,nan,nan,nan,nan
1,223,1,1,1.0,1.0,0.36474674189230427,0.0,1,5,0,4,3,8,nan,nan,nan,nan,nan,nan,nan,nan,nan,nan,nan,nan,0.0,nan,nan,nan,nan,nan,nan,nan,nan,nan,nan,nan,nan,nan,nan,nan,nan,nan,nan,220.52847300469875,517.4224166146014,nan,517.7871633564937,nan,nan,nan,nan
1,224,1,1,1.0,1.0,0.5642676064744592,0.0,2,8,4,5,7,3,nan,nan,nan,nan,nan,nan,nan,nan,nan,nan,nan,nan,0.0,nan,nan,nan,nan,nan,nan,nan,nan,nan,nan,nan,nan,nan,nan,nan,nan,nan,nan,220.52847300469875,518.4308805987821,nan,518.9951482052566,nan,nan,nan,nan
1,225,1,1,1.0,1.0,0.3798047535819933,0.0,0,7,1,8,2,6,nan,nan,nan,nan,nan,nan,nan,nan,nan,nan,nan,nan,0.0,nan,nan,nan,nan,nan,nan,nan,nan,nan,nan,nan,nan,nan,nan,nan,nan,nan,nan,220.52847300469875,519.4393431574572,nan,519.8191479110392,nan,nan,nan,nan
1,226,1,1,1.0,1.0,0.48331094364402816,0.0,1,8,7,2,3,5,nan,nan,nan,nan,nan,nan,nan,nan,nan,nan,nan,nan,0.0,nan,nan,nan,nan,nan,nan,nan,nan,nan,nan,nan,nan,nan,nan,nan,nan,nan,nan,220.52847300469875,520.4478105627932,nan,520.9311215064372,nan,nan,nan,nan
1,227,1,1,1.0,1.0,0.4189170388272032,0.0,6,7,4,1,8,2,nan,nan,nan,nan,nan,nan,nan,nan,nan,nan,nan,nan,0.0,nan,nan,nan,nan,nan,nan,nan,nan,nan,nan,nan,nan,nan,nan,nan,nan,nan,nan,220.52847300469875,521.4562668493018,nan,521.875183888129,nan,nan,nan,nan
1,228,1,1,1.0,1.0,0.6183138858759776,0.0,8,5,2,4,1,0,nan,nan,nan,nan,nan,nan,nan,nan,nan,nan,nan,nan,0.0,nan,nan,nan,nan,nan,nan,nan,nan,nan,nan,nan,nan,nan,nan,nan,nan,nan,nan,220.52847300469875,522.4647653303109,nan,523.0830792161869,nan,nan,nan,nan
1,229,1,1,1.0,1.0,0.6338562787277624,0.0,0,2,1,5,4,6,nan,nan,nan,nan,nan,nan,nan,nan,nan,nan,nan,nan,0.0,nan,nan,nan,nan,nan,nan,nan,nan,nan,nan,nan,nan,nan,nan,nan,nan,nan,nan,220.52847300469875,523.4731985239196,nan,524.1070548026473,nan,nan,nan,nan
1,230,1,1,1.0,1.0,0.6813601332833059,0.0,8,4,5,2,6,1,nan,nan,nan,nan,nan,nan,nan,nan,nan,nan,nan,nan,0.0,nan,nan,nan,nan,nan,nan,nan,nan,nan,nan,nan,nan,nan,nan,nan,nan,nan,nan,220.52847300469875,524.4816787586315,nan,525.1630388919148,nan,nan,nan,nan
1,231,1,1,1.0,1.0,0.6489177116891369,0.0,2,0,8,3,7,6,nan,nan,nan,nan,nan,nan,nan,nan,nan,nan,nan,nan,0.0,nan,nan,nan,nan,nan,nan,nan,nan,nan,nan,nan,nan,nan,nan,nan,nan,nan,nan,220.52847300469875,525.4901441682596,nan,526.1390618799487,nan,nan,nan,nan
1,232,1,1,1.0,1.0,0.6564291839604266,0.0,8,7,0,4,3,2,nan,nan,nan,nan,nan,nan,nan,nan,nan,nan,nan,nan,0.0,nan,nan,nan,nan,nan,nan,nan,nan,nan,nan,nan,nan,nan,nan,nan,nan,nan,nan,220.52847300469875,526.4985850595403,nan,527.1550142435008,nan,nan,nan,nan
1,233,1,1,1.0,1.0,0.5599634847021662,0.0,0,1,6,2,8,7,nan,nan,nan,nan,nan,nan,nan,nan,nan,nan,nan,nan,0.0,nan,nan,nan,nan,nan,nan,nan,nan,nan,nan,nan,nan,nan,nan,nan,nan,nan,nan,220.52847300469875,527.5070456225076,nan,528.0670091072097,nan,nan,nan,nan
1,234,1,1,1.0,1.0,0.5594480278086849,0.0,7,6,5,8,0,3,nan,nan,nan,nan,nan,nan,nan,nan,nan,nan,nan,nan,0.0,nan,nan,nan,nan,nan,nan,nan,nan,nan,nan,nan,nan,nan,nan,nan,nan,nan,nan,220.52847300469875,528.5155458141235,nan,529.0749938419322,nan,nan,nan,nan
1,235,1,1,1.0,1.0,0.558989305398427,0.0,6,8,1,2,4,0,nan,nan,nan,nan,nan,nan,nan,nan,nan,nan,nan,nan,0.0,nan,nan,nan,nan,nan,nan,nan,nan,nan,nan,nan,nan,nan,nan,nan,nan,nan,nan,220.52847300469875,529.5239724504645,nan,530.0829617558629,nan,nan,nan,nan
1,236,1,1,1.0,1.0,0.5425100810825825,0.0,5,3,2,6,8,1,nan,nan,nan,nan,nan,nan,nan,nan,nan,nan,nan,nan,0.0,nan,nan,nan,nan,nan,nan,nan,nan,nan,nan,nan,nan,nan,nan,nan,nan,nan,nan,220.52847300469875,530.5324435620569,nan,531.0749536431395,nan,nan,nan,nan
1,237,1,1,1.0,1.0,0.4860008415998891,0.0,1,2,3,8,4,7,nan,nan,nan,nan,nan,nan,nan,nan,nan,nan,nan,nan,0.0,nan,nan,nan,nan,nan,nan,nan,nan,nan,nan,nan,nan,nan,nan,nan,nan,nan,nan,220.52847300469875,531.540929498733,nan,532.0269303403329,nan,nan,nan,nan
1,238,1,1,1.0,1.0,0.40554252977017313,0.0,5,8,1,4,7,2,nan,nan,nan,nan,nan,nan,nan,nan,nan,nan,nan,nan,0.0,nan,nan,nan,nan,nan,nan,nan,nan,nan,nan,nan,nan,nan,nan,nan,nan,nan,nan,220.52847300469875,532.5493575605797,nan,532.9549000903498,nan,nan,nan,nan
1,239,1,1,1.0,1.0,0.46103767619933933,0.0,0,6,8,7,3,5,nan,nan,nan,nan,nan,nan,nan,nan,nan,nan,nan,nan,0.0,nan,nan,nan,nan,nan,nan,nan,nan,nan,nan,nan,nan,nan,nan,nan,nan,nan,nan,220.52847300469875,533.5578577521956,nan,534.0188954283949,nan,nan,nan,nan
1,240,1,1,1.0,1.0,0.5005624979967251,0.0,6,5,3,8,4,0,nan,nan,nan,nan,nan,nan,nan,nan,nan,nan,nan,nan,0.0,nan,nan,nan,nan,nan,nan,nan,nan,nan,nan,nan,nan,nan,nan,nan,nan,nan,nan,220.52847300469875,534.5663223065203,nan,535.066884804517,nan,nan,nan,nan
1,241,1,1,1.0,1.0,0.6040555735817179,0.0,8,6,0,1,2,3,nan,nan,nan,nan,nan,nan,nan,nan,nan,nan,nan,nan,0.0,nan,nan,nan,nan,nan,nan,nan,nan,nan,nan,nan,nan,nan,nan,nan,nan,nan,nan,220.52847300469875,535.5747834396898,nan,536.1788390132715,nan,nan,nan,nan
1,242,1,1,1.0,1.0,0.6356526801828295,0.0,0,4,2,6,1,5,nan,nan,nan,nan,nan,nan,nan,nan,nan,nan,nan,nan,0.0,nan,nan,nan,nan,nan,nan,nan,nan,nan,nan,nan,nan,nan,nan,nan,nan,nan,nan,220.52847300469875,536.5832060846733,nan,537.2188587648561,nan,nan,nan,nan
1,243,1,1,1.0,1.0,0.6591165160643868,0.0,1,0,4,3,7,8,nan,nan,nan,nan,nan,nan,nan,nan,nan,nan,nan,nan,0.0,nan,nan,nan,nan,nan,nan,nan,nan,nan,nan,nan,nan,nan,nan,nan,nan,nan,nan,220.52847300469875,537.5917102676467,nan,538.2508267837111,nan,nan,nan,nan
1,244,1,1,1.0,1.0,0.7226405874243937,0.0,5,8,7,1,0,4,nan,nan,nan,nan,nan,nan,nan,nan,nan,nan,nan,nan,0.0,nan,nan,nan,nan,nan,nan,nan,nan,nan,nan,nan,nan,nan,nan,nan,nan,nan,nan,220.52847300469875,538.6001696902676,nan,539.322810277692,nan,nan,nan,nan
1,245,1,1,1.0,1.0,0.7701529948972166,0.0,3,6,8,0,2,5,nan,nan,nan,nan,nan,nan,nan,nan,nan,nan,nan,nan,0.0,nan,nan,nan,nan,nan,nan,nan,nan,nan,nan,nan,nan,nan,nan,nan,nan,nan,nan,220.52847300469875,539.608635670098,nan,540.3787886649952,nan,nan,nan,nan
1,246,0,0,0.0,1.0,0.7456881805555895,0.0,1,0,2,4,5,6,nan,nan,nan,nan,nan,nan,nan,nan,nan,nan,nan,nan,0.0,nan,nan,nan,nan,nan,nan,nan,nan,nan,nan,nan,nan,nan,nan,nan,nan,nan,nan,220.52847300469875,540.6170959479641,nan,541.3627841285197,nan,nan,nan,nan
1,247,1,1,1.0,1.0,0.7291955565451644,0.0,4,3,6,7,2,0,nan,nan,nan,nan,nan,nan,nan,nan,nan,nan,nan,nan,0.0,nan,nan,nan,nan,nan,nan,nan,nan,nan,nan,nan,nan,nan,nan,nan,nan,nan,nan,220.52847300469875,541.6255610725493,nan,542.3547566290945,nan,nan,nan,nan
1,248,1,1,1.0,1.0,0.6807066890760325,0.0,5,6,2,4,8,3,nan,nan,nan,nan,nan,nan,nan,nan,nan,nan,nan,nan,0.0,nan,nan,nan,nan,nan,nan,nan,nan,nan,nan,nan,nan,nan,nan,nan,nan,nan,nan,220.52847300469875,542.6340187845635,nan,543.3147254736396,nan,nan,nan,nan
1,249,1,1,1.0,1.0,0.6002506579970941,0.0,0,1,3,2,6,8,nan,nan,nan,nan,nan,nan,nan,nan,nan,nan,nan,nan,0.0,nan,nan,nan,nan,nan,nan,nan,nan,nan,nan,nan,nan,nan,nan,nan,nan,nan,nan,220.52847300469875,543.6424531185185,nan,544.2427037765156,nan,nan,nan,nan
1,250,0,0,0.0,1.0,0.6397971471888013,0.0,4,0,5,8,1,6,nan,nan,nan,nan,nan,nan,nan,nan,nan,nan,nan,nan,0.0,nan,nan,nan,nan,nan,nan,nan,nan,nan,nan,nan,nan,nan,nan,nan,nan,nan,nan,220.52847300469875,544.6509128262405,nan,545.2907099734293,nan,nan,nan,nan
1,251,1,1,1.0,1.0,0.5832676658174023,0.0,5,2,6,4,7,3,nan,nan,nan,nan,nan,nan,nan,nan,nan,nan,nan,nan,0.0,nan,nan,nan,nan,nan,nan,nan,nan,nan,nan,nan,nan,nan,nan,nan,nan,nan,nan,220.52847300469875,545.6594087413396,nan,546.242676407157,nan,nan,nan,nan
1,252,1,1,1.0,1.0,0.5828075179015286,0.0,1,0,2,6,4,5,nan,nan,nan,nan,nan,nan,nan,nan,nan,nan,nan,nan,0.0,nan,nan,nan,nan,nan,nan,nan,nan,nan,nan,nan,nan,nan,nan,nan,nan,nan,nan,220.52847300469875,546.6678359478828,nan,547.2506434657844,nan,nan,nan,nan
1,253,1,1,1.0,1.0,0.5983350857277401,0.0,2,6,0,3,1,7,nan,nan,nan,nan,nan,nan,nan,nan,nan,nan,nan,nan,0.0,nan,nan,nan,nan,nan,nan,nan,nan,nan,nan,nan,nan,nan,nan,nan,nan,nan,nan,220.52847300469875,547.6762996469624,nan,548.2746347326902,nan,nan,nan,nan
1,254,1,1,1.0,1.0,0.5978601127280854,0.0,7,0,3,5,6,4,nan,nan,nan,nan,nan,nan,nan,nan,nan,nan,nan,nan,0.0,nan,nan,nan,nan,nan,nan,nan,nan,nan,nan,nan,nan,nan,nan,nan,nan,nan,nan,220.52847300469875,548.6847622056375,nan,549.2826223183656,nan,nan,nan,nan
1,255,0,0,0.0,1.0,0.5413722555967979,1.0,3,2,4,1,8,0,1.0,1.0,1.0,1.0,1.0,1.0,0.0,0.0,0.0,0.0,0.0,1.0,1.0,0.0,0.0,0.0,0.0,0.0,0.0,3.0,2.0,1.0,6.0,5.0,4.0,4.001787278277334,3.3794868695549667,2.6590785980806686,6.689072314475197,6.009831313334871,4.874190892383922,220.52847300469875,549.6932259047171,550.5016376019339,550.2345981603139,558.2526317380252,559.2492481970694,551.5267761024297,558.2442931968835
1,256,1,1,1.0,1.0,0.541671893442981,0.0,1,8,2,7,6,3,nan,nan,nan,nan,nan,nan,nan,nan,nan,nan,nan,nan,0.0,nan,nan,nan,nan,nan,nan,nan,nan,nan,nan,nan,nan,nan,nan,nan,nan,nan,nan,220.52847300469875,559.452798919403,nan,559.994470812846,nan,nan,nan,nan
1,257,1,1,1.0,1.0,0.38913743081502616,0.0,3,0,5,8,7,2,nan,nan,nan,nan,nan,nan,nan,nan,nan,nan,nan,nan,0.0,nan,nan,nan,nan,nan,nan,nan,nan,nan,nan,nan,nan,nan,nan,nan,nan,nan,nan,220.52847300469875,560.4613042427227,nan,560.8504416735377,nan,nan,nan,nan
1,258,0,0,1.0,0.0,0.3408649525954388,1.0,1,5,6,0,2,3,1.0,1.0,1.0,1.0,1.0,1.0,1.0,0.0,1.0,1.0,0.0,0.0,3.0,1.0,6.0,6.0,0.0,6.0,6.0,2.0,4.0,3.0,1.0,5.0,6.0,3.721473967190832,6.640849443268962,5.178244584298227,2.081027652253397,7.560815071861725,8.793085978657473,220.52847300469875,561.4697428531945,562.2781545504113,561.8106078057899,572.121073347691,573.1174126916449,563.2866302235634,572.112741648918
1,259,1,1,1.0,1.0,0.5049367538886145,0.0,2,7,4,8,5,0,nan,nan,nan,nan,nan,nan,nan,nan,nan,nan,nan,nan,0.0,nan,nan,nan,nan,nan,nan,nan,nan,nan,nan,nan,nan,nan,nan,nan,nan,nan,nan,220.52847300469875,573.3212864298257,nan,573.8262231837143,nan,nan,nan,nan
1,260,1,1,1.0,1.0,0.45646214130101725,0.0,5,2,7,1,0,6,nan,nan,nan,nan,nan,nan,nan,nan,nan,nan,nan,nan,0.0,nan,nan,nan,nan,nan,nan,nan,nan,nan,nan,nan,nan,nan,nan,nan,nan,nan,nan,220.52847300469875,574.3297224743874,nan,574.7861846156884,nan,nan,nan,nan
1,261,1,1,1.0,1.0,0.4479593838332221,0.0,8,0,1,7,6,2,nan,nan,nan,nan,nan,nan,nan,nan,nan,nan,nan,nan,0.0,nan,nan,nan,nan,nan,nan,nan,nan,nan,nan,nan,nan,nan,nan,nan,nan,nan,nan,220.52847300469875,575.338209551468,nan,575.7861689353012,nan,nan,nan,nan
1,262,1,1,1.0,1.0,0.3594687259173952,0.0,2,5,3,6,8,4,nan,nan,nan,nan,nan,nan,nan,nan,nan,nan,nan,nan,0.0,nan,nan,nan,nan,nan,nan,nan,nan,nan,nan,nan,nan,nan,nan,nan,nan,nan,nan,220.52847300469875,576.3466743909521,nan,576.7061431168695,nan,nan,nan,nan
1,263,1,1,1.0,1.0,0.3350213025114499,0.0,5,2,4,1,7,8,nan,nan,nan,nan,nan,nan,nan,nan,nan,nan,nan,nan,0.0,nan,nan,nan,nan,nan,nan,nan,nan,nan,nan,nan,nan,nan,nan,nan,nan,nan,nan,220.52847300469875,577.3551172778825,nan,577.690138580394,nan,nan,nan,nan
1,264,1,1,1.0,1.0,0.7025240850634873,0.0,1,4,0,2,6,7,nan,nan,nan,nan,nan,nan,nan,nan,nan,nan,nan,nan,0.0,nan,nan,nan,nan,nan,nan,nan,nan,nan,nan,nan,nan,nan,nan,nan,nan,nan,nan,220.52847300469875,578.3635849683196,nan,579.0661090533831,nan,nan,nan,nan
1,265,1,1,1.0,1.0,0.4620266805868596,0.0,4,7,5,6,3,8,nan,nan,nan,nan,nan,nan,nan,nan,nan,nan,nan,nan,0.0,nan,nan,nan,nan,nan,nan,nan,nan,nan,nan,nan,nan,nan,nan,nan,nan,nan,nan,220.52847300469875,579.3720657732338,nan,579.8340924538206,nan,nan,nan,nan
1,266,1,1,1.0,1.0,0.3175630522891879,0.0,5,2,0,4,7,6,nan,nan,nan,nan,nan,nan,nan,nan,nan,nan,nan,nan,0.0,nan,nan,nan,nan,nan,nan,nan,nan,nan,nan,nan,nan,nan,nan,nan,nan,nan,nan,220.52847300469875,580.3805251957965,nan,580.6980882480857,nan,nan,nan,nan
1,267,1,1,1.0,1.0,0.44507732993224636,0.0,1,4,8,0,6,7,nan,nan,nan,nan,nan,nan,nan,nan,nan,nan,nan,nan,0.0,nan,nan,nan,nan,nan,nan,nan,nan,nan,nan,nan,nan,nan,nan,nan,nan,nan,nan,220.52847300469875,581.3889546831488,nan,581.834032013081,nan,nan,nan,nan
1,268,1,1,1.0,1.0,0.3565935143851675,0.0,5,0,3,8,2,1,nan,nan,nan,nan,nan,nan,nan,nan,nan,nan,nan,nan,0.0,nan,nan,nan,nan,nan,nan,nan,nan,nan,nan,nan,nan,nan,nan,nan,nan,nan,nan,220.52847300469875,582.3974169567227,nan,582.7540104711079,nan,nan,nan,nan
1,269,0,0,0.0,1.0,0.49210763693554327,1.0,2,6,0,5,3,4,1.0,1.0,1.0,1.0,1.0,1.0,0.0,0.0,0.0,1.0,0.0,0.0,1.0,0.0,5.0,5.0,5.0,0.0,0.0,4.0,3.0,2.0,1.0,6.0,5.0,4.3675073441118,3.009456124564167,2.3056014879839495,1.3777848355239257,6.239737048570532,5.288696327479556,220.52847300469875,583.4059108761721,584.2143225733889,583.8980185131077,591.5152495974326,592.5235014688224,585.2394684864557,591.5069178987178
1,270,1,1,1.0,1.0,0.7817963899578899,0.0,7,1,2,6,4,5,nan,nan,nan,nan,nan,nan,nan,nan,nan,nan,nan,nan,0.0,nan,nan,nan,nan,nan,nan,nan,nan,nan,nan,nan,nan,nan,nan,nan,nan,nan,nan,220.52847300469875,592.7320730489446,nan,593.5138694389025,nan,nan,nan,nan
1,271,1,1,1.0,1.0,0.4772500490071252,0.0,6,4,8,7,0,3,nan,nan,nan,nan,nan,nan,nan,nan,nan,nan,nan,nan,0.0,nan,nan,nan,nan,nan,nan,nan,nan,nan,nan,nan,nan,nan,nan,nan,nan,nan,nan,220.52847300469875,593.7405897761928,nan,594.2178398251999,nan,nan,nan,nan
1,272,1,1,1.0,1.0,0.37282555893762037,0.0,0,5,6,8,4,7,nan,nan,nan,nan,nan,nan,nan,nan,nan,nan,nan,nan,0.0,nan,nan,nan,nan,nan,nan,nan,nan,nan,nan,nan,nan,nan,nan,nan,nan,nan,nan,220.52847300469875,594.7489947450813,nan,595.1218203040189,nan,nan,nan,nan
1,273,1,1,1.0,1.0,0.40430206910241395,0.0,7,6,3,1,0,5,nan,nan,nan,nan,nan,nan,nan,nan,nan,nan,nan,nan,0.0,nan,nan,nan,nan,nan,nan,nan,nan,nan,nan,nan,nan,nan,nan,nan,nan,nan,nan,220.52847300469875,595.7574786861078,nan,596.1617807552102,nan,nan,nan,nan
1,274,1,1,1.0,1.0,0.41186542925424874,0.0,2,0,5,4,8,7,nan,nan,nan,nan,nan,nan,nan,nan,nan,nan,nan,nan,0.0,nan,nan,nan,nan,nan,nan,nan,nan,nan,nan,nan,nan,nan,nan,nan,nan,nan,nan,220.52847300469875,596.7659175816807,nan,597.177783010935,nan,nan,nan,nan
1,275,0,0,0.0,1.0,0.5236921992618591,0.0,4,7,0,3,1,8,nan,nan,nan,nan,nan,nan,nan,nan,nan,nan,nan,nan,0.0,nan,nan,nan,nan,nan,nan,nan,nan,nan,nan,nan,nan,nan,nan,nan,nan,nan,nan,220.52847300469875,597.7660709642805,nan,598.2897631635424,nan,nan,nan,nan
1,276,1,1,1.0,1.0,0.6351962385233492,0.0,2,0,8,5,7,1,nan,nan,nan,nan,nan,nan,nan,nan,nan,nan,nan,nan,0.0,nan,nan,nan,nan,nan,nan,nan,nan,nan,nan,nan,nan,nan,nan,nan,nan,nan,nan,220.52847300469875,598.7745531947003,nan,599.4097494332236,nan,nan,nan,nan
1,277,0,0,nan,nan,nan,1.0,1,5,3,8,6,7,1.0,1.0,1.0,1.0,1.0,1.0,0.0,0.0,0.0,0.0,1.0,0.0,1.0,4.0,1.0,8.0,4.0,6.0,6.0,5.0,4.0,3.0,6.0,1.0,2.0,13.390619654441252,12.53538748214487,6.456532845564652,14.774822041974403,1.488799646962434,2.4089078244869597,220.52847300469875,599.7746769271907,600.583064676146,nan,616.4100821423926,617.420664403413,601.5998748990824,616.4017473075655
1,278,1,1,1.0,1.0,0.4624728587223217,0.0,0,1,7,4,8,2,nan,nan,nan,nan,nan,nan,nan,nan,nan,nan,nan,nan,0.0,nan,nan,nan,nan,nan,nan,nan,nan,nan,nan,nan,nan,nan,nan,nan,nan,nan,nan,220.52847300469875,617.6269452224369,nan,618.0894180811592,nan,nan,nan,nan
1,279,1,1,1.0,1.0,0.40601237094961107,0.0,3,6,8,5,2,0,nan,nan,nan,nan,nan,nan,nan,nan,nan,nan,nan,nan,0.0,nan,nan,nan,nan,nan,nan,nan,nan,nan,nan,nan,nan,nan,nan,nan,nan,nan,nan,220.52847300469875,618.635389534873,nan,619.0414019058226,nan,nan,nan,nan
1,280,1,1,1.0,1.0,0.6615044954232872,0.0,0,4,1,8,7,2,nan,nan,nan,nan,nan,nan,nan,nan,nan,nan,nan,nan,0.0,nan,nan,nan,nan,nan,nan,nan,nan,nan,nan,nan,nan,nan,nan,nan,nan,nan,nan,220.52847300469875,619.6438557998044,nan,620.3053602952277,nan,nan,nan,nan
1,281,1,1,1.0,1.0,0.5490402466966771,0.0,5,3,6,2,8,1,nan,nan,nan,nan,nan,nan,nan,nan,nan,nan,nan,nan,0.0,nan,nan,nan,nan,nan,nan,nan,nan,nan,nan,nan,nan,nan,nan,nan,nan,nan,nan,220.52847300469875,620.6523109459667,nan,621.2013511926634,nan,nan,nan,nan
1,282,1,1,1.0,1.0,0.4365426414879039,0.0,8,6,1,3,0,2,nan,nan,nan,nan,nan,nan,nan,nan,nan,nan,nan,nan,0.0,nan,nan,nan,nan,nan,nan,nan,nan,nan,nan,nan,nan,nan,nan,nan,nan,nan,nan,220.52847300469875,621.6607794917072,nan,622.0973221331951,nan,nan,nan,nan
1,283,1,1,1.0,1.0,0.39606188680045307,0.0,5,0,8,2,1,6,nan,nan,nan,nan,nan,nan,nan,nan,nan,nan,nan,nan,0.0,nan,nan,nan,nan,nan,nan,nan,nan,nan,nan,nan,nan,nan,nan,nan,nan,nan,nan,220.52847300469875,622.6692420503241,nan,623.0653039371246,nan,nan,nan,nan
1,284,1,1,1.0,1.0,0.4275671918876469,0.0,0,7,4,1,6,2,nan,nan,nan,nan,nan,nan,nan,nan,nan,nan,nan,nan,0.0,nan,nan,nan,nan,nan,nan,nan,nan,nan,nan,nan,nan,nan,nan,nan,nan,nan,nan,220.52847300469875,623.6777063196059,nan,624.1052735114936,nan,nan,nan,nan
1,285,1,1,1.0,1.0,0.33909934177063406,0.0,8,5,2,3,0,4,nan,nan,nan,nan,nan,nan,nan,nan,nan,nan,nan,nan,0.0,nan,nan,nan,nan,nan,nan,nan,nan,nan,nan,nan,nan,nan,nan,nan,nan,nan,nan,220.52847300469875,624.6861982433475,nan,625.0252975851181,nan,nan,nan,nan
1,286,1,1,1.0,1.0,0.3546069526928477,0.0,3,1,4,6,7,5,nan,nan,nan,nan,nan,nan,nan,nan,nan,nan,nan,nan,0.0,nan,nan,nan,nan,nan,nan,nan,nan,nan,nan,nan,nan,nan,nan,nan,nan,nan,nan,220.52847300469875,625.6946582361707,nan,626.0492651888635,nan,nan,nan,nan
1,287,1,1,1.0,1.0,0.394127783132717,0.0,6,5,0,7,8,3,nan,nan,nan,nan,nan,nan,nan,nan,nan,nan,nan,nan,0.0,nan,nan,nan,nan,nan,nan,nan,nan,nan,nan,nan,nan,nan,nan,nan,nan,nan,nan,220.52847300469875,626.7030937105301,nan,627.0972214936628,nan,nan,nan,nan
1,288,1,1,1.0,1.0,0.30565993301570415,0.0,2,8,7,4,3,6,nan,nan,nan,nan,nan,nan,nan,nan,nan,nan,nan,nan,0.0,nan,nan,nan,nan,nan,nan,nan,nan,nan,nan,nan,nan,nan,nan,nan,nan,nan,nan,220.52847300469875,627.7115574096097,nan,628.0172173426254,nan,nan,nan,nan
1,289,1,1,1.0,1.0,0.31318138376809657,0.0,7,3,5,6,1,0,nan,nan,nan,nan,nan,nan,nan,nan,nan,nan,nan,nan,0.0,nan,nan,nan,nan,nan,nan,nan,nan,nan,nan,nan,nan,nan,nan,nan,nan,nan,nan,220.52847300469875,628.7200191129814,nan,629.0332004967495,nan,nan,nan,nan
1,290,0,0,1.0,0.0,0.27268266788451,1.0,3,1,6,2,0,7,1.0,1.0,1.0,1.0,1.0,1.0,1.0,0.0,0.0,0.0,0.0,1.0,2.0,3.0,5.0,5.0,5.0,5.0,7.0,1.0,6.0,5.0,4.0,3.0,2.0,1.7179954886087216,5.95650405070046,4.9169835053617135,3.98927975166589,3.2382938833907247,2.6288254425744526,220.52847300469875,629.7284822418587,630.5369096194627,630.0011649097432,637.5461445081164,638.5427173472126,631.55369190278,637.5378202219144
1,291,1,1,nan,nan,nan,0.0,1,7,2,6,3,8,nan,nan,nan,nan,nan,nan,nan,nan,nan,nan,nan,nan,0.0,nan,nan,nan,nan,nan,nan,nan,nan,nan,nan,nan,nan,nan,nan,nan,nan,nan,nan,220.52847300469875,638.7463444757159,nan,nan,nan,nan,nan,nan
1,292,1,1,1.0,1.0,0.6861971029429697,0.0,8,0,3,5,4,6,nan,nan,nan,nan,nan,nan,nan,nan,nan,nan,nan,nan,0.0,nan,nan,nan,nan,nan,nan,nan,nan,nan,nan,nan,nan,nan,nan,nan,nan,nan,nan,220.52847300469875,639.7547702568118,nan,640.4409673597547,nan,nan,nan,nan
1,293,1,1,1.0,1.0,0.3977473850827664,0.0,4,8,7,6,5,3,nan,nan,nan,nan,nan,nan,nan,nan,nan,nan,nan,nan,0.0,nan,nan,nan,nan,nan,nan,nan,nan,nan,nan,nan,nan,nan,nan,nan,nan,nan,nan,220.52847300469875,640.7632633209578,nan,641.1610107060405,nan,nan,nan,nan
1,294,1,1,1.0,1.0,0.4612537804059684,0.0,2,3,8,0,7,4,nan,nan,nan,nan,nan,nan,nan,nan,nan,nan,nan,nan,0.0,nan,nan,nan,nan,nan,nan,nan,nan,nan,nan,nan,nan,nan,nan,nan,nan,nan,nan,220.52847300469875,641.7716976549127,nan,642.2329514353187,nan,nan,nan,nan
1,295,1,1,1.0,1.0,0.3487812638049945,0.0,3,4,5,2,1,6,nan,nan,nan,nan,nan,nan,nan,nan,nan,nan,nan,nan,0.0,nan,nan,nan,nan,nan,nan,nan,nan,nan,nan,nan,nan,nan,nan,nan,nan,nan,nan,220.52847300469875,642.7801910041599,nan,643.1289722679649,nan,nan,nan,nan
1,296,1,1,1.0,1.0,0.5322990174172446,0.0,0,5,3,4,6,7,nan,nan,nan,nan,nan,nan,nan,nan,nan,nan,nan,nan,0.0,nan,nan,nan,nan,nan,nan,nan,nan,nan,nan,nan,nan,nan,nan,nan,nan,nan,nan,220.52847300469875,643.7886478608707,nan,644.3209468782879,nan,nan,nan,nan
1,297,1,1,1.0,1.0,0.4438177677220665,0.0,6,7,4,5,8,3,nan,nan,nan,nan,nan,nan,nan,nan,nan,nan,nan,nan,0.0,nan,nan,nan,nan,nan,nan,nan,nan,nan,nan,nan,nan,nan,nan,nan,nan,nan,nan,220.52847300469875,644.7970870415447,nan,645.2409048092668,nan,nan,nan,nan
1,298,1,1,1.0,1.0,0.3473495025536977,0.0,1,2,5,8,0,6,nan,nan,nan,nan,nan,nan,nan,nan,nan,nan,nan,nan,0.0,nan,nan,nan,nan,nan,nan,nan,nan,nan,nan,nan,nan,nan,nan,nan,nan,nan,nan,220.52847300469875,645.8055444684578,nan,646.1528939710115,nan,nan,nan,nan
1,299,1,1,1.0,1.0,0.4268835273105651,0.0,8,5,2,0,7,4,nan,nan,nan,nan,nan,nan,nan,nan,nan,nan,nan,nan,0.0,nan,nan,nan,nan,nan,nan,nan,nan,nan,nan,nan,nan,nan,nan,nan,nan,nan,nan,220.52847300469875,646.8140090227826,nan,647.2408925500931,nan,nan,nan,nan
1,300,1,1,1.0,1.0,0.29838509194087237,0.0,4,6,0,2,3,1,nan,nan,nan,nan,nan,nan,nan,nan,nan,nan,nan,nan,0.0,nan,nan,nan,nan,nan,nan,nan,nan,nan,nan,nan,nan,nan,nan,nan,nan,nan,nan,220.52847300469875,647.8224906830001,nan,648.1208757749409,nan,nan,nan,nan
1,301,1,1,1.0,1.0,0.30588858149712905,0.0,6,3,7,8,1,2,nan,nan,nan,nan,nan,nan,nan,nan,nan,nan,nan,nan,0.0,nan,nan,nan,nan,nan,nan,nan,nan,nan,nan,nan,nan,nan,nan,nan,nan,nan,nan,220.52847300469875,648.8309692071634,nan,649.1368577886606,nan,nan,nan,nan
1,302,1,1,1.0,1.0,0.30542985908687115,0.0,2,6,0,4,7,3,nan,nan,nan,nan,nan,nan,nan,nan,nan,nan,nan,nan,0.0,nan,nan,nan,nan,nan,nan,nan,nan,nan,nan,nan,nan,nan,nan,nan,nan,nan,nan,220.52847300469875,649.839391852147,nan,650.1448217112338,nan,nan,nan,nan
1,303,1,1,1.0,1.0,0.30495916260406375,0.0,7,3,8,1,4,5,nan,nan,nan,nan,nan,nan,nan,nan,nan,nan,nan,nan,0.0,nan,nan,nan,nan,nan,nan,nan,nan,nan,nan,nan,nan,nan,nan,nan,nan,nan,nan,220.52847300469875,650.8478541257209,nan,651.152813288325,nan,nan,nan,nan
1,304,1,1,1.0,1.0,0.3124769071000628,0.0,3,6,2,8,1,0,nan,nan,nan,nan,nan,nan,nan,nan,nan,nan,nan,nan,0.0,nan,nan,nan,nan,nan,nan,nan,nan,nan,nan,nan,nan,nan,nan,nan,nan,nan,nan,220.52847300469875,651.856344909058,nan,652.168821816158,nan,nan,nan,nan
1,305,1,1,1.0,1.0,0.22400249977363274,0.0,0,1,4,7,5,2,nan,nan,nan,nan,nan,nan,nan,nan,nan,nan,nan,nan,0.0,nan,nan,nan,nan,nan,nan,nan,nan,nan,nan,nan,nan,nan,nan,nan,nan,nan,nan,220.52847300469875,652.8647778175655,nan,653.0887803173391,nan,nan,nan,nan
1,306,1,1,1.0,1.0,0.19150106282904744,0.0,8,2,1,6,3,5,nan,nan,nan,nan,nan,nan,nan,nan,nan,nan,nan,nan,0.0,nan,nan,nan,nan,nan,nan,nan,nan,nan,nan,nan,nan,nan,nan,nan,nan,nan,nan,220.52847300469875,653.8732782942825,nan,654.0647793571115,nan,nan,nan,nan
1,307,1,1,1.0,1.0,0.35103068564785644,0.0,2,0,7,4,6,3,nan,nan,nan,nan,nan,nan,nan,nan,nan,nan,nan,nan,0.0,nan,nan,nan,nan,nan,nan,nan,nan,nan,nan,nan,nan,nan,nan,nan,nan,nan,nan,220.52847300469875,654.8817069262732,nan,655.232737611921,nan,nan,nan,nan
1,308,1,1,1.0,1.0,0.342565561120864,0.0,4,5,0,6,1,7,nan,nan,nan,nan,nan,nan,nan,nan,nan,nan,nan,nan,0.0,nan,nan,nan,nan,nan,nan,nan,nan,nan,nan,nan,nan,nan,nan,nan,nan,nan,nan,220.52847300469875,655.8901606469299,nan,656.2327262080507,nan,nan,nan,nan
1,309,1,1,1.0,1.0,0.2700666102464311,0.0,8,1,3,4,5,2,nan,nan,nan,nan,nan,nan,nan,nan,nan,nan,nan,nan,0.0,nan,nan,nan,nan,nan,nan,nan,nan,nan,nan,nan,nan,nan,nan,nan,nan,nan,nan,220.52847300469875,656.8986289075692,nan,657.1686955178156,nan,nan,nan,nan
1,310,1,1,1.0,1.0,0.4135400938685052,0.0,4,0,2,8,7,3,nan,nan,nan,nan,nan,nan,nan,nan,nan,nan,nan,nan,0.0,nan,nan,nan,nan,nan,nan,nan,nan,nan,nan,nan,nan,nan,nan,nan,nan,nan,nan,220.52847300469875,657.9071456348174,nan,658.3206857286859,nan,nan,nan,nan
1,311,1,1,1.0,1.0,0.38911718886811286,0.0,0,6,1,3,2,7,nan,nan,nan,nan,nan,nan,nan,nan,nan,nan,nan,nan,0.0,nan,nan,nan,nan,nan,nan,nan,nan,nan,nan,nan,nan,nan,nan,nan,nan,nan,nan,220.52847300469875,658.9155483229551,nan,659.3046655118233,nan,nan,nan,nan
1,312,1,1,1.0,1.0,0.4046416206401773,0.0,1,8,6,0,7,3,nan,nan,nan,nan,nan,nan,nan,nan,nan,nan,nan,nan,0.0,nan,nan,nan,nan,nan,nan,nan,nan,nan,nan,nan,nan,nan,nan,nan,nan,nan,nan,220.52847300469875,659.9240208600531,nan,660.3286624806933,nan,nan,nan,nan
1,313,1,1,1.0,1.0,0.4521514622028917,0.0,7,0,3,6,1,5,nan,nan,nan,nan,nan,nan,nan,nan,nan,nan,nan,nan,0.0,nan,nan,nan,nan,nan,nan,nan,nan,nan,nan,nan,nan,nan,nan,nan,nan,nan,nan,220.52847300469875,660.9324731552042,nan,661.3846246174071,nan,nan,nan,nan
1,314,1,1,1.0,1.0,0.41168553254101425,0.0,1,7,2,4,6,8,nan,nan,nan,nan,nan,nan,nan,nan,nan,nan,nan,nan,0.0,nan,nan,nan,nan,nan,nan,nan,nan,nan,nan,nan,nan,nan,nan,nan,nan,nan,nan,220.52847300469875,661.9409459774033,nan,662.3526315099443,nan,nan,nan,nan
1,315,1,1,1.0,1.0,0.35514778329525143,0.0,8,5,1,6,2,3,nan,nan,nan,nan,nan,nan,nan,nan,nan,nan,nan,nan,0.0,nan,nan,nan,nan,nan,nan,nan,nan,nan,nan,nan,nan,nan,nan,nan,nan,nan,nan,220.52847300469875,662.9494359054952,nan,663.3045836887904,nan,nan,nan,nan
1,316,1,1,1.0,1.0,0.37070956284878775,0.0,2,3,8,7,0,4,nan,nan,nan,nan,nan,nan,nan,nan,nan,nan,nan,nan,0.0,nan,nan,nan,nan,nan,nan,nan,nan,nan,nan,nan,nan,nan,nan,nan,nan,nan,nan,220.52847300469875,663.9578659629915,nan,664.3285755258403,nan,nan,nan,nan
1,317,1,1,1.0,1.0,0.37823614542139694,0.0,5,0,1,3,4,2,nan,nan,nan,nan,nan,nan,nan,nan,nan,nan,nan,nan,0.0,nan,nan,nan,nan,nan,nan,nan,nan,nan,nan,nan,nan,nan,nan,nan,nan,nan,nan,220.52847300469875,664.9663213941967,nan,665.3445575396181,nan,nan,nan,nan
1,318,1,1,1.0,1.0,0.36973110714461654,0.0,7,4,8,5,1,3,nan,nan,nan,nan,nan,nan,nan,nan,nan,nan,nan,nan,0.0,nan,nan,nan,nan,nan,nan,nan,nan,nan,nan,nan,nan,nan,nan,nan,nan,nan,nan,220.52847300469875,665.9747950716992,nan,666.3445261788438,nan,nan,nan,nan
1,319,0,0,0.0,1.0,0.4732735045836307,1.0,1,8,5,6,4,7,1.0,1.0,1.0,1.0,1.0,1.0,0.0,1.0,1.0,0.0,0.0,0.0,2.0,4.0,8.0,5.0,8.0,5.0,4.0,6.0,2.0,1.0,3.0,4.0,5.0,6.5095177057082765,2.3750530281686224,1.007961071562022,3.5742634212365374,4.214113311551046,5.670331409084611,220.52847300469875,666.9832482221536,667.7916713232989,667.4565217267373,675.350966823753,676.3564737733104,668.8001395839383,675.3426368355867
1,320,1,1,1.0,1.0,0.6728619373752736,0.0,3,5,7,1,0,4,nan,nan,nan,nan,nan,nan,nan,nan,nan,nan,nan,nan,0.0,nan,nan,nan,nan,nan,nan,nan,nan,nan,nan,nan,nan,nan,nan,nan,nan,nan,nan,220.52847300469875,676.5594984901254,nan,677.2323604275007,nan,nan,nan,nan
1,321,1,1,1.0,1.0,0.37638899660669267,0.0,1,6,2,7,3,5,nan,nan,nan,nan,nan,nan,nan,nan,nan,nan,nan,nan,0.0,nan,nan,nan,nan,nan,nan,nan,nan,nan,nan,nan,nan,nan,nan,nan,nan,nan,nan,220.52847300469875,677.5679453684133,nan,677.94433436502,nan,nan,nan,nan
1,322,1,1,1.0,1.0,0.45589422644115984,0.0,7,4,0,5,2,6,nan,nan,nan,nan,nan,nan,nan,nan,nan,nan,nan,nan,0.0,nan,nan,nan,nan,nan,nan,nan,nan,nan,nan,nan,nan,nan,nan,nan,nan,nan,nan,220.52847300469875,678.5764096376952,nan,679.0323038641363,nan,nan,nan,nan
1,323,1,1,1.0,1.0,0.31942303047981113,0.0,1,6,2,0,3,8,nan,nan,nan,nan,nan,nan,nan,nan,nan,nan,nan,nan,0.0,nan,nan,nan,nan,nan,nan,nan,nan,nan,nan,nan,nan,nan,nan,nan,nan,nan,nan,220.52847300469875,679.5848696304602,nan,679.90429266094,nan,nan,nan,nan
1,324,1,1,1.0,1.0,0.35894557141000405,0.0,2,0,8,5,4,3,nan,nan,nan,nan,nan,nan,nan,nan,nan,nan,nan,nan,0.0,nan,nan,nan,nan,nan,nan,nan,nan,nan,nan,nan,nan,nan,nan,nan,nan,nan,nan,220.52847300469875,680.5933356103487,nan,680.9522811817587,nan,nan,nan,nan
1,325,0,0,1.0,0.0,0.5984650903264992,0.0,5,1,4,7,3,8,nan,nan,nan,nan,nan,nan,nan,nan,nan,nan,nan,nan,0.0,nan,nan,nan,nan,nan,nan,nan,nan,nan,nan,nan,nan,nan,nan,nan,nan,nan,nan,220.52847300469875,681.6017964584171,nan,682.2002615487436,nan,nan,nan,nan
1,326,1,1,1.0,1.0,0.6059406403801404,0.0,3,8,1,0,2,6,nan,nan,nan,nan,nan,nan,nan,nan,nan,nan,nan,nan,0.0,nan,nan,nan,nan,nan,nan,nan,nan,nan,nan,nan,nan,nan,nan,nan,nan,nan,nan,220.52847300469875,682.6102533151279,nan,683.2161939555081,nan,nan,nan,nan
1,327,1,1,1.0,1.0,0.4295158354798332,0.0,8,3,7,6,0,2,nan,nan,nan,nan,nan,nan,nan,nan,nan,nan,nan,nan,0.0,nan,nan,nan,nan,nan,nan,nan,nan,nan,nan,nan,nan,nan,nan,nan,nan,nan,nan,220.52847300469875,683.6187369710533,nan,684.0482528065331,nan,nan,nan,nan
1,328,1,1,1.0,1.0,0.3490073464345187,0.0,4,5,8,1,3,7,nan,nan,nan,nan,nan,nan,nan,nan,nan,nan,nan,nan,0.0,nan,nan,nan,nan,nan,nan,nan,nan,nan,nan,nan,nan,nan,nan,nan,nan,nan,nan,220.52847300469875,684.6272328861523,nan,684.9762402325869,nan,nan,nan,nan
1,329,1,1,1.0,1.0,0.2525276772794314,0.0,7,4,5,3,2,1,nan,nan,nan,nan,nan,nan,nan,nan,nan,nan,nan,nan,0.0,nan,nan,nan,nan,nan,nan,nan,nan,nan,nan,nan,nan,nan,nan,nan,nan,nan,nan,220.52847300469875,685.6356834707549,nan,685.8882111480343,nan,nan,nan,nan
1,330,1,1,1.0,1.0,0.3480431456118822,0.0,2,1,8,6,3,5,nan,nan,nan,nan,nan,nan,nan,nan,nan,nan,nan,nan,0.0,nan,nan,nan,nan,nan,nan,nan,nan,nan,nan,nan,nan,nan,nan,nan,nan,nan,nan,220.52847300469875,686.644146599574,nan,686.9921897451859,nan,nan,nan,nan
1,331,1,1,1.0,1.0,0.2675685831345618,0.0,7,6,5,4,2,1,nan,nan,nan,nan,nan,nan,nan,nan,nan,nan,nan,nan,0.0,nan,nan,nan,nan,nan,nan,nan,nan,nan,nan,nan,nan,nan,nan,nan,nan,nan,nan,220.52847300469875,687.6526028861408,nan,687.9201714692754,nan,nan,nan,nan
1,332,1,1,1.0,1.0,0.1790956012555398,0.0,1,7,2,0,3,8,nan,nan,nan,nan,nan,nan,nan,nan,nan,nan,nan,nan,0.0,nan,nan,nan,nan,nan,nan,nan,nan,nan,nan,nan,nan,nan,nan,nan,nan,nan,nan,220.52847300469875,688.6610702914768,nan,688.8401658927323,nan,nan,nan,nan
1,333,1,1,1.0,1.0,0.3146011709468439,0.0,3,5,6,2,1,7,nan,nan,nan,nan,nan,nan,nan,nan,nan,nan,nan,nan,0.0,nan,nan,nan,nan,nan,nan,nan,nan,nan,nan,nan,nan,nan,nan,nan,nan,nan,nan,220.52847300469875,689.6695376968128,nan,689.9841388677596,nan,nan,nan,nan
1,334,1,1,1.0,1.0,0.450131259043701,0.0,1,6,2,7,8,4,nan,nan,nan,nan,nan,nan,nan,nan,nan,nan,nan,nan,0.0,nan,nan,nan,nan,nan,nan,nan,nan,nan,nan,nan,nan,nan,nan,nan,nan,nan,nan,220.52847300469875,690.677959771594,nan,691.1280910306377,nan,nan,nan,nan
1,335,1,1,1.0,1.0,0.31365008460124955,0.0,7,8,0,5,2,1,nan,nan,nan,nan,nan,nan,nan,nan,nan,nan,nan,nan,0.0,nan,nan,nan,nan,nan,nan,nan,nan,nan,nan,nan,nan,nan,nan,nan,nan,nan,nan,220.52847300469875,691.686465665116,nan,692.0001157497172,nan,nan,nan,nan
1,336,1,1,1.0,1.0,0.2971697198227048,0.0,1,3,5,6,4,8,nan,nan,nan,nan,nan,nan,nan,nan,nan,nan,nan,nan,0.0,nan,nan,nan,nan,nan,nan,nan,nan,nan,nan,nan,nan,nan,nan,nan,nan,nan,nan,220.52847300469875,692.6949256579392,nan,692.9920953777619,nan,nan,nan,nan
1,337,1,1,1.0,1.0,0.28068764455383644,0.0,2,6,7,5,3,4,nan,nan,nan,nan,nan,nan,nan,nan,nan,nan,nan,nan,0.0,nan,nan,nan,nan,nan,nan,nan,nan,nan,nan,nan,nan,nan,nan,nan,nan,nan,nan,220.52847300469875,693.7033885016572,nan,693.984076146211,nan,nan,nan,nan
1,338,0,0,0.0,1.0,0.4642088193213567,0.0,6,5,8,3,7,1,nan,nan,nan,nan,nan,nan,nan,nan,nan,nan,nan,nan,0.0,nan,nan,nan,nan,nan,nan,nan,nan,nan,nan,nan,nan,nan,nan,nan,nan,nan,nan,220.52847300469875,694.7118185592117,nan,695.176027378533,nan,nan,nan,nan
1,339,1,1,1.0,1.0,0.47173882299102843,0.0,7,8,1,4,6,0,nan,nan,nan,nan,nan,nan,nan,nan,nan,nan,nan,nan,0.0,nan,nan,nan,nan,nan,nan,nan,nan,nan,nan,nan,nan,nan,nan,nan,nan,nan,nan,220.52847300469875,695.7202762712259,nan,696.1920150942169,nan,nan,nan,nan
1,340,0,0,0.0,1.0,0.5512819708674215,1.0,3,0,2,7,4,5,1.0,1.0,1.0,1.0,1.0,1.0,0.0,1.0,1.0,1.0,0.0,0.0,3.0,6.0,0.0,2.0,7.0,6.0,6.0,4.0,3.0,2.0,1.0,6.0,5.0,5.323997425031848,3.77277988626156,2.8291882010526024,1.7484747266862541,7.170999963534996,6.363940770388581,220.52847300469875,696.7287376894965,697.5371801772853,697.2800196603639,705.7632254029159,706.760366441973,698.5539926809724,705.754893989244
1,341,1,1,1.0,1.0,0.39643279899610206,0.0,0,1,3,2,5,4,nan,nan,nan,nan,nan,nan,nan,nan,nan,nan,nan,nan,0.0,nan,nan,nan,nan,nan,nan,nan,nan,nan,nan,nan,nan,nan,nan,nan,nan,nan,nan,220.52847300469875,706.9634188133059,nan,707.359851612302,nan,nan,nan,nan
1,342,1,1,1.0,1.0,0.3959492731373757,0.0,5,0,4,6,2,1,nan,nan,nan,nan,nan,nan,nan,nan,nan,nan,nan,nan,0.0,nan,nan,nan,nan,nan,nan,nan,nan,nan,nan,nan,nan,nan,nan,nan,nan,nan,nan,220.52847300469875,707.9718443092424,nan,708.3677935823798,nan,nan,nan,nan
1,343,1,1,1.0,1.0,0.31545076245674863,0.0,0,4,5,8,1,2,nan,nan,nan,nan,nan,nan,nan,nan,nan,nan,nan,nan,0.0,nan,nan,nan,nan,nan,nan,nan,nan,nan,nan,nan,nan,nan,nan,nan,nan,nan,nan,220.52847300469875,708.9803399392404,nan,709.2957907016971,nan,nan,nan,nan
1,344,0,0,0.0,1.0,0.5232859348761849,1.0,7,3,2,0,6,5,1.0,1.0,1.0,1.0,1.0,1.0,0.0,0.0,0.0,1.0,0.0,0.0,1.0,6.0,2.0,3.0,0.0,7.0,7.0,4.0,3.0,2.0,1.0,6.0,5.0,4.743754647148307,3.767136374837719,2.4477715044049546,1.546327540942002,6.678922546911053,6.119773301645182,220.52847300469875,709.9804702289402,710.7888827814604,710.5037561638164,718.5315055902465,719.5365432687686,711.814028124325,718.5231713255635
1,345,1,1,1.0,1.0,0.49962196027627215,0.0,4,5,6,1,2,8,nan,nan,nan,nan,nan,nan,nan,nan,nan,nan,nan,nan,0.0,nan,nan,nan,nan,nan,nan,nan,nan,nan,nan,nan,nan,nan,nan,nan,nan,nan,nan,220.52847300469875,719.7399962025229,nan,720.2396181627992,nan,nan,nan,nan
1,346,1,1,1.0,1.0,0.3871155171073042,0.0,5,4,1,2,8,0,nan,nan,nan,nan,nan,nan,nan,nan,nan,nan,nan,nan,0.0,nan,nan,nan,nan,nan,nan,nan,nan,nan,nan,nan,nan,nan,nan,nan,nan,nan,nan,220.52847300469875,720.748522908194,nan,721.1356384253013,nan,nan,nan,nan
1,347,1,1,1.0,1.0,0.3945853651384823,0.0,0,5,4,6,7,3,nan,nan,nan,nan,nan,nan,nan,nan,nan,nan,nan,nan,0.0,nan,nan,nan,nan,nan,nan,nan,nan,nan,nan,nan,nan,nan,nan,nan,nan,nan,nan,220.52847300469875,721.7569763437496,nan,722.151561708888,nan,nan,nan,nan
1,348,1,1,1.0,1.0,0.33810406521661207,0.0,7,6,0,8,1,4,nan,nan,nan,nan,nan,nan,nan,nan,nan,nan,nan,nan,0.0,nan,nan,nan,nan,nan,nan,nan,nan,nan,nan,nan,nan,nan,nan,nan,nan,nan,nan,220.52847300469875,722.7654454596923,nan,723.1035495249089,nan,nan,nan,nan
1,349,1,1,1.0,1.0,0.33765617659082636,0.0,5,2,4,1,3,6,nan,nan,nan,nan,nan,nan,nan,nan,nan,nan,nan,nan,0.0,nan,nan,nan,nan,nan,nan,nan,nan,nan,nan,nan,nan,nan,nan,nan,nan,nan,nan,220.52847300469875,723.7738712407299,nan,724.1115274173208,nan,nan,nan,nan
1,350,1,1,1.0,1.0,0.34511918225325644,0.0,8,6,7,3,0,2,nan,nan,nan,nan,nan,nan,nan,nan,nan,nan,nan,nan,0.0,nan,nan,nan,nan,nan,nan,nan,nan,nan,nan,nan,nan,nan,nan,nan,nan,nan,nan,220.52847300469875,724.7823851170251,nan,725.1275042992784,nan,nan,nan,nan
1,351,1,1,1.0,1.0,0.35267570009455085,0.0,5,3,4,1,2,0,nan,nan,nan,nan,nan,nan,nan,nan,nan,nan,nan,nan,0.0,nan,nan,nan,nan,nan,nan,nan,nan,nan,nan,nan,nan,nan,nan,nan,nan,nan,nan,220.52847300469875,725.7907878051046,nan,726.1434635051992,nan,nan,nan,nan
1,352,1,1,1.0,1.0,0.3842072341940366,0.0,8,0,2,6,5,4,nan,nan,nan,nan,nan,nan,nan,nan,nan,nan,nan,nan,0.0,nan,nan,nan,nan,nan,nan,nan,nan,nan,nan,nan,nan,nan,nan,nan,nan,nan,nan,220.52847300469875,726.7992657590657,nan,727.1834729932598,nan,nan,nan,nan
1,353,1,1,1.0,1.0,0.34373873862205073,0.0,0,2,6,4,7,8,nan,nan,nan,nan,nan,nan,nan,nan,nan,nan,nan,nan,0.0,nan,nan,nan,nan,nan,nan,nan,nan,nan,nan,nan,nan,nan,nan,nan,nan,nan,nan,220.52847300469875,727.8077254667878,nan,728.1514642054099,nan,nan,nan,nan
1,354,1,1,1.0,1.0,0.3352482403861359,0.0,1,7,5,8,0,4,nan,nan,nan,nan,nan,nan,nan,nan,nan,nan,nan,nan,0.0,nan,nan,nan,nan,nan,nan,nan,nan,nan,nan,nan,nan,nan,nan,nan,nan,nan,nan,220.52847300469875,728.8161751960288,nan,729.1514234364149,nan,nan,nan,nan
1,355,1,1,1.0,1.0,0.3107848514919169,0.0,4,3,0,7,8,6,nan,nan,nan,nan,nan,nan,nan,nan,nan,nan,nan,nan,0.0,nan,nan,nan,nan,nan,nan,nan,nan,nan,nan,nan,nan,nan,nan,nan,nan,nan,nan,220.52847300469875,729.8246605625609,nan,730.1354454140528,nan,nan,nan,nan
1,356,1,1,1.0,1.0,0.24627434165449813,0.0,6,5,7,2,1,8,nan,nan,nan,nan,nan,nan,nan,nan,nan,nan,nan,nan,0.0,nan,nan,nan,nan,nan,nan,nan,nan,nan,nan,nan,nan,nan,nan,nan,nan,nan,nan,220.52847300469875,730.8331410823739,nan,731.0794154240284,nan,nan,nan,nan
1,357,1,1,1.0,1.0,0.30978330282960087,0.0,1,2,6,8,4,0,nan,nan,nan,nan,nan,nan,nan,nan,nan,nan,nan,nan,0.0,nan,nan,nan,nan,nan,nan,nan,nan,nan,nan,nan,nan,nan,nan,nan,nan,nan,nan,220.52847300469875,731.8415836842032,nan,732.1513669870328,nan,nan,nan,nan
1,358,1,1,1.0,1.0,0.34931952849728987,0.0,3,4,5,0,2,8,nan,nan,nan,nan,nan,nan,nan,nan,nan,nan,nan,nan,0.0,nan,nan,nan,nan,nan,nan,nan,nan,nan,nan,nan,nan,nan,nan,nan,nan,nan,nan,220.52847300469875,732.8500721867895,nan,733.1993917152868,nan,nan,nan,nan
1,359,0,0,1.0,0.0,0.22882150823716074,0.0,6,3,4,7,0,5,nan,nan,nan,nan,nan,nan,nan,nan,nan,nan,nan,nan,0.0,nan,nan,nan,nan,nan,nan,nan,nan,nan,nan,nan,nan,nan,nan,nan,nan,nan,nan,220.52847300469875,733.8585304690059,nan,734.0873519772431,nan,nan,nan,nan
1,360,1,1,1.0,1.0,0.468326487170998,0.0,1,2,8,0,4,3,nan,nan,nan,nan,nan,nan,nan,nan,nan,nan,nan,nan,0.0,nan,nan,nan,nan,nan,nan,nan,nan,nan,nan,nan,nan,nan,nan,nan,nan,nan,nan,220.52847300469875,734.866990746872,nan,735.335317234043,nan,nan,nan,nan
1,361,1,1,1.0,1.0,0.3318604229716584,0.0,2,6,0,5,7,1,nan,nan,nan,nan,nan,nan,nan,nan,nan,nan,nan,nan,0.0,nan,nan,nan,nan,nan,nan,nan,nan,nan,nan,nan,nan,nan,nan,nan,nan,nan,nan,220.52847300469875,735.8754518800415,nan,736.2073123030132,nan,nan,nan,nan
1,362,1,1,1.0,1.0,0.3553713000146672,0.0,6,7,8,3,2,4,nan,nan,nan,nan,nan,nan,nan,nan,nan,nan,nan,nan,0.0,nan,nan,nan,nan,nan,nan,nan,nan,nan,nan,nan,nan,nan,nan,nan,nan,nan,nan,220.52847300469875,736.8839215661865,nan,737.2392928662011,nan,nan,nan,nan
1,363,1,1,1.0,1.0,0.3788664966705255,0.0,7,6,1,4,0,2,nan,nan,nan,nan,nan,nan,nan,nan,nan,nan,nan,nan,0.0,nan,nan,nan,nan,nan,nan,nan,nan,nan,nan,nan,nan,nan,nan,nan,nan,nan,nan,220.52847300469875,737.8924126346246,nan,738.2712791312952,nan,nan,nan,nan
1,364,1,1,1.0,1.0,0.4104100049007684,0.0,4,3,0,6,5,8,nan,nan,nan,nan,nan,nan,nan,nan,nan,nan,nan,nan,0.0,nan,nan,nan,nan,nan,nan,nan,nan,nan,nan,nan,nan,nan,nan,nan,nan,nan,nan,220.52847300469875,738.9008600831148,nan,739.3112700880156,nan,nan,nan,nan
1,365,0,0,0.0,1.0,0.5139330156962387,1.0,5,1,8,2,4,3,1.0,1.0,1.0,1.0,1.0,1.0,0.0,1.0,1.0,0.0,0.0,1.0,3.0,3.0,1.0,8.0,5.0,3.0,3.0,4.0,3.0,2.0,1.0,6.0,5.0,5.431257213000208,3.470544548239559,2.8071980358217843,1.8707811224157922,7.2299755842541344,6.29474866919918,220.52847300469875,739.9093026849441,740.717711816309,740.4232357006404,749.0020980348927,750.0028392892564,741.734529166657,748.9937751741381
1,366,1,1,1.0,1.0,0.6924461621674709,0.0,7,3,4,5,8,6,nan,nan,nan,nan,nan,nan,nan,nan,nan,nan,nan,nan,0.0,nan,nan,nan,nan,nan,nan,nan,nan,nan,nan,nan,nan,nan,nan,nan,nan,nan,nan,220.52847300469875,750.210624284402,nan,750.9030704465695,nan,nan,nan,nan
1,367,1,1,1.0,1.0,0.44398654566612095,0.0,4,8,6,3,5,2,nan,nan,nan,nan,nan,nan,nan,nan,nan,nan,nan,nan,0.0,nan,nan,nan,nan,nan,nan,nan,nan,nan,nan,nan,nan,nan,nan,nan,nan,nan,nan,220.52847300469875,751.2190395168727,nan,751.6630260625388,nan,nan,nan,nan
1,368,1,1,1.0,1.0,0.37151781521970406,0.0,0,4,2,6,7,1,nan,nan,nan,nan,nan,nan,nan,nan,nan,nan,nan,nan,0.0,nan,nan,nan,nan,nan,nan,nan,nan,nan,nan,nan,nan,nan,nan,nan,nan,nan,nan,220.52847300469875,752.2275149049237,nan,752.5990327201434,nan,nan,nan,nan
1,369,1,1,1.0,1.0,0.33902236534049734,0.0,3,0,6,5,8,7,nan,nan,nan,nan,nan,nan,nan,nan,nan,nan,nan,nan,0.0,nan,nan,nan,nan,nan,nan,nan,nan,nan,nan,nan,nan,nan,nan,nan,nan,nan,nan,220.52847300469875,753.2359794593067,nan,753.5750018246472,nan,nan,nan,nan
1,370,1,1,1.0,1.0,0.2665445117163472,0.0,4,8,3,0,6,2,nan,nan,nan,nan,nan,nan,nan,nan,nan,nan,nan,nan,0.0,nan,nan,nan,nan,nan,nan,nan,nan,nan,nan,nan,nan,nan,nan,nan,nan,nan,nan,220.52847300469875,754.2444320395589,nan,754.5109765512752,nan,nan,nan,nan
1,371,1,1,1.0,1.0,0.37004442961188033,0.0,1,2,0,8,4,6,nan,nan,nan,nan,nan,nan,nan,nan,nan,nan,nan,nan,0.0,nan,nan,nan,nan,nan,nan,nan,nan,nan,nan,nan,nan,nan,nan,nan,nan,nan,nan,220.52847300469875,755.2529003001982,nan,755.6229447298101,nan,nan,nan,nan
1,372,0,0,nan,nan,nan,1.0,0,7,8,2,3,4,1.0,1.0,1.0,1.0,1.0,1.0,1.0,0.0,1.0,1.0,0.0,0.0,3.0,0.0,0.0,8.0,2.0,0.0,0.0,4.0,3.0,2.0,1.0,6.0,5.0,6.397933839063626,5.57399485912174,3.928115720045753,3.0156989116221666,8.341907270252705,7.477876408956945,220.52847300469875,756.2613782541011,757.0697836792096,nan,766.462646483269,767.458952470799,758.0782545057009,766.4543236225145
1,373,1,1,1.0,1.0,0.4479180446942337,0.0,6,4,5,8,2,1,nan,nan,nan,nan,nan,nan,nan,nan,nan,nan,nan,nan,0.0,nan,nan,nan,nan,nan,nan,nan,nan,nan,nan,nan,nan,nan,nan,nan,nan,nan,nan,220.52847300469875,767.6628262089216,nan,768.1107442536158,nan,nan,nan,nan
1,374,1,1,1.0,1.0,0.3434205694356933,0.0,8,5,1,4,0,2,nan,nan,nan,nan,nan,nan,nan,nan,nan,nan,nan,nan,0.0,nan,nan,nan,nan,nan,nan,nan,nan,nan,nan,nan,nan,nan,nan,nan,nan,nan,nan,220.52847300469875,768.671286771947,nan,769.0147073413827,nan,nan,nan,nan
1,375,1,1,1.0,1.0,0.33496599353384227,0.0,2,4,7,3,6,0,nan,nan,nan,nan,nan,nan,nan,nan,nan,nan,nan,nan,0.0,nan,nan,nan,nan,nan,nan,nan,nan,nan,nan,nan,nan,nan,nan,nan,nan,nan,nan,220.52847300469875,769.6797484753188,nan,770.0147144688526,nan,nan,nan,nan
1,376,1,1,1.0,1.0,0.3264558235532604,0.0,3,5,1,0,7,8,nan,nan,nan,nan,nan,nan,nan,nan,nan,nan,nan,nan,0.0,nan,nan,nan,nan,nan,nan,nan,nan,nan,nan,nan,nan,nan,nan,nan,nan,nan,nan,220.52847300469875,770.6882506625843,nan,771.0147064861376,nan,nan,nan,nan
1,377,1,1,1.0,1.0,0.3343179661897011,0.0,1,0,7,4,6,3,nan,nan,nan,nan,nan,nan,nan,nan,nan,nan,nan,nan,0.0,nan,nan,nan,nan,nan,nan,nan,nan,nan,nan,nan,nan,nan,nan,nan,nan,nan,nan,220.52847300469875,771.688355008373,nan,772.0226729745627,nan,nan,nan,nan
1,378,1,1,1.0,1.0,0.3178299037972465,0.0,8,7,6,5,2,4,nan,nan,nan,nan,nan,nan,nan,nan,nan,nan,nan,nan,0.0,nan,nan,nan,nan,nan,nan,nan,nan,nan,nan,nan,nan,nan,nan,nan,nan,nan,nan,220.52847300469875,772.6968075886252,nan,773.0146374924225,nan,nan,nan,nan
1,379,1,1,1.0,1.0,0.39736535400152206,0.0,2,8,3,1,6,5,nan,nan,nan,nan,nan,nan,nan,nan,nan,nan,nan,nan,0.0,nan,nan,nan,nan,nan,nan,nan,nan,nan,nan,nan,nan,nan,nan,nan,nan,nan,nan,220.52847300469875,773.7052909594495,nan,774.102656313451,nan,nan,nan,nan
1,380,1,1,1.0,1.0,0.48485930991591886,0.0,5,2,7,3,1,0,nan,nan,nan,nan,nan,nan,nan,nan,nan,nan,nan,nan,0.0,nan,nan,nan,nan,nan,nan,nan,nan,nan,nan,nan,nan,nan,nan,nan,nan,nan,nan,220.52847300469875,774.7137694836129,nan,775.1986287935288,nan,nan,nan,nan
1,381,1,1,1.0,1.0,0.49239786656107754,0.0,0,5,2,8,6,4,nan,nan,nan,nan,nan,nan,nan,nan,nan,nan,nan,nan,0.0,nan,nan,nan,nan,nan,nan,nan,nan,nan,nan,nan,nan,nan,nan,nan,nan,nan,nan,220.52847300469875,775.7221929838997,nan,776.2145908504608,nan,nan,nan,nan
1,382,1,1,1.0,1.0,0.4919571052887477,0.0,5,4,8,0,7,3,nan,nan,nan,nan,nan,nan,nan,nan,nan,nan,nan,nan,0.0,nan,nan,nan,nan,nan,nan,nan,nan,nan,nan,nan,nan,nan,nan,nan,nan,nan,nan,220.52847300469875,776.7306552574737,nan,777.2226123627624,nan,nan,nan,nan
