block,trial,time,setsize,freqtrials,trials_colorind,trials_colordeg,colorrgb0,colorrgb1,colorrgb2,correct_response,actual_response,acc,rts,probe_trials,rt_triggered_fast,rt_triggered_slow,rt_strailingavg,rts_runningavg,rts_runningstd,rts_runningslowthresh,rts_runningfastthresh,wm_respdeg,wm_respind,wm_resprgb0,wm_resprgb1,wm_resprgb2,wm_respcolorminusorigcolor,wm_rts,time_blockstart,time_encarray_onset,time_response,time_encarray_offest,time_memprobe_onset,time_memprobe_offset
0,0,4055,6,1,195,137,1.0,-0.0469245268387,0.442396054288,1,1.0,1.0,0.330411556177,0,nan,nan,nan,nan,nan,nan,nan,nan,nan,0.0,0.0,0.0,nan,nan,85.2543659881,86.275935634,86.6063471902,86.7759521701,nan,nan
0,1,4056,6,1,24,16,1.0,0.102019060141,-1.0,1,1.0,1.0,0.241616128478,0,nan,nan,nan,nan,nan,nan,nan,nan,nan,0.0,0.0,0.0,nan,nan,85.2543659881,87.2927207686,87.5343368971,87.7927603973,nan,nan
0,2,4057,6,1,419,294,0.107894673663,0.454841969249,-0.678098861371,1,1.0,1.0,0.321460624691,0,nan,nan,nan,nan,nan,nan,nan,nan,nan,0.0,0.0,0.0,nan,nan,85.2543659881,88.2928476371,88.6143082618,88.7928784275,nan,nan
0,3,4058,6,1,240,168,0.654373017221,0.188015059697,0.642463954019,1,1.0,1.0,0.273336682003,0,nan,nan,nan,nan,nan,nan,nan,nan,nan,0.0,0.0,0.0,nan,nan,85.2543659881,89.292975361,89.566312043,89.7930044411,nan,nan
0,4,4059,6,1,483,339,0.606025706087,0.319314454546,-1.0,1,1.0,1.0,0.241210719571,0,nan,nan,nan,nan,nan,nan,nan,nan,nan,0.0,0.0,0.0,nan,nan,85.2543659881,90.2930828426,90.5342935622,90.7931335904,nan,nan
0,5,4100,6,1,400,281,-0.0107874812989,0.471427301814,-0.412692688905,1,1.0,1.0,0.217047538608,0,nan,nan,nan,nan,nan,nan,nan,nan,nan,0.0,0.0,0.0,nan,nan,85.2543659881,91.2932105665,91.5102581051,91.7932915343,nan,nan
0,6,4101,6,1,487,342,0.639529740128,0.306295026098,-1.0,1,1.0,1.0,0.328924485482,0,nan,nan,nan,nan,nan,nan,nan,nan,nan,0.0,0.0,0.0,nan,nan,85.2543659881,92.2933388609,92.6222633463,92.7933813403,nan,nan
0,7,4102,6,1,239,168,0.665069831863,0.183388857662,0.640549267122,1,1.0,1.0,0.256779911462,0,nan,nan,nan,nan,nan,nan,nan,nan,nan,0.0,0.0,0.0,nan,nan,85.2543659881,93.2934791287,93.5502590402,93.7935435609,nan,nan
0,8,4103,6,1,367,258,-0.15309091083,0.477560897992,-0.0350816338538,1,1.0,1.0,0.240608022548,0,nan,nan,nan,nan,nan,nan,nan,nan,nan,0.0,0.0,0.0,nan,nan,85.2543659881,94.2936057122,94.5342137348,94.7936595958,nan,nan
0,9,4104,6,1,468,329,0.481236483515,0.363131620867,-1.0,1,1.0,1.0,0.240460626781,0,nan,nan,nan,nan,nan,nan,nan,nan,nan,0.0,0.0,0.0,nan,nan,85.2543659881,95.2937545334,95.5342151602,95.793783613,nan,nan
0,10,4105,6,1,392,275,-0.0541067903503,0.475522277549,-0.315549842675,1,1.0,1.0,0.208360037301,0,nan,nan,nan,nan,nan,nan,nan,nan,nan,0.0,0.0,0.0,nan,nan,85.2543659881,96.2938694279,96.5022294652,96.7939064903,nan,nan
0,11,4110,6,1,509,357,0.822386376617,0.224555004187,-1.0,1,1.0,1.0,0.232208185364,1,nan,nan,nan,nan,nan,nan,nan,143.691307536,436.0,0.228681708805,0.431413732101,-1.0,-51.5819325359,1.62550661899,85.2543659881,97.2939905943,97.5261987797,97.7940279422,99.119185145,100.752740075
0,12,4111,6,1,67,47,1.0,-0.12380466598,-1.0,1,1.0,1.0,0.316510185599,0,nan,nan,nan,nan,nan,nan,nan,nan,nan,0.0,0.0,0.0,nan,nan,85.2543659881,101.969563527,102.286073713,102.469604581,nan,nan
0,13,4112,6,1,4,2,0.879126049628,0.195014037372,-1.0,1,1.0,1.0,0.300330599304,0,nan,nan,nan,nan,nan,nan,nan,nan,nan,0.0,0.0,0.0,nan,nan,85.2543659881,102.969725748,103.270056347,103.469757393,nan,nan
0,14,4113,6,0,334,234,-0.152796554809,0.454467054946,0.285576400052,0,0.0,1.0,0.404180617537,0,nan,nan,nan,nan,nan,nan,nan,nan,nan,0.0,0.0,0.0,nan,nan,85.2543659881,103.969867726,104.374048344,104.469888253,nan,nan
0,15,4114,6,1,127,89,1.0,-0.31111021432,-0.167036648065,1,1.0,1.0,0.284086865839,0,nan,nan,nan,nan,nan,nan,nan,nan,nan,0.0,0.0,0.0,nan,nan,85.2543659881,104.969948409,105.254035275,105.469997446,nan,nan
0,16,4115,6,1,319,224,-0.0891891826932,0.433308674125,0.406137099325,1,1.0,1.0,0.259941646364,0,nan,nan,nan,nan,nan,nan,nan,nan,nan,0.0,0.0,0.0,nan,nan,85.2543659881,105.970090102,106.230031749,106.470147407,nan,nan
0,17,4116,6,1,469,329,0.489482198204,0.360453357602,-1.0,1,1.0,1.0,0.259772297926,0,nan,nan,nan,nan,nan,nan,nan,nan,nan,0.0,0.0,0.0,nan,nan,85.2543659881,106.970217826,107.229990124,107.47024377,nan,nan
0,18,4117,6,1,161,113,1.0,-0.223158351501,0.167490545043,1,1.0,1.0,0.1876511015,0,nan,nan,nan,nan,nan,nan,nan,nan,nan,0.0,0.0,0.0,nan,nan,85.2543659881,107.970353533,108.158004635,108.470378906,nan,nan
0,19,4118,6,1,509,357,0.822386376617,0.224555004187,-1.0,1,1.0,1.0,0.179528094828,0,nan,nan,nan,nan,nan,nan,nan,nan,nan,0.0,0.0,0.0,nan,nan,85.2543659881,108.970497222,109.150025317,109.470532289,nan,nan
0,20,4119,6,1,197,138,1.0,-0.035797595552,0.455774741445,1,1.0,1.0,0.195335628465,0,nan,nan,nan,nan,nan,nan,nan,nan,nan,0.0,0.0,0.0,nan,nan,85.2543659881,109.970612117,110.165947745,110.470653171,nan,nan
0,21,4120,6,1,330,232,-0.139766326074,0.449518327743,0.319540245599,1,1.0,1.0,0.171275938395,0,nan,nan,nan,nan,nan,nan,nan,nan,nan,0.0,0.0,0.0,nan,nan,85.2543659881,110.970727296,111.142003234,111.470790873,nan,nan
0,22,4121,6,1,262,184,0.416452475899,0.2804144186,0.652815538838,1,1.0,1.0,0.275062094443,0,nan,nan,nan,nan,nan,nan,nan,nan,nan,0.0,0.0,0.0,nan,nan,85.2543659881,111.970849033,112.245911127,112.470880394,nan,nan
0,23,4125,6,1,387,272,-0.0787219327085,0.477231755363,-0.256974454483,1,1.0,1.0,0.250900053885,1,nan,nan,nan,nan,nan,nan,nan,-167.868678933,367.0,-0.15309091083,0.477560897992,-0.0350816338538,-14.2406960666,1.29225748451,85.2543659881,112.970976757,113.221876811,113.471038338,114.796168456,116.096367341
0,24,4126,6,1,219,153,0.871627318206,0.0840881726889,0.576959667802,1,1.0,1.0,0.276954003144,0,nan,nan,nan,nan,nan,nan,nan,nan,nan,0.0,0.0,0.0,nan,nan,85.2543659881,117.304851681,117.581805684,117.804895016,nan,nan
0,25,4127,6,1,103,72,1.0,-0.279537473278,-0.423758835275,1,1.0,1.0,0.244803522248,0,nan,nan,nan,nan,nan,nan,nan,nan,nan,0.0,0.0,0.0,nan,nan,85.2543659881,118.304983681,118.549787203,118.805019604,nan,nan
0,26,4128,6,0,306,215,-0.00395437407881,0.408974006242,0.494128827808,0,0.0,1.0,0.380643511191,0,nan,nan,nan,nan,nan,nan,nan,nan,nan,0.0,0.0,0.0,nan,nan,85.2543659881,119.305142481,119.685785992,119.805178118,nan,nan
0,27,4129,6,1,15,10,0.965734432428,0.145352784795,-1.0,1,1.0,1.0,0.220464150421,0,nan,nan,nan,nan,nan,nan,nan,nan,nan,0.0,0.0,0.0,nan,nan,85.2543659881,120.305273056,120.525737206,120.805275906,nan,nan
0,28,4130,6,1,376,264,-0.124962824795,0.478704673615,-0.132627625282,1,1.0,1.0,0.25236260565,0,nan,nan,nan,nan,nan,nan,nan,nan,nan,0.0,0.0,0.0,nan,nan,85.2543659881,121.305377686,121.557740292,121.805402775,nan,nan
0,29,4131,6,1,208,146,0.97651257568,0.025020743352,0.522574479073,1,1.0,1.0,0.252236022148,0,nan,nan,nan,nan,nan,nan,nan,nan,nan,0.0,0.0,0.0,nan,nan,85.2543659881,122.305497142,122.557733165,122.805546749,nan,nan
0,30,4132,6,0,497,349,0.723174939644,0.271260599794,-1.0,0,0.0,1.0,0.420050872955,0,nan,nan,nan,nan,nan,nan,nan,nan,nan,0.0,0.0,0.0,nan,nan,85.2543659881,123.305651095,123.725701968,123.80568046,nan,nan
0,31,4133,6,1,167,117,1.0,-0.195605812978,0.221546716301,1,1.0,1.0,0.267973136622,0,nan,nan,nan,nan,nan,nan,nan,nan,nan,0.0,0.0,0.0,nan,nan,85.2543659881,124.305755156,124.573728293,124.805783381,nan,nan
0,32,4137,6,1,86,60,1.0,-0.21659106269,-0.625617802914,1,1.0,1.0,0.323791584,1,nan,nan,nan,nan,nan,nan,nan,34.2868769772,79.0,1.0,-0.184296021705,-0.724170777997,-4.75562697721,1.14209731668,85.2543659881,125.305888867,125.629680451,125.80591196,127.139421673,128.289557038
0,33,4138,6,1,161,113,1.0,-0.223158351501,0.167490545043,1,1.0,1.0,0.387190782931,0,nan,nan,nan,nan,nan,nan,nan,nan,nan,0.0,0.0,0.0,nan,nan,85.2543659881,129.506406148,129.893596931,130.00644093,nan,nan
0,34,4139,6,0,379,266,-0.113535935895,0.478614986251,-0.165970515924,0,0.0,1.0,0.451041291468,0,nan,nan,nan,nan,nan,nan,nan,nan,nan,0.0,0.0,0.0,nan,nan,85.2543659881,130.506534442,130.957575734,131.006599159,nan,nan
0,35,4140,6,1,147,103,1.0,-0.275801134503,0.0346720467303,1,1.0,1.0,0.218898393214,0,nan,nan,nan,nan,nan,nan,nan,nan,nan,0.0,0.0,0.0,nan,nan,85.2543659881,131.506692387,131.72559078,132.006698944,nan,nan
0,36,4141,6,1,10,7,0.926811495151,0.168400576072,-1.0,1,1.0,1.0,0.194754884113,0,nan,nan,nan,nan,nan,nan,nan,nan,nan,0.0,0.0,0.0,nan,nan,85.2543659881,132.50678875,132.701543634,133.00683294,nan,nan
0,37,4142,6,0,307,215,-0.0113868739462,0.411053355611,0.487957006857,0,1.0,0.0,0.210591213312,0,0.0,0.0,nan,nan,nan,nan,nan,nan,nan,0.0,0.0,0.0,nan,nan,85.2543659881,133.506948974,133.717540188,134.006982046,nan,nan
0,38,4143,6,1,254,178,0.503011129055,0.248947817922,0.65613358125,1,1.0,1.0,0.186435159296,0,nan,nan,nan,nan,nan,nan,nan,nan,nan,0.0,0.0,0.0,nan,nan,85.2543659881,134.507055031,134.69349019,135.00711148,nan,nan
0,39,4144,6,1,432,303,0.199227897075,0.437687328843,-1.0,1,1.0,1.0,0.258316018153,0,nan,nan,nan,nan,nan,nan,nan,nan,nan,0.0,0.0,0.0,nan,nan,85.2543659881,135.507182185,135.765498203,136.007225804,nan,nan
0,40,4145,6,1,166,116,1.0,-0.20036215083,0.21267421211,1,1.0,1.0,0.306163130794,0,nan,nan,nan,nan,nan,nan,nan,nan,nan,0.0,0.0,0.0,nan,nan,85.2543659881,136.507304206,136.813467337,137.007338988,nan,nan
0,41,4146,6,1,405,284,0.018463324075,0.468009379796,-0.476293327428,1,1.0,1.0,0.242038358469,0,nan,nan,nan,nan,nan,nan,nan,nan,nan,0.0,0.0,0.0,nan,nan,85.2543659881,137.507424518,137.749462876,138.007496363,nan,nan
0,42,4147,6,1,95,66,1.0,-0.253175017597,-0.514975443931,1,0.0,0.0,0.385859376285,0,0.0,0.0,nan,nan,nan,nan,nan,nan,nan,0.0,0.0,0.0,nan,nan,85.2543659881,138.507567352,138.893426728,139.007592155,nan,nan
0,43,4148,6,1,190,133,1.0,-0.0746884387243,0.407399635172,1,1.0,1.0,0.265735689085,0,nan,nan,nan,nan,nan,nan,nan,nan,nan,0.0,0.0,0.0,nan,nan,85.2543659881,139.507687948,139.773423637,140.007717028,nan,nan
0,44,4149,6,1,478,336,0.56422249903,0.334793662244,-1.0,1,1.0,1.0,0.241555687506,0,nan,nan,nan,nan,nan,nan,nan,nan,nan,0.0,0.0,0.0,nan,nan,85.2543659881,140.507828216,140.749383904,141.007848458,nan,nan
0,45,4150,6,1,143,100,1.0,-0.287057525782,-0.00469998909502,1,1.0,1.0,0.233414434362,0,nan,nan,nan,nan,nan,nan,nan,nan,nan,0.0,0.0,0.0,nan,nan,85.2543659881,141.507972476,141.74138691,142.007977893,nan,nan
0,46,4151,6,1,479,336,0.572572153349,0.331768222426,-1.0,1,1.0,1.0,0.201374855824,0,nan,nan,nan,nan,nan,nan,nan,nan,nan,0.0,0.0,0.0,nan,nan,85.2543659881,142.50805715,142.709432005,143.008119016,nan,nan
0,47,4152,6,1,28,19,1.0,0.082066132397,-1.0,1,1.0,1.0,0.209166008979,0,nan,nan,nan,nan,nan,nan,nan,nan,nan,0.0,0.0,0.0,nan,nan,85.2543659881,143.50820198,143.717367989,144.008236191,nan,nan
0,48,4153,6,1,458,322,0.399688045963,0.388050214986,-1.0,1,1.0,1.0,0.256984041072,0,nan,nan,nan,nan,nan,nan,nan,nan,nan,0.0,0.0,0.0,nan,nan,85.2543659881,144.50833341,144.765317451,145.008358498,nan,nan
0,49,4157,6,1,348,244,-0.175384772129,0.468017843042,0.157582163916,1,1.0,1.0,0.296856397297,1,nan,nan,nan,nan,nan,nan,nan,-138.691385986,325.0,-0.119404900653,0.442631039184,0.360186421743,-15.9961140135,0.875425366219,85.2543659881,145.508441177,145.805297574,146.008482231,147.341984817,148.225457069
0,50,4158,6,1,182,127,1.0,-0.118523835432,0.347089474713,1,1.0,1.0,0.314922191203,0,nan,nan,nan,nan,nan,nan,nan,nan,nan,0.0,0.0,0.0,nan,nan,85.2543659881,149.442305894,149.757228085,149.942323,nan,nan
0,51,4159,6,1,469,329,0.489482198204,0.360453357602,-1.0,1,1.0,1.0,0.20279150689,0,nan,nan,nan,nan,nan,nan,nan,nan,nan,0.0,0.0,0.0,nan,nan,85.2543659881,150.442451579,150.645243086,150.942447303,nan,nan
0,52,4200,6,1,102,71,1.0,-0.276610342793,-0.434926949461,1,1.0,1.0,0.338653448503,0,nan,nan,nan,nan,nan,nan,nan,nan,nan,0.0,0.0,0.0,nan,nan,85.2543659881,151.4425411,151.781194549,151.942573601,nan,nan
0,53,4201,6,1,31,21,1.0,0.0668515730764,-1.0,1,1.0,1.0,0.266512010712,0,nan,nan,nan,nan,nan,nan,nan,nan,nan,0.0,0.0,0.0,nan,nan,85.2543659881,152.442679943,152.709191953,152.942703891,nan,nan
0,54,4202,6,1,437,307,0.23613482661,0.429770237144,-1.0,1,1.0,1.0,0.210368836764,0,nan,nan,nan,nan,nan,nan,nan,nan,nan,0.0,0.0,0.0,nan,nan,85.2543659881,153.442799399,153.653168235,153.942852427,nan,nan
0,55,4203,6,1,77,54,1.0,-0.174593022316,-0.756267193339,1,1.0,1.0,0.282211207319,0,nan,nan,nan,nan,nan,nan,nan,nan,nan,0.0,0.0,0.0,nan,nan,85.2543659881,154.44293311,154.725144317,154.942961904,nan,nan
0,56,4204,6,1,200,140,1.0,-0.0191209939188,0.47515178387,1,1.0,1.0,0.258083093446,0,nan,nan,nan,nan,nan,nan,nan,nan,nan,0.0,0.0,0.0,nan,nan,85.2543659881,155.443047719,155.701130812,155.943089628,nan,nan
0,57,4205,6,1,461,324,0.423959648591,0.380927367285,-1.0,1,1.0,1.0,0.241922893561,0,nan,nan,nan,nan,nan,nan,nan,nan,nan,0.0,0.0,0.0,nan,nan,85.2543659881,156.443187702,156.685110596,156.943205093,nan,nan
0,58,4206,6,1,27,18,1.0,0.0870912575778,-1.0,1,1.0,1.0,0.241805148311,0,nan,nan,nan,nan,nan,nan,nan,nan,nan,0.0,0.0,0.0,nan,nan,85.2543659881,157.443312004,157.685117153,157.943337378,nan,nan
0,59,4207,6,1,194,136,1.0,-0.0524864644427,0.435571704399,1,1.0,1.0,0.209638416301,0,nan,nan,nan,nan,nan,nan,nan,nan,nan,0.0,0.0,0.0,nan,nan,85.2543659881,158.443428895,158.653067311,158.943463677,nan,nan
0,60,4208,6,1,55,38,1.0,-0.0599996532909,-1.0,1,1.0,1.0,0.169516314752,0,nan,nan,nan,nan,nan,nan,nan,nan,nan,0.0,0.0,0.0,nan,nan,85.2543659881,159.443564031,159.613080346,159.943616774,nan,nan
0,61,4209,6,1,364,255,-0.160194321586,0.476704516321,-0.00341124574885,1,1.0,1.0,0.193398959003,0,nan,nan,nan,nan,nan,nan,nan,nan,nan,0.0,0.0,0.0,nan,nan,85.2543659881,160.443679496,160.637078455,160.943749059,nan,nan
0,62,4210,6,1,474,333,0.530901762182,0.346545376391,-1.0,1,1.0,1.0,0.209229871165,0,nan,nan,nan,nan,nan,nan,nan,nan,nan,0.0,0.0,0.0,nan,nan,85.2543659881,161.443806934,161.653036805,161.943871937,nan,nan
0,63,4211,6,1,115,80,1.0,-0.305166285737,-0.293172749504,1,1.0,1.0,0.305061512627,0,nan,nan,nan,nan,nan,nan,nan,nan,nan,0.0,0.0,0.0,nan,nan,85.2543659881,162.443962598,162.74902411,162.944011349,nan,nan
0,64,4212,6,1,10,7,0.926811495151,0.168400576072,-1.0,1,1.0,1.0,0.208876064513,0,nan,nan,nan,nan,nan,nan,nan,nan,nan,0.0,0.0,0.0,nan,nan,85.2543659881,163.444106857,163.652982922,163.944126814,nan,nan
0,65,4213,6,1,173,121,1.0,-0.165909522591,0.273535192888,1,1.0,1.0,0.176821375731,0,nan,nan,nan,nan,nan,nan,nan,nan,nan,0.0,0.0,0.0,nan,nan,85.2543659881,164.444220896,164.621042272,164.944223747,nan,nan
0,66,4214,6,0,348,244,-0.175384772129,0.468017843042,0.157582163916,0,1.0,0.0,0.144644095097,0,0.0,0.0,nan,nan,nan,nan,nan,nan,nan,0.0,0.0,0.0,nan,nan,85.2543659881,165.444350046,165.588994141,165.944397087,nan,nan
0,67,4215,6,1,90,63,1.0,-0.233635786423,-0.574971871003,1,1.0,1.0,0.216502431314,0,nan,nan,nan,nan,nan,nan,nan,nan,nan,0.0,0.0,0.0,nan,nan,85.2543659881,166.444444698,166.66094713,166.944483472,nan,nan
0,68,4216,6,1,150,105,1.0,-0.266152531622,0.0638227105866,1,1.0,1.0,0.240340030752,0,nan,nan,nan,nan,nan,nan,nan,nan,nan,0.0,0.0,0.0,nan,nan,85.2543659881,167.444572137,167.684912167,167.944614616,nan,nan
0,69,4217,6,1,421,296,0.121471671064,0.452518040197,-0.712610339232,1,1.0,1.0,0.27218317613,0,nan,nan,nan,nan,nan,nan,nan,nan,nan,0.0,0.0,0.0,nan,nan,85.2543659881,168.444708984,168.71689216,168.944747757,nan,nan
0,70,4218,6,0,350,246,-0.175756816429,0.469490941964,0.138247479403,0,0.0,1.0,0.400007355493,0,nan,nan,nan,nan,nan,nan,nan,nan,nan,0.0,0.0,0.0,nan,nan,85.2543659881,169.444864932,169.844872288,169.944889736,nan,nan
0,71,4219,6,1,41,28,1.0,0.0148395037771,-1.0,1,1.0,1.0,0.191915879957,0,nan,nan,nan,nan,nan,nan,nan,nan,nan,0.0,0.0,0.0,nan,nan,85.2543659881,170.444965002,170.636880882,170.944991801,nan,nan
0,72,4220,6,1,438,307,0.243622561222,0.428096439079,-1.0,1,1.0,1.0,0.199772891123,0,nan,nan,nan,nan,nan,nan,nan,nan,nan,0.0,0.0,0.0,nan,nan,85.2543659881,171.445095291,171.644868182,171.945124086,nan,nan
0,73,4221,6,1,240,168,0.654373017221,0.188015059697,0.642463954019,1,1.0,1.0,0.21561349649,0,nan,nan,nan,nan,nan,nan,nan,nan,nan,0.0,0.0,0.0,nan,nan,85.2543659881,172.445212752,172.660826248,172.945246108,nan,nan
0,74,4222,6,1,39,27,1.0,0.0253789930673,-1.0,1,1.0,1.0,0.191440907307,0,nan,nan,nan,nan,nan,nan,nan,nan,nan,0.0,0.0,0.0,nan,nan,85.2543659881,173.445372406,173.636813314,173.945401201,nan,nan
0,75,4223,6,1,96,67,1.0,-0.25681952169,-0.503302481145,1,1.0,1.0,0.191318600439,0,nan,nan,nan,nan,nan,nan,nan,nan,nan,0.0,0.0,0.0,nan,nan,85.2543659881,174.445478178,174.636796778,174.945536908,nan,nan
0,76,4224,6,1,339,238,-0.164955840019,0.45996923152,0.241423096872,1,1.0,1.0,0.175184914377,0,nan,nan,nan,nan,nan,nan,nan,nan,nan,0.0,0.0,0.0,nan,nan,85.2543659881,175.445590506,175.620775421,175.945654653,nan,nan
0,77,4225,6,1,246,172,0.589768841079,0.215019897151,0.651339528662,1,1.0,1.0,0.19107512664,0,nan,nan,nan,nan,nan,nan,nan,nan,nan,0.0,0.0,0.0,nan,nan,85.2543659881,176.445756148,176.636831275,176.945787224,nan,nan
0,78,4226,6,1,491,345,0.673033477965,0.292707709811,-1.0,1,1.0,1.0,0.174892974086,0,nan,nan,nan,nan,nan,nan,nan,nan,nan,0.0,0.0,0.0,nan,nan,85.2543659881,177.445880736,177.62077371,177.945884157,nan,nan
0,79,4227,6,1,317,222,-0.077772836126,0.429938605076,0.420733606481,1,1.0,1.0,0.182795315981,0,nan,nan,nan,nan,nan,nan,nan,nan,nan,0.0,0.0,0.0,nan,nan,85.2543659881,178.446007889,178.628803205,178.946008745,nan,nan
0,80,4228,6,1,446,313,0.304696255059,0.41359904426,-1.0,1,1.0,1.0,0.174573665019,0,1.0,0.0,0.177420651695,0.252751935238,0.0643990492712,0.31715098451,0.188352885967,nan,nan,0.0,0.0,0.0,nan,nan,85.2543659881,179.446139319,179.620712984,179.946140745,nan,nan
0,81,4232,6,1,43,30,1.0,0.00424534395127,-1.0,1,1.0,1.0,0.214457709342,1,0.0,0.0,0.190608896781,0.251786771409,0.0645798759751,0.316366647384,0.187206895433,59.9558399301,43.0,1.0,0.00424534395127,-1.0,-0.190214930074,1.24212189205,85.2543659881,180.446240529,180.660698239,180.946275597,182.263095683,183.513283848
0,82,4233,6,1,159,111,1.0,-0.231765974528,0.149055008463,1,1.0,1.0,0.354520853143,0,0.0,0.0,0.247850742502,0.251331538944,0.0643155195332,0.315647058478,0.187016019411,nan,nan,0.0,0.0,0.0,nan,nan,85.2543659881,184.730099602,185.084620455,185.230175723,nan,nan
0,83,4234,6,1,115,80,1.0,-0.305166285737,-0.293172749504,1,1.0,1.0,0.274346213788,0,0.0,0.0,0.281108258758,0.252574783694,0.0649106523387,0.317485436032,0.187664131355,nan,nan,0.0,0.0,0.0,nan,nan,85.2543659881,185.730231887,186.004578101,186.230269806,nan,nan
0,84,4235,6,0,445,312,0.296953900578,0.415520102116,-1.0,0,0.0,1.0,0.386178970337,0,0.0,0.0,0.338348679089,0.252833967385,0.0645663145342,0.31740028192,0.188267652851,nan,nan,0.0,0.0,0.0,nan,nan,85.2543659881,186.730406938,187.116585908,187.23042832,nan,nan
0,85,4236,6,1,495,348,0.706485112283,0.278551693791,-1.0,1,1.0,1.0,0.194054113701,0,0.0,0.0,0.284859765942,0.254402732126,0.0657760600617,0.320178792188,0.188626672064,nan,nan,0.0,0.0,0.0,nan,nan,85.2543659881,187.730497884,187.924551997,188.230548061,nan,nan
0,86,4237,6,1,306,215,-0.00395437407881,0.408974006242,0.494128827808,1,1.0,1.0,0.297903846484,0,0.0,0.0,0.292712310174,0.253701004005,0.065711779411,0.319412783416,0.187989224594,nan,nan,0.0,0.0,0.0,nan,nan,85.2543659881,188.730625608,189.028529454,189.230662385,nan,nan
0,87,4238,6,0,16,11,0.973419431522,0.140652110383,-1.0,0,0.0,1.0,0.425742851105,0,0.0,0.0,0.30590027043,0.254209082654,0.0655027152856,0.31971179794,0.188706367368,nan,nan,0.0,0.0,0.0,nan,nan,85.2543659881,189.730777279,190.156520131,190.230805504,nan,nan
0,88,4239,6,1,176,123,1.0,-0.150429669724,0.298675466069,1,1.0,1.0,0.225672317669,0,0.0,0.0,0.316439671752,0.256158330023,0.0676196052061,0.323777935229,0.188538724817,nan,nan,0.0,0.0,0.0,nan,nan,85.2543659881,190.73086566,190.956537977,191.230909565,nan,nan
0,89,4240,6,1,310,217,-0.032854544558,0.417080732083,0.468828018046,1,1.0,1.0,0.232082456816,0,0.0,0.0,0.29449920853,0.255815790558,0.0673153840716,0.32313117463,0.188500406486,nan,nan,0.0,0.0,0.0,nan,nan,85.2543659881,191.764396585,191.996479042,192.2643963,nan,nan
0,90,4241,6,1,28,19,1.0,0.082066132397,-1.0,1,1.0,1.0,0.208026757929,0,0.0,0.0,0.221927177471,0.25555208685,0.0669865770611,0.322538663911,0.188565509789,nan,nan,0.0,0.0,0.0,nan,nan,85.2543659881,192.764458736,192.972485494,193.264506633,nan,nan
0,91,4242,6,1,181,127,1.0,-0.123914391386,0.3392011262,1,1.0,1.0,0.207858264912,0,0.0,0.0,0.215989159886,0.255029830488,0.0668014914008,0.321831321889,0.188228339087,nan,nan,0.0,0.0,0.0,nan,nan,85.2543659881,193.764588741,193.972447006,194.264663721,nan,nan
0,92,4243,6,0,433,304,0.206536295144,0.436163724167,-1.0,0,0.0,1.0,0.35967513686,0,0.0,0.0,0.258520053234,0.25451709608,0.0666172505217,0.321134346601,0.187899845558,nan,nan,0.0,0.0,0.0,nan,nan,85.2543659881,194.764757234,195.124432371,195.264802279,nan,nan
0,93,4244,6,1,478,336,0.56422249903,0.334793662244,-1.0,1,1.0,1.0,0.215583560988,0,0.0,0.0,0.261038987587,0.255647827701,0.0671398996951,0.322787727396,0.188507928006,nan,nan,0.0,0.0,0.0,nan,nan,85.2543659881,195.764855593,195.980439153,196.264889804,nan,nan
0,94,4245,6,1,431,303,0.191957257768,0.43918128748,-0.982298765802,1,1.0,1.0,0.239428857807,0,0.0,0.0,0.271562518552,0.255221612098,0.0669081873024,0.3221297994,0.188313424795,nan,nan,0.0,0.0,0.0,nan,nan,85.2543659881,196.764989018,197.004417876,197.265039195,nan,nan
0,95,4246,6,1,356,250,-0.17284377641,0.473239407326,0.0788368070227,1,1.0,1.0,0.279258734547,0,0.0,0.0,0.244757051114,0.255055372579,0.0665746202115,0.32162999279,0.188480752367,nan,nan,0.0,0.0,0.0,nan,nan,85.2543659881,197.765137839,198.044396574,198.265136129,nan,nan
0,96,4247,6,1,247,173,0.578947625354,0.219392674348,0.6523805853,1,1.0,1.0,0.303135106806,0,0.0,0.0,0.27394089972,0.255307490933,0.0662725438034,0.321580034736,0.189034947129,nan,nan,0.0,0.0,0.0,nan,nan,85.2543659881,198.765244181,199.068379288,199.265266988,nan,nan
0,97,4248,6,1,434,305,0.213881816697,0.43461034373,-1.0,1,1.0,1.0,0.22298299009,0,0.0,0.0,0.268458943814,0.255800559137,0.0661068102089,0.321907369346,0.189693748929,nan,nan,0.0,0.0,0.0,nan,nan,85.2543659881,199.765356224,199.988339214,200.265421797,nan,nan
0,98,4249,6,1,119,83,1.0,-0.309446327048,-0.250710895617,1,1.0,1.0,0.174832533579,0,0.0,0.0,0.233650210158,0.255465685984,0.0658513095997,0.321316995584,0.189614376384,nan,nan,0.0,0.0,0.0,nan,nan,85.2543659881,200.765495067,200.940327601,201.265522436,nan,nan
0,99,4250,6,1,249,175,0.557275547736,0.228026269286,0.654084877906,1,1.0,1.0,0.182689829729,0,0.0,0.0,0.193501784466,0.254651209697,0.0660121460451,0.320663355742,0.188639063652,nan,nan,0.0,0.0,0.0,nan,nan,85.2543659881,201.76562108,201.94831091,202.265641892,nan,nan
0,100,4251,6,1,133,93,1.0,-0.306259573676,-0.105336427414,1,1.0,1.0,0.214538392145,0,0.0,0.0,0.190686918485,0.253931595897,0.0660703711907,0.320001967088,0.187861224707,nan,nan,0.0,0.0,0.0,nan,nan,85.2543659881,202.765774178,202.98031257,203.265791568,nan,nan
0,101,4252,6,1,488,343,0.647907709101,0.302951493728,-1.0,1,1.0,1.0,0.214404681232,0,0.0,0.0,0.203877634369,0.253541564177,0.0658580723328,0.31939963651,0.187683491844,nan,nan,0.0,0.0,0.0,nan,nan,85.2543659881,203.765871681,203.980276363,204.265921003,nan,nan
0,102,4253,6,1,50,35,1.0,-0.033148730948,-1.0,1,1.0,1.0,0.238249693066,0,0.0,0.0,0.222397588814,0.253157869246,0.0656477926853,0.318805661931,0.187510076561,nan,nan,0.0,0.0,0.0,nan,nan,85.2543659881,204.766026774,205.004276467,205.266031336,nan,nan
0,103,4254,6,1,228,160,0.780729811514,0.1302769546,0.611433142569,1,1.0,1.0,0.238164734095,0,0.0,0.0,0.230273036131,0.253013129672,0.0653446894855,0.318357819157,0.187668440186,nan,nan,0.0,0.0,0.0,nan,nan,85.2543659881,205.766131975,206.004296709,206.266162481,nan,nan
0,104,4255,6,1,368,258,-0.150457169737,0.477793263397,-0.0457341785459,1,1.0,1.0,0.213972758036,0,0.0,0.0,0.230129061732,0.252870356637,0.0650459145992,0.317916271236,0.187824442038,nan,nan,0.0,0.0,0.0,nan,nan,85.2543659881,206.766257704,206.980230462,207.266287354,nan,nan
0,105,4256,6,1,145,101,1.0,-0.281667413287,0.0150551701241,1,1.0,1.0,0.205816679634,0,0.0,0.0,0.219318057255,0.252499903317,0.0648455746598,0.317345477977,0.187654328657,nan,nan,0.0,0.0,0.0,nan,nan,85.2543659881,207.766402248,207.972218928,208.266418213,nan,nan
0,106,4257,6,1,365,256,-0.157962026257,0.477016591838,-0.0139196855225,1,1.0,1.0,0.221704896539,0,0.0,0.0,0.213831444737,0.252059495547,0.0646965603603,0.316756055907,0.187362935186,nan,nan,0.0,0.0,0.0,nan,nan,85.2543659881,208.76653995,208.988244847,209.266535674,nan,nan
0,107,4258,6,0,448,315,0.32026743599,0.409662251776,-1.0,0,1.0,0.0,0.157542490866,0,0.0,0.0,0.19502135568,0.251775807705,0.0644597354748,0.31623554318,0.187316072231,nan,nan,0.0,0.0,0.0,nan,nan,85.2543659881,209.766661972,209.924204463,210.266697609,nan,nan
0,108,4259,6,1,46,32,1.0,-0.0117313672748,-1.0,1,1.0,1.0,0.173396781087,0,0.0,0.0,0.184214722831,0.250903276994,0.0647923212735,0.315695598267,0.18611095572,nan,nan,0.0,0.0,0.0,nan,nan,85.2543659881,210.766759761,210.940156542,211.26683075,nan,nan
0,109,4300,6,1,196,137,1.0,-0.0413610816081,0.449130757868,1,1.0,1.0,0.221275539137,0,0.0,0.0,0.184071603697,0.250192208224,0.0649163889365,0.315108597161,0.185275819288,nan,nan,0.0,0.0,0.0,nan,nan,85.2543659881,211.766884634,211.988160173,212.266932245,nan,nan
0,110,4301,6,1,123,86,1.0,-0.311441137266,-0.208672863777,1,1.0,1.0,0.27712734323,0,0.0,0.0,0.223933221151,0.249929329414,0.0646788967551,0.314608226169,0.185250432659,nan,nan,0.0,0.0,0.0,nan,nan,85.2543659881,212.767006085,213.044133428,213.267053982,nan,nan
0,111,4302,6,1,259,182,0.44882283482,0.268906983076,0.655011783756,1,1.0,1.0,0.252936507575,0,0.0,0.0,0.250446463314,0.250174356566,0.0644381561957,0.314612512762,0.18573620037,nan,nan,0.0,0.0,0.0,nan,nan,85.2543659881,213.767155191,214.020091699,214.267177999,nan,nan
0,112,4303,6,1,186,130,1.0,-0.0967386681424,0.377881386018,1,1.0,1.0,0.209775832947,0,0.0,0.0,0.246613227918,0.250199018628,0.0641503670559,0.314349385684,0.186048651572,nan,nan,0.0,0.0,0.0,nan,nan,85.2543659881,214.794295649,215.004071482,215.292337027,nan,nan
0,113,4304,6,1,97,68,1.0,-0.260369742894,-0.491718830742,1,1.0,1.0,0.243690500036,0,0.0,0.0,0.235467613519,0.249841291321,0.0639779945524,0.313819285874,0.185863296769,nan,nan,0.0,0.0,0.0,nan,nan,85.2543659881,215.792398038,216.036088538,216.29246133,nan,nan
0,114,4305,6,1,308,216,-0.0186828559465,0.413097475488,0.481682330771,1,1.0,1.0,0.259494327474,0,0.0,0.0,0.237653553486,0.249787337012,0.0636993533455,0.313486690357,0.186087983666,nan,nan,0.0,0.0,0.0,nan,nan,85.2543659881,216.792541157,217.052035484,217.292590194,nan,nan
0,115,4306,6,1,145,101,1.0,-0.281667413287,0.0150551701241,1,1.0,1.0,0.21936281817,0,0.0,0.0,0.240849215227,0.249871745625,0.0634281979953,0.31329994362,0.186443547629,nan,nan,0.0,0.0,0.0,nan,nan,85.2543659881,217.792660328,218.012023146,218.292686271,nan,nan
0,116,4307,6,1,233,163,0.728670395113,0.154909781369,0.626482233315,1,1.0,1.0,0.251204253174,0,0.0,0.0,0.243353799606,0.249608737629,0.0632171575609,0.31282589519,0.186391580068,nan,nan,0.0,0.0,0.0,nan,nan,85.2543659881,218.792791758,219.043996011,219.292810574,nan,nan
0,117,4309,6,1,323,227,-0.11001989341,0.43965344528,0.375855360355,1,1.0,1.0,0.249038935173,0,0.0,0.0,0.239868668839,0.249622374514,0.0629465903764,0.312568964891,0.186675784138,nan,nan,0.0,0.0,0.0,nan,nan,85.2543659881,219.842938754,220.091977689,220.342968119,nan,nan
0,118,4310,6,1,464,326,0.448404880525,0.373503555275,-1.0,1,1.0,1.0,0.248909215908,0,0.0,0.0,0.249717468085,0.249617430113,0.0626793228549,0.312296752968,0.186938107258,nan,nan,0.0,0.0,0.0,nan,nan,85.2543659881,220.843075031,221.091984247,221.343076742,nan,nan
0,119,4311,6,1,95,66,1.0,-0.253175017597,-0.514975443931,1,1.0,1.0,0.296750911046,0,0.0,0.0,0.264899687376,0.249611478733,0.0624154422251,0.312026920958,0.187196036508,nan,nan,0.0,0.0,0.0,nan,nan,85.2543659881,221.843193347,222.139944258,222.34320247,nan,nan
0,120,4312,6,0,374,262,-0.132039125116,0.478634076427,-0.110628443238,0,1.0,0.0,0.232628134545,0,0.0,0.0,0.2594294205,0.250004307336,0.0623023817303,0.312306689066,0.187701925606,nan,nan,0.0,0.0,0.0,nan,nan,85.2543659881,222.843315369,223.075943503,223.343376379,nan,nan
0,121,4313,6,1,67,47,1.0,-0.12380466598,-1.0,1,1.0,1.0,0.280510028359,0,0.0,0.0,0.26996302465,0.249860702602,0.0620643393433,0.311925041945,0.187796363259,nan,nan,0.0,0.0,0.0,nan,nan,85.2543659881,223.843418289,224.123928317,224.34346704,nan,nan
0,122,4313,6,0,356,250,-0.17284377641,0.473239407326,0.0788368070227,0,1.0,0.0,0.304310850333,0,0.0,0.0,0.272483004412,0.250111926584,0.0618711994836,0.311983126067,0.1882407271,nan,nan,0.0,0.0,0.0,nan,nan,85.2543659881,224.84359619,225.14790704,225.343593054,nan,nan
0,123,4314,6,1,94,66,1.0,-0.249439013202,-0.526745155233,1,1.0,1.0,0.40021861298,0,0.0,0.0,0.328346497224,0.25055256824,0.0618110924049,0.312363660645,0.188741475835,nan,nan,0.0,0.0,0.0,nan,nan,85.2543659881,225.843676303,226.243894916,226.343715646,nan,nan
0,124,4315,6,1,495,348,0.706485112283,0.278551693791,-1.0,1,1.0,1.0,0.392084486783,0,0.0,0.0,0.365537983365,0.251759552472,0.0629999008665,0.314759453338,0.188759651605,nan,nan,0.0,0.0,0.0,nan,nan,85.2543659881,226.843812579,227.235897066,227.343844795,nan,nan
0,125,4317,6,1,20,14,1.0,0.121558187834,-1.0,1,1.0,1.0,0.343904665671,0,0.0,1.0,0.378735921811,0.252882151946,0.0639804976306,0.316862649577,0.188901654316,nan,nan,0.0,0.0,0.0,nan,nan,85.2543659881,227.843949996,228.187854662,228.343967387,nan,nan
0,126,4321,6,1,450,316,0.335949728395,0.405598329481,-1.0,1,1.0,1.0,0.431748436764,1,0.0,0.0,0.389245863073,0.253604552849,0.0642358843052,0.317840437154,0.189368668544,151.348171547,425.0,0.149162615564,0.447529597292,-0.791715667876,-17.7544215474,0.992113339249,85.2543659881,228.844076294,229.275824731,229.344103094,230.669257731,231.669383459
0,127,4322,6,1,5,3,0.88714030954,0.190659852496,-1.0,1,1.0,1.0,0.301516321488,0,0.0,0.0,0.359056474641,0.255007260596,0.0658913871554,0.320898647752,0.189115873441,nan,nan,0.0,0.0,0.0,nan,nan,85.2543659881,232.886240837,233.187757159,233.386274479,nan,nan
0,128,4323,6,1,219,153,0.871627318206,0.0840881726889,0.576959667802,1,1.0,1.0,0.341368435416,0,0.0,0.0,0.358211064556,0.255370612635,0.0657611032714,0.321131715906,0.189609509363,nan,nan,0.0,0.0,0.0,nan,nan,85.2543659881,233.886375688,234.227744124,234.386434704,nan,nan
0,129,4324,6,1,504,354,0.78128615449,0.244628286196,-1.0,1,1.0,1.0,0.429224465508,0,0.0,1.0,0.357369740804,0.256037262424,0.0659384961925,0.321975758616,0.190098766231,nan,nan,0.0,0.0,0.0,nan,nan,85.2543659881,234.886497995,235.315722461,235.386549313,nan,nan
0,130,4327,6,0,163,114,1.0,-0.214247802105,0.185723682048,0,0.0,1.0,0.445033994969,1,0.0,0.0,0.405208965298,0.257369471678,0.0674046498541,0.324774121532,0.189964821824,-31.780915093,173.0,1.0,-0.165909522591,0.273535192888,7.17154009298,0.817054152489,85.2543659881,235.886681599,236.331715594,236.386691007,237.711827968,238.536929862
0,131,4328,6,1,465,326,0.456588679398,0.37096152752,-1.0,1,1.0,1.0,0.266185858753,0,0.0,0.0,0.38014810641,0.258802025291,0.0691049329701,0.327906958261,0.189697092321,nan,nan,0.0,0.0,0.0,nan,nan,85.2543659881,239.745437295,240.011623153,240.245488897,nan,nan
0,132,4329,6,1,366,257,-0.155593376329,0.477302029306,-0.0244766492797,1,1.0,1.0,0.290031726006,0,0.0,0.0,0.333750526576,0.258857963423,0.0688456512911,0.327703614714,0.190012312132,nan,nan,0.0,0.0,0.0,nan,nan,85.2543659881,240.745584405,241.035616131,241.24564171,nan,nan
0,133,4330,6,1,76,53,1.0,-0.169674511773,-0.773365826749,1,1.0,1.0,0.305897704326,0,0.0,0.0,0.287371763028,0.259092352616,0.0686391909635,0.327731543579,0.190453161652,nan,nan,0.0,0.0,0.0,nan,nan,85.2543659881,241.745709563,242.051607267,242.245733226,nan,nan
0,134,4331,6,0,374,262,-0.132039125116,0.478634076427,-0.110628443238,0,0.0,1.0,0.441731706727,0,0.0,0.0,0.345887045686,0.259441646285,0.0685011394088,0.327942785694,0.190940506876,nan,nan,0.0,0.0,0.0,nan,nan,85.2543659881,242.74586095,243.187592657,243.245888319,nan,nan
0,135,4332,6,1,485,341,0.622774561467,0.312875618285,-1.0,1,1.0,1.0,0.241627817508,0,0.0,0.0,0.32975240952,0.260791943029,0.0700140693745,0.330806012404,0.190777873655,nan,nan,0.0,0.0,0.0,nan,nan,85.2543659881,243.745964726,243.987592543,244.245986963,nan,nan
0,136,4333,6,1,415,291,0.0813077335083,0.459153678902,-0.614968023274,1,1.0,1.0,0.249472854193,0,0.0,0.0,0.310944126143,0.260651030341,0.0697754012961,0.330426431638,0.190875629045,nan,nan,0.0,0.0,0.0,nan,nan,85.2543659881,244.746092164,244.995565019,245.246148043,nan,nan
0,137,4334,6,1,278,195,0.248285521772,0.335802812283,0.621962573991,1,1.0,1.0,0.273310168181,0,0.0,0.0,0.254803613294,0.260569437815,0.0695267915963,0.330096229411,0.191042646219,nan,nan,0.0,0.0,0.0,nan,nan,85.2543659881,245.746214756,246.019524924,246.246247828,nan,nan
0,138,4335,6,1,504,354,0.78128615449,0.244628286196,-1.0,1,1.0,1.0,0.225169690326,0,0.0,0.0,0.2493175709,0.260661761948,0.069282852859,0.329944614807,0.191378909089,nan,nan,0.0,0.0,0.0,nan,nan,85.2543659881,246.746333357,246.971503047,247.246376407,nan,nan
0,139,4336,6,1,79,55,1.0,-0.184296021705,-0.724170777997,1,1.0,1.0,0.360960072838,0,0.0,0.0,0.286479977115,0.260406423303,0.0690983198626,0.329504743166,0.191308103441,nan,nan,0.0,0.0,0.0,nan,nan,85.2543659881,247.746518386,248.107478458,248.246504416,nan,nan
0,140,4337,6,1,440,309,0.258699398066,0.424657399123,-1.0,1,1.0,1.0,0.328880865593,0,0.0,0.0,0.305003542919,0.261124663657,0.0693698745873,0.330494538244,0.19175478907,nan,nan,0.0,0.0,0.0,nan,nan,85.2543659881,248.746599353,249.075480219,249.246635561,nan,nan
0,141,4338,6,1,233,163,0.728670395113,0.154909781369,0.626482233315,1,1.0,1.0,0.264725872781,0,0.0,0.0,0.31818893707,0.261605204096,0.0693568975918,0.330962101688,0.192248306504,nan,nan,0.0,0.0,0.0,nan,nan,85.2543659881,249.746730783,250.011456656,250.246776399,nan,nan
0,142,4339,6,1,451,317,0.343830962376,0.403518361206,-1.0,1,1.0,1.0,0.288602530025,0,0.0,0.0,0.294069756133,0.261627180636,0.0691127443524,0.330739924989,0.192514436284,nan,nan,0.0,0.0,0.0,nan,nan,85.2543659881,250.746840831,251.035443361,251.246886162,nan,nan
0,143,4340,6,1,300,210,0.0433537089178,0.395748422077,0.528951029102,1,1.0,1.0,0.360420667566,0,0.0,0.0,0.304583023457,0.261815819443,0.0689073424797,0.330723161923,0.192908476963,nan,nan,0.0,0.0,0.0,nan,nan,85.2543659881,251.746990507,252.107411175,252.247012745,nan,nan
0,144,4341,6,1,32,22,1.0,0.061735800531,-1.0,1,1.0,1.0,0.344282990322,0,0.0,0.0,0.331102062638,0.262500575333,0.0691541715638,0.331654746897,0.193346403769,nan,nan,0.0,0.0,0.0,nan,nan,85.2543659881,252.74712935,253.091412341,253.247145886,nan,nan
0,145,4342,6,1,366,257,-0.155593376329,0.477302029306,-0.0244766492797,1,1.0,1.0,0.280143962707,0,0.0,0.0,0.328282540198,0.263064591988,0.0692468526256,0.332311444614,0.193817739362,nan,nan,0.0,0.0,0.0,nan,nan,85.2543659881,253.747240824,254.027384786,254.24726192,nan,nan
0,146,4343,6,1,242,170,0.632911854383,0.197161183215,0.645921401967,1,1.0,1.0,0.296007091179,0,0.0,0.0,0.306811348069,0.263181573979,0.0690236739075,0.332205247887,0.194157900072,nan,nan,0.0,0.0,0.0,nan,nan,85.2543659881,254.747367407,255.043374498,255.247386794,nan,nan
0,147,4344,6,1,91,63,1.0,-0.237709898716,-0.562722318432,1,1.0,1.0,0.367854593322,0,0.0,0.0,0.31466854907,0.263404876817,0.0688413955647,0.332246272382,0.194563481253,nan,nan,0.0,0.0,0.0,nan,nan,85.2543659881,255.747493705,256.115348299,256.247526492,nan,nan
0,148,4345,6,1,267,187,0.362924526182,0.298807232282,0.646622522267,1,1.0,1.0,0.36772829527,0,0.0,1.0,0.343863326591,0.264110618145,0.0691399519316,0.333250570077,0.194970666213,nan,nan,0.0,0.0,0.0,nan,nan,85.2543659881,256.747606889,257.115335184,257.247645092,nan,nan
0,149,4349,6,1,189,132,1.0,-0.0802194643608,0.400143472992,1,1.0,1.0,0.447581059299,1,0.0,0.0,0.39438798263,0.264806038797,0.0694249554865,0.334230994283,0.19538108331,-36.8698976458,180.0,1.0,-0.129278616986,0.331238955499,-6.02072735416,0.733726331033,85.2543659881,257.747734898,258.195315957,258.247770535,259.58128139,260.323055177
0,150,4350,6,1,358,251,-0.170583909915,0.474268316859,0.0585874414746,1,1.0,1.0,0.415372987743,0,0.0,0.0,0.410227447438,0.266024538934,0.0707737163516,0.336798255285,0.195250822582,nan,nan,0.0,0.0,0.0,nan,nan,85.2543659881,261.53988433,261.955257318,262.039925955,nan,nan
0,151,4351,6,1,215,151,0.910639861846,0.0628947364355,0.558695148714,1,1.0,1.0,0.343221856281,0,0.0,0.0,0.402058634441,0.267013601509,0.0715715306128,0.338585132121,0.195442070896,nan,nan,0.0,0.0,0.0,nan,nan,85.2543659881,262.540007778,262.883229634,263.040052538,nan,nan
0,152,4352,6,1,444,312,0.289241202529,0.417409780569,-1.0,1,1.0,1.0,0.271053333767,0,0.0,1.0,0.343216059264,0.267514971606,0.0716012612305,0.339116232836,0.195913710375,nan,nan,0.0,0.0,0.0,nan,nan,85.2543659881,263.540155458,263.811208792,264.040179121,nan,nan
0,153,4357,6,1,271,190,0.320642857732,0.312811632898,0.639400143054,1,1.0,1.0,0.278934007976,1,0.0,0.0,0.297736399341,0.267538098156,0.0713674561443,0.3389055543,0.196170642012,-98.6308017885,268.0,0.35230222188,0.302367520405,0.645005310408,-1.91607321145,1.35046248557,85.2543659881,264.540267217,264.819201224,265.040305135,266.365469465,267.723980547
0,154,4358,6,0,488,343,0.647907709101,0.302951493728,-1.0,0,1.0,0.0,0.230611922685,0,0.0,0.0,0.260199754809,0.26761209757,0.0711412548739,0.338753352444,0.196470842696,nan,nan,0.0,0.0,0.0,nan,nan,85.2543659881,268.932527609,269.163139532,269.432560965,nan,nan
0,155,4359,6,1,334,234,-0.152796554809,0.454467054946,0.285576400052,1,1.0,1.0,0.286466292571,0,0.0,0.0,0.265337407744,0.267373386764,0.0709732441606,0.338346630925,0.196400142604,nan,nan,0.0,0.0,0.0,nan,nan,85.2543659881,269.932636231,270.219102524,270.432667877,nan,nan
0,156,4400,6,1,262,184,0.416452475899,0.2804144186,0.652815538838,1,1.0,1.0,0.238312984817,0,0.0,0.0,0.251797066691,0.267495777186,0.0707618078032,0.33825758499,0.196733969383,nan,nan,0.0,0.0,0.0,nan,nan,85.2543659881,270.932765666,271.171078651,271.432789614,nan,nan
0,157,4401,6,1,127,89,1.0,-0.31111021432,-0.167036648065,1,1.0,1.0,0.254180674441,0,0.0,0.0,0.259653317276,0.267309899528,0.0705742879209,0.337884187449,0.196735611607,nan,nan,0.0,0.0,0.0,nan,nan,85.2543659881,271.932885122,272.187065796,272.43291078,nan,nan
0,158,4402,6,1,255,179,0.492159363509,0.253017189294,0.656163111527,1,1.0,1.0,0.262092138641,0,0.0,0.0,0.251528599299,0.267226803167,0.0703583015218,0.337585104688,0.196868501645,nan,nan,0.0,0.0,0.0,nan,nan,85.2543659881,272.933020258,273.195112397,273.433042781,nan,nan
0,159,4403,6,1,423,297,0.135229581944,0.450080889006,-0.750039916123,1,1.0,1.0,0.253872483503,0,0.0,0.0,0.256715098862,0.267194509679,0.0701378746705,0.33733238435,0.197056635009,nan,nan,0.0,0.0,0.0,nan,nan,85.2543659881,273.933152258,274.187024742,274.433193028,nan,nan
0,160,4404,6,1,248,174,0.568115903494,0.223728204869,0.653295769881,1,1.0,1.0,0.245735506527,0,0.0,0.0,0.25390004289,0.267111247015,0.0699262325516,0.337037479567,0.197185014464,nan,nan,0.0,0.0,0.0,nan,nan,85.2543659881,274.933289106,275.179024612,275.433303075,nan,nan
0,161,4405,6,1,74,52,1.0,-0.159715158178,-0.810443278181,1,1.0,1.0,0.253650962841,0,0.0,0.0,0.251086317624,0.266978478441,0.0697289590282,0.336707437469,0.197249519413,nan,nan,0.0,0.0,0.0,nan,nan,85.2543659881,275.933403715,276.187054677,276.433422246,nan,nan
0,162,4406,6,1,354,248,-0.174470673547,0.472100788149,0.0988677247603,1,1.0,1.0,0.269465338904,0,0.0,0.0,0.256283936091,0.266896209826,0.0695212504287,0.336417460255,0.197374959397,nan,nan,0.0,0.0,0.0,nan,nan,85.2543659881,276.933522315,277.202987654,277.433554532,nan,nan
0,163,4407,6,1,436,306,0.228681708805,0.431413732101,-1.0,1,1.0,1.0,0.26132465573,0,0.0,0.0,0.261480319158,0.266911971354,0.0693079573083,0.336219928663,0.197604014046,nan,nan,0.0,0.0,0.0,nan,nan,85.2543659881,277.933642056,278.194966712,278.433690238,nan,nan
0,164,4408,6,1,95,66,1.0,-0.253175017597,-0.514975443931,1,1.0,1.0,0.28513574088,0,0.0,0.0,0.271975245172,0.266877902357,0.0690976985066,0.335975600863,0.19778020385,nan,nan,0.0,0.0,0.0,nan,nan,85.2543659881,278.933801141,279.218936882,279.433815396,nan,nan
0,165,4409,6,1,386,271,-0.0833946583454,0.477495592553,-0.245424736514,1,1.0,1.0,0.268998919055,0,0.0,0.0,0.271819771888,0.266988555923,0.0689025665333,0.335891122457,0.19808598939,nan,nan,0.0,0.0,0.0,nan,nan,85.2543659881,279.93392972,280.202928639,280.433939414,nan,nan
0,166,4410,6,1,468,329,0.481236483515,0.363131620867,-1.0,1,1.0,1.0,0.236874381546,0,0.0,0.0,0.263669680494,0.267000666545,0.0686948913222,0.335695557867,0.198305775222,nan,nan,0.0,0.0,0.0,nan,nan,85.2543659881,280.934026653,281.170901035,281.434083103,nan,nan
0,167,4411,6,1,129,90,1.0,-0.310070485259,-0.146368003411,1,1.0,1.0,0.188737039454,0,0.0,0.0,0.231536780018,0.266820269628,0.0685283359341,0.335348605563,0.198291933694,nan,nan,0.0,0.0,0.0,nan,nan,85.2543659881,281.934187449,282.122924488,282.434212822,nan,nan
0,168,4412,6,1,458,322,0.399688045963,0.388050214986,-1.0,1,1.0,1.0,0.196608875412,0,0.0,0.0,0.207406765471,0.266355488496,0.068587573546,0.334943062042,0.19776791495,nan,nan,0.0,0.0,0.0,nan,nan,85.2543659881,282.934286663,283.130895538,283.434345678,nan,nan
0,169,4413,6,1,239,168,0.665069831863,0.183388857662,0.640549267122,1,1.0,1.0,0.22047897568,0,0.0,0.0,0.201941630182,0.265942786644,0.068593247836,0.33453603448,0.197349538808,nan,nan,0.0,0.0,0.0,nan,nan,85.2543659881,283.934442326,284.154921302,284.434471976,nan,nan
0,170,4414,6,1,464,326,0.448404880525,0.373503555275,-1.0,1,1.0,1.0,0.252255123574,0,0.0,0.0,0.223114324889,0.265675352462,0.0684795154497,0.334154867911,0.197195837012,nan,nan,0.0,0.0,0.0,nan,nan,85.2543659881,284.934566059,285.186821182,285.434601981,nan,nan
0,171,4415,6,1,203,142,1.0,-0.00249325098487,0.493674673203,1,1.0,1.0,0.244147511665,0,0.0,0.0,0.238960536973,0.265596871591,0.0682866565216,0.333883528113,0.19731021507,nan,nan,0.0,0.0,0.0,nan,nan,85.2543659881,285.934675251,286.178822763,286.434724003,nan,nan
0,172,4416,6,1,442,310,0.273907262724,0.421095538958,-1.0,1,1.0,1.0,0.24402777059,0,0.0,0.0,0.246810135276,0.26547216601,0.0681073850987,0.333579551109,0.197364780911,nan,nan,0.0,0.0,0.0,nan,nan,85.2543659881,286.934791856,287.178819627,287.434820366,nan,nan
0,173,4417,6,1,292,205,0.112881669716,0.376069582356,0.569261850688,1,1.0,1.0,0.290445687715,0,0.0,0.0,0.259540323323,0.265348209967,0.0679297128919,0.333277922859,0.197418497075,nan,nan,0.0,0.0,0.0,nan,nan,85.2543659881,287.968308812,288.258754499,288.468288284,nan,nan
0,174,4418,6,0,197,138,1.0,-0.035797595552,0.455774741445,0,0.0,1.0,0.450334249064,0,0.0,0.0,0.32826923579,0.265492448345,0.0677607947442,0.333253243089,0.197731653601,nan,nan,0.0,0.0,0.0,nan,nan,85.2543659881,288.968423706,289.418757955,289.468441952,nan,nan
0,175,4419,6,1,384,270,-0.0924750057551,0.477945316949,-0.222479273925,1,1.0,1.0,0.242236501072,0,0.0,0.0,0.32767214595,0.266548687206,0.0689884734538,0.33553716066,0.197560213753,nan,nan,0.0,0.0,0.0,nan,nan,85.2543659881,289.968502108,290.210738609,290.468554851,nan,nan
0,176,4420,6,1,324,227,-0.114799643766,0.441158325109,0.368064040095,1,1.0,1.0,0.218078166712,0,0.0,0.0,0.303549638949,0.266410549785,0.0688164712186,0.335227021004,0.197594078567,nan,nan,0.0,0.0,0.0,nan,nan,85.2543659881,290.968637529,291.186715696,291.468675732,nan,nan
0,177,4421,6,1,503,353,0.773020196022,0.248538461814,-1.0,1,1.0,1.0,0.281915275846,0,0.0,0.0,0.24740998121,0.266137485474,0.0687173529074,0.334854838381,0.197420132567,nan,nan,0.0,0.0,0.0,nan,nan,85.2543659881,291.968790342,292.250705617,292.468807733,nan,nan
0,178,4422,6,1,457,321,0.391639248186,0.390358177281,-1.0,1,1.0,1.0,0.377795384265,0,0.0,0.0,0.292596275608,0.266226124746,0.0685342013639,0.33476032611,0.197691923382,nan,nan,0.0,0.0,0.0,nan,nan,85.2543659881,292.968895542,293.346690927,293.46893232,nan,nan
0,179,4423,6,1,345,242,-0.173519535469,0.465595146217,0.186119282857,1,1.0,1.0,0.265640751459,0,0.0,0.0,0.308450470523,0.266849416698,0.0688465584848,0.335695975183,0.198002858214,nan,nan,0.0,0.0,0.0,nan,nan,85.2543659881,293.969036666,294.234677418,294.469050351,nan,nan
0,180,4424,6,1,58,40,1.0,-0.0760896648475,-1.0,1,1.0,1.0,0.28154978063,0,0.0,0.0,0.308328638785,0.266842701891,0.0686551104708,0.335497812362,0.198187591421,nan,nan,0.0,0.0,0.0,nan,nan,85.2543659881,294.969160398,295.250710179,295.469182921,nan,nan
0,181,4425,6,1,111,78,1.0,-0.298677811705,-0.336106236365,1,1.0,1.0,0.289324683137,0,0.0,0.0,0.278838405075,0.26692395647,0.0684738712124,0.335397827682,0.198450085258,nan,nan,0.0,0.0,0.0,nan,nan,85.2543659881,295.969310645,296.258635328,296.469302948,nan,nan
0,182,4426,6,1,24,16,1.0,0.102019060141,-1.0,1,1.0,1.0,0.281233036891,0,0.0,0.0,0.284035833552,0.267047037386,0.0683055712447,0.335352608631,0.198741466141,nan,nan,0.0,0.0,0.0,nan,nan,85.2543659881,296.96941385,297.250646887,297.469440935,nan,nan
0,183,4427,6,1,211,148,0.948675772315,0.0413606888024,0.538689155053,1,1.0,1.0,0.233090278227,0,0.0,0.0,0.267882666085,0.267124556509,0.0681267156047,0.335251272114,0.198997840904,nan,nan,0.0,0.0,0.0,nan,nan,85.2543659881,297.969518766,298.202609044,298.46955697,nan,nan
0,184,4428,6,0,376,264,-0.124962824795,0.478704673615,-0.132627625282,0,1.0,0.0,0.240910510998,0,0.0,0.0,0.251744608705,0.266939587605,0.0679873978567,0.334926985462,0.198952189748,nan,nan,0.0,0.0,0.0,nan,nan,85.2543659881,298.969688115,299.210598626,299.469722896,nan,nan
0,185,4429,6,1,214,150,0.920243657418,0.0575410437433,0.553854850604,1,1.0,1.0,0.136817589868,0,0.0,0.0,0.203606126364,0.266798889894,0.067830254104,0.334629143998,0.19896863579,nan,nan,0.0,0.0,0.0,nan,nan,85.2543659881,299.969811847,300.106629437,300.469853756,nan,nan
0,186,4430,6,1,153,107,1.0,-0.255547855702,0.0926213922694,1,1.0,1.0,0.280654002912,0,0.0,0.0,0.219460701259,0.2661000657,0.0683121719685,0.334412237669,0.197787893731,nan,nan,0.0,0.0,0.0,nan,nan,85.2543659881,300.96990821,301.250562213,301.469956677,nan,nan
0,187,4431,6,1,393,276,-0.0489456633786,0.475102171109,-0.327443230616,1,1.0,1.0,0.296466098633,0,0.0,0.0,0.237979230471,0.266177894241,0.0681375422617,0.334315436503,0.19804035198,nan,nan,0.0,0.0,0.0,nan,nan,85.2543659881,301.970059312,302.266525411,302.470074992,nan,nan
0,188,4432,6,0,288,202,0.150005133015,0.365331945294,0.586687239957,0,1.0,0.0,0.232317662798,0,0.0,0.0,0.269812588114,0.266339001711,0.0679917864295,0.334330788141,0.198347215282,nan,nan,0.0,0.0,0.0,nan,nan,85.2543659881,302.970205567,303.20252323,303.470230371,nan,nan
0,189,4433,6,1,484,340,0.614398947124,0.316112737715,-1.0,1,1.0,1.0,0.23220476415,0,0.0,0.0,0.25366284186,0.266158994627,0.0678565767101,0.334015571337,0.198302417917,nan,nan,0.0,0.0,0.0,nan,nan,85.2543659881,303.970321032,304.202525796,304.470322742,nan,nan
0,190,4434,6,1,284,199,0.188465149253,0.353984098999,0.602236276499,1,0.0,0.0,0.528016278055,0,0.0,0.0,0.330846235001,0.265980288151,0.0677223494734,0.333702637624,0.198257938678,nan,nan,0.0,0.0,0.0,nan,nan,85.2543659881,304.970451891,305.498468169,305.470493801,nan,nan
0,191,4435,6,1,399,280,-0.0164460389312,0.472031251936,-0.400274523968,1,1.0,1.0,0.455885388423,0,0.0,1.0,0.405368810209,0.267352204329,0.0701420968388,0.337494301167,0.19721010749,nan,nan,0.0,0.0,0.0,nan,nan,85.2543659881,305.970576765,306.426462153,306.470572203,nan,nan
0,192,4439,6,1,77,54,1.0,-0.174593022316,-0.756267193339,1,1.0,1.0,0.319790806621,1,0.0,0.0,0.4345641577,0.268334147996,0.071263272104,0.3395974201,0.197070875892,37.5041423603,75.0,1.0,-0.164714458691,-0.791355921409,-1.64476736027,1.20046539372,85.2543659881,306.97068168,307.290472487,307.470713611,308.795875376,310.004377677
0,193,4440,6,1,368,258,-0.150457169737,0.477793263397,-0.0457341785459,1,1.0,1.0,0.365486856084,0,0.0,0.0,0.380387683709,0.268600762807,0.0711743545243,0.339775117332,0.197426408283,nan,nan,0.0,0.0,0.0,nan,nan,85.2543659881,311.212878838,311.578365694,311.712933292,nan,nan
0,194,4441,6,1,188,132,1.0,-0.0857393506835,0.392804289229,1,1.0,1.0,0.333289618604,0,0.0,0.0,0.339522427103,0.269100175659,0.0713289084159,0.340429084075,0.197771267243,nan,nan,0.0,0.0,0.0,nan,nan,85.2543659881,312.21301654,312.546306159,312.713038493,nan,nan
0,195,4442,6,1,475,333,0.539218753276,0.343659807328,-1.0,1,1.0,1.0,0.333203518763,0,0.0,1.0,0.34399333115,0.26942935229,0.0712933596731,0.340722711963,0.198135992617,nan,nan,0.0,0.0,0.0,nan,nan,85.2543659881,313.21313229,313.546335809,313.71317477,nan,nan
0,196,4446,6,1,385,270,-0.0879796604702,0.477733444059,-0.233926720364,1,1.0,1.0,0.293052337132,1,0.0,0.0,0.3198484915,0.26975473069,0.0712562673434,0.341010998033,0.198498463347,-158.649019752,354.0,-0.174470673547,0.472100788149,0.0988677247603,-22.0541052477,1.00050718896,85.2543659881,314.213257163,314.5063095,314.713308766,316.030126002,317.038593978
0,197,4447,6,1,220,154,0.861731547614,0.0893272636146,0.581247684387,1,1.0,1.0,0.283127226401,0,0.0,0.0,0.303127694099,0.269872992652,0.0710944652135,0.340967457865,0.198778527438,nan,nan,0.0,0.0,0.0,nan,nan,85.2543659881,318.247117946,318.530245173,318.74714446,nan,nan
0,198,4448,6,0,486,341,0.631151757674,0.309603058574,-1.0,0,0.0,1.0,0.394950860646,0,0.0,0.0,0.323710141393,0.269939933226,0.0709209303391,0.340860863565,0.199019002887,nan,nan,0.0,0.0,0.0,nan,nan,85.2543659881,319.24727475,319.642225611,319.747302975,nan,nan
0,199,4449,6,1,158,111,1.0,-0.235949227405,0.139764106,1,1.0,1.0,0.290845395066,0,0.0,0.0,0.322974494038,0.270568128841,0.0712926348142,0.341860763656,0.199275494027,nan,nan,0.0,0.0,0.0,nan,nan,85.2543659881,320.247371683,320.538217078,320.747407606,nan,nan
0,200,4450,6,1,375,263,-0.128556699755,0.478682433309,-0.121605159467,1,1.0,1.0,0.306704245973,0,0.0,0.0,0.330833500562,0.270669515172,0.071128560637,0.341798075809,0.199540954535,nan,nan,0.0,0.0,0.0,nan,nan,85.2543659881,321.247500263,321.554204509,321.747532194,nan,nan
0,201,4451,6,1,179,125,1.0,-0.13461441766,0.323204131591,1,1.0,1.0,0.338552524336,0,0.0,0.0,0.312034055125,0.27084879244,0.070996687936,0.341845480376,0.199852104504,nan,nan,0.0,0.0,0.0,nan,nan,85.2543659881,322.247620859,322.586173383,322.747653075,nan,nan
0,202,4452,6,1,43,30,1.0,0.00424534395127,-1.0,1,1.0,1.0,0.354372316971,0,0.0,0.0,0.33320969576,0.27118395943,0.0709799711162,0.342163930546,0.200203988314,nan,nan,0.0,0.0,0.0,nan,nan,85.2543659881,323.247784505,323.602156822,323.747779944,nan,nan
0,203,4453,6,1,278,195,0.248285521772,0.335802812283,0.621962573991,1,1.0,1.0,0.338263434824,0,0.0,1.0,0.343729425377,0.271593754294,0.0710440710096,0.342637825304,0.200549683285,nan,nan,0.0,0.0,0.0,nan,nan,85.2543659881,324.247882864,324.586146299,324.747909378,nan,nan
0,204,4457,6,1,121,85,1.0,-0.310732805591,-0.229640808446,1,1.0,1.0,0.370108006522,1,0.0,0.0,0.354247919439,0.271920566454,0.0710225331214,0.342943099575,0.200898033333,4.86994171628,121.0,1.0,-0.310732805591,-0.229640808446,0.0519332837189,1.35877935961,85.2543659881,325.248009162,325.618117169,325.748032825,327.081541399,328.448373631
0,205,4458,6,1,241,169,0.64365311028,0.192605941253,0.644254782112,1,1.0,1.0,0.248815988656,0,0.0,0.0,0.319062476667,0.272399529576,0.071178600109,0.343578129685,0.201220929467,nan,nan,0.0,0.0,0.0,nan,nan,85.2543659881,329.665225877,329.914041866,330.165266647,nan,nan
0,206,4459,6,1,125,87,1.0,-0.311567427947,-0.187805059354,1,1.0,1.0,0.31265138695,0,0.0,0.0,0.310525127376,0.272285046368,0.0710245435408,0.343309589909,0.201260502827,nan,nan,0.0,0.0,0.0,nan,nan,85.2543659881,330.665352176,330.978003563,331.165412331,nan,nan
0,207,4500,6,1,468,329,0.481236483515,0.363131620867,-1.0,1,1.0,1.0,0.248476437293,0,0.0,0.0,0.269981270966,0.272480052844,0.0709080387469,0.343388091591,0.201572014097,nan,nan,0.0,0.0,0.0,nan,nan,85.2543659881,331.665516392,331.91399283,332.165538345,nan,nan
0,208,4501,6,1,28,19,1.0,0.082066132397,-1.0,1,1.0,1.0,0.296336093452,0,0.0,0.0,0.285821305898,0.272364650846,0.0707568644738,0.34312151532,0.201607786372,nan,nan,0.0,0.0,0.0,nan,nan,85.2543659881,332.665642976,332.961979069,333.165655805,nan,nan
0,209,4502,6,1,236,165,0.697004556276,0.169301754335,0.634065852989,1,1.0,1.0,0.296192119364,0,0.0,0.0,0.28033488337,0.272479346744,0.0706067662029,0.343086112947,0.201872580541,nan,nan,0.0,0.0,0.0,nan,nan,85.2543659881,333.665769274,333.961961393,334.165780107,nan,nan
0,210,4503,6,1,76,53,1.0,-0.169674511773,-0.773365826749,1,1.0,1.0,0.288057423197,0,0.0,0.0,0.293528545337,0.272592264709,0.0704573678467,0.343049632555,0.202134896862,nan,nan,0.0,0.0,0.0,nan,nan,85.2543659881,334.665890726,334.953948149,335.16593178,nan,nan
0,211,4504,6,0,231,162,0.749609680972,0.145151270079,0.620821461523,0,0.0,1.0,0.423905965872,0,0.0,0.0,0.336051836144,0.272665559299,0.0702982333861,0.342963792685,0.202367325913,nan,nan,0.0,0.0,0.0,nan,nan,85.2543659881,335.666028713,336.089934679,336.166053516,nan,nan
0,212,4505,6,1,186,130,1.0,-0.0967386681424,0.377881386018,1,1.0,1.0,0.287786010187,0,0.0,0.0,0.333249799752,0.273378957443,0.0708937002279,0.344272657671,0.202485257215,nan,nan,0.0,0.0,0.0,nan,nan,85.2543659881,336.666145603,336.953931613,337.166177819,nan,nan
0,213,4506,6,1,6,4,0.895129075663,0.186272780825,-1.0,1,1.0,1.0,0.23163029179,0,0.0,0.0,0.31444075595,0.273446596188,0.0707339436111,0.344180539799,0.202712652577,nan,nan,0.0,0.0,0.0,nan,nan,85.2543659881,337.666267625,337.897897917,338.166310675,nan,nan
0,214,4507,6,1,388,272,-0.0739633693698,0.476941921698,-0.268577162136,1,1.0,1.0,0.247480020393,0,0.0,0.0,0.255632107457,0.273251192897,0.0706260842494,0.343877277146,0.202625108647,nan,nan,0.0,0.0,0.0,nan,nan,85.2543659881,338.666409318,338.913889339,339.166405612,nan,nan
0,215,4508,6,1,201,141,1.0,-0.0135712615467,0.48142235136,1,1.0,1.0,0.239344469272,0,0.0,0.0,0.239484927151,0.273131326978,0.0704834611112,0.343614788089,0.202647865867,nan,nan,0.0,0.0,0.0,nan,nan,85.2543659881,339.666524213,339.905868682,340.166539609,nan,nan
0,216,4509,6,1,132,92,1.0,-0.307426825298,-0.115555361894,1,1.0,1.0,0.35117865121,0,0.0,0.0,0.279334380291,0.272974906341,0.0703575096412,0.343332415982,0.202617396699,nan,nan,0.0,0.0,0.0,nan,nan,85.2543659881,340.666626563,341.017805215,341.166681872,nan,nan
0,217,4510,6,1,479,336,0.572572153349,0.331768222426,-1.0,1,1.0,1.0,0.303104315884,0,0.0,0.0,0.297875812122,0.273335292262,0.0703947507132,0.343730042975,0.202940541548,nan,nan,0.0,0.0,0.0,nan,nan,85.2543659881,341.666795626,341.969899942,342.166797907,nan,nan
0,218,4511,6,1,192,135,1.0,-0.0635997558896,0.421658406928,1,1.0,1.0,0.286958085839,0,0.0,0.0,0.313747017644,0.273471847416,0.0702619107741,0.34373375819,0.203209936642,nan,nan,0.0,0.0,0.0,nan,nan,85.2543659881,342.666888283,342.953846369,343.166934754,nan,nan
0,219,4512,6,1,250,175,0.546428449327,0.232286661223,0.654747725831,1,1.0,1.0,0.246761003975,0,0.0,0.0,0.278941135233,0.273533428413,0.0701072081559,0.343640636569,0.203426220257,nan,nan,0.0,0.0,0.0,nan,nan,85.2543659881,343.667027696,343.9137887,344.167052214,nan,nan
0,220,4513,6,0,474,333,0.530901762182,0.346545376391,-1.0,0,0.0,1.0,0.414609496016,0,0.0,0.0,0.31610952861,0.273411735575,0.0699708713373,0.343382606912,0.203440864238,nan,nan,0.0,0.0,0.0,nan,nan,85.2543659881,344.667179083,345.081788579,345.16720132,nan,nan
0,221,4514,6,1,206,144,0.994723455659,0.014051917983,0.511316161583,1,1.0,1.0,0.198453743476,0,0.0,0.0,0.286608081156,0.274050639468,0.0704526290454,0.344503268514,0.203598010423,nan,nan,0.0,0.0,0.0,nan,nan,85.2543659881,345.667300534,345.865754278,346.167337312,nan,nan
0,222,4515,6,1,288,202,0.150005133015,0.365331945294,0.586687239957,1,1.0,1.0,0.254330065567,0,0.0,0.0,0.289131101687,0.27371011291,0.0704758206425,0.344185933552,0.203234292267,nan,nan,0.0,0.0,0.0,nan,nan,85.2543659881,346.667412293,346.921742358,347.167435956,nan,nan
0,223,4516,6,1,128,90,1.0,-0.310663006781,-0.156689791083,1,1.0,1.0,0.326157326344,0,0.0,0.0,0.259647045129,0.273623206868,0.0703295468125,0.34395275368,0.203293660055,nan,nan,0.0,0.0,0.0,nan,nan,85.2543659881,347.667553131,347.993710457,348.167571947,nan,nan
0,224,4517,6,1,217,152,0.891250405156,0.0735373331823,0.568048345461,1,1.0,1.0,0.318014932331,0,0.0,0.0,0.299500774747,0.273857734187,0.0702597280554,0.344117462242,0.203598006132,nan,nan,0.0,0.0,0.0,nan,nan,85.2543659881,348.667684846,348.985699778,349.167717347,nan,nan
0,225,4518,6,1,410,288,0.0492046846968,0.463921527344,-0.54316189137,1,1.0,1.0,0.309917869046,0,0.0,0.0,0.318030042574,0.274053988401,0.0701649287091,0.34421891711,0.203889059692,nan,nan,0.0,0.0,0.0,nan,nan,85.2543659881,349.667775222,349.977693091,350.167817987,nan,nan
0,226,4519,6,1,3,2,0.871087178923,0.199335109687,-1.0,1,1.0,1.0,0.44576983247,0,0.0,1.0,0.357900877949,0.274212678138,0.0700499790407,0.344262657179,0.204162699098,nan,nan,0.0,0.0,0.0,nan,nan,85.2543659881,350.667898955,351.113668787,351.16793003,nan,nan
0,227,4524,6,1,330,232,-0.139766326074,0.449518327743,0.319540245599,1,1.0,1.0,0.381296385545,1,0.0,0.0,0.378994695687,0.274968436527,0.0708129042851,0.345781340812,0.204155532242,-134.309722802,319.0,-0.0891891826932,0.433308674125,0.406137099325,-7.72152719787,1.64203174366,85.2543659881,351.676355526,352.057651912,352.176420528,353.501593127,355.151780094
0,228,4525,6,1,238,167,0.675741828754,0.178727669763,0.638511091232,1,1.0,1.0,0.361249161884,0,0.0,0.0,0.396105126633,0.275434787181,0.0710059346868,0.346440721868,0.204428852494,nan,nan,0.0,0.0,0.0,nan,nan,85.2543659881,356.360313471,356.721562633,356.860334853,nan,nan
0,229,4526,6,0,156,109,1.0,-0.244060613314,0.121041471254,0,0.0,1.0,0.417132896837,0,0.0,0.0,0.386559481422,0.275809522442,0.0710763197253,0.346885842167,0.204733202716,nan,nan,0.0,0.0,0.0,nan,nan,85.2543659881,357.360432357,357.777565253,357.860483389,nan,nan
0,230,4527,6,1,335,235,-0.155595990888,0.455627721073,0.276893227044,1,1.0,1.0,0.179312560707,0,0.0,0.0,0.319231539809,0.276423971896,0.0715285761918,0.347952548087,0.204895395704,nan,nan,0.0,0.0,0.0,nan,nan,85.2543659881,358.37422824,358.553540801,358.87728734,nan,nan
0,231,4528,6,1,502,352,0.764740937618,0.25241357569,-1.0,1,1.0,1.0,0.240206604358,0,0.0,0.0,0.278884020634,0.276003576176,0.0716577773524,0.347661353529,0.204345798824,nan,nan,0.0,0.0,0.0,nan,nan,85.2543659881,359.377365172,359.617571776,359.877414494,nan,nan
0,232,4529,6,1,58,40,1.0,-0.0760896648475,-1.0,1,1.0,1.0,0.271962510888,0,0.0,0.0,0.230493891984,0.275849278884,0.0715416221854,0.347390901069,0.204307656698,nan,nan,0.0,0.0,0.0,nan,nan,85.2543659881,360.377513423,360.649475934,360.877518554,nan,nan
0,233,4530,6,1,289,203,0.140592130943,0.368073254824,0.582505265782,1,1.0,1.0,0.367863716092,0,0.0,0.0,0.293344277112,0.275832597476,0.0713883864778,0.347220983954,0.204444210998,nan,nan,0.0,0.0,0.0,nan,nan,85.2543659881,361.377604654,361.74546837,361.877639721,nan,nan
0,234,4531,6,1,83,58,1.0,-0.203097876184,-0.665876706514,1,1.0,1.0,0.391724123154,0,0.0,0.0,0.343850116711,0.276225892855,0.0714882045453,0.3477140974,0.20473768831,nan,nan,0.0,0.0,0.0,nan,nan,85.2543659881,362.377731523,362.769455646,362.8777817,nan,nan
0,235,4532,6,1,354,248,-0.174470673547,0.472100788149,0.0988677247603,1,1.0,1.0,0.295574027579,0,0.0,1.0,0.351720622275,0.276717374686,0.0717310256317,0.348448400318,0.204986349054,nan,nan,0.0,0.0,0.0,nan,nan,85.2543659881,363.377858676,363.673432704,363.877923964,nan,nan
0,236,4536,6,1,442,310,0.273907262724,0.421095538958,-1.0,1,1.0,1.0,0.231476624496,1,0.0,0.0,0.30625825841,0.276797275757,0.0715893709462,0.348386646704,0.205207904811,168.640886611,400.0,-0.0107874812989,0.471427301814,-0.412692688905,-29.4221366114,0.717040125746,85.2543659881,364.377992672,364.609469296,364.87803002,366.203186938,366.928280792
0,237,4537,6,1,133,93,1.0,-0.306259573676,-0.105336427414,1,1.0,1.0,0.312572414521,0,0.0,0.0,0.279874355532,0.276606049381,0.0714985547813,0.348104604162,0.205107494599,nan,nan,0.0,0.0,0.0,nan,nan,85.2543659881,368.136793357,368.449365771,368.636849806,nan,nan
0,238,4538,6,1,373,262,-0.135407706169,0.478559568072,-0.0996974893599,1,1.0,1.0,0.232368980534,0,0.0,0.0,0.258806006517,0.276757168562,0.0713861088223,0.348143277384,0.20537105974,nan,nan,0.0,0.0,0.0,nan,nan,85.2543659881,369.136960139,369.36932912,369.636985227,nan,nan
0,239,4539,6,1,118,82,1.0,-0.308588151016,-0.261285249573,1,1.0,1.0,0.296271661762,0,0.0,0.0,0.280404352273,0.276571443926,0.0712942069292,0.347865650855,0.205277236997,nan,nan,0.0,0.0,0.0,nan,nan,85.2543659881,370.137049945,370.433321606,370.637089573,nan,nan
0,240,4540,6,1,28,19,1.0,0.082066132397,-1.0,1,1.0,1.0,0.304070227314,0,0.0,0.0,0.27757028987,0.276653528167,0.0711568386139,0.347810366781,0.205496689553,nan,nan,0.0,0.0,0.0,nan,nan,85.2543659881,371.13722528,371.441295507,371.637247803,nan,nan
0,241,4541,6,1,248,174,0.568115903494,0.223728204869,0.653295769881,1,1.0,1.0,0.351952122059,0,0.0,0.0,0.317431337045,0.276767290404,0.0710309242447,0.347798214649,0.205736366159,nan,nan,0.0,0.0,0.0,nan,nan,85.2543659881,372.137334757,372.48928688,372.637348157,nan,nan
0,242,4542,6,1,403,283,0.00657627305109,0.469456436931,-0.450524507496,1,1.0,1.0,0.383833470754,0,0.0,0.0,0.346618606709,0.277077971527,0.0710479095829,0.348125881109,0.206030061944,nan,nan,0.0,0.0,0.0,nan,nan,85.2543659881,373.137445661,373.521279132,373.637470464,nan,nan
0,243,4543,6,1,204,143,1.0,0.00303256528985,0.499654420455,1,1.0,1.0,0.495692742057,0,0.0,1.0,0.41049277829,0.277517294569,0.0712301884041,0.348747482973,0.206287106165,nan,nan,0.0,0.0,0.0,nan,nan,85.2543659881,374.137569108,374.63326185,374.654259305,nan,nan
0,244,4547,6,1,424,298,0.142174562463,0.448819569244,-0.770229420881,1,1.0,1.0,0.335510530509,1,0.0,0.0,0.405012247774,0.278411456239,0.0724377686166,0.350849224855,0.205973687622,176.516728531,389.0,-0.0691208065164,0.476626077068,-0.280234315682,-24.641728531,0.675362245645,85.2543659881,375.137726482,375.473237013,375.637718784,376.96289794,377.646315339
0,245,4548,6,1,19,13,0.99625917486,0.126374530333,-1.0,1,1.0,1.0,0.282325816806,0,0.0,0.0,0.371176363124,0.278644513685,0.0723813933561,0.351025907041,0.206263120329,nan,nan,0.0,0.0,0.0,nan,nan,85.2543659881,378.854839878,379.137165694,379.354866392,nan,nan
0,246,4549,6,1,340,239,-0.166837174664,0.460980112934,0.232376404312,1,1.0,1.0,0.250169633422,0,0.0,0.0,0.289335326913,0.278659478332,0.0722345066637,0.350893984995,0.206424971668,nan,nan,0.0,0.0,0.0,nan,nan,85.2543659881,379.854960474,380.105130108,380.354993831,nan,nan
0,247,4550,6,1,455,319,0.375608248681,0.394875365091,-1.0,1,1.0,1.0,0.197256903164,0,0.0,0.0,0.243250784464,0.27854413483,0.0721108311834,0.350654966013,0.206433303646,nan,nan,0.0,0.0,0.0,nan,nan,85.2543659881,380.915861075,381.113117978,381.421832164,nan,nan
0,248,4551,6,1,292,205,0.112881669716,0.376069582356,0.569261850688,1,1.0,1.0,0.295549224131,0,0.0,0.0,0.247658586906,0.278216363734,0.0721494318489,0.350365795583,0.206066931886,nan,nan,0.0,0.0,0.0,nan,nan,85.2543659881,381.913564042,382.209113266,382.413591412,nan,nan
0,249,4552,6,1,503,353,0.773020196022,0.248538461814,-1.0,1,1.0,1.0,0.311416058335,0,0.0,0.0,0.268074061877,0.278285973616,0.0720127518133,0.350298725429,0.206273221802,nan,nan,0.0,0.0,0.0,nan,nan,85.2543659881,382.91367466,383.225090718,383.413712008,nan,nan
0,250,4553,6,0,353,248,-0.175041255135,0.471490071959,0.108799216003,0,0.0,1.0,0.359221260995,0,0.0,0.0,0.322062181154,0.278418493954,0.0718989980907,0.350317492045,0.206519495864,nan,nan,0.0,0.0,0.0,nan,nan,85.2543659881,383.913859119,384.27308038,384.41387708,nan,nan
0,251,4554,6,1,32,22,1.0,0.061735800531,-1.0,1,1.0,1.0,0.263090266846,0,0.0,0.0,0.311242528725,0.278740417329,0.0719359375379,0.350676354867,0.206804479791,nan,nan,0.0,0.0,0.0,nan,nan,85.2543659881,384.91395035,385.177040617,385.414013927,nan,nan
0,252,4555,6,1,501,352,0.7564492333,0.256253544744,-1.0,1,1.0,1.0,0.28695523506,0,0.0,0.0,0.303088920967,0.278678313557,0.0717998074386,0.350478120996,0.206878506119,nan,nan,0.0,0.0,0.0,nan,nan,85.2543659881,385.914078644,386.201033879,386.414113711,nan,nan
0,253,4556,6,1,112,78,1.0,-0.300501516081,-0.325324861792,1,1.0,1.0,0.374801001977,0,0.0,0.0,0.308282167961,0.278711028662,0.071659652001,0.350370680663,0.207051376661,nan,nan,0.0,0.0,0.0,nan,nan,85.2543659881,386.914222333,387.289023335,387.414222904,nan,nan
0,254,4557,6,1,490,344,0.664660387652,0.296157848571,-1.0,1,1.0,1.0,0.32664370304,0,0.0,0.0,0.329466646692,0.279089335644,0.0717711443744,0.350860480018,0.207318191269,nan,nan,0.0,0.0,0.0,nan,nan,85.2543659881,387.914355189,388.240998892,388.414366308,nan,nan
0,255,4558,6,1,221,155,0.851781464038,0.0945411604707,0.585422935822,1,1.0,1.0,0.430501988623,0,0.0,1.0,0.377315564547,0.279275823359,0.0716919124549,0.350967735814,0.207583910904,nan,nan,0.0,0.0,0.0,nan,nan,85.2543659881,388.914482343,389.344984331,389.414476356,nan,nan
0,256,4601,6,1,343,241,-0.171388175652,0.463836419185,0.204822810802,1,1.0,1.0,0.278391466942,1,0.0,0.0,0.345179052868,0.279866550567,0.0721708922743,0.352037442841,0.207695658293,-154.526165048,348.0,-0.175384772129,0.468017843042,0.157582163916,3.35429004818,0.783706260379,85.2543659881,389.914582982,390.192974449,390.414609211,391.739778103,392.531538947
0,257,4602,6,1,262,184,0.416452475899,0.2804144186,0.652815538838,1,1.0,1.0,0.244576869532,0,0.0,0.0,0.317823441699,0.279860810942,0.0720304036669,0.351891214609,0.207830407275,nan,nan,0.0,0.0,0.0,nan,nan,85.2543659881,393.748388342,393.992965212,394.248435669,nan,nan
0,258,4603,6,1,318,223,-0.0835627602325,0.431640264478,0.413481556053,1,1.0,1.0,0.308373494074,0,0.0,0.0,0.277113943516,0.279724051479,0.0719240972541,0.351648148733,0.207799954225,nan,nan,0.0,0.0,0.0,nan,nan,85.2543659881,394.748524619,395.056898113,395.248559971,nan,nan
0,259,4604,6,1,128,90,1.0,-0.310663006781,-0.156689791083,1,1.0,1.0,0.316181753296,0,0.0,0.0,0.289710705634,0.279834667088,0.0718070981173,0.351641765205,0.20802756897,nan,nan,0.0,0.0,0.0,nan,nan,85.2543659881,395.748676576,396.064858329,396.248691116,nan,nan
0,260,4605,6,1,395,277,-0.0383984177995,0.474183508328,-0.351427224487,1,1.0,1.0,0.380069324281,0,0.0,0.0,0.334874857217,0.279974463573,0.0717041785754,0.351678642149,0.208270284998,nan,nan,0.0,0.0,0.0,nan,nan,85.2543659881,396.748787194,397.128856518,397.248811428,nan,nan
0,261,4606,6,1,502,352,0.764740937618,0.25241357569,-1.0,1,1.0,1.0,0.419916021638,0,0.0,1.0,0.372055699738,0.280357968787,0.0718333478088,0.352191316595,0.208524620978,nan,nan,0.0,0.0,0.0,nan,nan,85.2543659881,397.748912352,398.168828374,398.248947704,nan,nan
0,262,4611,6,1,340,239,-0.166837174664,0.460980112934,0.232376404312,1,1.0,1.0,0.451440143399,1,0.0,0.0,0.417141829773,0.28089063311,0.0722107260145,0.353101359125,0.208679907096,-150.543679227,342.0,-0.170052622031,0.462913557708,0.21407524247,1.4811792267,1.68381368509,85.2543659881,398.757372915,399.208813058,399.257399144,400.582591129,402.274448564
0,263,4612,6,1,181,127,1.0,-0.123914391386,0.3392011262,1,1.0,1.0,0.277777365874,0,0.0,0.0,0.383044510304,0.281539110336,0.0728336414585,0.354372751794,0.208705468877,nan,nan,0.0,0.0,0.0,nan,nan,85.2543659881,403.482963695,403.760741061,403.983011591,nan,nan
0,264,4613,6,1,317,222,-0.077772836126,0.429938605076,0.420733606481,1,1.0,1.0,0.261658505071,0,0.0,0.0,0.330292004781,0.281524861304,0.0726959353521,0.354220796656,0.208828925952,nan,nan,0.0,0.0,0.0,nan,nan,85.2543659881,404.483087712,404.744746218,404.983138175,nan,nan
0,265,4614,6,1,86,60,1.0,-0.21659106269,-0.625617802914,1,1.0,1.0,0.301466144156,0,0.0,0.0,0.2803006717,0.281449893922,0.0725688670497,0.354018760971,0.208881026872,nan,nan,0.0,0.0,0.0,nan,nan,85.2543659881,405.48322513,405.784691274,405.983256775,nan,nan
0,266,4615,6,1,240,168,0.654373017221,0.188015059697,0.642463954019,1,1.0,1.0,0.31729163928,0,0.0,0.0,0.293472096169,0.281525142983,0.072442688451,0.353967831434,0.209082454532,nan,nan,0.0,0.0,0.0,nan,nan,85.2543659881,406.483378227,406.800669866,406.983397614,nan,nan
0,267,4616,6,1,82,57,1.0,-0.198479155091,-0.679872484948,1,1.0,1.0,0.325176875107,0,0.0,0.0,0.314644886181,0.281659099898,0.0723398998991,0.353998999797,0.209319199999,nan,nan,0.0,0.0,0.0,nan,nan,85.2543659881,407.483476015,407.80865289,407.983516214,nan,nan
0,268,4617,6,0,510,358,0.830554458933,0.220436700166,-1.0,0,0.0,1.0,0.388985188678,0,0.0,0.0,0.343817901021,0.281821479656,0.0722535453012,0.354075024957,0.209567934355,nan,nan,0.0,0.0,0.0,nan,nan,85.2543659881,408.483656197,408.872641386,408.983665606,nan,nan
0,269,4618,6,1,227,159,0.791019951953,0.125257787881,0.608066708266,1,1.0,1.0,0.300884259399,0,0.0,0.0,0.338348774395,0.282219857756,0.0724133995682,0.354633257325,0.209806458188,nan,nan,0.0,0.0,0.0,nan,nan,85.2543659881,409.48373574,409.784619999,409.983796465,nan,nan
0,270,4619,6,1,325,228,-0.119404900653,0.442631039184,0.360186421743,1,1.0,1.0,0.348748192191,0,0.0,0.0,0.346205880089,0.28228898517,0.072288067947,0.354577053117,0.210000917223,nan,nan,0.0,0.0,0.0,nan,nan,85.2543659881,410.483851775,410.832599967,410.983899956,nan,nan
0,271,4620,6,1,54,37,1.0,-0.0546292063271,-1.0,1,1.0,1.0,0.364574827719,0,0.0,0.0,0.338069093103,0.282534222096,0.0722670073491,0.354801229445,0.210267214747,nan,nan,0.0,0.0,0.0,nan,nan,85.2543659881,411.484026825,411.848601652,411.98402654,nan,nan
0,272,4621,6,1,295,207,0.0860222946478,0.38372732295,0.554986075565,1,1.0,1.0,0.348455966916,0,0.0,0.0,0.353926328942,0.28283584197,0.0723047302137,0.355140572184,0.210531111756,nan,nan,0.0,0.0,0.0,nan,nan,85.2543659881,412.484112354,412.832568321,412.984168233,nan,nan
0,273,4622,6,1,46,32,1.0,-0.0117313672748,-1.0,1,1.0,1.0,0.340285633691,0,0.0,0.0,0.351105476109,0.283076208728,0.0722809729033,0.355357181631,0.210795235825,nan,nan,0.0,0.0,0.0,nan,nan,85.2543659881,413.484279136,413.82456477,413.984276855,nan,nan
0,274,4623,6,0,490,344,0.664660387652,0.296157848571,-1.0,0,0.0,1.0,0.412124868482,0,0.0,0.0,0.366955489696,0.28328500225,0.0722313833848,0.355516385634,0.211053618865,nan,nan,0.0,0.0,0.0,nan,nan,85.2543659881,414.484398307,414.896523175,414.984431949,nan,nan
0,275,4624,6,1,26,18,1.0,0.0920921692153,-1.0,1,1.0,1.0,0.275991227943,0,0.0,0.0,0.342800576705,0.283753510854,0.0725158159767,0.356269326831,0.211237694877,nan,nan,0.0,0.0,0.0,nan,nan,85.2543659881,415.484529452,415.76052068,415.984542281,nan,nan
0,276,4625,6,1,199,139,1.0,-0.0246761787097,0.468786302982,1,1.0,1.0,0.267873923294,0,0.0,0.0,0.318663339907,0.283725386641,0.0723858300347,0.356111216675,0.211339556606,nan,nan,0.0,0.0,0.0,nan,nan,85.2543659881,416.484632087,416.75250601,416.984668009,nan,nan
0,277,4626,6,1,255,179,0.492159363509,0.253017189294,0.656163111527,1,1.0,1.0,0.251717429142,0,0.0,0.0,0.26519419346,0.283668161141,0.0722613057466,0.355929466888,0.211406855395,nan,nan,0.0,0.0,0.0,nan,nan,85.2543659881,417.484756675,417.736474104,417.984795733,nan,nan
0,278,4627,6,1,376,264,-0.124962824795,0.478704673615,-0.132627625282,1,1.0,1.0,0.347598107997,0,0.0,0.0,0.289063153478,0.283553230451,0.0721565807019,0.355709811152,0.211396649749,nan,nan,0.0,0.0,0.0,nan,nan,85.2543659881,418.484878412,418.83247652,418.984927163,nan,nan
0,279,4628,6,1,27,18,1.0,0.0870912575778,-1.0,1,1.0,1.0,0.347451282199,0,0.0,0.0,0.31558893978,0.283782781983,0.0721287702348,0.355911552218,0.211654011748,nan,nan,0.0,0.0,0.0,nan,nan,85.2543659881,419.48501868,419.832469962,419.985073419,nan,nan
0,280,4629,6,1,131,92,1.0,-0.308451667147,-0.125800503078,1,1.0,1.0,0.347291057464,0,0.0,0.0,0.347446815887,0.284010169484,0.0720999628434,0.356110132327,0.21191020664,nan,nan,0.0,0.0,0.0,nan,nan,85.2543659881,420.485145548,420.832436606,420.985182041,nan,nan
0,281,4630,6,1,471,331,0.506014005179,0.354993781952,-1.0,1,1.0,1.0,0.379121944308,0,0.0,1.0,0.357954761324,0.284235368373,0.0720701398121,0.356305508186,0.212165228561,nan,nan,0.0,0.0,0.0,nan,nan,85.2543659881,421.485272702,421.864394646,421.985293799,nan,nan
0,282,4634,6,1,332,233,-0.146647089803,0.45205423783,0.302714191958,1,1.0,1.0,0.418997436296,1,0.0,0.0,0.381803479356,0.284571845593,0.0721630112636,0.356734856857,0.212408834329,-146.879312781,337.0,-0.160643365934,0.457858386897,0.259303564052,3.44181278127,1.09208887769,85.2543659881,422.485400426,422.904397862,422.985430646,424.310599253,425.410735302
0,283,4635,6,1,107,75,1.0,-0.290089771429,-0.379592780214,1,1.0,1.0,0.253108991776,0,0.0,0.0,0.35040945746,0.28504684768,0.072475692084,0.357522539764,0.212571155596,nan,nan,0.0,0.0,0.0,nan,nan,85.2543659881,426.619241879,426.872350871,427.119288065,nan,nan
0,284,4636,6,1,28,19,1.0,0.082066132397,-1.0,1,1.0,1.0,0.308959370479,0,0.0,0.0,0.32702193285,0.284934390441,0.0723727118853,0.357307102327,0.212561678556,nan,nan,0.0,0.0,0.0,nan,nan,85.2543659881,427.619368748,427.928328118,428.119426338,nan,nan
0,285,4637,6,0,325,228,-0.119404900653,0.442631039184,0.360186421743,0,0.0,1.0,0.356773695908,0,0.0,0.0,0.306280686054,0.285018688617,0.0722595966136,0.35727828523,0.212759092003,nan,nan,0.0,0.0,0.0,nan,nan,85.2543659881,428.619524126,428.976297822,429.119562044,nan,nan
0,286,4638,6,1,269,189,0.34171296506,0.305888347675,0.643262349404,1,1.0,1.0,0.260689742863,0,0.0,0.0,0.308807603084,0.285269580251,0.0722574028831,0.357526983134,0.213012177368,nan,nan,0.0,0.0,0.0,nan,nan,85.2543659881,429.619637595,429.880327338,430.119676939,nan,nan
0,287,4639,6,1,495,348,0.706485112283,0.278551693791,-1.0,1,1.0,1.0,0.340482066385,0,0.0,0.0,0.319315168386,0.285183936218,0.0721459489813,0.357329885199,0.213037987237,nan,nan,0.0,0.0,0.0,nan,nan,85.2543659881,430.61975363,430.960235696,431.119799246,nan,nan
0,288,4640,6,1,278,195,0.248285521772,0.335802812283,0.621962573991,1,1.0,1.0,0.348343353253,0,0.0,0.0,0.316505054167,0.285375943614,0.0720940059167,0.357469949531,0.213281937698,nan,nan,0.0,0.0,0.0,nan,nan,85.2543659881,431.619885345,431.968228699,432.119921552,nan,nan
0,289,4641,6,0,227,159,0.791019951953,0.125257787881,0.608066708266,0,0.0,1.0,0.468148015905,0,0.0,0.0,0.385657811848,0.285593823925,0.0720640894542,0.357657913379,0.21352973447,nan,nan,0.0,0.0,0.0,nan,nan,85.2543659881,432.6200584,433.088206416,433.12007351,nan,nan
0,290,4642,6,1,294,206,0.0948761993654,0.381212130724,0.559858230992,1,1.0,1.0,0.300051203463,0,0.0,0.0,0.37218085754,0.286223321138,0.0727313300949,0.358954651233,0.213491991043,nan,nan,0.0,0.0,0.0,nan,nan,85.2543659881,433.620149631,433.920200835,434.120178426,nan,nan
0,291,4643,6,0,133,93,1.0,-0.306259573676,-0.105336427414,0,0.0,1.0,0.395881704986,0,0.0,0.0,0.388026974785,0.286270839634,0.0726107638941,0.358881603528,0.21366007574,nan,nan,0.0,0.0,0.0,nan,nan,85.2543659881,434.620301303,435.016183008,435.120333804,nan,nan
0,292,4644,6,1,217,152,0.891250405156,0.0735373331823,0.568048345461,1,1.0,1.0,0.211751561146,0,0.0,0.0,0.302561489865,0.28664621931,0.0727686190174,0.359414838327,0.213877600293,nan,nan,0.0,0.0,0.0,nan,nan,85.2543659881,435.620412776,435.832164337,436.120465804,nan,nan
0,293,4645,6,0,100,70,1.0,-0.270427092546,-0.457439896749,0,0.0,1.0,0.39560259413,0,0.0,0.0,0.334411953421,0.286390606142,0.0727755318499,0.359166137992,0.213615074292,nan,nan,0.0,0.0,0.0,nan,nan,85.2543659881,436.620549908,437.016152503,437.120586116,nan,nan
0,294,4646,6,1,256,180,0.481312611765,0.257047908656,0.656065722404,1,1.0,1.0,0.275470069144,0,0.0,0.0,0.294274741473,0.286762075489,0.0729293795481,0.359691455037,0.213832695941,nan,nan,0.0,0.0,0.0,nan,nan,85.2543659881,437.620661097,437.896131166,438.12068761,nan,nan
0,295,4647,6,1,38,26,1.0,0.0306259494545,-1.0,1,1.0,1.0,0.314941007178,0,0.0,0.0,0.328671223484,0.286723797502,0.0728086237942,0.359532421296,0.213915173707,nan,nan,0.0,0.0,0.0,nan,nan,85.2543659881,438.629146748,438.944087755,439.129176398,nan,nan
0,296,4648,6,1,372,261,-0.138660017671,0.478458869494,-0.0888123791441,1,1.0,1.0,0.274835156277,0,0.0,0.0,0.288415410866,0.286819125913,0.0727039710467,0.359523096959,0.214115154866,nan,nan,0.0,0.0,0.0,nan,nan,85.2543659881,439.629259362,439.904094518,440.129279604,nan,nan
0,297,4649,6,1,169,118,1.0,-0.185917379452,0.239118302078,1,1.0,1.0,0.330694943201,0,0.0,0.0,0.306823702219,0.286778775847,0.0725847904072,0.359363566254,0.214193985439,nan,nan,0.0,0.0,0.0,nan,nan,85.2543659881,440.629375396,440.960070339,441.129402196,nan,nan
0,298,4650,6,1,459,322,0.407758158413,0.385709174134,-1.0,1,1.0,1.0,0.3785440512,0,0.0,0.0,0.328024716893,0.286926145536,0.0725073947162,0.359433540252,0.214418750819,nan,nan,0.0,0.0,0.0,nan,nan,85.2543659881,441.629513669,442.00805772,442.129528494,nan,nan
0,299,4651,6,1,243,170,0.622151010882,0.20168048164,0.647463484622,1,1.0,1.0,0.314389628358,0,0.0,0.0,0.34120954092,0.287232559936,0.0725790495024,0.359811609438,0.214653510433,nan,nan,0.0,0.0,0.0,nan,nan,85.2543659881,442.629639397,442.944029025,443.129672754,nan,nan
0,300,4652,6,1,73,51,1.0,-0.1546788618,-0.830916872461,1,1.0,1.0,0.298255086876,0,0.0,0.0,0.330396255478,0.287323083497,0.0724748889291,0.359797972426,0.214848194568,nan,nan,0.0,0.0,0.0,nan,nan,85.2543659881,443.629761704,443.928016791,444.12982186,nan,nan
0,301,4653,6,1,209,146,0.967301840512,0.0304835193525,0.52804999659,1,1.0,1.0,0.231605773326,0,0.0,0.0,0.28141682952,0.287359402445,0.0723571331321,0.359716535578,0.215002269313,nan,nan,0.0,0.0,0.0,nan,nan,85.2543659881,444.65641607,444.888021843,445.154916455,nan,nan
0,302,4654,6,1,463,325,0.440238315199,0.376011795327,-1.0,1,1.0,1.0,0.313018308021,0,0.0,0.0,0.280959722741,0.287174787779,0.0723082104346,0.359482998214,0.214866577345,nan,nan,0.0,0.0,0.0,nan,nan,85.2543659881,445.655018235,445.968036543,446.155050451,nan,nan
0,303,4655,6,0,108,75,1.0,-0.292426609412,-0.368663285579,0,1.0,0.0,0.256798157468,0,0.0,0.0,0.267140746272,0.287260079925,0.0722040066074,0.359464086533,0.215056073318,nan,nan,0.0,0.0,0.0,nan,nan,85.2543659881,446.655173328,446.911971486,447.155200412,nan,nan
0,304,4656,6,1,224,157,0.821619416966,0.11002478857,0.597264883709,1,1.0,1.0,0.336715924088,0,0.0,0.0,0.302177463192,0.287159876233,0.0721062516242,0.359266127857,0.215053624609,nan,nan,0.0,0.0,0.0,nan,nan,85.2543659881,447.655256577,447.991972501,448.155307895,nan,nan
0,305,4657,6,1,111,78,1.0,-0.298677811705,-0.336106236365,1,1.0,1.0,0.408539763186,0,0.0,0.0,0.334017948247,0.287322355079,0.0720436673853,0.359366022464,0.215278687693,nan,nan,0.0,0.0,0.0,nan,nan,85.2543659881,448.655388292,449.063928055,449.155425925,nan,nan
0,306,4658,6,1,493,346,0.689769084006,0.285700779988,-1.0,1,1.0,1.0,0.344364813529,0,0.0,1.0,0.363206833601,0.287718490399,0.0722578013221,0.359976291721,0.215460689077,nan,nan,0.0,0.0,0.0,nan,nan,85.2543659881,449.655545096,449.999909909,450.155556215,nan,nan
0,307,4702,6,1,169,118,1.0,-0.185917379452,0.239118302078,1,1.0,1.0,0.336246083025,1,0.0,0.0,0.363050219913,0.28790300611,0.072212192941,0.360115199051,0.215690813169,-15.482481714,150.0,1.0,-0.266152531622,0.0638227105866,-13.345643286,0.825392408762,85.2543659881,450.655663126,450.991909209,451.15568679,452.489185669,453.322621258
0,308,4703,6,1,10,7,0.926811495151,0.168400576072,-1.0,1,1.0,1.0,0.324320440646,0,0.0,0.0,0.3349771124,0.288059964152,0.0721473040806,0.360207268232,0.215912660071,nan,nan,0.0,0.0,0.0,nan,nan,85.2543659881,454.539484623,454.863805064,455.03950401,nan,nan
0,309,4704,6,1,79,55,1.0,-0.184296021705,-0.724170777997,1,1.0,1.0,0.332154073752,0,0.0,0.0,0.330906865808,0.288177311972,0.0720599013853,0.360237213357,0.216117410587,nan,nan,0.0,0.0,0.0,nan,nan,85.2543659881,455.539653971,455.871808045,456.039649125,nan,nan
0,310,4705,6,1,27,18,1.0,0.0870912575778,-1.0,1,1.0,1.0,0.300066598691,0,0.0,0.0,0.318847037697,0.288319172494,0.0719867863726,0.360305958866,0.216332386121,nan,nan,0.0,0.0,0.0,nan,nan,85.2543659881,456.539741782,456.83980838,457.039791103,nan,nan
0,311,4706,6,1,426,299,0.156193047225,0.446210853967,-0.81485970128,1,1.0,1.0,0.331884941086,0,0.0,0.0,0.321368537843,0.288356945568,0.0718740358489,0.360230981417,0.21648290972,nan,nan,0.0,0.0,0.0,nan,nan,85.2543659881,457.539875492,457.871760434,458.039893168,nan,nan
0,312,4707,6,1,205,144,1.0,0.00854800403903,0.505535240796,1,1.0,1.0,0.299772948492,0,0.0,0.0,0.310574829423,0.288496458375,0.0718009260387,0.360297384413,0.216695532336,nan,nan,0.0,0.0,0.0,nan,nan,85.2543659881,458.53998554,458.839758488,459.040031726,nan,nan
0,313,4708,6,1,144,101,1.0,-0.284423189345,0.00519445478499,1,1.0,1.0,0.315620110836,0,0.0,0.0,0.315759333471,0.2885324855,0.0716889608056,0.360221446305,0.216843524694,nan,nan,0.0,0.0,0.0,nan,nan,85.2543659881,459.540118966,459.855739077,460.040177126,nan,nan
0,314,4709,6,1,312,219,-0.0464483572634,0.420925197877,0.455573212045,1,1.0,1.0,0.283460790757,0,0.0,0.0,0.299617950028,0.288618751822,0.0715909853911,0.360209737213,0.217027766431,nan,nan,0.0,0.0,0.0,nan,nan,85.2543659881,460.540270923,460.823731714,461.040282612,nan,nan
0,315,4710,6,1,370,260,-0.144805996584,0.478178727438,-0.0671803333712,1,1.0,1.0,0.219339439645,0,0.0,0.0,0.272806780413,0.288602377343,0.071477847507,0.36008022485,0.217124529836,nan,nan,0.0,0.0,0.0,nan,nan,85.2543659881,461.54039323,461.75973267,462.040401783,nan,nan
0,316,4711,6,1,146,102,1.0,-0.278792578557,0.0248813210997,1,1.0,1.0,0.178828179371,0,0.0,0.0,0.227209469924,0.288383190831,0.0714706104636,0.359853801295,0.216912580367,nan,nan,0.0,0.0,0.0,nan,nan,85.2543659881,462.56488969,462.74371787,463.065549121,nan,nan
0,317,4712,6,1,255,179,0.492159363509,0.253017189294,0.656163111527,1,1.0,1.0,0.297987950966,0,0.0,0.0,0.232051856661,0.288037591426,0.0716217645084,0.359659355934,0.216415826917,nan,nan,0.0,0.0,0.0,nan,nan,85.2543659881,463.565658314,463.863646265,464.06569053,nan,nan
0,318,4713,6,1,30,21,1.0,0.071945658744,-1.0,1,1.0,1.0,0.265922143124,0,0.0,0.0,0.247579424487,0.288068881865,0.0715112331253,0.35958011499,0.216557648739,nan,nan,0.0,0.0,0.0,nan,nan,85.2543659881,464.565773779,464.831695922,465.065792025,nan,nan
0,319,4714,6,1,186,130,1.0,-0.0967386681424,0.377881386018,1,1.0,1.0,0.257752379868,0,0.0,0.0,0.273887491319,0.287999456351,0.0714097913027,0.359409247654,0.216589665049,nan,nan,0.0,0.0,0.0,nan,nan,85.2543659881,465.565890383,465.823642763,466.065920033,nan,nan
0,320,4715,6,1,308,216,-0.0186828559465,0.413097475488,0.481682330771,1,1.0,1.0,0.241662599612,0,0.0,0.0,0.255112374201,0.287904934237,0.0713181104798,0.359223044717,0.216586823758,nan,nan,0.0,0.0,0.0,nan,nan,85.2543659881,466.56601155,466.80767415,467.066043196,nan,nan
0,321,4716,6,1,77,54,1.0,-0.174593022316,-0.756267193339,1,1.0,1.0,0.241443073843,0,0.0,0.0,0.246952684441,0.28776087712,0.0712535513537,0.359014428474,0.216507325766,nan,nan,0.0,0.0,0.0,nan,nan,85.2543659881,467.566160086,467.80760316,468.066199715,nan,nan
0,322,4717,6,1,140,98,1.0,-0.294209249228,-0.0345777392028,1,1.0,1.0,0.217346605845,0,0.0,0.0,0.2334840931,0.287617033011,0.0711894875584,0.358806520569,0.216427545452,nan,nan,0.0,0.0,0.0,nan,nan,85.2543659881,468.566297503,468.783644109,469.066312328,nan,nan
0,323,4718,6,1,10,7,0.926811495151,0.168400576072,-1.0,1,1.0,1.0,0.217164713424,0,0.0,0.0,0.225318131037,0.287399477508,0.0711863280417,0.35858580555,0.216213149467,nan,nan,0.0,0.0,0.0,nan,nan,85.2543659881,469.566407836,469.783572549,470.066437772,nan,nan
0,324,4719,6,1,118,82,1.0,-0.308588151016,-0.261285249573,1,1.0,1.0,0.281023204327,0,0.0,0.0,0.238511507865,0.287182703545,0.0711830806151,0.35836578416,0.21599962293,nan,nan,0.0,0.0,0.0,nan,nan,85.2543659881,470.566537556,470.84756076,471.06655124,nan,nan
0,325,4720,6,1,59,41,1.0,-0.0814409933332,-1.0,1,1.0,1.0,0.272871117573,0,0.0,0.0,0.257019678441,0.28716375124,0.0710743025211,0.358238053761,0.216089448719,nan,nan,0.0,0.0,0.0,nan,nan,85.2543659881,471.56665359,471.839524708,472.066700917,nan,nan
0,326,4721,6,1,130,91,1.0,-0.309333154106,-0.136071487739,1,1.0,1.0,0.232726777904,0,0.0,0.0,0.262207033268,0.287119908805,0.0709696104578,0.358089519263,0.216150298348,nan,nan,0.0,0.0,0.0,nan,nan,85.2543659881,472.566770195,472.799496973,473.066815811,nan,nan
0,327,4722,6,1,66,46,1.0,-0.118568705386,-1.0,1,1.0,1.0,0.269575386774,0,0.0,0.0,0.258391094084,0.286953568956,0.0709246288431,0.357878197799,0.216028940112,nan,nan,0.0,0.0,0.0,nan,nan,85.2543659881,473.593921772,473.863497159,474.09193578,nan,nan
0,328,4723,6,1,281,197,0.218083397074,0.345068392493,0.612644422055,1,1.0,1.0,0.255454776343,0,0.0,0.0,0.252585647007,0.286900586693,0.0708229102429,0.357723496936,0.21607767645,nan,nan,0.0,0.0,0.0,nan,nan,85.2543659881,474.592020454,474.847475231,475.092070346,nan,nan
0,329,4724,6,1,33,23,1.0,0.0565990290419,-1.0,1,1.0,1.0,0.279333144426,0,0.0,0.0,0.268121102514,0.286805006722,0.0707363783316,0.357541385054,0.216068628391,nan,nan,0.0,0.0,0.0,nan,nan,85.2543659881,475.59215274,475.871485884,476.092200636,nan,nan
0,330,4725,6,1,482,338,0.597655625539,0.322480811492,-1.0,1,1.0,1.0,0.327145760413,0,0.0,0.0,0.287311227061,0.286782364715,0.0706303146942,0.357412679409,0.216152050021,nan,nan,0.0,0.0,0.0,nan,nan,85.2543659881,476.592288446,476.919434207,477.092349742,nan,nan
0,331,4726,6,1,8,5,0.91102658764,0.177400941622,-1.0,1,1.0,1.0,0.342995203566,0,0.0,0.0,0.316491369468,0.286904308509,0.0705583242791,0.357462632788,0.21634598423,nan,nan,0.0,0.0,0.0,nan,nan,85.2543659881,477.592428715,477.935423918,478.092444395,nan,nan
0,332,4727,6,0,507,356,0.805995650865,0.232688349973,-1.0,0,0.0,1.0,0.518825293984,0,0.0,0.0,0.396322085988,0.287073256988,0.0705190019773,0.357592258965,0.216554255011,nan,nan,0.0,0.0,0.0,nan,nan,85.2543659881,478.592569553,479.111394847,479.092611177,nan,nan
0,333,4728,6,1,106,74,1.0,-0.287630069369,-0.390564445695,1,1.0,1.0,0.2306997329,0,0.0,0.0,0.36417341015,0.287769209051,0.0715457886687,0.35931499772,0.216223420382,nan,nan,0.0,0.0,0.0,nan,nan,85.2543659881,479.592672473,479.823372206,480.092698417,nan,nan
0,334,4729,6,0,7,4,0.9030914636,0.181853060355,-1.0,0,0.0,1.0,0.374547264539,0,0.0,0.0,0.374690763808,0.287598342356,0.0715066165151,0.359104958871,0.216091725841,nan,nan,0.0,0.0,0.0,nan,nan,85.2543659881,480.592818443,480.967365708,481.092822719,nan,nan
0,335,4730,6,1,250,175,0.546428449327,0.232286661223,0.654747725831,1,1.0,1.0,0.182428965345,0,0.0,0.0,0.262558654261,0.287857891377,0.0715572014207,0.359415092798,0.216300689957,nan,nan,0.0,0.0,0.0,nan,nan,85.2543659881,481.592913095,481.775342061,482.092962988,nan,nan
0,336,4731,6,1,350,246,-0.175756816429,0.469490941964,0.138247479403,1,1.0,1.0,0.262349582277,0,0.0,0.0,0.273108604054,0.287544114812,0.0716810739428,0.359225188755,0.215863040869,nan,nan,0.0,0.0,0.0,nan,nan,85.2543659881,482.593042815,482.855392397,483.093088716,nan,nan
0,337,4732,6,1,474,333,0.530901762182,0.346545376391,-1.0,1,1.0,1.0,0.342124229763,0,0.0,0.0,0.262300925795,0.287469353588,0.0715877610512,0.359057114639,0.215881592536,nan,nan,0.0,0.0,0.0,nan,nan,85.2543659881,483.593209597,483.935333827,484.093208172,nan,nan
0,338,4733,6,1,280,196,0.228089347314,0.342018854333,0.61587222022,1,1.0,1.0,0.295976300258,0,0.0,0.0,0.300150037433,0.287631054405,0.0715433922235,0.359174446628,0.216087662181,nan,nan,0.0,0.0,0.0,nan,nan,85.2543659881,484.60731025,484.903286551,485.110029798,nan,nan
0,339,4734,6,1,5,3,0.88714030954,0.190659852496,-1.0,1,1.0,1.0,0.309163215104,0,0.0,0.0,0.315754581708,0.287655671649,0.0714392266802,0.359094898329,0.216216444969,nan,nan,0.0,0.0,0.0,nan,nan,85.2543659881,485.610120745,485.91928396,486.110151535,nan,nan
0,340,4735,6,1,269,189,0.34171296506,0.305888347675,0.643262349404,1,1.0,1.0,0.293007576838,0,0.0,0.0,0.299382364067,0.28771892913,0.0713435991553,0.359062528285,0.216375329975,nan,nan,0.0,0.0,0.0,nan,nan,85.2543659881,486.610246473,486.90325405,487.110279829,nan,nan
0,341,4736,6,1,112,78,1.0,-0.300501516081,-0.325324861792,1,1.0,1.0,0.324861841276,0,0.0,0.0,0.30901087774,0.287734438361,0.0712394869647,0.358973925325,0.216494951396,nan,nan,0.0,0.0,0.0,nan,nan,85.2543659881,487.610373912,487.935235753,488.110402137,nan,nan
0,342,4737,6,0,226,158,0.801265930663,0.120208988367,0.60458276857,0,0.0,1.0,0.444720387459,0,0.0,0.0,0.354196601858,0.287842998018,0.0711635010806,0.359006499099,0.216679496938,nan,nan,0.0,0.0,0.0,nan,nan,85.2543659881,488.610506482,489.055226869,489.1105444,nan,nan
0,343,4738,6,1,132,92,1.0,-0.307426825298,-0.115555361894,1,1.0,1.0,0.29259190429,0,0.0,0.0,0.354058044342,0.288300366501,0.0715613087793,0.35986167528,0.216739057721,nan,nan,0.0,0.0,0.0,nan,nan,85.2543659881,489.610615104,489.903207009,490.110683528,nan,nan
0,344,4739,6,1,305,214,0.00361192545304,0.406859252708,0.500196907155,1,1.0,1.0,0.252458968665,0,0.0,0.0,0.329923753471,0.288312841901,0.0714575930781,0.359770434979,0.216855248823,nan,nan,0.0,0.0,0.0,nan,nan,85.2543659881,490.610729714,490.863188683,491.110806405,nan,nan
0,345,4740,6,1,234,164,0.71814774995,0.15974031316,0.62913160129,1,1.0,1.0,0.300316344481,0,0.0,0.0,0.281789072479,0.288208917631,0.0713799856548,0.359588903286,0.216828931976,nan,nan,0.0,0.0,0.0,nan,nan,85.2543659881,491.610853446,491.911169791,492.110910466,nan,nan
0,346,4741,6,1,375,263,-0.128556699755,0.478682433309,-0.121605159467,1,1.0,1.0,0.212197739631,0,0.0,0.0,0.254991017592,0.288243910194,0.0712797241027,0.359523634297,0.216964186091,nan,nan,0.0,0.0,0.0,nan,nan,85.2543659881,492.611021654,492.823219393,493.111058717,nan,nan
0,347,4742,6,1,244,171,0.611372359265,0.206163547436,0.648880721676,1,1.0,1.0,0.300029536244,0,0.0,0.0,0.270847873452,0.288024756965,0.0712935812793,0.359318338244,0.216731175685,nan,nan,0.0,0.0,0.0,nan,nan,85.2543659881,493.611111745,493.911141281,494.11117133,nan,nan
0,348,4743,6,1,45,31,1.0,-0.0063957592436,-1.0,1,1.0,1.0,0.299895824865,0,0.0,0.0,0.270707700246,0.288059253457,0.0711939743931,0.35925322785,0.216865279064,nan,nan,0.0,0.0,0.0,nan,nan,85.2543659881,494.611236618,494.911132443,495.111319296,nan,nan
0,349,4744,6,1,218,153,0.881467392804,0.0788246127756,0.572559633417,1,1.0,1.0,0.227726732846,0,0.0,0.0,0.275884031318,0.288093169134,0.0710947194058,0.35918788854,0.216998449729,nan,nan,0.0,0.0,0.0,nan,nan,85.2543659881,495.611391141,495.839117873,496.111413378,nan,nan
0,350,4745,6,1,293,206,0.103830259013,0.378659598285,0.564617056734,1,1.0,1.0,0.211592476815,0,0.0,0.0,0.246405011509,0.287920693602,0.0710661649522,0.358986858554,0.21685452865,nan,nan,0.0,0.0,0.0,nan,nan,85.2543659881,496.611531979,496.823124456,497.111543668,nan,nan
0,351,4746,6,0,239,168,0.665069831863,0.183388857662,0.640549267122,0,1.0,0.0,0.379405901767,0,0.0,0.0,0.272908370476,0.287703234295,0.0710813772389,0.358784611534,0.216621857056,nan,nan,0.0,0.0,0.0,nan,nan,85.2543659881,497.611654856,497.991060758,498.111690208,nan,nan
0,352,4747,6,1,295,207,0.0860222946478,0.38372732295,0.554986075565,1,1.0,1.0,0.195325935259,0,0.0,0.0,0.262108104614,0.287963753237,0.0711479495985,0.359111702835,0.216815803638,nan,nan,0.0,0.0,0.0,nan,nan,85.2543659881,498.611780869,498.807106805,499.11179541,nan,nan
0,353,4748,6,0,367,258,-0.15309091083,0.477560897992,-0.0350816338538,0,1.0,0.0,0.235120174475,0,0.0,0.0,0.269950670501,0.287701323157,0.0712175033404,0.358918826498,0.216483819817,nan,nan,0.0,0.0,0.0,nan,nan,85.2543659881,499.611909734,499.847029908,500.111945941,nan,nan
0,354,4749,6,1,2,1,0.863024578927,0.203622855609,-1.0,1,1.0,1.0,0.219087413512,0,0.0,0.0,0.216511174416,0.287552788839,0.0711715767068,0.358724365546,0.216381212132,nan,nan,0.0,0.0,0.0,nan,nan,85.2543659881,500.612006382,500.831093795,501.11204487,nan,nan
0,355,4750,6,1,509,357,0.822386376617,0.224555004187,-1.0,1,1.0,1.0,0.306818570476,0,0.0,0.0,0.253675386154,0.287359928627,0.0711638368069,0.358523765434,0.21619609182,nan,nan,0.0,0.0,0.0,nan,nan,85.2543659881,501.612152637,501.918971207,502.112173164,nan,nan
0,356,4751,6,1,114,80,1.0,-0.303747463913,-0.303859371662,1,0.0,0.0,0.394681728445,0,0.0,0.0,0.306862570811,0.287414587733,0.0710712792557,0.358485866989,0.216343308478,nan,nan,0.0,0.0,0.0,nan,nan,85.2543659881,502.61227751,503.006959238,503.11229376,nan,nan
0,357,4752,6,0,233,163,0.728670395113,0.154909781369,0.626482233315,0,0.0,1.0,0.442521427758,0,0.0,0.0,0.38134057556,0.287715055915,0.0711977387436,0.358912794658,0.216517317171,nan,nan,0.0,0.0,0.0,nan,nan,85.2543659881,503.612420059,504.054941487,504.112457692,nan,nan
0,358,4753,6,1,509,357,0.822386376617,0.224555004187,-1.0,1,1.0,1.0,0.418426955584,0,0.0,0.0,0.418543370596,0.288147475948,0.0715661431409,0.359713619089,0.216581332807,nan,nan,0.0,0.0,0.0,nan,nan,85.2543659881,504.612516992,505.030943948,505.112575152,nan,nan
0,359,4754,6,1,99,69,1.0,-0.267176270739,-0.468793303331,1,1.0,1.0,0.337917896453,0,0.0,0.0,0.399622093265,0.288510371434,0.0717954899452,0.360305861379,0.216714881489,nan,nan,0.0,0.0,0.0,nan,nan,85.2543659881,505.621000078,505.958917974,506.12102146,nan,nan
0,360,4755,6,1,208,146,0.97651257568,0.025020743352,0.522574479073,1,1.0,1.0,0.337806708179,0,0.0,1.0,0.364717186739,0.288647614559,0.0717428468335,0.360390461393,0.216904767726,nan,nan,0.0,0.0,0.0,nan,nan,85.2543659881,506.621106419,506.958913127,507.121178264,nan,nan
0,361,4759,6,1,156,109,1.0,-0.244060613314,0.121041471254,1,1.0,1.0,0.505621274002,1,0.0,0.0,0.393781959545,0.288783789334,0.071689985626,0.36047377496,0.217093803708,-18.5116499545,154.0,1.0,-0.251813147593,0.102138173725,-1.1758500455,0.808721883688,85.2543659881,507.621239275,508.126860549,508.12131283,509.45478206,510.271540851
0,362,4800,6,1,219,153,0.871627318206,0.0840881726889,0.576959667802,1,1.0,1.0,0.278769221157,0,0.0,0.0,0.374065734446,0.28938278791,0.0724898834151,0.361872671325,0.216892904495,nan,nan,0.0,0.0,0.0,nan,nan,85.2543659881,511.480058548,511.758827769,511.98009561,nan,nan
0,363,4801,6,1,135,94,1.0,-0.303502321856,-0.0849788702499,1,1.0,1.0,0.334613042418,0,0.0,0.0,0.373001179192,0.289353549434,0.0723921037158,0.36174565315,0.216961445718,nan,nan,0.0,0.0,0.0,nan,nan,85.2543659881,512.480183706,512.814796748,512.980219628,nan,nan
0,364,4802,6,1,468,329,0.481236483515,0.363131620867,-1.0,1,1.0,1.0,0.406464821193,0,0.0,0.0,0.339949028256,0.289477888701,0.072331400192,0.361809288893,0.217146488509,nan,nan,0.0,0.0,0.0,nan,nan,85.2543659881,513.480315421,513.886780242,513.980353054,nan,nan
0,365,4803,6,1,332,233,-0.146647089803,0.45205423783,0.302714191958,1,1.0,1.0,0.358316360507,0,0.0,1.0,0.366464741373,0.289798400845,0.0724906247278,0.362289025572,0.217307776117,nan,nan,0.0,0.0,0.0,nan,nan,85.2543659881,514.48044286,514.83875922,514.980496743,nan,nan
0,366,4807,6,0,282,198,0.208142307666,0.34807905204,0.609295500931,0,0.0,1.0,0.350152869243,1,0.0,0.0,0.371644683648,0.289985608385,0.0724798253354,0.36246543372,0.217505783049,-106.970319018,280.0,0.228089347314,0.342018854333,0.61587222022,-1.31093098228,0.866964232642,85.2543659881,515.480598523,515.830751393,515.980638722,517.305787942,518.18088231
0,367,4808,6,1,423,297,0.135229581944,0.450080889006,-0.750039916123,1,1.0,1.0,0.249276421964,0,0.0,0.0,0.319248550572,0.290149551875,0.0724489337163,0.362598485591,0.217700618158,nan,nan,0.0,0.0,0.0,nan,nan,85.2543659881,519.389397155,519.638673577,519.88943878,nan,nan
0,368,4809,6,1,485,341,0.622774561467,0.312875618285,-1.0,1,1.0,1.0,0.249123609625,0,0.0,0.0,0.282850966944,0.290038483587,0.0723817117449,0.362420195332,0.217656771842,nan,nan,0.0,0.0,0.0,nan,nan,85.2543659881,520.389539419,520.638663028,520.889601285,nan,nan
0,369,4810,6,1,428,300,0.170378320166,0.443486568519,-0.86866140055,1,1.0,1.0,0.368977878708,0,0.0,0.0,0.289125970099,0.28992760317,0.0723148561702,0.36224245934,0.217612746999,nan,nan,0.0,0.0,0.0,nan,nan,85.2543659881,521.389662866,521.758640745,521.889691661,nan,nan
0,370,4811,6,1,305,214,0.00361192545304,0.406859252708,0.500196907155,1,1.0,1.0,0.288855127059,0,0.0,0.0,0.302318871797,0.290141252563,0.0723335897278,0.362474842291,0.217807662835,nan,nan,0.0,0.0,0.0,nan,nan,85.2543659881,522.389775765,522.678630892,522.889823947,nan,nan
0,371,4812,6,1,88,61,1.0,-0.225257592204,-0.599932847766,1,1.0,1.0,0.344635941554,0,0.0,0.0,0.334156315774,0.290137785917,0.0722360701041,0.362373856022,0.217901715813,nan,nan,0.0,0.0,0.0,nan,nan,85.2543659881,523.389971627,523.734607569,523.889950815,nan,nan
0,372,4813,6,1,400,281,-0.0107874812989,0.471427301814,-0.412692688905,1,1.0,1.0,0.376542664599,0,0.0,0.0,0.33667791107,0.290284286336,0.0721940811193,0.362478367455,0.218090205216,nan,nan,0.0,0.0,0.0,nan,nan,85.2543659881,524.390042902,524.766585566,524.890077684,nan,nan
0,373,4814,6,1,209,146,0.967301840512,0.0304835193525,0.52804999659,1,1.0,1.0,0.320384950377,0,0.0,0.0,0.347187852177,0.290515542042,0.0722350777707,0.362750619812,0.218280464271,nan,nan,0.0,0.0,0.0,nan,nan,85.2543659881,525.390190297,525.710575248,525.890213675,nan,nan
0,374,4815,6,1,469,329,0.489482198204,0.360453357602,-1.0,1,1.0,1.0,0.288231617771,0,0.0,0.0,0.328386410916,0.29059540677,0.0721549303429,0.362750337113,0.218440476427,nan,nan,0.0,0.0,0.0,nan,nan,85.2543659881,526.390306332,526.67853795,526.890331421,nan,nan
0,375,4816,6,1,1,0,0.854939129564,0.207877072944,-1.0,1,1.0,1.0,0.288140101824,0,0.0,0.0,0.298918889991,0.290589103332,0.0720587626579,0.36264786599,0.218530340674,nan,nan,0.0,0.0,0.0,nan,nan,85.2543659881,527.390423792,527.678563894,527.890479101,nan,nan
0,376,4817,6,1,190,133,1.0,-0.0746884387243,0.407399635172,1,1.0,1.0,0.319941338617,0,0.0,0.0,0.298771019404,0.290582590031,0.0719629865721,0.362545576603,0.218619603458,nan,nan,0.0,0.0,0.0,nan,nan,85.2543659881,528.390574324,528.710515663,528.890608536,nan,nan
0,377,4818,6,1,60,42,1.0,-0.0867837676833,-1.0,1,1.0,1.0,0.27983463183,0,0.0,0.0,0.295972024091,0.290660464695,0.0718833440069,0.362543808702,0.218777120688,nan,nan,0.0,0.0,0.0,nan,nan,85.2543659881,529.390703188,529.67053782,529.890737115,nan,nan
0,378,4819,6,1,511,359,0.838703193994,0.216284169582,-1.0,1,1.0,1.0,0.295708023012,0,0.0,0.0,0.298494664486,0.290631824926,0.071790350977,0.362422175903,0.218841473949,nan,nan,0.0,0.0,0.0,nan,nan,85.2543659881,530.390814092,530.686522115,530.890845737,nan,nan
0,379,4820,6,1,307,215,-0.0113868739462,0.411053355611,0.487957006857,1,1.0,1.0,0.271531158127,0,0.0,0.0,0.282357937656,0.290645218588,0.0716960510922,0.36234126968,0.218949167496,nan,nan,0.0,0.0,0.0,nan,nan,85.2543659881,531.390926705,531.662457863,531.890970895,nan,nan
0,380,4821,6,1,432,303,0.199227897075,0.437687328843,-1.0,1,1.0,1.0,0.287359503563,0,0.0,0.0,0.284866228234,0.290594918429,0.0716083478699,0.362203266299,0.218986570559,nan,nan,0.0,0.0,0.0,nan,nan,85.2543659881,532.391079803,532.678439306,532.891119716,nan,nan
0,381,4822,6,1,309,217,-0.0258396312562,0.415106541901,0.475305697888,1,1.0,1.0,0.375223801937,0,0.0,0.0,0.311371487876,0.290586426527,0.0715145035049,0.362100930032,0.219071923022,nan,nan,0.0,0.0,0.0,nan,nan,85.2543659881,533.391211518,533.76643532,533.891229194,nan,nan
0,382,4823,6,1,504,354,0.78128615449,0.244628286196,-1.0,1,1.0,1.0,0.359084699303,0,0.0,0.0,0.340556001601,0.290807990337,0.0715516555862,0.362359645923,0.21925633475,nan,nan,0.0,0.0,0.0,nan,nan,85.2543659881,534.391324131,534.750408831,534.891366041,nan,nan
0,383,4824,6,1,197,138,1.0,-0.035797595552,0.455774741445,1,1.0,1.0,0.302921283524,0,0.0,0.0,0.345743261588,0.290986258506,0.0715430779095,0.362529336416,0.219443180597,nan,nan,0.0,0.0,0.0,nan,nan,85.2543659881,535.391458983,535.694380266,535.891478369,nan,nan
0,384,4825,6,1,508,357,0.814199817736,0.228638933499,-1.0,1,1.0,1.0,0.310796255246,0,0.0,0.0,0.324267412691,0.291017339301,0.0714524512029,0.362469790503,0.219564888098,nan,nan,0.0,0.0,0.0,nan,nan,85.2543659881,536.391566465,536.70236272,536.891613506,nan,nan
0,385,4826,6,1,424,298,0.142174562463,0.448819569244,-0.770229420881,1,1.0,1.0,0.230650125537,0,0.0,0.0,0.281455888102,0.291068713108,0.0713666963334,0.362435409442,0.219702016775,nan,nan,0.0,0.0,0.0,nan,nan,85.2543659881,537.391704167,537.622354292,537.891755485,nan,nan
0,386,4827,6,1,0,0,0.846831709088,0.212097570855,-1.0,1,1.0,1.0,0.19852359267,0,0.0,0.0,0.246656657817,0.29091218827,0.07134033237,0.36225252064,0.2195718559,nan,nan,0.0,0.0,0.0,nan,nan,85.2543659881,538.391823052,538.590346645,538.891871234,nan,nan
