block,trial,freq_trials,correct_response,actual_response,acc,rts,probe_trials,trials_colorind0,trials_colorind1,trials_colorind2,trials_colorind3,trials_colorind4,trials_colorind5,wholereport_resp0,wholereport_resp1,wholereport_resp2,wholereport_resp3,wholereport_resp4,wholereport_resp5,wholereport_respacc0,wholereport_respacc1,wholereport_respacc2,wholereport_respacc3,wholereport_respacc4,wholereport_respacc5,wholereport_respacc_total,wholereport_respcolorind0,wholereport_respcolorind1,wholereport_respcolorind2,wholereport_respcolorind3,wholereport_respcolorind4,wholereport_respcolorind5,wholereport_resporder0,wholereport_resporder1,wholereport_resporder2,wholereport_resporder3,wholereport_resporder4,wholereport_resporder5,wholereport_rts0,wholereport_rts1,wholereport_rts2,wholereport_rts3,wholereport_rts4,wholereport_rts5,time_blockstart,time_encarray_offset,time_encarray_onset,time_response,time_iti_offset,time_iti_onset,time_memprobe_offset,time_memprobe_onset
1,1,1,1,1.0,1.0,0.7256176639348269,0.0,4,3,6,0,7,5,nan,nan,nan,nan,nan,nan,nan,nan,nan,nan,nan,nan,0.0,nan,nan,nan,nan,nan,nan,nan,nan,nan,nan,nan,nan,nan,nan,nan,nan,nan,nan,198.51193304453045,199.53827951243147,nan,200.2638971763663,nan,nan,nan,nan
1,2,1,1,1.0,1.0,0.3410380925051868,0.0,7,2,4,0,3,5,nan,nan,nan,nan,nan,nan,nan,nan,nan,nan,nan,nan,0.0,nan,nan,nan,nan,nan,nan,nan,nan,nan,nan,nan,nan,nan,nan,nan,nan,nan,nan,198.51193304453045,200.54689070256427,nan,200.88792879506946,nan,nan,nan,nan
1,3,1,1,1.0,1.0,0.3646855093538761,0.0,0,7,1,6,8,4,nan,nan,nan,nan,nan,nan,nan,nan,nan,nan,nan,nan,0.0,nan,nan,nan,nan,nan,nan,nan,nan,nan,nan,nan,nan,nan,nan,nan,nan,nan,nan,198.51193304453045,201.55520909419283,nan,201.9198946035467,nan,nan,nan,nan
1,4,1,1,1.0,1.0,0.2841350706294179,0.0,3,8,5,1,6,7,nan,nan,nan,nan,nan,nan,nan,nan,nan,nan,nan,nan,0.0,nan,nan,nan,nan,nan,nan,nan,nan,nan,nan,nan,nan,nan,nan,nan,nan,nan,nan,198.51193304453045,202.56375072011724,nan,202.84788579074666,nan,nan,nan,nan
1,5,1,1,1.0,1.0,0.2997012999840081,0.0,2,3,8,7,4,1,nan,nan,nan,nan,nan,nan,nan,nan,nan,nan,nan,nan,0.0,nan,nan,nan,nan,nan,nan,nan,nan,nan,nan,nan,nan,nan,nan,nan,nan,nan,nan,198.51193304453045,203.5721814413555,nan,203.8718827413395,nan,nan,nan,nan
1,6,1,1,1.0,1.0,0.3552056164480746,0.0,7,1,2,4,0,6,nan,nan,nan,nan,nan,nan,nan,nan,nan,nan,nan,nan,0.0,nan,nan,nan,nan,nan,nan,nan,nan,nan,nan,nan,nan,nan,nan,nan,nan,nan,nan,198.51193304453045,204.58066490665078,nan,204.93587052309886,nan,nan,nan,nan
1,7,1,1,1.0,1.0,0.3787005036137998,0.0,8,2,3,5,6,1,nan,nan,nan,nan,nan,nan,nan,nan,nan,nan,nan,nan,0.0,nan,nan,nan,nan,nan,nan,nan,nan,nan,nan,nan,nan,nan,nan,nan,nan,nan,nan,198.51193304453045,205.58916661841795,nan,205.96786712203175,nan,nan,nan,nan
1,8,1,1,1.0,1.0,0.3141898470930755,0.0,1,5,0,7,2,4,nan,nan,nan,nan,nan,nan,nan,nan,nan,nan,nan,nan,0.0,nan,nan,nan,nan,nan,nan,nan,nan,nan,nan,nan,nan,nan,nan,nan,nan,nan,nan,198.51193304453045,206.59766918513924,nan,206.91185903223231,nan,nan,nan,nan
1,9,1,1,1.0,1.0,0.37772346287965775,0.0,4,0,8,1,7,5,nan,nan,nan,nan,nan,nan,nan,nan,nan,nan,nan,nan,0.0,nan,nan,nan,nan,nan,nan,nan,nan,nan,nan,nan,nan,nan,nan,nan,nan,nan,nan,198.51193304453045,207.6061292719096,nan,207.98385273478925,nan,nan,nan,nan
1,10,1,1,1.0,1.0,0.30525392666459084,0.0,7,4,5,3,8,2,nan,nan,nan,nan,nan,nan,nan,nan,nan,nan,nan,nan,0.0,nan,nan,nan,nan,nan,nan,nan,nan,nan,nan,nan,nan,nan,nan,nan,nan,nan,nan,198.51193304453045,208.6145962011069,nan,208.9198501277715,nan,nan,nan,nan
1,11,1,1,1.0,1.0,0.31277574598789215,0.0,8,2,6,0,4,1,nan,nan,nan,nan,nan,nan,nan,nan,nan,nan,nan,nan,0.0,nan,nan,nan,nan,nan,nan,nan,nan,nan,nan,nan,nan,nan,nan,nan,nan,nan,nan,198.51193304453045,209.62306997319683,nan,209.93584571918473,nan,nan,nan,nan
1,12,1,1,1.0,1.0,0.2802984667941928,0.0,6,1,0,4,3,7,nan,nan,nan,nan,nan,nan,nan,nan,nan,nan,nan,nan,0.0,nan,nan,nan,nan,nan,nan,nan,nan,nan,nan,nan,nan,nan,nan,nan,nan,nan,nan,198.51193304453045,210.6315503017977,nan,210.91184876859188,nan,nan,nan,nan
1,13,1,1,1.0,1.0,0.2637928295880556,0.0,0,4,2,6,1,3,nan,nan,nan,nan,nan,nan,nan,nan,nan,nan,nan,nan,0.0,nan,nan,nan,nan,nan,nan,nan,nan,nan,nan,nan,nan,nan,nan,nan,nan,nan,nan,198.51193304453045,211.64003262668848,nan,211.90382545627654,nan,nan,nan,nan
1,14,1,1,1.0,1.0,0.25563694536685944,0.0,1,6,4,0,2,5,nan,nan,nan,nan,nan,nan,nan,nan,nan,nan,nan,nan,0.0,nan,nan,nan,nan,nan,nan,nan,nan,nan,nan,nan,nan,nan,nan,nan,nan,nan,nan,198.51193304453045,212.64018087927252,nan,212.89581782463938,nan,nan,nan,nan
1,15,1,1,1.0,1.0,0.23117784643545747,0.0,6,4,3,7,5,1,nan,nan,nan,nan,nan,nan,nan,nan,nan,nan,nan,nan,0.0,nan,nan,nan,nan,nan,nan,nan,nan,nan,nan,nan,nan,nan,nan,nan,nan,nan,nan,198.51193304453045,213.64864752348512,nan,213.87982536992058,nan,nan,nan,nan
1,16,1,1,1.0,1.0,0.25465961918234825,0.0,2,1,7,6,4,0,nan,nan,nan,nan,nan,nan,nan,nan,nan,nan,nan,nan,0.0,nan,nan,nan,nan,nan,nan,nan,nan,nan,nan,nan,nan,nan,nan,nan,nan,nan,nan,198.51193304453045,214.65714467363432,nan,214.91180429281667,nan,nan,nan,nan
1,17,1,1,1.0,1.0,0.27018964057788253,0.0,7,2,1,8,3,6,nan,nan,nan,nan,nan,nan,nan,nan,nan,nan,nan,nan,0.0,nan,nan,nan,nan,nan,nan,nan,nan,nan,nan,nan,nan,nan,nan,nan,nan,nan,nan,198.51193304453045,215.6656173048541,nan,215.93580694543198,nan,nan,nan,nan
1,18,1,1,1.0,1.0,0.24571571592241526,0.0,0,3,7,5,4,8,nan,nan,nan,nan,nan,nan,nan,nan,nan,nan,nan,nan,0.0,nan,nan,nan,nan,nan,nan,nan,nan,nan,nan,nan,nan,nan,nan,nan,nan,nan,nan,198.51193304453045,216.67408737028018,nan,216.9198030862026,nan,nan,nan,nan
1,19,1,1,1.0,1.0,0.20521284360438585,0.0,5,8,4,7,6,2,nan,nan,nan,nan,nan,nan,nan,nan,nan,nan,nan,nan,0.0,nan,nan,nan,nan,nan,nan,nan,nan,nan,nan,nan,nan,nan,nan,nan,nan,nan,nan,198.51193304453045,217.68257140554488,nan,217.88778424914926,nan,nan,nan,nan
1,20,1,1,1.0,1.0,0.21272211847826838,0.0,0,2,6,1,4,8,nan,nan,nan,nan,nan,nan,nan,nan,nan,nan,nan,nan,0.0,nan,nan,nan,nan,nan,nan,nan,nan,nan,nan,nan,nan,nan,nan,nan,nan,nan,nan,198.51193304453045,218.69105544080958,nan,218.90377755928785,nan,nan,nan,nan
1,21,0,0,1.0,0.0,0.22055697906762362,0.0,5,0,3,8,2,7,nan,nan,nan,nan,nan,nan,nan,nan,nan,nan,nan,nan,0.0,nan,nan,nan,nan,nan,nan,nan,nan,nan,nan,nan,nan,nan,nan,nan,nan,nan,nan,198.51193304453045,219.69121281662956,nan,219.91176979569718,nan,nan,nan,nan
1,22,1,1,1.0,1.0,0.4520695339888334,0.0,4,3,7,6,1,0,nan,nan,nan,nan,nan,nan,nan,nan,nan,nan,nan,nan,0.0,nan,nan,nan,nan,nan,nan,nan,nan,nan,nan,nan,nan,nan,nan,nan,nan,nan,nan,198.51193304453045,220.69968402246013,nan,221.15175355644897,nan,nan,nan,nan
1,23,1,1,1.0,1.0,0.3876104801893234,0.0,7,6,0,8,3,4,nan,nan,nan,nan,nan,nan,nan,nan,nan,nan,nan,nan,0.0,nan,nan,nan,nan,nan,nan,nan,nan,nan,nan,nan,nan,nan,nan,nan,nan,nan,nan,198.51193304453045,221.7081441092305,nan,222.0957545894198,nan,nan,nan,nan
1,24,1,1,1.0,1.0,0.30712903616949916,0.0,1,3,4,0,6,5,nan,nan,nan,nan,nan,nan,nan,nan,nan,nan,nan,nan,0.0,nan,nan,nan,nan,nan,nan,nan,nan,nan,nan,nan,nan,nan,nan,nan,nan,nan,nan,198.51193304453045,222.71663071028888,nan,223.02375974645838,nan,nan,nan,nan
1,25,1,1,1.0,1.0,0.40262475376948714,0.0,8,6,7,5,4,0,nan,nan,nan,nan,nan,nan,nan,nan,nan,nan,nan,nan,0.0,nan,nan,nan,nan,nan,nan,nan,nan,nan,nan,nan,nan,nan,nan,nan,nan,nan,nan,198.51193304453045,223.72511560097337,nan,224.12774035474285,nan,nan,nan,nan
1,26,1,1,1.0,1.0,0.2661446277052164,0.0,3,8,5,4,6,1,nan,nan,nan,nan,nan,nan,nan,nan,nan,nan,nan,nan,0.0,nan,nan,nan,nan,nan,nan,nan,nan,nan,nan,nan,nan,nan,nan,nan,nan,nan,nan,198.51193304453045,224.73359650047496,nan,224.99974112818018,nan,nan,nan,nan
1,27,1,1,1.0,1.0,0.25768596632406116,0.0,7,3,1,6,4,2,nan,nan,nan,nan,nan,nan,nan,nan,nan,nan,nan,nan,0.0,nan,nan,nan,nan,nan,nan,nan,nan,nan,nan,nan,nan,nan,nan,nan,nan,nan,nan,198.51193304453045,225.74205345101655,nan,225.9997394173406,nan,nan,nan,nan
1,28,1,1,1.0,1.0,0.2811765777878463,0.0,8,6,7,4,3,5,nan,nan,nan,nan,nan,nan,nan,nan,nan,nan,nan,nan,0.0,nan,nan,nan,nan,nan,nan,nan,nan,nan,nan,nan,nan,nan,nan,nan,nan,nan,nan,198.51193304453045,226.7505417629145,nan,227.03171834070235,nan,nan,nan,nan
1,29,1,1,1.0,1.0,0.36070549953728914,0.0,6,3,8,7,2,0,nan,nan,nan,nan,nan,nan,nan,nan,nan,nan,nan,nan,0.0,nan,nan,nan,nan,nan,nan,nan,nan,nan,nan,nan,nan,nan,nan,nan,nan,nan,nan,198.51193304453045,227.75901524955407,nan,228.11972074909136,nan,nan,nan,nan
1,30,1,1,1.0,1.0,0.36822731932625175,0.0,2,1,4,6,8,5,nan,nan,nan,nan,nan,nan,nan,nan,nan,nan,nan,nan,0.0,nan,nan,nan,nan,nan,nan,nan,nan,nan,nan,nan,nan,nan,nan,nan,nan,nan,nan,198.51193304453045,228.7674813233316,nan,229.13570864265785,nan,nan,nan,nan
1,31,1,1,1.0,1.0,0.31204845337197185,0.0,1,8,6,3,5,0,nan,nan,nan,nan,nan,nan,nan,nan,nan,nan,nan,nan,0.0,nan,nan,nan,nan,nan,nan,nan,nan,nan,nan,nan,nan,nan,nan,nan,nan,nan,nan,198.51193304453045,229.76766008185223,nan,230.0797085352242,nan,nan,nan,nan
1,32,1,1,1.0,1.0,0.2878850041888654,0.0,3,5,4,2,8,1,nan,nan,nan,nan,nan,nan,nan,nan,nan,nan,nan,nan,0.0,nan,nan,nan,nan,nan,nan,nan,nan,nan,nan,nan,nan,nan,nan,nan,nan,nan,nan,198.51193304453045,230.76781432144344,nan,231.0556993256323,nan,nan,nan,nan
1,33,1,1,1.0,1.0,0.2957415319979191,0.0,4,7,1,3,2,5,nan,nan,nan,nan,nan,nan,nan,nan,nan,nan,nan,nan,0.0,nan,nan,nan,nan,nan,nan,nan,nan,nan,nan,nan,nan,nan,nan,nan,nan,nan,nan,198.51193304453045,231.76795031456277,nan,232.0636918465607,nan,nan,nan,nan
1,34,0,0,1.0,0.0,0.2955978410318494,1.0,0,5,7,4,1,8,1.0,1.0,1.0,1.0,1.0,1.0,0.0,1.0,1.0,0.0,0.0,0.0,2.0,8.0,5.0,7.0,0.0,3.0,1.0,3.0,2.0,1.0,6.0,5.0,4.0,3.9442781512625515,2.991436421405524,2.14643898839131,7.655738270375878,6.768372834194452,5.367506868671626,198.51193304453045,232.76809514593333,233.57651440659538,233.06369298696518,242.28605893207714,243.28437598096207,234.59334163740277,242.27776790969074
1,35,1,1,1.0,1.0,0.6173536982387304,0.0,5,4,6,7,0,1,nan,nan,nan,nan,nan,nan,nan,nan,nan,nan,nan,nan,0.0,nan,nan,nan,nan,nan,nan,nan,nan,nan,nan,nan,nan,nan,nan,nan,nan,nan,nan,198.51193304453045,243.4862753804773,nan,244.10362907871604,nan,nan,nan,nan
1,36,1,1,1.0,1.0,0.3848224775865674,0.0,2,6,0,4,7,3,nan,nan,nan,nan,nan,nan,nan,nan,nan,nan,nan,nan,0.0,nan,nan,nan,nan,nan,nan,nan,nan,nan,nan,nan,nan,nan,nan,nan,nan,nan,nan,198.51193304453045,244.49478450464085,nan,244.87960698222741,nan,nan,nan,nan
1,37,1,1,1.0,1.0,0.36033686390146613,0.0,4,5,3,0,2,1,nan,nan,nan,nan,nan,nan,nan,nan,nan,nan,nan,nan,0.0,nan,nan,nan,nan,nan,nan,nan,nan,nan,nan,nan,nan,nan,nan,nan,nan,nan,nan,198.51193304453045,245.503257421311,nan,245.86359428521246,nan,nan,nan,nan
1,38,1,1,1.0,1.0,0.31989386258646846,0.0,5,2,1,8,7,6,nan,nan,nan,nan,nan,nan,nan,nan,nan,nan,nan,nan,0.0,nan,nan,nan,nan,nan,nan,nan,nan,nan,nan,nan,nan,nan,nan,nan,nan,nan,nan,198.51193304453045,246.5117112356238,nan,246.83160509821028,nan,nan,nan,nan
1,39,1,1,1.0,1.0,0.3197553032077849,0.0,6,7,2,4,0,8,nan,nan,nan,nan,nan,nan,nan,nan,nan,nan,nan,nan,0.0,nan,nan,nan,nan,nan,nan,nan,nan,nan,nan,nan,nan,nan,nan,nan,nan,nan,nan,198.51193304453045,247.5118931303732,nan,247.831648433581,nan,nan,nan,nan
1,40,1,1,1.0,1.0,0.3032203014008701,0.0,7,6,5,0,2,1,nan,nan,nan,nan,nan,nan,nan,nan,nan,nan,nan,nan,0.0,nan,nan,nan,nan,nan,nan,nan,nan,nan,nan,nan,nan,nan,nan,nan,nan,nan,nan,198.51193304453045,248.52035806374624,nan,248.8235783651471,nan,nan,nan,nan
1,41,1,1,1.0,1.0,0.3910693256184459,0.0,5,8,4,3,6,7,nan,nan,nan,nan,nan,nan,nan,nan,nan,nan,nan,nan,0.0,nan,nan,nan,nan,nan,nan,nan,nan,nan,nan,nan,nan,nan,nan,nan,nan,nan,nan,198.51193304453045,249.52051657997072,nan,249.91158590558916,nan,nan,nan,nan
1,42,1,1,1.0,1.0,0.3908914225175977,0.0,1,3,0,5,8,2,nan,nan,nan,nan,nan,nan,nan,nan,nan,nan,nan,nan,0.0,nan,nan,nan,nan,nan,nan,nan,nan,nan,nan,nan,nan,nan,nan,nan,nan,nan,nan,198.51193304453045,250.52066825376824,nan,250.91155967628583,nan,nan,nan,nan
1,43,1,1,1.0,1.0,0.34273929009214044,0.0,7,8,1,0,4,3,nan,nan,nan,nan,nan,nan,nan,nan,nan,nan,nan,nan,0.0,nan,nan,nan,nan,nan,nan,nan,nan,nan,nan,nan,nan,nan,nan,nan,nan,nan,nan,198.51193304453045,251.52081907214597,nan,251.8635583622381,nan,nan,nan,nan
1,44,1,1,1.0,1.0,0.3102985038422048,0.0,2,0,3,8,6,5,nan,nan,nan,nan,nan,nan,nan,nan,nan,nan,nan,nan,0.0,nan,nan,nan,nan,nan,nan,nan,nan,nan,nan,nan,nan,nan,nan,nan,nan,nan,nan,198.51193304453045,252.52927231648937,nan,252.83957082033157,nan,nan,nan,nan
1,45,1,1,1.0,1.0,0.30173492478206754,0.0,4,7,6,5,1,3,nan,nan,nan,nan,nan,nan,nan,nan,nan,nan,nan,nan,0.0,nan,nan,nan,nan,nan,nan,nan,nan,nan,nan,nan,nan,nan,nan,nan,nan,nan,nan,198.51193304453045,253.53780481917784,nan,253.8395397439599,nan,nan,nan,nan
1,46,1,1,1.0,1.0,0.3253127774223685,0.0,6,3,8,2,4,0,nan,nan,nan,nan,nan,nan,nan,nan,nan,nan,nan,nan,0.0,nan,nan,nan,nan,nan,nan,nan,nan,nan,nan,nan,nan,nan,nan,nan,nan,nan,nan,198.51193304453045,254.54622527677566,nan,254.87153805419803,nan,nan,nan,nan
1,47,0,0,0.0,1.0,0.4048245931044221,1.0,5,1,7,3,0,2,1.0,1.0,1.0,1.0,1.0,1.0,0.0,0.0,0.0,1.0,0.0,0.0,1.0,8.0,2.0,0.0,3.0,6.0,7.0,3.0,2.0,1.0,6.0,5.0,4.0,5.1252508531324565,4.253186787478626,2.725314031355083,9.428610283415765,8.533169362228364,7.51765929767862,198.51193304453045,255.55470589082688,256.3631482445635,255.9595304839313,266.8480189326219,267.85423185350373,257.379971484188,266.8396631930955
1,48,1,1,1.0,1.0,0.5429340712726116,0.0,4,2,0,5,7,6,nan,nan,nan,nan,nan,nan,nan,nan,nan,nan,nan,nan,0.0,nan,nan,nan,nan,nan,nan,nan,nan,nan,nan,nan,nan,nan,nan,nan,nan,nan,nan,198.51193304453045,268.05652811424807,nan,268.5994621855207,nan,nan,nan,nan
1,49,1,1,1.0,1.0,0.6624290207400918,0.0,5,0,1,8,6,3,nan,nan,nan,nan,nan,nan,nan,nan,nan,nan,nan,nan,0.0,nan,nan,nan,nan,nan,nan,nan,nan,nan,nan,nan,nan,nan,nan,nan,nan,nan,nan,198.51193304453045,269.06501728110015,nan,269.72744630184025,nan,nan,nan,nan
1,50,1,1,1.0,1.0,0.5259611536748707,0.0,7,5,6,4,8,0,nan,nan,nan,nan,nan,nan,nan,nan,nan,nan,nan,nan,0.0,nan,nan,nan,nan,nan,nan,nan,nan,nan,nan,nan,nan,nan,nan,nan,nan,nan,nan,198.51193304453045,270.0734856361523,nan,270.5994467898272,nan,nan,nan,nan
1,51,1,1,1.0,1.0,0.4054620787501335,0.0,4,7,5,0,2,1,nan,nan,nan,nan,nan,nan,nan,nan,nan,nan,nan,nan,0.0,nan,nan,nan,nan,nan,nan,nan,nan,nan,nan,nan,nan,nan,nan,nan,nan,nan,nan,198.51193304453045,271.08196653518826,nan,271.4874286139384,nan,nan,nan,nan
1,52,1,1,1.0,1.0,0.38932222686707973,0.0,3,4,0,1,7,2,nan,nan,nan,nan,nan,nan,nan,nan,nan,nan,nan,nan,0.0,nan,nan,nan,nan,nan,nan,nan,nan,nan,nan,nan,nan,nan,nan,nan,nan,nan,nan,198.51193304453045,272.082115072757,nan,272.4714372996241,nan,nan,nan,nan
1,53,1,1,1.0,1.0,0.3968554502353072,0.0,1,0,3,8,5,7,nan,nan,nan,nan,nan,nan,nan,nan,nan,nan,nan,nan,0.0,nan,nan,nan,nan,nan,nan,nan,nan,nan,nan,nan,nan,nan,nan,nan,nan,nan,nan,198.51193304453045,273.09057629993185,nan,273.48743175016716,nan,nan,nan,nan
1,54,1,1,1.0,1.0,0.34834038419649005,0.0,3,7,2,1,0,5,nan,nan,nan,nan,nan,nan,nan,nan,nan,nan,nan,nan,0.0,nan,nan,nan,nan,nan,nan,nan,nan,nan,nan,nan,nan,nan,nan,nan,nan,nan,nan,198.51193304453045,274.09907288011163,nan,274.4474132643081,nan,nan,nan,nan
1,55,0,0,0.0,1.0,0.5318573275581002,1.0,8,5,0,7,4,1,1.0,1.0,1.0,1.0,1.0,1.0,0.0,0.0,1.0,0.0,0.0,0.0,1.0,7.0,8.0,0.0,2.0,3.0,4.0,3.0,2.0,1.0,4.0,5.0,6.0,3.1888206768780947,2.452269389759749,1.1636793310754001,4.148222581017762,5.356811590492725,6.036209822166711,198.51193304453045,275.1075361026451,275.91597161395475,275.6393934302032,283.008655665908,284.01573899993673,276.9327900065109,283.0003301468678
1,56,1,1,1.0,1.0,0.6541961589828134,0.0,0,3,1,4,8,2,nan,nan,nan,nan,nan,nan,nan,nan,nan,nan,nan,nan,0.0,nan,nan,nan,nan,nan,nan,nan,nan,nan,nan,nan,nan,nan,nan,nan,nan,nan,nan,198.51193304453045,284.2171577196568,nan,284.87135387863964,nan,nan,nan,nan
1,57,1,1,1.0,1.0,0.35767259495332837,0.0,3,7,0,5,2,6,nan,nan,nan,nan,nan,nan,nan,nan,nan,nan,nan,nan,0.0,nan,nan,nan,nan,nan,nan,nan,nan,nan,nan,nan,nan,nan,nan,nan,nan,nan,nan,198.51193304453045,285.2256560102105,nan,285.58332860516384,nan,nan,nan,nan
1,58,1,1,1.0,1.0,0.33320209197700024,0.0,2,0,1,4,6,3,nan,nan,nan,nan,nan,nan,nan,nan,nan,nan,nan,nan,0.0,nan,nan,nan,nan,nan,nan,nan,nan,nan,nan,nan,nan,nan,nan,nan,nan,nan,nan,198.51193304453045,286.234131207224,nan,286.567333299201,nan,nan,nan,nan
1,59,1,1,1.0,1.0,0.3007091316394508,0.0,5,1,3,7,2,8,nan,nan,nan,nan,nan,nan,nan,nan,nan,nan,nan,nan,0.0,nan,nan,nan,nan,nan,nan,nan,nan,nan,nan,nan,nan,nan,nan,nan,nan,nan,nan,198.51193304453045,287.2426229403354,nan,287.5433320719749,nan,nan,nan,nan
1,60,1,1,1.0,1.0,0.32421029172837734,0.0,4,2,1,3,8,0,nan,nan,nan,nan,nan,nan,nan,nan,nan,nan,nan,nan,0.0,nan,nan,nan,nan,nan,nan,nan,nan,nan,nan,nan,nan,nan,nan,nan,nan,nan,nan,198.51193304453045,288.2511126776226,nan,288.57532296935096,nan,nan,nan,nan
1,61,0,0,0.0,1.0,0.7319936626590788,1.0,1,5,3,2,0,4,1.0,1.0,1.0,1.0,1.0,1.0,0.0,1.0,1.0,1.0,0.0,0.0,3.0,4.0,5.0,3.0,2.0,1.0,8.0,4.0,3.0,1.0,2.0,6.0,5.0,3.5095299282111228,2.3573464397341013,0.9347078814171255,1.574436875525862,4.868335514795035,4.100038517266512,198.51193304453045,289.25130797177553,290.05967249302194,289.9833016344346,295.98552855849266,296.99486875208095,291.07649687258527,295.97720389440656
1,62,1,1,nan,nan,nan,0.0,6,4,1,3,2,8,nan,nan,nan,nan,nan,nan,nan,nan,nan,nan,nan,nan,0.0,nan,nan,nan,nan,nan,nan,nan,nan,nan,nan,nan,nan,nan,nan,nan,nan,nan,nan,198.51193304453045,297.20237608859316,nan,nan,nan,nan,nan,nan
1,63,1,1,1.0,1.0,0.1963650193065405,0.0,4,6,2,8,1,7,nan,nan,nan,nan,nan,nan,nan,nan,nan,nan,nan,nan,0.0,nan,nan,nan,nan,nan,nan,nan,nan,nan,nan,nan,nan,nan,nan,nan,nan,nan,nan,198.51193304453045,298.2109122974798,nan,298.40727731678635,nan,nan,nan,nan
1,64,1,1,1.0,1.0,0.20387172838672996,0.0,2,1,7,0,3,5,nan,nan,nan,nan,nan,nan,nan,nan,nan,nan,nan,nan,0.0,nan,nan,nan,nan,nan,nan,nan,nan,nan,nan,nan,nan,nan,nan,nan,nan,nan,nan,198.51193304453045,299.2193701034412,nan,299.4232418318279,nan,nan,nan,nan
1,65,1,1,1.0,1.0,0.2753952997736633,0.0,6,5,2,7,0,3,nan,nan,nan,nan,nan,nan,nan,nan,nan,nan,nan,nan,0.0,nan,nan,nan,nan,nan,nan,nan,nan,nan,nan,nan,nan,nan,nan,nan,nan,nan,nan,198.51193304453045,300.22784530045465,nan,300.5032406002283,nan,nan,nan,nan
1,66,1,1,1.0,1.0,0.3309056032449007,0.0,8,3,4,0,1,2,nan,nan,nan,nan,nan,nan,nan,nan,nan,nan,nan,nan,0.0,nan,nan,nan,nan,nan,nan,nan,nan,nan,nan,nan,nan,nan,nan,nan,nan,nan,nan,198.51193304453045,301.2363187870942,nan,301.5672243903391,nan,nan,nan,nan
1,67,1,1,1.0,1.0,0.25041532097384334,0.0,0,4,3,2,8,7,nan,nan,nan,nan,nan,nan,nan,nan,nan,nan,nan,nan,0.0,nan,nan,nan,nan,nan,nan,nan,nan,nan,nan,nan,nan,nan,nan,nan,nan,nan,nan,198.51193304453045,302.24479683535174,nan,302.4952121563256,nan,nan,nan,nan
1,68,1,1,1.0,1.0,0.2739244634285569,0.0,4,6,8,3,7,5,nan,nan,nan,nan,nan,nan,nan,nan,nan,nan,nan,nan,0.0,nan,nan,nan,nan,nan,nan,nan,nan,nan,nan,nan,nan,nan,nan,nan,nan,nan,nan,198.51193304453045,303.25328913889825,nan,303.5272136023268,nan,nan,nan,nan
1,69,0,0,0.0,1.0,0.47348518017679453,0.0,2,4,5,0,1,3,nan,nan,nan,nan,nan,nan,nan,nan,nan,nan,nan,nan,0.0,nan,nan,nan,nan,nan,nan,nan,nan,nan,nan,nan,nan,nan,nan,nan,nan,nan,nan,198.51193304453045,304.26172670256346,nan,304.73521188274026,nan,nan,nan,nan
1,70,1,1,nan,nan,nan,0.0,6,2,1,7,8,4,nan,nan,nan,nan,nan,nan,nan,nan,nan,nan,nan,nan,0.0,nan,nan,nan,nan,nan,nan,nan,nan,nan,nan,nan,nan,nan,nan,nan,nan,nan,nan,198.51193304453045,305.270238107536,nan,nan,nan,nan,nan,nan
1,71,1,1,1.0,1.0,0.7285162857733667,0.0,5,3,8,6,0,2,nan,nan,nan,nan,nan,nan,nan,nan,nan,nan,nan,nan,0.0,nan,nan,nan,nan,nan,nan,nan,nan,nan,nan,nan,nan,nan,nan,nan,nan,nan,nan,198.51193304453045,306.278686220292,nan,307.00720250606537,nan,nan,nan,nan
1,72,0,0,nan,nan,nan,0.0,7,2,6,0,1,3,nan,nan,nan,nan,nan,nan,nan,nan,nan,nan,nan,nan,0.0,nan,nan,nan,nan,nan,nan,nan,nan,nan,nan,nan,nan,nan,nan,nan,nan,nan,nan,198.51193304453045,307.2871924932115,nan,nan,nan,nan,nan,nan
1,73,1,1,0.0,0.0,0.13546915771439672,0.0,0,3,8,5,2,1,nan,nan,nan,nan,nan,nan,nan,nan,nan,nan,nan,nan,0.0,nan,nan,nan,nan,nan,nan,nan,nan,nan,nan,nan,nan,nan,nan,nan,nan,nan,nan,198.51193304453045,308.29567424813285,nan,308.43114340584725,nan,nan,nan,nan
1,74,0,0,0.0,1.0,0.7430051187984645,0.0,3,1,5,8,7,2,nan,nan,nan,nan,nan,nan,nan,nan,nan,nan,nan,nan,0.0,nan,nan,nan,nan,nan,nan,nan,nan,nan,nan,nan,nan,nan,nan,nan,nan,nan,nan,198.51193304453045,309.3041554321535,nan,310.04716055095196,nan,nan,nan,nan
1,75,1,1,nan,nan,nan,0.0,8,0,4,5,6,7,nan,nan,nan,nan,nan,nan,nan,nan,nan,nan,nan,nan,0.0,nan,nan,nan,nan,nan,nan,nan,nan,nan,nan,nan,nan,nan,nan,nan,nan,nan,nan,198.51193304453045,310.31263262499124,nan,nan,nan,nan,nan,nan
1,76,1,1,1.0,1.0,0.6140183019451797,0.0,3,2,0,6,1,8,nan,nan,nan,nan,nan,nan,nan,nan,nan,nan,nan,nan,0.0,nan,nan,nan,nan,nan,nan,nan,nan,nan,nan,nan,nan,nan,nan,nan,nan,nan,nan,198.51193304453045,311.32111038826406,nan,311.93512869020924,nan,nan,nan,nan
1,77,1,1,1.0,1.0,0.39755451772361994,0.0,7,1,4,8,2,0,nan,nan,nan,nan,nan,nan,nan,nan,nan,nan,nan,nan,0.0,nan,nan,nan,nan,nan,nan,nan,nan,nan,nan,nan,nan,nan,nan,nan,nan,nan,nan,198.51193304453045,312.32959157275036,nan,312.727146090474,nan,nan,nan,nan
1,78,1,1,1.0,1.0,0.3970798244699836,0.0,5,4,1,6,3,2,nan,nan,nan,nan,nan,nan,nan,nan,nan,nan,nan,nan,0.0,nan,nan,nan,nan,nan,nan,nan,nan,nan,nan,nan,nan,nan,nan,nan,nan,nan,nan,198.51193304453045,313.3380704764277,nan,313.73515030089766,nan,nan,nan,nan
1,79,1,1,1.0,1.0,0.3245891905389726,0.0,6,8,7,3,0,4,nan,nan,nan,nan,nan,nan,nan,nan,nan,nan,nan,nan,0.0,nan,nan,nan,nan,nan,nan,nan,nan,nan,nan,nan,nan,nan,nan,nan,nan,nan,nan,198.51193304453045,314.3465499500744,nan,314.6711391406134,nan,nan,nan,nan
1,80,0,0,0.0,1.0,0.4601284833624959,0.0,5,2,8,0,1,3,nan,nan,nan,nan,nan,nan,nan,nan,nan,nan,nan,nan,0.0,nan,nan,nan,nan,nan,nan,nan,nan,nan,nan,nan,nan,nan,nan,nan,nan,nan,nan,198.51193304453045,315.3550017690286,nan,315.8151302523911,nan,nan,nan,nan
1,81,1,1,1.0,1.0,0.45961501682177186,0.0,1,5,0,3,2,7,nan,nan,nan,nan,nan,nan,nan,nan,nan,nan,nan,nan,0.0,nan,nan,nan,nan,nan,nan,nan,nan,nan,nan,nan,nan,nan,nan,nan,nan,nan,nan,198.51193304453045,316.36351345898584,nan,316.8231284758076,nan,nan,nan,nan
1,82,1,1,1.0,1.0,0.31514208437874913,0.0,6,2,8,0,5,3,nan,nan,nan,nan,nan,nan,nan,nan,nan,nan,nan,nan,0.0,nan,nan,nan,nan,nan,nan,nan,nan,nan,nan,nan,nan,nan,nan,nan,nan,nan,nan,198.51193304453045,317.37198067316785,nan,317.6871227575466,nan,nan,nan,nan
1,83,1,1,1.0,1.0,0.2666521077044308,0.0,4,7,1,8,3,0,nan,nan,nan,nan,nan,nan,nan,nan,nan,nan,nan,nan,0.0,nan,nan,nan,nan,nan,nan,nan,nan,nan,nan,nan,nan,nan,nan,nan,nan,nan,nan,198.51193304453045,318.38045957684517,nan,318.6471116845496,nan,nan,nan,nan
1,84,1,1,1.0,1.0,0.2581675020046532,0.0,6,5,8,0,2,7,nan,nan,nan,nan,nan,nan,nan,nan,nan,nan,nan,nan,0.0,nan,nan,nan,nan,nan,nan,nan,nan,nan,nan,nan,nan,nan,nan,nan,nan,nan,nan,198.51193304453045,319.38894190173596,nan,319.6471094037406,nan,nan,nan,nan
1,85,1,1,1.0,1.0,0.25768596632406116,0.0,0,1,7,5,8,2,nan,nan,nan,nan,nan,nan,nan,nan,nan,nan,nan,nan,0.0,nan,nan,nan,nan,nan,nan,nan,nan,nan,nan,nan,nan,nan,nan,nan,nan,nan,nan,198.51193304453045,320.3974213753827,nan,320.65510734170675,nan,nan,nan,nan
1,86,1,1,1.0,1.0,0.28917964780703187,0.0,1,3,8,4,6,0,nan,nan,nan,nan,nan,nan,nan,nan,nan,nan,nan,nan,0.0,nan,nan,nan,nan,nan,nan,nan,nan,nan,nan,nan,nan,nan,nan,nan,nan,nan,nan,198.51193304453045,321.40591225307435,nan,321.6950919008814,nan,nan,nan,nan
1,87,1,1,1.0,1.0,0.2726876954548061,0.0,5,2,6,8,1,7,nan,nan,nan,nan,nan,nan,nan,nan,nan,nan,nan,nan,0.0,nan,nan,nan,nan,nan,nan,nan,nan,nan,nan,nan,nan,nan,nan,nan,nan,nan,nan,198.51193304453045,322.41442080726847,nan,322.6871085027233,nan,nan,nan,nan
1,88,1,1,1.0,1.0,0.31222464609891176,0.0,3,8,4,7,0,5,nan,nan,nan,nan,nan,nan,nan,nan,nan,nan,nan,nan,0.0,nan,nan,nan,nan,nan,nan,nan,nan,nan,nan,nan,nan,nan,nan,nan,nan,nan,nan,198.51193304453045,323.4228660687804,nan,323.73509071487933,nan,nan,nan,nan
1,89,0,0,0.0,1.0,0.46374470461159945,0.0,0,4,6,1,5,8,nan,nan,nan,nan,nan,nan,nan,nan,nan,nan,nan,nan,0.0,nan,nan,nan,nan,nan,nan,nan,nan,nan,nan,nan,nan,nan,nan,nan,nan,nan,nan,198.51193304453045,324.4313361342065,nan,324.8950808388181,nan,nan,nan,nan
1,90,1,1,1.0,1.0,0.4072508024983108,0.0,8,2,3,5,1,0,nan,nan,nan,nan,nan,nan,nan,nan,nan,nan,nan,nan,0.0,nan,nan,nan,nan,nan,nan,nan,nan,nan,nan,nan,nan,nan,nan,nan,nan,nan,nan,198.51193304453045,325.4398204544559,nan,325.8470712569542,nan,nan,nan,nan
1,91,1,1,1.0,1.0,0.24674578616395593,0.0,0,6,7,4,3,2,nan,nan,nan,nan,nan,nan,nan,nan,nan,nan,nan,nan,0.0,nan,nan,nan,nan,nan,nan,nan,nan,nan,nan,nan,nan,nan,nan,nan,nan,nan,nan,198.51193304453045,326.4483167491853,nan,326.6950625353493,nan,nan,nan,nan
1,92,1,1,1.0,1.0,0.23829738842323422,0.0,4,2,5,1,7,0,nan,nan,nan,nan,nan,nan,nan,nan,nan,nan,nan,nan,0.0,nan,nan,nan,nan,nan,nan,nan,nan,nan,nan,nan,nan,nan,nan,nan,nan,nan,nan,198.51193304453045,327.4567893804051,nan,327.69508676882833,nan,nan,nan,nan
1,93,1,1,1.0,1.0,0.24581407569348812,0.0,1,8,4,3,2,6,nan,nan,nan,nan,nan,nan,nan,nan,nan,nan,nan,nan,0.0,nan,nan,nan,nan,nan,nan,nan,nan,nan,nan,nan,nan,nan,nan,nan,nan,nan,nan,198.51193304453045,328.4652520334348,nan,328.7110661091283,nan,nan,nan,nan
1,94,1,1,1.0,1.0,0.2773268590681255,0.0,5,3,6,8,7,1,nan,nan,nan,nan,nan,nan,nan,nan,nan,nan,nan,nan,0.0,nan,nan,nan,nan,nan,nan,nan,nan,nan,nan,nan,nan,nan,nan,nan,nan,nan,nan,198.51193304453045,329.47372694546357,nan,329.7510538045317,nan,nan,nan,nan
1,95,1,1,1.0,1.0,0.2768507399596274,0.0,3,1,2,7,4,6,nan,nan,nan,nan,nan,nan,nan,nan,nan,nan,nan,nan,0.0,nan,nan,nan,nan,nan,nan,nan,nan,nan,nan,nan,nan,nan,nan,nan,nan,nan,nan,198.51193304453045,330.48217847943306,nan,330.7590292193927,nan,nan,nan,nan
1,96,1,1,1.0,1.0,0.27634867699816823,0.0,8,6,1,0,5,3,nan,nan,nan,nan,nan,nan,nan,nan,nan,nan,nan,nan,0.0,nan,nan,nan,nan,nan,nan,nan,nan,nan,nan,nan,nan,nan,nan,nan,nan,nan,nan,198.51193304453045,331.4906827569939,nan,331.7670314339921,nan,nan,nan,nan
1,97,1,1,1.0,1.0,0.29989545326679945,0.0,2,1,0,7,8,6,nan,nan,nan,nan,nan,nan,nan,nan,nan,nan,nan,nan,0.0,nan,nan,nan,nan,nan,nan,nan,nan,nan,nan,nan,nan,nan,nan,nan,nan,nan,nan,198.51193304453045,332.49914512457326,nan,332.79904057784006,nan,nan,nan,nan
1,98,1,1,1.0,1.0,0.2673771195113659,0.0,5,2,8,6,4,7,nan,nan,nan,nan,nan,nan,nan,nan,nan,nan,nan,nan,0.0,nan,nan,nan,nan,nan,nan,nan,nan,nan,nan,nan,nan,nan,nan,nan,nan,nan,nan,198.51193304453045,333.5076382830739,nan,333.77501540258527,nan,nan,nan,nan
1,99,1,1,1.0,1.0,0.2748744199052453,0.0,6,3,4,5,1,8,nan,nan,nan,nan,nan,nan,nan,nan,nan,nan,nan,nan,0.0,nan,nan,nan,nan,nan,nan,nan,nan,nan,nan,nan,nan,nan,nan,nan,nan,nan,nan,198.51193304453045,334.5161331524141,nan,334.79100757231936,nan,nan,nan,nan
1,100,1,1,1.0,1.0,0.2663989379070699,0.0,3,7,5,4,6,1,nan,nan,nan,nan,nan,nan,nan,nan,nan,nan,nan,nan,0.0,nan,nan,nan,nan,nan,nan,nan,nan,nan,nan,nan,nan,nan,nan,nan,nan,nan,nan,198.51193304453045,335.52460920484737,nan,335.79100814275444,nan,nan,nan,nan
1,101,1,1,1.0,1.0,0.2819204065017402,0.0,7,6,2,3,1,0,nan,nan,nan,nan,nan,nan,nan,nan,nan,nan,nan,nan,0.0,nan,nan,nan,nan,nan,nan,nan,nan,nan,nan,nan,nan,nan,nan,nan,nan,nan,nan,198.51193304453045,336.5330789848231,nan,336.8149993913248,nan,nan,nan,nan
1,102,1,1,1.0,1.0,0.24943770980462432,0.0,3,1,4,7,2,8,nan,nan,nan,nan,nan,nan,nan,nan,nan,nan,nan,nan,0.0,nan,nan,nan,nan,nan,nan,nan,nan,nan,nan,nan,nan,nan,nan,nan,nan,nan,nan,198.51193304453045,337.5415593138896,nan,337.7909970236942,nan,nan,nan,nan
1,103,1,1,1.0,1.0,0.24124276638031006,0.0,7,4,6,8,0,2,nan,nan,nan,nan,nan,nan,nan,nan,nan,nan,nan,nan,0.0,nan,nan,nan,nan,nan,nan,nan,nan,nan,nan,nan,nan,nan,nan,nan,nan,nan,nan,198.51193304453045,338.54174691066146,nan,338.78298967704177,nan,nan,nan,nan
1,104,1,1,1.0,1.0,0.2727729408070445,0.0,6,1,5,7,2,8,nan,nan,nan,nan,nan,nan,nan,nan,nan,nan,nan,nan,0.0,nan,nan,nan,nan,nan,nan,nan,nan,nan,nan,nan,nan,nan,nan,nan,nan,nan,nan,198.51193304453045,339.5501955933869,nan,339.82296853419393,nan,nan,nan,nan
1,105,1,1,1.0,1.0,0.2723093661479652,0.0,7,5,6,8,4,1,nan,nan,nan,nan,nan,nan,nan,nan,nan,nan,nan,nan,0.0,nan,nan,nan,nan,nan,nan,nan,nan,nan,nan,nan,nan,nan,nan,nan,nan,nan,nan,198.51193304453045,340.55866765463725,nan,340.8309770207852,nan,nan,nan,nan
1,106,1,1,1.0,1.0,0.2641340955160558,0.0,4,3,8,6,2,7,nan,nan,nan,nan,nan,nan,nan,nan,nan,nan,nan,nan,0.0,nan,nan,nan,nan,nan,nan,nan,nan,nan,nan,nan,nan,nan,nan,nan,nan,nan,nan,198.51193304453045,341.5588318724185,nan,341.8229659679346,nan,nan,nan,nan
1,107,1,1,1.0,1.0,0.2559904707595706,0.0,2,8,4,0,5,6,nan,nan,nan,nan,nan,nan,nan,nan,nan,nan,nan,nan,0.0,nan,nan,nan,nan,nan,nan,nan,nan,nan,nan,nan,nan,nan,nan,nan,nan,nan,nan,198.51193304453045,342.55896501475945,nan,342.814955485519,nan,nan,nan,nan
1,108,1,1,1.0,1.0,0.22352773137390614,0.0,0,2,6,1,7,4,nan,nan,nan,nan,nan,nan,nan,nan,nan,nan,nan,nan,0.0,nan,nan,nan,nan,nan,nan,nan,nan,nan,nan,nan,nan,nan,nan,nan,nan,nan,nan,198.51193304453045,343.56742424611,nan,343.7909519774839,nan,nan,nan,nan
1,109,1,1,1.0,1.0,0.21535502653568983,0.0,5,7,0,4,8,6,nan,nan,nan,nan,nan,nan,nan,nan,nan,nan,nan,nan,0.0,nan,nan,nan,nan,nan,nan,nan,nan,nan,nan,nan,nan,nan,nan,nan,nan,nan,nan,198.51193304453045,344.567583902739,nan,344.7829389292747,nan,nan,nan,nan
1,110,1,1,1.0,1.0,0.2391994479112327,0.0,2,3,1,7,5,4,nan,nan,nan,nan,nan,nan,nan,nan,nan,nan,nan,nan,0.0,nan,nan,nan,nan,nan,nan,nan,nan,nan,nan,nan,nan,nan,nan,nan,nan,nan,nan,198.51193304453045,345.5677330107428,nan,345.80693245865405,nan,nan,nan,nan
1,111,1,1,1.0,1.0,0.26273938175290823,0.0,4,7,0,8,1,3,nan,nan,nan,nan,nan,nan,nan,nan,nan,nan,nan,nan,0.0,nan,nan,nan,nan,nan,nan,nan,nan,nan,nan,nan,nan,nan,nan,nan,nan,nan,nan,198.51193304453045,346.5761919571087,nan,346.8389313388616,nan,nan,nan,nan
1,112,1,1,1.0,1.0,0.24625341687351465,0.0,5,6,7,4,2,1,nan,nan,nan,nan,nan,nan,nan,nan,nan,nan,nan,nan,0.0,nan,nan,nan,nan,nan,nan,nan,nan,nan,nan,nan,nan,nan,nan,nan,nan,nan,nan,198.51193304453045,347.5846725711599,nan,347.8309259880334,nan,nan,nan,nan
1,113,1,1,1.0,1.0,0.2857595761306584,0.0,3,1,2,6,5,4,nan,nan,nan,nan,nan,nan,nan,nan,nan,nan,nan,nan,0.0,nan,nan,nan,nan,nan,nan,nan,nan,nan,nan,nan,nan,nan,nan,nan,nan,nan,nan,198.51193304453045,348.59314947901294,nan,348.8789090551436,nan,nan,nan,nan
1,114,0,0,1.0,0.0,0.2532831518910825,0.0,1,2,6,5,4,0,nan,nan,nan,nan,nan,nan,nan,nan,nan,nan,nan,nan,0.0,nan,nan,nan,nan,nan,nan,nan,nan,nan,nan,nan,nan,nan,nan,nan,nan,nan,nan,198.51193304453045,349.60162724228576,nan,349.85491039417684,nan,nan,nan,nan
1,115,1,1,1.0,1.0,0.5647579822689295,0.0,5,4,2,7,0,6,nan,nan,nan,nan,nan,nan,nan,nan,nan,nan,nan,nan,0.0,nan,nan,nan,nan,nan,nan,nan,nan,nan,nan,nan,nan,nan,nan,nan,nan,nan,nan,198.51193304453045,350.6101044351235,nan,351.17486241739243,nan,nan,nan,nan
1,116,1,1,1.0,1.0,0.5006230883300304,0.0,8,6,0,2,4,1,nan,nan,nan,nan,nan,nan,nan,nan,nan,nan,nan,nan,0.0,nan,nan,nan,nan,nan,nan,nan,nan,nan,nan,nan,nan,nan,nan,nan,nan,nan,nan,198.51193304453045,351.6102723595686,nan,352.11089544789866,nan,nan,nan,nan
1,117,1,1,1.0,1.0,0.3641723277978599,0.0,7,3,8,6,2,5,nan,nan,nan,nan,nan,nan,nan,nan,nan,nan,nan,nan,0.0,nan,nan,nan,nan,nan,nan,nan,nan,nan,nan,nan,nan,nan,nan,nan,nan,nan,nan,198.51193304453045,352.6187313059345,nan,352.98290363373235,nan,nan,nan,nan
1,118,1,1,1.0,1.0,0.387973983772099,0.0,6,8,2,3,1,7,nan,nan,nan,nan,nan,nan,nan,nan,nan,nan,nan,nan,0.0,nan,nan,nan,nan,nan,nan,nan,nan,nan,nan,nan,nan,nan,nan,nan,nan,nan,nan,198.51193304453045,353.61890179663897,nan,354.00687578041106,nan,nan,nan,nan
1,119,1,1,1.0,1.0,0.33951878920197487,0.0,0,3,4,2,8,6,nan,nan,nan,nan,nan,nan,nan,nan,nan,nan,nan,nan,0.0,nan,nan,nan,nan,nan,nan,nan,nan,nan,nan,nan,nan,nan,nan,nan,nan,nan,nan,198.51193304453045,354.6273627388291,nan,354.9668815280311,nan,nan,nan,nan
1,120,0,0,0.0,1.0,0.4753471747972071,0.0,8,7,1,6,5,2,nan,nan,nan,nan,nan,nan,nan,nan,nan,nan,nan,nan,0.0,nan,nan,nan,nan,nan,nan,nan,nan,nan,nan,nan,nan,nan,nan,nan,nan,nan,nan,198.51193304453045,355.6275209696032,nan,356.1028681444004,nan,nan,nan,nan
1,121,1,1,1.0,1.0,0.4429100942797959,0.0,6,1,5,3,8,4,nan,nan,nan,nan,nan,nan,nan,nan,nan,nan,nan,nan,0.0,nan,nan,nan,nan,nan,nan,nan,nan,nan,nan,nan,nan,nan,nan,nan,nan,nan,nan,198.51193304453045,356.63596223993227,nan,357.07887233421206,nan,nan,nan,nan
1,122,0,0,1.0,0.0,0.25071467692032456,0.0,1,0,2,5,6,8,nan,nan,nan,nan,nan,nan,nan,nan,nan,nan,nan,nan,0.0,nan,nan,nan,nan,nan,nan,nan,nan,nan,nan,nan,nan,nan,nan,nan,nan,nan,nan,198.51193304453045,357.6361472704448,nan,357.8868619473651,nan,nan,nan,nan
1,123,1,1,1.0,1.0,0.5702170957811177,0.0,3,5,0,4,8,7,nan,nan,nan,nan,nan,nan,nan,nan,nan,nan,nan,nan,0.0,nan,nan,nan,nan,nan,nan,nan,nan,nan,nan,nan,nan,nan,nan,nan,nan,nan,nan,198.51193304453045,358.6446102084592,nan,359.2148273042403,nan,nan,nan,nan
1,124,1,1,1.0,1.0,0.5540686906315386,0.0,0,2,6,7,5,1,nan,nan,nan,nan,nan,nan,nan,nan,nan,nan,nan,nan,0.0,nan,nan,nan,nan,nan,nan,nan,nan,nan,nan,nan,nan,nan,nan,nan,nan,nan,nan,198.51193304453045,359.64477528166026,nan,360.1988439722918,nan,nan,nan,nan
1,125,1,1,1.0,1.0,0.4579437547363341,0.0,2,5,8,1,3,7,nan,nan,nan,nan,nan,nan,nan,nan,nan,nan,nan,nan,0.0,nan,nan,nan,nan,nan,nan,nan,nan,nan,nan,nan,nan,nan,nan,nan,nan,nan,nan,198.51193304453045,360.64489873033017,nan,361.1028424850665,nan,nan,nan,nan
1,126,1,1,1.0,1.0,0.3697731364518404,0.0,0,3,2,5,6,4,nan,nan,nan,nan,nan,nan,nan,nan,nan,nan,nan,nan,0.0,nan,nan,nan,nan,nan,nan,nan,nan,nan,nan,nan,nan,nan,nan,nan,nan,nan,nan,198.51193304453045,361.64505439577624,nan,362.0148275322281,nan,nan,nan,nan
1,127,0,0,0.0,1.0,0.5533188749104738,0.0,5,1,6,4,0,2,nan,nan,nan,nan,nan,nan,nan,nan,nan,nan,nan,nan,0.0,nan,nan,nan,nan,nan,nan,nan,nan,nan,nan,nan,nan,nan,nan,nan,nan,nan,nan,198.51193304453045,362.6535159079358,nan,363.2068347828463,nan,nan,nan,nan
1,128,1,1,1.0,1.0,0.3771424270235002,0.0,3,6,0,7,2,8,nan,nan,nan,nan,nan,nan,nan,nan,nan,nan,nan,nan,0.0,nan,nan,nan,nan,nan,nan,nan,nan,nan,nan,nan,nan,nan,nan,nan,nan,nan,nan,198.51193304453045,363.65367727540433,nan,364.03081970242783,nan,nan,nan,nan
1,129,1,1,1.0,1.0,0.44899357948452234,0.0,0,1,2,3,5,7,nan,nan,nan,nan,nan,nan,nan,nan,nan,nan,nan,nan,0.0,nan,nan,nan,nan,nan,nan,nan,nan,nan,nan,nan,nan,nan,nan,nan,nan,nan,nan,198.51193304453045,364.65381982550025,nan,365.1028134049848,nan,nan,nan,nan
1,130,0,0,0.0,1.0,0.44883819902315736,0.0,1,0,6,5,7,2,nan,nan,nan,nan,nan,nan,nan,nan,nan,nan,nan,nan,0.0,nan,nan,nan,nan,nan,nan,nan,nan,nan,nan,nan,nan,nan,nan,nan,nan,nan,nan,198.51193304453045,365.65396864851937,nan,366.1028068475425,nan,nan,nan,nan
1,131,1,1,1.0,1.0,0.3523759888485074,0.0,2,3,0,7,8,4,nan,nan,nan,nan,nan,nan,nan,nan,nan,nan,nan,nan,0.0,nan,nan,nan,nan,nan,nan,nan,nan,nan,nan,nan,nan,nan,nan,nan,nan,nan,nan,198.51193304453045,366.66242417367175,nan,367.01480016252026,nan,nan,nan,nan
1,132,1,1,1.0,1.0,0.2642042301595211,0.0,5,8,6,1,2,3,nan,nan,nan,nan,nan,nan,nan,nan,nan,nan,nan,nan,0.0,nan,nan,nan,nan,nan,nan,nan,nan,nan,nan,nan,nan,nan,nan,nan,nan,nan,nan,198.51193304453045,367.6625849707052,nan,367.92678920086473,nan,nan,nan,nan
1,133,0,0,0.0,1.0,0.44773571379482746,0.0,6,3,4,7,8,1,nan,nan,nan,nan,nan,nan,nan,nan,nan,nan,nan,nan,0.0,nan,nan,nan,nan,nan,nan,nan,nan,nan,nan,nan,nan,nan,nan,nan,nan,nan,nan,198.51193304453045,368.6710541807115,nan,369.11878989450634,nan,nan,nan,nan
1,134,1,1,1.0,1.0,0.3672471418976784,0.0,0,4,1,2,7,5,nan,nan,nan,nan,nan,nan,nan,nan,nan,nan,nan,nan,0.0,nan,nan,nan,nan,nan,nan,nan,nan,nan,nan,nan,nan,nan,nan,nan,nan,nan,nan,198.51193304453045,369.67953023314476,nan,370.04677737504244,nan,nan,nan,nan
1,135,1,1,1.0,1.0,0.34307741979137063,0.0,8,7,3,5,6,1,nan,nan,nan,nan,nan,nan,nan,nan,nan,nan,nan,nan,0.0,nan,nan,nan,nan,nan,nan,nan,nan,nan,nan,nan,nan,nan,nan,nan,nan,nan,nan,198.51193304453045,370.679691885598,nan,371.0227693053894,nan,nan,nan,nan
1,136,1,1,1.0,1.0,0.36663588508963585,0.0,3,4,7,8,5,0,nan,nan,nan,nan,nan,nan,nan,nan,nan,nan,nan,nan,0.0,nan,nan,nan,nan,nan,nan,nan,nan,nan,nan,nan,nan,nan,nan,nan,nan,nan,nan,198.51193304453045,371.6881311601028,nan,372.0547670451924,nan,nan,nan,nan
1,137,1,1,1.0,1.0,0.3341095680370927,0.0,5,0,4,2,3,7,nan,nan,nan,nan,nan,nan,nan,nan,nan,nan,nan,nan,0.0,nan,nan,nan,nan,nan,nan,nan,nan,nan,nan,nan,nan,nan,nan,nan,nan,nan,nan,198.51193304453045,372.6966596711427,nan,373.0307692391798,nan,nan,nan,nan
1,138,1,1,1.0,1.0,0.3016379908658564,0.0,1,8,5,6,4,0,nan,nan,nan,nan,nan,nan,nan,nan,nan,nan,nan,nan,0.0,nan,nan,nan,nan,nan,nan,nan,nan,nan,nan,nan,nan,nan,nan,nan,nan,nan,nan,198.51193304453045,373.70511462586,nan,374.00675261672586,nan,nan,nan,nan
1,139,1,1,1.0,1.0,0.34115697955712676,0.0,4,2,0,8,1,7,nan,nan,nan,nan,nan,nan,nan,nan,nan,nan,nan,nan,0.0,nan,nan,nan,nan,nan,nan,nan,nan,nan,nan,nan,nan,nan,nan,nan,nan,nan,nan,198.51193304453045,374.7135921041481,nan,375.05474908370525,nan,nan,nan,nan
1,140,1,1,1.0,1.0,0.3969723414629698,0.0,6,0,5,1,8,2,nan,nan,nan,nan,nan,nan,nan,nan,nan,nan,nan,nan,0.0,nan,nan,nan,nan,nan,nan,nan,nan,nan,nan,nan,nan,nan,nan,nan,nan,nan,nan,198.51193304453045,375.71375632239506,nan,376.110728663858,nan,nan,nan,nan
1,141,1,1,1.0,1.0,0.3725200849585235,0.0,0,5,4,2,6,7,nan,nan,nan,nan,nan,nan,nan,nan,nan,nan,nan,nan,0.0,nan,nan,nan,nan,nan,nan,nan,nan,nan,nan,nan,nan,nan,nan,nan,nan,nan,nan,198.51193304453045,376.72221213253215,nan,377.0947322174907,nan,nan,nan,nan
1,142,1,1,1.0,1.0,0.29201697278767824,0.0,4,2,6,7,1,8,nan,nan,nan,nan,nan,nan,nan,nan,nan,nan,nan,nan,0.0,nan,nan,nan,nan,nan,nan,nan,nan,nan,nan,nan,nan,nan,nan,nan,nan,nan,nan,198.51193304453045,377.73069702321663,nan,378.0227139960043,nan,nan,nan,nan
1,143,1,1,1.0,1.0,0.27555410098284483,0.0,2,6,1,0,4,5,nan,nan,nan,nan,nan,nan,nan,nan,nan,nan,nan,nan,0.0,nan,nan,nan,nan,nan,nan,nan,nan,nan,nan,nan,nan,nan,nan,nan,nan,nan,nan,198.51193304453045,378.73917364608496,nan,379.0147277470678,nan,nan,nan,nan
1,144,1,1,1.0,1.0,0.25937975151464343,0.0,1,4,6,8,3,7,nan,nan,nan,nan,nan,nan,nan,nan,nan,nan,nan,nan,0.0,nan,nan,nan,nan,nan,nan,nan,nan,nan,nan,nan,nan,nan,nan,nan,nan,nan,nan,198.51193304453045,379.73933016648516,nan,379.9987099179998,nan,nan,nan,nan
1,145,1,1,1.0,1.0,0.2509085456840694,0.0,0,7,4,1,8,6,nan,nan,nan,nan,nan,nan,nan,nan,nan,nan,nan,nan,0.0,nan,nan,nan,nan,nan,nan,nan,nan,nan,nan,nan,nan,nan,nan,nan,nan,nan,nan,198.51193304453045,380.7477948148735,nan,380.99870336055756,nan,nan,nan,nan
1,146,1,1,1.0,1.0,0.44273789320141077,0.0,5,3,1,6,2,0,nan,nan,nan,nan,nan,nan,nan,nan,nan,nan,nan,nan,0.0,nan,nan,nan,nan,nan,nan,nan,nan,nan,nan,nan,nan,nan,nan,nan,nan,nan,nan,198.51193304453045,381.7479598885402,nan,382.1906977817416,nan,nan,nan,nan
1,147,1,1,1.0,1.0,0.41860067285597324,0.0,4,8,3,1,5,2,nan,nan,nan,nan,nan,nan,nan,nan,nan,nan,nan,nan,0.0,nan,nan,nan,nan,nan,nan,nan,nan,nan,nan,nan,nan,nan,nan,nan,nan,nan,nan,198.51193304453045,382.74809844745323,nan,383.1666991203092,nan,nan,nan,nan
1,148,1,1,1.0,1.0,0.5144807072356343,0.0,8,0,2,4,6,7,nan,nan,nan,nan,nan,nan,nan,nan,nan,nan,nan,nan,0.0,nan,nan,nan,nan,nan,nan,nan,nan,nan,nan,nan,nan,nan,nan,nan,nan,nan,nan,198.51193304453045,383.7482455596328,nan,384.2627262668684,nan,nan,nan,nan
1,149,1,1,1.0,1.0,0.569996427744627,0.0,7,4,8,2,3,1,nan,nan,nan,nan,nan,nan,nan,nan,nan,nan,nan,nan,0.0,nan,nan,nan,nan,nan,nan,nan,nan,nan,nan,nan,nan,nan,nan,nan,nan,nan,nan,198.51193304453045,384.75668483413756,nan,385.3266812618822,nan,nan,nan,nan
1,150,1,1,1.0,1.0,0.5458155870437622,0.0,0,3,6,5,4,8,nan,nan,nan,nan,nan,nan,nan,nan,nan,nan,nan,nan,0.0,nan,nan,nan,nan,nan,nan,nan,nan,nan,nan,nan,nan,nan,nan,nan,nan,nan,nan,198.51193304453045,385.75686245178804,nan,386.3026780388318,nan,nan,nan,nan
1,151,1,1,1.0,1.0,0.5213661813177168,0.0,3,2,8,4,7,6,nan,nan,nan,nan,nan,nan,nan,nan,nan,nan,nan,nan,0.0,nan,nan,nan,nan,nan,nan,nan,nan,nan,nan,nan,nan,nan,nan,nan,nan,nan,nan,198.51193304453045,386.76529716467485,nan,387.28666334599257,nan,nan,nan,nan
1,152,1,1,1.0,1.0,0.49679931392893195,0.0,7,5,0,6,4,8,nan,nan,nan,nan,nan,nan,nan,nan,nan,nan,nan,nan,0.0,nan,nan,nan,nan,nan,nan,nan,nan,nan,nan,nan,nan,nan,nan,nan,nan,nan,nan,198.51193304453045,387.77385760704055,nan,388.2706569209695,nan,nan,nan,nan
1,153,1,1,1.0,1.0,0.48035012697800994,0.0,0,8,3,5,2,4,nan,nan,nan,nan,nan,nan,nan,nan,nan,nan,nan,nan,0.0,nan,nan,nan,nan,nan,nan,nan,nan,nan,nan,nan,nan,nan,nan,nan,nan,nan,nan,198.51193304453045,388.7823020135984,nan,389.2626521405764,nan,nan,nan,nan
1,154,1,1,1.0,1.0,0.42390469182282686,0.0,7,5,0,4,6,8,nan,nan,nan,nan,nan,nan,nan,nan,nan,nan,nan,nan,0.0,nan,nan,nan,nan,nan,nan,nan,nan,nan,nan,nan,nan,nan,nan,nan,nan,nan,nan,198.51193304453045,389.7907615303993,nan,390.21466622222215,nan,nan,nan,nan
1,155,1,1,1.0,1.0,0.42338951444253325,0.0,6,8,5,1,0,3,nan,nan,nan,nan,nan,nan,nan,nan,nan,nan,nan,nan,0.0,nan,nan,nan,nan,nan,nan,nan,nan,nan,nan,nan,nan,nan,nan,nan,nan,nan,nan,198.51193304453045,390.7992512676865,nan,391.222640782129,nan,nan,nan,nan
1,156,1,1,1.0,1.0,0.32690335577353835,0.0,5,3,0,7,8,4,nan,nan,nan,nan,nan,nan,nan,nan,nan,nan,nan,nan,0.0,nan,nan,nan,nan,nan,nan,nan,nan,nan,nan,nan,nan,nan,nan,nan,nan,nan,nan,198.51193304453045,391.8077221880667,nan,392.13462554384023,nan,nan,nan,nan
1,157,1,1,1.0,1.0,0.3584058745764196,0.0,3,1,2,8,5,6,nan,nan,nan,nan,nan,nan,nan,nan,nan,nan,nan,nan,0.0,nan,nan,nan,nan,nan,nan,nan,nan,nan,nan,nan,nan,nan,nan,nan,nan,nan,nan,198.51193304453045,392.816217627842,nan,393.1746235024184,nan,nan,nan,nan
1,158,1,1,1.0,1.0,0.4859341150149703,0.0,4,5,6,2,7,8,nan,nan,nan,nan,nan,nan,nan,nan,nan,nan,nan,nan,0.0,nan,nan,nan,nan,nan,nan,nan,nan,nan,nan,nan,nan,nan,nan,nan,nan,nan,nan,198.51193304453045,393.824684842024,nan,394.31061895703897,nan,nan,nan,nan
1,159,1,1,1.0,1.0,0.5094375559128821,0.0,5,0,7,8,6,4,nan,nan,nan,nan,nan,nan,nan,nan,nan,nan,nan,nan,0.0,nan,nan,nan,nan,nan,nan,nan,nan,nan,nan,nan,nan,nan,nan,nan,nan,nan,nan,198.51193304453045,394.8331839875318,nan,395.3426215434447,nan,nan,nan,nan
1,160,1,1,1.0,1.0,0.46097665932029486,0.0,8,2,6,1,4,0,nan,nan,nan,nan,nan,nan,nan,nan,nan,nan,nan,nan,0.0,nan,nan,nan,nan,nan,nan,nan,nan,nan,nan,nan,nan,nan,nan,nan,nan,nan,nan,198.51193304453045,395.84164122352377,nan,396.30261788284406,nan,nan,nan,nan
1,161,1,1,1.0,1.0,0.42046266747638583,0.0,4,3,8,0,1,5,nan,nan,nan,nan,nan,nan,nan,nan,nan,nan,nan,nan,0.0,nan,nan,nan,nan,nan,nan,nan,nan,nan,nan,nan,nan,nan,nan,nan,nan,nan,nan,198.51193304453045,396.85013922909275,nan,397.27060189656913,nan,nan,nan,nan
1,162,1,1,1.0,1.0,0.3559679761528969,0.0,5,2,4,7,6,8,nan,nan,nan,nan,nan,nan,nan,nan,nan,nan,nan,nan,0.0,nan,nan,nan,nan,nan,nan,nan,nan,nan,nan,nan,nan,nan,nan,nan,nan,nan,nan,198.51193304453045,397.85862354934216,nan,398.21459152549505,nan,nan,nan,nan
1,163,1,1,1.0,1.0,0.3874961547553539,0.0,7,0,1,5,4,3,nan,nan,nan,nan,nan,nan,nan,nan,nan,nan,nan,nan,0.0,nan,nan,nan,nan,nan,nan,nan,nan,nan,nan,nan,nan,nan,nan,nan,nan,nan,nan,198.51193304453045,398.86708905315027,nan,399.2545852079056,nan,nan,nan,nan
1,164,1,1,1.0,1.0,0.3790109786204994,0.0,2,8,6,1,3,0,nan,nan,nan,nan,nan,nan,nan,nan,nan,nan,nan,nan,0.0,nan,nan,nan,nan,nan,nan,nan,nan,nan,nan,nan,nan,nan,nan,nan,nan,nan,nan,198.51193304453045,399.8755679568276,nan,400.2545789354481,nan,nan,nan,nan
1,165,0,0,0.0,1.0,0.5225407970137894,0.0,1,3,0,4,7,8,nan,nan,nan,nan,nan,nan,nan,nan,nan,nan,nan,nan,0.0,nan,nan,nan,nan,nan,nan,nan,nan,nan,nan,nan,nan,nan,nan,nan,nan,nan,nan,198.51193304453045,400.88404172845185,nan,401.40658252546564,nan,nan,nan,nan
1,166,1,1,1.0,1.0,0.40204343292862177,0.0,3,8,7,6,0,2,nan,nan,nan,nan,nan,nan,nan,nan,nan,nan,nan,nan,0.0,nan,nan,nan,nan,nan,nan,nan,nan,nan,nan,nan,nan,nan,nan,nan,nan,nan,nan,198.51193304453045,401.8925166404806,nan,402.29456007340923,nan,nan,nan,nan
1,167,1,1,1.0,1.0,0.3295693350955844,0.0,7,3,1,0,4,6,nan,nan,nan,nan,nan,nan,nan,nan,nan,nan,nan,nan,0.0,nan,nan,nan,nan,nan,nan,nan,nan,nan,nan,nan,nan,nan,nan,nan,nan,nan,nan,198.51193304453045,402.901005522348,nan,403.23057485744357,nan,nan,nan,nan
1,168,1,1,1.0,1.0,0.2330726278014481,0.0,6,4,2,7,3,5,nan,nan,nan,nan,nan,nan,nan,nan,nan,nan,nan,nan,0.0,nan,nan,nan,nan,nan,nan,nan,nan,nan,nan,nan,nan,nan,nan,nan,nan,nan,nan,198.51193304453045,403.90948157478124,nan,404.1425542025827,nan,nan,nan,nan
1,169,1,1,1.0,1.0,0.22459800029173493,0.0,5,1,8,4,6,2,nan,nan,nan,nan,nan,nan,nan,nan,nan,nan,nan,nan,0.0,nan,nan,nan,nan,nan,nan,nan,nan,nan,nan,nan,nan,nan,nan,nan,nan,nan,nan,198.51193304453045,404.91794166201726,nan,405.142539662309,nan,nan,nan,nan
1,170,1,1,1.0,1.0,0.2241107625886798,0.0,6,0,7,1,8,5,nan,nan,nan,nan,nan,nan,nan,nan,nan,nan,nan,nan,0.0,nan,nan,nan,nan,nan,nan,nan,nan,nan,nan,nan,nan,nan,nan,nan,nan,nan,nan,198.51193304453045,405.9264322547242,nan,406.1505430173129,nan,nan,nan,nan
1,171,0,0,1.0,0.0,0.2636117907240987,1.0,4,8,0,3,1,6,1.0,1.0,1.0,1.0,1.0,1.0,1.0,0.0,1.0,0.0,0.0,0.0,2.0,4.0,6.0,0.0,1.0,5.0,7.0,4.0,3.0,1.0,2.0,6.0,5.0,5.079110393766314,3.8089139107614756,1.9369841273874044,2.5767330788075924,6.687017555814236,5.82422297867015,198.51193304453045,406.93491457914934,407.7433475246653,407.19852636987343,415.49448971031234,416.5057799946517,408.7685059765354,415.4861365365796
1,172,1,1,1.0,1.0,0.3191258003935218,0.0,7,3,5,8,2,4,nan,nan,nan,nan,nan,nan,nan,nan,nan,nan,nan,nan,0.0,nan,nan,nan,nan,nan,nan,nan,nan,nan,nan,nan,nan,nan,nan,nan,nan,nan,nan,198.51193304453045,416.71135235065594,nan,417.03047815104946,nan,nan,nan,nan
1,173,1,1,1.0,1.0,0.35067963786423206,0.0,3,8,0,6,7,1,nan,nan,nan,nan,nan,nan,nan,nan,nan,nan,nan,nan,0.0,nan,nan,nan,nan,nan,nan,nan,nan,nan,nan,nan,nan,nan,nan,nan,nan,nan,nan,198.51193304453045,417.71978563815355,nan,418.0704652760178,nan,nan,nan,nan
1,174,1,1,1.0,1.0,0.3904535071924329,0.0,7,4,6,3,1,5,nan,nan,nan,nan,nan,nan,nan,nan,nan,nan,nan,nan,0.0,nan,nan,nan,nan,nan,nan,nan,nan,nan,nan,nan,nan,nan,nan,nan,nan,nan,nan,198.51193304453045,418.71999034052715,nan,419.1104438477196,nan,nan,nan,nan
1,175,1,1,1.0,1.0,0.3823073166422546,0.0,5,6,1,7,3,4,nan,nan,nan,nan,nan,nan,nan,nan,nan,nan,nan,nan,0.0,nan,nan,nan,nan,nan,nan,nan,nan,nan,nan,nan,nan,nan,nan,nan,nan,nan,nan,198.51193304453045,419.72012946987525,nan,420.1024367865175,nan,nan,nan,nan
1,176,1,1,1.0,1.0,0.35019183019176126,0.0,3,1,7,2,5,8,nan,nan,nan,nan,nan,nan,nan,nan,nan,nan,nan,nan,0.0,nan,nan,nan,nan,nan,nan,nan,nan,nan,nan,nan,nan,nan,nan,nan,nan,nan,nan,198.51193304453045,420.72025234857574,nan,421.0704441787675,nan,nan,nan,nan
1,177,1,1,1.0,1.0,0.3417000970803201,0.0,5,8,3,7,4,2,nan,nan,nan,nan,nan,nan,nan,nan,nan,nan,nan,nan,0.0,nan,nan,nan,nan,nan,nan,nan,nan,nan,nan,nan,nan,nan,nan,nan,nan,nan,nan,198.51193304453045,421.7287266901694,nan,422.07042678724974,nan,nan,nan,nan
1,178,1,1,1.0,1.0,0.31756800878793,0.0,4,7,1,5,3,0,nan,nan,nan,nan,nan,nan,nan,nan,nan,nan,nan,nan,0.0,nan,nan,nan,nan,nan,nan,nan,nan,nan,nan,nan,nan,nan,nan,nan,nan,nan,nan,198.51193304453045,422.72886382369325,nan,423.0464318324812,nan,nan,nan,nan
1,179,1,1,1.0,1.0,0.3013990758918226,0.0,2,3,6,4,0,5,nan,nan,nan,nan,nan,nan,nan,nan,nan,nan,nan,nan,0.0,nan,nan,nan,nan,nan,nan,nan,nan,nan,nan,nan,nan,nan,nan,nan,nan,nan,nan,198.51193304453045,423.7290194891393,nan,424.03041856503114,nan,nan,nan,nan
1,180,1,1,1.0,1.0,0.3409425839781761,0.0,0,8,5,3,6,1,nan,nan,nan,nan,nan,nan,nan,nan,nan,nan,nan,nan,0.0,nan,nan,nan,nan,nan,nan,nan,nan,nan,nan,nan,nan,nan,nan,nan,nan,nan,nan,198.51193304453045,424.7374664610252,nan,425.07840904500335,nan,nan,nan,nan
1,181,1,1,1.0,1.0,0.4047521771863103,0.0,1,0,6,7,5,2,nan,nan,nan,nan,nan,nan,nan,nan,nan,nan,nan,nan,0.0,nan,nan,nan,nan,nan,nan,nan,nan,nan,nan,nan,nan,nan,nan,nan,nan,nan,nan,198.51193304453045,425.73765377281234,nan,426.14240594999865,nan,nan,nan,nan
1,182,1,1,1.0,1.0,0.37260732566937804,0.0,3,2,4,6,8,7,nan,nan,nan,nan,nan,nan,nan,nan,nan,nan,nan,nan,0.0,nan,nan,nan,nan,nan,nan,nan,nan,nan,nan,nan,nan,nan,nan,nan,nan,nan,nan,198.51193304453045,426.73779518250376,nan,427.11040250817314,nan,nan,nan,nan
1,183,1,1,1.0,1.0,0.3884509578347206,0.0,4,8,1,0,2,3,nan,nan,nan,nan,nan,nan,nan,nan,nan,nan,nan,nan,0.0,nan,nan,nan,nan,nan,nan,nan,nan,nan,nan,nan,nan,nan,nan,nan,nan,nan,nan,198.51193304453045,427.7379417247139,nan,428.1263926825486,nan,nan,nan,nan
1,184,0,0,0.0,1.0,0.515991457272321,1.0,0,7,3,6,8,5,1.0,1.0,1.0,1.0,1.0,1.0,0.0,1.0,1.0,1.0,0.0,1.0,4.0,2.0,7.0,3.0,6.0,4.0,5.0,4.0,3.0,2.0,1.0,6.0,5.0,3.7570782736875117,2.963817832991481,2.3001178321428597,1.471147351898253,5.819813036359847,4.436346784234047,198.51193304453045,428.74639810528606,429.5548387481831,429.2623895625584,436.4308263733983,437.4408585075289,430.57165571535006,436.42249315651134
1,185,1,1,1.0,1.0,0.27864687656983733,0.0,2,0,8,3,7,6,nan,nan,nan,nan,nan,nan,nan,nan,nan,nan,nan,nan,0.0,nan,nan,nan,nan,nan,nan,nan,nan,nan,nan,nan,nan,nan,nan,nan,nan,nan,nan,198.51193304453045,437.6476987074129,nan,437.92634558398277,nan,nan,nan,nan
1,186,1,1,1.0,1.0,0.3901857975870371,0.0,8,3,5,6,4,2,nan,nan,nan,nan,nan,nan,nan,nan,nan,nan,nan,nan,0.0,nan,nan,nan,nan,nan,nan,nan,nan,nan,nan,nan,nan,nan,nan,nan,nan,nan,nan,198.51193304453045,438.65613513067365,nan,439.0463209282607,nan,nan,nan,nan
1,187,1,1,1.0,1.0,0.47001122450456023,0.0,6,1,4,7,2,3,nan,nan,nan,nan,nan,nan,nan,nan,nan,nan,nan,nan,0.0,nan,nan,nan,nan,nan,nan,nan,nan,nan,nan,nan,nan,nan,nan,nan,nan,nan,nan,198.51193304453045,439.6563107529655,nan,440.12632197747007,nan,nan,nan,nan
1,188,1,1,1.0,1.0,0.4778529270552099,0.0,4,0,3,5,8,1,nan,nan,nan,nan,nan,nan,nan,nan,nan,nan,nan,nan,0.0,nan,nan,nan,nan,nan,nan,nan,nan,nan,nan,nan,nan,nan,nan,nan,nan,nan,nan,198.51193304453045,440.6564658479765,nan,441.1343187750317,nan,nan,nan,nan
1,189,1,1,1.0,1.0,0.4456715825945139,0.0,6,4,8,1,5,3,nan,nan,nan,nan,nan,nan,nan,nan,nan,nan,nan,nan,0.0,nan,nan,nan,nan,nan,nan,nan,nan,nan,nan,nan,nan,nan,nan,nan,nan,nan,nan,198.51193304453045,441.656624364201,nan,442.1022959467955,nan,nan,nan,nan
1,190,1,1,1.0,1.0,0.3892004885710776,0.0,7,2,4,3,6,8,nan,nan,nan,nan,nan,nan,nan,nan,nan,nan,nan,nan,0.0,nan,nan,nan,nan,nan,nan,nan,nan,nan,nan,nan,nan,nan,nan,nan,nan,nan,nan,198.51193304453045,442.66510041663423,nan,443.0543009052053,nan,nan,nan,nan
1,191,1,1,1.0,1.0,0.3650589915923774,0.0,3,0,6,5,1,7,nan,nan,nan,nan,nan,nan,nan,nan,nan,nan,nan,nan,0.0,nan,nan,nan,nan,nan,nan,nan,nan,nan,nan,nan,nan,nan,nan,nan,nan,nan,nan,198.51193304453045,443.66525351582095,nan,444.0303125074133,nan,nan,nan,nan
1,192,1,1,1.0,1.0,0.30889495136216283,0.0,8,1,7,0,5,2,nan,nan,nan,nan,nan,nan,nan,nan,nan,nan,nan,nan,0.0,nan,nan,nan,nan,nan,nan,nan,nan,nan,nan,nan,nan,nan,nan,nan,nan,nan,nan,198.51193304453045,444.6653906493448,nan,444.97428560070693,nan,nan,nan,nan
1,193,1,1,1.0,1.0,0.3167409305460751,0.0,6,4,0,8,7,3,nan,nan,nan,nan,nan,nan,nan,nan,nan,nan,nan,nan,0.0,nan,nan,nan,nan,nan,nan,nan,nan,nan,nan,nan,nan,nan,nan,nan,nan,nan,nan,198.51193304453045,445.6655366211198,nan,445.9822775516659,nan,nan,nan,nan
1,194,1,1,1.0,1.0,0.2685882286168635,0.0,3,8,5,1,0,4,nan,nan,nan,nan,nan,nan,nan,nan,nan,nan,nan,nan,0.0,nan,nan,nan,nan,nan,nan,nan,nan,nan,nan,nan,nan,nan,nan,nan,nan,nan,nan,198.51193304453045,446.66567746084183,nan,446.9342656894587,nan,nan,nan,nan
1,195,1,1,1.0,1.0,0.27642023796215653,0.0,5,3,2,8,4,0,nan,nan,nan,nan,nan,nan,nan,nan,nan,nan,nan,nan,0.0,nan,nan,nan,nan,nan,nan,nan,nan,nan,nan,nan,nan,nan,nan,nan,nan,nan,nan,198.51193304453045,447.66582685383037,nan,447.9422470917925,nan,nan,nan,nan
1,196,0,0,nan,nan,nan,1.0,1,6,7,3,8,5,1.0,1.0,1.0,1.0,1.0,1.0,0.0,0.0,0.0,0.0,0.0,1.0,1.0,6.0,7.0,3.0,8.0,2.0,5.0,4.0,3.0,2.0,1.0,6.0,5.0,3.501498348079622,2.6848884215578437,1.957498284522444,1.2695390400476754,4.8364555216394365,4.052400422282517,198.51193304453045,448.674272115808,449.4827138991095,nan,455.36688762903214,456.36356306634843,450.49121076380834,455.3585518463515
1,197,1,1,1.0,1.0,0.3431327296420932,0.0,7,8,6,1,5,0,nan,nan,nan,nan,nan,nan,nan,nan,nan,nan,nan,nan,0.0,nan,nan,nan,nan,nan,nan,nan,nan,nan,nan,nan,nan,nan,nan,nan,nan,nan,nan,198.51193304453045,456.56708925263956,nan,456.91022198228166,nan,nan,nan,nan
1,198,1,1,1.0,1.0,0.3429474141448736,0.0,0,6,3,7,2,1,nan,nan,nan,nan,nan,nan,nan,nan,nan,nan,nan,nan,0.0,nan,nan,nan,nan,nan,nan,nan,nan,nan,nan,nan,nan,nan,nan,nan,nan,nan,nan,198.51193304453045,457.56724491762,nan,457.91019233176485,nan,nan,nan,nan
1,199,1,1,1.0,1.0,0.3104692790657282,0.0,3,7,1,5,0,8,nan,nan,nan,nan,nan,nan,nan,nan,nan,nan,nan,nan,0.0,nan,nan,nan,nan,nan,nan,nan,nan,nan,nan,nan,nan,nan,nan,nan,nan,nan,nan,198.51193304453045,458.5757204000838,nan,458.88618967914954,nan,nan,nan,nan
1,200,1,1,1.0,1.0,0.31831126706674695,0.0,4,2,7,6,5,0,nan,nan,nan,nan,nan,nan,nan,nan,nan,nan,nan,nan,0.0,nan,nan,nan,nan,nan,nan,nan,nan,nan,nan,nan,nan,nan,nan,nan,nan,nan,nan,198.51193304453045,459.5758606698364,nan,459.89417193690315,nan,nan,nan,nan
1,201,1,1,1.0,1.0,0.28615215979516506,0.0,7,4,2,1,3,8,nan,nan,nan,nan,nan,nan,nan,nan,nan,nan,nan,nan,0.0,nan,nan,nan,nan,nan,nan,nan,nan,nan,nan,nan,nan,nan,nan,nan,nan,nan,nan,198.51193304453045,460.57601890107617,nan,460.86217106087133,nan,nan,nan,nan
1,202,1,1,1.0,1.0,0.27000232925638556,0.0,0,5,3,7,6,4,nan,nan,nan,nan,nan,nan,nan,nan,nan,nan,nan,nan,0.0,nan,nan,nan,nan,nan,nan,nan,nan,nan,nan,nan,nan,nan,nan,nan,nan,nan,nan,198.51193304453045,461.57616287702695,nan,461.84616520628333,nan,nan,nan,nan
1,203,1,1,1.0,1.0,0.30953557323664427,0.0,3,7,8,2,0,5,nan,nan,nan,nan,nan,nan,nan,nan,nan,nan,nan,nan,0.0,nan,nan,nan,nan,nan,nan,nan,nan,nan,nan,nan,nan,nan,nan,nan,nan,nan,nan,198.51193304453045,462.5846195425838,nan,462.89415511582047,nan,nan,nan,nan
1,204,1,1,1.0,1.0,0.31737556541338563,0.0,5,0,3,7,4,2,nan,nan,nan,nan,nan,nan,nan,nan,nan,nan,nan,nan,0.0,nan,nan,nan,nan,nan,nan,nan,nan,nan,nan,nan,nan,nan,nan,nan,nan,nan,nan,198.51193304453045,463.58478746702895,nan,463.90216303244233,nan,nan,nan,nan
1,205,1,1,1.0,1.0,0.30121718160808086,0.0,7,6,2,8,3,5,nan,nan,nan,nan,nan,nan,nan,nan,nan,nan,nan,nan,0.0,nan,nan,nan,nan,nan,nan,nan,nan,nan,nan,nan,nan,nan,nan,nan,nan,nan,nan,198.51193304453045,464.58493030257523,nan,464.8861474841833,nan,nan,nan,nan
1,206,0,0,0.0,1.0,0.5087535986676812,0.0,2,8,5,6,4,3,nan,nan,nan,nan,nan,nan,nan,nan,nan,nan,nan,nan,0.0,nan,nan,nan,nan,nan,nan,nan,nan,nan,nan,nan,nan,nan,nan,nan,nan,nan,nan,198.51193304453045,465.5933872531168,nan,466.1021408517845,nan,nan,nan,nan
1,207,1,1,1.0,1.0,0.6045751865021884,0.0,3,6,0,4,8,7,nan,nan,nan,nan,nan,nan,nan,nan,nan,nan,nan,nan,0.0,nan,nan,nan,nan,nan,nan,nan,nan,nan,nan,nan,nan,nan,nan,nan,nan,nan,nan,198.51193304453045,466.5935531822033,nan,467.1981283687055,nan,nan,nan,nan
1,208,1,1,1.0,1.0,0.4684294839389622,0.0,4,8,6,2,0,1,nan,nan,nan,nan,nan,nan,nan,nan,nan,nan,nan,nan,0.0,nan,nan,nan,nan,nan,nan,nan,nan,nan,nan,nan,nan,nan,nan,nan,nan,nan,nan,198.51193304453045,467.5936991539784,nan,468.06212863791734,nan,nan,nan,nan
1,209,1,1,1.0,1.0,0.3722697659395635,0.0,0,1,4,7,8,5,nan,nan,nan,nan,nan,nan,nan,nan,nan,nan,nan,nan,0.0,nan,nan,nan,nan,nan,nan,nan,nan,nan,nan,nan,nan,nan,nan,nan,nan,nan,nan,198.51193304453045,468.59384484030306,nan,468.9661146062426,nan,nan,nan,nan
1,210,0,0,0.0,1.0,0.49213392101228237,1.0,2,7,1,0,3,8,1.0,1.0,1.0,1.0,1.0,1.0,1.0,1.0,1.0,1.0,0.0,0.0,4.0,2.0,7.0,1.0,0.0,7.0,4.0,4.0,3.0,2.0,1.0,6.0,5.0,3.3100153980776668,2.453259260393679,1.6389994211494923,0.9323823126032948,4.732719244901091,4.004513719119132,198.51193304453045,469.5939896716736,470.4024038002826,470.0861235926859,476.18657180015,477.18943278864026,471.41090123541653,476.17823687242344
1,211,1,1,1.0,1.0,0.3709776885807514,0.0,7,4,0,1,5,6,nan,nan,nan,nan,nan,nan,nan,nan,nan,nan,nan,nan,0.0,nan,nan,nan,nan,nan,nan,nan,nan,nan,nan,nan,nan,nan,nan,nan,nan,nan,nan,198.51193304453045,477.395104074385,nan,477.76608176296577,nan,nan,nan,nan
1,212,1,1,1.0,1.0,0.3705052761361003,0.0,5,7,8,0,3,2,nan,nan,nan,nan,nan,nan,nan,nan,nan,nan,nan,nan,0.0,nan,nan,nan,nan,nan,nan,nan,nan,nan,nan,nan,nan,nan,nan,nan,nan,nan,nan,198.51193304453045,478.40356530155987,nan,478.77407057769597,nan,nan,nan,nan
1,213,1,1,1.0,1.0,0.3703273730352521,0.0,8,0,6,4,7,5,nan,nan,nan,nan,nan,nan,nan,nan,nan,nan,nan,nan,0.0,nan,nan,nan,nan,nan,nan,nan,nan,nan,nan,nan,nan,nan,nan,nan,nan,nan,nan,198.51193304453045,479.40372239239514,nan,479.7740497654304,nan,nan,nan,nan
1,214,1,1,1.0,1.0,0.39386074943467975,0.0,6,3,4,0,2,8,nan,nan,nan,nan,nan,nan,nan,nan,nan,nan,nan,nan,0.0,nan,nan,nan,nan,nan,nan,nan,nan,nan,nan,nan,nan,nan,nan,nan,nan,nan,nan,198.51193304453045,480.41220186604187,nan,480.80606261547655,nan,nan,nan,nan
1,215,1,1,1.0,1.0,0.40967843728139997,0.0,3,0,6,7,4,5,nan,nan,nan,nan,nan,nan,nan,nan,nan,nan,nan,nan,0.0,nan,nan,nan,nan,nan,nan,nan,nan,nan,nan,nan,nan,nan,nan,nan,nan,nan,nan,198.51193304453045,481.41235639108345,nan,481.82203482836485,nan,nan,nan,nan
1,216,1,1,1.0,1.0,0.37751248804852366,0.0,2,6,5,0,1,3,nan,nan,nan,nan,nan,nan,nan,nan,nan,nan,nan,nan,0.0,nan,nan,nan,nan,nan,nan,nan,nan,nan,nan,nan,nan,nan,nan,nan,nan,nan,nan,198.51193304453045,482.41251433687285,nan,482.79002682492137,nan,nan,nan,nan
1,217,0,0,0.0,1.0,0.47306893253698945,1.0,0,1,6,8,3,2,1.0,1.0,1.0,1.0,1.0,1.0,0.0,0.0,1.0,1.0,0.0,0.0,2.0,1.0,6.0,6.0,8.0,4.0,5.0,4.0,3.0,2.0,1.0,6.0,5.0,3.808668438345194,3.1779862688854337,2.3138448745012283,1.5619448903016746,5.3124835174530745,4.545548446942121,198.51193304453045,483.4209496197291,484.2294019521214,483.89401855226606,490.6053158789873,491.603776903823,485.25455071078613,490.59698209166527
1,218,1,1,1.0,1.0,0.488517414778471,0.0,8,2,0,7,4,5,nan,nan,nan,nan,nan,nan,nan,nan,nan,nan,nan,nan,0.0,nan,nan,nan,nan,nan,nan,nan,nan,nan,nan,nan,nan,nan,nan,nan,nan,nan,nan,198.51193304453045,491.8054781584069,nan,492.2939955731854,nan,nan,nan,nan
1,219,1,1,1.0,1.0,0.463978202547878,0.0,7,0,1,6,2,8,nan,nan,nan,nan,nan,nan,nan,nan,nan,nan,nan,nan,0.0,nan,nan,nan,nan,nan,nan,nan,nan,nan,nan,nan,nan,nan,nan,nan,nan,nan,nan,198.51193304453045,492.8139964058064,nan,493.27797460835427,nan,nan,nan,nan
1,220,1,1,1.0,1.0,0.3354831850156188,0.0,6,7,5,1,3,4,nan,nan,nan,nan,nan,nan,nan,nan,nan,nan,nan,nan,0.0,nan,nan,nan,nan,nan,nan,nan,nan,nan,nan,nan,nan,nan,nan,nan,nan,nan,nan,198.51193304453045,493.82247017743066,nan,494.1579533624463,nan,nan,nan,nan
1,221,1,1,1.0,1.0,0.3189957947470248,0.0,8,0,7,4,1,2,nan,nan,nan,nan,nan,nan,nan,nan,nan,nan,nan,nan,0.0,nan,nan,nan,nan,nan,nan,nan,nan,nan,nan,nan,nan,nan,nan,nan,nan,nan,nan,198.51193304453045,494.83095763390884,nan,495.14995342865586,nan,nan,nan,nan
1,222,1,1,1.0,1.0,0.3504980285651982,0.0,3,2,1,6,7,4,nan,nan,nan,nan,nan,nan,nan,nan,nan,nan,nan,nan,0.0,nan,nan,nan,nan,nan,nan,nan,nan,nan,nan,nan,nan,nan,nan,nan,nan,nan,nan,198.51193304453045,495.8394428100437,nan,496.1899408386089,nan,nan,nan,nan
1,223,1,1,1.0,1.0,0.31803186796605587,0.0,7,1,3,2,0,6,nan,nan,nan,nan,nan,nan,nan,nan,nan,nan,nan,nan,0.0,nan,nan,nan,nan,nan,nan,nan,nan,nan,nan,nan,nan,nan,nan,nan,nan,nan,nan,198.51193304453045,496.84790346678346,nan,497.1659353347495,nan,nan,nan,nan
1,224,1,1,1.0,1.0,0.3175386432558298,0.0,1,8,2,6,5,3,nan,nan,nan,nan,nan,nan,nan,nan,nan,nan,nan,nan,0.0,nan,nan,nan,nan,nan,nan,nan,nan,nan,nan,nan,nan,nan,nan,nan,nan,nan,nan,198.51193304453045,497.85638978285715,nan,498.173928426113,nan,nan,nan,nan
1,225,1,1,1.0,1.0,0.3410389479249716,0.0,4,0,7,1,3,5,nan,nan,nan,nan,nan,nan,nan,nan,nan,nan,nan,nan,0.0,nan,nan,nan,nan,nan,nan,nan,nan,nan,nan,nan,nan,nan,nan,nan,nan,nan,nan,198.51193304453045,498.86487353313714,nan,499.2059124810621,nan,nan,nan,nan
1,226,1,1,1.0,1.0,0.3728847289457917,0.0,3,5,4,7,2,6,nan,nan,nan,nan,nan,nan,nan,nan,nan,nan,nan,nan,0.0,nan,nan,nan,nan,nan,nan,nan,nan,nan,nan,nan,nan,nan,nan,nan,nan,nan,nan,198.51193304453045,499.8650357555598,nan,500.2379204845056,nan,nan,nan,nan
1,227,0,0,0.0,1.0,0.4364197701215744,1.0,2,7,6,4,3,0,1.0,1.0,1.0,1.0,1.0,1.0,0.0,0.0,1.0,1.0,0.0,0.0,2.0,7.0,8.0,6.0,4.0,2.0,1.0,4.0,3.0,2.0,1.0,6.0,5.0,3.061626004986465,2.229897457640618,1.4949036771431565,0.8066727318800986,4.4290601732209325,3.7249479619786143,198.51193304453045,500.8734850087203,501.6819296432659,501.3099047788419,507.15770789049566,508.15525659220293,502.6904025594704,507.1493732482195
1,228,1,1,1.0,1.0,0.559975697658956,0.0,7,6,2,5,0,3,nan,nan,nan,nan,nan,nan,nan,nan,nan,nan,nan,nan,0.0,nan,nan,nan,nan,nan,nan,nan,nan,nan,nan,nan,nan,nan,nan,nan,nan,nan,nan,198.51193304453045,508.35791550111026,nan,508.9178911987692,nan,nan,nan,nan
1,229,0,0,nan,nan,nan,0.0,5,0,3,7,4,8,nan,nan,nan,nan,nan,nan,nan,nan,nan,nan,nan,nan,0.0,nan,nan,nan,nan,nan,nan,nan,nan,nan,nan,nan,nan,nan,nan,nan,nan,nan,nan,198.51193304453045,509.3580628982745,nan,nan,nan,nan,nan,nan
1,230,1,1,nan,nan,nan,0.0,6,3,7,1,8,2,nan,nan,nan,nan,nan,nan,nan,nan,nan,nan,nan,nan,0.0,nan,nan,nan,nan,nan,nan,nan,nan,nan,nan,nan,nan,nan,nan,nan,nan,nan,nan,198.51193304453045,510.35820174217224,nan,nan,nan,nan,nan,nan
1,231,1,1,nan,nan,nan,0.0,2,5,8,4,6,7,nan,nan,nan,nan,nan,nan,nan,nan,nan,nan,nan,nan,0.0,nan,nan,nan,nan,nan,nan,nan,nan,nan,nan,nan,nan,nan,nan,nan,nan,nan,nan,198.51193304453045,511.35835569677874,nan,nan,nan,nan,nan,nan
1,232,0,0,0.0,1.0,0.670946697704494,1.0,8,4,0,6,7,2,1.0,1.0,1.0,1.0,1.0,1.0,1.0,0.0,0.0,1.0,1.0,0.0,3.0,8.0,0.0,4.0,6.0,7.0,1.0,5.0,4.0,3.0,2.0,1.0,6.0,4.159486921038479,3.270931758452207,2.4406073335558176,1.7533597014844418,0.9761866545304656,4.951366332359612,198.51193304453045,512.3668405874632,513.175251009874,513.0377872851677,519.184455210343,520.1827879399061,514.1920736790635,519.1761199976318
1,233,1,1,1.0,1.0,0.3811586447991431,0.0,4,7,5,2,1,8,nan,nan,nan,nan,nan,nan,nan,nan,nan,nan,nan,nan,0.0,nan,nan,nan,nan,nan,nan,nan,nan,nan,nan,nan,nan,nan,nan,nan,nan,nan,nan,198.51193304453045,520.3846434340812,nan,520.7658020788804,nan,nan,nan,nan
1,234,1,1,1.0,1.0,0.38065401604399085,0.0,2,8,1,6,5,3,nan,nan,nan,nan,nan,nan,nan,nan,nan,nan,nan,nan,0.0,nan,nan,nan,nan,nan,nan,nan,nan,nan,nan,nan,nan,nan,nan,nan,nan,nan,nan,198.51193304453045,521.3931106482632,nan,521.7737646643072,nan,nan,nan,nan
1,235,1,1,1.0,1.0,0.41248867753893137,0.0,7,6,5,2,0,1,nan,nan,nan,nan,nan,nan,nan,nan,nan,nan,nan,nan,0.0,nan,nan,nan,nan,nan,nan,nan,nan,nan,nan,nan,nan,nan,nan,nan,nan,nan,nan,198.51193304453045,522.3932822793722,nan,522.8057709569111,nan,nan,nan,nan
1,236,1,1,1.0,1.0,0.4043370704166591,0.0,0,1,2,4,3,6,nan,nan,nan,nan,nan,nan,nan,nan,nan,nan,nan,nan,0.0,nan,nan,nan,nan,nan,nan,nan,nan,nan,nan,nan,nan,nan,nan,nan,nan,nan,nan,198.51193304453045,523.3934288211167,nan,523.7977658915333,nan,nan,nan,nan
1,237,1,1,1.0,1.0,0.44416311336681247,0.0,5,4,1,0,7,2,nan,nan,nan,nan,nan,nan,nan,nan,nan,nan,nan,nan,0.0,nan,nan,nan,nan,nan,nan,nan,nan,nan,nan,nan,nan,nan,nan,nan,nan,nan,nan,198.51193304453045,524.3935787840746,nan,524.8377418974414,nan,nan,nan,nan
1,238,1,1,1.0,1.0,0.460022141225636,0.0,8,1,6,5,3,7,nan,nan,nan,nan,nan,nan,nan,nan,nan,nan,nan,nan,0.0,nan,nan,nan,nan,nan,nan,nan,nan,nan,nan,nan,nan,nan,nan,nan,nan,nan,nan,198.51193304453045,525.3937239004299,nan,525.8537460416555,nan,nan,nan,nan
1,239,1,1,1.0,1.0,0.39587926445528865,0.0,6,8,0,1,2,3,nan,nan,nan,nan,nan,nan,nan,nan,nan,nan,nan,nan,0.0,nan,nan,nan,nan,nan,nan,nan,nan,nan,nan,nan,nan,nan,nan,nan,nan,nan,nan,198.51193304453045,526.3938644551672,nan,526.7897437196225,nan,nan,nan,nan
1,240,1,1,1.0,1.0,0.4037184012122452,0.0,0,4,2,3,7,6,nan,nan,nan,nan,nan,nan,nan,nan,nan,nan,nan,nan,0.0,nan,nan,nan,nan,nan,nan,nan,nan,nan,nan,nan,nan,nan,nan,nan,nan,nan,nan,198.51193304453045,527.3940132781863,nan,527.7977316793986,nan,nan,nan,nan
1,241,1,1,1.0,1.0,0.37956207944080234,0.0,1,8,7,0,4,5,nan,nan,nan,nan,nan,nan,nan,nan,nan,nan,nan,nan,0.0,nan,nan,nan,nan,nan,nan,nan,nan,nan,nan,nan,nan,nan,nan,nan,nan,nan,nan,198.51193304453045,528.3941498412751,nan,528.7737119207159,nan,nan,nan,nan
1,242,1,1,1.0,1.0,0.3714272924698889,0.0,2,6,3,5,7,8,nan,nan,nan,nan,nan,nan,nan,nan,nan,nan,nan,nan,0.0,nan,nan,nan,nan,nan,nan,nan,nan,nan,nan,nan,nan,nan,nan,nan,nan,nan,nan,198.51193304453045,529.3942932472564,nan,529.7657205397263,nan,nan,nan,nan
1,243,1,1,1.0,1.0,0.34726726450026035,0.0,6,4,0,7,1,3,nan,nan,nan,nan,nan,nan,nan,nan,nan,nan,nan,nan,0.0,nan,nan,nan,nan,nan,nan,nan,nan,nan,nan,nan,nan,nan,nan,nan,nan,nan,nan,198.51193304453045,530.3944409294054,nan,530.7417081939057,nan,nan,nan,nan
1,244,0,0,0.0,1.0,0.5551158664748073,1.0,4,6,5,2,3,1,1.0,1.0,1.0,1.0,1.0,1.0,0.0,0.0,0.0,0.0,1.0,0.0,1.0,8.0,1.0,2.0,5.0,3.0,0.0,5.0,4.0,3.0,2.0,1.0,6.0,6.627366160042584,5.548460183665156,2.661280918866396,1.869345627259463,1.0117068169638515,7.5713466657325625,198.51193304453045,531.3945871861652,532.2030044510029,531.94970305264,540.8292475985363,541.8354608044028,533.2198276906274,540.8209172324277
1,245,1,1,1.0,1.0,0.3358900239691138,0.0,1,5,4,7,6,2,nan,nan,nan,nan,nan,nan,nan,nan,nan,nan,nan,nan,0.0,nan,nan,nan,nan,nan,nan,nan,nan,nan,nan,nan,nan,nan,nan,nan,nan,nan,nan,198.51193304453045,542.0377753111534,nan,542.3736653351225,nan,nan,nan,nan
1,246,1,1,1.0,1.0,0.33570043183863163,0.0,6,2,0,3,5,8,nan,nan,nan,nan,nan,nan,nan,nan,nan,nan,nan,nan,0.0,nan,nan,nan,nan,nan,nan,nan,nan,nan,nan,nan,nan,nan,nan,nan,nan,nan,nan,198.51193304453045,543.0379341123626,nan,543.3736345442012,nan,nan,nan,nan
1,247,1,1,1.0,1.0,0.2955513698980212,0.0,3,1,4,0,6,2,nan,nan,nan,nan,nan,nan,nan,nan,nan,nan,nan,nan,0.0,nan,nan,nan,nan,nan,nan,nan,nan,nan,nan,nan,nan,nan,nan,nan,nan,nan,nan,198.51193304453045,544.0380760924891,nan,544.3336274623871,nan,nan,nan,nan
1,248,1,1,1.0,1.0,0.31935416674241424,0.0,4,6,5,8,3,7,nan,nan,nan,nan,nan,nan,nan,nan,nan,nan,nan,nan,0.0,nan,nan,nan,nan,nan,nan,nan,nan,nan,nan,nan,nan,nan,nan,nan,nan,nan,nan,198.51193304453045,545.0382631188259,nan,545.3576172855683,nan,nan,nan,nan
1,249,1,1,1.0,1.0,0.34325475292280316,0.0,6,1,0,4,7,2,nan,nan,nan,nan,nan,nan,nan,nan,nan,nan,nan,nan,0.0,nan,nan,nan,nan,nan,nan,nan,nan,nan,nan,nan,nan,nan,nan,nan,nan,nan,nan,198.51193304453045,546.0383566319942,nan,546.381611384917,nan,nan,nan,nan
1,250,1,1,1.0,1.0,0.32710378151386976,0.0,7,8,4,5,2,3,nan,nan,nan,nan,nan,nan,nan,nan,nan,nan,nan,nan,0.0,nan,nan,nan,nan,nan,nan,nan,nan,nan,nan,nan,nan,nan,nan,nan,nan,nan,nan,198.51193304453045,547.038498327136,nan,547.3656021086499,nan,nan,nan,nan
1,251,1,1,1.0,1.0,0.2706095944158733,0.0,5,3,8,2,7,1,nan,nan,nan,nan,nan,nan,nan,nan,nan,nan,nan,nan,0.0,nan,nan,nan,nan,nan,nan,nan,nan,nan,nan,nan,nan,nan,nan,nan,nan,nan,nan,198.51193304453045,548.0469974731095,nan,548.3176070675254,nan,nan,nan,nan
1,252,1,1,1.0,1.0,0.2944779647514224,0.0,7,8,6,5,2,3,nan,nan,nan,nan,nan,nan,nan,nan,nan,nan,nan,nan,0.0,nan,nan,nan,nan,nan,nan,nan,nan,nan,nan,nan,nan,nan,nan,nan,nan,nan,nan,198.51193304453045,549.0471249129623,nan,549.3416028777137,nan,nan,nan,nan
1,253,1,1,1.0,1.0,0.28629670618101954,0.0,5,3,4,8,1,2,nan,nan,nan,nan,nan,nan,nan,nan,nan,nan,nan,nan,0.0,nan,nan,nan,nan,nan,nan,nan,nan,nan,nan,nan,nan,nan,nan,nan,nan,nan,nan,198.51193304453045,550.0472811483778,nan,550.3335778545588,nan,nan,nan,nan
1,254,1,1,1.0,1.0,0.27015058184042573,0.0,0,1,3,5,8,4,nan,nan,nan,nan,nan,nan,nan,nan,nan,nan,nan,nan,0.0,nan,nan,nan,nan,nan,nan,nan,nan,nan,nan,nan,nan,nan,nan,nan,nan,nan,nan,198.51193304453045,551.0474256947637,nan,551.3175762766041,nan,nan,nan,nan
1,255,1,1,1.0,1.0,0.28567433077841997,0.0,7,2,6,4,3,0,nan,nan,nan,nan,nan,nan,nan,nan,nan,nan,nan,nan,0.0,nan,nan,nan,nan,nan,nan,nan,nan,nan,nan,nan,nan,nan,nan,nan,nan,nan,nan,198.51193304453045,552.0558872069232,nan,552.3415615377016,nan,nan,nan,nan
1,256,1,1,1.0,1.0,0.2691778168082237,0.0,0,5,3,6,7,1,nan,nan,nan,nan,nan,nan,nan,nan,nan,nan,nan,nan,0.0,nan,nan,nan,nan,nan,nan,nan,nan,nan,nan,nan,nan,nan,nan,nan,nan,nan,nan,198.51193304453045,553.0643795104697,nan,553.333557327278,nan,nan,nan,nan
1,257,1,1,1.0,1.0,0.3410195610485971,0.0,8,1,6,2,4,0,nan,nan,nan,nan,nan,nan,nan,nan,nan,nan,nan,nan,0.0,nan,nan,nan,nan,nan,nan,nan,nan,nan,nan,nan,nan,nan,nan,nan,nan,nan,nan,198.51193304453045,554.0645280480385,nan,554.4055476090871,nan,nan,nan,nan
1,258,1,1,1.0,1.0,0.32487486209720373,0.0,3,0,5,4,6,7,nan,nan,nan,nan,nan,nan,nan,nan,nan,nan,nan,nan,0.0,nan,nan,nan,nan,nan,nan,nan,nan,nan,nan,nan,nan,nan,nan,nan,nan,nan,nan,198.51193304453045,555.064672308974,nan,555.3895471710712,nan,nan,nan,nan
1,259,1,1,1.0,1.0,0.28471639147028327,0.0,4,2,1,5,8,0,nan,nan,nan,nan,nan,nan,nan,nan,nan,nan,nan,nan,0.0,nan,nan,nan,nan,nan,nan,nan,nan,nan,nan,nan,nan,nan,nan,nan,nan,nan,nan,198.51193304453045,556.0648236977868,nan,556.3495400892571,nan,nan,nan,nan
1,260,1,1,1.0,1.0,0.26856428012251854,0.0,8,0,4,2,6,3,nan,nan,nan,nan,nan,nan,nan,nan,nan,nan,nan,nan,0.0,nan,nan,nan,nan,nan,nan,nan,nan,nan,nan,nan,nan,nan,nan,nan,nan,nan,nan,198.51193304453045,557.0649693841115,nan,557.333533664234,nan,nan,nan,nan
1,261,1,1,1.0,1.0,0.2924044248647988,0.0,2,7,5,8,1,6,nan,nan,nan,nan,nan,nan,nan,nan,nan,nan,nan,nan,0.0,nan,nan,nan,nan,nan,nan,nan,nan,nan,nan,nan,nan,nan,nan,nan,nan,nan,nan,198.51193304453045,558.0651153558865,nan,558.3575197807513,nan,nan,nan,nan
1,262,1,1,1.0,1.0,0.2842722041532397,0.0,4,3,0,6,8,7,nan,nan,nan,nan,nan,nan,nan,nan,nan,nan,nan,nan,0.0,nan,nan,nan,nan,nan,nan,nan,nan,nan,nan,nan,nan,nan,nan,nan,nan,nan,nan,198.51193304453045,559.0652476428077,nan,559.3495198469609,nan,nan,nan,nan
1,263,1,1,1.0,1.0,0.44410922890529037,0.0,8,7,1,4,6,5,nan,nan,nan,nan,nan,nan,nan,nan,nan,nan,nan,nan,0.0,nan,nan,nan,nan,nan,nan,nan,nan,nan,nan,nan,nan,nan,nan,nan,nan,nan,nan,198.51193304453045,560.0654047336429,nan,560.5095139625482,nan,nan,nan,nan
1,264,1,1,1.0,1.0,0.34796319575980306,0.0,3,1,6,7,5,0,nan,nan,nan,nan,nan,nan,nan,nan,nan,nan,nan,nan,0.0,nan,nan,nan,nan,nan,nan,nan,nan,nan,nan,nan,nan,nan,nan,nan,nan,nan,nan,198.51193304453045,561.0655458583497,nan,561.4135090541095,nan,nan,nan,nan
1,265,0,0,0.0,1.0,0.5718085295520723,1.0,6,0,8,1,2,5,1.0,1.0,1.0,1.0,1.0,1.0,0.0,0.0,0.0,0.0,1.0,1.0,2.0,0.0,1.0,6.0,8.0,2.0,5.0,6.0,5.0,4.0,3.0,1.0,2.0,6.539618631824851,5.508544334210455,4.747974713798612,3.95762230316177,0.8760195570066571,1.5736767961643636,198.51193304453045,562.0656858431175,562.8740999717265,562.6374943726696,570.4668269311078,571.4752987073734,563.8909172238782,570.4584860163741
1,266,1,1,1.0,1.0,0.3057559891603887,0.0,1,6,4,2,0,3,nan,nan,nan,nan,nan,nan,nan,nan,nan,nan,nan,nan,0.0,nan,nan,nan,nan,nan,nan,nan,nan,nan,nan,nan,nan,nan,nan,nan,nan,nan,nan,198.51193304453045,571.6837126649916,nan,571.989468654152,nan,nan,nan,nan
1,267,1,1,1.0,1.0,0.37723793601617217,0.0,5,0,2,8,3,1,nan,nan,nan,nan,nan,nan,nan,nan,nan,nan,nan,nan,0.0,nan,nan,nan,nan,nan,nan,nan,nan,nan,nan,nan,nan,nan,nan,nan,nan,nan,nan,198.51193304453045,572.6922197933309,nan,573.069457729347,nan,nan,nan,nan
1,268,1,1,1.0,1.0,0.3290641359053552,0.0,2,8,4,1,0,6,nan,nan,nan,nan,nan,nan,nan,nan,nan,nan,nan,nan,0.0,nan,nan,nan,nan,nan,nan,nan,nan,nan,nan,nan,nan,nan,nan,nan,nan,nan,nan,198.51193304453045,573.6923580672592,nan,574.0214222031645,nan,nan,nan,nan
1,269,1,1,1.0,1.0,0.304911520332098,0.0,8,7,1,5,3,0,nan,nan,nan,nan,nan,nan,nan,nan,nan,nan,nan,nan,0.0,nan,nan,nan,nan,nan,nan,nan,nan,nan,nan,nan,nan,nan,nan,nan,nan,nan,nan,198.51193304453045,574.6925054644234,nan,574.9974169847555,nan,nan,nan,nan
1,270,1,1,1.0,1.0,0.328437483869493,0.0,6,1,8,7,0,5,nan,nan,nan,nan,nan,nan,nan,nan,nan,nan,nan,nan,0.0,nan,nan,nan,nan,nan,nan,nan,nan,nan,nan,nan,nan,nan,nan,nan,nan,nan,nan,198.51193304453045,575.7009669770487,nan,576.0294044609182,nan,nan,nan,nan
1,271,1,1,1.0,1.0,0.2879659729078412,0.0,0,3,5,6,8,4,nan,nan,nan,nan,nan,nan,nan,nan,nan,nan,nan,nan,0.0,nan,nan,nan,nan,nan,nan,nan,nan,nan,nan,nan,nan,nan,nan,nan,nan,nan,nan,198.51193304453045,576.7094481610693,nan,576.9974141339771,nan,nan,nan,nan
1,272,1,1,1.0,1.0,0.29577232291921973,0.0,3,0,4,1,6,8,nan,nan,nan,nan,nan,nan,nan,nan,nan,nan,nan,nan,0.0,nan,nan,nan,nan,nan,nan,nan,nan,nan,nan,nan,nan,nan,nan,nan,nan,nan,nan,198.51193304453045,577.7096158005297,nan,578.0053881234489,nan,nan,nan,nan
1,273,1,1,1.0,1.0,0.343643915373832,0.0,5,2,1,4,8,7,nan,nan,nan,nan,nan,nan,nan,nan,nan,nan,nan,nan,0.0,nan,nan,nan,nan,nan,nan,nan,nan,nan,nan,nan,nan,nan,nan,nan,nan,nan,nan,198.51193304453045,578.7097535044886,nan,579.0533974198624,nan,nan,nan,nan
1,274,1,1,1.0,1.0,0.29547724314033985,0.0,8,4,6,3,0,1,nan,nan,nan,nan,nan,nan,nan,nan,nan,nan,nan,nan,0.0,nan,nan,nan,nan,nan,nan,nan,nan,nan,nan,nan,nan,nan,nan,nan,nan,nan,nan,198.51193304453045,579.7099028974771,nan,580.0053801406175,nan,nan,nan,nan
1,275,1,1,1.0,1.0,0.27933539543300867,0.0,6,8,1,7,4,2,nan,nan,nan,nan,nan,nan,nan,nan,nan,nan,nan,nan,0.0,nan,nan,nan,nan,nan,nan,nan,nan,nan,nan,nan,nan,nan,nan,nan,nan,nan,nan,198.51193304453045,580.7100497242063,nan,580.9893851196393,nan,nan,nan,nan
1,276,1,1,1.0,1.0,0.2951929974369705,0.0,5,2,6,3,1,0,nan,nan,nan,nan,nan,nan,nan,nan,nan,nan,nan,nan,0.0,nan,nan,nan,nan,nan,nan,nan,nan,nan,nan,nan,nan,nan,nan,nan,nan,nan,nan,198.51193304453045,581.7101840069517,nan,582.0053770043887,nan,nan,nan,nan
1,277,1,1,1.0,1.0,0.2790417415089905,0.0,1,5,4,6,7,3,nan,nan,nan,nan,nan,nan,nan,nan,nan,nan,nan,nan,0.0,nan,nan,nan,nan,nan,nan,nan,nan,nan,nan,nan,nan,nan,nan,nan,nan,nan,nan,198.51193304453045,582.7103285528719,nan,582.9893702943809,nan,nan,nan,nan
1,278,1,1,1.0,1.0,0.2388690155930817,0.0,2,1,7,8,6,4,nan,nan,nan,nan,nan,nan,nan,nan,nan,nan,nan,nan,0.0,nan,nan,nan,nan,nan,nan,nan,nan,nan,nan,nan,nan,nan,nan,nan,nan,nan,nan,198.51193304453045,583.7104807971045,nan,583.9493498126976,nan,nan,nan,nan
1,279,0,0,0.0,1.0,0.49473461229354143,1.0,5,0,2,6,1,8,1.0,1.0,1.0,1.0,1.0,1.0,0.0,0.0,1.0,1.0,1.0,1.0,4.0,0.0,5.0,2.0,6.0,1.0,8.0,6.0,5.0,4.0,2.0,1.0,3.0,4.950171758886427,4.246182140894234,3.2155568776652217,1.608524120412767,0.8389264917932451,2.392519063781947,198.51193304453045,584.710622777231,585.5190397570841,585.2053573895246,591.5365703320131,592.535175902769,586.544196783565,591.5282393954694
1,280,1,1,1.0,1.0,0.36457745637744665,0.0,1,5,6,2,0,7,nan,nan,nan,nan,nan,nan,nan,nan,nan,nan,nan,nan,0.0,nan,nan,nan,nan,nan,nan,nan,nan,nan,nan,nan,nan,nan,nan,nan,nan,nan,nan,198.51193304453045,592.7367448704317,nan,593.1013223268092,nan,nan,nan,nan
1,281,1,1,1.0,1.0,0.3163734353147447,0.0,8,4,7,1,3,5,nan,nan,nan,nan,nan,nan,nan,nan,nan,nan,nan,nan,0.0,nan,nan,nan,nan,nan,nan,nan,nan,nan,nan,nan,nan,nan,nan,nan,nan,nan,nan,198.51193304453045,593.7369153611362,nan,594.0532887964509,nan,nan,nan,nan
1,282,1,1,1.0,1.0,0.30025895731523633,0.0,1,6,4,8,7,0,nan,nan,nan,nan,nan,nan,nan,nan,nan,nan,nan,nan,0.0,nan,nan,nan,nan,nan,nan,nan,nan,nan,nan,nan,nan,nan,nan,nan,nan,nan,nan,198.51193304453045,594.7370279757306,nan,595.0372869330458,nan,nan,nan,nan
1,283,1,1,1.0,1.0,0.2680721958167851,0.0,7,0,6,2,5,8,nan,nan,nan,nan,nan,nan,nan,nan,nan,nan,nan,nan,0.0,nan,nan,nan,nan,nan,nan,nan,nan,nan,nan,nan,nan,nan,nan,nan,nan,nan,nan,198.51193304453045,595.7372081596404,nan,596.0052803554572,nan,nan,nan,nan
1,284,1,1,1.0,1.0,0.2839035685174167,0.0,0,7,8,4,3,5,nan,nan,nan,nan,nan,nan,nan,nan,nan,nan,nan,nan,0.0,nan,nan,nan,nan,nan,nan,nan,nan,nan,nan,nan,nan,nan,nan,nan,nan,nan,nan,198.51193304453045,596.737362684682,nan,597.0212662531994,nan,nan,nan,nan
1,285,1,1,1.0,1.0,0.2997560389339924,0.0,5,1,6,8,4,0,nan,nan,nan,nan,nan,nan,nan,nan,nan,nan,nan,nan,0.0,nan,nan,nan,nan,nan,nan,nan,nan,nan,nan,nan,nan,nan,nan,nan,nan,nan,nan,198.51193304453045,597.7375046648085,nan,598.0372607037425,nan,nan,nan,nan
1,286,1,1,1.0,1.0,0.37161232298240066,0.0,0,3,1,4,2,8,nan,nan,nan,nan,nan,nan,nan,nan,nan,nan,nan,nan,0.0,nan,nan,nan,nan,nan,nan,nan,nan,nan,nan,nan,nan,nan,nan,nan,nan,nan,nan,198.51193304453045,598.7376537728123,nan,599.1092660957947,nan,nan,nan,nan
1,287,1,1,1.0,1.0,0.3314686776138842,0.0,7,4,6,1,8,5,nan,nan,nan,nan,nan,nan,nan,nan,nan,nan,nan,nan,0.0,nan,nan,nan,nan,nan,nan,nan,nan,nan,nan,nan,nan,nan,nan,nan,nan,nan,nan,198.51193304453045,599.7377877701074,nan,600.0692564477213,nan,nan,nan,nan
1,288,1,1,1.0,1.0,0.2910319482907653,0.0,1,3,0,7,2,8,nan,nan,nan,nan,nan,nan,nan,nan,nan,nan,nan,nan,0.0,nan,nan,nan,nan,nan,nan,nan,nan,nan,nan,nan,nan,nan,nan,nan,nan,nan,nan,198.51193304453045,600.746225619223,nan,601.0372575675137,nan,nan,nan,nan
1,289,1,1,1.0,1.0,0.26684227026998997,0.0,0,4,2,1,7,3,nan,nan,nan,nan,nan,nan,nan,nan,nan,nan,nan,nan,0.0,nan,nan,nan,nan,nan,nan,nan,nan,nan,nan,nan,nan,nan,nan,nan,nan,nan,nan,198.51193304453045,601.7464069430716,nan,602.0132492133416,nan,nan,nan,nan
1,290,1,1,1.0,1.0,0.32266618497669697,0.0,8,7,3,0,5,6,nan,nan,nan,nan,nan,nan,nan,nan,nan,nan,nan,nan,0.0,nan,nan,nan,nan,nan,nan,nan,nan,nan,nan,nan,nan,nan,nan,nan,nan,nan,nan,198.51193304453045,602.7465608976781,nan,603.0692270826548,nan,nan,nan,nan
1,291,1,1,1.0,1.0,0.2905347323976457,0.0,3,4,1,2,6,7,nan,nan,nan,nan,nan,nan,nan,nan,nan,nan,nan,nan,0.0,nan,nan,nan,nan,nan,nan,nan,nan,nan,nan,nan,nan,nan,nan,nan,nan,nan,nan,198.51193304453045,603.7466971762478,nan,604.0372319086455,nan,nan,nan,nan
1,292,1,1,1.0,1.0,0.2823905376717448,0.0,4,6,3,1,7,5,nan,nan,nan,nan,nan,nan,nan,nan,nan,nan,nan,nan,0.0,nan,nan,nan,nan,nan,nan,nan,nan,nan,nan,nan,nan,nan,nan,nan,nan,nan,nan,198.51193304453045,604.7468422926031,nan,605.0292328302749,nan,nan,nan,nan
1,293,1,1,1.0,1.0,0.29022853448987007,0.0,0,7,2,5,8,3,nan,nan,nan,nan,nan,nan,nan,nan,nan,nan,nan,nan,0.0,nan,nan,nan,nan,nan,nan,nan,nan,nan,nan,nan,nan,nan,nan,nan,nan,nan,nan,198.51193304453045,605.7469856981188,nan,606.0372142326087,nan,nan,nan,nan
1,294,1,1,1.0,1.0,0.29807850485667586,0.0,1,8,0,2,3,4,nan,nan,nan,nan,nan,nan,nan,nan,nan,nan,nan,nan,0.0,nan,nan,nan,nan,nan,nan,nan,nan,nan,nan,nan,nan,nan,nan,nan,nan,nan,nan,198.51193304453045,606.7471310999244,nan,607.0452096047811,nan,nan,nan,nan
1,295,0,0,0.0,1.0,0.5139353089034557,1.0,6,0,1,4,2,8,1.0,1.0,1.0,1.0,1.0,1.0,0.0,0.0,1.0,1.0,1.0,0.0,3.0,8.0,3.0,1.0,4.0,2.0,6.0,5.0,4.0,3.0,2.0,1.0,6.0,4.802171272225678,3.907288863323629,3.212159044109285,2.1554669965989888,0.8188556674867868,5.53054472245276,198.51193304453045,607.7472807778977,608.5556988976896,608.2612160868011,615.1316086053848,616.1378386318684,609.5641766609624,615.1233178684488
1,296,1,1,1.0,1.0,0.512944582849741,0.0,1,8,4,6,5,2,nan,nan,nan,nan,nan,nan,nan,nan,nan,nan,nan,nan,0.0,nan,nan,nan,nan,nan,nan,nan,nan,nan,nan,nan,nan,nan,nan,nan,nan,nan,nan,198.51193304453045,616.3401705301367,nan,616.8531151129864,nan,nan,nan,nan
1,297,1,1,1.0,1.0,0.3684987351298332,0.0,2,0,7,5,8,6,nan,nan,nan,nan,nan,nan,nan,nan,nan,nan,nan,nan,0.0,nan,nan,nan,nan,nan,nan,nan,nan,nan,nan,nan,nan,nan,nan,nan,nan,nan,nan,198.51193304453045,617.3486277661286,nan,617.7171265012585,nan,nan,nan,nan
1,298,1,1,1.0,1.0,0.32000020518898964,0.0,5,7,6,2,3,8,nan,nan,nan,nan,nan,nan,nan,nan,nan,nan,nan,nan,0.0,nan,nan,nan,nan,nan,nan,nan,nan,nan,nan,nan,nan,nan,nan,nan,nan,nan,nan,198.51193304453045,618.3571320436895,nan,618.6771322488785,nan,nan,nan,nan
1,299,1,1,1.0,1.0,0.3275305782444775,0.0,6,1,4,3,0,2,nan,nan,nan,nan,nan,nan,nan,nan,nan,nan,nan,nan,0.0,nan,nan,nan,nan,nan,nan,nan,nan,nan,nan,nan,nan,nan,nan,nan,nan,nan,nan,198.51193304453045,619.365583862178,nan,619.6931144404225,nan,nan,nan,nan
1,300,1,1,1.0,1.0,0.31903257267549634,0.0,5,6,1,0,8,7,nan,nan,nan,nan,nan,nan,nan,nan,nan,nan,nan,nan,0.0,nan,nan,nan,nan,nan,nan,nan,nan,nan,nan,nan,nan,nan,nan,nan,nan,nan,nan,198.51193304453045,620.3740898505785,nan,620.693122423254,nan,nan,nan,nan
1,301,1,1,1.0,1.0,0.3505559037439525,0.0,1,5,4,8,6,3,nan,nan,nan,nan,nan,nan,nan,nan,nan,nan,nan,nan,0.0,nan,nan,nan,nan,nan,nan,nan,nan,nan,nan,nan,nan,nan,nan,nan,nan,nan,nan,198.51193304453045,621.3825630522333,nan,621.7331189559773,nan,nan,nan,nan
1,302,1,1,1.0,1.0,0.34207186894491315,0.0,7,1,8,0,4,5,nan,nan,nan,nan,nan,nan,nan,nan,nan,nan,nan,nan,0.0,nan,nan,nan,nan,nan,nan,nan,nan,nan,nan,nan,nan,nan,nan,nan,nan,nan,nan,198.51193304453045,622.3910371088423,nan,622.7331089777872,nan,nan,nan,nan
1,303,1,1,1.0,1.0,0.34189767204225063,0.0,3,5,2,1,7,6,nan,nan,nan,nan,nan,nan,nan,nan,nan,nan,nan,nan,0.0,nan,nan,nan,nan,nan,nan,nan,nan,nan,nan,nan,nan,nan,nan,nan,nan,nan,nan,198.51193304453045,623.3912004716694,nan,623.7330981437117,nan,nan,nan,nan
1,304,1,1,1.0,1.0,0.4137502498924732,0.0,5,8,1,4,3,0,nan,nan,nan,nan,nan,nan,nan,nan,nan,nan,nan,nan,0.0,nan,nan,nan,nan,nan,nan,nan,nan,nan,nan,nan,nan,nan,nan,nan,nan,nan,nan,198.51193304453045,624.3913421668112,nan,624.8050924167037,nan,nan,nan,nan
1,305,1,1,1.0,1.0,0.34159603528678417,0.0,1,3,8,6,7,4,nan,nan,nan,nan,nan,nan,nan,nan,nan,nan,nan,nan,0.0,nan,nan,nan,nan,nan,nan,nan,nan,nan,nan,nan,nan,nan,nan,nan,nan,nan,nan,198.51193304453045,625.3914869981818,nan,625.7330830334686,nan,nan,nan,nan
1,306,0,0,0.0,1.0,0.34110908303409815,0.0,8,0,5,1,4,2,nan,nan,nan,nan,nan,nan,nan,nan,nan,nan,nan,nan,0.0,nan,nan,nan,nan,nan,nan,nan,nan,nan,nan,nan,nan,nan,nan,nan,nan,nan,nan,198.51193304453045,626.399969893042,nan,626.7410789760761,nan,nan,nan,nan
1,307,1,1,nan,nan,nan,0.0,7,6,2,4,3,8,nan,nan,nan,nan,nan,nan,nan,nan,nan,nan,nan,nan,0.0,nan,nan,nan,nan,nan,nan,nan,nan,nan,nan,nan,nan,nan,nan,nan,nan,nan,nan,198.51193304453045,627.4001141544431,nan,nan,nan,nan,nan,nan
1,308,1,1,1.0,1.0,0.10853196075186133,0.0,4,5,8,2,7,0,nan,nan,nan,nan,nan,nan,nan,nan,nan,nan,nan,nan,0.0,nan,nan,nan,nan,nan,nan,nan,nan,nan,nan,nan,nan,nan,nan,nan,nan,nan,nan,198.51193304453045,628.4085636925884,nan,628.5170956533402,nan,nan,nan,nan
1,309,1,1,1.0,1.0,0.2360097379423678,0.0,6,4,1,3,8,5,nan,nan,nan,nan,nan,nan,nan,nan,nan,nan,nan,nan,0.0,nan,nan,nan,nan,nan,nan,nan,nan,nan,nan,nan,nan,nan,nan,nan,nan,nan,nan,198.51193304453045,629.4170571360737,nan,629.6530668740161,nan,nan,nan,nan
1,310,1,1,1.0,1.0,0.28351412061601877,0.0,0,8,4,5,1,3,nan,nan,nan,nan,nan,nan,nan,nan,nan,nan,nan,nan,0.0,nan,nan,nan,nan,nan,nan,nan,nan,nan,nan,nan,nan,nan,nan,nan,nan,nan,nan,198.51193304453045,630.425535469316,nan,630.709049589932,nan,nan,nan,nan
1,311,1,1,1.0,1.0,0.3473693300038576,0.0,1,6,3,8,4,7,nan,nan,nan,nan,nan,nan,nan,nan,nan,nan,nan,nan,0.0,nan,nan,nan,nan,nan,nan,nan,nan,nan,nan,nan,nan,nan,nan,nan,nan,nan,nan,198.51193304453045,631.4256902793422,nan,631.7730596093461,nan,nan,nan,nan
1,312,1,1,1.0,1.0,0.30687672179192305,0.0,4,7,6,1,3,0,nan,nan,nan,nan,nan,nan,nan,nan,nan,nan,nan,nan,0.0,nan,nan,nan,nan,nan,nan,nan,nan,nan,nan,nan,nan,nan,nan,nan,nan,nan,nan,198.51193304453045,632.4341589189135,nan,632.7410356407054,nan,nan,nan,nan
1,313,1,1,1.0,1.0,0.2906998060643673,0.0,5,0,1,2,4,8,nan,nan,nan,nan,nan,nan,nan,nan,nan,nan,nan,nan,0.0,nan,nan,nan,nan,nan,nan,nan,nan,nan,nan,nan,nan,nan,nan,nan,nan,nan,nan,198.51193304453045,633.4343279837631,nan,633.7250277898274,nan,nan,nan,nan
1,314,1,1,1.0,1.0,0.32256982009857893,0.0,4,7,3,0,2,6,nan,nan,nan,nan,nan,nan,nan,nan,nan,nan,nan,nan,0.0,nan,nan,nan,nan,nan,nan,nan,nan,nan,nan,nan,nan,nan,nan,nan,nan,nan,nan,198.51193304453045,634.434466258157,nan,634.7570360782556,nan,nan,nan,nan
1,315,1,1,1.0,1.0,0.36240441631525755,0.0,3,5,0,1,4,7,nan,nan,nan,nan,nan,nan,nan,nan,nan,nan,nan,nan,0.0,nan,nan,nan,nan,nan,nan,nan,nan,nan,nan,nan,nan,nan,nan,nan,nan,nan,nan,198.51193304453045,635.4346193573438,nan,635.797023773659,nan,nan,nan,nan
1,316,1,1,1.0,1.0,0.594256526324898,0.0,1,4,7,5,8,2,nan,nan,nan,nan,nan,nan,nan,nan,nan,nan,nan,nan,0.0,nan,nan,nan,nan,nan,nan,nan,nan,nan,nan,nan,nan,nan,nan,nan,nan,nan,nan,198.51193304453045,636.4347610524856,nan,637.0290175788105,nan,nan,nan,nan
1,317,1,1,1.0,1.0,0.3540962883271277,0.0,7,6,1,0,3,4,nan,nan,nan,nan,nan,nan,nan,nan,nan,nan,nan,nan,0.0,nan,nan,nan,nan,nan,nan,nan,nan,nan,nan,nan,nan,nan,nan,nan,nan,nan,nan,198.51193304453045,637.4348979010247,nan,637.7889941893518,nan,nan,nan,nan
1,318,1,1,1.0,1.0,0.32962065329775214,0.0,8,0,6,5,2,3,nan,nan,nan,nan,nan,nan,nan,nan,nan,nan,nan,nan,0.0,nan,nan,nan,nan,nan,nan,nan,nan,nan,nan,nan,nan,nan,nan,nan,nan,nan,nan,198.51193304453045,638.4433742384426,nan,638.7729948917404,nan,nan,nan,nan
1,319,1,1,1.0,1.0,0.42546847090125084,0.0,6,8,5,7,3,2,nan,nan,nan,nan,nan,nan,nan,nan,nan,nan,nan,nan,0.0,nan,nan,nan,nan,nan,nan,nan,nan,nan,nan,nan,nan,nan,nan,nan,nan,nan,nan,198.51193304453045,639.4435273376293,nan,639.8689958085306,nan,nan,nan,nan
1,320,1,1,1.0,1.0,0.40931464871391654,0.0,8,7,2,6,0,4,nan,nan,nan,nan,nan,nan,nan,nan,nan,nan,nan,nan,0.0,nan,nan,nan,nan,nan,nan,nan,nan,nan,nan,nan,nan,nan,nan,nan,nan,nan,nan,198.51193304453045,640.4436610499397,nan,640.8529756986536,nan,nan,nan,nan
1,321,1,1,1.0,1.0,0.35284669045358896,0.0,4,2,6,5,3,1,nan,nan,nan,nan,nan,nan,nan,nan,nan,nan,nan,nan,0.0,nan,nan,nan,nan,nan,nan,nan,nan,nan,nan,nan,nan,nan,nan,nan,nan,nan,nan,198.51193304453045,641.4521237029694,nan,641.804970393423,nan,nan,nan,nan
1,322,0,0,1.0,0.0,0.35270271450281143,0.0,7,8,0,1,2,6,nan,nan,nan,nan,nan,nan,nan,nan,nan,nan,nan,nan,0.0,nan,nan,nan,nan,nan,nan,nan,nan,nan,nan,nan,nan,nan,nan,nan,nan,nan,nan,198.51193304453045,642.4522753767669,nan,642.8049780912697,nan,nan,nan,nan
1,323,1,1,1.0,1.0,0.4245336246676743,0.0,1,5,6,3,7,4,nan,nan,nan,nan,nan,nan,nan,nan,nan,nan,nan,nan,0.0,nan,nan,nan,nan,nan,nan,nan,nan,nan,nan,nan,nan,nan,nan,nan,nan,nan,nan,198.51193304453045,643.4524287609383,nan,643.876962385606,nan,nan,nan,nan
1,324,1,1,1.0,1.0,0.3280668528750539,0.0,3,7,0,5,4,1,nan,nan,nan,nan,nan,nan,nan,nan,nan,nan,nan,nan,0.0,nan,nan,nan,nan,nan,nan,nan,nan,nan,nan,nan,nan,nan,nan,nan,nan,nan,nan,198.51193304453045,644.4608934093267,nan,644.7889602622017,nan,nan,nan,nan
1,325,0,0,1.0,0.0,0.2959097414277494,1.0,6,8,3,2,0,5,1.0,1.0,1.0,1.0,1.0,1.0,0.0,1.0,1.0,1.0,0.0,0.0,3.0,1.0,8.0,3.0,2.0,6.0,3.0,4.0,3.0,1.0,2.0,6.0,5.0,3.9129977254197,3.288858338724822,1.6975782662630081,2.407683300320059,5.784106703009456,4.656384309288114,198.51193304453045,645.4610550617799,646.2694777431898,645.7569648032077,653.112122522667,654.1080487142317,647.2862941403873,653.1037844587117
1,326,1,1,1.0,1.0,0.36458714958280325,0.0,3,2,5,0,1,8,nan,nan,nan,nan,nan,nan,nan,nan,nan,nan,nan,nan,0.0,nan,nan,nan,nan,nan,nan,nan,nan,nan,nan,nan,nan,nan,nan,nan,nan,nan,nan,198.51193304453045,654.3123218649998,nan,654.6769090145826,nan,nan,nan,nan
1,327,1,1,1.0,1.0,0.3004169031046331,0.0,7,6,1,2,8,4,nan,nan,nan,nan,nan,nan,nan,nan,nan,nan,nan,nan,0.0,nan,nan,nan,nan,nan,nan,nan,nan,nan,nan,nan,nan,nan,nan,nan,nan,nan,nan,198.51193304453045,655.312459283974,nan,655.6128761870787,nan,nan,nan,nan
1,328,1,1,1.0,1.0,0.3079464202746749,0.0,5,1,2,8,3,6,nan,nan,nan,nan,nan,nan,nan,nan,nan,nan,nan,nan,0.0,nan,nan,nan,nan,nan,nan,nan,nan,nan,nan,nan,nan,nan,nan,nan,nan,nan,nan,198.51193304453045,656.3209418938495,nan,656.6288883141242,nan,nan,nan,nan
1,329,1,1,1.0,1.0,0.30747201247140765,0.0,7,8,1,0,2,4,nan,nan,nan,nan,nan,nan,nan,nan,nan,nan,nan,nan,0.0,nan,nan,nan,nan,nan,nan,nan,nan,nan,nan,nan,nan,nan,nan,nan,nan,nan,nan,198.51193304453045,657.3294113888405,nan,657.6368834013119,nan,nan,nan,nan
1,330,1,1,1.0,1.0,0.363307046238333,0.0,4,2,5,7,0,3,nan,nan,nan,nan,nan,nan,nan,nan,nan,nan,nan,nan,0.0,nan,nan,nan,nan,nan,nan,nan,nan,nan,nan,nan,nan,nan,nan,nan,nan,nan,nan,198.51193304453045,658.3295550798066,nan,658.6928621260449,nan,nan,nan,nan
1,331,1,1,1.0,1.0,0.3628163873218,0.0,5,7,2,4,3,1,nan,nan,nan,nan,nan,nan,nan,nan,nan,nan,nan,nan,0.0,nan,nan,nan,nan,nan,nan,nan,nan,nan,nan,nan,nan,nan,nan,nan,nan,nan,nan,198.51193304453045,659.3380425362848,nan,659.7008589236066,nan,nan,nan,nan
1,332,1,1,1.0,1.0,0.3386589246802032,0.0,7,1,8,3,2,5,nan,nan,nan,nan,nan,nan,nan,nan,nan,nan,nan,nan,0.0,nan,nan,nan,nan,nan,nan,nan,nan,nan,nan,nan,nan,nan,nan,nan,nan,nan,nan,198.51193304453045,660.3381882230751,nan,660.6768471477553,nan,nan,nan,nan
1,333,1,1,1.0,1.0,0.3381699766032398,0.0,6,5,4,2,7,3,nan,nan,nan,nan,nan,nan,nan,nan,nan,nan,nan,nan,0.0,nan,nan,nan,nan,nan,nan,nan,nan,nan,nan,nan,nan,nan,nan,nan,nan,nan,nan,198.51193304453045,661.3466682666913,nan,661.6848382432945,nan,nan,nan,nan
1,334,0,0,0.0,1.0,0.4660141081549227,1.0,8,3,5,4,1,0,1.0,1.0,1.0,1.0,1.0,1.0,0.0,1.0,1.0,1.0,1.0,0.0,4.0,1.0,3.0,5.0,4.0,1.0,7.0,5.0,4.0,3.0,2.0,1.0,6.0,4.9631829131394625,3.883718139026314,2.5062085017561913,1.6905622160993516,0.8850418627262115,6.138590443413705,198.51193304453045,662.3468239321373,663.1552431923337,662.8128380402923,670.3396111619659,671.3459218726493,664.1637303638272,670.3312793704681
1,335,1,1,1.0,1.0,0.29666212340816855,0.0,5,8,4,0,2,6,nan,nan,nan,nan,nan,nan,nan,nan,nan,nan,nan,nan,0.0,nan,nan,nan,nan,nan,nan,nan,nan,nan,nan,nan,nan,nan,nan,nan,nan,nan,nan,198.51193304453045,671.5481377341785,nan,671.8447998575866,nan,nan,nan,nan
1,336,1,1,1.0,1.0,0.33648474467918277,0.0,2,6,3,7,0,5,nan,nan,nan,nan,nan,nan,nan,nan,nan,nan,nan,nan,0.0,nan,nan,nan,nan,nan,nan,nan,nan,nan,nan,nan,nan,nan,nan,nan,nan,nan,nan,198.51193304453045,672.5482953954488,nan,672.884780140128,nan,nan,nan,nan
1,337,1,1,1.0,1.0,0.29630660219118,0.0,6,1,8,2,3,7,nan,nan,nan,nan,nan,nan,nan,nan,nan,nan,nan,nan,0.0,nan,nan,nan,nan,nan,nan,nan,nan,nan,nan,nan,nan,nan,nan,nan,nan,nan,nan,198.51193304453045,673.5484516303986,nan,673.8447582325898,nan,nan,nan,nan
1,338,1,1,1.0,1.0,0.28015933744609356,0.0,4,3,0,7,6,1,nan,nan,nan,nan,nan,nan,nan,nan,nan,nan,nan,nan,0.0,nan,nan,nan,nan,nan,nan,nan,nan,nan,nan,nan,nan,nan,nan,nan,nan,nan,nan,198.51193304453045,674.5485941809602,nan,674.8287535184063,nan,nan,nan,nan
1,339,1,1,1.0,1.0,0.2560141342692077,0.0,3,6,7,2,4,8,nan,nan,nan,nan,nan,nan,nan,nan,nan,nan,nan,nan,0.0,nan,nan,nan,nan,nan,nan,nan,nan,nan,nan,nan,nan,nan,nan,nan,nan,nan,nan,198.51193304453045,675.54874043772,nan,675.8047545719892,nan,nan,nan,nan
1,340,1,1,1.0,1.0,0.35986986849457026,0.0,4,0,6,8,1,2,nan,nan,nan,nan,nan,nan,nan,nan,nan,nan,nan,nan,0.0,nan,nan,nan,nan,nan,nan,nan,nan,nan,nan,nan,nan,nan,nan,nan,nan,nan,nan,198.51193304453045,676.5488764308393,nan,676.9087462993339,nan,nan,nan,nan
1,341,1,1,1.0,1.0,0.3677155626937747,0.0,1,7,3,4,6,5,nan,nan,nan,nan,nan,nan,nan,nan,nan,nan,nan,nan,0.0,nan,nan,nan,nan,nan,nan,nan,nan,nan,nan,nan,nan,nan,nan,nan,nan,nan,nan,198.51193304453045,677.5490298154764,nan,677.9167453781702,nan,nan,nan,nan
1,342,1,1,1.0,1.0,0.34357834281399846,0.0,0,2,7,8,1,3,nan,nan,nan,nan,nan,nan,nan,nan,nan,nan,nan,nan,0.0,nan,nan,nan,nan,nan,nan,nan,nan,nan,nan,nan,nan,nan,nan,nan,nan,nan,nan,198.51193304453045,678.5491583957337,nan,678.8927367385477,nan,nan,nan,nan
1,343,1,1,1.0,1.0,0.39143938617780805,0.0,4,5,8,7,0,2,nan,nan,nan,nan,nan,nan,nan,nan,nan,nan,nan,nan,0.0,nan,nan,nan,nan,nan,nan,nan,nan,nan,nan,nan,nan,nan,nan,nan,nan,nan,nan,198.51193304453045,679.5492943893187,nan,679.9407337754965,nan,nan,nan,nan
1,344,1,1,1.0,1.0,0.28725379006937146,0.0,2,7,5,0,1,8,nan,nan,nan,nan,nan,nan,nan,nan,nan,nan,nan,nan,0.0,nan,nan,nan,nan,nan,nan,nan,nan,nan,nan,nan,nan,nan,nan,nan,nan,nan,nan,198.51193304453045,680.549456896726,nan,680.8367106867954,nan,nan,nan,nan
1,345,1,1,1.0,1.0,0.2871309113688767,0.0,8,1,6,3,4,2,nan,nan,nan,nan,nan,nan,nan,nan,nan,nan,nan,nan,0.0,nan,nan,nan,nan,nan,nan,nan,nan,nan,nan,nan,nan,nan,nan,nan,nan,nan,nan,198.51193304453045,681.54958319664,nan,681.8367141080089,nan,nan,nan,nan
1,346,1,1,1.0,1.0,0.3029665616340935,0.0,0,5,2,4,6,1,nan,nan,nan,nan,nan,nan,nan,nan,nan,nan,nan,nan,0.0,nan,nan,nan,nan,nan,nan,nan,nan,nan,nan,nan,nan,nan,nan,nan,nan,nan,nan,198.51193304453045,682.5497425678186,nan,682.8527091294527,nan,nan,nan,nan
1,347,1,1,1.0,1.0,0.2628192100673914,0.0,8,1,5,3,0,4,nan,nan,nan,nan,nan,nan,nan,nan,nan,nan,nan,nan,0.0,nan,nan,nan,nan,nan,nan,nan,nan,nan,nan,nan,nan,nan,nan,nan,nan,nan,nan,198.51193304453045,683.5498831225559,nan,683.8127023326233,nan,nan,nan,nan
1,348,1,1,1.0,1.0,0.29467297345399857,0.0,6,2,3,4,8,1,nan,nan,nan,nan,nan,nan,nan,nan,nan,nan,nan,nan,0.0,nan,nan,nan,nan,nan,nan,nan,nan,nan,nan,nan,nan,nan,nan,nan,nan,nan,nan,198.51193304453045,684.5500265285373,nan,684.8446995019913,nan,nan,nan,nan
1,349,1,1,1.0,1.0,0.326520464848727,0.0,5,6,1,8,3,0,nan,nan,nan,nan,nan,nan,nan,nan,nan,nan,nan,nan,0.0,nan,nan,nan,nan,nan,nan,nan,nan,nan,nan,nan,nan,nan,nan,nan,nan,nan,nan,198.51193304453045,685.5501707894728,nan,685.8766912543215,nan,nan,nan,nan
1,350,1,1,1.0,1.0,0.2943516643717885,0.0,7,1,6,3,0,5,nan,nan,nan,nan,nan,nan,nan,nan,nan,nan,nan,nan,0.0,nan,nan,nan,nan,nan,nan,nan,nan,nan,nan,nan,nan,nan,nan,nan,nan,nan,nan,198.51193304453045,686.5503184720874,nan,686.8446701364592,nan,nan,nan,nan
1,351,1,1,1.0,1.0,0.30219935486093163,0.0,5,3,8,1,4,7,nan,nan,nan,nan,nan,nan,nan,nan,nan,nan,nan,nan,0.0,nan,nan,nan,nan,nan,nan,nan,nan,nan,nan,nan,nan,nan,nan,nan,nan,nan,nan,198.51193304453045,687.55046872003,nan,687.852668074891,nan,nan,nan,nan
1,352,1,1,1.0,1.0,0.310036210808903,0.0,8,1,7,2,5,0,nan,nan,nan,nan,nan,nan,nan,nan,nan,nan,nan,nan,0.0,nan,nan,nan,nan,nan,nan,nan,nan,nan,nan,nan,nan,nan,nan,nan,nan,nan,nan,198.51193304453045,688.5506203938276,nan,688.8606566046365,nan,nan,nan,nan
1,353,1,1,1.0,1.0,0.2939091878943145,0.0,3,4,1,7,8,5,nan,nan,nan,nan,nan,nan,nan,nan,nan,nan,nan,nan,0.0,nan,nan,nan,nan,nan,nan,nan,nan,nan,nan,nan,nan,nan,nan,nan,nan,nan,nan,198.51193304453045,689.550747263711,nan,689.8446564516053,nan,nan,nan,nan
1,354,1,1,1.0,1.0,0.23773630987852812,0.0,8,7,4,5,0,3,nan,nan,nan,nan,nan,nan,nan,nan,nan,nan,nan,nan,0.0,nan,nan,nan,nan,nan,nan,nan,nan,nan,nan,nan,nan,nan,nan,nan,nan,nan,nan,198.51193304453045,690.5509086307138,nan,690.7886449405923,nan,nan,nan,nan
1,355,1,1,1.0,1.0,0.30960855912417173,0.0,5,8,3,7,2,1,nan,nan,nan,nan,nan,nan,nan,nan,nan,nan,nan,nan,0.0,nan,nan,nan,nan,nan,nan,nan,nan,nan,nan,nan,nan,nan,nan,nan,nan,nan,nan,198.51193304453045,691.5510406326503,nan,691.8606491917744,nan,nan,nan,nan
1,356,0,0,0.0,1.0,0.49346790881827474,0.0,3,5,4,2,1,8,nan,nan,nan,nan,nan,nan,nan,nan,nan,nan,nan,nan,0.0,nan,nan,nan,nan,nan,nan,nan,nan,nan,nan,nan,nan,nan,nan,nan,nan,nan,nan,198.51193304453045,692.5511857490055,nan,693.0446536578238,nan,nan,nan,nan
1,357,1,1,nan,nan,nan,0.0,8,1,2,6,7,4,nan,nan,nan,nan,nan,nan,nan,nan,nan,nan,nan,nan,0.0,nan,nan,nan,nan,nan,nan,nan,nan,nan,nan,nan,nan,nan,nan,nan,nan,nan,nan,198.51193304453045,693.5513357124291,nan,nan,nan,nan,nan,nan
1,358,1,1,1.0,1.0,0.6451459135860205,0.0,0,2,3,7,6,8,nan,nan,nan,nan,nan,nan,nan,nan,nan,nan,nan,nan,0.0,nan,nan,nan,nan,nan,nan,nan,nan,nan,nan,nan,nan,nan,nan,nan,nan,nan,nan,198.51193304453045,694.5515056322329,nan,695.1966515458189,nan,nan,nan,nan
1,359,1,1,1.0,1.0,0.5009843111038208,0.0,3,1,7,0,5,6,nan,nan,nan,nan,nan,nan,nan,nan,nan,nan,nan,nan,0.0,nan,nan,nan,nan,nan,nan,nan,nan,nan,nan,nan,nan,nan,nan,nan,nan,nan,nan,198.51193304453045,695.5516248047352,nan,696.052609115839,nan,nan,nan,nan
1,360,1,1,1.0,1.0,0.3328457153402269,0.0,5,6,3,4,8,1,nan,nan,nan,nan,nan,nan,nan,nan,nan,nan,nan,nan,0.0,nan,nan,nan,nan,nan,nan,nan,nan,nan,nan,nan,nan,nan,nan,nan,nan,nan,nan,198.51193304453045,696.5517650744878,nan,696.884610789828,nan,nan,nan,nan
1,361,1,1,1.0,1.0,0.3327040206640959,0.0,0,4,8,3,7,5,nan,nan,nan,nan,nan,nan,nan,nan,nan,nan,nan,nan,0.0,nan,nan,nan,nan,nan,nan,nan,nan,nan,nan,nan,nan,nan,nan,nan,nan,nan,nan,198.51193304453045,697.5519061991945,nan,697.8846102198586,nan,nan,nan,nan
1,362,1,1,1.0,1.0,0.30855710664764047,0.0,3,5,7,4,2,6,nan,nan,nan,nan,nan,nan,nan,nan,nan,nan,nan,nan,0.0,nan,nan,nan,nan,nan,nan,nan,nan,nan,nan,nan,nan,nan,nan,nan,nan,nan,nan,198.51193304453045,698.5520476093516,nan,698.8606047159992,nan,nan,nan,nan
1,363,1,1,1.0,1.0,0.35641444427892566,0.0,2,4,1,7,8,5,nan,nan,nan,nan,nan,nan,nan,nan,nan,nan,nan,nan,0.0,nan,nan,nan,nan,nan,nan,nan,nan,nan,nan,nan,nan,nan,nan,nan,nan,nan,nan,198.51193304453045,699.5521853133105,nan,699.9085997575894,nan,nan,nan,nan
1,364,1,1,1.0,1.0,0.5482492088340223,0.0,3,5,7,1,6,4,nan,nan,nan,nan,nan,nan,nan,nan,nan,nan,nan,nan,0.0,nan,nan,nan,nan,nan,nan,nan,nan,nan,nan,nan,nan,nan,nan,nan,nan,nan,nan,198.51193304453045,700.5523290042765,nan,701.1005782131106,nan,nan,nan,nan
1,365,1,1,1.0,1.0,0.33209475968033075,0.0,0,7,1,8,2,5,nan,nan,nan,nan,nan,nan,nan,nan,nan,nan,nan,nan,0.0,nan,nan,nan,nan,nan,nan,nan,nan,nan,nan,nan,nan,nan,nan,nan,nan,nan,nan,198.51193304453045,701.5524746906012,nan,701.8845694502816,nan,nan,nan,nan
1,366,1,1,1.0,1.0,0.25195087492465973,0.0,5,6,4,7,1,8,nan,nan,nan,nan,nan,nan,nan,nan,nan,nan,nan,nan,0.0,nan,nan,nan,nan,nan,nan,nan,nan,nan,nan,nan,nan,nan,nan,nan,nan,nan,nan,198.51193304453045,702.5526240835898,nan,702.8045749585144,nan,nan,nan,nan
1,367,1,1,1.0,1.0,0.24355236999690533,0.0,7,8,1,5,3,4,nan,nan,nan,nan,nan,nan,nan,nan,nan,nan,nan,nan,0.0,nan,nan,nan,nan,nan,nan,nan,nan,nan,nan,nan,nan,nan,nan,nan,nan,nan,nan,198.51193304453045,703.5610921531916,nan,703.8046445231885,nan,nan,nan,nan
1,368,1,1,1.0,1.0,0.275318322237581,0.0,1,0,3,4,5,6,nan,nan,nan,nan,nan,nan,nan,nan,nan,nan,nan,nan,0.0,nan,nan,nan,nan,nan,nan,nan,nan,nan,nan,nan,nan,nan,nan,nan,nan,nan,nan,198.51193304453045,704.5612489590421,nan,704.8365672812797,nan,nan,nan,nan
1,369,1,1,1.0,1.0,0.2591536659747362,0.0,0,8,6,5,1,4,nan,nan,nan,nan,nan,nan,nan,nan,nan,nan,nan,nan,0.0,nan,nan,nan,nan,nan,nan,nan,nan,nan,nan,nan,nan,nan,nan,nan,nan,nan,nan,198.51193304453045,705.5613997774199,nan,705.8205534433946,nan,nan,nan,nan
1,370,0,0,0.0,1.0,0.4190032356418669,1.0,5,7,4,8,6,2,1.0,1.0,1.0,1.0,1.0,1.0,1.0,0.0,0.0,0.0,1.0,0.0,2.0,5.0,1.0,8.0,4.0,6.0,3.0,5.0,4.0,3.0,2.0,1.0,6.0,5.027380529325455,4.2270073890686035,3.4034658018499613,2.524688463192433,1.738503088708967,6.114436117466539,198.51193304453045,706.5615463191643,707.3699664347805,706.9805495548062,714.5459974813275,715.556069244165,708.3951157634147,714.5376688260585
1,371,1,1,1.0,1.0,0.2976183518767357,0.0,3,2,8,5,1,4,nan,nan,nan,nan,nan,nan,nan,nan,nan,nan,nan,nan,0.0,nan,nan,nan,nan,nan,nan,nan,nan,nan,nan,nan,nan,nan,nan,nan,nan,nan,nan,198.51193304453045,715.7628758018836,nan,716.0604941537604,nan,nan,nan,nan
1,372,1,1,1.0,1.0,0.2414611540734768,0.0,7,1,4,3,2,6,nan,nan,nan,nan,nan,nan,nan,nan,nan,nan,nan,nan,0.0,nan,nan,nan,nan,nan,nan,nan,nan,nan,nan,nan,nan,nan,nan,nan,nan,nan,nan,198.51193304453045,716.763023769483,nan,717.0044849235564,nan,nan,nan,nan
1,373,1,1,1.0,1.0,0.19331187289208174,0.0,3,7,2,8,5,1,nan,nan,nan,nan,nan,nan,nan,nan,nan,nan,nan,nan,0.0,nan,nan,nan,nan,nan,nan,nan,nan,nan,nan,nan,nan,nan,nan,nan,nan,nan,nan,198.51193304453045,717.7631540605798,nan,717.9564659334719,nan,nan,nan,nan
1,374,1,1,1.0,1.0,0.2331379158422351,0.0,4,0,1,5,8,6,nan,nan,nan,nan,nan,nan,nan,nan,nan,nan,nan,nan,0.0,nan,nan,nan,nan,nan,nan,nan,nan,nan,nan,nan,nan,nan,nan,nan,nan,nan,nan,198.51193304453045,718.763317423407,nan,718.9964553392492,nan,nan,nan,nan
1,375,1,1,1.0,1.0,0.24101326009258628,0.0,3,4,7,6,2,1,nan,nan,nan,nan,nan,nan,nan,nan,nan,nan,nan,nan,0.0,nan,nan,nan,nan,nan,nan,nan,nan,nan,nan,nan,nan,nan,nan,nan,nan,nan,nan,198.51193304453045,719.7634482849389,nan,720.0044615450315,nan,nan,nan,nan
1,376,1,1,1.0,1.0,0.25686858175322413,0.0,7,8,0,5,1,6,nan,nan,nan,nan,nan,nan,nan,nan,nan,nan,nan,nan,0.0,nan,nan,nan,nan,nan,nan,nan,nan,nan,nan,nan,nan,nan,nan,nan,nan,nan,nan,198.51193304453045,720.7635882697068,nan,721.02045685146,nan,nan,nan,nan
1,377,1,1,1.0,1.0,0.2487061400897801,0.0,6,2,3,4,5,1,nan,nan,nan,nan,nan,nan,nan,nan,nan,nan,nan,nan,0.0,nan,nan,nan,nan,nan,nan,nan,nan,nan,nan,nan,nan,nan,nan,nan,nan,nan,nan,198.51193304453045,721.763742509298,nan,722.0124486493878,nan,nan,nan,nan
1,378,1,1,1.0,1.0,0.2885621185414493,0.0,8,6,5,7,4,0,nan,nan,nan,nan,nan,nan,nan,nan,nan,nan,nan,nan,0.0,nan,nan,nan,nan,nan,nan,nan,nan,nan,nan,nan,nan,nan,nan,nan,nan,nan,nan,198.51193304453045,722.7638864852488,nan,723.0524486037903,nan,nan,nan,nan
1,379,1,1,1.0,1.0,0.20039463648572564,0.0,3,4,0,5,2,8,nan,nan,nan,nan,nan,nan,nan,nan,nan,nan,nan,nan,0.0,nan,nan,nan,nan,nan,nan,nan,nan,nan,nan,nan,nan,nan,nan,nan,nan,nan,nan,198.51193304453045,723.7640427206643,nan,723.96443735715,nan,nan,nan,nan
1,380,1,1,1.0,1.0,0.152238798327744,0.0,6,1,8,4,5,7,nan,nan,nan,nan,nan,nan,nan,nan,nan,nan,nan,nan,0.0,nan,nan,nan,nan,nan,nan,nan,nan,nan,nan,nan,nan,nan,nan,nan,nan,nan,nan,198.51193304453045,724.764188977424,nan,724.9164277757518,nan,nan,nan,nan
