block,trial,time,setsize,freqtrials,trials_colorind,trials_colordeg,colorrgb0,colorrgb1,colorrgb2,correct_response,actual_response,acc,rts,probe_trials,rt_triggered_fast,rt_triggered_slow,rt_strailingavg,rts_runningavg,rts_runningstd,rts_runningslowthresh,rts_runningfastthresh,wm_respdeg,wm_respind,wm_resprgb0,wm_resprgb1,wm_resprgb2,wm_respcolorminusorigcolor,wm_rts,time_blockstart,time_encarray_onset,time_response,time_encarray_offest,time_memprobe_onset,time_memprobe_offset
0,0,1036,6,1,111,78,1.0,-0.298677811705,-0.336106236365,1,1.0,1.0,0.359494500328,0,nan,nan,nan,nan,nan,nan,nan,nan,nan,0.0,0.0,0.0,nan,nan,93.2389891259,94.2554697287,94.6149642291,94.755508787,nan,nan
0,1,1037,6,1,441,310,0.266287261384,0.422891888867,-1.0,1,1.0,1.0,0.310336648487,0,nan,nan,nan,nan,nan,nan,nan,nan,nan,0.0,0.0,0.0,nan,nan,93.2389891259,95.2726442576,95.5829809061,95.7723104092,nan,nan
0,2,1038,6,1,485,341,0.622774561467,0.312875618285,-1.0,1,1.0,1.0,0.286229415331,0,nan,nan,nan,nan,nan,nan,nan,nan,nan,0.0,0.0,0.0,nan,nan,93.2389891259,96.2807373065,96.5669667218,96.7807698078,nan,nan
0,3,1039,6,1,114,80,1.0,-0.303747463913,-0.303859371662,1,1.0,1.0,0.389739871491,0,nan,nan,nan,nan,nan,nan,nan,nan,nan,0.0,0.0,0.0,nan,nan,93.2389891259,97.2892006966,97.6789405681,97.7892682645,nan,nan
0,4,1040,6,1,364,255,-0.160194321586,0.476704516321,-0.00341124574885,1,1.0,1.0,0.341275375802,0,nan,nan,nan,nan,nan,nan,nan,nan,nan,0.0,0.0,0.0,nan,nan,93.2389891259,98.297674635,98.6389500108,98.7977088466,nan,nan
0,5,1041,6,1,56,39,1.0,-0.0653675053377,-1.0,1,1.0,1.0,0.396775495727,0,nan,nan,nan,nan,nan,nan,nan,nan,nan,0.0,0.0,0.0,nan,nan,93.2389891259,99.306115502,99.7028909978,99.8061633985,nan,nan
0,6,1042,6,1,505,355,0.789537956352,0.240683140511,-1.0,1,1.0,1.0,0.348584407941,0,nan,nan,nan,nan,nan,nan,nan,nan,nan,0.0,0.0,0.0,nan,nan,93.2389891259,100.306277152,100.65486156,100.806323053,nan,nan
0,7,1043,6,1,192,135,1.0,-0.0635997558896,0.421658406928,1,1.0,1.0,0.31642945623,0,nan,nan,nan,nan,nan,nan,nan,nan,nan,0.0,0.0,0.0,nan,nan,93.2389891259,101.306384919,101.622814375,101.806431389,nan,nan
0,8,1044,6,1,408,286,0.036737934283,0.465637664749,-0.515938449969,1,1.0,1.0,0.30798516795,0,nan,nan,nan,nan,nan,nan,nan,nan,nan,0.0,0.0,0.0,nan,nan,93.2389891259,102.314842036,102.622827204,102.814914736,nan,nan
0,9,1045,6,0,365,256,-0.157962026257,0.477016591838,-0.0139196855225,0,1.0,0.0,0.259783816524,0,0.0,0.0,nan,nan,nan,nan,nan,nan,nan,0.0,0.0,0.0,nan,nan,93.2389891259,103.315014235,103.574798052,103.815058995,nan,nan
0,10,1046,6,1,63,44,1.0,-0.102744642793,-1.0,1,1.0,1.0,0.337950859684,0,nan,nan,nan,nan,nan,nan,nan,nan,nan,0.0,0.0,0.0,nan,nan,93.2389891259,104.356820575,104.694771435,104.856851936,nan,nan
0,11,1047,6,1,109,76,1.0,-0.294638327523,-0.357773695079,1,1.0,1.0,0.329503150191,0,nan,nan,nan,nan,nan,nan,nan,nan,nan,0.0,0.0,0.0,nan,nan,93.2389891259,105.365253175,105.694756325,105.865300216,nan,nan
0,12,1048,6,1,184,129,1.0,-0.107671891867,0.362640045218,1,1.0,1.0,0.312980923336,0,nan,nan,nan,nan,nan,nan,nan,nan,nan,0.0,0.0,0.0,nan,nan,93.2389891259,106.373744789,106.686725712,106.873757618,nan,nan
0,13,1049,6,1,375,263,-0.128556699755,0.478682433309,-0.121605159467,1,1.0,1.0,0.302510165144,0,nan,nan,nan,nan,nan,nan,nan,nan,nan,0.0,0.0,0.0,nan,nan,93.2389891259,107.432193668,107.734703833,107.932217046,nan,nan
0,14,1050,6,1,90,63,1.0,-0.233635786423,-0.574971871003,1,1.0,1.0,0.326003584079,0,nan,nan,nan,nan,nan,nan,nan,nan,nan,0.0,0.0,0.0,nan,nan,93.2389891259,108.440672168,108.766675752,108.940682716,nan,nan
0,15,1051,6,1,363,255,-0.162287729338,0.476365729747,0.00704812682028,1,1.0,1.0,0.301545396913,0,nan,nan,nan,nan,nan,nan,nan,nan,nan,0.0,0.0,0.0,nan,nan,93.2389891259,109.449122443,109.75066784,109.949156085,nan,nan
0,16,1052,6,1,313,220,-0.0530221528698,0.42279583272,0.448797959603,1,1.0,1.0,0.293064330705,0,nan,nan,nan,nan,nan,nan,nan,nan,nan,0.0,0.0,0.0,nan,nan,93.2389891259,110.457584693,110.750649023,110.957641427,nan,nan
0,17,1053,6,1,2,1,0.863024578927,0.203622855609,-1.0,1,1.0,1.0,0.308554221876,0,nan,nan,nan,nan,nan,nan,nan,nan,nan,0.0,0.0,0.0,nan,nan,93.2389891259,111.466064618,111.77461884,111.966089706,nan,nan
0,18,1054,6,1,85,59,1.0,-0.212156452387,-0.638781227021,1,1.0,1.0,0.308073833585,0,nan,nan,nan,nan,nan,nan,nan,nan,nan,0.0,0.0,0.0,nan,nan,93.2389891259,112.474530573,112.782604407,112.974545399,nan,nan
0,19,1055,6,1,480,337,0.580928072941,0.32870764083,-1.0,1,1.0,1.0,0.323617037386,0,nan,nan,nan,nan,nan,nan,nan,nan,nan,0.0,0.0,0.0,nan,nan,93.2389891259,113.482975717,113.806592755,113.983039579,nan,nan
0,20,1056,6,1,77,54,1.0,-0.174593022316,-0.756267193339,1,1.0,1.0,0.283105892595,0,nan,nan,nan,nan,nan,nan,nan,nan,nan,0.0,0.0,0.0,nan,nan,93.2389891259,114.491443384,114.774549276,114.991482442,nan,nan
0,21,1057,6,1,323,227,-0.11001989341,0.43965344528,0.375855360355,1,1.0,1.0,0.306675147265,0,nan,nan,nan,nan,nan,nan,nan,nan,nan,0.0,0.0,0.0,nan,nan,93.2389891259,115.499921883,115.806597031,115.999944121,nan,nan
0,22,1058,6,1,8,5,0.91102658764,0.177400941622,-1.0,1,1.0,1.0,0.354447142687,0,nan,nan,nan,nan,nan,nan,nan,nan,nan,0.0,0.0,0.0,nan,nan,93.2389891259,116.500053028,116.854500171,117.000097503,nan,nan
0,23,1059,6,1,85,59,1.0,-0.212156452387,-0.638781227021,1,1.0,1.0,0.282335845754,0,nan,nan,nan,nan,nan,nan,nan,nan,nan,0.0,0.0,0.0,nan,nan,93.2389891259,117.500193866,117.782529712,118.000194721,nan,nan
0,24,1100,6,1,265,186,0.384259149088,0.291568309415,0.649478858709,1,1.0,1.0,0.314163505565,0,nan,nan,nan,nan,nan,nan,nan,nan,nan,0.0,0.0,0.0,nan,nan,93.2389891259,118.50033955,118.814503056,119.00032387,nan,nan
0,25,1101,6,1,507,356,0.805995650865,0.232688349973,-1.0,1,1.0,1.0,0.25771885924,0,nan,nan,nan,nan,nan,nan,nan,nan,nan,0.0,0.0,0.0,nan,nan,93.2389891259,119.508777567,119.766496426,120.008800945,nan,nan
0,26,1102,6,1,350,246,-0.175756816429,0.469490941964,0.138247479403,1,1.0,1.0,0.249553965405,0,nan,nan,nan,nan,nan,nan,nan,nan,nan,0.0,0.0,0.0,nan,nan,93.2389891259,120.508904435,120.758458401,121.008920685,nan,nan
0,27,1103,6,1,62,43,1.0,-0.0974372467467,-1.0,1,1.0,1.0,0.23306395486,0,nan,nan,nan,nan,nan,nan,nan,nan,nan,0.0,0.0,0.0,nan,nan,93.2389891259,121.517362408,121.750426363,122.017413155,nan,nan
0,28,1104,6,1,182,127,1.0,-0.118523835432,0.347089474713,1,1.0,1.0,0.256631784141,0,nan,nan,nan,nan,nan,nan,nan,nan,nan,0.0,0.0,0.0,nan,nan,93.2389891259,122.525822091,122.782453876,123.025875975,nan,nan
0,29,1105,6,1,425,298,0.149162615564,0.447529597292,-0.791715667876,1,1.0,1.0,0.163061805069,0,nan,nan,nan,nan,nan,nan,nan,nan,nan,0.0,0.0,0.0,nan,nan,93.2389891259,123.579367871,123.742429676,124.084378737,nan,nan
0,30,1110,6,1,301,211,0.0351599448551,0.39804275895,0.523414514543,1,1.0,1.0,0.245938080363,1,nan,nan,nan,nan,nan,nan,nan,166.274805482,404.0,0.0124894593597,0.468746268022,-0.463349101315,72.0845695177,1.81723685144,93.2389891259,124.584427488,124.830365568,125.084479091,126.409615695,128.234876317
0,31,1111,6,1,152,106,1.0,-0.259184487343,0.0830625546756,1,1.0,1.0,0.466870016884,0,nan,nan,nan,nan,nan,nan,nan,nan,nan,0.0,0.0,0.0,nan,nan,93.2389891259,129.44339741,129.910267427,129.943406248,nan,nan
0,32,1112,6,1,6,4,0.895129075663,0.186272780825,-1.0,1,1.0,1.0,0.370402311906,0,nan,nan,nan,nan,nan,nan,nan,nan,nan,0.0,0.0,0.0,nan,nan,93.2389891259,130.451844264,130.822246576,130.951901284,nan,nan
0,33,1113,6,1,430,302,0.184725017221,0.440645728776,-0.941904167281,1,1.0,1.0,0.322264821734,0,nan,nan,nan,nan,nan,nan,nan,nan,nan,0.0,0.0,0.0,nan,nan,93.2389891259,131.451981111,131.774245933,131.952003919,nan,nan
0,34,1114,6,1,232,163,0.739158239773,0.150046616059,0.623712016981,1,1.0,1.0,0.281791024841,0,nan,nan,nan,nan,nan,nan,nan,nan,nan,0.0,0.0,0.0,nan,nan,93.2389891259,132.460433667,132.742224692,132.960467879,nan,nan
0,35,1115,6,0,182,127,1.0,-0.118523835432,0.347089474713,0,1.0,0.0,0.281592882238,0,0.0,0.0,nan,nan,nan,nan,nan,nan,nan,0.0,0.0,0.0,nan,nan,93.2389891259,133.460586194,133.742179076,133.960626393,nan,nan
0,36,1116,6,1,5,3,0.88714030954,0.190659852496,-1.0,1,1.0,1.0,0.281133876182,0,nan,nan,nan,nan,nan,nan,nan,nan,nan,0.0,0.0,0.0,nan,nan,93.2389891259,134.469014802,134.750148678,134.969053005,nan,nan
0,37,1117,6,1,269,189,0.34171296506,0.305888347675,0.643262349404,1,1.0,1.0,0.408980783541,0,nan,nan,nan,nan,nan,nan,nan,nan,nan,0.0,0.0,0.0,nan,nan,93.2389891259,135.469166189,135.878146972,135.969182154,nan,nan
0,38,1118,6,1,109,76,1.0,-0.294638327523,-0.357773695079,1,1.0,1.0,0.328502174467,0,nan,nan,nan,nan,nan,nan,nan,nan,nan,0.0,0.0,0.0,nan,nan,93.2389891259,136.477631859,136.806134033,136.977657232,nan,nan
0,39,1122,6,1,488,343,0.647907709101,0.302951493728,-1.0,1,1.0,1.0,0.296370600816,1,nan,nan,nan,nan,nan,nan,nan,105.622100263,490.0,0.664660387652,0.296157848571,-1.0,1.25289973729,0.875393505208,93.2389891259,137.477765569,137.77413617,137.977778684,139.302954916,140.18639671
0,40,1123,6,0,254,178,0.503011129055,0.248947817922,0.65613358125,0,0.0,1.0,0.459044388961,0,nan,nan,nan,nan,nan,nan,nan,nan,nan,0.0,0.0,0.0,nan,nan,93.2389891259,141.394971402,141.854015791,141.895013596,nan,nan
0,41,1124,6,1,124,87,1.0,-0.311577186586,-0.198226518473,1,1.0,1.0,0.410617525689,0,nan,nan,nan,nan,nan,nan,nan,nan,nan,0.0,0.0,0.0,nan,nan,93.2389891259,142.403379198,142.813996724,142.903427665,nan,nan
0,42,1125,6,1,305,214,0.00361192545304,0.406859252708,0.500196907155,1,1.0,1.0,0.402449781541,0,nan,nan,nan,nan,nan,nan,nan,nan,nan,0.0,0.0,0.0,nan,nan,93.2389891259,143.403520036,143.805969818,143.903573919,nan,nan
0,43,1126,6,1,181,127,1.0,-0.123914391386,0.3392011262,1,1.0,1.0,0.378294367343,0,nan,nan,nan,nan,nan,nan,nan,nan,nan,0.0,0.0,0.0,nan,nan,93.2389891259,144.403654031,144.781948399,144.903682826,nan,nan
0,44,1127,6,1,123,86,1.0,-0.311441137266,-0.208672863777,1,1.0,1.0,0.394159730989,0,nan,nan,nan,nan,nan,nan,nan,nan,nan,0.0,0.0,0.0,nan,nan,93.2389891259,145.403777193,145.797936924,145.903805703,nan,nan
0,45,1128,6,0,439,308,0.251144291643,0.426392204401,-1.0,0,0.0,1.0,0.537975206971,0,nan,nan,nan,nan,nan,nan,nan,nan,nan,0.0,0.0,0.0,nan,nan,93.2389891259,146.403938843,146.94191405,146.903988165,nan,nan
0,46,1129,6,1,327,229,-0.128086156831,0.445480682368,0.344176439252,1,1.0,1.0,0.417527421843,0,nan,nan,nan,nan,nan,nan,nan,nan,nan,0.0,0.0,0.0,nan,nan,93.2389891259,147.412373438,147.82990086,147.912408506,nan,nan
0,47,1130,6,0,459,322,0.407758158413,0.385709174134,-1.0,0,0.0,1.0,0.40135500906,0,nan,nan,nan,nan,nan,nan,nan,nan,nan,0.0,0.0,0.0,nan,nan,93.2389891259,148.412533093,148.813888102,148.912563598,nan,nan
0,48,1131,6,1,130,91,1.0,-0.309333154106,-0.136071487739,1,1.0,1.0,0.344825118314,0,nan,nan,nan,nan,nan,nan,nan,nan,nan,0.0,0.0,0.0,nan,nan,93.2389891259,149.421042954,149.765868072,149.921006176,nan,nan
0,49,1132,6,1,462,324,0.432089675478,0.378486360879,-1.0,1,1.0,1.0,0.384435072076,0,nan,nan,nan,nan,nan,nan,nan,nan,nan,0.0,0.0,0.0,nan,nan,93.2389891259,150.429425376,150.813860448,150.92946643,nan,nan
0,50,1136,6,1,98,68,1.0,-0.263822910468,-0.480217789416,1,1.0,1.0,0.512200441677,1,nan,nan,nan,nan,nan,nan,nan,169.976818347,398.0,-0.0220377755791,0.472608796233,-0.387943383198,-148.883068347,1.38383608265,93.2389891259,151.429585885,151.941786327,151.929634352,153.254772667,154.646635371
0,51,1137,6,1,341,239,-0.168535884224,0.46196150489,0.223260112086,1,1.0,1.0,0.564855578355,0,nan,nan,nan,nan,nan,nan,nan,nan,nan,0.0,0.0,0.0,nan,nan,93.2389891259,155.896850477,156.461706055,156.39684734,nan,nan
0,52,1138,6,0,500,351,0.748145934353,0.260058294274,-1.0,0,0.0,1.0,0.476731522009,0,nan,nan,nan,nan,nan,nan,nan,nan,nan,0.0,0.0,0.0,nan,nan,93.2389891259,156.896965941,157.373697463,157.396997016,nan,nan
0,53,1139,6,1,289,203,0.140592130943,0.368073254824,0.582505265782,1,1.0,1.0,0.316616194788,0,nan,nan,nan,nan,nan,nan,nan,nan,nan,0.0,0.0,0.0,nan,nan,93.2389891259,157.897072852,158.213689047,158.397103073,nan,nan
0,54,1140,6,1,407,286,0.0305886347219,0.46645515455,-0.502577406972,1,1.0,1.0,0.332482413389,0,nan,nan,nan,nan,nan,nan,nan,nan,nan,0.0,0.0,0.0,nan,nan,93.2389891259,158.897197725,159.229680138,159.397231936,nan,nan
0,55,1141,6,0,239,168,0.665069831863,0.183388857662,0.640549267122,0,0.0,1.0,0.436256870162,0,nan,nan,nan,nan,nan,nan,nan,nan,nan,0.0,0.0,0.0,nan,nan,93.2389891259,159.897396152,160.333653022,160.397385889,nan,nan
0,56,1142,6,1,18,12,0.988682696815,0.131162580546,-1.0,1,1.0,1.0,0.34017347591,0,nan,nan,nan,nan,nan,nan,nan,nan,nan,0.0,0.0,0.0,nan,nan,93.2389891259,160.897461724,161.2376352,161.397496792,nan,nan
0,57,1143,6,1,122,85,1.0,-0.311159539646,-0.219144224573,1,1.0,1.0,0.356011469848,0,nan,nan,nan,nan,nan,nan,nan,nan,nan,0.0,0.0,0.0,nan,nan,93.2389891259,161.897591444,162.253602914,162.397620238,nan,nan
0,58,1144,6,1,414,291,0.0747837862165,0.460162189034,-0.600089175003,1,1.0,1.0,0.363855629228,0,nan,nan,nan,nan,nan,nan,nan,nan,nan,0.0,0.0,0.0,nan,nan,93.2389891259,162.897731426,163.261587055,163.397777042,nan,nan
0,59,1145,6,1,147,103,1.0,-0.275801134503,0.0346720467303,1,1.0,1.0,0.323721097782,0,nan,nan,nan,nan,nan,nan,nan,nan,nan,0.0,0.0,0.0,nan,nan,93.2389891259,163.897848601,164.221569699,164.397887089,nan,nan
0,60,1146,6,1,197,138,1.0,-0.035797595552,0.455774741445,1,1.0,1.0,0.331571814138,0,nan,nan,nan,nan,nan,nan,nan,nan,nan,0.0,0.0,0.0,nan,nan,93.2389891259,164.89797889,165.229550704,165.398017379,nan,nan
0,61,1147,6,1,20,14,1.0,0.121558187834,-1.0,1,1.0,1.0,0.387398655061,0,nan,nan,nan,nan,nan,nan,nan,nan,nan,0.0,0.0,0.0,nan,nan,93.2389891259,165.898115452,166.285514107,166.398169905,nan,nan
0,62,1148,6,1,464,326,0.448404880525,0.373503555275,-1.0,1,1.0,1.0,0.363262912259,0,nan,nan,nan,nan,nan,nan,nan,nan,nan,0.0,0.0,0.0,nan,nan,93.2389891259,166.898243175,167.261506088,167.398288506,nan,nan
0,63,1149,6,1,277,194,0.258470646878,0.33263615818,0.624824240443,1,1.0,1.0,0.323089322541,0,nan,nan,nan,nan,nan,nan,nan,nan,nan,0.0,0.0,0.0,nan,nan,93.2389891259,167.898372324,168.221461647,168.398400549,nan,nan
0,64,1150,6,1,45,31,1.0,-0.0063957592436,-1.0,1,1.0,1.0,0.306960244663,0,nan,nan,nan,nan,nan,nan,nan,nan,nan,0.0,0.0,0.0,nan,nan,93.2389891259,168.898502613,169.205462858,169.398525706,nan,nan
0,65,1151,6,0,159,111,1.0,-0.231765974528,0.149055008463,0,0.0,1.0,0.458777823485,0,nan,nan,nan,nan,nan,nan,nan,nan,nan,0.0,0.0,0.0,nan,nan,93.2389891259,169.898663979,170.357441802,170.398688497,nan,nan
0,66,1152,6,1,506,355,0.797774742377,0.236703125255,-1.0,1,1.0,1.0,0.354622762185,0,nan,nan,nan,nan,nan,nan,nan,nan,nan,0.0,0.0,0.0,nan,nan,93.2389891259,170.898761767,171.253384529,171.398787711,nan,nan
0,67,1153,6,1,20,14,1.0,0.121558187834,-1.0,1,1.0,1.0,0.282142264303,0,nan,nan,nan,nan,nan,nan,nan,nan,nan,0.0,0.0,0.0,nan,nan,93.2389891259,171.907229433,172.189371698,172.407272198,nan,nan
0,68,1154,6,1,402,282,0.000724920831492,0.470139955471,-0.437811562499,1,1.0,1.0,0.265721247066,0,nan,nan,nan,nan,nan,nan,nan,nan,nan,0.0,0.0,0.0,nan,nan,93.2389891259,172.915691112,173.181412359,173.415745281,nan,nan
0,69,1155,6,1,78,54,1.0,-0.179467652321,-0.739907630878,1,1.0,1.0,0.265536219347,0,nan,nan,nan,nan,nan,nan,nan,nan,nan,0.0,0.0,0.0,nan,nan,93.2389891259,173.91581627,174.181352489,174.415856753,nan,nan
0,70,1200,6,1,291,204,0.122027637739,0.373441943191,0.573791926984,1,1.0,1.0,0.393356041983,1,nan,nan,nan,nan,nan,nan,nan,-122.252583024,302.0,0.027086081288,0.400300843718,0.517770016443,7.64320802401,1.03377373191,93.2389891259,174.91594827,175.309304312,175.415979345,176.741150732,177.78295194
0,71,1201,6,1,80,56,1.0,-0.189075709245,-0.708965549488,1,0.0,0.0,0.421760827769,0,0.0,0.0,nan,nan,nan,nan,nan,nan,nan,0.0,0.0,0.0,nan,nan,93.2389891259,178.991472178,179.413233006,179.49150582,nan,nan
0,72,1202,6,1,164,115,1.0,-0.209685835145,0.194761549991,1,1.0,1.0,0.548570836894,0,nan,nan,nan,nan,nan,nan,nan,nan,nan,0.0,0.0,0.0,nan,nan,93.2389891259,180.01664653,180.565217366,180.516686158,nan,nan
0,73,1203,6,1,280,196,0.228089347314,0.342018854333,0.61587222022,1,1.0,1.0,0.340465415269,0,nan,nan,nan,nan,nan,nan,nan,nan,nan,0.0,0.0,0.0,nan,nan,93.2389891259,181.016734054,181.35719947,181.51678138,nan,nan
0,74,1204,6,1,393,276,-0.0489456633786,0.475102171109,-0.327443230616,1,1.0,1.0,0.268299379386,0,nan,nan,nan,nan,nan,nan,nan,nan,nan,0.0,0.0,0.0,nan,nan,93.2389891259,182.016866624,182.285166004,182.516905398,nan,nan
0,75,1205,6,1,24,16,1.0,0.102019060141,-1.0,1,1.0,1.0,0.204193891026,0,nan,nan,nan,nan,nan,nan,nan,nan,nan,0.0,0.0,0.0,nan,nan,93.2389891259,183.016999479,183.22119337,183.517058495,nan,nan
0,76,1206,6,1,362,254,-0.164239727892,0.476000155386,0.0174578511848,1,1.0,1.0,0.243991723284,0,nan,nan,nan,nan,nan,nan,nan,nan,nan,0.0,0.0,0.0,nan,nan,93.2389891259,184.017132905,184.261124628,184.517156568,nan,nan
0,77,1207,6,1,490,344,0.664660387652,0.296157848571,-1.0,1,1.0,1.0,0.273912084289,0,nan,nan,nan,nan,nan,nan,nan,nan,nan,0.0,0.0,0.0,nan,nan,93.2389891259,185.067258661,185.341170745,185.567328225,nan,nan
0,78,1208,6,1,277,194,0.258470646878,0.33263615818,0.624824240443,1,1.0,1.0,0.23371682642,0,nan,nan,nan,nan,nan,nan,nan,nan,nan,0.0,0.0,0.0,nan,nan,93.2389891259,186.067397504,186.30111433,186.567434851,nan,nan
0,79,1209,6,1,385,270,-0.0879796604702,0.477733444059,-0.233926720364,1,1.0,1.0,0.265258534346,0,nan,nan,nan,nan,nan,nan,nan,nan,nan,0.0,0.0,0.0,nan,nan,93.2389891259,187.075842077,187.341100611,187.575892824,nan,nan
0,80,1210,6,1,485,341,0.622774561467,0.312875618285,-1.0,1,1.0,1.0,0.33705736557,0,0.0,0.0,0.278677575445,0.339140490949,0.0767352826585,0.415875773607,0.26240520829,nan,nan,0.0,0.0,0.0,nan,nan,93.2389891259,188.075988617,188.413045982,188.576019977,nan,nan
0,81,1211,6,0,320,225,-0.0946500390753,0.43494401576,0.398701238857,0,1.0,0.0,0.272890581284,0,0.0,0.0,0.291735493733,0.339114773352,0.0762604839352,0.415375257287,0.262854289416,nan,nan,0.0,0.0,0.0,nan,nan,93.2389891259,189.076153973,189.349044554,189.576177636,nan,nan
0,82,1212,6,1,411,288,0.0555201669072,0.463022710015,-0.557054760163,1,1.0,1.0,0.264801239129,0,0.0,0.0,0.291583061994,0.338307161253,0.0761417752048,0.414448936458,0.262165386048,nan,nan,0.0,0.0,0.0,nan,nan,93.2389891259,190.07624891,190.341050149,190.576282837,nan,nan
0,83,1213,6,1,293,206,0.103830259013,0.378659598285,0.564617056734,1,1.0,1.0,0.304597360082,0,0.0,0.0,0.280763060165,0.337421547734,0.0761054086008,0.413526956334,0.261316139133,nan,nan,0.0,0.0,0.0,nan,nan,93.2389891259,191.076382051,191.380979411,191.576414552,nan,nan
0,84,1214,6,1,35,24,1.0,0.0462653595507,-1.0,1,1.0,1.0,0.320473557804,0,0.0,0.0,0.296624052338,0.337030783595,0.0757347625644,0.412765546159,0.261296021031,nan,nan,0.0,0.0,0.0,nan,nan,93.2389891259,192.076507778,192.396981336,192.576548262,nan,nan
0,85,1215,6,1,218,153,0.881467392804,0.0788246127756,0.572559633417,1,1.0,1.0,0.36032755347,0,0.0,0.0,0.328466157118,0.336835992703,0.0753091100205,0.412145102724,0.261526882683,nan,nan,0.0,0.0,0.0,nan,nan,93.2389891259,193.076642344,193.436969898,193.57667285,nan,nan
0,86,1216,6,1,414,291,0.0747837862165,0.460162189034,-0.600089175003,1,1.0,1.0,0.278451113496,0,0.0,0.0,0.31975074159,0.337109150387,0.0749123294533,0.41202147984,0.262196820933,nan,nan,0.0,0.0,0.0,nan,nan,93.2389891259,194.118464935,194.396916049,194.618476339,nan,nan
0,87,1217,6,1,339,238,-0.164955840019,0.45996923152,0.241423096872,1,1.0,1.0,0.326331160497,0,0.0,0.0,0.321703275821,0.336434920078,0.0747425410279,0.411177461105,0.26169237905,nan,nan,0.0,0.0,0.0,nan,nan,93.2389891259,195.118569851,195.444901011,195.618600071,nan,nan
0,88,1218,6,0,162,113,1.0,-0.218739557155,0.176632971453,0,0.0,1.0,0.47014293028,0,0.0,0.0,0.358308401424,0.336320104628,0.0743243699412,0.410644474569,0.261995734687,nan,nan,0.0,0.0,0.0,nan,nan,93.2389891259,196.118732641,196.588875572,196.618759726,nan,nan
0,89,1219,6,1,378,265,-0.117450136118,0.478670924818,-0.154810124165,1,1.0,1.0,0.318047096953,0,0.0,0.0,0.371507062577,0.337823731882,0.0752396308229,0.413063362705,0.262584101059,nan,nan,0.0,0.0,0.0,nan,nan,93.2389891259,197.118835276,197.436882373,197.618866922,nan,nan
0,90,1220,6,1,82,57,1.0,-0.198479155091,-0.679872484948,1,0.0,0.0,0.60552039044,0,0.0,0.0,0.464570139224,0.337603991494,0.0748491781066,0.412453169601,0.262754813388,nan,nan,0.0,0.0,0.0,nan,nan,93.2389891259,198.127299236,198.732819627,198.62736709,nan,nan
0,91,1221,6,1,198,139,1.0,-0.0302354974571,0.462326941081,1,1.0,1.0,0.54138240125,0,0.0,1.0,0.488316629548,0.340548127746,0.0795043965978,0.420052524344,0.261043731149,nan,nan,0.0,0.0,0.0,nan,nan,93.2389891259,199.127422683,199.668805085,199.627495953,nan,nan
0,92,1227,6,1,306,215,-0.00395437407881,0.408974006242,0.494128827808,1,1.0,1.0,0.332893808838,1,0.0,0.0,0.493265533509,0.34273110898,0.0817673232607,0.424498432241,0.260963785719,-126.339396329,308.0,-0.0186828559465,0.413097475488,0.481682330771,1.18314632917,2.88411804382,93.2389891259,200.13589092,200.468784729,200.635919714,201.96110279,204.853143964
0,93,1228,6,1,404,284,0.0124894593597,0.468746268022,-0.463349101315,1,1.0,1.0,0.446984215174,0,0.0,0.0,0.440420141754,0.342625331559,0.0813328542648,0.423958185824,0.261292477294,nan,nan,0.0,0.0,0.0,nan,nan,93.2389891259,206.061666769,206.508650984,206.561685015,nan,nan
0,94,1229,6,1,133,93,1.0,-0.306259573676,-0.105336427414,1,1.0,1.0,0.358842198271,0,0.0,0.0,0.379573407428,0.343735532449,0.0816044561824,0.425339988631,0.262131076266,nan,nan,0.0,0.0,0.0,nan,nan,93.2389891259,207.061799339,207.420641537,207.561823002,nan,nan
0,95,1230,6,1,293,206,0.103830259013,0.378659598285,0.564617056734,1,1.0,1.0,0.350677305367,0,0.0,0.0,0.385501239604,0.343894549984,0.0811884625195,0.425083012503,0.262706087464,nan,nan,0.0,0.0,0.0,nan,nan,93.2389891259,208.061941602,208.412618907,208.561948444,nan,nan
0,96,1231,6,1,216,151,0.900975005756,0.0682271079607,0.563426584804,1,1.0,1.0,0.334561055992,0,0.0,0.0,0.34802685321,0.343965203686,0.08076743484,0.424732638526,0.263197768846,nan,nan,0.0,0.0,0.0,nan,nan,93.2389891259,209.062045092,209.396606148,209.562077593,nan,nan
0,97,1232,6,1,37,26,1.0,0.0358565504353,-1.0,1,0.0,0.0,0.502409640234,0,0.0,0.0,0.395882667198,0.343868253709,0.0803556440966,0.424223897806,0.263512609613,nan,nan,0.0,0.0,0.0,nan,nan,93.2389891259,210.062180228,210.564589868,210.562255209,nan,nan
0,98,1233,6,1,466,327,0.464789014893,0.368385601135,-1.0,1,1.0,1.0,0.398255719803,0,0.0,0.0,0.411742138676,0.34548602296,0.0815169165531,0.427002939513,0.263969106407,nan,nan,0.0,0.0,0.0,nan,nan,93.2389891259,211.062299684,211.460555403,211.562336461,nan,nan
0,99,1234,6,1,169,118,1.0,-0.185917379452,0.239118302078,1,1.0,1.0,0.309756475501,0,0.0,0.0,0.403473945179,0.3460190502,0.0812756418766,0.427294692077,0.264743408324,nan,nan,0.0,0.0,0.0,nan,nan,93.2389891259,212.070778469,212.380534945,212.570816672,nan,nan
0,100,1235,6,1,407,286,0.0305886347219,0.46645515455,-0.502577406972,1,1.0,1.0,0.285261796322,0,0.0,0.0,0.331091330542,0.345656424453,0.0809486930632,0.426605117517,0.26470773139,nan,nan,0.0,0.0,0.0,nan,nan,93.2389891259,213.079288614,213.364550411,213.579279492,nan,nan
0,101,1236,6,1,238,167,0.675741828754,0.178727669763,0.638511091232,1,1.0,1.0,0.285169424489,0,0.0,0.0,0.293395898771,0.345058457838,0.0807686151182,0.425827072957,0.26428984272,nan,nan,0.0,0.0,0.0,nan,nan,93.2389891259,214.079365876,214.364535301,214.579400658,nan,nan
0,102,1237,6,1,82,57,1.0,-0.198479155091,-0.679872484948,1,1.0,1.0,0.373028055299,0,0.0,0.0,0.31448642537,0.344471310453,0.0805880361763,0.425059346629,0.263883274276,nan,nan,0.0,0.0,0.0,nan,nan,93.2389891259,215.079499586,215.452527642,215.579547768,nan,nan
0,103,1238,6,0,379,266,-0.113535935895,0.478614986251,-0.165970515924,0,0.0,1.0,0.500791429542,0,0.0,0.0,0.386329636443,0.344748560403,0.0802447464297,0.424993306832,0.264503813973,nan,nan,0.0,0.0,0.0,nan,nan,93.2389891259,216.079652398,216.580443828,216.579739923,nan,nan
0,104,1239,6,1,233,163,0.728670395113,0.154909781369,0.626482233315,1,1.0,1.0,0.340100775938,0,0.0,0.0,0.404640086927,0.346248972606,0.081296870465,0.427545843071,0.264952102141,nan,nan,0.0,0.0,0.0,nan,nan,93.2389891259,217.08834073,217.428441506,217.588124626,nan,nan
0,105,1240,6,1,278,195,0.248285521772,0.335802812283,0.621962573991,1,1.0,1.0,0.443873806857,0,0.0,0.0,0.428255337446,0.346190418352,0.0809110198892,0.427101438241,0.265279398463,nan,nan,0.0,0.0,0.0,nan,nan,93.2389891259,218.096566349,218.540440156,218.596580604,nan,nan
0,106,1241,6,1,469,329,0.489482198204,0.360453357602,-1.0,1,1.0,1.0,0.347071683034,0,0.0,0.0,0.377015421943,0.347111959753,0.081080224932,0.428192184685,0.266031734821,nan,nan,0.0,0.0,0.0,nan,nan,93.2389891259,219.113348584,219.460420267,219.613383081,nan,nan
0,107,1242,6,1,394,277,-0.0437090198531,0.474655926729,-0.339401417396,1,1.0,1.0,0.282939110883,0,0.0,0.0,0.357961533591,0.347111583335,0.0807004560757,0.427812039411,0.266411127259,nan,nan,0.0,0.0,0.0,nan,nan,93.2389891259,220.113482295,220.396421405,220.613519358,nan,nan
0,108,1243,6,1,29,20,1.0,0.0770173926463,-1.0,1,1.0,1.0,0.274507652037,0,0.0,0.0,0.301506148651,0.346517393775,0.0805607823189,0.427078176094,0.265956611456,nan,nan,0.0,0.0,0.0,nan,nan,93.2389891259,221.121941693,221.396449345,221.622002989,nan,nan
0,109,1244,6,1,239,168,0.665069831863,0.183388857662,0.640549267122,1,1.0,1.0,0.281946402974,0,0.0,0.0,0.279797721965,0.345856753943,0.0804837502756,0.426340504218,0.265373003667,nan,nan,0.0,0.0,0.0,nan,nan,93.2389891259,222.130392824,222.412339227,222.630442146,nan,nan
0,110,1245,6,1,378,265,-0.117450136118,0.478670924818,-0.154810124165,1,1.0,1.0,0.281482264865,0,0.0,0.0,0.279312106625,0.345275750752,0.0803463815563,0.425622132308,0.264929369196,nan,nan,0.0,0.0,0.0,nan,nan,93.2389891259,223.138865052,223.420347317,223.638925207,nan,nan
0,111,1246,6,1,321,225,-0.0999433513493,0.43654647086,0.391174984052,1,1.0,1.0,0.257259282749,0,0.0,0.0,0.273562650196,0.344701034663,0.0802104472375,0.4249114819,0.264490587425,nan,nan,0.0,0.0,0.0,nan,nan,93.2389891259,224.139042952,224.396302235,224.63903497,nan,nan
0,112,1247,6,0,448,315,0.32026743599,0.409662251776,-1.0,0,1.0,0.0,0.273122365586,0,0.0,0.0,0.2706213044,0.343920304735,0.0802740979893,0.424194402724,0.263646206746,nan,nan,0.0,0.0,0.0,nan,nan,93.2389891259,225.139159842,225.412282208,225.639201181,nan,nan
0,113,1248,6,1,31,21,1.0,0.0668515730764,-1.0,1,1.0,1.0,0.153013845906,0,0.0,0.0,0.22779849808,0.3432937743,0.0801927016309,0.423486475931,0.263101072669,nan,nan,0.0,0.0,0.0,nan,nan,93.2389891259,226.139274451,226.292288297,226.639298684,nan,nan
0,114,1249,6,1,337,236,-0.160643365934,0.457858386897,0.259303564052,1,1.0,1.0,0.216867023613,0,0.0,0.0,0.214334411702,0.341624652121,0.0817879742973,0.423412626419,0.259836677824,nan,nan,0.0,0.0,0.0,nan,nan,93.2389891259,227.139402459,227.356269483,227.639440663,nan,nan
0,115,1250,6,1,454,319,0.367627362238,0.397084843583,-1.0,1,1.0,1.0,0.296724976972,0,1.0,0.0,0.22220194883,0.340539803178,0.082251270111,0.422791073289,0.258288533067,nan,nan,0.0,0.0,0.0,nan,nan,93.2389891259,228.139526477,228.436251454,228.639559548,nan,nan
0,116,1255,6,1,83,58,1.0,-0.203097876184,-0.665876706514,1,1.0,1.0,0.36055278033,1,0.0,0.0,0.291381593638,0.340162089159,0.0819960787819,0.422158167941,0.258166010377,46.7357045889,62.0,1.0,-0.0974372467467,-1.0,-15.0950795889,1.83384717302,93.2389891259,229.139651634,229.500204415,229.63971236,230.964862364,232.806768944
0,117,1256,6,0,460,323,0.415848916989,0.383334931935,-1.0,0,1.0,0.0,0.300789604895,0,0.0,0.0,0.319355787399,0.34033636857,0.0816664903787,0.422002858949,0.258669878192,nan,nan,0.0,0.0,0.0,nan,nan,93.2389891259,234.015313416,234.316103021,234.515379558,nan,nan
0,118,1257,6,1,193,135,1.0,-0.0580453890011,0.428658791268,1,1.0,1.0,0.660642472096,0,0.0,0.0,0.440661619107,0.340001226505,0.0814004707787,0.421401697284,0.258600755727,nan,nan,0.0,0.0,0.0,nan,nan,93.2389891259,235.015430876,235.676073348,235.515490176,nan,nan
0,119,1258,6,1,13,9,0.950262168777,0.154664060346,-1.0,1,1.0,1.0,0.340529561974,0,0.0,0.0,0.433987212988,0.342695690754,0.086180345196,0.42887603595,0.256515345558,nan,nan,0.0,0.0,0.0,nan,nan,93.2389891259,236.015550046,236.356079608,236.515598228,nan,nan
0,120,1259,6,1,119,83,1.0,-0.309446327048,-0.250710895617,1,1.0,1.0,0.340034633409,0,0.0,1.0,0.44706888916,0.342677639681,0.0858207351056,0.428498374786,0.256856904575,nan,nan,0.0,0.0,0.0,nan,nan,93.2389891259,237.024019423,237.364054057,237.524064754,nan,nan
0,121,1303,6,1,399,280,-0.0164460389312,0.472031251936,-0.400274523968,1,1.0,1.0,0.347896468826,1,0.0,0.0,0.342820221403,0.342655796654,0.0854657031709,0.428121499825,0.257190093483,-179.268604247,383.0,-0.0968787136249,0.478131214543,-0.211081409456,-11.2782707531,1.20044686086,93.2389891259,238.024138309,238.372034777,238.524179933,239.849338205,241.057832784
0,122,1304,6,1,475,333,0.539218753276,0.343659807328,-1.0,1,1.0,1.0,0.51352671301,0,0.0,0.0,0.400485938415,0.342698752983,0.0851160247748,0.427814777758,0.257582728208,nan,nan,0.0,0.0,0.0,nan,nan,93.2389891259,242.266371553,242.779898266,242.766431139,nan,nan
0,123,1305,6,1,91,63,1.0,-0.237709898716,-0.562722318432,1,1.0,1.0,0.361140650231,0,0.0,0.0,0.407521277356,0.344087598187,0.0861461668856,0.430233765072,0.257941431301,nan,nan,0.0,0.0,0.0,nan,nan,93.2389891259,243.274815842,243.635956492,243.774860887,nan,nan
0,124,1306,6,1,212,149,0.93926288676,0.0467731277665,0.543851001166,1,1.0,1.0,0.360567035154,0,0.0,0.0,0.411744799465,0.3442251228,0.0858116559055,0.430036778705,0.258413466894,nan,nan,0.0,0.0,0.0,nan,nan,93.2389891259,244.283290065,244.643857101,244.783332259,nan,nan
0,125,1307,6,1,291,204,0.122027637739,0.373441943191,0.573791926984,1,1.0,1.0,0.312467748765,0,0.0,0.0,0.344725144717,0.344355858099,0.0854801178053,0.429835975904,0.258875740293,nan,nan,0.0,0.0,0.0,nan,nan,93.2389891259,245.283423205,245.595890954,245.783455422,nan,nan
0,126,1308,6,1,79,55,1.0,-0.184296021705,-0.724170777997,1,1.0,1.0,0.264327407815,0,0.0,0.0,0.312454063911,0.344102777866,0.0851872400259,0.429290017892,0.25891553784,nan,nan,0.0,0.0,0.0,nan,nan,93.2389891259,246.283549218,246.547876626,246.783588562,nan,nan
0,127,1309,6,0,428,300,0.170378320166,0.443486568519,-0.86866140055,0,1.0,0.0,0.256142557599,0,0.0,0.0,0.277645904726,0.343474625346,0.0851436533824,0.428618278728,0.258330971963,nan,nan,0.0,0.0,0.0,nan,nan,93.2389891259,247.283708588,247.539851145,247.783751637,nan,nan
0,128,1310,6,1,323,227,-0.11001989341,0.43965344528,0.375855360355,1,1.0,1.0,0.264027200174,0,0.0,0.0,0.261499055196,0.342792343567,0.0851582351747,0.427950578741,0.257634108392,nan,nan,0.0,0.0,0.0,nan,nan,93.2389891259,248.283811223,248.547838423,248.783843439,nan,nan
0,129,1311,6,1,219,153,0.871627318206,0.0840881726889,0.576959667802,1,1.0,1.0,0.247861344833,0,0.0,0.0,0.256010367535,0.34218176106,0.0851083330396,0.427290094099,0.25707342802,nan,nan,0.0,0.0,0.0,nan,nan,93.2389891259,249.283946929,249.531808273,249.783976009,nan,nan
0,130,1312,6,1,131,92,1.0,-0.308451667147,-0.125800503078,1,1.0,1.0,0.31171594793,0,0.0,0.0,0.274534830979,0.341456219396,0.0851799075728,0.426636126969,0.256276311824,nan,nan,0.0,0.0,0.0,nan,nan,93.2389891259,250.284073512,250.59578946,250.784103732,nan,nan
0,131,1313,6,1,310,217,-0.032854544558,0.417080732083,0.468828018046,1,1.0,1.0,0.311569692567,0,0.0,0.0,0.290382328443,0.341229194423,0.0848936423498,0.426122836773,0.256335552073,nan,nan,0.0,0.0,0.0,nan,nan,93.2389891259,251.28420152,251.595771213,251.784234877,nan,nan
0,132,1314,6,1,8,5,0.91102658764,0.177400941622,-1.0,1,1.0,1.0,0.239058974665,0,0.0,0.0,0.287448205054,0.341004501227,0.0846105569904,0.425615058218,0.256393944237,nan,nan,0.0,0.0,0.0,nan,nan,93.2389891259,252.292664625,252.5317236,252.792714517,nan,nan
0,133,1315,6,1,486,341,0.631151757674,0.309603058574,-1.0,1,1.0,1.0,0.254906091839,0,0.0,0.0,0.268511586357,0.340237993509,0.0847506589285,0.424988652437,0.25548733458,nan,nan,0.0,0.0,0.0,nan,nan,93.2389891259,253.292791208,253.5476973,253.792818008,nan,nan
0,134,1316,6,1,312,219,-0.0464483572634,0.420925197877,0.455573212045,1,1.0,1.0,0.278768711723,0,0.0,0.0,0.257577926076,0.339601188273,0.0847526189774,0.42435380725,0.254848569295,nan,nan,0.0,0.0,0.0,nan,nan,93.2389891259,254.292916651,254.571685363,254.792950292,nan,nan
0,135,1317,6,1,60,42,1.0,-0.0867837676833,-1.0,1,1.0,1.0,0.25463439431,0,0.0,0.0,0.262769732624,0.339150577335,0.0845990998628,0.423749677198,0.254551477472,nan,nan,0.0,0.0,0.0,nan,nan,93.2389891259,255.293058059,255.547692453,255.793084003,nan,nan
0,136,1318,6,0,128,90,1.0,-0.310663006781,-0.156689791083,0,1.0,0.0,0.302459702827,0,0.0,0.0,0.278620936287,0.338529134813,0.0845962079537,0.423125342767,0.253932926859,nan,nan,0.0,0.0,0.0,nan,nan,93.2389891259,256.293211726,256.595671429,256.793240521,nan,nan
0,137,1319,6,1,503,353,0.773020196022,0.248538461814,-1.0,1,1.0,1.0,0.158348866738,0,0.0,0.0,0.238480987959,0.338265854287,0.0843428011269,0.422608655414,0.253923053161,nan,nan,0.0,0.0,0.0,nan,nan,93.2389891259,257.293306093,257.45165496,257.793366249,nan,nan
0,138,1320,6,1,385,270,-0.0879796604702,0.477733444059,-0.233926720364,1,1.0,1.0,0.222217438743,0,0.0,0.0,0.227675336103,0.336962108001,0.085410923438,0.422373031439,0.251551184563,nan,nan,0.0,0.0,0.0,nan,nan,93.2389891259,258.293431821,258.51564926,258.793476011,nan,nan
0,139,1321,6,1,475,333,0.539218753276,0.343659807328,-1.0,1,1.0,1.0,0.261689690407,0,1.0,0.0,0.214085331963,0.336136606783,0.0856538618753,0.421790468659,0.250482744908,nan,nan,0.0,0.0,0.0,nan,nan,93.2389891259,259.301917734,259.563607424,259.801941967,nan,nan
0,140,1325,6,1,319,224,-0.0891891826932,0.433308674125,0.406137099325,1,1.0,1.0,0.253530784044,1,0.0,0.0,0.245812637731,0.335604843095,0.0855773642768,0.421182207372,0.250027478818,-133.085048986,317.0,-0.077772836126,0.429938605076,0.420733606481,-1.21182601404,1.3087922777,93.2389891259,260.302034908,260.555565692,260.802065699,262.127264739,263.444089056
0,141,1326,6,1,450,316,0.335949728395,0.405598329481,-1.0,1,1.0,1.0,0.294893513434,0,0.0,0.0,0.270037995962,0.33502275757,0.0855510430262,0.420573800596,0.249471714543,nan,nan,0.0,0.0,0.0,nan,nan,93.2389891259,264.65259789,264.947491403,265.152625829,nan,nan
0,142,1327,6,1,256,180,0.481312611765,0.257047908656,0.656065722404,1,1.0,1.0,0.422740420792,0,0.0,0.0,0.323721572757,0.334740157259,0.0853152947446,0.420055452003,0.249424862514,nan,nan,0.0,0.0,0.0,nan,nan,93.2389891259,265.652725613,266.075466034,266.152751557,nan,nan
0,143,1328,6,1,142,99,1.0,-0.289568116499,-0.0146273521697,1,1.0,1.0,0.334535682574,0,0.0,0.0,0.3507232056,0.335355543717,0.0853321451197,0.420687688837,0.250023398597,nan,nan,0.0,0.0,0.0,nan,nan,93.2389891259,266.652891824,266.987427507,267.152885552,nan,nan
0,144,1329,6,1,261,183,0.427225806086,0.276617811781,0.653674462902,1,1.0,1.0,0.32642267691,0,0.0,0.0,0.361232926759,0.335349850237,0.0850353640152,0.420385214252,0.250314486222,nan,nan,0.0,0.0,0.0,nan,nan,93.2389891259,267.652988472,267.979411149,268.153029812,nan,nan
0,145,1330,6,1,468,329,0.481236483515,0.363131620867,-1.0,1,1.0,1.0,0.310259671882,0,0.0,0.0,0.323739343788,0.335288283524,0.0847448517808,0.420033135305,0.250543431743,nan,nan,0.0,0.0,0.0,nan,nan,93.2389891259,268.653135868,268.96339554,269.153160386,nan,nan
0,146,1331,6,1,182,127,1.0,-0.118523835432,0.347089474713,1,1.0,1.0,0.325796603691,0,0.0,0.0,0.320826317494,0.335116854677,0.0844793553755,0.419596210053,0.250637499302,nan,nan,0.0,0.0,0.0,nan,nan,93.2389891259,269.661576735,269.987373339,270.161616934,nan,nan
0,147,1332,6,1,428,300,0.170378320166,0.443486568519,-0.86866140055,1,1.0,1.0,0.269635628909,0,0.0,0.0,0.301897301494,0.33505345161,0.0841950057864,0.419248457396,0.250858445823,nan,nan,0.0,0.0,0.0,nan,nan,93.2389891259,270.661723845,270.931359474,271.16175264,nan,nan
0,148,1333,6,1,161,113,1.0,-0.223158351501,0.167490545043,1,1.0,1.0,0.269495646469,0,0.0,0.0,0.288309293023,0.334611439294,0.0840810431503,0.418692482444,0.250530396144,nan,nan,0.0,0.0,0.0,nan,nan,93.2389891259,271.661850998,271.931346645,272.161876087,nan,nan
0,149,1334,6,1,323,227,-0.11001989341,0.43965344528,0.375855360355,1,1.0,1.0,0.27737829322,0,0.0,0.0,0.272169856199,0.33417442055,0.0839669013811,0.418141321931,0.250207519169,nan,nan,0.0,0.0,0.0,nan,nan,93.2389891259,272.66197473,272.939353024,273.162012078,nan,nan
0,150,1335,6,1,169,118,1.0,-0.185917379452,0.239118302078,1,1.0,1.0,0.260848083999,0,0.0,0.0,0.269240674563,0.333795779701,0.083814077312,0.417609857013,0.249981702389,nan,nan,0.0,0.0,0.0,nan,nan,93.2389891259,273.670430422,273.931278506,274.170468055,nan,nan
0,151,1336,6,0,441,310,0.266287261384,0.422891888867,-1.0,0,0.0,1.0,0.452702976298,0,0.0,0.0,0.330309784506,0.333312682379,0.0837453590222,0.417058041401,0.249567323357,nan,nan,0.0,0.0,0.0,nan,nan,93.2389891259,274.670591217,275.123294193,275.170621153,nan,nan
0,152,1337,6,1,496,348,0.714833717156,0.274923884212,-1.0,1,1.0,1.0,0.40456862282,0,0.0,0.0,0.372706561039,0.334098144839,0.0840256197032,0.418123764542,0.250072525136,nan,nan,0.0,0.0,0.0,nan,nan,93.2389891259,275.670691286,276.075259909,276.170722362,nan,nan
0,153,1338,6,1,145,101,1.0,-0.281667413287,0.0150551701241,1,1.0,1.0,0.324092294089,0,0.0,0.0,0.393787964402,0.334558736198,0.0839428670738,0.418501603272,0.250615869124,nan,nan,0.0,0.0,0.0,nan,nan,93.2389891259,276.679150685,277.003242979,277.179207134,nan,nan
0,154,1339,6,0,81,56,1.0,-0.193804253699,-0.694219169772,0,0.0,1.0,0.475906166248,0,0.0,0.0,0.401522361053,0.334490772288,0.0836741045821,0.41816487687,0.250816667706,nan,nan,0.0,0.0,0.0,nan,nan,93.2389891259,277.67929922,278.155205387,278.179341129,nan,nan
0,155,1340,6,1,416,292,0.087881616042,0.458117504295,-0.630165317015,1,1.0,1.0,0.347461980768,0,0.0,0.0,0.382486813702,0.335403129669,0.0841687277006,0.419571857369,0.251234401968,nan,nan,0.0,0.0,0.0,nan,nan,93.2389891259,278.687747215,279.035209196,279.187810506,nan,nan
0,156,1341,6,0,313,220,-0.0530221528698,0.42279583272,0.448797959603,0,0.0,1.0,0.500188163947,0,0.0,0.0,0.441185436988,0.335480429996,0.0839040418696,0.419384471866,0.251576388127,nan,nan,0.0,0.0,0.0,nan,nan,93.2389891259,279.687964459,280.188152623,280.187988407,nan,nan
0,157,1342,6,1,49,34,1.0,-0.027785429985,-1.0,1,1.0,1.0,0.363159137312,0,0.0,0.0,0.403603094009,0.336529523843,0.0846566090856,0.421186132929,0.251872914758,nan,nan,0.0,0.0,0.0,nan,nan,93.2389891259,280.688016917,281.051176054,281.188045141,nan,nan
0,158,1343,6,1,477,335,0.555879874869,0.337784025865,-1.0,1,1.0,1.0,0.298950443976,0,0.0,0.0,0.387432581745,0.336698065701,0.0844147033215,0.421112769022,0.252283362379,nan,nan,0.0,0.0,0.0,nan,nan,93.2389891259,281.688170299,281.987120743,282.188176571,nan,nan
0,159,1344,6,1,239,168,0.665069831863,0.183388857662,0.640549267122,1,1.0,1.0,0.346838473808,0,0.0,0.0,0.336316018365,0.336460659275,0.084201726145,0.42066238542,0.25225893313,nan,nan,0.0,0.0,0.0,nan,nan,93.2389891259,282.688287474,283.035125948,283.188313988,nan,nan
0,160,1345,6,1,339,238,-0.164955840019,0.45996923152,0.241423096872,1,1.0,1.0,0.410664852243,0,0.0,0.0,0.352151256676,0.336525520615,0.0839421677762,0.420467688392,0.252583352839,nan,nan,0.0,0.0,0.0,nan,nan,93.2389891259,283.688414627,284.099079479,284.188459102,nan,nan
0,161,1346,6,1,507,356,0.805995650865,0.232688349973,-1.0,1,1.0,1.0,0.346546249464,0,0.0,0.0,0.368016525172,0.336986013358,0.0838835522646,0.420869565623,0.253102461094,nan,nan,0.0,0.0,0.0,nan,nan,93.2389891259,284.688542065,285.035088315,285.188562592,nan,nan
0,162,1347,6,1,114,80,1.0,-0.303747463913,-0.303859371662,1,1.0,1.0,0.306399173103,0,0.0,0.0,0.35453675827,0.337045027162,0.0836276040859,0.420672631247,0.253417423076,nan,nan,0.0,0.0,0.0,nan,nan,93.2389891259,285.688659525,285.995058699,286.188697728,nan,nan
0,163,1348,6,1,15,10,0.965734432428,0.145352784795,-1.0,1,1.0,1.0,0.322244865354,0,0.0,0.0,0.325063429307,0.336857015787,0.0834050190982,0.420262034885,0.253451996689,nan,nan,0.0,0.0,0.0,nan,nan,93.2389891259,286.688803499,287.011048364,287.188839707,nan,nan
0,164,1349,6,1,499,350,0.739831889234,0.263827757734,-1.0,1,1.0,1.0,0.33006450627,0,0.0,0.0,0.319569514909,0.336767917309,0.0831581273024,0.419926044611,0.253609790006,nan,nan,0.0,0.0,0.0,nan,nan,93.2389891259,287.688936925,288.019001431,288.188948899,nan,nan
0,165,1350,6,1,184,129,1.0,-0.107671891867,0.362640045218,1,1.0,1.0,0.329606925137,0,0.0,0.0,0.327305432254,0.336727290575,0.0829073824895,0.419634673065,0.253819908086,nan,nan,0.0,0.0,0.0,nan,nan,93.2389891259,288.697373515,289.026980441,289.197427684,nan,nan
0,166,1351,6,1,297,208,0.0686262056446,0.388646276542,0.544904663634,1,1.0,1.0,0.361414628569,0,0.0,0.0,0.340362019992,0.336684396807,0.0826591205889,0.419343517396,0.254025276219,nan,nan,0.0,0.0,0.0,nan,nan,93.2389891259,289.697525187,290.058939815,290.197565956,nan,nan
0,167,1352,6,1,120,84,1.0,-0.310161497659,-0.240162905937,1,1.0,1.0,0.672969781794,0,0.0,1.0,0.4546637785,0.336832482028,0.0824333495287,0.419265831556,0.254399132499,nan,nan,0.0,0.0,0.0,nan,nan,93.2389891259,290.70598373,291.378953512,291.206047307,nan,nan
0,168,1357,6,1,59,41,1.0,-0.0814409933332,-1.0,1,1.0,1.0,0.456831465941,1,0.0,0.0,0.497071958768,0.338833299288,0.0861588950548,0.424992194343,0.252674404233,49.7636416907,57.0,1.0,-0.0707313323512,-1.0,-1.24801669073,1.62550398009,93.2389891259,291.706108888,292.162940354,292.206134547,293.531314486,295.164861337
0,169,1358,6,1,275,193,0.279002393219,0.326185254474,0.630178474337,1,1.0,1.0,0.317110838369,0,0.0,0.0,0.482304028701,0.339531513292,0.0863789933258,0.425910506618,0.253152519966,nan,nan,0.0,0.0,0.0,nan,nan,93.2389891259,296.381707549,296.698818387,296.881753164,nan,nan
0,170,1359,6,1,91,63,1.0,-0.237709898716,-0.562722318432,1,1.0,1.0,0.419909122866,0,0.0,0.0,0.397950475725,0.339399626969,0.0861416269582,0.425541253927,0.253258000011,nan,nan,0.0,0.0,0.0,nan,nan,93.2389891259,297.406863939,297.826773061,297.906879049,nan,nan
0,171,1400,6,1,423,297,0.135229581944,0.450080889006,-0.750039916123,1,1.0,1.0,0.299479868729,0,0.0,0.0,0.345499943321,0.339870442734,0.0861084742229,0.425978916957,0.253761968511,nan,nan,0.0,0.0,0.0,nan,nan,93.2389891259,298.415303666,298.714783534,298.915354983,nan,nan
0,172,1401,6,1,149,104,1.0,-0.269478519393,0.0541436597792,1,1.0,1.0,0.251290491316,0,0.0,0.0,0.323559827637,0.339635613816,0.0859126912659,0.425548305082,0.25372292255,nan,nan,0.0,0.0,0.0,nan,nan,93.2389891259,299.415459614,299.666750105,299.915497817,nan,nan
0,173,1402,6,1,349,245,-0.175656888649,0.468768509344,0.147945183432,1,1.0,1.0,0.234828134999,0,0.0,0.0,0.261866165015,0.339124948368,0.0859254319618,0.42505038033,0.253199516406,nan,nan,0.0,0.0,0.0,nan,nan,93.2389891259,300.423913025,300.65874116,300.923939254,nan,nan
0,174,1403,6,1,294,206,0.0948761993654,0.381212130724,0.559858230992,1,1.0,1.0,0.266332780011,0,1.0,0.0,0.250817135442,0.338525541394,0.0860401344617,0.424565675856,0.252485406933,nan,nan,0.0,0.0,0.0,nan,nan,93.2389891259,301.432360734,301.698693514,301.932399793,nan,nan
0,175,1407,6,1,81,56,1.0,-0.193804253699,-0.694219169772,1,1.0,1.0,0.289870959241,1,0.0,0.0,0.263677291417,0.338113011329,0.0859663534698,0.424079364799,0.25214665786,46.0609116903,62.0,1.0,-0.0974372467467,-1.0,-13.0140366903,0.950424480718,93.2389891259,302.44082555,302.730696509,302.940868314,304.266039986,305.224496505
0,176,1408,6,1,321,225,-0.0999433513493,0.43654647086,0.391174984052,1,1.0,1.0,0.321264416445,0,0.0,0.0,0.292489385232,0.337838908761,0.0857984394683,0.423637348229,0.252040469292,nan,nan,0.0,0.0,0.0,nan,nan,93.2389891259,306.441352694,306.762617111,306.941391753,nan,nan
0,177,1409,6,1,367,258,-0.15309091083,0.477560897992,-0.0350816338538,1,1.0,1.0,0.353140257765,0,0.0,0.0,0.32142521115,0.337745267561,0.0855647464107,0.423310013972,0.25218052115,nan,nan,0.0,0.0,0.0,nan,nan,93.2389891259,307.441489541,307.794629799,307.941542569,nan,nan
0,178,1410,6,1,439,308,0.251144291643,0.426392204401,-1.0,1,1.0,1.0,0.328956048936,0,0.0,0.0,0.334453574382,0.33783175627,0.0853318158537,0.423163572124,0.252499940416,nan,nan,0.0,0.0,0.0,nan,nan,93.2389891259,308.441625817,308.770581866,308.941645489,nan,nan
0,179,1411,6,1,496,348,0.714833717156,0.274923884212,-1.0,1,1.0,1.0,0.288559798151,0,0.0,0.0,0.323552034951,0.337782171313,0.0850956965059,0.422877867819,0.252686474807,nan,nan,0.0,0.0,0.0,nan,nan,93.2389891259,309.450064974,309.738624772,309.950117432,nan,nan
0,180,1412,6,1,268,188,0.35230222188,0.302367520405,0.645005310408,1,1.0,1.0,0.27230898384,0,0.0,0.0,0.296608276976,0.337508713684,0.0849378225433,0.422446536228,0.252570891141,nan,nan,0.0,0.0,0.0,nan,nan,93.2389891259,310.450221777,310.722530761,310.950249146,nan,nan
0,181,1413,6,1,374,262,-0.132039125116,0.478634076427,-0.110628443238,1,1.0,1.0,0.255853184499,0,0.0,0.0,0.272240655497,0.337148494182,0.0848406235526,0.421989117735,0.25230787063,nan,nan,0.0,0.0,0.0,nan,nan,93.2389891259,311.458662359,311.714515544,311.95870769,nan,nan
0,182,1414,6,1,152,106,1.0,-0.259184487343,0.0830625546756,1,1.0,1.0,0.279692710843,0,0.0,0.0,0.269284959727,0.336701816657,0.0848203725417,0.421522189198,0.251881444115,nan,nan,0.0,0.0,0.0,nan,nan,93.2389891259,312.458803767,312.738496478,312.958835413,nan,nan
0,183,1415,6,0,478,336,0.56422249903,0.334793662244,-1.0,0,0.0,1.0,0.439465921838,0,0.0,0.0,0.32500393906,0.336390291488,0.0846926451227,0.421082936611,0.251697646366,nan,nan,0.0,0.0,0.0,nan,nan,93.2389891259,313.459013029,313.89847895,313.958992502,nan,nan
0,184,1416,6,1,166,116,1.0,-0.20036215083,0.21267421211,1,1.0,1.0,0.335103880614,0,0.0,0.0,0.351420837765,0.336950485131,0.0848014727778,0.421751957909,0.252149012354,nan,nan,0.0,0.0,0.0,nan,nan,93.2389891259,314.467384617,314.802488498,314.967431088,nan,nan
0,185,1417,6,1,287,201,0.159501648714,0.36255249221,0.590751920292,1,1.0,1.0,0.318592202384,0,0.0,0.0,0.364387334945,0.336940503485,0.0845720774317,0.421512580917,0.252368426054,nan,nan,0.0,0.0,0.0,nan,nan,93.2389891259,315.475874236,315.794466438,315.975895048,nan,nan
0,186,1418,6,1,345,242,-0.173519535469,0.465595146217,0.186119282857,1,1.0,1.0,0.270096630789,0,0.0,0.0,0.307930904596,0.336841856705,0.0843550981996,0.421196954905,0.252486758506,nan,nan,0.0,0.0,0.0,nan,nan,93.2389891259,316.484330213,316.754426844,316.984362999,nan,nan
0,187,1419,6,1,149,104,1.0,-0.269478519393,0.0541436597792,1,1.0,1.0,0.365600137971,0,0.0,0.0,0.318096323715,0.336484930363,0.0842699591304,0.420754889494,0.252214971233,nan,nan,0.0,0.0,0.0,nan,nan,93.2389891259,317.492797309,317.858397447,317.992819832,nan,nan
0,188,1420,6,1,19,13,0.99625917486,0.126374530333,-1.0,1,1.0,1.0,0.421125631779,0,0.0,0.0,0.352274133513,0.336639798489,0.0840722159974,0.420712014486,0.252567582492,nan,nan,0.0,0.0,0.0,nan,nan,93.2389891259,318.501239032,318.922364663,319.001285788,nan,nan
0,189,1421,6,1,157,110,1.0,-0.240048375319,0.130425901556,1,1.0,1.0,0.308642031625,0,0.0,0.0,0.365122600459,0.33708681348,0.0840732214286,0.421160034909,0.253013592051,nan,nan,0.0,0.0,0.0,nan,nan,93.2389891259,319.509712685,319.818354717,320.00975545,nan,nan
0,190,1422,6,0,348,244,-0.175384772129,0.468017843042,0.157582163916,0,1.0,0.0,0.340433769394,0,0.0,0.0,0.356733810933,0.336937104102,0.0838769395341,0.420814043636,0.253060164568,nan,nan,0.0,0.0,0.0,nan,nan,93.2389891259,320.509886309,320.850320078,321.009920236,nan,nan
0,191,1423,6,1,476,334,0.547545041103,0.340739382997,-1.0,1,1.0,1.0,0.65991290845,0,0.0,0.0,0.436329569823,0.33695541125,0.0836574588332,0.420612870083,0.253297952417,nan,nan,0.0,0.0,0.0,nan,nan,93.2389891259,321.518379349,322.178292258,322.018384481,nan,nan
0,192,1424,6,1,77,54,1.0,-0.174593022316,-0.756267193339,1,1.0,1.0,0.355518822093,0,0.0,0.0,0.451955166645,0.338637481548,0.086617131007,0.425254612555,0.252020350541,nan,nan,0.0,0.0,0.0,nan,nan,93.2389891259,322.526766903,322.882285725,323.026804251,nan,nan
0,193,1425,6,1,18,12,0.988682696815,0.131162580546,-1.0,1,1.0,1.0,0.29937039176,0,0.0,1.0,0.438267374101,0.338724949634,0.0864009439351,0.425125893569,0.252324005699,nan,nan,0.0,0.0,0.0,nan,nan,93.2389891259,323.526908026,323.826278418,324.026944804,nan,nan
0,194,1430,6,1,150,105,1.0,-0.266152531622,0.0638227105866,1,1.0,1.0,0.290886760224,1,0.0,0.0,0.315258658025,0.338522091088,0.0862240416219,0.42474613271,0.252298049466,43.1159497689,67.0,1.0,-0.12380466598,-1.0,-58.5846997689,1.54213819327,93.2389891259,324.535374837,324.826261597,325.035417601,326.360600962,327.910789439
0,195,1431,6,1,270,189,0.331159066004,0.309369715406,0.641393874915,1,1.0,1.0,0.27455440769,0,0.0,0.0,0.288270519891,0.33827780734,0.0860699490966,0.424347756436,0.252207858243,nan,nan,0.0,0.0,0.0,nan,nan,93.2389891259,329.127615409,329.402169817,329.627664445,nan,nan
0,196,1432,6,1,226,158,0.801265930663,0.120208988367,0.60458276857,1,1.0,1.0,0.28237404814,0,0.0,0.0,0.282605072018,0.337952687954,0.0859700648174,0.423922752771,0.251982623137,nan,nan,0.0,0.0,0.0,nan,nan,93.2389891259,330.127770502,330.41014455,330.627789318,nan,nan
0,197,1433,6,1,113,79,1.0,-0.302191989669,-0.314576349441,1,1.0,1.0,0.250203416683,0,0.0,0.0,0.269043957504,0.337670562879,0.0858425044056,0.423513067284,0.251828058473,nan,nan,0.0,0.0,0.0,nan,nan,93.2389891259,331.12788454,331.378087957,331.627920177,nan,nan
0,198,1434,6,1,188,132,1.0,-0.0857393506835,0.392804289229,1,1.0,1.0,0.250064289663,0,0.0,0.0,0.260880584829,0.337228809615,0.0858496503644,0.423078459979,0.251379159251,nan,nan,0.0,0.0,0.0,nan,nan,93.2389891259,332.12801711,332.3780814,332.62806073,nan,nan
0,199,1435,6,1,239,168,0.665069831863,0.183388857662,0.640549267122,1,1.0,1.0,0.233952031936,0,1.0,0.0,0.244739912761,0.336790796952,0.0858551907797,0.422645987732,0.250935606172,nan,nan,0.0,0.0,0.0,nan,nan,93.2389891259,333.12814797,333.362100002,333.628187599,nan,nan
0,200,1439,6,1,66,46,1.0,-0.118568705386,-1.0,1,1.0,1.0,0.281787604094,1,0.0,0.0,0.255267975231,0.336276603127,0.0859469189532,0.42222352208,0.250329684174,47.1210963967,61.0,1.0,-0.0921163965413,-1.0,-3.52734639666,1.12543669716,93.2389891259,334.1282794,334.410067004,334.628313041,335.953488419,337.086992791
0,201,1440,6,0,329,231,-0.136053278316,0.448203788942,0.3278337444,0,1.0,0.0,0.266436555423,0,0.0,0.0,0.260725397151,0.336005513579,0.0858185304859,0.421824044065,0.250186983094,nan,nan,0.0,0.0,0.0,nan,nan,93.2389891259,338.295531561,338.561968116,338.795561781,nan,nan
0,202,1441,6,1,169,118,1.0,-0.185917379452,0.239118302078,1,1.0,1.0,0.281997435261,0,0.0,0.0,0.276740531592,0.335661112797,0.085744980382,0.421406093179,0.249916132415,nan,nan,0.0,0.0,0.0,nan,nan,93.2389891259,339.303965871,339.585963306,339.803985828,nan,nan
0,203,1442,6,1,27,18,1.0,0.0870912575778,-1.0,1,1.0,1.0,0.273896688595,0,0.0,0.0,0.274110226426,0.335396759705,0.0856160043159,0.421012764021,0.249780755389,nan,nan,0.0,0.0,0.0,nan,nan,93.2389891259,340.304085326,340.577982015,340.804116687,nan,nan
0,204,1443,6,1,492,345,0.681403316433,0.289222019555,-1.0,1,1.0,1.0,0.265352331102,0,0.0,0.0,0.273748818319,0.335095288768,0.0855138464265,0.420609135195,0.249581442342,nan,nan,0.0,0.0,0.0,nan,nan,93.2389891259,341.312537597,341.577889929,341.812582643,nan,nan
0,205,1444,6,1,85,59,1.0,-0.212156452387,-0.638781227021,1,1.0,1.0,0.265201230068,0,0.0,0.0,0.268150083255,0.334755079219,0.0854433034319,0.420198382651,0.249311775787,nan,nan,0.0,0.0,0.0,nan,nan,93.2389891259,342.312677865,342.577879095,342.812711507,nan,nan
0,206,1445,6,1,503,353,0.773020196022,0.248538461814,-1.0,1,1.0,1.0,0.273043963592,0,0.0,0.0,0.267865841587,0.334417439174,0.0853726458699,0.419790085044,0.249044793304,nan,nan,0.0,0.0,0.0,nan,nan,93.2389891259,343.312804163,343.585848127,343.812860042,nan,nan
0,207,1446,6,1,91,63,1.0,-0.237709898716,-0.562722318432,1,1.0,1.0,0.29692140827,0,0.0,0.0,0.27838886731,0.334120948954,0.0852724299027,0.419393378857,0.248848519051,nan,nan,0.0,0.0,0.0,nan,nan,93.2389891259,344.312943005,344.609864414,344.812968094,nan,nan
0,208,1447,6,1,191,134,1.0,-0.0691479807067,0.414571651978,1,1.0,1.0,0.304777826648,0,0.0,0.0,0.29158106617,0.333942105009,0.0851061081016,0.41904821311,0.248835996907,nan,nan,0.0,0.0,0.0,nan,nan,93.2389891259,345.313064456,345.617842283,345.813098668,nan,nan
0,209,1448,6,1,502,352,0.764740937618,0.25241357569,-1.0,1,1.0,1.0,0.272589519154,0,0.0,0.0,0.291429584691,0.333802563007,0.0849261094489,0.418728672456,0.248876453558,nan,nan,0.0,0.0,0.0,nan,nan,93.2389891259,346.313196457,346.585785976,346.813246633,nan,nan
0,210,1449,6,1,66,46,1.0,-0.118568705386,-1.0,1,1.0,1.0,0.272455238272,0,0.0,0.0,0.283274194691,0.333511072322,0.0848283983088,0.418339470631,0.248682674013,nan,nan,0.0,0.0,0.0,nan,nan,93.2389891259,347.31333815,347.585793388,347.813362668,nan,nan
0,211,1450,6,1,440,309,0.258699398066,0.424657399123,-1.0,1,1.0,1.0,0.288280688226,0,0.0,0.0,0.277775148551,0.333221708179,0.0847309695959,0.417952677775,0.248490738584,nan,nan,0.0,0.0,0.0,nan,nan,93.2389891259,348.313466158,348.601746846,348.813486115,nan,nan
0,212,1451,6,1,83,58,1.0,-0.203097876184,-0.665876706514,1,1.0,1.0,0.272144767456,0,0.0,0.0,0.277626897984,0.333009722236,0.084586963162,0.417596685398,0.248422759074,nan,nan,0.0,0.0,0.0,nan,nan,93.2389891259,349.31360158,349.585746347,349.813622106,nan,nan
0,213,1452,6,1,379,266,-0.113535935895,0.478614986251,-0.165970515924,1,1.0,1.0,0.303683624603,0,0.0,0.0,0.288036360095,0.332723971275,0.0844906714838,0.417214642759,0.248233299791,nan,nan,0.0,0.0,0.0,nan,nan,93.2389891259,350.32208179,350.625765414,350.822117142,nan,nan
0,214,1453,6,1,144,101,1.0,-0.284423189345,0.00519445478499,1,1.0,1.0,0.26949479105,0,0.0,0.0,0.281774394369,0.33258826872,0.0843162956618,0.416904564382,0.248271973058,nan,nan,0.0,0.0,0.0,nan,nan,93.2389891259,351.37217533,351.641670121,351.872216099,nan,nan
0,215,1454,6,1,7,4,0.9030914636,0.181853060355,-1.0,1,1.0,1.0,0.261042234488,0,0.0,0.0,0.278073550047,0.332294810685,0.0842294524653,0.41652426315,0.248065358219,nan,nan,0.0,0.0,0.0,nan,nan,93.2389891259,352.380635869,352.641678104,352.880679489,nan,nan
0,216,1455,6,1,127,89,1.0,-0.31111021432,-0.167036648065,1,1.0,1.0,0.276895339135,0,0.0,0.0,0.269144121557,0.331964937647,0.0841733376831,0.41613827533,0.247791599964,nan,nan,0.0,0.0,0.0,nan,nan,93.2389891259,353.380778703,353.657674042,353.880812059,nan,nan
0,217,1456,6,1,235,165,0.707591924495,0.164537776567,0.631659631194,1,1.0,1.0,0.284720681608,0,0.0,0.0,0.27421941841,0.331711160695,0.0840619492066,0.415773109902,0.247649211488,nan,nan,0.0,0.0,0.0,nan,nan,93.2389891259,354.380919541,354.665640222,354.88094748,nan,nan
0,218,1457,6,1,430,302,0.184725017221,0.440645728776,-0.941904167281,1,1.0,1.0,0.0605548904277,0,1.0,0.0,0.207390303724,0.331495608039,0.0839290118689,0.415424619908,0.24756659617,nan,nan,0.0,0.0,0.0,nan,nan,93.2389891259,355.381056387,355.441611277,355.881105709,nan,nan
0,219,1502,6,1,262,184,0.416452475899,0.2804144186,0.652815538838,1,1.0,1.0,0.188062532339,1,0.0,0.0,0.177779368125,0.330258435812,0.0857063826363,0.415964818448,0.244552053176,-88.703936502,254.0,0.503011129055,0.248947817922,0.65613358125,-5.51481349802,2.31725167623,93.2389891259,356.389508658,356.57757119,356.889532892,358.21470941,360.540004242
0,220,1503,6,1,144,101,1.0,-0.284423189345,0.00519445478499,1,1.0,1.0,0.348929660395,0,0.0,0.0,0.199182361054,0.329612090796,0.0860446678063,0.415656758603,0.24356742299,nan,nan,0.0,0.0,0.0,nan,nan,93.2389891259,361.748535885,362.097465545,362.248557552,nan,nan
0,221,1504,6,1,335,235,-0.155595990888,0.455627721073,0.276893227044,1,1.0,1.0,0.30082096532,0,0.0,0.0,0.279271052685,0.329699500614,0.0858595651409,0.415559065754,0.243839935473,nan,nan,0.0,0.0,0.0,nan,nan,93.2389891259,362.748659902,363.049480867,363.248698675,nan,nan
0,222,1505,6,1,507,356,0.805995650865,0.232688349973,-1.0,1,1.0,1.0,0.244646590669,0,0.0,0.0,0.298132405461,0.329569417121,0.0856877939174,0.415257211039,0.243881623204,nan,nan,0.0,0.0,0.0,nan,nan,93.2389891259,363.748797033,363.993443624,364.248819841,nan,nan
0,223,1506,6,1,76,53,1.0,-0.169674511773,-0.773365826749,1,1.0,1.0,0.252520685084,0,0.0,0.0,0.265996080358,0.329188597272,0.0856835325426,0.414872129814,0.243505064729,nan,nan,0.0,0.0,0.0,nan,nan,93.2389891259,364.748917629,365.001438315,365.248958969,nan,nan
0,224,1507,6,1,14,9,0.95801504718,0.150023555696,-1.0,1,1.0,1.0,0.252330525313,0,0.0,0.0,0.249832600355,0.328846329807,0.0856447093023,0.414491039109,0.243201620504,nan,nan,0.0,0.0,0.0,nan,nan,93.2389891259,365.749054761,366.001385286,366.24907985,nan,nan
0,225,1508,6,1,269,189,0.34171296506,0.305888347675,0.643262349404,1,1.0,1.0,0.228183664382,0,0.0,0.0,0.244344958259,0.328506259564,0.0856056146507,0.414111874215,0.242900644914,nan,nan,0.0,0.0,0.0,nan,nan,93.2389891259,366.749181914,366.977365579,367.249208713,nan,nan
0,226,1509,6,1,479,336,0.572572153349,0.331768222426,-1.0,1,1.0,1.0,0.228093573358,0,1.0,0.0,0.236202587684,0.328062354276,0.0856751523962,0.413737506672,0.24238720188,nan,nan,0.0,0.0,0.0,nan,nan,93.2389891259,367.749309638,367.977403211,368.249350977,nan,nan
0,227,1514,6,1,290,203,0.131265381085,0.370776544741,0.578206616232,1,1.0,1.0,0.259907548781,1,0.0,0.0,0.238728262174,0.327621963171,0.0857422144167,0.413364177587,0.241879748754,-117.143776743,295.0,0.0860222946478,0.38372732295,0.554986075565,3.23752674269,2.07554186974,93.2389891259,368.749454467,369.009362016,369.249491245,370.574664626,372.658252789
0,228,1515,6,1,224,157,0.821619416966,0.11002478857,0.597264883709,1,1.0,1.0,0.262453180272,0,0.0,0.0,0.250151434137,0.327324970125,0.0856709135019,0.412995883627,0.241654056623,nan,nan,0.0,0.0,0.0,nan,nan,93.2389891259,373.866772457,374.129225637,374.366816647,nan,nan
0,229,1516,6,0,107,75,1.0,-0.290089771429,-0.379592780214,0,0.0,1.0,0.406288042665,0,0.0,0.0,0.309549590573,0.3270416872,0.0855906069578,0.412632294158,0.241451080242,nan,nan,0.0,0.0,0.0,nan,nan,93.2389891259,374.866924698,375.273212741,375.366960336,nan,nan
0,230,1517,6,1,202,142,1.0,-0.00802826454356,0.487596984314,1,1.0,1.0,0.350166411139,0,0.0,0.0,0.339635878025,0.327386236571,0.0855633477107,0.412949584282,0.241822888861,nan,nan,0.0,0.0,0.0,nan,nan,93.2389891259,375.867037597,376.217204008,376.367080077,nan,nan
0,231,1518,6,1,65,45,1.0,-0.113312155659,-1.0,1,1.0,1.0,0.294030239806,0,0.0,0.0,0.350161564536,0.327484852046,0.0853910429093,0.412875894955,0.242093809136,nan,nan,0.0,0.0,0.0,nan,nan,93.2389891259,376.867152491,377.161182731,377.367199247,nan,nan
0,232,1519,6,1,205,144,1.0,0.00854800403903,0.505535240796,1,1.0,1.0,0.26985857496,0,0.0,0.0,0.304685075302,0.327340651131,0.0852349937547,0.412575644886,0.242105657376,nan,nan,0.0,0.0,0.0,nan,nan,93.2389891259,377.8672805,378.137139075,378.367322124,nan,nan
0,233,1520,6,1,438,307,0.243622561222,0.428096439079,-1.0,1,1.0,1.0,0.341715565417,0,0.0,0.0,0.301868126728,0.327093946941,0.0851348582607,0.412228805202,0.241959088681,nan,nan,0.0,0.0,0.0,nan,nan,93.2389891259,378.867415065,379.209130631,379.367448992,nan,nan
0,234,1521,6,1,327,229,-0.128086156831,0.445480682368,0.344176439252,1,1.0,1.0,0.309586272575,0,0.0,0.0,0.307053470984,0.32715643249,0.0849581055958,0.412114538086,0.242198326895,nan,nan,0.0,0.0,0.0,nan,nan,93.2389891259,379.86754564,380.177131913,380.367577856,nan,nan
0,235,1522,6,1,258,181,0.459642287315,0.26499291187,0.655490062901,1,1.0,1.0,0.301387452986,0,0.0,0.0,0.317563096993,0.327081665852,0.0847848653737,0.411866531226,0.242296800479,nan,nan,0.0,0.0,0.0,nan,nan,93.2389891259,380.867675929,381.169063382,381.367709286,nan,nan
0,236,1523,6,1,366,257,-0.155593376329,0.477302029306,-0.0244766492797,1,1.0,1.0,0.293275873177,0,0.0,0.0,0.301416532913,0.326972792069,0.0846215063448,0.411594298414,0.242351285724,nan,nan,0.0,0.0,0.0,nan,nan,93.2389891259,381.867806219,382.161082092,382.367834443,nan,nan
0,237,1524,6,1,179,125,1.0,-0.13461441766,0.323204131591,1,1.0,1.0,0.261121206917,0,0.0,0.0,0.285261511027,0.326830610977,0.0844710355219,0.411301646499,0.242359575455,nan,nan,0.0,0.0,0.0,nan,nan,93.2389891259,382.86794221,383.129063417,383.367964732,nan,nan
0,238,1525,6,1,497,349,0.723174939644,0.271260599794,-1.0,1,1.0,1.0,0.347937522456,0,0.0,0.0,0.30077820085,0.326554521044,0.0844004788774,0.410954999921,0.242154042166,nan,nan,0.0,0.0,0.0,nan,nan,93.2389891259,383.893103161,384.241040684,384.393097459,nan,nan
0,239,1526,6,1,353,248,-0.175041255135,0.471490071959,0.108799216003,1,1.0,1.0,0.331817282364,0,0.0,0.0,0.313625337246,0.326643989669,0.0842350327718,0.410879022441,0.242408956897,nan,nan,0.0,0.0,0.0,nan,nan,93.2389891259,384.893216345,385.225033627,385.39323117,nan,nan
0,240,1527,6,1,502,352,0.764740937618,0.25241357569,-1.0,1,1.0,1.0,0.435629656538,0,0.0,0.0,0.371794820453,0.326665545055,0.0840600204654,0.41072556552,0.24260552459,nan,nan,0.0,0.0,0.0,nan,nan,93.2389891259,385.893352336,386.328981993,386.393359749,nan,nan
0,241,1528,6,1,33,23,1.0,0.0565990290419,-1.0,1,1.0,1.0,0.347473955248,0,0.0,0.0,0.37164029805,0.327117678298,0.0841773666135,0.411295044911,0.242940311684,nan,nan,0.0,0.0,0.0,nan,nan,93.2389891259,386.893460388,387.240934343,387.393500871,nan,nan
0,242,1529,6,1,197,138,1.0,-0.035797595552,0.455774741445,1,1.0,1.0,0.347335397732,0,0.0,0.0,0.376813003172,0.327201795145,0.0840134155647,0.411215210709,0.24318837958,nan,nan,0.0,0.0,0.0,nan,nan,93.2389891259,387.893588111,388.240923509,388.393616621,nan,nan
0,243,1530,6,1,107,75,1.0,-0.290089771429,-0.379592780214,1,1.0,1.0,0.331176669337,0,0.0,0.0,0.341995340772,0.327284649476,0.0838502771221,0.411134926598,0.243434372354,nan,nan,0.0,0.0,0.0,nan,nan,93.2389891259,388.893721537,389.224898206,389.393754323,nan,nan
0,244,1531,6,1,243,170,0.622151010882,0.20168048164,0.647463484622,1,1.0,1.0,0.29103415506,0,0.0,0.0,0.323182074043,0.327300600377,0.0836786458033,0.410979246181,0.243621954574,nan,nan,0.0,0.0,0.0,nan,nan,93.2389891259,389.893850971,390.184885126,390.393888603,nan,nan
0,245,1532,6,1,187,131,1.0,-0.0912463489427,0.385383214542,1,1.0,1.0,0.114936003927,0,0.0,0.0,0.245715609441,0.32715257407,0.0835397041851,0.410692278255,0.243612869885,nan,nan,0.0,0.0,0.0,nan,nan,93.2389891259,390.893986962,391.008922966,391.394041986,nan,nan
0,246,1533,6,0,31,21,1.0,0.0668515730764,-1.0,0,1.0,0.0,0.274732023012,0,0.0,0.0,0.226900727333,0.326289905086,0.0844561495146,0.4107460546,0.241833755571,nan,nan,0.0,0.0,0.0,nan,nan,93.2389891259,391.894134357,392.16886638,392.394137493,nan,nan
0,247,1534,6,1,414,291,0.0747837862165,0.460162189034,-0.600089175003,1,1.0,1.0,0.202620155644,0,0.0,0.0,0.197429394194,0.326081168721,0.0843485727519,0.410429741473,0.241732595969,nan,nan,0.0,0.0,0.0,nan,nan,93.2389891259,392.894237848,393.096858003,393.3942732,nan,nan
0,248,1535,6,1,260,182,0.438016636947,0.272781976488,0.654406567654,1,1.0,1.0,0.290436021984,0,0.0,0.0,0.255929400213,0.325583342055,0.0845411606592,0.410124502715,0.241042181396,nan,nan,0.0,0.0,0.0,nan,nan,93.2389891259,393.894372128,394.18480815,394.39440805,nan,nan
0,249,1536,6,0,451,317,0.343830962376,0.403518361206,-1.0,0,0.0,1.0,0.426303563174,0,0.0,0.0,0.306453246934,0.325442188159,0.0844005062566,0.409842694416,0.241041681903,nan,nan,0.0,0.0,0.0,nan,nan,93.2389891259,394.894497856,395.320801419,395.394557726,nan,nan
0,250,1537,6,1,196,137,1.0,-0.0413610816081,0.449130757868,1,1.0,1.0,0.314199713059,0,0.0,0.0,0.343646432739,0.32584563366,0.0844717761987,0.410317409858,0.241373857461,nan,nan,0.0,0.0,0.0,nan,nan,93.2389891259,395.894629856,396.208829569,396.394666348,nan,nan
0,251,1538,6,1,16,11,0.973419431522,0.140652110383,-1.0,1,1.0,1.0,0.314043764956,0,0.0,0.0,0.351515680396,0.325799235569,0.0843065297518,0.410105765321,0.241492705818,nan,nan,0.0,0.0,0.0,nan,nan,93.2389891259,396.894756154,397.208799919,397.394795212,nan,nan
0,252,1539,6,1,110,77,1.0,-0.296722754836,-0.346921960777,1,1.0,1.0,0.321853712201,0,0.0,0.0,0.316699063405,0.325752586877,0.0841423343746,0.409894921251,0.241610252502,nan,nan,0.0,0.0,0.0,nan,nan,93.2389891259,397.894884448,398.21673816,398.394923506,nan,nan
0,253,1540,6,1,270,189,0.331159066004,0.309369715406,0.641393874915,1,1.0,1.0,0.377705356572,0,0.0,0.0,0.337867611243,0.325737176305,0.0839762368634,0.409713413168,0.241760939441,nan,nan,0.0,0.0,0.0,nan,nan,93.2389891259,398.895006184,399.272711541,399.39505465,nan,nan
0,254,1541,6,1,100,70,1.0,-0.270427092546,-0.457439896749,1,1.0,1.0,0.393549623434,0,0.0,0.0,0.364369564069,0.32594177544,0.0838739252046,0.409815700644,0.242067850235,nan,nan,0.0,0.0,0.0,nan,nan,93.2389891259,399.895153294,400.288702917,400.395206607,nan,nan
0,255,1542,6,1,161,113,1.0,-0.223158351501,0.167490545043,1,1.0,1.0,0.441402586177,0,0.0,0.0,0.404219188727,0.326206904255,0.0838158829524,0.410022787208,0.242391021303,nan,nan,0.0,0.0,0.0,nan,nan,93.2389891259,400.895277026,401.336679612,401.395329769,nan,nan
0,256,1543,6,1,282,198,0.208142307666,0.34807905204,0.609295500931,1,1.0,1.0,0.42524927482,0,0.0,1.0,0.420067161477,0.326656887388,0.0839600741928,0.410616961581,0.242696813195,nan,nan,0.0,0.0,0.0,nan,nan,93.2389891259,401.895406175,402.32065545,402.395432404,nan,nan
0,257,1548,6,1,230,161,0.760023132926,0.140224214653,0.61781109556,1,1.0,1.0,0.473084276542,1,0.0,0.0,0.446578712513,0.327040515354,0.0840210719129,0.411061587267,0.243019443442,-77.9574248571,239.0,0.665069831863,0.183388857662,0.640549267122,6.23867485712,1.84221420018,93.2389891259,402.8955396,403.368623877,403.395565829,404.720745198,406.57098716
0,258,1549,6,1,439,308,0.251144291643,0.426392204401,-1.0,1,1.0,1.0,0.442998844199,0,0.0,0.0,0.44711079852,0.327606576444,0.0843476569366,0.411954233381,0.243258919508,nan,nan,0.0,0.0,0.0,nan,nan,93.2389891259,407.829511133,408.272509977,408.329556748,nan,nan
0,259,1550,6,1,119,83,1.0,-0.309446327048,-0.250710895617,1,1.0,1.0,0.490528222173,0,0.0,0.0,0.468870447638,0.328052106436,0.0844882845883,0.412540391024,0.243563821847,nan,nan,0.0,0.0,0.0,nan,nan,93.2389891259,408.837972527,409.328500749,409.346338699,nan,nan
0,260,1551,6,1,294,206,0.0948761993654,0.381212130724,0.559858230992,1,1.0,1.0,0.394049968105,0,0.0,1.0,0.442525678159,0.328677014573,0.0849232446615,0.413600259235,0.243753769912,nan,nan,0.0,0.0,0.0,nan,nan,93.2389891259,409.846438483,410.240488451,410.346471269,nan,nan
0,261,1556,6,1,470,330,0.497741612616,0.357740777197,-1.0,1,1.0,1.0,0.36188560864,1,0.0,0.0,0.415487932973,0.328927485659,0.0848565658141,0.413784051473,0.244070919845,158.869807432,414.0,0.0747837862165,0.460162189034,-0.600089175003,-39.3385574321,1.30887581129,93.2389891259,410.846574189,411.208459798,411.346597852,412.67177665,413.988615506
0,262,1557,6,1,168,118,1.0,-0.190790017254,0.230361799274,1,1.0,1.0,0.46725432761,0,0.0,0.0,0.407729968118,0.329053280022,0.084718849952,0.413772129974,0.24433443007,nan,nan,0.0,0.0,0.0,nan,nan,93.2389891259,415.19712206,415.664376387,415.697159408,nan,nan
0,263,1558,6,1,100,70,1.0,-0.270427092546,-0.457439896749,1,1.0,1.0,0.36274631694,0,0.0,0.0,0.39729541773,0.32957875929,0.0849843464564,0.414563105747,0.244594412834,nan,nan,0.0,0.0,0.0,nan,nan,93.2389891259,416.205610253,416.56835657,416.70563135,nan,nan
0,264,1559,6,1,287,201,0.159501648714,0.36255249221,0.590751920292,1,1.0,1.0,0.298600344919,0,0.0,0.0,0.376200329823,0.329704393978,0.0848477047956,0.414552098774,0.244856689183,nan,nan,0.0,0.0,0.0,nan,nan,93.2389891259,417.205739117,417.504339462,417.705777605,nan,nan
0,265,1600,6,1,362,254,-0.164239727892,0.476000155386,0.0174578511848,1,1.0,1.0,0.258465242572,0,0.0,0.0,0.306603968143,0.329587020208,0.0847089339581,0.414295954166,0.24487808625,nan,nan,0.0,0.0,0.0,nan,nan,93.2389891259,418.205856292,418.464321535,418.705899911,nan,nan
0,266,1601,6,1,35,24,1.0,0.0462653595507,-1.0,1,1.0,1.0,0.282292795833,0,0.0,0.0,0.279786127775,0.329319645104,0.0846615157116,0.413981160816,0.244658129393,nan,nan,0.0,0.0,0.0,nan,nan,93.2389891259,419.205988577,419.488281372,419.706020223,nan,nan
0,267,1602,6,1,406,285,0.0244967455079,0.467245700284,-0.489366101921,1,1.0,1.0,0.266165713314,0,0.0,0.0,0.268974583906,0.329143514583,0.0845516365557,0.413695151139,0.244591878027,nan,nan,0.0,0.0,0.0,nan,nan,93.2389891259,420.206116586,420.472282299,420.706144525,nan,nan
0,268,1603,6,1,72,50,1.0,-0.149607777062,-0.853203742106,1,1.0,1.0,0.226017497014,0,0.0,0.0,0.25815866872,0.328908522787,0.0844810510945,0.413389573882,0.244427471693,nan,nan,0.0,0.0,0.0,nan,nan,93.2389891259,421.20624773,421.432265227,421.706314728,nan,nan
0,269,1604,6,0,11,7,0.934659501434,0.163852895862,-1.0,0,1.0,0.0,0.185829652473,0,0.0,0.0,0.226004287601,0.328526028267,0.0845560474982,0.413082075766,0.243969980769,nan,nan,0.0,0.0,0.0,nan,nan,93.2389891259,422.206405674,422.392235326,422.70643846,nan,nan
0,270,1605,6,1,60,42,1.0,-0.0867837676833,-1.0,1,1.0,1.0,0.0977241280489,0,0.0,0.0,0.169857092512,0.327997523172,0.0848432740352,0.412840797207,0.243154249137,nan,nan,0.0,0.0,0.0,nan,nan,93.2389891259,423.206504032,423.30422816,423.706567609,nan,nan
0,271,1606,6,1,509,357,0.822386376617,0.224555004187,-1.0,1,1.0,1.0,0.249558242504,0,0.0,0.0,0.177704007675,0.327147805847,0.0858298557076,0.412977661554,0.241317950139,nan,nan,0.0,0.0,0.0,nan,nan,93.2389891259,424.206644585,424.456202827,424.706692766,nan,nan
0,272,1607,6,1,109,76,1.0,-0.294638327523,-0.357773695079,1,1.0,1.0,0.305396487471,0,1.0,0.0,0.217559619341,0.326862550099,0.0858005357628,0.412663085862,0.241062014336,nan,nan,0.0,0.0,0.0,nan,nan,93.2389891259,425.206779151,425.512175638,425.706813362,nan,nan
0,273,1611,6,0,408,286,0.036737934283,0.465637664749,-0.515938449969,0,0.0,1.0,0.50021325238,1,0.0,0.0,0.351722660785,0.326783919833,0.0856530652436,0.412436985077,0.24113085459,-172.490668926,373.0,-0.135407706169,0.478559568072,-0.0996974893599,-24.3843310738,1.10044708941,93.2389891259,426.206920559,426.707133811,426.706972447,428.03209337,429.140575349
0,274,1612,6,1,48,33,1.0,-0.0224273256894,-1.0,1,1.0,1.0,0.314957500901,0,0.0,0.0,0.373522413584,0.327416873602,0.0861338745709,0.413550748172,0.241282999031,nan,nan,0.0,0.0,0.0,nan,nan,93.2389891259,430.34909188,430.664049381,430.84914947,nan,nan
0,275,1613,6,0,355,249,-0.173737462994,0.472683863687,0.0888799762457,0,0.0,1.0,0.354793820996,0,0.0,0.0,0.389988191426,0.327371566792,0.0859803957145,0.413351962506,0.241391171077,nan,nan,0.0,0.0,0.0,nan,nan,93.2389891259,431.349251535,431.704045356,431.849281755,nan,nan
0,276,1614,6,1,82,57,1.0,-0.198479155091,-0.679872484948,1,1.0,1.0,0.330640401691,0,0.0,0.0,0.333463907863,0.327470922785,0.0858403067052,0.41331122949,0.24163061608,nan,nan,0.0,0.0,0.0,nan,nan,93.2389891259,432.349366714,432.680007116,432.849395794,nan,nan
0,277,1615,6,1,496,348,0.714833717156,0.274923884212,-1.0,1,1.0,1.0,0.546502173413,0,0.0,0.0,0.410645465367,0.327482364947,0.0856854310643,0.413167796012,0.241796933883,nan,nan,0.0,0.0,0.0,nan,nan,93.2389891259,433.349499854,433.896002028,433.849565142,nan,nan
0,278,1616,6,1,56,39,1.0,-0.0653675053377,-1.0,1,1.0,1.0,0.402072883677,0,0.0,1.0,0.426405152927,0.328270205985,0.0865304290365,0.414800635021,0.241739776949,nan,nan,0.0,0.0,0.0,nan,nan,93.2389891259,434.357937015,434.760009899,434.857981775,nan,nan
0,279,1621,6,1,233,163,0.728670395113,0.154909781369,0.626482233315,1,1.0,1.0,0.305883433204,1,0.0,0.0,0.418152830098,0.328534731712,0.08648775006,0.415022481772,0.242046981651,-83.5712522512,247.0,0.578947625354,0.219392674348,0.6523805853,9.74312725117,1.57544237049,93.2389891259,435.358082415,435.663965848,435.858109214,437.18333762,438.766839683
0,280,1622,6,0,302,212,0.027086081288,0.400300843718,0.517770016443,0,0.0,1.0,0.376488847658,0,0.0,0.0,0.361481721513,0.328453834217,0.086343743526,0.414797577743,0.242110090691,nan,nan,0.0,0.0,0.0,nan,nan,93.2389891259,439.975373035,440.351861883,440.475407817,nan,nan
0,281,1623,6,1,172,120,1.0,-0.170984061773,0.265024678188,1,1.0,1.0,0.312355135102,0,0.0,0.0,0.331575805321,0.328624777325,0.086237422089,0.414862199414,0.242387355236,nan,nan,0.0,0.0,0.0,nan,nan,93.2389891259,440.975511877,441.287867012,441.475509027,nan,nan
0,282,1624,6,1,481,338,0.589289488337,0.325611856148,-1.0,1,1.0,1.0,0.368222175166,0,0.0,0.0,0.352355385975,0.328567083558,0.0860898155188,0.414656899077,0.24247726804,nan,nan,0.0,0.0,0.0,nan,nan,93.2389891259,441.975617078,442.343839253,442.475656422,nan,nan
0,283,1625,6,1,115,80,1.0,-0.305166285737,-0.293172749504,1,0.0,0.0,0.400073213037,0,0.0,0.0,0.360216841102,0.328707207557,0.0859697879471,0.414676995504,0.24273741961,nan,nan,0.0,0.0,0.0,nan,nan,93.2389891259,442.97573853,443.375811743,443.47576875,nan,nan
0,284,1626,6,1,494,347,0.698129958021,0.282143999684,-1.0,1,1.0,1.0,0.335907569155,0,0.0,0.0,0.368067652453,0.328958496309,0.0859223533708,0.41488084968,0.243036142938,nan,nan,0.0,0.0,0.0,nan,nan,93.2389891259,443.975859696,444.311767265,444.475907592,nan,nan
0,285,1627,6,1,12,8,0.942476689623,0.159273951266,-1.0,1,1.0,1.0,0.287769794464,0,0.0,0.0,0.341250192219,0.32898287902,0.085772464192,0.414755343212,0.243210414828,nan,nan,0.0,0.0,0.0,nan,nan,93.2389891259,444.975990841,445.263760635,445.476022772,nan,nan
0,286,1628,6,1,426,299,0.156193047225,0.446210853967,-0.81485970128,1,1.0,1.0,0.31961028371,0,0.0,0.0,0.314429215776,0.328838777326,0.0856569334171,0.414495710743,0.243181843909,nan,nan,0.0,0.0,0.0,nan,nan,93.2389891259,445.97612113,446.295731414,446.476151635,nan,nan
0,287,1629,6,1,82,57,1.0,-0.198479155091,-0.679872484948,1,1.0,1.0,0.375479319133,0,0.0,0.0,0.327619799102,0.328806622296,0.0855093042125,0.414315926509,0.243297318084,nan,nan,0.0,0.0,0.0,nan,nan,93.2389891259,446.97625199,447.351731309,447.476283635,nan,nan
0,288,1630,6,0,198,139,1.0,-0.0302354974571,0.462326941081,0,0.0,1.0,0.431269668043,0,0.0,0.0,0.375453090295,0.328968680271,0.0854048604571,0.414373540728,0.243563819814,nan,nan,0.0,0.0,0.0,nan,nan,93.2389891259,447.976417631,448.407687299,448.476449847,nan,nan
0,289,1631,6,1,130,91,1.0,-0.309333154106,-0.136071487739,1,1.0,1.0,0.343194078654,0,0.0,0.0,0.383314355277,0.329322662928,0.0854683505224,0.41479101345,0.243854312406,nan,nan,0.0,0.0,0.0,nan,nan,93.2389891259,448.976525398,449.319719476,449.476551911,nan,nan
0,290,1632,6,1,325,228,-0.119404900653,0.442631039184,0.360186421743,1,1.0,1.0,0.303033317905,0,0.0,0.0,0.359165688201,0.329370495396,0.0853247388354,0.414695234231,0.244045756561,nan,nan,0.0,0.0,0.0,nan,nan,93.2389891259,449.976643713,450.279677031,450.476689613,nan,nan
0,291,1633,6,1,384,270,-0.0924750057551,0.477945316949,-0.222479273925,1,1.0,1.0,0.318915217184,0,0.0,0.0,0.321714204581,0.329279989631,0.0851919496277,0.414471939259,0.244088040004,nan,nan,0.0,0.0,0.0,nan,nan,93.2389891259,450.976768585,451.295683803,451.476803937,nan,nan
0,292,1634,6,1,11,7,0.934659501434,0.163852895862,-1.0,1,1.0,1.0,0.38274872303,0,0.0,0.0,0.33489908604,0.329244493835,0.0850481034409,0.414292597276,0.244196390394,nan,nan,0.0,0.0,0.0,nan,nan,93.2389891259,451.976897734,452.359646457,452.476930805,nan,nan
0,293,1635,6,0,437,307,0.23613482661,0.429770237144,-1.0,0,1.0,0.0,0.326564369723,0,0.0,0.0,0.342742769979,0.329427102126,0.0849601685976,0.414387270724,0.244466933529,nan,nan,0.0,0.0,0.0,nan,nan,93.2389891259,452.97706081,453.303625179,453.477104144,nan,nan
0,294,1636,6,1,353,248,-0.175041255135,0.471490071959,0.108799216003,1,1.0,1.0,0.302090787329,0,0.0,0.0,0.337134626694,0.329417364941,0.0848157192077,0.414233084149,0.244601645733,nan,nan,0.0,0.0,0.0,nan,nan,93.2389891259,453.985488562,454.28757935,454.485525055,nan,nan
0,295,1637,6,1,48,33,1.0,-0.0224273256894,-1.0,1,1.0,1.0,0.277923969086,0,0.0,0.0,0.302193042046,0.329324732475,0.0846867376122,0.414011470087,0.244637994862,nan,nan,0.0,0.0,0.0,nan,nan,93.2389891259,454.985637668,455.263561637,455.48565905,nan,nan
0,296,1638,6,1,479,336,0.572572153349,0.331768222426,-1.0,1,1.0,1.0,0.405760042835,0,0.0,0.0,0.32859159975,0.329151081247,0.0845961581705,0.413747239417,0.244554923076,nan,nan,0.0,0.0,0.0,nan,nan,93.2389891259,455.985772519,456.391532562,456.485779361,nan,nan
0,297,1639,6,1,58,40,1.0,-0.0760896648475,-1.0,1,1.0,1.0,0.333629359026,0,0.0,0.0,0.339104456982,0.329409023879,0.0845701375591,0.413979161438,0.244838886319,nan,nan,0.0,0.0,0.0,nan,nan,93.2389891259,456.985880856,457.319510215,457.485917918,nan,nan
0,298,1640,6,1,296,208,0.0772713571413,0.386205321608,0.550001308524,1,1.0,1.0,0.277470094617,0,0.0,0.0,0.338953165493,0.329423186077,0.0844284748912,0.413851660968,0.244994711186,nan,nan,0.0,0.0,0.0,nan,nan,93.2389891259,457.986013711,458.263483806,458.486052484,nan,nan
0,299,1641,6,1,347,243,-0.174938837379,0.46723881498,0.167157479366,1,1.0,1.0,0.293304097839,0,0.0,0.0,0.301467850494,0.329249429918,0.0843405260014,0.41358995592,0.244908903917,nan,nan,0.0,0.0,0.0,nan,nan,93.2389891259,458.986160251,459.279464349,459.486204726,nan,nan
0,300,1642,6,1,123,86,1.0,-0.311441137266,-0.208672863777,1,1.0,1.0,0.309141521808,0,0.0,0.0,0.293305238088,0.329129612145,0.0842253274168,0.413354939562,0.244904284728,nan,nan,0.0,0.0,0.0,nan,nan,93.2389891259,459.986307076,460.295448598,460.486300233,nan,nan
0,301,1643,6,1,206,144,0.994723455659,0.014051917983,0.511316161583,1,1.0,1.0,0.260699263308,0,0.0,0.0,0.287714960985,0.329063206529,0.0840931679563,0.413156374485,0.244970038573,nan,nan,0.0,0.0,0.0,nan,nan,93.2389891259,460.994746232,461.255445496,461.494788712,nan,nan
0,302,1644,6,0,412,289,0.0618891196837,0.462096609288,-0.571158935758,0,1.0,0.0,0.260529345367,0,0.0,0.0,0.276790043494,0.328836835856,0.0840456373014,0.412882473157,0.244791198555,nan,nan,0.0,0.0,0.0,nan,nan,93.2389891259,461.994898474,462.25542782,462.494929265,nan,nan
0,303,1645,6,1,123,86,1.0,-0.311441137266,-0.208672863777,1,1.0,1.0,0.244415377267,0,0.0,0.0,0.255214661981,0.328611398594,0.0839982436819,0.412609642276,0.244613154912,nan,nan,0.0,0.0,0.0,nan,nan,93.2389891259,462.994999113,463.239414491,463.495028479,nan,nan
0,304,1646,6,1,405,284,0.018463324075,0.468009379796,-0.476293327428,1,1.0,1.0,0.32425109297,0,0.0,0.0,0.276398605201,0.328334437997,0.0839984384321,0.412332876429,0.244335999565,nan,nan,0.0,0.0,0.0,nan,nan,93.2389891259,463.995127122,464.319378215,464.495160764,nan,nan
0,305,1647,6,1,63,44,1.0,-0.102744642793,-1.0,1,1.0,1.0,0.356084739789,0,0.0,0.0,0.308250403342,0.328321049981,0.0838609478935,0.412181997874,0.244460102087,nan,nan,0.0,0.0,0.0,nan,nan,93.2389891259,464.995263969,465.351348708,465.495295044,nan,nan
0,306,1648,6,1,221,155,0.851781464038,0.0945411604707,0.585422935822,1,1.0,1.0,0.299946858082,0,0.0,0.0,0.326760896947,0.328411780993,0.083738801238,0.412150582231,0.244672979755,nan,nan,0.0,0.0,0.0,nan,nan,93.2389891259,465.995393973,466.295340831,466.495423908,nan,nan
0,307,1649,6,1,462,324,0.432089675478,0.378486360879,-1.0,1,1.0,1.0,0.299832534045,0,0.0,0.0,0.318621377305,0.328319061375,0.083618039281,0.411937100656,0.244701022094,nan,nan,0.0,0.0,0.0,nan,nan,93.2389891259,466.995511433,467.295343967,467.495549921,nan,nan
0,308,1650,6,1,358,251,-0.170583909915,0.474268316859,0.0585874414746,1,1.0,1.0,0.267640234903,0,0.0,0.0,0.289139875676,0.32822657265,0.0834979125442,0.411724485194,0.244728660105,nan,nan,0.0,0.0,0.0,nan,nan,93.2389891259,467.995646854,468.263287089,468.495682206,nan,nan
0,309,1651,6,1,38,26,1.0,0.0306259494545,-1.0,1,1.0,1.0,0.267506524455,0,0.0,0.0,0.278326431134,0.328030500359,0.0834336830615,0.411464183421,0.244596817298,nan,nan,0.0,0.0,0.0,nan,nan,93.2389891259,468.995769446,469.26327597,469.495836728,nan,nan
0,310,1652,6,1,496,348,0.714833717156,0.274923884212,-1.0,1,1.0,1.0,0.29936041357,0,0.0,0.0,0.278169057642,0.327835261727,0.083369674053,0.41120493578,0.244465587674,nan,nan,0.0,0.0,0.0,nan,nan,93.2389891259,469.995909713,470.295270127,470.495936797,nan,nan
0,311,1653,6,0,20,14,1.0,0.121558187834,-1.0,0,1.0,0.0,0.283148657065,0,0.0,0.0,0.283338531697,0.32774370273,0.0832511406192,0.410994843349,0.244492562111,nan,nan,0.0,0.0,0.0,nan,nan,93.2389891259,470.996067657,471.279216314,471.496095596,nan,nan
0,312,1654,6,1,422,296,0.128328379107,0.451313674078,-0.730894888444,1,1.0,1.0,0.147062730975,0,0.0,0.0,0.243190600537,0.327600769891,0.083155830409,0.4107566003,0.244444939482,nan,nan,0.0,0.0,0.0,nan,nan,93.2389891259,471.99616402,472.143226751,472.496221894,nan,nan
0,313,1655,6,1,283,198,0.19826868328,0.351050922538,0.605825948857,1,1.0,1.0,0.274893958122,0,0.0,0.0,0.235035115387,0.327023971045,0.0836456888283,0.410669659873,0.243378282217,nan,nan,0.0,0.0,0.0,nan,nan,93.2389891259,472.996288322,473.27118228,473.496323104,nan,nan
0,314,1656,6,1,124,87,1.0,-0.311577186586,-0.198226518473,1,1.0,1.0,0.298750020564,0,1.0,0.0,0.240235569887,0.326857951895,0.0835640240055,0.410421975901,0.24329392789,nan,nan,0.0,0.0,0.0,nan,nan,93.2389891259,473.996421462,474.295171483,474.496449117,nan,nan
0,315,1701,6,1,383,269,-0.0968787136249,0.478131214543,-0.211081409456,1,1.0,1.0,0.362600632012,1,0.0,0.0,0.312081536899,0.326768720367,0.0834462592121,0.410214979579,0.243322461155,-60.0352346638,213.0,0.929785093221,0.0521668813814,0.548906519778,-119.261640336,1.95047380263,93.2389891259,474.996548045,475.359148677,475.49660535,476.821779017,478.78033589
0,316,1702,6,1,260,182,0.438016636947,0.272781976488,0.654406567654,1,1.0,1.0,0.490155030042,0,0.0,0.0,0.383835227539,0.326882112493,0.0833384226207,0.410220535114,0.243543689872,nan,nan,0.0,0.0,0.0,nan,nan,93.2389891259,479.988854133,480.479009163,480.497231138,nan,nan
0,317,1703,6,1,166,116,1.0,-0.20036215083,0.21267421211,1,1.0,1.0,0.361684330273,0,0.0,0.0,0.404813330776,0.327397169015,0.0837090959343,0.411106264949,0.243688073081,nan,nan,0.0,0.0,0.0,nan,nan,93.2389891259,480.997336909,481.359021239,481.497360572,nan,nan
0,318,1704,6,1,314,220,-0.0594438881467,0.42463230952,0.441925406839,1,1.0,1.0,0.29752438888,0,0.0,0.0,0.383121249732,0.327504990277,0.0835994183084,0.411104408585,0.243905571968,nan,nan,0.0,0.0,0.0,nan,nan,93.2389891259,481.997456935,482.294981324,482.497496278,nan,nan
0,319,1705,6,1,251,176,0.535576518695,0.236509187076,0.655284151108,1,1.0,1.0,0.289396557957,0,0.0,0.0,0.316201759037,0.3274110072,0.0834851059603,0.410896113161,0.24392590124,nan,nan,0.0,0.0,0.0,nan,nan,93.2389891259,482.997585514,483.286982072,483.497621436,nan,nan
0,320,1706,6,1,363,255,-0.162287729338,0.476365729747,0.00704812682028,1,1.0,1.0,0.265218906105,0,0.0,0.0,0.284046617647,0.327292212046,0.0833815580818,0.410673770128,0.243910653965,nan,nan,0.0,0.0,0.0,nan,nan,93.2389891259,483.99772293,484.262941836,484.497755146,nan,nan
0,321,1707,6,1,247,173,0.578947625354,0.219392674348,0.6523805853,1,1.0,1.0,0.289081810974,0,0.0,0.0,0.281232425012,0.327098837262,0.0833234145793,0.410422251841,0.243775422682,nan,nan,0.0,0.0,0.0,nan,nan,93.2389891259,484.997851509,485.28693332,485.497887431,nan,nan
0,322,1708,6,1,172,120,1.0,-0.170984061773,0.265024678188,1,1.0,1.0,0.280930602457,0,0.0,0.0,0.278410439845,0.326980771963,0.0832208177399,0.410201589702,0.243759954223,nan,nan,0.0,0.0,0.0,nan,nan,93.2389891259,485.997976381,486.278906984,486.498033401,nan,nan
0,323,1709,6,1,26,18,1.0,0.0920921692153,-1.0,1,1.0,1.0,0.280776364729,0,0.0,0.0,0.283596259387,0.326838201778,0.0831312681881,0.409969469966,0.24370693359,nan,nan,0.0,0.0,0.0,nan,nan,93.2389891259,486.998108096,487.278884461,487.498146014,nan,nan
0,324,1710,6,1,407,286,0.0305886347219,0.46645515455,-0.502577406972,1,1.0,1.0,0.280668313149,0,0.0,0.0,0.280791760112,0.326696035615,0.0830421960239,0.409738231638,0.243653839591,nan,nan,0.0,0.0,0.0,nan,nan,93.2389891259,487.998226697,488.27889501,488.498276874,nan,nan
0,325,1711,6,1,134,94,1.0,-0.304950998219,-0.095144111098,1,1.0,1.0,0.280479578767,0,0.0,0.0,0.280641418882,0.326554411853,0.0829535195237,0.409507931377,0.243600892329,nan,nan,0.0,0.0,0.0,nan,nan,93.2389891259,488.998365824,489.278845403,489.498397755,nan,nan
0,326,1712,6,1,479,336,0.572572153349,0.331768222426,-1.0,1,1.0,1.0,0.296366324648,0,0.0,0.0,0.285838072188,0.326413078009,0.0828653734614,0.409278451471,0.243547704548,nan,nan,0.0,0.0,0.0,nan,nan,93.2389891259,489.998494118,490.294860442,490.498532606,nan,nan
0,327,1713,6,1,95,66,1.0,-0.253175017597,-0.514975443931,1,1.0,1.0,0.280175380409,0,0.0,0.0,0.285673761275,0.326321191913,0.0827552026371,0.409076394551,0.243565989276,nan,nan,0.0,0.0,0.0,nan,nan,93.2389891259,490.99863182,491.2788072,491.498654342,nan,nan
0,328,1714,6,1,387,272,-0.0787219327085,0.477231755363,-0.256974454483,1,1.0,1.0,0.296046445612,0,0.0,0.0,0.29086271689,0.326180503464,0.0826681112208,0.408848614685,0.243512392243,nan,nan,0.0,0.0,0.0,nan,nan,93.2389891259,491.99875099,492.294797436,492.498785487,nan,nan
0,329,1715,6,1,304,213,0.0113092810281,0.404708921832,0.506160370659,1,1.0,1.0,0.279901117086,0,0.0,0.0,0.285374314369,0.326088910583,0.0825590467591,0.408647957342,0.243529863824,nan,nan,0.0,0.0,0.0,nan,nan,93.2389891259,492.998878143,493.27877926,493.498922048,nan,nan
0,330,1716,6,1,490,344,0.664660387652,0.296157848571,-1.0,1,1.0,1.0,0.271730236243,0,0.0,0.0,0.282559266314,0.325948947572,0.0824729450232,0.408421892595,0.243476002549,nan,nan,0.0,0.0,0.0,nan,nan,93.2389891259,493.99901328,494.270743516,494.499046636,nan,nan
0,331,1717,6,0,67,47,1.0,-0.12380466598,-1.0,0,1.0,0.0,0.287568516098,0,0.0,0.0,0.279733289809,0.325785144819,0.0824020133203,0.408187158139,0.243383131499,nan,nan,0.0,0.0,0.0,nan,nan,93.2389891259,494.999173504,495.28674202,495.499206005,nan,nan
0,332,1718,6,1,292,205,0.112881669716,0.376069582356,0.569261850688,1,1.0,1.0,0.183474465739,0,0.0,0.0,0.247591072693,0.325670034491,0.0823044688566,0.407974503348,0.243365565635,nan,nan,0.0,0.0,0.0,nan,nan,93.2389891259,495.999271007,496.182745473,496.499330022,nan,nan
0,333,1719,6,1,395,277,-0.0383984177995,0.474183508328,-0.351427224487,1,1.0,1.0,0.199308753945,0,0.0,0.0,0.223450578594,0.325243020771,0.0825482906706,0.407791311442,0.242694730101,nan,nan,0.0,0.0,0.0,nan,nan,93.2389891259,496.999407283,497.198716037,497.4994854,nan,nan
0,334,1720,6,1,136,95,1.0,-0.301914900238,-0.074841205769,1,1.0,1.0,0.207159184851,0,1.0,0.0,0.196647468178,0.324865972068,0.0827113028656,0.407577274934,0.242154669203,nan,nan,0.0,0.0,0.0,nan,nan,93.2389891259,497.999530445,498.20668963,498.499593452,nan,nan
0,335,1721,6,0,458,322,0.399688045963,0.388050214986,-1.0,0,1.0,0.0,0.22296581883,0,0.0,0.0,0.209811252542,0.324514608524,0.082837024737,0.407351633261,0.241677583787,nan,nan,0.0,0.0,0.0,nan,nan,93.2389891259,498.999695231,499.22266105,499.49972203,nan,nan
0,336,1722,6,1,178,125,1.0,-0.139919655122,0.315097826042,1,1.0,1.0,0.262873128057,0,0.0,0.0,0.230999377246,0.324212379984,0.0828984302024,0.407110810186,0.241313949781,nan,nan,0.0,0.0,0.0,nan,nan,93.2389891259,499.999791879,500.262665007,500.499843197,nan,nan
0,337,1723,6,1,409,287,0.0429436170054,0.464793150178,-0.529461854507,1,1.0,1.0,0.214719957672,0,0.0,0.0,0.233519634853,0.324030364399,0.0828425564817,0.406872920881,0.241187807918,nan,nan,0.0,0.0,0.0,nan,nan,93.2389891259,500.999919603,501.21463956,501.499981469,nan,nan
0,338,1724,6,1,343,241,-0.171388175652,0.463836419185,0.204822810802,1,1.0,1.0,0.238546940032,0,1.0,0.0,0.23871334192,0.323706960829,0.0829326928572,0.406639653686,0.240774267972,nan,nan,0.0,0.0,0.0,nan,nan,93.2389891259,502.000049037,502.238595977,502.500106056,nan,nan
0,339,1728,6,1,403,283,0.00657627305109,0.469456436931,-0.450524507496,1,1.0,1.0,0.230377200525,1,0.0,0.0,0.227881366077,0.323455751328,0.0829389706713,0.406394722,0.240516780657,110.797162279,482.0,0.597655625539,0.322480811492,-1.0,55.8434627208,1.75886095734,93.2389891259,503.000182177,503.230559377,503.500245184,504.825385209,506.592285902
0,340,1729,6,1,106,74,1.0,-0.287630069369,-0.390564445695,1,1.0,1.0,0.565658411477,0,0.0,0.0,0.344860850678,0.323181990885,0.0829701582354,0.40615214912,0.240211832649,nan,nan,0.0,0.0,0.0,nan,nan,93.2389891259,507.80080386,508.366462271,508.300871428,nan,nan
0,341,1730,6,1,21,14,1.0,0.116713997928,-1.0,1,1.0,1.0,0.405502600595,0,0.0,0.0,0.400512737532,0.323893065432,0.0838795119203,0.407772577352,0.240013553512,nan,nan,0.0,0.0,0.0,nan,nan,93.2389891259,508.800947263,509.206449864,509.300967791,nan,nan
0,342,1731,6,1,333,234,-0.149813480994,0.453275949072,0.294183738108,1,1.0,1.0,0.46135709621,0,0.0,1.0,0.477506036094,0.324131689804,0.083872624665,0.408004314469,0.240259065139,nan,nan,0.0,0.0,0.0,nan,nan,93.2389891259,509.801065294,510.26242239,510.301092378,nan,nan
0,343,1736,6,1,17,11,0.981069150956,0.135921910835,-1.0,1,1.0,1.0,0.292861341964,1,0.0,0.0,0.38657367959,0.324531763875,0.0840764434785,0.408608207353,0.240455320396,51.1411106169,55.0,1.0,-0.0599996532909,-1.0,26.9057643831,1.13377122348,93.2389891259,510.809529254,511.102390596,511.3095609,512.634727724,513.776538398
0,344,1737,6,1,121,85,1.0,-0.310732805591,-0.229640808446,1,1.0,1.0,0.429247190244,0,0.0,0.0,0.394488542806,0.324439698695,0.083971463232,0.408411161927,0.240468235463,nan,nan,0.0,0.0,0.0,nan,nan,93.2389891259,514.985064623,515.414311813,515.485092848,nan,nan
0,345,1738,6,1,475,333,0.539218753276,0.343659807328,-1.0,1,1.0,1.0,0.509079199284,0,0.0,0.0,0.410395910498,0.324743488525,0.0840387739026,0.408782262428,0.240704714623,nan,nan,0.0,0.0,0.0,nan,nan,93.2389891259,515.985196623,516.494275822,516.485267327,nan,nan
0,346,1739,6,1,132,92,1.0,-0.307426825298,-0.115555361894,1,1.0,1.0,0.380947479978,0,0.0,1.0,0.439757956502,0.325276250695,0.084498679766,0.409774930461,0.240777570929,nan,nan,0.0,0.0,0.0,nan,nan,93.2389891259,516.985325772,517.366273252,517.485368536,nan,nan
0,347,1742,6,1,340,239,-0.166837174664,0.460980112934,0.232376404312,1,1.0,1.0,0.444784692023,1,0.0,0.0,0.444937123762,0.325436686515,0.0844295940739,0.409866280588,0.241007092441,-141.379248168,329.0,-0.136053278316,0.448203788942,0.3278337444,-7.68325183239,0.800404438749,93.2389891259,517.985470316,518.430255008,518.485507664,519.810657667,520.619101271
0,348,1743,6,1,55,38,1.0,-0.0599996532909,-1.0,1,1.0,1.0,0.338561252225,0,0.0,0.0,0.388097808075,0.325779640553,0.0845499014541,0.410329542007,0.241229739099,nan,nan,0.0,0.0,0.0,nan,nan,93.2389891259,521.827622365,522.166183617,522.327658858,nan,nan
0,349,1744,6,0,439,308,0.251144291643,0.426392204401,-1.0,0,0.0,1.0,0.490391945466,0,0.0,0.0,0.424579296572,0.325816264083,0.0844314471144,0.410247711197,0.241384816968,nan,nan,0.0,0.0,0.0,nan,nan,93.2389891259,522.8277843,523.318176246,523.336138783,nan,nan
0,350,1745,6,1,282,198,0.208142307666,0.34807905204,0.609295500931,1,1.0,1.0,0.346255165059,0,0.0,0.0,0.391736120917,0.326286480315,0.0847671321264,0.411053612441,0.241519348189,nan,nan,0.0,0.0,0.0,nan,nan,93.2389891259,523.827878952,524.174134118,524.32791459,nan,nan
0,351,1746,6,1,348,244,-0.175384772129,0.468017843042,0.157582163916,1,1.0,1.0,0.354114434682,0,0.0,0.0,0.396920515069,0.326343371155,0.0846529861998,0.410996357355,0.241690384955,nan,nan,0.0,0.0,0.0,nan,nan,93.2389891259,524.828010667,525.182125102,525.328045164,nan,nan
0,352,1747,6,1,19,13,0.99625917486,0.126374530333,-1.0,1,1.0,1.0,0.281950394157,0,0.0,0.0,0.327439997966,0.326422266222,0.0845455766414,0.410967842863,0.24187668958,nan,nan,0.0,0.0,0.0,nan,nan,93.2389891259,525.828145803,526.110096198,526.328169466,nan,nan
0,353,1748,6,1,219,153,0.871627318206,0.0840881726889,0.576959667802,1,1.0,1.0,0.257812940981,0,0.0,0.0,0.297959256607,0.326296283581,0.0844588194264,0.410755103008,0.241837464155,nan,nan,0.0,0.0,0.0,nan,nan,93.2389891259,526.828269535,527.086082476,527.328303747,nan,nan
0,354,1749,6,0,373,262,-0.135407706169,0.478559568072,-0.0996974893599,0,1.0,0.0,0.289640886243,0,0.0,0.0,0.276468073794,0.326102827811,0.084417727455,0.410520555266,0.241685100356,nan,nan,0.0,0.0,0.0,nan,nan,93.2389891259,527.828423203,528.118064089,528.328460835,nan,nan
0,355,1750,6,1,61,42,1.0,-0.0921163965413,-1.0,1,1.0,1.0,0.209574812092,0,0.0,0.0,0.252342879772,0.326000118117,0.0843208925551,0.410321010672,0.241679225561,nan,nan,0.0,0.0,0.0,nan,nan,93.2389891259,528.828516429,529.038091241,529.328583427,nan,nan
0,356,1751,6,1,189,132,1.0,-0.0802194643608,0.400143472992,1,1.0,1.0,0.249366941862,0,0.0,0.0,0.249527546732,0.32567308074,0.0844275396306,0.410100620371,0.24124554111,nan,nan,0.0,0.0,0.0,nan,nan,93.2389891259,529.828656412,530.078023354,530.328714857,nan,nan
0,357,1752,6,1,361,253,-0.166047812515,0.475607712818,0.0278173107143,1,1.0,1.0,0.273229276761,0,0.0,0.0,0.244057010238,0.325459338054,0.0844056113549,0.409864949409,0.241053726699,nan,nan,0.0,0.0,0.0,nan,nan,93.2389891259,530.828778434,531.10200771,531.328825475,nan,nan
0,358,1753,6,1,425,298,0.149162615564,0.447529597292,-0.791715667876,1,1.0,1.0,0.328992826398,0,0.0,0.0,0.283863015007,0.325313444028,0.0843327083493,0.409646152377,0.240980735679,nan,nan,0.0,0.0,0.0,nan,nan,93.2389891259,531.828986839,532.157979666,532.328959755,nan,nan
0,359,1754,6,0,488,343,0.647907709101,0.302951493728,-1.0,0,0.0,1.0,0.480858016759,0,0.0,0.0,0.36102670664,0.325323693004,0.0842153946826,0.409539087687,0.241108298322,nan,nan,0.0,0.0,0.0,nan,nan,93.2389891259,532.829098883,533.309956899,533.329104585,nan,nan
0,360,1755,6,1,274,192,0.289344050657,0.322900892411,0.632670269059,1,1.0,1.0,0.37675370276,0,0.0,0.0,0.395534848639,0.325755732792,0.0844958129914,0.410251545784,0.241259919801,nan,nan,0.0,0.0,0.0,nan,nan,93.2389891259,533.829177855,534.205931557,534.329230883,nan,nan
0,361,1756,6,0,154,108,1.0,-0.251813147593,0.102138173725,0,0.0,1.0,0.504568964709,0,0.0,0.0,0.454060228076,0.325897001407,0.0844212635717,0.410318264979,0.241475737836,nan,nan,0.0,0.0,0.0,nan,nan,93.2389891259,534.829334658,535.333903622,535.329377137,nan,nan
0,362,1757,6,1,6,4,0.895129075663,0.186272780825,-1.0,1,1.0,1.0,0.352476837113,0,0.0,0.0,0.411266501527,0.326390570367,0.0848245563575,0.411215126724,0.241566014009,nan,nan,0.0,0.0,0.0,nan,nan,93.2389891259,535.829433016,536.181909854,536.3294735,nan,nan
0,363,1758,6,1,111,78,1.0,-0.298677811705,-0.336106236365,1,1.0,1.0,0.28830492124,0,0.0,0.0,0.381783574354,0.32646243336,0.0847186716834,0.411181105044,0.241743761677,nan,nan,0.0,0.0,0.0,nan,nan,93.2389891259,536.829563306,537.117868227,537.329603219,nan,nan
0,364,1759,6,1,352,247,-0.17544712699,0.470851603012,0.118673592819,1,1.0,1.0,0.360134257935,0,0.0,0.0,0.333638672096,0.32635760503,0.0846257915896,0.41098339662,0.241731813441,nan,nan,0.0,0.0,0.0,nan,nan,93.2389891259,537.829698157,538.189832415,538.329727522,nan,nan
0,365,1800,6,0,502,352,0.764740937618,0.25241357569,-1.0,0,0.0,1.0,0.391997840255,0,0.0,0.0,0.34681233981,0.326450143806,0.0845282264896,0.410978370295,0.241921917316,nan,nan,0.0,0.0,0.0,nan,nan,93.2389891259,538.829846122,539.221843962,539.329880903,nan,nan
0,366,1801,6,1,78,54,1.0,-0.179467652321,-0.739907630878,1,1.0,1.0,0.26387353288,0,0.0,0.0,0.33866854369,0.326629235872,0.0844819871715,0.411111223044,0.242147248701,nan,nan,0.0,0.0,0.0,nan,nan,93.2389891259,539.82995902,540.093832553,540.329988671,nan,nan
0,367,1802,6,1,123,86,1.0,-0.311441137266,-0.208672863777,1,1.0,1.0,0.303728099912,0,0.0,0.0,0.319866491016,0.326458239406,0.0844302107771,0.410888450183,0.242028028629,nan,nan,0.0,0.0,0.0,nan,nan,93.2389891259,540.830086458,541.133814558,541.330109267,nan,nan
0,368,1803,6,1,387,272,-0.0787219327085,0.477231755363,-0.256974454483,1,1.0,1.0,0.3675590395,0,0.0,0.0,0.311720224097,0.326396472723,0.0843237204202,0.410720193143,0.242072752303,nan,nan,0.0,0.0,0.0,nan,nan,93.2389891259,541.830204774,542.197763813,542.330243547,nan,nan
0,369,1804,6,1,248,174,0.568115903494,0.223728204869,0.653295769881,1,1.0,1.0,0.303408220876,0,0.0,0.0,0.324898453429,0.326508024394,0.0842365687498,0.410744593144,0.242271455645,nan,nan,0.0,0.0,0.0,nan,nan,93.2389891259,542.830345327,543.133753547,543.330376402,nan,nan
0,370,1805,6,1,379,266,-0.113535935895,0.478614986251,-0.165970515924,1,1.0,1.0,0.287257189862,0,0.0,0.0,0.319408150079,0.326445592493,0.0841312067257,0.410576799219,0.242314385767,nan,nan,0.0,0.0,0.0,nan,nan,93.2389891259,543.830474476,544.117731666,544.330509258,nan,nan
0,371,1806,6,1,197,138,1.0,-0.035797595552,0.455774741445,1,1.0,1.0,0.271092759911,0,0.0,0.0,0.28725272355,0.326339963375,0.0840423101498,0.410382273525,0.242297653226,nan,nan,0.0,0.0,0.0,nan,nan,93.2389891259,544.83060505,545.10169781,545.330627858,nan,nan
0,372,1807,6,1,0,0,0.846831709088,0.212097570855,-1.0,1,1.0,1.0,0.382967392448,0,0.0,0.0,0.313772447407,0.326191449388,0.0839780088288,0.410169458216,0.242213440559,nan,nan,0.0,0.0,0.0,nan,nan,93.2389891259,545.830731633,546.213699026,546.330758432,nan,nan
0,373,1808,6,1,170,119,1.0,-0.180990482069,0.247815061387,1,1.0,1.0,0.270811939146,0,0.0,0.0,0.308290697169,0.326343663712,0.0839167320799,0.410260395792,0.242426931632,nan,nan,0.0,0.0,0.0,nan,nan,93.2389891259,546.830852229,547.101664168,547.330889862,nan,nan
0,374,1809,6,1,429,301,0.177531820842,0.442080780324,-0.901885199234,1,1.0,1.0,0.270690773148,0,0.0,0.0,0.308156701581,0.326195183165,0.0838535171141,0.410048700279,0.242341666051,nan,nan,0.0,0.0,0.0,nan,nan,93.2389891259,547.830979668,548.101670441,548.331030985,nan,nan
0,375,1810,6,1,312,219,-0.0464483572634,0.420925197877,0.455573212045,1,1.0,1.0,0.246481760405,0,0.0,0.0,0.2626614909,0.326047171405,0.0837905442007,0.409837715606,0.242256627204,nan,nan,0.0,0.0,0.0,nan,nan,93.2389891259,548.831117655,549.077599415,549.33114759,nan,nan
0,376,1811,6,1,164,115,1.0,-0.209685835145,0.194761549991,1,1.0,1.0,0.294354679994,0,0.0,0.0,0.270509071182,0.32583556127,0.0837793224998,0.409614883769,0.24205623877,nan,nan,0.0,0.0,0.0,nan,nan,93.2389891259,549.831245948,550.125600628,550.331283296,nan,nan
0,377,1812,6,1,433,304,0.206536295144,0.436163724167,-1.0,1,1.0,1.0,0.310216337442,0,0.0,0.0,0.283684259281,0.325752057606,0.0836838019218,0.409435859528,0.242068255684,nan,nan,0.0,0.0,0.0,nan,nan,93.2389891259,550.831371391,551.141587728,551.33141387,nan,nan
0,378,1813,6,1,510,358,0.830554458933,0.220436700166,-1.0,1,1.0,1.0,0.270048164297,0,0.0,0.0,0.291539727245,0.325710957817,0.0835768456633,0.40928780348,0.242134112154,nan,nan,0.0,0.0,0.0,nan,nan,93.2389891259,551.831508237,552.101556402,552.331547581,nan,nan
0,379,1814,6,1,382,268,-0.1011887567,0.478291136399,-0.199732273247,1,1.0,1.0,0.437902450096,0,0.0,0.0,0.339388983945,0.325564090288,0.0835153417258,0.409079432014,0.242048748562,nan,nan,0.0,0.0,0.0,nan,nan,93.2389891259,552.831643088,553.269545538,553.331662475,nan,nan
0,380,1815,6,1,75,52,1.0,-0.164714458691,-0.791355921409,1,1.0,1.0,0.717384189367,0,0.0,1.0,0.475111601253,0.32585971755,0.0836037105676,0.409463428118,0.242256006983,nan,nan,0.0,0.0,0.0,nan,nan,93.2389891259,553.840107333,554.557491523,554.340173191,nan,nan
0,381,1821,6,1,123,86,1.0,-0.311441137266,-0.208672863777,1,1.0,1.0,0.580956717487,1,0.0,0.0,0.57874778565,0.326887340836,0.0858633723991,0.412750713235,0.241023968437,11.1582229093,112.0,1.0,-0.300501516081,-0.325324861792,-7.64259790929,2.47563703498,93.2389891259,554.848556468,555.429513186,555.348638576,556.673767483,559.157426008
0,382,1822,6,1,201,141,1.0,-0.0135712615467,0.48142235136,1,1.0,1.0,0.383108515292,0,0.0,0.0,0.560483140716,0.327552443916,0.0867280744363,0.414280518353,0.24082436948,nan,nan,0.0,0.0,0.0,nan,nan,93.2389891259,560.374291035,560.757399551,560.874316409,nan,nan
0,383,1823,6,0,287,201,0.159501648714,0.36255249221,0.590751920292,0,0.0,1.0,0.390933287796,0,0.0,0.0,0.451666173525,0.327697498933,0.0866611647981,0.414358663731,0.241036334135,nan,nan,0.0,0.0,0.0,nan,nan,93.2389891259,561.374442422,561.76537571,561.874472072,nan,nan
0,384,1824,6,1,480,337,0.580928072941,0.32870764083,-1.0,1,1.0,1.0,0.374817609321,0,0.0,0.0,0.38295313747,0.327862175466,0.0866082335261,0.414470408993,0.24125394194,nan,nan,0.0,0.0,0.0,nan,nan,93.2389891259,562.374530232,562.749347841,562.874579553,nan,nan
0,385,1825,6,1,245,172,0.600577697281,0.210610106048,0.650172825369,1,1.0,1.0,0.342646407429,0,0.0,0.0,0.369465768182,0.327984137632,0.0865286943467,0.414512831979,0.241455443286,nan,nan,0.0,0.0,0.0,nan,nan,93.2389891259,563.374677912,563.717324319,563.874702715,nan,nan
0,386,1826,6,1,415,291,0.0813077335083,0.459153678902,-0.614968023274,1,0.0,0.0,0.406506997067,0,0.0,0.0,0.374657004606,0.328022122787,0.0864197519156,0.414441874703,0.241602370872,nan,nan,0.0,0.0,0.0,nan,nan,93.2389891259,564.374797367,564.781304365,564.874832435,nan,nan
