block,trial,freq_trials,correct_response,actual_response,acc,rts,probe_trials,trials_colorind0,trials_colorind1,trials_colorind2,trials_colorind3,trials_colorind4,trials_colorind5,wholereport_resp0,wholereport_resp1,wholereport_resp2,wholereport_resp3,wholereport_resp4,wholereport_resp5,wholereport_respacc0,wholereport_respacc1,wholereport_respacc2,wholereport_respacc3,wholereport_respacc4,wholereport_respacc5,wholereport_respacc_total,wholereport_respcolorind0,wholereport_respcolorind1,wholereport_respcolorind2,wholereport_respcolorind3,wholereport_respcolorind4,wholereport_respcolorind5,wholereport_resporder0,wholereport_resporder1,wholereport_resporder2,wholereport_resporder3,wholereport_resporder4,wholereport_resporder5,wholereport_rts0,wholereport_rts1,wholereport_rts2,wholereport_rts3,wholereport_rts4,wholereport_rts5,time_blockstart,time_encarray_offset,time_encarray_onset,time_response,time_iti_offset,time_iti_onset,time_memprobe_offset,time_memprobe_onset
1,1,1,1,nan,nan,nan,0.0,5,0,7,2,1,4,nan,nan,nan,nan,nan,nan,nan,nan,nan,nan,nan,nan,0.0,nan,nan,nan,nan,nan,nan,nan,nan,nan,nan,nan,nan,nan,nan,nan,nan,nan,nan,205.24045419250615,206.2664541178383,nan,nan,nan,nan,nan,nan
1,2,0,0,1.0,0.0,0.2694975205231458,1.0,8,6,2,1,0,7,1.0,1.0,1.0,1.0,1.0,1.0,0.0,0.0,0.0,0.0,0.0,0.0,0.0,5.0,5.0,5.0,5.0,5.0,5.0,4.0,3.0,2.0,1.0,6.0,5.0,11.768524914747104,10.777043876470998,10.032798616215587,9.128702438436449,13.152415321441367,12.480745309963822,205.24045419250615,207.27497165440582,208.08333706343547,207.54446917492896,222.29342536628246,223.29488021251746,209.1001232471317,222.2850934274029
1,3,1,1,1.0,1.0,0.48214826895855367,0.0,1,2,5,3,7,6,nan,nan,nan,nan,nan,nan,nan,nan,nan,nan,nan,nan,0.0,nan,nan,nan,nan,nan,nan,nan,nan,nan,nan,nan,nan,nan,nan,nan,nan,nan,nan,205.24045419250615,223.5019390822854,nan,223.98408735124394,nan,nan,nan,nan
1,4,1,1,1.0,1.0,0.4176592056173831,0.0,6,0,8,1,4,7,nan,nan,nan,nan,nan,nan,nan,nan,nan,nan,nan,nan,0.0,nan,nan,nan,nan,nan,nan,nan,nan,nan,nan,nan,nan,nan,nan,nan,nan,nan,nan,205.24045419250615,224.51037337072194,nan,224.92803257633932,nan,nan,nan,nan
1,5,1,1,1.0,1.0,0.4811504320241511,0.0,4,8,1,3,5,6,nan,nan,nan,nan,nan,nan,nan,nan,nan,nan,nan,nan,0.0,nan,nan,nan,nan,nan,nan,nan,nan,nan,nan,nan,nan,nan,nan,nan,nan,nan,nan,205.24045419250615,225.51882162853144,nan,225.9999720605556,nan,nan,nan,nan
1,6,1,1,1.0,1.0,0.7606759292539209,0.0,0,2,5,7,6,8,nan,nan,nan,nan,nan,nan,nan,nan,nan,nan,nan,nan,0.0,nan,nan,nan,nan,nan,nan,nan,nan,nan,nan,nan,nan,nan,nan,nan,nan,nan,nan,205.24045419250615,226.52727701398544,nan,227.28795294323936,nan,nan,nan,nan
1,7,1,1,1.0,1.0,0.6962045417167246,0.0,2,7,3,4,0,5,nan,nan,nan,nan,nan,nan,nan,nan,nan,nan,nan,nan,0.0,nan,nan,nan,nan,nan,nan,nan,nan,nan,nan,nan,nan,nan,nan,nan,nan,nan,nan,205.24045419250615,227.53573097405024,nan,228.23193551576696,nan,nan,nan,nan
1,8,1,1,1.0,1.0,0.5437150951474905,0.0,7,3,4,6,5,8,nan,nan,nan,nan,nan,nan,nan,nan,nan,nan,nan,nan,0.0,nan,nan,nan,nan,nan,nan,nan,nan,nan,nan,nan,nan,nan,nan,nan,nan,nan,nan,205.24045419250615,228.5442302643787,nan,229.0879453595262,nan,nan,nan,nan
1,9,1,1,1.0,1.0,0.4872400884050876,0.0,4,1,8,3,7,2,nan,nan,nan,nan,nan,nan,nan,nan,nan,nan,nan,nan,0.0,nan,nan,nan,nan,nan,nan,nan,nan,nan,nan,nan,nan,nan,nan,nan,nan,nan,nan,205.24045419250615,229.5526907814201,nan,230.03993086982518,nan,nan,nan,nan
1,10,1,1,1.0,1.0,0.4467495745047927,0.0,5,3,1,7,4,0,nan,nan,nan,nan,nan,nan,nan,nan,nan,nan,nan,nan,0.0,nan,nan,nan,nan,nan,nan,nan,nan,nan,nan,nan,nan,nan,nan,nan,nan,nan,nan,205.24045419250615,230.56114303087816,nan,231.00789260538295,nan,nan,nan,nan
1,11,1,1,1.0,1.0,0.43828135961666703,0.0,2,7,6,4,0,1,nan,nan,nan,nan,nan,nan,nan,nan,nan,nan,nan,nan,0.0,nan,nan,nan,nan,nan,nan,nan,nan,nan,nan,nan,nan,nan,nan,nan,nan,nan,nan,205.24045419250615,231.5695622090716,nan,232.00784356868826,nan,nan,nan,nan
1,12,1,1,1.0,1.0,0.42181704961694777,0.0,7,6,2,8,1,3,nan,nan,nan,nan,nan,nan,nan,nan,nan,nan,nan,nan,0.0,nan,nan,nan,nan,nan,nan,nan,nan,nan,nan,nan,nan,nan,nan,nan,nan,nan,nan,205.24045419250615,232.57802130072378,nan,232.99983835034072,nan,nan,nan,nan
1,13,1,1,1.0,1.0,0.48532652226276696,0.0,1,8,7,0,6,2,nan,nan,nan,nan,nan,nan,nan,nan,nan,nan,nan,nan,0.0,nan,nan,nan,nan,nan,nan,nan,nan,nan,nan,nan,nan,nan,nan,nan,nan,nan,nan,205.24045419250615,233.58647697116248,nan,234.07180349342525,nan,nan,nan,nan
1,14,1,1,1.0,1.0,0.6768445088528097,0.0,5,6,4,3,0,7,nan,nan,nan,nan,nan,nan,nan,nan,nan,nan,nan,nan,0.0,nan,nan,nan,nan,nan,nan,nan,nan,nan,nan,nan,nan,nan,nan,nan,nan,nan,nan,205.24045419250615,234.59493378200568,nan,235.2717782908585,nan,nan,nan,nan
1,15,1,1,1.0,1.0,0.6843904370907694,0.0,4,2,8,0,7,6,nan,nan,nan,nan,nan,nan,nan,nan,nan,nan,nan,nan,0.0,nan,nan,nan,nan,nan,nan,nan,nan,nan,nan,nan,nan,nan,nan,nan,nan,nan,nan,205.24045419250615,235.6033851762768,nan,236.28777561336756,nan,nan,nan,nan
1,16,1,1,1.0,1.0,0.6198782809078693,0.0,5,7,0,8,6,3,nan,nan,nan,nan,nan,nan,nan,nan,nan,nan,nan,nan,0.0,nan,nan,nan,nan,nan,nan,nan,nan,nan,nan,nan,nan,nan,nan,nan,nan,nan,nan,205.24045419250615,236.61185139534064,nan,237.2317296762485,nan,nan,nan,nan
1,17,1,1,1.0,1.0,0.627401401521638,0.0,2,6,3,4,5,7,nan,nan,nan,nan,nan,nan,nan,nan,nan,nan,nan,nan,0.0,nan,nan,nan,nan,nan,nan,nan,nan,nan,nan,nan,nan,nan,nan,nan,nan,nan,nan,205.24045419250615,237.62030335958116,nan,238.2477047611028,nan,nan,nan,nan
1,18,0,0,0.0,1.0,0.5709209779743105,1.0,7,2,8,3,0,6,1.0,1.0,1.0,1.0,1.0,1.0,1.0,1.0,1.0,0.0,0.0,1.0,4.0,7.0,2.0,8.0,0.0,6.0,6.0,6.0,2.0,1.0,3.0,4.0,5.0,9.765696189366281,2.085686826845631,1.1021246230229735,4.542393103940412,7.438351208344102,9.06990674789995,205.24045419250615,238.6287989434786,239.43719970458187,239.19971992145292,250.25516459043138,251.26507596252486,240.45400784071535,250.24684462556615
1,19,1,1,1.0,1.0,0.599405802320689,0.0,5,4,3,6,8,1,nan,nan,nan,nan,nan,nan,nan,nan,nan,nan,nan,nan,0.0,nan,nan,nan,nan,nan,nan,nan,nan,nan,nan,nan,nan,nan,nan,nan,nan,nan,nan,205.24045419250615,251.4720159471035,nan,252.0714217494242,nan,nan,nan,nan
1,20,1,1,1.0,1.0,0.45492813154123724,0.0,3,5,2,8,4,6,nan,nan,nan,nan,nan,nan,nan,nan,nan,nan,nan,nan,0.0,nan,nan,nan,nan,nan,nan,nan,nan,nan,nan,nan,nan,nan,nan,nan,nan,nan,nan,205.24045419250615,252.48046078393236,nan,252.9353889154736,nan,nan,nan,nan
1,21,1,1,1.0,1.0,0.398436589166522,0.0,5,0,1,4,7,2,nan,nan,nan,nan,nan,nan,nan,nan,nan,nan,nan,nan,0.0,nan,nan,nan,nan,nan,nan,nan,nan,nan,nan,nan,nan,nan,nan,nan,nan,nan,nan,205.24045419250615,253.4889193053823,nan,253.88735589454882,nan,nan,nan,nan
1,22,1,1,1.0,1.0,0.3339857286773622,0.0,7,3,6,8,5,0,nan,nan,nan,nan,nan,nan,nan,nan,nan,nan,nan,nan,0.0,nan,nan,nan,nan,nan,nan,nan,nan,nan,nan,nan,nan,nan,nan,nan,nan,nan,nan,205.24045419250615,254.49737526103854,nan,254.8313609897159,nan,nan,nan,nan
1,23,1,1,1.0,1.0,0.37345930421724916,0.0,2,0,3,1,7,5,nan,nan,nan,nan,nan,nan,nan,nan,nan,nan,nan,nan,0.0,nan,nan,nan,nan,nan,nan,nan,nan,nan,nan,nan,nan,nan,nan,nan,nan,nan,nan,205.24045419250615,255.5058694195468,nan,255.87932872376405,nan,nan,nan,nan
1,24,1,1,1.0,1.0,0.42100481037050486,0.0,3,7,4,8,6,1,nan,nan,nan,nan,nan,nan,nan,nan,nan,nan,nan,nan,0.0,nan,nan,nan,nan,nan,nan,nan,nan,nan,nan,nan,nan,nan,nan,nan,nan,nan,nan,205.24045419250615,256.51431397139095,nan,256.93531878176145,nan,nan,nan,nan
1,25,1,1,1.0,1.0,0.3804951950442046,0.0,6,3,8,1,0,2,nan,nan,nan,nan,nan,nan,nan,nan,nan,nan,nan,nan,0.0,nan,nan,nan,nan,nan,nan,nan,nan,nan,nan,nan,nan,nan,nan,nan,nan,nan,nan,205.24045419250615,257.5227813308593,nan,257.9032765259035,nan,nan,nan,nan
1,26,1,1,1.0,1.0,0.4200303512625396,0.0,3,8,1,2,4,7,nan,nan,nan,nan,nan,nan,nan,nan,nan,nan,nan,nan,0.0,nan,nan,nan,nan,nan,nan,nan,nan,nan,nan,nan,nan,nan,nan,nan,nan,nan,nan,205.24045419250615,258.5312378567178,nan,258.9512682079803,nan,nan,nan,nan
1,27,1,1,1.0,1.0,0.3875345073174685,0.0,8,6,5,7,3,4,nan,nan,nan,nan,nan,nan,nan,nan,nan,nan,nan,nan,0.0,nan,nan,nan,nan,nan,nan,nan,nan,nan,nan,nan,nan,nan,nan,nan,nan,nan,nan,205.24045419250615,259.5396997993812,nan,259.92723430669867,nan,nan,nan,nan
1,28,1,1,1.0,1.0,0.41906415997073054,0.0,1,7,3,4,0,5,nan,nan,nan,nan,nan,nan,nan,nan,nan,nan,nan,nan,0.0,nan,nan,nan,nan,nan,nan,nan,nan,nan,nan,nan,nan,nan,nan,nan,nan,nan,nan,205.24045419250615,260.5481429256033,nan,260.96720708557405,nan,nan,nan,nan
1,29,1,1,1.0,1.0,0.32259613228961825,0.0,7,5,2,6,1,4,nan,nan,nan,nan,nan,nan,nan,nan,nan,nan,nan,nan,0.0,nan,nan,nan,nan,nan,nan,nan,nan,nan,nan,nan,nan,nan,nan,nan,nan,nan,nan,205.24045419250615,261.5565755034331,nan,261.87917163572274,nan,nan,nan,nan
1,30,1,1,1.0,1.0,0.442125883186236,0.0,4,6,5,3,7,8,nan,nan,nan,nan,nan,nan,nan,nan,nan,nan,nan,nan,0.0,nan,nan,nan,nan,nan,nan,nan,nan,nan,nan,nan,nan,nan,nan,nan,nan,nan,nan,205.24045419250615,262.56502775265835,nan,263.0071536358446,nan,nan,nan,nan
1,31,1,1,1.0,1.0,0.3536311429925263,0.0,8,4,3,2,6,5,nan,nan,nan,nan,nan,nan,nan,nan,nan,nan,nan,nan,0.0,nan,nan,nan,nan,nan,nan,nan,nan,nan,nan,nan,nan,nan,nan,nan,nan,nan,nan,205.24045419250615,263.5734874145128,nan,263.9271185575053,nan,nan,nan,nan
1,32,1,1,1.0,1.0,0.32916959724389017,0.0,1,5,8,4,7,3,nan,nan,nan,nan,nan,nan,nan,nan,nan,nan,nan,nan,0.0,nan,nan,nan,nan,nan,nan,nan,nan,nan,nan,nan,nan,nan,nan,nan,nan,nan,nan,205.24045419250615,264.5819416595623,nan,264.9111112568062,nan,nan,nan,nan
1,33,1,1,1.0,1.0,0.4086752515286207,0.0,2,0,5,1,6,7,nan,nan,nan,nan,nan,nan,nan,nan,nan,nan,nan,nan,0.0,nan,nan,nan,nan,nan,nan,nan,nan,nan,nan,nan,nan,nan,nan,nan,nan,nan,nan,205.24045419250615,265.5903998960275,nan,265.99907514755614,nan,nan,nan,nan
1,34,0,0,0.0,1.0,0.5681883299257606,0.0,5,4,6,0,1,3,nan,nan,nan,nan,nan,nan,nan,nan,nan,nan,nan,nan,0.0,nan,nan,nan,nan,nan,nan,nan,nan,nan,nan,nan,nan,nan,nan,nan,nan,nan,nan,205.24045419250615,266.598856421886,nan,267.1670447518118,nan,nan,nan,nan
1,35,1,1,1.0,1.0,0.6877098130062222,0.0,0,3,7,4,5,1,nan,nan,nan,nan,nan,nan,nan,nan,nan,nan,nan,nan,0.0,nan,nan,nan,nan,nan,nan,nan,nan,nan,nan,nan,nan,nan,nan,nan,nan,nan,nan,205.24045419250615,267.6073386063799,nan,268.29504841938615,nan,nan,nan,nan
1,36,1,1,1.0,1.0,0.5912201178725809,0.0,7,8,6,1,4,3,nan,nan,nan,nan,nan,nan,nan,nan,nan,nan,nan,nan,0.0,nan,nan,nan,nan,nan,nan,nan,nan,nan,nan,nan,nan,nan,nan,nan,nan,nan,nan,205.24045419250615,268.61580739123747,nan,269.20702750911005,nan,nan,nan,nan
1,37,1,1,1.0,1.0,0.6307393088936806,0.0,3,5,8,2,7,1,nan,nan,nan,nan,nan,nan,nan,nan,nan,nan,nan,nan,0.0,nan,nan,nan,nan,nan,nan,nan,nan,nan,nan,nan,nan,nan,nan,nan,nan,nan,nan,205.24045419250615,269.624240254052,nan,270.25497956294566,nan,nan,nan,nan
1,38,1,1,1.0,1.0,0.5822683798614889,0.0,7,3,4,5,2,0,nan,nan,nan,nan,nan,nan,nan,nan,nan,nan,nan,nan,0.0,nan,nan,nan,nan,nan,nan,nan,nan,nan,nan,nan,nan,nan,nan,nan,nan,nan,nan,205.24045419250615,270.6326859463006,nan,271.2149543261621,nan,nan,nan,nan
1,39,0,0,nan,nan,nan,1.0,4,6,7,8,5,3,1.0,1.0,1.0,1.0,1.0,1.0,0.0,1.0,1.0,1.0,0.0,0.0,3.0,0.0,6.0,7.0,8.0,1.0,2.0,6.0,2.0,1.0,3.0,4.0,5.0,5.145024485420436,2.153389495331794,1.3557667990680784,2.92085755802691,3.818261385895312,4.537551028653979,205.24045419250615,271.64116328395903,272.4495765892789,nan,278.6419746680185,279.6407918035984,273.45804024254903,278.633639593143
1,40,1,1,1.0,1.0,0.3806012507993728,0.0,1,2,4,6,3,8,nan,nan,nan,nan,nan,nan,nan,nan,nan,nan,nan,nan,0.0,nan,nan,nan,nan,nan,nan,nan,nan,nan,nan,nan,nan,nan,nan,nan,nan,nan,nan,205.24045419250615,279.8421709854156,nan,280.22277223621495,nan,nan,nan,nan
1,41,0,0,0.0,1.0,0.6520933050196618,1.0,6,4,7,2,8,5,1.0,1.0,1.0,1.0,1.0,1.0,0.0,1.0,1.0,0.0,0.0,1.0,3.0,8.0,4.0,7.0,5.0,0.0,5.0,4.0,2.0,1.0,3.0,5.0,6.0,4.384072583168745,2.5214428037870675,1.6569199850782752,3.6473530093207955,5.039526033215225,5.718961211852729,205.24045419250615,280.8506383448839,281.6590385355521,281.5027316499036,288.4348641957622,289.4373690516222,282.675854654517,288.4265339677222
1,42,1,1,1.0,1.0,0.6191564172040671,0.0,8,5,1,0,4,6,nan,nan,nan,nan,nan,nan,nan,nan,nan,nan,nan,nan,0.0,nan,nan,nan,nan,nan,nan,nan,nan,nan,nan,nan,nan,nan,nan,nan,nan,nan,nan,205.24045419250615,289.64338532439433,nan,290.2625417415984,nan,nan,nan,nan
1,43,1,1,1.0,1.0,0.4826774075627327,0.0,6,0,8,1,7,4,nan,nan,nan,nan,nan,nan,nan,nan,nan,nan,nan,nan,0.0,nan,nan,nan,nan,nan,nan,nan,nan,nan,nan,nan,nan,nan,nan,nan,nan,nan,nan,205.24045419250615,290.65184470126405,nan,291.1345221088268,nan,nan,nan,nan
1,44,1,1,1.0,1.0,0.4661851581186056,0.0,1,7,2,8,5,3,nan,nan,nan,nan,nan,nan,nan,nan,nan,nan,nan,nan,0.0,nan,nan,nan,nan,nan,nan,nan,nan,nan,nan,nan,nan,nan,nan,nan,nan,nan,nan,205.24045419250615,291.660298661096,nan,292.1264838192146,nan,nan,nan,nan
1,45,1,1,1.0,1.0,0.4257091840263456,0.0,7,6,8,0,4,2,nan,nan,nan,nan,nan,nan,nan,nan,nan,nan,nan,nan,0.0,nan,nan,nan,nan,nan,nan,nan,nan,nan,nan,nan,nan,nan,nan,nan,nan,nan,nan,205.24045419250615,292.66876345477067,nan,293.094472638797,nan,nan,nan,nan
1,46,0,0,0.0,1.0,0.4492230697069317,0.0,2,5,3,4,6,8,nan,nan,nan,nan,nan,nan,nan,nan,nan,nan,nan,nan,0.0,nan,nan,nan,nan,nan,nan,nan,nan,nan,nan,nan,nan,nan,nan,nan,nan,nan,nan,205.24045419250615,293.6772151340265,nan,294.1264382037334,nan,nan,nan,nan
1,47,1,1,1.0,1.0,0.5207212250679731,0.0,4,6,7,0,2,5,nan,nan,nan,nan,nan,nan,nan,nan,nan,nan,nan,nan,0.0,nan,nan,nan,nan,nan,nan,nan,nan,nan,nan,nan,nan,nan,nan,nan,nan,nan,nan,205.24045419250615,294.68569931411184,nan,295.2064205391798,nan,nan,nan,nan
1,48,1,1,1.0,1.0,0.5362635338678956,0.0,7,8,0,4,3,1,nan,nan,nan,nan,nan,nan,nan,nan,nan,nan,nan,nan,0.0,nan,nan,nan,nan,nan,nan,nan,nan,nan,nan,nan,nan,nan,nan,nan,nan,nan,nan,205.24045419250615,295.6941213433165,nan,296.2303848771844,nan,nan,nan,nan
1,49,1,1,1.0,1.0,0.4797930885106325,0.0,1,5,2,7,0,4,nan,nan,nan,nan,nan,nan,nan,nan,nan,nan,nan,nan,0.0,nan,nan,nan,nan,nan,nan,nan,nan,nan,nan,nan,nan,nan,nan,nan,nan,nan,nan,205.24045419250615,296.70258243056014,nan,297.1823755190708,nan,nan,nan,nan
1,50,0,0,0.0,1.0,0.7272965717129409,0.0,2,0,3,6,4,1,nan,nan,nan,nan,nan,nan,nan,nan,nan,nan,nan,nan,0.0,nan,nan,nan,nan,nan,nan,nan,nan,nan,nan,nan,nan,nan,nan,nan,nan,nan,nan,205.24045419250615,297.7110406670254,nan,298.4383372387383,nan,nan,nan,nan
1,51,1,1,1.0,1.0,0.374834323534742,0.0,5,2,0,8,3,7,nan,nan,nan,nan,nan,nan,nan,nan,nan,nan,nan,nan,0.0,nan,nan,nan,nan,nan,nan,nan,nan,nan,nan,nan,nan,nan,nan,nan,nan,nan,nan,205.24045419250615,298.71950004366226,nan,299.094334367197,nan,nan,nan,nan
1,52,1,1,1.0,1.0,0.39834592840634286,0.0,3,4,1,6,2,5,nan,nan,nan,nan,nan,nan,nan,nan,nan,nan,nan,nan,0.0,nan,nan,nan,nan,nan,nan,nan,nan,nan,nan,nan,nan,nan,nan,nan,nan,nan,nan,205.24045419250615,299.72795656952076,nan,300.1263024979271,nan,nan,nan,nan
1,53,1,1,1.0,1.0,0.40585935581475496,0.0,8,5,2,0,6,4,nan,nan,nan,nan,nan,nan,nan,nan,nan,nan,nan,nan,0.0,nan,nan,nan,nan,nan,nan,nan,nan,nan,nan,nan,nan,nan,nan,nan,nan,nan,nan,205.24045419250615,300.7364173717797,nan,301.14227672759444,nan,nan,nan,nan
1,54,1,1,1.0,1.0,0.44539764802902937,0.0,3,7,5,4,2,0,nan,nan,nan,nan,nan,nan,nan,nan,nan,nan,nan,nan,0.0,nan,nan,nan,nan,nan,nan,nan,nan,nan,nan,nan,nan,nan,nan,nan,nan,nan,nan,205.24045419250615,301.74486734042875,nan,302.1902649884578,nan,nan,nan,nan
1,55,1,1,1.0,1.0,0.4288766039535403,0.0,2,8,0,7,1,4,nan,nan,nan,nan,nan,nan,nan,nan,nan,nan,nan,nan,0.0,nan,nan,nan,nan,nan,nan,nan,nan,nan,nan,nan,nan,nan,nan,nan,nan,nan,nan,205.24045419250615,302.7533284276724,nan,303.1822050316259,nan,nan,nan,nan
1,56,1,1,1.0,1.0,0.35644675395451486,0.0,5,3,7,6,0,2,nan,nan,nan,nan,nan,nan,nan,nan,nan,nan,nan,nan,0.0,nan,nan,nan,nan,nan,nan,nan,nan,nan,nan,nan,nan,nan,nan,nan,nan,nan,nan,205.24045419250615,303.7617421890609,nan,304.1181889430154,nan,nan,nan,nan
1,57,1,1,1.0,1.0,0.36399211175739765,0.0,0,8,3,5,7,1,nan,nan,nan,nan,nan,nan,nan,nan,nan,nan,nan,nan,0.0,nan,nan,nan,nan,nan,nan,nan,nan,nan,nan,nan,nan,nan,nan,nan,nan,nan,nan,205.24045419250615,304.7701995703392,nan,305.13419168209657,nan,nan,nan,nan
1,58,1,1,1.0,1.0,0.36346525396220386,0.0,2,7,8,3,6,5,nan,nan,nan,nan,nan,nan,nan,nan,nan,nan,nan,nan,0.0,nan,nan,nan,nan,nan,nan,nan,nan,nan,nan,nan,nan,nan,nan,nan,nan,nan,nan,205.24045419250615,305.77869372884743,nan,306.14215898280963,nan,nan,nan,nan
1,59,1,1,1.0,1.0,0.29890890792012215,0.0,1,0,4,5,8,3,nan,nan,nan,nan,nan,nan,nan,nan,nan,nan,nan,nan,0.0,nan,nan,nan,nan,nan,nan,nan,nan,nan,nan,nan,nan,nan,nan,nan,nan,nan,nan,205.24045419250615,306.7872010017745,nan,307.08610990969464,nan,nan,nan,nan
1,60,0,0,0.0,1.0,0.7865238981321454,1.0,5,2,3,7,6,1,1.0,1.0,1.0,1.0,1.0,1.0,1.0,1.0,1.0,1.0,1.0,1.0,6.0,5.0,2.0,3.0,7.0,6.0,1.0,3.0,2.0,1.0,4.0,5.0,6.0,2.5576055562123656,1.7332918613683432,1.111978975823149,3.245747575070709,4.101633402053267,5.701773612527177,205.24045419250615,307.7955691476818,308.6039992736187,308.58209304581396,315.363140814472,316.3624012747314,309.62078716792166,315.35480516939424
1,61,1,1,1.0,1.0,0.4102407153695822,0.0,8,6,7,5,0,4,nan,nan,nan,nan,nan,nan,nan,nan,nan,nan,nan,nan,0.0,nan,nan,nan,nan,nan,nan,nan,nan,nan,nan,nan,nan,nan,nan,nan,nan,nan,nan,205.24045419250615,316.57164854346775,nan,316.9818892588373,nan,nan,nan,nan
1,62,1,1,1.0,1.0,0.3138211539480835,0.0,1,0,5,4,7,8,nan,nan,nan,nan,nan,nan,nan,nan,nan,nan,nan,nan,0.0,nan,nan,nan,nan,nan,nan,nan,nan,nan,nan,nan,nan,nan,nan,nan,nan,nan,nan,205.24045419250615,317.58009623130783,nan,317.8939173852559,nan,nan,nan,nan
1,63,1,1,1.0,1.0,0.2573116503190249,0.0,4,6,0,8,5,2,nan,nan,nan,nan,nan,nan,nan,nan,nan,nan,nan,nan,0.0,nan,nan,nan,nan,nan,nan,nan,nan,nan,nan,nan,nan,nan,nan,nan,nan,nan,nan,205.24045419250615,318.58855788898654,nan,318.84586953930557,nan,nan,nan,nan
1,64,1,1,1.0,1.0,0.25677909050136805,0.0,0,1,6,5,3,4,nan,nan,nan,nan,nan,nan,nan,nan,nan,nan,nan,nan,0.0,nan,nan,nan,nan,nan,nan,nan,nan,nan,nan,nan,nan,nan,nan,nan,nan,nan,nan,205.24045419250615,319.59705632389523,nan,319.8538354143966,nan,nan,nan,nan
1,65,1,1,1.0,1.0,0.24831144604831934,0.0,6,3,4,8,1,5,nan,nan,nan,nan,nan,nan,nan,nan,nan,nan,nan,nan,0.0,nan,nan,nan,nan,nan,nan,nan,nan,nan,nan,nan,nan,nan,nan,nan,nan,nan,nan,205.24045419250615,320.605511139147,nan,320.8538225851953,nan,nan,nan,nan
1,66,1,1,1.0,1.0,0.2238248116336763,0.0,2,7,5,0,6,1,nan,nan,nan,nan,nan,nan,nan,nan,nan,nan,nan,nan,0.0,nan,nan,nan,nan,nan,nan,nan,nan,nan,nan,nan,nan,nan,nan,nan,nan,nan,nan,205.24045419250615,321.6139730818104,nan,321.8377978934441,nan,nan,nan,nan
1,67,1,1,1.0,1.0,0.2473369869403541,0.0,4,2,7,3,1,5,nan,nan,nan,nan,nan,nan,nan,nan,nan,nan,nan,nan,0.0,nan,nan,nan,nan,nan,nan,nan,nan,nan,nan,nan,nan,nan,nan,nan,nan,nan,nan,205.24045419250615,322.62242903746665,nan,322.869766024407,nan,nan,nan,nan
1,68,1,1,1.0,1.0,0.27885951241478324,0.0,8,3,6,2,5,7,nan,nan,nan,nan,nan,nan,nan,nan,nan,nan,nan,nan,0.0,nan,nan,nan,nan,nan,nan,nan,nan,nan,nan,nan,nan,nan,nan,nan,nan,nan,nan,205.24045419250615,323.63087843568064,nan,323.9097379480954,nan,nan,nan,nan
1,69,1,1,1.0,1.0,0.29439070215448737,0.0,2,0,3,5,6,1,nan,nan,nan,nan,nan,nan,nan,nan,nan,nan,nan,nan,0.0,nan,nan,nan,nan,nan,nan,nan,nan,nan,nan,nan,nan,nan,nan,nan,nan,nan,nan,205.24045419250615,324.6393369573634,nan,324.9337276595179,nan,nan,nan,nan
1,70,1,1,1.0,1.0,0.3499066452495754,0.0,4,6,8,1,5,7,nan,nan,nan,nan,nan,nan,nan,nan,nan,nan,nan,nan,0.0,nan,nan,nan,nan,nan,nan,nan,nan,nan,nan,nan,nan,nan,nan,nan,nan,nan,nan,205.24045419250615,325.64776126714423,nan,325.9976679123938,nan,nan,nan,nan
1,71,1,1,1.0,1.0,0.3254282786510885,0.0,5,1,7,2,6,3,nan,nan,nan,nan,nan,nan,nan,nan,nan,nan,nan,nan,0.0,nan,nan,nan,nan,nan,nan,nan,nan,nan,nan,nan,nan,nan,nan,nan,nan,nan,nan,205.24045419250615,326.6562135166023,nan,326.9816417952534,nan,nan,nan,nan
1,72,1,1,1.0,1.0,0.3809713057707995,0.0,3,0,5,6,4,1,nan,nan,nan,nan,nan,nan,nan,nan,nan,nan,nan,nan,0.0,nan,nan,nan,nan,nan,nan,nan,nan,nan,nan,nan,nan,nan,nan,nan,nan,nan,nan,205.24045419250615,327.664691994898,nan,328.0456633006688,nan,nan,nan,nan
1,73,1,1,1.0,1.0,0.3564786845818162,0.0,6,7,0,3,1,2,nan,nan,nan,nan,nan,nan,nan,nan,nan,nan,nan,nan,0.0,nan,nan,nan,nan,nan,nan,nan,nan,nan,nan,nan,nan,nan,nan,nan,nan,nan,nan,205.24045419250615,328.67317446437664,nan,329.02965314895846,nan,nan,nan,nan
1,74,1,1,1.0,1.0,0.41198265366256237,0.0,1,5,3,4,2,8,nan,nan,nan,nan,nan,nan,nan,nan,nan,nan,nan,nan,0.0,nan,nan,nan,nan,nan,nan,nan,nan,nan,nan,nan,nan,nan,nan,nan,nan,nan,nan,205.24045419250615,329.681622722419,nan,330.09360537608154,nan,nan,nan,nan
1,75,1,1,1.0,1.0,0.3315033954568207,0.0,7,1,5,3,0,4,nan,nan,nan,nan,nan,nan,nan,nan,nan,nan,nan,nan,0.0,nan,nan,nan,nan,nan,nan,nan,nan,nan,nan,nan,nan,nan,nan,nan,nan,nan,nan,205.24045419250615,330.6900826692581,nan,331.02158606471494,nan,nan,nan,nan
1,76,1,1,1.0,1.0,0.32302947877906263,0.0,2,3,0,5,6,7,nan,nan,nan,nan,nan,nan,nan,nan,nan,nan,nan,nan,0.0,nan,nan,nan,nan,nan,nan,nan,nan,nan,nan,nan,nan,nan,nan,nan,nan,nan,nan,205.24045419250615,331.6985349187162,nan,332.02156439749524,nan,nan,nan,nan
1,77,1,1,1.0,1.0,0.26654192758724093,0.0,1,7,5,4,3,8,nan,nan,nan,nan,nan,nan,nan,nan,nan,nan,nan,nan,0.0,nan,nan,nan,nan,nan,nan,nan,nan,nan,nan,nan,nan,nan,nan,nan,nan,nan,nan,205.24045419250615,332.70699286996387,nan,332.9735347975511,nan,nan,nan,nan
1,78,1,1,1.0,1.0,0.22606167709454894,0.0,4,0,6,7,5,1,nan,nan,nan,nan,nan,nan,nan,nan,nan,nan,nan,nan,0.0,nan,nan,nan,nan,nan,nan,nan,nan,nan,nan,nan,nan,nan,nan,nan,nan,nan,nan,205.24045419250615,333.71545053622685,nan,333.9415122133214,nan,nan,nan,nan
1,79,1,1,1.0,1.0,0.20159186352975667,0.0,1,2,5,8,3,0,nan,nan,nan,nan,nan,nan,nan,nan,nan,nan,nan,nan,0.0,nan,nan,nan,nan,nan,nan,nan,nan,nan,nan,nan,nan,nan,nan,nan,nan,nan,nan,205.24045419250615,334.7239053514786,nan,334.92549721500836,nan,nan,nan,nan
1,80,1,1,1.0,1.0,0.22509491560049355,0.0,5,8,3,2,1,7,nan,nan,nan,nan,nan,nan,nan,nan,nan,nan,nan,nan,0.0,nan,nan,nan,nan,nan,nan,nan,nan,nan,nan,nan,nan,nan,nan,nan,nan,nan,nan,205.24045419250615,335.732369574951,nan,335.9574644905515,nan,nan,nan,nan
1,81,1,1,1.0,1.0,0.23258696077391505,0.0,4,2,0,6,8,1,nan,nan,nan,nan,nan,nan,nan,nan,nan,nan,nan,nan,0.0,nan,nan,nan,nan,nan,nan,nan,nan,nan,nan,nan,nan,nan,nan,nan,nan,nan,nan,205.24045419250615,336.74086230783723,nan,336.97344926861115,nan,nan,nan,nan
1,82,1,1,1.0,1.0,0.1441449634730816,0.0,6,0,5,3,1,4,nan,nan,nan,nan,nan,nan,nan,nan,nan,nan,nan,nan,0.0,nan,nan,nan,nan,nan,nan,nan,nan,nan,nan,nan,nan,nan,nan,nan,nan,nan,nan,205.24045419250615,337.74928234145045,nan,337.89342730492353,nan,nan,nan,nan
1,83,1,1,1.0,1.0,0.23166895075701177,0.0,1,6,4,2,0,5,nan,nan,nan,nan,nan,nan,nan,nan,nan,nan,nan,nan,0.0,nan,nan,nan,nan,nan,nan,nan,nan,nan,nan,nan,nan,nan,nan,nan,nan,nan,nan,205.24045419250615,338.7577345906757,nan,338.9894035414327,nan,nan,nan,nan
1,84,1,1,1.0,1.0,0.23915415350347757,0.0,8,5,2,1,7,4,nan,nan,nan,nan,nan,nan,nan,nan,nan,nan,nan,nan,0.0,nan,nan,nan,nan,nan,nan,nan,nan,nan,nan,nan,nan,nan,nan,nan,nan,nan,nan,205.24045419250615,339.76620451617055,nan,340.005358669674,nan,nan,nan,nan
1,85,1,1,1.0,1.0,0.23871482000686228,0.0,3,6,5,0,2,1,nan,nan,nan,nan,nan,nan,nan,nan,nan,nan,nan,nan,0.0,nan,nan,nan,nan,nan,nan,nan,nan,nan,nan,nan,nan,nan,nan,nan,nan,nan,nan,205.24045419250615,340.7746159967501,nan,341.01333081675693,nan,nan,nan,nan
1,86,1,1,1.0,1.0,0.3502376419492066,0.0,4,7,8,5,1,3,nan,nan,nan,nan,nan,nan,nan,nan,nan,nan,nan,nan,0.0,nan,nan,nan,nan,nan,nan,nan,nan,nan,nan,nan,nan,nan,nan,nan,nan,nan,nan,205.24045419250615,341.7830716671888,nan,342.133309309138,nan,nan,nan,nan
1,87,1,1,1.0,1.0,0.2937626352068037,0.0,2,3,5,6,0,7,nan,nan,nan,nan,nan,nan,nan,nan,nan,nan,nan,nan,0.0,nan,nan,nan,nan,nan,nan,nan,nan,nan,nan,nan,nan,nan,nan,nan,nan,nan,nan,205.24045419250615,342.7915301886387,nan,343.0852928238455,nan,nan,nan,nan
1,88,1,1,1.0,1.0,0.3892778712324798,0.0,1,0,7,2,8,4,nan,nan,nan,nan,nan,nan,nan,nan,nan,nan,nan,nan,0.0,nan,nan,nan,nan,nan,nan,nan,nan,nan,nan,nan,nan,nan,nan,nan,nan,nan,nan,205.24045419250615,343.79997616587207,nan,344.18925403710455,nan,nan,nan,nan
1,89,1,1,1.0,1.0,0.4927923383656889,0.0,8,4,2,5,6,7,nan,nan,nan,nan,nan,nan,nan,nan,nan,nan,nan,nan,0.0,nan,nan,nan,nan,nan,nan,nan,nan,nan,nan,nan,nan,nan,nan,nan,nan,nan,nan,205.24045419250615,344.80843896395527,nan,345.30123130232096,nan,nan,nan,nan
1,90,0,0,0.0,1.0,0.4923113810364157,0.0,1,3,0,6,7,8,nan,nan,nan,nan,nan,nan,nan,nan,nan,nan,nan,nan,0.0,nan,nan,nan,nan,nan,nan,nan,nan,nan,nan,nan,nan,nan,nan,nan,nan,nan,nan,205.24045419250615,345.8168966299854,nan,346.30920801102184,nan,nan,nan,nan
1,91,1,1,1.0,1.0,0.6358599229715765,0.0,5,7,1,8,2,4,nan,nan,nan,nan,nan,nan,nan,nan,nan,nan,nan,nan,0.0,nan,nan,nan,nan,nan,nan,nan,nan,nan,nan,nan,nan,nan,nan,nan,nan,nan,nan,205.24045419250615,346.82535600685515,nan,347.4612159298267,nan,nan,nan,nan
1,92,1,1,1.0,1.0,0.4353314684703946,0.0,7,1,8,2,4,3,nan,nan,nan,nan,nan,nan,nan,nan,nan,nan,nan,nan,0.0,nan,nan,nan,nan,nan,nan,nan,nan,nan,nan,nan,nan,nan,nan,nan,nan,nan,nan,205.24045419250615,347.83382564713247,nan,348.26915711560287,nan,nan,nan,nan
1,93,1,1,1.0,1.0,0.26688461331650615,0.0,8,4,2,6,3,5,nan,nan,nan,nan,nan,nan,nan,nan,nan,nan,nan,nan,0.0,nan,nan,nan,nan,nan,nan,nan,nan,nan,nan,nan,nan,nan,nan,nan,nan,nan,nan,205.24045419250615,348.8422710541636,nan,349.1091556674801,nan,nan,nan,nan
1,94,1,1,1.0,1.0,0.13840055861510336,0.0,6,7,4,8,2,3,nan,nan,nan,nan,nan,nan,nan,nan,nan,nan,nan,nan,0.0,nan,nan,nan,nan,nan,nan,nan,nan,nan,nan,nan,nan,nan,nan,nan,nan,nan,nan,205.24045419250615,349.85073014581576,nan,349.98913070443086,nan,nan,nan,nan
1,95,1,1,1.0,1.0,0.44189837644807994,0.0,7,4,5,2,1,0,nan,nan,nan,nan,nan,nan,nan,nan,nan,nan,nan,nan,0.0,nan,nan,nan,nan,nan,nan,nan,nan,nan,nan,nan,nan,nan,nan,nan,nan,nan,nan,205.24045419250615,350.8591841056477,nan,351.3010824820958,nan,nan,nan,nan
1,96,1,1,1.0,1.0,0.4014494866132736,0.0,0,1,7,8,5,2,nan,nan,nan,nan,nan,nan,nan,nan,nan,nan,nan,nan,0.0,nan,nan,nan,nan,nan,nan,nan,nan,nan,nan,nan,nan,nan,nan,nan,nan,nan,nan,205.24045419250615,351.8676443377044,nan,352.2690938243177,nan,nan,nan,nan
1,97,0,0,nan,nan,nan,1.0,6,8,2,5,3,4,1.0,1.0,1.0,1.0,1.0,1.0,0.0,1.0,0.0,0.0,0.0,0.0,1.0,7.0,8.0,8.0,6.0,6.0,7.0,6.0,2.0,1.0,3.0,4.0,5.0,6.124090435914695,2.1404332949314266,1.0997791360132396,2.8452218007296324,3.7639995815698057,4.412431965349242,205.24045419250615,352.8761005785782,353.68452699808404,nan,360.86038578650914,361.86657095025294,354.7013436872512,360.85206411127
1,98,1,1,1.0,1.0,0.5679559765849262,0.0,2,5,1,6,0,7,nan,nan,nan,nan,nan,nan,nan,nan,nan,nan,nan,nan,0.0,nan,nan,nan,nan,nan,nan,nan,nan,nan,nan,nan,nan,nan,nan,nan,nan,nan,nan,205.24045419250615,362.06890007294714,nan,362.63685604953207,nan,nan,nan,nan
1,99,1,1,1.0,1.0,0.34347430313937366,0.0,1,6,3,2,7,0,nan,nan,nan,nan,nan,nan,nan,nan,nan,nan,nan,nan,0.0,nan,nan,nan,nan,nan,nan,nan,nan,nan,nan,nan,nan,nan,nan,nan,nan,nan,nan,205.24045419250615,363.07736058998853,nan,363.4208348931279,nan,nan,nan,nan
1,100,1,1,1.0,1.0,0.19899064535275102,0.0,6,4,7,1,3,2,nan,nan,nan,nan,nan,nan,nan,nan,nan,nan,nan,nan,0.0,nan,nan,nan,nan,nan,nan,nan,nan,nan,nan,nan,nan,nan,nan,nan,nan,nan,nan,205.24045419250615,364.08580485661514,nan,364.2847955019679,nan,nan,nan,nan
1,101,1,1,1.0,1.0,0.1505359667353332,0.0,4,5,2,7,8,0,nan,nan,nan,nan,nan,nan,nan,nan,nan,nan,nan,nan,0.0,nan,nan,nan,nan,nan,nan,nan,nan,nan,nan,nan,nan,nan,nan,nan,nan,nan,nan,205.24045419250615,365.09425282967277,nan,365.2447887964081,nan,nan,nan,nan
1,102,1,1,1.0,1.0,0.21400096407160163,0.0,3,4,0,1,2,8,nan,nan,nan,nan,nan,nan,nan,nan,nan,nan,nan,nan,0.0,nan,nan,nan,nan,nan,nan,nan,nan,nan,nan,nan,nan,nan,nan,nan,nan,nan,nan,205.24045419250615,366.1027552559972,nan,366.3167562200688,nan,nan,nan,nan
1,103,1,1,1.0,1.0,0.30954955657944083,0.0,4,0,1,8,6,3,nan,nan,nan,nan,nan,nan,nan,nan,nan,nan,nan,nan,0.0,nan,nan,nan,nan,nan,nan,nan,nan,nan,nan,nan,nan,nan,nan,nan,nan,nan,nan,205.24045419250615,367.11117357877083,nan,367.4207231353503,nan,nan,nan,nan
1,104,1,1,1.0,1.0,0.23713054019026458,0.0,6,1,0,3,5,2,nan,nan,nan,nan,nan,nan,nan,nan,nan,nan,nan,nan,0.0,nan,nan,nan,nan,nan,nan,nan,nan,nan,nan,nan,nan,nan,nan,nan,nan,nan,nan,205.24045419250615,368.1196244028397,nan,368.35675494302996,nan,nan,nan,nan
1,105,1,1,1.0,1.0,0.2605990956071764,0.0,5,0,6,4,1,3,nan,nan,nan,nan,nan,nan,nan,nan,nan,nan,nan,nan,0.0,nan,nan,nan,nan,nan,nan,nan,nan,nan,nan,nan,nan,nan,nan,nan,nan,nan,nan,205.24045419250615,369.128090336686,nan,369.3886894322932,nan,nan,nan,nan
1,106,1,1,1.0,1.0,0.23611474223434925,0.0,7,8,5,1,6,2,nan,nan,nan,nan,nan,nan,nan,nan,nan,nan,nan,nan,0.0,nan,nan,nan,nan,nan,nan,nan,nan,nan,nan,nan,nan,nan,nan,nan,nan,nan,nan,205.24045419250615,370.13654515193775,nan,370.3726598941721,nan,nan,nan,nan
1,107,0,0,1.0,0.0,0.20362203428521752,1.0,3,0,2,6,8,5,1.0,1.0,1.0,1.0,1.0,1.0,0.0,0.0,0.0,1.0,0.0,0.0,1.0,7.0,2.0,6.0,6.0,0.0,1.0,4.0,3.0,2.0,1.0,6.0,5.0,6.951500561553985,5.232031878316775,4.232393950689584,2.017250320641324,8.334604387637228,7.742881359765306,205.24045419250615,371.1450048137922,371.95340329408646,371.3486268480774,381.346227762755,382.34893646254204,372.97023167205043,381.33791977213696
1,108,1,1,1.0,1.0,0.7695871833711863,0.0,1,8,6,0,4,7,nan,nan,nan,nan,nan,nan,nan,nan,nan,nan,nan,nan,0.0,nan,nan,nan,nan,nan,nan,nan,nan,nan,nan,nan,nan,nan,nan,nan,nan,nan,nan,205.24045419250615,382.5547508872114,nan,383.3243380705826,nan,nan,nan,nan
1,109,1,1,1.0,1.0,0.529200273565948,0.0,5,4,3,7,6,2,nan,nan,nan,nan,nan,nan,nan,nan,nan,nan,nan,nan,0.0,nan,nan,nan,nan,nan,nan,nan,nan,nan,nan,nan,nan,nan,nan,nan,nan,nan,nan,205.24045419250615,383.5631834648084,nan,384.09238373837434,nan,nan,nan,nan
1,110,0,0,0.0,1.0,0.6406740588136017,1.0,3,5,8,2,1,6,1.0,1.0,1.0,1.0,1.0,1.0,1.0,1.0,1.0,1.0,1.0,0.0,5.0,3.0,5.0,8.0,2.0,1.0,3.0,6.0,2.0,1.0,3.0,4.0,5.0,7.307338064769283,3.1720932368189096,1.867341850651428,3.9483419798780233,5.467753757955506,6.187222155975178,205.24045419250615,384.5716431266628,385.3800572871696,385.2123171854764,393.74774909368716,394.75065479497425,386.4052059149835,393.7394499408547
1,111,1,1,1.0,1.0,0.31186681892722845,0.0,0,6,2,4,5,7,nan,nan,nan,nan,nan,nan,nan,nan,nan,nan,nan,nan,0.0,nan,nan,nan,nan,nan,nan,nan,nan,nan,nan,nan,nan,nan,nan,nan,nan,nan,nan,205.24045419250615,394.95624427846633,nan,395.26811109739356,nan,nan,nan,nan
1,112,1,1,1.0,1.0,0.2713543528225273,0.0,2,5,8,7,0,3,nan,nan,nan,nan,nan,nan,nan,nan,nan,nan,nan,nan,0.0,nan,nan,nan,nan,nan,nan,nan,nan,nan,nan,nan,nan,nan,nan,nan,nan,nan,nan,205.24045419250615,395.96471534413286,nan,396.2360696969554,nan,nan,nan,nan
1,113,1,1,1.0,1.0,0.27090247510932386,0.0,5,2,1,0,6,4,nan,nan,nan,nan,nan,nan,nan,nan,nan,nan,nan,nan,0.0,nan,nan,nan,nan,nan,nan,nan,nan,nan,nan,nan,nan,nan,nan,nan,nan,nan,nan,205.24045419250615,396.9731601809617,nan,397.24406265607104,nan,nan,nan,nan
1,114,0,0,1.0,0.0,0.3743659104220569,0.0,4,8,0,3,1,2,nan,nan,nan,nan,nan,nan,nan,nan,nan,nan,nan,nan,0.0,nan,nan,nan,nan,nan,nan,nan,nan,nan,nan,nan,nan,nan,nan,nan,nan,nan,nan,205.24045419250615,397.98166802409105,nan,398.3560339345131,nan,nan,nan,nan
1,115,1,1,1.0,1.0,0.6698599350638688,0.0,2,6,7,4,5,0,nan,nan,nan,nan,nan,nan,nan,nan,nan,nan,nan,nan,0.0,nan,nan,nan,nan,nan,nan,nan,nan,nan,nan,nan,nan,nan,nan,nan,nan,nan,nan,205.24045419250615,398.99011856294237,nan,399.65997849800624,nan,nan,nan,nan
1,116,1,1,1.0,1.0,0.533409720286727,0.0,8,3,2,6,0,4,nan,nan,nan,nan,nan,nan,nan,nan,nan,nan,nan,nan,0.0,nan,nan,nan,nan,nan,nan,nan,nan,nan,nan,nan,nan,nan,nan,nan,nan,nan,nan,205.24045419250615,399.9985693867784,nan,400.5319791070651,nan,nan,nan,nan
1,117,1,1,1.0,1.0,0.3889294834807515,0.0,3,7,4,8,6,2,nan,nan,nan,nan,nan,nan,nan,nan,nan,nan,nan,nan,0.0,nan,nan,nan,nan,nan,nan,nan,nan,nan,nan,nan,nan,nan,nan,nan,nan,nan,nan,205.24045419250615,401.00703047425486,nan,401.3959599577356,nan,nan,nan,nan
1,118,1,1,1.0,1.0,0.2604374459479004,0.0,6,2,3,0,1,7,nan,nan,nan,nan,nan,nan,nan,nan,nan,nan,nan,nan,0.0,nan,nan,nan,nan,nan,nan,nan,nan,nan,nan,nan,nan,nan,nan,nan,nan,nan,nan,205.24045419250615,402.01549070631154,nan,402.27592815225944,nan,nan,nan,nan
1,119,1,1,1.0,1.0,0.24396914476528764,0.0,1,4,0,7,2,5,nan,nan,nan,nan,nan,nan,nan,nan,nan,nan,nan,nan,0.0,nan,nan,nan,nan,nan,nan,nan,nan,nan,nan,nan,nan,nan,nan,nan,nan,nan,nan,205.24045419250615,403.02394295553677,nan,403.26791210030206,nan,nan,nan,nan
1,120,1,1,1.0,1.0,0.2995329836849123,0.0,4,6,3,5,0,7,nan,nan,nan,nan,nan,nan,nan,nan,nan,nan,nan,nan,0.0,nan,nan,nan,nan,nan,nan,nan,nan,nan,nan,nan,nan,nan,nan,nan,nan,nan,nan,205.24045419250615,404.03241060022265,nan,404.33194358390756,nan,nan,nan,nan
1,121,1,1,1.0,1.0,0.26700634928420186,0.0,6,2,8,1,5,3,nan,nan,nan,nan,nan,nan,nan,nan,nan,nan,nan,nan,0.0,nan,nan,nan,nan,nan,nan,nan,nan,nan,nan,nan,nan,nan,nan,nan,nan,nan,nan,205.24045419250615,405.0408642750699,nan,405.3078706243541,nan,nan,nan,nan
1,122,1,1,1.0,1.0,0.25851817801594734,0.0,1,5,3,8,4,7,nan,nan,nan,nan,nan,nan,nan,nan,nan,nan,nan,nan,0.0,nan,nan,nan,nan,nan,nan,nan,nan,nan,nan,nan,nan,nan,nan,nan,nan,nan,nan,205.24045419250615,406.0493222263176,nan,406.30784040433355,nan,nan,nan,nan
1,123,1,1,1.0,1.0,0.250034567900002,0.0,3,4,0,1,7,5,nan,nan,nan,nan,nan,nan,nan,nan,nan,nan,nan,nan,0.0,nan,nan,nan,nan,nan,nan,nan,nan,nan,nan,nan,nan,nan,nan,nan,nan,nan,nan,205.24045419250615,407.05777789698914,nan,407.30781246488914,nan,nan,nan,nan
1,124,1,1,1.0,1.0,0.2735692656133324,0.0,8,5,3,4,0,2,nan,nan,nan,nan,nan,nan,nan,nan,nan,nan,nan,nan,0.0,nan,nan,nan,nan,nan,nan,nan,nan,nan,nan,nan,nan,nan,nan,nan,nan,nan,nan,205.24045419250615,408.0662315718364,nan,408.33980083744973,nan,nan,nan,nan
1,125,1,1,1.0,1.0,0.24908035062253475,0.0,5,1,4,0,6,7,nan,nan,nan,nan,nan,nan,nan,nan,nan,nan,nan,nan,0.0,nan,nan,nan,nan,nan,nan,nan,nan,nan,nan,nan,nan,nan,nan,nan,nan,nan,nan,205.24045419250615,409.0746906634886,nan,409.3237710141111,nan,nan,nan,nan
1,126,1,1,1.0,1.0,0.26466542365960777,0.0,8,6,7,5,4,1,nan,nan,nan,nan,nan,nan,nan,nan,nan,nan,nan,nan,0.0,nan,nan,nan,nan,nan,nan,nan,nan,nan,nan,nan,nan,nan,nan,nan,nan,nan,nan,205.24045419250615,410.08309729746543,nan,410.34776272112504,nan,nan,nan,nan
1,127,1,1,1.0,1.0,0.26412031962536275,0.0,1,2,0,4,6,8,nan,nan,nan,nan,nan,nan,nan,nan,nan,nan,nan,nan,0.0,nan,nan,nan,nan,nan,nan,nan,nan,nan,nan,nan,nan,nan,nan,nan,nan,nan,nan,205.24045419250615,411.0916040001903,nan,411.35572431981564,nan,nan,nan,nan
1,128,0,0,0.0,1.0,0.4556340298149735,1.0,6,8,3,7,1,2,1.0,1.0,1.0,1.0,1.0,1.0,1.0,1.0,1.0,1.0,1.0,0.0,5.0,6.0,8.0,3.0,7.0,1.0,0.0,4.0,5.0,3.0,2.0,1.0,6.0,5.522923879092559,6.250974815571681,4.876589233521372,3.5724998409859836,2.789227466098964,7.634629162494093,205.24045419250615,412.10005311341956,412.908457580721,412.55568714323454,421.59282406955026,422.59600716969,413.91691866796464,421.5844944117125
1,129,1,1,1.0,1.0,0.602087132865563,0.0,5,7,4,8,0,3,nan,nan,nan,nan,nan,nan,nan,nan,nan,nan,nan,nan,0.0,nan,nan,nan,nan,nan,nan,nan,nan,nan,nan,nan,nan,nan,nan,nan,nan,nan,nan,205.24045419250615,422.8013335093856,nan,423.40342064225115,nan,nan,nan,nan
1,130,1,1,1.0,1.0,0.32160399737767875,0.0,8,0,3,2,5,6,nan,nan,nan,nan,nan,nan,nan,nan,nan,nan,nan,nan,0.0,nan,nan,nan,nan,nan,nan,nan,nan,nan,nan,nan,nan,nan,nan,nan,nan,nan,nan,205.24045419250615,423.8097880394198,nan,424.1313920367975,nan,nan,nan,nan
1,131,1,1,1.0,1.0,0.34513926529325545,0.0,6,8,5,1,7,0,nan,nan,nan,nan,nan,nan,nan,nan,nan,nan,nan,nan,0.0,nan,nan,nan,nan,nan,nan,nan,nan,nan,nan,nan,nan,nan,nan,nan,nan,nan,nan,205.24045419250615,424.81824627588503,nan,425.1633855411783,nan,nan,nan,nan
1,132,1,1,1.0,1.0,0.28865171410143375,0.0,5,1,6,8,4,2,nan,nan,nan,nan,nan,nan,nan,nan,nan,nan,nan,nan,0.0,nan,nan,nan,nan,nan,nan,nan,nan,nan,nan,nan,nan,nan,nan,nan,nan,nan,nan,205.24045419250615,425.8267404343933,nan,426.1153921484947,nan,nan,nan,nan
1,133,1,1,1.0,1.0,0.31216588499955833,0.0,8,4,7,3,5,0,nan,nan,nan,nan,nan,nan,nan,nan,nan,nan,nan,nan,0.0,nan,nan,nan,nan,nan,nan,nan,nan,nan,nan,nan,nan,nan,nan,nan,nan,nan,nan,205.24045419250615,426.83519781543873,nan,427.1473637004383,nan,nan,nan,nan
1,134,1,1,1.0,1.0,0.27966661960817873,0.0,6,7,5,2,4,1,nan,nan,nan,nan,nan,nan,nan,nan,nan,nan,nan,nan,0.0,nan,nan,nan,nan,nan,nan,nan,nan,nan,nan,nan,nan,nan,nan,nan,nan,nan,nan,205.24045419250615,427.84365947311744,nan,428.1233260927256,nan,nan,nan,nan
1,135,1,1,1.0,1.0,0.3032067343592644,0.0,5,0,6,4,7,3,nan,nan,nan,nan,nan,nan,nan,nan,nan,nan,nan,nan,0.0,nan,nan,nan,nan,nan,nan,nan,nan,nan,nan,nan,nan,nan,nan,nan,nan,nan,nan,205.24045419250615,428.85211514355615,nan,429.1553218779154,nan,nan,nan,nan
1,136,1,1,1.0,1.0,0.31874419655650854,0.0,7,4,8,1,2,0,nan,nan,nan,nan,nan,nan,nan,nan,nan,nan,nan,nan,0.0,nan,nan,nan,nan,nan,nan,nan,nan,nan,nan,nan,nan,nan,nan,nan,nan,nan,nan,205.24045419250615,429.86053403653204,nan,430.17927823308855,nan,nan,nan,nan
1,137,1,1,1.0,1.0,0.3182566820178181,0.0,5,1,7,6,3,4,nan,nan,nan,nan,nan,nan,nan,nan,nan,nan,nan,nan,0.0,nan,nan,nan,nan,nan,nan,nan,nan,nan,nan,nan,nan,nan,nan,nan,nan,nan,nan,205.24045419250615,430.86899056239054,nan,431.18724724440835,nan,nan,nan,nan
1,138,1,1,1.0,1.0,0.35777843836694956,0.0,2,8,3,5,4,6,nan,nan,nan,nan,nan,nan,nan,nan,nan,nan,nan,nan,0.0,nan,nan,nan,nan,nan,nan,nan,nan,nan,nan,nan,nan,nan,nan,nan,nan,nan,nan,205.24045419250615,431.8774468032643,nan,432.23522524163127,nan,nan,nan,nan
1,139,1,1,1.0,1.0,0.301286896225065,0.0,6,5,4,8,3,2,nan,nan,nan,nan,nan,nan,nan,nan,nan,nan,nan,nan,0.0,nan,nan,nan,nan,nan,nan,nan,nan,nan,nan,nan,nan,nan,nan,nan,nan,nan,nan,205.24045419250615,432.8859061799012,nan,433.1871930761263,nan,nan,nan,nan
1,140,1,1,1.0,1.0,0.3088151484262198,0.0,3,7,2,4,5,1,nan,nan,nan,nan,nan,nan,nan,nan,nan,nan,nan,nan,0.0,nan,nan,nan,nan,nan,nan,nan,nan,nan,nan,nan,nan,nan,nan,nan,nan,nan,nan,205.24045419250615,433.89436099515297,nan,434.2031761435792,nan,nan,nan,nan
1,141,1,1,1.0,1.0,0.26837253058329225,0.0,7,8,3,2,1,0,nan,nan,nan,nan,nan,nan,nan,nan,nan,nan,nan,nan,0.0,nan,nan,nan,nan,nan,nan,nan,nan,nan,nan,nan,nan,nan,nan,nan,nan,nan,nan,205.24045419250615,434.902813244611,nan,435.1711857751943,nan,nan,nan,nan
1,142,0,0,0.0,1.0,0.6598513452336192,0.0,6,3,5,0,2,8,nan,nan,nan,nan,nan,nan,nan,nan,nan,nan,nan,nan,0.0,nan,nan,nan,nan,nan,nan,nan,nan,nan,nan,nan,nan,nan,nan,nan,nan,nan,nan,205.24045419250615,435.9113005606923,nan,436.57115190592594,nan,nan,nan,nan
1,143,1,1,1.0,1.0,0.6273640538565814,0.0,4,5,6,8,3,7,nan,nan,nan,nan,nan,nan,nan,nan,nan,nan,nan,nan,0.0,nan,nan,nan,nan,nan,nan,nan,nan,nan,nan,nan,nan,nan,nan,nan,nan,nan,nan,205.24045419250615,436.91972943232395,nan,437.54709348618053,nan,nan,nan,nan
1,144,1,1,1.0,1.0,0.6028734282590449,0.0,3,4,5,0,1,2,nan,nan,nan,nan,nan,nan,nan,nan,nan,nan,nan,nan,0.0,nan,nan,nan,nan,nan,nan,nan,nan,nan,nan,nan,nan,nan,nan,nan,nan,nan,nan,205.24045419250615,437.9281945109833,nan,438.53106793924235,nan,nan,nan,nan
1,145,1,1,1.0,1.0,0.5224089950788766,0.0,7,8,1,4,0,5,nan,nan,nan,nan,nan,nan,nan,nan,nan,nan,nan,nan,0.0,nan,nan,nan,nan,nan,nan,nan,nan,nan,nan,nan,nan,nan,nan,nan,nan,nan,nan,205.24045419250615,438.9366601598449,nan,439.4590691549238,nan,nan,nan,nan
1,146,1,1,1.0,1.0,0.45724853011779487,0.0,4,1,2,7,5,3,nan,nan,nan,nan,nan,nan,nan,nan,nan,nan,nan,nan,0.0,nan,nan,nan,nan,nan,nan,nan,nan,nan,nan,nan,nan,nan,nan,nan,nan,nan,nan,205.24045419250615,439.9618047962431,nan,440.4190533263609,nan,nan,nan,nan
1,147,1,1,1.0,1.0,0.38477420527487993,0.0,2,6,4,3,1,8,nan,nan,nan,nan,nan,nan,nan,nan,nan,nan,nan,nan,0.0,nan,nan,nan,nan,nan,nan,nan,nan,nan,nan,nan,nan,nan,nan,nan,nan,nan,nan,205.24045419250615,440.97026075189933,nan,441.3550349571742,nan,nan,nan,nan
1,148,1,1,1.0,1.0,0.3522883397527039,0.0,5,2,3,4,8,7,nan,nan,nan,nan,nan,nan,nan,nan,nan,nan,nan,nan,0.0,nan,nan,nan,nan,nan,nan,nan,nan,nan,nan,nan,nan,nan,nan,nan,nan,nan,nan,205.24045419250615,441.97872183914296,nan,442.33101017889567,nan,nan,nan,nan
1,149,1,1,1.0,1.0,0.35181393940001726,0.0,1,4,5,7,0,2,nan,nan,nan,nan,nan,nan,nan,nan,nan,nan,nan,nan,0.0,nan,nan,nan,nan,nan,nan,nan,nan,nan,nan,nan,nan,nan,nan,nan,nan,nan,nan,205.24045419250615,442.9871837818064,nan,443.3389977212064,nan,nan,nan,nan
1,150,1,1,1.0,1.0,0.37538085295818746,0.0,3,8,6,0,1,5,nan,nan,nan,nan,nan,nan,nan,nan,nan,nan,nan,nan,0.0,nan,nan,nan,nan,nan,nan,nan,nan,nan,nan,nan,nan,nan,nan,nan,nan,nan,nan,205.24045419250615,443.995589845581,nan,444.37097069853917,nan,nan,nan,nan
1,151,1,1,1.0,1.0,0.33487380342558026,0.0,2,7,8,5,4,1,nan,nan,nan,nan,nan,nan,nan,nan,nan,nan,nan,nan,0.0,nan,nan,nan,nan,nan,nan,nan,nan,nan,nan,nan,nan,nan,nan,nan,nan,nan,nan,205.24045419250615,445.00405634986237,nan,445.33893015328795,nan,nan,nan,nan
1,152,1,1,1.0,1.0,0.3263976061716676,0.0,1,6,5,7,0,8,nan,nan,nan,nan,nan,nan,nan,nan,nan,nan,nan,nan,0.0,nan,nan,nan,nan,nan,nan,nan,nan,nan,nan,nan,nan,nan,nan,nan,nan,nan,nan,205.24045419250615,446.0125097394921,nan,446.33890734566376,nan,nan,nan,nan
1,153,1,1,1.0,1.0,0.28590167546644807,0.0,5,2,4,6,1,7,nan,nan,nan,nan,nan,nan,nan,nan,nan,nan,nan,nan,0.0,nan,nan,nan,nan,nan,nan,nan,nan,nan,nan,nan,nan,nan,nan,nan,nan,nan,nan,205.24045419250615,447.0209702567663,nan,447.30687193223275,nan,nan,nan,nan
1,154,1,1,1.0,1.0,0.2534206563141197,0.0,8,4,3,5,6,2,nan,nan,nan,nan,nan,nan,nan,nan,nan,nan,nan,nan,0.0,nan,nan,nan,nan,nan,nan,nan,nan,nan,nan,nan,nan,nan,nan,nan,nan,nan,nan,205.24045419250615,448.02942507201806,nan,448.2828457283322,nan,nan,nan,nan
1,155,1,1,1.0,1.0,0.25292088254354894,0.0,4,7,1,3,8,0,nan,nan,nan,nan,nan,nan,nan,nan,nan,nan,nan,nan,0.0,nan,nan,nan,nan,nan,nan,nan,nan,nan,nan,nan,nan,nan,nan,nan,nan,nan,nan,205.24045419250615,449.03792436234653,nan,449.2908452448901,nan,nan,nan,nan
1,156,1,1,1.0,1.0,0.24449742818251252,0.0,6,8,3,7,5,2,nan,nan,nan,nan,nan,nan,nan,nan,nan,nan,nan,nan,0.0,nan,nan,nan,nan,nan,nan,nan,nan,nan,nan,nan,nan,nan,nan,nan,nan,nan,nan,205.24045419250615,450.0463518081233,nan,450.2908492363058,nan,nan,nan,nan
1,157,1,1,1.0,1.0,0.2439662937540561,0.0,7,6,4,5,8,1,nan,nan,nan,nan,nan,nan,nan,nan,nan,nan,nan,nan,0.0,nan,nan,nan,nan,nan,nan,nan,nan,nan,nan,nan,nan,nan,nan,nan,nan,nan,nan,205.24045419250615,451.0548328522127,nan,451.29879914596677,nan,nan,nan,nan
1,158,1,1,1.0,1.0,0.2514954013749957,0.0,8,0,3,2,4,5,nan,nan,nan,nan,nan,nan,nan,nan,nan,nan,nan,nan,0.0,nan,nan,nan,nan,nan,nan,nan,nan,nan,nan,nan,nan,nan,nan,nan,nan,nan,nan,205.24045419250615,452.06328652706,nan,452.31478192843497,nan,nan,nan,nan
1,159,0,0,1.0,0.0,0.29103027237579226,0.0,4,1,5,6,8,0,nan,nan,nan,nan,nan,nan,nan,nan,nan,nan,nan,nan,0.0,nan,nan,nan,nan,nan,nan,nan,nan,nan,nan,nan,nan,nan,nan,nan,nan,nan,nan,205.24045419250615,453.071745618945,nan,453.3627758913208,nan,nan,nan,nan
1,160,1,1,1.0,1.0,0.5545339288655668,0.0,6,7,2,5,1,4,nan,nan,nan,nan,nan,nan,nan,nan,nan,nan,nan,nan,0.0,nan,nan,nan,nan,nan,nan,nan,nan,nan,nan,nan,nan,nan,nan,nan,nan,nan,nan,205.24045419250615,454.08019872359,nan,454.63473265245557,nan,nan,nan,nan
1,161,0,0,0.0,1.0,0.6660305219702423,0.0,4,8,7,3,2,5,nan,nan,nan,nan,nan,nan,nan,nan,nan,nan,nan,nan,0.0,nan,nan,nan,nan,nan,nan,nan,nan,nan,nan,nan,nan,nan,nan,nan,nan,nan,nan,205.24045419250615,455.08866522763856,nan,455.7546957496088,nan,nan,nan,nan
1,162,1,1,1.0,1.0,0.6495650713331997,0.0,8,2,3,4,0,7,nan,nan,nan,nan,nan,nan,nan,nan,nan,nan,nan,nan,0.0,nan,nan,nan,nan,nan,nan,nan,nan,nan,nan,nan,nan,nan,nan,nan,nan,nan,nan,205.24045419250615,456.0971174770966,nan,456.7466825484298,nan,nan,nan,nan
1,163,1,1,1.0,1.0,0.4570891612675041,0.0,0,4,5,8,3,6,nan,nan,nan,nan,nan,nan,nan,nan,nan,nan,nan,nan,0.0,nan,nan,nan,nan,nan,nan,nan,nan,nan,nan,nan,nan,nan,nan,nan,nan,nan,nan,205.24045419250615,457.10557599854656,nan,457.56266515981406,nan,nan,nan,nan
1,164,1,1,1.0,1.0,0.3846028624102473,0.0,1,3,0,2,7,4,nan,nan,nan,nan,nan,nan,nan,nan,nan,nan,nan,nan,0.0,nan,nan,nan,nan,nan,nan,nan,nan,nan,nan,nan,nan,nan,nan,nan,nan,nan,nan,205.24045419250615,458.1140268223826,nan,458.49862968479283,nan,nan,nan,nan
1,165,1,1,1.0,1.0,0.36813342035748065,0.0,5,4,8,1,3,7,nan,nan,nan,nan,nan,nan,nan,nan,nan,nan,nan,nan,0.0,nan,nan,nan,nan,nan,nan,nan,nan,nan,nan,nan,nan,nan,nan,nan,nan,nan,nan,205.24045419250615,459.1224824930541,nan,459.4906159134116,nan,nan,nan,nan
1,166,1,1,1.0,1.0,0.5196418506093323,0.0,0,7,5,6,4,3,nan,nan,nan,nan,nan,nan,nan,nan,nan,nan,nan,nan,0.0,nan,nan,nan,nan,nan,nan,nan,nan,nan,nan,nan,nan,nan,nan,nan,nan,nan,nan,205.24045419250615,460.130941869691,nan,460.65058372030035,nan,nan,nan,nan
1,167,1,1,1.0,1.0,0.4311562336515635,0.0,2,4,0,8,6,1,nan,nan,nan,nan,nan,nan,nan,nan,nan,nan,nan,nan,0.0,nan,nan,nan,nan,nan,nan,nan,nan,nan,nan,nan,nan,nan,nan,nan,nan,nan,nan,205.24045419250615,461.13940552296117,nan,461.57056175661273,nan,nan,nan,nan
1,168,1,1,1.0,1.0,0.47068654326722026,0.0,8,2,7,6,5,3,nan,nan,nan,nan,nan,nan,nan,nan,nan,nan,nan,nan,0.0,nan,nan,nan,nan,nan,nan,nan,nan,nan,nan,nan,nan,nan,nan,nan,nan,nan,nan,205.24045419250615,462.1478589125909,nan,462.6185454558581,nan,nan,nan,nan
1,169,1,1,1.0,1.0,0.47021100274287164,0.0,1,5,6,4,2,8,nan,nan,nan,nan,nan,nan,nan,nan,nan,nan,nan,nan,0.0,nan,nan,nan,nan,nan,nan,nan,nan,nan,nan,nan,nan,nan,nan,nan,nan,nan,nan,205.24045419250615,463.156287499005,nan,463.62649850174785,nan,nan,nan,nan
1,170,1,1,1.0,1.0,0.46174734947271645,0.0,4,3,8,5,7,1,nan,nan,nan,nan,nan,nan,nan,nan,nan,nan,nan,nan,0.0,nan,nan,nan,nan,nan,nan,nan,nan,nan,nan,nan,nan,nan,nan,nan,nan,nan,nan,205.24045419250615,464.16473632724956,nan,464.6264836767223,nan,nan,nan,nan
1,171,1,1,1.0,1.0,0.5092996980529279,0.0,7,0,2,4,1,8,nan,nan,nan,nan,nan,nan,nan,nan,nan,nan,nan,nan,0.0,nan,nan,nan,nan,nan,nan,nan,nan,nan,nan,nan,nan,nan,nan,nan,nan,nan,nan,205.24045419250615,465.1731885767076,nan,465.68248827476054,nan,nan,nan,nan
1,172,1,1,1.0,1.0,0.5567904659546912,0.0,1,3,6,5,2,0,nan,nan,nan,nan,nan,nan,nan,nan,nan,nan,nan,nan,0.0,nan,nan,nan,nan,nan,nan,nan,nan,nan,nan,nan,nan,nan,nan,nan,nan,nan,nan,205.24045419250615,466.18165222974494,nan,466.73844269569963,nan,nan,nan,nan
1,173,1,1,1.0,1.0,0.5722808870486915,0.0,5,1,0,8,3,7,nan,nan,nan,nan,nan,nan,nan,nan,nan,nan,nan,nan,0.0,nan,nan,nan,nan,nan,nan,nan,nan,nan,nan,nan,nan,nan,nan,nan,nan,nan,nan,205.24045419250615,467.19014553306624,nan,467.76242642011493,nan,nan,nan,nan
1,174,1,1,1.0,1.0,0.611843982944265,0.0,2,8,1,0,4,6,nan,nan,nan,nan,nan,nan,nan,nan,nan,nan,nan,nan,0.0,nan,nan,nan,nan,nan,nan,nan,nan,nan,nan,nan,nan,nan,nan,nan,nan,nan,nan,205.24045419250615,468.1985601496417,nan,468.810404132586,nan,nan,nan,nan
1,175,1,1,1.0,1.0,0.5953209428116679,0.0,3,5,7,4,0,8,nan,nan,nan,nan,nan,nan,nan,nan,nan,nan,nan,nan,0.0,nan,nan,nan,nan,nan,nan,nan,nan,nan,nan,nan,nan,nan,nan,nan,nan,nan,nan,205.24045419250615,469.20705886976793,nan,469.8023798125796,nan,nan,nan,nan
1,176,0,0,0.0,1.0,0.7388290013186634,0.0,4,2,8,5,1,7,nan,nan,nan,nan,nan,nan,nan,nan,nan,nan,nan,nan,0.0,nan,nan,nan,nan,nan,nan,nan,nan,nan,nan,nan,nan,nan,nan,nan,nan,nan,nan,205.24045419250615,470.2155151104089,nan,470.95434411172755,nan,nan,nan,nan
1,177,1,1,1.0,1.0,0.7623568568378687,0.0,2,0,6,8,3,1,nan,nan,nan,nan,nan,nan,nan,nan,nan,nan,nan,nan,0.0,nan,nan,nan,nan,nan,nan,nan,nan,nan,nan,nan,nan,nan,nan,nan,nan,nan,nan,205.24045419250615,471.2239733468741,nan,471.986330203712,nan,nan,nan,nan
1,178,1,1,nan,nan,nan,0.0,3,2,8,5,6,0,nan,nan,nan,nan,nan,nan,nan,nan,nan,nan,nan,nan,0.0,nan,nan,nan,nan,nan,nan,nan,nan,nan,nan,nan,nan,nan,nan,nan,nan,nan,nan,205.24045419250615,472.23242901754566,nan,nan,nan,nan,nan,nan
1,179,1,1,nan,nan,nan,0.0,0,4,7,2,1,5,nan,nan,nan,nan,nan,nan,nan,nan,nan,nan,nan,nan,0.0,nan,nan,nan,nan,nan,nan,nan,nan,nan,nan,nan,nan,nan,nan,nan,nan,nan,nan,205.24045419250615,473.24088212219067,nan,nan,nan,nan,nan,nan
1,180,1,1,nan,nan,nan,0.0,7,0,6,5,4,8,nan,nan,nan,nan,nan,nan,nan,nan,nan,nan,nan,nan,0.0,nan,nan,nan,nan,nan,nan,nan,nan,nan,nan,nan,nan,nan,nan,nan,nan,nan,nan,205.24045419250615,474.2493369372096,nan,nan,nan,nan,nan,nan
1,181,1,1,nan,nan,nan,0.0,6,1,4,8,3,7,nan,nan,nan,nan,nan,nan,nan,nan,nan,nan,nan,nan,0.0,nan,nan,nan,nan,nan,nan,nan,nan,nan,nan,nan,nan,nan,nan,nan,nan,nan,nan,205.24045419250615,475.25779431848787,nan,nan,nan,nan,nan,nan
1,182,1,1,1.0,1.0,0.015978220850229263,0.0,8,7,6,0,4,5,nan,nan,nan,nan,nan,nan,nan,nan,nan,nan,nan,nan,0.0,nan,nan,nan,nan,nan,nan,nan,nan,nan,nan,nan,nan,nan,nan,nan,nan,nan,nan,205.24045419250615,476.266256546136,nan,476.2822347669862,nan,nan,nan,nan
1,183,1,1,1.0,1.0,0.1514716527890414,0.0,0,4,2,5,3,7,nan,nan,nan,nan,nan,nan,nan,nan,nan,nan,nan,nan,0.0,nan,nan,nan,nan,nan,nan,nan,nan,nan,nan,nan,nan,nan,nan,nan,nan,nan,nan,205.24045419250615,477.27474158164114,nan,477.4262132344302,nan,nan,nan,nan
1,184,1,1,1.0,1.0,0.27103504491969943,0.0,4,5,7,3,1,6,nan,nan,nan,nan,nan,nan,nan,nan,nan,nan,nan,nan,0.0,nan,nan,nan,nan,nan,nan,nan,nan,nan,nan,nan,nan,nan,nan,nan,nan,nan,nan,205.24045419250615,478.2831601896323,nan,478.554195234552,nan,nan,nan,nan
1,185,1,1,1.0,1.0,0.40651080082170665,0.0,1,6,3,8,2,7,nan,nan,nan,nan,nan,nan,nan,nan,nan,nan,nan,nan,0.0,nan,nan,nan,nan,nan,nan,nan,nan,nan,nan,nan,nan,nan,nan,nan,nan,nan,nan,205.24045419250615,479.29163011489436,nan,479.69814091571607,nan,nan,nan,nan
1,186,1,1,1.0,1.0,0.5180253547150642,0.0,8,5,6,0,4,2,nan,nan,nan,nan,nan,nan,nan,nan,nan,nan,nan,nan,0.0,nan,nan,nan,nan,nan,nan,nan,nan,nan,nan,nan,nan,nan,nan,nan,nan,nan,nan,205.24045419250615,480.3000912023708,nan,480.8181165570859,nan,nan,nan,nan
1,187,1,1,1.0,1.0,0.5015445090830326,0.0,2,8,7,5,1,6,nan,nan,nan,nan,nan,nan,nan,nan,nan,nan,nan,nan,0.0,nan,nan,nan,nan,nan,nan,nan,nan,nan,nan,nan,nan,nan,nan,nan,nan,nan,nan,205.24045419250615,481.3085428813938,nan,481.81008739047684,nan,nan,nan,nan
1,188,1,1,1.0,1.0,0.4290773116517812,0.0,1,4,0,3,5,8,nan,nan,nan,nan,nan,nan,nan,nan,nan,nan,nan,nan,0.0,nan,nan,nan,nan,nan,nan,nan,nan,nan,nan,nan,nan,nan,nan,nan,nan,nan,nan,205.24045419250615,482.3169603489805,nan,482.7460376606323,nan,nan,nan,nan
1,189,1,1,1.0,1.0,0.40463173133321106,0.0,4,0,3,8,7,1,nan,nan,nan,nan,nan,nan,nan,nan,nan,nan,nan,nan,0.0,nan,nan,nan,nan,nan,nan,nan,nan,nan,nan,nan,nan,nan,nan,nan,nan,nan,nan,205.24045419250615,483.3254080368206,nan,483.7300397681538,nan,nan,nan,nan
1,190,1,1,1.0,1.0,0.36403544642962515,0.0,8,7,6,4,3,5,nan,nan,nan,nan,nan,nan,nan,nan,nan,nan,nan,nan,0.0,nan,nan,nan,nan,nan,nan,nan,nan,nan,nan,nan,nan,nan,nan,nan,nan,nan,nan,205.24045419250615,484.33395408303477,nan,484.6979895294644,nan,nan,nan,nan
1,191,0,0,0.0,1.0,0.6276075262576342,1.0,4,1,7,2,8,3,1.0,1.0,1.0,1.0,1.0,1.0,1.0,0.0,0.0,1.0,1.0,0.0,3.0,4.0,6.0,6.0,2.0,8.0,5.0,5.0,4.0,3.0,2.0,1.0,6.0,5.230935683241114,4.615496351150796,4.0403619355056435,3.366723334416747,2.6876767419744283,5.847151332302019,205.24045419250615,485.34235387458466,486.1507443720475,485.9699614008423,493.0432505309582,494.0424268876668,487.1592063147109,493.0349157413002
1,192,1,1,nan,nan,nan,0.0,5,6,8,0,1,2,nan,nan,nan,nan,nan,nan,nan,nan,nan,nan,nan,nan,0.0,nan,nan,nan,nan,nan,nan,nan,nan,nan,nan,nan,nan,nan,nan,nan,nan,nan,nan,205.24045419250615,494.25177593599074,nan,nan,nan,nan,nan,nan
1,193,1,1,1.0,1.0,0.1495281516108662,0.0,0,2,4,3,8,6,nan,nan,nan,nan,nan,nan,nan,nan,nan,nan,nan,nan,0.0,nan,nan,nan,nan,nan,nan,nan,nan,nan,nan,nan,nan,nan,nan,nan,nan,nan,nan,205.24045419250615,495.2602156409994,nan,495.40974379261024,nan,nan,nan,nan
1,194,1,1,1.0,1.0,0.49303638096898794,0.0,4,0,3,8,5,1,nan,nan,nan,nan,nan,nan,nan,nan,nan,nan,nan,nan,0.0,nan,nan,nan,nan,nan,nan,nan,nan,nan,nan,nan,nan,nan,nan,nan,nan,nan,nan,205.24045419250615,496.2686684606597,nan,496.76170484162867,nan,nan,nan,nan
1,195,0,0,1.0,0.0,0.24455416202545166,0.0,7,8,5,0,6,4,nan,nan,nan,nan,nan,nan,nan,nan,nan,nan,nan,nan,0.0,nan,nan,nan,nan,nan,nan,nan,nan,nan,nan,nan,nan,nan,nan,nan,nan,nan,nan,205.24045419250615,497.2771289779339,nan,497.52168313995935,nan,nan,nan,nan
1,196,1,1,1.0,1.0,0.3080174489878118,0.0,0,2,3,8,7,5,nan,nan,nan,nan,nan,nan,nan,nan,nan,nan,nan,nan,0.0,nan,nan,nan,nan,nan,nan,nan,nan,nan,nan,nan,nan,nan,nan,nan,nan,nan,nan,205.24045419250615,498.2855823675636,nan,498.59359981655143,nan,nan,nan,nan
1,197,1,1,1.0,1.0,0.28357557486742735,0.0,1,6,0,2,5,4,nan,nan,nan,nan,nan,nan,nan,nan,nan,nan,nan,nan,0.0,nan,nan,nan,nan,nan,nan,nan,nan,nan,nan,nan,nan,nan,nan,nan,nan,nan,nan,205.24045419250615,499.2940605606418,nan,499.57763613550924,nan,nan,nan,nan
1,198,1,1,1.0,1.0,0.235148835927248,0.0,5,2,8,1,7,6,nan,nan,nan,nan,nan,nan,nan,nan,nan,nan,nan,nan,0.0,nan,nan,nan,nan,nan,nan,nan,nan,nan,nan,nan,nan,nan,nan,nan,nan,nan,nan,205.24045419250615,500.30249712988734,nan,500.5376459658146,nan,nan,nan,nan
1,199,1,1,1.0,1.0,0.31466076243668795,0.0,6,3,2,8,4,7,nan,nan,nan,nan,nan,nan,nan,nan,nan,nan,nan,nan,0.0,nan,nan,nan,nan,nan,nan,nan,nan,nan,nan,nan,nan,nan,nan,nan,nan,nan,nan,205.24045419250615,501.3109853013884,nan,501.6256460638251,nan,nan,nan,nan
1,200,1,1,1.0,1.0,0.33016315777786076,0.0,4,7,1,3,6,2,nan,nan,nan,nan,nan,nan,nan,nan,nan,nan,nan,nan,0.0,nan,nan,nan,nan,nan,nan,nan,nan,nan,nan,nan,nan,nan,nan,nan,nan,nan,nan,205.24045419250615,502.31943869101815,nan,502.649601848796,nan,nan,nan,nan
1,201,1,1,1.0,1.0,0.33770110341720283,0.0,8,1,2,0,4,5,nan,nan,nan,nan,nan,nan,nan,nan,nan,nan,nan,nan,0.0,nan,nan,nan,nan,nan,nan,nan,nan,nan,nan,nan,nan,nan,nan,nan,nan,nan,nan,205.24045419250615,503.32787497504614,nan,503.66557607846335,nan,nan,nan,nan
1,202,1,1,1.0,1.0,0.33722955407574773,0.0,5,7,1,4,6,3,nan,nan,nan,nan,nan,nan,nan,nan,nan,nan,nan,nan,0.0,nan,nan,nan,nan,nan,nan,nan,nan,nan,nan,nan,nan,nan,nan,nan,nan,nan,nan,205.24045419250615,504.33632551389746,nan,504.6735550679732,nan,nan,nan,nan
1,203,0,0,0.0,1.0,0.608706213068217,1.0,3,1,5,8,4,2,1.0,1.0,1.0,1.0,1.0,1.0,0.0,0.0,1.0,1.0,1.0,0.0,3.0,0.0,2.0,5.0,8.0,4.0,4.0,5.0,4.0,3.0,2.0,1.0,6.0,4.155244331806898,3.500169204780832,2.7721875465940684,1.9255314266774803,1.2058888347819448,5.243474502582103,205.24045419250615,505.34483278682455,506.1532238544896,505.95353899989277,512.4623007213231,513.463982504094,507.1783710566815,512.4539684974588
1,204,1,1,1.0,1.0,0.6744573975447565,0.0,5,3,4,0,7,8,nan,nan,nan,nan,nan,nan,nan,nan,nan,nan,nan,nan,0.0,nan,nan,nan,nan,nan,nan,nan,nan,nan,nan,nan,nan,nan,nan,nan,nan,nan,nan,205.24045419250615,513.6708708864171,nan,514.3453282839619,nan,nan,nan,nan
1,205,1,1,1.0,1.0,0.4660286402795464,0.0,6,1,2,4,8,7,nan,nan,nan,nan,nan,nan,nan,nan,nan,nan,nan,nan,0.0,nan,nan,nan,nan,nan,nan,nan,nan,nan,nan,nan,nan,nan,nan,nan,nan,nan,nan,205.24045419250615,514.6792652611621,nan,515.1452939014416,nan,nan,nan,nan
1,206,1,1,1.0,1.0,0.2895423548761755,0.0,2,6,8,0,7,3,nan,nan,nan,nan,nan,nan,nan,nan,nan,nan,nan,nan,0.0,nan,nan,nan,nan,nan,nan,nan,nan,nan,nan,nan,nan,nan,nan,nan,nan,nan,nan,205.24045419250615,515.6877303400543,nan,515.9772726949304,nan,nan,nan,nan
1,207,1,1,1.0,1.0,0.3050789616536349,0.0,4,5,0,3,2,7,nan,nan,nan,nan,nan,nan,nan,nan,nan,nan,nan,nan,0.0,nan,nan,nan,nan,nan,nan,nan,nan,nan,nan,nan,nan,nan,nan,nan,nan,nan,nan,205.24045419250615,516.6961689046584,nan,517.001247866312,nan,nan,nan,nan
1,208,1,1,1.0,1.0,0.3685972720850259,0.0,0,4,8,5,3,1,nan,nan,nan,nan,nan,nan,nan,nan,nan,nan,nan,nan,0.0,nan,nan,nan,nan,nan,nan,nan,nan,nan,nan,nan,nan,nan,nan,nan,nan,nan,nan,205.24045419250615,517.7046294219326,nan,518.0732266940176,nan,nan,nan,nan
1,209,1,1,1.0,1.0,0.34411776531487703,0.0,3,8,4,2,6,0,nan,nan,nan,nan,nan,nan,nan,nan,nan,nan,nan,nan,0.0,nan,nan,nan,nan,nan,nan,nan,nan,nan,nan,nan,nan,nan,nan,nan,nan,nan,nan,205.24045419250615,518.713087658165,nan,519.0572054234799,nan,nan,nan,nan
1,210,1,1,1.0,1.0,0.23164842394180596,0.0,5,2,6,7,3,8,nan,nan,nan,nan,nan,nan,nan,nan,nan,nan,nan,nan,0.0,nan,nan,nan,nan,nan,nan,nan,nan,nan,nan,nan,nan,nan,nan,nan,nan,nan,nan,205.24045419250615,519.7215424734168,nan,519.9531908973586,nan,nan,nan,nan
1,211,1,1,1.0,1.0,0.34315984160639346,0.0,1,6,7,5,2,3,nan,nan,nan,nan,nan,nan,nan,nan,nan,nan,nan,nan,0.0,nan,nan,nan,nan,nan,nan,nan,nan,nan,nan,nan,nan,nan,nan,nan,nan,nan,nan,205.24045419250615,520.7300064119045,nan,521.0731662535109,nan,nan,nan,nan
1,212,1,1,1.0,1.0,0.3026736043393612,0.0,2,5,3,1,4,6,nan,nan,nan,nan,nan,nan,nan,nan,nan,nan,nan,nan,0.0,nan,nan,nan,nan,nan,nan,nan,nan,nan,nan,nan,nan,nan,nan,nan,nan,nan,nan,205.24045419250615,521.738458376145,nan,522.0411319804844,nan,nan,nan,nan
1,213,1,1,1.0,1.0,0.31018988275900483,0.0,6,0,5,8,2,7,nan,nan,nan,nan,nan,nan,nan,nan,nan,nan,nan,nan,0.0,nan,nan,nan,nan,nan,nan,nan,nan,nan,nan,nan,nan,nan,nan,nan,nan,nan,nan,205.24045419250615,522.7469171825796,nan,523.0571070653386,nan,nan,nan,nan
1,214,1,1,1.0,1.0,0.2857112311758101,0.0,3,2,4,7,8,1,nan,nan,nan,nan,nan,nan,nan,nan,nan,nan,nan,nan,0.0,nan,nan,nan,nan,nan,nan,nan,nan,nan,nan,nan,nan,nan,nan,nan,nan,nan,nan,205.24045419250615,523.7553742786404,nan,524.0410855098162,nan,nan,nan,nan
1,215,1,1,1.0,1.0,0.269239223562181,0.0,7,8,1,0,2,6,nan,nan,nan,nan,nan,nan,nan,nan,nan,nan,nan,nan,0.0,nan,nan,nan,nan,nan,nan,nan,nan,nan,nan,nan,nan,nan,nan,nan,nan,nan,nan,205.24045419250615,524.7638299490791,nan,525.0330691726413,nan,nan,nan,nan
1,216,1,1,1.0,1.0,0.26075760927051306,0.0,8,7,3,2,5,4,nan,nan,nan,nan,nan,nan,nan,nan,nan,nan,nan,nan,0.0,nan,nan,nan,nan,nan,nan,nan,nan,nan,nan,nan,nan,nan,nan,nan,nan,nan,nan,205.24045419250615,525.7722870451398,nan,526.0330446544103,nan,nan,nan,nan
1,217,0,0,nan,nan,nan,1.0,1,2,6,8,0,3,1.0,1.0,1.0,1.0,1.0,1.0,1.0,1.0,1.0,0.0,0.0,1.0,4.0,1.0,2.0,6.0,6.0,3.0,3.0,3.0,4.0,5.0,6.0,1.0,2.0,4.912830672459677,5.647116664331406,6.4560132077895105,7.1029941665474325,2.0729270577430725,4.199409166350961,205.24045419250615,526.7807381541934,527.5891591568943,nan,535.7484860674012,536.7542946189642,528.6059541788418,535.7401549839415
1,218,1,1,1.0,1.0,0.4118036131840199,0.0,6,4,0,7,8,5,nan,nan,nan,nan,nan,nan,nan,nan,nan,nan,nan,nan,0.0,nan,nan,nan,nan,nan,nan,nan,nan,nan,nan,nan,nan,nan,nan,nan,nan,nan,nan,205.24045419250615,536.9569909456186,nan,537.3687945588026,nan,nan,nan,nan
1,219,1,1,1.0,1.0,0.3393184544984251,0.0,2,0,6,5,3,8,nan,nan,nan,nan,nan,nan,nan,nan,nan,nan,nan,nan,0.0,nan,nan,nan,nan,nan,nan,nan,nan,nan,nan,nan,nan,nan,nan,nan,nan,nan,nan,205.24045419250615,537.9654471862596,nan,538.304765640758,nan,nan,nan,nan
1,220,1,1,1.0,1.0,0.24281478975899518,0.0,3,6,8,4,5,2,nan,nan,nan,nan,nan,nan,nan,nan,nan,nan,nan,nan,0.0,nan,nan,nan,nan,nan,nan,nan,nan,nan,nan,nan,nan,nan,nan,nan,nan,nan,nan,205.24045419250615,538.9739182521589,nan,539.2167330419179,nan,nan,nan,nan
1,221,1,1,1.0,1.0,0.17835594667121768,0.0,4,5,6,0,8,3,nan,nan,nan,nan,nan,nan,nan,nan,nan,nan,nan,nan,0.0,nan,nan,nan,nan,nan,nan,nan,nan,nan,nan,nan,nan,nan,nan,nan,nan,nan,nan,205.24045419250615,539.982359097572,nan,540.1607150442433,nan,nan,nan,nan
1,222,1,1,1.0,1.0,0.22590116783976555,0.0,2,7,8,4,3,6,nan,nan,nan,nan,nan,nan,nan,nan,nan,nan,nan,nan,0.0,nan,nan,nan,nan,nan,nan,nan,nan,nan,nan,nan,nan,nan,nan,nan,nan,nan,nan,205.24045419250615,540.9908150532283,nan,541.216716221068,nan,nan,nan,nan
1,223,1,1,1.0,1.0,0.19338137586601079,0.0,7,5,3,6,1,0,nan,nan,nan,nan,nan,nan,nan,nan,nan,nan,nan,nan,0.0,nan,nan,nan,nan,nan,nan,nan,nan,nan,nan,nan,nan,nan,nan,nan,nan,nan,nan,205.24045419250615,541.9993146285415,nan,542.1926960044075,nan,nan,nan,nan
1,224,1,1,1.0,1.0,0.20094098872505128,0.0,3,8,2,1,7,4,nan,nan,nan,nan,nan,nan,nan,nan,nan,nan,nan,nan,0.0,nan,nan,nan,nan,nan,nan,nan,nan,nan,nan,nan,nan,nan,nan,nan,nan,nan,nan,205.24045419250615,543.0077454957645,nan,543.2086864844896,nan,nan,nan,nan
1,225,0,0,1.0,0.0,0.28844017279334366,1.0,1,3,4,8,5,6,1.0,1.0,1.0,1.0,1.0,1.0,1.0,1.0,1.0,1.0,0.0,0.0,4.0,1.0,3.0,4.0,8.0,7.0,2.0,3.0,2.0,1.0,6.0,5.0,4.0,2.3316450882703066,1.7155560217797756,1.083563714986667,4.643337428336963,3.6109185602981597,3.0514835412614048,205.24045419250615,544.0161923281848,544.8246056335047,544.3046325009782,550.5336543326266,551.5427993659396,545.849734874675,550.5253201131709
1,226,1,1,1.0,1.0,0.5459724876563996,0.0,8,6,0,7,1,3,nan,nan,nan,nan,nan,nan,nan,nan,nan,nan,nan,nan,0.0,nan,nan,nan,nan,nan,nan,nan,nan,nan,nan,nan,nan,nan,nan,nan,nan,nan,nan,205.24045419250615,551.7505048341118,nan,552.2964773217682,nan,nan,nan,nan
1,227,1,1,1.0,1.0,0.3294757907278836,0.0,6,4,5,3,2,7,nan,nan,nan,nan,nan,nan,nan,nan,nan,nan,nan,nan,0.0,nan,nan,nan,nan,nan,nan,nan,nan,nan,nan,nan,nan,nan,nan,nan,nan,nan,nan,205.24045419250615,552.7589656363707,nan,553.0884414270986,nan,nan,nan,nan
1,228,0,0,1.0,0.0,0.304997994331643,0.0,0,1,7,6,4,8,nan,nan,nan,nan,nan,nan,nan,nan,nan,nan,nan,nan,0.0,nan,nan,nan,nan,nan,nan,nan,nan,nan,nan,nan,nan,nan,nan,nan,nan,nan,nan,205.24045419250615,553.7674181710463,nan,554.072416165378,nan,nan,nan,nan
1,229,1,1,1.0,1.0,0.6085120625793934,0.0,2,4,3,8,6,5,nan,nan,nan,nan,nan,nan,nan,nan,nan,nan,nan,nan,0.0,nan,nan,nan,nan,nan,nan,nan,nan,nan,nan,nan,nan,nan,nan,nan,nan,nan,nan,205.24045419250615,554.7758786880877,nan,555.3843907506671,nan,nan,nan,nan
1,230,1,1,1.0,1.0,0.4320329048205167,0.0,0,1,5,4,7,3,nan,nan,nan,nan,nan,nan,nan,nan,nan,nan,nan,nan,0.0,nan,nan,nan,nan,nan,nan,nan,nan,nan,nan,nan,nan,nan,nan,nan,nan,nan,nan,205.24045419250615,555.7843403455336,nan,556.2163732503541,nan,nan,nan,nan
1,231,1,1,1.0,1.0,0.4955472236033529,0.0,1,8,4,2,6,7,nan,nan,nan,nan,nan,nan,nan,nan,nan,nan,nan,nan,0.0,nan,nan,nan,nan,nan,nan,nan,nan,nan,nan,nan,nan,nan,nan,nan,nan,nan,nan,205.24045419250615,556.7927982970141,nan,557.2883455206174,nan,nan,nan,nan
1,232,1,1,1.0,1.0,0.5110422063153237,0.0,6,7,5,1,8,0,nan,nan,nan,nan,nan,nan,nan,nan,nan,nan,nan,nan,0.0,nan,nan,nan,nan,nan,nan,nan,nan,nan,nan,nan,nan,nan,nan,nan,nan,nan,nan,205.24045419250615,557.8012531122658,nan,558.3122953185812,nan,nan,nan,nan
1,233,1,1,1.0,1.0,0.5345980012789369,0.0,5,1,8,4,0,6,nan,nan,nan,nan,nan,nan,nan,nan,nan,nan,nan,nan,0.0,nan,nan,nan,nan,nan,nan,nan,nan,nan,nan,nan,nan,nan,nan,nan,nan,nan,nan,205.24045419250615,558.8096842644736,nan,559.3442822657526,nan,nan,nan,nan
1,234,1,1,1.0,1.0,0.4781286963261664,0.0,6,7,0,8,2,4,nan,nan,nan,nan,nan,nan,nan,nan,nan,nan,nan,nan,0.0,nan,nan,nan,nan,nan,nan,nan,nan,nan,nan,nan,nan,nan,nan,nan,nan,nan,nan,205.24045419250615,559.8181242546998,nan,560.296252951026,nan,nan,nan,nan
1,235,1,1,1.0,1.0,0.3976420257240534,0.0,2,1,7,5,4,8,nan,nan,nan,nan,nan,nan,nan,nan,nan,nan,nan,nan,0.0,nan,nan,nan,nan,nan,nan,nan,nan,nan,nan,nan,nan,nan,nan,nan,nan,nan,nan,205.24045419250615,560.826578784734,nan,561.2242208104581,nan,nan,nan,nan
1,236,1,1,1.0,1.0,0.3571708984673023,0.0,0,2,1,8,3,6,nan,nan,nan,nan,nan,nan,nan,nan,nan,nan,nan,nan,0.0,nan,nan,nan,nan,nan,nan,nan,nan,nan,nan,nan,nan,nan,nan,nan,nan,nan,nan,205.24045419250615,561.8350407273974,nan,562.1922116258647,nan,nan,nan,nan
1,237,1,1,1.0,1.0,0.30068049649707973,0.0,1,8,4,2,6,0,nan,nan,nan,nan,nan,nan,nan,nan,nan,nan,nan,nan,0.0,nan,nan,nan,nan,nan,nan,nan,nan,nan,nan,nan,nan,nan,nan,nan,nan,nan,nan,205.24045419250615,562.8434969680384,nan,563.1441774645355,nan,nan,nan,nan
1,238,1,1,1.0,1.0,0.284215901279822,0.0,0,1,3,7,4,2,nan,nan,nan,nan,nan,nan,nan,nan,nan,nan,nan,nan,0.0,nan,nan,nan,nan,nan,nan,nan,nan,nan,nan,nan,nan,nan,nan,nan,nan,nan,nan,205.24045419250615,563.8519523534924,nan,564.1361682547722,nan,nan,nan,nan
1,239,1,1,1.0,1.0,0.4117274924647063,0.0,3,6,8,4,5,0,nan,nan,nan,nan,nan,nan,nan,nan,nan,nan,nan,nan,0.0,nan,nan,nan,nan,nan,nan,nan,nan,nan,nan,nan,nan,nan,nan,nan,nan,nan,nan,205.24045419250615,564.8604111601599,nan,565.2721386526246,nan,nan,nan,nan
1,240,1,1,1.0,1.0,0.34725838573649526,0.0,5,0,4,6,8,1,nan,nan,nan,nan,nan,nan,nan,nan,nan,nan,nan,nan,0.0,nan,nan,nan,nan,nan,nan,nan,nan,nan,nan,nan,nan,nan,nan,nan,nan,nan,nan,205.24045419250615,565.8688688264228,nan,566.2161272121593,nan,nan,nan,nan
1,241,1,1,1.0,1.0,0.3867564795073122,0.0,1,2,8,0,7,6,nan,nan,nan,nan,nan,nan,nan,nan,nan,nan,nan,nan,0.0,nan,nan,nan,nan,nan,nan,nan,nan,nan,nan,nan,nan,nan,nan,nan,nan,nan,nan,205.24045419250615,566.8773273478728,nan,567.2640838273801,nan,nan,nan,nan
1,242,1,1,1.0,1.0,0.5062942132353783,0.0,5,8,1,6,3,0,nan,nan,nan,nan,nan,nan,nan,nan,nan,nan,nan,nan,0.0,nan,nan,nan,nan,nan,nan,nan,nan,nan,nan,nan,nan,nan,nan,nan,nan,nan,nan,205.24045419250615,567.8857830183115,nan,568.3920772315469,nan,nan,nan,nan
1,243,1,1,1.0,1.0,0.593822191702202,0.0,2,4,8,0,1,5,nan,nan,nan,nan,nan,nan,nan,nan,nan,nan,nan,nan,0.0,nan,nan,nan,nan,nan,nan,nan,nan,nan,nan,nan,nan,nan,nan,nan,nan,nan,nan,205.24045419250615,568.8942361229565,nan,569.4880583146587,nan,nan,nan,nan
1,244,1,1,1.0,1.0,0.7613470456562936,0.0,4,1,7,6,8,3,nan,nan,nan,nan,nan,nan,nan,nan,nan,nan,nan,nan,0.0,nan,nan,nan,nan,nan,nan,nan,nan,nan,nan,nan,nan,nan,nan,nan,nan,nan,nan,205.24045419250615,569.9026775388047,nan,570.664024584461,nan,nan,nan,nan
1,245,1,1,nan,nan,nan,0.0,5,3,1,4,2,8,nan,nan,nan,nan,nan,nan,nan,nan,nan,nan,nan,nan,0.0,nan,nan,nan,nan,nan,nan,nan,nan,nan,nan,nan,nan,nan,nan,nan,nan,nan,nan,205.24045419250615,570.9111699867062,nan,nan,nan,nan,nan,nan
1,246,1,1,nan,nan,nan,0.0,1,2,5,6,7,0,nan,nan,nan,nan,nan,nan,nan,nan,nan,nan,nan,nan,0.0,nan,nan,nan,nan,nan,nan,nan,nan,nan,nan,nan,nan,nan,nan,nan,nan,nan,nan,205.24045419250615,571.9196399119683,nan,nan,nan,nan,nan,nan
1,247,1,1,1.0,1.0,0.5838959945831448,0.0,0,8,6,5,1,4,nan,nan,nan,nan,nan,nan,nan,nan,nan,nan,nan,nan,0.0,nan,nan,nan,nan,nan,nan,nan,nan,nan,nan,nan,nan,nan,nan,nan,nan,nan,nan,205.24045419250615,572.9280941570178,nan,573.5119901516009,nan,nan,nan,nan
1,248,1,1,1.0,1.0,0.4234076018910855,0.0,2,4,5,1,7,6,nan,nan,nan,nan,nan,nan,nan,nan,nan,nan,nan,nan,0.0,nan,nan,nan,nan,nan,nan,nan,nan,nan,nan,nan,nan,nan,nan,nan,nan,nan,nan,205.24045419250615,573.9365629418753,nan,574.3599705437664,nan,nan,nan,nan
1,249,1,1,1.0,1.0,0.350919877178967,0.0,4,3,2,5,1,7,nan,nan,nan,nan,nan,nan,nan,nan,nan,nan,nan,nan,0.0,nan,nan,nan,nan,nan,nan,nan,nan,nan,nan,nan,nan,nan,nan,nan,nan,nan,nan,205.24045419250615,574.9450220337603,nan,575.2959419109393,nan,nan,nan,nan
1,250,1,1,1.0,1.0,0.5341170439496636,0.0,7,1,5,8,3,2,nan,nan,nan,nan,nan,nan,nan,nan,nan,nan,nan,nan,0.0,nan,nan,nan,nan,nan,nan,nan,nan,nan,nan,nan,nan,nan,nan,nan,nan,nan,nan,205.24045419250615,575.9617737208027,nan,576.4958907647524,nan,nan,nan,nan
1,251,1,1,1.0,1.0,0.5576337806414813,0.0,0,3,1,5,4,6,nan,nan,nan,nan,nan,nan,nan,nan,nan,nan,nan,nan,0.0,nan,nan,nan,nan,nan,nan,nan,nan,nan,nan,nan,nan,nan,nan,nan,nan,nan,nan,205.24045419250615,576.9702333826572,nan,577.5278671632987,nan,nan,nan,nan
1,252,1,1,1.0,1.0,0.48517285543493927,0.0,3,5,8,0,1,7,nan,nan,nan,nan,nan,nan,nan,nan,nan,nan,nan,nan,0.0,nan,nan,nan,nan,nan,nan,nan,nan,nan,nan,nan,nan,nan,nan,nan,nan,nan,nan,205.24045419250615,577.9787015973125,nan,578.4638744527474,nan,nan,nan,nan
1,253,0,0,0.0,1.0,0.604679228272289,1.0,5,6,2,1,8,3,1.0,1.0,1.0,1.0,1.0,1.0,1.0,1.0,1.0,0.0,0.0,0.0,3.0,5.0,6.0,2.0,0.0,0.0,7.0,6.0,3.0,2.0,1.0,4.0,5.0,10.448015402071178,5.82385554513894,4.585166953736916,2.224524152930826,7.721139062196016,8.399797923630103,205.24045419250615,578.9871484299656,579.7955571736675,579.5918276582379,591.288623774657,592.2890528445132,580.8040573191829,591.280294401804
1,254,1,1,1.0,1.0,0.3583822725340724,0.0,1,0,8,3,2,7,nan,nan,nan,nan,nan,nan,nan,nan,nan,nan,nan,nan,0.0,nan,nan,nan,nan,nan,nan,nan,nan,nan,nan,nan,nan,nan,nan,nan,nan,nan,nan,205.24045419250615,592.4971397714689,nan,592.855522044003,nan,nan,nan,nan
1,255,1,1,1.0,1.0,0.34186835563741624,0.0,8,6,4,1,7,5,nan,nan,nan,nan,nan,nan,nan,nan,nan,nan,nan,nan,0.0,nan,nan,nan,nan,nan,nan,nan,nan,nan,nan,nan,nan,nan,nan,nan,nan,nan,nan,205.24045419250615,593.5056270877831,nan,593.8474954434205,nan,nan,nan,nan
1,256,1,1,1.0,1.0,0.285389642463997,0.0,4,0,5,7,2,6,nan,nan,nan,nan,nan,nan,nan,nan,nan,nan,nan,nan,0.0,nan,nan,nan,nan,nan,nan,nan,nan,nan,nan,nan,nan,nan,nan,nan,nan,nan,nan,205.24045419250615,594.5140867496375,nan,594.7994763921015,nan,nan,nan,nan
1,257,1,1,1.0,1.0,0.32488460023887455,0.0,2,8,0,3,4,7,nan,nan,nan,nan,nan,nan,nan,nan,nan,nan,nan,nan,0.0,nan,nan,nan,nan,nan,nan,nan,nan,nan,nan,nan,nan,nan,nan,nan,nan,nan,nan,205.24045419250615,595.5225569601171,nan,595.847441560356,nan,nan,nan,nan
1,258,1,1,1.0,1.0,0.30847531370818615,0.0,7,6,2,8,5,3,nan,nan,nan,nan,nan,nan,nan,nan,nan,nan,nan,nan,0.0,nan,nan,nan,nan,nan,nan,nan,nan,nan,nan,nan,nan,nan,nan,nan,nan,nan,nan,205.24045419250615,596.5309576070867,nan,596.8394329207949,nan,nan,nan,nan
1,259,1,1,1.0,1.0,0.29196880920790136,0.0,4,3,1,6,7,8,nan,nan,nan,nan,nan,nan,nan,nan,nan,nan,nan,nan,0.0,nan,nan,nan,nan,nan,nan,nan,nan,nan,nan,nan,nan,nan,nan,nan,nan,nan,nan,205.24045419250615,597.5394149881322,nan,597.8313837973401,nan,nan,nan,nan
1,260,1,1,1.0,1.0,0.2434981653932482,0.0,1,5,8,3,2,6,nan,nan,nan,nan,nan,nan,nan,nan,nan,nan,nan,nan,0.0,nan,nan,nan,nan,nan,nan,nan,nan,nan,nan,nan,nan,nan,nan,nan,nan,nan,nan,205.24045419250615,598.5478709437884,nan,598.7913691091817,nan,nan,nan,nan
1,261,1,1,1.0,1.0,0.20301050250418484,0.0,3,1,2,0,6,4,nan,nan,nan,nan,nan,nan,nan,nan,nan,nan,nan,nan,0.0,nan,nan,nan,nan,nan,nan,nan,nan,nan,nan,nan,nan,nan,nan,nan,nan,nan,nan,205.24045419250615,599.5563340268563,nan,599.7593445293605,nan,nan,nan,nan
1,262,1,1,1.0,1.0,0.17052862839773297,0.0,8,5,1,3,0,2,nan,nan,nan,nan,nan,nan,nan,nan,nan,nan,nan,nan,0.0,nan,nan,nan,nan,nan,nan,nan,nan,nan,nan,nan,nan,nan,nan,nan,nan,nan,nan,205.24045419250615,600.5647874164861,nan,600.7353160448838,nan,nan,nan,nan
1,263,1,1,1.0,1.0,0.17804690240882337,0.0,7,8,6,5,2,4,nan,nan,nan,nan,nan,nan,nan,nan,nan,nan,nan,nan,0.0,nan,nan,nan,nan,nan,nan,nan,nan,nan,nan,nan,nan,nan,nan,nan,nan,nan,nan,205.24045419250615,601.573245082749,nan,601.7512919851579,nan,nan,nan,nan
1,264,1,1,1.0,1.0,0.1055779941380024,0.0,6,7,1,0,8,5,nan,nan,nan,nan,nan,nan,nan,nan,nan,nan,nan,nan,0.0,nan,nan,nan,nan,nan,nan,nan,nan,nan,nan,nan,nan,nan,nan,nan,nan,nan,nan,205.24045419250615,602.5817033192143,nan,602.6872813133523,nan,nan,nan,nan
1,265,1,1,1.0,1.0,0.041086365235969424,0.0,5,2,3,8,4,1,nan,nan,nan,nan,nan,nan,nan,nan,nan,nan,nan,nan,0.0,nan,nan,nan,nan,nan,nan,nan,nan,nan,nan,nan,nan,nan,nan,nan,nan,nan,nan,205.24045419250615,603.5901587044355,nan,603.6312450696714,nan,nan,nan,nan
1,266,0,0,0.0,1.0,0.456613335525617,0.0,1,3,0,4,7,5,nan,nan,nan,nan,nan,nan,nan,nan,nan,nan,nan,nan,0.0,nan,nan,nan,nan,nan,nan,nan,nan,nan,nan,nan,nan,nan,nan,nan,nan,nan,nan,205.24045419250615,604.5986100987066,nan,605.0552234342322,nan,nan,nan,nan
1,267,1,1,1.0,1.0,0.6241125308442861,0.0,7,6,3,1,0,8,nan,nan,nan,nan,nan,nan,nan,nan,nan,nan,nan,nan,0.0,nan,nan,nan,nan,nan,nan,nan,nan,nan,nan,nan,nan,nan,nan,nan,nan,nan,nan,205.24045419250615,605.6070717561524,nan,606.2311842869967,nan,nan,nan,nan
1,268,0,0,nan,nan,nan,1.0,8,2,1,4,7,6,1.0,1.0,1.0,1.0,1.0,1.0,1.0,0.0,0.0,1.0,1.0,0.0,3.0,8.0,7.0,7.0,4.0,7.0,7.0,2.0,4.0,3.0,1.0,6.0,5.0,2.0665622835513204,3.49961896892637,2.8590749138966203,1.0748172462917864,4.866432963870466,4.234283568803221,205.24045419250615,606.6155297074001,607.4239507103339,nan,613.3579968223348,614.3625623541884,608.4490705432836,613.3496643134858
1,269,1,1,1.0,1.0,0.32050808728672564,0.0,0,7,2,8,3,5,nan,nan,nan,nan,nan,nan,nan,nan,nan,nan,nan,nan,0.0,nan,nan,nan,nan,nan,nan,nan,nan,nan,nan,nan,nan,nan,nan,nan,nan,nan,nan,205.24045419250615,614.5665068321396,nan,614.8870149194263,nan,nan,nan,nan
1,270,1,1,1.0,1.0,0.3200031816959381,0.0,3,5,8,0,7,2,nan,nan,nan,nan,nan,nan,nan,nan,nan,nan,nan,nan,0.0,nan,nan,nan,nan,nan,nan,nan,nan,nan,nan,nan,nan,nan,nan,nan,nan,nan,nan,205.24045419250615,615.5749662090093,nan,615.8949693907052,nan,nan,nan,nan
1,271,1,1,1.0,1.0,0.25553607079200447,0.0,5,2,0,7,4,8,nan,nan,nan,nan,nan,nan,nan,nan,nan,nan,nan,nan,0.0,nan,nan,nan,nan,nan,nan,nan,nan,nan,nan,nan,nan,nan,nan,nan,nan,nan,nan,205.24045419250615,616.5834187434521,nan,616.8389548142441,nan,nan,nan,nan
1,272,1,1,1.0,1.0,0.2710501551628113,0.0,2,6,7,1,5,3,nan,nan,nan,nan,nan,nan,nan,nan,nan,nan,nan,nan,0.0,nan,nan,nan,nan,nan,nan,nan,nan,nan,nan,nan,nan,nan,nan,nan,nan,nan,nan,205.24045419250615,617.5918655758724,nan,617.8629157310352,nan,nan,nan,nan
1,273,1,1,1.0,1.0,0.3505806128960103,0.0,1,3,4,5,8,0,nan,nan,nan,nan,nan,nan,nan,nan,nan,nan,nan,nan,0.0,nan,nan,nan,nan,nan,nan,nan,nan,nan,nan,nan,nan,nan,nan,nan,nan,nan,nan,205.24045419250615,618.6003266633488,nan,618.9509072762448,nan,nan,nan,nan
1,274,1,1,1.0,1.0,0.21409390564076602,0.0,3,7,2,0,6,5,nan,nan,nan,nan,nan,nan,nan,nan,nan,nan,nan,nan,0.0,nan,nan,nan,nan,nan,nan,nan,nan,nan,nan,nan,nan,nan,nan,nan,nan,nan,nan,205.24045419250615,619.6087715001777,nan,619.8228654058184,nan,nan,nan,nan
1,275,1,1,1.0,1.0,0.0856124167330563,0.0,5,3,8,6,0,7,nan,nan,nan,nan,nan,nan,nan,nan,nan,nan,nan,nan,0.0,nan,nan,nan,nan,nan,nan,nan,nan,nan,nan,nan,nan,nan,nan,nan,nan,nan,nan,205.24045419250615,620.6172474124469,nan,620.7028598291799,nan,nan,nan,nan
1,276,1,1,nan,nan,nan,0.0,1,6,7,3,8,5,nan,nan,nan,nan,nan,nan,nan,nan,nan,nan,nan,nan,0.0,nan,nan,nan,nan,nan,nan,nan,nan,nan,nan,nan,nan,nan,nan,nan,nan,nan,nan,205.24045419250615,621.6257096403278,nan,nan,nan,nan,nan,nan
1,277,1,1,1.0,1.0,0.0926922126673162,0.0,5,7,6,8,4,2,nan,nan,nan,nan,nan,nan,nan,nan,nan,nan,nan,nan,0.0,nan,nan,nan,nan,nan,nan,nan,nan,nan,nan,nan,nan,nan,nan,nan,nan,nan,nan,205.24045419250615,622.6341624597553,nan,622.7268546724226,nan,nan,nan,nan
1,278,1,1,1.0,1.0,0.052163780899718404,0.0,6,0,8,4,2,7,nan,nan,nan,nan,nan,nan,nan,nan,nan,nan,nan,nan,0.0,nan,nan,nan,nan,nan,nan,nan,nan,nan,nan,nan,nan,nan,nan,nan,nan,nan,nan,205.24045419250615,623.6426152794156,nan,623.6947790603153,nan,nan,nan,nan
1,279,0,0,nan,nan,nan,0.0,0,2,3,7,5,1,nan,nan,nan,nan,nan,nan,nan,nan,nan,nan,nan,nan,0.0,nan,nan,nan,nan,nan,nan,nan,nan,nan,nan,nan,nan,nan,nan,nan,nan,nan,nan,205.24045419250615,624.6510703796521,nan,nan,nan,nan,nan,nan
1,280,1,1,1.0,1.0,0.5230279392562807,0.0,2,1,6,5,4,8,nan,nan,nan,nan,nan,nan,nan,nan,nan,nan,nan,nan,0.0,nan,nan,nan,nan,nan,nan,nan,nan,nan,nan,nan,nan,nan,nan,nan,nan,nan,nan,205.24045419250615,625.6596780065447,nan,626.182705945801,nan,nan,nan,nan
1,281,1,1,1.0,1.0,0.2827131587546319,0.0,3,5,4,8,0,6,nan,nan,nan,nan,nan,nan,nan,nan,nan,nan,nan,nan,0.0,nan,nan,nan,nan,nan,nan,nan,nan,nan,nan,nan,nan,nan,nan,nan,nan,nan,nan,205.24045419250615,626.6679882779717,nan,626.9507014367264,nan,nan,nan,nan
1,282,1,1,1.0,1.0,0.37824435997754335,0.0,4,8,3,6,1,5,nan,nan,nan,nan,nan,nan,nan,nan,nan,nan,nan,nan,0.0,nan,nan,nan,nan,nan,nan,nan,nan,nan,nan,nan,nan,nan,nan,nan,nan,nan,nan,205.24045419250615,627.6764388168231,nan,628.0546831768006,nan,nan,nan,nan
1,283,1,1,1.0,1.0,0.29780273442156613,0.0,6,4,2,3,8,0,nan,nan,nan,nan,nan,nan,nan,nan,nan,nan,nan,nan,0.0,nan,nan,nan,nan,nan,nan,nan,nan,nan,nan,nan,nan,nan,nan,nan,nan,nan,nan,205.24045419250615,628.6848999040667,nan,628.9827026384883,nan,nan,nan,nan
1,284,1,1,1.0,1.0,0.4892822331748903,0.0,7,3,8,2,0,1,nan,nan,nan,nan,nan,nan,nan,nan,nan,nan,nan,nan,0.0,nan,nan,nan,nan,nan,nan,nan,nan,nan,nan,nan,nan,nan,nan,nan,nan,nan,nan,205.24045419250615,629.6933923519682,nan,630.1826745851431,nan,nan,nan,nan
1,285,0,0,0.0,1.0,0.46477735275402665,0.0,3,1,2,8,7,0,nan,nan,nan,nan,nan,nan,nan,nan,nan,nan,nan,nan,0.0,nan,nan,nan,nan,nan,nan,nan,nan,nan,nan,nan,nan,nan,nan,nan,nan,nan,nan,205.24045419250615,630.7018554350361,nan,631.1666327877901,nan,nan,nan,nan
1,286,1,1,1.0,1.0,0.4963007334154099,0.0,4,6,1,3,2,5,nan,nan,nan,nan,nan,nan,nan,nan,nan,nan,nan,nan,0.0,nan,nan,nan,nan,nan,nan,nan,nan,nan,nan,nan,nan,nan,nan,nan,nan,nan,nan,205.24045419250615,631.7103122458793,nan,632.2066129792947,nan,nan,nan,nan
1,287,1,1,1.0,1.0,0.2798239930998534,0.0,7,1,8,0,6,4,nan,nan,nan,nan,nan,nan,nan,nan,nan,nan,nan,nan,0.0,nan,nan,nan,nan,nan,nan,nan,nan,nan,nan,nan,nan,nan,nan,nan,nan,nan,nan,205.24045419250615,632.7187704823446,nan,632.9985944754444,nan,nan,nan,nan
1,288,1,1,1.0,1.0,0.28734369250014424,0.0,6,2,0,4,7,8,nan,nan,nan,nan,nan,nan,nan,nan,nan,nan,nan,nan,0.0,nan,nan,nan,nan,nan,nan,nan,nan,nan,nan,nan,nan,nan,nan,nan,nan,nan,nan,205.24045419250615,633.7272241571918,nan,634.014567849692,nan,nan,nan,nan
1,289,1,1,1.0,1.0,0.35886380006559193,0.0,8,3,6,7,1,5,nan,nan,nan,nan,nan,nan,nan,nan,nan,nan,nan,nan,0.0,nan,nan,nan,nan,nan,nan,nan,nan,nan,nan,nan,nan,nan,nan,nan,nan,nan,nan,205.24045419250615,634.7356843892485,nan,635.0945481893141,nan,nan,nan,nan
1,290,1,1,1.0,1.0,0.31038802466355264,0.0,4,7,0,2,6,1,nan,nan,nan,nan,nan,nan,nan,nan,nan,nan,nan,nan,0.0,nan,nan,nan,nan,nan,nan,nan,nan,nan,nan,nan,nan,nan,nan,nan,nan,nan,nan,205.24045419250615,635.7441374938935,nan,636.054525518557,nan,nan,nan,nan
1,291,1,1,1.0,1.0,0.3658825852908194,0.0,7,6,4,1,3,8,nan,nan,nan,nan,nan,nan,nan,nan,nan,nan,nan,nan,0.0,nan,nan,nan,nan,nan,nan,nan,nan,nan,nan,nan,nan,nan,nan,nan,nan,nan,nan,205.24045419250615,636.7525925943628,nan,637.1184751796536,nan,nan,nan,nan
1,292,1,1,1.0,1.0,0.5014746603555977,0.0,8,3,5,6,0,2,nan,nan,nan,nan,nan,nan,nan,nan,nan,nan,nan,nan,0.0,nan,nan,nan,nan,nan,nan,nan,nan,nan,nan,nan,nan,nan,nan,nan,nan,nan,nan,205.24045419250615,637.7610083513428,nan,638.2624830116984,nan,nan,nan,nan
1,293,1,1,1.0,1.0,0.3809422261547297,0.0,7,1,3,8,5,0,nan,nan,nan,nan,nan,nan,nan,nan,nan,nan,nan,nan,0.0,nan,nan,nan,nan,nan,nan,nan,nan,nan,nan,nan,nan,nan,nan,nan,nan,nan,nan,205.24045419250615,638.7695093520451,nan,639.1504515781999,nan,nan,nan,nan
1,294,1,1,1.0,1.0,0.7325172547716647,0.0,0,8,2,4,6,7,nan,nan,nan,nan,nan,nan,nan,nan,nan,nan,nan,nan,0.0,nan,nan,nan,nan,nan,nan,nan,nan,nan,nan,nan,nan,nan,nan,nan,nan,nan,nan,205.24045419250615,639.7779687289149,nan,640.5104859836865,nan,nan,nan,nan
1,295,1,1,1.0,1.0,0.7159822408575565,0.0,1,5,3,6,4,8,nan,nan,nan,nan,nan,nan,nan,nan,nan,nan,nan,nan,0.0,nan,nan,nan,nan,nan,nan,nan,nan,nan,nan,nan,nan,nan,nan,nan,nan,nan,nan,205.24045419250615,640.7864218335599,nan,641.5024040744174,nan,nan,nan,nan
1,296,0,0,0.0,1.0,0.6675301280338317,1.0,2,4,8,1,6,0,1.0,1.0,1.0,1.0,1.0,1.0,1.0,1.0,0.0,0.0,0.0,1.0,3.0,2.0,4.0,1.0,3.0,8.0,0.0,2.0,3.0,4.0,5.0,6.0,1.0,3.5588240576907992,4.287749954732135,5.926221359753981,6.7906113234348595,7.534314615884796,2.5030954328831285,205.24045419250615,641.7948489945848,642.6032751291059,642.4623791226186,651.2043316387571,652.2073311368003,643.6284217610955,651.195993142901
1,297,1,1,1.0,1.0,0.2653425275348127,0.0,4,8,3,0,2,7,nan,nan,nan,nan,nan,nan,nan,nan,nan,nan,nan,nan,0.0,nan,nan,nan,nan,nan,nan,nan,nan,nan,nan,nan,nan,nan,nan,nan,nan,nan,nan,205.24045419250615,652.4128578992095,nan,652.6782004267443,nan,nan,nan,nan
1,298,1,1,1.0,1.0,0.28080728999339044,0.0,1,7,4,2,5,0,nan,nan,nan,nan,nan,nan,nan,nan,nan,nan,nan,nan,0.0,nan,nan,nan,nan,nan,nan,nan,nan,nan,nan,nan,nan,nan,nan,nan,nan,nan,nan,205.24045419250615,653.4212978894357,nan,653.702105179429,nan,nan,nan,nan
1,299,1,1,1.0,1.0,0.30431290809065104,0.0,5,3,7,6,8,2,nan,nan,nan,nan,nan,nan,nan,nan,nan,nan,nan,nan,0.0,nan,nan,nan,nan,nan,nan,nan,nan,nan,nan,nan,nan,nan,nan,nan,nan,nan,nan,205.24045419250615,654.4297632530797,nan,654.7340761611704,nan,nan,nan,nan
1,300,1,1,1.0,1.0,0.25585138727910817,0.0,7,2,6,4,5,8,nan,nan,nan,nan,nan,nan,nan,nan,nan,nan,nan,nan,0.0,nan,nan,nan,nan,nan,nan,nan,nan,nan,nan,nan,nan,nan,nan,nan,nan,nan,nan,205.24045419250615,655.4381792952772,nan,655.6940306825563,nan,nan,nan,nan
1,301,1,1,1.0,1.0,0.3193708381149918,0.0,2,5,4,3,8,0,nan,nan,nan,nan,nan,nan,nan,nan,nan,nan,nan,nan,0.0,nan,nan,nan,nan,nan,nan,nan,nan,nan,nan,nan,nan,nan,nan,nan,nan,nan,nan,205.24045419250615,656.446636391338,nan,656.766007229453,nan,nan,nan,nan
1,302,1,1,1.0,1.0,0.34289527242071927,0.0,5,3,1,8,4,2,nan,nan,nan,nan,nan,nan,nan,nan,nan,nan,nan,nan,0.0,nan,nan,nan,nan,nan,nan,nan,nan,nan,nan,nan,nan,nan,nan,nan,nan,nan,nan,205.24045419250615,657.4550920617767,nan,657.7979873341974,nan,nan,nan,nan
1,303,1,1,1.0,1.0,0.2704223731998354,0.0,3,2,7,0,6,1,nan,nan,nan,nan,nan,nan,nan,nan,nan,nan,nan,nan,0.0,nan,nan,nan,nan,nan,nan,nan,nan,nan,nan,nan,nan,nan,nan,nan,nan,nan,nan,205.24045419250615,658.4635505832266,nan,658.7339729564264,nan,nan,nan,nan
1,304,0,0,0.0,1.0,0.509939739247784,1.0,0,7,2,1,4,5,1.0,1.0,1.0,1.0,1.0,1.0,1.0,1.0,1.0,0.0,1.0,0.0,4.0,0.0,7.0,2.0,3.0,4.0,8.0,5.0,1.0,2.0,4.0,3.0,6.0,5.481061767088249,1.88287959783338,2.690165347419679,4.281367789255455,3.666581613011658,6.208986120764166,205.24045419250615,659.4720042580739,660.2804281120189,659.9819439973217,667.5479983817786,668.5557721019723,661.2972268399317,667.5396615962964
1,305,1,1,1.0,1.0,0.37692949594929814,0.0,1,0,5,6,7,8,nan,nan,nan,nan,nan,nan,nan,nan,nan,nan,nan,nan,0.0,nan,nan,nan,nan,nan,nan,nan,nan,nan,nan,nan,nan,nan,nan,nan,nan,nan,nan,205.24045419250615,668.7648129612207,nan,669.14174245717,nan,nan,nan,nan
1,306,1,1,1.0,1.0,0.30444376706145704,0.0,2,7,4,3,1,6,nan,nan,nan,nan,nan,nan,nan,nan,nan,nan,nan,nan,0.0,nan,nan,nan,nan,nan,nan,nan,nan,nan,nan,nan,nan,nan,nan,nan,nan,nan,nan,205.24045419250615,669.7732709124684,nan,670.0777146795299,nan,nan,nan,nan
1,307,1,1,1.0,1.0,0.15995868388563395,0.0,5,2,8,4,3,0,nan,nan,nan,nan,nan,nan,nan,nan,nan,nan,nan,nan,0.0,nan,nan,nan,nan,nan,nan,nan,nan,nan,nan,nan,nan,nan,nan,nan,nan,nan,nan,205.24045419250615,670.7817328551318,nan,670.9416915390175,nan,nan,nan,nan
1,308,1,1,1.0,1.0,0.11148262326605618,0.0,0,4,6,5,7,1,nan,nan,nan,nan,nan,nan,nan,nan,nan,nan,nan,nan,0.0,nan,nan,nan,nan,nan,nan,nan,nan,nan,nan,nan,nan,nan,nan,nan,nan,nan,nan,205.24045419250615,671.7901865299791,nan,671.9016691532452,nan,nan,nan,nan
1,309,1,1,1.0,1.0,0.15902328281663358,0.0,4,7,0,6,5,3,nan,nan,nan,nan,nan,nan,nan,nan,nan,nan,nan,nan,0.0,nan,nan,nan,nan,nan,nan,nan,nan,nan,nan,nan,nan,nan,nan,nan,nan,nan,nan,205.24045419250615,672.7986347880214,nan,672.9576580708381,nan,nan,nan,nan
1,310,1,1,1.0,1.0,0.11053524841554463,0.0,2,1,8,3,7,6,nan,nan,nan,nan,nan,nan,nan,nan,nan,nan,nan,nan,0.0,nan,nan,nan,nan,nan,nan,nan,nan,nan,nan,nan,nan,nan,nan,nan,nan,nan,nan,205.24045419250615,673.8070947348606,nan,673.9176299832761,nan,nan,nan,nan
1,311,1,1,1.0,1.0,0.0860454780049622,0.0,7,5,3,8,2,0,nan,nan,nan,nan,nan,nan,nan,nan,nan,nan,nan,nan,0.0,nan,nan,nan,nan,nan,nan,nan,nan,nan,nan,nan,nan,nan,nan,nan,nan,nan,nan,205.24045419250615,674.815552115906,nan,674.901597593911,nan,nan,nan,nan
1,312,1,1,1.0,1.0,0.06157138803973794,0.0,5,7,4,2,6,1,nan,nan,nan,nan,nan,nan,nan,nan,nan,nan,nan,nan,0.0,nan,nan,nan,nan,nan,nan,nan,nan,nan,nan,nan,nan,nan,nan,nan,nan,nan,nan,205.24045419250615,675.8240103523713,nan,675.885581740411,nan,nan,nan,nan
1,313,1,1,1.0,1.0,0.2291113520041108,0.0,6,3,5,0,2,8,nan,nan,nan,nan,nan,nan,nan,nan,nan,nan,nan,nan,0.0,nan,nan,nan,nan,nan,nan,nan,nan,nan,nan,nan,nan,nan,nan,nan,nan,nan,nan,205.24045419250615,676.8324640272185,nan,677.0615753792226,nan,nan,nan,nan
1,314,1,1,1.0,1.0,0.16459320881403983,0.0,1,0,8,6,3,2,nan,nan,nan,nan,nan,nan,nan,nan,nan,nan,nan,nan,0.0,nan,nan,nan,nan,nan,nan,nan,nan,nan,nan,nan,nan,nan,nan,nan,nan,nan,nan,205.24045419250615,677.8409262550995,nan,678.0055194639135,nan,nan,nan,nan
1,315,1,1,1.0,1.0,0.2521217577159405,0.0,4,8,6,0,2,5,nan,nan,nan,nan,nan,nan,nan,nan,nan,nan,nan,nan,0.0,nan,nan,nan,nan,nan,nan,nan,nan,nan,nan,nan,nan,nan,nan,nan,nan,nan,nan,205.24045419250615,678.8493844913319,nan,679.1015062490478,nan,nan,nan,nan
1,316,1,1,1.0,1.0,0.23564832448028028,0.0,3,7,5,1,0,4,nan,nan,nan,nan,nan,nan,nan,nan,nan,nan,nan,nan,0.0,nan,nan,nan,nan,nan,nan,nan,nan,nan,nan,nan,nan,nan,nan,nan,nan,nan,nan,205.24045419250615,679.8578407322057,nan,680.0934890566859,nan,nan,nan,nan
1,317,1,1,1.0,1.0,0.17115612514317036,0.0,6,0,4,5,8,1,nan,nan,nan,nan,nan,nan,nan,nan,nan,nan,nan,nan,0.0,nan,nan,nan,nan,nan,nan,nan,nan,nan,nan,nan,nan,nan,nan,nan,nan,nan,nan,205.24045419250615,680.8662938368507,nan,681.0374499619938,nan,nan,nan,nan
1,318,1,1,1.0,1.0,0.3226702574174851,0.0,1,7,0,6,5,4,nan,nan,nan,nan,nan,nan,nan,nan,nan,nan,nan,nan,0.0,nan,nan,nan,nan,nan,nan,nan,nan,nan,nan,nan,nan,nan,nan,nan,nan,nan,nan,205.24045419250615,681.8747515028808,nan,682.1974217602983,nan,nan,nan,nan
1,319,1,1,1.0,1.0,0.33020734786987305,0.0,8,2,7,0,4,3,nan,nan,nan,nan,nan,nan,nan,nan,nan,nan,nan,nan,0.0,nan,nan,nan,nan,nan,nan,nan,nan,nan,nan,nan,nan,nan,nan,nan,nan,nan,nan,205.24045419250615,682.8832094541285,nan,683.2134168019984,nan,nan,nan,nan
1,320,1,1,1.0,1.0,0.3857304179109633,0.0,0,3,4,7,1,8,nan,nan,nan,nan,nan,nan,nan,nan,nan,nan,nan,nan,0.0,nan,nan,nan,nan,nan,nan,nan,nan,nan,nan,nan,nan,nan,nan,nan,nan,nan,nan,205.24045419250615,683.891646023374,nan,684.277376441285,nan,nan,nan,nan
1,321,1,1,1.0,1.0,0.27324197511188686,0.0,4,8,1,6,5,3,nan,nan,nan,nan,nan,nan,nan,nan,nan,nan,nan,nan,0.0,nan,nan,nan,nan,nan,nan,nan,nan,nan,nan,nan,nan,nan,nan,nan,nan,nan,nan,205.24045419250615,684.900122791063,nan,685.1733647661749,nan,nan,nan,nan
1,322,1,1,1.0,1.0,0.27276101778261364,0.0,3,1,5,2,4,7,nan,nan,nan,nan,nan,nan,nan,nan,nan,nan,nan,nan,0.0,nan,nan,nan,nan,nan,nan,nan,nan,nan,nan,nan,nan,nan,nan,nan,nan,nan,nan,205.24045419250615,685.9085804570932,nan,686.1813414748758,nan,nan,nan,nan
1,323,1,1,1.0,1.0,0.2803146436344832,0.0,6,5,4,1,8,0,nan,nan,nan,nan,nan,nan,nan,nan,nan,nan,nan,nan,0.0,nan,nan,nan,nan,nan,nan,nan,nan,nan,nan,nan,nan,nan,nan,nan,nan,nan,nan,205.24045419250615,686.9170264343265,nan,687.197341077961,nan,nan,nan,nan
1,324,0,0,1.0,0.0,0.2717762952670455,1.0,3,4,0,5,7,2,1.0,1.0,1.0,1.0,1.0,1.0,0.0,1.0,1.0,1.0,0.0,0.0,3.0,8.0,4.0,0.0,5.0,6.0,7.0,6.0,3.0,2.0,1.0,5.0,4.0,5.546792994718999,3.4675291019957513,2.4929214869625866,1.837653064634651,4.9553467952646315,4.394582372391596,205.24045419250615,687.9255325668491,688.7339515741915,688.1973088621162,695.3347132944036,696.3387419898063,689.7507049718406,695.3263753685169
1,325,1,1,1.0,1.0,0.3339321305975318,0.0,6,3,4,0,1,5,nan,nan,nan,nan,nan,nan,nan,nan,nan,nan,nan,nan,0.0,nan,nan,nan,nan,nan,nan,nan,nan,nan,nan,nan,nan,nan,nan,nan,nan,nan,nan,205.24045419250615,696.543197645573,nan,696.8771297761705,nan,nan,nan,nan
1,326,1,1,1.0,1.0,0.26143385749310255,0.0,4,0,8,6,2,7,nan,nan,nan,nan,nan,nan,nan,nan,nan,nan,nan,nan,0.0,nan,nan,nan,nan,nan,nan,nan,nan,nan,nan,nan,nan,nan,nan,nan,nan,nan,nan,205.24045419250615,697.5516755536664,nan,697.8131094111595,nan,nan,nan,nan
1,327,1,1,1.0,1.0,0.26089844666421413,0.0,7,1,0,8,5,3,nan,nan,nan,nan,nan,nan,nan,nan,nan,nan,nan,nan,0.0,nan,nan,nan,nan,nan,nan,nan,nan,nan,nan,nan,nan,nan,nan,nan,nan,nan,nan,205.24045419250615,698.5601645803545,nan,698.8210630270187,nan,nan,nan,nan
1,328,1,1,1.0,1.0,0.3244079190772027,0.0,8,5,7,3,1,6,nan,nan,nan,nan,nan,nan,nan,nan,nan,nan,nan,nan,0.0,nan,nan,nan,nan,nan,nan,nan,nan,nan,nan,nan,nan,nan,nan,nan,nan,nan,nan,205.24045419250615,699.5686270932201,nan,699.8930350122973,nan,nan,nan,nan
1,329,1,1,1.0,1.0,0.2919457165990025,0.0,2,7,1,5,0,4,nan,nan,nan,nan,nan,nan,nan,nan,nan,nan,nan,nan,0.0,nan,nan,nan,nan,nan,nan,nan,nan,nan,nan,nan,nan,nan,nan,nan,nan,nan,nan,205.24045419250615,700.5770779170562,nan,700.8690236336552,nan,nan,nan,nan
1,330,0,0,1.0,0.0,0.2274768950883299,1.0,5,8,4,6,2,7,1.0,1.0,1.0,1.0,1.0,1.0,1.0,1.0,0.0,0.0,0.0,0.0,2.0,5.0,8.0,5.0,7.0,5.0,4.0,6.0,2.0,1.0,3.0,4.0,5.0,5.334926261333749,2.806974994484335,1.5378928591962904,3.7442700637038797,4.50344325019978,4.894564553862438,205.24045419250615,701.5855033674743,702.3939098303672,701.8129802625626,708.7780271735974,709.7856378187425,703.402373768622,708.7696935243439
1,331,1,1,1.0,1.0,0.38593340665102005,0.0,7,0,3,2,1,4,nan,nan,nan,nan,nan,nan,nan,nan,nan,nan,nan,nan,0.0,nan,nan,nan,nan,nan,nan,nan,nan,nan,nan,nan,nan,nan,nan,nan,nan,nan,nan,205.24045419250615,709.9948594290763,nan,710.3807928357273,nan,nan,nan,nan
1,332,1,1,1.0,1.0,0.24143007723614573,0.0,2,6,7,4,0,5,nan,nan,nan,nan,nan,nan,nan,nan,nan,nan,nan,nan,0.0,nan,nan,nan,nan,nan,nan,nan,nan,nan,nan,nan,nan,nan,nan,nan,nan,nan,nan,205.24045419250615,711.0033225119114,nan,711.2447525891475,nan,nan,nan,nan
1,333,1,1,1.0,1.0,0.4329432169906795,0.0,5,7,8,2,3,0,nan,nan,nan,nan,nan,nan,nan,nan,nan,nan,nan,nan,0.0,nan,nan,nan,nan,nan,nan,nan,nan,nan,nan,nan,nan,nan,nan,nan,nan,nan,nan,205.24045419250615,712.0117764719762,nan,712.4447196889669,nan,nan,nan,nan
1,334,1,1,1.0,1.0,0.5124705389607698,0.0,6,5,2,1,4,3,nan,nan,nan,nan,nan,nan,nan,nan,nan,nan,nan,nan,0.0,nan,nan,nan,nan,nan,nan,nan,nan,nan,nan,nan,nan,nan,nan,nan,nan,nan,nan,205.24045419250615,713.0202463972382,nan,713.532716936199,nan,nan,nan,nan
1,335,0,0,0.0,1.0,0.5840234328061342,1.0,3,1,4,6,8,2,1.0,1.0,1.0,1.0,1.0,1.0,1.0,1.0,0.0,0.0,0.0,1.0,3.0,3.0,1.0,6.0,4.0,5.0,2.0,4.0,3.0,2.0,1.0,6.0,5.0,5.692076632753015,4.371205902891234,3.5956624881364405,2.7963597194757313,7.402891788398847,6.243246140424162,205.24045419250615,714.0286935148761,714.8371307682246,714.6127169476822,723.2964710497763,724.2932796820533,715.8539277857635,723.2881459533237
1,336,1,1,1.0,1.0,0.3477992136031389,0.0,7,3,8,2,4,5,nan,nan,nan,nan,nan,nan,nan,nan,nan,nan,nan,nan,0.0,nan,nan,nan,nan,nan,nan,nan,nan,nan,nan,nan,nan,nan,nan,nan,nan,nan,nan,205.24045419250615,724.4966465549078,nan,724.8444457685109,nan,nan,nan,nan
1,337,1,1,1.0,1.0,0.24331342335790396,0.0,8,7,5,3,1,2,nan,nan,nan,nan,nan,nan,nan,nan,nan,nan,nan,nan,0.0,nan,nan,nan,nan,nan,nan,nan,nan,nan,nan,nan,nan,nan,nan,nan,nan,nan,nan,205.24045419250615,725.505100229755,nan,725.748413653113,nan,nan,nan,nan
1,338,1,1,1.0,1.0,0.22683200729079545,0.0,5,1,6,4,3,0,nan,nan,nan,nan,nan,nan,nan,nan,nan,nan,nan,nan,0.0,nan,nan,nan,nan,nan,nan,nan,nan,nan,nan,nan,nan,nan,nan,nan,nan,nan,nan,205.24045419250615,726.5135567556135,nan,726.7403887629043,nan,nan,nan,nan
1,339,1,1,1.0,1.0,0.24235407426021993,0.0,6,3,7,0,4,5,nan,nan,nan,nan,nan,nan,nan,nan,nan,nan,nan,nan,0.0,nan,nan,nan,nan,nan,nan,nan,nan,nan,nan,nan,nan,nan,nan,nan,nan,nan,nan,205.24045419250615,727.5220144218765,nan,727.7643684961367,nan,nan,nan,nan
1,340,1,1,1.0,1.0,0.22588235163129866,0.0,0,8,5,1,2,7,nan,nan,nan,nan,nan,nan,nan,nan,nan,nan,nan,nan,0.0,nan,nan,nan,nan,nan,nan,nan,nan,nan,nan,nan,nan,nan,nan,nan,nan,nan,nan,205.24045419250615,728.530470947735,nan,728.7563532993663,nan,nan,nan,nan
1,341,1,1,1.0,1.0,0.28139829472638667,0.0,5,0,3,2,8,6,nan,nan,nan,nan,nan,nan,nan,nan,nan,nan,nan,nan,0.0,nan,nan,nan,nan,nan,nan,nan,nan,nan,nan,nan,nan,nan,nan,nan,nan,nan,nan,205.24045419250615,729.5389283287805,nan,729.8203266235068,nan,nan,nan,nan
1,342,1,1,1.0,1.0,0.26493826089426875,0.0,2,4,6,3,0,1,nan,nan,nan,nan,nan,nan,nan,nan,nan,nan,nan,nan,0.0,nan,nan,nan,nan,nan,nan,nan,nan,nan,nan,nan,nan,nan,nan,nan,nan,nan,nan,205.24045419250615,730.547377157025,nan,730.8123154179193,nan,nan,nan,nan
1,343,0,0,0.0,1.0,0.46443694783374667,0.0,8,3,2,5,7,4,nan,nan,nan,nan,nan,nan,nan,nan,nan,nan,nan,nan,0.0,nan,nan,nan,nan,nan,nan,nan,nan,nan,nan,nan,nan,nan,nan,nan,nan,nan,nan,205.24045419250615,731.555871600518,nan,732.0203085483517,nan,nan,nan,nan
1,344,1,1,1.0,1.0,0.5998662328347564,0.0,3,6,7,0,4,2,nan,nan,nan,nan,nan,nan,nan,nan,nan,nan,nan,nan,0.0,nan,nan,nan,nan,nan,nan,nan,nan,nan,nan,nan,nan,nan,nan,nan,nan,nan,nan,205.24045419250615,732.5643837202806,nan,733.1642499531154,nan,nan,nan,nan
1,345,1,1,1.0,1.0,0.5355160115286708,0.0,2,0,1,8,5,4,nan,nan,nan,nan,nan,nan,nan,nan,nan,nan,nan,nan,0.0,nan,nan,nan,nan,nan,nan,nan,nan,nan,nan,nan,nan,nan,nan,nan,nan,nan,nan,205.24045419250615,733.5727578531951,nan,734.1082738647237,nan,nan,nan,nan
1,346,1,1,1.0,1.0,0.48701657308265567,0.0,1,3,7,2,0,5,nan,nan,nan,nan,nan,nan,nan,nan,nan,nan,nan,nan,0.0,nan,nan,nan,nan,nan,nan,nan,nan,nan,nan,nan,nan,nan,nan,nan,nan,nan,nan,205.24045419250615,734.5812123832293,nan,735.0682289563119,nan,nan,nan,nan
1,347,1,1,1.0,1.0,0.4064919843804091,0.0,8,1,3,5,4,6,nan,nan,nan,nan,nan,nan,nan,nan,nan,nan,nan,nan,0.0,nan,nan,nan,nan,nan,nan,nan,nan,nan,nan,nan,nan,nan,nan,nan,nan,nan,nan,205.24045419250615,735.5897085375618,nan,735.9962005219422,nan,nan,nan,nan
1,348,1,1,1.0,1.0,0.4060218606609851,0.0,1,6,4,0,5,8,nan,nan,nan,nan,nan,nan,nan,nan,nan,nan,nan,nan,0.0,nan,nan,nan,nan,nan,nan,nan,nan,nan,nan,nan,nan,nan,nan,nan,nan,nan,nan,205.24045419250615,736.5981647782028,nan,737.0041866388638,nan,nan,nan,nan
1,349,0,0,0.0,1.0,0.573523051571101,1.0,8,5,0,1,2,3,1.0,1.0,1.0,1.0,1.0,1.0,1.0,0.0,1.0,1.0,0.0,0.0,3.0,8.0,6.0,0.0,1.0,5.0,8.0,3.0,6.0,5.0,1.0,4.0,2.0,7.26446272036992,10.264132293872535,9.359951727557927,4.480863054748625,8.048543913522735,5.393226169515401,205.24045419250615,737.6066224444658,738.4149964062963,738.1801454960369,749.7413769066334,750.750326649053,739.4401299240999,749.7330498145893
1,350,1,1,nan,nan,nan,0.0,5,4,8,6,3,2,nan,nan,nan,nan,nan,nan,nan,nan,nan,nan,nan,nan,0.0,nan,nan,nan,nan,nan,nan,nan,nan,nan,nan,nan,nan,nan,nan,nan,nan,nan,nan,205.24045419250615,750.9582225615159,nan,nan,nan,nan,nan,nan
1,351,1,1,1.0,1.0,0.07714534224942327,0.0,1,0,7,3,8,4,nan,nan,nan,nan,nan,nan,nan,nan,nan,nan,nan,nan,0.0,nan,nan,nan,nan,nan,nan,nan,nan,nan,nan,nan,nan,nan,nan,nan,nan,nan,nan,205.24045419250615,751.9666785171721,nan,752.0438238594215,nan,nan,nan,nan
1,352,1,1,1.0,1.0,0.37266074935905635,0.0,6,4,3,2,5,7,nan,nan,nan,nan,nan,nan,nan,nan,nan,nan,nan,nan,0.0,nan,nan,nan,nan,nan,nan,nan,nan,nan,nan,nan,nan,nan,nan,nan,nan,nan,nan,205.24045419250615,752.9751367536373,nan,753.3477975029964,nan,nan,nan,nan
1,353,1,1,1.0,1.0,0.46016392461024225,0.0,4,8,0,3,2,6,nan,nan,nan,nan,nan,nan,nan,nan,nan,nan,nan,nan,0.0,nan,nan,nan,nan,nan,nan,nan,nan,nan,nan,nan,nan,nan,nan,nan,nan,nan,nan,205.24045419250615,753.9835941346828,nan,754.443758059293,nan,nan,nan,nan
1,354,1,1,1.0,1.0,0.4917178105097264,0.0,3,7,5,1,0,4,nan,nan,nan,nan,nan,nan,nan,nan,nan,nan,nan,nan,0.0,nan,nan,nan,nan,nan,nan,nan,nan,nan,nan,nan,nan,nan,nan,nan,nan,nan,nan,205.24045419250615,754.9920466691256,nan,755.4837644796353,nan,nan,nan,nan
1,355,1,1,1.0,1.0,0.42721420736052096,0.0,7,8,2,0,4,5,nan,nan,nan,nan,nan,nan,nan,nan,nan,nan,nan,nan,0.0,nan,nan,nan,nan,nan,nan,nan,nan,nan,nan,nan,nan,nan,nan,nan,nan,nan,nan,205.24045419250615,756.0005279981997,nan,756.4277422055602,nan,nan,nan,nan
1,356,1,1,1.0,1.0,0.3787210409063846,0.0,2,6,4,1,5,7,nan,nan,nan,nan,nan,nan,nan,nan,nan,nan,nan,nan,0.0,nan,nan,nan,nan,nan,nan,nan,nan,nan,nan,nan,nan,nan,nan,nan,nan,nan,nan,205.24045419250615,757.008963997243,nan,757.3876850381494,nan,nan,nan,nan
1,357,1,1,1.0,1.0,0.36227383674122393,0.0,7,3,8,4,2,6,nan,nan,nan,nan,nan,nan,nan,nan,nan,nan,nan,nan,0.0,nan,nan,nan,nan,nan,nan,nan,nan,nan,nan,nan,nan,nan,nan,nan,nan,nan,nan,205.24045419250615,758.0174091190565,nan,758.3796829557978,nan,nan,nan,nan
1,358,1,1,1.0,1.0,0.27375201252289116,0.0,0,1,3,2,7,5,nan,nan,nan,nan,nan,nan,nan,nan,nan,nan,nan,nan,0.0,nan,nan,nan,nan,nan,nan,nan,nan,nan,nan,nan,nan,nan,nan,nan,nan,nan,nan,205.24045419250615,759.0259143963922,nan,759.2996664089151,nan,nan,nan,nan
1,359,1,1,1.0,1.0,0.2893119971267879,0.0,4,7,6,8,1,2,nan,nan,nan,nan,nan,nan,nan,nan,nan,nan,nan,nan,0.0,nan,nan,nan,nan,nan,nan,nan,nan,nan,nan,nan,nan,nan,nan,nan,nan,nan,nan,205.24045419250615,760.0343318639789,nan,760.3236438611057,nan,nan,nan,nan
1,360,1,1,1.0,1.0,0.2888147891499102,0.0,6,3,4,2,5,8,nan,nan,nan,nan,nan,nan,nan,nan,nan,nan,nan,nan,0.0,nan,nan,nan,nan,nan,nan,nan,nan,nan,nan,nan,nan,nan,nan,nan,nan,nan,nan,205.24045419250615,761.0428143336903,nan,761.3316291228402,nan,nan,nan,nan
1,361,1,1,1.0,1.0,0.2482695367652923,0.0,1,2,6,8,3,7,nan,nan,nan,nan,nan,nan,nan,nan,nan,nan,nan,nan,0.0,nan,nan,nan,nan,nan,nan,nan,nan,nan,nan,nan,nan,nan,nan,nan,nan,nan,nan,205.24045419250615,762.0512990839779,nan,762.2995686207432,nan,nan,nan,nan
1,362,1,1,1.0,1.0,0.2638352233916521,0.0,2,1,8,4,0,3,nan,nan,nan,nan,nan,nan,nan,nan,nan,nan,nan,nan,0.0,nan,nan,nan,nan,nan,nan,nan,nan,nan,nan,nan,nan,nan,nan,nan,nan,nan,nan,205.24045419250615,763.0597159813624,nan,763.323551204754,nan,nan,nan,nan
1,363,1,1,1.0,1.0,0.3673491207882762,0.0,4,7,5,3,8,1,nan,nan,nan,nan,nan,nan,nan,nan,nan,nan,nan,nan,0.0,nan,nan,nan,nan,nan,nan,nan,nan,nan,nan,nan,nan,nan,nan,nan,nan,nan,nan,205.24045419250615,764.06820073165,nan,764.4355498524383,nan,nan,nan,nan
1,364,1,1,1.0,1.0,0.3748602671548724,0.0,7,4,2,0,1,5,nan,nan,nan,nan,nan,nan,nan,nan,nan,nan,nan,nan,0.0,nan,nan,nan,nan,nan,nan,nan,nan,nan,nan,nan,nan,nan,nan,nan,nan,nan,nan,205.24045419250615,765.0766564023215,nan,765.4515166694764,nan,nan,nan,nan
1,365,1,1,1.0,1.0,0.33438799949362874,0.0,2,6,7,8,4,3,nan,nan,nan,nan,nan,nan,nan,nan,nan,nan,nan,nan,0.0,nan,nan,nan,nan,nan,nan,nan,nan,nan,nan,nan,nan,nan,nan,nan,nan,nan,nan,205.24045419250615,766.085109221749,nan,766.4194972212426,nan,nan,nan,nan
1,366,1,1,1.0,1.0,0.3178700911812484,0.0,5,0,6,3,7,8,nan,nan,nan,nan,nan,nan,nan,nan,nan,nan,nan,nan,0.0,nan,nan,nan,nan,nan,nan,nan,nan,nan,nan,nan,nan,nan,nan,nan,nan,nan,nan,205.24045419250615,767.0935708794277,nan,767.411440970609,nan,nan,nan,nan
1,367,1,1,1.0,1.0,0.27742975438013673,0.0,4,3,5,8,0,1,nan,nan,nan,nan,nan,nan,nan,nan,nan,nan,nan,nan,0.0,nan,nan,nan,nan,nan,nan,nan,nan,nan,nan,nan,nan,nan,nan,nan,nan,nan,nan,205.24045419250615,768.1020271200687,nan,768.3794568744488,nan,nan,nan,nan
1,368,0,0,0.0,1.0,0.4689699786249548,1.0,1,2,8,0,5,4,1.0,1.0,1.0,1.0,1.0,1.0,1.0,1.0,0.0,0.0,0.0,1.0,3.0,1.0,2.0,0.0,7.0,6.0,4.0,1.0,2.0,4.0,5.0,6.0,3.0,2.4655858855694532,3.2336760284379125,5.087815640727058,5.775599293643609,6.344018551753834,4.161571473348886,205.24045419250615,769.110473097302,769.9188852622174,769.579443075927,777.3197887893766,778.3305218089372,770.9356962493621,777.3114528590813
1,369,1,1,1.0,1.0,0.49861428956501186,0.0,8,1,0,6,2,3,nan,nan,nan,nan,nan,nan,nan,nan,nan,nan,nan,nan,0.0,nan,nan,nan,nan,nan,nan,nan,nan,nan,nan,nan,nan,nan,nan,nan,nan,nan,nan,205.24045419250615,778.5366412864532,nan,779.0352555760182,nan,nan,nan,nan
1,370,1,1,1.0,1.0,0.34610773739404976,0.0,6,5,7,4,8,2,nan,nan,nan,nan,nan,nan,nan,nan,nan,nan,nan,nan,0.0,nan,nan,nan,nan,nan,nan,nan,nan,nan,nan,nan,nan,nan,nan,nan,nan,nan,nan,205.24045419250615,779.5450980972964,nan,779.8912058346905,nan,nan,nan,nan
1,371,1,1,1.0,1.0,0.20961390249431133,0.0,0,7,8,3,4,5,nan,nan,nan,nan,nan,nan,nan,nan,nan,nan,nan,nan,0.0,nan,nan,nan,nan,nan,nan,nan,nan,nan,nan,nan,nan,nan,nan,nan,nan,nan,nan,205.24045419250615,780.553553767968,nan,780.7631676704623,nan,nan,nan,nan
1,372,1,1,1.0,1.0,0.39311612234450877,0.0,8,3,2,6,0,4,nan,nan,nan,nan,nan,nan,nan,nan,nan,nan,nan,nan,0.0,nan,nan,nan,nan,nan,nan,nan,nan,nan,nan,nan,nan,nan,nan,nan,nan,nan,nan,205.24045419250615,781.5620028811973,nan,781.9551190035418,nan,nan,nan,nan
1,373,1,1,1.0,1.0,0.4566677890252322,0.0,4,1,0,2,8,7,nan,nan,nan,nan,nan,nan,nan,nan,nan,nan,nan,nan,0.0,nan,nan,nan,nan,nan,nan,nan,nan,nan,nan,nan,nan,nan,nan,nan,nan,nan,nan,205.24045419250615,782.5704311823938,nan,783.027098971419,nan,nan,nan,nan
1,374,1,1,1.0,1.0,0.39221293735317886,0.0,5,3,6,0,2,4,nan,nan,nan,nan,nan,nan,nan,nan,nan,nan,nan,nan,0.0,nan,nan,nan,nan,nan,nan,nan,nan,nan,nan,nan,nan,nan,nan,nan,nan,nan,nan,205.24045419250615,783.5788817212451,nan,783.9710946585983,nan,nan,nan,nan
1,375,1,1,1.0,1.0,0.33569117449223995,0.0,2,7,4,8,6,0,nan,nan,nan,nan,nan,nan,nan,nan,nan,nan,nan,nan,0.0,nan,nan,nan,nan,nan,nan,nan,nan,nan,nan,nan,nan,nan,nan,nan,nan,nan,nan,205.24045419250615,784.5873627653345,nan,784.9230539398268,nan,nan,nan,nan
1,376,0,0,nan,nan,nan,0.0,6,5,1,0,4,8,nan,nan,nan,nan,nan,nan,nan,nan,nan,nan,nan,nan,0.0,nan,nan,nan,nan,nan,nan,nan,nan,nan,nan,nan,nan,nan,nan,nan,nan,nan,nan,205.24045419250615,785.5957999045495,nan,nan,nan,nan,nan,nan
1,377,1,1,1.0,1.0,0.6947114926297218,0.0,3,2,0,8,5,4,nan,nan,nan,nan,nan,nan,nan,nan,nan,nan,nan,nan,0.0,nan,nan,nan,nan,nan,nan,nan,nan,nan,nan,nan,nan,nan,nan,nan,nan,nan,nan,205.24045419250615,786.6042510136031,nan,787.2989625062328,nan,nan,nan,nan
1,378,1,1,1.0,1.0,0.47828949079848826,0.0,4,7,6,1,3,5,nan,nan,nan,nan,nan,nan,nan,nan,nan,nan,nan,nan,0.0,nan,nan,nan,nan,nan,nan,nan,nan,nan,nan,nan,nan,nan,nan,nan,nan,nan,nan,205.24045419250615,787.6127101052552,nan,788.0909995960537,nan,nan,nan,nan
1,379,1,1,1.0,1.0,0.31778969429433346,0.0,5,6,1,3,4,8,nan,nan,nan,nan,nan,nan,nan,nan,nan,nan,nan,nan,0.0,nan,nan,nan,nan,nan,nan,nan,nan,nan,nan,nan,nan,nan,nan,nan,nan,nan,nan,205.24045419250615,788.6211948555429,nan,788.9389845498372,nan,nan,nan,nan
