block,trial,freq_trials,correct_response,actual_response,acc,rts,probe_trials,fast_rt_trigger,slow_rt_trigger,rt_triggered,rts_runningavg,rts_runningstd,rts_runningfastthresh,rts_runningslowthresh,rts_runningstd,rts_trailingavg,trials_colorind0,trials_colorind1,trials_colorind2,trials_colorind3,trials_colorind4,trials_colorind5,wholereport_resp0,wholereport_resp1,wholereport_resp2,wholereport_resp3,wholereport_resp4,wholereport_resp5,wholereport_respacc0,wholereport_respacc1,wholereport_respacc2,wholereport_respacc3,wholereport_respacc4,wholereport_respacc5,wholereport_respacc_total,wholereport_respcolorind0,wholereport_respcolorind1,wholereport_respcolorind2,wholereport_respcolorind3,wholereport_respcolorind4,wholereport_respcolorind5,wholereport_resporder0,wholereport_resporder1,wholereport_resporder2,wholereport_resporder3,wholereport_resporder4,wholereport_resporder5,wholereport_rts0,wholereport_rts1,wholereport_rts2,wholereport_rts3,wholereport_rts4,wholereport_rts5,time_blockstart,time_encarray_offset,time_encarray_onset,time_response,time_iti_offset,time_iti_onset,time_memprobe_offset,time_memprobe_onset
1,1,1,1,1.0,1.0,0.47005534009076655,0,nan,nan,nan,nan,nan,nan,nan,nan,nan,0,7,3,6,2,5,nan,nan,nan,nan,nan,nan,nan,nan,nan,nan,nan,nan,0.0,nan,nan,nan,nan,nan,nan,nan,nan,nan,nan,nan,nan,nan,nan,nan,nan,nan,nan,1744.0331581225619,1745.0590927607846,nan,1745.5291481008753,nan,nan,nan,nan
1,2,1,1,1.0,1.0,0.35717203887179494,0,nan,nan,nan,nan,nan,nan,nan,nan,nan,1,0,6,3,4,7,nan,nan,nan,nan,nan,nan,nan,nan,nan,nan,nan,nan,0.0,nan,nan,nan,nan,nan,nan,nan,nan,nan,nan,nan,nan,nan,nan,nan,nan,nan,nan,1744.0331581225619,1746.075964188436,nan,1746.4331362273078,nan,nan,nan,nan
1,3,1,1,1.0,1.0,0.3404060967732221,0,nan,nan,nan,nan,nan,nan,nan,nan,nan,4,6,0,7,3,2,nan,nan,nan,nan,nan,nan,nan,nan,nan,nan,nan,nan,0.0,nan,nan,nan,nan,nan,nan,nan,nan,nan,nan,nan,nan,nan,nan,nan,nan,nan,nan,1744.0331581225619,1747.0927058972884,nan,1747.4331119940616,nan,nan,nan,nan
1,4,0,0,0.0,1.0,0.3875781272072345,0,nan,nan,nan,nan,nan,nan,nan,nan,nan,8,7,6,5,2,0,nan,nan,nan,nan,nan,nan,nan,nan,nan,nan,nan,nan,0.0,nan,nan,nan,nan,nan,nan,nan,nan,nan,nan,nan,nan,nan,nan,nan,nan,nan,nan,1744.0331581225619,1748.1095054803882,nan,1748.4970836075954,nan,nan,nan,nan
1,5,1,1,1.0,1.0,0.3227629135362804,0,nan,nan,nan,nan,nan,nan,nan,nan,nan,2,3,4,0,8,7,nan,nan,nan,nan,nan,nan,nan,nan,nan,nan,nan,nan,0.0,nan,nan,nan,nan,nan,nan,nan,nan,nan,nan,nan,nan,nan,nan,nan,nan,nan,nan,1744.0331581225619,1749.1262922345195,nan,1749.4490551480558,nan,nan,nan,nan
1,6,1,1,1.0,1.0,0.3059336803853512,0,nan,nan,nan,nan,nan,nan,nan,nan,nan,5,1,8,4,2,0,nan,nan,nan,nan,nan,nan,nan,nan,nan,nan,nan,nan,0.0,nan,nan,nan,nan,nan,nan,nan,nan,nan,nan,nan,nan,nan,nan,nan,nan,nan,nan,1744.0331581225619,1750.1430998004507,nan,1750.449033480836,nan,nan,nan,nan
1,7,1,1,1.0,1.0,0.27313877013511956,0,nan,nan,nan,nan,nan,nan,nan,nan,nan,6,3,1,8,4,2,nan,nan,nan,nan,nan,nan,nan,nan,nan,nan,nan,nan,0.0,nan,nan,nan,nan,nan,nan,nan,nan,nan,nan,nan,nan,nan,nan,nan,nan,nan,nan,1744.0331581225619,1751.1598902607802,nan,1751.4330290309153,nan,nan,nan,nan
1,8,1,1,1.0,1.0,0.5042914117220789,0,nan,nan,nan,nan,nan,nan,nan,nan,nan,3,0,4,2,1,7,nan,nan,nan,nan,nan,nan,nan,nan,nan,nan,nan,nan,0.0,nan,nan,nan,nan,nan,nan,nan,nan,nan,nan,nan,nan,nan,nan,nan,nan,nan,nan,1744.0331581225619,1752.1766955459025,nan,1752.6809869576246,nan,nan,nan,nan
1,9,1,1,1.0,1.0,0.45547066954895854,0,nan,nan,nan,nan,nan,nan,nan,nan,nan,0,5,1,7,3,8,nan,nan,nan,nan,nan,nan,nan,nan,nan,nan,nan,nan,0.0,nan,nan,nan,nan,nan,nan,nan,nan,nan,nan,nan,nan,nan,nan,nan,nan,nan,nan,1744.0331581225619,1753.193486006232,nan,1753.648956675781,nan,nan,nan,nan
1,10,1,1,1.0,1.0,0.5266064675524831,0,nan,nan,nan,nan,nan,nan,nan,nan,nan,1,4,8,5,0,6,nan,nan,nan,nan,nan,nan,nan,nan,nan,nan,nan,nan,0.0,nan,nan,nan,nan,nan,nan,nan,nan,nan,nan,nan,nan,nan,nan,nan,nan,nan,nan,1744.0331581225619,1754.2102947125677,nan,1754.7369011801202,nan,nan,nan,nan
1,11,1,1,1.0,1.0,0.4697993234731257,0,nan,nan,nan,nan,nan,nan,nan,nan,nan,4,7,3,6,1,5,nan,nan,nan,nan,nan,nan,nan,nan,nan,nan,nan,nan,0.0,nan,nan,nan,nan,nan,nan,nan,nan,nan,nan,nan,nan,nan,nan,nan,nan,nan,nan,1744.0331581225619,1755.2270920150913,nan,1755.6968913385645,nan,nan,nan,nan
1,12,1,1,1.0,1.0,0.3250203060451895,0,nan,nan,nan,nan,nan,nan,nan,nan,nan,3,8,0,5,2,4,nan,nan,nan,nan,nan,nan,nan,nan,nan,nan,nan,nan,0.0,nan,nan,nan,nan,nan,nan,nan,nan,nan,nan,nan,nan,nan,nan,nan,nan,nan,nan,1744.0331581225619,1756.243865654571,nan,1756.5688859606162,nan,nan,nan,nan
1,13,0,0,0.0,1.0,0.6361755246762186,0,nan,nan,nan,nan,nan,nan,nan,nan,nan,4,1,6,2,5,8,nan,nan,nan,nan,nan,nan,nan,nan,nan,nan,nan,nan,0.0,nan,nan,nan,nan,nan,nan,nan,nan,nan,nan,nan,nan,nan,nan,nan,nan,nan,nan,1744.0331581225619,1757.260686334921,nan,1757.8968618595973,nan,nan,nan,nan
1,14,1,1,1.0,1.0,0.443338967859745,0,nan,nan,nan,nan,nan,nan,nan,nan,nan,0,2,5,8,3,4,nan,nan,nan,nan,nan,nan,nan,nan,nan,nan,nan,nan,0.0,nan,nan,nan,nan,nan,nan,nan,nan,nan,nan,nan,nan,nan,nan,nan,nan,nan,nan,1744.0331581225619,1758.27749931789,nan,1758.7208382857498,nan,nan,nan,nan
1,15,1,1,1.0,1.0,0.4025143210310489,0,nan,nan,nan,nan,nan,nan,nan,nan,nan,5,6,2,4,8,7,nan,nan,nan,nan,nan,nan,nan,nan,nan,nan,nan,nan,0.0,nan,nan,nan,nan,nan,nan,nan,nan,nan,nan,nan,nan,nan,nan,nan,nan,nan,nan,1744.0331581225619,1759.294284076197,nan,1759.6967983972281,nan,nan,nan,nan
1,16,1,1,1.0,1.0,0.2897290929686278,0,nan,nan,nan,nan,nan,nan,nan,nan,nan,8,5,4,3,7,6,nan,nan,nan,nan,nan,nan,nan,nan,nan,nan,nan,nan,0.0,nan,nan,nan,nan,nan,nan,nan,nan,nan,nan,nan,nan,nan,nan,nan,nan,nan,nan,1744.0331581225619,1760.311077387305,nan,1760.6008064802736,nan,nan,nan,nan
1,17,1,1,1.0,1.0,0.3129017185419798,0,nan,nan,nan,nan,nan,nan,nan,nan,nan,1,2,3,4,5,7,nan,nan,nan,nan,nan,nan,nan,nan,nan,nan,nan,nan,0.0,nan,nan,nan,nan,nan,nan,nan,nan,nan,nan,nan,nan,nan,nan,nan,nan,nan,nan,1744.0331581225619,1761.3278775408398,nan,1761.6407792593818,nan,nan,nan,nan
1,18,1,1,1.0,1.0,0.2880641305819154,0,nan,nan,nan,nan,nan,nan,nan,nan,nan,3,7,6,0,2,8,nan,nan,nan,nan,nan,nan,nan,nan,nan,nan,nan,nan,0.0,nan,nan,nan,nan,nan,nan,nan,nan,nan,nan,nan,nan,nan,nan,nan,nan,nan,nan,1744.0331581225619,1762.3446794049814,nan,1762.6327435355633,nan,nan,nan,nan
1,19,1,1,1.0,1.0,0.26323538087308407,0,nan,nan,nan,nan,nan,nan,nan,nan,nan,0,6,2,5,8,1,nan,nan,nan,nan,nan,nan,nan,nan,nan,nan,nan,nan,0.0,nan,nan,nan,nan,nan,nan,nan,nan,nan,nan,nan,nan,nan,nan,nan,nan,nan,nan,1744.0331581225619,1763.3614955237135,nan,1763.6247309045866,nan,nan,nan,nan
1,20,1,1,1.0,1.0,0.30243298294954,0,nan,nan,nan,nan,nan,nan,nan,nan,nan,4,2,5,6,1,8,nan,nan,nan,nan,nan,nan,nan,nan,nan,nan,nan,nan,0.0,nan,nan,nan,nan,nan,nan,nan,nan,nan,nan,nan,nan,nan,nan,nan,nan,nan,nan,1744.0331581225619,1764.3782822778448,nan,1764.6807152607944,nan,nan,nan,nan
1,21,1,1,1.0,1.0,0.3735901634208858,0,nan,nan,nan,nan,nan,nan,nan,nan,nan,3,1,7,5,6,4,nan,nan,nan,nan,nan,nan,nan,nan,nan,nan,nan,nan,0.0,nan,nan,nan,nan,nan,nan,nan,nan,nan,nan,nan,nan,nan,nan,nan,nan,nan,nan,1744.0331581225619,1765.3950895585585,nan,1765.7686797219794,nan,nan,nan,nan
1,22,1,1,1.0,1.0,0.31676021171733737,0,nan,nan,nan,nan,nan,nan,nan,nan,nan,1,2,5,4,8,0,nan,nan,nan,nan,nan,nan,nan,nan,nan,nan,nan,nan,0.0,nan,nan,nan,nan,nan,nan,nan,nan,nan,nan,nan,nan,nan,nan,nan,nan,nan,nan,1744.0331581225619,1766.4119011159055,nan,1766.7286613276228,nan,nan,nan,nan
1,23,1,1,1.0,1.0,0.34794603823684156,0,nan,nan,nan,nan,nan,nan,nan,nan,nan,4,7,6,1,5,8,nan,nan,nan,nan,nan,nan,nan,nan,nan,nan,nan,nan,0.0,nan,nan,nan,nan,nan,nan,nan,nan,nan,nan,nan,nan,nan,nan,nan,nan,nan,nan,1744.0331581225619,1767.4286904358305,nan,1767.7766364740673,nan,nan,nan,nan
1,24,0,0,0.0,1.0,0.3710898687131703,0,nan,nan,nan,nan,nan,nan,nan,nan,nan,8,1,3,2,0,7,nan,nan,nan,nan,nan,nan,nan,nan,nan,nan,nan,nan,0.0,nan,nan,nan,nan,nan,nan,nan,nan,nan,nan,nan,nan,nan,nan,nan,nan,nan,nan,1744.0331581225619,1768.4454891639762,nan,1768.8165790326893,nan,nan,nan,nan
1,25,1,1,1.0,1.0,0.377877441002056,1,nan,nan,nan,nan,nan,nan,nan,nan,nan,2,5,8,0,6,4,1.0,1.0,1.0,1.0,1.0,1.0,0.0,1.0,0.0,1.0,0.0,0.0,2.0,4.0,5.0,6.0,0.0,8.0,1.0,4.0,2.0,3.0,1.0,6.0,5.0,3.5822204838041216,2.254631745396182,2.854474600404501,1.4704513389151543,5.125618837075308,4.4297065190039575,1744.0331581225619,1769.470712772105,1770.2790245830547,1769.848590213107,1776.463165418245,1777.464298676001,1771.2958395613823,1776.4548289179802
1,26,1,1,1.0,1.0,0.5680323825217783,0,nan,nan,nan,nan,nan,nan,nan,nan,nan,4,8,1,2,0,7,nan,nan,nan,nan,nan,nan,nan,nan,nan,nan,nan,nan,0.0,nan,nan,nan,nan,nan,nan,nan,nan,nan,nan,nan,nan,nan,nan,nan,nan,nan,nan,1744.0331581225619,1777.6883418713696,nan,1778.2563742538914,nan,nan,nan,nan
1,27,1,1,1.0,1.0,0.4072121374774724,0,nan,nan,nan,nan,nan,nan,nan,nan,nan,2,1,0,5,6,3,nan,nan,nan,nan,nan,nan,nan,nan,nan,nan,nan,nan,0.0,nan,nan,nan,nan,nan,nan,nan,nan,nan,nan,nan,nan,nan,nan,nan,nan,nan,nan,1744.0331581225619,1778.7051371783018,nan,1779.1123493157793,nan,nan,nan,nan
1,28,0,0,1.0,0.0,0.2703907273244113,0,nan,nan,nan,nan,nan,nan,nan,nan,nan,1,7,4,3,2,8,nan,nan,nan,nan,nan,nan,nan,nan,nan,nan,nan,nan,0.0,nan,nan,nan,nan,nan,nan,nan,nan,nan,nan,nan,nan,nan,nan,nan,nan,nan,nan,1744.0331581225619,1779.7219390424434,nan,1779.9923297697678,nan,nan,nan,nan
1,29,1,1,1.0,1.0,0.2695987296756357,0,nan,nan,nan,nan,nan,nan,nan,nan,nan,8,2,7,5,0,4,nan,nan,nan,nan,nan,nan,nan,nan,nan,nan,nan,nan,0.0,nan,nan,nan,nan,nan,nan,nan,nan,nan,nan,nan,nan,nan,nan,nan,nan,nan,nan,1744.0331581225619,1780.7387374853715,nan,1781.0083362150472,nan,nan,nan,nan
1,30,1,1,1.0,1.0,0.33277349919080734,0,nan,nan,nan,nan,nan,nan,nan,nan,nan,3,8,2,4,7,1,nan,nan,nan,nan,nan,nan,nan,nan,nan,nan,nan,nan,0.0,nan,nan,nan,nan,nan,nan,nan,nan,nan,nan,nan,nan,nan,nan,nan,nan,nan,nan,1744.0331581225619,1781.7555031422526,nan,1782.0882766414434,nan,nan,nan,nan
1,31,1,1,1.0,1.0,0.3235962502658367,0,nan,nan,nan,nan,nan,nan,nan,nan,nan,8,1,4,7,3,5,nan,nan,nan,nan,nan,nan,nan,nan,nan,nan,nan,nan,0.0,nan,nan,nan,nan,nan,nan,nan,nan,nan,nan,nan,nan,nan,nan,nan,nan,nan,nan,1744.0331581225619,1782.7806737222709,nan,1783.1042699725367,nan,nan,nan,nan
1,32,0,0,0.0,1.0,0.40278487745672464,0,nan,nan,nan,nan,nan,nan,nan,nan,nan,0,5,3,6,2,1,nan,nan,nan,nan,nan,nan,nan,nan,nan,nan,nan,nan,0.0,nan,nan,nan,nan,nan,nan,nan,nan,nan,nan,nan,nan,nan,nan,nan,nan,nan,nan,1744.0331581225619,1783.7974733056035,nan,1784.2002581830602,nan,nan,nan,nan
1,33,1,1,1.0,1.0,0.3059279783628881,0,nan,nan,nan,nan,nan,nan,nan,nan,nan,1,2,6,8,7,0,nan,nan,nan,nan,nan,nan,nan,nan,nan,nan,nan,nan,0.0,nan,nan,nan,nan,nan,nan,nan,nan,nan,nan,nan,nan,nan,nan,nan,nan,nan,nan,1744.0331581225619,1784.814286003355,nan,1785.1202139817178,nan,nan,nan,nan
1,34,0,0,0.0,1.0,0.4971380610950291,0,nan,nan,nan,nan,nan,nan,nan,nan,nan,0,5,8,4,6,1,nan,nan,nan,nan,nan,nan,nan,nan,nan,nan,nan,nan,0.0,nan,nan,nan,nan,nan,nan,nan,nan,nan,nan,nan,nan,nan,nan,nan,nan,nan,nan,1744.0331581225619,1785.8310636342503,nan,1786.3282016953453,nan,nan,nan,nan
1,35,1,1,1.0,1.0,0.27230685926042497,0,nan,nan,nan,nan,nan,nan,nan,nan,nan,2,3,0,5,4,6,nan,nan,nan,nan,nan,nan,nan,nan,nan,nan,nan,nan,0.0,nan,nan,nan,nan,nan,nan,nan,nan,nan,nan,nan,nan,nan,nan,nan,nan,nan,nan,1744.0331581225619,1786.847883744631,nan,1787.1201906038914,nan,nan,nan,nan
1,36,1,1,1.0,1.0,0.3671923177316785,0,nan,nan,nan,nan,nan,nan,nan,nan,nan,1,0,3,8,6,2,nan,nan,nan,nan,nan,nan,nan,nan,nan,nan,nan,nan,0.0,nan,nan,nan,nan,nan,nan,nan,nan,nan,nan,nan,nan,nan,nan,nan,nan,nan,nan,1744.0331581225619,1787.8729753531516,nan,1788.2401676708832,nan,nan,nan,nan
1,37,1,1,1.0,1.0,0.4143153114710003,0,nan,nan,nan,nan,nan,nan,nan,nan,nan,6,8,1,2,5,4,nan,nan,nan,nan,nan,nan,nan,nan,nan,nan,nan,nan,0.0,nan,nan,nan,nan,nan,nan,nan,nan,nan,nan,nan,nan,nan,nan,nan,nan,nan,nan,1744.0331581225619,1788.8898091479205,nan,1789.3041244593915,nan,nan,nan,nan
1,38,1,1,1.0,1.0,0.3175100146327168,0,nan,nan,nan,nan,nan,nan,nan,nan,nan,2,5,3,0,7,1,nan,nan,nan,nan,nan,nan,nan,nan,nan,nan,nan,nan,0.0,nan,nan,nan,nan,nan,nan,nan,nan,nan,nan,nan,nan,nan,nan,nan,nan,nan,nan,1744.0331581225619,1789.9066073058639,nan,1790.2241173204966,nan,nan,nan,nan
1,39,1,1,1.0,1.0,0.34069233341142535,0,nan,nan,nan,nan,nan,nan,nan,nan,nan,0,8,5,4,1,7,nan,nan,nan,nan,nan,nan,nan,nan,nan,nan,nan,nan,0.0,nan,nan,nan,nan,nan,nan,nan,nan,nan,nan,nan,nan,nan,nan,nan,nan,nan,nan,1744.0331581225619,1790.923403467983,nan,1791.2640958013944,nan,nan,nan,nan
1,40,1,1,1.0,1.0,0.29985571280121803,0,nan,nan,nan,nan,nan,nan,nan,nan,nan,2,1,3,6,4,8,nan,nan,nan,nan,nan,nan,nan,nan,nan,nan,nan,nan,0.0,nan,nan,nan,nan,nan,nan,nan,nan,nan,nan,nan,nan,nan,nan,nan,nan,nan,nan,1744.0331581225619,1791.9402067575138,nan,1792.240062470315,nan,nan,nan,nan
1,41,1,1,1.0,1.0,0.31505134445615113,0,nan,nan,nan,nan,nan,nan,nan,nan,nan,8,6,0,7,1,4,nan,nan,nan,nan,nan,nan,nan,nan,nan,nan,nan,nan,0.0,nan,nan,nan,nan,nan,nan,nan,nan,nan,nan,nan,nan,nan,nan,nan,nan,nan,nan,1744.0331581225619,1792.9569969326258,nan,1793.272048277082,nan,nan,nan,nan
1,42,1,1,1.0,1.0,0.3301460521761328,0,nan,nan,nan,nan,nan,nan,nan,nan,nan,4,2,5,0,7,8,nan,nan,nan,nan,nan,nan,nan,nan,nan,nan,nan,nan,0.0,nan,nan,nan,nan,nan,nan,nan,nan,nan,nan,nan,nan,nan,nan,nan,nan,nan,nan,1744.0331581225619,1793.973875487456,nan,1794.3040215396322,nan,nan,nan,nan
1,43,1,1,1.0,1.0,0.3453949966933578,0,nan,nan,nan,nan,nan,nan,nan,nan,nan,6,3,0,8,5,4,nan,nan,nan,nan,nan,nan,nan,nan,nan,nan,nan,nan,0.0,nan,nan,nan,nan,nan,nan,nan,nan,nan,nan,nan,nan,nan,nan,nan,nan,nan,nan,1744.0331581225619,1794.9905935332645,nan,1795.3359885299578,nan,nan,nan,nan
1,44,1,1,1.0,1.0,0.3125906784553081,0,nan,nan,nan,nan,nan,nan,nan,nan,nan,5,0,8,4,7,2,nan,nan,nan,nan,nan,nan,nan,nan,nan,nan,nan,nan,0.0,nan,nan,nan,nan,nan,nan,nan,nan,nan,nan,nan,nan,nan,nan,nan,nan,nan,nan,1744.0331581225619,1796.00738712959,nan,1796.3199778080452,nan,nan,nan,nan
1,45,1,1,1.0,1.0,0.31975714350119233,0,nan,nan,nan,nan,nan,nan,nan,nan,nan,0,7,4,6,8,3,nan,nan,nan,nan,nan,nan,nan,nan,nan,nan,nan,nan,0.0,nan,nan,nan,nan,nan,nan,nan,nan,nan,nan,nan,nan,nan,nan,nan,nan,nan,nan,1744.0331581225619,1797.0241884235293,nan,1797.3439455670305,nan,nan,nan,nan
1,46,1,1,1.0,1.0,0.41494024242274463,0,nan,nan,nan,nan,nan,nan,nan,nan,nan,5,8,2,0,1,4,nan,nan,nan,nan,nan,nan,nan,nan,nan,nan,nan,nan,0.0,nan,nan,nan,nan,nan,nan,nan,nan,nan,nan,nan,nan,nan,nan,nan,nan,nan,nan,1744.0331581225619,1798.0409860110376,nan,1798.4559262534603,nan,nan,nan,nan
1,47,1,1,1.0,1.0,0.41410291474312544,0,nan,nan,nan,nan,nan,nan,nan,nan,nan,3,6,1,4,7,0,nan,nan,nan,nan,nan,nan,nan,nan,nan,nan,nan,nan,0.0,nan,nan,nan,nan,nan,nan,nan,nan,nan,nan,nan,nan,nan,nan,nan,nan,nan,nan,1744.0331581225619,1799.0577915813774,nan,1799.4718944961205,nan,nan,nan,nan
1,48,0,0,0.0,1.0,0.453294244594872,0,nan,nan,nan,nan,nan,nan,nan,nan,nan,8,5,2,6,0,1,nan,nan,nan,nan,nan,nan,nan,nan,nan,nan,nan,nan,0.0,nan,nan,nan,nan,nan,nan,nan,nan,nan,nan,nan,nan,nan,nan,nan,nan,nan,nan,1744.0331581225619,1800.0745837523136,nan,1800.5278779969085,nan,nan,nan,nan
1,49,1,1,1.0,1.0,0.3244726359844208,0,nan,nan,nan,nan,nan,nan,nan,nan,nan,4,6,7,3,1,0,nan,nan,nan,nan,nan,nan,nan,nan,nan,nan,nan,nan,0.0,nan,nan,nan,nan,nan,nan,nan,nan,nan,nan,nan,nan,nan,nan,nan,nan,nan,nan,1744.0331581225619,1801.0913844760507,nan,1801.4158571120352,nan,nan,nan,nan
1,50,1,1,1.0,1.0,0.31565375276841223,0,nan,nan,nan,nan,nan,nan,nan,nan,nan,7,2,5,0,4,6,nan,nan,nan,nan,nan,nan,nan,nan,nan,nan,nan,nan,0.0,nan,nan,nan,nan,nan,nan,nan,nan,nan,nan,nan,nan,nan,nan,nan,nan,nan,nan,1744.0331581225619,1802.1081829189789,nan,1802.4238366717473,nan,nan,nan,nan
1,51,0,0,0.0,1.0,0.41882638982497156,0,nan,nan,nan,nan,nan,nan,nan,nan,nan,3,7,4,6,8,5,nan,nan,nan,nan,nan,nan,nan,nan,nan,nan,nan,nan,0.0,nan,nan,nan,nan,nan,nan,nan,nan,nan,nan,nan,nan,nan,nan,nan,nan,nan,nan,1744.0331581225619,1803.1249853530899,nan,1803.5438117429148,nan,nan,nan,nan
1,52,1,1,1.0,1.0,0.2740023268852383,0,nan,nan,nan,nan,nan,nan,nan,nan,nan,7,0,3,5,4,8,nan,nan,nan,nan,nan,nan,nan,nan,nan,nan,nan,nan,0.0,nan,nan,nan,nan,nan,nan,nan,nan,nan,nan,nan,nan,nan,nan,nan,nan,nan,nan,1744.0331581225619,1804.1417912086472,nan,1804.4157935355324,nan,nan,nan,nan
1,53,1,1,1.0,1.0,0.29717523767612875,1,nan,nan,nan,nan,nan,nan,nan,nan,nan,3,7,8,2,5,0,1.0,1.0,1.0,1.0,1.0,1.0,1.0,0.0,1.0,1.0,0.0,0.0,3.0,3.0,4.0,8.0,2.0,6.0,4.0,4.0,3.0,2.0,1.0,6.0,5.0,5.542665655957535,2.822816369123757,2.175409476738423,1.2321339428890496,6.949569604359567,6.1659402889199555,1744.0331581225619,1805.158590791747,1805.9670012460556,1805.455766029423,1813.968035575468,1814.9658611461055,1806.9754714565352,1813.9597059173975
1,54,1,1,1.0,1.0,0.4066162861417979,0,nan,nan,nan,nan,nan,nan,nan,nan,nan,7,8,6,4,3,2,nan,nan,nan,nan,nan,nan,nan,nan,nan,nan,nan,nan,0.0,nan,nan,nan,nan,nan,nan,nan,nan,nan,nan,nan,nan,nan,nan,nan,nan,nan,nan,1744.0331581225619,1815.1848889279645,nan,1815.5915052141063,nan,nan,nan,nan
1,55,1,1,1.0,1.0,0.30977962911129,0,nan,nan,nan,nan,nan,nan,nan,nan,nan,4,6,3,5,2,8,nan,nan,nan,nan,nan,nan,nan,nan,nan,nan,nan,nan,0.0,nan,nan,nan,nan,nan,nan,nan,nan,nan,nan,nan,nan,nan,nan,nan,nan,nan,nan,1744.0331581225619,1816.2016984894872,nan,1816.5114781185985,nan,nan,nan,nan
1,56,1,1,1.0,1.0,0.22096216003410518,0,nan,nan,nan,nan,nan,nan,nan,nan,nan,7,5,1,0,8,2,nan,nan,nan,nan,nan,nan,nan,nan,nan,nan,nan,nan,0.0,nan,nan,nan,nan,nan,nan,nan,nan,nan,nan,nan,nan,nan,nan,nan,nan,nan,nan,1744.0331581225619,1817.218499498209,nan,1817.439461658243,nan,nan,nan,nan
1,57,1,1,1.0,1.0,0.2758132584858686,0,nan,nan,nan,nan,nan,nan,nan,nan,nan,1,0,3,4,5,6,nan,nan,nan,nan,nan,nan,nan,nan,nan,nan,nan,nan,0.0,nan,nan,nan,nan,nan,nan,nan,nan,nan,nan,nan,nan,nan,nan,nan,nan,nan,nan,1744.0331581225619,1818.2436233228073,nan,1818.5194365812931,nan,nan,nan,nan
1,58,1,1,1.0,1.0,0.226581122726202,0,nan,nan,nan,nan,nan,nan,nan,nan,nan,7,3,8,1,4,5,nan,nan,nan,nan,nan,nan,nan,nan,nan,nan,nan,nan,0.0,nan,nan,nan,nan,nan,nan,nan,nan,nan,nan,nan,nan,nan,nan,nan,nan,nan,nan,1744.0331581225619,1819.2688181360718,nan,1819.495399258798,nan,nan,nan,nan
1,59,1,1,1.0,1.0,0.23385421372950077,0,nan,nan,nan,nan,nan,nan,nan,nan,nan,4,7,2,3,5,6,nan,nan,nan,nan,nan,nan,nan,nan,nan,nan,nan,nan,0.0,nan,nan,nan,nan,nan,nan,nan,nan,nan,nan,nan,nan,nan,nan,nan,nan,nan,nan,1744.0331581225619,1820.285558419535,nan,1820.5194126332644,nan,nan,nan,nan
1,60,1,1,1.0,1.0,0.3046732696238905,0,nan,nan,nan,nan,nan,nan,nan,nan,nan,1,4,3,6,8,2,nan,nan,nan,nan,nan,nan,nan,nan,nan,nan,nan,nan,0.0,nan,nan,nan,nan,nan,nan,nan,nan,nan,nan,nan,nan,nan,nan,nan,nan,nan,nan,1744.0331581225619,1821.3106888011098,nan,1821.6153620707337,nan,nan,nan,nan
1,61,1,1,1.0,1.0,0.3038769958075136,0,nan,nan,nan,nan,nan,nan,nan,nan,nan,0,2,6,3,4,5,nan,nan,nan,nan,nan,nan,nan,nan,nan,nan,nan,nan,0.0,nan,nan,nan,nan,nan,nan,nan,nan,nan,nan,nan,nan,nan,nan,nan,nan,nan,nan,1744.0331581225619,1822.327489524847,nan,1822.6313665206544,nan,nan,nan,nan
1,62,0,0,0.0,1.0,0.35103733697906137,0,nan,nan,nan,nan,nan,nan,nan,nan,nan,4,3,2,8,5,0,nan,nan,nan,nan,nan,nan,nan,nan,nan,nan,nan,nan,0.0,nan,nan,nan,nan,nan,nan,nan,nan,nan,nan,nan,nan,nan,nan,nan,nan,nan,nan,1744.0331581225619,1823.3443045034073,nan,1823.6953418403864,nan,nan,nan,nan
1,63,1,1,1.0,1.0,0.27020227862522006,0,nan,nan,nan,nan,nan,nan,nan,nan,nan,7,8,3,1,6,5,nan,nan,nan,nan,nan,nan,nan,nan,nan,nan,nan,nan,0.0,nan,nan,nan,nan,nan,nan,nan,nan,nan,nan,nan,nan,nan,nan,nan,nan,nan,nan,1744.0331581225619,1824.3611206221394,nan,1824.6313229007646,nan,nan,nan,nan
1,64,1,1,1.0,1.0,0.24497838551178575,0,nan,nan,nan,nan,nan,nan,nan,nan,nan,4,0,7,5,2,1,nan,nan,nan,nan,nan,nan,nan,nan,nan,nan,nan,nan,0.0,nan,nan,nan,nan,nan,nan,nan,nan,nan,nan,nan,nan,nan,nan,nan,nan,nan,nan,1744.0331581225619,1825.3863185716327,nan,1825.6312969571445,nan,nan,nan,nan
1,65,1,1,1.0,1.0,0.2439289460889995,0,nan,nan,nan,nan,nan,nan,nan,nan,nan,1,5,2,8,3,6,nan,nan,nan,nan,nan,nan,nan,nan,nan,nan,nan,nan,0.0,nan,nan,nan,nan,nan,nan,nan,nan,nan,nan,nan,nan,nan,nan,nan,nan,nan,nan,1744.0331581225619,1826.4113466036506,nan,1826.6552755497396,nan,nan,nan,nan
1,66,0,0,1.0,0.0,0.21877832245081663,0,nan,nan,nan,nan,nan,nan,nan,nan,nan,0,3,5,2,7,4,nan,nan,nan,nan,nan,nan,nan,nan,nan,nan,nan,nan,0.0,nan,nan,nan,nan,nan,nan,nan,nan,nan,nan,nan,nan,nan,nan,nan,nan,nan,nan,1744.0331581225619,1827.4364729940426,nan,1827.6552513164934,nan,nan,nan,nan
1,67,1,1,1.0,1.0,0.23393860226497054,0,nan,nan,nan,nan,nan,nan,nan,nan,nan,5,7,2,0,4,6,nan,nan,nan,nan,nan,nan,nan,nan,nan,nan,nan,nan,0.0,nan,nan,nan,nan,nan,nan,nan,nan,nan,nan,nan,nan,nan,nan,nan,nan,nan,nan,1744.0331581225619,1828.4532882575877,nan,1828.6872268598527,nan,nan,nan,nan
1,68,1,1,1.0,1.0,0.3127956627868116,0,nan,nan,nan,nan,nan,nan,nan,nan,nan,6,8,0,5,7,2,nan,nan,nan,nan,nan,nan,nan,nan,nan,nan,nan,nan,0.0,nan,nan,nan,nan,nan,nan,nan,nan,nan,nan,nan,nan,nan,nan,nan,nan,nan,nan,1744.0331581225619,1829.4784072353505,nan,1829.7912028981373,nan,nan,nan,nan
1,69,1,1,1.0,1.0,0.2956257392652333,1,nan,nan,nan,nan,nan,nan,nan,nan,nan,7,3,2,1,4,8,1.0,1.0,1.0,1.0,1.0,1.0,0.0,0.0,0.0,1.0,1.0,0.0,2.0,8.0,2.0,5.0,1.0,4.0,3.0,2.0,3.0,4.0,1.0,5.0,6.0,1.6854692415799946,2.1957254374865443,2.9082876634784043,0.8609599706251174,3.971760073211044,4.531521242344752,1744.0331581225619,1830.503548450768,1831.3119651770685,1830.7991741900332,1836.8960176894907,1837.8973465233576,1832.328770177206,1836.8876886018552
1,70,1,1,1.0,1.0,0.34179651155136526,0,nan,nan,nan,nan,nan,nan,nan,nan,nan,2,5,1,4,6,3,nan,nan,nan,nan,nan,nan,nan,nan,nan,nan,nan,nan,0.0,nan,nan,nan,nan,nan,nan,nan,nan,nan,nan,nan,nan,nan,nan,nan,nan,nan,nan,1744.0331581225619,1838.1212069720495,nan,1838.463003483601,nan,nan,nan,nan
1,71,1,1,1.0,1.0,0.37297692126594484,0,nan,nan,nan,nan,nan,nan,nan,nan,nan,7,6,3,5,4,8,nan,nan,nan,nan,nan,nan,nan,nan,nan,nan,nan,nan,0.0,nan,nan,nan,nan,nan,nan,nan,nan,nan,nan,nan,nan,nan,nan,nan,nan,nan,nan,1744.0331581225619,1839.1380022789817,nan,1839.5109792002477,nan,nan,nan,nan
1,72,1,1,1.0,1.0,0.2601375246886164,0,nan,nan,nan,nan,nan,nan,nan,nan,nan,6,0,1,3,8,2,nan,nan,nan,nan,nan,nan,nan,nan,nan,nan,nan,nan,0.0,nan,nan,nan,nan,nan,nan,nan,nan,nan,nan,nan,nan,nan,nan,nan,nan,nan,nan,1744.0331581225619,1840.1548198233359,nan,1840.4149573480245,nan,nan,nan,nan
1,73,1,1,1.0,1.0,0.24332853313535452,0,nan,nan,nan,nan,nan,nan,nan,nan,nan,0,1,4,7,5,3,nan,nan,nan,nan,nan,nan,nan,nan,nan,nan,nan,nan,0.0,nan,nan,nan,nan,nan,nan,nan,nan,nan,nan,nan,nan,nan,nan,nan,nan,nan,nan,1744.0331581225619,1841.1715994500555,nan,1841.4149279831909,nan,nan,nan,nan
1,74,1,1,1.0,1.0,0.22649302775971591,0,nan,nan,nan,nan,nan,nan,nan,nan,nan,1,6,3,4,2,8,nan,nan,nan,nan,nan,nan,nan,nan,nan,nan,nan,nan,0.0,nan,nan,nan,nan,nan,nan,nan,nan,nan,nan,nan,nan,nan,nan,nan,nan,nan,nan,1744.0331581225619,1842.1884018841665,nan,1842.4148949119262,nan,nan,nan,nan
1,75,1,1,1.0,1.0,0.22569048195146024,1,nan,nan,nan,nan,nan,nan,nan,nan,nan,3,8,2,5,0,4,1.0,1.0,1.0,1.0,1.0,1.0,1.0,0.0,0.0,0.0,0.0,0.0,1.0,3.0,4.0,8.0,2.0,1.0,0.0,4.0,3.0,2.0,1.0,6.0,5.0,2.8617169009521604,2.23946804436855,1.663823876529932,1.0642085284925997,4.982133586425334,4.102320484118536,1744.0331581225619,1843.2051980462857,1844.0136210448109,1843.4308885282371,1850.0477368058637,1851.0478574016597,1845.0220886894967,1850.0394060076214
1,76,1,1,1.0,1.0,0.2857494340278208,0,nan,nan,nan,nan,nan,nan,nan,nan,nan,0,5,6,8,3,1,nan,nan,nan,nan,nan,nan,nan,nan,nan,nan,nan,nan,0.0,nan,nan,nan,nan,nan,nan,nan,nan,nan,nan,nan,nan,nan,nan,nan,nan,nan,nan,1744.0331581225619,1851.2729178206064,nan,1851.5586672546342,nan,nan,nan,nan
1,77,1,1,1.0,1.0,0.3489287649281323,0,nan,nan,nan,nan,nan,nan,nan,nan,nan,4,0,5,3,8,7,nan,nan,nan,nan,nan,nan,nan,nan,nan,nan,nan,nan,0.0,nan,nan,nan,nan,nan,nan,nan,nan,nan,nan,nan,nan,nan,nan,nan,nan,nan,nan,1744.0331581225619,1852.2897179741412,nan,1852.6386467390694,nan,nan,nan,nan
1,78,1,1,1.0,1.0,0.4281188177410513,0,nan,nan,nan,nan,nan,nan,nan,nan,nan,7,5,6,2,4,1,nan,nan,nan,nan,nan,nan,nan,nan,nan,nan,nan,nan,0.0,nan,nan,nan,nan,nan,nan,nan,nan,nan,nan,nan,nan,nan,nan,nan,nan,nan,nan,1744.0331581225619,1853.3065161320847,nan,1853.7346349498257,nan,nan,nan,nan
1,79,1,1,1.0,1.0,0.39530395111069083,0,nan,nan,nan,nan,nan,nan,nan,nan,nan,4,2,0,6,5,3,nan,nan,nan,nan,nan,nan,nan,nan,nan,nan,nan,nan,0.0,nan,nan,nan,nan,nan,nan,nan,nan,nan,nan,nan,nan,nan,nan,nan,nan,nan,nan,1744.0331581225619,1854.3233145750128,nan,1854.7186185261235,nan,nan,nan,nan
1,80,1,1,1.0,1.0,0.538479016860947,0,nan,nan,nan,nan,nan,nan,nan,nan,nan,2,7,8,3,0,6,nan,nan,nan,nan,nan,nan,nan,nan,nan,nan,nan,nan,0.0,nan,nan,nan,nan,nan,nan,nan,nan,nan,nan,nan,nan,nan,nan,nan,nan,nan,nan,1744.0331581225619,1855.3401047501247,nan,1855.8785837669857,nan,nan,nan,nan
1,81,1,1,1.0,1.0,0.5376448254100978,1,0.0,1.0,1.0,0.34386339169286656,0.08535589004517197,0.2585075016476946,0.4292192817380385,0.08535589004517197,0.49047593112724525,7,5,0,6,4,1,1.0,1.0,1.0,1.0,1.0,1.0,1.0,1.0,1.0,1.0,1.0,0.0,5.0,7.0,5.0,0.0,6.0,4.0,8.0,6.0,2.0,1.0,3.0,4.0,5.0,5.47822477389127,1.990652263397351,0.9919078273233026,2.7747913310304284,3.717673432081938,4.605736650293693,1744.0331581225619,1856.3569165924564,1857.1653276169673,1856.8945614178665,1863.6911728775594,1864.6975470599718,1858.1737995378207,1863.6828392280731
1,82,1,1,nan,nan,nan,0,0.0,0.0,0.0,0.0,0.0,0.0,0.0,0.0,0.0,8,2,5,1,3,6,nan,nan,nan,nan,nan,nan,nan,nan,nan,nan,nan,nan,0.0,nan,nan,nan,nan,nan,nan,nan,nan,nan,nan,nan,nan,nan,nan,nan,nan,nan,nan,1744.0331581225619,1864.9163564580958,nan,nan,nan,nan,nan,nan
1,83,1,1,1.0,1.0,0.7131786041427404,0,0.0,0.0,0.0,0.34625575507209166,0.08748459375341368,0.258771161318678,0.43374034882550533,0.08748459375341368,0.6254117147764191,1,7,4,2,6,3,nan,nan,nan,nan,nan,nan,nan,nan,nan,nan,nan,nan,0.0,nan,nan,nan,nan,nan,nan,nan,nan,nan,nan,nan,nan,nan,nan,nan,nan,nan,nan,1744.0331581225619,1865.9331700110342,nan,1866.646348615177,nan,nan,nan,nan
1,84,1,1,1.0,1.0,0.3923774380236864,1,0.0,1.0,1.0,0.35073042396319715,0.0958230333194386,0.25490739064375856,0.44655345728263574,0.0958230333194386,0.5527780210832134,0,3,6,7,5,2,1.0,1.0,1.0,1.0,1.0,1.0,0.0,0.0,1.0,1.0,0.0,0.0,2.0,4.0,2.0,6.0,7.0,8.0,5.0,4.0,3.0,1.0,2.0,6.0,5.0,3.821461306652054,2.8765025644097477,1.0223390040919185,1.8847030736505985,5.452211734140292,4.804631503066048,1744.0331581225619,1866.9499607563484,1867.7583740616683,1867.3423381943721,1874.2758799709845,1875.2741163654719,1868.7835072942544,1874.2675443259068
1,85,1,1,1.0,1.0,0.3372994028031826,0,0.0,0.0,0.0,0.35123219521693794,0.09535235739833414,0.2558798378186038,0.4465845526152721,0.09535235739833414,0.4809518149898698,7,6,0,2,1,3,nan,nan,nan,nan,nan,nan,nan,nan,nan,nan,nan,nan,0.0,nan,nan,nan,nan,nan,nan,nan,nan,nan,nan,nan,nan,nan,nan,nan,nan,nan,nan,1744.0331581225619,1875.492812009994,nan,1875.8301114127971,nan,nan,nan,nan
1,86,1,1,1.0,1.0,0.3602442361880094,0,0.0,0.0,0.0,0.35106632864058374,0.09479512952237093,0.25627119911821283,0.44586145816295464,0.09479512952237093,0.36330702567162615,0,1,2,6,8,4,nan,nan,nan,nan,nan,nan,nan,nan,nan,nan,nan,nan,0.0,nan,nan,nan,nan,nan,nan,nan,nan,nan,nan,nan,nan,nan,nan,nan,nan,nan,nan,1744.0331581225619,1876.5178639902733,nan,1876.8781082264613,nan,nan,nan,nan
1,87,1,1,1.0,1.0,0.4234295543283224,0,0.0,0.0,0.0,0.3511743040234946,0.09424105735803054,0.256933246665464,0.44541536138152515,0.09424105735803054,0.3736577311065048,5,3,8,4,1,6,nan,nan,nan,nan,nan,nan,nan,nan,nan,nan,nan,nan,0.0,nan,nan,nan,nan,nan,nan,nan,nan,nan,nan,nan,nan,nan,nan,nan,nan,nan,nan,1744.0331581225619,1877.5346615777817,nan,1877.95809113211,nan,nan,nan,nan
1,88,1,1,1.0,1.0,0.44615714461542666,0,0.0,0.0,0.0,0.35201448135262053,0.09401120354993094,0.2580032778026896,0.44602568490255146,0.09401120354993094,0.4099436450439195,1,0,3,2,4,8,nan,nan,nan,nan,nan,nan,nan,nan,nan,nan,nan,nan,0.0,nan,nan,nan,nan,nan,nan,nan,nan,nan,nan,nan,nan,nan,nan,nan,nan,nan,nan,1744.0331581225619,1878.5599005811382,nan,1879.0060577257536,nan,nan,nan,nan
1,89,1,1,1.0,1.0,0.43743262835778296,0,0.0,0.0,0.0,0.3530965809303539,0.09400648785998908,0.2590900930703648,0.447103068790343,0.09400648785998908,0.43567310910051066,7,2,1,0,5,4,nan,nan,nan,nan,nan,nan,nan,nan,nan,nan,nan,nan,0.0,nan,nan,nan,nan,nan,nan,nan,nan,nan,nan,nan,nan,nan,nan,nan,nan,nan,nan,1744.0331581225619,1879.5765998105053,nan,1880.014032438863,nan,nan,nan,nan
1,90,1,1,1.0,1.0,0.396600283915177,0,0.0,0.0,0.0,0.3540549451056656,0.09389730024129563,0.26015764486437,0.4479522453469612,0.09389730024129563,0.42673001896279555,4,3,2,7,8,6,nan,nan,nan,nan,nan,nan,nan,nan,nan,nan,nan,nan,0.0,nan,nan,nan,nan,nan,nan,nan,nan,nan,nan,nan,nan,nan,nan,nan,nan,nan,nan,1744.0331581225619,1880.5933851390146,nan,1880.9899854229297,nan,nan,nan,nan
1,91,1,1,1.0,1.0,0.4278083478566259,0,0.0,0.0,0.0,0.35453298262037924,0.09347592557550369,0.2610570570448756,0.4480089081958829,0.09347592557550369,0.4206137533765286,6,7,0,1,2,4,nan,nan,nan,nan,nan,nan,nan,nan,nan,nan,nan,nan,0.0,nan,nan,nan,nan,nan,nan,nan,nan,nan,nan,nan,nan,nan,nan,nan,nan,nan,nan,1744.0331581225619,1881.6101898541674,nan,1882.037998202024,nan,nan,nan,nan
1,92,1,1,1.0,1.0,0.40303120063617826,0,0.0,0.0,0.0,0.35534715334522643,0.09327195907243027,0.26207519427279613,0.44861911241765673,0.09327195907243027,0.4091466108026604,5,4,8,0,7,1,nan,nan,nan,nan,nan,nan,nan,nan,nan,nan,nan,nan,0.0,nan,nan,nan,nan,nan,nan,nan,nan,nan,nan,nan,nan,nan,nan,nan,nan,nan,nan,1744.0331581225619,1882.6270051177125,nan,1883.0300363183487,nan,nan,nan,nan
1,93,1,1,1.0,1.0,0.3541574305854738,0,0.0,0.0,0.0,0.3558711538649072,0.09289117071619524,0.26297998314871196,0.44876232458110243,0.09289117071619524,0.39499899302609265,7,1,6,5,2,8,nan,nan,nan,nan,nan,nan,nan,nan,nan,nan,nan,nan,0.0,nan,nan,nan,nan,nan,nan,nan,nan,nan,nan,nan,nan,nan,nan,nan,nan,nan,nan,1744.0331581225619,1883.6437950078398,nan,1883.9979524384253,nan,nan,nan,nan
1,94,1,1,1.0,1.0,0.34493200038559735,0,0.0,0.0,0.0,0.35585252643795684,0.09238511892301045,0.2634674075149464,0.4482376453609673,0.09238511892301045,0.3673735438690831,5,3,0,4,7,6,nan,nan,nan,nan,nan,nan,nan,nan,nan,nan,nan,nan,0.0,nan,nan,nan,nan,nan,nan,nan,nan,nan,nan,nan,nan,nan,nan,nan,nan,nan,nan,1744.0331581225619,1884.6689898211043,nan,1885.01392182149,nan,nan,nan,nan
1,95,1,1,1.0,1.0,0.40785246388986707,0,0.0,0.0,0.0,0.35573510142664116,0.09189398483835581,0.26384111658828535,0.447629086264997,0.09189398483835581,0.36898063162031275,8,6,1,3,5,0,nan,nan,nan,nan,nan,nan,nan,nan,nan,nan,nan,nan,0.0,nan,nan,nan,nan,nan,nan,nan,nan,nan,nan,nan,nan,nan,nan,nan,nan,nan,nan,1744.0331581225619,1885.694045507582,nan,1886.1018979714718,nan,nan,nan,nan
1,96,1,1,1.0,1.0,0.41467966441996396,0,0.0,0.0,0.0,0.3562895414528457,0.09156013239298721,0.2647294090598585,0.4478496738458329,0.09156013239298721,0.3891547095651428,6,1,0,5,2,3,nan,nan,nan,nan,nan,nan,nan,nan,nan,nan,nan,nan,0.0,nan,nan,nan,nan,nan,nan,nan,nan,nan,nan,nan,nan,nan,nan,nan,nan,nan,nan,1744.0331581225619,1886.7191941353958,nan,1887.1338737998158,nan,nan,nan,nan
1,97,1,1,1.0,1.0,0.48581831343472004,0,0.0,0.0,0.0,0.35690417432618377,0.09127170284320084,0.2656324714829829,0.4481758771693846,0.09127170284320084,0.43611681391485035,5,8,7,6,4,0,nan,nan,nan,nan,nan,nan,nan,nan,nan,nan,nan,nan,0.0,nan,nan,nan,nan,nan,nan,nan,nan,nan,nan,nan,nan,nan,nan,nan,nan,nan,nan,1744.0331581225619,1887.7359951441176,nan,1888.2218134575523,nan,nan,nan,nan
1,98,1,1,1.0,1.0,0.44468547753058374,0,0.0,0.0,0.0,0.35824702994189767,0.09173362123770355,0.2665134087041941,0.44998065117960123,0.09173362123770355,0.44839448512842256,1,3,8,4,5,2,nan,nan,nan,nan,nan,nan,nan,nan,nan,nan,nan,nan,0.0,nan,nan,nan,nan,nan,nan,nan,nan,nan,nan,nan,nan,nan,nan,nan,nan,nan,nan,1744.0331581225619,1888.7611423465423,nan,1889.205827824073,nan,nan,nan,nan
1,99,1,1,1.0,1.0,0.4598631481640041,1,0.0,1.0,1.0,0.35913814795827587,0.09167626118212409,0.2674618867761518,0.45081440914039994,0.09167626118212409,0.46345564637643594,0,5,1,7,6,3,1.0,1.0,1.0,1.0,1.0,1.0,0.0,1.0,1.0,1.0,1.0,0.0,4.0,8.0,5.0,1.0,7.0,6.0,4.0,4.0,3.0,1.0,2.0,6.0,5.0,4.201264288043603,3.503568407613784,0.8721616885159165,1.6104053871240467,6.223634937778115,5.024561614729464,1744.0331581225619,1889.7779393638484,1890.586337559158,1890.2378025120124,1897.862280536443,1898.8607943295501,1891.6031471206807,1897.85395116359
1,100,1,1,1.0,1.0,0.31846166611649096,0,0.0,0.0,0.0,0.36016595408282415,0.091767345340059,0.26839860874276517,0.45193329942288313,0.091767345340059,0.4076700972703596,4,2,7,3,5,8,nan,nan,nan,nan,nan,nan,nan,nan,nan,nan,nan,nan,0.0,nan,nan,nan,nan,nan,nan,nan,nan,nan,nan,nan,nan,nan,nan,nan,nan,nan,nan,1744.0331581225619,1899.0791367397178,nan,1899.3975984058343,nan,nan,nan,nan
1,101,1,1,1.0,1.0,0.34129759296774864,0,0.0,0.0,0.0,0.35974469864882075,0.09139788446657054,0.2683468141822502,0.4511425831153913,0.09139788446657054,0.3732074690827479,5,6,0,1,7,2,nan,nan,nan,nan,nan,nan,nan,nan,nan,nan,nan,nan,0.0,nan,nan,nan,nan,nan,nan,nan,nan,nan,nan,nan,nan,nan,nan,nan,nan,nan,nan,1744.0331581225619,1900.1042685469147,nan,1900.4455661398824,nan,nan,nan,nan
1,102,1,1,1.0,1.0,0.27610804815776646,0,0.0,0.0,0.0,0.35956022759201006,0.09095826779146696,0.26860195980054313,0.450518495383477,0.09095826779146696,0.3119557690806687,1,5,6,4,2,3,nan,nan,nan,nan,nan,nan,nan,nan,nan,nan,nan,nan,0.0,nan,nan,nan,nan,nan,nan,nan,nan,nan,nan,nan,nan,nan,nan,nan,nan,nan,nan,1744.0331581225619,1901.1294128983282,nan,1901.405520946486,nan,nan,nan,nan
1,103,1,1,1.0,1.0,0.31497921515256166,0,0.0,0.0,0.0,0.3587339683896908,0.09088323272708831,0.2678507356626025,0.4496172011167791,0.09088323272708831,0.31079495209269226,2,4,0,3,8,5,nan,nan,nan,nan,nan,nan,nan,nan,nan,nan,nan,nan,0.0,nan,nan,nan,nan,nan,nan,nan,nan,nan,nan,nan,nan,nan,nan,nan,nan,nan,nan,1744.0331581225619,1902.154535582289,nan,1902.4695147974417,nan,nan,nan,nan
1,104,1,1,1.0,1.0,0.31384168099612,0,0.0,0.0,0.0,0.35830500022069933,0.09053932468757608,0.26776567553312325,0.4488443249082754,0.09053932468757608,0.3016429814354827,0,5,7,6,2,3,nan,nan,nan,nan,nan,nan,nan,nan,nan,nan,nan,nan,0.0,nan,nan,nan,nan,nan,nan,nan,nan,nan,nan,nan,nan,nan,nan,nan,nan,nan,nan,1744.0331581225619,1903.179657411063,nan,1903.4934990920592,nan,nan,nan,nan
1,105,1,1,1.0,1.0,0.38499173359014094,0,0.0,0.0,0.0,0.3578733175097811,0.09020416232771901,0.2676691551820621,0.44807747983750007,0.09020416232771901,0.3379375432462742,3,8,2,1,4,5,nan,nan,nan,nan,nan,nan,nan,nan,nan,nan,nan,nan,0.0,nan,nan,nan,nan,nan,nan,nan,nan,nan,nan,nan,nan,nan,nan,nan,nan,nan,nan,1744.0331581225619,1904.196481227642,nan,1904.581472961232,nan,nan,nan,nan
1,106,1,1,1.0,1.0,0.3838467870373279,0,0.0,0.0,0.0,0.35813407151055376,0.08980843930296137,0.2683256322075924,0.4479425108135151,0.08980843930296137,0.3608934005411963,8,0,5,4,3,6,nan,nan,nan,nan,nan,nan,nan,nan,nan,nan,nan,nan,0.0,nan,nan,nan,nan,nan,nan,nan,nan,nan,nan,nan,nan,nan,nan,nan,nan,nan,nan,1744.0331581225619,1905.2216041968204,nan,1905.6054509838577,nan,nan,nan,nan
1,107,1,1,1.0,1.0,0.4150015381164849,0,0.0,0.0,0.0,0.35837895451557067,0.0894146385808019,0.26896431593476877,0.44779359309637257,0.0894146385808019,0.3946133529146512,4,5,2,7,1,3,nan,nan,nan,nan,nan,nan,nan,nan,nan,nan,nan,nan,0.0,nan,nan,nan,nan,nan,nan,nan,nan,nan,nan,nan,nan,nan,nan,nan,nan,nan,nan,1744.0331581225619,1906.2384148987476,nan,1906.653416436864,nan,nan,nan,nan
1,108,0,0,0.0,1.0,0.5418571229092777,0,0.0,0.0,0.0,0.35891312983256046,0.089160048894666,0.26975308093789446,0.44807317872722646,0.089160048894666,0.44690181602103013,2,6,0,3,5,8,nan,nan,nan,nan,nan,nan,nan,nan,nan,nan,nan,nan,0.0,nan,nan,nan,nan,nan,nan,nan,nan,nan,nan,nan,nan,nan,nan,nan,nan,nan,nan,1744.0331581225619,1907.2635364425369,nan,1907.8053935654461,nan,nan,nan,nan
1,109,1,1,1.0,1.0,0.43705088435672224,1,0.0,1.0,1.0,0.36062288677720267,0.09047146669745176,0.2701514200797509,0.45109435347465443,0.09047146669745176,0.46463651512749493,6,7,3,8,0,5,1.0,1.0,1.0,1.0,1.0,1.0,0.0,1.0,1.0,0.0,0.0,1.0,3.0,8.0,7.0,3.0,0.0,6.0,5.0,4.0,2.0,1.0,3.0,6.0,5.0,3.6413448902312666,1.818171865772456,0.8202493621502072,2.969367830315605,5.088964008493349,4.257190769538283,1744.0331581225619,1908.2803297536448,1909.0887556031812,1908.7173806380015,1915.231205384247,1916.2388006341644,1910.1055563269183,1915.2228831388056
1,110,1,1,1.0,1.0,0.4207351093646139,0,0.0,0.0,0.0,0.3613305534214575,0.09034867571192104,0.2709818777095364,0.45167922913337855,0.09034867571192104,0.4665477055435379,8,3,6,5,1,7,nan,nan,nan,nan,nan,nan,nan,nan,nan,nan,nan,nan,0.0,nan,nan,nan,nan,nan,nan,nan,nan,nan,nan,nan,nan,nan,nan,nan,nan,nan,nan,1744.0331581225619,1916.4564177594148,nan,1916.8771528687794,nan,nan,nan,nan
1,111,1,1,1.0,1.0,0.37960626487620175,0,0.0,0.0,0.0,0.36187554934754146,0.09011144536957798,0.27176410397796347,0.45198699471711945,0.09011144536957798,0.4124640861991793,0,4,2,6,8,3,nan,nan,nan,nan,nan,nan,nan,nan,nan,nan,nan,nan,0.0,nan,nan,nan,nan,nan,nan,nan,nan,nan,nan,nan,nan,nan,nan,nan,nan,nan,nan,1744.0331581225619,1917.4815267589875,nan,1917.8611330238637,nan,nan,nan,nan
1,112,1,1,1.0,1.0,0.37846873071976006,0,0.0,0.0,0.0,0.3620367376705293,0.08971669715010744,0.27232004052042186,0.45175343482063673,0.08971669715010744,0.39293670165352523,6,0,7,8,2,1,nan,nan,nan,nan,nan,nan,nan,nan,nan,nan,nan,nan,0.0,nan,nan,nan,nan,nan,nan,nan,nan,nan,nan,nan,nan,nan,nan,nan,nan,nan,nan,1744.0331581225619,1918.5066636977717,nan,1918.8851324284915,nan,nan,nan,nan
1,113,1,1,1.0,1.0,0.385653727222234,0,0.0,0.0,0.0,0.3621847736439458,0.08932514804324232,0.2728596256007035,0.4515099216871881,0.08932514804324232,0.3812429076060653,8,1,4,2,5,3,nan,nan,nan,nan,nan,nan,nan,nan,nan,nan,nan,nan,0.0,nan,nan,nan,nan,nan,nan,nan,nan,nan,nan,nan,nan,nan,nan,nan,nan,nan,nan,1744.0331581225619,1919.5234575790819,nan,1919.909111306304,nan,nan,nan,nan
1,114,1,1,1.0,1.0,0.30483121308498085,0,0.0,0.0,0.0,0.36239431787232335,0.08895288099081615,0.2734414368815072,0.4513471988631395,0.08895288099081615,0.35631789034232497,3,8,1,6,0,7,nan,nan,nan,nan,nan,nan,nan,nan,nan,nan,nan,nan,0.0,nan,nan,nan,nan,nan,nan,nan,nan,nan,nan,nan,nan,nan,nan,nan,nan,nan,nan,1744.0331581225619,1920.5402665706351,nan,1920.8450977837201,nan,nan,nan,nan
1,115,0,0,0.0,1.0,0.5280037245247513,0,0.0,0.0,0.0,0.3618849098653557,0.08872235064862072,0.273162559216735,0.4506072605139764,0.08872235064862072,0.40616288827732205,8,5,7,1,3,0,nan,nan,nan,nan,nan,nan,nan,nan,nan,nan,nan,nan,0.0,nan,nan,nan,nan,nan,nan,nan,nan,nan,nan,nan,nan,nan,nan,nan,nan,nan,nan,1744.0331581225619,1921.557059026556,nan,1922.0850627510808,nan,nan,nan,nan
1,116,1,1,1.0,1.0,0.43885668413713574,0,0.0,0.0,0.0,0.36334209245008725,0.08968025400030859,0.27366183844977865,0.45302234645039585,0.08968025400030859,0.42389720724895597,7,3,0,5,8,4,nan,nan,nan,nan,nan,nan,nan,nan,nan,nan,nan,nan,0.0,nan,nan,nan,nan,nan,nan,nan,nan,nan,nan,nan,nan,nan,nan,nan,nan,nan,nan,1744.0331581225619,1922.5821879827417,nan,1923.0210446668789,nan,nan,nan,nan
1,117,1,1,1.0,1.0,0.3580304638016969,0,0.0,0.0,0.0,0.3639987410734529,0.08956432394201198,0.27443441713144096,0.4535630650154649,0.08956432394201198,0.44163029082119465,6,7,5,1,0,8,nan,nan,nan,nan,nan,nan,nan,nan,nan,nan,nan,nan,0.0,nan,nan,nan,nan,nan,nan,nan,nan,nan,nan,nan,nan,nan,nan,nan,nan,nan,nan,1744.0331581225619,1923.5990038164891,nan,1923.9570342802908,nan,nan,nan,nan
1,118,1,1,1.0,1.0,0.3568652751855552,0,0.0,0.0,0.0,0.3639472904073171,0.08917914203660045,0.27476814837071667,0.45312643244391754,0.08917914203660045,0.3845841410414626,1,8,3,5,4,6,nan,nan,nan,nan,nan,nan,nan,nan,nan,nan,nan,nan,0.0,nan,nan,nan,nan,nan,nan,nan,nan,nan,nan,nan,nan,nan,nan,nan,nan,nan,nan,1744.0331581225619,1924.6241270708852,nan,1924.9809923460707,nan,nan,nan,nan
1,119,1,1,1.0,1.0,0.32405211916193366,0,0.0,0.0,0.0,0.36388676036268663,0.08879960988275098,0.27508715047993565,0.4526863702454376,0.08879960988275098,0.34631595271639526,6,1,2,8,5,7,nan,nan,nan,nan,nan,nan,nan,nan,nan,nan,nan,nan,0.0,nan,nan,nan,nan,nan,nan,nan,nan,nan,nan,nan,nan,nan,nan,nan,nan,nan,nan,1744.0331581225619,1925.6409223775845,nan,1925.9649744967464,nan,nan,nan,nan
1,120,1,1,1.0,1.0,0.3792364951223135,0,0.0,0.0,0.0,0.3635491786575955,0.08849790406820811,0.2750512745893874,0.45204708272580363,0.08849790406820811,0.35338462982326746,7,3,1,6,0,4,nan,nan,nan,nan,nan,nan,nan,nan,nan,nan,nan,nan,0.0,nan,nan,nan,nan,nan,nan,nan,nan,nan,nan,nan,nan,nan,nan,nan,nan,nan,nan,1744.0331581225619,1926.6577259523328,nan,1927.0369624474552,nan,nan,nan,nan
1,121,1,1,1.0,1.0,0.49038897664286196,0,0.0,0.0,0.0,0.36368100484637467,0.08813691358343642,0.2755440912629382,0.4518179184298111,0.08813691358343642,0.3978925303090364,0,8,4,2,5,3,nan,nan,nan,nan,nan,nan,nan,nan,nan,nan,nan,nan,0.0,nan,nan,nan,nan,nan,nan,nan,nan,nan,nan,nan,nan,nan,nan,nan,nan,nan,nan,1744.0331581225619,1927.6745315226726,nan,1928.1649204993155,nan,nan,nan,nan
1,122,1,1,1.0,1.0,0.48158406326547265,0,0.0,0.0,0.0,0.3647369046113454,0.0885215071788029,0.2762153974325425,0.4532584117901483,0.0885215071788029,0.45040317834354937,5,6,7,4,2,1,nan,nan,nan,nan,nan,nan,nan,nan,nan,nan,nan,nan,0.0,nan,nan,nan,nan,nan,nan,nan,nan,nan,nan,nan,nan,nan,nan,nan,nan,nan,nan,1744.0331581225619,1928.6913157107774,nan,1929.172899774043,nan,nan,nan,nan
1,123,1,1,1.0,1.0,0.5127621924038976,1,0.0,1.0,1.0,0.36570258360848695,0.08878739066268963,0.2769151929457973,0.4544899742711766,0.08878739066268963,0.4949117441040774,6,7,5,2,8,3,1.0,1.0,1.0,1.0,1.0,1.0,1.0,1.0,1.0,1.0,1.0,0.0,5.0,6.0,7.0,5.0,2.0,8.0,4.0,6.0,2.0,1.0,3.0,4.0,5.0,5.308276601601392,1.7892263256944716,1.046613241545856,2.6773545460309833,3.596796886296943,4.276977306697518,1744.0331581225619,1929.7081187150907,1930.5165305950213,1930.2208809074946,1936.8923527768347,1937.8911174547393,1931.541674091015,1936.884026254993
1,124,1,1,1.0,1.0,0.3434811453334987,0,0.0,0.0,0.0,0.3669079902379575,0.08941139727910637,0.27749659295885115,0.45631938751706386,0.08941139727910637,0.44594246700095636,4,2,1,0,7,5,nan,nan,nan,nan,nan,nan,nan,nan,nan,nan,nan,nan,0.0,nan,nan,nan,nan,nan,nan,nan,nan,nan,nan,nan,nan,nan,nan,nan,nan,nan,nan,1744.0331581225619,1938.1092052741442,nan,1938.4526864194777,nan,nan,nan,nan
1,125,1,1,1.0,1.0,0.39062466588802636,0,0.0,0.0,0.0,0.3667175280842627,0.08907204112128263,0.2776454869629801,0.45578956920554536,0.08907204112128263,0.4156226678751409,3,6,2,1,5,8,nan,nan,nan,nan,nan,nan,nan,nan,nan,nan,nan,nan,0.0,nan,nan,nan,nan,nan,nan,nan,nan,nan,nan,nan,nan,nan,nan,nan,nan,nan,nan,1744.0331581225619,1939.1260142656974,nan,1939.5166389315855,nan,nan,nan,nan
1,126,0,0,1.0,0.0,0.3173791556619108,0,0.0,0.0,0.0,0.36691032758268016,0.08873791824277885,0.2781724093399013,0.45564824582545904,0.08873791824277885,0.3504949889611453,6,7,0,3,8,4,nan,nan,nan,nan,nan,nan,nan,nan,nan,nan,nan,nan,0.0,nan,nan,nan,nan,nan,nan,nan,nan,nan,nan,nan,nan,nan,nan,nan,nan,nan,nan,1744.0331581225619,1940.1512538390234,nan,1940.4686329946853,nan,nan,nan,nan
1,127,1,1,1.0,1.0,0.38065969571471214,0,0.0,0.0,0.0,0.366514078207314,0.08849233001428365,0.2780217481930304,0.45500640822159766,0.08849233001428365,0.3628878390882164,0,4,5,2,6,7,nan,nan,nan,nan,nan,nan,nan,nan,nan,nan,nan,nan,0.0,nan,nan,nan,nan,nan,nan,nan,nan,nan,nan,nan,nan,nan,nan,nan,nan,nan,nan,1744.0331581225619,1941.1679499323945,nan,1941.5486096281093,nan,nan,nan,nan
1,128,1,1,1.0,1.0,0.3958464893512428,0,0.0,0.0,0.0,0.3666263450129283,0.08814940731827627,0.27847693769465204,0.45477575233120454,0.08814940731827627,0.3646284469092886,6,0,4,5,3,2,nan,nan,nan,nan,nan,nan,nan,nan,nan,nan,nan,nan,0.0,nan,nan,nan,nan,nan,nan,nan,nan,nan,nan,nan,nan,nan,nan,nan,nan,nan,nan,1744.0331581225619,1942.184737256728,nan,1942.5805837460794,nan,nan,nan,nan
1,129,1,1,1.0,1.0,0.3469453500583768,0,0.0,0.0,0.0,0.3668564248896079,0.08783965183581534,0.2790167730537926,0.4546960767254232,0.08783965183581534,0.3744838450414439,0,8,1,3,7,4,nan,nan,nan,nan,nan,nan,nan,nan,nan,nan,nan,nan,0.0,nan,nan,nan,nan,nan,nan,nan,nan,nan,nan,nan,nan,nan,nan,nan,nan,nan,nan,1744.0331581225619,1943.2016132457647,nan,1943.5485585958231,nan,nan,nan,nan
1,130,1,1,1.0,1.0,0.3778472209814936,0,0.0,0.0,0.0,0.36670086961748893,0.08751341490144537,0.27918745471604356,0.4542142845189343,0.08751341490144537,0.3735463534637044,2,7,6,8,4,5,nan,nan,nan,nan,nan,nan,nan,nan,nan,nan,nan,nan,0.0,nan,nan,nan,nan,nan,nan,nan,nan,nan,nan,nan,nan,nan,nan,nan,nan,nan,nan,1744.0331581225619,1944.2266923100688,nan,1944.6045395310502,nan,nan,nan,nan
1,131,1,1,1.0,1.0,0.46502139512449503,0,0.0,0.0,0.0,0.3667872754420161,0.08717903679398815,0.279608238648028,0.45396631223600425,0.08717903679398815,0.3966046553881218,6,5,3,1,0,7,nan,nan,nan,nan,nan,nan,nan,nan,nan,nan,nan,nan,0.0,nan,nan,nan,nan,nan,nan,nan,nan,nan,nan,nan,nan,nan,nan,nan,nan,nan,nan,1744.0331581225619,1945.2434910379816,nan,1945.708512433106,nan,nan,nan,nan
1,132,1,1,1.0,1.0,0.47214566613547504,0,0.0,0.0,0.0,0.36754292251649673,0.0872661493456784,0.28027677317081834,0.4548090718621751,0.0872661493456784,0.4383380940804879,7,3,1,4,2,6,nan,nan,nan,nan,nan,nan,nan,nan,nan,nan,nan,nan,0.0,nan,nan,nan,nan,nan,nan,nan,nan,nan,nan,nan,nan,nan,nan,nan,nan,nan,nan,1744.0331581225619,1946.2603393727913,nan,1946.7324850389268,nan,nan,nan,nan
1,133,1,1,1.0,1.0,0.39905467769131064,0,0.0,0.0,0.0,0.3683414167425958,0.08740786713665628,0.2809335496059395,0.45574928387925207,0.08740786713665628,0.44540724631709355,8,4,3,6,1,0,nan,nan,nan,nan,nan,nan,nan,nan,nan,nan,nan,nan,0.0,nan,nan,nan,nan,nan,nan,nan,nan,nan,nan,nan,nan,nan,nan,nan,nan,nan,nan,1744.0331581225619,1947.2853984804824,nan,1947.6844531581737,nan,nan,nan,nan
1,134,1,1,1.0,1.0,0.446243813727051,0,0.0,0.0,0.0,0.36857409296190424,0.08711686135411512,0.2814572316077891,0.45569095431601936,0.08711686135411512,0.4391480525179456,1,3,4,8,5,2,nan,nan,nan,nan,nan,nan,nan,nan,nan,nan,nan,nan,0.0,nan,nan,nan,nan,nan,nan,nan,nan,nan,nan,nan,nan,nan,nan,nan,nan,nan,nan,1744.0331581225619,1948.3022049060091,nan,1948.7484487197362,nan,nan,nan,nan
1,135,1,1,1.0,1.0,0.34908613795414567,0,0.0,0.0,0.0,0.3691580758248001,0.08704769680296413,0.28211037902183594,0.45620577262776424,0.08704769680296413,0.3981282097908358,7,4,2,0,1,5,nan,nan,nan,nan,nan,nan,nan,nan,nan,nan,nan,nan,0.0,nan,nan,nan,nan,nan,nan,nan,nan,nan,nan,nan,nan,nan,nan,nan,nan,nan,nan,1744.0331581225619,1949.3273484022357,nan,1949.6764345401898,nan,nan,nan,nan
1,136,1,1,1.0,1.0,0.3482707627117634,0,0.0,0.0,0.0,0.3690082852436758,0.08673948721580936,0.2822687980278664,0.45574777245948517,0.08673948721580936,0.3812002381309867,1,0,6,2,3,7,nan,nan,nan,nan,nan,nan,nan,nan,nan,nan,nan,nan,0.0,nan,nan,nan,nan,nan,nan,nan,nan,nan,nan,nan,nan,nan,nan,nan,nan,nan,nan,1744.0331581225619,1950.3441385773476,nan,1950.6924093400594,nan,nan,nan,nan
1,137,1,1,1.0,1.0,0.36343560414388776,0,0.0,0.0,0.0,0.36885467396566163,0.08643592520488358,0.28241874876077805,0.4552905991705452,0.08643592520488358,0.3535975016032656,4,8,5,1,0,6,nan,nan,nan,nan,nan,nan,nan,nan,nan,nan,nan,nan,0.0,nan,nan,nan,nan,nan,nan,nan,nan,nan,nan,nan,nan,nan,nan,nan,nan,nan,nan,1744.0331581225619,1951.360936164856,nan,1951.7243717689998,nan,nan,nan,nan
1,138,1,1,1.0,1.0,0.33861882821656764,0,0.0,0.0,0.0,0.3688148278640309,0.08611880421674488,0.282696023647286,0.4549336320807758,0.08611880421674488,0.35010839835740626,6,4,1,0,7,3,nan,nan,nan,nan,nan,nan,nan,nan,nan,nan,nan,nan,0.0,nan,nan,nan,nan,nan,nan,nan,nan,nan,nan,nan,nan,nan,nan,nan,nan,nan,nan,1744.0331581225619,1952.3777485776227,nan,1952.7163674058393,nan,nan,nan,nan
1,139,1,1,1.0,1.0,0.4657954315189272,0,0.0,0.0,0.0,0.3685944191074801,0.08584241761677747,0.2827520014907026,0.45443683672425755,0.08584241761677747,0.3892832879597942,1,0,6,7,8,4,nan,nan,nan,nan,nan,nan,nan,nan,nan,nan,nan,nan,0.0,nan,nan,nan,nan,nan,nan,nan,nan,nan,nan,nan,nan,nan,nan,nan,nan,nan,nan,1744.0331581225619,1953.39453248051,nan,1953.8603279120289,nan,nan,nan,nan
1,140,1,1,1.0,1.0,0.432986551662907,0,0.0,0.0,0.0,0.3692987742698819,0.08592724018125676,0.28337153408862514,0.45522601445113864,0.08592724018125676,0.41246693713280064,3,4,5,8,0,6,nan,nan,nan,nan,nan,nan,nan,nan,nan,nan,nan,nan,0.0,nan,nan,nan,nan,nan,nan,nan,nan,nan,nan,nan,nan,nan,nan,nan,nan,nan,nan,1744.0331581225619,1954.411324936431,nan,1954.8443114880938,nan,nan,nan,nan
1,141,1,1,1.0,1.0,0.4880919561255723,1,0.0,1.0,1.0,0.36975695971875255,0.08578661228121193,0.2839703474375406,0.4555435719999645,0.08578661228121193,0.46229131310246885,6,7,0,2,5,8,1.0,1.0,1.0,1.0,1.0,1.0,0.0,1.0,1.0,1.0,1.0,0.0,4.0,8.0,7.0,0.0,2.0,5.0,4.0,4.0,3.0,1.0,2.0,6.0,5.0,2.8285981218796223,2.1819304840173572,0.8302642244379967,1.4935327335260808,4.428263646783307,3.4212796434294432,1744.0331581225619,1955.4281581609976,1956.2365463778842,1955.9162501171231,1961.71225061547,1962.7101631406695,1957.2450200093444,1961.703928940231
1,142,1,1,1.0,1.0,0.4670250515919179,0,0.0,0.0,0.0,0.370602209693087,0.08605860977975653,0.28454359991333045,0.45666081947284354,0.08605860977975653,0.4627011864601324,1,8,2,0,6,3,nan,nan,nan,nan,nan,nan,nan,nan,nan,nan,nan,nan,0.0,nan,nan,nan,nan,nan,nan,nan,nan,nan,nan,nan,nan,nan,nan,nan,nan,nan,nan,1744.0331581225619,1962.9290708969347,nan,1963.3960959485266,nan,nan,nan,nan
1,143,1,1,1.0,1.0,0.4501350929494947,0,0.0,0.0,0.0,0.3712860596356319,0.08613379128241995,0.28515226835321195,0.4574198509180518,0.08613379128241995,0.468417366888995,3,4,6,7,0,2,nan,nan,nan,nan,nan,nan,nan,nan,nan,nan,nan,nan,0.0,nan,nan,nan,nan,nan,nan,nan,nan,nan,nan,nan,nan,nan,nan,nan,nan,nan,nan,1744.0331581225619,1963.9459423243534,nan,1964.3960774173029,nan,nan,nan,nan
1,144,1,1,1.0,1.0,0.3530059268232435,0,0.0,0.0,0.0,0.3718413345181239,0.08608285466950233,0.28575847984862157,0.45792418918762623,0.08608285466950233,0.42338869045488536,6,3,8,1,5,0,nan,nan,nan,nan,nan,nan,nan,nan,nan,nan,nan,nan,0.0,nan,nan,nan,nan,nan,nan,nan,nan,nan,nan,nan,nan,nan,nan,nan,nan,nan,nan,1744.0331581225619,1964.971045336919,nan,1965.3240512637421,nan,nan,nan,nan
1,145,1,1,1.0,1.0,0.3601934891194105,0,0.0,0.0,0.0,0.37170961838039746,0.08579569605156503,0.2859139223288324,0.4575053144319625,0.08579569605156503,0.38777816963071626,4,5,2,7,1,6,nan,nan,nan,nan,nan,nan,nan,nan,nan,nan,nan,nan,0.0,nan,nan,nan,nan,nan,nan,nan,nan,nan,nan,nan,nan,nan,nan,nan,nan,nan,nan,1744.0331581225619,1965.987840073416,nan,1966.3480335625354,nan,nan,nan,nan
1,146,1,1,1.0,1.0,0.40692105423659086,0,0.0,0.0,0.0,0.3716296452605295,0.08550262378899072,0.2861270214715388,0.4571322690495202,0.08550262378899072,0.3733734900597483,3,7,4,8,5,1,nan,nan,nan,nan,nan,nan,nan,nan,nan,nan,nan,nan,0.0,nan,nan,nan,nan,nan,nan,nan,nan,nan,nan,nan,nan,nan,nan,nan,nan,nan,nan,1744.0331581225619,1967.0130790767726,nan,1967.4200001310091,nan,nan,nan,nan
1,147,1,1,1.0,1.0,0.32622512290254235,0,0.0,0.0,0.0,0.3718730342879506,0.08525731855236628,0.2866157157355843,0.4571303528403169,0.08525731855236628,0.3644465554195146,2,5,1,0,8,3,nan,nan,nan,nan,nan,nan,nan,nan,nan,nan,nan,nan,0.0,nan,nan,nan,nan,nan,nan,nan,nan,nan,nan,nan,nan,nan,nan,nan,nan,nan,nan,1744.0331581225619,1968.0297669023275,nan,1968.35599202523,nan,nan,nan,nan
1,148,1,1,1.0,1.0,0.36539507075212896,0,0.0,0.0,0.0,0.3715603773606533,0.08504821206657931,0.286512165294074,0.4566085894272326,0.08504821206657931,0.36618041596375406,1,0,8,7,2,4,nan,nan,nan,nan,nan,nan,nan,nan,nan,nan,nan,nan,0.0,nan,nan,nan,nan,nan,nan,nan,nan,nan,nan,nan,nan,nan,nan,nan,nan,nan,nan,1744.0331581225619,1969.04656734108,nan,1969.411962411832,nan,nan,nan,nan
1,149,0,0,1.0,0.0,0.4605259969830513,0,0.0,0.0,0.0,0.37151843649937083,0.08475995377433776,0.28675848272503307,0.4562783902737086,0.08475995377433776,0.3840487302125742,5,7,3,4,1,2,nan,nan,nan,nan,nan,nan,nan,nan,nan,nan,nan,nan,0.0,nan,nan,nan,nan,nan,nan,nan,nan,nan,nan,nan,nan,nan,nan,nan,nan,nan,nan,1744.0331581225619,1970.0634156756569,nan,1970.52394167264,nan,nan,nan,nan
1,150,1,1,1.0,1.0,0.5157528521958739,0,0.0,0.0,0.0,0.37211983893507133,0.0847872349736379,0.28733260396143345,0.4569070739087092,0.0847872349736379,0.44722463997701806,4,2,5,7,3,1,nan,nan,nan,nan,nan,nan,nan,nan,nan,nan,nan,nan,0.0,nan,nan,nan,nan,nan,nan,nan,nan,nan,nan,nan,nan,nan,nan,nan,nan,nan,nan,1744.0331581225619,1971.0801608057227,nan,1971.5959136579186,nan,nan,nan,nan
1,151,1,1,1.0,1.0,0.418923037359491,1,0.0,1.0,1.0,0.3730838188898418,0.08531211999527075,0.2877716988945711,0.45839593888511254,0.08531211999527075,0.4650672955128054,0,4,8,6,5,2,1.0,1.0,1.0,1.0,1.0,1.0,0.0,1.0,1.0,1.0,0.0,0.0,3.0,2.0,4.0,8.0,6.0,6.0,5.0,4.0,3.0,1.0,2.0,6.0,5.0,3.3431233493611217,2.6150079811923206,0.9357170611619949,1.6394672461319715,4.727103561395779,3.999529020860791,1744.0331581225619,1972.0969717928674,1972.905420450028,1972.515894830227,1978.6894491852727,1979.6982178916223,1973.9221903833095,1978.6811192422174
1,152,1,1,1.0,1.0,0.5610543659422547,0,0.0,0.0,0.0,0.3733894136796395,0.08510905712157821,0.2882803565580613,0.45849847080121775,0.08510905712157821,0.49857675183253986,7,1,2,5,8,4,nan,nan,nan,nan,nan,nan,nan,nan,nan,nan,nan,nan,0.0,nan,nan,nan,nan,nan,nan,nan,nan,nan,nan,nan,nan,nan,nan,nan,nan,nan,nan,1744.0331581225619,1979.9146538630594,nan,1980.4757082290016,nan,nan,nan,nan
1,153,1,1,1.0,1.0,0.5518739805556834,0,0.0,0.0,0.0,0.3746322279330343,0.08618160565901282,0.28845062227402146,0.46081383359204714,0.08618160565901282,0.5106171279524764,4,5,3,2,7,8,nan,nan,nan,nan,nan,nan,nan,nan,nan,nan,nan,nan,0.0,nan,nan,nan,nan,nan,nan,nan,nan,nan,nan,nan,nan,nan,nan,nan,nan,nan,nan,1744.0331581225619,1980.939791942481,nan,1981.4916659230366,nan,nan,nan,nan
1,154,1,1,1.0,1.0,0.3830787376500666,1,0.0,1.0,1.0,0.3757982920950254,0.08708456287553173,0.2887137292194937,0.46288285497055714,0.08708456287553173,0.4986690280493349,5,6,0,7,2,1,1.0,1.0,1.0,1.0,1.0,1.0,0.0,0.0,1.0,0.0,1.0,1.0,3.0,6.0,5.0,0.0,4.0,2.0,1.0,5.0,2.0,1.0,3.0,4.0,6.0,4.939387105638161,1.7881224327720702,0.9795326530002058,2.788826050469652,3.5082454120274633,5.45902952644974,1744.0331581225619,1981.956599793397,1982.7650088223163,1982.339678531047,1989.2825056083966,1990.2903511729091,1983.7818155330606,1989.2741699635517
1,155,1,1,1.0,1.0,0.33573507936671376,0,0.0,0.0,0.0,0.3758458767064963,0.0868014888097115,0.28904438789678477,0.4626473655162078,0.0868014888097115,0.42356259919082123,1,3,4,8,6,0,nan,nan,nan,nan,nan,nan,nan,nan,nan,nan,nan,nan,0.0,nan,nan,nan,nan,nan,nan,nan,nan,nan,nan,nan,nan,nan,nan,nan,nan,nan,nan,1744.0331581225619,1990.5077122820076,nan,1990.8434473613743,nan,nan,nan,nan
1,156,1,1,1.0,1.0,0.4069341686554253,0,0.0,0.0,0.0,0.37558541698351067,0.08657916927764096,0.2890062477058697,0.46216458626115164,0.08657916927764096,0.3752493285574019,4,2,6,5,0,8,nan,nan,nan,nan,nan,nan,nan,nan,nan,nan,nan,nan,0.0,nan,nan,nan,nan,nan,nan,nan,nan,nan,nan,nan,nan,nan,nan,nan,nan,nan,nan,1744.0331581225619,1991.5245055931155,nan,1991.931439761771,nan,nan,nan,nan
1,157,0,0,0.0,1.0,0.5340913855470717,0,0.0,0.0,0.0,0.3757876669942972,0.08633591922769851,0.2894517477665987,0.46212358622199573,0.08633591922769851,0.4255868778564036,2,5,1,8,3,7,nan,nan,nan,nan,nan,nan,nan,nan,nan,nan,nan,nan,0.0,nan,nan,nan,nan,nan,nan,nan,nan,nan,nan,nan,nan,nan,nan,nan,nan,nan,nan,1744.0331581225619,1992.541290066205,nan,1993.075381451752,nan,nan,nan,nan
1,158,1,1,1.0,1.0,0.42930339300073683,0,0.0,0.0,0.0,0.37680243442091754,0.08698115486026439,0.2898212795606532,0.4637835892811819,0.08698115486026439,0.4567763157344113,3,2,5,6,4,0,nan,nan,nan,nan,nan,nan,nan,nan,nan,nan,nan,nan,0.0,nan,nan,nan,nan,nan,nan,nan,nan,nan,nan,nan,nan,nan,nan,nan,nan,nan,nan,1744.0331581225619,1993.5580876539461,nan,1993.9873910469469,nan,nan,nan,nan
1,159,1,1,1.0,1.0,0.4524375305045396,1,0.0,1.0,1.0,0.3771368354309801,0.08680424265391377,0.2903325927770663,0.4639410780848939,0.08680424265391377,0.4719441030174494,5,6,3,1,0,2,1.0,1.0,1.0,1.0,1.0,1.0,1.0,1.0,1.0,0.0,0.0,0.0,3.0,5.0,6.0,3.0,2.0,4.0,1.0,2.0,3.0,1.0,4.0,5.0,6.0,1.9929276166949421,2.648900797124952,1.1930917180143297,4.2482213554903865,5.640131235588342,7.024276233278215,1744.0331581225619,1994.5749012068845,1995.3833099505864,1995.027338737389,2003.4676913216244,2004.4704387944657,1996.4001112445258,2003.4593590977602
1,160,1,1,1.0,1.0,0.5341615190263838,0,0.0,0.0,0.0,0.3776134221086609,0.08673492371009751,0.2908784983985634,0.4643483458187584,0.08673492371009751,0.47196748084388673,4,8,0,2,7,1,nan,nan,nan,nan,nan,nan,nan,nan,nan,nan,nan,nan,0.0,nan,nan,nan,nan,nan,nan,nan,nan,nan,nan,nan,nan,nan,nan,nan,nan,nan,nan,1744.0331581225619,2004.6929430402815,nan,2005.227104559308,nan,nan,nan,nan
1,161,1,1,1.0,1.0,0.5413265586830676,0,0.0,0.0,0.0,0.3785980013345585,0.08734298750789625,0.29125501382666225,0.4659409888424548,0.08734298750789625,0.5093085360713303,0,3,2,8,6,5,nan,nan,nan,nan,nan,nan,nan,nan,nan,nan,nan,nan,0.0,nan,nan,nan,nan,nan,nan,nan,nan,nan,nan,nan,nan,nan,nan,nan,nan,nan,nan,1744.0331581225619,2005.7097474702168,nan,2006.2510740289,nan,nan,nan,nan
1,162,1,1,1.0,1.0,0.6766093042679131,1,0.0,1.0,1.0,0.3796150548179867,0.08800901505501231,0.2916060397629744,0.467624069872999,0.08800901505501231,0.5840324606591215,2,6,5,4,8,3,1.0,1.0,1.0,1.0,1.0,1.0,0.0,0.0,1.0,1.0,1.0,0.0,3.0,1.0,3.0,5.0,4.0,8.0,2.0,4.0,3.0,1.0,2.0,6.0,5.0,3.456891304347664,2.7771353924181312,0.8649019966833293,1.7297364256810397,4.816778030013666,3.9685493188444525,1744.0331581225619,2006.7264743540436,2007.534893361153,2007.4030836583115,2013.4106427009683,2014.4074174067937,2008.5516852468718,2013.4023167493287
1,163,1,1,1.0,1.0,0.37541392422281206,0,0.0,0.0,0.0,0.38145973959717877,0.09078510564036874,0.29067463395681004,0.4722448452375475,0.09078510564036874,0.5311165957245976,1,7,3,8,5,2,nan,nan,nan,nan,nan,nan,nan,nan,nan,nan,nan,nan,0.0,nan,nan,nan,nan,nan,nan,nan,nan,nan,nan,nan,nan,nan,nan,nan,nan,nan,nan,1744.0331581225619,2014.627499759663,nan,2015.0029136838857,nan,nan,nan,nan
1,164,1,1,1.0,1.0,0.40660060616210103,0,0.0,0.0,0.0,0.38142241974918883,0.09050570975242556,0.2909167099967633,0.4719281295016144,0.09050570975242556,0.4862079448842754,0,2,6,4,1,8,nan,nan,nan,nan,nan,nan,nan,nan,nan,nan,nan,nan,0.0,nan,nan,nan,nan,nan,nan,nan,nan,nan,nan,nan,nan,nan,nan,nan,nan,nan,nan,1744.0331581225619,2015.644295066595,nan,2016.0508956727572,nan,nan,nan,nan
1,165,1,1,1.0,1.0,0.35778185981325805,0,0.0,0.0,0.0,0.38157688715049504,0.09024907519550802,0.291327811954987,0.47182596234600305,0.09024907519550802,0.379932130066057,8,1,2,3,7,5,nan,nan,nan,nan,nan,nan,nan,nan,nan,nan,nan,nan,0.0,nan,nan,nan,nan,nan,nan,nan,nan,nan,nan,nan,nan,nan,nan,nan,nan,nan,nan,1744.0331581225619,2016.6610917989165,nan,2017.0188736587297,nan,nan,nan,nan
1,166,0,0,0.0,1.0,0.40496158762834966,0,0.0,0.0,0.0,0.38143179552038997,0.08999257182661144,0.2914392236937785,0.47142436734700144,0.08999257182661144,0.38978135120123625,1,3,7,2,4,0,nan,nan,nan,nan,nan,nan,nan,nan,nan,nan,nan,nan,0.0,nan,nan,nan,nan,nan,nan,nan,nan,nan,nan,nan,nan,nan,nan,nan,nan,nan,nan,1744.0331581225619,2017.6778902418446,nan,2018.082851829473,nan,nan,nan,nan
1,167,1,1,1.0,1.0,0.4037881314288825,0,0.0,0.0,0.0,0.3815744003210442,0.08973803710349475,0.29183636321754947,0.471312437424539,0.08973803710349475,0.3888438596234967,4,5,2,1,7,3,nan,nan,nan,nan,nan,nan,nan,nan,nan,nan,nan,nan,0.0,nan,nan,nan,nan,nan,nan,nan,nan,nan,nan,nan,nan,nan,nan,nan,nan,nan,nan,1744.0331581225619,2018.70303003164,nan,2019.106818163069,nan,nan,nan,nan
1,168,1,1,1.0,1.0,0.394955848576501,0,0.0,0.0,0.0,0.3817082179783204,0.08948384461738332,0.2922243733609371,0.4711920625957037,0.08948384461738332,0.4012351892112444,6,3,7,8,4,2,nan,nan,nan,nan,nan,nan,nan,nan,nan,nan,nan,nan,0.0,nan,nan,nan,nan,nan,nan,nan,nan,nan,nan,nan,nan,nan,nan,nan,nan,nan,nan,1744.0331581225619,2019.7198296149727,nan,2020.1147854635492,nan,nan,nan,nan
1,169,1,1,1.0,1.0,0.386136680142954,0,0.0,0.0,0.0,0.3817875451076508,0.08922138082905712,0.29256616427859367,0.4710089259367079,0.08922138082905712,0.3949602200494458,3,8,4,5,1,0,nan,nan,nan,nan,nan,nan,nan,nan,nan,nan,nan,nan,0.0,nan,nan,nan,nan,nan,nan,nan,nan,nan,nan,nan,nan,nan,nan,nan,nan,nan,nan,1744.0331581225619,2020.7366294835228,nan,2021.1227661636658,nan,nan,nan,nan
1,170,1,1,1.0,1.0,0.4173262130934745,0,0.0,0.0,0.0,0.3818134328161943,0.08895607374712639,0.2928573590690679,0.47076950656332067,0.08895607374712639,0.39947291393764317,4,3,5,7,8,1,nan,nan,nan,nan,nan,nan,nan,nan,nan,nan,nan,nan,0.0,nan,nan,nan,nan,nan,nan,nan,nan,nan,nan,nan,nan,nan,nan,nan,nan,nan,nan,1744.0331581225619,2021.7534239350352,nan,2022.1707501481287,nan,nan,nan,nan
1,171,1,1,1.0,1.0,0.44850462721660733,0,0.0,0.0,0.0,0.3820235676107344,0.08873431017525152,0.2932892574354829,0.47075787778598593,0.08873431017525152,0.41732250681767863,5,0,3,4,1,2,nan,nan,nan,nan,nan,nan,nan,nan,nan,nan,nan,nan,0.0,nan,nan,nan,nan,nan,nan,nan,nan,nan,nan,nan,nan,nan,nan,nan,nan,nan,nan,1744.0331581225619,2022.7702223779634,nan,2023.21872700518,nan,nan,nan,nan
1,172,1,1,1.0,1.0,0.5088751895818859,0,0.0,0.0,0.0,0.3824146326672395,0.0886188859652231,0.2937957467020164,0.4710335186324626,0.0886188859652231,0.4582353432973226,2,3,0,5,4,1,nan,nan,nan,nan,nan,nan,nan,nan,nan,nan,nan,nan,0.0,nan,nan,nan,nan,nan,nan,nan,nan,nan,nan,nan,nan,nan,nan,nan,nan,nan,nan,1744.0331581225619,2023.829815197736,nan,2024.338690387318,nan,nan,nan,nan
1,173,1,1,1.0,1.0,0.52483288384974,1,0.0,1.0,1.0,0.383154168087793,0.08888394864419835,0.29427021944359466,0.47203811673199136,0.08888394864419835,0.49407090021607775,0,1,8,3,6,7,1.0,1.0,1.0,1.0,1.0,1.0,0.0,1.0,1.0,1.0,0.0,0.0,3.0,2.0,1.0,8.0,3.0,3.0,5.0,4.0,3.0,1.0,2.0,6.0,5.0,3.5214807216543704,2.7297455489169806,0.7221317675430328,1.6498858048580587,5.609083680668846,4.384779051877558,1744.0331581225619,2024.8538391205948,2025.662247579312,2025.3786720044445,2032.329786545597,2033.3297913921997,2026.6790642682463,2032.3214406371117
1,174,0,0,0.0,1.0,0.5435072600375861,0,0.0,0.0,0.0,0.3839778815515253,0.0892773665840746,0.2947005149674507,0.4732552481355999,0.0892773665840746,0.5257384444897374,6,7,1,2,0,4,nan,nan,nan,nan,nan,nan,nan,nan,nan,nan,nan,nan,0.0,nan,nan,nan,nan,nan,nan,nan,nan,nan,nan,nan,nan,nan,nan,nan,nan,nan,nan,1744.0331581225619,2033.5549664199352,nan,2034.0984736799728,nan,nan,nan,nan
1,175,1,1,1.0,1.0,0.4143566503189504,0,0.0,0.0,0.0,0.38490001668728285,0.08983670486635358,0.29506331182092926,0.47473672155363644,0.08983670486635358,0.49423226473542553,4,6,0,5,2,7,nan,nan,nan,nan,nan,nan,nan,nan,nan,nan,nan,nan,0.0,nan,nan,nan,nan,nan,nan,nan,nan,nan,nan,nan,nan,nan,nan,nan,nan,nan,nan,1744.0331581225619,2034.5800956611056,nan,2034.9944523114245,nan,nan,nan,nan
1,176,1,1,1.0,1.0,0.39752627653069794,0,0.0,0.0,0.0,0.385069307685166,0.08960585178054876,0.29546345590461726,0.47467515946571476,0.08960585178054876,0.45179672896241146,0,3,8,6,7,2,nan,nan,nan,nan,nan,nan,nan,nan,nan,nan,nan,nan,0.0,nan,nan,nan,nan,nan,nan,nan,nan,nan,nan,nan,nan,nan,nan,nan,nan,nan,nan,1744.0331581225619,2035.5968986656517,nan,2035.9944249421824,nan,nan,nan,nan
1,177,1,1,1.0,1.0,0.3727077904623002,0,0.0,0.0,0.0,0.3851404903642833,0.08935440187445169,0.2957860884898316,0.47449489223873503,0.08935440187445169,0.3948635724373162,5,4,7,0,6,8,nan,nan,nan,nan,nan,nan,nan,nan,nan,nan,nan,nan,0.0,nan,nan,nan,nan,nan,nan,nan,nan,nan,nan,nan,nan,nan,nan,nan,nan,nan,nan,1744.0331581225619,2036.6136819983367,nan,2036.986389788799,nan,nan,nan,nan
1,178,1,1,1.0,1.0,0.37154545285739005,0,0.0,0.0,0.0,0.3850698500239311,0.08910509283878765,0.2959647571851435,0.4741749428627188,0.08910509283878765,0.3805931732834627,0,6,3,4,7,1,nan,nan,nan,nan,nan,nan,nan,nan,nan,nan,nan,nan,0.0,nan,nan,nan,nan,nan,nan,nan,nan,nan,nan,nan,nan,nan,nan,nan,nan,nan,nan,1744.0331581225619,2037.6388303411659,nan,2038.0103757940233,nan,nan,nan,nan
1,179,1,1,1.0,1.0,0.6267143196891993,0,0.0,0.0,0.0,0.38499344100039135,0.08885880910770859,0.29613463189268274,0.47385225010809995,0.08885880910770859,0.45698918766962987,4,7,8,5,3,6,nan,nan,nan,nan,nan,nan,nan,nan,nan,nan,nan,nan,0.0,nan,nan,nan,nan,nan,nan,nan,nan,nan,nan,nan,nan,nan,nan,nan,nan,nan,nan,1744.0331581225619,2038.6556330604944,nan,2039.2823473801836,nan,nan,nan,nan
1,180,1,1,1.0,1.0,0.6098933541215956,1,0.0,1.0,1.0,0.38635142346493523,0.09043195028936607,0.29591947317556916,0.4767833737543013,0.09043195028936607,0.5360510422227284,2,6,1,8,0,3,1.0,1.0,1.0,1.0,1.0,1.0,1.0,1.0,1.0,1.0,0.0,0.0,4.0,2.0,6.0,1.0,8.0,4.0,1.0,4.0,3.0,1.0,2.0,6.0,5.0,3.4953328312840313,2.838885535718873,0.9691779562272131,2.039351554121822,4.877896114718169,4.102199888322502,1744.0331581225619,2039.6724252311978,2040.4808419577312,2040.2823185853194,2046.4148946269415,2047.4162873222958,2041.4976361242589,2046.4065646838862
1,181,1,1,1.0,1.0,0.37001705169677734,0,0.0,0.0,0.0,0.3876002610663691,0.09170528231168043,0.2958949787546886,0.47930554337804954,0.09170528231168043,0.5355415751691908,1,8,4,2,5,7,nan,nan,nan,nan,nan,nan,nan,nan,nan,nan,nan,nan,0.0,nan,nan,nan,nan,nan,nan,nan,nan,nan,nan,nan,nan,nan,nan,nan,nan,nan,nan,1744.0331581225619,2047.6401249633636,nan,2048.0101420150604,nan,nan,nan,nan
1,182,0,0,0.0,1.0,0.47319253953173757,0,0.0,0.0,0.0,0.38750257656987136,0.09145952892268244,0.2960430476471889,0.4789621054925538,0.09145952892268244,0.4843676484500368,8,0,1,4,2,5,nan,nan,nan,nan,nan,nan,nan,nan,nan,nan,nan,nan,0.0,nan,nan,nan,nan,nan,nan,nan,nan,nan,nan,nan,nan,nan,nan,nan,nan,nan,nan,1744.0331581225619,2048.656924831681,nan,2049.1301173712127,nan,nan,nan,nan
1,183,1,1,1.0,1.0,0.4560243268497288,0,0.0,0.0,0.0,0.38797600177960545,0.09142742735294232,0.29654857442666316,0.47940342913254774,0.09142742735294232,0.4330779726927479,4,2,3,5,7,0,nan,nan,nan,nan,nan,nan,nan,nan,nan,nan,nan,nan,0.0,nan,nan,nan,nan,nan,nan,nan,nan,nan,nan,nan,nan,nan,nan,nan,nan,nan,nan,1744.0331581225619,2049.682068612892,nan,2050.138092939742,nan,nan,nan,nan
1,184,1,1,1.0,1.0,0.4392167606856674,0,0.0,0.0,0.0,0.38834989367559514,0.09131456052207743,0.2970353331535177,0.47966445419767256,0.09131456052207743,0.4561445423557113,0,3,2,7,8,5,nan,nan,nan,nan,nan,nan,nan,nan,nan,nan,nan,nan,0.0,nan,nan,nan,nan,nan,nan,nan,nan,nan,nan,nan,nan,nan,nan,nan,nan,nan,nan,1744.0331581225619,2050.6988599284086,nan,2051.1380766890943,nan,nan,nan,nan
1,185,1,1,1.0,1.0,0.5023704329505563,0,0.0,0.0,0.0,0.3886278546975081,0.09114190012783646,0.29748595456967164,0.47976975482534456,0.09114190012783646,0.46587050682865083,7,5,4,1,6,0,nan,nan,nan,nan,nan,nan,nan,nan,nan,nan,nan,nan,0.0,nan,nan,nan,nan,nan,nan,nan,nan,nan,nan,nan,nan,nan,nan,nan,nan,nan,nan,1744.0331581225619,2051.7156540949363,nan,2052.218024527887,nan,nan,nan,nan
1,186,1,1,1.0,1.0,0.469566399930045,0,0.0,0.0,0.0,0.38924602088366594,0.0912777614938636,0.2979682593898023,0.4805237823775296,0.0912777614938636,0.4703845311887562,8,4,2,7,5,1,nan,nan,nan,nan,nan,nan,nan,nan,nan,nan,nan,nan,0.0,nan,nan,nan,nan,nan,nan,nan,nan,nan,nan,nan,nan,nan,nan,nan,nan,nan,nan,1744.0331581225619,2052.7324585248716,nan,2053.2020249248017,nan,nan,nan,nan
1,187,1,1,1.0,1.0,0.43641568976454437,0,0.0,0.0,0.0,0.38968018509472746,0.09122103727934076,0.2984591478153867,0.48090122237406824,0.09122103727934076,0.46945084088171524,1,7,3,0,2,6,nan,nan,nan,nan,nan,nan,nan,nan,nan,nan,nan,nan,0.0,nan,nan,nan,nan,nan,nan,nan,nan,nan,nan,nan,nan,nan,nan,nan,nan,nan,nan,1744.0331581225619,2053.757590046851,nan,2054.1940057366155,nan,nan,nan,nan
1,188,1,1,1.0,1.0,0.4115666982252151,0,0.0,0.0,0.0,0.38993145124886625,0.09103965897518707,0.2988917922736792,0.4809711102240533,0.09103965897518707,0.43918292930660147,6,0,5,2,8,4,nan,nan,nan,nan,nan,nan,nan,nan,nan,nan,nan,nan,0.0,nan,nan,nan,nan,nan,nan,nan,nan,nan,nan,nan,nan,nan,nan,nan,nan,nan,nan,1744.0331581225619,2054.774390770588,nan,2055.1859574688133,nan,nan,nan,nan
1,189,1,1,1.0,1.0,0.410798363853246,0,0.0,0.0,0.0,0.3900471477567612,0.09080962071120809,0.2992375270455531,0.48085676846796926,0.09080962071120809,0.4195935839476685,5,1,7,4,0,3,nan,nan,nan,nan,nan,nan,nan,nan,nan,nan,nan,nan,0.0,nan,nan,nan,nan,nan,nan,nan,nan,nan,nan,nan,nan,nan,nan,nan,nan,nan,nan,1744.0331581225619,2055.791189498501,nan,2056.201987862354,nan,nan,nan,nan
1,190,1,1,1.0,1.0,0.3859450954478234,0,0.0,0.0,0.0,0.390157526565785,0.09058036080175132,0.2995771657640337,0.4807378873675363,0.09058036080175132,0.40277005250876147,7,0,1,8,3,2,nan,nan,nan,nan,nan,nan,nan,nan,nan,nan,nan,nan,0.0,nan,nan,nan,nan,nan,nan,nan,nan,nan,nan,nan,nan,nan,nan,nan,nan,nan,nan,1744.0331581225619,2056.807997634867,nan,2057.193942730315,nan,nan,nan,nan
1,191,1,1,1.0,1.0,0.42511504329741,0,0.0,0.0,0.0,0.3901352385704519,0.09034092928084288,0.29979430928960904,0.48047616785129477,0.09034092928084288,0.4072861675328265,8,3,4,7,2,6,nan,nan,nan,nan,nan,nan,nan,nan,nan,nan,nan,nan,0.0,nan,nan,nan,nan,nan,nan,nan,nan,nan,nan,nan,nan,nan,nan,nan,nan,nan,nan,1744.0331581225619,2057.8247906609904,nan,2058.249905704288,nan,nan,nan,nan
1,192,1,1,1.0,1.0,0.41223467886447906,0,0.0,0.0,0.0,0.39031934280585695,0.09013841779633887,0.3001809250095181,0.4804577606021958,0.09013841779633887,0.4077649392032375,3,8,1,0,7,2,nan,nan,nan,nan,nan,nan,nan,nan,nan,nan,nan,nan,0.0,nan,nan,nan,nan,nan,nan,nan,nan,nan,nan,nan,nan,nan,nan,nan,nan,nan,nan,1744.0331581225619,2058.877654923359,nan,2059.2898896022234,nan,nan,nan,nan
1,193,1,1,1.0,1.0,0.4937898903153837,0,0.0,0.0,0.0,0.39043408278522146,0.08991605440301537,0.3005180283822061,0.4803501371882368,0.08991605440301537,0.44371320415909093,2,7,6,3,5,8,nan,nan,nan,nan,nan,nan,nan,nan,nan,nan,nan,nan,0.0,nan,nan,nan,nan,nan,nan,nan,nan,nan,nan,nan,nan,nan,nan,nan,nan,nan,nan,1744.0331581225619,2059.9000552231446,nan,2060.39384511346,nan,nan,nan,nan
1,194,0,0,0.0,1.0,0.5009175823070109,0,0.0,0.0,0.0,0.39097239428277436,0.0899896429705371,0.3009827513122373,0.48096203725331144,0.0899896429705371,0.4689807171622912,7,4,5,1,6,0,nan,nan,nan,nan,nan,nan,nan,nan,nan,nan,nan,nan,0.0,nan,nan,nan,nan,nan,nan,nan,nan,nan,nan,nan,nan,nan,nan,nan,nan,nan,nan,1744.0331581225619,2060.9169209487736,nan,2061.4178385310806,nan,nan,nan,nan
1,195,1,1,1.0,1.0,0.4281647182069719,0,0.0,0.0,0.0,0.39154205846942847,0.09010262986020087,0.30143942860922757,0.48164468832962937,0.09010262986020087,0.47429073027645546,8,5,4,7,2,3,nan,nan,nan,nan,nan,nan,nan,nan,nan,nan,nan,nan,0.0,nan,nan,nan,nan,nan,nan,nan,nan,nan,nan,nan,nan,nan,nan,nan,nan,nan,nan,1744.0331581225619,2061.933660376817,nan,2062.361825095024,nan,nan,nan,nan
1,196,1,1,1.0,1.0,0.4350070289801806,0,0.0,0.0,0.0,0.39173083506601375,0.0899083639990721,0.30182247106694166,0.48163919906508584,0.0899083639990721,0.45469644316472113,1,8,0,6,3,4,nan,nan,nan,nan,nan,nan,nan,nan,nan,nan,nan,nan,0.0,nan,nan,nan,nan,nan,nan,nan,nan,nan,nan,nan,nan,nan,nan,nan,nan,nan,nan,1744.0331581225619,2062.958790758392,nan,2063.393797787372,nan,nan,nan,nan
1,197,0,0,0.0,1.0,0.570154924178496,0,0.0,0.0,0.0,0.39195276426557357,0.08973079180511208,0.3022219724604615,0.48168355607068564,0.08973079180511208,0.47777555712188285,8,7,4,3,5,0,nan,nan,nan,nan,nan,nan,nan,nan,nan,nan,nan,nan,0.0,nan,nan,nan,nan,nan,nan,nan,nan,nan,nan,nan,nan,nan,nan,nan,nan,nan,nan,1744.0331581225619,2063.9756003201474,nan,2064.545755244326,nan,nan,nan,nan
1,198,1,1,1.0,1.0,0.4493661883752793,1,0.0,1.0,1.0,0.39286195895900683,0.09039761696403273,0.3024643419949741,0.4832595759230396,0.09039761696403273,0.484842713844652,2,3,8,0,1,5,1.0,1.0,1.0,1.0,1.0,1.0,0.0,1.0,1.0,1.0,0.0,1.0,4.0,6.0,3.0,8.0,0.0,4.0,5.0,6.0,2.0,1.0,3.0,4.0,5.0,5.637399157742038,2.343409585999325,1.189483254449442,3.1972897606901824,4.101921349298209,5.029967325041071,1744.0331581225619,2064.9923813720234,2065.8008035153616,2065.4417475603987,2072.4933294598013,2073.4988988155965,2066.8176068048924,2072.485003222944
1,199,1,1,1.0,1.0,0.31499432516284287,0,0.0,0.0,0.0,0.3931487824585818,0.09025725880633922,0.3028915236522426,0.48340604126492104,0.09025725880633922,0.4448384792388727,4,2,1,5,0,6,nan,nan,nan,nan,nan,nan,nan,nan,nan,nan,nan,nan,0.0,nan,nan,nan,nan,nan,nan,nan,nan,nan,nan,nan,nan,nan,nan,nan,nan,nan,nan,1744.0331581225619,2073.71852444415,nan,2074.0335187693126,nan,nan,nan,nan
1,200,1,1,1.0,1.0,0.3941946413833648,0,0.0,0.0,0.0,0.3927540629772902,0.0901993500741872,0.302554712903103,0.48295341305147743,0.0901993500741872,0.38618505164049566,8,7,6,3,5,2,nan,nan,nan,nan,nan,nan,nan,nan,nan,nan,nan,nan,0.0,nan,nan,nan,nan,nan,nan,nan,nan,nan,nan,nan,nan,nan,nan,nan,nan,nan,nan,1744.0331581225619,2074.735322602093,nan,2075.1295172434766,nan,nan,nan,nan
1,201,1,1,1.0,1.0,0.3933461948763579,0,0.0,0.0,0.0,0.3927613020647579,0.08997249077321218,0.3027888112915457,0.4827337928379701,0.08997249077321218,0.3675117204741885,0,6,7,2,4,5,nan,nan,nan,nan,nan,nan,nan,nan,nan,nan,nan,nan,0.0,nan,nan,nan,nan,nan,nan,nan,nan,nan,nan,nan,nan,nan,nan,nan,nan,nan,nan,1744.0331581225619,2075.7521501248702,nan,2076.1454963197466,nan,nan,nan,nan
1,202,0,0,0.0,1.0,0.5845414525829256,0,0.0,0.0,0.0,0.39276422652881593,0.0897472871590088,0.3030169393698071,0.48251151368782474,0.0897472871590088,0.4573607629475494,8,1,5,4,3,7,nan,nan,nan,nan,nan,nan,nan,nan,nan,nan,nan,nan,0.0,nan,nan,nan,nan,nan,nan,nan,nan,nan,nan,nan,nan,nan,nan,nan,nan,nan,nan,1744.0331581225619,2076.7689257599413,nan,2077.3534672125243,nan,nan,nan,nan
1,203,1,1,1.0,1.0,0.4633980568032712,0,0.0,0.0,0.0,0.39371834208132395,0.09053491224231149,0.3031834298390125,0.4842532543236354,0.09053491224231149,0.4804285680875182,3,8,4,6,1,5,nan,nan,nan,nan,nan,nan,nan,nan,nan,nan,nan,nan,0.0,nan,nan,nan,nan,nan,nan,nan,nan,nan,nan,nan,nan,nan,nan,nan,nan,nan,nan,1744.0331581225619,2077.794051009929,nan,2078.257449066732,nan,nan,nan,nan
1,204,1,1,1.0,1.0,0.3585633086040616,0,0.0,0.0,0.0,0.3940632911641059,0.09044285608974434,0.30362043507436154,0.4845061472538502,0.09044285608974434,0.4688342726634194,0,5,2,1,8,3,nan,nan,nan,nan,nan,nan,nan,nan,nan,nan,nan,nan,0.0,nan,nan,nan,nan,nan,nan,nan,nan,nan,nan,nan,nan,nan,nan,nan,nan,nan,nan,1744.0331581225619,2078.81084774225,nan,2079.1694110508543,nan,nan,nan,nan
1,205,1,1,1.0,1.0,0.4137434083968401,0,0.0,0.0,0.0,0.3938884144027263,0.09025404497053131,0.303634369432195,0.4841424593732576,0.09025404497053131,0.41190159126805764,8,2,5,3,7,6,nan,nan,nan,nan,nan,nan,nan,nan,nan,nan,nan,nan,0.0,nan,nan,nan,nan,nan,nan,nan,nan,nan,nan,nan,nan,nan,nan,nan,nan,nan,nan,1744.0331581225619,2079.8276493211742,nan,2080.241392729571,nan,nan,nan,nan
1,206,1,1,1.0,1.0,0.39691331959329545,0,0.0,0.0,0.0,0.39398574280465826,0.09004324105402861,0.30394250175062965,0.48402898385868687,0.09004324105402861,0.3897400121980657,1,4,8,5,6,7,nan,nan,nan,nan,nan,nan,nan,nan,nan,nan,nan,nan,0.0,nan,nan,nan,nan,nan,nan,nan,nan,nan,nan,nan,nan,nan,nan,nan,nan,nan,nan,1744.0331581225619,2080.844467150746,nan,2081.241380470339,nan,nan,nan,nan
1,207,1,1,1.0,1.0,0.4200902215670794,0,0.0,0.0,0.0,0.39400002366704184,0.08982358650095462,0.3041764371660872,0.48382361016799647,0.08982358650095462,0.4102489831857383,8,0,2,3,7,1,nan,nan,nan,nan,nan,nan,nan,nan,nan,nan,nan,nan,0.0,nan,nan,nan,nan,nan,nan,nan,nan,nan,nan,nan,nan,nan,nan,nan,nan,nan,nan,1744.0331581225619,2081.8612493432593,nan,2082.2813395648263,nan,nan,nan,nan
1,208,0,0,0.0,1.0,0.46694978629238904,0,0.0,0.0,0.0,0.3941266751131585,0.08962364989717256,0.30450302521598593,0.4837503250103311,0.08962364989717256,0.42798444248425466,4,7,5,2,6,3,nan,nan,nan,nan,nan,nan,nan,nan,nan,nan,nan,nan,0.0,nan,nan,nan,nan,nan,nan,nan,nan,nan,nan,nan,nan,nan,nan,nan,nan,nan,nan,1744.0331581225619,2082.886375163216,nan,2083.3533249495085,nan,nan,nan,nan
1,209,1,1,1.0,1.0,0.41812761896289885,0,0.0,0.0,0.0,0.39447847758262344,0.08954937380120798,0.30492910378141547,0.4840278513838314,0.08954937380120798,0.4350558756074558,1,3,4,7,0,6,nan,nan,nan,nan,nan,nan,nan,nan,nan,nan,nan,nan,0.0,nan,nan,nan,nan,nan,nan,nan,nan,nan,nan,nan,nan,nan,nan,nan,nan,nan,nan,1744.0331581225619,2083.9031773123425,nan,2084.3213049313053,nan,nan,nan,nan
1,210,1,1,1.0,1.0,0.4169518817216158,0,0.0,0.0,0.0,0.3945921753777209,0.08934882739716886,0.305243347980552,0.4839410027748898,0.08934882739716886,0.43400976232563454,6,5,1,0,3,2,nan,nan,nan,nan,nan,nan,nan,nan,nan,nan,nan,nan,0.0,nan,nan,nan,nan,nan,nan,nan,nan,nan,nan,nan,nan,nan,nan,nan,nan,nan,nan,1744.0331581225619,2084.92832365958,nan,2085.345275541302,nan,nan,nan,nan
1,211,1,1,1.0,1.0,0.4401407577097416,0,0.0,0.0,0.0,0.39469915961860075,0.0891481713589671,0.30555098825963367,0.4838473309775678,0.0891481713589671,0.4250734194647521,0,3,5,7,6,8,nan,nan,nan,nan,nan,nan,nan,nan,nan,nan,nan,nan,0.0,nan,nan,nan,nan,nan,nan,nan,nan,nan,nan,nan,nan,nan,nan,nan,nan,nan,nan,1744.0331581225619,2085.9451135494746,nan,2086.3852543071844,nan,nan,nan,nan
1,212,1,1,1.0,1.0,0.4549897122196853,0,0.0,0.0,0.0,0.39491554818093955,0.0889906620364604,0.30592488614447916,0.48390621021739993,0.0889906620364604,0.4373607838836809,1,2,3,8,5,0,nan,nan,nan,nan,nan,nan,nan,nan,nan,nan,nan,nan,0.0,nan,nan,nan,nan,nan,nan,nan,nan,nan,nan,nan,nan,nan,nan,nan,nan,nan,nan,1744.0331581225619,2086.97024336108,nan,2087.4252330732998,nan,nan,nan,nan
1,213,1,1,1.0,1.0,0.4141451090108603,0,0.0,0.0,0.0,0.39520025985884827,0.08887535247604203,0.30632490738280627,0.48407561233489027,0.08887535247604203,0.43642519298009574,0,7,2,5,8,4,nan,nan,nan,nan,nan,nan,nan,nan,nan,nan,nan,nan,0.0,nan,nan,nan,nan,nan,nan,nan,nan,nan,nan,nan,nan,nan,nan,nan,nan,nan,nan,1744.0331581225619,2087.9870654668193,nan,2088.40121057583,nan,nan,nan,nan
1,214,1,1,1.0,1.0,0.4293433064594865,0,0.0,0.0,0.0,0.3952896223548483,0.08867499437349845,0.30661462798134986,0.4839646167283468,0.08867499437349845,0.43282604256334406,7,1,6,0,5,3,nan,nan,nan,nan,nan,nan,nan,nan,nan,nan,nan,nan,0.0,nan,nan,nan,nan,nan,nan,nan,nan,nan,nan,nan,nan,nan,nan,nan,nan,nan,nan,1744.0331581225619,2089.003843667917,nan,2089.4331869743764,nan,nan,nan,nan
1,215,1,1,1.0,1.0,0.44449104205705225,0,0.0,0.0,0.0,0.39544949880604385,0.0884972132919155,0.30695228551412834,0.48394671209795936,0.0884972132919155,0.42932648584246635,8,5,7,2,1,4,nan,nan,nan,nan,nan,nan,nan,nan,nan,nan,nan,nan,0.0,nan,nan,nan,nan,nan,nan,nan,nan,nan,nan,nan,nan,nan,nan,nan,nan,nan,nan,1744.0331581225619,2090.020672616083,nan,2090.46516365814,nan,nan,nan,nan
1,216,1,1,1.0,1.0,0.41970106516964734,0,0.0,0.0,0.0,0.3956786648960018,0.08835352798752691,0.30732513690847485,0.4840321928835287,0.08835352798752691,0.4311784712287287,7,4,0,8,6,5,nan,nan,nan,nan,nan,nan,nan,nan,nan,nan,nan,nan,0.0,nan,nan,nan,nan,nan,nan,nan,nan,nan,nan,nan,nan,nan,nan,nan,nan,nan,nan,1744.0331581225619,2091.0374416941777,nan,2091.4571427593473,nan,nan,nan,nan
1,217,1,1,1.0,1.0,0.3788627339527011,0,0.0,0.0,0.0,0.39579039699029783,0.08816296791315797,0.30762742907713986,0.4839533649034558,0.08816296791315797,0.4143516137264669,3,8,5,6,2,1,nan,nan,nan,nan,nan,nan,nan,nan,nan,nan,nan,nan,0.0,nan,nan,nan,nan,nan,nan,nan,nan,nan,nan,nan,nan,nan,nan,nan,nan,nan,nan,1744.0331581225619,2092.0542486899067,nan,2092.4331114238594,nan,nan,nan,nan
1,218,1,1,1.0,1.0,0.4180543490219861,0,0.0,0.0,0.0,0.3957120281799386,0.08796615603129686,0.30774587214864174,0.4836781842112355,0.08796615603129686,0.4055393827147782,5,7,4,1,0,3,nan,nan,nan,nan,nan,nan,nan,nan,nan,nan,nan,nan,0.0,nan,nan,nan,nan,nan,nan,nan,nan,nan,nan,nan,nan,nan,nan,nan,nan,nan,nan,1744.0331581225619,2093.071038580034,nan,2093.489092929056,nan,nan,nan,nan
1,219,1,1,1.0,1.0,0.43289075954817235,0,0.0,0.0,0.0,0.395814988183819,0.08777627914114206,0.30803870904267694,0.48359126732496105,0.08777627914114206,0.40993594750761986,7,2,8,6,3,5,nan,nan,nan,nan,nan,nan,nan,nan,nan,nan,nan,nan,0.0,nan,nan,nan,nan,nan,nan,nan,nan,nan,nan,nan,nan,nan,nan,nan,nan,nan,nan,1744.0331581225619,2094.096169531811,nan,2094.529060291359,nan,nan,nan,nan
1,220,1,1,1.0,1.0,0.4480601621326059,0,0.0,0.0,0.0,0.39598506052952703,0.08761055456946476,0.3083745059600623,0.4835956150989918,0.08761055456946476,0.43300175690092146,3,7,0,5,4,2,nan,nan,nan,nan,nan,nan,nan,nan,nan,nan,nan,nan,0.0,nan,nan,nan,nan,nan,nan,nan,nan,nan,nan,nan,nan,nan,nan,nan,nan,nan,nan,1744.0331581225619,2095.112971966155,nan,2095.5610321282875,nan,nan,nan,nan
1,221,1,1,1.0,1.0,0.4312417625915259,0,0.0,0.0,0.0,0.3962228463815959,0.08748078079269604,0.30874206558889983,0.48370362717429194,0.08748078079269604,0.4373975614241014,4,0,2,3,8,7,nan,nan,nan,nan,nan,nan,nan,nan,nan,nan,nan,nan,0.0,nan,nan,nan,nan,nan,nan,nan,nan,nan,nan,nan,nan,nan,nan,nan,nan,nan,nan,1744.0331581225619,2096.129778961884,nan,2096.5610207244754,nan,nan,nan,nan
1,222,1,1,1.0,1.0,0.4144302050117403,0,0.0,0.0,0.0,0.3963820232734592,0.08731351569498697,0.30906850757847226,0.4836955389684462,0.08731351569498697,0.4312440432452907,7,6,8,1,5,3,nan,nan,nan,nan,nan,nan,nan,nan,nan,nan,nan,nan,0.0,nan,nan,nan,nan,nan,nan,nan,nan,nan,nan,nan,nan,nan,nan,nan,nan,nan,nan,1744.0331581225619,2097.146568852011,nan,2097.560999057023,nan,nan,nan,nan
1,223,1,1,1.0,1.0,0.3815985177643597,0,0.0,0.0,0.0,0.3964636892541754,0.08712417071167919,0.3093395185424962,0.4835878599658546,0.08712417071167919,0.40909016178920865,5,1,3,6,0,2,nan,nan,nan,nan,nan,nan,nan,nan,nan,nan,nan,nan,0.0,nan,nan,nan,nan,nan,nan,nan,nan,nan,nan,nan,nan,nan,nan,nan,nan,nan,nan,1744.0331581225619,2098.1633672949392,nan,2098.5449658127036,nan,nan,nan,nan
1,224,1,1,1.0,1.0,0.4127427202183753,0,0.0,0.0,0.0,0.3963967290222393,0.08693342295583995,0.3094633060663994,0.48333015197807927,0.08693342295583995,0.40292381433149177,8,2,1,0,7,5,nan,nan,nan,nan,nan,nan,nan,nan,nan,nan,nan,nan,0.0,nan,nan,nan,nan,nan,nan,nan,nan,nan,nan,nan,nan,nan,nan,nan,nan,nan,nan,1744.0331581225619,2099.1802067917306,nan,2099.592949511949,nan,nan,nan,nan
1,225,1,1,1.0,1.0,0.7159674158319831,1,0.0,1.0,1.0,0.3964700294311906,0.08674516151234822,0.30972486791884235,0.4832151909435388,0.08674516151234822,0.5034362179382393,1,6,4,8,3,2,1.0,1.0,1.0,1.0,1.0,1.0,0.0,1.0,1.0,1.0,0.0,0.0,3.0,5.0,6.0,4.0,8.0,1.0,1.0,4.0,3.0,1.0,2.0,6.0,5.0,3.2323685770388693,2.6166358808986843,0.8159652205649763,1.6247061013709754,4.975381365977228,3.8798490243498236,1744.0331581225619,2100.196960759582,2101.0053948769346,2100.912928175414,2107.04781976901,2108.052132990444,2102.030514995102,2107.0394938171376
1,226,1,1,nan,nan,nan,0,0.0,0.0,0.0,0.0,0.0,0.0,0.0,0.0,0.0,4,8,6,1,5,7,nan,nan,nan,nan,nan,nan,nan,nan,nan,nan,nan,nan,0.0,nan,nan,nan,nan,nan,nan,nan,nan,nan,nan,nan,nan,nan,nan,nan,nan,nan,nan,1744.0331581225619,2108.2730255869683,nan,nan,nan,nan,nan,nan
1,227,1,1,1.0,1.0,0.7427881334442645,0,0.0,0.0,0.0,0.3978963570490513,0.08913363039723181,0.3087627266518195,0.4870299874462831,0.08913363039723181,0.7293777746381238,3,5,7,8,2,1,nan,nan,nan,nan,nan,nan,nan,nan,nan,nan,nan,nan,0.0,nan,nan,nan,nan,nan,nan,nan,nan,nan,nan,nan,nan,nan,nan,nan,nan,nan,nan,1744.0331581225619,2109.289851969341,nan,2110.032640102785,nan,nan,nan,nan
1,228,1,1,1.0,1.0,0.4140572992619127,1,0.0,1.0,1.0,0.39942920938858556,0.09184667853291026,0.30758253085567533,0.4912758879214958,0.09184667853291026,0.5784227163530886,4,7,3,2,1,8,1.0,1.0,1.0,1.0,1.0,1.0,0.0,0.0,1.0,1.0,0.0,1.0,3.0,7.0,5.0,3.0,2.0,3.0,8.0,4.0,3.0,1.0,2.0,6.0,5.0,3.4509302265942097,2.603558799950406,1.0743320123292506,1.8814615290611982,5.425675542792305,4.418598027667031,1744.0331581225619,2110.3066025162116,2111.1150303613394,2110.7206598154735,2117.6075381736737,2118.6131046784576,2112.1401704361197,2117.59920452442
1,229,1,1,nan,nan,nan,0,0.0,0.0,0.0,0.0,0.0,0.0,0.0,0.0,0.0,7,1,0,4,6,5,nan,nan,nan,nan,nan,nan,nan,nan,nan,nan,nan,nan,0.0,nan,nan,nan,nan,nan,nan,nan,nan,nan,nan,nan,nan,nan,nan,nan,nan,nan,nan,1744.0331581225619,2118.8327146267984,nan,nan,nan,nan,nan,nan
1,230,1,1,nan,nan,nan,0,0.0,0.0,0.0,0.0,0.0,0.0,0.0,0.0,0.0,2,0,7,8,5,1,nan,nan,nan,nan,nan,nan,nan,nan,nan,nan,nan,nan,0.0,nan,nan,nan,nan,nan,nan,nan,nan,nan,nan,nan,nan,nan,nan,nan,nan,nan,nan,1744.0331581225619,2119.8578461487778,nan,nan,nan,nan,nan,nan
1,231,1,1,nan,nan,nan,0,0.0,0.0,0.0,0.0,0.0,0.0,0.0,0.0,0.0,5,6,4,2,8,0,nan,nan,nan,nan,nan,nan,nan,nan,nan,nan,nan,nan,0.0,nan,nan,nan,nan,nan,nan,nan,nan,nan,nan,nan,nan,nan,nan,nan,nan,nan,nan,1744.0331581225619,2120.8829879343975,nan,nan,nan,nan,nan,nan
1,232,1,1,1.0,1.0,0.7645979986991733,1,0.0,1.0,1.0,0.39949393544997197,0.09164839542161089,0.30784554002836106,0.4911423308715829,0.09164839542161089,0.7645979986991733,0,3,6,5,7,8,1.0,1.0,1.0,1.0,1.0,1.0,0.0,0.0,1.0,1.0,0.0,0.0,2.0,2.0,1.0,6.0,5.0,6.0,4.0,4.0,3.0,1.0,2.0,6.0,5.0,3.352329963585362,2.5454359364230186,1.0746630090288818,1.7686831431929022,4.496383126126602,3.8729793443344533,1744.0331581225619,2121.8997872325126,2122.7082059546374,2122.664385231212,2128.2589158872142,2129.2676729045343,2123.7250072485767,2128.2505939267576
1,233,0,0,1.0,0.0,0.37171422969549894,0,0.0,0.0,0.0,0.40110232339380103,0.094588945220886,0.306513378172915,0.49569126861468704,0.094588945220886,0.5681561141973361,6,1,2,8,3,4,nan,nan,nan,nan,nan,nan,nan,nan,nan,nan,nan,nan,0.0,nan,nan,nan,nan,nan,nan,nan,nan,nan,nan,nan,nan,nan,nan,nan,nan,nan,nan,1744.0331581225619,2129.492516365135,nan,2129.8642305948306,nan,nan,nan,nan
1,234,1,1,1.0,1.0,0.30695831635966897,0,0.0,0.0,0.0,0.40097342824600146,0.09440126269260533,0.3065721655533961,0.4953746909386068,0.09440126269260533,0.4810901815847804,1,3,8,6,4,0,nan,nan,nan,nan,nan,nan,nan,nan,nan,nan,nan,nan,0.0,nan,nan,nan,nan,nan,nan,nan,nan,nan,nan,nan,nan,nan,nan,nan,nan,nan,nan,1744.0331581225619,2130.5092808816116,nan,2130.8162391979713,nan,nan,nan,nan
1,235,1,1,1.0,1.0,0.3381073654163629,0,0.0,0.0,0.0,0.40056288190588646,0.09439868713554417,0.3061641947703423,0.4949615690414306,0.09439868713554417,0.3389266371571769,8,1,3,4,7,5,nan,nan,nan,nan,nan,nan,nan,nan,nan,nan,nan,nan,0.0,nan,nan,nan,nan,nan,nan,nan,nan,nan,nan,nan,nan,nan,nan,nan,nan,nan,nan,1744.0331581225619,2131.5260719121434,nan,2131.8641792775597,nan,nan,nan,nan
1,236,1,1,1.0,1.0,0.3613432825077325,0,0.0,0.0,0.0,0.400291336182019,0.09428284021217004,0.30600849596984897,0.49457417639418905,0.09428284021217004,0.3354696547612548,7,6,8,5,1,4,nan,nan,nan,nan,nan,nan,nan,nan,nan,nan,nan,nan,0.0,nan,nan,nan,nan,nan,nan,nan,nan,nan,nan,nan,nan,nan,nan,nan,nan,nan,nan,1744.0331581225619,2132.54284640681,nan,2132.9041896893177,nan,nan,nan,nan
1,237,1,1,1.0,1.0,0.32052205689251423,0,0.0,0.0,0.0,0.4001227298890567,0.09411328704530422,0.30600944284375253,0.4942360169343609,0.09411328704530422,0.3399909016055365,8,2,1,0,3,7,nan,nan,nan,nan,nan,nan,nan,nan,nan,nan,nan,nan,0.0,nan,nan,nan,nan,nan,nan,nan,nan,nan,nan,nan,nan,nan,nan,nan,nan,nan,nan,1744.0331581225619,2133.559632590739,nan,2133.8801546476316,nan,nan,nan,nan
1,238,1,1,1.0,1.0,0.3037010913249105,0,0.0,0.0,0.0,0.3997796235399337,0.09405491220036348,0.3057247113395702,0.4938345357402972,0.09405491220036348,0.32852214357505244,5,1,4,3,6,2,nan,nan,nan,nan,nan,nan,nan,nan,nan,nan,nan,nan,0.0,nan,nan,nan,nan,nan,nan,nan,nan,nan,nan,nan,nan,nan,nan,nan,nan,nan,nan,1744.0331581225619,2134.5764324590564,nan,2134.8801335503813,nan,nan,nan,nan
1,239,1,1,1.0,1.0,0.25486837537027895,1,1.0,0.0,1.0,0.3993672693244186,0.09406278644733045,0.3053044828770881,0.49343005577174903,0.09406278644733045,0.2930305078625679,8,2,0,1,3,4,1.0,1.0,1.0,1.0,1.0,1.0,0.0,0.0,1.0,1.0,0.0,0.0,2.0,7.0,5.0,0.0,1.0,2.0,3.0,4.0,3.0,1.0,2.0,6.0,5.0,4.6349684270098805,3.8040262437425554,1.9977129576727748,2.875243009068072,5.970330600626767,5.323030619183555,1744.0331581225619,2135.593241165392,2136.4016479135025,2135.8481095407624,2143.4358916827478,2144.4461260689422,2137.426788558485,2143.427562024677
1,240,1,1,1.0,1.0,0.2584543162956834,0,0.0,0.0,0.0,0.3987497526835889,0.09433369384590397,0.30441605883768497,0.4930834465294929,0.09433369384590397,0.2723412609969576,7,8,2,6,5,3,nan,nan,nan,nan,nan,nan,nan,nan,nan,nan,nan,nan,0.0,nan,nan,nan,nan,nan,nan,nan,nan,nan,nan,nan,nan,nan,nan,nan,nan,nan,nan,1744.0331581225619,2144.669456808828,nan,2144.9279111251235,nan,nan,nan,nan
1,241,1,1,1.0,1.0,0.33765491796657443,0,0.0,0.0,0.0,0.3981527508266191,0.09457472490327548,0.3035780259233436,0.4927274757298946,0.09457472490327548,0.2836592032108456,6,5,4,8,0,7,nan,nan,nan,nan,nan,nan,nan,nan,nan,nan,nan,nan,0.0,nan,nan,nan,nan,nan,nan,nan,nan,nan,nan,nan,nan,nan,nan,nan,nan,nan,nan,1744.0331581225619,2145.686216193484,nan,2146.0238711114507,nan,nan,nan,nan
1,242,0,0,0.0,1.0,0.36883675307035446,0,0.0,0.0,0.0,0.3978964040772121,0.09445592300323064,0.30344048107398147,0.49235232708044274,0.09445592300323064,0.3216486624442041,0,3,5,2,6,4,nan,nan,nan,nan,nan,nan,nan,nan,nan,nan,nan,nan,0.0,nan,nan,nan,nan,nan,nan,nan,nan,nan,nan,nan,nan,nan,nan,nan,nan,nan,nan,1744.0331581225619,2146.703013211023,nan,2147.0718499640934,nan,nan,nan,nan
1,243,1,1,1.0,1.0,0.3360295838210732,0,0.0,0.0,0.0,0.39777378951600173,0.09427525791258595,0.3034985316034158,0.4920490474285877,0.09427525791258595,0.34750708495266736,2,0,3,5,1,7,nan,nan,nan,nan,nan,nan,nan,nan,nan,nan,nan,nan,0.0,nan,nan,nan,nan,nan,nan,nan,nan,nan,nan,nan,nan,nan,nan,nan,nan,nan,nan,1744.0331581225619,2147.7198076625355,nan,2148.0558372463565,nan,nan,nan,nan
1,244,1,1,1.0,1.0,0.36719431332312524,0,0.0,0.0,0.0,0.39751436008030877,0.09416173010254567,0.30335262997776313,0.4916760901828544,0.09416173010254567,0.35735355007151764,3,8,4,1,2,5,nan,nan,nan,nan,nan,nan,nan,nan,nan,nan,nan,nan,0.0,nan,nan,nan,nan,nan,nan,nan,nan,nan,nan,nan,nan,nan,nan,nan,nan,nan,nan,1744.0331581225619,2148.736618079478,nan,2149.103812392801,nan,nan,nan,nan
1,245,0,0,0.0,1.0,0.4783767301123589,0,0.0,0.0,0.0,0.39738749795998585,0.09398491234198124,0.3034025856180046,0.4913724103019671,0.09398491234198124,0.39386687575218576,2,7,3,6,5,0,nan,nan,nan,nan,nan,nan,nan,nan,nan,nan,nan,nan,0.0,nan,nan,nan,nan,nan,nan,nan,nan,nan,nan,nan,nan,nan,nan,nan,nan,nan,nan,1744.0331581225619,2149.753410250414,nan,2150.2317869805265,nan,nan,nan,nan
1,246,1,1,1.0,1.0,0.32555685727857053,0,0.0,0.0,0.0,0.39772495309395406,0.09393388768276713,0.30379106541118694,0.4916588407767212,0.09393388768276713,0.3903759669046849,0,5,8,3,2,4,nan,nan,nan,nan,nan,nan,nan,nan,nan,nan,nan,nan,0.0,nan,nan,nan,nan,nan,nan,nan,nan,nan,nan,nan,nan,nan,nan,nan,nan,nan,nan,1744.0331581225619,2150.770212684525,nan,2151.0957695418037,nan,nan,nan,nan
1,247,1,1,1.0,1.0,0.38841830589808524,0,0.0,0.0,0.0,0.39742550041422214,0.09385352506708057,0.3035719753471416,0.4912790254813027,0.09385352506708057,0.3974506310963382,8,0,4,1,5,3,nan,nan,nan,nan,nan,nan,nan,nan,nan,nan,nan,nan,0.0,nan,nan,nan,nan,nan,nan,nan,nan,nan,nan,nan,nan,nan,nan,nan,nan,nan,nan,1744.0331581225619,2151.7953379345126,nan,2152.1837562404107,nan,nan,nan,nan
1,248,1,1,1.0,1.0,0.3555347309447825,0,0.0,0.0,0.0,0.397388280602172,0.0936611943837073,0.3037270862184647,0.4910494749858793,0.0936611943837073,0.3565032980404794,3,6,2,7,4,1,nan,nan,nan,nan,nan,nan,nan,nan,nan,nan,nan,nan,0.0,nan,nan,nan,nan,nan,nan,nan,nan,nan,nan,nan,nan,nan,nan,nan,nan,nan,nan,1744.0331581225619,2152.8121899755206,nan,2153.1677247064654,nan,nan,nan,nan
1,249,1,1,1.0,1.0,0.39442756515927613,0,0.0,0.0,0.0,0.39721604377230624,0.0935066730211528,0.30370937075115345,0.490722716793459,0.0935066730211528,0.3794602006673813,0,5,7,1,8,3,nan,nan,nan,nan,nan,nan,nan,nan,nan,nan,nan,nan,0.0,nan,nan,nan,nan,nan,nan,nan,nan,nan,nan,nan,nan,nan,nan,nan,nan,nan,nan,1744.0331581225619,2153.837267329218,nan,2154.231694894377,nan,nan,nan,nan
1,250,1,1,1.0,1.0,0.3532687856350094,0,0.0,0.0,0.0,0.3972046155812692,0.09331503431046227,0.3038895812708069,0.49051964989173147,0.09331503431046227,0.3677436939130227,4,6,0,7,1,2,nan,nan,nan,nan,nan,nan,nan,nan,nan,nan,nan,nan,0.0,nan,nan,nan,nan,nan,nan,nan,nan,nan,nan,nan,nan,nan,nan,nan,nan,nan,nan,1744.0331581225619,2154.862400562037,nan,2155.215669347672,nan,nan,nan,nan
1,251,1,1,1.0,1.0,0.3681074767373502,0,0.0,0.0,0.0,0.39702528566312123,0.09316652222296158,0.30385876344015966,0.4901918078860828,0.09316652222296158,0.37193460917721194,1,0,3,6,4,8,nan,nan,nan,nan,nan,nan,nan,nan,nan,nan,nan,nan,0.0,nan,nan,nan,nan,nan,nan,nan,nan,nan,nan,nan,nan,nan,nan,nan,nan,nan,nan,1744.0331581225619,2155.887542062439,nan,2156.2556495391764,nan,nan,nan,nan
1,252,1,1,1.0,1.0,0.36728525906801224,0,0.0,0.0,0.0,0.39690773359431725,0.09299517103883975,0.3039125625554775,0.489902904633157,0.09299517103883975,0.3628871738134573,8,2,1,0,5,3,nan,nan,nan,nan,nan,nan,nan,nan,nan,nan,nan,nan,0.0,nan,nan,nan,nan,nan,nan,nan,nan,nan,nan,nan,nan,nan,nan,nan,nan,nan,nan,1744.0331581225619,2156.9043393649627,nan,2157.2716246240307,nan,nan,nan,nan
1,253,1,1,1.0,1.0,0.39846737938933074,0,0.0,0.0,0.0,0.39678780454765206,0.09282579108552723,0.3039620134621248,0.4896135956331793,0.09282579108552723,0.3779533717315644,1,5,2,4,6,7,nan,nan,nan,nan,nan,nan,nan,nan,nan,nan,nan,nan,0.0,nan,nan,nan,nan,nan,nan,nan,nan,nan,nan,nan,nan,nan,nan,nan,nan,nan,nan,1744.0331581225619,2157.921137807891,nan,2158.31960518728,nan,nan,nan,nan
1,254,1,1,1.0,1.0,0.34963694401085377,0,0.0,0.0,0.0,0.3967945770268524,0.09263851442021852,0.30415606260663386,0.4894330914470709,0.09263851442021852,0.3717965274893989,0,6,5,7,3,8,nan,nan,nan,nan,nan,nan,nan,nan,nan,nan,nan,nan,0.0,nan,nan,nan,nan,nan,nan,nan,nan,nan,nan,nan,nan,nan,nan,nan,nan,nan,nan,1744.0331581225619,2158.9379382464103,nan,2159.287575190421,nan,nan,nan,nan
1,255,1,1,1.0,1.0,0.3728015869855881,0,0.0,0.0,0.0,0.3966051889424508,0.09250040075993024,0.3041047881825205,0.48910558970238105,0.09250040075993024,0.3736353034619242,4,2,1,8,5,3,nan,nan,nan,nan,nan,nan,nan,nan,nan,nan,nan,nan,0.0,nan,nan,nan,nan,nan,nan,nan,nan,nan,nan,nan,nan,nan,nan,nan,nan,nan,nan,1744.0331581225619,2159.954750088742,nan,2160.3275516757276,nan,nan,nan,nan
1,256,0,0,0.0,1.0,0.4996480487752706,0,0.0,0.0,0.0,0.39650997453462333,0.09232744025621926,0.3041825342784041,0.4888374147908426,0.09232744025621926,0.4073621932572375,8,1,5,4,2,6,nan,nan,nan,nan,nan,nan,nan,nan,nan,nan,nan,nan,0.0,nan,nan,nan,nan,nan,nan,nan,nan,nan,nan,nan,nan,nan,nan,nan,nan,nan,nan,1744.0331581225619,2160.9798724877182,nan,2161.4795205364935,nan,nan,nan,nan
1,257,1,1,1.0,1.0,0.3868653862737119,0,0.0,0.0,0.0,0.39692088319693664,0.09237210687146871,0.30454877632546795,0.4892929900684053,0.09237210687146871,0.41977167401152354,1,4,7,0,3,8,nan,nan,nan,nan,nan,nan,nan,nan,nan,nan,nan,nan,0.0,nan,nan,nan,nan,nan,nan,nan,nan,nan,nan,nan,nan,nan,nan,nan,nan,nan,nan,1744.0331581225619,2161.9966640884522,nan,2162.383529474726,nan,nan,nan,nan
1,258,1,1,1.0,1.0,0.34333261009305716,0,0.0,0.0,0.0,0.3968809804313683,0.09219081423684929,0.30469016619451905,0.4890717946682176,0.09219081423684929,0.4099486817140132,3,6,8,4,1,0,nan,nan,nan,nan,nan,nan,nan,nan,nan,nan,nan,nan,0.0,nan,nan,nan,nan,nan,nan,nan,nan,nan,nan,nan,nan,nan,nan,nan,nan,nan,nan,1744.0331581225619,2163.0561303254217,nan,2163.3994629355147,nan,nan,nan,nan
1,259,1,1,1.0,1.0,0.31950711412355304,0,0.0,0.0,0.0,0.39666932679366745,0.09206976526747336,0.3045995615261941,0.4887390920611408,0.09206976526747336,0.349901703496774,1,7,6,2,8,4,nan,nan,nan,nan,nan,nan,nan,nan,nan,nan,nan,nan,0.0,nan,nan,nan,nan,nan,nan,nan,nan,nan,nan,nan,nan,nan,nan,nan,nan,nan,nan,1744.0331581225619,2164.0719551646616,nan,2164.391462278785,nan,nan,nan,nan
1,260,1,1,1.0,1.0,0.35066443122923374,0,0.0,0.0,0.0,0.39636553855480877,0.09201530834258106,0.30435023021222773,0.4883808468973898,0.09201530834258106,0.33783471848194796,5,3,2,4,7,0,nan,nan,nan,nan,nan,nan,nan,nan,nan,nan,nan,nan,0.0,nan,nan,nan,nan,nan,nan,nan,nan,nan,nan,nan,nan,nan,nan,nan,nan,nan,nan,1744.0331581225619,2165.0887652963866,nan,2165.439429727616,nan,nan,nan,nan
1,261,1,1,1.0,1.0,0.38186080614104867,0,0.0,0.0,0.0,0.396186318526081,0.09187911732013897,0.304307201205942,0.48806543584622,0.09187911732013897,0.35067745049794513,6,7,1,2,5,4,nan,nan,nan,nan,nan,nan,nan,nan,nan,nan,nan,nan,0.0,nan,nan,nan,nan,nan,nan,nan,nan,nan,nan,nan,nan,nan,nan,nan,nan,nan,nan,1744.0331581225619,2166.105536085088,nan,2166.487396891229,nan,nan,nan,nan
1,262,1,1,1.0,1.0,0.4210498556494713,0,0.0,0.0,0.0,0.396130359493327,0.09170384417938475,0.3044265153139422,0.48783420367271174,0.09170384417938475,0.3845250310065846,7,0,2,6,8,3,nan,nan,nan,nan,nan,nan,nan,nan,nan,nan,nan,nan,0.0,nan,nan,nan,nan,nan,nan,nan,nan,nan,nan,nan,nan,nan,nan,nan,nan,nan,nan,1744.0331581225619,2167.1223348130006,nan,2167.54338466865,nan,nan,nan,nan
1,263,0,0,0.0,1.0,0.46821732446551323,0,0.0,0.0,0.0,0.3962273225133898,0.0915384058490055,0.30468891666438436,0.4877657283623953,0.0915384058490055,0.42370932875201106,0,2,1,5,4,8,nan,nan,nan,nan,nan,nan,nan,nan,nan,nan,nan,nan,0.0,nan,nan,nan,nan,nan,nan,nan,nan,nan,nan,nan,nan,nan,nan,nan,nan,nan,nan,1744.0331581225619,2168.1391326857265,nan,2168.607350010192,nan,nan,nan,nan
1,264,1,1,1.0,1.0,0.3710542318876833,0,0.0,0.0,0.0,0.3965063535287081,0.09147027660358717,0.3050360769251209,0.4879766301322953,0.09147027660358717,0.4201071373342226,8,3,5,6,1,0,nan,nan,nan,nan,nan,nan,nan,nan,nan,nan,nan,nan,0.0,nan,nan,nan,nan,nan,nan,nan,nan,nan,nan,nan,nan,nan,nan,nan,nan,nan,nan,1744.0331581225619,2169.1642787477467,nan,2169.5353329796344,nan,nan,nan,nan
1,265,1,1,1.0,1.0,0.37024626904167235,0,0.0,0.0,0.0,0.39640808278878137,0.09130716703584402,0.30510091575293735,0.4877152498246254,0.09130716703584402,0.4031726084649563,5,0,8,4,2,7,nan,nan,nan,nan,nan,nan,nan,nan,nan,nan,nan,nan,0.0,nan,nan,nan,nan,nan,nan,nan,nan,nan,nan,nan,nan,nan,nan,nan,nan,nan,nan,1744.0331581225619,2170.181067212252,nan,2170.5513134812936,nan,nan,nan,nan
1,266,1,1,1.0,1.0,0.37742584850639105,0,0.0,0.0,0.0,0.3963074604282156,0.09114579370926659,0.30516166671894895,0.4874532541374822,0.09114579370926659,0.3729087831452489,2,7,4,5,3,8,nan,nan,nan,nan,nan,nan,nan,nan,nan,nan,nan,nan,0.0,nan,nan,nan,nan,nan,nan,nan,nan,nan,nan,nan,nan,nan,nan,nan,nan,nan,nan,1744.0331581225619,2171.197859668173,nan,2171.5752855166793,nan,nan,nan,nan
1,267,1,1,1.0,1.0,0.376589376013726,0,0.0,0.0,0.0,0.3962351170875189,0.09097849592541084,0.30525662116210805,0.48721361301292976,0.09097849592541084,0.37475383118726313,4,3,0,1,8,2,nan,nan,nan,nan,nan,nan,nan,nan,nan,nan,nan,nan,0.0,nan,nan,nan,nan,nan,nan,nan,nan,nan,nan,nan,nan,nan,nan,nan,nan,nan,nan,1744.0331581225619,2172.2146706553176,nan,2172.5912600313313,nan,nan,nan,nan
1,268,1,1,1.0,1.0,0.4077886021696031,0,0.0,0.0,0.0,0.39616013334296246,0.09081278696014841,0.305347346382814,0.4869729203031109,0.09081278696014841,0.38726794222990674,2,4,1,8,0,6,nan,nan,nan,nan,nan,nan,nan,nan,nan,nan,nan,nan,0.0,nan,nan,nan,nan,nan,nan,nan,nan,nan,nan,nan,nan,nan,nan,nan,nan,nan,nan,1744.0331581225619,2173.2314539882354,nan,2173.639242590405,nan,nan,nan,nan
1,269,1,1,1.0,1.0,0.4389496254734695,0,0.0,0.0,0.0,0.39620434805332994,0.09064280003894674,0.3055615480143832,0.4868471480922767,0.09064280003894674,0.40777586788559955,1,8,3,7,6,5,nan,nan,nan,nan,nan,nan,nan,nan,nan,nan,nan,nan,0.0,nan,nan,nan,nan,nan,nan,nan,nan,nan,nan,nan,nan,nan,nan,nan,nan,nan,nan,1744.0331581225619,2174.248260413762,nan,2174.6872100392357,nan,nan,nan,nan
1,270,0,0,0.0,1.0,0.53412075038068,0,0.0,0.0,0.0,0.39636626198295166,0.09050906243334589,0.3058571995496058,0.48687532441629755,0.09050906243334589,0.4602863260079175,5,0,4,3,7,6,nan,nan,nan,nan,nan,nan,nan,nan,nan,nan,nan,nan,0.0,nan,nan,nan,nan,nan,nan,nan,nan,nan,nan,nan,nan,nan,nan,nan,nan,nan,nan,1744.0331581225619,2175.265065128682,nan,2175.799185879063,nan,nan,nan,nan
1,271,1,1,1.0,1.0,0.3253022662829608,0,0.0,0.0,0.0,0.3968860902410563,0.09073211142147418,0.3061539788195821,0.4876182016625305,0.09073211142147418,0.4327908807123701,4,8,6,0,1,7,nan,nan,nan,nan,nan,nan,nan,nan,nan,nan,nan,nan,0.0,nan,nan,nan,nan,nan,nan,nan,nan,nan,nan,nan,nan,nan,nan,nan,nan,nan,nan,1744.0331581225619,2176.2818632866256,nan,2176.6071655529086,nan,nan,nan,nan
