block,trial,freq_trials,correct_response,actual_response,acc,rts,probe_trials,fast_rt_trigger,slow_rt_trigger,rt_triggered,rts_runningavg,rts_runningstd,rts_runningfastthresh,rts_runningslowthresh,rts_runningstd,rts_trailingavg,trials_colorind,trials_colorrgb0,trials_colorrgb1,trials_colorrgb2,wm_respdeg,wm_respdeg_in_colorspace,wm_respcolorminusorigcolor,wm_resptexind,wm_resptexrgb0,wm_resptexrgb1,wm_resptexrgb2,wm_rts,time_blockstart,time_encarray_offset,time_encarray_onset,time_response,time_iti_offset,time_iti_onset,time_memprobe_offset,time_memprobe_onset
1,1,1,1,1.0,1.0,0.54592145537,0,nan,nan,nan,nan,nan,nan,nan,nan,nan,459,0.407758158413,0.385709174134,-1.0,nan,nan,nan,nan,nan,nan,nan,nan,828.622339517,829.636406738,nan,830.182328193,nan,nan,nan,nan
1,2,1,1,1.0,1.0,0.620052759943,0,nan,nan,nan,nan,nan,nan,nan,nan,nan,3,0.871087178923,0.199335109687,-1.0,nan,nan,nan,nan,nan,nan,nan,nan,828.622339517,830.578245101,nan,831.198297861,nan,nan,nan,nan
1,3,1,1,1.0,1.0,0.486278743774,0,nan,nan,nan,nan,nan,nan,nan,nan,nan,48,1.0,-0.0224273256894,-1.0,nan,nan,nan,nan,nan,nan,nan,nan,828.622339517,831.520002497,nan,832.006281241,nan,nan,nan,nan
1,4,1,1,1.0,1.0,0.456451115839,0,nan,nan,nan,nan,nan,nan,nan,nan,nan,463,0.440238315199,0.376011795327,-1.0,nan,nan,nan,nan,nan,nan,nan,nan,828.622339517,832.461797526,nan,832.918248642,nan,nan,nan,nan
1,5,1,1,1.0,1.0,0.514641261951,0,nan,nan,nan,nan,nan,nan,nan,nan,nan,242,0.632911854383,0.197161183215,0.645921401967,nan,nan,nan,nan,nan,nan,nan,nan,828.622339517,833.403591985,nan,833.918233247,nan,nan,nan,nan
1,6,1,1,1.0,1.0,0.452821269981,0,nan,nan,nan,nan,nan,nan,nan,nan,nan,404,0.0124894593597,0.468746268022,-0.463349101315,nan,nan,nan,nan,nan,nan,nan,nan,828.622339517,834.345389865,nan,834.798211135,nan,nan,nan,nan
1,7,1,1,1.0,1.0,0.599006382457,0,nan,nan,nan,nan,nan,nan,nan,nan,nan,128,1.0,-0.310663006781,-0.156689791083,nan,nan,nan,nan,nan,nan,nan,nan,828.622339517,835.287175771,nan,835.886182153,nan,nan,nan,nan
1,8,1,1,1.0,1.0,0.713182310283,0,nan,nan,nan,nan,nan,nan,nan,nan,nan,431,0.191957257768,0.43918128748,-0.982298765802,nan,nan,nan,nan,nan,nan,nan,nan,828.622339517,836.228973936,nan,836.942156246,nan,nan,nan,nan
1,9,1,1,1.0,1.0,0.627386291453,0,nan,nan,nan,nan,nan,nan,nan,nan,nan,90,1.0,-0.233635786423,-0.574971871003,nan,nan,nan,nan,nan,nan,nan,nan,828.622339517,837.17075585,nan,837.798142142,nan,nan,nan,nan
1,10,1,1,1.0,1.0,0.789559603203,0,nan,nan,nan,nan,nan,nan,nan,nan,nan,200,1.0,-0.0191209939188,0.47515178387,nan,nan,nan,nan,nan,nan,nan,nan,828.622339517,838.11255316,nan,838.902112763,nan,nan,nan,nan
1,11,1,1,1.0,1.0,0.72774645366,0,nan,nan,nan,nan,nan,nan,nan,nan,nan,251,0.535576518695,0.236509187076,0.655284151108,nan,nan,nan,nan,nan,nan,nan,nan,828.622339517,839.054343912,nan,839.782090366,nan,nan,nan,nan
1,12,0,0,0.0,1.0,0.489937099221,0,nan,nan,nan,nan,nan,nan,nan,nan,nan,339,-0.164955840019,0.45996923152,0.241423096872,nan,nan,nan,nan,nan,nan,nan,nan,828.622339517,839.996141222,nan,840.486078321,nan,nan,nan,nan
1,13,1,1,1.0,1.0,0.652118393627,0,nan,nan,nan,nan,nan,nan,nan,nan,nan,384,-0.0924750057551,0.477945316949,-0.222479273925,nan,nan,nan,nan,nan,nan,nan,nan,828.622339517,840.93793511,nan,841.590053504,nan,nan,nan,nan
1,14,1,1,1.0,1.0,0.646287889685,0,nan,nan,nan,nan,nan,nan,nan,nan,nan,494,0.698129958021,0.282143999684,-1.0,nan,nan,nan,nan,nan,nan,nan,nan,828.622339517,841.879741258,nan,842.526029148,nan,nan,nan,nan
1,15,1,1,1.0,1.0,0.536495317181,0,nan,nan,nan,nan,nan,nan,nan,nan,nan,334,-0.152796554809,0.454467054946,0.285576400052,nan,nan,nan,nan,nan,nan,nan,nan,828.622339517,842.821523458,nan,843.358018775,nan,nan,nan,nan
1,16,1,1,1.0,1.0,0.474687299225,0,nan,nan,nan,nan,nan,nan,nan,nan,nan,154,1.0,-0.251813147593,0.102138173725,nan,nan,nan,nan,nan,nan,nan,nan,828.622339517,843.763312214,nan,844.237999514,nan,nan,nan,nan
1,17,1,1,1.0,1.0,0.524864244275,0,nan,nan,nan,nan,nan,nan,nan,nan,nan,267,0.362924526182,0.298807232282,0.646622522267,nan,nan,nan,nan,nan,nan,nan,nan,828.622339517,844.705104107,nan,845.229968351,nan,nan,nan,nan
1,18,1,1,1.0,1.0,0.431052173488,0,nan,nan,nan,nan,nan,nan,nan,nan,nan,408,0.036737934283,0.465637664749,-0.515938449969,nan,nan,nan,nan,nan,nan,nan,nan,828.622339517,845.646901132,nan,846.077953305,nan,nan,nan,nan
1,19,1,1,1.0,1.0,0.5132137849,1,nan,nan,nan,nan,nan,nan,nan,nan,nan,52,1.0,-0.0438860552364,-1.0,52.1502901803,37.8497098197,1.28720981969,54.0,1.0,-0.0546292063271,-1.0,2.91735971195,828.622339517,846.588703288,847.397118304,847.101917073,851.355956673,852.354971951,848.422248971,851.347620173
1,20,1,1,1.0,1.0,0.747951226891,0,nan,nan,nan,nan,nan,nan,nan,nan,nan,207,0.985653507947,0.0195431921708,0.51699622314,nan,nan,nan,nan,nan,nan,nan,nan,828.622339517,852.497826568,nan,853.245777795,nan,nan,nan,nan
1,21,0,0,0.0,1.0,0.614144709718,0,nan,nan,nan,nan,nan,nan,nan,nan,nan,56,1.0,-0.0653675053377,-1.0,nan,nan,nan,nan,nan,nan,nan,nan,828.622339517,853.439620742,nan,854.053765452,nan,nan,nan,nan
1,22,1,1,1.0,1.0,0.560339629475,0,nan,nan,nan,nan,nan,nan,nan,nan,nan,175,1.0,-0.155629953633,0.290361762956,nan,nan,nan,nan,nan,nan,nan,nan,828.622339517,854.381413205,nan,854.941752835,nan,nan,nan,nan
1,23,1,1,1.0,1.0,0.402526295162,0,nan,nan,nan,nan,nan,nan,nan,nan,nan,351,-0.175686286722,0.4701852659,0.128489978773,nan,nan,nan,nan,nan,nan,nan,nan,828.622339517,855.323205383,nan,855.725731678,nan,nan,nan,nan
1,24,1,1,1.0,1.0,0.372716343147,0,nan,nan,nan,nan,nan,nan,nan,nan,nan,187,1.0,-0.0912463489427,0.385383214542,nan,nan,nan,nan,nan,nan,nan,nan,828.622339517,856.264999557,nan,856.6377159,nan,nan,nan,nan
1,25,1,1,1.0,1.0,0.390917744895,0,nan,nan,nan,nan,nan,nan,nan,nan,nan,81,1.0,-0.193804253699,-0.694219169772,nan,nan,nan,nan,nan,nan,nan,nan,828.622339517,857.206784892,nan,857.597702637,nan,nan,nan,nan
1,26,1,1,1.0,1.0,0.481074881391,0,nan,nan,nan,nan,nan,nan,nan,nan,nan,167,1.0,-0.195605812978,0.221546716301,nan,nan,nan,nan,nan,nan,nan,nan,828.622339517,858.148595031,nan,858.629669913,nan,nan,nan,nan
1,27,1,1,1.0,1.0,0.611265237327,0,nan,nan,nan,nan,nan,nan,nan,nan,nan,239,0.665069831863,0.183388857662,0.640549267122,nan,nan,nan,nan,nan,nan,nan,nan,828.622339517,859.090373239,nan,859.701638477,nan,nan,nan,nan
1,28,1,1,1.0,1.0,0.469450650853,0,nan,nan,nan,nan,nan,nan,nan,nan,nan,484,0.614398947124,0.316112737715,-1.0,nan,nan,nan,nan,nan,nan,nan,nan,828.622339517,860.032169124,nan,860.501619774,nan,nan,nan,nan
1,29,1,1,1.0,1.0,0.479630298563,0,nan,nan,nan,nan,nan,nan,nan,nan,nan,421,0.121471671064,0.452518040197,-0.712610339232,nan,nan,nan,nan,nan,nan,nan,nan,828.622339517,860.973961587,nan,861.453591885,nan,nan,nan,nan
1,30,1,1,1.0,1.0,0.42583833274,0,nan,nan,nan,nan,nan,nan,nan,nan,nan,144,1.0,-0.284423189345,0.00519445478499,nan,nan,nan,nan,nan,nan,nan,nan,828.622339517,861.915757756,nan,862.341596089,nan,nan,nan,nan
1,31,1,1,1.0,1.0,0.507990535931,0,nan,nan,nan,nan,nan,nan,nan,nan,nan,340,-0.166837174664,0.460980112934,0.232376404312,nan,nan,nan,nan,nan,nan,nan,nan,828.622339517,862.857548793,nan,863.365539329,nan,nan,nan,nan
1,32,1,1,1.0,1.0,0.478176022414,0,nan,nan,nan,nan,nan,nan,nan,nan,nan,123,1.0,-0.311441137266,-0.208672863777,nan,nan,nan,nan,nan,nan,nan,nan,828.622339517,863.799343252,nan,864.277519275,nan,nan,nan,nan
1,33,1,1,1.0,1.0,0.448365215212,0,nan,nan,nan,nan,nan,nan,nan,nan,nan,399,-0.0164460389312,0.472031251936,-0.400274523968,nan,nan,nan,nan,nan,nan,nan,nan,828.622339517,864.741140847,nan,865.189506062,nan,nan,nan,nan
1,34,1,1,1.0,1.0,0.402562217263,0,nan,nan,nan,nan,nan,nan,nan,nan,nan,16,0.973419431522,0.140652110383,-1.0,nan,nan,nan,nan,nan,nan,nan,nan,828.622339517,865.682946139,nan,866.085508357,nan,nan,nan,nan
1,35,1,1,1.0,1.0,0.420743377123,0,nan,nan,nan,nan,nan,nan,nan,nan,nan,156,1.0,-0.244060613314,0.121041471254,nan,nan,nan,nan,nan,nan,nan,nan,828.622339517,866.624725488,nan,867.045468865,nan,nan,nan,nan
1,36,1,1,1.0,1.0,0.350934132177,0,nan,nan,nan,nan,nan,nan,nan,nan,nan,121,1.0,-0.310732805591,-0.229640808446,nan,nan,nan,nan,nan,nan,nan,nan,828.622339517,867.566515955,nan,867.917450087,nan,nan,nan,nan
1,37,0,0,0.0,1.0,0.641099992674,0,nan,nan,nan,nan,nan,nan,nan,nan,nan,328,-0.132159558243,0.44685796506,0.336046158271,nan,nan,nan,nan,nan,nan,nan,nan,828.622339517,868.508310984,nan,869.149410977,nan,nan,nan,nan
1,38,1,1,1.0,1.0,0.523297355161,0,nan,nan,nan,nan,nan,nan,nan,nan,nan,249,0.557275547736,0.228026269286,0.654084877906,nan,nan,nan,nan,nan,nan,nan,nan,828.622339517,869.450103447,nan,869.973400802,nan,nan,nan,nan
1,39,1,1,1.0,1.0,0.493480845937,0,nan,nan,nan,nan,nan,nan,nan,nan,nan,190,1.0,-0.0746884387243,0.407399635172,nan,nan,nan,nan,nan,nan,nan,nan,828.622339517,870.391902467,nan,870.885383313,nan,nan,nan,nan
1,40,1,1,1.0,1.0,0.391668403405,0,nan,nan,nan,nan,nan,nan,nan,nan,nan,2,0.863024578927,0.203622855609,-1.0,nan,nan,nan,nan,nan,nan,nan,nan,828.622339517,871.333693505,nan,871.725361908,nan,nan,nan,nan
1,41,1,1,1.0,1.0,0.441855896905,0,nan,nan,nan,nan,nan,nan,nan,nan,nan,98,1.0,-0.263822910468,-0.480217789416,nan,nan,nan,nan,nan,nan,nan,nan,828.622339517,872.275481977,nan,872.717337874,nan,nan,nan,nan
1,42,1,1,1.0,1.0,0.436025107803,0,nan,nan,nan,nan,nan,nan,nan,nan,nan,259,0.44882283482,0.268906983076,0.655011783756,nan,nan,nan,nan,nan,nan,nan,nan,828.622339517,873.217289835,nan,873.653314943,nan,nan,nan,nan
1,43,1,1,1.0,1.0,0.46221034578,0,nan,nan,nan,nan,nan,nan,nan,nan,nan,354,-0.174470673547,0.472100788149,0.0988677247603,nan,nan,nan,nan,nan,nan,nan,nan,828.622339517,874.159073745,nan,874.621284091,nan,nan,nan,nan
1,44,1,1,1.0,1.0,0.37641461211,0,nan,nan,nan,nan,nan,nan,nan,nan,nan,41,1.0,0.0148395037771,-1.0,nan,nan,nan,nan,nan,nan,nan,nan,828.622339517,875.100868489,nan,875.477283101,nan,nan,nan,nan
1,45,1,1,1.0,1.0,0.418595461757,0,nan,nan,nan,nan,nan,nan,nan,nan,nan,350,-0.175756816429,0.469490941964,0.138247479403,nan,nan,nan,nan,nan,nan,nan,nan,828.622339517,876.042658671,nan,876.461254133,nan,nan,nan,nan
1,46,1,1,1.0,1.0,0.436773770663,0,nan,nan,nan,nan,nan,nan,nan,nan,nan,107,1.0,-0.290089771429,-0.379592780214,nan,nan,nan,nan,nan,nan,nan,nan,828.622339517,876.984460827,nan,877.421234598,nan,nan,nan,nan
1,47,1,1,1.0,1.0,0.454967759899,1,nan,nan,nan,nan,nan,nan,nan,nan,nan,496,0.714833717156,0.274923884212,-1.0,101.585126225,348.414873775,-0.335126224855,496.0,0.714833717156,0.274923884212,-1.0,1.61715162022,828.622339517,877.926245878,878.734661749,878.381213638,881.384975768,882.384334872,879.751454205,881.37664497
1,48,1,1,1.0,1.0,0.558227066067,0,nan,nan,nan,nan,nan,nan,nan,nan,nan,147,1.0,-0.275801134503,0.0346720467303,nan,nan,nan,nan,nan,nan,nan,nan,828.622339517,882.52686391,nan,883.085090976,nan,nan,nan,nan
1,49,1,1,1.0,1.0,0.504419705074,0,nan,nan,nan,nan,nan,nan,nan,nan,nan,231,0.749609680972,0.145151270079,0.620821461523,nan,nan,nan,nan,nan,nan,nan,nan,828.622339517,883.468657228,nan,883.973076933,nan,nan,nan,nan
1,50,1,1,1.0,1.0,0.482590738335,0,nan,nan,nan,nan,nan,nan,nan,nan,nan,426,0.156193047225,0.446210853967,-0.81485970128,nan,nan,nan,nan,nan,nan,nan,nan,828.622339517,884.410449406,nan,884.893040144,nan,nan,nan,nan
1,51,1,1,1.0,1.0,0.388849086303,0,nan,nan,nan,nan,nan,nan,nan,nan,nan,120,1.0,-0.310161497659,-0.240162905937,nan,nan,nan,nan,nan,nan,nan,nan,828.622339517,885.352245005,nan,885.741094091,nan,nan,nan,nan
1,52,0,0,1.0,0.0,0.350973760593,0,0.0,0.0,0.0,nan,nan,nan,nan,nan,nan,20,1.0,0.121558187834,-1.0,nan,nan,nan,nan,nan,nan,nan,nan,828.622339517,886.294037468,nan,886.645011229,nan,nan,nan,nan
1,53,1,1,1.0,1.0,0.473159753368,0,nan,nan,nan,nan,nan,nan,nan,nan,nan,266,0.373577590308,0.295207490188,0.648113769863,nan,nan,nan,nan,nan,nan,nan,nan,828.622339517,887.23582765,nan,887.708987404,nan,nan,nan,nan
1,54,1,1,1.0,1.0,0.363330973662,1,nan,nan,nan,nan,nan,nan,nan,nan,nan,423,0.135229581944,0.450080889006,-0.750039916123,153.56170919,296.43829081,-0.98358419025,422.0,0.128328379107,0.451313674078,-0.730894888444,3.10906101542,828.622339517,888.177643776,888.986044537,888.54097475,893.136571381,894.146428014,890.011165796,893.128249706
1,55,1,1,1.0,1.0,0.614074576064,0,nan,nan,nan,nan,nan,nan,nan,nan,nan,150,1.0,-0.266152531622,0.0638227105866,nan,nan,nan,nan,nan,nan,nan,nan,828.622339517,894.286778632,nan,894.900853208,nan,nan,nan,nan
1,56,1,1,1.0,1.0,0.55222265335,0,nan,nan,nan,nan,nan,nan,nan,nan,nan,94,1.0,-0.249439013202,-0.526745155233,nan,nan,nan,nan,nan,nan,nan,nan,828.622339517,895.228584779,nan,895.780807433,nan,nan,nan,nan
1,57,1,1,1.0,1.0,0.610411659058,0,nan,nan,nan,nan,nan,nan,nan,nan,nan,427,0.163265173604,0.444863218481,-0.840208708629,nan,nan,nan,nan,nan,nan,nan,nan,828.622339517,896.170365838,nan,896.780777497,nan,nan,nan,nan
1,58,1,1,1.0,1.0,0.436606704257,0,nan,nan,nan,nan,nan,nan,nan,nan,nan,346,-0.174317561957,0.466431294057,0.176670174816,nan,nan,nan,nan,nan,nan,nan,nan,828.622339517,897.112162293,nan,897.548768997,nan,nan,nan,nan
1,59,0,0,0.0,1.0,0.518788842601,0,nan,nan,nan,nan,nan,nan,nan,nan,nan,181,1.0,-0.123914391386,0.3392011262,nan,nan,nan,nan,nan,nan,nan,nan,828.622339517,898.05395162,nan,898.572740462,nan,nan,nan,nan
1,60,1,1,1.0,1.0,0.400980788225,0,nan,nan,nan,nan,nan,nan,nan,nan,nan,370,-0.144805996584,0.478178727438,-0.0671803333712,nan,nan,nan,nan,nan,nan,nan,nan,828.622339517,898.995746934,nan,899.396727722,nan,nan,nan,nan
1,61,1,1,1.0,1.0,0.331152726896,0,nan,nan,nan,nan,nan,nan,nan,nan,nan,43,1.0,0.00424534395127,-1.0,nan,nan,nan,nan,nan,nan,nan,nan,828.622339517,899.93753455,nan,900.268687277,nan,nan,nan,nan
1,62,1,1,1.0,1.0,0.333330292313,0,nan,nan,nan,nan,nan,nan,nan,nan,nan,351,-0.175686286722,0.4701852659,0.128489978773,nan,nan,nan,nan,nan,nan,nan,nan,828.622339517,900.879342123,nan,901.212672416,nan,nan,nan,nan
1,63,1,1,1.0,1.0,0.327532574418,0,nan,nan,nan,nan,nan,nan,nan,nan,nan,300,0.0433537089178,0.395748422077,0.528951029102,nan,nan,nan,nan,nan,nan,nan,nan,828.622339517,901.821125748,nan,902.148658323,nan,nan,nan,nan
1,64,1,1,1.0,1.0,0.361706209951,0,nan,nan,nan,nan,nan,nan,nan,nan,nan,237,0.686387300223,0.174031846447,0.636349816437,nan,nan,nan,nan,nan,nan,nan,nan,828.622339517,902.762921918,nan,903.124628127,nan,nan,nan,nan
1,65,1,1,1.0,1.0,0.355894807493,0,nan,nan,nan,nan,nan,nan,nan,nan,nan,500,0.748145934353,0.260058294274,-1.0,nan,nan,nan,nan,nan,nan,nan,nan,828.622339517,903.70471267,nan,904.060607477,nan,nan,nan,nan
1,66,1,1,1.0,1.0,0.430075148528,1,nan,nan,nan,nan,nan,nan,nan,nan,nan,107,1.0,-0.290089771429,-0.379592780214,7.0551860611,82.9448139389,7.7104389389,118.0,1.0,-0.308588151016,-0.261285249573,2.45886787702,828.622339517,904.646508839,905.454929272,905.076583988,908.947017137,909.948901624,906.471700346,908.938683488
1,67,1,1,1.0,1.0,0.627561910776,0,nan,nan,nan,nan,nan,nan,nan,nan,nan,153,1.0,-0.255547855702,0.0926213922694,nan,nan,nan,nan,nan,nan,nan,nan,828.622339517,910.088902713,nan,910.716464624,nan,nan,nan,nan
1,68,1,1,1.0,1.0,0.445748031372,0,nan,nan,nan,nan,nan,nan,nan,nan,nan,40,1.0,0.0201165467467,-1.0,nan,nan,nan,nan,nan,nan,nan,nan,828.622339517,911.030699167,nan,911.476447199,nan,nan,nan,nan
1,69,1,1,1.0,1.0,0.495918419096,0,nan,nan,nan,nan,nan,nan,nan,nan,nan,169,1.0,-0.185917379452,0.239118302078,nan,nan,nan,nan,nan,nan,nan,nan,828.622339517,911.972493341,nan,912.46841176,nan,nan,nan,nan
1,70,0,0,0.0,1.0,0.554097161337,0,nan,nan,nan,nan,nan,nan,nan,nan,nan,267,0.362924526182,0.298807232282,0.646622522267,nan,nan,nan,nan,nan,nan,nan,nan,828.622339517,912.914287229,nan,913.468384391,nan,nan,nan,nan
1,71,1,1,1.0,1.0,0.492291424249,0,nan,nan,nan,nan,nan,nan,nan,nan,nan,191,1.0,-0.0691479807067,0.414571651978,nan,nan,nan,nan,nan,nan,nan,nan,828.622339517,913.856076841,nan,914.348368266,nan,nan,nan,nan
1,72,0,0,0.0,1.0,0.478485066793,0,nan,nan,nan,nan,nan,nan,nan,nan,nan,1,0.854939129564,0.207877072944,-1.0,nan,nan,nan,nan,nan,nan,nan,nan,828.622339517,914.797868449,nan,915.276353516,nan,nan,nan,nan
1,73,1,1,1.0,1.0,0.424658889417,0,nan,nan,nan,nan,nan,nan,nan,nan,nan,296,0.0772713571413,0.386205321608,0.550001308524,nan,nan,nan,nan,nan,nan,nan,nan,828.622339517,915.739665474,nan,916.164324363,nan,nan,nan,nan
1,74,1,1,1.0,1.0,0.338764512446,0,nan,nan,nan,nan,nan,nan,nan,nan,nan,17,0.981069150956,0.135921910835,-1.0,nan,nan,nan,nan,nan,nan,nan,nan,828.622339517,916.681545461,nan,917.020309974,nan,nan,nan,nan
1,75,1,1,1.0,1.0,0.317042456823,0,nan,nan,nan,nan,nan,nan,nan,nan,nan,446,0.304696255059,0.41359904426,-1.0,nan,nan,nan,nan,nan,nan,nan,nan,828.622339517,917.62325097,nan,917.940293427,nan,nan,nan,nan
1,76,1,1,1.0,1.0,0.40722924337,0,nan,nan,nan,nan,nan,nan,nan,nan,nan,401,-0.00506340639596,0.470796889516,-0.425203102762,nan,nan,nan,nan,nan,nan,nan,nan,828.622339517,918.565042578,nan,918.972271821,nan,nan,nan,nan
1,77,1,1,1.0,1.0,0.505394734326,0,nan,nan,nan,nan,nan,nan,nan,nan,nan,459,0.407758158413,0.385709174134,-1.0,nan,nan,nan,nan,nan,nan,nan,nan,828.622339517,919.506837892,nan,920.012232626,nan,nan,nan,nan
1,78,1,1,1.0,1.0,0.411585514434,0,nan,nan,nan,nan,nan,nan,nan,nan,nan,34,1.0,0.0514419701458,-1.0,nan,nan,nan,nan,nan,nan,nan,nan,828.622339517,920.44863007,nan,920.860215584,nan,nan,nan,nan
1,79,1,1,1.0,1.0,0.429768955102,0,nan,nan,nan,nan,nan,nan,nan,nan,nan,81,1.0,-0.193804253699,-0.694219169772,nan,nan,nan,nan,nan,nan,nan,nan,828.622339517,921.390425384,nan,921.820194339,nan,nan,nan,nan
1,80,1,1,1.0,1.0,0.447964369785,0,nan,nan,nan,nan,nan,nan,nan,nan,nan,179,1.0,-0.13461441766,0.323204131591,nan,nan,nan,nan,nan,nan,nan,nan,828.622339517,922.332212145,nan,922.780176514,nan,nan,nan,nan
1,81,1,1,1.0,1.0,0.466142108548,0,0.0,0.0,0.0,0.485169487597,0.103133112432,0.382036375165,0.588302600029,0.103133112432,0.447958477812,427,0.163265173604,0.444863218481,-0.840208708629,nan,nan,nan,nan,nan,nan,nan,nan,828.622339517,923.274010595,nan,923.740152703,nan,nan,nan,nan
1,82,0,0,0.0,1.0,0.54826580215,0,0.0,0.0,0.0,0.484934581683,0.102516044026,0.382418537657,0.587450625709,0.102516044026,0.487457426828,489,0.656284860842,0.299572439858,-1.0,nan,nan,nan,nan,nan,nan,nan,nan,828.622339517,924.215851809,nan,924.764117611,nan,nan,nan,nan
1,83,1,1,1.0,1.0,0.454518163053,0,0.0,0.0,0.0,0.48570691364,0.10212585568,0.38358105796,0.58783276932,0.10212585568,0.489642024583,46,1.0,-0.0117313672748,-1.0,nan,nan,nan,nan,nan,nan,nan,nan,828.622339517,925.157588393,nan,925.612106556,nan,nan,nan,nan
1,84,1,1,1.0,1.0,0.472673379176,0,0.0,0.0,0.0,0.485331145561,0.10156579155,0.383765354011,0.58689693711,0.10156579155,0.491819114793,104,1.0,-0.282351481576,-0.412644567278,nan,nan,nan,nan,nan,nan,nan,nan,828.622339517,926.09942248,nan,926.57209586,nan,nan,nan,nan
1,85,1,1,1.0,1.0,0.450890312961,0,0.0,0.0,0.0,0.485180457865,0.100968756529,0.384211701337,0.586149214394,0.100968756529,0.459360618397,290,0.131265381085,0.370776544741,0.578206616232,nan,nan,nan,nan,nan,nan,nan,nan,828.622339517,927.041179591,nan,927.492069904,nan,nan,nan,nan
1,86,1,1,1.0,1.0,0.365073482157,0,0.0,0.0,0.0,0.484777044396,0.100441140136,0.38433590426,0.585218184532,0.100441140136,0.429545724764,439,0.251144291643,0.426392204401,-1.0,nan,nan,nan,nan,nan,nan,nan,nan,828.622339517,927.982971199,nan,928.348044681,nan,nan,nan,nan
1,87,0,0,1.0,0.0,0.295261101157,0,0.0,0.0,0.0,0.483385142509,0.100676678606,0.382708463903,0.584061821116,0.100676678606,0.370408298758,49,1.0,-0.027785429985,-1.0,nan,nan,nan,nan,nan,nan,nan,nan,828.622339517,928.92477307,nan,929.220034172,nan,nan,nan,nan
1,88,1,1,1.0,1.0,0.497431710188,0,0.0,0.0,0.0,0.481222797207,0.102085276315,0.379137520892,0.583308073521,0.102085276315,0.385922097834,348,-0.175384772129,0.468017843042,0.157582163916,nan,nan,nan,nan,nan,nan,nan,nan,828.622339517,929.866561827,nan,930.363993537,nan,nan,nan,nan
1,89,1,1,1.0,1.0,0.435617420182,0,0.0,0.0,0.0,0.4814069894,0.10151812758,0.37988886182,0.58292511698,0.10151812758,0.409436743842,449,0.328095008353,0.407646248688,-1.0,nan,nan,nan,nan,nan,nan,nan,nan,828.622339517,930.80836883,nan,931.24398625,nan,nan,nan,nan
1,90,1,1,1.0,1.0,0.429803736857,0,0.0,0.0,0.0,0.480892499858,0.101061500155,0.379830999703,0.581954000012,0.101061500155,0.454284289076,149,1.0,-0.269478519393,0.0541436597792,nan,nan,nan,nan,nan,nan,nan,nan,828.622339517,931.750161293,nan,932.17996503,nan,nan,nan,nan
1,91,1,1,1.0,1.0,0.391999115061,0,0.0,0.0,0.0,0.480324846936,0.100641058963,0.379683787973,0.580965905898,0.100641058963,0.4191400907,378,-0.117450136118,0.478670924818,-0.154810124165,nan,nan,nan,nan,nan,nan,nan,nan,828.622339517,932.69193608,nan,933.083935195,nan,nan,nan,nan
1,92,1,1,1.0,1.0,0.386174027924,0,0.0,0.0,0.0,0.479354234497,0.100509239216,0.378844995281,0.579863473714,0.100509239216,0.402658959948,266,0.373577590308,0.295207490188,0.648113769863,nan,nan,nan,nan,nan,nan,nan,nan,828.622339517,933.63373282,nan,934.019906848,nan,nan,nan,nan
1,93,1,1,1.0,1.0,0.388357865391,0,0.0,0.0,0.0,0.478341406165,0.100427343822,0.377914062343,0.578768749987,0.100427343822,0.388843669459,429,0.177531820842,0.442080780324,-0.901885199234,nan,nan,nan,nan,nan,nan,nan,nan,828.622339517,934.575521577,nan,934.963879442,nan,nan,nan,nan
1,94,1,1,1.0,1.0,0.39854834677,0,0.0,0.0,0.0,0.477373841211,0.100316161516,0.377057679694,0.577690002727,0.100316161516,0.391026746695,477,0.555879874869,0.337784025865,-1.0,nan,nan,nan,nan,nan,nan,nan,nan,828.622339517,935.517325728,nan,935.915874075,nan,nan,nan,nan
1,95,1,1,1.0,1.0,0.41673634894,0,0.0,0.0,0.0,0.476535272121,0.10010830615,0.376426965971,0.576643578271,0.10010830615,0.401214187033,217,0.891250405156,0.0735373331823,0.568048345461,nan,nan,nan,nan,nan,nan,nan,nan,828.622339517,936.459108213,nan,936.875844562,nan,nan,nan,nan
1,96,1,1,1.0,1.0,0.434917508799,0,0.0,0.0,0.0,0.475905809771,0.0997668613004,0.376138948471,0.575672671072,0.0997668613004,0.416734068169,427,0.163265173604,0.444863218481,-0.840208708629,nan,nan,nan,nan,nan,nan,nan,nan,828.622339517,937.400906663,nan,937.835824172,nan,nan,nan,nan
1,97,0,0,0.0,1.0,0.437131281418,0,0.0,0.0,0.0,0.475478848303,0.0993330922481,0.376145756055,0.574811940551,0.0993330922481,0.429595046386,190,1.0,-0.0746884387243,0.407399635172,nan,nan,nan,nan,nan,nan,nan,nan,828.622339517,938.342696275,nan,938.779827557,nan,nan,nan,nan
1,98,1,1,1.0,1.0,0.383261199226,0,0.0,0.0,0.0,0.475083512562,0.0988956257264,0.376187886836,0.573979138288,0.0988956257264,0.418436663148,438,0.243622561222,0.428096439079,-1.0,nan,nan,nan,nan,nan,nan,nan,nan,828.622339517,939.284524375,nan,939.667785575,nan,nan,nan,nan
1,99,1,1,1.0,1.0,0.393483896507,0,0.0,0.0,0.0,0.474146550181,0.0988215639728,0.375324986208,0.572968114154,0.0988215639728,0.40462545905,246,0.589768841079,0.215019897151,0.651339528662,nan,nan,nan,nan,nan,nan,nan,nan,828.622339517,940.226279206,nan,940.619763102,nan,nan,nan,nan
1,100,1,1,1.0,1.0,0.427650404687,0,0.0,0.0,0.0,0.473331775901,0.0986514878493,0.374680288052,0.571983263751,0.0986514878493,0.401465166806,138,1.0,-0.29832987918,-0.0546508148191,nan,nan,nan,nan,nan,nan,nan,nan,828.622339517,941.168093906,nan,941.595744311,nan,nan,nan,nan
1,101,1,1,1.0,1.0,0.357851138106,0,0.0,0.0,0.0,0.472874962189,0.0982621701995,0.37461279199,0.571137132389,0.0982621701995,0.392995146433,63,1.0,-0.102744642793,-1.0,nan,nan,nan,nan,nan,nan,nan,nan,828.622339517,942.109865842,nan,942.46771698,nan,nan,nan,nan
1,102,1,1,1.0,1.0,0.400053084944,0,0.0,0.0,0.0,0.471736112446,0.0984355292095,0.373300583236,0.570171641655,0.0984355292095,0.395184875912,165,1.0,-0.205056383665,0.203745440608,nan,nan,nan,nan,nan,nan,nan,nan,828.622339517,943.051654314,nan,943.451707399,nan,nan,nan,nan
1,103,0,0,0.0,1.0,0.530225764902,0,0.0,0.0,0.0,0.471033337666,0.0982061144763,0.37282722319,0.569239452143,0.0982061144763,0.429376662651,228,0.780729811514,0.1302769546,0.611433142569,nan,nan,nan,nan,nan,nan,nan,nan,828.622339517,943.993454474,nan,944.523680239,nan,nan,nan,nan
1,104,1,1,1.0,1.0,0.540406838059,0,0.0,0.0,0.0,0.471608021426,0.0979004200041,0.373707601422,0.56950844143,0.0979004200041,0.490228562635,311,-0.0397249783266,0.419020224334,0.462250212202,nan,nan,nan,nan,nan,nan,nan,nan,828.622339517,944.935246652,nan,945.475653491,nan,nan,nan,nan
1,105,1,1,1.0,1.0,0.558594555187,0,0.0,0.0,0.0,0.472269548509,0.09765965554,0.374609892969,0.569929204049,0.09765965554,0.543075719383,407,0.0305886347219,0.46645515455,-0.502577406972,nan,nan,nan,nan,nan,nan,nan,nan,828.622339517,945.877038545,nan,946.4356331,nan,nan,nan,nan
1,106,1,1,1.0,1.0,0.616744217579,0,0.0,1.0,0.0,0.47309169143,0.0975544536868,0.375537237743,0.570646145117,0.0975544536868,0.571915203608,147,1.0,-0.275801134503,0.0346720467303,nan,nan,nan,nan,nan,nan,nan,nan,828.622339517,946.818846404,nan,947.435590621,nan,nan,nan,nan
1,107,1,1,1.0,1.0,0.482973622566,1,0.0,0.0,1.0,0.474446903941,0.0980812557416,0.376365648199,0.572528159682,0.0980812557416,0.552770798444,300,0.0433537089178,0.395748422077,0.528951029102,-147.011478386,237.011478386,26.0739783864,337.0,-0.160643365934,0.457858386897,0.259303564052,2.52563771053,828.622339517,947.760616914,948.569043619,948.243590537,952.127812938,953.128773427,949.585801578,952.119480999
1,108,1,1,1.0,1.0,0.78176393063,0,0.0,0.0,0.0,0.4745265929,0.0976253038383,0.376901289061,0.572151896738,0.0976253038383,0.627160590258,116,1.0,-0.306446923025,-0.282515442494,nan,nan,nan,nan,nan,nan,nan,nan,828.622339517,953.269694237,nan,954.051458168,nan,nan,nan,nan
1,109,1,1,1.0,1.0,0.543905824714,0,0.0,0.0,0.0,0.477371383064,0.101530220393,0.375841162671,0.578901603457,0.101530220393,0.60288112597,159,1.0,-0.231765974528,0.149055008463,nan,nan,nan,nan,nan,nan,nan,nan,828.622339517,954.211526899,nan,954.755432723,nan,nan,nan,nan
1,110,1,1,1.0,1.0,0.458128622384,0,0.0,1.0,0.0,0.477981790785,0.101262302201,0.376719488585,0.579244092986,0.101262302201,0.594599459243,309,-0.0258396312562,0.415106541901,0.475305697888,nan,nan,nan,nan,nan,nan,nan,nan,828.622339517,955.153280589,nan,955.611409211,nan,nan,nan,nan
1,111,1,1,1.0,1.0,0.51631477708,1,0.0,0.0,1.0,0.477801307436,0.100818578485,0.376982728951,0.578619885922,0.100818578485,0.506116408059,4,0.879126049628,0.195014037372,-1.0,55.4160283076,34.5839716924,31.7714716924,49.0,1.0,-0.027785429985,-1.0,2.55061014881,828.622339517,956.095074192,956.903492629,956.611388969,960.487260045,961.490173159,957.920280808,960.478931813
1,112,1,1,1.0,1.0,0.621790421719,0,0.0,0.0,0.0,0.478148275631,0.100429364665,0.377718910967,0.578577640296,0.100429364665,0.532077940394,141,1.0,-0.291952736687,-0.024586852943,nan,nan,nan,nan,nan,nan,nan,nan,828.622339517,961.637470717,nan,962.259261139,nan,nan,nan,nan
1,113,1,1,1.0,1.0,0.479962435726,0,0.0,0.0,0.0,0.479430794793,0.100888959522,0.378541835271,0.580319754315,0.100888959522,0.539355878175,365,-0.157962026257,0.477016591838,-0.0139196855225,nan,nan,nan,nan,nan,nan,nan,nan,828.622339517,962.579281426,nan,963.059243862,nan,nan,nan,nan
1,114,1,1,1.0,1.0,0.570148081868,0,0.0,0.0,0.0,0.47943549958,0.100441568507,0.378993931072,0.579877068087,0.100441568507,0.557300313104,201,1.0,-0.0135712615467,0.48142235136,nan,nan,nan,nan,nan,nan,nan,nan,828.622339517,963.521064196,nan,964.091212278,nan,nan,nan,nan
1,115,1,1,1.0,1.0,0.444334809086,0,0.0,0.0,0.0,0.480231223986,0.100357172302,0.379874051684,0.580588396287,0.100357172302,0.498148442227,351,-0.175686286722,0.4701852659,0.128489978773,nan,nan,nan,nan,nan,nan,nan,nan,828.622339517,964.462862361,nan,964.90719717,nan,nan,nan,nan
1,116,1,1,1.0,1.0,0.40651650267,0,0.0,0.0,0.0,0.479919081248,0.0999754500076,0.37994363124,0.579894531255,0.0999754500076,0.473666464541,477,0.555879874869,0.337784025865,-1.0,nan,nan,nan,nan,nan,nan,nan,nan,828.622339517,965.404655964,nan,965.811172467,nan,nan,nan,nan
1,117,0,0,0.0,1.0,0.504700810008,0,0.0,0.0,0.0,0.479286300398,0.0997746128256,0.379511687572,0.579060913223,0.0997746128256,0.451850707255,50,1.0,-0.033148730948,-1.0,nan,nan,nan,nan,nan,nan,nan,nan,828.622339517,966.346446717,nan,966.851147527,nan,nan,nan,nan
1,118,1,1,1.0,1.0,0.394893982681,0,0.0,0.0,0.0,0.479503518429,0.0993748530974,0.380128665331,0.578878371526,0.0993748530974,0.435370431786,219,0.871627318206,0.0840881726889,0.576959667802,nan,nan,nan,nan,nan,nan,nan,nan,828.622339517,967.28823918,nan,967.683133162,nan,nan,nan,nan
1,119,1,1,1.0,1.0,0.357081093069,0,0.0,0.0,0.0,0.478786488465,0.0992563618359,0.379530126629,0.578042850301,0.0992563618359,0.418891961919,444,0.289241202529,0.417409780569,-1.0,nan,nan,nan,nan,nan,nan,nan,nan,828.622339517,968.230032783,nan,968.587113876,nan,nan,nan,nan
1,120,1,1,1.0,1.0,0.367262736487,0,1.0,0.0,0.0,0.47776375405,0.0994608627911,0.378302891259,0.577224616841,0.0994608627911,0.373079270745,127,1.0,-0.31111021432,-0.167036648065,nan,nan,nan,nan,nan,nan,nan,nan,828.622339517,969.171827242,nan,969.539089978,nan,nan,nan,nan
1,121,0,0,0.0,1.0,0.433459241351,1,0.0,0.0,1.0,0.476842912237,0.0995536641279,0.377289248109,0.576396576364,0.0995536641279,0.385934356969,54,1.0,-0.0546292063271,-1.0,45.0,45.0,7.03125,64.0,1.0,-0.108036866323,-1.0,2.32559734082,828.622339517,970.113623411,970.922035861,970.547082653,974.280775929,975.280247646,971.938804654,974.272446557
1,122,1,1,1.0,1.0,0.532277317718,0,0.0,0.0,0.0,0.476484369502,0.0992192010607,0.377265168441,0.575703570563,0.0992192010607,0.444333098518,443,0.281558783006,0.419268214519,-1.0,nan,nan,nan,nan,nan,nan,nan,nan,828.622339517,975.42266236,nan,975.954939678,nan,nan,nan,nan
1,123,1,1,1.0,1.0,0.630449651042,0,0.0,0.0,0.0,0.47694168875,0.0989396972675,0.378001991482,0.575881386017,0.0989396972675,0.532062070037,286,0.169078956243,0.359734776014,0.594698705761,nan,nan,nan,nan,nan,nan,nan,nan,828.622339517,976.364456249,nan,976.9949059,nan,nan,nan,nan
1,124,1,1,1.0,1.0,0.472693335847,0,0.0,0.0,0.0,0.478189720963,0.0994962467095,0.378693474254,0.577685967673,0.0994962467095,0.545140101536,183,1.0,-0.113108999915,0.354902835149,nan,nan,nan,nan,nan,nan,nan,nan,828.622339517,977.306252703,nan,977.778946039,nan,nan,nan,nan
1,125,1,1,1.0,1.0,0.362839467707,0,0.0,0.0,0.0,0.478145395277,0.0990954593968,0.37904993588,0.577240854674,0.0990954593968,0.488660818199,268,0.35230222188,0.302367520405,0.645005310408,nan,nan,nan,nan,nan,nan,nan,nan,828.622339517,978.248046877,nan,978.610886344,nan,nan,nan,nan
1,126,0,0,0.0,1.0,0.469020725694,0,0.0,0.0,0.0,0.477222947856,0.0992313636846,0.377991584172,0.576454311541,0.0992313636846,0.434851176416,368,-0.150457169737,0.477793263397,-0.0457341785459,nan,nan,nan,nan,nan,nan,nan,nan,828.622339517,979.18983934,nan,979.658860065,nan,nan,nan,nan
1,127,1,1,1.0,1.0,0.399213191296,0,0.0,0.0,0.0,0.477157850855,0.0988394836617,0.378318367193,0.575997334517,0.0988394836617,0.410357794899,456,0.383612429175,0.392633185378,-1.0,nan,nan,nan,nan,nan,nan,nan,nan,828.622339517,980.131633798,nan,980.53084699,nan,nan,nan,nan
1,128,1,1,1.0,1.0,0.369411222055,0,0.0,0.0,0.0,0.476544113378,0.0986903300132,0.377853783365,0.575234443391,0.0986903300132,0.412548379682,55,1.0,-0.0599996532909,-1.0,nan,nan,nan,nan,nan,nan,nan,nan,828.622339517,981.073419419,nan,981.442830641,nan,nan,nan,nan
1,129,1,1,1.0,1.0,0.40358998935,0,0.0,0.0,0.0,0.475707137665,0.0987555380574,0.376951599607,0.574462675722,0.0987555380574,0.390738134234,403,0.00657627305109,0.469456436931,-0.450524507496,nan,nan,nan,nan,nan,nan,nan,nan,828.622339517,982.01522186,nan,982.41881185,nan,nan,nan,nan
1,130,1,1,1.0,1.0,0.381768720224,0,0.0,0.0,0.0,0.475148090003,0.0985751423992,0.376572947604,0.573723232403,0.0985751423992,0.384923310543,510,0.830554458933,0.220436700166,-1.0,nan,nan,nan,nan,nan,nan,nan,nan,828.622339517,982.957010047,nan,983.338778767,nan,nan,nan,nan
1,131,1,1,1.0,1.0,0.399943893077,0,0.0,0.0,0.0,0.474429787159,0.0985336023983,0.375896184761,0.572963389557,0.0985336023983,0.39510086755,97,1.0,-0.260369742894,-0.491718830742,nan,nan,nan,nan,nan,nan,nan,nan,828.622339517,983.898799944,nan,984.298743837,nan,nan,nan,nan
1,132,1,1,1.0,1.0,0.362127297209,0,0.0,0.0,0.0,0.473861192548,0.0983706575264,0.375490535021,0.572231850074,0.0983706575264,0.38127997017,240,0.654373017221,0.188015059697,0.642463954019,nan,nan,nan,nan,nan,nan,nan,nan,828.622339517,984.840596113,nan,985.202723411,nan,nan,nan,nan
1,133,1,1,1.0,1.0,0.468319958949,0,0.0,0.0,0.0,0.473014723644,0.0984750731591,0.374539650485,0.571489796803,0.0984750731591,0.410130383078,38,1.0,0.0306259494545,-1.0,nan,nan,nan,nan,nan,nan,nan,nan,828.622339517,985.782391142,nan,986.250711101,nan,nan,nan,nan
1,134,1,1,1.0,1.0,0.446541454294,0,0.0,0.0,0.0,0.472979424661,0.0981050058713,0.37487441879,0.571084430532,0.0981050058713,0.425662903484,93,1.0,-0.245614297951,-0.538619881923,nan,nan,nan,nan,nan,nan,nan,nan,828.622339517,986.724147398,nan,987.170688852,nan,nan,nan,nan
1,135,1,1,1.0,1.0,0.40869919979,0,0.0,0.0,0.0,0.472782126375,0.0977647385404,0.375017387834,0.570546864915,0.0977647385404,0.441186871011,474,0.530901762182,0.346545376391,-1.0,nan,nan,nan,nan,nan,nan,nan,nan,828.622339517,987.665972077,nan,988.074671277,nan,nan,nan,nan
1,136,1,1,1.0,1.0,0.418860886421,0,0.0,0.0,0.0,0.47230743803,0.0975568480696,0.37475058996,0.569864286099,0.0975568480696,0.424700513501,168,1.0,-0.190790017254,0.230361799274,nan,nan,nan,nan,nan,nan,nan,nan,828.622339517,988.607771097,nan,989.026631984,nan,nan,nan,nan
1,137,1,1,1.0,1.0,0.573039528332,0,0.0,0.0,0.0,0.471914448679,0.097304715504,0.374609733175,0.569219164183,0.097304715504,0.466866538181,492,0.681403316433,0.289222019555,-1.0,nan,nan,nan,nan,nan,nan,nan,nan,828.622339517,989.549580666,nan,990.122620194,nan,nan,nan,nan
1,138,1,1,1.0,1.0,0.711232536822,0,0.0,0.0,0.0,0.472652587947,0.0973303457157,0.375322242231,0.569982933663,0.0973303457157,0.567710983858,373,-0.135407706169,0.478559568072,-0.0996974893599,nan,nan,nan,nan,nan,nan,nan,nan,828.622339517,990.491354883,nan,991.20258742,nan,nan,nan,nan
1,139,1,1,1.0,1.0,0.65742973733,0,0.0,1.0,0.0,0.474381428156,0.0990657739492,0.375315654207,0.573447202105,0.0990657739492,0.647233934161,196,1.0,-0.0413610816081,0.449130757868,nan,nan,nan,nan,nan,nan,nan,nan,828.622339517,991.433145065,nan,992.090574803,nan,nan,nan,nan
1,140,1,1,1.0,1.0,0.627613798308,1,0.0,0.0,1.0,0.475698322467,0.099913683345,0.375784639122,0.575612005812,0.099913683345,0.665425357486,129,1.0,-0.310070485259,-0.146368003411,-1.65230467765,91.6523046777,0.949179677651,130.0,1.0,-0.309333154106,-0.136071487739,4.06748799107,828.622339517,992.374939239,993.18335454,993.002553037,998.283994666,999.288106895,994.200143289,998.275660162
1,141,1,1,1.0,1.0,0.60818277637,0,0.0,0.0,0.0,0.476783433009,0.100374829633,0.376408603376,0.577158262641,0.100374829633,0.631075437336,477,0.555879874869,0.337784025865,-1.0,nan,nan,nan,nan,nan,nan,nan,nan,828.622339517,999.434214461,nan,1000.04239724,nan,nan,nan,nan
1,142,1,1,1.0,1.0,0.482351257466,0,0.0,0.0,0.0,0.477715343245,0.100624230207,0.377091113038,0.578339573452,0.100624230207,0.572715944048,225,0.81146624694,0.115131125244,0.600981946568,nan,nan,nan,nan,nan,nan,nan,nan,828.622339517,1000.37602032,nan,1000.85837158,nan,nan,nan,nan
1,143,1,1,1.0,1.0,0.372548421437,0,0.0,0.0,0.0,0.477747990528,0.100270042945,0.377477947584,0.578018033473,0.100270042945,0.487694151758,21,1.0,0.116713997928,-1.0,nan,nan,nan,nan,nan,nan,nan,nan,828.622339517,1001.31780195,nan,1001.69035037,nan,nan,nan,nan
1,144,1,1,1.0,1.0,0.398721970385,0,0.0,0.0,0.0,0.477012329206,0.100302658521,0.376709670685,0.577314987727,0.100302658521,0.417873883096,327,-0.128086156831,0.445480682368,0.344176439252,nan,nan,nan,nan,nan,nan,nan,nan,828.622339517,1002.25959271,nan,1002.65831468,nan,nan,nan,nan
1,145,1,1,1.0,1.0,0.360931888514,0,0.0,0.0,0.0,0.476468646159,0.100165000955,0.376303645204,0.576633647114,0.100165000955,0.377400760112,219,0.871627318206,0.0840881726889,0.576959667802,nan,nan,nan,nan,nan,nan,nan,nan,828.622339517,1003.20137776,nan,1003.56230964,nan,nan,nan,nan
1,146,0,0,0.0,1.0,0.483095073607,0,0.0,0.0,0.0,0.475671840934,0.100275916936,0.375395923997,0.57594775787,0.100275916936,0.414249644168,172,1.0,-0.170984061773,0.265024678188,nan,nan,nan,nan,nan,nan,nan,nan,828.622339517,1004.1431839,nan,1004.62627898,nan,nan,nan,nan
1,147,1,1,1.0,1.0,0.429292274115,0,0.0,0.0,0.0,0.475722684993,0.0999337916777,0.375788893315,0.575656476671,0.0999337916777,0.424439745412,462,0.432089675478,0.378486360879,-1.0,nan,nan,nan,nan,nan,nan,nan,nan,828.622339517,1005.08497437,nan,1005.51426665,nan,nan,nan,nan
1,148,1,1,1.0,1.0,0.375480066461,0,0.0,0.0,0.0,0.475406831858,0.099666398477,0.375740433381,0.575073230335,0.099666398477,0.429289138061,299,0.0516645560415,0.393417669654,0.534378752182,nan,nan,nan,nan,nan,nan,nan,nan,828.622339517,1006.02676541,nan,1006.40224548,nan,nan,nan,nan
1,149,1,1,1.0,1.0,0.393650962913,0,0.0,0.0,0.0,0.474731651011,0.0996658730342,0.375065777976,0.574397524045,0.0996658730342,0.399474434496,244,0.611372359265,0.206163547436,0.648880721676,nan,nan,nan,nan,nan,nan,nan,nan,828.622339517,1006.96856272,nan,1007.36221368,nan,nan,nan,nan
1,150,0,0,1.0,0.0,0.491849810118,0,0.0,0.0,0.0,0.474187485319,0.0995512185232,0.374636266795,0.573738703842,0.0995512185232,0.420326946497,381,-0.105403061426,0.478425078289,-0.188431136224,nan,nan,nan,nan,nan,nan,nan,nan,828.622339517,1007.91035148,nan,1008.40220129,nan,nan,nan,nan
1,151,1,1,1.0,1.0,0.470031962148,0,0.0,0.0,0.0,0.474305234151,0.0992292362598,0.375075997891,0.57353447041,0.0992292362598,0.45184424506,144,1.0,-0.284423189345,0.00519445478499,nan,nan,nan,nan,nan,nan,nan,nan,828.622339517,1008.85214508,nan,1009.32217704,nan,nan,nan,nan
1,152,1,1,1.0,1.0,0.464214287465,0,0.0,0.0,0.0,0.474276934336,0.0989007241628,0.375376210173,0.573177658499,0.0989007241628,0.475365353244,392,-0.0541067903503,0.475522277549,-0.315549842675,nan,nan,nan,nan,nan,nan,nan,nan,828.622339517,1009.79393384,nan,1010.25814812,nan,nan,nan,nan
1,153,0,0,0.0,1.0,0.514394653612,0,0.0,0.0,0.0,0.474210732712,0.0985782126673,0.375632520045,0.572788945379,0.0985782126673,0.482880301075,156,1.0,-0.244060613314,0.121041471254,nan,nan,nan,nan,nan,nan,nan,nan,828.622339517,1010.73573115,nan,1011.2501258,nan,nan,nan,nan
1,154,1,1,1.0,1.0,0.492572244082,0,0.0,0.0,0.0,0.474473372718,0.098308874443,0.376164498275,0.572782247161,0.098308874443,0.490393728386,257,0.470472903111,0.261039853404,0.655841377839,nan,nan,nan,nan,nan,nan,nan,nan,828.622339517,1011.67752788,nan,1012.17010013,nan,nan,nan,nan
1,155,1,1,1.0,1.0,0.550754122436,0,0.0,0.0,0.0,0.474590897856,0.0979999524779,0.376590945379,0.572590850334,0.0979999524779,0.519240340043,160,1.0,-0.227501418013,0.158297521075,nan,nan,nan,nan,nan,nan,nan,nan,828.622339517,1012.61931892,nan,1013.17007304,nan,nan,nan,nan
1,156,1,1,1.0,1.0,0.608950540656,0,0.0,0.0,0.0,0.475082273499,0.0978734527787,0.37720882072,0.572955726278,0.0978734527787,0.550758969058,265,0.384259149088,0.291568309415,0.649478858709,nan,nan,nan,nan,nan,nan,nan,nan,828.622339517,1013.56110825,nan,1014.17005879,nan,nan,nan,nan
1,157,1,1,1.0,1.0,0.427140082349,0,0.0,0.0,0.0,0.475940403417,0.0981424858405,0.377797917576,0.574082889257,0.0981424858405,0.52894824848,416,0.087881616042,0.458117504295,-0.630165317015,nan,nan,nan,nan,nan,nan,nan,nan,828.622339517,1014.5028953,nan,1014.93003538,nan,nan,nan,nan
1,158,1,1,1.0,1.0,0.341321826098,0,0.0,0.0,0.0,0.475629573346,0.0979064325497,0.377723140796,0.573536005896,0.0979064325497,0.459137483034,128,1.0,-0.310663006781,-0.156689791083,nan,nan,nan,nan,nan,nan,nan,nan,828.622339517,1015.44469831,nan,1015.78602013,nan,nan,nan,nan
1,159,1,1,1.0,1.0,0.415519843169,0,0.0,0.0,0.0,0.474779524313,0.0981755892645,0.376603935048,0.572955113577,0.0981755892645,0.394660583872,426,0.156193047225,0.446210853967,-0.81485970128,nan,nan,nan,nan,nan,nan,nan,nan,828.622339517,1016.38648507,nan,1016.80200491,nan,nan,nan,nan
1,160,0,0,0.0,1.0,0.489705030865,0,0.0,0.0,0.0,0.474406821916,0.0979784388846,0.376428383031,0.5723852608,0.0979784388846,0.41551556671,18,0.988682696815,0.131162580546,-1.0,nan,nan,nan,nan,nan,nan,nan,nan,828.622339517,1017.3282781,nan,1017.81798313,nan,nan,nan,nan
1,161,1,1,1.0,1.0,0.395890109066,0,0.0,0.0,0.0,0.474502435722,0.0976792172047,0.376823218517,0.572181652926,0.0976792172047,0.433704994367,398,-0.0220377755791,0.472608796233,-0.387943383198,nan,nan,nan,nan,nan,nan,nan,nan,828.622339517,1018.27007227,nan,1018.66596238,nan,nan,nan,nan
1,162,1,1,1.0,1.0,0.462058959645,0,0.0,0.0,0.0,0.474014160401,0.0975710675614,0.376443092839,0.571585227962,0.0975710675614,0.449218033192,200,1.0,-0.0191209939188,0.47515178387,nan,nan,nan,nan,nan,nan,nan,nan,828.622339517,1019.21186759,nan,1019.67392655,nan,nan,nan,nan
1,163,1,1,1.0,1.0,0.456249267678,0,0.0,0.0,0.0,0.473940362865,0.0972739631779,0.376666399687,0.571214326043,0.0972739631779,0.43806611213,145,1.0,-0.281667413287,0.0150551701241,nan,nan,nan,nan,nan,nan,nan,nan,828.622339517,1020.15365606,nan,1020.60990533,nan,nan,nan,nan
1,164,1,1,1.0,1.0,0.482438211795,0,0.0,0.0,0.0,0.473831828539,0.0969849564122,0.376846872127,0.570816784951,0.0969849564122,0.466915479706,283,0.19826868328,0.351050922538,0.605825948857,nan,nan,nan,nan,nan,nan,nan,nan,828.622339517,1021.09544881,nan,1021.57788702,nan,nan,nan,nan
1,165,1,1,1.0,1.0,0.524624763406,0,0.0,0.0,0.0,0.473884306486,0.0966911397416,0.377193166744,0.570575446227,0.0966911397416,0.487770747626,139,1.0,-0.296335611021,-0.0445992895203,nan,nan,nan,nan,nan,nan,nan,nan,828.622339517,1022.03724726,nan,1022.56187202,nan,nan,nan,nan
1,166,1,1,1.0,1.0,0.550811996975,0,0.0,0.0,0.0,0.474191824406,0.0964781004233,0.377713723983,0.57066992483,0.0964781004233,0.519291657392,457,0.391639248186,0.390358177281,-1.0,nan,nan,nan,nan,nan,nan,nan,nan,828.622339517,1022.97903773,nan,1023.52984972,nan,nan,nan,nan
1,167,1,1,1.0,1.0,0.56899201643,0,0.0,0.0,0.0,0.474653391711,0.0963696204752,0.378283771236,0.571023012186,0.0963696204752,0.548142925603,376,-0.124962824795,0.478704673615,-0.132627625282,nan,nan,nan,nan,nan,nan,nan,nan,828.622339517,1023.92082933,nan,1024.48982135,nan,nan,nan,nan
1,168,1,1,1.0,1.0,0.515183229931,0,0.0,0.0,0.0,0.475218293655,0.0963559303269,0.378862363329,0.571574223982,0.0963559303269,0.544995747778,84,1.0,-0.20765784414,-0.652191087791,nan,nan,nan,nan,nan,nan,nan,nan,828.622339517,1024.8626218,nan,1025.37780503,nan,nan,nan,nan
1,169,1,1,1.0,1.0,0.461367601121,0,0.0,0.0,0.0,0.475456180181,0.0961179024144,0.379338277767,0.571574082595,0.0961179024144,0.515180949161,368,-0.150457169737,0.477793263397,-0.0457341785459,nan,nan,nan,nan,nan,nan,nan,nan,828.622339517,1025.80441511,nan,1026.26578272,nan,nan,nan,nan
1,170,0,0,0.0,1.0,0.65551389032,0,0.0,0.0,0.0,0.475372815808,0.0958391993161,0.379533616492,0.571212015124,0.0958391993161,0.544021573791,48,1.0,-0.0224273256894,-1.0,nan,nan,nan,nan,nan,nan,nan,nan,828.622339517,1026.74623324,nan,1027.40174713,nan,nan,nan,nan
1,171,1,1,1.0,1.0,0.585733155021,0,0.0,0.0,0.0,0.476432469187,0.0965447360141,0.379887733173,0.572977205201,0.0965447360141,0.567538215488,491,0.673033477965,0.292707709811,-1.0,nan,nan,nan,nan,nan,nan,nan,nan,828.622339517,1027.68800403,nan,1028.27373719,nan,nan,nan,nan
1,172,1,1,1.0,1.0,0.499931719387,0,0.0,0.0,0.0,0.477071654485,0.0966221133074,0.380449541177,0.573693767792,0.0966221133074,0.580392921576,267,0.362924526182,0.298807232282,0.646622522267,nan,nan,nan,nan,nan,nan,nan,nan,828.622339517,1028.62979279,nan,1029.12972451,nan,nan,nan,nan
1,173,0,0,0.0,1.0,0.49409579864,0,0.0,0.0,0.0,0.477204561839,0.0963565010199,0.380848060819,0.573561062859,0.0963565010199,0.526586891016,161,1.0,-0.223158351501,0.167490545043,nan,nan,nan,nan,nan,nan,nan,nan,828.622339517,1029.57158696,nan,1030.06568276,nan,nan,nan,nan
1,174,1,1,1.0,1.0,0.392289628217,0,0.0,0.0,0.0,0.477302199046,0.096086143141,0.381216055905,0.573388342187,0.096086143141,0.462105715415,321,-0.0999433513493,0.43654647086,0.391174984052,nan,nan,nan,nan,nan,nan,nan,nan,828.622339517,1030.51337657,nan,1030.9056662,nan,nan,nan,nan
1,175,1,1,1.0,1.0,0.386491340061,0,0.0,0.0,0.0,0.476813621052,0.096024907457,0.380788713595,0.572838528509,0.096024907457,0.424292255639,195,1.0,-0.0469245268387,0.442396054288,nan,nan,nan,nan,nan,nan,nan,nan,828.622339517,1031.45516704,nan,1031.84165838,nan,nan,nan,nan
1,176,1,1,1.0,1.0,0.396659583901,0,0.0,0.0,0.0,0.476297493732,0.0959918958757,0.380305597857,0.572289389608,0.0959918958757,0.391813517393,491,0.673033477965,0.292707709811,-1.0,nan,nan,nan,nan,nan,nan,nan,nan,828.622339517,1032.3969615,nan,1032.79362108,nan,nan,nan,nan
1,177,1,1,1.0,1.0,0.326854615414,0,1.0,0.0,0.0,0.475845005608,0.0959057857527,0.379939219856,0.571750791361,0.0959057857527,0.370001846459,58,1.0,-0.0760896648475,-1.0,nan,nan,nan,nan,nan,nan,nan,nan,828.622339517,1033.33875539,nan,1033.66561,nan,nan,nan,nan
1,178,1,1,1.0,1.0,0.457052383921,1,0.0,0.0,1.0,0.475003251991,0.0962842601014,0.37871899189,0.571287512093,0.0962842601014,0.393522194412,301,0.0351599448551,0.39804275895,0.523414514543,-132.459532595,222.459532595,10.8189075954,316.0,-0.0718215561597,0.428203514031,0.427892255365,4.16754994245,828.622339517,1034.28053873,1035.08896857,1034.73759111,1040.28969716,1041.29795355,1036.10573879,1040.2813122
1,179,1,1,1.0,1.0,0.705580788199,0,0.0,0.0,0.0,0.474902404418,0.0960227916801,0.378879612738,0.570925196098,0.0960227916801,0.496495929178,142,1.0,-0.289568116499,-0.0146273521697,nan,nan,nan,nan,nan,nan,nan,nan,828.622339517,1041.43983799,nan,1042.14541877,nan,nan,nan,nan
1,180,1,1,1.0,1.0,0.579750979785,0,0.0,0.0,0.0,0.476191110473,0.0972855688437,0.378905541629,0.573476679316,0.0972855688437,0.580794717302,37,1.0,0.0358565504353,-1.0,nan,nan,nan,nan,nan,nan,nan,nan,828.622339517,1042.38163558,nan,1042.96138656,nan,nan,nan,nan
1,181,1,1,1.0,1.0,0.541941796488,0,0.0,1.0,0.0,0.47676644308,0.0973198428493,0.379446600231,0.574086285929,0.0973198428493,0.609091188157,190,1.0,-0.0746884387243,0.407399635172,nan,nan,nan,nan,nan,nan,nan,nan,828.622339517,1043.32342747,nan,1043.86536927,nan,nan,nan,nan
1,182,1,1,1.0,1.0,0.440127643291,1,0.0,0.0,1.0,0.477126527905,0.0971707980893,0.379955729816,0.574297325995,0.0971707980893,0.520606806521,12,0.942476689623,0.159273951266,-1.0,72.7951396248,17.2048603752,8.76736037516,24.0,1.0,0.102019060141,-1.0,1.63393352751,828.622339517,1044.26522279,1045.07362868,1044.70535043,1047.74065162,1048.73902629,1046.09040146,1047.73232681
1,183,1,1,1.0,1.0,0.566750874568,0,0.0,0.0,0.0,0.476923237331,0.0969420660847,0.379981171246,0.573865303415,0.0969420660847,0.516273438116,436,0.228681708805,0.431413732101,-1.0,nan,nan,nan,nan,nan,nan,nan,nan,828.622339517,1048.88250042,nan,1049.44925129,nan,nan,nan,nan
1,184,1,1,1.0,1.0,0.480922639952,0,0.0,0.0,0.0,0.477414098736,0.0969033655222,0.380510733214,0.574317464258,0.0969033655222,0.49593371927,285,0.178734351563,0.356878681702,0.598527012995,nan,nan,nan,nan,nan,nan,nan,nan,828.622339517,1049.82429573,nan,1050.30521837,nan,nan,nan,nan
1,185,1,1,1.0,1.0,0.571108000993,0,0.0,0.0,0.0,0.477433166895,0.0966400266629,0.380793140232,0.574073193558,0.0966400266629,0.539593838505,474,0.530901762182,0.346545376391,-1.0,nan,nan,nan,nan,nan,nan,nan,nan,828.622339517,1050.76608991,nan,1051.33719791,nan,nan,nan,nan
1,186,1,1,1.0,1.0,0.605326681864,0,0.0,0.0,0.0,0.47793951735,0.096622916449,0.381316600901,0.574562433799,0.096622916449,0.552452440936,387,-0.0787219327085,0.477231755363,-0.256974454483,nan,nan,nan,nan,nan,nan,nan,nan,828.622339517,1051.70785871,nan,1052.31318539,nan,nan,nan,nan
1,187,1,1,1.0,1.0,0.51148153987,0,0.0,0.0,0.0,0.478624394578,0.0968120344311,0.381812360147,0.575436429009,0.0968120344311,0.562638740909,21,1.0,0.116713997928,-1.0,nan,nan,nan,nan,nan,nan,nan,nan,828.622339517,1052.64967455,nan,1053.16115609,nan,nan,nan,nan
1,188,1,1,1.0,1.0,0.441673150228,0,0.0,0.0,0.0,0.478800101237,0.096582563964,0.382217537274,0.575382665201,0.096582563964,0.519493790654,372,-0.138660017671,0.478458869494,-0.0888123791441,nan,nan,nan,nan,nan,nan,nan,nan,828.622339517,1053.59146502,nan,1054.03313817,nan,nan,nan,nan
1,189,1,1,1.0,1.0,0.523901759239,0,0.0,0.0,0.0,0.478602617455,0.096363201441,0.382239416015,0.574965818896,0.096363201441,0.492352149779,136,1.0,-0.301914900238,-0.074841205769,nan,nan,nan,nan,nan,nan,nan,nan,828.622339517,1054.53324037,nan,1055.05714213,nan,nan,nan,nan
1,190,1,1,1.0,1.0,0.446043105971,0,0.0,0.0,0.0,0.478842295454,0.0961641034107,0.382678192044,0.575006398865,0.0961641034107,0.470539338479,204,1.0,0.00303256528985,0.499654420455,nan,nan,nan,nan,nan,nan,nan,nan,828.622339517,1055.47505165,nan,1055.92109476,nan,nan,nan,nan
1,191,1,1,1.0,1.0,0.440218874079,0,0.0,0.0,0.0,0.478669668141,0.0959400635024,0.382729604639,0.574609731644,0.0959400635024,0.470054579763,284,0.188465149253,0.353984098999,0.602236276499,nan,nan,nan,nan,nan,nan,nan,nan,828.622339517,1056.41684982,nan,1056.85706869,nan,nan,nan,nan
1,192,1,1,1.0,1.0,0.410425172653,0,0.0,0.0,0.0,0.478468355083,0.0957288087642,0.382739546319,0.574197163848,0.0957288087642,0.432229050901,474,0.530901762182,0.346545376391,-1.0,nan,nan,nan,nan,nan,nan,nan,nan,828.622339517,1057.35863829,nan,1057.76906346,nan,nan,nan,nan
1,193,1,1,1.0,1.0,0.444595387089,0,0.0,0.0,0.0,0.478113963508,0.0956047277744,0.382509235734,0.573718691283,0.0956047277744,0.43174647794,237,0.686387300223,0.174031846447,0.636349816437,nan,nan,nan,nan,nan,nan,nan,nan,828.622339517,1058.30043218,nan,1058.74502756,nan,nan,nan,nan
1,194,1,1,1.0,1.0,0.566779384215,0,0.0,0.0,0.0,0.477940292128,0.0953870858545,0.382553206273,0.573327377982,0.0953870858545,0.473933314652,407,0.0305886347219,0.46645515455,-0.502577406972,nan,nan,nan,nan,nan,nan,nan,nan,828.622339517,1059.2422215,nan,1059.80900089,nan,nan,nan,nan
1,195,1,1,1.0,1.0,0.600967559731,0,0.0,0.0,0.0,0.478398225592,0.0953533866329,0.383044838959,0.573751612225,0.0953533866329,0.537447443678,104,1.0,-0.282351481576,-0.412644567278,nan,nan,nan,nan,nan,nan,nan,nan,828.622339517,1060.18401767,nan,1060.78498523,nan,nan,nan,nan
1,196,1,1,1.0,1.0,0.643146413786,0,0.0,1.0,0.0,0.47902678628,0.0955106721873,0.383516114093,0.574537458467,0.0955106721873,0.603631119244,163,1.0,-0.214247802105,0.185723682048,nan,nan,nan,nan,nan,nan,nan,nan,828.622339517,1061.12581042,nan,1061.76895684,nan,nan,nan,nan
1,197,1,1,1.0,1.0,0.693321648228,1,0.0,0.0,1.0,0.479864131318,0.0959816118976,0.383882519421,0.575845743216,0.0959816118976,0.645811873915,428,0.170378320166,0.443486568519,-0.86866140055,150.289991358,299.710008642,-1.22749135822,426.0,0.156193047225,0.446210853967,-0.81485970128,2.79231363325,828.622339517,1062.06760631,1062.87601904,1062.76092795,1066.70982844,1067.70821194,1063.90114087,1066.70149963
1,198,1,1,1.0,1.0,0.653094278241,0,0.0,0.0,0.0,0.480947672013,0.0969320476521,0.384015624361,0.577879719665,0.0969320476521,0.663187446752,66,1.0,-0.118568705386,-1.0,nan,nan,nan,nan,nan,nan,nan,nan,828.622339517,1067.85170375,nan,1068.50479803,nan,nan,nan,nan
1,199,1,1,1.0,1.0,0.591259746405,0,0.0,0.0,0.0,0.481817099317,0.0974539956708,0.384363103647,0.579271094988,0.0974539956708,0.645891890958,183,1.0,-0.113108999915,0.354902835149,nan,nan,nan,nan,nan,nan,nan,nan,828.622339517,1068.79352216,nan,1069.3847819,nan,nan,nan,nan
1,200,1,1,1.0,1.0,0.577468499017,0,0.0,1.0,0.0,0.482367062368,0.0975163739759,0.384850688392,0.579883436344,0.0975163739759,0.607274174554,338,-0.162891363375,0.458928707883,0.250399161362,nan,nan,nan,nan,nan,nan,nan,nan,828.622339517,1069.73529523,nan,1070.31276373,nan,nan,nan,nan
1,201,1,1,1.0,1.0,0.539638503629,1,0.0,0.0,1.0,0.482842569551,0.0975032885939,0.385339280958,0.580345858145,0.0975032885939,0.569455583017,170,1.0,-0.180990482069,0.247815061387,-27.5528115767,117.552811577,-1.97843842328,167.0,1.0,-0.195605812978,0.221546716301,4.04248077096,828.622339517,1070.67708713,1071.48550499,1071.21672563,1076.55289263,1077.55157748,1072.49396009,1076.54453133
1,202,1,1,1.0,1.0,0.64182955405,0,0.0,0.0,0.0,0.483125136388,0.0973424990608,0.385782637327,0.580467635448,0.0973424990608,0.586312185565,220,0.861731547614,0.0893272636146,0.581247684387,nan,nan,nan,nan,nan,nan,nan,nan,828.622339517,1077.69473858,nan,1078.33656813,nan,nan,nan,nan
1,203,1,1,1.0,1.0,0.604034625518,0,0.0,0.0,0.0,0.483910801822,0.0977380412379,0.386172760584,0.58164884306,0.0977380412379,0.595167561066,3,0.871087178923,0.199335109687,-1.0,nan,nan,nan,nan,nan,nan,nan,nan,828.622339517,1078.63651251,nan,1079.24054713,nan,nan,nan,nan
1,204,1,1,1.0,1.0,0.566248534946,0,0.0,1.0,0.0,0.484502544795,0.0978590783564,0.386643466439,0.582361623152,0.0978590783564,0.604037571504,466,0.464789014893,0.368385601135,-1.0,nan,nan,nan,nan,nan,nan,nan,nan,828.622339517,1079.57827703,nan,1080.14452557,nan,nan,nan,nan
1,205,1,1,1.0,1.0,0.528439066489,1,0.0,0.0,1.0,0.484903260433,0.0977857474632,0.38711751297,0.582689007897,0.0977857474632,0.566240742318,194,1.0,-0.0524864644427,0.435571704399,-26.6915317211,116.691531721,-19.7147182789,166.0,1.0,-0.20036215083,0.21267421211,6.04279523215,828.622339517,1080.52006864,1081.32849078,1081.04850771,1088.39607884,1089.40730451,1082.3369188,1088.38774662
1,206,1,1,1.0,1.0,0.613701099937,0,0.0,0.0,0.0,0.485115630219,0.0975941024741,0.387521527745,0.582709732693,0.0975941024741,0.569462900457,311,-0.0397249783266,0.419020224334,0.462250212202,nan,nan,nan,nan,nan,nan,nan,nan,828.622339517,1089.55460549,nan,1090.16830659,nan,nan,nan,nan
1,207,1,1,1.0,1.0,0.487869581033,0,0.0,0.0,0.0,0.485739831528,0.0977662849032,0.387973546625,0.583506116432,0.0977662849032,0.543336582487,396,-0.0330153705648,0.473684876347,-0.363523780775,nan,nan,nan,nan,nan,nan,nan,nan,828.622339517,1090.49640052,nan,1090.9842701,nan,nan,nan,nan
1,208,1,1,1.0,1.0,0.594090467319,0,0.0,0.0,0.0,0.485750120173,0.097529960353,0.38822015982,0.583280080526,0.097529960353,0.565220382763,194,1.0,-0.0524864644427,0.435571704399,nan,nan,nan,nan,nan,nan,nan,nan,828.622339517,1091.43815649,nan,1092.03224695,nan,nan,nan,nan
1,209,1,1,1.0,1.0,0.588216913806,0,0.0,0.0,0.0,0.486270987227,0.0975834082425,0.388687578984,0.58385439547,0.0975834082425,0.556725654053,449,0.328095008353,0.407646248688,-1.0,nan,nan,nan,nan,nan,nan,nan,nan,828.622339517,1092.38000568,nan,1092.9682226,nan,nan,nan,nan
1,210,1,1,1.0,1.0,0.478456272103,0,0.0,0.0,0.0,0.48675876678,0.0976035269327,0.389155239847,0.584362293713,0.0976035269327,0.553587884409,50,1.0,-0.033148730948,-1.0,nan,nan,nan,nan,nan,nan,nan,nan,828.622339517,1093.32174626,nan,1093.80020253,nan,nan,nan,nan
1,211,1,1,1.0,1.0,0.416607200343,0,0.0,0.0,0.0,0.486719231091,0.0973725377668,0.389346693324,0.584091768858,0.0973725377668,0.494426795417,412,0.0618891196837,0.462096609288,-0.571158935758,nan,nan,nan,nan,nan,nan,nan,nan,828.622339517,1094.26357693,nan,1094.68018413,nan,nan,nan,nan
1,212,1,1,1.0,1.0,0.394808453799,0,0.0,0.0,0.0,0.486386946585,0.0972607949894,0.389126151596,0.583647741574,0.0972607949894,0.429957308748,492,0.681403316433,0.289222019555,-1.0,nan,nan,nan,nan,nan,nan,nan,nan,828.622339517,1095.20536369,nan,1095.60017214,nan,nan,nan,nan
1,213,1,1,1.0,1.0,0.396979461948,0,0.0,0.0,0.0,0.485954972563,0.0972338116193,0.388721160943,0.583188784182,0.0972338116193,0.40279837203,204,1.0,0.00303256528985,0.499654420455,nan,nan,nan,nan,nan,nan,nan,nan,828.622339517,1096.14716242,nan,1096.54414188,nan,nan,nan,nan
1,214,1,1,1.0,1.0,0.399190953816,0,0.0,0.0,0.0,0.485537247161,0.0971957819953,0.388341465165,0.582733029156,0.0971957819953,0.396992956521,462,0.432089675478,0.378486360879,-1.0,nan,nan,nan,nan,nan,nan,nan,nan,828.622339517,1097.08895317,nan,1097.48814413,nan,nan,nan,nan
1,215,1,1,1.0,1.0,0.593365752604,0,0.0,0.0,0.0,0.485133759809,0.0971470633599,0.387986696449,0.582280823168,0.0971470633599,0.463178722789,383,-0.0968787136249,0.478131214543,-0.211081409456,nan,nan,nan,nan,nan,nan,nan,nan,828.622339517,1098.03074336,nan,1098.62410911,nan,nan,nan,nan
1,216,1,1,1.0,1.0,0.555555143743,0,0.0,0.0,0.0,0.485637164426,0.0972002438159,0.38843692061,0.582837408242,0.0972002438159,0.516037283388,476,0.547545041103,0.340739382997,-1.0,nan,nan,nan,nan,nan,nan,nan,nan,828.622339517,1098.97254209,nan,1099.52809724,nan,nan,nan,nan
1,217,1,1,1.0,1.0,0.525700431666,0,0.0,0.0,0.0,0.485960858775,0.0970910626946,0.38886979608,0.583051921469,0.0970910626946,0.558207109338,161,1.0,-0.223158351501,0.167490545043,nan,nan,nan,nan,nan,nan,nan,nan,828.622339517,1099.91436934,nan,1100.44006977,nan,nan,nan,nan
1,218,1,1,1.0,1.0,0.511929426109,0,0.0,0.0,0.0,0.486143990447,0.0969044766577,0.389239513789,0.583048467105,0.0969044766577,0.531061667173,265,0.384259149088,0.291568309415,0.649478858709,nan,nan,nan,nan,nan,nan,nan,nan,828.622339517,1100.85611675,nan,1101.36804618,nan,nan,nan,nan
1,219,0,0,0.0,1.0,0.482114912593,0,0.0,0.0,0.0,0.486262272262,0.0966976626839,0.389564609578,0.582959934946,0.0966976626839,0.506581590123,477,0.555879874869,0.337784025865,-1.0,nan,nan,nan,nan,nan,nan,nan,nan,828.622339517,1101.79791064,nan,1102.28002556,nan,nan,nan,nan
1,220,1,1,1.0,1.0,0.492288003152,0,0.0,0.0,0.0,0.486243334547,0.0964770443558,0.389766290191,0.582720378903,0.0964770443558,0.495444113951,245,0.600577697281,0.210610106048,0.650172825369,nan,nan,nan,nan,nan,nan,nan,nan,828.622339517,1102.73971251,nan,1103.23200052,nan,nan,nan,nan
1,221,1,1,1.0,1.0,0.582484768063,0,0.0,0.0,0.0,0.486270810313,0.0962583873826,0.390012422931,0.582529197696,0.0962583873826,0.518962561269,112,1.0,-0.300501516081,-0.325324861792,nan,nan,nan,nan,nan,nan,nan,nan,828.622339517,1103.68149871,nan,1104.26398347,nan,nan,nan,nan
1,222,1,1,1.0,1.0,0.456671210181,0,0.0,0.0,0.0,0.486706167588,0.096257201866,0.390448965722,0.582963369454,0.096257201866,0.510481327132,347,-0.174938837379,0.46723881498,0.167157479366,nan,nan,nan,nan,nan,nan,nan,nan,828.622339517,1104.62327549,nan,1105.0799467,nan,nan,nan,nan
1,223,1,1,1.0,1.0,0.442846321443,0,0.0,0.0,0.0,0.486570874987,0.0960612193246,0.390509655662,0.582632094312,0.0960612193246,0.494000766562,457,0.391639248186,0.390358177281,-1.0,nan,nan,nan,nan,nan,nan,nan,nan,828.622339517,1105.56508164,nan,1106.00792796,nan,nan,nan,nan
1,224,0,0,0.0,1.0,0.477025088738,0,0.0,0.0,0.0,0.486374800756,0.0958901068472,0.390655203621,0.58201091832,0.0958901068472,0.45884754012,115,1.0,-0.305166285737,-0.293172749504,nan,nan,nan,nan,nan,nan,nan,nan,828.622339517,1106.50687467,nan,1106.98389976,nan,nan,nan,nan
1,225,1,1,nan,nan,nan,0,0.0,0.0,0.0,0.48633306097,0.0956778573496,0.390655203621,0.58201091832,0.0956778573496,0.45993570509,26,1.0,0.0920921692153,-1.0,nan,nan,nan,nan,nan,nan,nan,nan,828.622339517,1107.44870391,nan,nan,nan,nan,nan,nan
1,226,1,1,1.0,1.0,0.473419191025,0,0.0,0.0,0.0,0.48633306097,0.0956778573496,0.390655203621,0.58201091832,0.0956778573496,0.475222139881,166,1.0,-0.20036215083,0.21267421211,nan,nan,nan,nan,nan,nan,nan,nan,828.622339517,1108.39046188,nan,1108.86388107,nan,nan,nan,nan
1,227,1,1,1.0,1.0,0.403562905209,0,0.0,0.0,0.0,0.486275665993,0.0954688677944,0.390806798198,0.581744533787,0.0954688677944,0.438491048117,506,0.797774742377,0.236703125255,-1.0,nan,nan,nan,nan,nan,nan,nan,nan,828.622339517,1109.33228114,nan,1109.73584404,nan,nan,nan,nan
1,228,1,1,1.0,1.0,0.429997602361,0,0.0,0.0,0.0,0.485909680325,0.0954154792234,0.390494201102,0.581325159549,0.0954154792234,0.435659899532,152,1.0,-0.259184487343,0.0830625546756,nan,nan,nan,nan,nan,nan,nan,nan,828.622339517,1110.27404281,nan,1110.70404041,nan,nan,nan,nan
1,229,1,1,1.0,1.0,0.471969191392,0,0.0,0.0,0.0,0.485663371612,0.0952770613096,0.390386310302,0.580940432922,0.0952770613096,0.435176566321,356,-0.17284377641,0.473239407326,0.0788368070227,nan,nan,nan,nan,nan,nan,nan,nan,828.622339517,1111.21584126,nan,1111.68781045,nan,nan,nan,nan
1,230,1,1,1.0,1.0,0.450158185675,0,0.0,0.0,0.0,0.485603309418,0.0950721975785,0.390531111839,0.580675506996,0.0950721975785,0.450708326476,99,1.0,-0.267176270739,-0.468793303331,nan,nan,nan,nan,nan,nan,nan,nan,828.622339517,1112.15762859,nan,1112.60778678,nan,nan,nan,nan
1,231,1,1,1.0,1.0,0.452334325586,0,0.0,0.0,0.0,0.485448527218,0.0948931750131,0.390555352205,0.580341702231,0.0948931750131,0.458153900884,311,-0.0397249783266,0.419020224334,0.462250212202,nan,nan,nan,nan,nan,nan,nan,nan,828.622339517,1113.09942761,nan,1113.55176194,nan,nan,nan,nan
1,232,1,1,1.0,1.0,0.446533471579,0,0.0,0.0,0.0,0.485304552429,0.0947117237316,0.390592828697,0.58001627616,0.0947117237316,0.449675327613,255,0.492159363509,0.253017189294,0.656163111527,nan,nan,nan,nan,nan,nan,nan,nan,828.622339517,1114.04121523,nan,1114.4877487,nan,nan,nan,nan
1,233,1,1,1.0,1.0,0.496687893989,0,0.0,0.0,0.0,0.485136712252,0.0945407704299,0.390595941822,0.579677482682,0.0945407704299,0.465185230384,388,-0.0739633693698,0.476941921698,-0.268577162136,nan,nan,nan,nan,nan,nan,nan,nan,828.622339517,1114.9830151,nan,1115.479703,nan,nan,nan,nan
1,234,1,1,1.0,1.0,0.578878585191,0,0.0,0.0,0.0,0.485186501828,0.0943398338192,0.390846668009,0.579526335647,0.0943398338192,0.507366650253,272,0.310166696092,0.316214117232,0.637281430288,nan,nan,nan,nan,nan,nan,nan,nan,828.622339517,1115.92480101,nan,1116.5036796,nan,nan,nan,nan
1,235,1,1,1.0,1.0,0.597115908982,0,0.0,0.0,0.0,0.485588613774,0.0943362062723,0.391252407502,0.579924820046,0.0943362062723,0.557560796054,139,1.0,-0.296335611021,-0.0445992895203,nan,nan,nan,nan,nan,nan,nan,nan,828.622339517,1116.86655213,nan,1117.46366804,nan,nan,nan,nan
1,236,1,1,1.0,1.0,0.599250995088,0,0.0,1.0,0.0,0.486065226147,0.0944151294127,0.391650096734,0.580480355559,0.0944151294127,0.591748496421,428,0.170378320166,0.443486568519,-0.86866140055,nan,nan,nan,nan,nan,nan,nan,nan,828.622339517,1117.80838394,nan,1118.40763494,nan,nan,nan,nan
1,237,0,0,0.0,1.0,0.513442717143,1,0.0,0.0,1.0,0.486546867717,0.0945016762709,0.392045191446,0.581048543987,0.0945016762709,0.569936540405,90,1.0,-0.233635786423,-0.574971871003,17.8092787537,72.1907212463,8.90947124633,103.0,1.0,-0.279537473278,-0.423758835275,3.49243169167,828.622339517,1118.75017583,1119.55858714,1119.26361855,1124.08420176,1125.08372993,1120.5753548,1124.07587324
1,238,1,1,1.0,1.0,0.581440175243,0,0.0,0.0,0.0,0.48666083318,0.0943174302185,0.392343402962,0.580978263399,0.0943174302185,0.564711295825,430,0.184725017221,0.440645728776,-0.941904167281,nan,nan,nan,nan,nan,nan,nan,nan,828.622339517,1125.22603744,nan,1125.80747762,nan,nan,nan,nan
1,239,1,1,1.0,1.0,0.50361402292,0,0.0,0.0,0.0,0.487060746016,0.0943185361497,0.392742209866,0.581379282166,0.0943185361497,0.532832305102,471,0.506014005179,0.354993781952,-1.0,nan,nan,nan,nan,nan,nan,nan,nan,828.622339517,1126.16783475,nan,1126.67144878,nan,nan,nan,nan
1,240,1,1,1.0,1.0,0.601807453379,0,0.0,0.0,0.0,0.4871302976,0.094126269644,0.393004027956,0.581256567244,0.094126269644,0.562287217181,111,1.0,-0.298677811705,-0.336106236365,nan,nan,nan,nan,nan,nan,nan,nan,828.622339517,1127.10963434,nan,1127.7114418,nan,nan,nan,nan
1,241,1,1,1.0,1.0,0.507981697971,0,0.0,0.0,0.0,0.487610118335,0.0942203735043,0.393389744831,0.581830491839,0.0942203735043,0.53780105809,278,0.248285521772,0.335802812283,0.621962573991,nan,nan,nan,nan,nan,nan,nan,nan,828.622339517,1128.05141483,nan,1128.55939653,nan,nan,nan,nan
1,242,0,0,0.0,1.0,0.518179021659,0,0.0,0.0,0.0,0.487694999917,0.0940330327884,0.393661967128,0.581728032705,0.0940330327884,0.542656057669,498,0.731507943485,0.267561876527,-1.0,nan,nan,nan,nan,nan,nan,nan,nan,828.622339517,1128.99320929,nan,1129.51138831,nan,nan,nan,nan
1,243,1,1,1.0,1.0,0.456365586957,0,0.0,0.0,0.0,0.487821489634,0.093858198884,0.39396329075,0.581679688518,0.093858198884,0.494175435529,202,1.0,-0.00802826454356,0.487596984314,nan,nan,nan,nan,nan,nan,nan,nan,828.622339517,1129.93500546,nan,1130.39137105,nan,nan,nan,nan
1,244,1,1,1.0,1.0,0.426540239772,0,0.0,0.0,0.0,0.487691506565,0.0936858101138,0.394005696451,0.581377316679,0.0936858101138,0.467028282796,488,0.647907709101,0.302951493728,-1.0,nan,nan,nan,nan,nan,nan,nan,nan,828.622339517,1130.87679849,nan,1131.30333873,nan,nan,nan,nan
1,245,0,0,0.0,1.0,0.484730956086,0,0.0,0.0,0.0,0.487439855261,0.0935747669787,0.393865088282,0.58101462224,0.0935747669787,0.455878927605,391,-0.0591907973189,0.475916278612,-0.303718712187,nan,nan,nan,nan,nan,nan,nan,nan,828.622339517,1131.81859609,nan,1132.30332705,nan,nan,nan,nan
1,246,1,1,1.0,1.0,0.358926236222,0,0.0,0.0,0.0,0.487428753215,0.0933829789036,0.394045774312,0.580811732119,0.0933829789036,0.423399144027,274,0.289344050657,0.322900892411,0.632670269059,nan,nan,nan,nan,nan,nan,nan,nan,828.622339517,1132.76038428,nan,1133.11931051,nan,nan,nan,nan
1,247,1,1,1.0,1.0,0.457110543502,0,0.0,0.0,0.0,0.486904253146,0.093551653309,0.393352599837,0.580455906455,0.093551653309,0.43358924527,476,0.547545041103,0.340739382997,-1.0,nan,nan,nan,nan,nan,nan,nan,nan,828.622339517,1133.70218016,nan,1134.1592907,nan,nan,nan,nan
1,248,1,1,1.0,1.0,0.467301595083,0,0.0,0.0,0.0,0.486783140505,0.0933805583943,0.393402582111,0.580163698899,0.0933805583943,0.427779458269,86,1.0,-0.21659106269,-0.625617802914,nan,nan,nan,nan,nan,nan,nan,nan,828.622339517,1134.64396493,nan,1135.11126652,nan,nan,nan,nan
1,249,1,1,1.0,1.0,0.453474425594,0,0.0,0.0,0.0,0.486704267852,0.0931995475918,0.39350472026,0.579903815443,0.0931995475918,0.459295521393,183,1.0,-0.113108999915,0.354902835149,nan,nan,nan,nan,nan,nan,nan,nan,828.622339517,1135.58576166,nan,1136.03923609,nan,nan,nan,nan
1,250,1,1,1.0,1.0,0.47165473015,0,0.0,0.0,0.0,0.486570276552,0.0930352911864,0.393534985366,0.579605567739,0.0930352911864,0.464143583609,460,0.415848916989,0.383334931935,-1.0,nan,nan,nan,nan,nan,nan,nan,nan,828.622339517,1136.52754814,nan,1136.99920287,nan,nan,nan,nan
1,251,1,1,1.0,1.0,0.417852500861,0,0.0,0.0,0.0,0.486510374759,0.0928530773805,0.393657297379,0.57936345214,0.0928530773805,0.447660552202,429,0.177531820842,0.442080780324,-0.901885199234,nan,nan,nan,nan,nan,nan,nan,nan,828.622339517,1137.46934117,nan,1137.88719367,nan,nan,nan,nan
1,252,1,1,1.0,1.0,0.484029334155,0,0.0,0.0,0.0,0.486235743264,0.0927684612099,0.393467282054,0.579004204474,0.0927684612099,0.457845521722,156,1.0,-0.244060613314,0.121041471254,nan,nan,nan,nan,nan,nan,nan,nan,828.622339517,1138.41113791,nan,1138.89516725,nan,nan,nan,nan
1,253,1,1,1.0,1.0,0.430224824056,0,0.0,0.0,0.0,0.486226952789,0.0925835833774,0.393643369412,0.578810536167,0.0925835833774,0.444035553024,117,1.0,-0.307587969795,-0.271886539361,nan,nan,nan,nan,nan,nan,nan,nan,828.622339517,1139.35292467,nan,1139.7831495,nan,nan,nan,nan
1,254,0,0,0.0,1.0,0.696388713957,0,0.0,0.0,0.0,0.48600472212,0.0924667570186,0.393537965101,0.578471479138,0.0924667570186,0.53688095739,188,1.0,-0.0857393506835,0.392804289229,nan,nan,nan,nan,nan,nan,nan,nan,828.622339517,1140.29472113,nan,1140.99110984,nan,nan,nan,nan
1,255,1,1,1.0,1.0,0.514598782582,0,0.0,0.0,0.0,0.4868362794,0.0932231791982,0.393613100201,0.580059458598,0.0932231791982,0.547070773532,453,0.359670421306,0.39926174925,-1.0,nan,nan,nan,nan,nan,nan,nan,nan,828.622339517,1141.23651103,nan,1141.75110981,nan,nan,nan,nan
1,256,1,1,1.0,1.0,0.452784777677,0,0.0,0.0,0.0,0.486945580593,0.0930557298621,0.393889850731,0.580001310455,0.0930557298621,0.554590758072,267,0.362924526182,0.298807232282,0.646622522267,nan,nan,nan,nan,nan,nan,nan,nan,828.622339517,1142.17830605,nan,1142.63109083,nan,nan,nan,nan
1,257,1,1,1.0,1.0,0.65498532186,0,0.0,0.0,0.0,0.48681161666,0.0928976260196,0.393913990641,0.57970924268,0.0928976260196,0.540789627373,322,-0.105067232891,0.43811622051,0.383559350674,nan,nan,nan,nan,nan,nan,nan,nan,828.622339517,1143.12009339,nan,1143.77507871,nan,nan,nan,nan
1,258,1,1,1.0,1.0,0.569158797793,0,0.0,0.0,0.0,0.487468545196,0.0933075809076,0.394160964289,0.580776126104,0.0933075809076,0.55897629911,24,1.0,0.102019060141,-1.0,nan,nan,nan,nan,nan,nan,nan,nan,828.622339517,1144.0618867,nan,1144.6310455,nan,nan,nan,nan
1,259,1,1,1.0,1.0,0.579341581557,0,0.0,1.0,0.0,0.487786406101,0.0932646400577,0.394521766044,0.581051046159,0.0932646400577,0.601161900403,250,0.546428449327,0.232286661223,0.654747725831,nan,nan,nan,nan,nan,nan,nan,nan,828.622339517,1145.00368316,nan,1145.58302474,nan,nan,nan,nan
1,260,1,1,1.0,1.0,0.501526833163,1,0.0,0.0,1.0,0.488141271122,0.0932573995504,0.394883871572,0.581398670673,0.0932573995504,0.550009070837,446,0.304696255059,0.41359904426,-1.0,136.591140271,313.408859729,-0.184890271195,446.0,0.304696255059,0.41359904426,-1.0,2.8340950631,828.622339517,1145.94547249,1146.75388807,1146.44699932,1150.61273291,1151.618757,1147.76232293,1150.60436334
1,261,0,0,1.0,0.0,0.57993800292,0,0.0,0.0,0.0,0.488192952829,0.0930808936342,0.395112059195,0.581273846463,0.0930808936342,0.553602139213,314,-0.0594438881467,0.42463230952,0.441925406839,nan,nan,nan,nan,nan,nan,nan,nan,828.622339517,1151.76292192,nan,1152.34285992,nan,nan,nan,nan
1,262,1,1,1.0,1.0,0.638127578888,0,0.0,0.0,0.0,0.488545818406,0.0930751236145,0.395470694792,0.581620942021,0.0930751236145,0.573197471657,58,1.0,-0.0760896648475,-1.0,nan,nan,nan,nan,nan,nan,nan,nan,828.622339517,1152.70471353,nan,1153.3428411,nan,nan,nan,nan
1,263,1,1,1.0,1.0,0.568309210881,0,0.0,0.0,0.0,0.4891189286,0.0933551579893,0.39576377061,0.582474086589,0.0933551579893,0.59545826423,505,0.789537956352,0.240683140511,-1.0,nan,nan,nan,nan,nan,nan,nan,nan,828.622339517,1153.64649915,nan,1154.21480836,nan,nan,nan,nan
1,264,1,1,1.0,1.0,0.562501799664,0,0.0,1.0,0.0,0.489421181586,0.0933046922653,0.39611648932,0.582725873851,0.0933046922653,0.589646196478,431,0.191957257768,0.43918128748,-0.982298765802,nan,nan,nan,nan,nan,nan,nan,nan,828.622339517,1154.58829303,nan,1155.15079483,nan,nan,nan,nan
1,265,1,1,1.0,1.0,0.63666902628,1,0.0,0.0,1.0,0.489699054658,0.0932356892549,0.396463365403,0.582934743913,0.0932356892549,0.589160012275,335,-0.155595990888,0.455627721073,0.276893227044,-155.810485846,245.810485846,10.263610846,350.0,-0.175756816429,0.469490941964,0.138247479403,3.37573465751,828.622339517,1155.53008749,1156.33850365,1156.16675652,1160.75572381,1161.75851747,1157.36362377,1160.74739415
1,266,1,1,1.0,1.0,0.644999539538,0,0.0,0.0,0.0,0.490255759096,0.0934958557296,0.396759903367,0.583751614826,0.0934958557296,0.614723455161,80,1.0,-0.189075709245,-0.708965549488,nan,nan,nan,nan,nan,nan,nan,nan,828.622339517,1161.89762563,nan,1162.54262517,nan,nan,nan,nan
1,267,1,1,1.0,1.0,0.534883382788,0,0.0,0.0,0.0,0.49083969789,0.0938003638179,0.397039334072,0.584640061708,0.0938003638179,0.605517316202,418,0.101175887384,0.455961754156,-0.661679309199,nan,nan,nan,nan,nan,nan,nan,nan,828.622339517,1162.84772552,nan,1163.3826089,nan,nan,nan,nan
1,268,0,0,0.0,1.0,0.481065473228,0,0.0,0.0,0.0,0.491005275653,0.0936626734217,0.397342602231,0.584667949075,0.0936626734217,0.553649465185,279,0.238157575771,0.338930353633,0.618978422254,nan,nan,nan,nan,nan,nan,nan,nan,828.622339517,1163.78952197,nan,1164.27058744,nan,nan,nan,nan
1,269,1,1,1.0,1.0,0.53123129945,0,0.0,0.0,0.0,0.490968047929,0.0934890822611,0.397478965667,0.58445713019,0.0934890822611,0.515726718489,3,0.871087178923,0.199335109687,-1.0,nan,nan,nan,nan,nan,nan,nan,nan,828.622339517,1164.73132185,nan,1165.26255315,nan,nan,nan,nan
1,270,1,1,1.0,1.0,0.501431040757,0,0.0,0.0,0.0,0.491118283942,0.0933467846434,0.397771499298,0.584465068585,0.0933467846434,0.504575937812,339,-0.164955840019,0.45996923152,0.241423096872,nan,nan,nan,nan,nan,nan,nan,nan,828.622339517,1165.67310747,nan,1166.17453851,nan,nan,nan,nan
1,271,1,1,1.0,1.0,0.391616515815,0,0.0,0.0,0.0,0.491156621328,0.0931752298095,0.397981391518,0.584331851137,0.0931752298095,0.474759618674,414,0.0747837862165,0.460162189034,-0.600089175003,nan,nan,nan,nan,nan,nan,nan,nan,828.622339517,1166.61490221,nan,1167.00651873,nan,nan,nan,nan
1,272,1,1,1.0,1.0,0.617797933461,0,0.0,0.0,0.0,0.49078795427,0.0931988762353,0.397589078035,0.583986830505,0.0931988762353,0.503615163344,268,0.35230222188,0.302367520405,0.645005310408,nan,nan,nan,nan,nan,nan,nan,nan,828.622339517,1167.55669182,nan,1168.17448976,nan,nan,nan,nan
1,273,1,1,1.0,1.0,0.516027685138,0,0.0,0.0,0.0,0.49125662578,0.0933449787834,0.397911646997,0.584601604564,0.0933449787834,0.508480711471,166,1.0,-0.20036215083,0.21267421211,nan,nan,nan,nan,nan,nan,nan,nan,828.622339517,1168.49844979,nan,1169.01447747,nan,nan,nan,nan
1,274,1,1,1.0,1.0,0.446174535318,0,0.0,0.0,0.0,0.491347695851,0.0931852914155,0.398162404436,0.584532987267,0.0931852914155,0.526666717972,95,1.0,-0.253175017597,-0.514975443931,nan,nan,nan,nan,nan,nan,nan,nan,828.622339517,1169.44027589,nan,1169.88645043,nan,nan,nan,nan
1,275,1,1,1.0,1.0,0.424365525367,0,0.0,0.0,0.0,0.491182226399,0.093054490742,0.398127735657,0.584236717141,0.093054490742,0.462189248608,180,1.0,-0.129278616986,0.331238955499,nan,nan,nan,nan,nan,nan,nan,nan,828.622339517,1170.38206836,nan,1170.80643388,nan,nan,nan,nan
1,276,1,1,1.0,1.0,0.410528092412,0,0.0,0.0,0.0,0.490938369826,0.0929718762779,0.397966493548,0.583910246104,0.0929718762779,0.427022717699,260,0.438016636947,0.272781976488,0.654406567654,nan,nan,nan,nan,nan,nan,nan,nan,828.622339517,1171.3238745,nan,1171.7344026,nan,nan,nan,nan
1,277,1,1,1.0,1.0,0.452751991572,0,0.0,0.0,0.0,0.490645968817,0.0929288138115,0.397717155005,0.583574782628,0.0929288138115,0.429215203117,325,-0.119404900653,0.442631039184,0.360186421743,nan,nan,nan,nan,nan,nan,nan,nan,828.622339517,1172.26565471,nan,1172.7184067,nan,nan,nan,nan
1,278,1,1,1.0,1.0,0.390938842029,0,0.0,0.0,0.0,0.490508671798,0.0927882498729,0.397720421925,0.583296921671,0.0927882498729,0.418072975338,427,0.163265173604,0.444863218481,-0.840208708629,nan,nan,nan,nan,nan,nan,nan,nan,828.622339517,1173.20742607,nan,1173.59836492,nan,nan,nan,nan
1,279,1,1,1.0,1.0,0.353100578825,0,0.0,0.0,0.0,0.490149213929,0.0928129272288,0.3973362867,0.582962141157,0.0928129272288,0.398930470808,309,-0.0258396312562,0.415106541901,0.475305697888,nan,nan,nan,nan,nan,nan,nan,nan,828.622339517,1174.1492402,nan,1174.50234078,nan,nan,nan,nan
1,280,1,1,1.0,1.0,0.347310273384,0,1.0,0.0,0.0,0.489656233227,0.0930084527892,0.396647780438,0.582664686016,0.0930084527892,0.363783231413,28,1.0,0.082066132397,-1.0,nan,nan,nan,nan,nan,nan,nan,nan,828.622339517,1175.09102811,nan,1175.43833838,nan,nan,nan,nan
1,281,1,1,1.0,1.0,0.373443908873,1,0.0,0.0,1.0,0.489146032654,0.0932305279425,0.395915504711,0.582376560596,0.0932305279425,0.357951587027,406,0.0244967455079,0.467245700284,-0.489366101921,160.114834886,289.885165114,4.41641511386,412.0,0.0618891196837,0.462096609288,-0.571158935758,2.29239445808,828.622339517,1176.03286476,1176.84124015,1176.40630867,1180.16664419,1181.16447404,1177.85801008,1180.15832166
1,282,0,0,0.0,1.0,0.633651567332,0,0.0,0.0,0.0,0.488732810783,0.0933194975566,0.395413313227,0.58205230834,0.0933194975566,0.451468583196,195,1.0,-0.0469245268387,0.442396054288,nan,nan,nan,nan,nan,nan,nan,nan,828.622339517,1181.30852464,nan,1181.9421762,nan,nan,nan,nan
1,283,1,1,1.0,1.0,0.571794512856,0,0.0,0.0,0.0,0.489248535896,0.0935521762908,0.395696359605,0.582800712186,0.0935521762908,0.52629666302,152,1.0,-0.259184487343,0.0830625546756,nan,nan,nan,nan,nan,nan,nan,nan,828.622339517,1182.2503573,nan,1182.82215181,nan,nan,nan,nan
1,284,1,1,1.0,1.0,0.41403677233,0,0.0,0.0,0.0,0.489541252126,0.0935149777191,0.396026274407,0.583056229845,0.0935149777191,0.539827617506,93,1.0,-0.245614297951,-0.538619881923,nan,nan,nan,nan,nan,nan,nan,nan,828.622339517,1183.19210414,nan,1183.60614092,nan,nan,nan,nan
1,285,1,1,1.0,1.0,0.352212218801,0,0.0,0.0,0.0,0.489274451844,0.0934570663536,0.39581738549,0.582731518198,0.0934570663536,0.446014501329,227,0.791019951953,0.125257787881,0.608066708266,nan,nan,nan,nan,nan,nan,nan,nan,828.622339517,1184.13390573,nan,1184.48611795,nan,nan,nan,nan
1,286,1,1,1.0,1.0,0.338402440189,0,1.0,0.0,0.0,0.488791838347,0.0936449897857,0.395146848562,0.582436828133,0.0936449897857,0.368217143773,479,0.572572153349,0.331768222426,-1.0,nan,nan,nan,nan,nan,nan,nan,nan,828.622339517,1185.07569762,nan,1185.41410006,nan,nan,nan,nan
1,287,1,1,1.0,1.0,0.468583387963,1,0.0,0.0,1.0,0.488264156249,0.0939025755132,0.394361580735,0.582166731762,0.0939025755132,0.386399348984,174,1.0,-0.160790688716,0.281981279739,-1.11782458239,91.1178245824,-31.2259254176,130.0,1.0,-0.309333154106,-0.136071487739,4.45099807932,828.622339517,1186.01749009,1186.82590482,1186.48607347,1192.30993387,1193.31658716,1187.84266506,1192.30159993
1,288,0,0,0.0,1.0,0.489766611601,0,0.0,0.0,0.0,0.488195342373,0.0937454647745,0.394449877599,0.581940807148,0.0937454647745,0.432250813251,218,0.881467392804,0.0788246127756,0.572559633417,nan,nan,nan,nan,nan,nan,nan,nan,828.622339517,1193.46014197,nan,1193.94990858,nan,nan,nan,nan
1,289,1,1,1.0,1.0,0.531936057436,0,0.0,0.0,0.0,0.488200817179,0.0935820484382,0.394618768741,0.581782865617,0.0935820484382,0.496762019,431,0.191957257768,0.43918128748,-0.982298765802,nan,nan,nan,nan,nan,nan,nan,nan,828.622339517,1194.40193814,nan,1194.9338742,nan,nan,nan,nan
1,290,1,1,1.0,1.0,0.51811630046,0,0.0,0.0,0.0,0.488352675652,0.0934548552141,0.394897820438,0.581807530866,0.0934548552141,0.513272989832,71,1.0,-0.144504067012,-0.877980773838,nan,nan,nan,nan,nan,nan,nan,nan,828.622339517,1195.34373146,nan,1195.86184776,nan,nan,nan,nan
1,291,1,1,1.0,1.0,0.512298910879,0,0.0,0.0,0.0,0.488455663973,0.093309398597,0.395146265376,0.58176506257,0.093309398597,0.520783756258,372,-0.138660017671,0.478458869494,-0.0888123791441,nan,nan,nan,nan,nan,nan,nan,nan,828.622339517,1196.28552592,nan,1196.79782483,nan,nan,nan,nan
1,292,1,1,1.0,1.0,0.450530806498,0,0.0,0.0,0.0,0.488537882066,0.0931588672275,0.395379014839,0.581696749294,0.0931588672275,0.493648672612,206,0.994723455659,0.014051917983,0.511316161583,nan,nan,nan,nan,nan,nan,nan,nan,828.622339517,1197.22728702,nan,1197.67781783,nan,nan,nan,nan
1,293,1,1,1.0,1.0,0.388690857857,0,0.0,0.0,0.0,0.488407273559,0.0930252559885,0.395382017571,0.581432529547,0.0930252559885,0.450506858411,78,1.0,-0.179467652321,-0.739907630878,nan,nan,nan,nan,nan,nan,nan,nan,828.622339517,1198.16910571,nan,1198.55779657,nan,nan,nan,nan
1,294,1,1,1.0,1.0,0.43887493026,0,0.0,0.0,0.0,0.488065778985,0.0930483653547,0.39501741363,0.581114144339,0.0930483653547,0.426032198205,134,1.0,-0.304950998219,-0.095144111098,nan,nan,nan,nan,nan,nan,nan,nan,828.622339517,1199.11089276,nan,1199.54976769,nan,nan,nan,nan
1,295,1,1,1.0,1.0,0.352981978795,0,1.0,0.0,0.0,0.487897892129,0.0929337351228,0.394964157006,0.580831627252,0.0929337351228,0.393515922304,71,1.0,-0.144504067012,-0.877980773838,nan,nan,nan,nan,nan,nan,nan,nan,828.622339517,1200.0527622,nan,1200.40574418,nan,nan,nan,nan
1,296,1,1,1.0,1.0,0.403227631992,1,0.0,0.0,1.0,0.487438994465,0.093107489896,0.394331504569,0.580546484361,0.093107489896,0.398361513682,149,1.0,-0.269478519393,0.0541436597792,-36.5371088644,126.537108864,21.7714838644,180.0,1.0,-0.129278616986,0.331238955499,2.65895243653,828.622339517,1200.99448624,1201.80289926,1201.39771387,1205.4950292,1206.49830667,1202.81968915,1205.4866813
1,297,1,1,1.0,1.0,0.584367258707,0,0.0,0.0,0.0,0.487153532219,0.0930783320336,0.394075200185,0.580231864252,0.0930783320336,0.446858956498,411,0.0555201669072,0.463022710015,-0.557054760163,nan,nan,nan,nan,nan,nan,nan,nan,828.622339517,1206.64523759,nan,1207.22960485,nan,nan,nan,nan
1,298,1,1,1.0,1.0,0.714533951657,0,0.0,0.0,0.0,0.487481956971,0.0930920328913,0.394389924079,0.580573989862,0.0930920328913,0.567376280786,177,1.0,-0.145192147526,0.306921212481,nan,nan,nan,nan,nan,nan,nan,nan,828.622339517,1207.58703776,nan,1208.30157171,nan,nan,nan,nan
1,299,1,1,1.0,1.0,0.572725922451,0,0.0,1.0,0.0,0.488246441801,0.0938612863702,0.394385155431,0.582107728171,0.0938612863702,0.623875710939,361,-0.166047812515,0.475607712818,0.0278173107143,nan,nan,nan,nan,nan,nan,nan,nan,828.622339517,1208.52882167,nan,1209.10154759,nan,nan,nan,nan
1,300,1,1,1.0,1.0,0.57491232577,1,0.0,0.0,1.0,0.488529929991,0.0938309441918,0.394698985799,0.582360874183,0.0938309441918,0.620724066626,106,1.0,-0.287630069369,-0.390564445695,11.9176759047,78.0823240953,3.55107409529,111.0,1.0,-0.298677811705,-0.336106236365,2.817316862,828.622339517,1209.47060843,1210.27903028,1210.04552075,1214.13793329,1215.14050999,1211.30415097,1214.12950898
1,301,1,1,1.0,1.0,0.773664060223,0,0.0,0.0,0.0,0.488818834325,0.0938065734989,0.395012260826,0.582625407824,0.0938065734989,0.640434102815,408,0.036737934283,0.465637664749,-0.515938449969,nan,nan,nan,nan,nan,nan,nan,nan,828.622339517,1215.27972563,nan,1216.05338969,nan,nan,nan,nan
1,302,1,1,1.0,1.0,0.615853576863,0,0.0,0.0,0.0,0.489768318411,0.0950783649235,0.394689953488,0.584846683335,0.0950783649235,0.654809987619,86,1.0,-0.21659106269,-0.625617802914,nan,nan,nan,nan,nan,nan,nan,nan,828.622339517,1216.22151468,nan,1216.83736825,nan,nan,nan,nan
1,303,1,1,1.0,1.0,0.546027796285,0,0.0,1.0,0.0,0.490187206313,0.0951971781278,0.394990028185,0.585384384441,0.0951971781278,0.645181811124,352,-0.17544712699,0.470851603012,0.118673592819,nan,nan,nan,nan,nan,nan,nan,nan,828.622339517,1217.163306,nan,1217.7093338,nan,nan,nan,nan
1,304,1,1,1.0,1.0,0.468219890201,1,0.0,0.0,1.0,0.490372108929,0.0950935608677,0.395278548061,0.585465669797,0.0950935608677,0.543367087783,174,1.0,-0.160790688716,0.281981279739,-41.6566238557,131.656623856,9.31287385567,187.0,1.0,-0.0912463489427,0.385383214542,4.22596160835,828.622339517,1218.10509533,1218.91351234,1218.57331522,1224.17250777,1225.17110481,1219.93030109,1224.16418239
1,305,1,1,1.0,1.0,0.63477570191,0,0.0,0.0,0.0,0.490298999296,0.0949450121812,0.395353987115,0.585244011477,0.0949450121812,0.549674462799,218,0.881467392804,0.0788246127756,0.572559633417,nan,nan,nan,nan,nan,nan,nan,nan,828.622339517,1225.31439448,nan,1225.94917018,nan,nan,nan,nan
1,306,1,1,1.0,1.0,0.500925279979,0,0.0,0.0,0.0,0.490774251607,0.0951490368717,0.395625214736,0.585923288479,0.0951490368717,0.534640290697,403,0.00657627305109,0.469456436931,-0.450524507496,nan,nan,nan,nan,nan,nan,nan,nan,828.622339517,1226.2562126,nan,1226.75713788,nan,nan,nan,nan
1,307,1,1,1.0,1.0,0.559138518875,0,0.0,0.0,0.0,0.490807533668,0.0949946992081,0.395812834459,0.585802232876,0.0949946992081,0.564946500255,313,-0.0530221528698,0.42279583272,0.448797959603,nan,nan,nan,nan,nan,nan,nan,nan,828.622339517,1227.19797057,nan,1227.75710909,nan,nan,nan,nan
1,308,1,1,1.0,1.0,0.433335509559,0,0.0,0.0,0.0,0.491030837541,0.0949194996504,0.39611133789,0.585950337191,0.0949194996504,0.497799769471,450,0.335949728395,0.405598329481,-1.0,nan,nan,nan,nan,nan,nan,nan,nan,828.622339517,1228.13976988,nan,1228.57310539,nan,nan,nan,nan
1,309,0,0,0.0,1.0,0.491526796075,0,0.0,0.0,0.0,0.490842904876,0.0948217872523,0.396021117624,0.585664692129,0.0948217872523,0.494666941503,500,0.748145934353,0.260058294274,-1.0,nan,nan,nan,nan,nan,nan,nan,nan,828.622339517,1229.08154865,nan,1229.57307545,nan,nan,nan,nan
1,310,1,1,1.0,1.0,0.445693863032,0,0.0,0.0,0.0,0.490845125302,0.0946677386262,0.396177386676,0.585512863929,0.0946677386262,0.456852056222,281,0.218083397074,0.345068392493,0.612644422055,nan,nan,nan,nan,nan,nan,nan,nan,828.622339517,1230.02335509,nan,1230.46904895,nan,nan,nan,nan
1,311,0,0,0.0,1.0,0.65590618283,0,0.0,0.0,0.0,0.490699004712,0.0945492133259,0.396149791387,0.585248218038,0.0945492133259,0.531042280646,220,0.861731547614,0.0893272636146,0.581247684387,nan,nan,nan,nan,nan,nan,nan,nan,828.622339517,1230.9651179,nan,1231.62102408,nan,nan,nan,nan
1,312,1,1,1.0,1.0,0.482077564986,0,0.0,0.0,0.0,0.491231931094,0.094860295822,0.396371635272,0.586092226915,0.094860295822,0.527892536949,507,0.805995650865,0.232688349973,-1.0,nan,nan,nan,nan,nan,nan,nan,nan,828.622339517,1231.90693659,nan,1232.38901416,nan,nan,nan,nan
1,313,1,1,1.0,1.0,0.420256147569,0,0.0,0.0,0.0,0.491202495833,0.0947090825244,0.396493413308,0.585911578357,0.0947090825244,0.519413298462,139,1.0,-0.296335611021,-0.0445992895203,nan,nan,nan,nan,nan,nan,nan,nan,828.622339517,1232.84872906,nan,1233.2689852,nan,nan,nan,nan
1,314,1,1,1.0,1.0,0.598414237495,0,0.0,0.0,0.0,0.490975103691,0.0946421779942,0.396332925697,0.585617281685,0.0946421779942,0.500249316683,318,-0.0835627602325,0.431640264478,0.413481556053,nan,nan,nan,nan,nan,nan,nan,nan,828.622339517,1233.79054233,nan,1234.38895657,nan,nan,nan,nan
1,315,1,1,1.0,1.0,0.616618775239,0,0.0,0.0,0.0,0.491318359709,0.0946851946899,0.396633165019,0.586003554399,0.0946851946899,0.545096386767,107,1.0,-0.290089771429,-0.379592780214,nan,nan,nan,nan,nan,nan,nan,nan,828.622339517,1234.73231113,nan,1235.34892991,nan,nan,nan,nan
1,316,1,1,1.0,1.0,0.682807582547,0,0.0,1.0,0.0,0.491717405619,0.0947975506411,0.396919854978,0.58651495626,0.0947975506411,0.63261353176,359,-0.169222339917,0.474741883077,0.0483828026834,nan,nan,nan,nan,nan,nan,nan,nan,828.622339517,1235.67410416,nan,1236.35691175,nan,nan,nan,nan
1,317,1,1,1.0,1.0,0.62898796238,1,0.0,0.0,1.0,0.492324041101,0.0952554506111,0.39706859049,0.587579491712,0.0952554506111,0.642804773389,209,0.967301840512,0.0304835193525,0.52804999659,-49.7636416907,139.763641691,-7.18948330927,199.0,1.0,-0.0246761787097,0.468786302982,3.23404095176,828.622339517,1236.61590062,1237.42431221,1237.24488858,1241.69985149,1242.70513832,1238.44943803,1241.6915167
1,318,1,1,1.0,1.0,0.60263024125,0,0.0,0.0,0.0,0.492756521865,0.0954138586461,0.397342663218,0.588170380511,0.0954138586461,0.638141928726,323,-0.11001989341,0.43965344528,0.375855360355,nan,nan,nan,nan,nan,nan,nan,nan,828.622339517,1242.8501246,nan,1243.45275484,nan,nan,nan,nan
1,319,1,1,1.0,1.0,0.516870714782,0,0.0,0.0,0.0,0.493103126658,0.0954622879397,0.397640838718,0.588565414597,0.0954622879397,0.582829639471,439,0.251144291643,0.426392204401,-1.0,nan,nan,nan,nan,nan,nan,nan,nan,828.622339517,1243.79185577,nan,1244.30872648,nan,nan,nan,nan
1,320,1,1,1.0,1.0,0.391054591106,0,0.0,0.0,0.0,0.493177867501,0.0953213609696,0.397856506531,0.58849922847,0.0953213609696,0.503518515713,33,1.0,0.0565990290419,-1.0,nan,nan,nan,nan,nan,nan,nan,nan,828.622339517,1244.73364795,nan,1245.12470254,nan,nan,nan,nan
1,321,0,0,0.0,1.0,0.521251789294,0,0.0,0.0,0.0,0.492857731838,0.0953429043349,0.397514827503,0.588200636173,0.0953429043349,0.476392365061,258,0.459642287315,0.26499291187,0.655490062901,nan,nan,nan,nan,nan,nan,nan,nan,828.622339517,1245.67543841,nan,1246.1966902,nan,nan,nan,nan
1,322,1,1,1.0,1.0,0.435434388404,0,0.0,0.0,0.0,0.492946463268,0.0952070054521,0.397739457816,0.58815346872,0.0952070054521,0.449246922935,88,1.0,-0.225257592204,-0.599932847766,nan,nan,nan,nan,nan,nan,nan,nan,828.622339517,1246.61723259,nan,1247.05266698,nan,nan,nan,nan
1,323,0,0,0.0,1.0,0.613618422009,0,0.0,0.0,0.0,0.492767297925,0.0951126071172,0.397654690808,0.587879905043,0.0951126071172,0.523434866569,404,0.0124894593597,0.468746268022,-0.463349101315,nan,nan,nan,nan,nan,nan,nan,nan,828.622339517,1247.55902847,nan,1248.17264689,nan,nan,nan,nan
1,324,1,1,1.0,1.0,0.471812673495,0,0.0,0.0,0.0,0.493142611975,0.0952025727695,0.397940039206,0.588345184745,0.0952025727695,0.506955161303,453,0.359670421306,0.39926174925,-1.0,nan,nan,nan,nan,nan,nan,nan,nan,828.622339517,1248.50080383,nan,1248.9726165,nan,nan,nan,nan
1,325,0,0,0.0,1.0,0.457995767472,0,0.0,0.0,0.0,0.493076575014,0.0950624720981,0.398014102916,0.588139047112,0.0950624720981,0.514475620992,357,-0.1717918326,0.473767524415,0.068739031695,nan,nan,nan,nan,nan,nan,nan,nan,828.622339517,1249.4426134,nan,1249.90060917,nan,nan,nan,nan
1,326,1,1,1.0,1.0,0.396153538022,0,0.0,0.0,0.0,0.492968300917,0.094935602572,0.398032698345,0.587903903489,0.094935602572,0.44198732633,36,1.0,0.0410699577143,-1.0,nan,nan,nan,nan,nan,nan,nan,nan,828.622339517,1250.3844338,nan,1250.78058734,nan,nan,nan,nan
1,327,1,1,1.0,1.0,0.438364322821,0,0.0,0.0,0.0,0.492670409339,0.0949409743104,0.397729435028,0.587611383649,0.0949409743104,0.430837876105,130,1.0,-0.309333154106,-0.136071487739,nan,nan,nan,nan,nan,nan,nan,nan,828.622339517,1251.32619177,nan,1251.76455609,nan,nan,nan,nan
1,328,1,1,1.0,1.0,0.536550910969,0,0.0,0.0,0.0,0.492503826251,0.0948428050532,0.397661021198,0.587346631304,0.0948428050532,0.457022923937,469,0.489482198204,0.360453357602,-1.0,nan,nan,nan,nan,nan,nan,nan,nan,828.622339517,1252.26798166,nan,1252.80453257,nan,nan,nan,nan
1,329,1,1,1.0,1.0,0.490746772615,0,0.0,0.0,0.0,0.492638526816,0.094728900373,0.397909626443,0.587367427189,0.094728900373,0.488554002135,374,-0.132039125116,0.478634076427,-0.110628443238,nan,nan,nan,nan,nan,nan,nan,nan,828.622339517,1253.20977441,nan,1253.70052118,nan,nan,nan,nan
1,330,1,1,1.0,1.0,0.412924611708,0,0.0,0.0,0.0,0.492632759273,0.0945844438311,0.398048315442,0.587217203104,0.0945844438311,0.480074098431,273,0.299732959835,0.319577193062,0.635038033336,nan,nan,nan,nan,nan,nan,nan,nan,828.622339517,1254.15156231,nan,1254.56448693,nan,nan,nan,nan
1,331,1,1,1.0,1.0,0.375147359096,0,0.0,0.0,0.0,0.492390485268,0.0945424633764,0.397848021892,0.586932948644,0.0945424633764,0.426272914473,355,-0.173737462994,0.472683863687,0.0888799762457,nan,nan,nan,nan,nan,nan,nan,nan,828.622339517,1255.09335734,nan,1255.4685047,nan,nan,nan,nan
1,332,1,1,1.0,1.0,0.377303542278,0,1.0,0.0,0.0,0.492035203067,0.094618813471,0.397416389596,0.586654016538,0.094618813471,0.388458504361,15,0.965734432428,0.145352784795,-1.0,nan,nan,nan,nan,nan,nan,nan,nan,828.622339517,1256.03515237,nan,1256.41245591,nan,nan,nan,nan
1,333,1,1,1.0,1.0,0.459490242181,1,0.0,0.0,1.0,0.491688581736,0.0946853772519,0.397003204484,0.586373958988,0.0946853772519,0.403980381185,382,-0.1011887567,0.478291136399,-0.199732273247,173.19094982,276.80905018,8.21530017961,394.0,-0.0437090198531,0.474655926729,-0.339401417396,2.71729767497,828.622339517,1256.97694426,1257.78536299,1257.43643451,1261.53592085,1262.53227504,1258.8021486,1261.52759974
1,334,1,1,1.0,1.0,0.5426029347,0,0.0,0.0,0.0,0.491591598785,0.0945591347872,0.397032463998,0.586150733572,0.0945591347872,0.459798906387,139,1.0,-0.296335611021,-0.0445992895203,nan,nan,nan,nan,nan,nan,nan,nan,828.622339517,1262.67770122,nan,1263.22030416,nan,nan,nan,nan
1,335,1,1,1.0,1.0,0.480786363943,0,0.0,0.0,0.0,0.49174478598,0.0944582958124,0.397286490168,0.586203081793,0.0944582958124,0.494293180275,373,-0.135407706169,0.478559568072,-0.0996974893599,nan,nan,nan,nan,nan,nan,nan,nan,828.622339517,1263.61949967,nan,1264.10028604,nan,nan,nan,nan
1,336,1,1,1.0,1.0,0.37095387798,0,0.0,0.0,0.0,0.491711976333,0.0943186854854,0.397393290848,0.586030661819,0.0943186854854,0.464781058875,262,0.416452475899,0.2804144186,0.652815538838,nan,nan,nan,nan,nan,nan,nan,nan,828.622339517,1264.561289,nan,1264.93224288,nan,nan,nan,nan
1,337,1,1,1.0,1.0,0.42915685341,0,0.0,0.0,0.0,0.491351504398,0.0944079399741,0.396943564424,0.585759444372,0.0944079399741,0.426965698445,316,-0.0718215561597,0.428203514031,0.427892255365,nan,nan,nan,nan,nan,nan,nan,nan,828.622339517,1265.50307776,nan,1265.93223461,nan,nan,nan,nan
1,338,1,1,1.0,1.0,0.38332506083,0,1.0,0.0,0.0,0.49116640127,0.0943282085325,0.396838192738,0.585494609803,0.0943282085325,0.394478597407,20,1.0,0.121558187834,-1.0,nan,nan,nan,nan,nan,nan,nan,nan,828.622339517,1266.44487279,nan,1266.82819785,nan,nan,nan,nan
1,339,1,1,1.0,1.0,0.257529464026,1,0.0,0.0,1.0,0.490846397293,0.0943706266829,0.39647577061,0.585217023975,0.0943706266829,0.356670459422,76,1.0,-0.169674511773,-0.773365826749,47.8221552998,42.1778447002,-11.2596552998,60.0,1.0,-0.0867837676833,-1.0,2.87564955623,828.622339517,1267.3866661,1268.1950814,1267.64419557,1272.10391132,1273.10883636,1269.21186559,1272.09555543
1,340,1,1,1.0,1.0,0.493940136046,0,0.0,0.0,0.0,0.490156110508,0.095079154996,0.395076955512,0.585235265504,0.095079154996,0.378264886967,264,0.394966959701,0.287889713878,0.650717615019,nan,nan,nan,nan,nan,nan,nan,nan,828.622339517,1273.25410261,nan,1273.74804274,nan,nan,nan,nan
1,341,1,1,1.0,1.0,0.536164890567,0,0.0,0.0,0.0,0.490167272825,0.0949390384781,0.395228234347,0.585106311303,0.0949390384781,0.42921149688,465,0.456588679398,0.37096152752,-1.0,nan,nan,nan,nan,nan,nan,nan,nan,828.622339517,1274.1958697,nan,1274.73203459,nan,nan,nan,nan
1,342,1,1,1.0,1.0,0.45832476858,0,0.0,0.0,0.0,0.490302559936,0.0948320386131,0.395470521323,0.585134598549,0.0948320386131,0.496143265065,402,0.000724920831492,0.470139955471,-0.437811562499,nan,nan,nan,nan,nan,nan,nan,nan,828.622339517,1275.1376938,nan,1275.59601857,nan,nan,nan,nan
1,343,1,1,1.0,1.0,0.540510328079,0,0.0,0.0,0.0,0.490208783422,0.0947086730264,0.395500110395,0.584917456448,0.0947086730264,0.511666662409,80,1.0,-0.189075709245,-0.708965549488,nan,nan,nan,nan,nan,nan,nan,nan,828.622339517,1276.07948513,nan,1276.61999546,nan,nan,nan,nan
1,344,1,1,1.0,1.0,0.454682093405,0,0.0,0.0,0.0,0.490355863962,0.0946091021168,0.395746761845,0.584964966078,0.0946091021168,0.484505730021,175,1.0,-0.155629953633,0.290361762956,nan,nan,nan,nan,nan,nan,nan,nan,828.622339517,1277.02128101,nan,1277.47596311,nan,nan,nan,nan
1,345,1,1,1.0,1.0,0.512869958766,0,0.0,0.0,0.0,0.4902518588,0.0944906650208,0.395761193779,0.58474252382,0.0944906650208,0.502687460083,501,0.7564492333,0.256253544744,-1.0,nan,nan,nan,nan,nan,nan,nan,nan,828.622339517,1277.9630692,nan,1278.47593916,nan,nan,nan,nan
1,346,0,0,0.0,1.0,0.571050411556,0,0.0,0.0,0.0,0.49031760909,0.0943610814855,0.395956527605,0.584678690576,0.0943610814855,0.512867487909,363,-0.162287729338,0.476365729747,0.00704812682028,nan,nan,nan,nan,nan,nan,nan,nan,828.622339517,1278.90486052,nan,1279.47591093,nan,nan,nan,nan
1,347,1,1,1.0,1.0,0.365237127407,0,0.0,0.0,0.0,0.490551617213,0.0943241344276,0.396227482786,0.584875751641,0.0943241344276,0.483052499243,439,0.251144291643,0.426392204401,-1.0,nan,nan,nan,nan,nan,nan,nan,nan,828.622339517,1279.84665498,nan,1280.21189211,nan,nan,nan,nan
1,348,0,0,0.0,1.0,0.38342569978,0,0.0,0.0,0.0,0.490189436607,0.0944276635497,0.395761773057,0.584617100157,0.0944276635497,0.439904412914,154,1.0,-0.251813147593,0.102138173725,nan,nan,nan,nan,nan,nan,nan,nan,828.622339517,1280.78844459,nan,1281.17187029,nan,nan,nan,nan
1,349,1,1,1.0,1.0,0.337615004275,0,0.0,0.0,0.0,0.489881760132,0.0944650277212,0.395416732411,0.584346787853,0.0944650277212,0.362092610487,473,0.522594813828,0.349396171415,-1.0,nan,nan,nan,nan,nan,nan,nan,nan,828.622339517,1281.73024133,nan,1282.06785634,nan,nan,nan,nan
1,350,1,1,1.0,1.0,0.427795518714,0,0.0,0.0,0.0,0.489444211983,0.094680681257,0.394763530726,0.58412489324,0.094680681257,0.382945407589,386,-0.0833946583454,0.477495592553,-0.245424736514,nan,nan,nan,nan,nan,nan,nan,nan,828.622339517,1282.67202752,nan,1283.09982304,nan,nan,nan,nan
1,351,1,1,1.0,1.0,0.413978897734,0,1.0,0.0,0.0,0.489267568163,0.0946023467525,0.39466522141,0.583869914915,0.0946023467525,0.393129806907,185,1.0,-0.102214474652,0.370299946716,nan,nan,nan,nan,nan,nan,nan,nan,828.622339517,1283.6138254,nan,1284.0278043,nan,nan,nan,nan
1,352,1,1,1.0,1.0,0.42418021278,1,0.0,0.0,1.0,0.489052457676,0.0945525400184,0.394499917657,0.583604997694,0.0945525400184,0.421984876409,133,1.0,-0.306259573676,-0.105336427414,3.61096463945,86.3890353606,-7.12658963945,123.0,1.0,-0.311441137266,-0.208672863777,3.61742901889,828.622339517,1284.55561131,1285.36402832,1284.97979152,1290.01461489,1291.01721297,1286.38082277,1290.00628295
1,353,1,1,1.0,1.0,0.527129049122,0,0.0,0.0,0.0,0.488867636465,0.094481044795,0.39438659167,0.58334868126,0.094481044795,0.455096053212,415,0.0813077335083,0.459153678902,-0.614968023274,nan,nan,nan,nan,nan,nan,nan,nan,828.622339517,1291.15650246,nan,1291.68363151,nan,nan,nan,nan
1,354,1,1,1.0,1.0,0.321254754323,0,0.0,0.0,0.0,0.48897633366,0.0943687186886,0.394607614972,0.583345052349,0.0943687186886,0.424188005408,30,1.0,0.071945658744,-1.0,nan,nan,nan,nan,nan,nan,nan,nan,828.622339517,1292.09835765,nan,1292.4196124,nan,nan,nan,nan
1,355,1,1,1.0,1.0,0.379515034147,0,0.0,0.0,0.0,0.488501201707,0.0946556457906,0.393845555917,0.583156847498,0.0946556457906,0.40929961253,434,0.213881816697,0.43461034373,-1.0,nan,nan,nan,nan,nan,nan,nan,nan,828.622339517,1293.04007826,nan,1293.4195933,nan,nan,nan,nan
1,356,1,1,1.0,1.0,0.389705515525,0,1.0,0.0,0.0,0.488193331178,0.0946986814193,0.393494649758,0.582892012597,0.0946986814193,0.363491767998,231,0.749609680972,0.145151270079,0.620821461523,nan,nan,nan,nan,nan,nan,nan,nan,828.622339517,1293.98186759,nan,1294.37157311,nan,nan,nan,nan
1,357,1,1,1.0,1.0,0.439875048003,1,0.0,0.0,1.0,0.487915900711,0.0947091616143,0.393206739097,0.582625062325,0.0947091616143,0.403031865892,398,-0.0220377755791,0.472608796233,-0.387943383198,178.290185956,271.709814044,-8.13393595586,386.0,-0.0833946583454,0.477495592553,-0.245424736514,2.02560449677,828.622339517,1294.92366177,1295.73207849,1295.36353681,1298.79911118,1299.79982364,1296.75717637,1298.79079835
1,358,1,1,1.0,1.0,0.582428318972,0,0.0,0.0,0.0,0.487780954496,0.0946102207798,0.393170733716,0.582391175275,0.0946102207798,0.4706696275,490,0.664660387652,0.296157848571,-1.0,nan,nan,nan,nan,nan,nan,nan,nan,828.622339517,1299.94099277,nan,1300.52342109,nan,nan,nan,nan
1,359,1,1,1.0,1.0,0.592618230148,0,0.0,0.0,0.0,0.488046073164,0.0946099533833,0.39343611978,0.582656026547,0.0946099533833,0.538307199041,127,1.0,-0.31111021432,-0.167036648065,nan,nan,nan,nan,nan,nan,nan,nan,828.622339517,1300.88278723,nan,1301.47540546,nan,nan,nan,nan
1,360,1,1,1.0,1.0,0.666802847642,0,0.0,1.0,0.0,0.488338174161,0.0946387905319,0.393699383629,0.582976964693,0.0946387905319,0.613949798921,240,0.654373017221,0.188015059697,0.642463954019,nan,nan,nan,nan,nan,nan,nan,nan,828.622339517,1301.82457826,nan,1302.49138111,nan,nan,nan,nan
1,361,0,0,0.0,1.0,0.580998846213,1,0.0,0.0,1.0,0.488835290243,0.0949738002735,0.393861489969,0.583809090516,0.0949738002735,0.613473308001,473,0.522594813828,0.349396171415,-1.0,130.449718862,319.550281138,-13.0278438623,454.0,0.367627362238,0.397084843583,-1.0,4.534208845,828.622339517,1302.76636702,1303.57478489,1303.34736587,1309.1422448,1310.14239504,1304.59158248,1309.13382875
1,362,1,1,1.0,1.0,0.591141431418,0,0.0,0.0,0.0,0.489091300121,0.0949657641432,0.394125535977,0.584057064264,0.0949657641432,0.612981041758,384,-0.0924750057551,0.477945316949,-0.222479273925,nan,nan,nan,nan,nan,nan,nan,nan,828.622339517,1310.28404057,nan,1310.875182,nan,nan,nan,nan
1,363,1,1,1.0,1.0,0.47334421071,0,0.0,0.0,0.0,0.489373987465,0.0949856975728,0.394388289892,0.584359685038,0.0949856975728,0.548494829447,471,0.506014005179,0.354993781952,-1.0,nan,nan,nan,nan,nan,nan,nan,nan,828.622339517,1311.22582932,nan,1311.69917353,nan,nan,nan,nan
1,364,1,1,1.0,1.0,0.443537109706,0,0.0,0.0,0.0,0.489329706314,0.0948581423313,0.394471563982,0.584187848645,0.0948581423313,0.502674250611,334,-0.152796554809,0.454467054946,0.285576400052,nan,nan,nan,nan,nan,nan,nan,nan,828.622339517,1312.16762065,nan,1312.61115776,nan,nan,nan,nan
1,365,1,1,1.0,1.0,0.373715320544,0,0.0,0.0,0.0,0.48920355591,0.0947577962141,0.394445759696,0.583961352124,0.0947577962141,0.43019888032,2,0.863024578927,0.203622855609,-1.0,nan,nan,nan,nan,nan,nan,nan,nan,828.622339517,1313.1094114,nan,1313.48312672,nan,nan,nan,nan
1,366,1,1,1.0,1.0,0.32791574375,0,1.0,0.0,0.0,0.488886280538,0.0948204258605,0.394065854677,0.583706706398,0.0948204258605,0.381722724667,249,0.557275547736,0.228026269286,0.654084877906,nan,nan,nan,nan,nan,nan,nan,nan,828.622339517,1314.05120443,nan,1314.37912018,nan,nan,nan,nan
1,367,1,1,1.0,1.0,0.362086243345,1,0.0,0.0,1.0,0.488445265369,0.09506353915,0.393381726218,0.583508804519,0.09506353915,0.35457243588,43,1.0,0.00424534395127,-1.0,66.0375110254,23.9624889746,-6.27188602542,34.0,1.0,0.0514419701458,-1.0,1.95880529837,828.622339517,1314.99299689,1315.80141619,1315.35508314,1318.79343463,1319.79857634,1316.81817358,1318.78509956
1,368,1,1,1.0,1.0,0.523291082995,0,0.0,0.0,0.0,0.488100022139,0.0951624422443,0.393145501936,0.58324631924,0.0951624422443,0.404431023363,210,0.958022500947,0.0359304984579,0.533421856807,nan,nan,nan,nan,nan,nan,nan,nan,828.622339517,1319.94367609,nan,1320.46696718,nan,nan,nan,nan
1,369,1,1,nan,nan,nan,0,0.0,0.0,0.0,0.488195910588,0.0950504086516,0.393145501936,0.58324631924,0.0950504086516,0.44268866317,79,1.0,-0.184296021705,-0.724170777997,nan,nan,nan,nan,nan,nan,nan,nan,828.622339517,1320.88543264,nan,nan,nan,nan,nan,nan
