block,trial,time,setsize,freqtrials,colorind,colordeg,colorrgb,correctresp,actualresp,acc,rts,probe_trials,fast_rt_trigger,slow_rt_trigger,rt_trailingavg,rt_runningavg,rt_runningstd,rt_runningslowthresh,rt_runningfastthresh,wm_mousepos,wm_respdeg,wm_colorind,wm_colorrgb,wm_colorhsv,wm_degdiff,wm_rts,timeBlockStart,timeEncArrayOnset,timeResponse,timeProbeOnset,timeProbeOffset
0,0,19:41:08:070000,6,1,459,322.734375,[ 0.40775816  0.38570917 -1.        ],1,1,1,0.545921455,0,nan,nan,nan,nan,nan,nan,nan,nan,nan,nan,[ nan  nan  nan],nan,nan,nan,828.6223395,829.6364067,830.1823282,nan,nan
0,1,19:41:09:006000,6,1,3,2.109375,[ 0.87108718  0.19933511 -1.        ],1,1,1,0.62005276,0,nan,nan,nan,nan,nan,nan,nan,nan,nan,nan,[ nan  nan  nan],nan,nan,nan,828.6223395,830.5782451,831.1982979,nan,nan
0,2,19:41:09:958000,6,1,48,33.75,[ 1.         -0.02242733 -1.        ],1,1,1,0.486278744,0,nan,nan,nan,nan,nan,nan,nan,nan,nan,nan,[ nan  nan  nan],nan,nan,nan,828.6223395,831.5200025,832.0062812,nan,nan
0,3,19:41:10:894000,6,1,463,325.546875,[ 0.44023832  0.3760118  -1.        ],1,1,1,0.456451116,0,nan,nan,nan,nan,nan,nan,nan,nan,nan,nan,[ nan  nan  nan],nan,nan,nan,828.6223395,832.4617975,832.9182486,nan,nan
0,4,19:41:11:830000,6,1,242,170.15625,[ 0.63291185  0.19716118  0.6459214 ],1,1,1,0.514641262,0,nan,nan,nan,nan,nan,nan,nan,nan,nan,nan,[ nan  nan  nan],nan,nan,nan,828.6223395,833.403592,833.9182332,nan,nan
0,5,19:41:12:781000,6,1,404,284.0625,[ 0.01248946  0.46874627 -0.4633491 ],1,1,1,0.45282127,0,nan,nan,nan,nan,nan,nan,nan,nan,nan,nan,[ nan  nan  nan],nan,nan,nan,828.6223395,834.3453899,834.7982111,nan,nan
0,6,19:41:13:717000,6,1,128,90,[ 1.         -0.31066301 -0.15668979],1,1,1,0.599006382,0,nan,nan,nan,nan,nan,nan,nan,nan,nan,nan,[ nan  nan  nan],nan,nan,nan,828.6223395,835.2871758,835.8861822,nan,nan
0,7,19:41:14:669000,6,1,431,303.046875,[ 0.19195726  0.43918129 -0.98229877],1,1,1,0.71318231,0,nan,nan,nan,nan,nan,nan,nan,nan,nan,nan,[ nan  nan  nan],nan,nan,nan,828.6223395,836.2289739,836.9421562,nan,nan
0,8,19:41:15:605000,6,1,90,63.28125,[ 1.         -0.23363579 -0.57497187],1,1,1,0.627386291,0,nan,nan,nan,nan,nan,nan,nan,nan,nan,nan,[ nan  nan  nan],nan,nan,nan,828.6223395,837.1707559,837.7981421,nan,nan
0,9,19:41:16:541000,6,1,200,140.625,[ 1.         -0.01912099  0.47515178],1,1,1,0.789559603,0,nan,nan,nan,nan,nan,nan,nan,nan,nan,nan,[ nan  nan  nan],nan,nan,nan,828.6223395,838.1125532,838.9021128,nan,nan
0,10,19:41:17:493000,6,1,251,176.484375,[ 0.53557652  0.23650919  0.65528415],1,1,1,0.727746454,0,nan,nan,nan,nan,nan,nan,nan,nan,nan,nan,[ nan  nan  nan],nan,nan,nan,828.6223395,839.0543439,839.7820904,nan,nan
0,11,19:41:18:429000,6,0,339,238.359375,[-0.16495584  0.45996923  0.2414231 ],0,0,1,0.489937099,0,nan,nan,nan,nan,nan,nan,nan,nan,nan,nan,[ nan  nan  nan],nan,nan,nan,828.6223395,839.9961412,840.4860783,nan,nan
0,12,19:41:19:365000,6,1,384,270,[-0.09247501  0.47794532 -0.22247927],1,1,1,0.652118394,0,nan,nan,nan,nan,nan,nan,nan,nan,nan,nan,[ nan  nan  nan],nan,nan,nan,828.6223395,840.9379351,841.5900535,nan,nan
0,13,19:41:20:316000,6,1,494,347.34375,[ 0.69812996  0.282144   -1.        ],1,1,1,0.64628789,0,nan,nan,nan,nan,nan,nan,nan,nan,nan,nan,[ nan  nan  nan],nan,nan,nan,828.6223395,841.8797413,842.5260291,nan,nan
0,14,19:41:21:252000,6,1,334,234.84375,[-0.15279655  0.45446705  0.2855764 ],1,1,1,0.536495317,0,nan,nan,nan,nan,nan,nan,nan,nan,nan,nan,[ nan  nan  nan],nan,nan,nan,828.6223395,842.8215235,843.3580188,nan,nan
0,15,19:41:22:188000,6,1,154,108.28125,[ 1.         -0.25181315  0.10213817],1,1,1,0.474687299,0,nan,nan,nan,nan,nan,nan,nan,nan,nan,nan,[ nan  nan  nan],nan,nan,nan,828.6223395,843.7633122,844.2379995,nan,nan
0,16,19:41:23:140000,6,1,267,187.734375,[ 0.36292453  0.29880723  0.64662252],1,1,1,0.524864244,0,nan,nan,nan,nan,nan,nan,nan,nan,nan,nan,[ nan  nan  nan],nan,nan,nan,828.6223395,844.7051041,845.2299684,nan,nan
0,17,19:41:24:076000,6,1,408,286.875,[ 0.03673793  0.46563766 -0.51593845],1,1,1,0.431052173,0,nan,nan,nan,nan,nan,nan,nan,nan,nan,nan,[ nan  nan  nan],nan,nan,nan,828.6223395,845.6469011,846.0779533,nan,nan
0,18,19:41:29:988000,6,1,52,36.5625,[ 1.         -0.04388606 -1.        ],1,1,1,0.513213785,1,nan,nan,nan,nan,nan,nan,nan,nan,52.15029018,54,[ 1.         -0.05462921 -1.        ],nan,1.28720982,2.917359712,828.6223395,846.5887033,847.1019171,848.422249,851.3476202
0,19,19:41:30:924000,6,1,207,145.546875,[ 0.98565351  0.01954319  0.51699622],1,1,1,0.747951227,0,nan,nan,nan,nan,nan,nan,nan,nan,nan,nan,[ nan  nan  nan],nan,nan,nan,828.6223395,852.4978266,853.2457778,nan,nan
0,20,19:41:31:876000,6,0,56,39.375,[ 1.         -0.06536751 -1.        ],0,0,1,0.61414471,0,nan,nan,nan,nan,nan,nan,nan,nan,nan,nan,[ nan  nan  nan],nan,nan,nan,828.6223395,853.4396207,854.0537655,nan,nan
0,21,19:41:32:812000,6,1,175,123.046875,[ 1.         -0.15562995  0.29036176],1,1,1,0.560339629,0,nan,nan,nan,nan,nan,nan,nan,nan,nan,nan,[ nan  nan  nan],nan,nan,nan,828.6223395,854.3814132,854.9417528,nan,nan
0,22,19:41:33:764000,6,1,351,246.796875,[-0.17568629  0.47018527  0.12848998],1,1,1,0.402526295,0,nan,nan,nan,nan,nan,nan,nan,nan,nan,nan,[ nan  nan  nan],nan,nan,nan,828.6223395,855.3232054,855.7257317,nan,nan
0,23,19:41:34:700000,6,1,187,131.484375,[ 1.         -0.09124635  0.38538321],1,1,1,0.372716343,0,nan,nan,nan,nan,nan,nan,nan,nan,nan,nan,[ nan  nan  nan],nan,nan,nan,828.6223395,856.2649996,856.6377159,nan,nan
0,24,19:41:35:636000,6,1,81,56.953125,[ 1.         -0.19380425 -0.69421917],1,1,1,0.390917745,0,nan,nan,nan,nan,nan,nan,nan,nan,nan,nan,[ nan  nan  nan],nan,nan,nan,828.6223395,857.2067849,857.5977026,nan,nan
0,25,19:41:36:587000,6,1,167,117.421875,[ 1.         -0.19560581  0.22154672],1,1,1,0.481074881,0,nan,nan,nan,nan,nan,nan,nan,nan,nan,nan,[ nan  nan  nan],nan,nan,nan,828.6223395,858.148595,858.6296699,nan,nan
0,26,19:41:37:523000,6,1,239,168.046875,[ 0.66506983  0.18338886  0.64054927],1,1,1,0.611265237,0,nan,nan,nan,nan,nan,nan,nan,nan,nan,nan,[ nan  nan  nan],nan,nan,nan,828.6223395,859.0903732,859.7016385,nan,nan
0,27,19:41:38:459000,6,1,484,340.3125,[ 0.61439895  0.31611274 -1.        ],1,1,1,0.469450651,0,nan,nan,nan,nan,nan,nan,nan,nan,nan,nan,[ nan  nan  nan],nan,nan,nan,828.6223395,860.0321691,860.5016198,nan,nan
0,28,19:41:39:411000,6,1,421,296.015625,[ 0.12147167  0.45251804 -0.71261034],1,1,1,0.479630299,0,nan,nan,nan,nan,nan,nan,nan,nan,nan,nan,[ nan  nan  nan],nan,nan,nan,828.6223395,860.9739616,861.4535919,nan,nan
0,29,19:41:40:347000,6,1,144,101.25,[ 1.         -0.28442319  0.00519445],1,1,1,0.425838333,0,nan,nan,nan,nan,nan,nan,nan,nan,nan,nan,[ nan  nan  nan],nan,nan,nan,828.6223395,861.9157578,862.3415961,nan,nan
0,30,19:41:41:283000,6,1,340,239.0625,[-0.16683717  0.46098011  0.2323764 ],1,1,1,0.507990536,0,nan,nan,nan,nan,nan,nan,nan,nan,nan,nan,[ nan  nan  nan],nan,nan,nan,828.6223395,862.8575488,863.3655393,nan,nan
0,31,19:41:42:234000,6,1,123,86.484375,[ 1.         -0.31144114 -0.20867286],1,1,1,0.478176022,0,nan,nan,nan,nan,nan,nan,nan,nan,nan,nan,[ nan  nan  nan],nan,nan,nan,828.6223395,863.7993433,864.2775193,nan,nan
0,32,19:41:43:170000,6,1,399,280.546875,[-0.01644604  0.47203125 -0.40027452],1,1,1,0.448365215,0,nan,nan,nan,nan,nan,nan,nan,nan,nan,nan,[ nan  nan  nan],nan,nan,nan,828.6223395,864.7411408,865.1895061,nan,nan
0,33,19:41:44:122000,6,1,16,11.25,[ 0.97341943  0.14065211 -1.        ],1,1,1,0.402562217,0,nan,nan,nan,nan,nan,nan,nan,nan,nan,nan,[ nan  nan  nan],nan,nan,nan,828.6223395,865.6829461,866.0855084,nan,nan
0,34,19:41:45:058000,6,1,156,109.6875,[ 1.         -0.24406061  0.12104147],1,1,1,0.420743377,0,nan,nan,nan,nan,nan,nan,nan,nan,nan,nan,[ nan  nan  nan],nan,nan,nan,828.6223395,866.6247255,867.0454689,nan,nan
0,35,19:41:45:994000,6,1,121,85.078125,[ 1.         -0.31073281 -0.22964081],1,1,1,0.350934132,0,nan,nan,nan,nan,nan,nan,nan,nan,nan,nan,[ nan  nan  nan],nan,nan,nan,828.6223395,867.566516,867.9174501,nan,nan
0,36,19:41:46:946000,6,0,328,230.625,[-0.13215956  0.44685797  0.33604616],0,0,1,0.641099993,0,nan,nan,nan,nan,nan,nan,nan,nan,nan,nan,[ nan  nan  nan],nan,nan,nan,828.6223395,868.508311,869.149411,nan,nan
0,37,19:41:47:882000,6,1,249,175.078125,[ 0.55727555  0.22802627  0.65408488],1,1,1,0.523297355,0,nan,nan,nan,nan,nan,nan,nan,nan,nan,nan,[ nan  nan  nan],nan,nan,nan,828.6223395,869.4501034,869.9734008,nan,nan
0,38,19:41:48:818000,6,1,190,133.59375,[ 1.         -0.07468844  0.40739964],1,1,1,0.493480846,0,nan,nan,nan,nan,nan,nan,nan,nan,nan,nan,[ nan  nan  nan],nan,nan,nan,828.6223395,870.3919025,870.8853833,nan,nan
0,39,19:41:49:769000,6,1,2,1.40625,[ 0.86302458  0.20362286 -1.        ],1,1,1,0.391668403,0,nan,nan,nan,nan,nan,nan,nan,nan,nan,nan,[ nan  nan  nan],nan,nan,nan,828.6223395,871.3336935,871.7253619,nan,nan
0,40,19:41:50:705000,6,1,98,68.90625,[ 1.         -0.26382291 -0.48021779],1,1,1,0.441855897,0,nan,nan,nan,nan,nan,nan,nan,nan,nan,nan,[ nan  nan  nan],nan,nan,nan,828.6223395,872.275482,872.7173379,nan,nan
0,41,19:41:51:657000,6,1,259,182.109375,[ 0.44882283  0.26890698  0.65501178],1,1,1,0.436025108,0,nan,nan,nan,nan,nan,nan,nan,nan,nan,nan,[ nan  nan  nan],nan,nan,nan,828.6223395,873.2172898,873.6533149,nan,nan
0,42,19:41:52:593000,6,1,354,248.90625,[-0.17447067  0.47210079  0.09886772],1,1,1,0.462210346,0,nan,nan,nan,nan,nan,nan,nan,nan,nan,nan,[ nan  nan  nan],nan,nan,nan,828.6223395,874.1590737,874.6212841,nan,nan
0,43,19:41:53:529000,6,1,41,28.828125,[ 1.         0.0148395 -1.       ],1,1,1,0.376414612,0,nan,nan,nan,nan,nan,nan,nan,nan,nan,nan,[ nan  nan  nan],nan,nan,nan,828.6223395,875.1008685,875.4772831,nan,nan
0,44,19:41:54:480000,6,1,350,246.09375,[-0.17575682  0.46949094  0.13824748],1,1,1,0.418595462,0,nan,nan,nan,nan,nan,nan,nan,nan,nan,nan,[ nan  nan  nan],nan,nan,nan,828.6223395,876.0426587,876.4612541,nan,nan
0,45,19:41:55:416000,6,1,107,75.234375,[ 1.         -0.29008977 -0.37959278],1,1,1,0.436773771,0,nan,nan,nan,nan,nan,nan,nan,nan,nan,nan,[ nan  nan  nan],nan,nan,nan,828.6223395,876.9844608,877.4212346,nan,nan
0,46,19:42:00:018000,6,1,496,348.75,[ 0.71483372  0.27492388 -1.        ],1,1,1,0.45496776,1,nan,nan,nan,nan,nan,nan,nan,nan,101.5851262,496,[ 0.71483372  0.27492388 -1.        ],nan,-0.335126225,1.61715162,828.6223395,877.9262459,878.3812136,879.7514542,881.376645
0,47,19:42:00:954000,6,1,147,103.359375,[ 1.         -0.27580113  0.03467205],1,1,1,0.558227066,0,nan,nan,nan,nan,nan,nan,nan,nan,nan,nan,[ nan  nan  nan],nan,nan,nan,828.6223395,882.5268639,883.085091,nan,nan
0,48,19:42:01:906000,6,1,231,162.421875,[ 0.74960968  0.14515127  0.62082146],1,1,1,0.504419705,0,nan,nan,nan,nan,nan,nan,nan,nan,nan,nan,[ nan  nan  nan],nan,nan,nan,828.6223395,883.4686572,883.9730769,nan,nan
0,49,19:42:02:842000,6,1,426,299.53125,[ 0.15619305  0.44621085 -0.8148597 ],1,1,1,0.482590738,0,nan,nan,nan,nan,nan,nan,nan,nan,nan,nan,[ nan  nan  nan],nan,nan,nan,828.6223395,884.4104494,884.8930401,nan,nan
0,50,19:42:03:794000,6,1,120,84.375,[ 1.         -0.3101615  -0.24016291],1,1,1,0.388849086,0,nan,nan,nan,nan,nan,nan,nan,nan,nan,nan,[ nan  nan  nan],nan,nan,nan,828.6223395,885.352245,885.7410941,nan,nan
0,51,19:42:04:730000,6,0,20,14.0625,[ 1.          0.12155819 -1.        ],0,1,0,0.350973761,0,0,0,nan,nan,nan,nan,nan,nan,nan,nan,[ nan  nan  nan],nan,nan,nan,828.6223395,886.2940375,886.6450112,nan,nan
0,52,19:42:05:666000,6,1,266,187.03125,[ 0.37357759  0.29520749  0.64811377],1,1,1,0.473159753,0,nan,nan,nan,nan,nan,nan,nan,nan,nan,nan,[ nan  nan  nan],nan,nan,nan,828.6223395,887.2358277,887.7089874,nan,nan
0,53,19:42:11:781000,6,1,423,297.421875,[ 0.13522958  0.45008089 -0.75003992],1,1,1,0.363330974,1,nan,nan,nan,nan,nan,nan,nan,nan,153.5617092,422,[ 0.12832838  0.45131367 -0.73089489],nan,-0.98358419,3.109061015,828.6223395,888.1776438,888.5409748,890.0111658,893.1282497
0,54,19:42:12:717000,6,1,150,105.46875,[ 1.         -0.26615253  0.06382271],1,1,1,0.614074576,0,nan,nan,nan,nan,nan,nan,nan,nan,nan,nan,[ nan  nan  nan],nan,nan,nan,828.6223395,894.2867786,894.9008532,nan,nan
0,55,19:42:13:668000,6,1,94,66.09375,[ 1.         -0.24943901 -0.52674516],1,1,1,0.552222653,0,nan,nan,nan,nan,nan,nan,nan,nan,nan,nan,[ nan  nan  nan],nan,nan,nan,828.6223395,895.2285848,895.7808074,nan,nan
0,56,19:42:14:604000,6,1,427,300.234375,[ 0.16326517  0.44486322 -0.84020871],1,1,1,0.610411659,0,nan,nan,nan,nan,nan,nan,nan,nan,nan,nan,[ nan  nan  nan],nan,nan,nan,828.6223395,896.1703658,896.7807775,nan,nan
0,57,19:42:15:540000,6,1,346,243.28125,[-0.17431756  0.46643129  0.17667017],1,1,1,0.436606704,0,nan,nan,nan,nan,nan,nan,nan,nan,nan,nan,[ nan  nan  nan],nan,nan,nan,828.6223395,897.1121623,897.548769,nan,nan
0,58,19:42:16:492000,6,0,181,127.265625,[ 1.         -0.12391439  0.33920113],0,0,1,0.518788843,0,nan,nan,nan,nan,nan,nan,nan,nan,nan,nan,[ nan  nan  nan],nan,nan,nan,828.6223395,898.0539516,898.5727405,nan,nan
0,59,19:42:17:428000,6,1,370,260.15625,[-0.144806    0.47817873 -0.06718033],1,1,1,0.400980788,0,nan,nan,nan,nan,nan,nan,nan,nan,nan,nan,[ nan  nan  nan],nan,nan,nan,828.6223395,898.9957469,899.3967277,nan,nan
0,60,19:42:18:364000,6,1,43,30.234375,[ 1.          0.00424534 -1.        ],1,1,1,0.331152727,0,nan,nan,nan,nan,nan,nan,nan,nan,nan,nan,[ nan  nan  nan],nan,nan,nan,828.6223395,899.9375346,900.2686873,nan,nan
0,61,19:42:19:316000,6,1,351,246.796875,[-0.17568629  0.47018527  0.12848998],1,1,1,0.333330292,0,nan,nan,nan,nan,nan,nan,nan,nan,nan,nan,[ nan  nan  nan],nan,nan,nan,828.6223395,900.8793421,901.2126724,nan,nan
0,62,19:42:20:252000,6,1,300,210.9375,[ 0.04335371  0.39574842  0.52895103],1,1,1,0.327532574,0,nan,nan,nan,nan,nan,nan,nan,nan,nan,nan,[ nan  nan  nan],nan,nan,nan,828.6223395,901.8211257,902.1486583,nan,nan
0,63,19:42:21:203000,6,1,237,166.640625,[ 0.6863873   0.17403185  0.63634982],1,1,1,0.36170621,0,nan,nan,nan,nan,nan,nan,nan,nan,nan,nan,[ nan  nan  nan],nan,nan,nan,828.6223395,902.7629219,903.1246281,nan,nan
0,64,19:42:22:139000,6,1,500,351.5625,[ 0.74814593  0.26005829 -1.        ],1,1,1,0.355894807,0,nan,nan,nan,nan,nan,nan,nan,nan,nan,nan,[ nan  nan  nan],nan,nan,nan,828.6223395,903.7047127,904.0606075,nan,nan
0,65,19:42:27:584000,6,1,107,75.234375,[ 1.         -0.29008977 -0.37959278],1,1,1,0.430075149,1,nan,nan,nan,nan,nan,nan,nan,nan,7.055186061,118,[ 1.         -0.30858815 -0.26128525],nan,7.710438939,2.458867877,828.6223395,904.6465088,905.076584,906.4717003,908.9386835
0,66,19:42:28:520000,6,1,153,107.578125,[ 1.         -0.25554786  0.09262139],1,1,1,0.627561911,0,nan,nan,nan,nan,nan,nan,nan,nan,nan,nan,[ nan  nan  nan],nan,nan,nan,828.6223395,910.0889027,910.7164646,nan,nan
0,67,19:42:29:471000,6,1,40,28.125,[ 1.          0.02011655 -1.        ],1,1,1,0.445748031,0,nan,nan,nan,nan,nan,nan,nan,nan,nan,nan,[ nan  nan  nan],nan,nan,nan,828.6223395,911.0306992,911.4764472,nan,nan
0,68,19:42:30:407000,6,1,169,118.828125,[ 1.         -0.18591738  0.2391183 ],1,1,1,0.495918419,0,nan,nan,nan,nan,nan,nan,nan,nan,nan,nan,[ nan  nan  nan],nan,nan,nan,828.6223395,911.9724933,912.4684118,nan,nan
0,69,19:42:31:343000,6,0,267,187.734375,[ 0.36292453  0.29880723  0.64662252],0,0,1,0.554097161,0,nan,nan,nan,nan,nan,nan,nan,nan,nan,nan,[ nan  nan  nan],nan,nan,nan,828.6223395,912.9142872,913.4683844,nan,nan
0,70,19:42:32:295000,6,1,191,134.296875,[ 1.         -0.06914798  0.41457165],1,1,1,0.492291424,0,nan,nan,nan,nan,nan,nan,nan,nan,nan,nan,[ nan  nan  nan],nan,nan,nan,828.6223395,913.8560768,914.3483683,nan,nan
0,71,19:42:33:231000,6,0,1,0.703125,[ 0.85493913  0.20787707 -1.        ],0,0,1,0.478485067,0,nan,nan,nan,nan,nan,nan,nan,nan,nan,nan,[ nan  nan  nan],nan,nan,nan,828.6223395,914.7978684,915.2763535,nan,nan
0,72,19:42:34:167000,6,1,296,208.125,[ 0.07727136  0.38620532  0.55000131],1,1,1,0.424658889,0,nan,nan,nan,nan,nan,nan,nan,nan,nan,nan,[ nan  nan  nan],nan,nan,nan,828.6223395,915.7396655,916.1643244,nan,nan
0,73,19:42:35:118000,6,1,17,11.953125,[ 0.98106915  0.13592191 -1.        ],1,1,1,0.338764512,0,nan,nan,nan,nan,nan,nan,nan,nan,nan,nan,[ nan  nan  nan],nan,nan,nan,828.6223395,916.6815455,917.02031,nan,nan
0,74,19:42:36:054000,6,1,446,313.59375,[ 0.30469626  0.41359904 -1.        ],1,1,1,0.317042457,0,nan,nan,nan,nan,nan,nan,nan,nan,nan,nan,[ nan  nan  nan],nan,nan,nan,828.6223395,917.623251,917.9402934,nan,nan
0,75,19:42:37:006000,6,1,401,281.953125,[-0.00506341  0.47079689 -0.4252031 ],1,1,1,0.407229243,0,nan,nan,nan,nan,nan,nan,nan,nan,nan,nan,[ nan  nan  nan],nan,nan,nan,828.6223395,918.5650426,918.9722718,nan,nan
0,76,19:42:37:942000,6,1,459,322.734375,[ 0.40775816  0.38570917 -1.        ],1,1,1,0.505394734,0,nan,nan,nan,nan,nan,nan,nan,nan,nan,nan,[ nan  nan  nan],nan,nan,nan,828.6223395,919.5068379,920.0122326,nan,nan
0,77,19:42:38:878000,6,1,34,23.90625,[ 1.          0.05144197 -1.        ],1,1,1,0.411585514,0,nan,nan,nan,nan,nan,nan,nan,nan,nan,nan,[ nan  nan  nan],nan,nan,nan,828.6223395,920.4486301,920.8602156,nan,nan
0,78,19:42:39:830000,6,1,81,56.953125,[ 1.         -0.19380425 -0.69421917],1,1,1,0.429768955,0,nan,nan,nan,nan,nan,nan,nan,nan,nan,nan,[ nan  nan  nan],nan,nan,nan,828.6223395,921.3904254,921.8201943,nan,nan
0,79,19:42:40:766000,6,1,179,125.859375,[ 1.         -0.13461442  0.32320413],1,1,1,0.44796437,0,nan,nan,nan,nan,nan,nan,nan,nan,nan,nan,[ nan  nan  nan],nan,nan,nan,828.6223395,922.3322121,922.7801765,nan,nan
0,80,19:42:41:702000,6,1,427,300.234375,[ 0.16326517  0.44486322 -0.84020871],1,1,1,0.466142109,0,0,0,0.447958478,0.485169488,0.103133112,0.5883026,0.382036375,nan,nan,nan,[ nan  nan  nan],nan,nan,nan,828.6223395,923.2740106,923.7401527,nan,nan
0,81,19:42:42:653000,6,0,489,343.828125,[ 0.65628486  0.29957244 -1.        ],0,0,1,0.548265802,0,0,0,0.487457427,0.484934582,0.102516044,0.587450626,0.382418538,nan,nan,nan,[ nan  nan  nan],nan,nan,nan,828.6223395,924.2158518,924.7641176,nan,nan
0,82,19:42:43:589000,6,1,46,32.34375,[ 1.         -0.01173137 -1.        ],1,1,1,0.454518163,0,0,0,0.489642025,0.485706914,0.102125856,0.587832769,0.383581058,nan,nan,nan,[ nan  nan  nan],nan,nan,nan,828.6223395,925.1575884,925.6121066,nan,nan
0,83,19:42:44:541000,6,1,104,73.125,[ 1.         -0.28235148 -0.41264457],1,1,1,0.472673379,0,0,0,0.491819115,0.485331146,0.101565792,0.586896937,0.383765354,nan,nan,nan,[ nan  nan  nan],nan,nan,nan,828.6223395,926.0994225,926.5720959,nan,nan
0,84,19:42:45:477000,6,1,290,203.90625,[ 0.13126538  0.37077654  0.57820662],1,1,1,0.450890313,0,0,0,0.459360618,0.485180458,0.100968757,0.586149214,0.384211701,nan,nan,nan,[ nan  nan  nan],nan,nan,nan,828.6223395,927.0411796,927.4920699,nan,nan
0,85,19:42:46:413000,6,1,439,308.671875,[ 0.25114429  0.4263922  -1.        ],1,1,1,0.365073482,0,0,0,0.429545725,0.484777044,0.10044114,0.585218185,0.384335904,nan,nan,nan,[ nan  nan  nan],nan,nan,nan,828.6223395,927.9829712,928.3480447,nan,nan
0,86,19:42:47:364000,6,0,49,34.453125,[ 1.         -0.02778543 -1.        ],0,1,0,0.295261101,0,0,0,0.370408299,0.483385143,0.100676679,0.584061821,0.382708464,nan,nan,nan,[ nan  nan  nan],nan,nan,nan,828.6223395,928.9247731,929.2200342,nan,nan
0,87,19:42:48:300000,6,1,348,244.6875,[-0.17538477  0.46801784  0.15758216],1,1,1,0.49743171,0,0,0,0.385922098,0.481222797,0.102085276,0.583308074,0.379137521,nan,nan,nan,[ nan  nan  nan],nan,nan,nan,828.6223395,929.8665618,930.3639935,nan,nan
0,88,19:42:49:236000,6,1,449,315.703125,[ 0.32809501  0.40764625 -1.        ],1,1,1,0.43561742,0,0,0,0.409436744,0.481406989,0.101518128,0.582925117,0.379888862,nan,nan,nan,[ nan  nan  nan],nan,nan,nan,828.6223395,930.8083688,931.2439863,nan,nan
0,89,19:42:50:188000,6,1,149,104.765625,[ 1.         -0.26947852  0.05414366],1,1,1,0.429803737,0,0,0,0.454284289,0.4808925,0.1010615,0.581954,0.379831,nan,nan,nan,[ nan  nan  nan],nan,nan,nan,828.6223395,931.7501613,932.179965,nan,nan
0,90,19:42:51:124000,6,1,378,265.78125,[-0.11745014  0.47867092 -0.15481012],1,1,1,0.391999115,0,0,0,0.419140091,0.480324847,0.100641059,0.580965906,0.379683788,nan,nan,nan,[ nan  nan  nan],nan,nan,nan,828.6223395,932.6919361,933.0839352,nan,nan
0,91,19:42:52:076000,6,1,266,187.03125,[ 0.37357759  0.29520749  0.64811377],1,1,1,0.386174028,0,0,0,0.40265896,0.479354234,0.100509239,0.579863474,0.378844995,nan,nan,nan,[ nan  nan  nan],nan,nan,nan,828.6223395,933.6337328,934.0199068,nan,nan
0,92,19:42:53:012000,6,1,429,301.640625,[ 0.17753182  0.44208078 -0.9018852 ],1,1,1,0.388357865,0,0,0,0.388843669,0.478341406,0.100427344,0.57876875,0.377914062,nan,nan,nan,[ nan  nan  nan],nan,nan,nan,828.6223395,934.5755216,934.9638794,nan,nan
0,93,19:42:53:948000,6,1,477,335.390625,[ 0.55587987  0.33778403 -1.        ],1,1,1,0.398548347,0,0,0,0.391026747,0.477373841,0.100316162,0.577690003,0.37705768,nan,nan,nan,[ nan  nan  nan],nan,nan,nan,828.6223395,935.5173257,935.9158741,nan,nan
0,94,19:42:54:899000,6,1,217,152.578125,[ 0.89125041  0.07353733  0.56804835],1,1,1,0.416736349,0,0,0,0.401214187,0.476535272,0.100108306,0.576643578,0.376426966,nan,nan,nan,[ nan  nan  nan],nan,nan,nan,828.6223395,936.4591082,936.8758446,nan,nan
0,95,19:42:55:835000,6,1,427,300.234375,[ 0.16326517  0.44486322 -0.84020871],1,1,1,0.434917509,0,0,0,0.416734068,0.47590581,0.099766861,0.575672671,0.376138948,nan,nan,nan,[ nan  nan  nan],nan,nan,nan,828.6223395,937.4009067,937.8358242,nan,nan
0,96,19:42:56:771000,6,0,190,133.59375,[ 1.         -0.07468844  0.40739964],0,0,1,0.437131281,0,0,0,0.429595046,0.475478848,0.099333092,0.574811941,0.376145756,nan,nan,nan,[ nan  nan  nan],nan,nan,nan,828.6223395,938.3426963,938.7798276,nan,nan
0,97,19:42:57:723000,6,1,438,307.96875,[ 0.24362256  0.42809644 -1.        ],1,1,1,0.383261199,0,0,0,0.418436663,0.475083513,0.098895626,0.573979138,0.376187887,nan,nan,nan,[ nan  nan  nan],nan,nan,nan,828.6223395,939.2845244,939.6677856,nan,nan
0,98,19:42:58:659000,6,1,246,172.96875,[ 0.58976884  0.2150199   0.65133953],1,1,1,0.393483897,0,0,0,0.404625459,0.47414655,0.098821564,0.572968114,0.375324986,nan,nan,nan,[ nan  nan  nan],nan,nan,nan,828.6223395,940.2262792,940.6197631,nan,nan
0,99,19:42:59:610000,6,1,138,97.03125,[ 1.         -0.29832988 -0.05465081],1,1,1,0.427650405,0,0,0,0.401465167,0.473331776,0.098651488,0.571983264,0.374680288,nan,nan,nan,[ nan  nan  nan],nan,nan,nan,828.6223395,941.1680939,941.5957443,nan,nan
0,100,19:43:00:546000,6,1,63,44.296875,[ 1.         -0.10274464 -1.        ],1,1,1,0.357851138,0,0,0,0.392995146,0.472874962,0.09826217,0.571137132,0.374612792,nan,nan,nan,[ nan  nan  nan],nan,nan,nan,828.6223395,942.1098658,942.467717,nan,nan
0,101,19:43:01:482000,6,1,165,116.015625,[ 1.         -0.20505638  0.20374544],1,1,1,0.400053085,0,0,0,0.395184876,0.471736112,0.098435529,0.570171642,0.373300583,nan,nan,nan,[ nan  nan  nan],nan,nan,nan,828.6223395,943.0516543,943.4517074,nan,nan
0,102,19:43:02:434000,6,0,228,160.3125,[ 0.78072981  0.13027695  0.61143314],0,0,1,0.530225765,0,0,0,0.429376663,0.471033338,0.098206114,0.569239452,0.372827223,nan,nan,nan,[ nan  nan  nan],nan,nan,nan,828.6223395,943.9934545,944.5236802,nan,nan
0,103,19:43:03:370000,6,1,311,218.671875,[-0.03972498  0.41902022  0.46225021],1,1,1,0.540406838,0,0,0,0.490228563,0.471608021,0.09790042,0.569508441,0.373707601,nan,nan,nan,[ nan  nan  nan],nan,nan,nan,828.6223395,944.9352467,945.4756535,nan,nan
0,104,19:43:04:306000,6,1,407,286.171875,[ 0.03058863  0.46645515 -0.50257741],1,1,1,0.558594555,0,0,0,0.543075719,0.472269549,0.097659656,0.569929204,0.374609893,nan,nan,nan,[ nan  nan  nan],nan,nan,nan,828.6223395,945.8770385,946.4356331,nan,nan
0,105,19:43:05:258000,6,1,147,103.359375,[ 1.         -0.27580113  0.03467205],1,1,1,0.616744218,0,0,1,0.571915204,0.473091691,0.097554454,0.570646145,0.375537238,nan,nan,nan,[ nan  nan  nan],nan,nan,nan,828.6223395,946.8188464,947.4355906,nan,nan
0,106,19:43:10:764000,6,1,300,210.9375,[ 0.04335371  0.39574842  0.52895103],1,1,1,0.482973623,1,0,0,0.552770798,0.474446904,0.098081256,0.57252816,0.376365648,nan,-147.0114784,337,[-0.16064337  0.45785839  0.25930356],nan,26.07397839,2.525637711,828.6223395,947.7606169,948.2435905,949.5858016,952.119481
0,107,19:43:11:700000,6,1,116,81.5625,[ 1.         -0.30644692 -0.28251544],1,1,1,0.781763931,0,0,0,0.62716059,0.474526593,0.097625304,0.572151897,0.376901289,nan,nan,nan,[ nan  nan  nan],nan,nan,nan,828.6223395,953.2696942,954.0514582,nan,nan
0,108,19:43:12:652000,6,1,159,111.796875,[ 1.         -0.23176597  0.14905501],1,1,1,0.543905825,0,0,0,0.602881126,0.477371383,0.10153022,0.578901603,0.375841163,nan,nan,nan,[ nan  nan  nan],nan,nan,nan,828.6223395,954.2115269,954.7554327,nan,nan
0,109,19:43:13:588000,6,1,309,217.265625,[-0.02583963  0.41510654  0.4753057 ],1,1,1,0.458128622,0,0,1,0.594599459,0.477981791,0.101262302,0.579244093,0.376719489,nan,nan,nan,[ nan  nan  nan],nan,nan,nan,828.6223395,955.1532806,955.6114092,nan,nan
0,110,19:43:19:126000,6,1,4,2.8125,[ 0.87912605  0.19501404 -1.        ],1,1,1,0.516314777,1,0,0,0.506116408,0.477801307,0.100818578,0.578619886,0.376982729,nan,55.41602831,49,[ 1.         -0.02778543 -1.        ],nan,31.77147169,2.550610149,828.6223395,956.0950742,956.611389,957.9202808,960.4789318
0,111,19:43:20:078000,6,1,141,99.140625,[ 1.         -0.29195274 -0.02458685],1,1,1,0.621790422,0,0,0,0.53207794,0.478148276,0.100429365,0.57857764,0.377718911,nan,nan,nan,[ nan  nan  nan],nan,nan,nan,828.6223395,961.6374707,962.2592611,nan,nan
0,112,19:43:21:014000,6,1,365,256.640625,[-0.15796203  0.47701659 -0.01391969],1,1,1,0.479962436,0,0,0,0.539355878,0.479430795,0.10088896,0.580319754,0.378541835,nan,nan,nan,[ nan  nan  nan],nan,nan,nan,828.6223395,962.5792814,963.0592439,nan,nan
0,113,19:43:21:950000,6,1,201,141.328125,[ 1.         -0.01357126  0.48142235],1,1,1,0.570148082,0,0,0,0.557300313,0.4794355,0.100441569,0.579877068,0.378993931,nan,nan,nan,[ nan  nan  nan],nan,nan,nan,828.6223395,963.5210642,964.0912123,nan,nan
0,114,19:43:22:901000,6,1,351,246.796875,[-0.17568629  0.47018527  0.12848998],1,1,1,0.444334809,0,0,0,0.498148442,0.480231224,0.100357172,0.580588396,0.379874052,nan,nan,nan,[ nan  nan  nan],nan,nan,nan,828.6223395,964.4628624,964.9071972,nan,nan
0,115,19:43:23:837000,6,1,477,335.390625,[ 0.55587987  0.33778403 -1.        ],1,1,1,0.406516503,0,0,0,0.473666465,0.479919081,0.09997545,0.579894531,0.379943631,nan,nan,nan,[ nan  nan  nan],nan,nan,nan,828.6223395,965.404656,965.8111725,nan,nan
0,116,19:43:24:789000,6,0,50,35.15625,[ 1.         -0.03314873 -1.        ],0,0,1,0.50470081,0,0,0,0.451850707,0.4792863,0.099774613,0.579060913,0.379511688,nan,nan,nan,[ nan  nan  nan],nan,nan,nan,828.6223395,966.3464467,966.8511475,nan,nan
0,117,19:43:25:725000,6,1,219,153.984375,[ 0.87162732  0.08408817  0.57695967],1,1,1,0.394893983,0,0,0,0.435370432,0.479503518,0.099374853,0.578878372,0.380128665,nan,nan,nan,[ nan  nan  nan],nan,nan,nan,828.6223395,967.2882392,967.6831332,nan,nan
0,118,19:43:26:661000,6,1,444,312.1875,[ 0.2892412   0.41740978 -1.        ],1,1,1,0.357081093,0,0,0,0.418891962,0.478786488,0.099256362,0.57804285,0.379530127,nan,nan,nan,[ nan  nan  nan],nan,nan,nan,828.6223395,968.2300328,968.5871139,nan,nan
0,119,19:43:27:613000,6,1,127,89.296875,[ 1.         -0.31111021 -0.16703665],1,1,1,0.367262736,0,1,0,0.373079271,0.477763754,0.099460863,0.577224617,0.378302891,nan,nan,nan,[ nan  nan  nan],nan,nan,nan,828.6223395,969.1718272,969.53909,nan,nan
0,120,19:43:32:917000,6,0,54,37.96875,[ 1.         -0.05462921 -1.        ],0,0,1,0.433459241,1,0,0,0.385934357,0.476842912,0.099553664,0.576396576,0.377289248,nan,45,64,[ 1.         -0.10803687 -1.        ],nan,7.03125,2.325597341,828.6223395,970.1136234,970.5470827,971.9388047,974.2724466
0,121,19:43:33:853000,6,1,443,311.484375,[ 0.28155878  0.41926821 -1.        ],1,1,1,0.532277318,0,0,0,0.444333099,0.47648437,0.099219201,0.575703571,0.377265168,nan,nan,nan,[ nan  nan  nan],nan,nan,nan,828.6223395,975.4226624,975.9549397,nan,nan
0,122,19:43:34:804000,6,1,286,201.09375,[ 0.16907896  0.35973478  0.59469871],1,1,1,0.630449651,0,0,0,0.53206207,0.476941689,0.098939697,0.575881386,0.378001991,nan,nan,nan,[ nan  nan  nan],nan,nan,nan,828.6223395,976.3644562,976.9949059,nan,nan
0,123,19:43:35:740000,6,1,183,128.671875,[ 1.         -0.113109    0.35490284],1,1,1,0.472693336,0,0,0,0.545140102,0.478189721,0.099496247,0.577685968,0.378693474,nan,nan,nan,[ nan  nan  nan],nan,nan,nan,828.6223395,977.3062527,977.778946,nan,nan
0,124,19:43:36:676000,6,1,268,188.4375,[ 0.35230222  0.30236752  0.64500531],1,1,1,0.362839468,0,0,0,0.488660818,0.478145395,0.099095459,0.577240855,0.379049936,nan,nan,nan,[ nan  nan  nan],nan,nan,nan,828.6223395,978.2480469,978.6108863,nan,nan
0,125,19:43:37:628000,6,0,368,258.75,[-0.15045717  0.47779326 -0.04573418],0,0,1,0.469020726,0,0,0,0.434851176,0.477222948,0.099231364,0.576454312,0.377991584,nan,nan,nan,[ nan  nan  nan],nan,nan,nan,828.6223395,979.1898393,979.6588601,nan,nan
0,126,19:43:38:564000,6,1,456,320.625,[ 0.38361243  0.39263319 -1.        ],1,1,1,0.399213191,0,0,0,0.410357795,0.477157851,0.098839484,0.575997335,0.378318367,nan,nan,nan,[ nan  nan  nan],nan,nan,nan,828.6223395,980.1316338,980.530847,nan,nan
0,127,19:43:39:515000,6,1,55,38.671875,[ 1.         -0.05999965 -1.        ],1,1,1,0.369411222,0,0,0,0.41254838,0.476544113,0.09869033,0.575234443,0.377853783,nan,nan,nan,[ nan  nan  nan],nan,nan,nan,828.6223395,981.0734194,981.4428306,nan,nan
0,128,19:43:40:451000,6,1,403,283.359375,[ 0.00657627  0.46945644 -0.45052451],1,1,1,0.403589989,0,0,0,0.390738134,0.475707138,0.098755538,0.574462676,0.3769516,nan,nan,nan,[ nan  nan  nan],nan,nan,nan,828.6223395,982.0152219,982.4188119,nan,nan
0,129,19:43:41:387000,6,1,510,358.59375,[ 0.83055446  0.2204367  -1.        ],1,1,1,0.38176872,0,0,0,0.384923311,0.47514809,0.098575142,0.573723232,0.376572948,nan,nan,nan,[ nan  nan  nan],nan,nan,nan,828.6223395,982.95701,983.3387788,nan,nan
0,130,19:43:42:339000,6,1,97,68.203125,[ 1.         -0.26036974 -0.49171883],1,1,1,0.399943893,0,0,0,0.395100868,0.474429787,0.098533602,0.57296339,0.375896185,nan,nan,nan,[ nan  nan  nan],nan,nan,nan,828.6223395,983.8987999,984.2987438,nan,nan
0,131,19:43:43:275000,6,1,240,168.75,[ 0.65437302  0.18801506  0.64246395],1,1,1,0.362127297,0,0,0,0.38127997,0.473861193,0.098370658,0.57223185,0.375490535,nan,nan,nan,[ nan  nan  nan],nan,nan,nan,828.6223395,984.8405961,985.2027234,nan,nan
0,132,19:43:44:211000,6,1,38,26.71875,[ 1.          0.03062595 -1.        ],1,1,1,0.468319959,0,0,0,0.410130383,0.473014724,0.098475073,0.571489797,0.37453965,nan,nan,nan,[ nan  nan  nan],nan,nan,nan,828.6223395,985.7823911,986.2507111,nan,nan
0,133,19:43:45:163000,6,1,93,65.390625,[ 1.         -0.2456143  -0.53861988],1,1,1,0.446541454,0,0,0,0.425662903,0.472979425,0.098105006,0.571084431,0.374874419,nan,nan,nan,[ nan  nan  nan],nan,nan,nan,828.6223395,986.7241474,987.1706889,nan,nan
0,134,19:43:46:099000,6,1,474,333.28125,[ 0.53090176  0.34654538 -1.        ],1,1,1,0.4086992,0,0,0,0.441186871,0.472782126,0.097764739,0.570546865,0.375017388,nan,nan,nan,[ nan  nan  nan],nan,nan,nan,828.6223395,987.6659721,988.0746713,nan,nan
0,135,19:43:47:050000,6,1,168,118.125,[ 1.         -0.19079002  0.2303618 ],1,1,1,0.418860886,0,0,0,0.424700514,0.472307438,0.097556848,0.569864286,0.37475059,nan,nan,nan,[ nan  nan  nan],nan,nan,nan,828.6223395,988.6077711,989.026632,nan,nan
0,136,19:43:47:986000,6,1,492,345.9375,[ 0.68140332  0.28922202 -1.        ],1,1,1,0.573039528,0,0,0,0.466866538,0.471914449,0.097304716,0.569219164,0.374609733,nan,nan,nan,[ nan  nan  nan],nan,nan,nan,828.6223395,989.5495807,990.1226202,nan,nan
0,137,19:43:48:922000,6,1,373,262.265625,[-0.13540771  0.47855957 -0.09969749],1,1,1,0.711232537,0,0,0,0.567710984,0.472652588,0.097330346,0.569982934,0.375322242,nan,nan,nan,[ nan  nan  nan],nan,nan,nan,828.6223395,990.4913549,991.2025874,nan,nan
0,138,19:43:49:874000,6,1,196,137.8125,[ 1.         -0.04136108  0.44913076],1,1,1,0.657429737,0,0,1,0.647233934,0.474381428,0.099065774,0.573447202,0.375315654,nan,nan,nan,[ nan  nan  nan],nan,nan,nan,828.6223395,991.4331451,992.0905748,nan,nan
0,139,19:43:56:925000,6,1,129,90.703125,[ 1.         -0.31007049 -0.146368  ],1,1,1,0.627613798,1,0,0,0.665425357,0.475698322,0.099913683,0.575612006,0.375784639,nan,-1.652304678,130,[ 1.         -0.30933315 -0.13607149],nan,0.949179678,4.067487991,828.6223395,992.3749392,993.002553,994.2001433,998.2756602
0,140,19:43:57:877000,6,1,477,335.390625,[ 0.55587987  0.33778403 -1.        ],1,1,1,0.608182776,0,0,0,0.631075437,0.476783433,0.10037483,0.577158263,0.376408603,nan,nan,nan,[ nan  nan  nan],nan,nan,nan,828.6223395,999.4342145,1000.042397,nan,nan
0,141,19:43:58:813000,6,1,225,158.203125,[ 0.81146625  0.11513113  0.60098195],1,1,1,0.482351257,0,0,0,0.572715944,0.477715343,0.10062423,0.578339573,0.377091113,nan,nan,nan,[ nan  nan  nan],nan,nan,nan,828.6223395,1000.37602,1000.858372,nan,nan
0,142,19:43:59:749000,6,1,21,14.765625,[ 1.        0.116714 -1.      ],1,1,1,0.372548421,0,0,0,0.487694152,0.477747991,0.100270043,0.578018033,0.377477948,nan,nan,nan,[ nan  nan  nan],nan,nan,nan,828.6223395,1001.317802,1001.69035,nan,nan
0,143,19:44:00:700000,6,1,327,229.921875,[-0.12808616  0.44548068  0.34417644],1,1,1,0.39872197,0,0,0,0.417873883,0.477012329,0.100302659,0.577314988,0.376709671,nan,nan,nan,[ nan  nan  nan],nan,nan,nan,828.6223395,1002.259593,1002.658315,nan,nan
0,144,19:44:01:636000,6,1,219,153.984375,[ 0.87162732  0.08408817  0.57695967],1,1,1,0.360931889,0,0,0,0.37740076,0.476468646,0.100165001,0.576633647,0.376303645,nan,nan,nan,[ nan  nan  nan],nan,nan,nan,828.6223395,1003.201378,1003.56231,nan,nan
0,145,19:44:02:572000,6,0,172,120.9375,[ 1.         -0.17098406  0.26502468],0,0,1,0.483095074,0,0,0,0.414249644,0.475671841,0.100275917,0.575947758,0.375395924,nan,nan,nan,[ nan  nan  nan],nan,nan,nan,828.6223395,1004.143184,1004.626279,nan,nan
0,146,19:44:03:524000,6,1,462,324.84375,[ 0.43208968  0.37848636 -1.        ],1,1,1,0.429292274,0,0,0,0.424439745,0.475722685,0.099933792,0.575656477,0.375788893,nan,nan,nan,[ nan  nan  nan],nan,nan,nan,828.6223395,1005.084974,1005.514267,nan,nan
0,147,19:44:04:460000,6,1,299,210.234375,[ 0.05166456  0.39341767  0.53437875],1,1,1,0.375480066,0,0,0,0.429289138,0.475406832,0.099666398,0.57507323,0.375740433,nan,nan,nan,[ nan  nan  nan],nan,nan,nan,828.6223395,1006.026765,1006.402245,nan,nan
0,148,19:44:05:411000,6,1,244,171.5625,[ 0.61137236  0.20616355  0.64888072],1,1,1,0.393650963,0,0,0,0.399474434,0.474731651,0.099665873,0.574397524,0.375065778,nan,nan,nan,[ nan  nan  nan],nan,nan,nan,828.6223395,1006.968563,1007.362214,nan,nan
0,149,19:44:06:347000,6,0,381,267.890625,[-0.10540306  0.47842508 -0.18843114],0,1,0,0.49184981,0,0,0,0.420326946,0.474187485,0.099551219,0.573738704,0.374636267,nan,nan,nan,[ nan  nan  nan],nan,nan,nan,828.6223395,1007.910351,1008.402201,nan,nan
0,150,19:44:07:283000,6,1,144,101.25,[ 1.         -0.28442319  0.00519445],1,1,1,0.470031962,0,0,0,0.451844245,0.474305234,0.099229236,0.57353447,0.375075998,nan,nan,nan,[ nan  nan  nan],nan,nan,nan,828.6223395,1008.852145,1009.322177,nan,nan
0,151,19:44:08:235000,6,1,392,275.625,[-0.05410679  0.47552228 -0.31554984],1,1,1,0.464214287,0,0,0,0.475365353,0.474276934,0.098900724,0.573177658,0.37537621,nan,nan,nan,[ nan  nan  nan],nan,nan,nan,828.6223395,1009.793934,1010.258148,nan,nan
0,152,19:44:09:171000,6,0,156,109.6875,[ 1.         -0.24406061  0.12104147],0,0,1,0.514394654,0,0,0,0.482880301,0.474210733,0.098578213,0.572788945,0.37563252,nan,nan,nan,[ nan  nan  nan],nan,nan,nan,828.6223395,1010.735731,1011.250126,nan,nan
0,153,19:44:10:107000,6,1,257,180.703125,[ 0.4704729   0.26103985  0.65584138],1,1,1,0.492572244,0,0,0,0.490393728,0.474473373,0.098308874,0.572782247,0.376164498,nan,nan,nan,[ nan  nan  nan],nan,nan,nan,828.6223395,1011.677528,1012.1701,nan,nan
0,154,19:44:11:059000,6,1,160,112.5,[ 1.         -0.22750142  0.15829752],1,1,1,0.550754122,0,0,0,0.51924034,0.474590898,0.097999952,0.57259085,0.376590945,nan,nan,nan,[ nan  nan  nan],nan,nan,nan,828.6223395,1012.619319,1013.170073,nan,nan
0,155,19:44:11:995000,6,1,265,186.328125,[ 0.38425915  0.29156831  0.64947886],1,1,1,0.608950541,0,0,0,0.550758969,0.475082273,0.097873453,0.572955726,0.377208821,nan,nan,nan,[ nan  nan  nan],nan,nan,nan,828.6223395,1013.561108,1014.170059,nan,nan
0,156,19:44:12:946000,6,1,416,292.5,[ 0.08788162  0.4581175  -0.63016532],1,1,1,0.427140082,0,0,0,0.528948248,0.475940403,0.098142486,0.574082889,0.377797918,nan,nan,nan,[ nan  nan  nan],nan,nan,nan,828.6223395,1014.502895,1014.930035,nan,nan
0,157,19:44:13:882000,6,1,128,90,[ 1.         -0.31066301 -0.15668979],1,1,1,0.341321826,0,0,0,0.459137483,0.475629573,0.097906433,0.573536006,0.377723141,nan,nan,nan,[ nan  nan  nan],nan,nan,nan,828.6223395,1015.444698,1015.78602,nan,nan
0,158,19:44:14:818000,6,1,426,299.53125,[ 0.15619305  0.44621085 -0.8148597 ],1,1,1,0.415519843,0,0,0,0.394660584,0.474779524,0.098175589,0.572955114,0.376603935,nan,nan,nan,[ nan  nan  nan],nan,nan,nan,828.6223395,1016.386485,1016.802005,nan,nan
0,159,19:44:15:770000,6,0,18,12.65625,[ 0.9886827   0.13116258 -1.        ],0,0,1,0.489705031,0,0,0,0.415515567,0.474406822,0.097978439,0.572385261,0.376428383,nan,nan,nan,[ nan  nan  nan],nan,nan,nan,828.6223395,1017.328278,1017.817983,nan,nan
0,160,19:44:16:706000,6,1,398,279.84375,[-0.02203778  0.4726088  -0.38794338],1,1,1,0.395890109,0,0,0,0.433704994,0.474502436,0.097679217,0.572181653,0.376823219,nan,nan,nan,[ nan  nan  nan],nan,nan,nan,828.6223395,1018.270072,1018.665962,nan,nan
0,161,19:44:17:642000,6,1,200,140.625,[ 1.         -0.01912099  0.47515178],1,1,1,0.46205896,0,0,0,0.449218033,0.47401416,0.097571068,0.571585228,0.376443093,nan,nan,nan,[ nan  nan  nan],nan,nan,nan,828.6223395,1019.211868,1019.673927,nan,nan
0,162,19:44:18:593000,6,1,145,101.953125,[ 1.         -0.28166741  0.01505517],1,1,1,0.456249268,0,0,0,0.438066112,0.473940363,0.097273963,0.571214326,0.3766664,nan,nan,nan,[ nan  nan  nan],nan,nan,nan,828.6223395,1020.153656,1020.609905,nan,nan
0,163,19:44:19:529000,6,1,283,198.984375,[ 0.19826868  0.35105092  0.60582595],1,1,1,0.482438212,0,0,0,0.46691548,0.473831829,0.096984956,0.570816785,0.376846872,nan,nan,nan,[ nan  nan  nan],nan,nan,nan,828.6223395,1021.095449,1021.577887,nan,nan
0,164,19:44:20:481000,6,1,139,97.734375,[ 1.         -0.29633561 -0.04459929],1,1,1,0.524624763,0,0,0,0.487770748,0.473884306,0.09669114,0.570575446,0.377193167,nan,nan,nan,[ nan  nan  nan],nan,nan,nan,828.6223395,1022.037247,1022.561872,nan,nan
0,165,19:44:21:417000,6,1,457,321.328125,[ 0.39163925  0.39035818 -1.        ],1,1,1,0.550811997,0,0,0,0.519291657,0.474191824,0.0964781,0.570669925,0.377713724,nan,nan,nan,[ nan  nan  nan],nan,nan,nan,828.6223395,1022.979038,1023.52985,nan,nan
0,166,19:44:22:353000,6,1,376,264.375,[-0.12496282  0.47870467 -0.13262763],1,1,1,0.568992016,0,0,0,0.548142926,0.474653392,0.09636962,0.571023012,0.378283771,nan,nan,nan,[ nan  nan  nan],nan,nan,nan,828.6223395,1023.920829,1024.489821,nan,nan
0,167,19:44:23:305000,6,1,84,59.0625,[ 1.         -0.20765784 -0.65219109],1,1,1,0.51518323,0,0,0,0.544995748,0.475218294,0.09635593,0.571574224,0.378862363,nan,nan,nan,[ nan  nan  nan],nan,nan,nan,828.6223395,1024.862622,1025.377805,nan,nan
0,168,19:44:24:241000,6,1,368,258.75,[-0.15045717  0.47779326 -0.04573418],1,1,1,0.461367601,0,0,0,0.515180949,0.47545618,0.096117902,0.571574083,0.379338278,nan,nan,nan,[ nan  nan  nan],nan,nan,nan,828.6223395,1025.804415,1026.265783,nan,nan
0,169,19:44:25:177000,6,0,48,33.75,[ 1.         -0.02242733 -1.        ],0,0,1,0.65551389,0,0,0,0.544021574,0.475372816,0.095839199,0.571212015,0.379533616,nan,nan,nan,[ nan  nan  nan],nan,nan,nan,828.6223395,1026.746233,1027.401747,nan,nan
0,170,19:44:26:128000,6,1,491,345.234375,[ 0.67303348  0.29270771 -1.        ],1,1,1,0.585733155,0,0,0,0.567538215,0.476432469,0.096544736,0.572977205,0.379887733,nan,nan,nan,[ nan  nan  nan],nan,nan,nan,828.6223395,1027.688004,1028.273737,nan,nan
0,171,19:44:27:064000,6,1,267,187.734375,[ 0.36292453  0.29880723  0.64662252],1,1,1,0.499931719,0,0,0,0.580392922,0.477071654,0.096622113,0.573693768,0.380449541,nan,nan,nan,[ nan  nan  nan],nan,nan,nan,828.6223395,1028.629793,1029.129725,nan,nan
0,172,19:44:28:016000,6,0,161,113.203125,[ 1.         -0.22315835  0.16749055],0,0,1,0.494095799,0,0,0,0.526586891,0.477204562,0.096356501,0.573561063,0.380848061,nan,nan,nan,[ nan  nan  nan],nan,nan,nan,828.6223395,1029.571587,1030.065683,nan,nan
0,173,19:44:28:952000,6,1,321,225.703125,[-0.09994335  0.43654647  0.39117498],1,1,1,0.392289628,0,0,0,0.462105715,0.477302199,0.096086143,0.573388342,0.381216056,nan,nan,nan,[ nan  nan  nan],nan,nan,nan,828.6223395,1030.513377,1030.905666,nan,nan
0,174,19:44:29:888000,6,1,195,137.109375,[ 1.         -0.04692453  0.44239605],1,1,1,0.38649134,0,0,0,0.424292256,0.476813621,0.096024907,0.572838529,0.380788714,nan,nan,nan,[ nan  nan  nan],nan,nan,nan,828.6223395,1031.455167,1031.841658,nan,nan
0,175,19:44:30:839000,6,1,491,345.234375,[ 0.67303348  0.29270771 -1.        ],1,1,1,0.396659584,0,0,0,0.391813517,0.476297494,0.095991896,0.57228939,0.380305598,nan,nan,nan,[ nan  nan  nan],nan,nan,nan,828.6223395,1032.396962,1032.793621,nan,nan
0,176,19:44:31:775000,6,1,58,40.78125,[ 1.         -0.07608966 -1.        ],1,1,1,0.326854615,0,1,0,0.370001846,0.475845006,0.095905786,0.571750791,0.37993922,nan,nan,nan,[ nan  nan  nan],nan,nan,nan,828.6223395,1033.338755,1033.66561,nan,nan
0,177,19:44:38:936000,6,1,301,211.640625,[ 0.03515994  0.39804276  0.52341451],1,1,1,0.457052384,1,0,0,0.393522194,0.475003252,0.09628426,0.571287512,0.378718992,nan,-132.4595326,316,[-0.07182156  0.42820351  0.42789226],nan,10.8189076,4.167549942,828.6223395,1034.280539,1034.737591,1036.105739,1040.281312
0,178,19:44:39:872000,6,1,142,99.84375,[ 1.         -0.28956812 -0.01462735],1,1,1,0.705580788,0,0,0,0.496495929,0.474902404,0.096022792,0.570925196,0.378879613,nan,nan,nan,[ nan  nan  nan],nan,nan,nan,828.6223395,1041.439838,1042.145419,nan,nan
0,179,19:44:40:823000,6,1,37,26.015625,[ 1.          0.03585655 -1.        ],1,1,1,0.57975098,0,0,0,0.580794717,0.47619111,0.097285569,0.573476679,0.378905542,nan,nan,nan,[ nan  nan  nan],nan,nan,nan,828.6223395,1042.381636,1042.961387,nan,nan
0,180,19:44:41:759000,6,1,190,133.59375,[ 1.         -0.07468844  0.40739964],1,1,1,0.541941796,0,0,1,0.609091188,0.476766443,0.097319843,0.574086286,0.3794466,nan,nan,nan,[ nan  nan  nan],nan,nan,nan,828.6223395,1043.323427,1043.865369,nan,nan
0,181,19:44:46:377000,6,1,12,8.4375,[ 0.94247669  0.15927395 -1.        ],1,1,1,0.440127643,1,0,0,0.520606807,0.477126528,0.097170798,0.574297326,0.37995573,nan,72.79513962,24,[ 1.          0.10201906 -1.        ],nan,8.767360375,1.633933528,828.6223395,1044.265223,1044.70535,1046.090401,1047.732327
0,182,19:44:47:313000,6,1,436,306.5625,[ 0.22868171  0.43141373 -1.        ],1,1,1,0.566750875,0,0,0,0.516273438,0.476923237,0.096942066,0.573865303,0.379981171,nan,nan,nan,[ nan  nan  nan],nan,nan,nan,828.6223395,1048.8825,1049.449251,nan,nan
0,183,19:44:48:265000,6,1,285,200.390625,[ 0.17873435  0.35687868  0.59852701],1,1,1,0.48092264,0,0,0,0.495933719,0.477414099,0.096903366,0.574317464,0.380510733,nan,nan,nan,[ nan  nan  nan],nan,nan,nan,828.6223395,1049.824296,1050.305218,nan,nan
0,184,19:44:49:201000,6,1,474,333.28125,[ 0.53090176  0.34654538 -1.        ],1,1,1,0.571108001,0,0,0,0.539593839,0.477433167,0.096640027,0.574073194,0.38079314,nan,nan,nan,[ nan  nan  nan],nan,nan,nan,828.6223395,1050.76609,1051.337198,nan,nan
0,185,19:44:50:152000,6,1,387,272.109375,[-0.07872193  0.47723176 -0.25697445],1,1,1,0.605326682,0,0,0,0.552452441,0.477939517,0.096622916,0.574562434,0.381316601,nan,nan,nan,[ nan  nan  nan],nan,nan,nan,828.6223395,1051.707859,1052.313185,nan,nan
0,186,19:44:51:088000,6,1,21,14.765625,[ 1.        0.116714 -1.      ],1,1,1,0.51148154,0,0,0,0.562638741,0.478624395,0.096812034,0.575436429,0.38181236,nan,nan,nan,[ nan  nan  nan],nan,nan,nan,828.6223395,1052.649675,1053.161156,nan,nan
0,187,19:44:52:024000,6,1,372,261.5625,[-0.13866002  0.47845887 -0.08881238],1,1,1,0.44167315,0,0,0,0.519493791,0.478800101,0.096582564,0.575382665,0.382217537,nan,nan,nan,[ nan  nan  nan],nan,nan,nan,828.6223395,1053.591465,1054.033138,nan,nan
0,188,19:44:52:976000,6,1,136,95.625,[ 1.         -0.3019149  -0.07484121],1,1,1,0.523901759,0,0,0,0.49235215,0.478602617,0.096363201,0.574965819,0.382239416,nan,nan,nan,[ nan  nan  nan],nan,nan,nan,828.6223395,1054.53324,1055.057142,nan,nan
0,189,19:44:53:912000,6,1,204,143.4375,[ 1.          0.00303257  0.49965442],1,1,1,0.446043106,0,0,0,0.470539338,0.478842295,0.096164103,0.575006399,0.382678192,nan,nan,nan,[ nan  nan  nan],nan,nan,nan,828.6223395,1055.475052,1055.921095,nan,nan
0,190,19:44:54:848000,6,1,284,199.6875,[ 0.18846515  0.3539841   0.60223628],1,1,1,0.440218874,0,0,0,0.47005458,0.478669668,0.095940064,0.574609732,0.382729605,nan,nan,nan,[ nan  nan  nan],nan,nan,nan,828.6223395,1056.41685,1056.857069,nan,nan
0,191,19:44:55:799000,6,1,474,333.28125,[ 0.53090176  0.34654538 -1.        ],1,1,1,0.410425173,0,0,0,0.432229051,0.478468355,0.095728809,0.574197164,0.382739546,nan,nan,nan,[ nan  nan  nan],nan,nan,nan,828.6223395,1057.358638,1057.769063,nan,nan
0,192,19:44:56:735000,6,1,237,166.640625,[ 0.6863873   0.17403185  0.63634982],1,1,1,0.444595387,0,0,0,0.431746478,0.478113964,0.095604728,0.573718691,0.382509236,nan,nan,nan,[ nan  nan  nan],nan,nan,nan,828.6223395,1058.300432,1058.745028,nan,nan
0,193,19:44:57:687000,6,1,407,286.171875,[ 0.03058863  0.46645515 -0.50257741],1,1,1,0.566779384,0,0,0,0.473933315,0.477940292,0.095387086,0.573327378,0.382553206,nan,nan,nan,[ nan  nan  nan],nan,nan,nan,828.6223395,1059.242222,1059.809001,nan,nan
0,194,19:44:58:623000,6,1,104,73.125,[ 1.         -0.28235148 -0.41264457],1,1,1,0.60096756,0,0,0,0.537447444,0.478398226,0.095353387,0.573751612,0.383044839,nan,nan,nan,[ nan  nan  nan],nan,nan,nan,828.6223395,1060.184018,1060.784985,nan,nan
0,195,19:44:59:559000,6,1,163,114.609375,[ 1.         -0.2142478   0.18572368],1,1,1,0.643146414,0,0,1,0.603631119,0.479026786,0.095510672,0.574537458,0.383516114,nan,nan,nan,[ nan  nan  nan],nan,nan,nan,828.6223395,1061.12581,1061.768957,nan,nan
0,196,19:45:05:347000,6,1,428,300.9375,[ 0.17037832  0.44348657 -0.8686614 ],1,1,1,0.693321648,1,0,0,0.645811874,0.479864131,0.095981612,0.575845743,0.383882519,nan,150.2899914,426,[ 0.15619305  0.44621085 -0.8148597 ],nan,-1.227491358,2.792313633,828.6223395,1062.067606,1062.760928,1063.901141,1066.7015
0,197,19:45:06:283000,6,1,66,46.40625,[ 1.         -0.11856871 -1.        ],1,1,1,0.653094278,0,0,0,0.663187447,0.480947672,0.096932048,0.57787972,0.384015624,nan,nan,nan,[ nan  nan  nan],nan,nan,nan,828.6223395,1067.851704,1068.504798,nan,nan
0,198,19:45:07:234000,6,1,183,128.671875,[ 1.         -0.113109    0.35490284],1,1,1,0.591259746,0,0,0,0.645891891,0.481817099,0.097453996,0.579271095,0.384363104,nan,nan,nan,[ nan  nan  nan],nan,nan,nan,828.6223395,1068.793522,1069.384782,nan,nan
0,199,19:45:08:170000,6,1,338,237.65625,[-0.16289136  0.45892871  0.25039916],1,1,1,0.577468499,0,0,1,0.607274175,0.482367062,0.097516374,0.579883436,0.384850688,nan,nan,nan,[ nan  nan  nan],nan,nan,nan,828.6223395,1069.735295,1070.312764,nan,nan
0,200,19:45:15:190000,6,1,170,119.53125,[ 1.         -0.18099048  0.24781506],1,1,1,0.539638504,1,0,0,0.569455583,0.48284257,0.097503289,0.580345858,0.385339281,nan,-27.55281158,167,[ 1.         -0.19560581  0.22154672],nan,-1.978438423,4.042480771,828.6223395,1070.677087,1071.216726,1072.49396,1076.544531
0,201,19:45:16:126000,6,1,220,154.6875,[ 0.86173155  0.08932726  0.58124768],1,1,1,0.641829554,0,0,0,0.586312186,0.483125136,0.097342499,0.580467635,0.385782637,nan,nan,nan,[ nan  nan  nan],nan,nan,nan,828.6223395,1077.694739,1078.336568,nan,nan
0,202,19:45:17:078000,6,1,3,2.109375,[ 0.87108718  0.19933511 -1.        ],1,1,1,0.604034626,0,0,0,0.595167561,0.483910802,0.097738041,0.581648843,0.386172761,nan,nan,nan,[ nan  nan  nan],nan,nan,nan,828.6223395,1078.636513,1079.240547,nan,nan
0,203,19:45:18:014000,6,1,466,327.65625,[ 0.46478901  0.3683856  -1.        ],1,1,1,0.566248535,0,0,1,0.604037572,0.484502545,0.097859078,0.582361623,0.386643466,nan,nan,nan,[ nan  nan  nan],nan,nan,nan,828.6223395,1079.578277,1080.144526,nan,nan
0,204,19:45:27:046000,6,1,194,136.40625,[ 1.         -0.05248646  0.4355717 ],1,1,1,0.528439066,1,0,0,0.566240742,0.48490326,0.097785747,0.582689008,0.387117513,nan,-26.69153172,166,[ 1.         -0.20036215  0.21267421],nan,-19.71471828,6.042795232,828.6223395,1080.520069,1081.048508,1082.336919,1088.387747
0,205,19:45:27:998000,6,1,311,218.671875,[-0.03972498  0.41902022  0.46225021],1,1,1,0.6137011,0,0,0,0.5694629,0.48511563,0.097594102,0.582709733,0.387521528,nan,nan,nan,[ nan  nan  nan],nan,nan,nan,828.6223395,1089.554605,1090.168307,nan,nan
0,206,19:45:28:934000,6,1,396,278.4375,[-0.03301537  0.47368488 -0.36352378],1,1,1,0.487869581,0,0,0,0.543336582,0.485739832,0.097766285,0.583506116,0.387973547,nan,nan,nan,[ nan  nan  nan],nan,nan,nan,828.6223395,1090.496401,1090.98427,nan,nan
0,207,19:45:29:870000,6,1,194,136.40625,[ 1.         -0.05248646  0.4355717 ],1,1,1,0.594090467,0,0,0,0.565220383,0.48575012,0.09752996,0.583280081,0.38822016,nan,nan,nan,[ nan  nan  nan],nan,nan,nan,828.6223395,1091.438156,1092.032247,nan,nan
0,208,19:45:30:822000,6,1,449,315.703125,[ 0.32809501  0.40764625 -1.        ],1,1,1,0.588216914,0,0,0,0.556725654,0.486270987,0.097583408,0.583854395,0.388687579,nan,nan,nan,[ nan  nan  nan],nan,nan,nan,828.6223395,1092.380006,1092.968223,nan,nan
0,209,19:45:31:758000,6,1,50,35.15625,[ 1.         -0.03314873 -1.        ],1,1,1,0.478456272,0,0,0,0.553587884,0.486758767,0.097603527,0.584362294,0.38915524,nan,nan,nan,[ nan  nan  nan],nan,nan,nan,828.6223395,1093.321746,1093.800203,nan,nan
0,210,19:45:32:709000,6,1,412,289.6875,[ 0.06188912  0.46209661 -0.57115894],1,1,1,0.4166072,0,0,0,0.494426795,0.486719231,0.097372538,0.584091769,0.389346693,nan,nan,nan,[ nan  nan  nan],nan,nan,nan,828.6223395,1094.263577,1094.680184,nan,nan
0,211,19:45:33:645000,6,1,492,345.9375,[ 0.68140332  0.28922202 -1.        ],1,1,1,0.394808454,0,0,0,0.429957309,0.486386947,0.097260795,0.583647742,0.389126152,nan,nan,nan,[ nan  nan  nan],nan,nan,nan,828.6223395,1095.205364,1095.600172,nan,nan
0,212,19:45:34:581000,6,1,204,143.4375,[ 1.          0.00303257  0.49965442],1,1,1,0.396979462,0,0,0,0.402798372,0.485954973,0.097233812,0.583188784,0.388721161,nan,nan,nan,[ nan  nan  nan],nan,nan,nan,828.6223395,1096.147162,1096.544142,nan,nan
0,213,19:45:35:533000,6,1,462,324.84375,[ 0.43208968  0.37848636 -1.        ],1,1,1,0.399190954,0,0,0,0.396992957,0.485537247,0.097195782,0.582733029,0.388341465,nan,nan,nan,[ nan  nan  nan],nan,nan,nan,828.6223395,1097.088953,1097.488144,nan,nan
0,214,19:45:36:469000,6,1,383,269.296875,[-0.09687871  0.47813121 -0.21108141],1,1,1,0.593365753,0,0,0,0.463178723,0.48513376,0.097147063,0.582280823,0.387986696,nan,nan,nan,[ nan  nan  nan],nan,nan,nan,828.6223395,1098.030743,1098.624109,nan,nan
0,215,19:45:37:405000,6,1,476,334.6875,[ 0.54754504  0.34073938 -1.        ],1,1,1,0.555555144,0,0,0,0.516037283,0.485637164,0.097200244,0.582837408,0.388436921,nan,nan,nan,[ nan  nan  nan],nan,nan,nan,828.6223395,1098.972542,1099.528097,nan,nan
0,216,19:45:38:356000,6,1,161,113.203125,[ 1.         -0.22315835  0.16749055],1,1,1,0.525700432,0,0,0,0.558207109,0.485960859,0.097091063,0.583051921,0.388869796,nan,nan,nan,[ nan  nan  nan],nan,nan,nan,828.6223395,1099.914369,1100.44007,nan,nan
0,217,19:45:39:292000,6,1,265,186.328125,[ 0.38425915  0.29156831  0.64947886],1,1,1,0.511929426,0,0,0,0.531061667,0.48614399,0.096904477,0.583048467,0.389239514,nan,nan,nan,[ nan  nan  nan],nan,nan,nan,828.6223395,1100.856117,1101.368046,nan,nan
0,218,19:45:40:244000,6,0,477,335.390625,[ 0.55587987  0.33778403 -1.        ],0,0,1,0.482114913,0,0,0,0.50658159,0.486262272,0.096697663,0.582959935,0.38956461,nan,nan,nan,[ nan  nan  nan],nan,nan,nan,828.6223395,1101.797911,1102.280026,nan,nan
0,219,19:45:41:180000,6,1,245,172.265625,[ 0.6005777   0.21061011  0.65017283],1,1,1,0.492288003,0,0,0,0.495444114,0.486243335,0.096477044,0.582720379,0.38976629,nan,nan,nan,[ nan  nan  nan],nan,nan,nan,828.6223395,1102.739713,1103.232001,nan,nan
0,220,19:45:42:116000,6,1,112,78.75,[ 1.         -0.30050152 -0.32532486],1,1,1,0.582484768,0,0,0,0.518962561,0.48627081,0.096258387,0.582529198,0.390012423,nan,nan,nan,[ nan  nan  nan],nan,nan,nan,828.6223395,1103.681499,1104.263983,nan,nan
0,221,19:45:43:068000,6,1,347,243.984375,[-0.17493884  0.46723881  0.16715748],1,1,1,0.45667121,0,0,0,0.510481327,0.486706168,0.096257202,0.582963369,0.390448966,nan,nan,nan,[ nan  nan  nan],nan,nan,nan,828.6223395,1104.623275,1105.079947,nan,nan
0,222,19:45:44:004000,6,1,457,321.328125,[ 0.39163925  0.39035818 -1.        ],1,1,1,0.442846321,0,0,0,0.494000767,0.486570875,0.096061219,0.582632094,0.390509656,nan,nan,nan,[ nan  nan  nan],nan,nan,nan,828.6223395,1105.565082,1106.007928,nan,nan
0,223,19:45:44:940000,6,0,115,80.859375,[ 1.         -0.30516629 -0.29317275],0,0,1,0.477025089,0,0,0,0.45884754,0.486374801,0.095890107,0.582264908,0.390484694,nan,nan,nan,[ nan  nan  nan],nan,nan,nan,828.6223395,1106.506875,1106.9839,nan,nan
0,224,19:45:45:891000,6,1,26,18.28125,[ 1.          0.09209217 -1.        ],1,nan,nan,nan,0,0,0,0.459935705,0.486333061,0.095677857,0.582010918,0.390655204,nan,nan,nan,[ nan  nan  nan],nan,nan,nan,828.6223395,1107.448704,nan,nan,nan
0,225,19:45:46:827000,6,1,166,116.71875,[ 1.         -0.20036215  0.21267421],1,1,1,0.473419191,0,0,0,0.47522214,0.486333061,0.095677857,0.582010918,0.390655204,nan,nan,nan,[ nan  nan  nan],nan,nan,nan,828.6223395,1108.390462,1108.863881,nan,nan
0,226,19:45:47:763000,6,1,506,355.78125,[ 0.79777474  0.23670313 -1.        ],1,1,1,0.403562905,0,0,0,0.438491048,0.486275666,0.095468868,0.581744534,0.390806798,nan,nan,nan,[ nan  nan  nan],nan,nan,nan,828.6223395,1109.332281,1109.735844,nan,nan
0,227,19:45:48:715000,6,1,152,106.875,[ 1.         -0.25918449  0.08306255],1,1,1,0.429997602,0,0,0,0.4356599,0.48590968,0.095415479,0.58132516,0.390494201,nan,nan,nan,[ nan  nan  nan],nan,nan,nan,828.6223395,1110.274043,1110.70404,nan,nan
0,228,19:45:49:651000,6,1,356,250.3125,[-0.17284378  0.47323941  0.07883681],1,1,1,0.471969191,0,0,0,0.435176566,0.485663372,0.095277061,0.580940433,0.39038631,nan,nan,nan,[ nan  nan  nan],nan,nan,nan,828.6223395,1111.215841,1111.68781,nan,nan
0,229,19:45:50:602000,6,1,99,69.609375,[ 1.         -0.26717627 -0.4687933 ],1,1,1,0.450158186,0,0,0,0.450708326,0.485603309,0.095072198,0.580675507,0.390531112,nan,nan,nan,[ nan  nan  nan],nan,nan,nan,828.6223395,1112.157629,1112.607787,nan,nan
0,230,19:45:51:538000,6,1,311,218.671875,[-0.03972498  0.41902022  0.46225021],1,1,1,0.452334326,0,0,0,0.458153901,0.485448527,0.094893175,0.580341702,0.390555352,nan,nan,nan,[ nan  nan  nan],nan,nan,nan,828.6223395,1113.099428,1113.551762,nan,nan
0,231,19:45:52:474000,6,1,255,179.296875,[ 0.49215936  0.25301719  0.65616311],1,1,1,0.446533472,0,0,0,0.449675328,0.485304552,0.094711724,0.580016276,0.390592829,nan,nan,nan,[ nan  nan  nan],nan,nan,nan,828.6223395,1114.041215,1114.487749,nan,nan
0,232,19:45:53:426000,6,1,388,272.8125,[-0.07396337  0.47694192 -0.26857716],1,1,1,0.496687894,0,0,0,0.46518523,0.485136712,0.09454077,0.579677483,0.390595942,nan,nan,nan,[ nan  nan  nan],nan,nan,nan,828.6223395,1114.983015,1115.479703,nan,nan
0,233,19:45:54:362000,6,1,272,191.25,[ 0.3101667   0.31621412  0.63728143],1,1,1,0.578878585,0,0,0,0.50736665,0.485186502,0.094339834,0.579526336,0.390846668,nan,nan,nan,[ nan  nan  nan],nan,nan,nan,828.6223395,1115.924801,1116.50368,nan,nan
0,234,19:45:55:298000,6,1,139,97.734375,[ 1.         -0.29633561 -0.04459929],1,1,1,0.597115909,0,0,0,0.557560796,0.485588614,0.094336206,0.57992482,0.391252408,nan,nan,nan,[ nan  nan  nan],nan,nan,nan,828.6223395,1116.866552,1117.463668,nan,nan
0,235,19:45:56:250000,6,1,428,300.9375,[ 0.17037832  0.44348657 -0.8686614 ],1,1,1,0.599250995,0,0,1,0.591748496,0.486065226,0.094415129,0.580480356,0.391650097,nan,nan,nan,[ nan  nan  nan],nan,nan,nan,828.6223395,1117.808384,1118.407635,nan,nan
0,236,19:46:02:724000,6,0,90,63.28125,[ 1.         -0.23363579 -0.57497187],0,0,1,0.513442717,1,0,0,0.56993654,0.486546868,0.094501676,0.581048544,0.392045191,nan,17.80927875,103,[ 1.         -0.27953747 -0.42375884],nan,8.909471246,3.492431692,828.6223395,1118.750176,1119.263619,1120.575355,1124.075873
0,237,19:46:03:660000,6,1,430,302.34375,[ 0.18472502  0.44064573 -0.94190417],1,1,1,0.581440175,0,0,0,0.564711296,0.486660833,0.09431743,0.580978263,0.392343403,nan,nan,nan,[ nan  nan  nan],nan,nan,nan,828.6223395,1125.226037,1125.807478,nan,nan
0,238,19:46:04:611000,6,1,471,331.171875,[ 0.50601401  0.35499378 -1.        ],1,1,1,0.503614023,0,0,0,0.532832305,0.487060746,0.094318536,0.581379282,0.39274221,nan,nan,nan,[ nan  nan  nan],nan,nan,nan,828.6223395,1126.167835,1126.671449,nan,nan
0,239,19:46:05:547000,6,1,111,78.046875,[ 1.         -0.29867781 -0.33610624],1,1,1,0.601807453,0,0,0,0.562287217,0.487130298,0.09412627,0.581256567,0.393004028,nan,nan,nan,[ nan  nan  nan],nan,nan,nan,828.6223395,1127.109634,1127.711442,nan,nan
0,240,19:46:06:483000,6,1,278,195.46875,[ 0.24828552  0.33580281  0.62196257],1,1,1,0.507981698,0,0,0,0.537801058,0.487610118,0.094220374,0.581830492,0.393389745,nan,nan,nan,[ nan  nan  nan],nan,nan,nan,828.6223395,1128.051415,1128.559397,nan,nan
0,241,19:46:07:435000,6,0,498,350.15625,[ 0.73150794  0.26756188 -1.        ],0,0,1,0.518179022,0,0,0,0.542656058,0.487695,0.094033033,0.581728033,0.393661967,nan,nan,nan,[ nan  nan  nan],nan,nan,nan,828.6223395,1128.993209,1129.511388,nan,nan
0,242,19:46:08:371000,6,1,202,142.03125,[ 1.         -0.00802826  0.48759698],1,1,1,0.456365587,0,0,0,0.494175436,0.48782149,0.093858199,0.581679689,0.393963291,nan,nan,nan,[ nan  nan  nan],nan,nan,nan,828.6223395,1129.935005,1130.391371,nan,nan
0,243,19:46:09:322000,6,1,488,343.125,[ 0.64790771  0.30295149 -1.        ],1,1,1,0.42654024,0,0,0,0.467028283,0.487691507,0.09368581,0.581377317,0.394005696,nan,nan,nan,[ nan  nan  nan],nan,nan,nan,828.6223395,1130.876798,1131.303339,nan,nan
0,244,19:46:10:258000,6,0,391,274.921875,[-0.0591908   0.47591628 -0.30371871],0,0,1,0.484730956,0,0,0,0.455878928,0.487439855,0.093574767,0.581014622,0.393865088,nan,nan,nan,[ nan  nan  nan],nan,nan,nan,828.6223395,1131.818596,1132.303327,nan,nan
0,245,19:46:11:194000,6,1,274,192.65625,[ 0.28934405  0.32290089  0.63267027],1,1,1,0.358926236,0,0,0,0.423399144,0.487428753,0.093382979,0.580811732,0.394045774,nan,nan,nan,[ nan  nan  nan],nan,nan,nan,828.6223395,1132.760384,1133.119311,nan,nan
0,246,19:46:12:146000,6,1,476,334.6875,[ 0.54754504  0.34073938 -1.        ],1,1,1,0.457110544,0,0,0,0.433589245,0.486904253,0.093551653,0.580455906,0.3933526,nan,nan,nan,[ nan  nan  nan],nan,nan,nan,828.6223395,1133.70218,1134.159291,nan,nan
0,247,19:46:13:082000,6,1,86,60.46875,[ 1.         -0.21659106 -0.6256178 ],1,1,1,0.467301595,0,0,0,0.427779458,0.486783141,0.093380558,0.580163699,0.393402582,nan,nan,nan,[ nan  nan  nan],nan,nan,nan,828.6223395,1134.643965,1135.111267,nan,nan
0,248,19:46:14:018000,6,1,183,128.671875,[ 1.         -0.113109    0.35490284],1,1,1,0.453474426,0,0,0,0.459295521,0.486704268,0.093199548,0.579903815,0.39350472,nan,nan,nan,[ nan  nan  nan],nan,nan,nan,828.6223395,1135.585762,1136.039236,nan,nan
0,249,19:46:14:970000,6,1,460,323.4375,[ 0.41584892  0.38333493 -1.        ],1,1,1,0.47165473,0,0,0,0.464143584,0.486570277,0.093035291,0.579605568,0.393534985,nan,nan,nan,[ nan  nan  nan],nan,nan,nan,828.6223395,1136.527548,1136.999203,nan,nan
0,250,19:46:15:906000,6,1,429,301.640625,[ 0.17753182  0.44208078 -0.9018852 ],1,1,1,0.417852501,0,0,0,0.447660552,0.486510375,0.092853077,0.579363452,0.393657297,nan,nan,nan,[ nan  nan  nan],nan,nan,nan,828.6223395,1137.469341,1137.887194,nan,nan
0,251,19:46:16:857000,6,1,156,109.6875,[ 1.         -0.24406061  0.12104147],1,1,1,0.484029334,0,0,0,0.457845522,0.486235743,0.092768461,0.579004204,0.393467282,nan,nan,nan,[ nan  nan  nan],nan,nan,nan,828.6223395,1138.411138,1138.895167,nan,nan
0,252,19:46:17:793000,6,1,117,82.265625,[ 1.         -0.30758797 -0.27188654],1,1,1,0.430224824,0,0,0,0.444035553,0.486226953,0.092583583,0.578810536,0.393643369,nan,nan,nan,[ nan  nan  nan],nan,nan,nan,828.6223395,1139.352925,1139.78315,nan,nan
0,253,19:46:18:729000,6,0,188,132.1875,[ 1.         -0.08573935  0.39280429],0,0,1,0.696388714,0,0,0,0.536880957,0.486004722,0.092466757,0.578471479,0.393537965,nan,nan,nan,[ nan  nan  nan],nan,nan,nan,828.6223395,1140.294721,1140.99111,nan,nan
0,254,19:46:19:681000,6,1,453,318.515625,[ 0.35967042  0.39926175 -1.        ],1,1,1,0.514598783,0,0,0,0.547070774,0.486836279,0.093223179,0.580059459,0.3936131,nan,nan,nan,[ nan  nan  nan],nan,nan,nan,828.6223395,1141.236511,1141.75111,nan,nan
0,255,19:46:20:617000,6,1,267,187.734375,[ 0.36292453  0.29880723  0.64662252],1,1,1,0.452784778,0,0,0,0.554590758,0.486945581,0.09305573,0.58000131,0.393889851,nan,nan,nan,[ nan  nan  nan],nan,nan,nan,828.6223395,1142.178306,1142.631091,nan,nan
0,256,19:46:21:553000,6,1,322,226.40625,[-0.10506723  0.43811622  0.38355935],1,1,1,0.654985322,0,0,0,0.540789627,0.486811617,0.092897626,0.579709243,0.393913991,nan,nan,nan,[ nan  nan  nan],nan,nan,nan,828.6223395,1143.120093,1143.775079,nan,nan
0,257,19:46:22:504000,6,1,24,16.875,[ 1.          0.10201906 -1.        ],1,1,1,0.569158798,0,0,0,0.558976299,0.487468545,0.093307581,0.580776126,0.394160964,nan,nan,nan,[ nan  nan  nan],nan,nan,nan,828.6223395,1144.061887,1144.631046,nan,nan
0,258,19:46:23:440000,6,1,250,175.78125,[ 0.54642845  0.23228666  0.65474773],1,1,1,0.579341582,0,0,1,0.6011619,0.487786406,0.09326464,0.581051046,0.394521766,nan,nan,nan,[ nan  nan  nan],nan,nan,nan,828.6223395,1145.003683,1145.583025,nan,nan
0,259,19:46:29:259000,6,1,446,313.59375,[ 0.30469626  0.41359904 -1.        ],1,1,1,0.501526833,1,0,0,0.550009071,0.488141271,0.0932574,0.581398671,0.394883872,nan,136.5911403,446,[ 0.30469626  0.41359904 -1.        ],nan,-0.184890271,2.834095063,828.6223395,1145.945472,1146.446999,1147.762323,1150.604363
0,260,19:46:30:195000,6,0,314,220.78125,[-0.05944389  0.42463231  0.44192541],0,1,0,0.579938003,0,0,0,0.553602139,0.488192953,0.093080894,0.581273846,0.395112059,nan,nan,nan,[ nan  nan  nan],nan,nan,nan,828.6223395,1151.762922,1152.34286,nan,nan
0,261,19:46:31:147000,6,1,58,40.78125,[ 1.         -0.07608966 -1.        ],1,1,1,0.638127579,0,0,0,0.573197472,0.488545818,0.093075124,0.581620942,0.395470695,nan,nan,nan,[ nan  nan  nan],nan,nan,nan,828.6223395,1152.704714,1153.342841,nan,nan
0,262,19:46:32:083000,6,1,505,355.078125,[ 0.78953796  0.24068314 -1.        ],1,1,1,0.568309211,0,0,0,0.595458264,0.489118929,0.093355158,0.582474087,0.395763771,nan,nan,nan,[ nan  nan  nan],nan,nan,nan,828.6223395,1153.646499,1154.214808,nan,nan
0,263,19:46:33:034000,6,1,431,303.046875,[ 0.19195726  0.43918129 -0.98229877],1,1,1,0.5625018,0,0,1,0.589646196,0.489421182,0.093304692,0.582725874,0.396116489,nan,nan,nan,[ nan  nan  nan],nan,nan,nan,828.6223395,1154.588293,1155.150795,nan,nan
0,264,19:46:39:399000,6,1,335,235.546875,[-0.15559599  0.45562772  0.27689323],1,1,1,0.636669026,1,0,0,0.589160012,0.489699055,0.093235689,0.582934744,0.396463365,nan,-155.8104858,350,[-0.17575682  0.46949094  0.13824748],nan,10.26361085,3.375734658,828.6223395,1155.530087,1156.166757,1157.363624,1160.747394
0,265,19:46:40:335000,6,1,80,56.25,[ 1.         -0.18907571 -0.70896555],1,1,1,0.64499954,0,0,0,0.614723455,0.490255759,0.093495856,0.583751615,0.396759903,nan,nan,nan,[ nan  nan  nan],nan,nan,nan,828.6223395,1161.897626,1162.542625,nan,nan
0,266,19:46:41:287000,6,1,418,293.90625,[ 0.10117589  0.45596175 -0.66167931],1,1,1,0.534883383,0,0,0,0.605517316,0.490839698,0.093800364,0.584640062,0.397039334,nan,nan,nan,[ nan  nan  nan],nan,nan,nan,828.6223395,1162.847726,1163.382609,nan,nan
0,267,19:46:42:223000,6,0,279,196.171875,[ 0.23815758  0.33893035  0.61897842],0,0,1,0.481065473,0,0,0,0.553649465,0.491005276,0.093662673,0.584667949,0.397342602,nan,nan,nan,[ nan  nan  nan],nan,nan,nan,828.6223395,1163.789522,1164.270587,nan,nan
0,268,19:46:43:174000,6,1,3,2.109375,[ 0.87108718  0.19933511 -1.        ],1,1,1,0.531231299,0,0,0,0.515726718,0.490968048,0.093489082,0.58445713,0.397478966,nan,nan,nan,[ nan  nan  nan],nan,nan,nan,828.6223395,1164.731322,1165.262553,nan,nan
0,269,19:46:44:110000,6,1,339,238.359375,[-0.16495584  0.45996923  0.2414231 ],1,1,1,0.501431041,0,0,0,0.504575938,0.491118284,0.093346785,0.584465069,0.397771499,nan,nan,nan,[ nan  nan  nan],nan,nan,nan,828.6223395,1165.673107,1166.174539,nan,nan
0,270,19:46:45:062000,6,1,414,291.09375,[ 0.07478379  0.46016219 -0.60008918],1,1,1,0.391616516,0,0,0,0.474759619,0.491156621,0.09317523,0.584331851,0.397981392,nan,nan,nan,[ nan  nan  nan],nan,nan,nan,828.6223395,1166.614902,1167.006519,nan,nan
0,271,19:46:45:998000,6,1,268,188.4375,[ 0.35230222  0.30236752  0.64500531],1,1,1,0.617797933,0,0,0,0.503615163,0.490787954,0.093198876,0.583986831,0.397589078,nan,nan,nan,[ nan  nan  nan],nan,nan,nan,828.6223395,1167.556692,1168.17449,nan,nan
0,272,19:46:46:934000,6,1,166,116.71875,[ 1.         -0.20036215  0.21267421],1,1,1,0.516027685,0,0,0,0.508480711,0.491256626,0.093344979,0.584601605,0.397911647,nan,nan,nan,[ nan  nan  nan],nan,nan,nan,828.6223395,1168.49845,1169.014477,nan,nan
0,273,19:46:47:886000,6,1,95,66.796875,[ 1.         -0.25317502 -0.51497544],1,1,1,0.446174535,0,0,0,0.526666718,0.491347696,0.093185291,0.584532987,0.398162404,nan,nan,nan,[ nan  nan  nan],nan,nan,nan,828.6223395,1169.440276,1169.88645,nan,nan
0,274,19:46:48:822000,6,1,180,126.5625,[ 1.         -0.12927862  0.33123896],1,1,1,0.424365525,0,0,0,0.462189249,0.491182226,0.093054491,0.584236717,0.398127736,nan,nan,nan,[ nan  nan  nan],nan,nan,nan,828.6223395,1170.382068,1170.806434,nan,nan
0,275,19:46:49:758000,6,1,260,182.8125,[ 0.43801664  0.27278198  0.65440657],1,1,1,0.410528092,0,0,0,0.427022718,0.49093837,0.092971876,0.583910246,0.397966494,nan,nan,nan,[ nan  nan  nan],nan,nan,nan,828.6223395,1171.323875,1171.734403,nan,nan
0,276,19:46:50:709000,6,1,325,228.515625,[-0.1194049   0.44263104  0.36018642],1,1,1,0.452751992,0,0,0,0.429215203,0.490645969,0.092928814,0.583574783,0.397717155,nan,nan,nan,[ nan  nan  nan],nan,nan,nan,828.6223395,1172.265655,1172.718407,nan,nan
0,277,19:46:51:645000,6,1,427,300.234375,[ 0.16326517  0.44486322 -0.84020871],1,1,1,0.390938842,0,0,0,0.418072975,0.490508672,0.09278825,0.583296922,0.397720422,nan,nan,nan,[ nan  nan  nan],nan,nan,nan,828.6223395,1173.207426,1173.598365,nan,nan
0,278,19:46:52:597000,6,1,309,217.265625,[-0.02583963  0.41510654  0.4753057 ],1,1,1,0.353100579,0,0,0,0.398930471,0.490149214,0.092812927,0.582962141,0.397336287,nan,nan,nan,[ nan  nan  nan],nan,nan,nan,828.6223395,1174.14924,1174.502341,nan,nan
0,279,19:46:53:533000,6,1,28,19.6875,[ 1.          0.08206613 -1.        ],1,1,1,0.347310273,0,1,0,0.363783231,0.489656233,0.093008453,0.582664686,0.39664778,nan,nan,nan,[ nan  nan  nan],nan,nan,nan,828.6223395,1175.091028,1175.438338,nan,nan
0,280,19:46:58:806000,6,1,406,285.46875,[ 0.02449675  0.4672457  -0.4893661 ],1,1,1,0.373443909,1,0,0,0.357951587,0.489146033,0.093230528,0.582376561,0.395915505,nan,160.1148349,412,[ 0.06188912  0.46209661 -0.57115894],nan,4.416415114,2.292394458,828.6223395,1176.032865,1176.406309,1177.85801,1180.158322
0,281,19:46:59:742000,6,0,195,137.109375,[ 1.         -0.04692453  0.44239605],0,0,1,0.633651567,0,0,0,0.451468583,0.488732811,0.093319498,0.582052308,0.395413313,nan,nan,nan,[ nan  nan  nan],nan,nan,nan,828.6223395,1181.308525,1181.942176,nan,nan
0,282,19:47:00:693000,6,1,152,106.875,[ 1.         -0.25918449  0.08306255],1,1,1,0.571794513,0,0,0,0.526296663,0.489248536,0.093552176,0.582800712,0.39569636,nan,nan,nan,[ nan  nan  nan],nan,nan,nan,828.6223395,1182.250357,1182.822152,nan,nan
0,283,19:47:01:629000,6,1,93,65.390625,[ 1.         -0.2456143  -0.53861988],1,1,1,0.414036772,0,0,0,0.539827618,0.489541252,0.093514978,0.58305623,0.396026274,nan,nan,nan,[ nan  nan  nan],nan,nan,nan,828.6223395,1183.192104,1183.606141,nan,nan
0,284,19:47:02:581000,6,1,227,159.609375,[ 0.79101995  0.12525779  0.60806671],1,1,1,0.352212219,0,0,0,0.446014501,0.489274452,0.093457066,0.582731518,0.395817385,nan,nan,nan,[ nan  nan  nan],nan,nan,nan,828.6223395,1184.133906,1184.486118,nan,nan
0,285,19:47:03:517000,6,1,479,336.796875,[ 0.57257215  0.33176822 -1.        ],1,1,1,0.33840244,0,1,0,0.368217144,0.488791838,0.09364499,0.582436828,0.395146849,nan,nan,nan,[ nan  nan  nan],nan,nan,nan,828.6223395,1185.075698,1185.4141,nan,nan
0,286,19:47:10:958000,6,1,174,122.34375,[ 1.         -0.16079069  0.28198128],1,1,1,0.468583388,1,0,0,0.386399349,0.488264156,0.093902576,0.582166732,0.394361581,nan,-1.117824582,130,[ 1.         -0.30933315 -0.13607149],nan,-31.22592542,4.450998079,828.6223395,1186.01749,1186.486073,1187.842665,1192.3016
0,287,19:47:11:894000,6,0,218,153.28125,[ 0.88146739  0.07882461  0.57255963],0,0,1,0.489766612,0,0,0,0.432250813,0.488195342,0.093745465,0.581940807,0.394449878,nan,nan,nan,[ nan  nan  nan],nan,nan,nan,828.6223395,1193.460142,1193.949909,nan,nan
0,288,19:47:12:846000,6,1,431,303.046875,[ 0.19195726  0.43918129 -0.98229877],1,1,1,0.531936057,0,0,0,0.496762019,0.488200817,0.093582048,0.581782866,0.394618769,nan,nan,nan,[ nan  nan  nan],nan,nan,nan,828.6223395,1194.401938,1194.933874,nan,nan
0,289,19:47:13:782000,6,1,71,49.921875,[ 1.         -0.14450407 -0.87798077],1,1,1,0.5181163,0,0,0,0.51327299,0.488352676,0.093454855,0.581807531,0.39489782,nan,nan,nan,[ nan  nan  nan],nan,nan,nan,828.6223395,1195.343731,1195.861848,nan,nan
0,290,19:47:14:733000,6,1,372,261.5625,[-0.13866002  0.47845887 -0.08881238],1,1,1,0.512298911,0,0,0,0.520783756,0.488455664,0.093309399,0.581765063,0.395146265,nan,nan,nan,[ nan  nan  nan],nan,nan,nan,828.6223395,1196.285526,1196.797825,nan,nan
0,291,19:47:15:669000,6,1,206,144.84375,[ 0.99472346  0.01405192  0.51131616],1,1,1,0.450530806,0,0,0,0.493648673,0.488537882,0.093158867,0.581696749,0.395379015,nan,nan,nan,[ nan  nan  nan],nan,nan,nan,828.6223395,1197.227287,1197.677818,nan,nan
0,292,19:47:16:605000,6,1,78,54.84375,[ 1.         -0.17946765 -0.73990763],1,1,1,0.388690858,0,0,0,0.450506858,0.488407274,0.093025256,0.58143253,0.395382018,nan,nan,nan,[ nan  nan  nan],nan,nan,nan,828.6223395,1198.169106,1198.557797,nan,nan
0,293,19:47:17:557000,6,1,134,94.21875,[ 1.         -0.304951   -0.09514411],1,1,1,0.43887493,0,0,0,0.426032198,0.488065779,0.093048365,0.581114144,0.395017414,nan,nan,nan,[ nan  nan  nan],nan,nan,nan,828.6223395,1199.110893,1199.549768,nan,nan
0,294,19:47:18:493000,6,1,71,49.921875,[ 1.         -0.14450407 -0.87798077],1,1,1,0.352981979,0,1,0,0.393515922,0.487897892,0.092933735,0.580831627,0.394964157,nan,nan,nan,[ nan  nan  nan],nan,nan,nan,828.6223395,1200.052762,1200.405744,nan,nan
0,295,19:47:24:140000,6,1,149,104.765625,[ 1.         -0.26947852  0.05414366],1,1,1,0.403227632,1,0,0,0.398361514,0.487438994,0.09310749,0.580546484,0.394331505,nan,-36.53710886,180,[ 1.         -0.12927862  0.33123896],nan,21.77148386,2.658952437,828.6223395,1200.994486,1201.397714,1202.819689,1205.486681
0,296,19:47:25:092000,6,1,411,288.984375,[ 0.05552017  0.46302271 -0.55705476],1,1,1,0.584367259,0,0,0,0.446858956,0.487153532,0.093078332,0.580231864,0.3940752,nan,nan,nan,[ nan  nan  nan],nan,nan,nan,828.6223395,1206.645238,1207.229605,nan,nan
0,297,19:47:26:028000,6,1,177,124.453125,[ 1.         -0.14519215  0.30692121],1,1,1,0.714533952,0,0,0,0.567376281,0.487481957,0.093092033,0.58057399,0.394389924,nan,nan,nan,[ nan  nan  nan],nan,nan,nan,828.6223395,1207.587038,1208.301572,nan,nan
0,298,19:47:26:964000,6,1,361,253.828125,[-0.16604781  0.47560771  0.02781731],1,1,1,0.572725922,0,0,1,0.623875711,0.488246442,0.093861286,0.582107728,0.394385155,nan,nan,nan,[ nan  nan  nan],nan,nan,nan,828.6223395,1208.528822,1209.101548,nan,nan
0,299,19:47:32:783000,6,1,106,74.53125,[ 1.         -0.28763007 -0.39056445],1,1,1,0.574912326,1,0,0,0.620724067,0.48852993,0.093830944,0.582360874,0.394698986,nan,11.9176759,111,[ 1.         -0.29867781 -0.33610624],nan,3.551074095,2.817316862,828.6223395,1209.470608,1210.045521,1211.304151,1214.129509
0,300,19:47:33:719000,6,1,408,286.875,[ 0.03673793  0.46563766 -0.51593845],1,1,1,0.77366406,0,0,0,0.640434103,0.488818834,0.093806573,0.582625408,0.395012261,nan,nan,nan,[ nan  nan  nan],nan,nan,nan,828.6223395,1215.279726,1216.05339,nan,nan
0,301,19:47:34:670000,6,1,86,60.46875,[ 1.         -0.21659106 -0.6256178 ],1,1,1,0.615853577,0,0,0,0.654809988,0.489768318,0.095078365,0.584846683,0.394689953,nan,nan,nan,[ nan  nan  nan],nan,nan,nan,828.6223395,1216.221515,1216.837368,nan,nan
0,302,19:47:35:606000,6,1,352,247.5,[-0.17544713  0.4708516   0.11867359],1,1,1,0.546027796,0,0,1,0.645181811,0.490187206,0.095197178,0.585384384,0.394990028,nan,nan,nan,[ nan  nan  nan],nan,nan,nan,828.6223395,1217.163306,1217.709334,nan,nan
0,303,19:47:42:813000,6,1,174,122.34375,[ 1.         -0.16079069  0.28198128],1,1,1,0.46821989,1,0,0,0.543367088,0.490372109,0.095093561,0.58546567,0.395278548,nan,-41.65662386,187,[ 1.         -0.09124635  0.38538321],nan,9.312873856,4.225961608,828.6223395,1218.105095,1218.573315,1219.930301,1224.164182
0,304,19:47:43:749000,6,1,218,153.28125,[ 0.88146739  0.07882461  0.57255963],1,1,1,0.634775702,0,0,0,0.549674463,0.490298999,0.094945012,0.585244011,0.395353987,nan,nan,nan,[ nan  nan  nan],nan,nan,nan,828.6223395,1225.314394,1225.94917,nan,nan
0,305,19:47:44:701000,6,1,403,283.359375,[ 0.00657627  0.46945644 -0.45052451],1,1,1,0.50092528,0,0,0,0.534640291,0.490774252,0.095149037,0.585923288,0.395625215,nan,nan,nan,[ nan  nan  nan],nan,nan,nan,828.6223395,1226.256213,1226.757138,nan,nan
0,306,19:47:45:637000,6,1,313,220.078125,[-0.05302215  0.42279583  0.44879796],1,1,1,0.559138519,0,0,0,0.5649465,0.490807534,0.094994699,0.585802233,0.395812834,nan,nan,nan,[ nan  nan  nan],nan,nan,nan,828.6223395,1227.197971,1227.757109,nan,nan
0,307,19:47:46:589000,6,1,450,316.40625,[ 0.33594973  0.40559833 -1.        ],1,1,1,0.43333551,0,0,0,0.497799769,0.491030838,0.0949195,0.585950337,0.396111338,nan,nan,nan,[ nan  nan  nan],nan,nan,nan,828.6223395,1228.13977,1228.573105,nan,nan
0,308,19:47:47:525000,6,0,500,351.5625,[ 0.74814593  0.26005829 -1.        ],0,0,1,0.491526796,0,0,0,0.494666942,0.490842905,0.094821787,0.585664692,0.396021118,nan,nan,nan,[ nan  nan  nan],nan,nan,nan,828.6223395,1229.081549,1229.573075,nan,nan
0,309,19:47:48:461000,6,1,281,197.578125,[ 0.2180834   0.34506839  0.61264442],1,1,1,0.445693863,0,0,0,0.456852056,0.490845125,0.094667739,0.585512864,0.396177387,nan,nan,nan,[ nan  nan  nan],nan,nan,nan,828.6223395,1230.023355,1230.469049,nan,nan
0,310,19:47:49:412000,6,0,220,154.6875,[ 0.86173155  0.08932726  0.58124768],0,0,1,0.655906183,0,0,0,0.531042281,0.490699005,0.094549213,0.585248218,0.396149791,nan,nan,nan,[ nan  nan  nan],nan,nan,nan,828.6223395,1230.965118,1231.621024,nan,nan
0,311,19:47:50:348000,6,1,507,356.484375,[ 0.80599565  0.23268835 -1.        ],1,1,1,0.482077565,0,0,0,0.527892537,0.491231931,0.094860296,0.586092227,0.396371635,nan,nan,nan,[ nan  nan  nan],nan,nan,nan,828.6223395,1231.906937,1232.389014,nan,nan
0,312,19:47:51:284000,6,1,139,97.734375,[ 1.         -0.29633561 -0.04459929],1,1,1,0.420256148,0,0,0,0.519413298,0.491202496,0.094709083,0.585911578,0.396493413,nan,nan,nan,[ nan  nan  nan],nan,nan,nan,828.6223395,1232.848729,1233.268985,nan,nan
0,313,19:47:52:236000,6,1,318,223.59375,[-0.08356276  0.43164026  0.41348156],1,1,1,0.598414237,0,0,0,0.500249317,0.490975104,0.094642178,0.585617282,0.396332926,nan,nan,nan,[ nan  nan  nan],nan,nan,nan,828.6223395,1233.790542,1234.388957,nan,nan
0,314,19:47:53:172000,6,1,107,75.234375,[ 1.         -0.29008977 -0.37959278],1,1,1,0.616618775,0,0,0,0.545096387,0.49131836,0.094685195,0.586003554,0.396633165,nan,nan,nan,[ nan  nan  nan],nan,nan,nan,828.6223395,1234.732311,1235.34893,nan,nan
0,315,19:47:54:108000,6,1,359,252.421875,[-0.16922234  0.47474188  0.0483828 ],1,1,1,0.682807583,0,0,1,0.632613532,0.491717406,0.094797551,0.586514956,0.396919855,nan,nan,nan,[ nan  nan  nan],nan,nan,nan,828.6223395,1235.674104,1236.356912,nan,nan
0,316,19:48:00:348000,6,1,209,146.953125,[ 0.96730184  0.03048352  0.52805   ],1,1,1,0.628987962,1,0,0,0.642804773,0.492324041,0.095255451,0.587579492,0.39706859,nan,-49.76364169,199,[ 1.         -0.02467618  0.4687863 ],nan,-7.189483309,3.234040952,828.6223395,1236.615901,1237.244889,1238.449438,1241.691517
0,317,19:48:01:299000,6,1,323,227.109375,[-0.11001989  0.43965345  0.37585536],1,1,1,0.602630241,0,0,0,0.638141929,0.492756522,0.095413859,0.588170381,0.397342663,nan,nan,nan,[ nan  nan  nan],nan,nan,nan,828.6223395,1242.850125,1243.452755,nan,nan
0,318,19:48:02:235000,6,1,439,308.671875,[ 0.25114429  0.4263922  -1.        ],1,1,1,0.516870715,0,0,0,0.582829639,0.493103127,0.095462288,0.588565415,0.397640839,nan,nan,nan,[ nan  nan  nan],nan,nan,nan,828.6223395,1243.791856,1244.308726,nan,nan
0,319,19:48:03:171000,6,1,33,23.203125,[ 1.          0.05659903 -1.        ],1,1,1,0.391054591,0,0,0,0.503518516,0.493177868,0.095321361,0.588499228,0.397856507,nan,nan,nan,[ nan  nan  nan],nan,nan,nan,828.6223395,1244.733648,1245.124703,nan,nan
0,320,19:48:04:123000,6,0,258,181.40625,[ 0.45964229  0.26499291  0.65549006],0,0,1,0.521251789,0,0,0,0.476392365,0.492857732,0.095342904,0.588200636,0.397514828,nan,nan,nan,[ nan  nan  nan],nan,nan,nan,828.6223395,1245.675438,1246.19669,nan,nan
0,321,19:48:05:059000,6,1,88,61.875,[ 1.         -0.22525759 -0.59993285],1,1,1,0.435434388,0,0,0,0.449246923,0.492946463,0.095207005,0.588153469,0.397739458,nan,nan,nan,[ nan  nan  nan],nan,nan,nan,828.6223395,1246.617233,1247.052667,nan,nan
0,322,19:48:05:995000,6,0,404,284.0625,[ 0.01248946  0.46874627 -0.4633491 ],0,0,1,0.613618422,0,0,0,0.523434867,0.492767298,0.095112607,0.587879905,0.397654691,nan,nan,nan,[ nan  nan  nan],nan,nan,nan,828.6223395,1247.559028,1248.172647,nan,nan
0,323,19:48:06:947000,6,1,453,318.515625,[ 0.35967042  0.39926175 -1.        ],1,1,1,0.471812673,0,0,0,0.506955161,0.493142612,0.095202573,0.588345185,0.397940039,nan,nan,nan,[ nan  nan  nan],nan,nan,nan,828.6223395,1248.500804,1248.972617,nan,nan
0,324,19:48:07:883000,6,0,357,251.015625,[-0.17179183  0.47376752  0.06873903],0,0,1,0.457995767,0,0,0,0.514475621,0.493076575,0.095062472,0.588139047,0.398014103,nan,nan,nan,[ nan  nan  nan],nan,nan,nan,828.6223395,1249.442613,1249.900609,nan,nan
0,325,19:48:08:819000,6,1,36,25.3125,[ 1.          0.04106996 -1.        ],1,1,1,0.396153538,0,0,0,0.441987326,0.492968301,0.094935603,0.587903903,0.398032698,nan,nan,nan,[ nan  nan  nan],nan,nan,nan,828.6223395,1250.384434,1250.780587,nan,nan
0,326,19:48:09:770000,6,1,130,91.40625,[ 1.         -0.30933315 -0.13607149],1,1,1,0.438364323,0,0,0,0.430837876,0.492670409,0.094940974,0.587611384,0.397729435,nan,nan,nan,[ nan  nan  nan],nan,nan,nan,828.6223395,1251.326192,1251.764556,nan,nan
0,327,19:48:10:706000,6,1,469,329.765625,[ 0.4894822   0.36045336 -1.        ],1,1,1,0.536550911,0,0,0,0.457022924,0.492503826,0.094842805,0.587346631,0.397661021,nan,nan,nan,[ nan  nan  nan],nan,nan,nan,828.6223395,1252.267982,1252.804533,nan,nan
0,328,19:48:11:658000,6,1,374,262.96875,[-0.13203913  0.47863408 -0.11062844],1,1,1,0.490746773,0,0,0,0.488554002,0.492638527,0.0947289,0.587367427,0.397909626,nan,nan,nan,[ nan  nan  nan],nan,nan,nan,828.6223395,1253.209774,1253.700521,nan,nan
0,329,19:48:12:594000,6,1,273,191.953125,[ 0.29973296  0.31957719  0.63503803],1,1,1,0.412924612,0,0,0,0.480074098,0.492632759,0.094584444,0.587217203,0.398048315,nan,nan,nan,[ nan  nan  nan],nan,nan,nan,828.6223395,1254.151562,1254.564487,nan,nan
0,330,19:48:13:530000,6,1,355,249.609375,[-0.17373746  0.47268386  0.08887998],1,1,1,0.375147359,0,0,0,0.426272914,0.492390485,0.094542463,0.586932949,0.397848022,nan,nan,nan,[ nan  nan  nan],nan,nan,nan,828.6223395,1255.093357,1255.468505,nan,nan
0,331,19:48:14:481000,6,1,15,10.546875,[ 0.96573443  0.14535278 -1.        ],1,1,1,0.377303542,0,1,0,0.388458504,0.492035203,0.094618813,0.586654017,0.39741639,nan,nan,nan,[ nan  nan  nan],nan,nan,nan,828.6223395,1256.035152,1256.412456,nan,nan
0,332,19:48:20:175000,6,1,382,268.59375,[-0.10118876  0.47829114 -0.19973227],1,1,1,0.459490242,1,0,0,0.403980381,0.491688582,0.094685377,0.586373959,0.397003204,nan,173.1909498,394,[-0.04370902  0.47465593 -0.33940142],nan,8.21530018,2.717297675,828.6223395,1256.976944,1257.436435,1258.802149,1261.5276
0,333,19:48:21:127000,6,1,139,97.734375,[ 1.         -0.29633561 -0.04459929],1,1,1,0.542602935,0,0,0,0.459798906,0.491591599,0.094559135,0.586150734,0.397032464,nan,nan,nan,[ nan  nan  nan],nan,nan,nan,828.6223395,1262.677701,1263.220304,nan,nan
0,334,19:48:22:063000,6,1,373,262.265625,[-0.13540771  0.47855957 -0.09969749],1,1,1,0.480786364,0,0,0,0.49429318,0.491744786,0.094458296,0.586203082,0.39728649,nan,nan,nan,[ nan  nan  nan],nan,nan,nan,828.6223395,1263.6195,1264.100286,nan,nan
0,335,19:48:22:999000,6,1,262,184.21875,[ 0.41645248  0.28041442  0.65281554],1,1,1,0.370953878,0,0,0,0.464781059,0.491711976,0.094318685,0.586030662,0.397393291,nan,nan,nan,[ nan  nan  nan],nan,nan,nan,828.6223395,1264.561289,1264.932243,nan,nan
0,336,19:48:23:951000,6,1,316,222.1875,[-0.07182156  0.42820351  0.42789226],1,1,1,0.429156853,0,0,0,0.426965698,0.491351504,0.09440794,0.585759444,0.396943564,nan,nan,nan,[ nan  nan  nan],nan,nan,nan,828.6223395,1265.503078,1265.932235,nan,nan
0,337,19:48:24:887000,6,1,20,14.0625,[ 1.          0.12155819 -1.        ],1,1,1,0.383325061,0,1,0,0.394478597,0.491166401,0.094328209,0.58549461,0.396838193,nan,nan,nan,[ nan  nan  nan],nan,nan,nan,828.6223395,1266.444873,1266.828198,nan,nan
0,338,19:48:30:752000,6,1,76,53.4375,[ 1.         -0.16967451 -0.77336583],1,1,1,0.257529464,1,0,0,0.356670459,0.490846397,0.094370627,0.585217024,0.396475771,nan,47.8221553,60,[ 1.         -0.08678377 -1.        ],nan,-11.2596553,2.875649556,828.6223395,1267.386666,1267.644196,1269.211866,1272.095555
0,339,19:48:31:704000,6,1,264,185.625,[ 0.39496696  0.28788971  0.65071762],1,1,1,0.493940136,0,0,0,0.378264887,0.490156111,0.095079155,0.585235266,0.395076956,nan,nan,nan,[ nan  nan  nan],nan,nan,nan,828.6223395,1273.254103,1273.748043,nan,nan
0,340,19:48:32:640000,6,1,465,326.953125,[ 0.45658868  0.37096153 -1.        ],1,1,1,0.536164891,0,0,0,0.429211497,0.490167273,0.094939038,0.585106311,0.395228234,nan,nan,nan,[ nan  nan  nan],nan,nan,nan,828.6223395,1274.19587,1274.732035,nan,nan
0,341,19:48:33:576000,6,1,402,282.65625,[ 0.00072492  0.47013996 -0.43781156],1,1,1,0.458324769,0,0,0,0.496143265,0.49030256,0.094832039,0.585134599,0.395470521,nan,nan,nan,[ nan  nan  nan],nan,nan,nan,828.6223395,1275.137694,1275.596019,nan,nan
0,342,19:48:34:527000,6,1,80,56.25,[ 1.         -0.18907571 -0.70896555],1,1,1,0.540510328,0,0,0,0.511666662,0.490208783,0.094708673,0.584917456,0.39550011,nan,nan,nan,[ nan  nan  nan],nan,nan,nan,828.6223395,1276.079485,1276.619995,nan,nan
0,343,19:48:35:463000,6,1,175,123.046875,[ 1.         -0.15562995  0.29036176],1,1,1,0.454682093,0,0,0,0.48450573,0.490355864,0.094609102,0.584964966,0.395746762,nan,nan,nan,[ nan  nan  nan],nan,nan,nan,828.6223395,1277.021281,1277.475963,nan,nan
0,344,19:48:36:399000,6,1,501,352.265625,[ 0.75644923  0.25625354 -1.        ],1,1,1,0.512869959,0,0,0,0.50268746,0.490251859,0.094490665,0.584742524,0.395761194,nan,nan,nan,[ nan  nan  nan],nan,nan,nan,828.6223395,1277.963069,1278.475939,nan,nan
0,345,19:48:37:351000,6,0,363,255.234375,[-0.16228773  0.47636573  0.00704813],0,0,1,0.571050412,0,0,0,0.512867488,0.490317609,0.094361081,0.584678691,0.395956528,nan,nan,nan,[ nan  nan  nan],nan,nan,nan,828.6223395,1278.904861,1279.475911,nan,nan
0,346,19:48:38:287000,6,1,439,308.671875,[ 0.25114429  0.4263922  -1.        ],1,1,1,0.365237127,0,0,0,0.483052499,0.490551617,0.094324134,0.584875752,0.396227483,nan,nan,nan,[ nan  nan  nan],nan,nan,nan,828.6223395,1279.846655,1280.211892,nan,nan
0,347,19:48:39:239000,6,0,154,108.28125,[ 1.         -0.25181315  0.10213817],0,0,1,0.3834257,0,0,0,0.439904413,0.490189437,0.094427664,0.5846171,0.395761773,nan,nan,nan,[ nan  nan  nan],nan,nan,nan,828.6223395,1280.788445,1281.17187,nan,nan
0,348,19:48:40:175000,6,1,473,332.578125,[ 0.52259481  0.34939617 -1.        ],1,1,1,0.337615004,0,0,0,0.36209261,0.48988176,0.094465028,0.584346788,0.395416732,nan,nan,nan,[ nan  nan  nan],nan,nan,nan,828.6223395,1281.730241,1282.067856,nan,nan
0,349,19:48:41:111000,6,1,386,271.40625,[-0.08339466  0.47749559 -0.24542474],1,1,1,0.427795519,0,0,0,0.382945408,0.489444212,0.094680681,0.584124893,0.394763531,nan,nan,nan,[ nan  nan  nan],nan,nan,nan,828.6223395,1282.672028,1283.099823,nan,nan
0,350,19:48:42:062000,6,1,185,130.078125,[ 1.         -0.10221447  0.37029995],1,1,1,0.413978898,0,1,0,0.393129807,0.489267568,0.094602347,0.583869915,0.394665221,nan,nan,nan,[ nan  nan  nan],nan,nan,nan,828.6223395,1283.613825,1284.027804,nan,nan
0,351,19:48:48:661000,6,1,133,93.515625,[ 1.         -0.30625957 -0.10533643],1,1,1,0.424180213,1,0,0,0.421984876,0.489052458,0.09455254,0.583604998,0.394499918,nan,3.610964639,123,[ 1.         -0.31144114 -0.20867286],nan,-7.126589639,3.617429019,828.6223395,1284.555611,1284.979792,1286.380823,1290.006283
0,352,19:48:49:597000,6,1,415,291.796875,[ 0.08130773  0.45915368 -0.61496802],1,1,1,0.527129049,0,0,0,0.455096053,0.488867636,0.094481045,0.583348681,0.394386592,nan,nan,nan,[ nan  nan  nan],nan,nan,nan,828.6223395,1291.156502,1291.683632,nan,nan
0,353,19:48:50:549000,6,1,30,21.09375,[ 1.          0.07194566 -1.        ],1,1,1,0.321254754,0,0,0,0.424188005,0.488976334,0.094368719,0.583345052,0.394607615,nan,nan,nan,[ nan  nan  nan],nan,nan,nan,828.6223395,1292.098358,1292.419612,nan,nan
0,354,19:48:51:485000,6,1,434,305.15625,[ 0.21388182  0.43461034 -1.        ],1,1,1,0.379515034,0,0,0,0.409299613,0.488501202,0.094655646,0.583156847,0.393845556,nan,nan,nan,[ nan  nan  nan],nan,nan,nan,828.6223395,1293.040078,1293.419593,nan,nan
0,355,19:48:52:421000,6,1,231,162.421875,[ 0.74960968  0.14515127  0.62082146],1,1,1,0.389705516,0,1,0,0.363491768,0.488193331,0.094698681,0.582892013,0.39349465,nan,nan,nan,[ nan  nan  nan],nan,nan,nan,828.6223395,1293.981868,1294.371573,nan,nan
0,356,19:48:57:444000,6,1,398,279.84375,[-0.02203778  0.4726088  -0.38794338],1,1,1,0.439875048,1,0,0,0.403031866,0.487915901,0.094709162,0.582625062,0.393206739,nan,178.290186,386,[-0.08339466  0.47749559 -0.24542474],nan,-8.133935956,2.025604497,828.6223395,1294.923662,1295.363537,1296.757176,1298.790798
0,357,19:48:58:380000,6,1,490,344.53125,[ 0.66466039  0.29615785 -1.        ],1,1,1,0.582428319,0,0,0,0.470669628,0.487780954,0.094610221,0.582391175,0.393170734,nan,nan,nan,[ nan  nan  nan],nan,nan,nan,828.6223395,1299.940993,1300.523421,nan,nan
0,358,19:48:59:331000,6,1,127,89.296875,[ 1.         -0.31111021 -0.16703665],1,1,1,0.59261823,0,0,0,0.538307199,0.488046073,0.094609953,0.582656027,0.39343612,nan,nan,nan,[ nan  nan  nan],nan,nan,nan,828.6223395,1300.882787,1301.475405,nan,nan
0,359,19:49:00:267000,6,1,240,168.75,[ 0.65437302  0.18801506  0.64246395],1,1,1,0.666802848,0,0,1,0.613949799,0.488338174,0.094638791,0.582976965,0.393699384,nan,nan,nan,[ nan  nan  nan],nan,nan,nan,828.6223395,1301.824578,1302.491381,nan,nan
0,360,19:49:07:787000,6,0,473,332.578125,[ 0.52259481  0.34939617 -1.        ],0,0,1,0.580998846,1,0,0,0.613473308,0.48883529,0.0949738,0.583809091,0.39386149,nan,130.4497189,454,[ 0.36762736  0.39708484 -1.        ],nan,-13.02784386,4.534208845,828.6223395,1302.766367,1303.347366,1304.591582,1309.133829
0,361,19:49:08:723000,6,1,384,270,[-0.09247501  0.47794532 -0.22247927],1,1,1,0.591141431,0,0,0,0.612981042,0.4890913,0.094965764,0.584057064,0.394125536,nan,nan,nan,[ nan  nan  nan],nan,nan,nan,828.6223395,1310.284041,1310.875182,nan,nan
0,362,19:49:09:674000,6,1,471,331.171875,[ 0.50601401  0.35499378 -1.        ],1,1,1,0.473344211,0,0,0,0.548494829,0.489373987,0.094985698,0.584359685,0.39438829,nan,nan,nan,[ nan  nan  nan],nan,nan,nan,828.6223395,1311.225829,1311.699174,nan,nan
0,363,19:49:10:610000,6,1,334,234.84375,[-0.15279655  0.45446705  0.2855764 ],1,1,1,0.44353711,0,0,0,0.502674251,0.489329706,0.094858142,0.584187849,0.394471564,nan,nan,nan,[ nan  nan  nan],nan,nan,nan,828.6223395,1312.167621,1312.611158,nan,nan
0,364,19:49:11:546000,6,1,2,1.40625,[ 0.86302458  0.20362286 -1.        ],1,1,1,0.373715321,0,0,0,0.43019888,0.489203556,0.094757796,0.583961352,0.39444576,nan,nan,nan,[ nan  nan  nan],nan,nan,nan,828.6223395,1313.109411,1313.483127,nan,nan
0,365,19:49:12:498000,6,1,249,175.078125,[ 0.55727555  0.22802627  0.65408488],1,1,1,0.327915744,0,1,0,0.381722725,0.488886281,0.094820426,0.583706706,0.394065855,nan,nan,nan,[ nan  nan  nan],nan,nan,nan,828.6223395,1314.051204,1314.37912,nan,nan
0,366,19:49:17:443000,6,1,43,30.234375,[ 1.          0.00424534 -1.        ],1,1,1,0.362086243,1,0,0,0.354572436,0.488445265,0.095063539,0.583508805,0.393381726,nan,66.03751103,34,[ 1.          0.05144197 -1.        ],nan,-6.271886025,1.958805298,828.6223395,1314.992997,1315.355083,1316.818174,1318.7851
0,367,19:49:18:395000,6,1,210,147.65625,[ 0.9580225   0.0359305   0.53342186],1,1,1,0.523291083,0,0,0,0.404431023,0.488100022,0.095162442,0.583262464,0.39293758,nan,nan,nan,[ nan  nan  nan],nan,nan,nan,828.6223395,1319.943676,1320.466967,nan,nan
0,368,19:49:19:331000,6,1,79,55.546875,[ 1.         -0.18429602 -0.72417078],1,nan,nan,nan,0,0,0,0.442688663,0.488195911,0.095050409,0.583246319,0.393145502,nan,nan,nan,[ nan  nan  nan],nan,nan,nan,828.6223395,1320.885433,nan,nan,nan
0,369,19:49:20:267000,6,1,11,7.734375,[ 0.9346595  0.1638529 -1.       ],1,1,1,0.543668625,0,0,0,0.533479854,0.488195911,0.095050409,0.583246319,0.393145502,nan,nan,nan,[ nan  nan  nan],nan,nan,nan,828.6223395,1321.827255,1322.370924,nan,nan
0,370,19:49:21:218000,6,1,457,321.328125,[ 0.39163925  0.39035818 -1.        ],1,1,1,0.481865738,0,0,0,0.512767182,0.488346652,0.094965094,0.583311745,0.393381558,nan,nan,nan,[ nan  nan  nan],nan,nan,nan,828.6223395,1322.76903,1323.250896,nan,nan
0,371,19:49:22:154000,6,1,164,115.3125,[ 1.         -0.20968584  0.19476155],1,1,1,0.404075508,0,0,0,0.476536624,0.488329088,0.094836926,0.583166014,0.393492162,nan,nan,nan,[ nan  nan  nan],nan,nan,nan,828.6223395,1323.710809,1324.114884,nan,nan
0,372,19:49:23:090000,6,1,66,46.40625,[ 1.         -0.11856871 -1.        ],1,1,1,0.422246405,0,0,0,0.43606255,0.488101376,0.094809641,0.582911017,0.393291735,nan,nan,nan,[ nan  nan  nan],nan,nan,nan,828.6223395,1324.652612,1325.074858,nan,nan
0,373,19:49:24:042000,6,1,385,270.703125,[-0.08797966  0.47773344 -0.23392672],1,1,1,0.392433887,0,0,0,0.406251933,0.487923869,0.094743324,0.582667193,0.393180545,nan,nan,nan,[ nan  nan  nan],nan,nan,nan,828.6223395,1325.594409,1325.986843,nan,nan
0,374,19:49:24:978000,6,1,54,37.96875,[ 1.         -0.05462921 -1.        ],1,1,1,0.410629302,0,0,0,0.408436531,0.487667176,0.094744991,0.582412167,0.392922184,nan,nan,nan,[ nan  nan  nan],nan,nan,nan,828.6223395,1326.536196,1326.946826,nan,nan
0,375,19:49:25:914000,6,1,506,355.78125,[ 0.79777474  0.23670313 -1.        ],1,1,1,0.372874286,0,1,0,0.391979158,0.48746064,0.09470172,0.58216236,0.39275892,nan,nan,nan,[ nan  nan  nan],nan,nan,nan,828.6223395,1327.478001,1327.850875,nan,nan
0,376,19:49:32:045000,6,1,380,267.1875,[-0.10951951  0.47853303 -0.17717739],1,1,1,0.37498799,1,0,0,0.386163859,0.487154259,0.094759956,0.581914215,0.392394303,nan,149.0362435,428,[ 0.17037832  0.44348657 -0.8686614 ],nan,33.77625653,3.134030318,828.6223395,1328.419781,1328.794769,1330.253305,1333.395387
0,377,19:49:32:996000,6,1,504,354.375,[ 0.78128615  0.24462829 -1.        ],1,1,1,0.345032639,0,0,0,0.364298305,0.486855149,0.09481015,0.5816653,0.392044999,nan,nan,nan,[ nan  nan  nan],nan,nan,nan,828.6223395,1334.545596,1334.890628,nan,nan
0,378,19:49:33:932000,6,1,81,56.953125,[ 1.         -0.19380425 -0.69421917],1,1,1,0.403225351,0,0,0,0.374415327,0.486477962,0.094965305,0.581443267,0.391512656,nan,nan,nan,[ nan  nan  nan],nan,nan,nan,828.6223395,1335.487385,1335.890611,nan,nan
0,379,19:49:34:868000,6,1,464,326.25,[ 0.44840488  0.37350356 -1.        ],1,1,1,0.373415114,0,1,0,0.373891035,0.486257132,0.094935892,0.581193024,0.391321241,nan,nan,nan,[ nan  nan  nan],nan,nan,nan,828.6223395,1336.42918,1336.802595,nan,nan
0,380,19:49:39:158000,6,1,394,277.03125,[-0.04370902  0.47465593 -0.33940142],1,1,1,0.399601778,1,0,0,0.392080748,0.485958609,0.094987247,0.580945855,0.390971362,nan,128.1731377,458,[ 0.39968805  0.38805021 -1.        ],nan,44.79561234,1.2921182,828.6223395,1337.370972,1337.770574,1339.204508,1340.504682
0,381,19:49:40:094000,6,1,3,2.109375,[ 0.87108718  0.19933511 -1.        ],1,1,1,0.515595194,0,0,0,0.429537362,0.485730754,0.094965234,0.580695988,0.39076552,nan,nan,nan,[ nan  nan  nan],nan,nan,nan,828.6223395,1341.654868,1342.170464,nan,nan
0,382,19:49:41:046000,6,1,235,165.234375,[ 0.70759192  0.16453778  0.63165963],1,1,1,0.421774,0,0,0,0.445656991,0.485809345,0.094852538,0.580661882,0.390956807,nan,nan,nan,[ nan  nan  nan],nan,nan,nan,828.6223395,1342.596667,1343.018441,nan,nan
0,383,19:49:41:982000,6,1,494,347.34375,[ 0.69812996  0.282144   -1.        ],1,1,1,0.511965918,0,0,0,0.483111704,0.485641273,0.094784619,0.580425892,0.390856654,nan,nan,nan,[ nan  nan  nan],nan,nan,nan,828.6223395,1343.538456,1344.050422,nan,nan
0,384,19:49:42:918000,6,0,60,42.1875,[ 1.         -0.08678377 -1.        ],0,0,1,0.610139107,0,0,0,0.514626342,0.485710186,0.094670031,0.580380216,0.391040155,nan,nan,nan,[ nan  nan  nan],nan,nan,nan,828.6223395,1344.480249,1345.090388,nan,nan
0,385,19:49:43:870000,6,1,307,215.859375,[-0.01138687  0.41105336  0.48795701],1,1,1,0.48432669,0,0,0,0.535477238,0.486035065,0.094759343,0.580794408,0.391275723,nan,nan,nan,[ nan  nan  nan],nan,nan,nan,828.6223395,1345.422041,1345.906368,nan,nan
0,386,19:49:44:806000,6,1,76,53.4375,[ 1.         -0.16967451 -0.77336583],1,1,1,0.470507788,0,0,0,0.521657861,0.486030616,0.094635918,0.580666534,0.391394699,nan,nan,nan,[ nan  nan  nan],nan,nan,nan,828.6223395,1346.363834,1346.834342,nan,nan
0,387,19:49:45:757000,6,1,277,194.765625,[ 0.25847065  0.33263616  0.62482424],1,1,1,0.392717843,0,0,0,0.449184107,0.485990297,0.094516236,0.580506534,0.391474061,nan,nan,nan,[ nan  nan  nan],nan,nan,nan,828.6223395,1347.305621,1347.698338,nan,nan
0,388,19:49:46:693000,6,1,219,153.984375,[ 0.87162732  0.08408817  0.57695967],1,1,1,0.426887202,0,0,0,0.430037611,0.485748659,0.094512726,0.580261385,0.391235933,nan,nan,nan,[ nan  nan  nan],nan,nan,nan,828.6223395,1348.247417,1348.674304,nan,nan
0,389,19:49:47:629000,6,1,354,248.90625,[-0.17447067  0.47210079  0.09886772],1,1,1,0.47708895,0,0,0,0.432231332,0.485596562,0.094437827,0.580034389,0.391158735,nan,nan,nan,[ nan  nan  nan],nan,nan,nan,828.6223395,1349.189211,1349.6663,nan,nan
0,390,19:49:48:581000,6,1,304,213.75,[ 0.01130928  0.40470892  0.50616037],1,1,1,0.415271524,0,0,0,0.439749226,0.485574635,0.094317037,0.579891672,0.391257599,nan,nan,nan,[ nan  nan  nan],nan,nan,nan,828.6223395,1350.130999,1350.546271,nan,nan
0,391,19:49:49:517000,6,1,509,357.890625,[ 0.82238638  0.224555   -1.        ],1,1,1,0.465468141,0,0,0,0.452609539,0.485393908,0.094262974,0.579656882,0.391130933,nan,nan,nan,[ nan  nan  nan],nan,nan,nan,828.6223395,1351.07279,1351.538258,nan,nan
0,392,19:49:50:453000,6,1,84,59.0625,[ 1.         -0.20765784 -0.65219109],1,1,1,0.411620011,0,0,0,0.430786559,0.485342816,0.09414744,0.579490255,0.391195376,nan,nan,nan,[ nan  nan  nan],nan,nan,nan,828.6223395,1352.014607,1352.426227,nan,nan
0,393,19:49:51:404000,6,1,319,224.296875,[-0.08918918  0.43330867  0.4061371 ],1,1,1,0.429824549,0,0,0,0.435637567,0.485154266,0.094100669,0.579254935,0.391053598,nan,nan,nan,[ nan  nan  nan],nan,nan,nan,828.6223395,1352.956375,1353.386199,nan,nan
0,394,19:49:52:340000,6,1,155,108.984375,[ 1.         -0.24798314  0.11161188],1,1,1,0.592008409,0,0,0,0.477817656,0.485013119,0.094022,0.579035119,0.39099112,nan,nan,nan,[ nan  nan  nan],nan,nan,nan,828.6223395,1353.898164,1354.490173,nan,nan
0,395,19:49:53:292000,6,1,307,215.859375,[-0.01138687  0.41105336  0.48795701],1,1,1,0.585854321,0,0,0,0.53589576,0.485285372,0.094056887,0.579342259,0.391228484,nan,nan,nan,[ nan  nan  nan],nan,nan,nan,828.6223395,1354.848297,1355.434152,nan,nan
0,396,19:49:54:228000,6,0,193,135.703125,[ 1.         -0.05804539  0.42865879],0,0,1,0.548053405,0,0,0,0.575305378,0.485540623,0.09407364,0.579614263,0.391466983,nan,nan,nan,[ nan  nan  nan],nan,nan,nan,828.6223395,1355.790083,1356.338136,nan,nan
0,397,19:49:55:180000,6,1,433,304.453125,[ 0.2065363   0.43616372 -1.        ],1,1,1,0.406231121,0,0,0,0.513379616,0.485698883,0.094006985,0.579705868,0.391691898,nan,nan,nan,[ nan  nan  nan],nan,nan,nan,828.6223395,1356.731883,1357.138114,nan,nan
0,398,19:49:56:116000,6,1,39,27.421875,[ 1.          0.02537899 -1.        ],1,1,1,0.4324175,0,0,0,0.462234009,0.485498207,0.093972889,0.579471096,0.391525318,nan,nan,nan,[ nan  nan  nan],nan,nan,nan,828.6223395,1357.673668,1358.106085,nan,nan
0,399,19:49:57:067000,6,1,181,127.265625,[ 1.         -0.12391439  0.33920113],1,1,1,0.426649432,0,0,0,0.421766017,0.485364502,0.093892167,0.579256669,0.391472336,nan,nan,nan,[ nan  nan  nan],nan,nan,nan,828.6223395,1358.615424,1359.042074,nan,nan
0,400,19:49:58:003000,6,1,442,310.78125,[ 0.27390726  0.42109554 -1.        ],1,1,1,0.452797037,0,0,0,0.437287989,0.485216977,0.093820195,0.579037173,0.391396782,nan,nan,nan,[ nan  nan  nan],nan,nan,nan,828.6223395,1359.557249,1360.010046,nan,nan
0,401,19:49:58:939000,6,1,286,201.09375,[ 0.16907896  0.35973478  0.59469871],1,1,1,0.511011986,0,0,0,0.463486152,0.485135724,0.093716573,0.578852297,0.391419152,nan,nan,nan,[ nan  nan  nan],nan,nan,nan,828.6223395,1360.499007,1361.010019,nan,nan
0,402,19:49:59:891000,6,1,102,71.71875,[ 1.         -0.27661034 -0.43492695],1,1,1,0.473152341,0,0,0,0.478987121,0.485200415,0.093608273,0.578808688,0.391592142,nan,nan,nan,[ nan  nan  nan],nan,nan,nan,828.6223395,1361.440854,1361.914006,nan,nan
0,403,19:50:00:827000,6,0,462,324.84375,[ 0.43208968  0.37848636 -1.        ],0,0,1,0.611351336,0,0,0,0.531838555,0.48517037,0.093493413,0.578663782,0.391676957,nan,nan,nan,[ nan  nan  nan],nan,nan,nan,828.6223395,1362.382623,1362.993975,nan,nan
0,404,19:50:01:763000,6,1,294,206.71875,[ 0.0948762   0.38121213  0.55985823],1,1,1,0.557532286,0,0,0,0.547345321,0.485484253,0.093588364,0.579072617,0.391895889,nan,nan,nan,[ nan  nan  nan],nan,nan,nan,828.6223395,1363.324421,1363.881953,nan,nan
0,405,19:50:02:714000,6,1,346,243.28125,[-0.17431756  0.46643129  0.17667017],1,1,1,0.631727167,0,0,0,0.600203597,0.485663032,0.093540882,0.579203914,0.39212215,nan,nan,nan,[ nan  nan  nan],nan,nan,nan,828.6223395,1364.266208,1364.897935,nan,nan
0,406,19:50:03:650000,6,1,153,107.578125,[ 1.         -0.25554786  0.09262139],1,1,1,0.657948327,0,0,1,0.615735927,0.486024577,0.093706545,0.579731122,0.392318032,nan,nan,nan,[ nan  nan  nan],nan,nan,nan,828.6223395,1365.207974,1365.865923,nan,nan
0,407,19:50:11:497000,6,1,359,252.421875,[-0.16922234  0.47474188  0.0483828 ],1,1,1,0.652102428,1,0,0,0.647259308,0.48644908,0.093978919,0.580427999,0.392470161,nan,-151.56727,344,[-0.17254346  0.46473023  0.19550382],nan,-10.85460502,4.867729011,828.6223395,1366.149796,1366.801898,1367.966665,1372.842319
0,408,19:50:12:433000,6,1,436,306.5625,[ 0.22868171  0.43141373 -1.        ],1,1,1,0.529200559,0,0,0,0.613083771,0.486857093,0.094221578,0.581078671,0.392635515,nan,nan,nan,[ nan  nan  nan],nan,nan,nan,828.6223395,1373.992508,1374.521708,nan,nan
0,409,19:50:13:385000,6,1,34,23.90625,[ 1.          0.05144197 -1.        ],1,1,1,0.459390744,0,0,0,0.54689791,0.486961131,0.094129101,0.581090232,0.39283203,nan,nan,nan,[ nan  nan  nan],nan,nan,nan,828.6223395,1374.934294,1375.393684,nan,nan
