block,trial,time,setsize,freqtrials,colorind,colordeg,colorrgb,correctresp,actualresp,acc,rts,probe_trials,fast_rt_trigger,slow_rt_trigger,rt_trailingavg,rt_runningavg,rt_runningstd,rt_runningslowthresh,rt_runningfastthresh,wm_mousepos,wm_respdeg,wm_colorind,wm_colorrgb,wm_colorhsv,wm_degdiff,wm_rts,timeBlockStart,timeEncArrayOnset,timeResponse,timeProbeOnset,timeProbeOffset
0,0,19:36:55:847000,6,1,345,242.578125,[-0.17351954  0.46559515  0.18611928],1,1,1,0.433427311,0,nan,nan,nan,nan,nan,nan,nan,nan,nan,nan,[ nan  nan  nan],nan,nan,nan,2847.951293,2848.973831,2849.407258,nan,nan
0,1,19:36:56:783000,6,1,478,336.09375,[ 0.5642225   0.33479366 -1.        ],1,1,1,0.328961762,0,nan,nan,nan,nan,nan,nan,nan,nan,nan,nan,[ nan  nan  nan],nan,nan,nan,2847.951293,2849.91828,2850.247241,nan,nan
0,2,19:36:57:719000,6,1,278,195.46875,[ 0.24828552  0.33580281  0.62196257],1,1,1,0.333814671,0,nan,nan,nan,nan,nan,nan,nan,nan,nan,nan,[ nan  nan  nan],nan,nan,nan,2847.951293,2850.857413,2851.191228,nan,nan
0,3,19:36:58:670000,6,1,438,307.96875,[ 0.24362256  0.42809644 -1.        ],1,1,1,0.327959078,0,nan,nan,nan,nan,nan,nan,nan,nan,nan,nan,[ nan  nan  nan],nan,nan,nan,2847.951293,2851.799229,2852.127188,nan,nan
0,4,19:36:59:606000,6,1,235,165.234375,[ 0.70759192  0.16453778  0.63165963],1,1,1,0.330160592,0,nan,nan,nan,nan,nan,nan,nan,nan,nan,nan,[ nan  nan  nan],nan,nan,nan,2847.951293,2852.741023,2853.071184,nan,nan
0,5,19:37:00:542000,6,1,424,298.125,[ 0.14217456  0.44881957 -0.77022942],1,1,1,0.332339583,0,nan,nan,nan,nan,nan,nan,nan,nan,nan,nan,[ nan  nan  nan],nan,nan,nan,2847.951293,2853.682808,2854.015147,nan,nan
0,6,19:37:01:494000,6,1,322,226.40625,[-0.10506723  0.43811622  0.38355935],1,1,1,0.310531998,0,nan,nan,nan,nan,nan,nan,nan,nan,nan,nan,[ nan  nan  nan],nan,nan,nan,2847.951293,2854.624603,2854.935135,nan,nan
0,7,19:37:02:430000,6,1,133,93.515625,[ 1.         -0.30625957 -0.10533643],1,1,1,0.296718228,0,nan,nan,nan,nan,nan,nan,nan,nan,nan,nan,[ nan  nan  nan],nan,nan,nan,2847.951293,2855.566412,2855.86313,nan,nan
0,8,19:37:03:382000,6,1,360,253.125,[-0.1677095   0.47518832  0.03812586],1,1,1,0.282914151,0,nan,nan,nan,nan,nan,nan,nan,nan,nan,nan,[ nan  nan  nan],nan,nan,nan,2847.951293,2856.508186,2856.7911,nan,nan
0,9,19:37:04:318000,6,1,417,293.203125,[ 0.0945046   0.45705356 -0.6457202 ],1,1,1,0.285099129,0,nan,nan,nan,nan,nan,nan,nan,nan,nan,nan,[ nan  nan  nan],nan,nan,nan,2847.951293,2857.449979,2857.735078,nan,nan
0,10,19:37:05:254000,6,1,166,116.71875,[ 1.         -0.20036215  0.21267421],1,1,1,0.343270459,0,nan,nan,nan,nan,nan,nan,nan,nan,nan,nan,[ nan  nan  nan],nan,nan,nan,2847.951293,2858.391783,2858.735053,nan,nan
0,11,19:37:06:205000,6,1,270,189.84375,[ 0.33115907  0.30936972  0.64139387],1,1,1,0.273499702,0,nan,nan,nan,nan,nan,nan,nan,nan,nan,nan,[ nan  nan  nan],nan,nan,nan,2847.951293,2859.33354,2859.607039,nan,nan
0,12,19:37:07:141000,6,1,323,227.109375,[-0.11001989  0.43965345  0.37585536],1,1,1,0.299664698,0,nan,nan,nan,nan,nan,nan,nan,nan,nan,nan,[ nan  nan  nan],nan,nan,nan,2847.951293,2860.275353,2860.575017,nan,nan
0,13,19:37:08:077000,6,1,9,6.328125,[ 0.91893356  0.17291669 -1.        ],1,1,1,0.333817522,0,nan,nan,nan,nan,nan,nan,nan,nan,nan,nan,[ nan  nan  nan],nan,nan,nan,2847.951293,2861.21716,2861.550978,nan,nan
0,14,19:37:09:029000,6,1,287,201.796875,[ 0.15950165  0.36255249  0.59075192],1,1,1,0.312002525,0,nan,nan,nan,nan,nan,nan,nan,nan,nan,nan,[ nan  nan  nan],nan,nan,nan,2847.951293,2862.158945,2862.470947,nan,nan
0,15,19:37:09:965000,6,1,17,11.953125,[ 0.98106915  0.13592191 -1.        ],1,1,1,0.2981879,0,nan,nan,nan,nan,nan,nan,nan,nan,nan,nan,[ nan  nan  nan],nan,nan,nan,2847.951293,2863.10075,2863.398938,nan,nan
0,16,19:37:10:916000,6,0,252,177.1875,[ 0.52472169  0.24069367  0.65569401],0,0,1,0.492366975,0,nan,nan,nan,nan,nan,nan,nan,nan,nan,nan,[ nan  nan  nan],nan,nan,nan,2847.951293,2864.042541,2864.534908,nan,nan
0,17,19:37:11:852000,6,1,402,282.65625,[ 0.00072492  0.47013996 -0.43781156],1,1,1,0.254579573,0,nan,nan,nan,nan,nan,nan,nan,nan,nan,nan,[ nan  nan  nan],nan,nan,nan,2847.951293,2864.984325,2865.238905,nan,nan
0,18,19:37:12:788000,6,0,199,139.921875,[ 1.         -0.02467618  0.4687863 ],0,0,1,0.456761586,0,nan,nan,nan,nan,nan,nan,nan,nan,nan,nan,[ nan  nan  nan],nan,nan,nan,2847.951293,2865.926115,2866.382876,nan,nan
0,19,19:37:13:740000,6,1,508,357.1875,[ 0.81419982  0.22863893 -1.        ],1,1,1,0.24296418,0,nan,nan,nan,nan,nan,nan,nan,nan,nan,nan,[ nan  nan  nan],nan,nan,nan,2847.951293,2866.867903,2867.110867,nan,nan
0,20,19:37:14:676000,6,1,51,35.859375,[ 1.         -0.03851602 -1.        ],1,1,1,0.38914245,0,nan,nan,nan,nan,nan,nan,nan,nan,nan,nan,[ nan  nan  nan],nan,nan,nan,2847.951293,2867.809699,2868.198842,nan,nan
0,21,19:37:15:612000,6,1,143,100.546875,[ 1.         -0.28705753 -0.00469999],1,1,1,0.287342837,0,nan,nan,nan,nan,nan,nan,nan,nan,nan,nan,[ nan  nan  nan],nan,nan,nan,2847.951293,2868.751476,2869.038819,nan,nan
0,22,19:37:16:564000,6,1,207,145.546875,[ 0.98565351  0.01954319  0.51699622],1,1,1,0.329493181,0,nan,nan,nan,nan,nan,nan,nan,nan,nan,nan,[ nan  nan  nan],nan,nan,nan,2847.951293,2869.693289,2870.022783,nan,nan
0,23,19:37:17:500000,6,1,434,305.15625,[ 0.21388182  0.43461034 -1.        ],1,1,1,0.331686427,0,nan,nan,nan,nan,nan,nan,nan,nan,nan,nan,[ nan  nan  nan],nan,nan,nan,2847.951293,2870.635081,2870.966767,nan,nan
0,24,19:37:18:436000,6,1,94,66.09375,[ 1.         -0.24943901 -0.52674516],1,1,1,0.301883032,0,nan,nan,nan,nan,nan,nan,nan,nan,nan,nan,[ nan  nan  nan],nan,nan,nan,2847.951293,2871.576873,2871.878756,nan,nan
0,25,19:37:19:387000,6,1,440,309.375,[ 0.2586994  0.4246574 -1.       ],1,1,1,0.34405875,0,nan,nan,nan,nan,nan,nan,nan,nan,nan,nan,[ nan  nan  nan],nan,nan,nan,2847.951293,2872.51866,2872.862718,nan,nan
0,26,19:37:20:323000,6,1,257,180.703125,[ 0.4704729   0.26103985  0.65584138],1,1,1,0.482230662,0,nan,nan,nan,nan,nan,nan,nan,nan,nan,nan,[ nan  nan  nan],nan,nan,nan,2847.951293,2873.460468,2873.942699,nan,nan
0,27,19:37:21:275000,6,0,32,22.5,[ 1.         0.0617358 -1.       ],0,0,1,0.460421937,0,nan,nan,nan,nan,nan,nan,nan,nan,nan,nan,[ nan  nan  nan],nan,nan,nan,2847.951293,2874.40225,2874.862672,nan,nan
0,28,19:37:22:211000,6,1,488,343.125,[ 0.64790771  0.30295149 -1.        ],1,1,1,0.326609148,0,nan,nan,nan,nan,nan,nan,nan,nan,nan,nan,[ nan  nan  nan],nan,nan,nan,2847.951293,2875.34405,2875.67066,nan,nan
0,29,19:37:23:147000,6,1,41,28.828125,[ 1.         0.0148395 -1.       ],1,1,1,0.328805244,0,nan,nan,nan,nan,nan,nan,nan,nan,nan,nan,[ nan  nan  nan],nan,nan,nan,2847.951293,2876.285837,2876.614642,nan,nan
0,30,19:37:24:099000,6,1,414,291.09375,[ 0.07478379  0.46016219 -0.60008918],1,1,1,0.33098509,0,nan,nan,nan,nan,nan,nan,nan,nan,nan,nan,[ nan  nan  nan],nan,nan,nan,2847.951293,2877.227627,2877.558613,nan,nan
0,31,19:37:29:761000,6,1,139,97.734375,[ 1.         -0.29633561 -0.04459929],1,1,1,0.341187546,1,nan,nan,nan,nan,nan,nan,nan,nan,-22.64161733,160,[ 1.         -0.22750142  0.15829752],nan,14.90724233,2.675683597,2847.951293,2878.169422,2878.51061,2879.994621,2882.67831
0,32,19:37:30:697000,6,1,93,65.390625,[ 1.         -0.2456143  -0.53861988],1,1,1,0.513582699,0,nan,nan,nan,nan,nan,nan,nan,nan,nan,nan,[ nan  nan  nan],nan,nan,nan,2847.951293,2883.836864,2884.350447,nan,nan
0,33,19:37:31:649000,6,1,262,184.21875,[ 0.41645248  0.28041442  0.65281554],1,1,1,0.315796871,0,nan,nan,nan,nan,nan,nan,nan,nan,nan,nan,[ nan  nan  nan],nan,nan,nan,2847.951293,2884.778635,2885.094432,nan,nan
0,34,19:37:32:585000,6,1,346,243.28125,[-0.17431756  0.46643129  0.17667017],1,1,1,0.29400012,0,nan,nan,nan,nan,nan,nan,nan,nan,nan,nan,[ nan  nan  nan],nan,nan,nan,2847.951293,2885.720422,2886.014422,nan,nan
0,35,19:37:33:537000,6,1,149,104.765625,[ 1.         -0.26947852  0.05414366],1,1,1,0.304174066,0,nan,nan,nan,nan,nan,nan,nan,nan,nan,nan,[ nan  nan  nan],nan,nan,nan,2847.951293,2886.66222,2886.966394,nan,nan
0,36,19:37:34:473000,6,1,337,236.953125,[-0.16064337  0.45785839  0.25930356],1,1,1,0.30636161,0,nan,nan,nan,nan,nan,nan,nan,nan,nan,nan,[ nan  nan  nan],nan,nan,nan,2847.951293,2887.604014,2887.910376,nan,nan
0,37,19:37:35:409000,6,1,401,281.953125,[-0.00506341  0.47079689 -0.4252031 ],1,1,1,0.308561983,0,nan,nan,nan,nan,nan,nan,nan,nan,nan,nan,[ nan  nan  nan],nan,nan,nan,2847.951293,2888.545797,2888.854359,nan,nan
0,38,19:37:36:360000,6,1,219,153.984375,[ 0.87162732  0.08408817  0.57695967],1,1,1,0.326716629,0,nan,nan,nan,nan,nan,nan,nan,nan,nan,nan,[ nan  nan  nan],nan,nan,nan,2847.951293,2889.487604,2889.814321,nan,nan
0,39,19:37:37:296000,6,1,424,298.125,[ 0.14217456  0.44881957 -0.77022942],1,1,1,0.336915378,0,nan,nan,nan,nan,nan,nan,nan,nan,nan,nan,[ nan  nan  nan],nan,nan,nan,2847.951293,2890.429391,2890.766306,nan,nan
0,40,19:37:38:232000,6,1,323,227.109375,[-0.11001989  0.43965345  0.37585536],1,1,1,0.267071636,0,nan,nan,nan,nan,nan,nan,nan,nan,nan,nan,[ nan  nan  nan],nan,nan,nan,2847.951293,2891.371223,2891.638295,nan,nan
0,41,19:37:39:184000,6,1,491,345.234375,[ 0.67303348  0.29270771 -1.        ],1,1,1,0.301296589,0,nan,nan,nan,nan,nan,nan,nan,nan,nan,nan,[ nan  nan  nan],nan,nan,nan,2847.951293,2892.312975,2892.614272,nan,nan
0,42,19:37:40:120000,6,1,84,59.0625,[ 1.         -0.20765784 -0.65219109],1,1,1,0.359478183,0,nan,nan,nan,nan,nan,nan,nan,nan,nan,nan,[ nan  nan  nan],nan,nan,nan,2847.951293,2893.254761,2893.614239,nan,nan
0,43,19:37:41:071000,6,1,154,108.28125,[ 1.         -0.25181315  0.10213817],1,1,1,0.297663893,0,nan,nan,nan,nan,nan,nan,nan,nan,nan,nan,[ nan  nan  nan],nan,nan,nan,2847.951293,2894.196563,2894.494227,nan,nan
0,44,19:37:42:007000,6,0,379,266.484375,[-0.11353594  0.47861499 -0.16597052],0,0,1,0.411854645,0,nan,nan,nan,nan,nan,nan,nan,nan,nan,nan,[ nan  nan  nan],nan,nan,nan,2847.951293,2895.138346,2895.550201,nan,nan
0,45,19:37:42:943000,6,1,452,317.8125,[ 0.35173807  0.40140621 -1.        ],1,1,1,0.222023573,0,nan,nan,nan,nan,nan,nan,nan,nan,nan,nan,[ nan  nan  nan],nan,nan,nan,2847.951293,2896.08015,2896.302174,nan,nan
0,46,19:37:43:895000,6,1,127,89.296875,[ 1.         -0.31111021 -0.16703665],1,1,1,0.272216484,0,nan,nan,nan,nan,nan,nan,nan,nan,nan,nan,[ nan  nan  nan],nan,nan,nan,2847.951293,2897.021943,2897.294159,nan,nan
0,47,19:37:44:831000,6,1,45,31.640625,[ 1.         -0.00639576 -1.        ],1,1,1,0.266395388,0,nan,nan,nan,nan,nan,nan,nan,nan,nan,nan,[ nan  nan  nan],nan,nan,nan,2847.951293,2897.963735,2898.23013,nan,nan
0,48,19:37:45:767000,6,1,192,135,[ 1.         -0.06359976  0.42165841],1,1,1,0.260594249,0,nan,nan,nan,nan,nan,nan,nan,nan,nan,nan,[ nan  nan  nan],nan,nan,nan,2847.951293,2898.905528,2899.166122,nan,nan
0,49,19:37:46:719000,6,1,262,184.21875,[ 0.41645248  0.28041442  0.65281554],1,1,1,0.270777318,0,nan,nan,nan,nan,nan,nan,nan,nan,nan,nan,[ nan  nan  nan],nan,nan,nan,2847.951293,2899.847319,2900.118096,nan,nan
0,50,19:37:53:895000,6,1,356,250.3125,[-0.17284378  0.47323941  0.07883681],1,1,1,0.280947842,1,nan,nan,nan,nan,nan,nan,nan,nan,-148.5571929,339,[-0.16495584  0.45996923  0.2414231 ],nan,-11.75530707,4.192566001,2847.951293,2900.789117,2901.070065,2902.614299,2906.814876
0,51,19:37:54:831000,6,1,255,179.296875,[ 0.49215936  0.25301719  0.65616311],1,1,1,0.432819485,0,nan,nan,nan,nan,nan,nan,nan,nan,nan,nan,[ nan  nan  nan],nan,nan,nan,2847.951293,2907.965078,2908.397898,nan,nan
0,52,19:37:55:782000,6,1,427,300.234375,[ 0.16326517  0.44486322 -0.84020871],1,1,1,0.306999655,0,nan,nan,nan,nan,nan,nan,nan,nan,nan,nan,[ nan  nan  nan],nan,nan,nan,2847.951293,2908.906872,2909.213872,nan,nan
0,53,19:37:56:718000,6,1,396,278.4375,[-0.03301537  0.47368488 -0.36352378],1,1,1,0.229200017,0,nan,nan,nan,nan,nan,nan,nan,nan,nan,nan,[ nan  nan  nan],nan,nan,nan,2847.951293,2909.848659,2910.07786,nan,nan
0,54,19:37:57:654000,6,1,64,45,[ 1.         -0.10803687 -1.        ],1,1,1,0.471392727,0,nan,nan,nan,nan,nan,nan,nan,nan,nan,nan,[ nan  nan  nan],nan,nan,nan,2847.951293,2910.790441,2911.261834,nan,nan
0,55,19:37:58:606000,6,0,133,93.515625,[ 1.         -0.30625957 -0.10533643],0,0,1,0.49756599,0,nan,nan,nan,nan,nan,nan,nan,nan,nan,nan,[ nan  nan  nan],nan,nan,nan,2847.951293,2911.732246,2912.229812,nan,nan
0,56,19:37:59:542000,6,1,288,202.5,[ 0.15000513  0.36533195  0.58668724],1,1,1,0.251761681,0,nan,nan,nan,nan,nan,nan,nan,nan,nan,nan,[ nan  nan  nan],nan,nan,nan,2847.951293,2912.674042,2912.925803,nan,nan
0,57,19:38:00:478000,6,1,479,336.796875,[ 0.57257215  0.33176822 -1.        ],1,1,1,0.317947637,0,nan,nan,nan,nan,nan,nan,nan,nan,nan,nan,[ nan  nan  nan],nan,nan,nan,2847.951293,2913.615825,2913.933773,nan,nan
0,58,19:38:01:429000,6,1,147,103.359375,[ 1.         -0.27580113  0.03467205],1,1,1,0.416130519,0,nan,nan,nan,nan,nan,nan,nan,nan,nan,nan,[ nan  nan  nan],nan,nan,nan,2847.951293,2914.557625,2914.973755,nan,nan
0,59,19:38:02:365000,6,0,386,271.40625,[-0.08339466  0.47749559 -0.24542474],0,0,1,0.482305927,0,nan,nan,nan,nan,nan,nan,nan,nan,nan,nan,[ nan  nan  nan],nan,nan,nan,2847.951293,2915.499413,2915.981718,nan,nan
0,60,19:38:03:317000,6,1,7,4.921875,[ 0.90309146  0.18185306 -1.        ],1,1,1,0.268496263,0,nan,nan,nan,nan,nan,nan,nan,nan,nan,nan,[ nan  nan  nan],nan,nan,nan,2847.951293,2916.441214,2916.70971,nan,nan
0,61,19:38:04:253000,6,0,468,329.0625,[ 0.48123648  0.36313162 -1.        ],0,0,1,0.502694873,0,nan,nan,nan,nan,nan,nan,nan,nan,nan,nan,[ nan  nan  nan],nan,nan,nan,2847.951293,2917.382975,2917.88567,nan,nan
0,62,19:38:05:189000,6,1,267,187.734375,[ 0.36292453  0.29880723  0.64662252],1,1,1,0.280864594,0,nan,nan,nan,nan,nan,nan,nan,nan,nan,nan,[ nan  nan  nan],nan,nan,nan,2847.951293,2918.32479,2918.605654,nan,nan
0,63,19:38:06:141000,6,1,345,242.578125,[-0.17351954  0.46559515  0.18611928],1,1,1,0.339041056,0,nan,nan,nan,nan,nan,nan,nan,nan,nan,nan,[ nan  nan  nan],nan,nan,nan,2847.951293,2919.266592,2919.605633,nan,nan
0,64,19:38:07:077000,6,1,297,208.828125,[ 0.06862621  0.38864628  0.54490466],1,1,1,0.301230447,0,nan,nan,nan,nan,nan,nan,nan,nan,nan,nan,[ nan  nan  nan],nan,nan,nan,2847.951293,2920.208381,2920.509611,nan,nan
0,65,19:38:08:013000,6,1,245,172.265625,[ 0.6005777   0.21061011  0.65017283],1,1,1,0.407404007,0,nan,nan,nan,nan,nan,nan,nan,nan,nan,nan,[ nan  nan  nan],nan,nan,nan,2847.951293,2921.150179,2921.557583,nan,nan
0,66,19:38:12:849000,6,1,287,201.796875,[ 0.15950165  0.36255249  0.59075192],1,1,1,0.281611547,1,nan,nan,nan,nan,nan,nan,nan,nan,-120.5792269,299,[ 0.05166456  0.39341767  0.53437875],nan,8.782351872,1.825515661,2847.951293,2922.091966,2922.373578,2923.92551,2925.759067
0,67,19:38:13:785000,6,1,87,61.171875,[ 1.         -0.22095901 -0.61267562],1,nan,nan,nan,0,nan,nan,nan,nan,nan,nan,nan,nan,nan,nan,[ nan  nan  nan],nan,nan,nan,2847.951293,2926.917609,nan,nan,nan
0,68,19:38:14:721000,6,1,218,153.28125,[ 0.88146739  0.07882461  0.57255963],1,1,1,0.37803681,0,nan,nan,nan,nan,nan,nan,nan,nan,nan,nan,[ nan  nan  nan],nan,nan,nan,2847.951293,2927.859403,2928.23744,nan,nan
0,69,19:38:15:672000,6,1,468,329.0625,[ 0.48123648  0.36313162 -1.        ],1,1,1,0.308224999,0,nan,nan,nan,nan,nan,nan,nan,nan,nan,nan,[ nan  nan  nan],nan,nan,nan,2847.951293,2928.801197,2929.109422,nan,nan
0,70,19:38:16:608000,6,1,421,296.015625,[ 0.12147167  0.45251804 -0.71261034],1,1,1,0.30240818,0,nan,nan,nan,nan,nan,nan,nan,nan,nan,nan,[ nan  nan  nan],nan,nan,nan,2847.951293,2929.742993,2930.045401,nan,nan
0,71,19:38:17:560000,6,1,81,56.953125,[ 1.         -0.19380425 -0.69421917],1,1,1,0.360547579,0,nan,nan,nan,nan,nan,nan,nan,nan,nan,nan,[ nan  nan  nan],nan,nan,nan,2847.951293,2930.684822,2931.045369,nan,nan
0,72,19:38:18:496000,6,1,384,270,[-0.09247501  0.47794532 -0.22247927],1,1,1,0.306764166,0,nan,nan,nan,nan,nan,nan,nan,nan,nan,nan,[ nan  nan  nan],nan,nan,nan,2847.951293,2931.626584,2931.933348,nan,nan
0,73,19:38:19:432000,6,0,73,51.328125,[ 1.         -0.15467886 -0.83091687],0,1,0,0.236963474,0,0,0,nan,nan,nan,nan,nan,nan,nan,nan,[ nan  nan  nan],nan,nan,nan,2847.951293,2932.568372,2932.805335,nan,nan
0,74,19:38:20:383000,6,1,20,14.0625,[ 1.          0.12155819 -1.        ],1,1,1,0.319143046,0,nan,nan,nan,nan,nan,nan,nan,nan,nan,nan,[ nan  nan  nan],nan,nan,nan,2847.951293,2933.510165,2933.829308,nan,nan
0,75,19:38:21:319000,6,1,397,279.140625,[-0.02756135  0.47315999 -0.37569455],1,1,1,0.345327144,0,nan,nan,nan,nan,nan,nan,nan,nan,nan,nan,[ nan  nan  nan],nan,nan,nan,2847.951293,2934.451956,2934.797283,nan,nan
0,76,19:38:22:255000,6,1,283,198.984375,[ 0.19826868  0.35105092  0.60582595],1,1,1,0.323522125,0,nan,nan,nan,nan,nan,nan,nan,nan,nan,nan,[ nan  nan  nan],nan,nan,nan,2847.951293,2935.393754,2935.717276,nan,nan
0,77,19:38:28:807000,6,1,207,145.546875,[ 0.98565351  0.01954319  0.51699622],1,1,1,0.269700224,1,nan,nan,nan,nan,nan,nan,nan,nan,-51.9053063,202,[ 1.         -0.00802826  0.48759698],nan,-3.641568701,3.542556749,2847.951293,2936.335545,2936.605245,2938.169062,2941.719562
0,78,19:38:29:743000,6,1,380,267.1875,[-0.10951951  0.47853303 -0.17717739],1,1,1,0.614989735,0,nan,nan,nan,nan,nan,nan,nan,nan,nan,nan,[ nan  nan  nan],nan,nan,nan,2847.951293,2942.878086,2943.493075,nan,nan
0,79,19:38:30:695000,6,1,273,191.953125,[ 0.29973296  0.31957719  0.63503803],1,1,1,0.345194859,0,nan,nan,nan,nan,nan,nan,nan,nan,nan,nan,[ nan  nan  nan],nan,nan,nan,2847.951293,2943.819877,2944.165072,nan,nan
0,80,19:38:31:631000,6,1,201,141.328125,[ 1.         -0.01357126  0.48142235],1,1,1,0.251371955,0,0,0,0.403852183,0.337184884,0.075563399,0.412748284,0.261621485,nan,nan,nan,[ nan  nan  nan],nan,nan,nan,2847.951293,2944.761674,2945.013046,nan,nan
0,81,19:38:32:567000,6,1,397,279.140625,[-0.02756135  0.47315999 -0.37569455],1,1,1,0.301566576,0,0,0,0.299377796,0.336112223,0.075692484,0.411804706,0.260419739,nan,nan,nan,[ nan  nan  nan],nan,nan,nan,2847.951293,2945.703463,2946.00503,nan,nan
0,82,19:38:33:519000,6,1,197,138.515625,[ 1.         -0.0357976   0.45577474],1,1,1,0.271753773,0,0,0,0.274897434,0.335685733,0.075320454,0.411006187,0.260365279,nan,nan,nan,[ nan  nan  nan],nan,nan,nan,2847.951293,2946.645251,2946.917005,nan,nan
0,83,19:38:34:455000,6,1,2,1.40625,[ 0.86302458  0.20362286 -1.        ],1,1,1,0.273930768,0,0,0,0.282417039,0.334906075,0.075187918,0.410093993,0.259718157,nan,nan,nan,[ nan  nan  nan],nan,nan,nan,2847.951293,2947.587048,2947.860979,nan,nan
0,84,19:38:35:391000,6,1,150,105.46875,[ 1.         -0.26615253  0.06382271],1,1,1,0.228123208,0,1,0,0.257935916,0.334171433,0.075029109,0.409200542,0.259142324,nan,nan,nan,[ nan  nan  nan],nan,nan,nan,2847.951293,2948.528837,2948.75696,nan,nan
0,85,19:38:42:473000,6,1,355,249.609375,[-0.17373746  0.47268386  0.08887998],1,1,1,0.342215888,1,0,0,0.281423288,0.332908954,0.075462844,0.408371797,0.25744611,nan,-157.6198649,352,[-0.17544713  0.4708516   0.11867359],nan,-1.989510052,4.084253648,2847.951293,2949.470723,2949.812939,2951.304179,2955.396379
0,86,19:38:43:409000,6,1,224,157.5,[ 0.82161942  0.11002479  0.59726488],1,1,1,0.530190698,0,0,0,0.366843265,0.333018447,0.075024343,0.40804279,0.257994104,nan,nan,nan,[ nan  nan  nan],nan,nan,nan,2847.951293,2956.546585,2957.076775,nan,nan
0,87,19:38:44:361000,6,1,64,45,[ 1.         -0.10803687 -1.        ],1,1,1,0.452358274,0,0,0,0.441588287,0.335311148,0.077524209,0.412835357,0.257786938,nan,nan,nan,[ nan  nan  nan],nan,nan,nan,2847.951293,2957.488385,2957.940743,nan,nan
0,88,19:38:45:297000,6,1,187,131.484375,[ 1.         -0.09124635  0.38538321],1,1,1,0.342560284,0,0,1,0.441703085,0.336656517,0.078080626,0.414737143,0.258575891,nan,nan,nan,[ nan  nan  nan],nan,nan,nan,2847.951293,2958.43017,2958.77273,nan,nan
0,89,19:38:52:535000,6,1,144,101.25,[ 1.         -0.28442319  0.00519445],1,1,1,0.40874453,1,0,0,0.401221029,0.336723605,0.07763824,0.414361846,0.259085365,nan,-35.08347388,178,[ 1.         -0.13991966  0.31509783],nan,23.83347388,4.234197185,2847.951293,2959.371963,2959.780707,2961.205505,2965.447739
0,90,19:38:53:471000,6,0,258,181.40625,[ 0.45964229  0.26499291  0.65549006],0,0,1,0.470258899,0,0,0,0.407187904,0.337532829,0.077573163,0.415105992,0.259959666,nan,nan,nan,[ nan  nan  nan],nan,nan,nan,2847.951293,2966.606279,2967.076538,nan,nan
0,91,19:38:54:423000,6,1,351,246.796875,[-0.17568629  0.47018527  0.12848998],1,1,1,0.256464344,0,0,0,0.378489258,0.339007563,0.078385549,0.417393112,0.260622014,nan,nan,nan,[ nan  nan  nan],nan,nan,nan,2847.951293,2967.548055,2967.804519,nan,nan
0,92,19:38:55:359000,6,1,90,63.28125,[ 1.         -0.23363579 -0.57497187],1,1,1,0.290654801,0,0,0,0.339126015,0.338100495,0.07842719,0.416527685,0.259673305,nan,nan,nan,[ nan  nan  nan],nan,nan,nan,2847.951293,2968.489848,2968.780502,nan,nan
0,93,19:38:56:295000,6,1,409,287.578125,[ 0.04294362  0.46479315 -0.52946185],1,1,1,0.308832254,0,0,0,0.285317133,0.337584781,0.078154781,0.415739562,0.25943,nan,nan,nan,[ nan  nan  nan],nan,nan,nan,2847.951293,2969.431642,2969.740474,nan,nan
0,94,19:38:57:246000,6,1,290,203.90625,[ 0.13126538  0.37077654  0.57820662],1,1,1,0.255022042,0,0,0,0.284836366,0.337275614,0.077790001,0.415065615,0.259485613,nan,nan,nan,[ nan  nan  nan],nan,nan,nan,2847.951293,2970.373446,2970.628468,nan,nan
0,95,19:38:58:182000,6,1,89,62.578125,[ 1.         -0.2294841  -0.58737049],1,1,1,0.289217915,0,0,0,0.284357404,0.336400576,0.077833914,0.414234491,0.258566662,nan,nan,nan,[ nan  nan  nan],nan,nan,nan,2847.951293,2971.315216,2971.604434,nan,nan
0,96,19:38:59:118000,6,1,325,228.515625,[-0.1194049   0.44263104  0.36018642],1,1,1,0.299392716,0,0,0,0.281210891,0.335903916,0.077572776,0.413476693,0.25833114,nan,nan,nan,[ nan  nan  nan],nan,nan,nan,2847.951293,2972.257029,2972.556422,nan,nan
0,97,19:39:00:070000,6,0,262,184.21875,[ 0.41645248  0.28041442  0.65281554],0,0,1,0.437577457,0,0,0,0.342062696,0.335523591,0.077256679,0.41278027,0.258266912,nan,nan,nan,[ nan  nan  nan],nan,nan,nan,2847.951293,2973.198815,2973.636392,nan,nan
0,98,19:39:01:006000,6,1,8,5.625,[ 0.91102659  0.17740094 -1.        ],1,1,1,0.295758879,0,0,0,0.344243018,0.336575693,0.077545642,0.414121336,0.259030051,nan,nan,nan,[ nan  nan  nan],nan,nan,nan,2847.951293,2974.140605,2974.436364,nan,nan
0,99,19:39:01:957000,6,1,218,153.28125,[ 0.88146739  0.07882461  0.57255963],1,1,1,0.329938502,0,0,0,0.354424946,0.336159195,0.077257963,0.413417158,0.258901232,nan,nan,nan,[ nan  nan  nan],nan,nan,nan,2847.951293,2975.082405,2975.412343,nan,nan
0,100,19:39:02:893000,6,1,500,351.5625,[ 0.74814593  0.26005829 -1.        ],1,1,1,0.356144267,0,0,0,0.327280549,0.33609636,0.076869298,0.412965658,0.259227062,nan,nan,nan,[ nan  nan  nan],nan,nan,nan,2847.951293,2976.024192,2976.380337,nan,nan
0,101,19:39:03:829000,6,0,106,74.53125,[ 1.         -0.28763007 -0.39056445],0,0,1,0.406311804,0,0,0,0.364131524,0.336296839,0.076509993,0.412806832,0.259786846,nan,nan,nan,[ nan  nan  nan],nan,nan,nan,2847.951293,2976.965984,2977.372296,nan,nan
0,102,19:39:04:781000,6,1,428,300.9375,[ 0.17037832  0.44348657 -0.8686614 ],1,1,1,0.29650184,0,0,0,0.35298597,0.336990056,0.076445248,0.413435304,0.260544809,nan,nan,nan,[ nan  nan  nan],nan,nan,nan,2847.951293,2977.907779,2978.204281,nan,nan
0,103,19:39:05:717000,6,1,180,126.5625,[ 1.         -0.12927862  0.33123896],1,1,1,0.330695147,0,0,0,0.34450293,0.336593113,0.076174123,0.412767236,0.26041899,nan,nan,nan,[ nan  nan  nan],nan,nan,nan,2847.951293,2978.849569,2979.180264,nan,nan
0,104,19:39:06:653000,6,1,461,324.140625,[ 0.42395965  0.38092737 -1.        ],1,1,1,0.316885654,0,0,0,0.314694214,0.336535851,0.075805649,0.412341501,0.260730202,nan,nan,nan,[ nan  nan  nan],nan,nan,nan,2847.951293,2979.791364,2980.10825,nan,nan
0,105,19:39:07:605000,6,1,135,94.921875,[ 1.         -0.30350232 -0.08497887],1,1,1,0.351080387,0,0,0,0.332887063,0.336346907,0.075464686,0.411811593,0.260882221,nan,nan,nan,[ nan  nan  nan],nan,nan,nan,2847.951293,2980.733137,2981.084218,nan,nan
0,106,19:39:08:541000,6,1,271,190.546875,[ 0.32064286  0.31281163  0.63940014],1,1,1,0.289254123,0,0,0,0.319073388,0.336487226,0.075118101,0.411605327,0.261369124,nan,nan,nan,[ nan  nan  nan],nan,nan,nan,2847.951293,2981.674945,2981.964199,nan,nan
0,107,19:39:09:492000,6,0,486,341.71875,[ 0.63115176  0.30960306 -1.        ],0,0,1,0.467444999,0,0,0,0.369259836,0.336041631,0.074902231,0.410943861,0.2611394,nan,nan,nan,[ nan  nan  nan],nan,nan,nan,2847.951293,2982.616735,2983.08418,nan,nan
0,108,19:39:10:428000,6,1,158,111.09375,[ 1.         -0.23594923  0.13976411],1,1,1,0.269620112,0,0,0,0.342106411,0.337269699,0.075615972,0.412885672,0.261653727,nan,nan,nan,[ nan  nan  nan],nan,nan,nan,2847.951293,2983.558534,2983.828154,nan,nan
0,109,19:39:11:364000,6,1,115,80.859375,[ 1.         -0.30516629 -0.29317275],1,1,1,0.29582103,0,0,0,0.34429538,0.336643314,0.075543466,0.41218678,0.261099848,nan,nan,nan,[ nan  nan  nan],nan,nan,nan,2847.951293,2984.500316,2984.796137,nan,nan
0,110,19:39:12:316000,6,1,305,214.453125,[ 0.00361193  0.40685925  0.50019691],1,1,1,0.265990836,0,0,0,0.277143993,0.336268798,0.075296796,0.411565594,0.260972002,nan,nan,nan,[ nan  nan  nan],nan,nan,nan,2847.951293,2985.442122,2985.708113,nan,nan
0,111,19:39:13:252000,6,1,496,348.75,[ 0.71483372  0.27492388 -1.        ],1,1,1,0.268174389,0,0,0,0.276662085,0.335629907,0.075249966,0.410879873,0.260379942,nan,nan,nan,[ nan  nan  nan],nan,nan,nan,2847.951293,2986.383913,2986.652087,nan,nan
0,112,19:39:14:188000,6,1,285,200.390625,[ 0.17873435  0.35687868  0.59852701],1,1,1,0.294367609,0,0,0,0.276177612,0.3350222,0.075180897,0.410203097,0.259841303,nan,nan,nan,[ nan  nan  nan],nan,nan,nan,2847.951293,2987.325701,2987.620068,nan,nan
0,113,19:39:15:140000,6,1,162,113.90625,[ 1.         -0.21873956  0.17663297],1,1,1,0.296534056,0,0,0,0.286358685,0.334659213,0.074942156,0.409601369,0.259717056,nan,nan,nan,[ nan  nan  nan],nan,nan,nan,2847.951293,2988.2675,2988.564034,nan,nan
0,114,19:39:16:076000,6,1,468,329.0625,[ 0.48123648  0.36313162 -1.        ],1,1,1,0.250734764,0,0,0,0.280545477,0.334321822,0.074695208,0.409017029,0.259626614,nan,nan,nan,[ nan  nan  nan],nan,nan,nan,2847.951293,2989.209288,2989.460023,nan,nan
0,115,19:39:17:027000,6,1,78,54.84375,[ 1.         -0.17946765 -0.73990763],1,1,1,0.284917238,0,0,0,0.277395353,0.333588602,0.074774208,0.40836281,0.258814394,nan,nan,nan,[ nan  nan  nan],nan,nan,nan,2847.951293,2990.151079,2990.435996,nan,nan
0,116,19:39:17:963000,6,0,146,102.65625,[ 1.         -0.27879258  0.02488132],0,0,1,0.50308631,0,0,0,0.346246104,0.333165373,0.074585409,0.407750782,0.258579964,nan,nan,nan,[ nan  nan  nan],nan,nan,nan,2847.951293,2991.092877,2991.595964,nan,nan
0,117,19:39:18:899000,6,1,89,62.578125,[ 1.         -0.2294841  -0.58737049],1,1,1,0.265291495,0,0,0,0.351098348,0.334630208,0.075906436,0.410536644,0.258723772,nan,nan,nan,[ nan  nan  nan],nan,nan,nan,2847.951293,2992.03467,2992.299962,nan,nan
0,118,19:39:19:851000,6,1,453,318.515625,[ 0.35967042  0.39926175 -1.        ],1,1,1,0.307468354,0,0,0,0.358615386,0.33403757,0.075850396,0.409887966,0.258187174,nan,nan,nan,[ nan  nan  nan],nan,nan,nan,2847.951293,2992.97646,2993.283929,nan,nan
0,119,19:39:20:787000,6,1,313,220.078125,[-0.05302215  0.42279583  0.44879796],1,1,1,0.301658662,0,0,0,0.291472837,0.333812407,0.07556757,0.409379977,0.258244837,nan,nan,nan,[ nan  nan  nan],nan,nan,nan,2847.951293,2993.918248,2994.219906,nan,nan
0,120,19:39:21:723000,6,1,204,143.4375,[ 1.          0.00303257  0.49965442],1,1,1,0.279849081,0,0,0,0.296325366,0.333542207,0.07530661,0.408848817,0.258235597,nan,nan,nan,[ nan  nan  nan],nan,nan,nan,2847.951293,2994.860044,2995.139893,nan,nan
0,121,19:39:22:674000,6,1,440,309.375,[ 0.2586994  0.4246574 -1.       ],1,1,1,0.370041,0,0,0,0.317182914,0.333094765,0.075150854,0.408245619,0.257943911,nan,nan,nan,[ nan  nan  nan],nan,nan,nan,2847.951293,2995.801835,2996.171876,nan,nan
0,122,19:39:23:610000,6,1,139,97.734375,[ 1.         -0.29633561 -0.04459929],1,1,1,0.404218912,0,0,0,0.351369664,0.333400106,0.074914378,0.408314483,0.258485728,nan,nan,nan,[ nan  nan  nan],nan,nan,nan,2847.951293,2996.743632,2997.147851,nan,nan
0,123,19:39:24:562000,6,1,354,248.90625,[-0.17447067  0.47210079  0.09886772],1,1,1,0.366404312,0,0,0,0.380221408,0.333980588,0.074879468,0.408860056,0.259101119,nan,nan,nan,[ nan  nan  nan],nan,nan,nan,2847.951293,2997.685429,2998.051833,nan,nan
0,124,19:39:25:498000,6,1,290,203.90625,[ 0.13126538  0.37077654  0.57820662],1,1,1,0.352595103,0,0,0,0.374406109,0.334244195,0.074631277,0.408875472,0.259612918,nan,nan,nan,[ nan  nan  nan],nan,nan,nan,2847.951293,2998.627219,2998.979814,nan,nan
0,125,19:39:26:434000,6,1,434,305.15625,[ 0.21388182  0.43461034 -1.        ],1,1,1,0.49877708,0,0,0,0.405925498,0.334392186,0.074347855,0.408740041,0.260044332,nan,nan,nan,[ nan  nan  nan],nan,nan,nan,2847.951293,2999.569007,3000.067784,nan,nan
0,126,19:39:27:386000,6,1,365,256.640625,[-0.15796203  0.47701659 -0.01391969],1,1,1,0.340941508,0,0,0,0.397437897,0.335707265,0.075483987,0.411191253,0.260223278,nan,nan,nan,[ nan  nan  nan],nan,nan,nan,2847.951293,3000.510805,3000.851746,nan,nan
0,127,19:39:28:322000,6,1,85,59.765625,[ 1.         -0.21215645 -0.63878123],1,1,1,0.32713458,0,0,0,0.388951056,0.335748807,0.075185286,0.410934093,0.260563521,nan,nan,nan,[ nan  nan  nan],nan,nan,nan,2847.951293,3001.452602,3001.779736,nan,nan
0,128,19:39:29:258000,6,1,150,105.46875,[ 1.         -0.26615253  0.06382271],1,1,1,0.321353113,0,0,0,0.329809733,0.335680978,0.074892566,0.410573544,0.260788413,nan,nan,nan,[ nan  nan  nan],nan,nan,nan,2847.951293,3002.394406,3002.715759,nan,nan
0,129,19:39:30:209000,6,1,11,7.734375,[ 0.9346595  0.1638529 -1.       ],1,1,1,0.419515753,0,0,0,0.356001148,0.335569042,0.074610108,0.41017915,0.260958934,nan,nan,nan,[ nan  nan  nan],nan,nan,nan,2847.951293,3003.336174,3003.75569,nan,nan
0,130,19:39:31:145000,6,1,88,61.875,[ 1.         -0.22525759 -0.59993285],1,1,1,0.437710882,0,0,0,0.392859916,0.336219792,0.074684139,0.41090393,0.261535653,nan,nan,nan,[ nan  nan  nan],nan,nan,nan,2847.951293,3004.277957,3004.715668,nan,nan
0,131,19:39:32:097000,6,1,370,260.15625,[-0.144806    0.47817873 -0.06718033],1,1,1,0.319877739,0,0,0,0.392368125,0.337000492,0.074922892,0.411923384,0.262077601,nan,nan,nan,[ nan  nan  nan],nan,nan,nan,2847.951293,3005.219765,3005.539643,nan,nan
0,132,19:39:33:033000,6,0,432,303.75,[ 0.1992279   0.43768733 -1.        ],0,0,1,0.466056295,0,0,0,0.407881639,0.336869784,0.074651256,0.41152104,0.262218529,nan,nan,nan,[ nan  nan  nan],nan,nan,nan,2847.951293,3006.16156,3006.627616,nan,nan
0,133,19:39:33:969000,6,1,323,227.109375,[-0.11001989  0.43965345  0.37585536],1,1,1,0.276276255,0,0,0,0.354070096,0.33784847,0.075206827,0.413055298,0.262641643,nan,nan,nan,[ nan  nan  nan],nan,nan,nan,2847.951293,3007.103339,3007.379616,nan,nan
0,134,19:39:34:920000,6,1,49,34.453125,[ 1.         -0.02778543 -1.        ],1,1,1,0.35843416,0,0,0,0.366922236,0.337385521,0.07511212,0.412497641,0.262273401,nan,nan,nan,[ nan  nan  nan],nan,nan,nan,2847.951293,3008.045143,3008.403577,nan,nan
0,135,19:39:35:856000,6,1,285,200.390625,[ 0.17873435  0.35687868  0.59852701],1,1,1,0.304633926,0,0,0,0.31311478,0.3375426,0.07485325,0.41239585,0.262689351,nan,nan,nan,[ nan  nan  nan],nan,nan,nan,2847.951293,3008.986936,3009.29157,nan,nan
0,136,19:39:36:792000,6,1,1,0.703125,[ 0.85493913  0.20787707 -1.        ],1,1,1,0.298821669,0,0,0,0.320629918,0.337298833,0.074628867,0.4119277,0.262669965,nan,nan,nan,[ nan  nan  nan],nan,nan,nan,2847.951293,3009.92873,3010.227551,nan,nan
0,137,19:39:37:744000,6,0,91,63.984375,[ 1.         -0.2377099  -0.56272232],0,1,0,0.253000425,0,0,0,0.28548534,0.337015912,0.07442662,0.411442533,0.262589292,nan,nan,nan,[ nan  nan  nan],nan,nan,nan,2847.951293,3010.870525,3011.123525,nan,nan
0,138,19:39:38:680000,6,1,444,312.1875,[ 0.2892412   0.41740978 -1.        ],1,1,1,0.271181869,0,0,0,0.274334654,0.33640266,0.07449856,0.41090122,0.261904101,nan,nan,nan,[ nan  nan  nan],nan,nan,nan,2847.951293,3011.812311,3012.083493,nan,nan
0,139,19:39:39:632000,6,0,373,262.265625,[-0.13540771  0.47855957 -0.09969749],0,0,1,0.513359469,0,0,0,0.345847254,0.335930046,0.074433989,0.410364035,0.261496057,nan,nan,nan,[ nan  nan  nan],nan,nan,nan,2847.951293,3012.754105,3013.267465,nan,nan
0,140,19:39:40:568000,6,1,154,108.28125,[ 1.         -0.25181315  0.10213817],1,1,1,0.291561407,0,0,0,0.358700915,0.337206517,0.075666463,0.41287298,0.261540054,nan,nan,nan,[ nan  nan  nan],nan,nan,nan,2847.951293,3013.695898,3013.987459,nan,nan
0,141,19:39:41:504000,6,1,231,162.421875,[ 0.74960968  0.14515127  0.62082146],1,1,1,0.317728398,0,0,0,0.374216425,0.33688048,0.075493665,0.412374145,0.261386815,nan,nan,nan,[ nan  nan  nan],nan,nan,nan,2847.951293,3014.637691,3014.955419,nan,nan
0,142,19:39:42:455000,6,1,338,237.65625,[-0.16289136  0.45892871  0.25039916],1,1,1,0.359931771,0,0,0,0.323073859,0.33674465,0.075242647,0.411987297,0.261502003,nan,nan,nan,[ nan  nan  nan],nan,nan,nan,2847.951293,3015.579484,3015.939416,nan,nan
0,143,19:39:43:391000,6,1,36,25.3125,[ 1.          0.04106996 -1.        ],1,1,1,0.394118236,0,0,0,0.357259468,0.336907939,0.075002307,0.411910246,0.261905632,nan,nan,nan,[ nan  nan  nan],nan,nan,nan,2847.951293,3016.521275,3016.915394,nan,nan
0,144,19:39:44:327000,6,1,314,220.78125,[-0.05944389  0.42463231  0.44192541],1,1,1,0.340294054,0,0,0,0.364781353,0.337308011,0.074891496,0.412199507,0.262416515,nan,nan,nan,[ nan  nan  nan],nan,nan,nan,2847.951293,3017.463066,3017.803361,nan,nan
0,145,19:39:45:279000,6,1,255,179.296875,[ 0.49215936  0.25301719  0.65616311],1,1,1,0.390485824,0,0,0,0.374966038,0.337328748,0.074631415,0.411960163,0.262697333,nan,nan,nan,[ nan  nan  nan],nan,nan,nan,2847.951293,3018.404862,3018.795348,nan,nan
0,146,19:39:46:215000,6,1,466,327.65625,[ 0.46478901  0.3683856  -1.        ],1,1,1,0.41667876,0,0,0,0.382486212,0.337695348,0.074503613,0.412198961,0.263191735,nan,nan,nan,[ nan  nan  nan],nan,nan,nan,2847.951293,3019.34665,3019.763329,nan,nan
0,147,19:39:47:151000,6,1,40,28.125,[ 1.          0.02011655 -1.        ],1,1,1,0.402852445,0,0,0,0.40333901,0.338236331,0.074533249,0.41276958,0.263703081,nan,nan,nan,[ nan  nan  nan],nan,nan,nan,2847.951293,3020.288446,3020.691298,nan,nan
0,148,19:39:48:102000,6,1,408,286.875,[ 0.03673793  0.46563766 -0.51593845],1,1,1,0.365040981,0,0,0,0.394857395,0.338675896,0.07446895,0.413144846,0.264206946,nan,nan,nan,[ nan  nan  nan],nan,nan,nan,2847.951293,3021.230237,3021.595278,nan,nan
0,149,19:39:49:038000,6,1,214,150.46875,[ 0.92024366  0.05754104  0.55385485],1,1,1,0.367215125,0,0,0,0.378369517,0.338854038,0.074248361,0.413102399,0.264605678,nan,nan,nan,[ nan  nan  nan],nan,nan,nan,2847.951293,3022.172033,3022.539248,nan,nan
0,150,19:39:49:990000,6,1,486,341.71875,[ 0.63115176  0.30960306 -1.        ],1,1,1,0.377417296,0,0,0,0.369891134,0.339044381,0.074035008,0.413079389,0.265009373,nan,nan,nan,[ nan  nan  nan],nan,nan,nan,2847.951293,3023.11382,3023.491238,nan,nan
0,151,19:39:50:926000,6,1,49,34.453125,[ 1.         -0.02778543 -1.        ],1,1,1,0.371593919,0,0,0,0.372075447,0.339300201,0.073853858,0.413154058,0.265446343,nan,nan,nan,[ nan  nan  nan],nan,nan,nan,2847.951293,3024.055617,3024.427211,nan,nan
0,152,19:39:51:862000,6,1,372,261.5625,[-0.13866002  0.47845887 -0.08881238],1,1,1,0.477778028,0,0,0,0.408929748,0.339514066,0.07365549,0.413169557,0.265858576,nan,nan,nan,[ nan  nan  nan],nan,nan,nan,2847.951293,3024.997413,3025.475191,nan,nan
0,153,19:39:52:814000,6,1,14,9.84375,[ 0.95801505  0.15002356 -1.        ],1,1,1,0.527969513,0,0,1,0.45911382,0.340423698,0.074258881,0.414682579,0.266164817,nan,nan,nan,[ nan  nan  nan],nan,nan,nan,2847.951293,3025.939197,3026.467167,nan,nan
0,154,19:40:05:606000,6,1,453,318.515625,[ 0.35967042  0.39926175 -1.        ],1,1,1,0.586141128,1,0,0,0.530629556,0.341649487,0.075542894,0.417192382,0.266106593,nan,131.6101342,453,[ 0.35967042  0.39926175 -1.        ],nan,-0.125759199,9.801601215,2847.951293,3026.880995,3027.467137,3028.706205,3038.515822
0,155,19:40:06:542000,6,1,283,198.984375,[ 0.19826868  0.35105092  0.60582595],1,1,1,0.408484522,0,0,0,0.507531721,0.343237095,0.077815863,0.421052959,0.265421232,nan,nan,nan,[ nan  nan  nan],nan,nan,nan,2847.951293,3039.674377,3040.082862,nan,nan
0,156,19:40:07:493000,6,1,487,342.421875,[ 0.63952974  0.30629503 -1.        ],1,1,1,0.290657652,0,0,0,0.428427767,0.343658047,0.077740149,0.421398196,0.265917897,nan,nan,nan,[ nan  nan  nan],nan,nan,nan,2847.951293,3040.616166,3040.906824,nan,nan
0,157,19:40:08:429000,6,1,246,172.96875,[ 0.58976884  0.2150199   0.65133953],1,1,1,0.252857591,0,0,0,0.317333255,0.3433183,0.077605937,0.420924238,0.265712363,nan,nan,nan,[ nan  nan  nan],nan,nan,nan,2847.951293,3041.557958,3041.810815,nan,nan
0,158,19:40:09:365000,6,1,196,137.8125,[ 1.         -0.04136108  0.44913076],1,1,1,0.271036755,0,0,0,0.271517333,0.342742118,0.077692409,0.420434527,0.265049709,nan,nan,nan,[ nan  nan  nan],nan,nan,nan,2847.951293,3042.499746,3042.770783,nan,nan
0,159,19:40:10:317000,6,1,74,52.03125,[ 1.         -0.15971516 -0.81044328],1,1,1,0.249216912,0,1,0,0.257703753,0.342288286,0.077654642,0.419942928,0.264633645,nan,nan,nan,[ nan  nan  nan],nan,nan,nan,2847.951293,3043.441543,3043.690759,nan,nan
0,160,19:40:18:819000,6,1,477,335.390625,[ 0.55587987  0.33778403 -1.        ],1,1,1,0.251402175,1,0,0,0.257218614,0.341702932,0.077758951,0.419461882,0.263943981,nan,112.4258619,480,[ 0.58092807  0.32870764 -1.        ],nan,2.183513079,5.509386082,2847.951293,3044.383337,3044.634739,3046.208519,3051.725936
0,161,19:40:19:755000,6,1,120,84.375,[ 1.         -0.3101615  -0.24016291],1,1,1,0.534058884,0,0,0,0.344892657,0.341138552,0.077841566,0.418980118,0.263296986,nan,nan,nan,[ nan  nan  nan],nan,nan,nan,2847.951293,3052.884473,3053.418532,nan,nan
0,162,19:40:20:691000,6,1,286,201.09375,[ 0.16907896  0.35973478  0.59469871],1,1,1,0.328269548,0,0,0,0.371243536,0.342336815,0.079065842,0.421402657,0.263270972,nan,nan,nan,[ nan  nan  nan],nan,nan,nan,2847.951293,3053.826264,3054.154534,nan,nan
0,163,19:40:21:642000,6,1,397,279.140625,[-0.02756135  0.47315999 -0.37569455],1,1,1,0.314440668,0,0,0,0.392256367,0.34224998,0.078829135,0.421079115,0.263420845,nan,nan,nan,[ nan  nan  nan],nan,nan,nan,2847.951293,3054.768062,3055.082502,nan,nan
0,164,19:40:22:578000,6,0,252,177.1875,[ 0.52472169  0.24069367  0.65569401],0,1,0,0.292618259,0,0,0,0.311776158,0.342079371,0.078616951,0.420696322,0.263462419,nan,nan,nan,[ nan  nan  nan],nan,nan,nan,2847.951293,3055.709849,3056.002468,nan,nan
0,165,19:40:23:530000,6,1,25,17.578125,[ 1.          0.09706829 -1.        ],1,1,1,0.254827607,0,0,0,0.287295511,0.341777778,0.078471424,0.420249203,0.263306354,nan,nan,nan,[ nan  nan  nan],nan,nan,nan,2847.951293,3056.651643,3056.90647,nan,nan
0,166,19:40:24:466000,6,0,423,297.421875,[ 0.13522958  0.45008089 -0.75003992],0,1,0,0.28897872,0,0,0,0.278808195,0.341250808,0.0785238,0.419774607,0.262727008,nan,nan,nan,[ nan  nan  nan],nan,nan,nan,2847.951293,3057.593467,3057.882446,nan,nan
0,167,19:40:25:402000,6,1,73,51.328125,[ 1.         -0.15467886 -0.83091687],1,1,1,0.355184348,0,0,0,0.299663558,0.340935916,0.078391349,0.419327264,0.262544567,nan,nan,nan,[ nan  nan  nan],nan,nan,nan,2847.951293,3058.535226,3058.89041,nan,nan
0,168,19:40:26:354000,6,1,233,163.828125,[ 0.7286704   0.15490978  0.62648223],1,1,1,0.349417705,0,0,0,0.331193591,0.341021236,0.078164022,0.419185257,0.262857214,nan,nan,nan,[ nan  nan  nan],nan,nan,nan,2847.951293,3059.47699,3059.826408,nan,nan
0,169,19:40:27:290000,6,1,416,292.5,[ 0.08788162  0.4581175  -0.63016532],1,1,1,0.359569984,0,0,0,0.354724012,0.341071215,0.07793372,0.419004935,0.263137495,nan,nan,nan,[ nan  nan  nan],nan,nan,nan,2847.951293,3060.418812,3060.778382,nan,nan
0,170,19:40:28:226000,6,1,66,46.40625,[ 1.         -0.11856871 -1.        ],1,1,1,0.433692735,0,0,0,0.380893475,0.341180675,0.077715756,0.418896431,0.263464919,nan,nan,nan,[ nan  nan  nan],nan,nan,nan,2847.951293,3061.36066,3061.794353,nan,nan
0,171,19:40:29:177000,6,1,156,109.6875,[ 1.         -0.24406061  0.12104147],1,1,1,0.419936555,0,0,0,0.404399758,0.341724863,0.077809117,0.419533981,0.263915746,nan,nan,nan,[ nan  nan  nan],nan,nan,nan,2847.951293,3062.302399,3062.722336,nan,nan
0,172,19:40:30:113000,6,1,243,170.859375,[ 0.62215101  0.20168048  0.64746348],1,1,1,0.374117876,0,0,0,0.409249055,0.342182242,0.077810133,0.419992375,0.264372108,nan,nan,nan,[ nan  nan  nan],nan,nan,nan,2847.951293,3063.24419,3063.618308,nan,nan
0,173,19:40:31:065000,6,0,174,122.34375,[ 1.         -0.16079069  0.28198128],0,0,1,0.456298589,0,0,0,0.41678434,0.342367914,0.077621594,0.419989508,0.26474632,nan,nan,nan,[ nan  nan  nan],nan,nan,nan,2847.951293,3064.185985,3064.642283,nan,nan
0,174,19:40:32:001000,6,1,359,252.421875,[-0.16922234  0.47474188  0.0483828 ],1,1,1,0.258478549,0,0,0,0.362965005,0.343026473,0.077877346,0.420903818,0.265149127,nan,nan,nan,[ nan  nan  nan],nan,nan,nan,2847.951293,3065.127779,3065.386258,nan,nan
0,175,19:40:32:937000,6,0,198,139.21875,[ 1.         -0.0302355   0.46232694],0,0,1,0.4686769,0,0,0,0.394484679,0.342540565,0.077915799,0.420456364,0.264624766,nan,nan,nan,[ nan  nan  nan],nan,nan,nan,2847.951293,3066.069571,3066.538248,nan,nan
0,176,19:40:33:888000,6,1,134,94.21875,[ 1.         -0.304951   -0.09514411],1,1,1,0.230886932,0,0,0,0.31934746,0.343261344,0.078272459,0.421533804,0.264988885,nan,nan,nan,[ nan  nan  nan],nan,nan,nan,2847.951293,3067.011335,3067.242222,nan,nan
0,177,19:40:34:824000,6,1,203,142.734375,[ 1.         -0.00249325  0.49367467],1,1,1,0.297041813,0,0,0,0.332201881,0.342622853,0.078505479,0.421128332,0.264117375,nan,nan,nan,[ nan  nan  nan],nan,nan,nan,2847.951293,3067.953155,3068.250197,nan,nan
0,178,19:40:35:760000,6,1,428,300.9375,[ 0.17037832  0.44348657 -0.8686614 ],1,1,1,0.339218671,0,0,0,0.289049138,0.342365333,0.07835791,0.420723243,0.264007423,nan,nan,nan,[ nan  nan  nan],nan,nan,nan,2847.951293,3068.894948,3069.234166,nan,nan
0,179,19:40:36:712000,6,1,352,247.5,[-0.17544713  0.4708516   0.11867359],1,1,1,0.35739641,0,0,0,0.331218964,0.342347655,0.078137848,0.420485503,0.264209808,nan,nan,nan,[ nan  nan  nan],nan,nan,nan,2847.951293,3069.836754,3070.19415,nan,nan
0,180,19:40:37:648000,6,1,110,77.34375,[ 1.         -0.29672275 -0.34692196],1,1,1,0.447597451,0,0,0,0.381404177,0.342431727,0.077927352,0.420359079,0.264504374,nan,nan,nan,[ nan  nan  nan],nan,nan,nan,2847.951293,3070.778532,3071.226129,nan,nan
0,181,19:40:38:584000,6,1,276,194.0625,[ 0.26871044  0.32943033  0.62756301],1,1,1,0.36978983,0,0,0,0.391594563,0.343015981,0.078102736,0.421118716,0.264913245,nan,nan,nan,[ nan  nan  nan],nan,nan,nan,2847.951293,3071.720328,3072.090118,nan,nan
0,182,19:40:39:536000,6,1,222,156.09375,[ 0.84177847  0.09972916  0.58948469],1,1,1,0.347974263,0,0,0,0.388453848,0.343163902,0.077911963,0.421075866,0.265251939,nan,nan,nan,[ nan  nan  nan],nan,nan,nan,2847.951293,3072.662116,3073.01009,nan,nan
0,183,19:40:40:472000,6,1,365,256.640625,[-0.15796203  0.47701659 -0.01391969],1,1,1,0.398165462,0,0,0,0.371976518,0.343190333,0.077698438,0.420888771,0.265491895,nan,nan,nan,[ nan  nan  nan],nan,nan,nan,2847.951293,3073.60391,3074.002076,nan,nan
0,184,19:40:41:423000,6,1,484,340.3125,[ 0.61439895  0.31611274 -1.        ],1,1,1,0.376347615,0,0,0,0.374162447,0.343490744,0.07759177,0.421082514,0.265898973,nan,nan,nan,[ nan  nan  nan],nan,nan,nan,2847.951293,3074.545699,3074.922047,nan,nan
0,185,19:40:42:359000,6,1,189,132.890625,[ 1.         -0.08021946  0.40014347],1,1,1,0.362525292,0,0,0,0.37901279,0.343669313,0.077418332,0.421087646,0.266250981,nan,nan,nan,[ nan  nan  nan],nan,nan,nan,2847.951293,3075.487495,3075.85002,nan,nan
0,186,19:40:43:295000,6,1,88,61.875,[ 1.         -0.22525759 -0.59993285],1,1,1,0.436716466,0,0,0,0.391863124,0.343771238,0.077221188,0.420992425,0.26655005,nan,nan,nan,[ nan  nan  nan],nan,nan,nan,2847.951293,3076.429285,3076.866002,nan,nan
0,187,19:40:44:247000,6,1,472,331.875,[ 0.51429865  0.35221228 -1.        ],1,1,1,0.342897838,0,0,0,0.380713199,0.344270943,0.077312662,0.421583605,0.266958282,nan,nan,nan,[ nan  nan  nan],nan,nan,nan,2847.951293,3077.371079,3077.713977,nan,nan
0,188,19:40:45:183000,6,1,218,153.28125,[ 0.88146739  0.07882461  0.57255963],1,1,1,0.297087143,0,0,0,0.358900483,0.3442636,0.077105731,0.421369332,0.267157869,nan,nan,nan,[ nan  nan  nan],nan,nan,nan,2847.951293,3078.312867,3078.609954,nan,nan
0,189,19:40:46:119000,6,1,176,123.75,[ 1.         -0.15042967  0.29867547],1,1,1,0.387301299,0,0,0,0.34242876,0.344012662,0.076976914,0.420989576,0.267035748,nan,nan,nan,[ nan  nan  nan],nan,nan,nan,2847.951293,3079.254669,3079.64197,nan,nan
0,190,19:40:47:070000,6,1,321,225.703125,[-0.09994335  0.43654647  0.39117498],1,1,1,0.34143843,0,0,0,0.341942291,0.344241702,0.076837205,0.421078908,0.267404497,nan,nan,nan,[ nan  nan  nan],nan,nan,nan,2847.951293,3080.196466,3080.537904,nan,nan
0,191,19:40:48:006000,6,1,484,340.3125,[ 0.61439895  0.31611274 -1.        ],1,1,1,0.303640936,0,0,0,0.344126888,0.344226948,0.076635004,0.420861952,0.267591944,nan,nan,nan,[ nan  nan  nan],nan,nan,nan,2847.951293,3081.138257,3081.441898,nan,nan
0,192,19:40:48:958000,6,1,241,169.453125,[ 0.64365311  0.19260594  0.64425478],1,1,1,0.337821129,0,0,0,0.327633498,0.344014456,0.076490225,0.420504681,0.267524231,nan,nan,nan,[ nan  nan  nan],nan,nan,nan,2847.951293,3082.080046,3082.417867,nan,nan
0,193,19:40:49:894000,6,1,117,82.265625,[ 1.         -0.30758797 -0.27188654],1,1,1,0.33200545,0,0,0,0.324489172,0.343982199,0.076292075,0.420274274,0.267690124,nan,nan,nan,[ nan  nan  nan],nan,nan,nan,2847.951293,3083.021836,3083.353842,nan,nan
0,194,19:40:50:830000,6,1,52,36.5625,[ 1.         -0.04388606 -1.        ],1,1,1,0.358306152,0,0,0,0.34271091,0.343920143,0.076099028,0.420019171,0.267821115,nan,nan,nan,[ nan  nan  nan],nan,nan,nan,2847.951293,3083.963619,3084.321925,nan,nan
0,195,19:40:51:782000,6,1,112,78.75,[ 1.         -0.30050152 -0.32532486],1,1,1,0.432371884,0,0,0,0.374227829,0.343994298,0.075909634,0.419903932,0.268084664,nan,nan,nan,[ nan  nan  nan],nan,nan,nan,2847.951293,3084.905422,3085.337794,nan,nan
0,196,19:40:52:718000,6,1,216,151.875,[ 0.90097501  0.06822711  0.56342658],1,1,1,0.378572791,0,0,0,0.389750276,0.344447516,0.07597744,0.420424956,0.268470077,nan,nan,nan,[ nan  nan  nan],nan,nan,nan,2847.951293,3085.847211,3086.225784,nan,nan
0,197,19:40:53:654000,6,1,501,352.265625,[ 0.75644923  0.25625354 -1.        ],1,1,1,0.356769198,0,0,0,0.389237958,0.344621625,0.075822363,0.420443987,0.268799262,nan,nan,nan,[ nan  nan  nan],nan,nan,nan,2847.951293,3086.789005,3087.145774,nan,nan
0,198,19:40:54:605000,6,1,332,233.4375,[-0.14664709  0.45205424  0.30271419],1,1,1,0.318956308,0,0,0,0.351432766,0.344683288,0.075634602,0.42031789,0.269048686,nan,nan,nan,[ nan  nan  nan],nan,nan,nan,2847.951293,3087.730796,3088.049753,nan,nan
0,199,19:40:55:541000,6,1,61,42.890625,[ 1.        -0.0921164 -1.       ],1,1,1,0.361125754,0,0,0,0.345617087,0.344553354,0.075465403,0.420018757,0.26908795,nan,nan,nan,[ nan  nan  nan],nan,nan,nan,2847.951293,3088.672591,3089.033717,nan,nan
0,200,19:40:56:493000,6,1,259,182.109375,[ 0.44882283  0.26890698  0.65501178],1,1,1,0.339320165,0,0,0,0.339800742,0.344636632,0.075284673,0.419921305,0.269351959,nan,nan,nan,[ nan  nan  nan],nan,nan,nan,2847.951293,3089.614378,3089.953699,nan,nan
0,201,19:40:57:429000,6,1,24,16.875,[ 1.          0.10201906 -1.        ],1,1,1,0.261502851,0,0,0,0.32064959,0.34461005,0.075097162,0.419707212,0.269512888,nan,nan,nan,[ nan  nan  nan],nan,nan,nan,2847.951293,3090.556171,3090.817674,nan,nan
0,202,19:40:58:365000,6,1,403,283.359375,[ 0.00657627  0.46945644 -0.45052451],1,1,1,0.303684271,0,0,0,0.301502429,0.344196581,0.075137989,0.41933457,0.269058592,nan,nan,nan,[ nan  nan  nan],nan,nan,nan,2847.951293,3091.497965,3091.80165,nan,nan
0,203,19:40:59:316000,6,1,181,127.265625,[ 1.         -0.12391439  0.33920113],1,1,1,0.313835124,0,0,0,0.293007415,0.343996025,0.075005687,0.419001712,0.268990338,nan,nan,nan,[ nan  nan  nan],nan,nan,nan,2847.951293,3092.439799,3092.753634,nan,nan
0,204,19:41:00:252000,6,1,245,172.265625,[ 0.6005777   0.21061011  0.65017283],1,1,1,0.332039947,0,0,0,0.31651978,0.343847449,0.074850508,0.418697957,0.268996941,nan,nan,nan,[ nan  nan  nan],nan,nan,nan,2847.951293,3093.381563,3093.713603,nan,nan
0,205,19:41:01:188000,6,1,126,88.59375,[ 1.         -0.31141175 -0.17740843],1,1,1,0.422245549,0,0,0,0.356040207,0.343789569,0.07467138,0.418460949,0.26911819,nan,nan,nan,[ nan  nan  nan],nan,nan,nan,2847.951293,3094.323345,3094.74559,nan,nan
0,206,19:41:02:140000,6,1,427,300.234375,[ 0.16326517  0.44486322 -0.84020871],1,1,1,0.336434136,0,0,0,0.36357321,0.344172281,0.074689326,0.418861607,0.269482955,nan,nan,nan,[ nan  nan  nan],nan,nan,nan,2847.951293,3095.265138,3095.601572,nan,nan
0,207,19:41:03:076000,6,1,354,248.90625,[-0.17447067  0.47210079  0.09886772],1,1,1,0.282647586,0,0,0,0.34710909,0.344134717,0.074509762,0.418644479,0.269624956,nan,nan,nan,[ nan  nan  nan],nan,nan,nan,2847.951293,3096.206929,3096.489577,nan,nan
0,208,19:41:04:028000,6,0,167,117.421875,[ 1.         -0.19560581  0.22154672],0,1,0,0.292805852,0,0,0,0.303962525,0.343837678,0.074451734,0.418289412,0.269385945,nan,nan,nan,[ nan  nan  nan],nan,nan,nan,2847.951293,3097.148719,3097.441525,nan,nan
0,209,19:41:04:964000,6,1,453,318.515625,[ 0.35967042  0.39926175 -1.        ],1,1,1,0.27100568,0,0,0,0.282153039,0.343592333,0.074356382,0.417948715,0.269235951,nan,nan,nan,[ nan  nan  nan],nan,nan,nan,2847.951293,3098.090517,3098.361523,nan,nan
0,210,19:41:05:900000,6,1,15,10.546875,[ 0.96573443  0.14535278 -1.        ],1,1,1,0.297164974,0,0,0,0.286992169,0.343245028,0.074347203,0.417592232,0.268897825,nan,nan,nan,[ nan  nan  nan],nan,nan,nan,2847.951293,3099.032309,3099.329474,nan,nan
0,211,19:41:06:851000,6,1,111,78.046875,[ 1.         -0.29867781 -0.33610624],1,1,1,0.243360749,0,0,0,0.270510468,0.343025599,0.074237782,0.417263382,0.268787817,nan,nan,nan,[ nan  nan  nan],nan,nan,nan,2847.951293,3099.974103,3100.217463,nan,nan
0,212,19:41:07:787000,6,0,393,276.328125,[-0.04894566  0.47510217 -0.32744323],0,0,1,0.49355269,0,0,0,0.344692805,0.342553254,0.074377293,0.416930548,0.268175961,nan,nan,nan,[ nan  nan  nan],nan,nan,nan,2847.951293,3100.915878,3101.409431,nan,nan
0,213,19:41:08:723000,6,1,236,165.9375,[ 0.69700456  0.16930175  0.63406585],1,1,1,0.271734101,0,0,0,0.336215847,0.343265516,0.074919499,0.418185014,0.268346017,nan,nan,nan,[ nan  nan  nan],nan,nan,nan,2847.951293,3101.857674,3102.129408,nan,nan
0,214,19:41:09:675000,6,0,473,332.578125,[ 0.52259481  0.34939617 -1.        ],0,0,1,0.47390585,0,0,0,0.413064214,0.342929687,0.074903197,0.417832885,0.26802649,nan,nan,nan,[ nan  nan  nan],nan,nan,nan,2847.951293,3102.799478,3103.273384,nan,nan
0,215,19:41:10:611000,6,1,231,162.421875,[ 0.74960968  0.14515127  0.62082146],1,1,1,0.27609921,0,0,0,0.34057972,0.343541726,0.075259947,0.418801672,0.268281779,nan,nan,nan,[ nan  nan  nan],nan,nan,nan,2847.951293,3103.741269,3104.017368,nan,nan
0,216,19:41:11:563000,6,1,487,342.421875,[ 0.63952974  0.30629503 -1.        ],1,1,1,0.294274098,0,0,0,0.348093053,0.343228039,0.075224813,0.418452852,0.268003226,nan,nan,nan,[ nan  nan  nan],nan,nan,nan,2847.951293,3104.683062,3104.977337,nan,nan
0,217,19:41:12:499000,6,1,392,275.625,[-0.05410679  0.47552228 -0.31554984],1,1,1,0.352471656,0,0,0,0.307614988,0.343001401,0.075124017,0.418125418,0.267877384,nan,nan,nan,[ nan  nan  nan],nan,nan,nan,2847.951293,3105.624855,3105.977327,nan,nan
0,218,19:41:13:435000,6,1,345,242.578125,[-0.17351954  0.46559515  0.18611928],1,1,1,0.282663837,0,0,0,0.309803197,0.343045043,0.074953465,0.417998507,0.268091578,nan,nan,nan,[ nan  nan  nan],nan,nan,nan,2847.951293,3106.566645,3106.849309,nan,nan
0,219,19:41:14:386000,6,0,271,190.546875,[ 0.32064286  0.31281163  0.63940014],0,0,1,0.428840967,0,0,0,0.35465882,0.342768065,0.074892581,0.417660646,0.267875483,nan,nan,nan,[ nan  nan  nan],nan,nan,nan,2847.951293,3107.508439,3107.93728,nan,nan
0,220,19:41:15:322000,6,1,17,11.953125,[ 0.98106915  0.13592191 -1.        ],1,1,1,0.26304009,0,0,0,0.324848298,0.343161092,0.074946393,0.418107484,0.268214699,nan,nan,nan,[ nan  nan  nan],nan,nan,nan,2847.951293,3108.45023,3108.71327,nan,nan
0,221,19:41:16:258000,6,1,324,227.8125,[-0.11479964  0.44115833  0.36806404],1,1,1,0.2892182,0,0,0,0.327033086,0.342796905,0.074969837,0.417766742,0.267827068,nan,nan,nan,[ nan  nan  nan],nan,nan,nan,2847.951293,3109.392023,3109.681241,nan,nan
0,222,19:41:17:210000,6,1,386,271.40625,[-0.08339466  0.47749559 -0.24542474],1,1,1,0.299406686,0,0,0,0.283888326,0.342554468,0.074886415,0.417440883,0.267668052,nan,nan,nan,[ nan  nan  nan],nan,nan,nan,2847.951293,3110.333816,3110.633223,nan,nan
0,223,19:41:18:146000,6,1,330,232.03125,[-0.13976633  0.44951833  0.31954025],1,1,1,0.325605894,0,0,0,0.304743593,0.342360108,0.074773407,0.417133516,0.267586701,nan,nan,nan,[ nan  nan  nan],nan,nan,nan,2847.951293,3111.275599,3111.601205,nan,nan
0,224,19:41:19:097000,6,1,31,21.796875,[ 1.          0.06685157 -1.        ],1,1,1,0.399766848,0,0,0,0.341593143,0.342284977,0.074613963,0.416898941,0.267671014,nan,nan,nan,[ nan  nan  nan],nan,nan,nan,2847.951293,3112.217402,3112.617169,nan,nan
0,225,19:41:20:033000,6,1,349,245.390625,[-0.17565689  0.46876851  0.14794518],1,1,1,0.337970804,0,0,0,0.354447849,0.342541593,0.074545789,0.417087382,0.267995804,nan,nan,nan,[ nan  nan  nan],nan,nan,nan,2847.951293,3113.159199,3113.49717,nan,nan
0,226,19:41:20:969000,6,1,126,88.59375,[ 1.         -0.31141175 -0.17740843],1,1,1,0.420133556,0,0,0,0.38595707,0.342521278,0.074380569,0.416901847,0.26814071,nan,nan,nan,[ nan  nan  nan],nan,nan,nan,2847.951293,3114.100988,3114.521122,nan,nan
0,227,19:41:21:921000,6,1,93,65.390625,[ 1.         -0.2456143  -0.53861988],1,1,1,0.31832482,0,0,0,0.358809727,0.342864695,0.074394385,0.41725908,0.26847031,nan,nan,nan,[ nan  nan  nan],nan,nan,nan,2847.951293,3115.042779,3115.361104,nan,nan
0,228,19:41:22:857000,6,1,251,176.484375,[ 0.53557652  0.23650919  0.65528415],1,1,1,0.280515351,0,0,0,0.339657909,0.34275659,0.074248128,0.417004718,0.268508462,nan,nan,nan,[ nan  nan  nan],nan,nan,nan,2847.951293,3115.98457,3116.265085,nan,nan
0,229,19:41:23:793000,6,1,404,284.0625,[ 0.01248946  0.46874627 -0.4633491 ],1,1,1,0.290712105,0,0,0,0.296517425,0.342483602,0.074199206,0.416682809,0.268284396,nan,nan,nan,[ nan  nan  nan],nan,nan,nan,2847.951293,3116.926364,3117.217076,nan,nan
0,230,19:41:24:745000,6,1,285,200.390625,[ 0.17873435  0.35687868  0.59852701],1,1,1,0.300878923,0,0,0,0.290702127,0.342257526,0.074115679,0.416373205,0.268141847,nan,nan,nan,[ nan  nan  nan],nan,nan,nan,2847.951293,3117.86816,3118.169038,nan,nan
0,231,19:41:25:681000,6,1,85,59.765625,[ 1.         -0.21215645 -0.63878123],1,1,1,0.479066663,0,0,0,0.356885897,0.342077619,0.074004477,0.416082096,0.268073142,nan,nan,nan,[ nan  nan  nan],nan,nan,nan,2847.951293,3118.809952,3119.289019,nan,nan
0,232,19:41:26:617000,6,1,144,101.25,[ 1.         -0.28442319  0.00519445],1,1,1,0.369254134,0,0,0,0.383066573,0.342670645,0.074389788,0.417060433,0.268280857,nan,nan,nan,[ nan  nan  nan],nan,nan,nan,2847.951293,3119.751737,3120.120991,nan,nan
0,233,19:41:27:568000,6,1,45,31.640625,[ 1.         -0.00639576 -1.        ],1,1,1,0.29944888,0,0,0,0.382589893,0.342785229,0.074249718,0.417034947,0.268535511,nan,nan,nan,[ nan  nan  nan],nan,nan,nan,2847.951293,3120.693534,3120.992983,nan,nan
0,234,19:41:28:504000,6,1,423,297.421875,[ 0.13522958  0.45008089 -0.75003992],1,1,1,0.261626583,0,0,0,0.310109866,0.342599236,0.074144354,0.41674359,0.268454882,nan,nan,nan,[ nan  nan  nan],nan,nan,nan,2847.951293,3121.635328,3121.896955,nan,nan
0,235,19:41:29:456000,6,1,12,8.4375,[ 0.94247669  0.15927395 -1.        ],1,1,1,0.287823224,0,0,0,0.282966229,0.342253199,0.074174065,0.416427264,0.268079134,nan,nan,nan,[ nan  nan  nan],nan,nan,nan,2847.951293,3122.577119,3122.864942,nan,nan
0,236,19:41:30:392000,6,1,471,331.171875,[ 0.50601401  0.35499378 -1.        ],1,1,1,0.290020176,0,0,0,0.279823328,0.342021582,0.074100832,0.416122414,0.26792075,nan,nan,nan,[ nan  nan  nan],nan,nan,nan,2847.951293,3123.518911,3123.808932,nan,nan
0,237,19:41:31:328000,6,1,287,201.796875,[ 0.15950165  0.36255249  0.59075192],1,1,1,0.364195386,0,0,0,0.314012929,0.341801237,0.074020783,0.415822021,0.267780454,nan,nan,nan,[ nan  nan  nan],nan,nan,nan,2847.951293,3124.4607,3124.824896,nan,nan
0,238,19:41:32:279000,6,1,457,321.328125,[ 0.39163925  0.39035818 -1.        ],1,1,1,0.334386289,0,0,0,0.32953395,0.341895727,0.073878718,0.415774446,0.268017009,nan,nan,nan,[ nan  nan  nan],nan,nan,nan,2847.951293,3125.402483,3125.736869,nan,nan
0,239,19:41:33:215000,6,1,181,127.265625,[ 1.         -0.12391439  0.33920113],1,1,1,0.336559863,0,0,0,0.345047179,0.341864175,0.073724948,0.415589123,0.268139227,nan,nan,nan,[ nan  nan  nan],nan,nan,nan,2847.951293,3126.344288,3126.680848,nan,nan
0,240,19:41:34:151000,6,1,463,325.546875,[ 0.44023832  0.3760118  -1.        ],1,1,1,0.338745411,0,0,0,0.336563854,0.341841981,0.073571346,0.415413328,0.268270635,nan,nan,nan,[ nan  nan  nan],nan,nan,nan,2847.951293,3127.286071,3127.624816,nan,nan
0,241,19:41:35:103000,6,1,396,278.4375,[-0.03301537  0.47368488 -0.36352378],1,1,1,0.308860764,0,0,0,0.328055346,0.341829079,0.073418184,0.415247263,0.268410895,nan,nan,nan,[ nan  nan  nan],nan,nan,nan,2847.951293,3128.227932,3128.536793,nan,nan
0,242,19:41:36:039000,6,1,96,67.5,[ 1.         -0.25681952 -0.50330248],1,1,1,0.319102277,0,0,0,0.322236151,0.341692281,0.07329635,0.414988631,0.268395931,nan,nan,nan,[ nan  nan  nan],nan,nan,nan,2847.951293,3129.169667,3129.48877,nan,nan
0,243,19:41:36:991000,6,1,45,31.640625,[ 1.         -0.00639576 -1.        ],1,1,1,0.289303159,0,0,0,0.3057554,0.341598934,0.073159108,0.414758042,0.268439826,nan,nan,nan,[ nan  nan  nan],nan,nan,nan,2847.951293,3130.111453,3130.400756,nan,nan
0,244,19:41:37:927000,6,1,220,154.6875,[ 0.86173155  0.08932726  0.58124768],1,1,1,0.291490418,0,0,0,0.299965285,0.341383725,0.073085139,0.414468864,0.268298586,nan,nan,nan,[ nan  nan  nan],nan,nan,nan,2847.951293,3131.05325,3131.34474,nan,nan
0,245,19:41:38:863000,6,0,495,348.046875,[ 0.70648511  0.27855169 -1.        ],0,0,1,0.461652412,0,0,0,0.347481996,0.341179244,0.073004841,0.414184085,0.268174403,nan,nan,nan,[ nan  nan  nan],nan,nan,nan,2847.951293,3131.995047,3132.456699,nan,nan
0,246,19:41:39:814000,6,1,11,7.734375,[ 0.9346595  0.1638529 -1.       ],1,1,1,0.295873203,0,0,0,0.349672011,0.341670971,0.073259477,0.414930449,0.268411494,nan,nan,nan,[ nan  nan  nan],nan,nan,nan,2847.951293,3132.936834,3133.232707,nan,nan
0,247,19:41:40:750000,6,0,200,140.625,[ 1.         -0.01912099  0.47515178],0,1,0,0.282043753,0,0,0,0.346523123,0.341484801,0.073168475,0.414653276,0.268316327,nan,nan,nan,[ nan  nan  nan],nan,nan,nan,2847.951293,3133.878628,3134.160672,nan,nan
0,248,19:41:41:686000,6,1,148,104.0625,[ 1.         -0.27269559  0.04442646],1,1,1,0.300236031,0,0,0,0.292717662,0.341244149,0.073117698,0.414361847,0.268126451,nan,nan,nan,[ nan  nan  nan],nan,nan,nan,2847.951293,3134.820419,3135.120655,nan,nan
0,249,19:41:42:638000,6,1,194,136.40625,[ 1.         -0.05248646  0.4355717 ],1,1,1,0.334332691,0,0,0,0.305537492,0.341078794,0.073016396,0.41409519,0.268062398,nan,nan,nan,[ nan  nan  nan],nan,nan,nan,2847.951293,3135.762286,3136.096619,nan,nan
0,250,19:41:43:574000,6,1,346,243.28125,[-0.17431756  0.46643129  0.17667017],1,1,1,0.36858986,0,0,0,0.334386194,0.341051701,0.072870878,0.41392258,0.268180823,nan,nan,nan,[ nan  nan  nan],nan,nan,nan,2847.951293,3136.704006,3137.072596,nan,nan
0,251,19:41:44:525000,6,1,64,45,[ 1.         -0.10803687 -1.        ],1,1,1,0.370790233,0,0,0,0.357904261,0.341161854,0.072745759,0.413907613,0.268416095,nan,nan,nan,[ nan  nan  nan],nan,nan,nan,2847.951293,3137.645793,3138.016583,nan,nan
0,252,19:41:45:461000,6,1,115,80.859375,[ 1.         -0.30516629 -0.29317275],1,1,1,0.333074276,0,0,0,0.357484789,0.341279895,0.072624689,0.413904585,0.268655206,nan,nan,nan,[ nan  nan  nan],nan,nan,nan,2847.951293,3138.587587,3138.920661,nan,nan
0,253,19:41:46:397000,6,1,326,229.21875,[-0.12383419  0.44407177  0.35222354],1,1,1,0.327148265,0,0,0,0.343670924,0.341247333,0.072482285,0.413729619,0.268765048,nan,nan,nan,[ nan  nan  nan],nan,nan,nan,2847.951293,3139.529381,3139.856529,nan,nan
0,254,19:41:47:349000,6,1,204,143.4375,[ 1.          0.00303257  0.49965442],1,1,1,0.329355195,0,0,0,0.329859245,0.341191606,0.072344307,0.413535913,0.268847299,nan,nan,nan,[ nan  nan  nan],nan,nan,nan,2847.951293,3140.471173,3140.800528,nan,nan
0,255,19:41:48:285000,6,1,144,101.25,[ 1.         -0.28442319  0.00519445],1,1,1,0.371542887,0,0,0,0.342682115,0.341145006,0.072205561,0.413350567,0.268939445,nan,nan,nan,[ nan  nan  nan],nan,nan,nan,2847.951293,3141.412959,3141.784501,nan,nan
0,256,19:41:49:221000,6,1,271,190.546875,[ 0.32064286  0.31281163  0.63940014],1,1,1,0.277717131,0,0,0,0.326205071,0.341264213,0.072088881,0.413353095,0.269175332,nan,nan,nan,[ nan  nan  nan],nan,nan,nan,2847.951293,3142.354756,3142.632473,nan,nan
0,257,19:41:50:173000,6,1,213,149.765625,[ 0.92978509  0.05216688  0.54890652],1,1,1,0.29584897,0,0,0,0.315036329,0.341015982,0.072057057,0.41307304,0.268958925,nan,nan,nan,[ nan  nan  nan],nan,nan,nan,2847.951293,3143.296607,3143.592456,nan,nan
0,258,19:41:51:109000,6,1,93,65.390625,[ 1.         -0.2456143  -0.53861988],1,1,1,0.362082822,0,0,0,0.311882974,0.340840235,0.071971685,0.41281192,0.26886855,nan,nan,nan,[ nan  nan  nan],nan,nan,nan,2847.951293,3144.238344,3144.600426,nan,nan
0,259,19:41:52:060000,6,1,285,200.390625,[ 0.17873435  0.35687868  0.59852701],1,1,1,0.316267565,0,0,0,0.324733119,0.340922571,0.071844196,0.412766766,0.269078375,nan,nan,nan,[ nan  nan  nan],nan,nan,nan,2847.951293,3145.180136,3145.496403,nan,nan
0,260,19:41:52:996000,6,1,18,12.65625,[ 0.9886827   0.13116258 -1.        ],1,1,1,0.326446643,0,0,0,0.334932343,0.340827378,0.071721667,0.412549044,0.269105711,nan,nan,nan,[ nan  nan  nan],nan,nan,nan,2847.951293,3146.121932,3146.448378,nan,nan
0,261,19:41:53:932000,6,0,169,118.828125,[ 1.         -0.18591738  0.2391183 ],0,0,1,0.488635065,0,0,0,0.377116424,0.340772067,0.071589142,0.412361209,0.269182926,nan,nan,nan,[ nan  nan  nan],nan,nan,nan,2847.951293,3147.063725,3147.55236,nan,nan
0,262,19:41:54:884000,6,1,109,76.640625,[ 1.         -0.29463833 -0.3577737 ],1,1,1,0.234830668,0,0,0,0.349970792,0.341338592,0.072033439,0.413372031,0.269305154,nan,nan,nan,[ nan  nan  nan],nan,nan,nan,2847.951293,3148.005515,3148.240346,nan,nan
0,263,19:41:55:820000,6,1,299,210.234375,[ 0.05166456  0.39341767  0.53437875],1,1,1,0.277022922,0,0,0,0.333496218,0.340932073,0.072195179,0.413127252,0.268736895,nan,nan,nan,[ nan  nan  nan],nan,nan,nan,2847.951293,3148.947303,3149.224326,nan,nan
0,264,19:41:56:756000,6,1,11,7.734375,[ 0.9346595  0.1638529 -1.       ],1,1,1,0.26323253,0,1,0,0.25836204,0.340689073,0.072165066,0.412854139,0.268524007,nan,nan,nan,[ nan  nan  nan],nan,nan,nan,2847.951293,3149.8891,3150.152333,nan,nan
0,265,19:42:02:980000,6,1,357,251.015625,[-0.17179183  0.47376752  0.06873903],1,1,1,0.361320475,1,0,0,0.300525309,0.340395677,0.072185245,0.412580922,0.268210432,nan,-142.3460448,330,[-0.13976633  0.44951833  0.31954025],nan,-18.66958017,3.217386197,2847.951293,3150.830951,3151.192271,3152.664437,3155.88984
0,266,19:42:03:916000,6,1,411,288.984375,[ 0.05552017  0.46302271 -0.55705476],1,1,1,0.423718642,0,0,0,0.349423882,0.340474638,0.07206034,0.412534978,0.268414299,nan,nan,nan,[ nan  nan  nan],nan,nan,nan,2847.951293,3157.048386,3157.472105,nan,nan
0,267,19:42:04:868000,6,1,500,351.5625,[ 0.74814593  0.26005829 -1.        ],1,1,1,0.297908505,0,0,0,0.360982541,0.340787586,0.072104953,0.412892538,0.268682633,nan,nan,nan,[ nan  nan  nan],nan,nan,nan,2847.951293,3157.990177,3158.288086,nan,nan
0,268,19:42:05:804000,6,1,268,188.4375,[ 0.35230222  0.30236752  0.64500531],1,1,1,0.260114717,0,0,0,0.327247288,0.34062699,0.072017444,0.412644434,0.268609546,nan,nan,nan,[ nan  nan  nan],nan,nan,nan,2847.951293,3158.931971,3159.192086,nan,nan
0,269,19:42:06:740000,6,1,194,136.40625,[ 1.         -0.05248646  0.4355717 ],1,1,1,0.262307963,0,0,0,0.273443728,0.340326571,0.072050376,0.412376947,0.268276195,nan,nan,nan,[ nan  nan  nan],nan,nan,nan,2847.951293,3159.873762,3160.13607,nan,nan
0,270,19:42:07:691000,6,1,50,35.15625,[ 1.         -0.03314873 -1.        ],1,1,1,0.216502684,0,1,0,0.246308455,0.340036539,0.072072895,0.412109434,0.267963644,nan,nan,nan,[ nan  nan  nan],nan,nan,nan,2847.951293,3160.815553,3161.032056,nan,nan
0,271,19:42:12:434000,6,1,445,312.890625,[ 0.2969539  0.4155201 -1.       ],1,1,1,0.258683249,1,0,0,0.245831298,0.339579006,0.072329625,0.411908632,0.267249381,nan,145.3590525,433,[ 0.2065363   0.43616372 -1.        ],nan,-8.249677488,1.750555867,2847.951293,3161.757345,3162.016028,3163.582555,3165.341141
0,272,19:42:13:370000,6,1,43,30.234375,[ 1.          0.00424534 -1.        ],1,1,1,0.540266571,0,0,0,0.338484168,0.339280498,0.072362483,0.411642981,0.266918015,nan,nan,nan,[ nan  nan  nan],nan,nan,nan,2847.951293,3166.499654,3167.039921,nan,nan
0,273,19:42:14:321000,6,0,212,149.0625,[ 0.93926289  0.04677313  0.543851  ],0,0,1,0.462443554,0,0,0,0.420464458,0.340019417,0.073246462,0.41326588,0.266772955,nan,nan,nan,[ nan  nan  nan],nan,nan,nan,2847.951293,3167.441438,3167.903881,nan,nan
0,274,19:42:15:257000,6,1,362,254.53125,[-0.16423973  0.47600016  0.01745785],1,1,1,0.240632378,0,0,0,0.414447501,0.340467857,0.073485311,0.413953168,0.266982547,nan,nan,nan,[ nan  nan  nan],nan,nan,nan,2847.951293,3168.383234,3168.623866,nan,nan
0,275,19:42:16:193000,6,1,32,22.5,[ 1.         0.0617358 -1.       ],1,1,1,0.274820838,0,0,0,0.32596559,0.340103494,0.073597732,0.413701226,0.266505763,nan,nan,nan,[ nan  nan  nan],nan,nan,nan,2847.951293,3169.325021,3169.599842,nan,nan
0,276,19:42:17:145000,6,1,498,350.15625,[ 0.73150794  0.26756188 -1.        ],1,1,1,0.284943182,0,0,0,0.266798799,0.339866103,0.073568815,0.413434917,0.266297288,nan,nan,nan,[ nan  nan  nan],nan,nan,nan,2847.951293,3170.26688,3170.551823,nan,nan
0,277,19:42:18:081000,6,1,354,248.90625,[-0.17447067  0.47210079  0.09886772],1,1,1,0.295200376,0,0,0,0.284988132,0.339667107,0.073509525,0.413176632,0.266157582,nan,nan,nan,[ nan  nan  nan],nan,nan,nan,2847.951293,3171.20861,3171.50381,nan,nan
0,278,19:42:19:017000,6,1,408,286.875,[ 0.03673793  0.46563766 -0.51593845],1,1,1,0.281409984,0,0,0,0.287184514,0.339506577,0.073425166,0.412931743,0.266081411,nan,nan,nan,[ nan  nan  nan],nan,nan,nan,2847.951293,3172.15037,3172.43178,nan,nan
0,279,19:42:19:969000,6,1,265,186.328125,[ 0.38425915  0.29156831  0.64947886],1,1,1,0.291578227,0,0,0,0.289396196,0.339297596,0.073375468,0.412673065,0.265922128,nan,nan,nan,[ nan  nan  nan],nan,nan,nan,2847.951293,3173.092187,3173.383765,nan,nan
0,280,19:42:20:905000,6,1,407,286.171875,[ 0.03058863  0.46645515 -0.50257741],1,1,1,0.317757763,0,0,0,0.296915325,0.339126559,0.073299349,0.412425908,0.26582721,nan,nan,nan,[ nan  nan  nan],nan,nan,nan,2847.951293,3174.033987,3174.351745,nan,nan
0,281,19:42:21:856000,6,1,306,215.15625,[-0.00395437  0.40897401  0.49412883],1,1,1,0.303941998,0,0,0,0.304425996,0.339050242,0.073179444,0.412229686,0.265870798,nan,nan,nan,[ nan  nan  nan],nan,nan,nan,2847.951293,3174.975783,3175.279725,nan,nan
0,282,19:42:22:792000,6,1,89,62.578125,[ 1.         -0.2294841  -0.58737049],1,1,1,0.386130693,0,0,0,0.335943485,0.338925302,0.073079026,0.412004328,0.265846276,nan,nan,nan,[ nan  nan  nan],nan,nan,nan,2847.951293,3175.917571,3176.303701,nan,nan
0,283,19:42:23:728000,6,1,245,172.265625,[ 0.6005777   0.21061011  0.65017283],1,1,1,0.34031287,0,0,0,0.343461854,0.339092697,0.073003287,0.412095983,0.26608941,nan,nan,nan,[ nan  nan  nan],nan,nan,nan,2847.951293,3176.859365,3177.199677,nan,nan
0,284,19:42:24:680000,6,1,92,64.6875,[ 1.         -0.24170366 -0.55060884],1,1,1,0.334421641,0,0,0,0.353621735,0.339097008,0.072874227,0.411971236,0.266222781,nan,nan,nan,[ nan  nan  nan],nan,nan,nan,2847.951293,3177.801221,3178.135643,nan,nan
0,285,19:42:25:616000,6,1,293,206.015625,[ 0.10383026  0.3786596   0.56461706],1,1,1,0.288689917,0,0,0,0.321141476,0.339080546,0.072746342,0.411826887,0.266334204,nan,nan,nan,[ nan  nan  nan],nan,nan,nan,2847.951293,3178.742951,3179.031641,nan,nan
0,286,19:42:26:552000,6,1,87,61.171875,[ 1.         -0.22095901 -0.61267562],1,1,1,0.290870333,0,0,0,0.30466063,0.338903736,0.072679708,0.411583445,0.266224028,nan,nan,nan,[ nan  nan  nan],nan,nan,nan,2847.951293,3179.684742,3179.975612,nan,nan
0,287,19:42:27:503000,6,0,481,338.203125,[ 0.58928949  0.32561186 -1.        ],0,0,1,0.477037633,0,0,0,0.352199294,0.338735788,0.072607914,0.411343702,0.266127873,nan,nan,nan,[ nan  nan  nan],nan,nan,nan,2847.951293,3180.626535,3181.103573,nan,nan
0,288,19:42:28:439000,6,1,178,125.15625,[ 1.         -0.13991966  0.31509783],1,1,1,0.247248892,0,0,0,0.33838562,0.339217675,0.072938015,0.41215569,0.266279661,nan,nan,nan,[ nan  nan  nan],nan,nan,nan,2847.951293,3181.568323,3181.815572,nan,nan
0,289,19:42:29:391000,6,1,44,30.9375,[ 1.         -0.00106984 -1.        ],1,1,1,0.289451124,0,0,0,0.33791255,0.338898339,0.073011978,0.411910317,0.265886362,nan,nan,nan,[ nan  nan  nan],nan,nan,nan,2847.951293,3182.510103,3182.799554,nan,nan
0,290,19:42:30:327000,6,1,110,77.34375,[ 1.         -0.29672275 -0.34692196],1,1,1,0.275623099,0,0,0,0.270774372,0.338727242,0.072943364,0.411670606,0.265783877,nan,nan,nan,[ nan  nan  nan],nan,nan,nan,2847.951293,3183.451908,3183.727531,nan,nan
0,291,19:42:31:263000,6,1,186,130.78125,[ 1.         -0.09673867  0.37788139],1,1,1,0.301790946,0,0,0,0.288955057,0.338509641,0.072911393,0.411421034,0.265598249,nan,nan,nan,[ nan  nan  nan],nan,nan,nan,2847.951293,3184.393708,3184.695499,nan,nan
0,292,19:42:32:215000,6,1,239,168.046875,[ 0.66506983  0.18338886  0.64054927],1,1,1,0.287923008,0,0,0,0.288445685,0.33838346,0.072817719,0.411201179,0.265565741,nan,nan,nan,[ nan  nan  nan],nan,nan,nan,2847.951293,3185.335561,3185.623484,nan,nan
0,293,19:42:33:151000,6,1,22,15.46875,[ 1.          0.11184242 -1.        ],1,1,1,0.274163121,0,0,0,0.287959025,0.33821065,0.072752673,0.410963323,0.265457978,nan,nan,nan,[ nan  nan  nan],nan,nan,nan,2847.951293,3186.277288,3186.551451,nan,nan
0,294,19:42:34:087000,6,1,172,120.9375,[ 1.         -0.17098406  0.26502468],1,1,1,0.260363606,0,0,0,0.274149912,0.337992058,0.072724406,0.410716464,0.265267652,nan,nan,nan,[ nan  nan  nan],nan,nan,nan,2847.951293,3187.21908,3187.479444,nan,nan
0,295,19:42:35:038000,6,1,279,196.171875,[ 0.23815758  0.33893035  0.61897842],1,1,1,0.318539212,0,0,0,0.284355313,0.337728016,0.072741168,0.410469184,0.264986848,nan,nan,nan,[ nan  nan  nan],nan,nan,nan,2847.951293,3188.160868,3188.479407,nan,nan
0,296,19:42:35:974000,6,0,104,73.125,[ 1.         -0.28235148 -0.41264457],0,0,1,0.504722762,0,0,0,0.361208527,0.337662969,0.072626337,0.410289306,0.265036632,nan,nan,nan,[ nan  nan  nan],nan,nan,nan,2847.951293,3189.10266,3189.607383,nan,nan
0,297,19:42:36:926000,6,1,37,26.015625,[ 1.          0.03585655 -1.        ],1,1,1,0.218913743,0,0,0,0.347391906,0.33822736,0.073148711,0.411376071,0.26507865,nan,nan,nan,[ nan  nan  nan],nan,nan,nan,2847.951293,3190.044455,3190.263369,nan,nan
0,298,19:42:37:862000,6,1,219,153.984375,[ 0.87162732  0.08408817  0.57695967],1,1,1,0.253109616,0,0,0,0.325582041,0.337825631,0.073351812,0.411177443,0.264473819,nan,nan,nan,[ nan  nan  nan],nan,nan,nan,2847.951293,3190.986248,3191.239358,nan,nan
0,299,19:42:38:798000,6,1,470,330.46875,[ 0.49774161  0.35774078 -1.        ],1,1,1,0.27928174,0,1,0,0.250435033,0.337541349,0.073392339,0.410933688,0.26414901,nan,nan,nan,[ nan  nan  nan],nan,nan,nan,2847.951293,3191.928045,3192.207326,nan,nan
0,300,19:42:44:773000,6,1,119,83.671875,[ 1.         -0.30944633 -0.2507109 ],1,1,1,0.441423406,1,0,0,0.324604921,0.337346501,0.073346673,0.410693173,0.263999828,nan,-19.42425956,156,[ 1.         -0.24406061  0.12104147],nan,25.75238456,2.967349064,2847.951293,3192.869879,3193.311303,3194.703375,3197.67876
0,301,19:42:45:709000,6,1,201,141.328125,[ 1.         -0.01357126  0.48142235],1,1,1,0.585866295,0,0,0,0.435523814,0.337693424,0.073469642,0.411163066,0.264223782,nan,nan,nan,[ nan  nan  nan],nan,nan,nan,2847.951293,3198.837294,3199.42316,nan,nan
0,302,19:42:46:660000,6,1,312,219.375,[-0.04644836  0.4209252   0.45557321],1,1,1,0.340060845,0,0,0,0.455783515,0.338517918,0.07472478,0.413242699,0.263793138,nan,nan,nan,[ nan  nan  nan],nan,nan,nan,2847.951293,3199.779089,3200.11915,nan,nan
0,303,19:42:47:596000,6,1,202,142.03125,[ 1.         -0.00802826  0.48759698],1,1,1,0.270252171,0,0,0,0.398726437,0.338523027,0.074601014,0.413124041,0.263922013,nan,nan,nan,[ nan  nan  nan],nan,nan,nan,2847.951293,3200.720883,3200.991135,nan,nan
0,304,19:42:48:532000,6,1,270,189.84375,[ 0.33115907  0.30936972  0.64139387],1,1,1,0.288440173,0,0,0,0.299584396,0.338297711,0.074580666,0.412878377,0.263717045,nan,nan,nan,[ nan  nan  nan],nan,nan,nan,2847.951293,3201.662674,3201.951114,nan,nan
0,305,19:42:49:484000,6,1,357,251.015625,[-0.17179183  0.47376752  0.06873903],1,1,1,0.218614107,0,1,0,0.25910215,0.338133706,0.074512608,0.412646314,0.263621098,nan,nan,nan,[ nan  nan  nan],nan,nan,nan,2847.951293,3202.604467,3202.823082,nan,nan
0,306,19:42:56:863000,6,1,41,28.828125,[ 1.         0.0148395 -1.       ],1,1,1,0.236797263,1,0,0,0.247950514,0.337741838,0.074703463,0.412445301,0.263038376,nan,65.41842552,35,[ 1.          0.04626536 -1.        ],nan,-4.246550517,4.400887847,2847.951293,3203.546259,3203.783056,3205.371443,3209.78036
0,307,19:42:57:799000,6,1,499,350.859375,[ 0.73983189  0.26382776 -1.        ],1,1,1,0.476303225,0,0,0,0.310571532,0.337411954,0.074803484,0.412215438,0.26260847,nan,nan,nan,[ nan  nan  nan],nan,nan,nan,2847.951293,3210.930575,3211.406878,nan,nan
0,308,19:42:58:750000,6,1,61,42.890625,[ 1.        -0.0921164 -1.       ],1,1,1,0.294412084,0,0,0,0.335837524,0.337864369,0.07509971,0.412964079,0.262764659,nan,nan,nan,[ nan  nan  nan],nan,nan,nan,2847.951293,3211.872444,3212.166856,nan,nan
0,309,19:42:59:686000,6,1,394,277.03125,[-0.04370902  0.47465593 -0.33940142],1,1,1,0.256700119,0,0,0,0.342471809,0.33772329,0.075018432,0.412741722,0.262704858,nan,nan,nan,[ nan  nan  nan],nan,nan,nan,2847.951293,3212.814156,3213.070856,nan,nan
0,310,19:43:00:638000,6,1,163,114.609375,[ 1.         -0.2142478   0.18572368],1,1,1,0.322890922,0,0,0,0.291334375,0.337461079,0.075038182,0.412499261,0.262422897,nan,nan,nan,[ nan  nan  nan],nan,nan,nan,2847.951293,3213.755935,3214.078826,nan,nan
0,311,19:43:01:574000,6,1,318,223.59375,[-0.08356276  0.43164026  0.41348156],1,1,1,0.293039061,0,0,0,0.290876701,0.337414079,0.07492161,0.412335689,0.262492468,nan,nan,nan,[ nan  nan  nan],nan,nan,nan,2847.951293,3214.697756,3214.990795,nan,nan
0,312,19:43:02:510000,6,1,67,47.109375,[ 1.         -0.12380467 -1.        ],1,1,1,0.271238319,0,0,0,0.295722767,0.337271394,0.074843236,0.412114629,0.262428158,nan,nan,nan,[ nan  nan  nan],nan,nan,nan,2847.951293,3215.639537,3215.910775,nan,nan
0,313,19:43:03:462000,6,1,308,216.5625,[-0.01868286  0.41309748  0.48168233],1,1,1,0.297427833,0,0,0,0.287235071,0.337059749,0.074816356,0.411876105,0.262243393,nan,nan,nan,[ nan  nan  nan],nan,nan,nan,2847.951293,3216.581327,3216.878755,nan,nan
0,314,19:43:04:398000,6,1,228,160.3125,[ 0.78072981  0.13027695  0.61143314],1,1,1,0.291603601,0,0,0,0.286756584,0.33693313,0.074730221,0.41166335,0.262202909,nan,nan,nan,[ nan  nan  nan],nan,nan,nan,2847.951293,3217.523122,3217.814726,nan,nan
0,315,19:43:05:334000,6,1,404,284.0625,[ 0.01248946  0.46874627 -0.4633491 ],1,1,1,0.277799524,0,0,0,0.288943653,0.336788768,0.074654829,0.411443597,0.262133939,nan,nan,nan,[ nan  nan  nan],nan,nan,nan,2847.951293,3218.464918,3218.742717,nan,nan
0,316,19:43:06:285000,6,1,302,212.34375,[ 0.02708608  0.40030084  0.51777002],1,1,1,0.263902791,0,0,0,0.277768639,0.336601501,0.074610067,0.411211567,0.261991434,nan,nan,nan,[ nan  nan  nan],nan,nan,nan,2847.951293,3219.406787,3219.67069,nan,nan
0,317,19:43:07:221000,6,1,236,165.9375,[ 0.69700456  0.16930175  0.63406585],1,1,1,0.258179769,0,0,0,0.266627361,0.336371441,0.074603741,0.410975182,0.261767701,nan,nan,nan,[ nan  nan  nan],nan,nan,nan,2847.951293,3220.348498,3220.606677,nan,nan
0,318,19:43:08:173000,6,1,172,120.9375,[ 1.         -0.17098406  0.26502468],1,1,1,0.180359033,0,1,0,0.234147198,0.33612478,0.074614923,0.410739703,0.261509857,nan,nan,nan,[ nan  nan  nan],nan,nan,nan,2847.951293,3221.290293,3221.470652,nan,nan
0,319,19:43:13:773000,6,1,62,43.59375,[ 1.         -0.09743725 -1.        ],1,1,1,0.206547977,1,0,0,0.215028926,0.335634951,0.075006252,0.410641203,0.260628698,nan,38.26707867,74,[ 1.         -0.15971516 -0.81044328],nan,8.139171327,2.617315551,2847.951293,3222.232079,3222.438627,3224.057294,3226.68264
0,320,19:43:14:709000,6,1,437,307.265625,[ 0.23613483  0.42977024 -1.        ],1,1,1,0.293669409,0,0,0,0.226858806,0.335230289,0.07523546,0.410465749,0.259994829,nan,nan,nan,[ nan  nan  nan],nan,nan,nan,2847.951293,3227.832843,3228.126513,nan,nan
0,321,19:43:15:645000,6,1,194,136.40625,[ 1.         -0.05248646  0.4355717 ],1,1,1,0.343841792,0,0,0,0.281353059,0.335100411,0.075153621,0.410254033,0.25994679,nan,nan,nan,[ nan  nan  nan],nan,nan,nan,2847.951293,3228.774623,3229.118464,nan,nan
0,322,19:43:16:597000,6,1,23,16.171875,[ 1.          0.10694394 -1.        ],1,1,1,0.282030353,0,0,0,0.306513851,0.335127643,0.075038049,0.410165693,0.260089594,nan,nan,nan,[ nan  nan  nan],nan,nan,nan,2847.951293,3229.716417,3229.998447,nan,nan
0,323,19:43:17:533000,6,0,421,296.015625,[ 0.12147167  0.45251804 -0.71261034],0,1,0,0.284232152,0,0,0,0.303368099,0.334962745,0.074979668,0.409942413,0.259983077,nan,nan,nan,[ nan  nan  nan],nan,nan,nan,2847.951293,3230.658207,3230.94244,nan,nan
0,324,19:43:18:469000,6,1,128,90,[ 1.         -0.31066301 -0.15668979],1,1,1,0.254429042,0,0,0,0.273563849,0.334805684,0.074916543,0.409722227,0.259889142,nan,nan,nan,[ nan  nan  nan],nan,nan,nan,2847.951293,3231.599986,3231.854415,nan,nan
0,325,19:43:19:420000,6,1,253,177.890625,[ 0.5138659   0.24483993  0.65597719],1,1,1,0.256604612,0,0,0,0.265088602,0.334557608,0.074933596,0.409491204,0.259624012,nan,nan,nan,[ nan  nan  nan],nan,nan,nan,2847.951293,3232.541792,3232.798396,nan,nan
0,326,19:43:20:356000,6,1,434,305.15625,[ 0.21388182  0.43461034 -1.        ],1,1,1,0.3227823,0,0,0,0.277938651,0.334317753,0.074942689,0.409260442,0.259375063,nan,nan,nan,[ nan  nan  nan],nan,nan,nan,2847.951293,3233.48359,3233.806373,nan,nan
0,327,19:43:21:308000,6,1,477,335.390625,[ 0.55587987  0.33778403 -1.        ],1,1,1,0.324963287,0,0,0,0.301450066,0.334282368,0.074830377,0.409112745,0.259451991,nan,nan,nan,[ nan  nan  nan],nan,nan,nan,2847.951293,3234.425374,3234.750338,nan,nan
0,328,19:43:22:244000,6,0,243,170.859375,[ 0.62215101  0.20168048  0.64746348],0,0,1,0.519140936,0,0,0,0.388962174,0.334253869,0.074717642,0.408971511,0.259536227,nan,nan,nan,[ nan  nan  nan],nan,nan,nan,2847.951293,3235.367179,3235.88632,nan,nan
0,329,19:43:23:180000,6,1,318,223.59375,[-0.08356276  0.43164026  0.41348156],1,1,1,0.289347634,0,0,0,0.377817286,0.334817549,0.075296779,0.410114328,0.25952077,nan,nan,nan,[ nan  nan  nan],nan,nan,nan,2847.951293,3236.308957,3236.598305,nan,nan
0,330,19:43:24:132000,6,1,370,260.15625,[-0.144806    0.47817873 -0.06718033],1,1,1,0.323568881,0,0,0,0.377352484,0.334679343,0.075223914,0.409903257,0.259455429,nan,nan,nan,[ nan  nan  nan],nan,nan,nan,2847.951293,3237.250751,3237.57432,nan,nan
0,331,19:43:25:068000,6,1,463,325.546875,[ 0.44023832  0.3760118  -1.        ],1,1,1,0.309721755,0,0,0,0.30754609,0.334645675,0.075112334,0.409758009,0.25953334,nan,nan,nan,[ nan  nan  nan],nan,nan,nan,2847.951293,3238.192543,3238.502265,nan,nan
0,332,19:43:26:004000,6,1,411,288.984375,[ 0.05552017  0.46302271 -0.55705476],1,1,1,0.343869446,0,0,0,0.325720027,0.334570376,0.075011259,0.409581635,0.259559117,nan,nan,nan,[ nan  nan  nan],nan,nan,nan,2847.951293,3239.134371,3239.47824,nan,nan
0,333,19:43:26:955000,6,1,191,134.296875,[ 1.         -0.06914798  0.41457165],1,1,1,0.378064749,0,0,0,0.343885317,0.334598385,0.074899938,0.409498323,0.259698447,nan,nan,nan,[ nan  nan  nan],nan,nan,nan,2847.951293,3240.076132,3240.454197,nan,nan
0,334,19:43:27:891000,6,1,88,61.875,[ 1.         -0.22525759 -0.59993285],1,1,1,0.308269189,0,0,0,0.343401128,0.334728915,0.0748252,0.409554115,0.259903715,nan,nan,nan,[ nan  nan  nan],nan,nan,nan,2847.951293,3241.017923,3241.326192,nan,nan
0,335,19:43:28:843000,6,0,266,187.03125,[ 0.37357759  0.29520749  0.64811377],0,0,1,0.47845,0,0,0,0.388261313,0.334649694,0.074727087,0.409376781,0.259922607,nan,nan,nan,[ nan  nan  nan],nan,nan,nan,2847.951293,3241.959714,3242.438164,nan,nan
0,336,19:43:29:779000,6,1,398,279.84375,[-0.02203778  0.4726088  -0.38794338],1,1,1,0.264637484,0,0,0,0.350452224,0.335078949,0.075026736,0.410105685,0.260052213,nan,nan,nan,[ nan  nan  nan],nan,nan,nan,2847.951293,3242.901507,3243.166144,nan,nan
0,337,19:43:30:715000,6,1,18,12.65625,[ 0.9886827   0.13116258 -1.        ],1,1,1,0.314815855,0,0,0,0.352634446,0.334869301,0.075013212,0.409882514,0.259856089,nan,nan,nan,[ nan  nan  nan],nan,nan,nan,2847.951293,3243.843304,3244.15812,nan,nan
0,338,19:43:31:666000,6,1,132,92.8125,[ 1.         -0.30742683 -0.11555536],1,1,1,0.461011516,0,0,0,0.346821618,0.334809796,0.074909776,0.409719571,0.25990002,nan,nan,nan,[ nan  nan  nan],nan,nan,nan,2847.951293,3244.785096,3245.246107,nan,nan
0,339,19:43:32:602000,6,1,400,281.25,[-0.01078748  0.4714273  -0.41269269],1,1,1,0.399194945,0,0,0,0.391674105,0.335183174,0.075112276,0.41029545,0.260070897,nan,nan,nan,[ nan  nan  nan],nan,nan,nan,2847.951293,3245.72688,3246.126075,nan,nan
0,340,19:43:33:538000,6,1,1,0.703125,[ 0.85493913  0.20787707 -1.        ],1,1,1,0.345381027,0,0,0,0.401862496,0.335371999,0.075081707,0.410453706,0.260290291,nan,nan,nan,[ nan  nan  nan],nan,nan,nan,2847.951293,3246.668679,3247.01406,nan,nan
0,341,19:43:34:490000,6,1,406,285.46875,[ 0.02449675  0.4672457  -0.4893661 ],1,1,1,0.363575586,0,0,0,0.369383853,0.335401437,0.074973171,0.410374608,0.260428266,nan,nan,nan,[ nan  nan  nan],nan,nan,nan,2847.951293,3247.610459,3247.974035,nan,nan
0,342,19:43:35:426000,6,0,314,220.78125,[-0.05944389  0.42463231  0.44192541],0,0,1,0.477762348,0,0,0,0.395572987,0.335484059,0.074878659,0.410362718,0.2606054,nan,nan,nan,[ nan  nan  nan],nan,nan,nan,2847.951293,3248.552258,3249.03002,nan,nan
0,343,19:43:36:362000,6,1,135,94.921875,[ 1.         -0.30350232 -0.08497887],1,1,1,0.255943473,0,0,0,0.365760469,0.335900078,0.075162735,0.411062812,0.260737343,nan,nan,nan,[ nan  nan  nan],nan,nan,nan,2847.951293,3249.494057,3249.75,nan,nan
0,344,19:43:37:314000,6,1,460,323.4375,[ 0.41584892  0.38333493 -1.        ],1,1,1,0.274130335,0,0,0,0.335945385,0.335666968,0.075176794,0.410843762,0.260490174,nan,nan,nan,[ nan  nan  nan],nan,nan,nan,2847.951293,3250.435845,3250.709976,nan,nan
0,345,19:43:38:250000,6,0,120,84.375,[ 1.         -0.3101615  -0.24016291],0,0,1,0.44430801,0,0,0,0.32479394,0.335488082,0.075140518,0.4106286,0.260347565,nan,nan,nan,[ nan  nan  nan],nan,nan,nan,2847.951293,3251.377637,3251.821945,nan,nan
0,346,19:43:39:201000,6,1,228,160.3125,[ 0.78072981  0.13027695  0.61143314],1,1,1,0.230484091,0,0,0,0.316307479,0.335803503,0.075259261,0.411062764,0.260544241,nan,nan,nan,[ nan  nan  nan],nan,nan,nan,2847.951293,3252.319434,3252.549918,nan,nan
0,347,19:43:40:137000,6,1,489,343.828125,[ 0.65628486  0.29957244 -1.        ],1,1,1,0.296690289,0,0,0,0.323827463,0.335499111,0.075362804,0.410861915,0.260136307,nan,nan,nan,[ nan  nan  nan],nan,nan,nan,2847.951293,3253.261224,3253.557914,nan,nan
0,348,19:43:41:073000,6,1,369,259.453125,[-0.14769469  0.47799919 -0.05643387],1,1,1,0.274859326,0,0,0,0.267344569,0.33538727,0.075282884,0.410670154,0.260104386,nan,nan,nan,[ nan  nan  nan],nan,nan,nan,2847.951293,3254.203017,3254.477876,nan,nan
0,349,19:43:42:025000,6,1,455,319.921875,[ 0.37560825  0.39487537 -1.        ],1,1,1,0.269055621,0,0,0,0.280201746,0.335213339,0.075244429,0.410457768,0.259968911,nan,nan,nan,[ nan  nan  nan],nan,nan,nan,2847.951293,3255.144806,3255.413862,nan,nan
0,350,19:43:42:961000,6,1,311,218.671875,[-0.03972498  0.41902022  0.46225021],1,1,1,0.287266716,0,0,0,0.277060555,0.335023776,0.075219722,0.410243497,0.259804054,nan,nan,nan,[ nan  nan  nan],nan,nan,nan,2847.951293,3256.086562,3256.373829,nan,nan
0,351,19:43:43:897000,6,1,236,165.9375,[ 0.69700456  0.16930175  0.63406585],1,1,1,0.337422564,0,0,0,0.297914967,0.334887327,0.075155429,0.410042756,0.259731898,nan,nan,nan,[ nan  nan  nan],nan,nan,nan,2847.951293,3257.028393,3257.365816,nan,nan
0,352,19:43:44:848000,6,1,84,59.0625,[ 1.         -0.20765784 -0.65219109],1,1,1,0.539601156,0,0,0,0.388096812,0.33489455,0.075048416,0.409942965,0.259846134,nan,nan,nan,[ nan  nan  nan],nan,nan,nan,2847.951293,3257.970181,3258.509782,nan,nan
0,353,19:43:45:784000,6,1,365,256.640625,[-0.15796203  0.47701659 -0.01391969],1,1,1,0.317808225,0,0,0,0.398277315,0.335476103,0.075729607,0.41120571,0.259746495,nan,nan,nan,[ nan  nan  nan],nan,nan,nan,2847.951293,3258.911971,3259.229779,nan,nan
0,354,19:43:46:736000,6,1,275,193.359375,[ 0.27900239  0.32618525  0.63017847],1,1,1,0.311976866,0,0,0,0.389795416,0.335426052,0.075628096,0.411054148,0.259797956,nan,nan,nan,[ nan  nan  nan],nan,nan,nan,2847.951293,3259.85377,3260.165747,nan,nan
0,355,19:43:47:672000,6,0,462,324.84375,[ 0.43208968  0.37848636 -1.        ],0,0,1,0.386168611,0,0,0,0.338651234,0.335359811,0.075531455,0.410891266,0.259828357,nan,nan,nan,[ nan  nan  nan],nan,nan,nan,2847.951293,3260.795565,3261.181734,nan,nan
0,356,19:43:48:608000,6,1,201,141.328125,[ 1.         -0.01357126  0.48142235],1,1,1,0.220364313,0,0,0,0.30616993,0.335502935,0.075473053,0.410975987,0.260029882,nan,nan,nan,[ nan  nan  nan],nan,nan,nan,2847.951293,3261.737352,3261.957717,nan,nan
0,357,19:43:49:560000,6,1,53,37.265625,[ 1.         -0.04925756 -1.        ],1,1,1,0.390537712,0,0,0,0.332356879,0.335179512,0.075612929,0.410792441,0.259566583,nan,nan,nan,[ nan  nan  nan],nan,nan,nan,2847.951293,3262.679144,3263.069682,nan,nan
0,358,19:43:50:496000,6,1,136,95.625,[ 1.         -0.3019149  -0.07484121],1,1,1,0.368716727,0,0,0,0.326539584,0.335334577,0.075563617,0.410898194,0.259770959,nan,nan,nan,[ nan  nan  nan],nan,nan,nan,2847.951293,3263.620937,3263.989654,nan,nan
0,359,19:43:51:432000,6,1,226,158.90625,[ 0.80126593  0.12020899  0.60458277],1,1,1,0.314917634,0,0,0,0.358057358,0.335427823,0.075478573,0.410906396,0.25994925,nan,nan,nan,[ nan  nan  nan],nan,nan,nan,2847.951293,3264.562728,3264.877646,nan,nan
0,360,19:43:52:383000,6,1,331,232.734375,[-0.14329784  0.45080175  0.31116671],1,1,1,0.309093687,0,0,0,0.33090935,0.335370691,0.075381127,0.410751819,0.259989564,nan,nan,nan,[ nan  nan  nan],nan,nan,nan,2847.951293,3265.504515,3265.813609,nan,nan
0,361,19:43:53:319000,6,1,146,102.65625,[ 1.         -0.27879258  0.02488132],1,1,1,0.335274364,0,0,0,0.319761895,0.3352977,0.075289062,0.410586762,0.260008638,nan,nan,nan,[ nan  nan  nan],nan,nan,nan,2847.951293,3266.446316,3266.78159,nan,nan
0,362,19:43:54:271000,6,0,417,293.203125,[ 0.0945046   0.45705356 -0.6457202 ],0,1,0,0.249480341,0,0,0,0.297949464,0.335297635,0.075184711,0.410482346,0.260112924,nan,nan,nan,[ nan  nan  nan],nan,nan,nan,2847.951293,3267.388106,3267.637586,nan,nan
0,363,19:43:55:207000,6,1,136,95.625,[ 1.         -0.3019149  -0.07484121],1,1,1,0.267668628,0,0,0,0.284141111,0.335060571,0.07521578,0.41027635,0.259844791,nan,nan,nan,[ nan  nan  nan],nan,nan,nan,2847.951293,3268.3299,3268.597569,nan,nan
0,364,19:43:56:143000,6,1,197,138.515625,[ 1.         -0.0357976   0.45577474],1,1,1,0.301863646,0,0,0,0.273004205,0.334874918,0.075195115,0.410070033,0.259679803,nan,nan,nan,[ nan  nan  nan],nan,nan,nan,2847.951293,3269.27168,3269.573544,nan,nan
0,365,19:43:57:094000,6,1,497,349.453125,[ 0.72317494  0.2712606  -1.        ],1,1,1,0.304045773,0,0,0,0.291192682,0.334784228,0.075111631,0.409895859,0.259672597,nan,nan,nan,[ nan  nan  nan],nan,nan,nan,2847.951293,3270.21348,3270.517526,nan,nan
0,366,19:43:58:030000,6,1,103,72.421875,[ 1.         -0.27953747 -0.42375884],1,1,1,0.266255406,0,0,0,0.290721608,0.334700013,0.075025874,0.409725887,0.259674139,nan,nan,nan,[ nan  nan  nan],nan,nan,nan,2847.951293,3271.155238,3271.421494,nan,nan
0,367,19:43:58:966000,6,1,504,354.375,[ 0.78128615  0.24462829 -1.        ],1,1,1,0.276403693,0,0,0,0.282234957,0.334513006,0.075008446,0.409521452,0.259504559,nan,nan,nan,[ nan  nan  nan],nan,nan,nan,2847.951293,3272.097072,3272.373476,nan,nan
0,368,19:43:59:918000,6,1,130,91.40625,[ 1.         -0.30933315 -0.13607149],1,1,1,0.278594943,0,0,0,0.273751347,0.33435467,0.074967408,0.409322078,0.259387261,nan,nan,nan,[ nan  nan  nan],nan,nan,nan,2847.951293,3273.038859,3273.317454,nan,nan
0,369,19:44:00:854000,6,1,286,201.09375,[ 0.16907896  0.35973478  0.59469871],1,1,1,0.29676869,0,0,0,0.283922442,0.334203149,0.074921733,0.409124882,0.259281416,nan,nan,nan,[ nan  nan  nan],nan,nan,nan,2847.951293,3273.980652,3274.27742,nan,nan
0,370,19:44:01:806000,6,1,505,355.078125,[ 0.78953796  0.24068314 -1.        ],1,1,1,0.266952751,0,0,0,0.280772128,0.3341017,0.07484545,0.40894715,0.259256251,nan,nan,nan,[ nan  nan  nan],nan,nan,nan,2847.951293,3274.922449,3275.189401,nan,nan
0,371,19:44:02:742000,6,1,354,248.90625,[-0.17447067  0.47210079  0.09886772],1,1,1,0.30914643,0,0,0,0.290955957,0.333920217,0.074825495,0.408745712,0.259094721,nan,nan,nan,[ nan  nan  nan],nan,nan,nan,2847.951293,3275.864238,3276.173385,nan,nan
0,372,19:44:03:678000,6,1,192,135,[ 1.         -0.06359976  0.42165841],1,1,1,0.319310398,0,0,0,0.29846986,0.333853441,0.074735623,0.408589064,0.259117818,nan,nan,nan,[ nan  nan  nan],nan,nan,nan,2847.951293,3276.806043,3277.125353,nan,nan
0,373,19:44:04:629000,6,1,333,234.140625,[-0.14981348  0.45327595  0.29418374],1,1,1,0.305514874,0,0,0,0.311323901,0.333814347,0.074638903,0.408453249,0.259175444,nan,nan,nan,[ nan  nan  nan],nan,nan,nan,2847.951293,3277.747822,3278.053336,nan,nan
0,374,19:44:05:565000,6,1,284,199.6875,[ 0.18846515  0.3539841   0.60223628],1,1,1,0.275691237,0,0,0,0.30017217,0.333738477,0.074553146,0.408291622,0.259185331,nan,nan,nan,[ nan  nan  nan],nan,nan,nan,2847.951293,3278.689618,3278.965309,nan,nan
0,375,19:44:06:501000,6,1,187,131.484375,[ 1.         -0.09124635  0.38538321],1,1,1,0.269887247,0,0,0,0.283697786,0.33358327,0.074513726,0.408096996,0.259069544,nan,nan,nan,[ nan  nan  nan],nan,nan,nan,2847.951293,3279.631407,3279.901294,nan,nan
0,376,19:44:07:453000,6,1,280,196.875,[ 0.22808935  0.34201885  0.61587222],1,1,1,0.24007701,0,0,0,0.261885165,0.333413414,0.074486774,0.407900188,0.25892664,nan,nan,nan,[ nan  nan  nan],nan,nan,nan,2847.951293,3280.573195,3280.813272,nan,nan
0,377,19:44:08:389000,6,0,140,98.4375,[ 1.         -0.29420925 -0.03457774],0,1,0,0.22626381,0,0,0,0.245409356,0.333165179,0.074542815,0.407707994,0.258622365,nan,nan,nan,[ nan  nan  nan],nan,nan,nan,2847.951293,3281.51499,3281.741254,nan,nan
0,378,19:44:09:340000,6,1,366,257.34375,[-0.15559338  0.47730203 -0.02447665],1,1,1,0.268457204,0,0,0,0.244932675,0.332881621,0.074646664,0.407528285,0.258234957,nan,nan,nan,[ nan  nan  nan],nan,nan,nan,2847.951293,3282.456785,3282.725242,nan,nan
0,379,19:44:10:276000,6,1,187,131.484375,[ 1.         -0.09124635  0.38538321],1,1,1,0.24669495,0,0,0,0.247138655,0.332711186,0.074621274,0.40733246,0.258089912,nan,nan,nan,[ nan  nan  nan],nan,nan,nan,2847.951293,3283.398574,3283.645269,nan,nan
0,380,19:44:11:212000,6,1,75,52.734375,[ 1.         -0.16471446 -0.79135592],1,1,1,0.240827669,0,1,0,0.251993274,0.33248423,0.074653283,0.407137514,0.257830947,nan,nan,nan,[ nan  nan  nan],nan,nan,nan,2847.951293,3284.340367,3284.581194,nan,nan
0,381,19:44:16:766000,6,1,134,94.21875,[ 1.         -0.304951   -0.09514411],1,1,1,0.267011481,1,0,0,0.251511367,0.332243029,0.074702718,0.406945747,0.25754031,nan,-27.54228314,167,[ 1.         -0.19560581  0.22154672],nan,23.32353314,2.558957768,2847.951293,3285.28216,3285.549172,3287.115702,3289.682689
0,382,19:44:17:702000,6,1,209,146.953125,[ 0.96730184  0.03048352  0.52805   ],1,1,1,0.220479207,0,0,0,0.242772786,0.332071817,0.074679236,0.406751053,0.257392582,nan,nan,nan,[ nan  nan  nan],nan,nan,nan,2847.951293,3290.824572,3291.045051,nan,nan
0,383,19:44:18:638000,6,1,340,239.0625,[-0.16683717  0.46098011  0.2323764 ],1,1,1,0.302610313,0,0,0,0.263367,0.33177969,0.074799082,0.406578772,0.256980608,nan,nan,nan,[ nan  nan  nan],nan,nan,nan,2847.951293,3291.766375,3292.068985,nan,nan
0,384,19:44:19:590000,6,1,375,263.671875,[-0.1285567   0.47868243 -0.12160516],1,1,1,0.272826305,0,0,0,0.265305275,0.33170353,0.074716199,0.406419729,0.256987331,nan,nan,nan,[ nan  nan  nan],nan,nan,nan,2847.951293,3292.70814,3292.980966,nan,nan
0,385,19:44:20:526000,6,1,440,309.375,[ 0.2586994  0.4246574 -1.       ],1,1,1,0.259032206,0,0,0,0.278156275,0.331550204,0.074679157,0.406229361,0.256871047,nan,nan,nan,[ nan  nan  nan],nan,nan,nan,2847.951293,3293.649935,3293.908968,nan,nan
0,386,19:44:21:462000,6,0,343,241.171875,[-0.17138818  0.46383642  0.20482281],0,1,0,0.253219378,0,0,0,0.26169263,0.331361845,0.074673387,0.406035232,0.256688458,nan,nan,nan,[ nan  nan  nan],nan,nan,nan,2847.951293,3294.591735,3294.844954,nan,nan
0,387,19:44:22:413000,6,1,260,182.8125,[ 0.43801664  0.27278198  0.65440657],1,1,1,0.263450058,0,0,0,0.258567214,0.331159404,0.074682308,0.405841712,0.256477096,nan,nan,nan,[ nan  nan  nan],nan,nan,nan,2847.951293,3295.533488,3295.796938,nan,nan
0,388,19:44:23:349000,6,1,323,227.109375,[-0.11001989  0.43965345  0.37585536],1,1,1,0.289567443,0,0,0,0.268745627,0.330984444,0.074664924,0.405649368,0.25631952,nan,nan,nan,[ nan  nan  nan],nan,nan,nan,2847.951293,3296.475313,3296.76488,nan,nan
0,389,19:44:24:301000,6,1,406,285.46875,[ 0.02449675  0.4672457  -0.4893661 ],1,1,1,0.283763168,0,0,0,0.27892689,0.330877699,0.074598206,0.405475906,0.256279493,nan,nan,nan,[ nan  nan  nan],nan,nan,nan,2847.951293,3297.41711,3297.700873,nan,nan
0,390,19:44:25:237000,6,1,31,21.796875,[ 1.          0.06685157 -1.        ],1,1,1,0.269943981,0,0,0,0.281091531,0.330756582,0.074540448,0.405297031,0.256216134,nan,nan,nan,[ nan  nan  nan],nan,nan,nan,2847.951293,3298.358899,3298.628843,nan,nan
0,391,19:44:26:173000,6,1,136,95.625,[ 1.         -0.3019149  -0.07484121],1,1,1,0.240114928,0,0,0,0.264607359,0.330600653,0.07450832,0.405108973,0.256092332,nan,nan,nan,[ nan  nan  nan],nan,nan,nan,2847.951293,3299.300693,3299.540808,nan,nan
0,392,19:44:27:124000,6,1,32,22.5,[ 1.         0.0617358 -1.       ],1,1,1,0.266310429,0,0,0,0.25878978,0.330369231,0.074553191,0.404922423,0.25581604,nan,nan,nan,[ nan  nan  nan],nan,nan,nan,2847.951293,3300.242484,3300.508795,nan,nan
0,393,19:44:28:060000,6,1,172,120.9375,[ 1.         -0.17098406  0.26502468],1,1,1,0.292507071,0,0,0,0.266310809,0.330205816,0.074528121,0.404733937,0.255677695,nan,nan,nan,[ nan  nan  nan],nan,nan,nan,2847.951293,3301.184279,3301.476786,nan,nan
0,394,19:44:28:996000,6,1,247,173.671875,[ 0.57894763  0.21939267  0.65238059],1,1,1,0.278687599,0,0,0,0.279168367,0.33010989,0.074457467,0.404567358,0.255652423,nan,nan,nan,[ nan  nan  nan],nan,nan,nan,2847.951293,3302.126067,3302.404755,nan,nan
0,395,19:44:29:948000,6,0,185,130.078125,[ 1.         -0.10221447  0.37029995],0,1,0,0.24089039,0,0,0,0.27069502,0.329979377,0.074407915,0.404387292,0.255571462,nan,nan,nan,[ nan  nan  nan],nan,nan,nan,2847.951293,3303.067861,3303.308752,nan,nan
0,396,19:44:30:884000,6,1,469,329.765625,[ 0.4894822   0.36045336 -1.        ],1,1,1,0.243078219,0,0,0,0.254218736,0.329753835,0.074448396,0.404202232,0.255305439,nan,nan,nan,[ nan  nan  nan],nan,nan,nan,2847.951293,3304.009649,3304.252727,nan,nan
0,397,19:44:31:836000,6,1,53,37.265625,[ 1.         -0.04925756 -1.        ],1,1,1,0.253264709,0,0,0,0.245744439,0.329534957,0.07448148,0.404016437,0.255053478,nan,nan,nan,[ nan  nan  nan],nan,nan,nan,2847.951293,3304.951445,3305.20471,nan,nan
0,398,19:44:32:772000,6,1,209,146.953125,[ 0.96730184  0.03048352  0.52805   ],1,1,1,0.239460347,0,1,0,0.245267758,0.329342841,0.074485792,0.403828633,0.254857049,nan,nan,nan,[ nan  nan  nan],nan,nan,nan,2847.951293,3305.893241,3306.132701,nan,nan
0,399,19:44:37:592000,6,1,273,191.953125,[ 0.29973296  0.31957719  0.63503803],1,1,1,0.289638717,1,0,0,0.260787924,0.329117006,0.074528121,0.403645126,0.254588885,nan,-139.2438523,326,[-0.12383419  0.44407177  0.35222354],nan,37.29072727,1.833857293,2847.951293,3306.835027,3307.124666,3308.660241,3310.502149
0,400,19:44:38:528000,6,1,139,97.734375,[ 1.         -0.29633561 -0.04459929],1,1,1,0.336212616,0,0,0,0.288437227,0.329018062,0.074460837,0.403478899,0.254557226,nan,nan,nan,[ nan  nan  nan],nan,nan,nan,2847.951293,3311.652334,3311.988547,nan,nan
0,401,19:44:39:464000,6,1,507,356.484375,[ 0.80599565  0.23268835 -1.        ],1,1,1,0.290402205,0,0,0,0.305417846,0.329036049,0.07436857,0.403404619,0.254667479,nan,nan,nan,[ nan  nan  nan],nan,nan,nan,2847.951293,3312.594132,3312.884534,nan,nan
0,402,19:44:40:416000,6,1,85,59.765625,[ 1.         -0.21215645 -0.63878123],1,1,1,0.236515587,0,0,0,0.287710136,0.328939705,0.074300773,0.403240478,0.254638932,nan,nan,nan,[ nan  nan  nan],nan,nan,nan,2847.951293,3313.53599,3313.772505,nan,nan
0,403,19:44:41:352000,6,1,336,236.25,[-0.15821161  0.45675811  0.26813527],1,1,1,0.270771046,0,0,0,0.26589628,0.328709794,0.074350981,0.403060776,0.254358813,nan,nan,nan,[ nan  nan  nan],nan,nan,nan,2847.951293,3314.477721,3314.748492,nan,nan
0,404,19:44:42:303000,6,1,499,350.859375,[ 0.73983189  0.26382776 -1.        ],1,1,1,0.256969535,0,0,0,0.254752056,0.328566026,0.074314603,0.402880629,0.254251423,nan,nan,nan,[ nan  nan  nan],nan,nan,nan,2847.951293,3315.419511,3315.676481,nan,nan
0,405,19:44:43:239000,6,1,210,147.65625,[ 0.9580225   0.0359305   0.53342186],1,1,1,0.291156285,0,0,0,0.272965622,0.328388807,0.074307787,0.402696593,0.25408102,nan,nan,nan,[ nan  nan  nan],nan,nan,nan,2847.951293,3316.361298,3316.652454,nan,nan
0,406,19:44:44:175000,6,1,47,33.046875,[ 1.         -0.01707559 -1.        ],1,1,1,0.245327913,0,0,0,0.264484578,0.328296875,0.074238992,0.402535866,0.254057883,nan,nan,nan,[ nan  nan  nan],nan,nan,nan,2847.951293,3317.303092,3317.54842,nan,nan
0,407,19:44:45:127000,6,1,279,196.171875,[ 0.23815758  0.33893035  0.61897842],1,1,1,0.279521506,0,0,0,0.272001901,0.328092518,0.074261473,0.402353991,0.253831044,nan,nan,nan,[ nan  nan  nan],nan,nan,nan,2847.951293,3318.244885,3318.524406,nan,nan
0,408,19:44:46:063000,6,1,231,162.421875,[ 0.74960968  0.14515127  0.62082146],1,1,1,0.329703297,0,0,0,0.284850906,0.327973178,0.074209156,0.402182334,0.253764022,nan,nan,nan,[ nan  nan  nan],nan,nan,nan,2847.951293,3319.186676,3319.516379,nan,nan
0,409,19:44:46:999000,6,1,352,247.5,[-0.17544713  0.4708516   0.11867359],1,1,1,0.339897485,0,0,0,0.316374096,0.327977419,0.074118207,0.402095626,0.253859212,nan,nan,nan,[ nan  nan  nan],nan,nan,nan,2847.951293,3320.128467,3320.468364,nan,nan
0,410,19:44:47:950000,6,1,124,87.1875,[ 1.         -0.31157719 -0.19822652],1,1,1,0.262013173,0,0,0,0.310537985,0.328006563,0.074029883,0.402036446,0.25397668,nan,nan,nan,[ nan  nan  nan],nan,nan,nan,2847.951293,3321.070326,3321.33234,nan,nan
0,411,19:44:48:886000,6,1,484,340.3125,[ 0.61439895  0.31611274 -1.        ],1,1,1,0.312258541,0,0,0,0.304723067,0.327845604,0.074011168,0.401856772,0.253834435,nan,nan,nan,[ nan  nan  nan],nan,nan,nan,2847.951293,3322.01205,3322.324308,nan,nan
0,412,19:44:49:838000,6,1,145,101.953125,[ 1.         -0.28166741  0.01505517],1,1,1,0.290441834,0,0,0,0.288237849,0.327807679,0.073925064,0.401732743,0.253882615,nan,nan,nan,[ nan  nan  nan],nan,nan,nan,2847.951293,3322.953843,3323.244285,nan,nan
0,413,19:44:50:774000,6,1,352,247.5,[-0.17544713  0.4708516   0.11867359],1,1,1,0.37263338,0,0,0,0.325111252,0.327716985,0.073858184,0.40157517,0.253858801,nan,nan,nan,[ nan  nan  nan],nan,nan,nan,2847.951293,3323.895637,3324.268271,nan,nan
