block,trial,freq_trials,correct_response,actual_response,acc,rts,probe_trials,fast_rt_trigger,slow_rt_trigger,rt_triggered,rts_runningavg,rts_runningstd,rts_runningfastthresh,rts_runningslowthresh,rts_runningstd,rts_trailingavg,trials_colorind,trials_colorrgb0,trials_colorrgb1,trials_colorrgb2,wm_respdeg,wm_respdeg_in_colorspace,wm_respcolorminusorigcolor,wm_resptexind,wm_resptexrgb0,wm_resptexrgb1,wm_resptexrgb2,wm_rts,time_blockstart,time_encarray_offset,time_encarray_onset,time_response,time_iti_offset,time_iti_onset,time_memprobe_offset,time_memprobe_onset
1,1,1,1,1.0,1.0,0.433427310549,0,nan,nan,nan,nan,nan,nan,nan,nan,nan,345,-0.173519535469,0.465595146217,0.186119282857,nan,nan,nan,nan,nan,nan,nan,nan,2847.9512933,2848.97383101,nan,2849.40725832,nan,nan,nan,nan
1,2,1,1,1.0,1.0,0.328961762076,0,nan,nan,nan,nan,nan,nan,nan,nan,nan,478,0.56422249903,0.334793662244,-1.0,nan,nan,nan,nan,nan,nan,nan,nan,2847.9512933,2849.91827972,nan,2850.24724148,nan,nan,nan,nan
1,3,1,1,1.0,1.0,0.333814670856,0,nan,nan,nan,nan,nan,nan,nan,nan,nan,278,0.248285521772,0.335802812283,0.621962573991,nan,nan,nan,nan,nan,nan,nan,nan,2847.9512933,2850.85741337,nan,2851.19122804,nan,nan,nan,nan
1,4,1,1,1.0,1.0,0.327959078422,0,nan,nan,nan,nan,nan,nan,nan,nan,nan,438,0.243622561222,0.428096439079,-1.0,nan,nan,nan,nan,nan,nan,nan,nan,2847.9512933,2851.79922864,nan,2852.12718772,nan,nan,nan,nan
1,5,1,1,1.0,1.0,0.330160591868,0,nan,nan,nan,nan,nan,nan,nan,nan,nan,235,0.707591924495,0.164537776567,0.631659631194,nan,nan,nan,nan,nan,nan,nan,nan,2847.9512933,2852.7410231,nan,2853.07118369,nan,nan,nan,nan
1,6,1,1,1.0,1.0,0.332339582732,0,nan,nan,nan,nan,nan,nan,nan,nan,nan,424,0.142174562463,0.448819569244,-0.770229420881,nan,nan,nan,nan,nan,nan,nan,nan,2847.9512933,2853.68280787,nan,2854.01514745,nan,nan,nan,nan
1,7,1,1,1.0,1.0,0.310531998228,0,nan,nan,nan,nan,nan,nan,nan,nan,nan,322,-0.105067232891,0.43811622051,0.383559350674,nan,nan,nan,nan,nan,nan,nan,nan,2847.9512933,2854.62460318,nan,2854.93513518,nan,nan,nan,nan
1,8,1,1,1.0,1.0,0.296718228201,0,nan,nan,nan,nan,nan,nan,nan,nan,nan,133,1.0,-0.306259573676,-0.105336427414,nan,nan,nan,nan,nan,nan,nan,nan,2847.9512933,2855.56641161,nan,2855.86312984,nan,nan,nan,nan
1,9,1,1,1.0,1.0,0.282914151496,0,nan,nan,nan,nan,nan,nan,nan,nan,nan,360,-0.167709501072,0.475188317955,0.0381258551808,nan,nan,nan,nan,nan,nan,nan,nan,2847.9512933,2856.50818611,nan,2856.79110026,nan,nan,nan,nan
1,10,1,1,1.0,1.0,0.285099129425,0,nan,nan,nan,nan,nan,nan,nan,nan,nan,417,0.0945046041228,0.457053563907,-0.645720198395,nan,nan,nan,nan,nan,nan,nan,nan,2847.9512933,2857.44997915,nan,2857.73507827,nan,nan,nan,nan
1,11,1,1,1.0,1.0,0.343270459154,0,nan,nan,nan,nan,nan,nan,nan,nan,nan,166,1.0,-0.20036215083,0.21267421211,nan,nan,nan,nan,nan,nan,nan,nan,2847.9512933,2858.39178273,nan,2858.73505319,nan,nan,nan,nan
1,12,1,1,1.0,1.0,0.27349970222,0,nan,nan,nan,nan,nan,nan,nan,nan,nan,270,0.331159066004,0.309369715406,0.641393874915,nan,nan,nan,nan,nan,nan,nan,nan,2847.9512933,2859.33353955,nan,2859.60703926,nan,nan,nan,nan
1,13,1,1,1.0,1.0,0.29966469825,0,nan,nan,nan,nan,nan,nan,nan,nan,nan,323,-0.11001989341,0.43965344528,0.375855360355,nan,nan,nan,nan,nan,nan,nan,nan,2847.9512933,2860.27535254,nan,2860.57501724,nan,nan,nan,nan
1,14,1,1,1.0,1.0,0.333817521809,0,nan,nan,nan,nan,nan,nan,nan,nan,nan,9,0.918933560847,0.172916688009,-1.0,nan,nan,nan,nan,nan,nan,nan,nan,2847.9512933,2861.21716012,nan,2861.55097764,nan,nan,nan,nan
1,15,1,1,1.0,1.0,0.31200252485,0,nan,nan,nan,nan,nan,nan,nan,nan,nan,287,0.159501648714,0.36255249221,0.590751920292,nan,nan,nan,nan,nan,nan,nan,nan,2847.9512933,2862.1589446,nan,2862.47094712,nan,nan,nan,nan
1,16,1,1,1.0,1.0,0.29818789952,0,nan,nan,nan,nan,nan,nan,nan,nan,nan,17,0.981069150956,0.135921910835,-1.0,nan,nan,nan,nan,nan,nan,nan,nan,2847.9512933,2863.10075017,nan,2863.39893807,nan,nan,nan,nan
1,17,0,0,0.0,1.0,0.492366974824,0,nan,nan,nan,nan,nan,nan,nan,nan,nan,252,0.524721685615,0.240693665738,0.655694012224,nan,nan,nan,nan,nan,nan,nan,nan,2847.9512933,2864.04254064,nan,2864.53490762,nan,nan,nan,nan
1,18,1,1,1.0,1.0,0.254579572822,0,nan,nan,nan,nan,nan,nan,nan,nan,nan,402,0.000724920831492,0.470139955471,-0.437811562499,nan,nan,nan,nan,nan,nan,nan,nan,2847.9512933,2864.98432512,nan,2865.23890469,nan,nan,nan,nan
1,19,0,0,0.0,1.0,0.456761585665,0,nan,nan,nan,nan,nan,nan,nan,nan,nan,199,1.0,-0.0246761787097,0.468786302982,nan,nan,nan,nan,nan,nan,nan,nan,2847.9512933,2865.92611473,nan,2866.38287632,nan,nan,nan,nan
1,20,1,1,1.0,1.0,0.242964180245,0,nan,nan,nan,nan,nan,nan,nan,nan,nan,508,0.814199817736,0.228638933499,-1.0,nan,nan,nan,nan,nan,nan,nan,nan,2847.9512933,2866.86790321,nan,2867.11086739,nan,nan,nan,nan
1,21,1,1,1.0,1.0,0.389142450353,0,nan,nan,nan,nan,nan,nan,nan,nan,nan,51,1.0,-0.0385160204876,-1.0,nan,nan,nan,nan,nan,nan,nan,nan,2847.9512933,2867.80969937,nan,2868.19884182,nan,nan,nan,nan
1,22,1,1,1.0,1.0,0.287342837139,0,nan,nan,nan,nan,nan,nan,nan,nan,nan,143,1.0,-0.287057525782,-0.00469998909502,nan,nan,nan,nan,nan,nan,nan,nan,2847.9512933,2868.75147616,nan,2869.03881899,nan,nan,nan,nan
1,23,1,1,1.0,1.0,0.329493181489,0,nan,nan,nan,nan,nan,nan,nan,nan,nan,207,0.985653507947,0.0195431921708,0.51699622314,nan,nan,nan,nan,nan,nan,nan,nan,2847.9512933,2869.69328943,nan,2870.02278261,nan,nan,nan,nan
1,24,1,1,1.0,1.0,0.331686427176,0,nan,nan,nan,nan,nan,nan,nan,nan,nan,434,0.213881816697,0.43461034373,-1.0,nan,nan,nan,nan,nan,nan,nan,nan,2847.9512933,2870.63508104,nan,2870.96676747,nan,nan,nan,nan
1,25,1,1,1.0,1.0,0.301883032429,0,nan,nan,nan,nan,nan,nan,nan,nan,nan,94,1.0,-0.249439013202,-0.526745155233,nan,nan,nan,nan,nan,nan,nan,nan,2847.9512933,2871.57687293,nan,2871.87875597,nan,nan,nan,nan
1,26,1,1,1.0,1.0,0.344058750372,0,nan,nan,nan,nan,nan,nan,nan,nan,nan,440,0.258699398066,0.424657399123,-1.0,nan,nan,nan,nan,nan,nan,nan,nan,2847.9512933,2872.51865969,nan,2872.86271844,nan,nan,nan,nan
1,27,1,1,1.0,1.0,0.482230661728,0,nan,nan,nan,nan,nan,nan,nan,nan,nan,257,0.470472903111,0.261039853404,0.655841377839,nan,nan,nan,nan,nan,nan,nan,nan,2847.9512933,2873.46046784,nan,2873.9426985,nan,nan,nan,nan
1,28,0,0,0.0,1.0,0.460421936819,0,nan,nan,nan,nan,nan,nan,nan,nan,nan,32,1.0,0.061735800531,-1.0,nan,nan,nan,nan,nan,nan,nan,nan,2847.9512933,2874.40225032,nan,2874.86267226,nan,nan,nan,nan
1,29,1,1,1.0,1.0,0.326609147538,0,nan,nan,nan,nan,nan,nan,nan,nan,nan,488,0.647907709101,0.302951493728,-1.0,nan,nan,nan,nan,nan,nan,nan,nan,2847.9512933,2875.34405048,nan,2875.67065963,nan,nan,nan,nan
1,30,1,1,1.0,1.0,0.328805244179,0,nan,nan,nan,nan,nan,nan,nan,nan,nan,41,1.0,0.0148395037771,-1.0,nan,nan,nan,nan,nan,nan,nan,nan,2847.9512933,2876.28583724,nan,2876.61464249,nan,nan,nan,nan
1,31,1,1,1.0,1.0,0.330985090288,0,nan,nan,nan,nan,nan,nan,nan,nan,nan,414,0.0747837862165,0.460162189034,-0.600089175003,nan,nan,nan,nan,nan,nan,nan,nan,2847.9512933,2877.22762743,nan,2877.55861252,nan,nan,nan,nan
1,32,1,1,1.0,1.0,0.341187545739,1,nan,nan,nan,nan,nan,nan,nan,nan,nan,139,1.0,-0.296335611021,-0.0445992895203,-22.641617331,112.641617331,14.907242331,160.0,1.0,-0.227501418013,0.158297521075,2.67568359675,2847.9512933,2878.16942217,2878.97786484,2878.51060972,2882.68664726,2883.69189845,2879.99462109,2882.67830962
1,33,1,1,1.0,1.0,0.513582699466,0,nan,nan,nan,nan,nan,nan,nan,nan,nan,93,1.0,-0.245614297951,-0.538619881923,nan,nan,nan,nan,nan,nan,nan,nan,2847.9512933,2883.83686392,nan,2884.35044662,nan,nan,nan,nan
1,34,1,1,1.0,1.0,0.315796871146,0,nan,nan,nan,nan,nan,nan,nan,nan,nan,262,0.416452475899,0.2804144186,0.652815538838,nan,nan,nan,nan,nan,nan,nan,nan,2847.9512933,2884.778635,nan,2885.09443187,nan,nan,nan,nan
1,35,1,1,1.0,1.0,0.29400012031,0,nan,nan,nan,nan,nan,nan,nan,nan,nan,346,-0.174317561957,0.466431294057,0.176670174816,nan,nan,nan,nan,nan,nan,nan,nan,2847.9512933,2885.72042205,nan,2886.01442217,nan,nan,nan,nan
1,36,1,1,1.0,1.0,0.304174066114,0,nan,nan,nan,nan,nan,nan,nan,nan,nan,149,1.0,-0.269478519393,0.0541436597792,nan,nan,nan,nan,nan,nan,nan,nan,2847.9512933,2886.66222021,nan,2886.96639428,nan,nan,nan,nan
1,37,1,1,1.0,1.0,0.306361609837,0,nan,nan,nan,nan,nan,nan,nan,nan,nan,337,-0.160643365934,0.457858386897,0.259303564052,nan,nan,nan,nan,nan,nan,nan,nan,2847.9512933,2887.60401438,nan,2887.91037599,nan,nan,nan,nan
1,38,1,1,1.0,1.0,0.308561982878,0,nan,nan,nan,nan,nan,nan,nan,nan,nan,401,-0.00506340639596,0.470796889516,-0.425203102762,nan,nan,nan,nan,nan,nan,nan,nan,2847.9512933,2888.54579744,nan,2888.85435942,nan,nan,nan,nan
1,39,1,1,1.0,1.0,0.326716628799,0,nan,nan,nan,nan,nan,nan,nan,nan,nan,219,0.871627318206,0.0840881726889,0.576959667802,nan,nan,nan,nan,nan,nan,nan,nan,2847.9512933,2889.48760416,nan,2889.81432079,nan,nan,nan,nan
1,40,1,1,1.0,1.0,0.336915377993,0,nan,nan,nan,nan,nan,nan,nan,nan,nan,424,0.142174562463,0.448819569244,-0.770229420881,nan,nan,nan,nan,nan,nan,nan,nan,2847.9512933,2890.42939063,nan,2890.76630601,nan,nan,nan,nan
1,41,1,1,1.0,1.0,0.267071636452,0,nan,nan,nan,nan,nan,nan,nan,nan,nan,323,-0.11001989341,0.43965344528,0.375855360355,nan,nan,nan,nan,nan,nan,nan,nan,2847.9512933,2891.37122329,nan,2891.63829493,nan,nan,nan,nan
1,42,1,1,1.0,1.0,0.301296589372,0,nan,nan,nan,nan,nan,nan,nan,nan,nan,491,0.673033477965,0.292707709811,-1.0,nan,nan,nan,nan,nan,nan,nan,nan,2847.9512933,2892.31297527,nan,2892.61427186,nan,nan,nan,nan
1,43,1,1,1.0,1.0,0.359478182625,0,nan,nan,nan,nan,nan,nan,nan,nan,nan,84,1.0,-0.20765784414,-0.652191087791,nan,nan,nan,nan,nan,nan,nan,nan,2847.9512933,2893.25476089,nan,2893.61423908,nan,nan,nan,nan
1,44,1,1,1.0,1.0,0.297663892561,0,nan,nan,nan,nan,nan,nan,nan,nan,nan,154,1.0,-0.251813147593,0.102138173725,nan,nan,nan,nan,nan,nan,nan,nan,2847.9512933,2894.19656334,nan,2894.49422723,nan,nan,nan,nan
1,45,0,0,0.0,1.0,0.411854645354,0,nan,nan,nan,nan,nan,nan,nan,nan,nan,379,-0.113535935895,0.478614986251,-0.165970515924,nan,nan,nan,nan,nan,nan,nan,nan,2847.9512933,2895.13834639,nan,2895.55020104,nan,nan,nan,nan
1,46,1,1,1.0,1.0,0.222023573471,0,nan,nan,nan,nan,nan,nan,nan,nan,nan,452,0.351738073422,0.401406211611,-1.0,nan,nan,nan,nan,nan,nan,nan,nan,2847.9512933,2896.08014997,nan,2896.30217355,nan,nan,nan,nan
1,47,1,1,1.0,1.0,0.272216483834,0,nan,nan,nan,nan,nan,nan,nan,nan,nan,127,1.0,-0.31111021432,-0.167036648065,nan,nan,nan,nan,nan,nan,nan,nan,2847.9512933,2897.02194301,nan,2897.29415949,nan,nan,nan,nan
1,48,1,1,1.0,1.0,0.266395388055,0,nan,nan,nan,nan,nan,nan,nan,nan,nan,45,1.0,-0.0063957592436,-1.0,nan,nan,nan,nan,nan,nan,nan,nan,2847.9512933,2897.9637349,nan,2898.23013029,nan,nan,nan,nan
1,49,1,1,1.0,1.0,0.260594249004,0,nan,nan,nan,nan,nan,nan,nan,nan,nan,192,1.0,-0.0635997558896,0.421658406928,nan,nan,nan,nan,nan,nan,nan,nan,2847.9512933,2898.90552822,nan,2899.16612247,nan,nan,nan,nan
1,50,1,1,1.0,1.0,0.27077731787,0,nan,nan,nan,nan,nan,nan,nan,nan,nan,262,0.416452475899,0.2804144186,0.652815538838,nan,nan,nan,nan,nan,nan,nan,nan,2847.9512933,2899.84731897,nan,2900.11809629,nan,nan,nan,nan
1,51,1,1,1.0,1.0,0.280947842461,1,nan,nan,nan,nan,nan,nan,nan,nan,nan,356,-0.17284377641,0.473239407326,0.0788368070227,-148.55719293,238.55719293,-11.7553070705,339.0,-0.164955840019,0.45996923152,0.241423096872,4.19256600051,2847.9512933,2900.78911685,2901.59752531,2901.07006469,2906.82321322,2907.82457684,2902.61429866,2906.81487644
1,52,1,1,1.0,1.0,0.432819485315,0,nan,nan,nan,nan,nan,nan,nan,nan,nan,255,0.492159363509,0.253017189294,0.656163111527,nan,nan,nan,nan,nan,nan,nan,nan,2847.9512933,2907.96507827,nan,2908.39789776,nan,nan,nan,nan
1,53,1,1,1.0,1.0,0.306999655324,0,nan,nan,nan,nan,nan,nan,nan,nan,nan,427,0.163265173604,0.444863218481,-0.840208708629,nan,nan,nan,nan,nan,nan,nan,nan,2847.9512933,2908.90687245,nan,2909.2138721,nan,nan,nan,nan
1,54,1,1,1.0,1.0,0.22920001694,0,nan,nan,nan,nan,nan,nan,nan,nan,nan,396,-0.0330153705648,0.473684876347,-0.363523780775,nan,nan,nan,nan,nan,nan,nan,nan,2847.9512933,2909.84865949,nan,2910.07785951,nan,nan,nan,nan
1,55,1,1,1.0,1.0,0.4713927267,0,nan,nan,nan,nan,nan,nan,nan,nan,nan,64,1.0,-0.108036866323,-1.0,nan,nan,nan,nan,nan,nan,nan,nan,2847.9512933,2910.79044112,nan,2911.26183385,nan,nan,nan,nan
1,56,0,0,0.0,1.0,0.497565990489,0,nan,nan,nan,nan,nan,nan,nan,nan,nan,133,1.0,-0.306259573676,-0.105336427414,nan,nan,nan,nan,nan,nan,nan,nan,2847.9512933,2911.73224584,nan,2912.22981183,nan,nan,nan,nan
1,57,1,1,1.0,1.0,0.251761681167,0,nan,nan,nan,nan,nan,nan,nan,nan,nan,288,0.150005133015,0.365331945294,0.586687239957,nan,nan,nan,nan,nan,nan,nan,nan,2847.9512933,2912.67404173,nan,2912.92580341,nan,nan,nan,nan
1,58,1,1,1.0,1.0,0.317947637464,0,nan,nan,nan,nan,nan,nan,nan,nan,nan,479,0.572572153349,0.331768222426,-1.0,nan,nan,nan,nan,nan,nan,nan,nan,2847.9512933,2913.61582507,nan,2913.9337727,nan,nan,nan,nan
1,59,1,1,1.0,1.0,0.416130519356,0,nan,nan,nan,nan,nan,nan,nan,nan,nan,147,1.0,-0.275801134503,0.0346720467303,nan,nan,nan,nan,nan,nan,nan,nan,2847.9512933,2914.55762466,nan,2914.97375518,nan,nan,nan,nan
1,60,0,0,0.0,1.0,0.482305927144,0,nan,nan,nan,nan,nan,nan,nan,nan,nan,386,-0.0833946583454,0.477495592553,-0.245424736514,nan,nan,nan,nan,nan,nan,nan,nan,2847.9512933,2915.49941256,nan,2915.98171849,nan,nan,nan,nan
1,61,1,1,1.0,1.0,0.26849626255,0,nan,nan,nan,nan,nan,nan,nan,nan,nan,7,0.9030914636,0.181853060355,-1.0,nan,nan,nan,nan,nan,nan,nan,nan,2847.9512933,2916.44121415,nan,2916.70971041,nan,nan,nan,nan
1,62,0,0,0.0,1.0,0.502694872615,0,nan,nan,nan,nan,nan,nan,nan,nan,nan,468,0.481236483515,0.363131620867,-1.0,nan,nan,nan,nan,nan,nan,nan,nan,2847.9512933,2917.38297496,nan,2917.88566984,nan,nan,nan,nan
1,63,1,1,1.0,1.0,0.280864594388,0,nan,nan,nan,nan,nan,nan,nan,nan,nan,267,0.362924526182,0.298807232282,0.646622522267,nan,nan,nan,nan,nan,nan,nan,nan,2847.9512933,2918.32478966,nan,2918.60565426,nan,nan,nan,nan
1,64,1,1,1.0,1.0,0.33904105582,0,nan,nan,nan,nan,nan,nan,nan,nan,nan,345,-0.173519535469,0.465595146217,0.186119282857,nan,nan,nan,nan,nan,nan,nan,nan,2847.9512933,2919.26659153,nan,2919.60563259,nan,nan,nan,nan
1,65,1,1,1.0,1.0,0.301230447018,0,nan,nan,nan,nan,nan,nan,nan,nan,nan,297,0.0686262056446,0.388646276542,0.544904663634,nan,nan,nan,nan,nan,nan,nan,nan,2847.9512933,2920.20838086,nan,2920.50961131,nan,nan,nan,nan
1,66,1,1,1.0,1.0,0.40740400739,0,nan,nan,nan,nan,nan,nan,nan,nan,nan,245,0.600577697281,0.210610106048,0.650172825369,nan,nan,nan,nan,nan,nan,nan,nan,2847.9512933,2921.15017931,nan,2921.55758332,nan,nan,nan,nan
1,67,1,1,1.0,1.0,0.281611546641,1,nan,nan,nan,nan,nan,nan,nan,nan,nan,287,0.159501648714,0.36255249221,0.590751920292,-120.579226872,210.579226872,8.78235187249,299.0,0.0516645560415,0.393417669654,0.534378752182,1.82551566075,2847.9512933,2922.09196636,2922.90038337,2922.3735779,2925.76740762,2926.77816459,2923.92550976,2925.75906713
1,68,1,1,nan,nan,nan,0,nan,nan,nan,nan,nan,nan,nan,nan,nan,87,1.0,-0.220959007447,-0.612675615602,nan,nan,nan,nan,nan,nan,nan,nan,2847.9512933,2926.91760889,nan,nan,nan,nan,nan,nan
1,69,1,1,1.0,1.0,0.378036809911,0,nan,nan,nan,nan,nan,nan,nan,nan,nan,218,0.881467392804,0.0788246127756,0.572559633417,nan,nan,nan,nan,nan,nan,nan,nan,2847.9512933,2927.85940334,nan,2928.23744015,nan,nan,nan,nan
1,70,1,1,1.0,1.0,0.308224999113,0,nan,nan,nan,nan,nan,nan,nan,nan,nan,468,0.481236483515,0.363131620867,-1.0,nan,nan,nan,nan,nan,nan,nan,nan,2847.9512933,2928.80119723,nan,2929.10942223,nan,nan,nan,nan
1,71,1,1,1.0,1.0,0.302408179792,0,nan,nan,nan,nan,nan,nan,nan,nan,nan,421,0.121471671064,0.452518040197,-0.712610339232,nan,nan,nan,nan,nan,nan,nan,nan,2847.9512933,2929.74299255,nan,2930.04540073,nan,nan,nan,nan
1,72,1,1,1.0,1.0,0.360547578719,0,nan,nan,nan,nan,nan,nan,nan,nan,nan,81,1.0,-0.193804253699,-0.694219169772,nan,nan,nan,nan,nan,nan,nan,nan,2847.9512933,2930.68482179,nan,2931.04536937,nan,nan,nan,nan
1,73,1,1,1.0,1.0,0.306764165754,0,nan,nan,nan,nan,nan,nan,nan,nan,nan,384,-0.0924750057551,0.477945316949,-0.222479273925,nan,nan,nan,nan,nan,nan,nan,nan,2847.9512933,2931.62658432,nan,2931.93334848,nan,nan,nan,nan
1,74,0,0,1.0,0.0,0.236963473784,0,0.0,0.0,0.0,nan,nan,nan,nan,nan,nan,73,1.0,-0.1546788618,-0.830916872461,nan,nan,nan,nan,nan,nan,nan,nan,2847.9512933,2932.56837193,nan,2932.80533541,nan,nan,nan,nan
1,75,1,1,1.0,1.0,0.319143046218,0,nan,nan,nan,nan,nan,nan,nan,nan,nan,20,1.0,0.121558187834,-1.0,nan,nan,nan,nan,nan,nan,nan,nan,2847.9512933,2933.51016497,nan,2933.82930801,nan,nan,nan,nan
1,76,1,1,1.0,1.0,0.345327143674,0,nan,nan,nan,nan,nan,nan,nan,nan,nan,397,-0.0275613476434,0.473159987783,-0.37569455347,nan,nan,nan,nan,nan,nan,nan,nan,2847.9512933,2934.45195629,nan,2934.79728343,nan,nan,nan,nan
1,77,1,1,1.0,1.0,0.323522125022,0,nan,nan,nan,nan,nan,nan,nan,nan,nan,283,0.19826868328,0.351050922538,0.605825948857,nan,nan,nan,nan,nan,nan,nan,nan,2847.9512933,2935.3937536,nan,2935.71727572,nan,nan,nan,nan
1,78,1,1,1.0,1.0,0.269700224104,1,nan,nan,nan,nan,nan,nan,nan,nan,nan,207,0.985653507947,0.0195431921708,0.51699622314,-51.9053062986,141.905306299,-3.64156870141,202.0,1.0,-0.00802826454356,0.487596984314,3.54255674907,2847.9512933,2936.33554492,2937.14396136,2936.60524514,2941.72789413,2942.73658558,2938.16906209,2941.71956219
1,79,1,1,1.0,1.0,0.61498973507,0,nan,nan,nan,nan,nan,nan,nan,nan,nan,380,-0.109519508899,0.478533032186,-0.177177385375,nan,nan,nan,nan,nan,nan,nan,nan,2847.9512933,2942.8780857,nan,2943.49307544,nan,nan,nan,nan
1,80,1,1,1.0,1.0,0.345194859081,0,nan,nan,nan,nan,nan,nan,nan,nan,nan,273,0.299732959835,0.319577193062,0.635038033336,nan,nan,nan,nan,nan,nan,nan,nan,2847.9512933,2943.81987674,nan,2944.1650716,nan,nan,nan,nan
1,81,1,1,1.0,1.0,0.251371954568,0,0.0,0.0,0.0,0.33718488421,0.0755633993291,0.261621484881,0.41274828354,0.0755633993291,0.403852182906,201,1.0,-0.0135712615467,0.48142235136,nan,nan,nan,nan,nan,nan,nan,nan,2847.9512933,2944.76167434,nan,2945.01304629,nan,nan,nan,nan
1,82,1,1,1.0,1.0,0.301566575537,0,0.0,0.0,0.0,0.33611222259,0.0756924838403,0.26041973875,0.41180470643,0.0756924838403,0.299377796395,397,-0.0275613476434,0.473159987783,-0.37569455347,nan,nan,nan,nan,nan,nan,nan,nan,2847.9512933,2945.70346338,nan,2946.00502995,nan,nan,nan,nan
1,83,1,1,1.0,1.0,0.271753772628,0,0.0,0.0,0.0,0.33568573312,0.0753204542554,0.260365278865,0.411006187376,0.0753204542554,0.274897434244,197,1.0,-0.035797595552,0.455774741445,nan,nan,nan,nan,nan,nan,nan,nan,2847.9512933,2946.64525099,nan,2946.91700477,nan,nan,nan,nan
1,84,1,1,1.0,1.0,0.273930767784,0,0.0,0.0,0.0,0.334906075065,0.0751879180481,0.259718157017,0.410093993113,0.0751879180481,0.28241703865,2,0.863024578927,0.203622855609,-1.0,nan,nan,nan,nan,nan,nan,nan,nan,2847.9512933,2947.5870483,nan,2947.86097907,nan,nan,nan,nan
1,85,1,1,1.0,1.0,0.228123208333,0,1.0,0.0,0.0,0.334171432809,0.0750291092694,0.259142323539,0.409200542078,0.0750291092694,0.257935916248,150,1.0,-0.266152531622,0.0638227105866,nan,nan,nan,nan,nan,nan,nan,nan,2847.9512933,2948.52883706,nan,2948.75696027,nan,nan,nan,nan
1,86,1,1,1.0,1.0,0.342215888028,1,0.0,0.0,1.0,0.332908953946,0.0754628435065,0.25744611044,0.408371797453,0.0754628435065,0.281423288048,355,-0.173737462994,0.472683863687,0.0888799762457,-157.619864948,247.619864948,-1.98951005196,352.0,-0.17544712699,0.470851603012,0.118673592819,4.08425364789,2847.9512933,2949.47072304,2950.27905252,2949.81293892,2955.40470015,2956.40188226,2951.30417891,2955.39637933
1,87,1,1,1.0,1.0,0.530190698046,0,0.0,0.0,0.0,0.333018447288,0.07502434295,0.257994104338,0.408042790238,0.07502434295,0.366843264802,224,0.821619416966,0.11002478857,0.597264883709,nan,nan,nan,nan,nan,nan,nan,nan,2847.9512933,2956.54658459,nan,2957.07677529,nan,nan,nan,nan
1,88,1,1,1.0,1.0,0.452358273615,0,0.0,0.0,0.0,0.335311147878,0.0775242094606,0.257786938418,0.412835357339,0.0775242094606,0.441588286563,64,1.0,-0.108036866323,-1.0,nan,nan,nan,nan,nan,nan,nan,nan,2847.9512933,2957.48838475,nan,2957.94074302,nan,nan,nan,nan
1,89,1,1,1.0,1.0,0.342560284305,0,0.0,1.0,0.0,0.33665651714,0.0780806259214,0.258575891218,0.414737143061,0.0780806259214,0.441703085322,187,1.0,-0.0912463489427,0.385383214542,nan,nan,nan,nan,nan,nan,nan,nan,2847.9512933,2958.43017009,nan,2958.77273037,nan,nan,nan,nan
1,90,1,1,1.0,1.0,0.408744530112,1,0.0,0.0,1.0,0.336723605403,0.0776382402664,0.259085365137,0.414361845669,0.0776382402664,0.401221029344,144,1.0,-0.284423189345,0.00519445478499,-35.0834738791,125.083473879,23.8334738791,178.0,1.0,-0.139919655122,0.315097826042,4.23419718456,2847.9512933,2959.37196283,2960.18037699,2959.78070736,2965.45607194,2966.46382969,2961.20550452,2965.44773886
1,91,0,0,0.0,1.0,0.470258898742,0,0.0,0.0,0.0,0.337532829276,0.0775731631089,0.259959666167,0.415105992385,0.0775731631089,0.407187904386,258,0.459642287315,0.26499291187,0.655490062901,nan,nan,nan,nan,nan,nan,nan,nan,2847.9512933,2966.6062789,nan,2967.0765378,nan,nan,nan,nan
1,92,1,1,1.0,1.0,0.256464344275,0,0.0,0.0,0.0,0.339007563381,0.0783855489335,0.260622014448,0.417393112315,0.0783855489335,0.37848925771,351,-0.175686286722,0.4701852659,0.128489978773,nan,nan,nan,nan,nan,nan,nan,nan,2847.9512933,2967.54805512,nan,2967.80451946,nan,nan,nan,nan
1,93,1,1,1.0,1.0,0.290654800541,0,0.0,0.0,0.0,0.338100495039,0.0784271900053,0.259673305034,0.416527685045,0.0784271900053,0.339126014519,90,1.0,-0.233635786423,-0.574971871003,nan,nan,nan,nan,nan,nan,nan,nan,2847.9512933,2968.48984758,nan,2968.78050238,nan,nan,nan,nan
1,94,1,1,1.0,1.0,0.308832254203,0,0.0,0.0,0.0,0.337584780969,0.0781547810395,0.259429999929,0.415739562008,0.0781547810395,0.285317133006,409,0.0429436170054,0.464793150178,-0.529461854507,nan,nan,nan,nan,nan,nan,nan,nan,2847.9512933,2969.43164204,nan,2969.74047429,nan,nan,nan,nan
1,95,1,1,1.0,1.0,0.255022042256,0,0.0,0.0,0.0,0.337275614014,0.0777900012926,0.259485612722,0.415065615307,0.0777900012926,0.284836365667,290,0.131265381085,0.370776544741,0.578206616232,nan,nan,nan,nan,nan,nan,nan,nan,2847.9512933,2970.37344562,nan,2970.62846766,nan,nan,nan,nan
1,96,1,1,1.0,1.0,0.289217915328,0,0.0,0.0,0.0,0.336400576017,0.0778339144937,0.258566661523,0.414234490511,0.0778339144937,0.284357403929,89,1.0,-0.229484098413,-0.587370487375,nan,nan,nan,nan,nan,nan,nan,nan,2847.9512933,2971.31521642,nan,2971.60443433,nan,nan,nan,nan
1,97,1,1,1.0,1.0,0.299392716435,0,0.0,0.0,0.0,0.335903916431,0.0775727763437,0.258331140087,0.413476692774,0.0775727763437,0.28121089134,325,-0.119404900653,0.442631039184,0.360186421743,nan,nan,nan,nan,nan,nan,nan,nan,2847.9512933,2972.25702883,nan,2972.55642155,nan,nan,nan,nan
1,98,0,0,0.0,1.0,0.437577457051,0,0.0,0.0,0.0,0.335523591431,0.0772566789468,0.258266912484,0.412780270378,0.0772566789468,0.342062696271,262,0.416452475899,0.2804144186,0.652815538838,nan,nan,nan,nan,nan,nan,nan,nan,2847.9512933,2973.19881474,nan,2973.6363922,nan,nan,nan,nan
1,99,1,1,1.0,1.0,0.295758879278,0,0.0,0.0,0.0,0.336575693138,0.0775456424868,0.259030050651,0.414121335625,0.0775456424868,0.344243017588,8,0.91102658764,0.177400941622,-1.0,nan,nan,nan,nan,nan,nan,nan,nan,2847.9512933,2974.14060549,nan,2974.43636437,nan,nan,nan,nan
1,100,1,1,1.0,1.0,0.329938501935,0,0.0,0.0,0.0,0.336159195038,0.0772579630022,0.258901232035,0.41341715804,0.0772579630022,0.354424946088,218,0.881467392804,0.0788246127756,0.572559633417,nan,nan,nan,nan,nan,nan,nan,nan,2847.9512933,2975.0824048,nan,2975.4123433,nan,nan,nan,nan
1,101,1,1,1.0,1.0,0.356144266727,0,0.0,0.0,0.0,0.336096359754,0.0768692977798,0.259227061974,0.412965657534,0.0768692977798,0.327280549313,500,0.748145934353,0.260058294274,-1.0,nan,nan,nan,nan,nan,nan,nan,nan,2847.9512933,2976.02419241,nan,2976.38033668,nan,nan,nan,nan
1,102,0,0,0.0,1.0,0.406311803556,0,0.0,0.0,0.0,0.336296838823,0.0765099931096,0.259786845714,0.412806831933,0.0765099931096,0.364131524072,106,1.0,-0.287630069369,-0.390564445695,nan,nan,nan,nan,nan,nan,nan,nan,2847.9512933,2976.96598431,nan,2977.37229611,nan,nan,nan,nan
1,103,1,1,1.0,1.0,0.296501840174,0,0.0,0.0,0.0,0.336990056296,0.07644524762,0.260544808676,0.413435303916,0.07644524762,0.352985970152,428,0.170378320166,0.443486568519,-0.86866140055,nan,nan,nan,nan,nan,nan,nan,nan,2847.9512933,2977.90777877,nan,2978.20428061,nan,nan,nan,nan
1,104,1,1,1.0,1.0,0.330695147393,0,0.0,0.0,0.0,0.336593113001,0.0761741225405,0.26041899046,0.412767235541,0.0761741225405,0.344502930374,180,1.0,-0.129278616986,0.331238955499,nan,nan,nan,nan,nan,nan,nan,nan,2847.9512933,2978.84956866,nan,2979.18026381,nan,nan,nan,nan
1,105,1,1,1.0,1.0,0.316885653825,0,0.0,0.0,0.0,0.336535851199,0.0758056493426,0.260730201856,0.412341500541,0.0758056493426,0.314694213797,461,0.423959648591,0.380927367285,-1.0,nan,nan,nan,nan,nan,nan,nan,nan,2847.9512933,2979.79136398,nan,2980.10824963,nan,nan,nan,nan
1,106,1,1,1.0,1.0,0.351080386608,0,0.0,0.0,0.0,0.336346906993,0.0754646857112,0.260882221282,0.411811592704,0.0754646857112,0.332887062609,135,1.0,-0.303502321856,-0.0849788702499,nan,nan,nan,nan,nan,nan,nan,nan,2847.9512933,2980.73313734,nan,2981.08421773,nan,nan,nan,nan
1,107,1,1,1.0,1.0,0.289254122588,0,0.0,0.0,0.0,0.336487225847,0.0751181014355,0.261369124411,0.411605327282,0.0751181014355,0.319073387674,271,0.320642857732,0.312811632898,0.639400143054,nan,nan,nan,nan,nan,nan,nan,nan,2847.9512933,2981.6749452,nan,2981.96419932,nan,nan,nan,nan
1,108,0,0,0.0,1.0,0.467444998503,0,0.0,0.0,0.0,0.336041630533,0.0749022306982,0.261139399835,0.410943861231,0.0749022306982,0.3692598359,486,0.631151757674,0.309603058574,-1.0,nan,nan,nan,nan,nan,nan,nan,nan,2847.9512933,2982.61673509,nan,2983.08418009,nan,nan,nan,nan
1,109,1,1,1.0,1.0,0.269620112085,0,0.0,0.0,0.0,0.337269699392,0.0756159723316,0.261653727061,0.412885671724,0.0756159723316,0.342106411059,158,1.0,-0.235949227405,0.139764106,nan,nan,nan,nan,nan,nan,nan,nan,2847.9512933,2983.55853383,nan,2983.82815394,nan,nan,nan,nan
1,110,1,1,1.0,1.0,0.295821030217,0,0.0,0.0,0.0,0.336643314325,0.0755434659061,0.261099848419,0.412186780231,0.0755434659061,0.344295380268,115,1.0,-0.305166285737,-0.293172749504,nan,nan,nan,nan,nan,nan,nan,nan,2847.9512933,2984.50031631,nan,2984.79613734,nan,nan,nan,nan
1,111,1,1,1.0,1.0,0.265990836429,0,0.0,0.0,0.0,0.336268797957,0.0752967960078,0.260972001949,0.411565593965,0.0752967960078,0.27714399291,305,0.00361192545304,0.406859252708,0.500196907155,nan,nan,nan,nan,nan,nan,nan,nan,2847.9512933,2985.44212189,nan,2985.70811273,nan,nan,nan,nan
1,112,1,1,1.0,1.0,0.268174388795,0,0.0,0.0,0.0,0.335629907398,0.075249965766,0.260379941632,0.410879873163,0.075249965766,0.276662085147,496,0.714833717156,0.274923884212,-1.0,nan,nan,nan,nan,nan,nan,nan,nan,2847.9512933,2986.38391293,nan,2986.65208732,nan,nan,nan,nan
1,113,1,1,1.0,1.0,0.294367609429,0,0.0,0.0,0.0,0.335022200023,0.0751808966792,0.259841303344,0.410203096702,0.0751808966792,0.276177611551,285,0.178734351563,0.356878681702,0.598527012995,nan,nan,nan,nan,nan,nan,nan,nan,2847.9512933,2987.32570055,nan,2987.62006816,nan,nan,nan,nan
1,114,1,1,1.0,1.0,0.296534056019,0,0.0,0.0,0.0,0.334659212607,0.0749421563048,0.259717056302,0.409601368912,0.0749421563048,0.286358684748,162,1.0,-0.218739557155,0.176632971453,nan,nan,nan,nan,nan,nan,nan,nan,2847.9512933,2988.26749957,nan,2988.56403362,nan,nan,nan,nan
1,115,1,1,1.0,1.0,0.250734764384,0,0.0,0.0,0.0,0.33432182184,0.0746952075295,0.259626614311,0.40901702937,0.0746952075295,0.280545476611,468,0.481236483515,0.363131620867,-1.0,nan,nan,nan,nan,nan,nan,nan,nan,2847.9512933,2989.20928832,nan,2989.46002309,nan,nan,nan,nan
1,116,1,1,1.0,1.0,0.284917237936,0,0.0,0.0,0.0,0.333588602038,0.0747742082867,0.258814393752,0.408362810325,0.0747742082867,0.277395352779,78,1.0,-0.179467652321,-0.739907630878,nan,nan,nan,nan,nan,nan,nan,nan,2847.9512933,2990.15107908,nan,2990.43599631,nan,nan,nan,nan
1,117,0,0,0.0,1.0,0.503086309764,0,0.0,0.0,0.0,0.333165372785,0.0745854092374,0.258579963548,0.407750782022,0.0745854092374,0.346246104028,146,1.0,-0.278792578557,0.0248813210997,nan,nan,nan,nan,nan,nan,nan,nan,2847.9512933,2991.09287724,nan,2991.59596355,nan,nan,nan,nan
1,118,1,1,1.0,1.0,0.265291495249,0,0.0,0.0,0.0,0.334630208449,0.0759064359836,0.258723772465,0.410536644432,0.0759064359836,0.351098347649,89,1.0,-0.229484098413,-0.587370487375,nan,nan,nan,nan,nan,nan,nan,nan,2847.9512933,2992.03467027,nan,2992.29996177,nan,nan,nan,nan
1,119,1,1,1.0,1.0,0.307468353596,0,0.0,0.0,0.0,0.334037569874,0.0758503958885,0.258187173986,0.409887965763,0.0758503958885,0.358615386203,453,0.359670421306,0.39926174925,-1.0,nan,nan,nan,nan,nan,nan,nan,nan,2847.9512933,2992.97646017,nan,2993.28392852,nan,nan,nan,nan
1,120,1,1,1.0,1.0,0.301658661629,0,0.0,0.0,0.0,0.333812407025,0.0755675699408,0.258244837084,0.409379976965,0.0755675699408,0.291472836824,313,-0.0530221528698,0.42279583272,0.448797959603,nan,nan,nan,nan,nan,nan,nan,nan,2847.9512933,2993.91824779,nan,2994.21990645,nan,nan,nan,nan
1,121,1,1,1.0,1.0,0.279849081417,0,0.0,0.0,0.0,0.333542207483,0.0753066099844,0.258235597499,0.408848817468,0.0753066099844,0.296325365547,204,1.0,0.00303256528985,0.499654420455,nan,nan,nan,nan,nan,nan,nan,nan,2847.9512933,2994.86004424,nan,2995.13989332,nan,nan,nan,nan
1,122,1,1,1.0,1.0,0.370040999667,0,0.0,0.0,0.0,0.333094764766,0.075150853985,0.257943910781,0.408245618751,0.075150853985,0.317182914237,440,0.258699398066,0.424657399123,-1.0,nan,nan,nan,nan,nan,nan,nan,nan,2847.9512933,2995.80183471,nan,2996.17187571,nan,nan,nan,nan
1,123,1,1,1.0,1.0,0.404218911775,0,0.0,0.0,0.0,0.33340010555,0.0749143778829,0.258485727668,0.408314483433,0.0749143778829,0.351369664286,139,1.0,-0.296335611021,-0.0445992895203,nan,nan,nan,nan,nan,nan,nan,nan,2847.9512933,2996.7436323,nan,2997.14785122,nan,nan,nan,nan
1,124,1,1,1.0,1.0,0.366404311615,0,0.0,0.0,0.0,0.333980587569,0.0748794681698,0.259101119399,0.408860055739,0.0748794681698,0.380221407686,354,-0.174470673547,0.472100788149,0.0988677247603,nan,nan,nan,nan,nan,nan,nan,nan,2847.9512933,2997.68542876,nan,2998.05183307,nan,nan,nan,nan
1,125,1,1,1.0,1.0,0.352595103148,0,0.0,0.0,0.0,0.334244195081,0.0746312773998,0.259612917682,0.408875472481,0.0746312773998,0.374406108846,290,0.131265381085,0.370776544741,0.578206616232,nan,nan,nan,nan,nan,nan,nan,nan,2847.9512933,2998.62721894,nan,2998.97981404,nan,nan,nan,nan
1,126,1,1,1.0,1.0,0.498777079512,0,0.0,0.0,0.0,0.334392186275,0.0743478545318,0.260044331744,0.408740040807,0.0743478545318,0.405925498092,434,0.213881816697,0.43461034373,-1.0,nan,nan,nan,nan,nan,nan,nan,nan,2847.9512933,2999.56900684,nan,3000.06778392,nan,nan,nan,nan
1,127,1,1,1.0,1.0,0.340941507602,0,0.0,0.0,0.0,0.335707265421,0.0754839874247,0.260223277997,0.411191252846,0.0754839874247,0.397437896754,365,-0.157962026257,0.477016591838,-0.0139196855225,nan,nan,nan,nan,nan,nan,nan,nan,2847.9512933,3000.51080472,nan,3000.85174623,nan,nan,nan,nan
1,128,1,1,1.0,1.0,0.327134580002,0,0.0,0.0,0.0,0.335748807026,0.0751852856543,0.260563521372,0.41093409268,0.0751852856543,0.388951055706,85,1.0,-0.212156452387,-0.638781227021,nan,nan,nan,nan,nan,nan,nan,nan,2847.9512933,3001.45260175,nan,3001.77973633,nan,nan,nan,nan
1,129,1,1,1.0,1.0,0.32135311258,0,0.0,0.0,0.0,0.335680978467,0.0748925658433,0.260788412623,0.41057354431,0.0748925658433,0.329809733395,150,1.0,-0.266152531622,0.0638227105866,nan,nan,nan,nan,nan,nan,nan,nan,2847.9512933,3002.39440618,nan,3002.7157593,nan,nan,nan,nan
1,130,1,1,1.0,1.0,0.419515752525,0,0.0,0.0,0.0,0.335569042014,0.0746101078677,0.260958934147,0.410179149882,0.0746101078677,0.356001148369,11,0.934659501434,0.163852895862,-1.0,nan,nan,nan,nan,nan,nan,nan,nan,2847.9512933,3003.33617413,nan,3003.75568988,nan,nan,nan,nan
1,131,1,1,1.0,1.0,0.437710882165,0,0.0,0.0,0.0,0.336219791708,0.0746841385462,0.261535653162,0.410903930255,0.0746841385462,0.392859915756,88,1.0,-0.225257592204,-0.599932847766,nan,nan,nan,nan,nan,nan,nan,nan,2847.9512933,3004.27795747,nan,3004.71566835,nan,nan,nan,nan
1,132,1,1,1.0,1.0,0.319877739297,0,0.0,0.0,0.0,0.337000492404,0.0749228915556,0.262077600848,0.41192338396,0.0749228915556,0.392368124662,370,-0.144805996584,0.478178727438,-0.0671803333712,nan,nan,nan,nan,nan,nan,nan,nan,2847.9512933,3005.21976504,nan,3005.53964278,nan,nan,nan,nan
1,133,0,0,0.0,1.0,0.466056294506,0,0.0,0.0,0.0,0.336869784365,0.0746512557923,0.262218528573,0.411521040157,0.0746512557923,0.407881638656,432,0.199227897075,0.437687328843,-1.0,nan,nan,nan,nan,nan,nan,nan,nan,2847.9512933,3006.16155978,nan,3006.62761608,nan,nan,nan,nan
1,134,1,1,1.0,1.0,0.276276254852,0,0.0,0.0,0.0,0.337848470048,0.0752068274567,0.262641642591,0.413055297505,0.0752068274567,0.354070096218,323,-0.11001989341,0.43965344528,0.375855360355,nan,nan,nan,nan,nan,nan,nan,nan,2847.9512933,3007.10333942,nan,3007.37961567,nan,nan,nan,nan
1,135,1,1,1.0,1.0,0.358434160007,0,0.0,0.0,0.0,0.337385521062,0.0751121198621,0.262273401199,0.412497640924,0.0751121198621,0.366922236455,49,1.0,-0.027785429985,-1.0,nan,nan,nan,nan,nan,nan,nan,nan,2847.9512933,3008.04514329,nan,3008.40357745,nan,nan,nan,nan
1,136,1,1,1.0,1.0,0.304633926367,0,0.0,0.0,0.0,0.337542600457,0.0748532495664,0.26268935089,0.412395850023,0.0748532495664,0.313114780409,285,0.178734351563,0.356878681702,0.598527012995,nan,nan,nan,nan,nan,nan,nan,nan,2847.9512933,3008.98693632,nan,3009.29157024,nan,nan,nan,nan
1,137,1,1,1.0,1.0,0.298821668548,0,0.0,0.0,0.0,0.3372988325,0.074628867457,0.262669965043,0.411927699957,0.074628867457,0.320629918308,1,0.854939129564,0.207877072944,-1.0,nan,nan,nan,nan,nan,nan,nan,nan,2847.9512933,3009.92872964,nan,3010.22755131,nan,nan,nan,nan
1,138,0,0,1.0,0.0,0.253000424535,0,0.0,0.0,0.0,0.337015912177,0.0744266203459,0.262589291831,0.411442532523,0.0744266203459,0.285485339817,91,1.0,-0.237709898716,-0.562722318432,nan,nan,nan,nan,nan,nan,nan,nan,2847.9512933,3010.87052467,nan,3011.12352509,nan,nan,nan,nan
1,139,1,1,1.0,1.0,0.271181869495,0,0.0,0.0,0.0,0.336402660443,0.0744985595566,0.261904100886,0.410901219999,0.0744985595566,0.274334654193,444,0.289241202529,0.417409780569,-1.0,nan,nan,nan,nan,nan,nan,nan,nan,2847.9512933,3011.81231114,nan,3012.08349301,nan,nan,nan,nan
1,140,0,0,0.0,1.0,0.513359469071,0,0.0,0.0,0.0,0.335930046016,0.0744339885449,0.261496057471,0.41036403456,0.0744339885449,0.345847254367,373,-0.135407706169,0.478559568072,-0.0996974893599,nan,nan,nan,nan,nan,nan,nan,nan,2847.9512933,3012.75410503,nan,3013.2674645,nan,nan,nan,nan
1,141,1,1,1.0,1.0,0.291561406746,0,0.0,0.0,0.0,0.337206516685,0.0756664628537,0.261540053831,0.412872979539,0.0756664628537,0.358700915104,154,1.0,-0.251813147593,0.102138173725,nan,nan,nan,nan,nan,nan,nan,nan,2847.9512933,3013.69589778,nan,3013.98745918,nan,nan,nan,nan
1,142,1,1,1.0,1.0,0.317728398484,0,0.0,0.0,0.0,0.336880480185,0.0754936650416,0.261386815144,0.412374145227,0.0754936650416,0.374216424767,231,0.749609680972,0.145151270079,0.620821461523,nan,nan,nan,nan,nan,nan,nan,nan,2847.9512933,3014.6376911,nan,3014.95541949,nan,nan,nan,nan
1,143,1,1,1.0,1.0,0.35993177077,0,0.0,0.0,0.0,0.336744649819,0.0752426469817,0.261502002837,0.4119872968,0.0752426469817,0.323073858667,338,-0.162891363375,0.458928707883,0.250399161362,nan,nan,nan,nan,nan,nan,nan,nan,2847.9512933,3015.57948384,nan,3015.93941562,nan,nan,nan,nan
1,144,1,1,1.0,1.0,0.394118235679,0,0.0,0.0,0.0,0.336907939403,0.0750023070894,0.261905632313,0.411910246492,0.0750023070894,0.357259468311,36,1.0,0.0410699577143,-1.0,nan,nan,nan,nan,nan,nan,nan,nan,2847.9512933,3016.52127545,nan,3016.91539369,nan,nan,nan,nan
1,145,1,1,1.0,1.0,0.340294054011,0,0.0,0.0,0.0,0.337308011405,0.0748914959424,0.262416515462,0.412199507347,0.0748914959424,0.364781353487,314,-0.0594438881467,0.42463230952,0.441925406839,nan,nan,nan,nan,nan,nan,nan,nan,2847.9512933,3017.46306649,nan,3017.80336054,nan,nan,nan,nan
1,146,1,1,1.0,1.0,0.390485823969,0,0.0,0.0,0.0,0.337328747812,0.074631414951,0.262697332861,0.411960162763,0.074631414951,0.374966037887,255,0.492159363509,0.253017189294,0.656163111527,nan,nan,nan,nan,nan,nan,nan,nan,2847.9512933,3018.40486209,nan,3018.79534791,nan,nan,nan,nan
1,147,1,1,1.0,1.0,0.416678759502,0,0.0,0.0,0.0,0.337695348337,0.0745036131217,0.263191735215,0.412198961459,0.0745036131217,0.382486212494,466,0.464789014893,0.368385601135,-1.0,nan,nan,nan,nan,nan,nan,nan,nan,2847.9512933,3019.34665028,nan,3019.76332904,nan,nan,nan,nan
1,148,1,1,1.0,1.0,0.402852445317,0,0.0,0.0,0.0,0.338236330605,0.074533249177,0.263703081428,0.412769579782,0.074533249177,0.403339009596,40,1.0,0.0201165467467,-1.0,nan,nan,nan,nan,nan,nan,nan,nan,2847.9512933,3020.28844587,nan,3020.69129832,nan,nan,nan,nan
1,149,1,1,1.0,1.0,0.365040981153,0,0.0,0.0,0.0,0.338675896012,0.0744689499863,0.264206946025,0.413144845998,0.0744689499863,0.394857395324,408,0.036737934283,0.465637664749,-0.515938449969,nan,nan,nan,nan,nan,nan,nan,nan,2847.9512933,3021.23023748,nan,3021.59527846,nan,nan,nan,nan
1,150,1,1,1.0,1.0,0.367215125414,0,0.0,0.0,0.0,0.338854038479,0.0742483608085,0.26460567767,0.413102399287,0.0742483608085,0.378369517295,214,0.920243657418,0.0575410437433,0.553854850604,nan,nan,nan,nan,nan,nan,nan,nan,2847.9512933,3022.17203337,nan,3022.53924849,nan,nan,nan,nan
1,151,1,1,1.0,1.0,0.377417295706,0,0.0,0.0,0.0,0.339044381344,0.0740350079158,0.265009373428,0.41307938926,0.0740350079158,0.369891134091,486,0.631151757674,0.309603058574,-1.0,nan,nan,nan,nan,nan,nan,nan,nan,2847.9512933,3023.11382041,nan,3023.49123771,nan,nan,nan,nan
1,152,1,1,1.0,1.0,0.371593919117,0,0.0,0.0,0.0,0.339300200773,0.0738538575471,0.265446343226,0.41315405832,0.0738538575471,0.372075446746,49,1.0,-0.027785429985,-1.0,nan,nan,nan,nan,nan,nan,nan,nan,2847.9512933,3024.05561715,nan,3024.42721107,nan,nan,nan,nan
1,153,1,1,1.0,1.0,0.477778028056,0,0.0,0.0,0.0,0.339514066457,0.0736554902983,0.265858576159,0.413169556756,0.0736554902983,0.408929747626,372,-0.138660017671,0.478458869494,-0.0888123791441,nan,nan,nan,nan,nan,nan,nan,nan,2847.9512933,3024.99741332,nan,3025.47519135,nan,nan,nan,nan
1,154,1,1,1.0,1.0,0.527969512914,0,0.0,1.0,0.0,0.340423697784,0.0742588809486,0.266164816835,0.414682578732,0.0742588809486,0.459113820029,14,0.95801504718,0.150023555696,-1.0,nan,nan,nan,nan,nan,nan,nan,nan,2847.9512933,3025.93919723,nan,3026.46716674,nan,nan,nan,nan
1,155,1,1,1.0,1.0,0.586141127802,1,0.0,0.0,1.0,0.341649487425,0.0755428940964,0.266106593329,0.417192381522,0.0755428940964,0.530629556257,453,0.359670421306,0.39926174925,-1.0,131.610134199,318.389865801,-0.125759199182,453.0,0.359670421306,0.39926174925,-1.0,9.80160121474,2847.9512933,3026.8809954,3027.68940642,3027.46713652,3038.52416006,3039.53243697,3028.70620515,3038.51582213
1,156,1,1,1.0,1.0,0.408484522253,0,0.0,0.0,0.0,0.34323709548,0.0778158632015,0.265421232278,0.421052958681,0.0778158632015,0.50753172099,283,0.19826868328,0.351050922538,0.605825948857,nan,nan,nan,nan,nan,nan,nan,nan,2847.9512933,3039.67437729,nan,3040.08286181,nan,nan,nan,nan
1,157,1,1,1.0,1.0,0.290657651552,0,0.0,0.0,0.0,0.34365804662,0.0777401494581,0.265917897162,0.421398196078,0.0777401494581,0.428427767203,487,0.639529740128,0.306295026098,-1.0,nan,nan,nan,nan,nan,nan,nan,nan,2847.9512933,3040.61616604,nan,3040.90682369,nan,nan,nan,nan
1,158,1,1,1.0,1.0,0.252857591258,0,0.0,0.0,0.0,0.343318300498,0.0776059373163,0.265712363181,0.420924237814,0.0776059373163,0.317333255021,246,0.589768841079,0.215019897151,0.651339528662,nan,nan,nan,nan,nan,nan,nan,nan,2847.9512933,3041.55795765,nan,3041.81081524,nan,nan,nan,nan
1,159,1,1,1.0,1.0,0.271036755468,0,0.0,0.0,0.0,0.342742117636,0.0776924089062,0.26504970873,0.420434526543,0.0776924089062,0.27151733276,196,1.0,-0.0413610816081,0.449130757868,nan,nan,nan,nan,nan,nan,nan,nan,2847.9512933,3042.49974612,nan,3042.77078288,nan,nan,nan,nan
1,160,1,1,1.0,1.0,0.24921691179,0,1.0,0.0,0.0,0.34228828623,0.0776546415461,0.264633644684,0.419942927776,0.0776546415461,0.257703752839,74,1.0,-0.159715158178,-0.810443278181,nan,nan,nan,nan,nan,nan,nan,nan,2847.9512933,3043.44154258,nan,3043.69075949,nan,nan,nan,nan
1,161,1,1,1.0,1.0,0.251402174763,1,0.0,0.0,1.0,0.341702931674,0.0777589506613,0.263943981013,0.419461882335,0.0777589506613,0.257218614007,477,0.555879874869,0.337784025865,-1.0,112.425861921,337.574138079,2.18351307865,480.0,0.580928072941,0.32870764083,-1.0,5.50938608218,2847.9512933,3044.38333732,3045.19174863,3044.63473949,3051.73426604,3052.74535856,3046.20851856,3051.72593581
1,162,1,1,1.0,1.0,0.534058884368,0,0.0,0.0,0.0,0.341138551943,0.0778415664044,0.263296985539,0.418980118348,0.0778415664044,0.344892656974,120,1.0,-0.310161497659,-0.240162905937,nan,nan,nan,nan,nan,nan,nan,nan,2847.9512933,3052.88447329,nan,3053.41853217,nan,nan,nan,nan
1,163,1,1,1.0,1.0,0.328269548248,0,0.0,0.0,0.0,0.342336814878,0.0790658424818,0.263270972396,0.421402657359,0.0790658424818,0.371243535793,286,0.169078956243,0.359734776014,0.594698705761,nan,nan,nan,nan,nan,nan,nan,nan,2847.9512933,3053.82626432,nan,3054.15453387,nan,nan,nan,nan
1,164,1,1,1.0,1.0,0.314440668211,0,0.0,0.0,0.0,0.342249979898,0.0788291348613,0.263420845037,0.42107911476,0.0788291348613,0.392256366943,397,-0.0275613476434,0.473159987783,-0.37569455347,nan,nan,nan,nan,nan,nan,nan,nan,2847.9512933,3054.76806163,nan,3055.0825023,nan,nan,nan,nan
1,165,0,0,1.0,0.0,0.292618258682,0,0.0,0.0,0.0,0.342079370624,0.0786169512456,0.263462419379,0.42069632187,0.0786169512456,0.31177615838,252,0.524721685615,0.240693665738,0.655694012224,nan,nan,nan,nan,nan,nan,nan,nan,2847.9512933,3055.70984925,nan,3056.00246751,nan,nan,nan,nan
1,166,1,1,1.0,1.0,0.25482760655,0,0.0,0.0,0.0,0.341777778478,0.0784714241637,0.263306354315,0.420249202642,0.0784714241637,0.287295511148,25,1.0,0.0970682892709,-1.0,nan,nan,nan,nan,nan,nan,nan,nan,2847.9512933,3056.65164257,nan,3056.90647017,nan,nan,nan,nan
1,167,0,0,1.0,0.0,0.28897871956,0,0.0,0.0,0.0,0.341250807739,0.0785237997308,0.262727008009,0.41977460747,0.0785237997308,0.278808194931,423,0.135229581944,0.450080889006,-0.750039916123,nan,nan,nan,nan,nan,nan,nan,nan,2847.9512933,3057.59346725,nan,3057.88244597,nan,nan,nan,nan
1,168,1,1,1.0,1.0,0.355184347543,0,0.0,0.0,0.0,0.340935915642,0.0783913485907,0.262544567051,0.419327264233,0.0783913485907,0.299663557884,73,1.0,-0.1546788618,-0.830916872461,nan,nan,nan,nan,nan,nan,nan,nan,2847.9512933,3058.53522578,nan,3058.89041013,nan,nan,nan,nan
1,169,1,1,1.0,1.0,0.349417705147,0,0.0,0.0,0.0,0.341021235593,0.0781640218,0.262857213793,0.419185257393,0.0781640218,0.33119359075,233,0.728670395113,0.154909781369,0.626482233315,nan,nan,nan,nan,nan,nan,nan,nan,2847.9512933,3059.47699002,nan,3059.82640773,nan,nan,nan,nan
1,170,1,1,1.0,1.0,0.359569983615,0,0.0,0.0,0.0,0.341071214579,0.0779337199245,0.263137494654,0.419004934503,0.0779337199245,0.354724012102,416,0.087881616042,0.458117504295,-0.630165317015,nan,nan,nan,nan,nan,nan,nan,nan,2847.9512933,3060.41881185,nan,3060.77838183,nan,nan,nan,nan
1,171,1,1,1.0,1.0,0.433692735212,0,0.0,0.0,0.0,0.341180674751,0.0777157561489,0.263464918602,0.4188964309,0.0777157561489,0.380893474658,66,1.0,-0.118568705386,-1.0,nan,nan,nan,nan,nan,nan,nan,nan,2847.9512933,3061.36065991,nan,3061.79435264,nan,nan,nan,nan
1,172,1,1,1.0,1.0,0.419936554681,0,0.0,0.0,0.0,0.341724863342,0.0778091173666,0.263915745975,0.419533980708,0.0778091173666,0.404399757836,156,1.0,-0.244060613314,0.121041471254,nan,nan,nan,nan,nan,nan,nan,nan,2847.9512933,3062.30239906,nan,3062.72233561,nan,nan,nan,nan
1,173,1,1,1.0,1.0,0.374117876461,0,0.0,0.0,0.0,0.342182241654,0.0778101334012,0.264372108252,0.419992375055,0.0778101334012,0.409249055452,243,0.622151010882,0.20168048164,0.647463484622,nan,nan,nan,nan,nan,nan,nan,nan,2847.9512933,3063.24418981,nan,3063.61830769,nan,nan,nan,nan
1,174,0,0,0.0,1.0,0.456298589299,0,0.0,0.0,0.0,0.342367913949,0.0776215939691,0.26474631998,0.419989507918,0.0776215939691,0.416784340147,174,1.0,-0.160790688716,0.281981279739,nan,nan,nan,nan,nan,nan,nan,nan,2847.9512933,3064.18598484,nan,3064.64228343,nan,nan,nan,nan
1,175,1,1,1.0,1.0,0.258478549484,0,0.0,0.0,0.0,0.343026472766,0.0778773456484,0.265149127118,0.420903818414,0.0778773456484,0.362965005081,359,-0.169222339917,0.474741883077,0.0483828026834,nan,nan,nan,nan,nan,nan,nan,nan,2847.9512933,3065.12777901,nan,3065.38625756,nan,nan,nan,nan
1,176,0,0,0.0,1.0,0.46867689956,0,0.0,0.0,0.0,0.342540565161,0.0779157987845,0.264624766376,0.420456363945,0.0779157987845,0.394484679447,198,1.0,-0.0302354974571,0.462326941081,nan,nan,nan,nan,nan,nan,nan,nan,2847.9512933,3066.06957062,nan,3066.53824752,nan,nan,nan,nan
1,177,1,1,1.0,1.0,0.230886931648,0,0.0,0.0,0.0,0.343261344215,0.0782724594612,0.264988884753,0.421533803676,0.0782724594612,0.31934746023,134,1.0,-0.304950998219,-0.095144111098,nan,nan,nan,nan,nan,nan,nan,nan,2847.9512933,3067.01133457,nan,3067.2422215,nan,nan,nan,nan
1,178,1,1,1.0,1.0,0.297041812504,0,0.0,0.0,0.0,0.342622853234,0.0785054787035,0.264117374531,0.421128331938,0.0785054787035,0.332201881237,203,1.0,-0.00249325098487,0.493674673203,nan,nan,nan,nan,nan,nan,nan,nan,2847.9512933,3067.95315498,nan,3068.25019679,nan,nan,nan,nan
1,179,1,1,1.0,1.0,0.339218670852,0,0.0,0.0,0.0,0.34236533323,0.0783579100548,0.264007423175,0.420723243285,0.0783579100548,0.289049138334,428,0.170378320166,0.443486568519,-0.86866140055,nan,nan,nan,nan,nan,nan,nan,nan,2847.9512933,3068.89494772,nan,3069.23416639,nan,nan,nan,nan
1,180,1,1,1.0,1.0,0.357396409556,0,0.0,0.0,0.0,0.342347655351,0.0781378475071,0.264209807844,0.420485502859,0.0781378475071,0.331218964304,352,-0.17544712699,0.470851603012,0.118673592819,nan,nan,nan,nan,nan,nan,nan,nan,2847.9512933,3069.83675387,nan,3070.19415028,nan,nan,nan,nan
1,181,1,1,1.0,1.0,0.447597450868,0,0.0,0.0,0.0,0.342431726604,0.0779273523511,0.264504374253,0.420359078955,0.0779273523511,0.381404177092,110,1.0,-0.296722754836,-0.346921960777,nan,nan,nan,nan,nan,nan,nan,nan,2847.9512933,3070.77853179,nan,3071.22612924,nan,nan,nan,nan
1,182,1,1,1.0,1.0,0.369789829885,0,0.0,0.0,0.0,0.343015980628,0.0781027356833,0.264913244944,0.421118716311,0.0781027356833,0.391594563436,276,0.268710435127,0.329430325417,0.627563005949,nan,nan,nan,nan,nan,nan,nan,nan,2847.9512933,3071.72032796,nan,3072.09011779,nan,nan,nan,nan
1,183,1,1,1.0,1.0,0.347974262666,0,0.0,0.0,0.0,0.343163902447,0.0779119632225,0.265251939224,0.421075865669,0.0779119632225,0.388453847806,222,0.841778467246,0.0997291618919,0.589484691865,nan,nan,nan,nan,nan,nan,nan,nan,2847.9512933,3072.66211615,nan,3073.01009041,nan,nan,nan,nan
1,184,1,1,1.0,1.0,0.39816546248,0,0.0,0.0,0.0,0.343190332997,0.0776984382157,0.265491894782,0.420888771213,0.0776984382157,0.371976518344,365,-0.157962026257,0.477016591838,-0.0139196855225,nan,nan,nan,nan,nan,nan,nan,nan,2847.9512933,3073.60391004,nan,3074.0020755,nan,nan,nan,nan
1,185,1,1,1.0,1.0,0.37634761451,0,0.0,0.0,0.0,0.343490743541,0.0775917703992,0.265898973142,0.42108251394,0.0775917703992,0.374162446552,484,0.614398947124,0.316112737715,-1.0,nan,nan,nan,nan,nan,nan,nan,nan,2847.9512933,3074.54569908,nan,3074.92204669,nan,nan,nan,nan
1,186,1,1,1.0,1.0,0.362525291566,0,0.0,0.0,0.0,0.343669313492,0.0774183323309,0.266250981161,0.421087645823,0.0774183323309,0.379012789519,189,1.0,-0.0802194643608,0.400143472992,nan,nan,nan,nan,nan,nan,nan,nan,2847.9512933,3075.48749468,nan,3075.85001997,nan,nan,nan,nan
1,187,1,1,1.0,1.0,0.436716466385,0,0.0,0.0,0.0,0.343771237698,0.077221187798,0.2665500499,0.420992425496,0.077221187798,0.391863124154,88,1.0,-0.225257592204,-0.599932847766,nan,nan,nan,nan,nan,nan,nan,nan,2847.9512933,3076.42928543,nan,3076.8660019,nan,nan,nan,nan
1,188,1,1,1.0,1.0,0.342897838331,0,0.0,0.0,0.0,0.344270943228,0.0773126615958,0.266958281633,0.421583604824,0.0773126615958,0.380713198761,472,0.51429864939,0.352212277195,-1.0,nan,nan,nan,nan,nan,nan,nan,nan,2847.9512933,3077.37107904,nan,3077.71397687,nan,nan,nan,nan
1,189,1,1,1.0,1.0,0.297087142826,0,0.0,0.0,0.0,0.344263600421,0.0771057311775,0.267157869244,0.421369331599,0.0771057311775,0.358900482514,218,0.881467392804,0.0788246127756,0.572559633417,nan,nan,nan,nan,nan,nan,nan,nan,2847.9512933,3078.31286694,nan,3078.60995408,nan,nan,nan,nan
1,190,1,1,1.0,1.0,0.387301298615,0,0.0,0.0,0.0,0.344012661817,0.0769769140819,0.267035747735,0.420989575899,0.0769769140819,0.342428759924,176,1.0,-0.150429669724,0.298675466069,nan,nan,nan,nan,nan,nan,nan,nan,2847.9512933,3079.25466909,nan,3079.64197039,nan,nan,nan,nan
1,191,1,1,1.0,1.0,0.341438430478,0,0.0,0.0,0.0,0.344241702224,0.0768372053538,0.26740449687,0.421078907577,0.0768372053538,0.34194229064,321,-0.0999433513493,0.43654647086,0.391174984052,nan,nan,nan,nan,nan,nan,nan,nan,2847.9512933,3080.19646583,nan,3080.53790426,nan,nan,nan,nan
1,192,1,1,1.0,1.0,0.303640936036,0,0.0,0.0,0.0,0.344226948162,0.076635003851,0.267591944311,0.420861952013,0.076635003851,0.344126888376,484,0.614398947124,0.316112737715,-1.0,nan,nan,nan,nan,nan,nan,nan,nan,2847.9512933,3081.13825658,nan,3081.44189752,nan,nan,nan,nan
1,193,1,1,1.0,1.0,0.337821128895,0,0.0,0.0,0.0,0.344014455952,0.0764902253984,0.267524230553,0.42050468135,0.0764902253984,0.327633498469,241,0.64365311028,0.192605941253,0.644254782112,nan,nan,nan,nan,nan,nan,nan,nan,2847.9512933,3082.08004563,nan,3082.41786676,nan,nan,nan,nan
1,194,1,1,1.0,1.0,0.33200544992,0,0.0,0.0,0.0,0.34398219904,0.0762920745457,0.267690124494,0.420274273586,0.0762920745457,0.324489171617,117,1.0,-0.307587969795,-0.271886539361,nan,nan,nan,nan,nan,nan,nan,nan,2847.9512933,3083.02183638,nan,3083.35384183,nan,nan,nan,nan
1,195,1,1,1.0,1.0,0.358306151757,0,0.0,0.0,0.0,0.343920143345,0.0760990281297,0.267821115215,0.420019171475,0.0760990281297,0.34271091019,52,1.0,-0.0438860552364,-1.0,nan,nan,nan,nan,nan,nan,nan,nan,2847.9512933,3083.96361915,nan,3084.3219253,nan,nan,nan,nan
1,196,1,1,1.0,1.0,0.432371884177,0,0.0,0.0,0.0,0.343994298028,0.0759096340248,0.268084664003,0.419903932052,0.0759096340248,0.374227828618,112,1.0,-0.300501516081,-0.325324861792,nan,nan,nan,nan,nan,nan,nan,nan,2847.9512933,3084.90542245,nan,3085.33779433,nan,nan,nan,nan
1,197,1,1,1.0,1.0,0.378572790942,0,0.0,0.0,0.0,0.344447516418,0.0759774398269,0.268470076591,0.420424956245,0.0759774398269,0.389750275625,216,0.900975005756,0.0682271079607,0.563426584804,nan,nan,nan,nan,nan,nan,nan,nan,2847.9512933,3085.8472112,nan,3086.22578399,nan,nan,nan,nan
1,198,1,1,1.0,1.0,0.356769197737,0,0.0,0.0,0.0,0.344621624962,0.0758223625061,0.268799262455,0.420443987468,0.0758223625061,0.389237957619,501,0.7564492333,0.256253544744,-1.0,nan,nan,nan,nan,nan,nan,nan,nan,2847.9512933,3086.78900509,nan,3087.14577429,nan,nan,nan,nan
1,199,1,1,1.0,1.0,0.318956308125,0,0.0,0.0,0.0,0.344683287767,0.0756346019385,0.269048685829,0.420317889706,0.0756346019385,0.351432765601,332,-0.146647089803,0.45205423783,0.302714191958,nan,nan,nan,nan,nan,nan,nan,nan,2847.9512933,3087.73079641,nan,3088.04975272,nan,nan,nan,nan
1,200,1,1,1.0,1.0,0.361125754018,0,0.0,0.0,0.0,0.344553353527,0.075465403061,0.269087950466,0.420018756588,0.075465403061,0.345617086627,61,1.0,-0.0921163965413,-1.0,nan,nan,nan,nan,nan,nan,nan,nan,2847.9512933,3088.67259087,nan,3089.03371663,nan,nan,nan,nan
1,201,1,1,1.0,1.0,0.339320165105,0,0.0,0.0,0.0,0.344636631921,0.07528467321,0.269351958711,0.419921305131,0.07528467321,0.339800742416,259,0.44882283482,0.268906983076,0.655011783756,nan,nan,nan,nan,nan,nan,nan,nan,2847.9512933,3089.61437849,nan,3089.95369865,nan,nan,nan,nan
1,202,1,1,1.0,1.0,0.261502850859,0,0.0,0.0,0.0,0.344610049587,0.0750971619152,0.269512887672,0.419707211502,0.0750971619152,0.320649589994,24,1.0,0.102019060141,-1.0,nan,nan,nan,nan,nan,nan,nan,nan,2847.9512933,3090.55617067,nan,3090.81767352,nan,nan,nan,nan
1,203,1,1,1.0,1.0,0.303684270708,0,0.0,0.0,0.0,0.344196580937,0.0751379888086,0.269058592128,0.419334569745,0.0751379888086,0.301502428891,403,0.00657627305109,0.469456436931,-0.450524507496,nan,nan,nan,nan,nan,nan,nan,nan,2847.9512933,3091.49796541,nan,3091.80164968,nan,nan,nan,nan
1,204,1,1,1.0,1.0,0.313835123728,0,0.0,0.0,0.0,0.343996024946,0.0750056866523,0.268990338293,0.419001711598,0.0750056866523,0.293007415098,181,1.0,-0.123914391386,0.3392011262,nan,nan,nan,nan,nan,nan,nan,nan,2847.9512933,3092.43979864,nan,3092.75363377,nan,nan,nan,nan
1,205,1,1,1.0,1.0,0.332039946516,0,0.0,0.0,0.0,0.343847449078,0.0748505081863,0.268996940891,0.418697957264,0.0748505081863,0.316519780317,245,0.600577697281,0.210610106048,0.650172825369,nan,nan,nan,nan,nan,nan,nan,nan,2847.9512933,3093.3815626,nan,3093.71360254,nan,nan,nan,nan
1,206,1,1,1.0,1.0,0.422245549446,0,0.0,0.0,0.0,0.343789569163,0.0746713795533,0.26911818961,0.418460948716,0.0746713795533,0.356040206563,126,1.0,-0.311411754845,-0.177408431044,nan,nan,nan,nan,nan,nan,nan,nan,2847.9512933,3094.3233448,nan,3094.74559034,nan,nan,nan,nan
1,207,1,1,1.0,1.0,0.336434135505,0,0.0,0.0,0.0,0.344172281262,0.0746893259545,0.269482955307,0.418861607216,0.0746893259545,0.363573210489,427,0.163265173604,0.444863218481,-0.840208708629,nan,nan,nan,nan,nan,nan,nan,nan,2847.9512933,3095.26513811,nan,3095.60157225,nan,nan,nan,nan
1,208,1,1,1.0,1.0,0.282647586486,0,0.0,0.0,0.0,0.344134717448,0.0745097617762,0.269624955671,0.418644479224,0.0745097617762,0.347109090479,354,-0.174470673547,0.472100788149,0.0988677247603,nan,nan,nan,nan,nan,nan,nan,nan,2847.9512933,3096.20692915,nan,3096.48957674,nan,nan,nan,nan
1,209,0,0,1.0,0.0,0.292805852019,0,0.0,0.0,0.0,0.343837678168,0.0744517335711,0.269385944596,0.418289411739,0.0744517335711,0.30396252467,167,1.0,-0.195605812978,0.221546716301,nan,nan,nan,nan,nan,nan,nan,nan,2847.9512933,3097.14871933,nan,3097.44152519,nan,nan,nan,nan
1,210,1,1,1.0,1.0,0.27100567997,0,0.0,0.0,0.0,0.34359233285,0.0743563818853,0.269235950964,0.417948714735,0.0743563818853,0.282153039492,453,0.359670421306,0.39926174925,-1.0,nan,nan,nan,nan,nan,nan,nan,nan,2847.9512933,3098.09051721,nan,3098.36152289,nan,nan,nan,nan
1,211,1,1,1.0,1.0,0.297164974152,0,0.0,0.0,0.0,0.34324502829,0.0743472033862,0.268897824904,0.417592231677,0.0743472033862,0.286992168714,15,0.965734432428,0.145352784795,-1.0,nan,nan,nan,nan,nan,nan,nan,nan,2847.9512933,3099.03230911,nan,3099.32947408,nan,nan,nan,nan
1,212,1,1,1.0,1.0,0.243360749155,0,0.0,0.0,0.0,0.343025599461,0.0742377823916,0.268787817069,0.417263381853,0.0742377823916,0.270510467759,111,1.0,-0.298677811705,-0.336106236365,nan,nan,nan,nan,nan,nan,nan,nan,2847.9512933,3099.97410271,nan,3100.21746346,nan,nan,nan,nan
1,213,0,0,0.0,1.0,0.493552690197,0,0.0,0.0,0.0,0.342553254199,0.0743772934696,0.268175960729,0.416930547669,0.0743772934696,0.344692804501,393,-0.0489456633786,0.475102171109,-0.327443230616,nan,nan,nan,nan,nan,nan,nan,nan,2847.9512933,3100.91587835,nan,3101.40943104,nan,nan,nan,nan
1,214,1,1,1.0,1.0,0.271734100941,0,0.0,0.0,0.0,0.34326551569,0.0749194987777,0.268346016912,0.418185014467,0.0749194987777,0.336215846764,236,0.697004556276,0.169301754335,0.634065852989,nan,nan,nan,nan,nan,nan,nan,nan,2847.9512933,3101.85767367,nan,3102.12940777,nan,nan,nan,nan
1,215,0,0,0.0,1.0,0.473905850376,0,0.0,0.0,0.0,0.342929687451,0.0749031974976,0.268026489954,0.417832884949,0.0749031974976,0.413064213838,473,0.522594813828,0.349396171415,-1.0,nan,nan,nan,nan,nan,nan,nan,nan,2847.9512933,3102.7994781,nan,3103.27338395,nan,nan,nan,nan
1,216,1,1,1.0,1.0,0.276099210081,0,0.0,0.0,0.0,0.343541725596,0.0752599466789,0.268281778917,0.418801672275,0.0752599466789,0.340579720466,231,0.749609680972,0.145151270079,0.620821461523,nan,nan,nan,nan,nan,nan,nan,nan,2847.9512933,3103.74126886,nan,3104.01736807,nan,nan,nan,nan
1,217,1,1,1.0,1.0,0.294274097832,0,0.0,0.0,0.0,0.343228039477,0.0752248130135,0.268003226464,0.418452852491,0.0752248130135,0.348093052763,487,0.639529740128,0.306295026098,-1.0,nan,nan,nan,nan,nan,nan,nan,nan,2847.9512933,3104.68306246,nan,3104.97733656,nan,nan,nan,nan
1,218,1,1,1.0,1.0,0.352471656457,0,0.0,0.0,0.0,0.343001400858,0.0751240172033,0.267877383655,0.418125418062,0.0751240172033,0.307614988124,392,-0.0541067903503,0.475522277549,-0.315549842675,nan,nan,nan,nan,nan,nan,nan,nan,2847.9512933,3105.62485549,nan,3105.97732715,nan,nan,nan,nan
1,219,1,1,1.0,1.0,0.282663837017,0,0.0,0.0,0.0,0.343045042589,0.0749534648864,0.268091577703,0.417998507476,0.0749534648864,0.309803197102,345,-0.173519535469,0.465595146217,0.186119282857,nan,nan,nan,nan,nan,nan,nan,nan,2847.9512933,3106.56664482,nan,3106.84930866,nan,nan,nan,nan
1,220,0,0,0.0,1.0,0.428840966779,0,0.0,0.0,0.0,0.342768064582,0.0748925811078,0.267875483474,0.41766064569,0.0748925811078,0.354658820084,271,0.320642857732,0.312811632898,0.639400143054,nan,nan,nan,nan,nan,nan,nan,nan,2847.9512933,3107.50843871,nan,3107.93727967,nan,nan,nan,nan
1,221,1,1,1.0,1.0,0.263040089922,0,0.0,0.0,0.0,0.343161091533,0.0749463928117,0.268214698721,0.418107484344,0.0749463928117,0.324848297906,17,0.981069150956,0.135921910835,-1.0,nan,nan,nan,nan,nan,nan,nan,nan,2847.9512933,3108.45023032,nan,3108.7132704,nan,nan,nan,nan
1,222,1,1,1.0,1.0,0.289218200429,0,0.0,0.0,0.0,0.342796905162,0.0749698372418,0.26782706792,0.417766742404,0.0749698372418,0.32703308571,324,-0.114799643766,0.441158325109,0.368064040095,nan,nan,nan,nan,nan,nan,nan,nan,2847.9512933,3109.39202278,nan,3109.68124098,nan,nan,nan,nan
1,223,1,1,1.0,1.0,0.299406686157,0,0.0,0.0,0.0,0.342554467584,0.0748864152643,0.267668052319,0.417440882848,0.0748864152643,0.283888325503,386,-0.0833946583454,0.477495592553,-0.245424736514,nan,nan,nan,nan,nan,nan,nan,nan,2847.9512933,3110.3338161,nan,3110.63322278,nan,nan,nan,nan
1,224,1,1,1.0,1.0,0.32560589374,0,0.0,0.0,0.0,0.342360108208,0.0747734073179,0.26758670089,0.417133515526,0.0747734073179,0.304743593442,330,-0.139766326074,0.449518327743,0.319540245599,nan,nan,nan,nan,nan,nan,nan,nan,2847.9512933,3111.27559887,nan,3111.60120476,nan,nan,nan,nan
1,225,1,1,1.0,1.0,0.399766848248,0,0.0,0.0,0.0,0.342284977201,0.0746139633673,0.267671013834,0.416898940569,0.0746139633673,0.341593142715,31,1.0,0.0668515730764,-1.0,nan,nan,nan,nan,nan,nan,nan,nan,2847.9512933,3112.21740188,nan,3112.61716873,nan,nan,nan,nan
1,226,1,1,1.0,1.0,0.337970804423,0,0.0,0.0,0.0,0.342541592697,0.0745457889551,0.267995803742,0.417087381652,0.0745457889551,0.354447848804,349,-0.175656888649,0.468768509344,0.147945183432,nan,nan,nan,nan,nan,nan,nan,nan,2847.9512933,3113.15919919,nan,3113.49716999,nan,nan,nan,nan
1,227,1,1,1.0,1.0,0.420133556239,0,0.0,0.0,0.0,0.342521278083,0.0743805685814,0.268140709501,0.416901846664,0.0743805685814,0.385957069637,126,1.0,-0.311411754845,-0.177408431044,nan,nan,nan,nan,nan,nan,nan,nan,2847.9512933,3114.10098794,nan,3114.5211215,nan,nan,nan,nan
1,228,1,1,1.0,1.0,0.318324819847,0,0.0,0.0,0.0,0.342864695243,0.0743943847615,0.268470310481,0.417259080004,0.0743943847615,0.358809726837,93,1.0,-0.245614297951,-0.538619881923,nan,nan,nan,nan,nan,nan,nan,nan,2847.9512933,3115.04277927,nan,3115.36110409,nan,nan,nan,nan
1,229,1,1,1.0,1.0,0.280515351391,0,0.0,0.0,0.0,0.342756590065,0.0742481280558,0.268508462009,0.41700471812,0.0742481280558,0.339657909159,251,0.535576518695,0.236509187076,0.655284151108,nan,nan,nan,nan,nan,nan,nan,nan,2847.9512933,3115.98456973,nan,3116.26508509,nan,nan,nan,nan
1,230,1,1,1.0,1.0,0.290712104936,0,0.0,0.0,0.0,0.342483602176,0.0741992063453,0.26828439583,0.416682808521,0.0741992063453,0.296517425391,404,0.0124894593597,0.468746268022,-0.463349101315,nan,nan,nan,nan,nan,nan,nan,nan,2847.9512933,3116.92636391,nan,3117.21707601,nan,nan,nan,nan
1,231,1,1,1.0,1.0,0.30087892327,0,0.0,0.0,0.0,0.342257525769,0.0741156788005,0.268141846968,0.416373204569,0.0741156788005,0.290702126532,285,0.178734351563,0.356878681702,0.598527012995,nan,nan,nan,nan,nan,nan,nan,nan,2847.9512933,3117.86815951,nan,3118.16903843,nan,nan,nan,nan
1,232,1,1,1.0,1.0,0.479066663189,0,0.0,0.0,0.0,0.342077618801,0.0740044767957,0.268073142005,0.416082095597,0.0740044767957,0.356885897131,85,1.0,-0.212156452387,-0.638781227021,nan,nan,nan,nan,nan,nan,nan,nan,2847.9512933,3118.80995197,nan,3119.28901863,nan,nan,nan,nan
1,233,1,1,1.0,1.0,0.369254133955,0,0.0,0.0,0.0,0.342670644967,0.074389787589,0.268280857378,0.417060432556,0.074389787589,0.383066573471,144,1.0,-0.284423189345,0.00519445478499,nan,nan,nan,nan,nan,nan,nan,nan,2847.9512933,3119.75173731,nan,3120.12099144,nan,nan,nan,nan
1,234,1,1,1.0,1.0,0.299448880367,0,0.0,0.0,0.0,0.342785228972,0.0742497181806,0.268535510791,0.417034947152,0.0742497181806,0.382589892504,45,1.0,-0.0063957592436,-1.0,nan,nan,nan,nan,nan,nan,nan,nan,2847.9512933,3120.69353404,nan,3120.99298293,nan,nan,nan,nan
1,235,1,1,1.0,1.0,0.261626582593,0,0.0,0.0,0.0,0.342599236059,0.0741443543191,0.26845488174,0.416743590378,0.0741443543191,0.310109865638,423,0.135229581944,0.450080889006,-0.750039916123,nan,nan,nan,nan,nan,nan,nan,nan,2847.9512933,3121.63532822,nan,3121.8969548,nan,nan,nan,nan
1,236,1,1,1.0,1.0,0.287823224324,0,0.0,0.0,0.0,0.342253199079,0.0741740653385,0.26807913374,0.416427264417,0.0741740653385,0.282966229095,12,0.942476689623,0.159273951266,-1.0,nan,nan,nan,nan,nan,nan,nan,nan,2847.9512933,3122.57711869,nan,3122.86494191,nan,nan,nan,nan
1,237,1,1,1.0,1.0,0.290020176268,0,0.0,0.0,0.0,0.342021582165,0.0741008322794,0.267920749885,0.416122414444,0.0741008322794,0.279823327728,471,0.506014005179,0.354993781952,-1.0,nan,nan,nan,nan,nan,nan,nan,nan,2847.9512933,3123.51891143,nan,3123.80893161,nan,nan,nan,nan
1,238,1,1,1.0,1.0,0.364195385599,0,0.0,0.0,0.0,0.341801237224,0.0740207833826,0.267780453842,0.415822020607,0.0740207833826,0.31401292873,287,0.159501648714,0.36255249221,0.590751920292,nan,nan,nan,nan,nan,nan,nan,nan,2847.9512933,3124.46070048,nan,3124.82489586,nan,nan,nan,nan
1,239,1,1,1.0,1.0,0.334386288945,0,0.0,0.0,0.0,0.341895727302,0.0738787182029,0.268017009099,0.415774445505,0.0738787182029,0.32953395027,457,0.391639248186,0.390358177281,-1.0,nan,nan,nan,nan,nan,nan,nan,nan,2847.9512933,3125.40248296,nan,3125.73686925,nan,nan,nan,nan
1,240,1,1,1.0,1.0,0.336559862946,0,0.0,0.0,0.0,0.34186417504,0.0737249476181,0.268139227422,0.415589122658,0.0737249476181,0.345047179163,181,1.0,-0.123914391386,0.3392011262,nan,nan,nan,nan,nan,nan,nan,nan,2847.9512933,3126.34428825,nan,3126.68084812,nan,nan,nan,nan
1,241,1,1,1.0,1.0,0.33874541102,0,0.0,0.0,0.0,0.341841981265,0.0735713463675,0.268270634898,0.415413327633,0.0735713463675,0.336563854304,463,0.440238315199,0.376011795327,-1.0,nan,nan,nan,nan,nan,nan,nan,nan,2847.9512933,3127.28607074,nan,3127.62481615,nan,nan,nan,nan
1,242,1,1,1.0,1.0,0.308860763791,0,0.0,0.0,0.0,0.341829078889,0.0734181836952,0.268410895194,0.415247262585,0.0734181836952,0.328055345919,396,-0.0330153705648,0.473684876347,-0.363523780775,nan,nan,nan,nan,nan,nan,nan,nan,2847.9512933,3128.22793219,nan,3128.53679296,nan,nan,nan,nan
1,243,1,1,1.0,1.0,0.319102277397,0,0.0,0.0,0.0,0.341692280902,0.0732963497335,0.268395931168,0.414988630635,0.0732963497335,0.322236150736,96,1.0,-0.25681952169,-0.503302481145,nan,nan,nan,nan,nan,nan,nan,nan,2847.9512933,3129.16966735,nan,3129.48876963,nan,nan,nan,nan
1,244,1,1,1.0,1.0,0.289303159108,0,0.0,0.0,0.0,0.34159893378,0.0731591079006,0.268439825879,0.41475804168,0.0731591079006,0.305755400099,45,1.0,-0.0063957592436,-1.0,nan,nan,nan,nan,nan,nan,nan,nan,2847.9512933,3130.11145297,nan,3130.40075613,nan,nan,nan,nan
1,245,1,1,1.0,1.0,0.291490417789,0,0.0,0.0,0.0,0.34138372483,0.0730851389245,0.268298585906,0.414468863755,0.0730851389245,0.299965284765,220,0.861731547614,0.0893272636146,0.581247684387,nan,nan,nan,nan,nan,nan,nan,nan,2847.9512933,3131.05325,nan,3131.34474042,nan,nan,nan,nan
1,246,0,0,0.0,1.0,0.461652412312,0,0.0,0.0,0.0,0.341179244064,0.0730048409592,0.268174403105,0.414184085023,0.0730048409592,0.347481996403,495,0.706485112283,0.278551693791,-1.0,nan,nan,nan,nan,nan,nan,nan,nan,2847.9512933,3131.99504702,nan,3132.45669943,nan,nan,nan,nan
1,247,1,1,1.0,1.0,0.295873202849,0,0.0,0.0,0.0,0.341670971281,0.073259477464,0.268411493817,0.414930448745,0.073259477464,0.349672010983,11,0.934659501434,0.163852895862,-1.0,nan,nan,nan,nan,nan,nan,nan,nan,2847.9512933,3132.9368335,nan,3133.2327067,nan,nan,nan,nan
1,248,0,0,1.0,0.0,0.28204375261,0,0.0,0.0,0.0,0.341484801491,0.0731684745359,0.268316326955,0.414653276027,0.0731684745359,0.34652312259,200,1.0,-0.0191209939188,0.47515178387,nan,nan,nan,nan,nan,nan,nan,nan,2847.9512933,3133.87862824,nan,3134.16067199,nan,nan,nan,nan
1,249,1,1,1.0,1.0,0.300236031238,0,0.0,0.0,0.0,0.341244149471,0.0731176980159,0.268126451455,0.414361847487,0.0731176980159,0.292717662232,148,1.0,-0.272695592461,0.0444264621409,nan,nan,nan,nan,nan,nan,nan,nan,2847.9512933,3134.82041928,nan,3135.12065531,nan,nan,nan,nan
1,250,1,1,1.0,1.0,0.334332690865,0,0.0,0.0,0.0,0.341078794156,0.073016395981,0.268062398175,0.414095190136,0.073016395981,0.305537491571,194,1.0,-0.0524864644427,0.435571704399,nan,nan,nan,nan,nan,nan,nan,nan,2847.9512933,3135.76228644,nan,3136.09661913,nan,nan,nan,nan
1,251,1,1,1.0,1.0,0.36858985963,0,0.0,0.0,0.0,0.341051701371,0.0728708782542,0.268180823117,0.413922579625,0.0728708782542,0.334386193911,346,-0.174317561957,0.466431294057,0.176670174816,nan,nan,nan,nan,nan,nan,nan,nan,2847.9512933,3136.70400592,nan,3137.07259578,nan,nan,nan,nan
1,252,1,1,1.0,1.0,0.37079023273,0,0.0,0.0,0.0,0.341161854004,0.0727457593608,0.268416094643,0.413907613365,0.0727457593608,0.357904261075,64,1.0,-0.108036866323,-1.0,nan,nan,nan,nan,nan,nan,nan,nan,2847.9512933,3137.64579296,nan,3138.0165832,nan,nan,nan,nan
1,253,1,1,1.0,1.0,0.333074275812,0,0.0,0.0,0.0,0.341279895354,0.0726246893061,0.268655206048,0.41390458466,0.0726246893061,0.357484789391,115,1.0,-0.305166285737,-0.293172749504,nan,nan,nan,nan,nan,nan,nan,nan,2847.9512933,3138.58758714,nan,3138.92066141,nan,nan,nan,nan
1,254,1,1,1.0,1.0,0.327148264623,0,0.0,0.0,0.0,0.341247333371,0.0724822853207,0.268765048051,0.413729618692,0.0724822853207,0.343670924388,326,-0.12383419111,0.444071765824,0.352223541474,nan,nan,nan,nan,nan,nan,nan,nan,2847.9512933,3139.52938102,nan,3139.85652929,nan,nan,nan,nan
1,255,1,1,1.0,1.0,0.329355194874,0,0.0,0.0,0.0,0.341191605827,0.0723443069355,0.268847298891,0.413535912762,0.0723443069355,0.329859245103,204,1.0,0.00303256528985,0.499654420455,nan,nan,nan,nan,nan,nan,nan,nan,2847.9512933,3140.4711732,nan,3140.8005284,nan,nan,nan,nan
1,256,1,1,1.0,1.0,0.371542886889,0,0.0,0.0,0.0,0.341145005784,0.0722055609943,0.26893944479,0.413350566778,0.0722055609943,0.342682115462,144,1.0,-0.284423189345,0.00519445478499,nan,nan,nan,nan,nan,nan,nan,nan,2847.9512933,3141.41295854,nan,3141.78450143,nan,nan,nan,nan
1,257,1,1,1.0,1.0,0.277717131423,0,0.0,0.0,0.0,0.341264213161,0.0720888813951,0.269175331766,0.413353094556,0.0720888813951,0.326205071062,271,0.320642857732,0.312811632898,0.639400143054,nan,nan,nan,nan,nan,nan,nan,nan,2847.9512933,3142.35475613,nan,3142.63247326,nan,nan,nan,nan
1,258,1,1,1.0,1.0,0.295848969661,0,0.0,0.0,0.0,0.341015982373,0.0720570573768,0.268958924996,0.41307303975,0.0720570573768,0.315036329324,213,0.929785093221,0.0521668813814,0.548906519778,nan,nan,nan,nan,nan,nan,nan,nan,2847.9512933,3143.29660704,nan,3143.59245601,nan,nan,nan,nan
1,259,1,1,1.0,1.0,0.36208282219,0,0.0,0.0,0.0,0.340840235242,0.0719716848134,0.268868550428,0.412811920055,0.0719716848134,0.311882974425,93,1.0,-0.245614297951,-0.538619881923,nan,nan,nan,nan,nan,nan,nan,nan,2847.9512933,3144.23834362,nan,3144.60042645,nan,nan,nan,nan
1,260,1,1,1.0,1.0,0.316267565126,0,0.0,0.0,0.0,0.34092257085,0.0718441955519,0.269078375298,0.412766766402,0.0718441955519,0.324733118992,285,0.178734351563,0.356878681702,0.598527012995,nan,nan,nan,nan,nan,nan,nan,nan,2847.9512933,3145.18013552,nan,3145.49640308,nan,nan,nan,nan
1,261,1,1,1.0,1.0,0.326446642634,0,0.0,0.0,0.0,0.340827377778,0.0717216665008,0.269105711277,0.412549044278,0.0717216665008,0.334932343316,18,0.988682696815,0.131162580546,-1.0,nan,nan,nan,nan,nan,nan,nan,nan,2847.9512933,3146.12193169,nan,3146.44837833,nan,nan,nan,nan
1,262,0,0,0.0,1.0,0.48863506451,0,0.0,0.0,0.0,0.340772067258,0.0715891415424,0.269182925715,0.4123612088,0.0715891415424,0.37711642409,169,1.0,-0.185917379452,0.239118302078,nan,nan,nan,nan,nan,nan,nan,nan,2847.9512933,3147.06372529,nan,3147.55236035,nan,nan,nan,nan
1,263,1,1,1.0,1.0,0.234830668487,0,0.0,0.0,0.0,0.341338592151,0.072033438554,0.269305153597,0.413372030706,0.072033438554,0.349970791877,109,1.0,-0.294638327523,-0.357773695079,nan,nan,nan,nan,nan,nan,nan,nan,2847.9512933,3148.00551519,nan,3148.24034586,nan,nan,nan,nan
1,264,1,1,1.0,1.0,0.277022922062,0,0.0,0.0,0.0,0.340932073359,0.0721951788049,0.268736894554,0.413127252164,0.0721951788049,0.333496218353,299,0.0516645560415,0.393417669654,0.534378752182,nan,nan,nan,nan,nan,nan,nan,nan,2847.9512933,3148.94730309,nan,3149.22432601,nan,nan,nan,nan
1,265,1,1,1.0,1.0,0.263232529978,0,1.0,0.0,0.0,0.340689072784,0.0721650657624,0.268524007021,0.412854138546,0.0721650657624,0.258362040176,11,0.934659501434,0.163852895862,-1.0,nan,nan,nan,nan,nan,nan,nan,nan,2847.9512933,3149.88910011,nan,3150.15233264,nan,nan,nan,nan
1,266,1,1,1.0,1.0,0.361320474767,1,0.0,0.0,1.0,0.340395676788,0.0721852448361,0.268210431952,0.412580921624,0.0721852448361,0.300525308936,357,-0.1717918326,0.473767524415,0.068739031695,-142.346044835,232.346044835,-18.6695801652,330.0,-0.139766326074,0.449518327743,0.319540245599,3.21738619742,2847.9512933,3150.83095074,3151.63930845,3151.19227121,3155.89817672,3156.90425868,3152.66443683,3155.88983965
1,267,1,1,1.0,1.0,0.42371864192,0,0.0,0.0,0.0,0.34047463829,0.0720603395469,0.268414298743,0.412534977837,0.0720603395469,0.349423882222,411,0.0555201669072,0.463022710015,-0.557054760163,nan,nan,nan,nan,nan,nan,nan,nan,2847.9512933,3157.04838626,nan,3157.4721049,nan,nan,nan,nan
1,268,1,1,1.0,1.0,0.297908505192,0,0.0,0.0,0.0,0.340787585672,0.0721049526181,0.268682633054,0.41289253829,0.0721049526181,0.360982540626,500,0.748145934353,0.260058294274,-1.0,nan,nan,nan,nan,nan,nan,nan,nan,2847.9512933,3157.99017701,nan,3158.28808551,nan,nan,nan,nan
1,269,1,1,1.0,1.0,0.260114717064,0,0.0,0.0,0.0,0.340626989865,0.072017443903,0.268609545962,0.412644433768,0.072017443903,0.327247288059,268,0.35230222188,0.302367520405,0.645005310408,nan,nan,nan,nan,nan,nan,nan,nan,2847.9512933,3158.93197147,nan,3159.19208618,nan,nan,nan,nan
1,270,1,1,1.0,1.0,0.262307962694,0,0.0,0.0,0.0,0.340326570937,0.0720503763206,0.268276194616,0.412376947257,0.0720503763206,0.273443728317,194,1.0,-0.0524864644427,0.435571704399,nan,nan,nan,nan,nan,nan,nan,nan,2847.9512933,3159.87376165,nan,3160.13606961,nan,nan,nan,nan
1,271,1,1,1.0,1.0,0.216502683994,0,1.0,0.0,0.0,0.340036538936,0.072072894699,0.267963644237,0.412109433635,0.072072894699,0.246308454584,50,1.0,-0.033148730948,-1.0,nan,nan,nan,nan,nan,nan,nan,nan,2847.9512933,3160.81555326,nan,3161.03205594,nan,nan,nan,nan
1,272,1,1,1.0,1.0,0.258683248656,1,0.0,0.0,1.0,0.33957900614,0.0723296253774,0.267249380762,0.411908631517,0.0723296253774,0.245831298448,445,0.296953900578,0.415520102116,-1.0,145.359052488,304.640947512,-8.24967748808,433.0,0.206536295144,0.436163724167,-1.0,1.75055586651,2847.9512933,3161.75734486,3162.56576444,3162.01602811,3165.349546,3166.35762563,3163.58255547,3165.34114079
1,273,1,1,1.0,1.0,0.540266570693,0,0.0,0.0,0.0,0.339280497809,0.0723624830543,0.266918014755,0.411642980864,0.0723624830543,0.338484167781,43,1.0,0.00424534395127,-1.0,nan,nan,nan,nan,nan,nan,nan,nan,2847.9512933,3166.49965432,nan,3167.03992089,nan,nan,nan,nan
1,274,0,0,0.0,1.0,0.462443554483,0,0.0,0.0,0.0,0.340019417195,0.0732464623585,0.266772954837,0.413265879553,0.0732464623585,0.420464457944,212,0.93926288676,0.0467731277665,0.543851001166,nan,nan,nan,nan,nan,nan,nan,nan,2847.9512933,3167.44143766,nan,3167.90388122,nan,nan,nan,nan
1,275,1,1,1.0,1.0,0.24063237774,0,0.0,0.0,0.0,0.340467857258,0.0734853105096,0.266982546749,0.413953167768,0.0734853105096,0.414447500972,362,-0.164239727892,0.476000155386,0.0174578511848,nan,nan,nan,nan,nan,nan,nan,nan,2847.9512933,3168.38323383,nan,3168.62386621,nan,nan,nan,nan
1,276,1,1,1.0,1.0,0.274820838356,0,0.0,0.0,0.0,0.340103494194,0.073597731627,0.266505762567,0.413701225821,0.073597731627,0.325965590193,32,1.0,0.061735800531,-1.0,nan,nan,nan,nan,nan,nan,nan,nan,2847.9512933,3169.32502088,nan,3169.59984171,nan,nan,nan,nan
1,277,1,1,1.0,1.0,0.284943181789,0,0.0,0.0,0.0,0.339866102719,0.0735688145192,0.266297288199,0.413434917238,0.0735688145192,0.266798799295,498,0.731507943485,0.267561876527,-1.0,nan,nan,nan,nan,nan,nan,nan,nan,2847.9512933,3170.26687977,nan,3170.55182295,nan,nan,nan,nan
1,278,1,1,1.0,1.0,0.295200375607,0,0.0,0.0,0.0,0.339667106628,0.0735095250897,0.266157581539,0.413176631718,0.0735095250897,0.284988131917,354,-0.174470673547,0.472100788149,0.0988677247603,nan,nan,nan,nan,nan,nan,nan,nan,2847.9512933,3171.20861008,nan,3171.50381045,nan,nan,nan,nan
1,279,1,1,1.0,1.0,0.281409983523,0,0.0,0.0,0.0,0.339506576913,0.073425165836,0.266081411077,0.412931742749,0.073425165836,0.28718451364,408,0.036737934283,0.465637664749,-0.515938449969,nan,nan,nan,nan,nan,nan,nan,nan,2847.9512933,3172.15036976,nan,3172.43177974,nan,nan,nan,nan
1,280,1,1,1.0,1.0,0.291578227421,0,0.0,0.0,0.0,0.339297596362,0.0733754683787,0.265922127983,0.41267306474,0.0733754683787,0.289396195517,265,0.384259149088,0.291568309415,0.649478858709,nan,nan,nan,nan,nan,nan,nan,nan,2847.9512933,3173.09218674,nan,3173.38376496,nan,nan,nan,nan
1,281,1,1,1.0,1.0,0.317757763376,0,0.0,0.0,0.0,0.339126559197,0.0732993488803,0.265827210317,0.412425908077,0.0732993488803,0.296915324773,407,0.0305886347219,0.46645515455,-0.502577406972,nan,nan,nan,nan,nan,nan,nan,nan,2847.9512933,3174.03398718,nan,3174.35174495,nan,nan,nan,nan
1,282,1,1,1.0,1.0,0.303941997699,0,0.0,0.0,0.0,0.339050242069,0.0731794436651,0.265870798404,0.412229685734,0.0731794436651,0.304425996166,306,-0.00395437407881,0.408974006242,0.494128827808,nan,nan,nan,nan,nan,nan,nan,nan,2847.9512933,3174.97578278,nan,3175.27972478,nan,nan,nan,nan
1,283,1,1,1.0,1.0,0.38613069331,0,0.0,0.0,0.0,0.338925301698,0.0730790259969,0.265846275701,0.412004327695,0.0730790259969,0.335943484795,89,1.0,-0.229484098413,-0.587370487375,nan,nan,nan,nan,nan,nan,nan,nan,2847.9512933,3175.91757068,nan,3176.30370138,nan,nan,nan,nan
1,284,1,1,1.0,1.0,0.340312870394,0,0.0,0.0,0.0,0.339092696703,0.0730032866858,0.266089410018,0.412095983389,0.0730032866858,0.343461853801,245,0.600577697281,0.210610106048,0.650172825369,nan,nan,nan,nan,nan,nan,nan,nan,2847.9512933,3176.85936457,nan,3177.19967744,nan,nan,nan,nan
1,285,1,1,1.0,1.0,0.334421640844,0,0.0,0.0,0.0,0.339097008271,0.0728742274393,0.266222780832,0.41197123571,0.0728742274393,0.353621734849,92,1.0,-0.241703663401,-0.55060883727,nan,nan,nan,nan,nan,nan,nan,nan,2847.9512933,3177.80122118,nan,3178.13564282,nan,nan,nan,nan
1,286,1,1,1.0,1.0,0.28868991707,0,0.0,0.0,0.0,0.33908054571,0.072746341763,0.266334203947,0.411826887473,0.072746341763,0.321141476103,293,0.103830259013,0.378659598285,0.564617056734,nan,nan,nan,nan,nan,nan,nan,nan,2847.9512933,3178.74295092,nan,3179.03164084,nan,nan,nan,nan
1,287,1,1,1.0,1.0,0.290870333381,0,0.0,0.0,0.0,0.338903736487,0.0726797081664,0.26622402832,0.411583444653,0.0726797081664,0.304660630432,87,1.0,-0.220959007447,-0.612675615602,nan,nan,nan,nan,nan,nan,nan,nan,2847.9512933,3179.68474168,nan,3179.97561201,nan,nan,nan,nan
1,288,0,0,0.0,1.0,0.477037633013,0,0.0,0.0,0.0,0.338735787525,0.0726079142537,0.266127873271,0.411343701778,0.0726079142537,0.352199294488,481,0.589289488337,0.325611856148,-1.0,nan,nan,nan,nan,nan,nan,nan,nan,2847.9512933,3180.62653499,nan,3181.10357263,nan,nan,nan,nan
1,289,1,1,1.0,1.0,0.247248892207,0,0.0,0.0,0.0,0.339217675488,0.072938014569,0.266279660919,0.412155690057,0.072938014569,0.338385619534,178,1.0,-0.139919655122,0.315097826042,nan,nan,nan,nan,nan,nan,nan,nan,2847.9512933,3181.56832318,nan,3181.81557207,nan,nan,nan,nan
1,290,1,1,1.0,1.0,0.289451124088,0,0.0,0.0,0.0,0.338898339435,0.0730119776449,0.26588636179,0.41191031708,0.0730119776449,0.337912549769,44,1.0,-0.00106984144607,-1.0,nan,nan,nan,nan,nan,nan,nan,nan,2847.9512933,3182.5101031,nan,3182.79955422,nan,nan,nan,nan
1,291,1,1,1.0,1.0,0.275623099296,0,0.0,0.0,0.0,0.338727241804,0.0729433643916,0.265783877412,0.411670606196,0.0729433643916,0.270774371864,110,1.0,-0.296722754836,-0.346921960777,nan,nan,nan,nan,nan,nan,nan,nan,2847.9512933,3183.45190811,nan,3183.72753121,nan,nan,nan,nan
1,292,1,1,1.0,1.0,0.30179094628,0,0.0,0.0,0.0,0.338509641313,0.0729113927393,0.265598248573,0.411421034052,0.0729113927393,0.288955056555,186,1.0,-0.0967386681424,0.377881386018,nan,nan,nan,nan,nan,nan,nan,nan,2847.9512933,3184.39370827,nan,3184.69549921,nan,nan,nan,nan
1,293,1,1,1.0,1.0,0.287923008029,0,0.0,0.0,0.0,0.33838346023,0.0728177189174,0.265565741313,0.411201179147,0.0728177189174,0.288445684535,239,0.665069831863,0.183388857662,0.640549267122,nan,nan,nan,nan,nan,nan,nan,nan,2847.9512933,3185.3355606,nan,3185.62348361,nan,nan,nan,nan
1,294,1,1,1.0,1.0,0.274163121241,0,0.0,0.0,0.0,0.338210650462,0.072752672878,0.265457977584,0.41096332334,0.072752672878,0.287959025183,22,1.0,0.111842423158,-1.0,nan,nan,nan,nan,nan,nan,nan,nan,2847.9512933,3186.27728835,nan,3186.55145147,nan,nan,nan,nan
1,295,1,1,1.0,1.0,0.260363606096,0,0.0,0.0,0.0,0.337992058212,0.0727244060908,0.265267652121,0.410716464303,0.0727244060908,0.274149911789,172,1.0,-0.170984061773,0.265024678188,nan,nan,nan,nan,nan,nan,nan,nan,2847.9512933,3187.21907995,nan,3187.47944356,nan,nan,nan,nan
1,296,1,1,1.0,1.0,0.318539212283,0,0.0,0.0,0.0,0.337728015858,0.0727411676633,0.264986848195,0.410469183521,0.0727411676633,0.284355313207,279,0.238157575771,0.338930353633,0.618978422254,nan,nan,nan,nan,nan,nan,nan,nan,2847.9512933,3188.16086757,nan,3188.47940678,nan,nan,nan,nan
1,297,0,0,0.0,1.0,0.504722762387,0,0.0,0.0,0.0,0.337662969066,0.0726263373594,0.265036631707,0.410289306426,0.0726263373594,0.361208526922,104,1.0,-0.282351481576,-0.412644567278,nan,nan,nan,nan,nan,nan,nan,nan,2847.9512933,3189.10266032,nan,3189.60738308,nan,nan,nan,nan
1,298,1,1,1.0,1.0,0.218913743214,0,0.0,0.0,0.0,0.33822736026,0.0731487106754,0.265078649585,0.411376070935,0.0731487106754,0.347391905962,37,1.0,0.0358565504353,-1.0,nan,nan,nan,nan,nan,nan,nan,nan,2847.9512933,3190.04445506,nan,3190.26336881,nan,nan,nan,nan
1,299,1,1,1.0,1.0,0.253109616344,0,0.0,0.0,0.0,0.33782563091,0.0733518120423,0.264473818867,0.411177442952,0.0733518120423,0.325582040648,219,0.871627318206,0.0840881726889,0.576959667802,nan,nan,nan,nan,nan,nan,nan,nan,2847.9512933,3190.98624838,nan,3191.239358,nan,nan,nan,nan
1,300,1,1,1.0,1.0,0.279281739844,0,1.0,0.0,0.0,0.337541348982,0.073392338944,0.264149010038,0.410933687926,0.073392338944,0.250435033134,470,0.497741612616,0.357740777197,-1.0,nan,nan,nan,nan,nan,nan,nan,nan,2847.9512933,3191.92804455,nan,3192.20732629,nan,nan,nan,nan
1,301,1,1,1.0,1.0,0.441423405835,1,0.0,0.0,1.0,0.33734650079,0.0733466726931,0.263999828097,0.410693173484,0.0733466726931,0.324604920674,119,1.0,-0.309446327048,-0.250710895617,-19.4242595589,109.424259559,25.7523845589,156.0,1.0,-0.244060613314,0.121041471254,2.96734906361,2847.9512933,3192.86987949,3193.6782506,3193.3113029,3197.68708973,3198.69570961,3194.70337528,3197.6787595
1,302,1,1,1.0,1.0,0.585866294976,0,0.0,0.0,0.0,0.337693423807,0.0734696417948,0.264223782013,0.411163065602,0.0734696417948,0.435523813552,201,1.0,-0.0135712615467,0.48142235136,nan,nan,nan,nan,nan,nan,nan,nan,2847.9512933,3198.83729356,nan,3199.42315985,nan,nan,nan,nan
1,303,1,1,1.0,1.0,0.34006084525,0,0.0,0.0,0.0,0.338517918396,0.0747247804417,0.263793137954,0.413242698838,0.0747247804417,0.455783515354,312,-0.0464483572634,0.420925197877,0.455573212045,nan,nan,nan,nan,nan,nan,nan,nan,2847.9512933,3199.77908887,nan,3200.11914972,nan,nan,nan,nan
1,304,1,1,1.0,1.0,0.270252170507,0,0.0,0.0,0.0,0.338523027425,0.0746010139921,0.263922013433,0.413124041417,0.0746010139921,0.398726436911,202,1.0,-0.00802826454356,0.487596984314,nan,nan,nan,nan,nan,nan,nan,nan,2847.9512933,3200.72088305,nan,3200.99113522,nan,nan,nan,nan
1,305,1,1,1.0,1.0,0.288440172677,0,0.0,0.0,0.0,0.338297711066,0.0745806657126,0.263717045353,0.412878376778,0.0745806657126,0.299584396145,270,0.331159066004,0.309369715406,0.641393874915,nan,nan,nan,nan,nan,nan,nan,nan,2847.9512933,3201.6626738,nan,3201.95111397,nan,nan,nan,nan
1,306,1,1,1.0,1.0,0.218614107114,0,1.0,0.0,0.0,0.338133706005,0.0745126078563,0.263621098149,0.412646313862,0.0745126078563,0.259102150099,357,-0.1717918326,0.473767524415,0.068739031695,nan,nan,nan,nan,nan,nan,nan,nan,2847.9512933,3202.6044674,nan,3202.82308151,nan,nan,nan,nan
1,307,1,1,1.0,1.0,0.236797262623,1,0.0,0.0,1.0,0.337741838468,0.074703462567,0.263038375901,0.412445301035,0.074703462567,0.247950514138,41,1.0,0.0148395037771,-1.0,65.4184255174,24.5815744826,-4.24655051743,35.0,1.0,0.0462653595507,-1.0,4.40088784683,2847.9512933,3203.54625901,3204.35466832,3203.78305627,3209.78869177,3210.78541944,3205.37144339,3209.78035983
1,308,1,1,1.0,1.0,0.476303224976,0,0.0,0.0,0.0,0.337411954233,0.0748034841517,0.262608470081,0.412215438385,0.0748034841517,0.310571531571,499,0.739831889234,0.263827757734,-1.0,nan,nan,nan,nan,nan,nan,nan,nan,2847.9512933,3210.93057506,nan,3211.40687829,nan,nan,nan,nan
1,309,1,1,1.0,1.0,0.294412084448,0,0.0,0.0,0.0,0.337864368796,0.0750997097995,0.262764658996,0.412964078595,0.0750997097995,0.335837524016,61,1.0,-0.0921163965413,-1.0,nan,nan,nan,nan,nan,nan,nan,nan,2847.9512933,3211.87244393,nan,3212.16685602,nan,nan,nan,nan
1,310,1,1,1.0,1.0,0.256700118945,0,0.0,0.0,0.0,0.337723289951,0.0750184319189,0.262704858032,0.412741721869,0.0750184319189,0.342471809456,394,-0.0437090198531,0.474655926729,-0.339401417396,nan,nan,nan,nan,nan,nan,nan,nan,2847.9512933,3212.81415628,nan,3213.0708564,nan,nan,nan,nan
1,311,1,1,1.0,1.0,0.322890921845,0,0.0,0.0,0.0,0.337461079041,0.0750381816159,0.262422897425,0.412499260657,0.0750381816159,0.291334375079,163,1.0,-0.214247802105,0.185723682048,nan,nan,nan,nan,nan,nan,nan,nan,2847.9512933,3213.75593506,nan,3214.07882598,nan,nan,nan,nan
1,312,1,1,1.0,1.0,0.293039060722,0,0.0,0.0,0.0,0.337414078534,0.0749216100667,0.262492468467,0.412335688601,0.0749216100667,0.290876700504,318,-0.0835627602325,0.431640264478,0.413481556053,nan,nan,nan,nan,nan,nan,nan,nan,2847.9512933,3214.69775632,nan,3214.99079538,nan,nan,nan,nan
1,313,1,1,1.0,1.0,0.271238318528,0,0.0,0.0,0.0,0.337271393589,0.0748432356003,0.262428157989,0.41211462919,0.0748432356003,0.295722767032,67,1.0,-0.12380466598,-1.0,nan,nan,nan,nan,nan,nan,nan,nan,2847.9512933,3215.63953709,nan,3215.91077541,nan,nan,nan,nan
1,314,1,1,1.0,1.0,0.297427832906,0,0.0,0.0,0.0,0.337059749118,0.0748163558294,0.262243393289,0.411876104947,0.0748163558294,0.287235070718,308,-0.0186828559465,0.413097475488,0.481682330771,nan,nan,nan,nan,nan,nan,nan,nan,2847.9512933,3216.58132671,nan,3216.87875454,nan,nan,nan,nan
1,315,1,1,1.0,1.0,0.291603600956,0,0.0,0.0,0.0,0.336933129577,0.0747302207727,0.262202908805,0.41166335035,0.0747302207727,0.28675658413,228,0.780729811514,0.1302769546,0.611433142569,nan,nan,nan,nan,nan,nan,nan,nan,2847.9512933,3217.52312202,nan,3217.81472562,nan,nan,nan,nan
1,316,1,1,1.0,1.0,0.277799524309,0,0.0,0.0,0.0,0.336788768021,0.0746548292388,0.262133938782,0.41144359726,0.0746548292388,0.288943652723,404,0.0124894593597,0.468746268022,-0.463349101315,nan,nan,nan,nan,nan,nan,nan,nan,2847.9512933,3218.46491762,nan,3218.74271714,nan,nan,nan,nan
1,317,1,1,1.0,1.0,0.263902791252,0,0.0,0.0,0.0,0.336601500581,0.0746100668154,0.261991433765,0.411211567396,0.0746100668154,0.277768638839,302,0.027086081288,0.400300843718,0.517770016443,nan,nan,nan,nan,nan,nan,nan,nan,2847.9512933,3219.40678706,nan,3219.67068985,nan,nan,nan,nan
1,318,1,1,1.0,1.0,0.258179768571,0,0.0,0.0,0.0,0.336371441374,0.0746037407316,0.261767700643,0.410975182106,0.0746037407316,0.266627361377,236,0.697004556276,0.169301754335,0.634065852989,nan,nan,nan,nan,nan,nan,nan,nan,2847.9512933,3220.3484977,nan,3220.60667747,nan,nan,nan,nan
1,319,1,1,1.0,1.0,0.180359033169,0,1.0,0.0,0.0,0.336124779946,0.0746149226934,0.261509857252,0.410739702639,0.0746149226934,0.234147197664,172,1.0,-0.170984061773,0.265024678188,nan,nan,nan,nan,nan,nan,nan,nan,2847.9512933,3221.29029273,nan,3221.47065176,nan,nan,nan,nan
1,320,1,1,1.0,1.0,0.206547977286,1,0.0,0.0,1.0,0.335634950553,0.0750062523494,0.260628698204,0.410641202903,0.0750062523494,0.215028926342,62,1.0,-0.0974372467467,-1.0,38.2670786731,51.7329213269,8.13917132686,74.0,1.0,-0.159715158178,-0.810443278181,2.61731555057,2847.9512933,3222.23207949,3223.04050049,3222.43862747,3226.69096989,3227.69545959,3224.0572938,3226.68263966
1,321,1,1,1.0,1.0,0.293669408595,0,0.0,0.0,0.0,0.335230289195,0.0752354602676,0.259994828928,0.410465749463,0.0752354602676,0.22685880635,437,0.23613482661,0.429770237144,-1.0,nan,nan,nan,nan,nan,nan,nan,nan,2847.9512933,3227.83284349,nan,3228.1265129,nan,nan,nan,nan
1,322,1,1,1.0,1.0,0.343841792084,0,0.0,0.0,0.0,0.335100411443,0.0751536211831,0.25994679026,0.410254032626,0.0751536211831,0.281353059322,194,1.0,-0.0524864644427,0.435571704399,nan,nan,nan,nan,nan,nan,nan,nan,2847.9512933,3228.77462255,nan,3229.11846435,nan,nan,nan,nan
1,323,1,1,1.0,1.0,0.282030353032,0,0.0,0.0,0.0,0.335127643159,0.0750380493786,0.26008959378,0.410165692537,0.0750380493786,0.306513851237,23,1.0,0.106943944166,-1.0,nan,nan,nan,nan,nan,nan,nan,nan,2847.9512933,3229.71641701,nan,3229.99844737,nan,nan,nan,nan
1,324,0,0,1.0,0.0,0.284232151636,0,0.0,0.0,0.0,0.334962744742,0.0749796682352,0.259983076507,0.409942412977,0.0749796682352,0.303368098917,421,0.121471671064,0.452518040197,-0.712610339232,nan,nan,nan,nan,nan,nan,nan,nan,2847.9512933,3230.65820748,nan,3230.94243963,nan,nan,nan,nan
1,325,1,1,1.0,1.0,0.254429041932,0,0.0,0.0,0.0,0.334805684082,0.0749165425061,0.259889141576,0.409722226588,0.0749165425061,0.273563848867,128,1.0,-0.310663006781,-0.156689791083,nan,nan,nan,nan,nan,nan,nan,nan,2847.9512933,3231.59998597,nan,3231.85441502,nan,nan,nan,nan
1,326,1,1,1.0,1.0,0.256604611641,0,0.0,0.0,0.0,0.334557608026,0.0749335961024,0.259624011924,0.409491204129,0.0749335961024,0.265088601736,253,0.513865899396,0.244839928328,0.655977188727,nan,nan,nan,nan,nan,nan,nan,nan,2847.9512933,3232.54179184,nan,3232.79839645,nan,nan,nan,nan
1,327,1,1,1.0,1.0,0.32278230018,0,0.0,0.0,0.0,0.334317752653,0.0749426893124,0.25937506334,0.409260441965,0.0749426893124,0.277938651251,434,0.213881816697,0.43461034373,-1.0,nan,nan,nan,nan,nan,nan,nan,nan,2847.9512933,3233.48359029,nan,3233.80637259,nan,nan,nan,nan
1,328,1,1,1.0,1.0,0.324963286752,0,0.0,0.0,0.0,0.334282367829,0.0748303773069,0.259451990522,0.409112745136,0.0748303773069,0.301450066191,477,0.555879874869,0.337784025865,-1.0,nan,nan,nan,nan,nan,nan,nan,nan,2847.9512933,3234.42537448,nan,3234.75033777,nan,nan,nan,nan
1,329,0,0,0.0,1.0,0.519140936492,0,0.0,0.0,0.0,0.33425386911,0.0747176419817,0.259536227129,0.408971511092,0.0747176419817,0.388962174475,243,0.622151010882,0.20168048164,0.647463484622,nan,nan,nan,nan,nan,nan,nan,nan,2847.9512933,3235.36717863,nan,3235.88631957,nan,nan,nan,nan
1,330,1,1,1.0,1.0,0.289347634185,0,0.0,0.0,0.0,0.334817549194,0.0752967790778,0.259520770116,0.410114328272,0.0752967790778,0.37781728581,318,-0.0835627602325,0.431640264478,0.413481556053,nan,nan,nan,nan,nan,nan,nan,nan,2847.9512933,3236.30895713,nan,3236.59830476,nan,nan,nan,nan
1,331,1,1,1.0,1.0,0.323568880849,0,0.0,0.0,0.0,0.334679342765,0.0752239139587,0.259455428807,0.409903256724,0.0752239139587,0.377352483842,370,-0.144805996584,0.478178727438,-0.0671803333712,nan,nan,nan,nan,nan,nan,nan,nan,2847.9512933,3237.25075101,nan,3237.5743199,nan,nan,nan,nan
1,332,1,1,1.0,1.0,0.309721754631,0,0.0,0.0,0.0,0.334645674699,0.0751123344062,0.259533340293,0.409758009105,0.0751123344062,0.307546089888,463,0.440238315199,0.376011795327,-1.0,nan,nan,nan,nan,nan,nan,nan,nan,2847.9512933,3238.19254319,nan,3238.50226495,nan,nan,nan,nan
1,333,1,1,1.0,1.0,0.343869446428,0,0.0,0.0,0.0,0.334570375847,0.0750112588212,0.259559117025,0.409581634668,0.0750112588212,0.325720027303,411,0.0555201669072,0.463022710015,-0.557054760163,nan,nan,nan,nan,nan,nan,nan,nan,2847.9512933,3239.13437101,nan,3239.47824045,nan,nan,nan,nan
1,334,1,1,1.0,1.0,0.378064749355,0,0.0,0.0,0.0,0.334598385095,0.0748999383653,0.25969844673,0.409498323461,0.0748999383653,0.343885316805,191,1.0,-0.0691479807067,0.414571651978,nan,nan,nan,nan,nan,nan,nan,nan,2847.9512933,3240.0761324,nan,3240.45419714,nan,nan,nan,nan
1,335,1,1,1.0,1.0,0.308269189089,0,0.0,0.0,0.0,0.334728914718,0.07482519982,0.259903714898,0.409554114538,0.07482519982,0.34340112829,88,1.0,-0.225257592204,-0.599932847766,nan,nan,nan,nan,nan,nan,nan,nan,2847.9512933,3241.01792315,nan,3241.32619234,nan,nan,nan,nan
1,336,0,0,0.0,1.0,0.478449999937,0,0.0,0.0,0.0,0.334649693982,0.0747270868249,0.259922607158,0.409376780807,0.0747270868249,0.388261312793,266,0.373577590308,0.295207490188,0.648113769863,nan,nan,nan,nan,nan,nan,nan,nan,2847.9512933,3241.95971419,nan,3242.43816419,nan,nan,nan,nan
1,337,1,1,1.0,1.0,0.26463748439,0,0.0,0.0,0.0,0.335078948627,0.0750267360868,0.26005221254,0.410105684714,0.0750267360868,0.350452224472,398,-0.0220377755791,0.472608796233,-0.387943383198,nan,nan,nan,nan,nan,nan,nan,nan,2847.9512933,3242.90150693,nan,3243.16614442,nan,nan,nan,nan
1,338,1,1,1.0,1.0,0.314815854887,0,0.0,0.0,0.0,0.334869301412,0.0750132123253,0.259856089087,0.409882513737,0.0750132123253,0.352634446404,18,0.988682696815,0.131162580546,-1.0,nan,nan,nan,nan,nan,nan,nan,nan,2847.9512933,3243.84330424,nan,3244.1581201,nan,nan,nan,nan
1,339,1,1,1.0,1.0,0.461011515872,0,0.0,0.0,0.0,0.334809795636,0.0749097757459,0.25990001989,0.409719571382,0.0749097757459,0.346821618383,132,1.0,-0.307426825298,-0.115555361894,nan,nan,nan,nan,nan,nan,nan,nan,2847.9512933,3244.78509557,nan,3245.24610708,nan,nan,nan,nan
1,340,1,1,1.0,1.0,0.399194945116,0,0.0,0.0,0.0,0.335183173507,0.0751122761288,0.260070897378,0.410295449635,0.0751122761288,0.391674105291,400,-0.0107874812989,0.471427301814,-0.412692688905,nan,nan,nan,nan,nan,nan,nan,nan,2847.9512933,3245.72688005,nan,3246.12607499,nan,nan,nan,nan
1,341,1,1,1.0,1.0,0.345381026913,0,0.0,0.0,0.0,0.335371998792,0.0750817073197,0.260290291472,0.410453706111,0.0750817073197,0.401862495967,1,0.854939129564,0.207877072944,-1.0,nan,nan,nan,nan,nan,nan,nan,nan,2847.9512933,3246.66867878,nan,3247.01405981,nan,nan,nan,nan
1,342,1,1,1.0,1.0,0.363575586292,0,0.0,0.0,0.0,0.33540143711,0.074973171013,0.260428266097,0.410374608123,0.074973171013,0.369383852774,406,0.0244967455079,0.467245700284,-0.489366101921,nan,nan,nan,nan,nan,nan,nan,nan,2847.9512933,3247.61045899,nan,3247.97403457,nan,nan,nan,nan
1,343,0,0,0.0,1.0,0.477762347728,0,0.0,0.0,0.0,0.335484059248,0.0748786588562,0.260605400392,0.410362718104,0.0748786588562,0.395572986978,314,-0.0594438881467,0.42463230952,0.441925406839,nan,nan,nan,nan,nan,nan,nan,nan,2847.9512933,3248.55225772,nan,3249.03002007,nan,nan,nan,nan
1,344,1,1,1.0,1.0,0.25594347337,0,0.0,0.0,0.0,0.335900077635,0.0751627346047,0.260737343031,0.41106281224,0.0751627346047,0.36576046913,135,1.0,-0.303502321856,-0.0849788702499,nan,nan,nan,nan,nan,nan,nan,nan,2847.9512933,3249.49405674,nan,3249.75000021,nan,nan,nan,nan
1,345,1,1,1.0,1.0,0.274130335194,0,0.0,0.0,0.0,0.335666968002,0.0751767938064,0.260490174195,0.410843761808,0.0751767938064,0.335945385431,460,0.415848916989,0.383334931935,-1.0,nan,nan,nan,nan,nan,nan,nan,nan,2847.9512933,3250.43584521,nan,3250.70997555,nan,nan,nan,nan
1,346,0,0,0.0,1.0,0.444308010046,0,0.0,0.0,0.0,0.335488082441,0.0751405178093,0.260347564632,0.410628600251,0.0751405178093,0.324793939537,120,1.0,-0.310161497659,-0.240162905937,nan,nan,nan,nan,nan,nan,nan,nan,2847.9512933,3251.37763653,nan,3251.82194454,nan,nan,nan,nan
1,347,1,1,1.0,1.0,0.230484090629,0,0.0,0.0,0.0,0.335803502521,0.0752592613393,0.260544241182,0.411062763861,0.0752592613393,0.316307478623,228,0.780729811514,0.1302769546,0.611433142569,nan,nan,nan,nan,nan,nan,nan,nan,2847.9512933,3252.31943356,nan,3252.54991765,nan,nan,nan,nan
1,348,1,1,1.0,1.0,0.296690288757,0,0.0,0.0,0.0,0.335499111158,0.0753628042633,0.260136306894,0.410861915421,0.0753628042633,0.323827463144,489,0.656284860842,0.299572439858,-1.0,nan,nan,nan,nan,nan,nan,nan,nan,2847.9512933,3253.26122374,nan,3253.55791403,nan,nan,nan,nan
1,349,1,1,1.0,1.0,0.274859326368,0,0.0,0.0,0.0,0.335387270171,0.0752828837733,0.260104386397,0.410670153944,0.0752828837733,0.267344568584,369,-0.147694689129,0.477999187239,-0.0564338676883,nan,nan,nan,nan,nan,nan,nan,nan,2847.9512933,3254.20301677,nan,3254.4778761,nan,nan,nan,nan
1,350,1,1,1.0,1.0,0.269055621407,0,0.0,0.0,0.0,0.335213339298,0.0752444287617,0.259968910536,0.410457768059,0.0752444287617,0.280201745511,455,0.375608248681,0.394875365091,-1.0,nan,nan,nan,nan,nan,nan,nan,nan,2847.9512933,3255.1448061,nan,3255.41386172,nan,nan,nan,nan
1,351,1,1,1.0,1.0,0.287266716361,0,0.0,0.0,0.0,0.335023775636,0.0752197216127,0.259804054024,0.410243497249,0.0752197216127,0.277060554712,311,-0.0397249783266,0.419020224334,0.462250212202,nan,nan,nan,nan,nan,nan,nan,nan,2847.9512933,3256.08656236,nan,3256.37382907,nan,nan,nan,nan
1,352,1,1,1.0,1.0,0.337422564276,0,0.0,0.0,0.0,0.334887326895,0.0751554293376,0.259731897558,0.410042756233,0.0751554293376,0.297914967348,236,0.697004556276,0.169301754335,0.634065852989,nan,nan,nan,nan,nan,nan,nan,nan,2847.9512933,3257.02839331,nan,3257.36581587,nan,nan,nan,nan
1,353,1,1,1.0,1.0,0.539601156022,0,0.0,0.0,0.0,0.334894549794,0.075048415612,0.259846134182,0.409942965406,0.075048415612,0.38809681222,84,1.0,-0.20765784414,-0.652191087791,nan,nan,nan,nan,nan,nan,nan,nan,2847.9512933,3257.97018121,nan,3258.50978237,nan,nan,nan,nan
1,354,1,1,1.0,1.0,0.31780822546,0,0.0,0.0,0.0,0.335476102653,0.0757296074347,0.259746495218,0.411205710087,0.0757296074347,0.398277315253,365,-0.157962026257,0.477016591838,-0.0139196855225,nan,nan,nan,nan,nan,nan,nan,nan,2847.9512933,3258.91197111,nan,3259.22977933,nan,nan,nan,nan
1,355,1,1,1.0,1.0,0.311976866098,0,0.0,0.0,0.0,0.335426052009,0.0756280955868,0.259797956422,0.411054147596,0.0756280955868,0.38979541586,275,0.279002393219,0.326185254474,0.630178474337,nan,nan,nan,nan,nan,nan,nan,nan,2847.9512933,3259.85376984,nan,3260.16574671,nan,nan,nan,nan
1,356,0,0,0.0,1.0,0.386168611061,0,0.0,0.0,0.0,0.335359811371,0.0755314547469,0.259828356624,0.410891266118,0.0755314547469,0.338651234206,462,0.432089675478,0.378486360879,-1.0,nan,nan,nan,nan,nan,nan,nan,nan,2847.9512933,3260.79556544,nan,3261.18173405,nan,nan,nan,nan
1,357,1,1,1.0,1.0,0.220364313107,0,0.0,0.0,0.0,0.33550293475,0.0754730526387,0.260029882111,0.410975987389,0.0754730526387,0.306169930089,201,1.0,-0.0135712615467,0.48142235136,nan,nan,nan,nan,nan,nan,nan,nan,2847.9512933,3261.73735249,nan,3261.9577168,nan,nan,nan,nan
1,358,1,1,1.0,1.0,0.390537711559,0,0.0,0.0,0.0,0.335179511656,0.0756129291266,0.259566582529,0.410792440782,0.0756129291266,0.332356878576,53,1.0,-0.049257555853,-1.0,nan,nan,nan,nan,nan,nan,nan,nan,2847.9512933,3262.67914381,nan,3263.06968152,nan,nan,nan,nan
1,359,1,1,1.0,1.0,0.368716727477,0,0.0,0.0,0.0,0.335334576641,0.0755636171469,0.259770959494,0.410898193788,0.0755636171469,0.326539584047,136,1.0,-0.301914900238,-0.074841205769,nan,nan,nan,nan,nan,nan,nan,nan,2847.9512933,3263.62093684,nan,3263.98965357,nan,nan,nan,nan
1,360,1,1,1.0,1.0,0.314917634241,0,0.0,0.0,0.0,0.335427822873,0.0754785729261,0.259949249947,0.410906395799,0.0754785729261,0.358057357759,226,0.801265930663,0.120208988367,0.60458276857,nan,nan,nan,nan,nan,nan,nan,nan,2847.9512933,3264.56272817,nan,3264.8776458,nan,nan,nan,nan
1,361,1,1,1.0,1.0,0.309093687451,0,0.0,0.0,0.0,0.335370691428,0.0753811273542,0.259989564074,0.410751818782,0.0753811273542,0.330909349723,331,-0.143297839787,0.450801753776,0.311166711333,nan,nan,nan,nan,nan,nan,nan,nan,2847.9512933,3265.50451521,nan,3265.8136089,nan,nan,nan,nan
1,362,1,1,1.0,1.0,0.33527436381,0,0.0,0.0,0.0,0.33529769975,0.0752890618181,0.260008637932,0.410586761568,0.0752890618181,0.319761895167,146,1.0,-0.278792578557,0.0248813210997,nan,nan,nan,nan,nan,nan,nan,nan,2847.9512933,3266.44631594,nan,3266.78159031,nan,nan,nan,nan
1,363,0,0,1.0,0.0,0.249480340804,0,0.0,0.0,0.0,0.335297635108,0.0751847110339,0.260112924074,0.410482346142,0.0751847110339,0.297949464022,417,0.0945046041228,0.457053563907,-0.645720198395,nan,nan,nan,nan,nan,nan,nan,nan,2847.9512933,3267.38810613,nan,3267.63758647,nan,nan,nan,nan
1,364,1,1,1.0,1.0,0.267668628017,0,0.0,0.0,0.0,0.335060570759,0.0752157795196,0.259844791239,0.410276350279,0.0752157795196,0.284141110877,136,1.0,-0.301914900238,-0.074841205769,nan,nan,nan,nan,nan,nan,nan,nan,2847.9512933,3268.3299003,nan,3268.59756893,nan,nan,nan,nan
1,365,1,1,1.0,1.0,0.301863645844,0,0.0,0.0,0.0,0.334874918024,0.0751951152612,0.259679802763,0.410070033285,0.0751951152612,0.273004204889,197,1.0,-0.035797595552,0.455774741445,nan,nan,nan,nan,nan,nan,nan,nan,2847.9512933,3269.27168022,nan,3269.57354386,nan,nan,nan,nan
1,366,1,1,1.0,1.0,0.304045772762,0,0.0,0.0,0.0,0.334784227716,0.0751116311295,0.259672596586,0.409895858846,0.0751116311295,0.291192682208,497,0.723174939644,0.271260599794,-1.0,nan,nan,nan,nan,nan,nan,nan,nan,2847.9512933,3270.21348009,nan,3270.51752587,nan,nan,nan,nan
1,367,1,1,1.0,1.0,0.26625540579,0,0.0,0.0,0.0,0.334700012771,0.0750258742516,0.259674138519,0.409725887023,0.0750258742516,0.290721608132,103,1.0,-0.279537473278,-0.423758835275,nan,nan,nan,nan,nan,nan,nan,nan,2847.9512933,3271.15523834,nan,3271.42149375,nan,nan,nan,nan
1,368,1,1,1.0,1.0,0.276403692958,0,0.0,0.0,0.0,0.334513005648,0.0750084462317,0.259504559416,0.40952145188,0.0750084462317,0.28223495717,504,0.78128615449,0.244628286196,-1.0,nan,nan,nan,nan,nan,nan,nan,nan,2847.9512933,3272.09707243,nan,3272.37347612,nan,nan,nan,nan
1,369,1,1,1.0,1.0,0.278594942938,0,0.0,0.0,0.0,0.334354669646,0.0749674082802,0.259387261366,0.409322077926,0.0749674082802,0.273751347229,130,1.0,-0.309333154106,-0.136071487739,nan,nan,nan,nan,nan,nan,nan,nan,2847.9512933,3273.03885919,nan,3273.31745414,nan,nan,nan,nan
1,370,1,1,1.0,1.0,0.296768690285,0,0.0,0.0,0.0,0.33420314865,0.0749217329663,0.259281415683,0.409124881616,0.0749217329663,0.28392244206,286,0.169078956243,0.359734776014,0.594698705761,nan,nan,nan,nan,nan,nan,nan,nan,2847.9512933,3273.98065166,nan,3274.27742035,nan,nan,nan,nan
1,371,1,1,1.0,1.0,0.266952751321,0,0.0,0.0,0.0,0.334101700253,0.0748454497048,0.259256250548,0.408947149958,0.0748454497048,0.280772128181,505,0.789537956352,0.240683140511,-1.0,nan,nan,nan,nan,nan,nan,nan,nan,2847.9512933,3274.92244868,nan,3275.18940143,nan,nan,nan,nan
1,372,1,1,1.0,1.0,0.309146430343,0,0.0,0.0,0.0,0.333920216607,0.074825495184,0.259094721423,0.408745711791,0.074825495184,0.290955957316,354,-0.174470673547,0.472100788149,0.0988677247603,nan,nan,nan,nan,nan,nan,nan,nan,2847.9512933,3275.86423829,nan,3276.17338472,nan,nan,nan,nan
1,373,1,1,1.0,1.0,0.319310397725,0,0.0,0.0,0.0,0.333853440903,0.0747356227305,0.259117818173,0.408589063634,0.0747356227305,0.298469859796,192,1.0,-0.0635997558896,0.421658406928,nan,nan,nan,nan,nan,nan,nan,nan,2847.9512933,3276.80604273,nan,3277.12535313,nan,nan,nan,nan
1,374,1,1,1.0,1.0,0.305514873937,0,0.0,0.0,0.0,0.333814346701,0.0746389025464,0.259175444155,0.408453249247,0.0746389025464,0.311323900668,333,-0.149813480994,0.453275949072,0.294183738108,nan,nan,nan,nan,nan,nan,nan,nan,2847.9512933,3277.74782151,nan,3278.05333638,nan,nan,nan,nan
1,375,1,1,1.0,1.0,0.275691237359,0,0.0,0.0,0.0,0.333738476801,0.074553145676,0.259185331125,0.408291622477,0.074553145676,0.300172169673,284,0.188465149253,0.353984098999,0.602236276499,nan,nan,nan,nan,nan,nan,nan,nan,2847.9512933,3278.68961825,nan,3278.96530948,nan,nan,nan,nan
1,376,1,1,1.0,1.0,0.269887247239,0,0.0,0.0,0.0,0.333583270278,0.0745137257832,0.259069544495,0.408096996061,0.0745137257832,0.283697786178,187,1.0,-0.0912463489427,0.385383214542,nan,nan,nan,nan,nan,nan,nan,nan,2847.9512933,3279.63140672,nan,3279.90129397,nan,nan,nan,nan
