block,trial,freq_trials,correct_response,actual_response,acc,rts,probe_trials,fast_rt_trigger,slow_rt_trigger,rt_triggered,rts_runningavg,rts_runningstd,rts_runningfastthresh,rts_runningslowthresh,rts_runningstd,rts_trailingavg,trials_colorind,trials_colorrgb0,trials_colorrgb1,trials_colorrgb2,wm_respdeg,wm_respdeg_in_colorspace,wm_respcolorminusorigcolor,wm_resptexind,wm_resptexrgb0,wm_resptexrgb1,wm_resptexrgb2,wm_rts,time_blockstart,time_encarray_offset,time_encarray_onset,time_response,time_iti_offset,time_iti_onset,time_memprobe_offset,time_memprobe_onset
1,1,1,1,nan,nan,nan,0,nan,nan,nan,nan,nan,nan,nan,nan,nan,429,0.177531820842,0.442080780324,-0.901885199234,nan,nan,nan,nan,nan,nan,nan,nan,218.572836255,219.614400726,nan,nan,nan,nan,nan,nan
1,2,1,1,1.0,1.0,0.040611679724,0,nan,nan,nan,nan,nan,nan,nan,nan,nan,12,0.942476689623,0.159273951266,-1.0,nan,nan,nan,nan,nan,nan,nan,nan,218.572836255,220.556220844,nan,220.596832523,nan,nan,nan,nan
1,3,1,1,1.0,1.0,0.64279546024,0,nan,nan,nan,nan,nan,nan,nan,nan,nan,304,0.0113092810281,0.404708921832,0.506160370659,nan,nan,nan,nan,nan,nan,nan,nan,218.572836255,221.497979665,nan,222.140775125,nan,nan,nan,nan
1,4,1,1,1.0,1.0,0.517018679762,1,nan,nan,nan,nan,nan,nan,nan,nan,nan,384,-0.0924750057551,0.477945316949,-0.222479273925,-148.702300158,238.702300158,-31.2976998419,339.0,-0.164955840019,0.45996923152,0.241423096872,2.08394716936,218.572836255,222.439755022,223.248202539,222.956773702,226.365337196,227.370846397,224.264962779,226.356916878
1,5,1,1,1.0,1.0,0.553093907598,0,nan,nan,nan,nan,nan,nan,nan,nan,nan,317,-0.077772836126,0.429938605076,0.420733606481,nan,nan,nan,nan,nan,nan,nan,nan,218.572836255,227.515515367,nan,228.068609275,nan,nan,nan,nan
1,6,1,1,1.0,1.0,0.483334554476,0,nan,nan,nan,nan,nan,nan,nan,nan,nan,233,0.728670395113,0.154909781369,0.626482233315,nan,nan,nan,nan,nan,nan,nan,nan,218.572836255,228.457258794,nan,228.940593348,nan,nan,nan,nan
1,7,1,1,1.0,1.0,0.413518182177,0,nan,nan,nan,nan,nan,nan,nan,nan,nan,286,0.169078956243,0.359734776014,0.594698705761,nan,nan,nan,nan,nan,nan,nan,nan,218.572836255,229.399053822,nan,229.812572005,nan,nan,nan,nan
1,8,1,1,1.0,1.0,0.695693934336,0,nan,nan,nan,nan,nan,nan,nan,nan,nan,133,1.0,-0.306259573676,-0.105336427414,nan,nan,nan,nan,nan,nan,nan,nan,218.572836255,230.340850847,nan,231.036544781,nan,nan,nan,nan
1,9,1,1,1.0,1.0,0.609875392984,0,nan,nan,nan,nan,nan,nan,nan,nan,nan,451,0.343830962376,0.403518361206,-1.0,nan,nan,nan,nan,nan,nan,nan,nan,218.572836255,231.282651863,nan,231.892527256,nan,nan,nan,nan
1,10,1,1,1.0,1.0,0.564055859519,1,nan,nan,nan,nan,nan,nan,nan,nan,nan,158,1.0,-0.235949227405,0.139764106,-37.7249950421,127.724995042,16.6312450421,182.0,1.0,-0.118523835432,0.347089474713,2.91735229944,218.572836255,232.224443756,233.032863333,232.788499615,236.983358075,237.994231932,234.049625854,236.975025281
1,11,1,1,1.0,1.0,0.66281634639,0,nan,nan,nan,nan,nan,nan,nan,nan,nan,383,-0.0968787136249,0.478131214543,-0.211081409456,nan,nan,nan,nan,nan,nan,nan,nan,218.572836255,238.13357958,nan,238.796395927,nan,nan,nan,nan
1,12,0,0,0.0,1.0,0.568999143899,0,nan,nan,nan,nan,nan,nan,nan,nan,nan,54,1.0,-0.0546292063271,-1.0,nan,nan,nan,nan,nan,nan,nan,nan,218.572836255,239.075376035,nan,239.644375179,nan,nan,nan,nan
1,13,1,1,1.0,1.0,0.523143688217,0,nan,nan,nan,nan,nan,nan,nan,nan,nan,260,0.438016636947,0.272781976488,0.654406567654,nan,nan,nan,nan,nan,nan,nan,nan,218.572836255,240.017223236,nan,240.540366925,nan,nan,nan,nan
1,14,0,0,0.0,1.0,0.501363472955,0,nan,nan,nan,nan,nan,nan,nan,nan,nan,360,-0.167709501072,0.475188317955,0.0381258551808,nan,nan,nan,nan,nan,nan,nan,nan,218.572836255,240.958967233,nan,241.460330706,nan,nan,nan,nan
1,15,1,1,1.0,1.0,0.455565606768,0,nan,nan,nan,nan,nan,nan,nan,nan,nan,126,1.0,-0.311411754845,-0.177408431044,nan,nan,nan,nan,nan,nan,nan,nan,218.572836255,241.900758271,nan,242.356323877,nan,nan,nan,nan
1,16,1,1,1.0,1.0,0.425744536042,0,nan,nan,nan,nan,nan,nan,nan,nan,nan,18,0.988682696815,0.131162580546,-1.0,nan,nan,nan,nan,nan,nan,nan,nan,218.572836255,242.842551589,nan,243.268296125,nan,nan,nan,nan
1,17,1,1,1.0,1.0,0.443898326717,0,nan,nan,nan,nan,nan,nan,nan,nan,nan,455,0.375608248681,0.394875365091,-1.0,nan,nan,nan,nan,nan,nan,nan,nan,218.572836255,243.784369996,nan,244.228268322,nan,nan,nan,nan
1,18,1,1,1.0,1.0,0.422107277729,0,nan,nan,nan,nan,nan,nan,nan,nan,nan,9,0.918933560847,0.172916688009,-1.0,nan,nan,nan,nan,nan,nan,nan,nan,218.572836255,244.726142787,nan,245.148250065,nan,nan,nan,nan
1,19,1,1,1.0,1.0,0.456257250335,0,nan,nan,nan,nan,nan,nan,nan,nan,nan,382,-0.1011887567,0.478291136399,-0.199732273247,nan,nan,nan,nan,nan,nan,nan,nan,218.572836255,245.667941237,nan,246.124198487,nan,nan,nan,nan
1,20,1,1,1.0,1.0,0.442464292399,0,nan,nan,nan,nan,nan,nan,nan,nan,nan,203,1.0,-0.00249325098487,0.493674673203,nan,nan,nan,nan,nan,nan,nan,nan,218.572836255,246.609734555,nan,247.052198848,nan,nan,nan,nan
1,21,1,1,1.0,1.0,0.484566170431,0,nan,nan,nan,nan,nan,nan,nan,nan,nan,501,0.7564492333,0.256253544744,-1.0,nan,nan,nan,nan,nan,nan,nan,nan,218.572836255,247.551611692,nan,248.036177862,nan,nan,nan,nan
1,22,0,0,0.0,1.0,0.526838821126,0,nan,nan,nan,nan,nan,nan,nan,nan,nan,151,1.0,-0.262720288689,0.0734626651272,nan,nan,nan,nan,nan,nan,nan,nan,218.572836255,248.493325468,nan,249.02016429,nan,nan,nan,nan
1,23,1,1,1.0,1.0,0.633006964577,0,nan,nan,nan,nan,nan,nan,nan,nan,nan,237,0.686387300223,0.174031846447,0.636349816437,nan,nan,nan,nan,nan,nan,nan,nan,218.572836255,249.435132186,nan,250.068139151,nan,nan,nan,nan
1,24,1,1,nan,nan,nan,0,nan,nan,nan,nan,nan,nan,nan,nan,nan,352,-0.17544712699,0.470851603012,0.118673592819,nan,nan,nan,nan,nan,nan,nan,nan,218.572836255,250.376917807,nan,nan,nan,nan,nan,nan
1,25,1,1,nan,nan,nan,0,nan,nan,nan,nan,nan,nan,nan,nan,nan,1,0.854939129564,0.207877072944,-1.0,nan,nan,nan,nan,nan,nan,nan,nan,218.572836255,251.318713121,nan,nan,nan,nan,nan,nan
1,26,1,1,1.0,1.0,0.0715360730537,0,nan,nan,nan,nan,nan,nan,nan,nan,nan,244,0.611372359265,0.206163547436,0.648880721676,nan,nan,nan,nan,nan,nan,nan,nan,218.572836255,252.26050815,nan,252.332044223,nan,nan,nan,nan
1,27,1,1,1.0,1.0,0.441756683402,0,nan,nan,nan,nan,nan,nan,nan,nan,nan,306,-0.00395437407881,0.408974006242,0.494128827808,nan,nan,nan,nan,nan,nan,nan,nan,218.572836255,253.202300613,nan,253.644057296,nan,nan,nan,nan
1,28,1,1,1.0,1.0,0.507881058962,0,nan,nan,nan,nan,nan,nan,nan,nan,nan,147,1.0,-0.275801134503,0.0346720467303,nan,nan,nan,nan,nan,nan,nan,nan,218.572836255,254.144156082,nan,254.652037141,nan,nan,nan,nan
1,29,1,1,1.0,1.0,0.541996534972,0,nan,nan,nan,nan,nan,nan,nan,nan,nan,459,0.407758158413,0.385709174134,-1.0,nan,nan,nan,nan,nan,nan,nan,nan,218.572836255,255.085998722,nan,255.627995257,nan,nan,nan,nan
1,30,1,1,1.0,1.0,0.552320441406,0,nan,nan,nan,nan,nan,nan,nan,nan,nan,159,1.0,-0.231765974528,0.149055008463,nan,nan,nan,nan,nan,nan,nan,nan,218.572836255,256.027650633,nan,256.579971074,nan,nan,nan,nan
1,31,1,1,1.0,1.0,0.52247000573,0,nan,nan,nan,nan,nan,nan,nan,nan,nan,259,0.44882283482,0.268906983076,0.655011783756,nan,nan,nan,nan,nan,nan,nan,nan,218.572836255,256.969482154,nan,257.49195216,nan,nan,nan,nan
1,32,1,1,1.0,1.0,0.604629621434,0,nan,nan,nan,nan,nan,nan,nan,nan,nan,196,1.0,-0.0413610816081,0.449130757868,nan,nan,nan,nan,nan,nan,nan,nan,218.572836255,257.911274047,nan,258.515903668,nan,nan,nan,nan
1,33,1,1,1.0,1.0,0.574839626206,0,nan,nan,nan,nan,nan,nan,nan,nan,nan,141,1.0,-0.291952736687,-0.024586852943,nan,nan,nan,nan,nan,nan,nan,nan,218.572836255,258.853070501,nan,259.427910127,nan,nan,nan,nan
1,34,1,1,1.0,1.0,0.569020240975,0,nan,nan,nan,nan,nan,nan,nan,nan,nan,85,1.0,-0.212156452387,-0.638781227021,nan,nan,nan,nan,nan,nan,nan,nan,218.572836255,259.794864105,nan,260.363884346,nan,nan,nan,nan
1,35,1,1,1.0,1.0,0.539220267383,0,nan,nan,nan,nan,nan,nan,nan,nan,nan,301,0.0351599448551,0.39804275895,0.523414514543,nan,nan,nan,nan,nan,nan,nan,nan,218.572836255,260.736640317,nan,261.275860585,nan,nan,nan,nan
1,36,1,1,1.0,1.0,0.445370848931,0,nan,nan,nan,nan,nan,nan,nan,nan,nan,246,0.589768841079,0.215019897151,0.651339528662,nan,nan,nan,nan,nan,nan,nan,nan,218.572836255,261.678457584,nan,262.123828432,nan,nan,nan,nan
1,37,1,1,1.0,1.0,0.471491370001,0,nan,nan,nan,nan,nan,nan,nan,nan,nan,347,-0.174938837379,0.46723881498,0.167157479366,nan,nan,nan,nan,nan,nan,nan,nan,218.572836255,262.620309917,nan,263.091801287,nan,nan,nan,nan
1,38,1,1,1.0,1.0,0.529732833384,0,nan,nan,nan,nan,nan,nan,nan,nan,nan,268,0.35230222188,0.302367520405,0.645005310408,nan,nan,nan,nan,nan,nan,nan,nan,218.572836255,263.562047071,nan,264.091779904,nan,nan,nan,nan
1,39,1,1,1.0,1.0,0.539917897957,0,nan,nan,nan,nan,nan,nan,nan,nan,nan,405,0.018463324075,0.468009379796,-0.476293327428,nan,nan,nan,nan,nan,nan,nan,nan,218.572836255,264.503846947,nan,265.043764845,nan,nan,nan,nan
1,40,1,1,1.0,1.0,0.462131089007,1,nan,nan,nan,nan,nan,nan,nan,nan,nan,196,1.0,-0.0413610816081,0.449130757868,-47.6116813779,137.611681378,-0.200818622102,196.0,1.0,-0.0413610816081,0.449130757868,2.0173352792,218.572836255,265.445639125,266.254053285,265.907770214,269.312805926,270.316713741,267.279158293,269.304433504
1,41,0,0,0.0,1.0,0.756956277939,0,nan,nan,nan,nan,nan,nan,nan,nan,nan,400,-0.0107874812989,0.471427301814,-0.412692688905,nan,nan,nan,nan,nan,nan,nan,nan,218.572836255,270.454667839,nan,271.211624117,nan,nan,nan,nan
1,42,1,1,1.0,1.0,0.695161659562,0,nan,nan,nan,nan,nan,nan,nan,nan,nan,78,1.0,-0.179467652321,-0.739907630878,nan,nan,nan,nan,nan,nan,nan,nan,218.572836255,271.3964412,nan,272.09160286,nan,nan,nan,nan
1,43,1,1,1.0,1.0,0.745268470899,0,nan,nan,nan,nan,nan,nan,nan,nan,nan,196,1.0,-0.0413610816081,0.449130757868,nan,nan,nan,nan,nan,nan,nan,nan,218.572836255,272.33831235,nan,273.083580821,nan,nan,nan,nan
1,44,1,1,1.0,1.0,0.699513369182,0,nan,nan,nan,nan,nan,nan,nan,nan,nan,264,0.394966959701,0.287889713878,0.650717615019,nan,nan,nan,nan,nan,nan,nan,nan,218.572836255,273.280041521,nan,273.979554891,nan,nan,nan,nan
1,45,1,1,1.0,1.0,0.669684885943,0,nan,nan,nan,nan,nan,nan,nan,nan,nan,366,-0.155593376329,0.477302029306,-0.0244766492797,nan,nan,nan,nan,nan,nan,nan,nan,218.572836255,274.221841682,nan,274.891526568,nan,nan,nan,nan
1,46,1,1,1.0,1.0,0.479901425075,0,nan,nan,nan,nan,nan,nan,nan,nan,nan,233,0.728670395113,0.154909781369,0.626482233315,nan,nan,nan,nan,nan,nan,nan,nan,218.572836255,275.163618465,nan,275.64351989,nan,nan,nan,nan
1,47,0,0,0.0,1.0,0.458079015603,0,nan,nan,nan,nan,nan,nan,nan,nan,nan,295,0.0860222946478,0.38372732295,0.554986075565,nan,nan,nan,nan,nan,nan,nan,nan,218.572836255,276.105420621,nan,276.563499637,nan,nan,nan,nan
1,48,1,1,1.0,1.0,0.388290867733,0,nan,nan,nan,nan,nan,nan,nan,nan,nan,348,-0.175384772129,0.468017843042,0.157582163916,nan,nan,nan,nan,nan,nan,nan,nan,218.572836255,277.047218216,nan,277.435509084,nan,nan,nan,nan
1,49,1,1,1.0,1.0,0.462501714122,0,nan,nan,nan,nan,nan,nan,nan,nan,nan,102,1.0,-0.276610342793,-0.434926949461,nan,nan,nan,nan,nan,nan,nan,nan,218.572836255,277.988979888,nan,278.451481603,nan,nan,nan,nan
1,50,0,0,0.0,1.0,0.48865102994,0,nan,nan,nan,nan,nan,nan,nan,nan,nan,482,0.597655625539,0.322480811492,-1.0,nan,nan,nan,nan,nan,nan,nan,nan,218.572836255,278.930806563,nan,279.419457593,nan,nan,nan,nan
1,51,1,1,1.0,1.0,0.426770027378,0,nan,nan,nan,nan,nan,nan,nan,nan,nan,128,1.0,-0.310663006781,-0.156689791083,nan,nan,nan,nan,nan,nan,nan,nan,218.572836255,279.872672296,nan,280.299442323,nan,nan,nan,nan
1,52,1,1,1.0,1.0,0.381020342465,0,nan,nan,nan,nan,nan,nan,nan,nan,nan,64,1.0,-0.108036866323,-1.0,nan,nan,nan,nan,nan,nan,nan,nan,218.572836255,280.814402038,nan,281.19542238,nan,nan,nan,nan
1,53,1,1,1.0,1.0,0.423176103679,0,nan,nan,nan,nan,nan,nan,nan,nan,nan,355,-0.173737462994,0.472683863687,0.0888799762457,nan,nan,nan,nan,nan,nan,nan,nan,218.572836255,281.756191935,nan,282.179368038,nan,nan,nan,nan
1,54,1,1,1.0,1.0,0.449372175208,0,nan,nan,nan,nan,nan,nan,nan,nan,nan,272,0.310166696092,0.316214117232,0.637281430288,nan,nan,nan,nan,nan,nan,nan,nan,218.572836255,282.697985538,nan,283.147357713,nan,nan,nan,nan
1,55,1,1,1.0,1.0,0.4755736636,0,nan,nan,nan,nan,nan,nan,nan,nan,nan,71,1.0,-0.144504067012,-0.877980773838,nan,nan,nan,nan,nan,nan,nan,nan,218.572836255,283.639782848,nan,284.115356511,nan,nan,nan,nan
1,56,1,1,1.0,1.0,0.469747721159,0,nan,nan,nan,nan,nan,nan,nan,nan,nan,436,0.228681708805,0.431413732101,-1.0,nan,nan,nan,nan,nan,nan,nan,nan,218.572836255,284.581578447,nan,285.051326168,nan,nan,nan,nan
1,57,1,1,1.0,1.0,0.4479367155,1,nan,nan,nan,nan,nan,nan,nan,nan,nan,380,-0.109519508899,0.478533032186,-0.177177385375,-163.465162143,253.465162143,-13.7223378573,360.0,-0.167709501072,0.475188317955,0.0381258551808,4.86775638064,218.572836255,285.523366919,286.331781934,285.971303634,292.2325556,293.232584965,287.348556714,292.224235635
1,58,0,0,0.0,1.0,0.64467310434,0,nan,nan,nan,nan,nan,nan,nan,nan,nan,194,1.0,-0.0524864644427,0.435571704399,nan,nan,nan,nan,nan,nan,nan,nan,218.572836255,293.374438895,nan,294.019111999,nan,nan,nan,nan
1,59,1,1,1.0,1.0,0.590872300498,0,nan,nan,nan,nan,nan,nan,nan,nan,nan,406,0.0244967455079,0.467245700284,-0.489366101921,nan,nan,nan,nan,nan,nan,nan,nan,218.572836255,294.316235064,nan,294.907107365,nan,nan,nan,nan
1,60,1,1,1.0,1.0,0.569037916954,0,nan,nan,nan,nan,nan,nan,nan,nan,nan,450,0.335949728395,0.405598329481,-1.0,nan,nan,nan,nan,nan,nan,nan,nan,218.572836255,295.258032659,nan,295.827070576,nan,nan,nan,nan
1,61,1,1,1.0,1.0,0.539236517856,0,nan,nan,nan,nan,nan,nan,nan,nan,nan,499,0.739831889234,0.263827757734,-1.0,nan,nan,nan,nan,nan,nan,nan,nan,218.572836255,296.199824837,nan,296.739061355,nan,nan,nan,nan
1,62,1,1,1.0,1.0,0.55742138403,0,nan,nan,nan,nan,nan,nan,nan,nan,nan,161,1.0,-0.223158351501,0.167490545043,nan,nan,nan,nan,nan,nan,nan,nan,218.572836255,297.141619296,nan,297.69904068,nan,nan,nan,nan
1,63,1,1,1.0,1.0,0.479599793267,0,nan,nan,nan,nan,nan,nan,nan,nan,nan,205,1.0,0.00854800403903,0.505535240796,nan,nan,nan,nan,nan,nan,nan,nan,218.572836255,298.083412899,nan,298.563012692,nan,nan,nan,nan
1,64,1,1,1.0,1.0,0.505797860445,0,nan,nan,nan,nan,nan,nan,nan,nan,nan,408,0.036737934283,0.465637664749,-0.515938449969,nan,nan,nan,nan,nan,nan,nan,nan,218.572836255,299.025197379,nan,299.53099524,nan,nan,nan,nan
1,65,1,1,1.0,1.0,0.483956634533,0,nan,nan,nan,nan,nan,nan,nan,nan,nan,287,0.159501648714,0.36255249221,0.590751920292,nan,nan,nan,nan,nan,nan,nan,nan,218.572836255,299.967018352,nan,300.450974986,nan,nan,nan,nan
1,66,1,1,1.0,1.0,0.470146570879,0,nan,nan,nan,nan,nan,nan,nan,nan,nan,408,0.036737934283,0.465637664749,-0.515938449969,nan,nan,nan,nan,nan,nan,nan,nan,218.572836255,300.908798556,nan,301.378945127,nan,nan,nan,nan
1,67,1,1,1.0,1.0,0.48033961805,0,nan,nan,nan,nan,nan,nan,nan,nan,nan,149,1.0,-0.269478519393,0.0541436597792,nan,nan,nan,nan,nan,nan,nan,nan,218.572836255,301.850594155,nan,302.330933773,nan,nan,nan,nan
1,68,1,1,1.0,1.0,0.47452764539,0,nan,nan,nan,nan,nan,nan,nan,nan,nan,430,0.184725017221,0.440645728776,-0.941904167281,nan,nan,nan,nan,nan,nan,nan,nan,218.572836255,302.792386048,nan,303.266913693,nan,nan,nan,nan
1,69,1,1,1.0,1.0,0.564693049644,0,nan,nan,nan,nan,nan,nan,nan,nan,nan,176,1.0,-0.150429669724,0.298675466069,nan,nan,nan,nan,nan,nan,nan,nan,218.572836255,303.734191055,nan,304.298884105,nan,nan,nan,nan
1,70,0,0,0.0,1.0,0.582863946096,0,nan,nan,nan,nan,nan,nan,nan,nan,nan,227,0.791019951953,0.125257787881,0.608066708266,nan,nan,nan,nan,nan,nan,nan,nan,218.572836255,304.675982093,nan,305.258846039,nan,nan,nan,nan
1,71,1,1,1.0,1.0,0.529070269666,0,nan,nan,nan,nan,nan,nan,nan,nan,nan,102,1.0,-0.276610342793,-0.434926949461,nan,nan,nan,nan,nan,nan,nan,nan,218.572836255,305.617772845,nan,306.146843115,nan,nan,nan,nan
1,72,1,1,1.0,1.0,0.499238935474,0,nan,nan,nan,nan,nan,nan,nan,nan,nan,19,0.99625917486,0.126374530333,-1.0,nan,nan,nan,nan,nan,nan,nan,nan,218.572836255,306.55956987,nan,307.058808805,nan,nan,nan,nan
1,73,1,1,1.0,1.0,0.461348499695,0,nan,nan,nan,nan,nan,nan,nan,nan,nan,98,1.0,-0.263822910468,-0.480217789416,nan,nan,nan,nan,nan,nan,nan,nan,218.572836255,307.501448147,nan,307.962796646,nan,nan,nan,nan
1,74,1,1,1.0,1.0,0.47161909315,0,nan,nan,nan,nan,nan,nan,nan,nan,nan,20,1.0,0.121558187834,-1.0,nan,nan,nan,nan,nan,nan,nan,nan,218.572836255,308.443158502,nan,308.914777595,nan,nan,nan,nan
1,75,1,1,1.0,1.0,0.465799707919,0,nan,nan,nan,nan,nan,nan,nan,nan,nan,506,0.797774742377,0.236703125255,-1.0,nan,nan,nan,nan,nan,nan,nan,nan,218.572836255,309.384954956,nan,309.850754664,nan,nan,nan,nan
1,76,1,1,1.0,1.0,0.571982391353,0,nan,nan,nan,nan,nan,nan,nan,nan,nan,59,1.0,-0.0814409933332,-1.0,nan,nan,nan,nan,nan,nan,nan,nan,218.572836255,310.326747989,nan,310.898730381,nan,nan,nan,nan
1,77,1,1,1.0,1.0,0.526144611649,0,nan,nan,nan,nan,nan,nan,nan,nan,nan,402,0.000724920831492,0.470139955471,-0.437811562499,nan,nan,nan,nan,nan,nan,nan,nan,218.572836255,311.268550146,nan,311.794694757,nan,nan,nan,nan
1,78,1,1,1.0,1.0,0.456354753289,0,nan,nan,nan,nan,nan,nan,nan,nan,nan,230,0.760023132926,0.140224214653,0.61781109556,nan,nan,nan,nan,nan,nan,nan,nan,218.572836255,312.210329494,nan,312.666684248,nan,nan,nan,nan
1,79,1,1,1.0,1.0,0.386524126166,0,nan,nan,nan,nan,nan,nan,nan,nan,nan,67,1.0,-0.12380466598,-1.0,nan,nan,nan,nan,nan,nan,nan,nan,218.572836255,313.152128229,nan,313.538652356,nan,nan,nan,nan
1,80,1,1,1.0,1.0,0.516709920543,0,nan,nan,nan,nan,nan,nan,nan,nan,nan,377,-0.121259861678,0.478700828387,-0.143695900877,nan,nan,nan,nan,nan,nan,nan,nan,218.572836255,314.093925254,nan,314.610635175,nan,nan,nan,nan
1,81,1,1,1.0,1.0,0.446816572221,0,0.0,0.0,0.0,0.508917509832,0.110758601284,0.398158908548,0.619676111116,0.110758601284,0.450016872977,466,0.464789014893,0.368385601135,-1.0,nan,nan,nan,nan,nan,nan,nan,nan,218.572836255,315.03580068,nan,315.482617252,nan,nan,nan,nan
1,82,1,1,1.0,1.0,0.489075823338,0,0.0,0.0,0.0,0.508121343965,0.11026786158,0.397853482385,0.618389205545,0.11026786158,0.484200772034,116,1.0,-0.306446923025,-0.282515442494,nan,nan,nan,nan,nan,nan,nan,nan,218.572836255,315.977517022,nan,316.466592846,nan,nan,nan,nan
1,83,1,1,1.0,1.0,0.563272129802,0,0.0,0.0,0.0,0.507880261426,0.109588426899,0.398291834526,0.617468688325,0.109588426899,0.499721508454,240,0.654373017221,0.188015059697,0.642463954019,nan,nan,nan,nan,nan,nan,nan,nan,218.572836255,316.919316328,nan,317.482588458,nan,nan,nan,nan
1,84,1,1,1.0,1.0,0.56544741441,0,0.0,0.0,0.0,0.50857265978,0.109075097258,0.399497562522,0.617647757039,0.109075097258,0.539265122517,155,1.0,-0.2479831371,0.111611878621,nan,nan,nan,nan,nan,nan,nan,nan,218.572836255,317.861105084,nan,318.426552499,nan,nan,nan,nan
1,85,1,1,1.0,1.0,0.535625203338,0,0.0,0.0,0.0,0.509274817245,0.108581479336,0.400693337909,0.617856296581,0.108581479336,0.554781582517,30,1.0,0.071945658744,-1.0,nan,nan,nan,nan,nan,nan,nan,nan,218.572836255,318.802900684,nan,319.338525887,nan,nan,nan,nan
1,86,1,1,1.0,1.0,0.545815114456,0,0.0,0.0,0.0,0.509596163417,0.107956112655,0.401640050762,0.617552276072,0.107956112655,0.548962577401,215,0.910639861846,0.0628947364355,0.558695148714,nan,nan,nan,nan,nan,nan,nan,nan,218.572836255,319.744695998,nan,320.290511112,nan,nan,nan,nan
1,87,1,1,1.0,1.0,0.468009489123,0,0.0,0.0,0.0,0.510032536321,0.10737653783,0.402655998491,0.617409074151,0.10737653783,0.516483268972,78,1.0,-0.179467652321,-0.739907630878,nan,nan,nan,nan,nan,nan,nan,nan,218.572836255,320.686478482,nan,321.154487971,nan,nan,nan,nan
1,88,1,1,1.0,1.0,0.550183074549,0,0.0,0.0,0.0,0.50953226195,0.106832743452,0.402699518497,0.616365005402,0.106832743452,0.521335892709,241,0.64365311028,0.192605941253,0.644254782112,nan,nan,nan,nan,nan,nan,nan,nan,218.572836255,321.628286626,nan,322.1784697,nan,nan,nan,nan
1,89,1,1,1.0,1.0,0.512386720569,0,0.0,0.0,0.0,0.510010506804,0.106292869203,0.4037176376,0.616303376007,0.106292869203,0.510193094747,485,0.622774561467,0.312875618285,-1.0,nan,nan,nan,nan,nan,nan,nan,nan,218.572836255,322.5700674,nan,323.08245412,nan,nan,nan,nan
1,90,0,0,0.0,1.0,0.586543683719,0,0.0,0.0,0.0,0.510038137196,0.105673387468,0.404364749728,0.615711524665,0.105673387468,0.549704492946,391,-0.0591907973189,0.475916278612,-0.303718712187,nan,nan,nan,nan,nan,nan,nan,nan,218.572836255,323.511873262,nan,324.098416946,nan,nan,nan,nan
1,91,1,1,1.0,1.0,0.532731190964,0,0.0,0.0,0.0,0.510917511294,0.105380329038,0.405537182256,0.616297840332,0.105380329038,0.543887198418,472,0.51429864939,0.352212277195,-1.0,nan,nan,nan,nan,nan,nan,nan,nan,218.572836255,324.453671997,nan,324.986403188,nan,nan,nan,nan
1,92,1,1,1.0,1.0,0.54290969827,0,0.0,0.0,0.0,0.511165394018,0.104805372947,0.406360021071,0.615970766965,0.104805372947,0.554061524318,380,-0.109519508899,0.478533032186,-0.177177385375,nan,nan,nan,nan,nan,nan,nan,nan,218.572836255,325.395459899,nan,325.938369597,nan,nan,nan,nan
1,93,1,1,1.0,1.0,0.529142113926,0,0.0,0.0,0.0,0.511522071594,0.10426861399,0.407253457604,0.615790685584,0.10426861399,0.53492766772,115,1.0,-0.305166285737,-0.293172749504,nan,nan,nan,nan,nan,nan,nan,nan,218.572836255,326.337217295,nan,326.866359409,nan,nan,nan,nan
1,94,1,1,1.0,1.0,0.571286756429,0,0.0,0.0,0.0,0.511717849842,0.103704174357,0.408013675485,0.615422024199,0.103704174357,0.547779522875,393,-0.0489456633786,0.475102171109,-0.327443230616,nan,nan,nan,nan,nan,nan,nan,nan,218.572836255,327.279053663,nan,327.850340419,nan,nan,nan,nan
1,95,1,1,1.0,1.0,0.477473260136,0,0.0,0.0,0.0,0.512372453211,0.103319598087,0.409052855124,0.615692051298,0.103319598087,0.525967376831,243,0.622151010882,0.20168048164,0.647463484622,nan,nan,nan,nan,nan,nan,nan,nan,218.572836255,328.220846981,nan,328.698320241,nan,nan,nan,nan
1,96,1,1,1.0,1.0,0.391649872123,0,0.0,0.0,0.0,0.511993114156,0.102820241821,0.409172872335,0.614813355977,0.102820241821,0.480136629563,138,1.0,-0.29832987918,-0.0546508148191,nan,nan,nan,nan,nan,nan,nan,nan,218.572836255,329.16264315,nan,329.554293022,nan,nan,nan,nan
1,97,1,1,1.0,1.0,0.441770938283,0,0.0,0.0,0.0,0.510699100801,0.103016386938,0.407682713863,0.613715487739,0.103016386938,0.436964690181,394,-0.0437090198531,0.474655926729,-0.339401417396,nan,nan,nan,nan,nan,nan,nan,nan,218.572836255,330.10451544,nan,330.546286379,nan,nan,nan,nan
1,98,1,1,1.0,1.0,0.428027016867,0,0.0,0.0,0.0,0.509965822476,0.102710681973,0.407255140503,0.612676504449,0.102710681973,0.420482609091,39,1.0,0.0253789930673,-1.0,nan,nan,nan,nan,nan,nan,nan,nan,218.572836255,331.046226366,nan,331.474253383,nan,nan,nan,nan
1,99,0,0,0.0,1.0,0.53421397676,0,0.0,0.0,0.0,0.509103308733,0.102510323409,0.406592985324,0.611613632141,0.102510323409,0.468003977304,483,0.606025706087,0.319314454546,-1.0,nan,nan,nan,nan,nan,nan,nan,nan,218.572836255,331.988027667,nan,332.522241644,nan,nan,nan,nan
1,100,1,1,1.0,1.0,0.496392819332,0,0.0,0.0,0.0,0.509364878191,0.102006882222,0.40735799597,0.611371760413,0.102006882222,0.486211270986,333,-0.149813480994,0.453275949072,0.294183738108,nan,nan,nan,nan,nan,nan,nan,nan,218.572836255,332.929816994,nan,333.426209813,nan,nan,nan,nan
1,101,1,1,1.0,1.0,0.450578702672,0,0.0,0.0,0.0,0.509231145626,0.101488170328,0.407742975298,0.610719315954,0.101488170328,0.493728499588,407,0.0305886347219,0.46645515455,-0.502577406972,nan,nan,nan,nan,nan,nan,nan,nan,218.572836255,333.871617725,nan,334.322196427,nan,nan,nan,nan
1,102,1,1,1.0,1.0,0.452762255096,0,0.0,0.0,0.0,0.50863265131,0.101140956974,0.407491694336,0.609773608284,0.101140956974,0.4665779257,167,1.0,-0.195605812978,0.221546716301,nan,nan,nan,nan,nan,nan,nan,nan,218.572836255,334.813409617,nan,335.266171873,nan,nan,nan,nan
1,103,1,1,1.0,1.0,0.502929791925,0,0.0,0.0,0.0,0.508068303873,0.100783812146,0.407284491728,0.608852116019,0.100783812146,0.468756916564,415,0.0813077335083,0.459153678902,-0.614968023274,nan,nan,nan,nan,nan,nan,nan,nan,218.572836255,335.755204646,nan,336.258134438,nan,nan,nan,nan
1,104,1,1,1.0,1.0,0.465124599927,0,0.0,0.0,0.0,0.508016918754,0.100279930322,0.407736988432,0.608296849075,0.100279930322,0.473605548982,88,1.0,-0.225257592204,-0.599932847766,nan,nan,nan,nan,nan,nan,nan,nan,218.572836255,336.697001101,nan,337.162125701,nan,nan,nan,nan
1,105,1,1,1.0,1.0,0.403221930028,0,0.0,0.0,0.0,0.50759224233,0.0998725910223,0.407719651308,0.607464833352,0.0998725910223,0.457092107293,3,0.871087178923,0.199335109687,-1.0,nan,nan,nan,nan,nan,nan,nan,nan,218.572836255,337.638876812,nan,338.042098742,nan,nan,nan,nan
1,106,1,1,1.0,1.0,0.365496565064,0,0.0,0.0,0.0,0.506569003974,0.0999124295282,0.406656574446,0.606481433502,0.0999124295282,0.411281031673,346,-0.174317561957,0.466431294057,0.176670174816,nan,nan,nan,nan,nan,nan,nan,nan,218.572836255,338.580586312,nan,338.946082877,nan,nan,nan,nan
1,107,1,1,1.0,1.0,0.335676064482,0,1.0,0.0,0.0,0.505199368645,0.100383853564,0.404815515081,0.605583222208,0.100383853564,0.368131519858,467,0.473005185182,0.365775667588,-1.0,nan,nan,nan,nan,nan,nan,nan,nan,218.572836255,339.522384762,nan,339.858060826,nan,nan,nan,nan
1,108,1,1,1.0,1.0,0.297864600376,1,0.0,0.0,1.0,0.503569336874,0.101260535163,0.402308801711,0.604829872037,0.101260535163,0.333012409974,317,-0.077772836126,0.429938605076,0.420733606481,169.06315105,280.93684895,58.0462239502,400.0,-0.0107874812989,0.471427301814,-0.412692688905,3.55909832031,218.572836255,340.464174659,341.272592526,340.762039259,345.873178627,346.879800273,342.297720342,345.864841271
1,109,0,0,0.0,1.0,0.578443528269,0,0.0,0.0,0.0,0.501610244145,0.102738494944,0.398871749202,0.604348739089,0.102738494944,0.403994731042,388,-0.0739633693698,0.476941921698,-0.268577162136,nan,nan,nan,nan,nan,nan,nan,nan,218.572836255,347.023406975,nan,347.601850503,nan,nan,nan,nan
1,110,1,1,1.0,1.0,0.540657152655,0,0.0,0.0,0.0,0.502335086448,0.102522132336,0.399812954113,0.604857218784,0.102522132336,0.472321760433,134,1.0,-0.304950998219,-0.095144111098,nan,nan,nan,nan,nan,nan,nan,nan,218.572836255,347.965218539,nan,348.505875692,nan,nan,nan,nan
1,111,1,1,1.0,1.0,0.542809914623,0,0.0,0.0,0.0,0.5026932366,0.102108534124,0.400584702476,0.604801770724,0.102108534124,0.553970198516,52,1.0,-0.0438860552364,-1.0,nan,nan,nan,nan,nan,nan,nan,nan,218.572836255,348.906991045,nan,349.44980096,nan,nan,nan,nan
1,112,1,1,1.0,1.0,0.42502951459,0,0.0,0.0,0.0,0.503064687322,0.101707313813,0.401357373509,0.604772001135,0.101707313813,0.502832193956,385,-0.0879796604702,0.477733444059,-0.233926720364,nan,nan,nan,nan,nan,nan,nan,nan,218.572836255,349.848784649,nan,350.273814163,nan,nan,nan,nan
1,113,1,1,1.0,1.0,0.395194474142,0,0.0,0.0,0.0,0.502348768306,0.101512705902,0.400836062405,0.603861474208,0.101512705902,0.454344634452,161,1.0,-0.223158351501,0.167490545043,nan,nan,nan,nan,nan,nan,nan,nan,218.572836255,350.790567989,nan,351.185762463,nan,nan,nan,nan
1,114,1,1,1.0,1.0,0.381413775322,0,0.0,0.0,0.0,0.501374638359,0.101560732911,0.399813905448,0.602935371271,0.101560732911,0.400545921351,244,0.611372359265,0.206163547436,0.648880721676,nan,nan,nan,nan,nan,nan,nan,nan,218.572836255,351.732372711,nan,352.113786486,nan,nan,nan,nan
1,115,1,1,1.0,1.0,0.359568273008,0,1.0,0.0,0.0,0.500293909864,0.101735615455,0.398558294408,0.602029525319,0.101735615455,0.378725507491,128,1.0,-0.310663006781,-0.156689791083,nan,nan,nan,nan,nan,nan,nan,nan,218.572836255,352.674190833,nan,353.033759106,nan,nan,nan,nan
1,116,1,1,1.0,1.0,0.401783049165,1,0.0,0.0,1.0,0.499037430963,0.10214187967,0.396895551293,0.601179310634,0.10214187967,0.380921699165,508,0.814199817736,0.228638933499,-1.0,103.899987412,346.100012588,-11.087487412,492.0,0.681403316433,0.289222019555,-1.0,4.11752466869,218.572836255,353.615959633,354.424376074,354.017742682,359.575032636,360.57633011,355.441145152,359.566700127
1,117,1,1,1.0,1.0,0.460641175858,0,0.0,0.0,0.0,0.498176772717,0.102096025997,0.396080746721,0.600272798714,0.102096025997,0.407330832677,326,-0.12383419111,0.444071765824,0.352223541474,nan,nan,nan,nan,nan,nan,nan,nan,218.572836255,360.716921918,nan,361.177563094,nan,nan,nan,nan
1,118,0,0,0.0,1.0,0.486783364147,0,0.0,0.0,0.0,0.497847513096,0.10170749232,0.396140020776,0.599555005416,0.10170749232,0.449735863057,110,1.0,-0.296722754836,-0.346921960777,nan,nan,nan,nan,nan,nan,nan,nan,218.572836255,361.658733197,nan,362.145516562,nan,nan,nan,nan
1,119,1,1,1.0,1.0,0.601033702085,0,0.0,0.0,0.0,0.497751303105,0.101269530429,0.396481772676,0.599020833534,0.101269530429,0.516152747363,79,1.0,-0.184296021705,-0.724170777997,nan,nan,nan,nan,nan,nan,nan,nan,218.572836255,362.600484892,nan,363.201518594,nan,nan,nan,nan
1,120,1,1,1.0,1.0,0.539195749094,0,0.0,0.0,0.0,0.498641668613,0.101283140216,0.397358528397,0.59992480883,0.101283140216,0.542337605109,506,0.797774742377,0.236703125255,-1.0,nan,nan,nan,nan,nan,nan,nan,nan,218.572836255,363.542305294,nan,364.081501043,nan,nan,nan,nan
1,121,1,1,1.0,1.0,0.413398726785,0,0.0,0.0,0.0,0.498988284686,0.10091844968,0.398069835006,0.599906734365,0.10091844968,0.517876059321,406,0.0244967455079,0.467245700284,-0.489366101921,nan,nan,nan,nan,nan,nan,nan,nan,218.572836255,364.484083502,nan,364.897482229,nan,nan,nan,nan
1,122,0,0,0.0,1.0,0.5115645029,0,0.0,0.0,0.0,0.498262949449,0.100795728535,0.397467220914,0.599058677984,0.100795728535,0.488052992926,455,0.375608248681,0.394875365091,-1.0,nan,nan,nan,nan,nan,nan,nan,nan,218.572836255,365.425891646,nan,365.937456149,nan,nan,nan,nan
1,123,1,1,1.0,1.0,0.481737445109,0,0.0,0.0,0.0,0.498374727209,0.100378667661,0.397996059549,0.59875339487,0.100378667661,0.468900224931,84,1.0,-0.20765784414,-0.652191087791,nan,nan,nan,nan,nan,nan,nan,nan,218.572836255,366.367694087,nan,366.849431532,nan,nan,nan,nan
1,124,1,1,1.0,1.0,0.419922299858,0,0.0,0.0,0.0,0.498236083192,0.0999709893808,0.398265093811,0.598207072573,0.0999709893808,0.471074749289,133,1.0,-0.306259573676,-0.105336427414,nan,nan,nan,nan,nan,nan,nan,nan,218.572836255,367.309478853,nan,367.729401152,nan,nan,nan,nan
1,125,1,1,1.0,1.0,0.414105195436,0,0.0,0.0,0.0,0.497588861842,0.0998091653669,0.397779696475,0.597398027209,0.0998091653669,0.438588313467,253,0.513865899396,0.244839928328,0.655977188727,nan,nan,nan,nan,nan,nan,nan,nan,218.572836255,368.251277873,nan,368.665383068,nan,nan,nan,nan
1,126,1,1,1.0,1.0,0.352302594343,0,1.0,0.0,0.0,0.496904569494,0.0996838693136,0.397220700181,0.596588438808,0.0996838693136,0.395443363212,437,0.23613482661,0.429770237144,-1.0,nan,nan,nan,nan,nan,nan,nan,nan,218.572836255,369.19308345,nan,369.545386045,nan,nan,nan,nan
1,127,1,1,1.0,1.0,0.354490423226,1,0.0,0.0,1.0,0.49572894368,0.100123433462,0.394074085119,0.595105761589,0.100123433462,0.373632737668,316,-0.0718215561597,0.428203514031,0.427892255365,-125.601767004,215.601767004,-6.58573299593,307.0,-0.0113868739462,0.411053355611,0.487957006857,2.90065905708,218.572836255,370.134867645,370.943280951,370.489358069,374.885444894,375.895208872,371.968408196,374.8771121
1,128,1,1,nan,nan,nan,0,0.0,0.0,0.0,0.494589923354,0.100515838235,0.394074085119,0.595105761589,0.100515838235,0.353396508784,51,1.0,-0.0385160204876,-1.0,nan,nan,nan,nan,nan,nan,nan,nan,218.572836255,376.035662123,nan,nan,nan,nan,nan,nan
1,129,1,1,1.0,1.0,0.471744820592,0,0.0,0.0,0.0,0.494589923354,0.100515838235,0.394074085119,0.595105761589,0.100515838235,0.413117621909,99,1.0,-0.267176270739,-0.468793303331,nan,nan,nan,nan,nan,nan,nan,nan,218.572836255,376.97745031,nan,377.44919513,nan,nan,nan,nan
1,130,1,1,1.0,1.0,0.38594652107,0,0.0,0.0,0.0,0.494407162532,0.10013365096,0.394273511572,0.594540813491,0.10013365096,0.428845670831,195,1.0,-0.0469245268387,0.442396054288,nan,nan,nan,nan,nan,nan,nan,nan,218.572836255,377.919216829,nan,378.30516335,nan,nan,nan,nan
1,131,1,1,1.0,1.0,0.316063721257,0,1.0,0.0,0.0,0.49354636379,0.100198764953,0.393347598837,0.593745128743,0.100198764953,0.39125168764,303,0.0191349273956,0.402522842081,0.512018356663,nan,nan,nan,nan,nan,nan,nan,nan,218.572836255,378.861051486,nan,379.177115208,nan,nan,nan,nan
1,132,1,1,1.0,1.0,0.39028283552,1,0.0,0.0,1.0,0.492148862668,0.101028798848,0.39112006382,0.593177661516,0.101028798848,0.364097692616,98,1.0,-0.263822910468,-0.480217789416,18.3485299148,71.6514700852,2.74522008517,102.0,1.0,-0.276610342793,-0.434926949461,5.58438578999,218.572836255,379.80284566,380.611263527,380.193128495,387.237113149,388.234472873,381.636366539,387.228784632
1,133,1,1,1.0,1.0,0.62192527228,0,0.0,0.0,0.0,0.491353034331,0.101032232272,0.390320802059,0.592385266602,0.101032232272,0.442757276352,252,0.524721685615,0.240693665738,0.655694012224,nan,nan,nan,nan,nan,nan,nan,nan,218.572836255,388.378999865,nan,389.000925137,nan,nan,nan,nan
1,134,1,1,1.0,1.0,0.528116052446,0,0.0,0.0,0.0,0.492365222222,0.101289303838,0.391075918384,0.59365452606,0.101289303838,0.513441386749,374,-0.132039125116,0.478634076427,-0.110628443238,nan,nan,nan,nan,nan,nan,nan,nan,218.572836255,389.32079803,nan,389.848914083,nan,nan,nan,nan
1,135,1,1,1.0,1.0,0.338266734383,0,0.0,0.0,0.0,0.492640228608,0.100947311712,0.391692916896,0.59358754032,0.100947311712,0.49610268637,85,1.0,-0.212156452387,-0.638781227021,nan,nan,nan,nan,nan,nan,nan,nan,218.572836255,390.262592204,nan,390.600858938,nan,nan,nan,nan
1,136,1,1,1.0,1.0,0.308462199231,0,0.0,0.0,0.0,0.491461804988,0.101454913266,0.390006891722,0.592916718254,0.101454913266,0.391614995354,139,1.0,-0.296335611021,-0.0445992895203,nan,nan,nan,nan,nan,nan,nan,nan,218.572836255,391.204386377,nan,391.512848577,nan,nan,nan,nan
1,137,1,1,1.0,1.0,0.238661507203,0,1.0,0.0,0.0,0.490075444338,0.10230788267,0.387767561669,0.592383327008,0.10230788267,0.295130146939,504,0.78128615449,0.244628286196,-1.0,nan,nan,nan,nan,nan,nan,nan,nan,218.572836255,392.146179696,nan,392.384841203,nan,nan,nan,nan
1,138,0,0,1.0,0.0,0.328845442797,0,0.0,0.0,0.0,0.488185113984,0.104210778649,0.383974335335,0.592395892633,0.104210778649,0.29198971641,289,0.140592130943,0.368073254824,0.582505265782,nan,nan,nan,nan,nan,nan,nan,nan,218.572836255,393.087967597,nan,393.41681304,nan,nan,nan,nan
1,139,1,1,1.0,1.0,0.243040300906,0,0.0,0.0,0.0,0.48699601196,0.104722966059,0.382273045901,0.59171897802,0.104722966059,0.270182416968,219,0.871627318206,0.0840881726889,0.576959667802,nan,nan,nan,nan,nan,nan,nan,nan,218.572836255,394.029766617,nan,394.272806918,nan,nan,nan,nan
1,140,1,1,1.0,1.0,0.429199332721,0,0.0,0.0,0.0,0.485188932619,0.106410737788,0.378778194831,0.591599670407,0.106410737788,0.333695025474,110,1.0,-0.296722754836,-0.346921960777,nan,nan,nan,nan,nan,nan,nan,nan,218.572836255,394.971567348,nan,395.400766681,nan,nan,nan,nan
1,141,1,1,1.0,1.0,0.495386144379,0,0.0,0.0,0.0,0.484777244384,0.10612665421,0.378650590175,0.590903898594,0.10612665421,0.389208592668,476,0.547545041103,0.340739382997,-1.0,nan,nan,nan,nan,nan,nan,nan,nan,218.572836255,395.913355535,nan,396.408741679,nan,nan,nan,nan
1,142,1,1,1.0,1.0,0.433567007771,0,0.0,0.0,0.0,0.484854681611,0.105742477533,0.379112204077,0.590597159144,0.105742477533,0.452717494957,339,-0.164955840019,0.45996923152,0.241423096872,nan,nan,nan,nan,nan,nan,nan,nan,218.572836255,396.855158831,nan,397.288725839,nan,nan,nan,nan
1,143,0,0,0.0,1.0,0.475729611295,0,0.0,0.0,0.0,0.4844830318,0.105448420232,0.379034611568,0.589931452032,0.105448420232,0.468227587815,439,0.251144291643,0.426392204401,-1.0,nan,nan,nan,nan,nan,nan,nan,nan,218.572836255,397.796950724,nan,398.272680336,nan,nan,nan,nan
1,144,1,1,1.0,1.0,0.413938699174,0,0.0,0.0,0.0,0.484420057552,0.105071029027,0.379349028525,0.589491086579,0.105071029027,0.441078439413,491,0.673033477965,0.292707709811,-1.0,nan,nan,nan,nan,nan,nan,nan,nan,218.572836255,398.738743187,nan,399.152681886,nan,nan,nan,nan
1,145,0,0,0.0,1.0,0.504121209262,0,0.0,0.0,0.0,0.483916619278,0.104863216261,0.379053403017,0.588779835539,0.104863216261,0.464596506577,108,1.0,-0.292426609412,-0.368663285579,nan,nan,nan,nan,nan,nan,nan,nan,218.572836255,399.680539642,nan,400.184660851,nan,nan,nan,nan
1,146,1,1,1.0,1.0,0.386319426994,0,0.0,0.0,0.0,0.484059914242,0.104504453999,0.379555460243,0.588564368241,0.104504453999,0.43479311181,63,1.0,-0.102744642793,-1.0,nan,nan,nan,nan,nan,nan,nan,nan,218.572836255,400.622329824,nan,401.008649251,nan,nan,nan,nan
1,147,1,1,1.0,1.0,0.420501615503,0,0.0,0.0,0.0,0.483371600952,0.104456083988,0.378915516964,0.58782768494,0.104456083988,0.436980750586,471,0.506014005179,0.354993781952,-1.0,nan,nan,nan,nan,nan,nan,nan,nan,218.572836255,401.564126563,nan,401.984628179,nan,nan,nan,nan
1,148,1,1,1.0,1.0,0.374707740673,0,0.0,0.0,0.0,0.482931950704,0.104221973601,0.378709977103,0.587153924305,0.104221973601,0.393842927724,381,-0.105403061426,0.478425078289,-0.188431136224,nan,nan,nan,nan,nan,nan,nan,nan,218.572836255,402.505906482,nan,402.880614223,nan,nan,nan,nan
1,149,1,1,1.0,1.0,0.400855060725,0,0.0,0.0,0.0,0.48218039369,0.104247587625,0.377932806065,0.586427981315,0.104247587625,0.398688138967,89,1.0,-0.229484098413,-0.587370487375,nan,nan,nan,nan,nan,nan,nan,nan,218.572836255,403.447715481,nan,403.848570541,nan,nan,nan,nan
1,150,1,1,1.0,1.0,0.355054628686,0,1.0,0.0,0.0,0.481619529325,0.104105277252,0.377514252072,0.585724806577,0.104105277252,0.376872476695,344,-0.172543464245,0.464730234515,0.195503824632,nan,nan,nan,nan,nan,nan,nan,nan,218.572836255,404.389502812,nan,404.744557441,nan,nan,nan,nan
1,151,1,1,1.0,1.0,0.325229566661,1,0.0,0.0,1.0,0.480752646443,0.104271961523,0.376480684921,0.585024607966,0.104271961523,0.360379752024,6,0.895129075663,0.186272780825,-1.0,59.5781478373,30.4218521627,26.2031021627,43.0,1.0,0.00424534395127,-1.0,3.76747376472,218.572836255,405.331304968,406.139723976,405.656534535,410.940350161,411.945958575,407.156514721,410.932016227
1,152,1,1,1.0,1.0,0.517793001258,0,0.0,0.0,0.0,0.479694666309,0.104700044966,0.374994621343,0.584394711275,0.104700044966,0.399359065535,195,1.0,-0.0469245268387,0.442396054288,nan,nan,nan,nan,nan,nan,nan,nan,218.572836255,412.090555416,nan,412.608348417,nan,nan,nan,nan
1,153,1,1,1.0,1.0,0.408023521595,0,0.0,0.0,0.0,0.479952087491,0.104392395458,0.375559692033,0.584344482949,0.104392395458,0.417015363171,124,1.0,-0.311577186586,-0.198226518473,nan,nan,nan,nan,nan,nan,nan,nan,218.572836255,413.032307966,nan,413.440331487,nan,nan,nan,nan
1,154,1,1,1.0,1.0,0.378207297472,0,0.0,0.0,0.0,0.479469345438,0.104207114547,0.375262230891,0.583676459985,0.104207114547,0.434674606775,395,-0.0383984177995,0.474183508328,-0.351427224487,nan,nan,nan,nan,nan,nan,nan,nan,218.572836255,413.97413293,nan,414.352340227,nan,nan,nan,nan
1,155,1,1,1.0,1.0,0.324391383561,0,1.0,0.0,0.0,0.478794265118,0.104185569312,0.374608695806,0.582979834431,0.104185569312,0.370207400876,501,0.7564492333,0.256253544744,-1.0,nan,nan,nan,nan,nan,nan,nan,nan,218.572836255,414.915929669,nan,415.240321053,nan,nan,nan,nan
1,156,1,1,1.0,1.0,0.350566928217,1,0.0,0.0,1.0,0.477771729479,0.104592469792,0.373179259686,0.582364199271,0.104592469792,0.351055203083,170,1.0,-0.180990482069,0.247815061387,-24.3045492659,114.304549266,-5.22670073406,163.0,1.0,-0.214247802105,0.185723682048,1.10050613142,218.572836255,415.857725268,416.666148552,416.208292196,418.799768616,419.808187509,417.682917345,418.791393057
1,157,1,1,1.0,1.0,0.650215661095,0,0.0,0.0,0.0,0.476934855786,0.104753843744,0.372181012042,0.581688699531,0.104753843744,0.441724657624,457,0.391639248186,0.390358177281,-1.0,nan,nan,nan,nan,nan,nan,nan,nan,218.572836255,419.949943936,nan,420.600159597,nan,nan,nan,nan
1,158,1,1,1.0,1.0,0.508395942859,0,0.0,0.0,0.0,0.478067410069,0.105340465445,0.372726944624,0.583407875514,0.105340465445,0.503059510724,403,0.00657627305109,0.469456436931,-0.450524507496,nan,nan,nan,nan,nan,nan,nan,nan,218.572836255,420.891737539,nan,421.400133482,nan,nan,nan,nan
1,159,1,1,1.0,1.0,0.702576443553,0,0.0,1.0,0.0,0.478264348594,0.105026148168,0.373238200426,0.583290496762,0.105026148168,0.620396015836,312,-0.0464483572634,0.420925197877,0.455573212045,nan,nan,nan,nan,nan,nan,nan,nan,218.572836255,421.833531998,nan,422.536108441,nan,nan,nan,nan
1,160,0,0,0.0,1.0,0.568787887518,1,0.0,0.0,1.0,0.4797115234,0.106216062031,0.373495461369,0.585927585431,0.106216062031,0.593253424643,405,0.018463324075,0.468009379796,-0.476293327428,159.044223269,290.955776731,6.19015173063,414.0,0.0747837862165,0.460162189034,-0.600089175003,1.70889731316,218.572836255,422.775331018,423.583743468,423.344118906,426.325764977,427.327215547,424.600522524,426.317449289
1,161,1,1,1.0,1.0,0.56442334858,0,0.0,0.0,0.0,0.480282525734,0.106113472465,0.374169053269,0.586395998199,0.106113472465,0.61192922655,292,0.112881669716,0.376069582356,0.569261850688,nan,nan,nan,nan,nan,nan,nan,nan,218.572836255,427.467631166,nan,428.032054515,nan,nan,nan,nan
1,162,1,1,0.0,0.0,0.566568698094,0,0.0,0.0,0.0,0.480818454542,0.105986579928,0.374831874614,0.58680503447,0.105986579928,0.566593311397,158,1.0,-0.235949227405,0.139764106,nan,nan,nan,nan,nan,nan,nan,nan,218.572836255,428.409427336,nan,428.975996034,nan,nan,nan,nan
1,163,1,1,1.0,1.0,0.344737564621,0,0.0,0.0,0.0,0.481361177603,0.105869274545,0.375491903058,0.587230452147,0.105869274545,0.491909870432,73,1.0,-0.1546788618,-0.830916872461,nan,nan,nan,nan,nan,nan,nan,nan,218.572836255,429.351216948,nan,429.695954512,nan,nan,nan,nan
1,164,1,1,1.0,1.0,0.30695632071,0,0.0,0.0,0.0,0.480501909596,0.106087081104,0.374414828493,0.5865889907,0.106087081104,0.406087527808,278,0.248285521772,0.335802812283,0.621962573991,nan,nan,nan,nan,nan,nan,nan,nan,218.572836255,430.293005134,nan,430.599961455,nan,nan,nan,nan
1,165,1,1,1.0,1.0,0.541155785962,0,0.0,0.0,0.0,0.479417249666,0.10663578108,0.372781468586,0.586053030745,0.10663578108,0.397616557098,101,1.0,-0.273572672894,-0.446152610616,nan,nan,nan,nan,nan,nan,nan,nan,218.572836255,431.234807861,nan,431.775963647,nan,nan,nan,nan
1,166,1,1,1.0,1.0,0.583292730909,0,0.0,0.0,0.0,0.479800718835,0.106414703284,0.373386015552,0.586215422119,0.106414703284,0.477134945861,304,0.0113092810281,0.404708921832,0.506160370659,nan,nan,nan,nan,nan,nan,nan,nan,218.572836255,432.176598328,nan,432.759891059,nan,nan,nan,nan
1,167,1,1,1.0,1.0,0.449484503188,0,0.0,0.0,0.0,0.480439558416,0.106394990334,0.374044568082,0.58683454875,0.106394990334,0.52464434002,203,1.0,-0.00249325098487,0.493674673203,nan,nan,nan,nan,nan,nan,nan,nan,218.572836255,433.118391361,nan,433.567875865,nan,nan,nan,nan
1,168,1,1,1.0,1.0,0.315563092241,0,0.0,0.0,0.0,0.480249650102,0.106095661189,0.374153988913,0.586345311291,0.106095661189,0.449446775446,411,0.0555201669072,0.463022710015,-0.557054760163,nan,nan,nan,nan,nan,nan,nan,nan,218.572836255,434.060282468,nan,434.37584556,nan,nan,nan,nan
1,169,1,1,1.0,1.0,0.341870921548,0,1.0,0.0,0.0,0.479245463773,0.106545863422,0.372699600352,0.585791327195,0.106545863422,0.368972838992,246,0.589768841079,0.215019897151,0.651339528662,nan,nan,nan,nan,nan,nan,nan,nan,218.572836255,435.001981134,nan,435.343852056,nan,nan,nan,nan
1,170,1,1,1.0,1.0,0.264037926914,1,0.0,0.0,1.0,0.47841289079,0.106756274006,0.371656616785,0.585169164796,0.106756274006,0.307157313568,385,-0.0879796604702,0.477733444059,-0.233926720364,-160.463345062,250.463345062,-20.2397799381,356.0,-0.17284377641,0.473239407326,0.0788368070227,1.7839845455,218.572836255,435.943765899,436.752190038,436.207803826,439.577568853,440.586945384,437.777304169,439.569237484
1,171,1,1,1.0,1.0,0.479924802959,0,0.0,0.0,0.0,0.477121475345,0.107719196937,0.369402278408,0.584840672282,0.107719196937,0.361944550474,456,0.383612429175,0.392633185378,-1.0,nan,nan,nan,nan,nan,nan,nan,nan,218.572836255,440.727755007,nan,441.207679809,nan,nan,nan,nan
1,172,1,1,1.0,1.0,0.458105244441,0,0.0,0.0,0.0,0.477138261738,0.10739641789,0.369741843848,0.584534679628,0.10739641789,0.400689324772,111,1.0,-0.298677811705,-0.336106236365,nan,nan,nan,nan,nan,nan,nan,nan,218.572836255,441.669552886,nan,442.127658131,nan,nan,nan,nan
1,173,1,1,1.0,1.0,0.460322153114,0,0.0,0.0,0.0,0.477024969968,0.107086317141,0.369938652827,0.58411128711,0.107086317141,0.466117400172,295,0.0860222946478,0.38372732295,0.554986075565,nan,nan,nan,nan,nan,nan,nan,nan,218.572836255,442.611343069,nan,443.071665222,nan,nan,nan,nan
1,174,1,1,1.0,1.0,0.382481460925,0,0.0,0.0,0.0,0.476926136733,0.106776708308,0.370149428424,0.583702845041,0.106776708308,0.43363628616,395,-0.0383984177995,0.474183508328,-0.351427224487,nan,nan,nan,nan,nan,nan,nan,nan,218.572836255,443.553131825,nan,443.935613286,nan,nan,nan,nan
1,175,1,1,1.0,1.0,0.360674446507,0,0.0,0.0,0.0,0.476370579816,0.106706887872,0.369663691944,0.583077467688,0.106706887872,0.401159353515,283,0.19826868328,0.351050922538,0.605825948857,nan,nan,nan,nan,nan,nan,nan,nan,218.572836255,444.494935122,nan,444.855609569,nan,nan,nan,nan
1,176,1,1,1.0,1.0,0.498902236752,0,0.0,0.0,0.0,0.475693994241,0.106759512859,0.368934481382,0.582453507101,0.106759512859,0.414019381395,173,1.0,-0.165909522591,0.273535192888,nan,nan,nan,nan,nan,nan,nan,nan,218.572836255,445.436709624,nan,445.935611861,nan,nan,nan,nan
1,177,1,1,1.0,1.0,0.325063070457,0,0.0,0.0,0.0,0.475828925884,0.106463335598,0.369365590285,0.582292261482,0.106463335598,0.394879917905,342,-0.170052622031,0.462913557708,0.21407524247,nan,nan,nan,nan,nan,nan,nan,nan,218.572836255,446.378519193,nan,446.703582263,nan,nan,nan,nan
1,178,1,1,1.0,1.0,0.311248445127,0,0.0,0.0,0.0,0.474957446951,0.106768696785,0.368188750165,0.581726143736,0.106768696785,0.378404584112,460,0.415848916989,0.383334931935,-1.0,nan,nan,nan,nan,nan,nan,nan,nan,218.572836255,447.320294265,nan,447.63154271,nan,nan,nan,nan
1,179,1,1,1.0,1.0,0.433436718769,0,1.0,0.0,0.0,0.474016590618,0.107178269122,0.366838321497,0.58119485974,0.107178269122,0.356582744784,294,0.0948761993654,0.381212130724,0.559858230992,nan,nan,nan,nan,nan,nan,nan,nan,218.572836255,448.26210811,nan,448.695544829,nan,nan,nan,nan
1,180,1,1,1.0,1.0,0.595597201143,1,0.0,0.0,1.0,0.473784705636,0.1069153704,0.366869335236,0.580700076036,0.1069153704,0.446760788346,504,0.78128615449,0.244628286196,-1.0,85.0062560142,4.99374398582,10.6187439858,7.0,0.9030914636,0.181853060355,-1.0,1.30046752939,218.572836255,449.203903994,450.012310172,449.799501196,452.354267478,453.36302478,451.037448537,452.345932688
1,181,1,1,1.0,1.0,0.646905123082,0,0.0,0.0,0.0,0.474476822088,0.107003633394,0.367473188694,0.581480455482,0.107003633394,0.558646347665,388,-0.0739633693698,0.476941921698,-0.268577162136,nan,nan,nan,nan,nan,nan,nan,nan,218.572836255,453.504477865,nan,454.151382988,nan,nan,nan,nan
1,182,1,1,1.0,1.0,0.33708729106,0,0.0,0.0,0.0,0.47545099328,0.107480766767,0.367970226513,0.582931760047,0.107480766767,0.526529871762,509,0.822386376617,0.224555004187,-1.0,nan,nan,nan,nan,nan,nan,nan,nan,218.572836255,454.446276315,nan,454.783363606,nan,nan,nan,nan
1,183,1,1,1.0,1.0,0.283321554074,0,0.0,0.0,0.0,0.47467366911,0.107676204048,0.366997465063,0.582349873158,0.107676204048,0.422437989405,366,-0.155593376329,0.477302029306,-0.0244766492797,nan,nan,nan,nan,nan,nan,nan,nan,218.572836255,455.388063931,nan,455.671385485,nan,nan,nan,nan
1,184,1,1,1.0,1.0,0.269492103776,0,1.0,0.0,0.0,0.473604662881,0.108318081943,0.365286580939,0.581922744824,0.108318081943,0.296633649637,32,1.0,0.061735800531,-1.0,nan,nan,nan,nan,nan,nan,nan,nan,218.572836255,456.32985782,nan,456.599349923,nan,nan,nan,nan
1,185,1,1,1.0,1.0,0.279646663053,1,0.0,0.0,1.0,0.472470704219,0.109077009298,0.363393694921,0.581547713517,0.109077009298,0.277486773635,224,0.821619416966,0.11002478857,0.597264883709,-55.8564133481,145.856413348,-11.6435866519,207.0,0.985653507947,0.0195431921708,0.51699622314,5.93445436994,218.572836255,457.271660546,458.080075277,457.551307209,465.055974378,466.061180236,459.105174013,465.047641869
1,186,1,1,1.0,1.0,0.536890745687,0,0.0,0.0,0.0,0.471405378025,0.10971028152,0.361695096505,0.581115659545,0.10971028152,0.362009837506,121,1.0,-0.310732805591,-0.229640808446,nan,nan,nan,nan,nan,nan,nan,nan,218.572836255,466.206196168,nan,466.743086914,nan,nan,nan,nan
1,187,1,1,1.0,1.0,0.395002319245,0,0.0,0.0,0.0,0.471765187738,0.109515500779,0.362249686958,0.581280688517,0.109515500779,0.403846575995,455,0.375608248681,0.394875365091,-1.0,nan,nan,nan,nan,nan,nan,nan,nan,218.572836255,467.148069599,nan,467.543071918,nan,nan,nan,nan
1,188,1,1,1.0,1.0,0.33326243941,0,0.0,0.0,0.0,0.471345718511,0.109362377326,0.361983341185,0.580708095837,0.109362377326,0.421718501447,352,-0.17544712699,0.470851603012,0.118673592819,nan,nan,nan,nan,nan,nan,nan,nan,218.572836255,468.089793639,nan,468.423056078,nan,nan,nan,nan
1,189,1,1,1.0,1.0,0.295460668509,0,1.0,0.0,0.0,0.470595265907,0.109536252663,0.361059013244,0.58013151857,0.109536252663,0.341241809054,508,0.814199817736,0.228638933499,-1.0,nan,nan,nan,nan,nan,nan,nan,nan,218.572836255,469.031572132,nan,469.327032801,nan,nan,nan,nan
1,190,1,1,1.0,1.0,0.233627277077,1,0.0,0.0,1.0,0.469648592408,0.109991975409,0.359656616999,0.579640567816,0.109991975409,0.287450128332,293,0.103830259013,0.378659598285,0.564617056734,-122.535067158,212.535067158,6.51944215794,302.0,0.027086081288,0.400300843718,0.517770016443,1.5921991386,218.572836255,469.973398807,470.781788449,470.207026084,473.407106082,474.406926471,471.798555816,473.398787828
1,191,0,0,0.0,1.0,0.625911488431,0,0.0,0.0,0.0,0.468379660605,0.111045374272,0.357334286333,0.579425034877,0.111045374272,0.384999811339,345,-0.173519535469,0.465595146217,0.186119282857,nan,nan,nan,nan,nan,nan,nan,nan,218.572836255,474.548993653,nan,475.174905141,nan,nan,nan,nan
1,192,1,1,1.0,1.0,0.500126440194,0,0.0,0.0,0.0,0.469222076796,0.111342405517,0.357879671279,0.580564482313,0.111342405517,0.453221735234,479,0.572572153349,0.331768222426,-1.0,nan,nan,nan,nan,nan,nan,nan,nan,218.572836255,475.490778133,nan,475.990904573,nan,nan,nan,nan
1,193,1,1,1.0,1.0,0.318353614595,0,0.0,0.0,0.0,0.469386461708,0.111068637641,0.358317824067,0.580455099349,0.111068637641,0.48146384774,249,0.557275547736,0.228026269286,0.654084877906,nan,nan,nan,nan,nan,nan,nan,nan,218.572836255,476.432544367,nan,476.750897982,nan,nan,nan,nan
1,194,0,0,0.0,1.0,0.464470018866,0,0.0,0.0,0.0,0.468587346115,0.111314982198,0.357272363917,0.579902328313,0.111314982198,0.427650024552,489,0.656284860842,0.299572439858,-1.0,nan,nan,nan,nan,nan,nan,nan,nan,218.572836255,477.374370187,nan,477.838840206,nan,nan,nan,nan
1,195,1,1,1.0,1.0,0.37869566743,0,0.0,0.0,0.0,0.468565675971,0.111022061289,0.357543614683,0.57958773726,0.111022061289,0.387173100297,40,1.0,0.0201165467467,-1.0,nan,nan,nan,nan,nan,nan,nan,nan,218.572836255,478.31616379,nan,478.694859457,nan,nan,nan,nan
1,196,1,1,1.0,1.0,0.332864444994,0,0.0,0.0,0.0,0.468095152366,0.110920823847,0.35717432852,0.579015976213,0.110920823847,0.392010043763,246,0.589768841079,0.215019897151,0.651339528662,nan,nan,nan,nan,nan,nan,nan,nan,218.572836255,479.257957679,nan,479.590822124,nan,nan,nan,nan
1,197,0,0,1.0,0.0,0.343032688834,0,0.0,0.0,0.0,0.467390825766,0.111058990231,0.356331835535,0.578449815996,0.111058990231,0.351530933753,187,1.0,-0.0912463489427,0.385383214542,nan,nan,nan,nan,nan,nan,nan,nan,218.572836255,480.199763256,nan,480.542795945,nan,nan,nan,nan
1,198,1,1,1.0,1.0,0.433238006604,0,0.0,0.0,0.0,0.466746483087,0.11113013155,0.355616351537,0.577876614637,0.11113013155,0.369711713477,64,1.0,-0.108036866323,-1.0,nan,nan,nan,nan,nan,nan,nan,nan,218.572836255,481.14154289,nan,481.574780896,nan,nan,nan,nan
1,199,1,1,1.0,1.0,0.459394164733,0,0.0,0.0,0.0,0.466573758982,0.110869313682,0.355704445299,0.577443072664,0.110869313682,0.411888286724,483,0.606025706087,0.319314454546,-1.0,nan,nan,nan,nan,nan,nan,nan,nan,218.572836255,482.08334134,nan,482.542735505,nan,nan,nan,nan
1,200,1,1,1.0,1.0,0.437568048947,0,0.0,0.0,0.0,0.466536940549,0.110585857055,0.355951083495,0.577122797604,0.110585857055,0.443400073428,132,1.0,-0.307426825298,-0.115555361894,nan,nan,nan,nan,nan,nan,nan,nan,218.572836255,483.0251415,nan,483.462709549,nan,nan,nan,nan
1,201,1,1,1.0,1.0,0.271805660159,0,0.0,0.0,0.0,0.466389140082,0.110322697173,0.356066442909,0.576711837255,0.110322697173,0.389589291279,481,0.589289488337,0.325611856148,-1.0,nan,nan,nan,nan,nan,nan,nan,nan,218.572836255,483.966919423,nan,484.238725084,nan,nan,nan,nan
1,202,0,0,0.0,1.0,0.609962347313,0,0.0,0.0,0.0,0.465401406681,0.110907782756,0.354493623926,0.576309189437,0.110907782756,0.439778685473,143,1.0,-0.287057525782,-0.00469998909502,nan,nan,nan,nan,nan,nan,nan,nan,218.572836255,484.908722435,nan,485.518684782,nan,nan,nan,nan
1,203,1,1,1.0,1.0,0.532132203691,0,0.0,0.0,0.0,0.466131512442,0.111100963435,0.355030549007,0.577232475878,0.111100963435,0.471300070387,427,0.163265173604,0.444863218481,-0.840208708629,nan,nan,nan,nan,nan,nan,nan,nan,218.572836255,485.850514613,nan,486.382646817,nan,nan,nan,nan
1,204,1,1,1.0,1.0,0.486333482258,0,0.0,0.0,0.0,0.466463174207,0.110919685926,0.355543488282,0.577382860133,0.110919685926,0.542809344421,376,-0.124962824795,0.478704673615,-0.132627625282,nan,nan,nan,nan,nan,nan,nan,nan,218.572836255,486.792301089,nan,487.278634571,nan,nan,nan,nan
1,205,1,1,1.0,1.0,0.480467626359,0,0.0,0.0,0.0,0.466562525748,0.110650915573,0.355911610174,0.577213441321,0.110650915573,0.499644437436,132,1.0,-0.307426825298,-0.115555361894,nan,nan,nan,nan,nan,nan,nan,nan,218.572836255,487.734113794,nan,488.21458142,nan,nan,nan,nan
1,206,0,0,1.0,0.0,0.242716716661,0,0.0,0.0,0.0,0.466631705353,0.110379657197,0.356252048155,0.57701136255,0.110379657197,0.403172608426,402,0.000724920831492,0.470139955471,-0.437811562499,nan,nan,nan,nan,nan,nan,nan,nan,218.572836255,488.675892572,nan,488.918609289,nan,nan,nan,nan
1,207,1,1,1.0,1.0,0.212897641584,0,0.0,0.0,0.0,0.46552321531,0.111221995651,0.354301219659,0.57674521096,0.111221995651,0.312027328201,102,1.0,-0.276610342793,-0.434926949461,nan,nan,nan,nan,nan,nan,nan,nan,218.572836255,489.617685035,nan,489.830582677,nan,nan,nan,nan
1,208,1,1,1.0,1.0,0.383072465484,0,0.0,0.0,0.0,0.464278754355,0.112348692464,0.351930061891,0.576627446819,0.112348692464,0.279562274576,383,-0.0968787136249,0.478131214543,-0.211081409456,nan,nan,nan,nan,nan,nan,nan,nan,218.572836255,490.559491468,nan,490.942563934,nan,nan,nan,nan
1,209,1,1,1.0,1.0,0.441268883704,0,1.0,0.0,0.0,0.463880684312,0.112216408602,0.35166427571,0.576097092914,0.112216408602,0.345746330257,12,0.942476689623,0.159273951266,-1.0,nan,nan,nan,nan,nan,nan,nan,nan,218.572836255,491.501272527,nan,491.942541411,nan,nan,nan,nan
1,210,1,1,1.0,1.0,0.515440101677,1,0.0,0.0,1.0,0.463770382845,0.11195346073,0.351816922115,0.575723843576,0.11195346073,0.446593816955,442,0.273907262724,0.421095538958,-1.0,148.392497754,301.607502246,-9.17374775375,429.0,0.177531820842,0.442080780324,-0.901885199234,2.70898084634,218.572836255,492.443067841,493.251487419,492.958507943,496.993656038,497.993629809,494.268256497,496.985330656
1,211,1,1,1.0,1.0,0.638854859513,0,0.0,0.0,0.0,0.464021206723,0.111739124068,0.352282082655,0.575760330792,0.111739124068,0.531854614965,505,0.789537956352,0.240683140511,-1.0,nan,nan,nan,nan,nan,nan,nan,nan,218.572836255,498.135504836,nan,498.774359695,nan,nan,nan,nan
1,212,1,1,1.0,1.0,0.369066255516,0,0.0,0.0,0.0,0.464865813742,0.112126121643,0.352739692099,0.576991935384,0.112126121643,0.507787072236,167,1.0,-0.195605812978,0.221546716301,nan,nan,nan,nan,nan,nan,nan,nan,218.572836255,499.077307562,nan,499.446373818,nan,nan,nan,nan
1,213,1,1,1.0,1.0,0.595245107252,0,0.0,0.0,0.0,0.464405238942,0.112052373003,0.352352865939,0.576457611946,0.112052373003,0.53438874076,370,-0.144805996584,0.478178727438,-0.0671803333712,nan,nan,nan,nan,nan,nan,nan,nan,218.572836255,500.01908577,nan,500.614330878,nan,nan,nan,nan
1,214,1,1,1.0,1.0,0.309436088079,0,0.0,0.0,0.0,0.46503126702,0.112148011717,0.352883255303,0.577179278738,0.112148011717,0.424582483616,474,0.530901762182,0.346545376391,-1.0,nan,nan,nan,nan,nan,nan,nan,nan,218.572836255,500.960883365,nan,501.270319453,nan,nan,nan,nan
1,215,1,1,1.0,1.0,0.69561610301,0,0.0,0.0,0.0,0.464290337597,0.112392265237,0.35189807236,0.576682602834,0.112392265237,0.53343243278,342,-0.170052622031,0.462913557708,0.21407524247,nan,nan,nan,nan,nan,nan,nan,nan,218.572836255,501.902682385,nan,502.598298488,nan,nan,nan,nan
1,216,1,1,1.0,1.0,0.473807777278,0,0.0,0.0,0.0,0.465386668239,0.113245580354,0.352141087885,0.578632248592,0.113245580354,0.492953322789,81,1.0,-0.193804253699,-0.694219169772,nan,nan,nan,nan,nan,nan,nan,nan,218.572836255,502.844471997,nan,503.318279775,nan,nan,nan,nan
1,217,1,1,1.0,1.0,0.49999529589,0,0.0,0.0,0.0,0.465426390451,0.112979649417,0.352446741034,0.578406039868,0.112979649417,0.556473058726,504,0.78128615449,0.244628286196,-1.0,nan,nan,nan,nan,nan,nan,nan,nan,218.572836255,503.786259899,nan,504.286255195,nan,nan,nan,nan
1,218,1,1,1.0,1.0,0.694155839912,0,0.0,0.0,0.0,0.465588685782,0.112738895012,0.35284979077,0.578327580793,0.112738895012,0.55598630436,344,-0.172543464245,0.464730234515,0.195503824632,nan,nan,nan,nan,nan,nan,nan,nan,218.572836255,504.728065191,nan,505.422221031,nan,nan,nan,nan
1,219,1,1,1.0,1.0,0.69634651969,0,0.0,1.0,0.0,0.466656756595,0.113550212607,0.353106543989,0.580206969202,0.113550212607,0.630165885164,203,1.0,-0.00249325098487,0.493674673203,nan,nan,nan,nan,nan,nan,nan,nan,218.572836255,505.669861361,nan,506.36620788,nan,nan,nan,nan
1,220,1,1,1.0,1.0,0.786524468218,1,0.0,0.0,1.0,0.467725081075,0.114358743407,0.353366337668,0.582083824482,0.114358743407,0.725675609273,63,1.0,-0.102744642793,-1.0,69.3453956239,20.6546043761,-23.6422706239,29.0,1.0,0.0770173926463,-1.0,2.34228003467,218.572836255,506.611648692,507.420093358,507.39817316,510.803815843,511.814930891,508.445162158,510.795486185
1,221,1,1,1.0,1.0,0.612028440053,0,0.0,0.0,0.0,0.469201004164,0.116128038323,0.353072965841,0.585329042487,0.116128038323,0.69829980932,508,0.814199817736,0.228638933499,-1.0,nan,nan,nan,nan,nan,nan,nan,nan,218.572836255,511.954031361,nan,512.566059801,nan,nan,nan,nan
1,222,0,0,0.0,1.0,0.582180000085,0,0.0,0.0,0.0,0.469859195112,0.116263277151,0.353595917961,0.586122472264,0.116263277151,0.660244302785,175,1.0,-0.155629953633,0.290361762956,nan,nan,nan,nan,nan,nan,nan,nan,218.572836255,512.895861457,nan,513.478041457,nan,nan,nan,nan
1,223,1,1,1.0,1.0,0.432398683159,0,0.0,0.0,0.0,0.470374428163,0.116244355847,0.354130072316,0.58661878401,0.116244355847,0.542202374432,430,0.184725017221,0.440645728776,-0.941904167281,nan,nan,nan,nan,nan,nan,nan,nan,218.572836255,513.837621989,nan,514.270020672,nan,nan,nan,nan
1,224,1,1,1.0,1.0,0.386581145402,0,0.0,0.0,0.0,0.470201022934,0.116006910715,0.354194112219,0.58620793365,0.116006910715,0.467053276215,217,0.891250405156,0.0735373331823,0.568048345461,nan,nan,nan,nan,nan,nan,nan,nan,218.572836255,514.779417018,nan,515.165998163,nan,nan,nan,nan
1,225,1,1,1.0,1.0,0.412761251559,0,0.0,0.0,0.0,0.469820932582,0.115879554061,0.353941378521,0.585700486643,0.115879554061,0.41058036004,461,0.423959648591,0.380927367285,-1.0,nan,nan,nan,nan,nan,nan,nan,nan,218.572836255,515.721210051,nan,516.133971303,nan,nan,nan,nan
1,226,1,1,1.0,1.0,0.390953952097,0,0.0,0.0,0.0,0.46956274398,0.115680491203,0.353882252777,0.585243235183,0.115680491203,0.396765449686,323,-0.11001989341,0.43965344528,0.375855360355,nan,nan,nan,nan,nan,nan,nan,nan,218.572836255,516.663004225,nan,517.053958177,nan,nan,nan,nan
1,227,1,1,1.0,1.0,0.409154498542,0,0.0,0.0,0.0,0.469208650323,0.115539631148,0.353669019175,0.584748281471,0.115539631148,0.404289900733,64,1.0,-0.108036866323,-1.0,nan,nan,nan,nan,nan,nan,nan,nan,218.572836255,517.604796118,nan,518.013950616,nan,nan,nan,nan
1,228,1,1,1.0,1.0,0.46731214365,0,0.0,0.0,0.0,0.468939349194,0.115350091828,0.353589257366,0.584289441022,0.115350091828,0.42247353143,344,-0.172543464245,0.464730234515,0.195503824632,nan,nan,nan,nan,nan,nan,nan,nan,218.572836255,518.54660084,nan,519.013912983,nan,nan,nan,nan
1,229,1,1,1.0,1.0,0.501514573931,0,0.0,0.0,0.0,0.468932084883,0.115092377061,0.353839707823,0.584024461944,0.115092377061,0.459327072041,434,0.213881816697,0.43461034373,-1.0,nan,nan,nan,nan,nan,nan,nan,nan,218.572836255,519.488372206,nan,519.98988678,nan,nan,nan,nan
1,230,1,1,1.0,1.0,0.503655932145,0,0.0,0.0,0.0,0.469076895946,0.114856781892,0.354220114054,0.583933677838,0.114856781892,0.490827549909,94,1.0,-0.249439013202,-0.526745155233,nan,nan,nan,nan,nan,nan,nan,nan,218.572836255,520.430214846,nan,520.933870778,nan,nan,nan,nan
1,231,1,1,1.0,1.0,0.409878928156,0,0.0,0.0,0.0,0.469229900531,0.114625370884,0.354604529647,0.583855271415,0.114625370884,0.471683144744,491,0.673033477965,0.292707709811,-1.0,nan,nan,nan,nan,nan,nan,nan,nan,218.572836255,521.371974523,nan,521.781853451,nan,nan,nan,nan
1,232,1,1,1.0,1.0,0.476062318659,0,0.0,0.0,0.0,0.468968442503,0.114440133381,0.354528309122,0.583408575883,0.114440133381,0.463199059654,274,0.289344050657,0.322900892411,0.632670269059,nan,nan,nan,nan,nan,nan,nan,nan,218.572836255,522.313759003,nan,522.789821322,nan,nan,nan,nan
1,233,1,1,1.0,1.0,0.526234702091,0,0.0,0.0,0.0,0.468999555995,0.114189854595,0.3548097014,0.583189410589,0.114189854595,0.470725316302,78,1.0,-0.179467652321,-0.739907630878,nan,nan,nan,nan,nan,nan,nan,nan,218.572836255,523.255556883,nan,523.781791585,nan,nan,nan,nan
1,234,1,1,1.0,1.0,0.600428442645,0,0.0,0.0,0.0,0.46924949113,0.114002742178,0.355246748952,0.583252233309,0.114002742178,0.534241821132,159,1.0,-0.231765974528,0.149055008463,nan,nan,nan,nan,nan,nan,nan,nan,218.572836255,524.197351342,nan,524.797779784,nan,nan,nan,nan
1,235,1,1,1.0,1.0,0.498609157803,0,0.0,0.0,0.0,0.469819834398,0.114081593162,0.355738241236,0.58390142756,0.114081593162,0.54175743418,354,-0.174470673547,0.472100788149,0.0988677247603,nan,nan,nan,nan,nan,nan,nan,nan,218.572836255,525.139147226,nan,525.637756384,nan,nan,nan,nan
1,236,1,1,1.0,1.0,0.564794543956,0,0.0,0.0,0.0,0.469944463504,0.113850085863,0.356094377641,0.583794549366,0.113850085863,0.554610714801,192,1.0,-0.0635997558896,0.421658406928,nan,nan,nan,nan,nan,nan,nan,nan,218.572836255,526.080937123,nan,526.645731667,nan,nan,nan,nan
1,237,1,1,1.0,1.0,0.639025917219,0,0.0,0.0,0.0,0.470353300057,0.113774263675,0.356579036382,0.584127563732,0.113774263675,0.567476539659,401,-0.00506340639596,0.470796889516,-0.425203102762,nan,nan,nan,nan,nan,nan,nan,nan,218.572836255,527.022689102,nan,527.661715019,nan,nan,nan,nan
1,238,1,1,1.0,1.0,0.425160373794,0,0.0,0.0,0.0,0.471077216869,0.114064051357,0.357013165512,0.585141268226,0.114064051357,0.542993611656,185,1.0,-0.102214474652,0.370299946716,nan,nan,nan,nan,nan,nan,nan,nan,218.572836255,527.964527751,nan,528.389688125,nan,nan,nan,nan
1,239,1,1,1.0,1.0,0.387353186146,0,0.0,0.0,0.0,0.470880991044,0.11385946816,0.357021522884,0.584740459204,0.11385946816,0.483846492386,259,0.44882283482,0.268906983076,0.655011783756,nan,nan,nan,nan,nan,nan,nan,nan,218.572836255,528.906318788,nan,529.293671975,nan,nan,nan,nan
1,240,1,1,1.0,1.0,0.445537060092,0,0.0,0.0,0.0,0.470525553576,0.113746978859,0.356778574717,0.584272532435,0.113746978859,0.419350206677,453,0.359670421306,0.39926174925,-1.0,nan,nan,nan,nan,nan,nan,nan,nan,218.572836255,529.848112392,nan,530.293649452,nan,nan,nan,nan
1,241,1,1,1.0,1.0,0.303720192809,0,0.0,0.0,0.0,0.470419670129,0.113517338906,0.356902331223,0.583937009035,0.113517338906,0.378870146349,223,0.83172397378,0.104890589731,0.593432239612,nan,nan,nan,nan,nan,nan,nan,nan,218.572836255,530.789902574,nan,531.093622767,nan,nan,nan,nan
1,242,1,1,1.0,1.0,0.417911230761,0,0.0,0.0,0.0,0.469716296807,0.113791789553,0.355924507255,0.58350808636,0.113791789553,0.389056161221,121,1.0,-0.310732805591,-0.229640808446,nan,nan,nan,nan,nan,nan,nan,nan,218.572836255,531.731701879,nan,532.14961311,nan,nan,nan,nan
1,243,1,1,1.0,1.0,0.524093914137,0,0.0,0.0,0.0,0.469498628463,0.11360191262,0.355896715842,0.583100541083,0.11360191262,0.415241779236,49,1.0,-0.027785429985,-1.0,nan,nan,nan,nan,nan,nan,nan,nan,218.572836255,532.673491777,nan,533.197585691,nan,nan,nan,nan
1,244,1,1,1.0,1.0,0.494297646801,0,0.0,0.0,0.0,0.46972706062,0.113418764858,0.356308295762,0.583145825478,0.113418764858,0.478767597233,426,0.156193047225,0.446210853967,-0.81485970128,nan,nan,nan,nan,nan,nan,nan,nan,218.572836255,533.615285665,nan,534.109583312,nan,nan,nan,nan
1,245,1,1,1.0,1.0,0.472464688704,0,0.0,0.0,0.0,0.469829438063,0.113193294767,0.356636143295,0.58302273283,0.113193294767,0.496952083214,134,1.0,-0.304950998219,-0.095144111098,nan,nan,nan,nan,nan,nan,nan,nan,218.572836255,534.557082119,nan,535.029546808,nan,nan,nan,nan
1,246,1,1,1.0,1.0,0.546621651854,0,0.0,0.0,0.0,0.469840372713,0.11295833681,0.356882035903,0.582798709522,0.11295833681,0.50446132912,43,1.0,0.00424534395127,-1.0,nan,nan,nan,nan,nan,nan,nan,nan,218.572836255,535.498887697,nan,536.045509349,nan,nan,nan,nan
1,247,1,1,1.0,1.0,0.452821840183,0,0.0,0.0,0.0,0.470157650726,0.112832267724,0.357325383002,0.58298991845,0.112832267724,0.490636060247,305,0.00361192545304,0.406859252708,0.500196907155,nan,nan,nan,nan,nan,nan,nan,nan,218.572836255,536.44066562,nan,536.89348746,nan,nan,nan,nan
1,248,1,1,1.0,1.0,0.447044364118,0,0.0,0.0,0.0,0.470086309941,0.112605332279,0.357480977663,0.58269164222,0.112605332279,0.482162618719,235,0.707591924495,0.164537776567,0.631659631194,nan,nan,nan,nan,nan,nan,nan,nan,218.572836255,537.382431284,nan,537.829475648,nan,nan,nan,nan
1,249,1,1,1.0,1.0,0.601196777134,0,0.0,0.0,0.0,0.469991875737,0.112383988339,0.357607887399,0.582375864076,0.112383988339,0.500354327145,101,1.0,-0.273572672894,-0.446152610616,nan,nan,nan,nan,nan,nan,nan,nan,218.572836255,538.324253682,nan,538.925450459,nan,nan,nan,nan
1,250,1,1,1.0,1.0,0.61938164325,0,0.0,0.0,0.0,0.470527405947,0.112465935082,0.358061470865,0.582993341029,0.112465935082,0.555874261501,309,-0.0258396312562,0.415106541901,0.475305697888,nan,nan,nan,nan,nan,nan,nan,nan,218.572836255,539.266052417,nan,539.88543406,nan,nan,nan,nan
1,251,1,1,1.0,1.0,0.533571939915,0,0.0,1.0,0.0,0.471132504473,0.112636028297,0.358496476175,0.58376853277,0.112636028297,0.584716786766,211,0.948675772315,0.0413606888024,0.538689155053,nan,nan,nan,nan,nan,nan,nan,nan,218.572836255,540.207834902,nan,540.741406842,nan,nan,nan,nan
1,252,1,1,1.0,1.0,0.535754922137,1,0.0,0.0,1.0,0.471385295709,0.112477692203,0.358907603506,0.583862987913,0.112477692203,0.562902835101,358,-0.170583909915,0.474268316859,0.0585874414746,-153.178018798,243.178018798,-8.54073120158,346.0,-0.174317561957,0.466431294057,0.176670174816,1.55048670212,218.572836255,541.149621948,541.958048083,541.68537687,544.550037105,545.556982621,542.983177039,544.541702601
1,253,1,1,1.0,1.0,0.393045703473,0,0.0,0.0,0.0,0.471644850655,0.11232478934,0.359320061315,0.583969639995,0.11232478934,0.487457521842,179,1.0,-0.13461441766,0.323204131591,nan,nan,nan,nan,nan,nan,nan,nan,218.572836255,545.70024122,nan,546.093286923,nan,nan,nan,nan
1,254,1,1,1.0,1.0,0.315153694013,0,0.0,0.0,0.0,0.471329191429,0.112209175613,0.359120015816,0.583538367042,0.112209175613,0.414651439874,21,1.0,0.116713997928,-1.0,nan,nan,nan,nan,nan,nan,nan,nan,218.572836255,546.642105812,nan,546.957259506,nan,nan,nan,nan
1,255,1,1,1.0,1.0,0.253459429485,0,1.0,0.0,0.0,0.470704489439,0.112417562626,0.358286926813,0.583122052066,0.112417562626,0.320552942324,223,0.83172397378,0.104890589731,0.593432239612,nan,nan,nan,nan,nan,nan,nan,nan,218.572836255,547.583832133,nan,547.837291563,nan,nan,nan,nan
1,256,1,1,1.0,1.0,0.207619654189,1,0.0,0.0,1.0,0.469838971272,0.113024950234,0.356814021038,0.582863921506,0.113024950234,0.258744259229,428,0.170378320166,0.443486568519,-0.86866140055,148.744911507,301.255088493,0.31758849343,428.0,0.170378320166,0.443486568519,-0.86866140055,0.950388971134,218.572836255,548.525606635,549.334044458,548.733226289,551.309273013,552.31166269,550.342504976,551.300939934
1,257,1,1,1.0,1.0,0.649973044114,0,0.0,0.0,0.0,0.468798418427,0.113998757311,0.354799661116,0.582797175737,0.113998757311,0.370350709263,130,1.0,-0.309333154106,-0.136071487739,nan,nan,nan,nan,nan,nan,nan,nan,218.572836255,552.451124662,nan,553.101097706,nan,nan,nan,nan
1,258,1,1,1.0,1.0,0.54815803573,0,0.0,0.0,0.0,0.469514523666,0.114339745895,0.355174777771,0.583854269562,0.114339745895,0.468583578011,92,1.0,-0.241703663401,-0.55060883727,nan,nan,nan,nan,nan,nan,nan,nan,218.572836255,553.392949626,nan,553.941107662,nan,nan,nan,nan
1,259,1,1,1.0,1.0,0.630329340347,0,0.0,1.0,0.0,0.469824143793,0.114220665658,0.355603478134,0.584044809451,0.114220665658,0.60948680673,180,1.0,-0.129278616986,0.331238955499,nan,nan,nan,nan,nan,nan,nan,nan,218.572836255,554.334742089,nan,554.965071429,nan,nan,nan,nan
1,260,0,0,0.0,1.0,0.784519101027,1,0.0,0.0,1.0,0.470453575936,0.114437009794,0.356016566142,0.58489058573,0.114437009794,0.654335492368,315,-0.0657111424032,0.426434809442,0.434956515233,-138.11506476,228.11506476,6.63068975991,324.0,-0.114799643766,0.441158325109,0.368064040095,4.51759371901,218.572836255,555.276537973,556.084947857,556.061057074,561.635692001,562.638602834,557.101721212,561.627359207
1,261,1,1,1.0,1.0,0.755298157921,0,0.0,0.0,0.0,0.471680394393,0.115881275136,0.355799119257,0.58756166953,0.115881275136,0.723382199765,66,1.0,-0.118568705386,-1.0,nan,nan,nan,nan,nan,nan,nan,nan,218.572836255,562.77754251,nan,563.532840668,nan,nan,nan,nan
1,262,1,1,1.0,1.0,0.445490304264,0,0.0,0.0,0.0,0.472783965458,0.116995698893,0.355788266565,0.589779664351,0.116995698893,0.661769187738,300,0.0433537089178,0.395748422077,0.528951029102,nan,nan,nan,nan,nan,nan,nan,nan,218.572836255,563.7193421,nan,564.164832405,nan,nan,nan,nan
1,263,1,1,1.0,1.0,0.335654682305,0,0.0,0.0,0.0,0.472678176073,0.116781058007,0.355897118067,0.58945923408,0.116781058007,0.51214771483,229,0.770397026975,0.135265939772,0.614681466938,nan,nan,nan,nan,nan,nan,nan,nan,218.572836255,564.661215531,nan,564.996870213,nan,nan,nan,nan
1,264,1,1,1.0,1.0,0.321881966142,0,0.0,0.0,0.0,0.472149127835,0.116864759431,0.355284368404,0.589013887265,0.116864759431,0.367675650904,351,-0.175686286722,0.4701852659,0.128489978773,nan,nan,nan,nan,nan,nan,nan,nan,218.572836255,565.602924176,nan,565.924806142,nan,nan,nan,nan
1,265,1,1,1.0,1.0,0.316093656409,0,1.0,0.0,0.0,0.471571177213,0.117010070573,0.35456110664,0.588581247786,0.117010070573,0.324543434952,287,0.159501648714,0.36255249221,0.590751920292,nan,nan,nan,nan,nan,nan,nan,nan,218.572836255,566.544720345,nan,566.860814001,nan,nan,nan,nan
1,266,0,0,0.0,1.0,0.486258216784,1,0.0,0.0,1.0,0.470975477899,0.117180042265,0.353795435634,0.588155520164,0.117180042265,0.374744613112,415,0.0813077335083,0.459153678902,-0.614968023274,164.671078273,285.328921727,-6.46795327269,406.0,0.0244967455079,0.467245700284,-0.489366101921,2.29226502439,218.572836255,567.486511953,568.294927538,567.972770169,571.620352396,572.622363465,569.311701748,571.612013045
1,267,1,1,1.0,1.0,0.434429709101,0,0.0,0.0,0.0,0.471033808964,0.116959998909,0.354073810055,0.587993807873,0.116959998909,0.412260527431,47,1.0,-0.0170755915744,-1.0,nan,nan,nan,nan,nan,nan,nan,nan,218.572836255,572.762229134,nan,573.196658843,nan,nan,nan,nan
1,268,1,1,1.0,1.0,0.772575277544,0,0.0,0.0,0.0,0.470894629877,0.116759165181,0.354135464696,0.587653795058,0.116759165181,0.56442106781,365,-0.157962026257,0.477016591838,-0.0139196855225,nan,nan,nan,nan,nan,nan,nan,nan,218.572836255,573.70401618,nan,574.476591457,nan,nan,nan,nan
1,269,1,1,1.0,1.0,0.64683299372,0,0.0,1.0,0.0,0.472037359603,0.118002106935,0.354035252668,0.590039466538,0.118002106935,0.617945993455,197,1.0,-0.035797595552,0.455774741445,nan,nan,nan,nan,nan,nan,nan,nan,218.572836255,574.645810068,nan,575.292643062,nan,nan,nan,nan
1,270,1,1,1.0,1.0,0.456988522317,1,0.0,0.0,1.0,0.472696965769,0.118265857991,0.354431107778,0.59096282376,0.118265857991,0.62546559786,276,0.268710435127,0.329430325417,0.627563005949,-113.70884478,203.70884478,9.64634478027,290.0,0.131265381085,0.370776544741,0.578206616232,4.82595955569,218.572836255,575.58759854,576.396017547,576.044587062,582.255117264,583.261333219,577.412782919,582.24676822
1,271,1,1,1.0,1.0,0.647062211181,0,0.0,0.0,0.0,0.472637911471,0.118047258865,0.354590652605,0.590685170336,0.118047258865,0.583627909073,137,1.0,-0.300190217086,-0.0647316600203,nan,nan,nan,nan,nan,nan,nan,nan,218.572836255,583.405318243,nan,584.052380454,nan,nan,nan,nan
1,272,1,1,1.0,1.0,0.601241537312,0,0.0,0.0,0.0,0.473291186001,0.118306736569,0.354984449432,0.59159792257,0.118306736569,0.568430756937,205,1.0,0.00854800403903,0.505535240796,nan,nan,nan,nan,nan,nan,nan,nan,218.572836255,584.347115268,nan,584.948356805,nan,nan,nan,nan
1,273,0,0,0.0,1.0,0.603428225731,0,0.0,0.0,0.0,0.473768612685,0.118343217833,0.355425394853,0.592111830518,0.118343217833,0.617243991408,439,0.251144291643,0.426392204401,-1.0,nan,nan,nan,nan,nan,nan,nan,nan,218.572836255,585.288900888,nan,585.892329114,nan,nan,nan,nan
1,274,1,1,1.0,1.0,0.493618547451,0,0.0,0.0,0.0,0.474250618682,0.118386308142,0.35586431054,0.592636926824,0.118386308142,0.566096103498,319,-0.0891891826932,0.433308674125,0.406137099325,nan,nan,nan,nan,nan,nan,nan,nan,218.572836255,586.230701334,nan,586.724319881,nan,nan,nan,nan
1,275,1,1,1.0,1.0,0.423804455902,0,0.0,0.0,0.0,0.474322351751,0.118172727589,0.356149624162,0.592495079341,0.118172727589,0.506950409695,247,0.578947625354,0.219392674348,0.6523805853,nan,nan,nan,nan,nan,nan,nan,nan,218.572836255,587.172502065,nan,587.596306521,nan,nan,nan,nan
1,276,1,1,1.0,1.0,0.409987834923,0,0.0,0.0,0.0,0.474135938852,0.117994259945,0.356141678906,0.592130198797,0.117994259945,0.442470279425,461,0.423959648591,0.380927367285,-1.0,nan,nan,nan,nan,nan,nan,nan,nan,218.572836255,588.114299089,nan,588.524286924,nan,nan,nan,nan
1,277,1,1,1.0,1.0,0.740187770105,0,0.0,0.0,0.0,0.473900100234,0.117841131037,0.356155444322,0.593595581567,0.117841131037,0.52466002031,155,1.0,-0.2479831371,0.111611878621,nan,nan,nan,nan,nan,nan,nan,nan,218.572836255,589.056095259,nan,589.796283029,nan,nan,nan,nan
1,278,1,1,nan,nan,nan,0,0.0,0.0,0.0,0.474875512944,0.118720068622,0.356155444322,0.593595581567,0.118720068622,0.575087802514,259,0.44882283482,0.268906983076,0.655011783756,nan,nan,nan,nan,nan,nan,nan,nan,218.572836255,589.997875463,nan,nan,nan,nan,nan,nan
1,279,1,1,1.0,1.0,0.592559215205,0,0.0,0.0,0.0,0.474875512944,0.118720068622,0.356155444322,0.593595581567,0.118720068622,0.666373492655,332,-0.146647089803,0.45205423783,0.302714191958,nan,nan,nan,nan,nan,nan,nan,nan,218.572836255,590.939670206,nan,591.532229422,nan,nan,nan,nan
1,280,1,1,1.0,1.0,0.410739918938,0,0.0,0.0,0.0,0.475305015507,0.118715525764,0.356589489744,0.594020541271,0.118715525764,0.501649567072,214,0.920243657418,0.0575410437433,0.553854850604,nan,nan,nan,nan,nan,nan,nan,nan,218.572836255,591.88146495,nan,592.292204869,nan,nan,nan,nan
1,281,0,0,0.0,1.0,0.492934031237,0,0.0,0.0,0.0,0.475070233338,0.118563194238,0.3565070391,0.593633427576,0.118563194238,0.49874438846,129,1.0,-0.310070485259,-0.146368003411,nan,nan,nan,nan,nan,nan,nan,nan,218.572836255,592.823250001,nan,593.316184032,nan,nan,nan,nan
1,282,1,1,1.0,1.0,0.671082142799,0,0.0,0.0,0.0,0.475134957243,0.118353077936,0.356781879307,0.59348803518,0.118353077936,0.524918697658,59,1.0,-0.0814409933332,-1.0,nan,nan,nan,nan,nan,nan,nan,nan,218.572836255,593.765052157,nan,594.4361343,nan,nan,nan,nan
1,283,0,0,0.0,1.0,0.537290735811,0,0.0,0.0,0.0,0.475842347805,0.118722337535,0.35712001027,0.59456468534,0.118722337535,0.567102303282,129,1.0,-0.310070485259,-0.146368003411,nan,nan,nan,nan,nan,nan,nan,nan,218.572836255,594.706850607,nan,595.244141343,nan,nan,nan,nan
1,284,1,1,1.0,1.0,0.467458683124,0,0.0,0.0,0.0,0.476063385172,0.118565701394,0.357497683778,0.594629086566,0.118565701394,0.558610520578,76,1.0,-0.169674511773,-0.773365826749,nan,nan,nan,nan,nan,nan,nan,nan,218.572836255,595.648639649,nan,596.116098332,nan,nan,nan,nan
1,285,1,1,1.0,1.0,0.397675952176,0,0.0,0.0,0.0,0.476032543946,0.11835414443,0.357678399516,0.594386688376,0.11835414443,0.467475123703,492,0.681403316433,0.289222019555,-1.0,nan,nan,nan,nan,nan,nan,nan,nan,218.572836255,596.590432397,nan,596.988108349,nan,nan,nan,nan
1,286,1,1,1.0,1.0,0.47185401246,0,0.0,0.0,0.0,0.475752698975,0.118235042928,0.357517656047,0.593987741904,0.118235042928,0.445662882586,69,1.0,-0.134207199312,-0.939648005704,nan,nan,nan,nan,nan,nan,nan,nan,218.572836255,597.532226856,nan,598.004080868,nan,nan,nan,nan
1,287,1,1,1.0,1.0,0.426044172258,0,0.0,0.0,0.0,0.475738824646,0.118024701121,0.357714123525,0.593763525768,0.118024701121,0.431858045631,404,0.0124894593597,0.468746268022,-0.463349101315,nan,nan,nan,nan,nan,nan,nan,nan,218.572836255,598.474013617,nan,598.900057789,nan,nan,nan,nan
1,288,0,0,0.0,1.0,0.420226212533,0,0.0,0.0,0.0,0.475562602475,0.117852279399,0.357710323075,0.593414881874,0.117852279399,0.439374799083,304,0.0113092810281,0.404708921832,0.506160370659,nan,nan,nan,nan,nan,nan,nan,nan,218.572836255,599.41580665,nan,599.836032862,nan,nan,nan,nan
1,289,1,1,1.0,1.0,0.366421702434,0,0.0,0.0,0.0,0.475367067528,0.117689691225,0.357677376303,0.593056758753,0.117689691225,0.404230695742,161,1.0,-0.223158351501,0.167490545043,nan,nan,nan,nan,nan,nan,nan,nan,218.572836255,600.357605385,nan,600.724027088,nan,nan,nan,nan
1,290,1,1,1.0,1.0,0.536611066258,0,0.0,0.0,0.0,0.474983457087,0.117659416101,0.357324040986,0.592642873189,0.117659416101,0.441086327075,453,0.359670421306,0.39926174925,-1.0,nan,nan,nan,nan,nan,nan,nan,nan,218.572836255,601.299394142,nan,601.836005208,nan,nan,nan,nan
1,291,1,1,1.0,1.0,0.666771487042,0,0.0,0.0,0.0,0.475199694312,0.117509331978,0.357690362334,0.592709026291,0.117509331978,0.523268085245,378,-0.117450136118,0.478670924818,-0.154810124165,nan,nan,nan,nan,nan,nan,nan,nan,218.572836255,602.241188886,nan,602.907960373,nan,nan,nan,nan
1,292,1,1,1.0,1.0,0.516963941336,0,0.0,0.0,0.0,0.475869525756,0.117847503023,0.358022022733,0.593717028778,0.117847503023,0.573448831545,127,1.0,-0.31111021432,-0.167036648065,nan,nan,nan,nan,nan,nan,nan,nan,218.572836255,603.182983629,nan,603.699947571,nan,nan,nan,nan
1,293,1,1,1.0,1.0,0.367156965716,0,0.0,0.0,0.0,0.476012711873,0.117666933562,0.35834577831,0.593679645435,0.117666933562,0.516964131365,7,0.9030914636,0.181853060355,-1.0,nan,nan,nan,nan,nan,nan,nan,nan,218.572836255,604.124781794,nan,604.49193876,nan,nan,nan,nan
1,294,1,1,1.0,1.0,0.353335213033,0,0.0,0.0,0.0,0.475634740532,0.117636873751,0.357997866781,0.593271614283,0.117636873751,0.412485373362,477,0.555879874869,0.337784025865,-1.0,nan,nan,nan,nan,nan,nan,nan,nan,218.572836255,605.066568841,nan,605.419904054,nan,nan,nan,nan
1,295,1,1,1.0,1.0,0.45951219456,0,0.0,0.0,0.0,0.475211558776,0.117652565025,0.35755899375,0.592864123801,0.117652565025,0.393334791103,178,1.0,-0.139919655122,0.315097826042,nan,nan,nan,nan,nan,nan,nan,nan,218.572836255,606.008360163,nan,606.467872358,nan,nan,nan,nan
1,296,1,1,1.0,1.0,0.421710423718,0,0.0,0.0,0.0,0.475157423037,0.117453146207,0.357680883937,0.592266628808,0.117453146207,0.411519277104,405,0.018463324075,0.468009379796,-0.476293327428,nan,nan,nan,nan,nan,nan,nan,nan,218.572836255,606.950156047,nan,607.371866471,nan,nan,nan,nan
1,297,0,0,nan,nan,nan,0,0.0,0.0,0.0,0.474973756373,0.117292872436,0.357680883937,0.592266628808,0.117292872436,0.440611309139,502,0.764740937618,0.25241357569,-1.0,nan,nan,nan,nan,nan,nan,nan,nan,218.572836255,607.891915439,nan,nan,nan,nan,nan,nan
1,298,1,1,1.0,1.0,0.474043551891,0,0.0,0.0,0.0,0.474973756373,0.117292872436,0.357680883937,0.592266628808,0.117292872436,0.447876987804,335,-0.155595990888,0.455627721073,0.276893227044,nan,nan,nan,nan,nan,nan,nan,nan,218.572836255,608.833740118,nan,609.30778367,nan,nan,nan,nan
1,299,1,1,1.0,1.0,0.564260558574,0,0.0,0.0,0.0,0.474970570741,0.117091868836,0.357878701905,0.592062439577,0.117091868836,0.519152055233,145,1.0,-0.281667413287,0.0150551701241,nan,nan,nan,nan,nan,nan,nan,nan,218.572836255,609.775538283,nan,610.339798842,nan,nan,nan,nan
1,300,1,1,1.0,1.0,0.486447235686,0,0.0,0.0,0.0,0.475275314727,0.117007819954,0.358267494773,0.592283134681,0.117007819954,0.508250448717,17,0.981069150956,0.135921910835,-1.0,nan,nan,nan,nan,nan,nan,nan,nan,218.572836255,610.717330176,nan,611.203777412,nan,nan,nan,nan
1,301,1,1,1.0,1.0,0.480664057657,0,0.0,0.0,0.0,0.475313314458,0.11681046857,0.358502845888,0.592123783028,0.11681046857,0.510457283972,372,-0.138660017671,0.478458869494,-0.0888123791441,nan,nan,nan,nan,nan,nan,nan,nan,218.572836255,611.659124635,nan,612.139788692,nan,nan,nan,nan
1,302,1,1,1.0,1.0,0.458815704391,0,0.0,0.0,0.0,0.47533145257,0.116612731379,0.358718721192,0.591944183949,0.116612731379,0.475308999245,228,0.780729811514,0.1302769546,0.611433142569,nan,nan,nan,nan,nan,nan,nan,nan,218.572836255,612.600915672,nan,613.059731377,nan,nan,nan,nan
1,303,1,1,1.0,1.0,0.428992067813,0,0.0,0.0,0.0,0.475275656124,0.116419528214,0.358856127909,0.591695184338,0.116419528214,0.45615727662,194,1.0,-0.0524864644427,0.435571704399,nan,nan,nan,nan,nan,nan,nan,nan,218.572836255,613.542718684,nan,613.971710752,nan,nan,nan,nan
1,304,1,1,1.0,1.0,0.335209932062,0,0.0,0.0,0.0,0.475119819126,0.116254291352,0.358865527774,0.591374110478,0.116254291352,0.407672568089,256,0.481312611765,0.257047908656,0.656065722404,nan,nan,nan,nan,nan,nan,nan,nan,218.572836255,614.484496322,nan,614.819706254,nan,nan,nan,nan
1,305,0,0,1.0,0.0,0.393372138729,0,0.0,0.0,0.0,0.474650322861,0.116340768647,0.358309554214,0.590991091507,0.116340768647,0.385858046201,94,1.0,-0.249439013202,-0.526745155233,nan,nan,nan,nan,nan,nan,nan,nan,218.572836255,615.426290781,nan,615.819662919,nan,nan,nan,nan
1,306,1,1,1.0,1.0,0.211566812184,0,0.0,0.0,0.0,0.474378489469,0.116240812705,0.358137676764,0.590619302174,0.116240812705,0.313382960992,232,0.739158239773,0.150046616059,0.623712016981,nan,nan,nan,nan,nan,nan,nan,nan,218.572836255,616.368089516,nan,616.579656328,nan,nan,nan,nan
1,307,1,1,1.0,1.0,0.293744103867,0,0.0,0.0,0.0,0.473502450545,0.117031417141,0.356471033404,0.590533867686,0.117031417141,0.29956101826,346,-0.174317561957,0.466431294057,0.176670174816,nan,nan,nan,nan,nan,nan,nan,nan,218.572836255,617.309883404,nan,617.603627508,nan,nan,nan,nan
1,308,1,1,1.0,1.0,0.215931636223,0,1.0,0.0,0.0,0.472905246735,0.117293842475,0.35561140426,0.59019908921,0.117293842475,0.240414184091,280,0.228089347314,0.342018854333,0.61587222022,nan,nan,nan,nan,nan,nan,nan,nan,218.572836255,618.251671876,nan,618.467603512,nan,nan,nan,nan
1,309,1,1,1.0,1.0,0.226108432922,1,0.0,0.0,1.0,0.47205434074,0.118026378609,0.354027962131,0.590080719349,0.118026378609,0.245261391004,108,1.0,-0.292426609412,-0.368663285579,-7.65065095536,97.6506509554,21.7131509554,139.0,1.0,-0.296335611021,-0.0445992895203,2.79232874338,218.572836255,619.193473177,620.001888478,619.41958161,623.835696734,624.834415796,621.027008596,623.827363655
1,310,1,1,1.0,1.0,0.521837092005,0,0.0,0.0,0.0,0.471242638074,0.11867277612,0.352569861954,0.589915414194,0.11867277612,0.32129238705,259,0.44882283482,0.268906983076,0.655011783756,nan,nan,nan,nan,nan,nan,nan,nan,218.572836255,624.977577178,nan,625.49941427,nan,nan,nan,nan
1,311,1,1,1.0,1.0,0.491926786141,0,0.0,0.0,0.0,0.471409067199,0.11851284351,0.352896223689,0.589921910709,0.11851284351,0.413290770356,316,-0.0718215561597,0.428203514031,0.427892255365,nan,nan,nan,nan,nan,nan,nan,nan,218.572836255,625.919456025,nan,626.411382811,nan,nan,nan,nan
1,312,1,1,1.0,1.0,0.366211871617,0,0.0,0.0,0.0,0.471476338409,0.118324214169,0.353152124239,0.589800552578,0.118324214169,0.459991916587,242,0.632911854383,0.197161183215,0.645921401967,nan,nan,nan,nan,nan,nan,nan,nan,218.572836255,626.861166665,nan,627.227378537,nan,nan,nan,nan
1,313,1,1,1.0,1.0,0.376443121757,0,0.0,0.0,0.0,0.471132336883,0.118283383448,0.352848953435,0.589415720331,0.118283383448,0.411527259838,440,0.258699398066,0.424657399123,-1.0,nan,nan,nan,nan,nan,nan,nan,nan,218.572836255,627.802939172,nan,628.179382293,nan,nan,nan,nan
1,314,1,1,1.0,1.0,0.354616150667,0,0.0,0.0,0.0,0.470823902958,0.118213771951,0.352610131006,0.589037674909,0.118213771951,0.365757048014,506,0.797774742377,0.236703125255,-1.0,nan,nan,nan,nan,nan,nan,nan,nan,218.572836255,628.744749025,nan,629.099365176,nan,nan,nan,nan
1,315,0,0,0.0,1.0,0.540766059421,0,0.0,0.0,0.0,0.470446605061,0.118206711848,0.352239893212,0.588653316909,0.118206711848,0.423941777282,78,1.0,-0.179467652321,-0.739907630878,nan,nan,nan,nan,nan,nan,nan,nan,218.572836255,629.686535216,nan,630.227301276,nan,nan,nan,nan
1,316,1,1,1.0,1.0,0.462952736474,0,0.0,0.0,0.0,0.47067417611,0.118082844247,0.352591331863,0.588757020357,0.118082844247,0.452778315521,146,1.0,-0.278792578557,0.0248813210997,nan,nan,nan,nan,nan,nan,nan,nan,218.572836255,630.628335377,nan,631.091288113,nan,nan,nan,nan
1,317,1,1,1.0,1.0,0.51315562526,0,0.0,0.0,0.0,0.47064926824,0.11789304725,0.35275622099,0.588542315491,0.11789304725,0.505624807052,30,1.0,0.071945658744,-1.0,nan,nan,nan,nan,nan,nan,nan,nan,218.572836255,631.570135538,nan,632.083291163,nan,nan,nan,nan
1,318,1,1,1.0,1.0,0.531333078863,0,0.0,0.0,0.0,0.47078594463,0.117727953113,0.353057991516,0.588513897743,0.117727953113,0.502480480199,325,-0.119404900653,0.442631039184,0.360186421743,nan,nan,nan,nan,nan,nan,nan,nan,218.572836255,632.511926575,nan,633.043259654,nan,nan,nan,nan
1,319,1,1,1.0,1.0,0.557428226341,0,0.0,0.0,0.0,0.470980005957,0.117588947093,0.353391058864,0.58856895305,0.117588947093,0.533972310155,230,0.760023132926,0.140224214653,0.61781109556,nan,nan,nan,nan,nan,nan,nan,nan,218.572836255,633.453790882,nan,634.011219109,nan,nan,nan,nan
1,320,1,1,1.0,1.0,0.511726437544,0,0.0,0.0,0.0,0.471256198355,0.11750227362,0.353753924735,0.588758471975,0.11750227362,0.533495914249,491,0.673033477965,0.292707709811,-1.0,nan,nan,nan,nan,nan,nan,nan,nan,218.572836255,634.39550751,nan,634.907233947,nan,nan,nan,nan
1,321,1,1,1.0,1.0,0.425923861621,0,0.0,0.0,0.0,0.471385084467,0.117337176953,0.354047907513,0.58872226142,0.117337176953,0.498359508502,171,1.0,-0.176011872558,0.256450910142,nan,nan,nan,nan,nan,nan,nan,nan,218.572836255,635.337299403,nan,635.763223264,nan,nan,nan,nan
1,322,1,1,1.0,1.0,0.492118085735,0,0.0,0.0,0.0,0.471240763124,0.117178689672,0.354062073452,0.588419452797,0.117178689672,0.476589461633,470,0.497741612616,0.357740777197,-1.0,nan,nan,nan,nan,nan,nan,nan,nan,218.572836255,636.279065637,nan,636.771183723,nan,nan,nan,nan
1,323,1,1,1.0,1.0,0.430267588468,0,0.0,0.0,0.0,0.471306830601,0.116999009476,0.354307821125,0.588305840077,0.116999009476,0.449436511941,385,-0.0879796604702,0.477733444059,-0.233926720364,nan,nan,nan,nan,nan,nan,nan,nan,218.572836255,637.220887465,nan,637.651155053,nan,nan,nan,nan
1,324,1,1,1.0,1.0,0.488460585591,0,0.0,0.0,0.0,0.471177369269,0.116836989943,0.354340379327,0.588014359212,0.116836989943,0.470282086598,173,1.0,-0.165909522591,0.273535192888,nan,nan,nan,nan,nan,nan,nan,nan,218.572836255,638.162684774,nan,638.65114536,nan,nan,nan,nan
1,325,1,1,1.0,1.0,0.426648861438,0,0.0,0.0,0.0,0.471231719006,0.116657152805,0.354574566201,0.587888871812,0.116657152805,0.448459011832,263,0.405698801511,0.284171736334,0.651829885785,nan,nan,nan,nan,nan,nan,nan,nan,218.572836255,639.104482084,nan,639.531130946,nan,nan,nan,nan
1,326,1,1,1.0,1.0,0.444836578565,0,0.0,0.0,0.0,0.471091960832,0.116500821825,0.354591139007,0.587592782657,0.116500821825,0.453315341865,441,0.266287261384,0.422891888867,-1.0,nan,nan,nan,nan,nan,nan,nan,nan,218.572836255,640.046268845,nan,640.491105424,nan,nan,nan,nan
1,327,1,1,1.0,1.0,0.351005121134,0,0.0,0.0,0.0,0.471009912762,0.116327877475,0.354682035288,0.587337790237,0.116327877475,0.407496853712,56,1.0,-0.0653675053377,-1.0,nan,nan,nan,nan,nan,nan,nan,nan,218.572836255,640.988073852,nan,641.339078974,nan,nan,nan,nan
1,328,1,1,1.0,1.0,0.425193730043,0,0.0,0.0,0.0,0.470636066059,0.11633891182,0.35429715424,0.586974977879,0.11633891182,0.407011809914,200,1.0,-0.0191209939188,0.47515178387,nan,nan,nan,nan,nan,nan,nan,nan,218.572836255,641.92985149,nan,642.355045221,nan,nan,nan,nan
1,329,1,1,1.0,1.0,0.355368234625,0,0.0,0.0,0.0,0.470494940792,0.116185636752,0.354309304041,0.586680577544,0.116185636752,0.377189028601,465,0.456588679398,0.37096152752,-1.0,nan,nan,nan,nan,nan,nan,nan,nan,218.572836255,642.871649655,nan,643.22701789,nan,nan,nan,nan
1,330,1,1,1.0,1.0,0.357558629301,0,0.0,0.0,0.0,0.470138511362,0.116181826487,0.353956684875,0.586320337848,0.116181826487,0.379373531323,13,0.950262168777,0.154664060346,-1.0,nan,nan,nan,nan,nan,nan,nan,nan,218.572836255,643.813440123,nan,644.170998752,nan,nan,nan,nan
1,331,0,0,0.0,1.0,0.639740083425,0,0.0,0.0,0.0,0.46979104259,0.116170361545,0.353620681044,0.585961404135,0.116170361545,0.45088898245,120,1.0,-0.310161497659,-0.240162905937,nan,nan,nan,nan,nan,nan,nan,nan,218.572836255,644.755236862,nan,645.394976946,nan,nan,nan,nan
1,332,1,1,1.0,1.0,0.457929625118,0,0.0,0.0,0.0,0.470313962715,0.116372782264,0.353941180452,0.586686744979,0.116372782264,0.485076112614,446,0.304696255059,0.41359904426,-1.0,nan,nan,nan,nan,nan,nan,nan,nan,218.572836255,645.6970279,nan,646.154957525,nan,nan,nan,nan
1,333,0,0,0.0,1.0,0.500128150801,0,0.0,0.0,0.0,0.47027597395,0.116196177568,0.354079796381,0.586472151518,0.116196177568,0.532599286448,67,1.0,-0.12380466598,-1.0,nan,nan,nan,nan,nan,nan,nan,nan,218.572836255,646.638817512,nan,647.138945663,nan,nan,nan,nan
1,334,1,1,1.0,1.0,0.350276700221,0,0.0,0.0,0.0,0.47036726501,0.116030079874,0.354337185137,0.586397344884,0.116030079874,0.436111492047,253,0.513865899396,0.244839928328,0.655977188727,nan,nan,nan,nan,nan,nan,nan,nan,218.572836255,647.580617672,nan,647.930894373,nan,nan,nan,nan
1,335,1,1,1.0,1.0,0.36845101777,0,0.0,0.0,0.0,0.47000113524,0.116042097734,0.353959037506,0.586043232973,0.116042097734,0.406285289597,363,-0.162287729338,0.476365729747,0.00704812682028,nan,nan,nan,nan,nan,nan,nan,nan,218.572836255,648.522421824,nan,648.890872842,nan,nan,nan,nan
1,336,1,1,1.0,1.0,0.418689543556,0,0.0,0.0,0.0,0.469692472269,0.116000381668,0.3536920906,0.585692853937,0.116000381668,0.379139087182,58,1.0,-0.0760896648475,-1.0,nan,nan,nan,nan,nan,nan,nan,nan,218.572836255,649.464201458,nan,649.882891002,nan,nan,nan,nan
1,337,1,1,1.0,1.0,0.444867368962,0,0.0,0.0,0.0,0.469537917939,0.11585841082,0.35367950712,0.585396328759,0.11585841082,0.410669310096,132,1.0,-0.307426825298,-0.115555361894,nan,nan,nan,nan,nan,nan,nan,nan,218.572836255,650.406003329,nan,650.850870698,nan,nan,nan,nan
1,338,1,1,1.0,1.0,0.487048503768,0,0.0,0.0,0.0,0.469463384559,0.115691188922,0.353772195637,0.58515457348,0.115691188922,0.450201805429,299,0.0516645560415,0.393417669654,0.534378752182,nan,nan,nan,nan,nan,nan,nan,nan,218.572836255,651.347786099,nan,651.834834603,nan,nan,nan,nan
1,339,1,1,1.0,1.0,0.385232925066,0,0.0,0.0,0.0,0.469516351785,0.115520843191,0.353995508594,0.585037194976,0.115520843191,0.439049599265,171,1.0,-0.176011872558,0.256450910142,nan,nan,nan,nan,nan,nan,nan,nan,218.572836255,652.289577422,nan,652.674810347,nan,nan,nan,nan
1,340,1,1,1.0,1.0,0.355419837055,0,0.0,0.0,0.0,0.469263248402,0.115439413979,0.353823834423,0.58470266238,0.115439413979,0.409233755296,261,0.427225806086,0.276617811781,0.653674462902,nan,nan,nan,nan,nan,nan,nan,nan,218.572836255,653.231375587,nan,653.586795424,nan,nan,nan,nan
1,341,1,1,1.0,1.0,0.341591812263,0,0.0,0.0,0.0,0.468922399865,0.115434165243,0.353488234622,0.584356565107,0.115434165243,0.360748191461,154,1.0,-0.251813147593,0.102138173725,nan,nan,nan,nan,nan,nan,nan,nan,218.572836255,654.173168335,nan,654.514760147,nan,nan,nan,nan
1,342,1,1,1.0,1.0,0.511784882343,0,0.0,0.0,0.0,0.468542308558,0.115470875233,0.353071433326,0.584013183791,0.115470875233,0.40293217722,109,1.0,-0.294638327523,-0.357773695079,nan,nan,nan,nan,nan,nan,nan,nan,218.572836255,655.114956806,nan,655.626741689,nan,nan,nan,nan
1,343,1,1,1.0,1.0,0.537903122604,0,0.0,0.0,0.0,0.468671006695,0.115322975153,0.353348031541,0.583993981848,0.115322975153,0.46375993907,252,0.524721685615,0.240693665738,0.655694012224,nan,nan,nan,nan,nan,nan,nan,nan,218.572836255,656.056821969,nan,656.594725092,nan,nan,nan,nan
1,344,1,1,1.0,1.0,0.404164173233,0,0.0,0.0,0.0,0.46887644324,0.11521330279,0.353663140451,0.58408974603,0.11521330279,0.484617392727,205,1.0,0.00854800403903,0.505535240796,nan,nan,nan,nan,nan,nan,nan,nan,218.572836255,656.998544298,nan,657.402708472,nan,nan,nan,nan
1,345,1,1,1.0,1.0,0.446345878183,0,0.0,0.0,0.0,0.46868498682,0.115096418551,0.353588568269,0.583781405371,0.115096418551,0.46280439134,360,-0.167709501072,0.475188317955,0.0381258551808,nan,nan,nan,nan,nan,nan,nan,nan,218.572836255,657.940338472,nan,658.38668435,nan,nan,nan,nan
1,346,1,1,1.0,1.0,0.416526518064,0,0.0,0.0,0.0,0.468619089745,0.114932919824,0.353686169921,0.583552009568,0.114932919824,0.42234552316,19,0.99625917486,0.126374530333,-1.0,nan,nan,nan,nan,nan,nan,nan,nan,218.572836255,658.882138062,nan,659.298664581,nan,nan,nan,nan
1,347,1,1,1.0,1.0,0.394682441256,0,0.0,0.0,0.0,0.468465876299,0.114798441509,0.353667434789,0.583264317808,0.114798441509,0.419184945834,365,-0.157962026257,0.477016591838,-0.0139196855225,nan,nan,nan,nan,nan,nan,nan,nan,218.572836255,659.823919692,nan,660.218602133,nan,nan,nan,nan
1,348,1,1,1.0,1.0,0.284892434604,0,0.0,0.0,0.0,0.468249502589,0.114699402741,0.353550099848,0.58294890533,0.114699402741,0.365367131308,226,0.801265930663,0.120208988367,0.60458276857,nan,nan,nan,nan,nan,nan,nan,nan,218.572836255,660.765719567,nan,661.050612002,nan,nan,nan,nan
1,349,1,1,1.0,1.0,0.327054753026,0,1.0,0.0,0.0,0.467713370811,0.114958694338,0.352754676473,0.582672065149,0.114958694338,0.335543209629,295,0.0860222946478,0.38372732295,0.554986075565,nan,nan,nan,nan,nan,nan,nan,nan,218.572836255,661.707532557,nan,662.03458731,nan,nan,nan,nan
1,350,1,1,1.0,1.0,0.433275354269,1,0.0,0.0,1.0,0.467303287377,0.115041235415,0.352262051962,0.582344522792,0.115041235415,0.348407513966,421,0.121471671064,0.452518040197,-0.712610339232,140.300926517,309.699073483,13.6834484835,440.0,0.258699398066,0.424657399123,-1.0,4.45923251513,218.572836255,662.649303353,663.457728347,663.082578707,668.950198527,669.948605124,664.474495144,668.941870579
1,351,1,1,1.0,1.0,0.518397405394,0,0.0,0.0,0.0,0.467204368967,0.114888509902,0.352315859065,0.582092878869,0.114888509902,0.42624250423,100,1.0,-0.270427092546,-0.457439896749,nan,nan,nan,nan,nan,nan,nan,nan,218.572836255,670.091971489,nan,670.610368895,nan,nan,nan,nan
1,352,1,1,1.0,1.0,0.33662800095,0,0.0,0.0,0.0,0.46735275458,0.114754890774,0.352597863806,0.582107645354,0.114754890774,0.429433586871,156,1.0,-0.244060613314,0.121041471254,nan,nan,nan,nan,nan,nan,nan,nan,218.572836255,671.033763952,nan,671.370391953,nan,nan,nan,nan
1,353,1,1,1.0,1.0,0.258807550592,0,0.0,0.0,0.0,0.466974937373,0.114803625766,0.352171311607,0.581778563139,0.114803625766,0.371277652312,347,-0.174938837379,0.46723881498,0.167157479366,nan,nan,nan,nan,nan,nan,nan,nan,218.572836255,671.975562972,nan,672.234370523,nan,nan,nan,nan
1,354,0,0,1.0,0.0,0.284993073612,0,0.0,0.0,0.0,0.466375031359,0.115179907655,0.351195123704,0.581554939014,0.115179907655,0.293476208385,72,1.0,-0.149607777062,-0.853203742106,nan,nan,nan,nan,nan,nan,nan,nan,218.572836255,672.917352299,nan,673.202345373,nan,nan,nan,nan
1,355,1,1,1.0,1.0,0.22308954841,0,0.0,0.0,0.0,0.465853818837,0.115423377795,0.350430441042,0.581277196632,0.115423377795,0.255630057538,28,1.0,0.082066132397,-1.0,nan,nan,nan,nan,nan,nan,nan,nan,218.572836255,673.859229721,nan,674.08231927,nan,nan,nan,nan
1,356,0,0,1.0,0.0,0.353351463564,0,0.0,0.0,0.0,0.465158219208,0.115986057377,0.349172161831,0.581144276585,0.115986057377,0.287144695195,305,0.00361192545304,0.406859252708,0.500196907155,nan,nan,nan,nan,nan,nan,nan,nan,218.572836255,674.800938936,nan,675.1542904,nan,nan,nan,nan
1,357,1,1,1.0,1.0,0.379532710125,0,0.0,0.0,0.0,0.464838771335,0.115973891098,0.348864880237,0.580812662433,0.115973891098,0.318657907366,437,0.23613482661,0.429770237144,-1.0,nan,nan,nan,nan,nan,nan,nan,nan,218.572836255,675.742728833,nan,676.122261543,nan,nan,nan,nan
1,358,1,1,1.0,1.0,0.405723934993,0,0.0,0.0,0.0,0.464595734123,0.115897791046,0.348697943077,0.58049352517,0.115897791046,0.379536036227,268,0.35230222188,0.302367520405,0.645005310408,nan,nan,nan,nan,nan,nan,nan,nan,218.572836255,676.684516165,nan,677.0902401,nan,nan,nan,nan
1,359,1,1,1.0,1.0,0.375939641672,0,0.0,0.0,0.0,0.464428484694,0.115775456529,0.348653028165,0.580203941223,0.115775456529,0.38706542893,219,0.871627318206,0.0840881726889,0.576959667802,nan,nan,nan,nan,nan,nan,nan,nan,218.572836255,677.626320317,nan,678.002259958,nan,nan,nan,nan
1,360,1,1,1.0,1.0,0.434077900311,0,0.0,0.0,0.0,0.464177808085,0.115706974859,0.348470833226,0.579884782944,0.115706974859,0.405247158992,103,1.0,-0.279537473278,-0.423758835275,nan,nan,nan,nan,nan,nan,nan,nan,218.572836255,678.568114205,nan,679.002192105,nan,nan,nan,nan
1,361,1,1,1.0,1.0,0.38029505749,0,0.0,0.0,0.0,0.464092780097,0.115554474742,0.348538305354,0.579647254839,0.115554474742,0.396770866491,204,1.0,0.00303256528985,0.499654420455,nan,nan,nan,nan,nan,nan,nan,nan,218.572836255,679.509907238,nan,679.890202296,nan,nan,nan,nan
1,362,1,1,1.0,1.0,0.478475943673,0,0.0,0.0,0.0,0.463856730174,0.115477044191,0.348379685983,0.579333774365,0.115477044191,0.430949633825,264,0.394966959701,0.287889713878,0.650717615019,nan,nan,nan,nan,nan,nan,nan,nan,218.572836255,680.451696565,nan,680.930172509,nan,nan,nan,nan
1,363,1,1,1.0,1.0,0.280570945237,0,0.0,0.0,0.0,0.46389779538,0.115317338989,0.348580456392,0.579215134369,0.115317338989,0.3797806488,117,1.0,-0.307587969795,-0.271886539361,nan,nan,nan,nan,nan,nan,nan,nan,218.572836255,681.393586531,nan,681.674157476,nan,nan,nan,nan
1,364,1,1,1.0,1.0,0.202849708381,0,1.0,0.0,0.0,0.463384274792,0.115562613037,0.347821661755,0.578946887829,0.115562613037,0.320632199097,232,0.739158239773,0.150046616059,0.623712016981,nan,nan,nan,nan,nan,nan,nan,nan,218.572836255,682.335281206,nan,682.538130915,nan,nan,nan,nan
1,365,1,1,1.0,1.0,0.25303035957,1,0.0,0.0,1.0,0.462656524606,0.116217418274,0.346439106332,0.578873942881,0.116217418274,0.245483671063,380,-0.109519508899,0.478533032186,-0.177177385375,-176.281006027,266.281006027,-0.906493973158,379.0,-0.113535935895,0.478614986251,-0.165970515924,1.18379643897,218.572836255,683.277080226,684.085487259,683.530110586,686.310854727,687.311021509,685.110597969,686.3024843
1,366,1,1,1.0,1.0,0.597336003382,0,0.0,0.0,0.0,0.462072607712,0.116580140163,0.345492467549,0.578652747876,0.116580140163,0.351072023778,65,1.0,-0.113312155659,-1.0,nan,nan,nan,nan,nan,nan,nan,nan,218.572836255,687.452633962,nan,688.049969965,nan,nan,nan,nan
1,367,0,0,0.0,1.0,0.567521489866,0,0.0,0.0,0.0,0.462448339367,0.116635578041,0.345812761326,0.579083917408,0.116635578041,0.472629284273,161,1.0,-0.223158351501,0.167490545043,nan,nan,nan,nan,nan,nan,nan,nan,218.572836255,688.394434407,nan,688.961955897,nan,nan,nan,nan
1,368,1,1,1.0,1.0,0.401734867832,0,0.0,0.0,0.0,0.462739400725,0.116604769477,0.346134631248,0.579344170203,0.116604769477,0.522197453693,272,0.310166696092,0.316214117232,0.637281430288,nan,nan,nan,nan,nan,nan,nan,nan,218.572836255,689.336218603,nan,689.737953471,nan,nan,nan,nan
1,369,1,1,1.0,1.0,0.331890271045,0,0.0,0.0,0.0,0.462570879916,0.116487615353,0.346083264563,0.579058495269,0.116487615353,0.433715542914,438,0.243622561222,0.428096439079,-1.0,nan,nan,nan,nan,nan,nan,nan,nan,218.572836255,690.278019333,nan,690.609909605,nan,nan,nan,nan
1,370,1,1,1.0,1.0,0.31804599578,0,0.0,0.0,0.0,0.462210878239,0.116528532979,0.34568234526,0.578739411218,0.116528532979,0.350557044886,340,-0.166837174664,0.460980112934,0.232376404312,nan,nan,nan,nan,nan,nan,nan,nan,218.572836255,691.219859978,nan,691.537905974,nan,nan,nan,nan
1,371,1,1,1.0,1.0,0.304288674786,0,1.0,0.0,0.0,0.46181482087,0.116612756735,0.345202064134,0.578427577605,0.116612756735,0.318074980537,202,1.0,-0.00802826454356,0.487596984314,nan,nan,nan,nan,nan,nan,nan,nan,218.572836255,692.161605115,nan,692.46589379,nan,nan,nan,nan
