block,trial,time,setsize,freqtrials,colorind,colordeg,colorrgb,correctresp,actualresp,acc,rts,probe_trials,fast_rt_trigger,slow_rt_trigger,rt_trailingavg,rt_runningavg,rt_runningstd,rt_runningslowthresh,rt_runningfastthresh,wm_mousepos,wm_respdeg,wm_colorind,wm_colorrgb,wm_colorhsv,wm_degdiff,wm_rts,timeBlockStart,timeEncArrayOnset,timeResponse,timeProbeOnset,timeProbeOffset
0,0,17:37:43:745000,6,1,429,301.640625,[ 0.17753182  0.44208078 -0.9018852 ],1,nan,nan,nan,0,nan,nan,nan,nan,nan,nan,nan,nan,nan,nan,[ nan  nan  nan],nan,nan,nan,218.5728363,219.6144007,nan,nan,nan
0,1,17:37:44:681000,6,1,12,8.4375,[ 0.94247669  0.15927395 -1.        ],1,1,1,0.04061168,0,nan,nan,nan,nan,nan,nan,nan,nan,nan,nan,[ nan  nan  nan],nan,nan,nan,218.5728363,220.5562208,220.5968325,nan,nan
0,2,17:37:45:633000,6,1,304,213.75,[ 0.01130928  0.40470892  0.50616037],1,1,1,0.64279546,0,nan,nan,nan,nan,nan,nan,nan,nan,nan,nan,[ nan  nan  nan],nan,nan,nan,218.5728363,221.4979797,222.1407751,nan,nan
0,3,17:37:50:703000,6,1,384,270,[-0.09247501  0.47794532 -0.22247927],1,1,1,0.51701868,1,nan,nan,nan,nan,nan,nan,nan,nan,-148.7023002,339,[-0.16495584  0.45996923  0.2414231 ],nan,-31.29769984,2.083947169,218.5728363,222.439755,222.9567737,224.2649628,226.3569169
0,4,17:37:51:639000,6,1,317,222.890625,[-0.07777284  0.42993861  0.42073361],1,1,1,0.553093908,0,nan,nan,nan,nan,nan,nan,nan,nan,nan,nan,[ nan  nan  nan],nan,nan,nan,218.5728363,227.5155154,228.0686093,nan,nan
0,5,17:37:52:590000,6,1,233,163.828125,[ 0.7286704   0.15490978  0.62648223],1,1,1,0.483334554,0,nan,nan,nan,nan,nan,nan,nan,nan,nan,nan,[ nan  nan  nan],nan,nan,nan,218.5728363,228.4572588,228.9405933,nan,nan
0,6,17:37:53:526000,6,1,286,201.09375,[ 0.16907896  0.35973478  0.59469871],1,1,1,0.413518182,0,nan,nan,nan,nan,nan,nan,nan,nan,nan,nan,[ nan  nan  nan],nan,nan,nan,218.5728363,229.3990538,229.812572,nan,nan
0,7,17:37:54:478000,6,1,133,93.515625,[ 1.         -0.30625957 -0.10533643],1,1,1,0.695693934,0,nan,nan,nan,nan,nan,nan,nan,nan,nan,nan,[ nan  nan  nan],nan,nan,nan,218.5728363,230.3408508,231.0365448,nan,nan
0,8,17:37:55:414000,6,1,451,317.109375,[ 0.34383096  0.40351836 -1.        ],1,1,1,0.609875393,0,nan,nan,nan,nan,nan,nan,nan,nan,nan,nan,[ nan  nan  nan],nan,nan,nan,218.5728363,231.2826519,231.8925273,nan,nan
0,9,17:38:01:326000,6,1,158,111.09375,[ 1.         -0.23594923  0.13976411],1,1,1,0.56405586,1,nan,nan,nan,nan,nan,nan,nan,nan,-37.72499504,182,[ 1.         -0.11852384  0.34708947],nan,16.63124504,2.917352299,218.5728363,232.2244438,232.7884996,234.0496259,236.9750253
0,10,17:38:02:262000,6,1,383,269.296875,[-0.09687871  0.47813121 -0.21108141],1,1,1,0.662816346,0,nan,nan,nan,nan,nan,nan,nan,nan,nan,nan,[ nan  nan  nan],nan,nan,nan,218.5728363,238.1335796,238.7963959,nan,nan
0,11,17:38:03:198000,6,0,54,37.96875,[ 1.         -0.05462921 -1.        ],0,0,1,0.568999144,0,nan,nan,nan,nan,nan,nan,nan,nan,nan,nan,[ nan  nan  nan],nan,nan,nan,218.5728363,239.075376,239.6443752,nan,nan
0,12,17:38:04:150000,6,1,260,182.8125,[ 0.43801664  0.27278198  0.65440657],1,1,1,0.523143688,0,nan,nan,nan,nan,nan,nan,nan,nan,nan,nan,[ nan  nan  nan],nan,nan,nan,218.5728363,240.0172232,240.5403669,nan,nan
0,13,17:38:05:086000,6,0,360,253.125,[-0.1677095   0.47518832  0.03812586],0,0,1,0.501363473,0,nan,nan,nan,nan,nan,nan,nan,nan,nan,nan,[ nan  nan  nan],nan,nan,nan,218.5728363,240.9589672,241.4603307,nan,nan
0,14,17:38:06:038000,6,1,126,88.59375,[ 1.         -0.31141175 -0.17740843],1,1,1,0.455565607,0,nan,nan,nan,nan,nan,nan,nan,nan,nan,nan,[ nan  nan  nan],nan,nan,nan,218.5728363,241.9007583,242.3563239,nan,nan
0,15,17:38:06:974000,6,1,18,12.65625,[ 0.9886827   0.13116258 -1.        ],1,1,1,0.425744536,0,nan,nan,nan,nan,nan,nan,nan,nan,nan,nan,[ nan  nan  nan],nan,nan,nan,218.5728363,242.8425516,243.2682961,nan,nan
0,16,17:38:07:910000,6,1,455,319.921875,[ 0.37560825  0.39487537 -1.        ],1,1,1,0.443898327,0,nan,nan,nan,nan,nan,nan,nan,nan,nan,nan,[ nan  nan  nan],nan,nan,nan,218.5728363,243.78437,244.2282683,nan,nan
0,17,17:38:08:861000,6,1,9,6.328125,[ 0.91893356  0.17291669 -1.        ],1,1,1,0.422107278,0,nan,nan,nan,nan,nan,nan,nan,nan,nan,nan,[ nan  nan  nan],nan,nan,nan,218.5728363,244.7261428,245.1482501,nan,nan
0,18,17:38:09:797000,6,1,382,268.59375,[-0.10118876  0.47829114 -0.19973227],1,1,1,0.45625725,0,nan,nan,nan,nan,nan,nan,nan,nan,nan,nan,[ nan  nan  nan],nan,nan,nan,218.5728363,245.6679412,246.1241985,nan,nan
0,19,17:38:10:733000,6,1,203,142.734375,[ 1.         -0.00249325  0.49367467],1,1,1,0.442464292,0,nan,nan,nan,nan,nan,nan,nan,nan,nan,nan,[ nan  nan  nan],nan,nan,nan,218.5728363,246.6097346,247.0521988,nan,nan
0,20,17:38:11:685000,6,1,501,352.265625,[ 0.75644923  0.25625354 -1.        ],1,1,1,0.48456617,0,nan,nan,nan,nan,nan,nan,nan,nan,nan,nan,[ nan  nan  nan],nan,nan,nan,218.5728363,247.5516117,248.0361779,nan,nan
0,21,17:38:12:621000,6,0,151,106.171875,[ 1.         -0.26272029  0.07346267],0,0,1,0.526838821,0,nan,nan,nan,nan,nan,nan,nan,nan,nan,nan,[ nan  nan  nan],nan,nan,nan,218.5728363,248.4933255,249.0201643,nan,nan
0,22,17:38:13:573000,6,1,237,166.640625,[ 0.6863873   0.17403185  0.63634982],1,1,1,0.633006965,0,nan,nan,nan,nan,nan,nan,nan,nan,nan,nan,[ nan  nan  nan],nan,nan,nan,218.5728363,249.4351322,250.0681392,nan,nan
0,23,17:38:14:509000,6,1,352,247.5,[-0.17544713  0.4708516   0.11867359],1,nan,nan,nan,0,nan,nan,nan,nan,nan,nan,nan,nan,nan,nan,[ nan  nan  nan],nan,nan,nan,218.5728363,250.3769178,nan,nan,nan
0,24,17:38:15:445000,6,1,1,0.703125,[ 0.85493913  0.20787707 -1.        ],1,nan,nan,nan,0,nan,nan,nan,nan,nan,nan,nan,nan,nan,nan,[ nan  nan  nan],nan,nan,nan,218.5728363,251.3187131,nan,nan,nan
0,25,17:38:16:396000,6,1,244,171.5625,[ 0.61137236  0.20616355  0.64888072],1,1,1,0.071536073,0,nan,nan,nan,nan,nan,nan,nan,nan,nan,nan,[ nan  nan  nan],nan,nan,nan,218.5728363,252.2605082,252.3320442,nan,nan
0,26,17:38:17:332000,6,1,306,215.15625,[-0.00395437  0.40897401  0.49412883],1,1,1,0.441756683,0,nan,nan,nan,nan,nan,nan,nan,nan,nan,nan,[ nan  nan  nan],nan,nan,nan,218.5728363,253.2023006,253.6440573,nan,nan
0,27,17:38:18:268000,6,1,147,103.359375,[ 1.         -0.27580113  0.03467205],1,1,1,0.507881059,0,nan,nan,nan,nan,nan,nan,nan,nan,nan,nan,[ nan  nan  nan],nan,nan,nan,218.5728363,254.1441561,254.6520371,nan,nan
0,28,17:38:19:220000,6,1,459,322.734375,[ 0.40775816  0.38570917 -1.        ],1,1,1,0.541996535,0,nan,nan,nan,nan,nan,nan,nan,nan,nan,nan,[ nan  nan  nan],nan,nan,nan,218.5728363,255.0859987,255.6279953,nan,nan
0,29,17:38:20:156000,6,1,159,111.796875,[ 1.         -0.23176597  0.14905501],1,1,1,0.552320441,0,nan,nan,nan,nan,nan,nan,nan,nan,nan,nan,[ nan  nan  nan],nan,nan,nan,218.5728363,256.0276506,256.5799711,nan,nan
0,30,17:38:21:092000,6,1,259,182.109375,[ 0.44882283  0.26890698  0.65501178],1,1,1,0.522470006,0,nan,nan,nan,nan,nan,nan,nan,nan,nan,nan,[ nan  nan  nan],nan,nan,nan,218.5728363,256.9694822,257.4919522,nan,nan
0,31,17:38:22:043000,6,1,196,137.8125,[ 1.         -0.04136108  0.44913076],1,1,1,0.604629621,0,nan,nan,nan,nan,nan,nan,nan,nan,nan,nan,[ nan  nan  nan],nan,nan,nan,218.5728363,257.911274,258.5159037,nan,nan
0,32,17:38:22:979000,6,1,141,99.140625,[ 1.         -0.29195274 -0.02458685],1,1,1,0.574839626,0,nan,nan,nan,nan,nan,nan,nan,nan,nan,nan,[ nan  nan  nan],nan,nan,nan,218.5728363,258.8530705,259.4279101,nan,nan
0,33,17:38:23:931000,6,1,85,59.765625,[ 1.         -0.21215645 -0.63878123],1,1,1,0.569020241,0,nan,nan,nan,nan,nan,nan,nan,nan,nan,nan,[ nan  nan  nan],nan,nan,nan,218.5728363,259.7948641,260.3638843,nan,nan
0,34,17:38:24:867000,6,1,301,211.640625,[ 0.03515994  0.39804276  0.52341451],1,1,1,0.539220267,0,nan,nan,nan,nan,nan,nan,nan,nan,nan,nan,[ nan  nan  nan],nan,nan,nan,218.5728363,260.7366403,261.2758606,nan,nan
0,35,17:38:25:803000,6,1,246,172.96875,[ 0.58976884  0.2150199   0.65133953],1,1,1,0.445370849,0,nan,nan,nan,nan,nan,nan,nan,nan,nan,nan,[ nan  nan  nan],nan,nan,nan,218.5728363,261.6784576,262.1238284,nan,nan
0,36,17:38:26:755000,6,1,347,243.984375,[-0.17493884  0.46723881  0.16715748],1,1,1,0.47149137,0,nan,nan,nan,nan,nan,nan,nan,nan,nan,nan,[ nan  nan  nan],nan,nan,nan,218.5728363,262.6203099,263.0918013,nan,nan
0,37,17:38:27:691000,6,1,268,188.4375,[ 0.35230222  0.30236752  0.64500531],1,1,1,0.529732833,0,nan,nan,nan,nan,nan,nan,nan,nan,nan,nan,[ nan  nan  nan],nan,nan,nan,218.5728363,263.5620471,264.0917799,nan,nan
0,38,17:38:28:627000,6,1,405,284.765625,[ 0.01846332  0.46800938 -0.47629333],1,1,1,0.539917898,0,nan,nan,nan,nan,nan,nan,nan,nan,nan,nan,[ nan  nan  nan],nan,nan,nan,218.5728363,264.5038469,265.0437648,nan,nan
0,39,17:38:33:650000,6,1,196,137.8125,[ 1.         -0.04136108  0.44913076],1,1,1,0.462131089,1,nan,nan,nan,nan,nan,nan,nan,nan,-47.61168138,196,[ 1.         -0.04136108  0.44913076],nan,-0.200818622,2.017335279,218.5728363,265.4456391,265.9077702,267.2791583,269.3044335
0,40,17:38:34:586000,6,0,400,281.25,[-0.01078748  0.4714273  -0.41269269],0,0,1,0.756956278,0,nan,nan,nan,nan,nan,nan,nan,nan,nan,nan,[ nan  nan  nan],nan,nan,nan,218.5728363,270.4546678,271.2116241,nan,nan
0,41,17:38:35:522000,6,1,78,54.84375,[ 1.         -0.17946765 -0.73990763],1,1,1,0.69516166,0,nan,nan,nan,nan,nan,nan,nan,nan,nan,nan,[ nan  nan  nan],nan,nan,nan,218.5728363,271.3964412,272.0916029,nan,nan
0,42,17:38:36:473000,6,1,196,137.8125,[ 1.         -0.04136108  0.44913076],1,1,1,0.745268471,0,nan,nan,nan,nan,nan,nan,nan,nan,nan,nan,[ nan  nan  nan],nan,nan,nan,218.5728363,272.3383124,273.0835808,nan,nan
0,43,17:38:37:409000,6,1,264,185.625,[ 0.39496696  0.28788971  0.65071762],1,1,1,0.699513369,0,nan,nan,nan,nan,nan,nan,nan,nan,nan,nan,[ nan  nan  nan],nan,nan,nan,218.5728363,273.2800415,273.9795549,nan,nan
0,44,17:38:38:345000,6,1,366,257.34375,[-0.15559338  0.47730203 -0.02447665],1,1,1,0.669684886,0,nan,nan,nan,nan,nan,nan,nan,nan,nan,nan,[ nan  nan  nan],nan,nan,nan,218.5728363,274.2218417,274.8915266,nan,nan
0,45,17:38:39:297000,6,1,233,163.828125,[ 0.7286704   0.15490978  0.62648223],1,1,1,0.479901425,0,nan,nan,nan,nan,nan,nan,nan,nan,nan,nan,[ nan  nan  nan],nan,nan,nan,218.5728363,275.1636185,275.6435199,nan,nan
0,46,17:38:40:233000,6,0,295,207.421875,[ 0.08602229  0.38372732  0.55498608],0,0,1,0.458079016,0,nan,nan,nan,nan,nan,nan,nan,nan,nan,nan,[ nan  nan  nan],nan,nan,nan,218.5728363,276.1054206,276.5634996,nan,nan
0,47,17:38:41:185000,6,1,348,244.6875,[-0.17538477  0.46801784  0.15758216],1,1,1,0.388290868,0,nan,nan,nan,nan,nan,nan,nan,nan,nan,nan,[ nan  nan  nan],nan,nan,nan,218.5728363,277.0472182,277.4355091,nan,nan
0,48,17:38:42:121000,6,1,102,71.71875,[ 1.         -0.27661034 -0.43492695],1,1,1,0.462501714,0,nan,nan,nan,nan,nan,nan,nan,nan,nan,nan,[ nan  nan  nan],nan,nan,nan,218.5728363,277.9889799,278.4514816,nan,nan
0,49,17:38:43:057000,6,0,482,338.90625,[ 0.59765563  0.32248081 -1.        ],0,0,1,0.48865103,0,nan,nan,nan,nan,nan,nan,nan,nan,nan,nan,[ nan  nan  nan],nan,nan,nan,218.5728363,278.9308066,279.4194576,nan,nan
0,50,17:38:44:008000,6,1,128,90,[ 1.         -0.31066301 -0.15668979],1,1,1,0.426770027,0,nan,nan,nan,nan,nan,nan,nan,nan,nan,nan,[ nan  nan  nan],nan,nan,nan,218.5728363,279.8726723,280.2994423,nan,nan
0,51,17:38:44:944000,6,1,64,45,[ 1.         -0.10803687 -1.        ],1,1,1,0.381020342,0,nan,nan,nan,nan,nan,nan,nan,nan,nan,nan,[ nan  nan  nan],nan,nan,nan,218.5728363,280.814402,281.1954224,nan,nan
0,52,17:38:45:880000,6,1,355,249.609375,[-0.17373746  0.47268386  0.08887998],1,1,1,0.423176104,0,nan,nan,nan,nan,nan,nan,nan,nan,nan,nan,[ nan  nan  nan],nan,nan,nan,218.5728363,281.7561919,282.179368,nan,nan
0,53,17:38:46:832000,6,1,272,191.25,[ 0.3101667   0.31621412  0.63728143],1,1,1,0.449372175,0,nan,nan,nan,nan,nan,nan,nan,nan,nan,nan,[ nan  nan  nan],nan,nan,nan,218.5728363,282.6979855,283.1473577,nan,nan
0,54,17:38:47:768000,6,1,71,49.921875,[ 1.         -0.14450407 -0.87798077],1,1,1,0.475573664,0,nan,nan,nan,nan,nan,nan,nan,nan,nan,nan,[ nan  nan  nan],nan,nan,nan,218.5728363,283.6397828,284.1153565,nan,nan
0,55,17:38:48:719000,6,1,436,306.5625,[ 0.22868171  0.43141373 -1.        ],1,1,1,0.469747721,0,nan,nan,nan,nan,nan,nan,nan,nan,nan,nan,[ nan  nan  nan],nan,nan,nan,218.5728363,284.5815784,285.0513262,nan,nan
0,56,17:38:56:566000,6,1,380,267.1875,[-0.10951951  0.47853303 -0.17717739],1,1,1,0.447936716,1,nan,nan,nan,nan,nan,nan,nan,nan,-163.4651621,360,[-0.1677095   0.47518832  0.03812586],nan,-13.72233786,4.867756381,218.5728363,285.5233669,285.9713036,287.3485567,292.2242356
0,57,17:38:57:502000,6,0,194,136.40625,[ 1.         -0.05248646  0.4355717 ],0,0,1,0.644673104,0,nan,nan,nan,nan,nan,nan,nan,nan,nan,nan,[ nan  nan  nan],nan,nan,nan,218.5728363,293.3744389,294.019112,nan,nan
0,58,17:38:58:454000,6,1,406,285.46875,[ 0.02449675  0.4672457  -0.4893661 ],1,1,1,0.5908723,0,nan,nan,nan,nan,nan,nan,nan,nan,nan,nan,[ nan  nan  nan],nan,nan,nan,218.5728363,294.3162351,294.9071074,nan,nan
0,59,17:38:59:390000,6,1,450,316.40625,[ 0.33594973  0.40559833 -1.        ],1,1,1,0.569037917,0,nan,nan,nan,nan,nan,nan,nan,nan,nan,nan,[ nan  nan  nan],nan,nan,nan,218.5728363,295.2580327,295.8270706,nan,nan
0,60,17:39:00:326000,6,1,499,350.859375,[ 0.73983189  0.26382776 -1.        ],1,1,1,0.539236518,0,nan,nan,nan,nan,nan,nan,nan,nan,nan,nan,[ nan  nan  nan],nan,nan,nan,218.5728363,296.1998248,296.7390614,nan,nan
0,61,17:39:01:277000,6,1,161,113.203125,[ 1.         -0.22315835  0.16749055],1,1,1,0.557421384,0,nan,nan,nan,nan,nan,nan,nan,nan,nan,nan,[ nan  nan  nan],nan,nan,nan,218.5728363,297.1416193,297.6990407,nan,nan
0,62,17:39:02:213000,6,1,205,144.140625,[ 1.          0.008548    0.50553524],1,1,1,0.479599793,0,nan,nan,nan,nan,nan,nan,nan,nan,nan,nan,[ nan  nan  nan],nan,nan,nan,218.5728363,298.0834129,298.5630127,nan,nan
0,63,17:39:03:149000,6,1,408,286.875,[ 0.03673793  0.46563766 -0.51593845],1,1,1,0.50579786,0,nan,nan,nan,nan,nan,nan,nan,nan,nan,nan,[ nan  nan  nan],nan,nan,nan,218.5728363,299.0251974,299.5309952,nan,nan
0,64,17:39:04:101000,6,1,287,201.796875,[ 0.15950165  0.36255249  0.59075192],1,1,1,0.483956635,0,nan,nan,nan,nan,nan,nan,nan,nan,nan,nan,[ nan  nan  nan],nan,nan,nan,218.5728363,299.9670184,300.450975,nan,nan
0,65,17:39:05:037000,6,1,408,286.875,[ 0.03673793  0.46563766 -0.51593845],1,1,1,0.470146571,0,nan,nan,nan,nan,nan,nan,nan,nan,nan,nan,[ nan  nan  nan],nan,nan,nan,218.5728363,300.9087986,301.3789451,nan,nan
0,66,17:39:05:989000,6,1,149,104.765625,[ 1.         -0.26947852  0.05414366],1,1,1,0.480339618,0,nan,nan,nan,nan,nan,nan,nan,nan,nan,nan,[ nan  nan  nan],nan,nan,nan,218.5728363,301.8505942,302.3309338,nan,nan
0,67,17:39:06:925000,6,1,430,302.34375,[ 0.18472502  0.44064573 -0.94190417],1,1,1,0.474527645,0,nan,nan,nan,nan,nan,nan,nan,nan,nan,nan,[ nan  nan  nan],nan,nan,nan,218.5728363,302.792386,303.2669137,nan,nan
0,68,17:39:07:861000,6,1,176,123.75,[ 1.         -0.15042967  0.29867547],1,1,1,0.56469305,0,nan,nan,nan,nan,nan,nan,nan,nan,nan,nan,[ nan  nan  nan],nan,nan,nan,218.5728363,303.7341911,304.2988841,nan,nan
0,69,17:39:08:812000,6,0,227,159.609375,[ 0.79101995  0.12525779  0.60806671],0,0,1,0.582863946,0,nan,nan,nan,nan,nan,nan,nan,nan,nan,nan,[ nan  nan  nan],nan,nan,nan,218.5728363,304.6759821,305.258846,nan,nan
0,70,17:39:09:748000,6,1,102,71.71875,[ 1.         -0.27661034 -0.43492695],1,1,1,0.52907027,0,nan,nan,nan,nan,nan,nan,nan,nan,nan,nan,[ nan  nan  nan],nan,nan,nan,218.5728363,305.6177728,306.1468431,nan,nan
0,71,17:39:10:684000,6,1,19,13.359375,[ 0.99625917  0.12637453 -1.        ],1,1,1,0.499238935,0,nan,nan,nan,nan,nan,nan,nan,nan,nan,nan,[ nan  nan  nan],nan,nan,nan,218.5728363,306.5595699,307.0588088,nan,nan
0,72,17:39:11:636000,6,1,98,68.90625,[ 1.         -0.26382291 -0.48021779],1,1,1,0.4613485,0,nan,nan,nan,nan,nan,nan,nan,nan,nan,nan,[ nan  nan  nan],nan,nan,nan,218.5728363,307.5014481,307.9627966,nan,nan
0,73,17:39:12:572000,6,1,20,14.0625,[ 1.          0.12155819 -1.        ],1,1,1,0.471619093,0,nan,nan,nan,nan,nan,nan,nan,nan,nan,nan,[ nan  nan  nan],nan,nan,nan,218.5728363,308.4431585,308.9147776,nan,nan
0,74,17:39:13:523000,6,1,506,355.78125,[ 0.79777474  0.23670313 -1.        ],1,1,1,0.465799708,0,nan,nan,nan,nan,nan,nan,nan,nan,nan,nan,[ nan  nan  nan],nan,nan,nan,218.5728363,309.384955,309.8507547,nan,nan
0,75,17:39:14:459000,6,1,59,41.484375,[ 1.         -0.08144099 -1.        ],1,1,1,0.571982391,0,nan,nan,nan,nan,nan,nan,nan,nan,nan,nan,[ nan  nan  nan],nan,nan,nan,218.5728363,310.326748,310.8987304,nan,nan
0,76,17:39:15:395000,6,1,402,282.65625,[ 0.00072492  0.47013996 -0.43781156],1,1,1,0.526144612,0,nan,nan,nan,nan,nan,nan,nan,nan,nan,nan,[ nan  nan  nan],nan,nan,nan,218.5728363,311.2685501,311.7946948,nan,nan
0,77,17:39:16:347000,6,1,230,161.71875,[ 0.76002313  0.14022421  0.6178111 ],1,1,1,0.456354753,0,nan,nan,nan,nan,nan,nan,nan,nan,nan,nan,[ nan  nan  nan],nan,nan,nan,218.5728363,312.2103295,312.6666842,nan,nan
0,78,17:39:17:283000,6,1,67,47.109375,[ 1.         -0.12380467 -1.        ],1,1,1,0.386524126,0,nan,nan,nan,nan,nan,nan,nan,nan,nan,nan,[ nan  nan  nan],nan,nan,nan,218.5728363,313.1521282,313.5386524,nan,nan
0,79,17:39:18:219000,6,1,377,265.078125,[-0.12125986  0.47870083 -0.1436959 ],1,1,1,0.516709921,0,nan,nan,nan,nan,nan,nan,nan,nan,nan,nan,[ nan  nan  nan],nan,nan,nan,218.5728363,314.0939253,314.6106352,nan,nan
0,80,17:39:19:171000,6,1,466,327.65625,[ 0.46478901  0.3683856  -1.        ],1,1,1,0.446816572,0,0,0,0.450016873,0.50891751,0.110758601,0.619676111,0.398158909,nan,nan,nan,[ nan  nan  nan],nan,nan,nan,218.5728363,315.0358007,315.4826173,nan,nan
0,81,17:39:20:107000,6,1,116,81.5625,[ 1.         -0.30644692 -0.28251544],1,1,1,0.489075823,0,0,0,0.484200772,0.508121344,0.110267862,0.618389206,0.397853482,nan,nan,nan,[ nan  nan  nan],nan,nan,nan,218.5728363,315.977517,316.4665928,nan,nan
0,82,17:39:21:058000,6,1,240,168.75,[ 0.65437302  0.18801506  0.64246395],1,1,1,0.56327213,0,0,0,0.499721508,0.507880261,0.109588427,0.617468688,0.398291835,nan,nan,nan,[ nan  nan  nan],nan,nan,nan,218.5728363,316.9193163,317.4825885,nan,nan
0,83,17:39:21:994000,6,1,155,108.984375,[ 1.         -0.24798314  0.11161188],1,1,1,0.565447414,0,0,0,0.539265123,0.50857266,0.109075097,0.617647757,0.399497563,nan,nan,nan,[ nan  nan  nan],nan,nan,nan,218.5728363,317.8611051,318.4265525,nan,nan
0,84,17:39:22:930000,6,1,30,21.09375,[ 1.          0.07194566 -1.        ],1,1,1,0.535625203,0,0,0,0.554781583,0.509274817,0.108581479,0.617856297,0.400693338,nan,nan,nan,[ nan  nan  nan],nan,nan,nan,218.5728363,318.8029007,319.3385259,nan,nan
0,85,17:39:23:882000,6,1,215,151.171875,[ 0.91063986  0.06289474  0.55869515],1,1,1,0.545815114,0,0,0,0.548962577,0.509596163,0.107956113,0.617552276,0.401640051,nan,nan,nan,[ nan  nan  nan],nan,nan,nan,218.5728363,319.744696,320.2905111,nan,nan
0,86,17:39:24:818000,6,1,78,54.84375,[ 1.         -0.17946765 -0.73990763],1,1,1,0.468009489,0,0,0,0.516483269,0.510032536,0.107376538,0.617409074,0.402655998,nan,nan,nan,[ nan  nan  nan],nan,nan,nan,218.5728363,320.6864785,321.154488,nan,nan
0,87,17:39:25:754000,6,1,241,169.453125,[ 0.64365311  0.19260594  0.64425478],1,1,1,0.550183075,0,0,0,0.521335893,0.509532262,0.106832743,0.616365005,0.402699518,nan,nan,nan,[ nan  nan  nan],nan,nan,nan,218.5728363,321.6282866,322.1784697,nan,nan
0,88,17:39:26:705000,6,1,485,341.015625,[ 0.62277456  0.31287562 -1.        ],1,1,1,0.512386721,0,0,0,0.510193095,0.510010507,0.106292869,0.616303376,0.403717638,nan,nan,nan,[ nan  nan  nan],nan,nan,nan,218.5728363,322.5700674,323.0824541,nan,nan
0,89,17:39:27:641000,6,0,391,274.921875,[-0.0591908   0.47591628 -0.30371871],0,0,1,0.586543684,0,0,0,0.549704493,0.510038137,0.105673387,0.615711525,0.40436475,nan,nan,nan,[ nan  nan  nan],nan,nan,nan,218.5728363,323.5118733,324.0984169,nan,nan
0,90,17:39:28:593000,6,1,472,331.875,[ 0.51429865  0.35221228 -1.        ],1,1,1,0.532731191,0,0,0,0.543887198,0.510917511,0.105380329,0.61629784,0.405537182,nan,nan,nan,[ nan  nan  nan],nan,nan,nan,218.5728363,324.453672,324.9864032,nan,nan
0,91,17:39:29:529000,6,1,380,267.1875,[-0.10951951  0.47853303 -0.17717739],1,1,1,0.542909698,0,0,0,0.554061524,0.511165394,0.104805373,0.615970767,0.406360021,nan,nan,nan,[ nan  nan  nan],nan,nan,nan,218.5728363,325.3954599,325.9383696,nan,nan
0,92,17:39:30:465000,6,1,115,80.859375,[ 1.         -0.30516629 -0.29317275],1,1,1,0.529142114,0,0,0,0.534927668,0.511522072,0.104268614,0.615790686,0.407253458,nan,nan,nan,[ nan  nan  nan],nan,nan,nan,218.5728363,326.3372173,326.8663594,nan,nan
0,93,17:39:31:417000,6,1,393,276.328125,[-0.04894566  0.47510217 -0.32744323],1,1,1,0.571286756,0,0,0,0.547779523,0.51171785,0.103704174,0.615422024,0.408013675,nan,nan,nan,[ nan  nan  nan],nan,nan,nan,218.5728363,327.2790537,327.8503404,nan,nan
0,94,17:39:32:353000,6,1,243,170.859375,[ 0.62215101  0.20168048  0.64746348],1,1,1,0.47747326,0,0,0,0.525967377,0.512372453,0.103319598,0.615692051,0.409052855,nan,nan,nan,[ nan  nan  nan],nan,nan,nan,218.5728363,328.220847,328.6983202,nan,nan
0,95,17:39:33:289000,6,1,138,97.03125,[ 1.         -0.29832988 -0.05465081],1,1,1,0.391649872,0,0,0,0.48013663,0.511993114,0.102820242,0.614813356,0.409172872,nan,nan,nan,[ nan  nan  nan],nan,nan,nan,218.5728363,329.1626432,329.554293,nan,nan
0,96,17:39:34:240000,6,1,394,277.03125,[-0.04370902  0.47465593 -0.33940142],1,1,1,0.441770938,0,0,0,0.43696469,0.510699101,0.103016387,0.613715488,0.407682714,nan,nan,nan,[ nan  nan  nan],nan,nan,nan,218.5728363,330.1045154,330.5462864,nan,nan
0,97,17:39:35:176000,6,1,39,27.421875,[ 1.          0.02537899 -1.        ],1,1,1,0.428027017,0,0,0,0.420482609,0.509965822,0.102710682,0.612676504,0.407255141,nan,nan,nan,[ nan  nan  nan],nan,nan,nan,218.5728363,331.0462264,331.4742534,nan,nan
0,98,17:39:36:128000,6,0,483,339.609375,[ 0.60602571  0.31931445 -1.        ],0,0,1,0.534213977,0,0,0,0.468003977,0.509103309,0.102510323,0.611613632,0.406592985,nan,nan,nan,[ nan  nan  nan],nan,nan,nan,218.5728363,331.9880277,332.5222416,nan,nan
0,99,17:39:37:064000,6,1,333,234.140625,[-0.14981348  0.45327595  0.29418374],1,1,1,0.496392819,0,0,0,0.486211271,0.509364878,0.102006882,0.61137176,0.407357996,nan,nan,nan,[ nan  nan  nan],nan,nan,nan,218.5728363,332.929817,333.4262098,nan,nan
0,100,17:39:38:000000,6,1,407,286.171875,[ 0.03058863  0.46645515 -0.50257741],1,1,1,0.450578703,0,0,0,0.4937285,0.509231146,0.10148817,0.610719316,0.407742975,nan,nan,nan,[ nan  nan  nan],nan,nan,nan,218.5728363,333.8716177,334.3221964,nan,nan
0,101,17:39:38:951000,6,1,167,117.421875,[ 1.         -0.19560581  0.22154672],1,1,1,0.452762255,0,0,0,0.466577926,0.508632651,0.101140957,0.609773608,0.407491694,nan,nan,nan,[ nan  nan  nan],nan,nan,nan,218.5728363,334.8134096,335.2661719,nan,nan
0,102,17:39:39:887000,6,1,415,291.796875,[ 0.08130773  0.45915368 -0.61496802],1,1,1,0.502929792,0,0,0,0.468756917,0.508068304,0.100783812,0.608852116,0.407284492,nan,nan,nan,[ nan  nan  nan],nan,nan,nan,218.5728363,335.7552046,336.2581344,nan,nan
0,103,17:39:40:823000,6,1,88,61.875,[ 1.         -0.22525759 -0.59993285],1,1,1,0.4651246,0,0,0,0.473605549,0.508016919,0.10027993,0.608296849,0.407736988,nan,nan,nan,[ nan  nan  nan],nan,nan,nan,218.5728363,336.6970011,337.1621257,nan,nan
0,104,17:39:41:775000,6,1,3,2.109375,[ 0.87108718  0.19933511 -1.        ],1,1,1,0.40322193,0,0,0,0.457092107,0.507592242,0.099872591,0.607464833,0.407719651,nan,nan,nan,[ nan  nan  nan],nan,nan,nan,218.5728363,337.6388768,338.0420987,nan,nan
0,105,17:39:42:711000,6,1,346,243.28125,[-0.17431756  0.46643129  0.17667017],1,1,1,0.365496565,0,0,0,0.411281032,0.506569004,0.09991243,0.606481434,0.406656574,nan,nan,nan,[ nan  nan  nan],nan,nan,nan,218.5728363,338.5805863,338.9460829,nan,nan
0,106,17:39:43:647000,6,1,467,328.359375,[ 0.47300519  0.36577567 -1.        ],1,1,1,0.335676064,0,1,0,0.36813152,0.505199369,0.100383854,0.605583222,0.404815515,nan,nan,nan,[ nan  nan  nan],nan,nan,nan,218.5728363,339.5223848,339.8580608,nan,nan
0,107,17:39:50:215000,6,1,317,222.890625,[-0.07777284  0.42993861  0.42073361],1,1,1,0.2978646,1,0,0,0.33301241,0.503569337,0.101260535,0.604829872,0.402308802,nan,169.0631511,400,[-0.01078748  0.4714273  -0.41269269],nan,58.04622395,3.55909832,218.5728363,340.4641747,340.7620393,342.2977203,345.8648413
0,108,17:39:51:151000,6,0,388,272.8125,[-0.07396337  0.47694192 -0.26857716],0,0,1,0.578443528,0,0,0,0.403994731,0.501610244,0.102738495,0.604348739,0.398871749,nan,nan,nan,[ nan  nan  nan],nan,nan,nan,218.5728363,347.023407,347.6018505,nan,nan
0,109,17:39:52:102000,6,1,134,94.21875,[ 1.         -0.304951   -0.09514411],1,1,1,0.540657153,0,0,0,0.47232176,0.502335086,0.102522132,0.604857219,0.399812954,nan,nan,nan,[ nan  nan  nan],nan,nan,nan,218.5728363,347.9652185,348.5058757,nan,nan
0,110,17:39:53:038000,6,1,52,36.5625,[ 1.         -0.04388606 -1.        ],1,1,1,0.542809915,0,0,0,0.553970199,0.502693237,0.102108534,0.604801771,0.400584702,nan,nan,nan,[ nan  nan  nan],nan,nan,nan,218.5728363,348.906991,349.449801,nan,nan
0,111,17:39:53:974000,6,1,385,270.703125,[-0.08797966  0.47773344 -0.23392672],1,1,1,0.425029515,0,0,0,0.502832194,0.503064687,0.101707314,0.604772001,0.401357374,nan,nan,nan,[ nan  nan  nan],nan,nan,nan,218.5728363,349.8487846,350.2738142,nan,nan
0,112,17:39:54:926000,6,1,161,113.203125,[ 1.         -0.22315835  0.16749055],1,1,1,0.395194474,0,0,0,0.454344634,0.502348768,0.101512706,0.603861474,0.400836062,nan,nan,nan,[ nan  nan  nan],nan,nan,nan,218.5728363,350.790568,351.1857625,nan,nan
0,113,17:39:55:862000,6,1,244,171.5625,[ 0.61137236  0.20616355  0.64888072],1,1,1,0.381413775,0,0,0,0.400545921,0.501374638,0.101560733,0.602935371,0.399813905,nan,nan,nan,[ nan  nan  nan],nan,nan,nan,218.5728363,351.7323727,352.1137865,nan,nan
0,114,17:39:56:813000,6,1,128,90,[ 1.         -0.31066301 -0.15668979],1,1,1,0.359568273,0,1,0,0.378725507,0.50029391,0.101735615,0.602029525,0.398558294,nan,nan,nan,[ nan  nan  nan],nan,nan,nan,218.5728363,352.6741908,353.0337591,nan,nan
0,115,17:40:03:912000,6,1,508,357.1875,[ 0.81419982  0.22863893 -1.        ],1,1,1,0.401783049,1,0,0,0.380921699,0.499037431,0.10214188,0.601179311,0.396895551,nan,103.8999874,492,[ 0.68140332  0.28922202 -1.        ],nan,-11.08748741,4.117524669,218.5728363,353.6159596,354.0177427,355.4411452,359.5667001
0,116,17:40:04:848000,6,1,326,229.21875,[-0.12383419  0.44407177  0.35222354],1,1,1,0.460641176,0,0,0,0.407330833,0.498176773,0.102096026,0.600272799,0.396080747,nan,nan,nan,[ nan  nan  nan],nan,nan,nan,218.5728363,360.7169219,361.1775631,nan,nan
0,117,17:40:05:784000,6,0,110,77.34375,[ 1.         -0.29672275 -0.34692196],0,0,1,0.486783364,0,0,0,0.449735863,0.497847513,0.101707492,0.599555005,0.396140021,nan,nan,nan,[ nan  nan  nan],nan,nan,nan,218.5728363,361.6587332,362.1455166,nan,nan
0,118,17:40:06:735000,6,1,79,55.546875,[ 1.         -0.18429602 -0.72417078],1,1,1,0.601033702,0,0,0,0.516152747,0.497751303,0.10126953,0.599020834,0.396481773,nan,nan,nan,[ nan  nan  nan],nan,nan,nan,218.5728363,362.6004849,363.2015186,nan,nan
0,119,17:40:07:671000,6,1,506,355.78125,[ 0.79777474  0.23670313 -1.        ],1,1,1,0.539195749,0,0,0,0.542337605,0.498641669,0.10128314,0.599924809,0.397358528,nan,nan,nan,[ nan  nan  nan],nan,nan,nan,218.5728363,363.5423053,364.081501,nan,nan
0,120,17:40:08:623000,6,1,406,285.46875,[ 0.02449675  0.4672457  -0.4893661 ],1,1,1,0.413398727,0,0,0,0.517876059,0.498988285,0.10091845,0.599906734,0.398069835,nan,nan,nan,[ nan  nan  nan],nan,nan,nan,218.5728363,364.4840835,364.8974822,nan,nan
0,121,17:40:09:559000,6,0,455,319.921875,[ 0.37560825  0.39487537 -1.        ],0,0,1,0.511564503,0,0,0,0.488052993,0.498262949,0.100795729,0.599058678,0.397467221,nan,nan,nan,[ nan  nan  nan],nan,nan,nan,218.5728363,365.4258916,365.9374561,nan,nan
0,122,17:40:10:495000,6,1,84,59.0625,[ 1.         -0.20765784 -0.65219109],1,1,1,0.481737445,0,0,0,0.468900225,0.498374727,0.100378668,0.598753395,0.39799606,nan,nan,nan,[ nan  nan  nan],nan,nan,nan,218.5728363,366.3676941,366.8494315,nan,nan
0,123,17:40:11:446000,6,1,133,93.515625,[ 1.         -0.30625957 -0.10533643],1,1,1,0.4199223,0,0,0,0.471074749,0.498236083,0.099970989,0.598207073,0.398265094,nan,nan,nan,[ nan  nan  nan],nan,nan,nan,218.5728363,367.3094789,367.7294012,nan,nan
0,124,17:40:12:382000,6,1,253,177.890625,[ 0.5138659   0.24483993  0.65597719],1,1,1,0.414105195,0,0,0,0.438588313,0.497588862,0.099809165,0.597398027,0.397779696,nan,nan,nan,[ nan  nan  nan],nan,nan,nan,218.5728363,368.2512779,368.6653831,nan,nan
0,125,17:40:13:334000,6,1,437,307.265625,[ 0.23613483  0.42977024 -1.        ],1,1,1,0.352302594,0,1,0,0.395443363,0.496904569,0.099683869,0.596588439,0.3972207,nan,nan,nan,[ nan  nan  nan],nan,nan,nan,218.5728363,369.1930835,369.545386,nan,nan
0,126,17:40:19:231000,6,1,316,222.1875,[-0.07182156  0.42820351  0.42789226],1,1,1,0.354490423,1,0,0,0.373632738,0.495728944,0.100123433,0.595852377,0.39560551,nan,-125.601767,307,[-0.01138687  0.41105336  0.48795701],nan,-6.585732996,2.900659057,218.5728363,370.1348676,370.4893581,371.9684082,374.8771121
0,127,17:40:20:167000,6,1,51,35.859375,[ 1.         -0.03851602 -1.        ],1,nan,nan,nan,0,0,0,0.353396509,0.494589923,0.100515838,0.595105762,0.394074085,nan,nan,nan,[ nan  nan  nan],nan,nan,nan,218.5728363,376.0356621,nan,nan,nan
0,128,17:40:21:118000,6,1,99,69.609375,[ 1.         -0.26717627 -0.4687933 ],1,1,1,0.471744821,0,0,0,0.413117622,0.494589923,0.100515838,0.595105762,0.394074085,nan,nan,nan,[ nan  nan  nan],nan,nan,nan,218.5728363,376.9774503,377.4491951,nan,nan
0,129,17:40:22:054000,6,1,195,137.109375,[ 1.         -0.04692453  0.44239605],1,1,1,0.385946521,0,0,0,0.428845671,0.494407163,0.100133651,0.594540813,0.394273512,nan,nan,nan,[ nan  nan  nan],nan,nan,nan,218.5728363,377.9192168,378.3051634,nan,nan
0,130,17:40:22:990000,6,1,303,213.046875,[ 0.01913493  0.40252284  0.51201836],1,1,1,0.316063721,0,1,0,0.391251688,0.493546364,0.100198765,0.593745129,0.393347599,nan,nan,nan,[ nan  nan  nan],nan,nan,nan,218.5728363,378.8610515,379.1771152,nan,nan
0,131,17:40:31:570000,6,1,98,68.90625,[ 1.         -0.26382291 -0.48021779],1,1,1,0.390282836,1,0,0,0.364097693,0.492148863,0.101028799,0.593177662,0.391120064,nan,18.34852991,102,[ 1.         -0.27661034 -0.43492695],nan,2.745220085,5.58438579,218.5728363,379.8028457,380.1931285,381.6363665,387.2287846
0,132,17:40:32:506000,6,1,252,177.1875,[ 0.52472169  0.24069367  0.65569401],1,1,1,0.621925272,0,0,0,0.442757276,0.491353034,0.101032232,0.592385267,0.390320802,nan,nan,nan,[ nan  nan  nan],nan,nan,nan,218.5728363,388.3789999,389.0009251,nan,nan
0,133,17:40:33:458000,6,1,374,262.96875,[-0.13203913  0.47863408 -0.11062844],1,1,1,0.528116052,0,0,0,0.513441387,0.492365222,0.101289304,0.593654526,0.391075918,nan,nan,nan,[ nan  nan  nan],nan,nan,nan,218.5728363,389.320798,389.8489141,nan,nan
0,134,17:40:34:394000,6,1,85,59.765625,[ 1.         -0.21215645 -0.63878123],1,1,1,0.338266734,0,0,0,0.496102686,0.492640229,0.100947312,0.59358754,0.391692917,nan,nan,nan,[ nan  nan  nan],nan,nan,nan,218.5728363,390.2625922,390.6008589,nan,nan
0,135,17:40:35:330000,6,1,139,97.734375,[ 1.         -0.29633561 -0.04459929],1,1,1,0.308462199,0,0,0,0.391614995,0.491461805,0.101454913,0.592916718,0.390006892,nan,nan,nan,[ nan  nan  nan],nan,nan,nan,218.5728363,391.2043864,391.5128486,nan,nan
0,136,17:40:36:282000,6,1,504,354.375,[ 0.78128615  0.24462829 -1.        ],1,1,1,0.238661507,0,1,0,0.295130147,0.490075444,0.102307883,0.592383327,0.387767562,nan,nan,nan,[ nan  nan  nan],nan,nan,nan,218.5728363,392.1461797,392.3848412,nan,nan
0,137,17:40:37:218000,6,0,289,203.203125,[ 0.14059213  0.36807325  0.58250527],0,1,0,0.328845443,0,0,0,0.291989716,0.488185114,0.104210779,0.592395893,0.383974335,nan,nan,nan,[ nan  nan  nan],nan,nan,nan,218.5728363,393.0879676,393.416813,nan,nan
0,138,17:40:38:169000,6,1,219,153.984375,[ 0.87162732  0.08408817  0.57695967],1,1,1,0.243040301,0,0,0,0.270182417,0.486996012,0.104722966,0.591718978,0.382273046,nan,nan,nan,[ nan  nan  nan],nan,nan,nan,218.5728363,394.0297666,394.2728069,nan,nan
0,139,17:40:39:105000,6,1,110,77.34375,[ 1.         -0.29672275 -0.34692196],1,1,1,0.429199333,0,0,0,0.333695025,0.485188933,0.106410738,0.59159967,0.378778195,nan,nan,nan,[ nan  nan  nan],nan,nan,nan,218.5728363,394.9715673,395.4007667,nan,nan
0,140,17:40:40:041000,6,1,476,334.6875,[ 0.54754504  0.34073938 -1.        ],1,1,1,0.495386144,0,0,0,0.389208593,0.484777244,0.106126654,0.590903899,0.37865059,nan,nan,nan,[ nan  nan  nan],nan,nan,nan,218.5728363,395.9133555,396.4087417,nan,nan
0,141,17:40:40:993000,6,1,339,238.359375,[-0.16495584  0.45996923  0.2414231 ],1,1,1,0.433567008,0,0,0,0.452717495,0.484854682,0.105742478,0.590597159,0.379112204,nan,nan,nan,[ nan  nan  nan],nan,nan,nan,218.5728363,396.8551588,397.2887258,nan,nan
0,142,17:40:41:929000,6,0,439,308.671875,[ 0.25114429  0.4263922  -1.        ],0,0,1,0.475729611,0,0,0,0.468227588,0.484483032,0.10544842,0.589931452,0.379034612,nan,nan,nan,[ nan  nan  nan],nan,nan,nan,218.5728363,397.7969507,398.2726803,nan,nan
0,143,17:40:42:865000,6,1,491,345.234375,[ 0.67303348  0.29270771 -1.        ],1,1,1,0.413938699,0,0,0,0.441078439,0.484420058,0.105071029,0.589491087,0.379349029,nan,nan,nan,[ nan  nan  nan],nan,nan,nan,218.5728363,398.7387432,399.1526819,nan,nan
0,144,17:40:43:816000,6,0,108,75.9375,[ 1.         -0.29242661 -0.36866329],0,0,1,0.504121209,0,0,0,0.464596507,0.483916619,0.104863216,0.588779836,0.379053403,nan,nan,nan,[ nan  nan  nan],nan,nan,nan,218.5728363,399.6805396,400.1846609,nan,nan
0,145,17:40:44:752000,6,1,63,44.296875,[ 1.         -0.10274464 -1.        ],1,1,1,0.386319427,0,0,0,0.434793112,0.484059914,0.104504454,0.588564368,0.37955546,nan,nan,nan,[ nan  nan  nan],nan,nan,nan,218.5728363,400.6223298,401.0086493,nan,nan
0,146,17:40:45:704000,6,1,471,331.171875,[ 0.50601401  0.35499378 -1.        ],1,1,1,0.420501616,0,0,0,0.436980751,0.483371601,0.104456084,0.587827685,0.378915517,nan,nan,nan,[ nan  nan  nan],nan,nan,nan,218.5728363,401.5641266,401.9846282,nan,nan
0,147,17:40:46:640000,6,1,381,267.890625,[-0.10540306  0.47842508 -0.18843114],1,1,1,0.374707741,0,0,0,0.393842928,0.482931951,0.104221974,0.587153924,0.378709977,nan,nan,nan,[ nan  nan  nan],nan,nan,nan,218.5728363,402.5059065,402.8806142,nan,nan
0,148,17:40:47:576000,6,1,89,62.578125,[ 1.         -0.2294841  -0.58737049],1,1,1,0.400855061,0,0,0,0.398688139,0.482180394,0.104247588,0.586427981,0.377932806,nan,nan,nan,[ nan  nan  nan],nan,nan,nan,218.5728363,403.4477155,403.8485705,nan,nan
0,149,17:40:48:528000,6,1,344,241.875,[-0.17254346  0.46473023  0.19550382],1,1,1,0.355054629,0,1,0,0.376872477,0.481619529,0.104105277,0.585724807,0.377514252,nan,nan,nan,[ nan  nan  nan],nan,nan,nan,218.5728363,404.3895028,404.7445574,nan,nan
0,150,17:40:55:282000,6,1,6,4.21875,[ 0.89512908  0.18627278 -1.        ],1,1,1,0.325229567,1,0,0,0.360379752,0.480752646,0.104271962,0.585024608,0.376480685,nan,59.57814784,43,[ 1.          0.00424534 -1.        ],nan,26.20310216,3.767473765,218.5728363,405.331305,405.6565345,407.1565147,410.9320162
0,151,17:40:56:218000,6,1,195,137.109375,[ 1.         -0.04692453  0.44239605],1,1,1,0.517793001,0,0,0,0.399359066,0.479694666,0.104700045,0.584394711,0.374994621,nan,nan,nan,[ nan  nan  nan],nan,nan,nan,218.5728363,412.0905554,412.6083484,nan,nan
0,152,17:40:57:170000,6,1,124,87.1875,[ 1.         -0.31157719 -0.19822652],1,1,1,0.408023522,0,0,0,0.417015363,0.479952087,0.104392395,0.584344483,0.375559692,nan,nan,nan,[ nan  nan  nan],nan,nan,nan,218.5728363,413.032308,413.4403315,nan,nan
0,153,17:40:58:106000,6,1,395,277.734375,[-0.03839842  0.47418351 -0.35142722],1,1,1,0.378207297,0,0,0,0.434674607,0.479469345,0.104207115,0.58367646,0.375262231,nan,nan,nan,[ nan  nan  nan],nan,nan,nan,218.5728363,413.9741329,414.3523402,nan,nan
0,154,17:40:59:058000,6,1,501,352.265625,[ 0.75644923  0.25625354 -1.        ],1,1,1,0.324391384,0,1,0,0.370207401,0.478794265,0.104185569,0.582979834,0.374608696,nan,nan,nan,[ nan  nan  nan],nan,nan,nan,218.5728363,414.9159297,415.2403211,nan,nan
0,155,17:41:03:145000,6,1,170,119.53125,[ 1.         -0.18099048  0.24781506],1,1,1,0.350566928,1,0,0,0.351055203,0.477771729,0.10459247,0.582364199,0.37317926,nan,-24.30454927,163,[ 1.         -0.2142478   0.18572368],nan,-5.226700734,1.100506131,218.5728363,415.8577253,416.2082922,417.6829173,418.7913931
0,156,17:41:04:081000,6,1,457,321.328125,[ 0.39163925  0.39035818 -1.        ],1,1,1,0.650215661,0,0,0,0.441724658,0.476934856,0.104753844,0.5816887,0.372181012,nan,nan,nan,[ nan  nan  nan],nan,nan,nan,218.5728363,419.9499439,420.6001596,nan,nan
0,157,17:41:05:032000,6,1,403,283.359375,[ 0.00657627  0.46945644 -0.45052451],1,1,1,0.508395943,0,0,0,0.503059511,0.47806741,0.105340465,0.583407876,0.372726945,nan,nan,nan,[ nan  nan  nan],nan,nan,nan,218.5728363,420.8917375,421.4001335,nan,nan
0,158,17:41:05:968000,6,1,312,219.375,[-0.04644836  0.4209252   0.45557321],1,1,1,0.702576444,0,0,1,0.620396016,0.478264349,0.105026148,0.583290497,0.3732382,nan,nan,nan,[ nan  nan  nan],nan,nan,nan,218.5728363,421.833532,422.5361084,nan,nan
0,159,17:41:10:664000,6,0,405,284.765625,[ 0.01846332  0.46800938 -0.47629333],0,0,1,0.568787888,1,0,0,0.593253425,0.479711523,0.106216062,0.585927585,0.373495461,nan,159.0442233,414,[ 0.07478379  0.46016219 -0.60008918],nan,6.190151731,1.708897313,218.5728363,422.775331,423.3441189,424.6005225,426.3174493
0,160,17:41:11:600000,6,1,292,205.3125,[ 0.11288167  0.37606958  0.56926185],1,1,1,0.564423349,0,0,0,0.611929227,0.480282526,0.106113472,0.586395998,0.374169053,nan,nan,nan,[ nan  nan  nan],nan,nan,nan,218.5728363,427.4676312,428.0320545,nan,nan
0,161,17:41:12:536000,6,1,158,111.09375,[ 1.         -0.23594923  0.13976411],1,0,0,0.566568698,0,0,0,0.566593311,0.480818455,0.10598658,0.586805034,0.374831875,nan,nan,nan,[ nan  nan  nan],nan,nan,nan,218.5728363,428.4094273,428.975996,nan,nan
0,162,17:41:13:488000,6,1,73,51.328125,[ 1.         -0.15467886 -0.83091687],1,1,1,0.344737565,0,0,0,0.49190987,0.481361178,0.105869275,0.587230452,0.375491903,nan,nan,nan,[ nan  nan  nan],nan,nan,nan,218.5728363,429.3512169,429.6959545,nan,nan
0,163,17:41:14:424000,6,1,278,195.46875,[ 0.24828552  0.33580281  0.62196257],1,1,1,0.306956321,0,0,0,0.406087528,0.48050191,0.106087081,0.586588991,0.374414828,nan,nan,nan,[ nan  nan  nan],nan,nan,nan,218.5728363,430.2930051,430.5999615,nan,nan
0,164,17:41:15:375000,6,1,101,71.015625,[ 1.         -0.27357267 -0.44615261],1,1,1,0.541155786,0,0,0,0.397616557,0.47941725,0.106635781,0.586053031,0.372781469,nan,nan,nan,[ nan  nan  nan],nan,nan,nan,218.5728363,431.2348079,431.7759636,nan,nan
0,165,17:41:16:311000,6,1,304,213.75,[ 0.01130928  0.40470892  0.50616037],1,1,1,0.583292731,0,0,0,0.477134946,0.479800719,0.106414703,0.586215422,0.373386016,nan,nan,nan,[ nan  nan  nan],nan,nan,nan,218.5728363,432.1765983,432.7598911,nan,nan
0,166,17:41:17:247000,6,1,203,142.734375,[ 1.         -0.00249325  0.49367467],1,1,1,0.449484503,0,0,0,0.52464434,0.480439558,0.10639499,0.586834549,0.374044568,nan,nan,nan,[ nan  nan  nan],nan,nan,nan,218.5728363,433.1183914,433.5678759,nan,nan
0,167,17:41:18:199000,6,1,411,288.984375,[ 0.05552017  0.46302271 -0.55705476],1,1,1,0.315563092,0,0,0,0.449446775,0.48024965,0.106095661,0.586345311,0.374153989,nan,nan,nan,[ nan  nan  nan],nan,nan,nan,218.5728363,434.0602825,434.3758456,nan,nan
0,168,17:41:19:135000,6,1,246,172.96875,[ 0.58976884  0.2150199   0.65133953],1,1,1,0.341870922,0,1,0,0.368972839,0.479245464,0.106545863,0.585791327,0.3726996,nan,nan,nan,[ nan  nan  nan],nan,nan,nan,218.5728363,435.0019811,435.3438521,nan,nan
0,169,17:41:23:924000,6,1,385,270.703125,[-0.08797966  0.47773344 -0.23392672],1,1,1,0.264037927,1,0,0,0.307157314,0.478412891,0.106756274,0.585169165,0.371656617,nan,-160.4633451,356,[-0.17284378  0.47323941  0.07883681],nan,-20.23977994,1.783984546,218.5728363,435.9437659,436.2078038,437.7773042,439.5692375
0,170,17:41:24:860000,6,1,456,320.625,[ 0.38361243  0.39263319 -1.        ],1,1,1,0.479924803,0,0,0,0.36194455,0.477121475,0.107719197,0.584840672,0.369402278,nan,nan,nan,[ nan  nan  nan],nan,nan,nan,218.5728363,440.727755,441.2076798,nan,nan
0,171,17:41:25:812000,6,1,111,78.046875,[ 1.         -0.29867781 -0.33610624],1,1,1,0.458105244,0,0,0,0.400689325,0.477138262,0.107396418,0.58453468,0.369741844,nan,nan,nan,[ nan  nan  nan],nan,nan,nan,218.5728363,441.6695529,442.1276581,nan,nan
0,172,17:41:26:748000,6,1,295,207.421875,[ 0.08602229  0.38372732  0.55498608],1,1,1,0.460322153,0,0,0,0.4661174,0.47702497,0.107086317,0.584111287,0.369938653,nan,nan,nan,[ nan  nan  nan],nan,nan,nan,218.5728363,442.6113431,443.0716652,nan,nan
0,173,17:41:27:684000,6,1,395,277.734375,[-0.03839842  0.47418351 -0.35142722],1,1,1,0.382481461,0,0,0,0.433636286,0.476926137,0.106776708,0.583702845,0.370149428,nan,nan,nan,[ nan  nan  nan],nan,nan,nan,218.5728363,443.5531318,443.9356133,nan,nan
0,174,17:41:28:635000,6,1,283,198.984375,[ 0.19826868  0.35105092  0.60582595],1,1,1,0.360674447,0,0,0,0.401159354,0.47637058,0.106706888,0.583077468,0.369663692,nan,nan,nan,[ nan  nan  nan],nan,nan,nan,218.5728363,444.4949351,444.8556096,nan,nan
0,175,17:41:29:571000,6,1,173,121.640625,[ 1.         -0.16590952  0.27353519],1,1,1,0.498902237,0,0,0,0.414019381,0.475693994,0.106759513,0.582453507,0.368934481,nan,nan,nan,[ nan  nan  nan],nan,nan,nan,218.5728363,445.4367096,445.9356119,nan,nan
0,176,17:41:30:507000,6,1,342,240.46875,[-0.17005262  0.46291356  0.21407524],1,1,1,0.32506307,0,0,0,0.394879918,0.475828926,0.106463336,0.582292261,0.36936559,nan,nan,nan,[ nan  nan  nan],nan,nan,nan,218.5728363,446.3785192,446.7035823,nan,nan
0,177,17:41:31:459000,6,1,460,323.4375,[ 0.41584892  0.38333493 -1.        ],1,1,1,0.311248445,0,0,0,0.378404584,0.474957447,0.106768697,0.581726144,0.36818875,nan,nan,nan,[ nan  nan  nan],nan,nan,nan,218.5728363,447.3202943,447.6315427,nan,nan
0,178,17:41:32:395000,6,1,294,206.71875,[ 0.0948762   0.38121213  0.55985823],1,1,1,0.433436719,0,1,0,0.356582745,0.474016591,0.107178269,0.58119486,0.366838321,nan,nan,nan,[ nan  nan  nan],nan,nan,nan,218.5728363,448.2621081,448.6955448,nan,nan
0,179,17:41:36:700000,6,1,504,354.375,[ 0.78128615  0.24462829 -1.        ],1,1,1,0.595597201,1,0,0,0.446760788,0.473784706,0.10691537,0.580700076,0.366869335,nan,85.00625601,7,[ 0.90309146  0.18185306 -1.        ],nan,10.61874399,1.300467529,218.5728363,449.203904,449.7995012,451.0374485,452.3459327
0,180,17:41:37:636000,6,1,388,272.8125,[-0.07396337  0.47694192 -0.26857716],1,1,1,0.646905123,0,0,0,0.558646348,0.474476822,0.107003633,0.581480455,0.367473189,nan,nan,nan,[ nan  nan  nan],nan,nan,nan,218.5728363,453.5044779,454.151383,nan,nan
0,181,17:41:38:588000,6,1,509,357.890625,[ 0.82238638  0.224555   -1.        ],1,1,1,0.337087291,0,0,0,0.526529872,0.475450993,0.107480767,0.58293176,0.367970227,nan,nan,nan,[ nan  nan  nan],nan,nan,nan,218.5728363,454.4462763,454.7833636,nan,nan
0,182,17:41:39:524000,6,1,366,257.34375,[-0.15559338  0.47730203 -0.02447665],1,1,1,0.283321554,0,0,0,0.422437989,0.474673669,0.107676204,0.582349873,0.366997465,nan,nan,nan,[ nan  nan  nan],nan,nan,nan,218.5728363,455.3880639,455.6713855,nan,nan
0,183,17:41:40:460000,6,1,32,22.5,[ 1.         0.0617358 -1.       ],1,1,1,0.269492104,0,1,0,0.29663365,0.473604663,0.108318082,0.581922745,0.365286581,nan,nan,nan,[ nan  nan  nan],nan,nan,nan,218.5728363,456.3298578,456.5993499,nan,nan
0,184,17:41:49:399000,6,1,224,157.5,[ 0.82161942  0.11002479  0.59726488],1,1,1,0.279646663,1,0,0,0.277486774,0.472470704,0.109077009,0.581547714,0.363393695,nan,-55.85641335,207,[ 0.98565351  0.01954319  0.51699622],nan,-11.64358665,5.93445437,218.5728363,457.2716605,457.5513072,459.105174,465.0476419
0,185,17:41:50:335000,6,1,121,85.078125,[ 1.         -0.31073281 -0.22964081],1,1,1,0.536890746,0,0,0,0.362009838,0.471405378,0.109710282,0.58111566,0.361695097,nan,nan,nan,[ nan  nan  nan],nan,nan,nan,218.5728363,466.2061962,466.7430869,nan,nan
0,186,17:41:51:286000,6,1,455,319.921875,[ 0.37560825  0.39487537 -1.        ],1,1,1,0.395002319,0,0,0,0.403846576,0.471765188,0.109515501,0.581280689,0.362249687,nan,nan,nan,[ nan  nan  nan],nan,nan,nan,218.5728363,467.1480696,467.5430719,nan,nan
0,187,17:41:52:222000,6,1,352,247.5,[-0.17544713  0.4708516   0.11867359],1,1,1,0.333262439,0,0,0,0.421718501,0.471345719,0.109362377,0.580708096,0.361983341,nan,nan,nan,[ nan  nan  nan],nan,nan,nan,218.5728363,468.0897936,468.4230561,nan,nan
0,188,17:41:53:174000,6,1,508,357.1875,[ 0.81419982  0.22863893 -1.        ],1,1,1,0.295460669,0,1,0,0.341241809,0.470595266,0.109536253,0.580131519,0.361059013,nan,nan,nan,[ nan  nan  nan],nan,nan,nan,218.5728363,469.0315721,469.3270328,nan,nan
0,189,17:41:57:745000,6,1,293,206.015625,[ 0.10383026  0.3786596   0.56461706],1,1,1,0.233627277,1,0,0,0.287450128,0.469648592,0.109991975,0.579640568,0.359656617,nan,-122.5350672,302,[ 0.02708608  0.40030084  0.51777002],nan,6.519442158,1.592199139,218.5728363,469.9733988,470.2070261,471.7985558,473.3987878
0,190,17:41:58:681000,6,0,345,242.578125,[-0.17351954  0.46559515  0.18611928],0,0,1,0.625911488,0,0,0,0.384999811,0.468379661,0.111045374,0.579425035,0.357334286,nan,nan,nan,[ nan  nan  nan],nan,nan,nan,218.5728363,474.5489937,475.1749051,nan,nan
0,191,17:41:59:633000,6,1,479,336.796875,[ 0.57257215  0.33176822 -1.        ],1,1,1,0.50012644,0,0,0,0.453221735,0.469222077,0.111342406,0.580564482,0.357879671,nan,nan,nan,[ nan  nan  nan],nan,nan,nan,218.5728363,475.4907781,475.9909046,nan,nan
0,192,17:42:00:569000,6,1,249,175.078125,[ 0.55727555  0.22802627  0.65408488],1,1,1,0.318353615,0,0,0,0.481463848,0.469386462,0.111068638,0.580455099,0.358317824,nan,nan,nan,[ nan  nan  nan],nan,nan,nan,218.5728363,476.4325444,476.750898,nan,nan
0,193,17:42:01:505000,6,0,489,343.828125,[ 0.65628486  0.29957244 -1.        ],0,0,1,0.464470019,0,0,0,0.427650025,0.468587346,0.111314982,0.579902328,0.357272364,nan,nan,nan,[ nan  nan  nan],nan,nan,nan,218.5728363,477.3743702,477.8388402,nan,nan
0,194,17:42:02:456000,6,1,40,28.125,[ 1.          0.02011655 -1.        ],1,1,1,0.378695667,0,0,0,0.3871731,0.468565676,0.111022061,0.579587737,0.357543615,nan,nan,nan,[ nan  nan  nan],nan,nan,nan,218.5728363,478.3161638,478.6948595,nan,nan
0,195,17:42:03:392000,6,1,246,172.96875,[ 0.58976884  0.2150199   0.65133953],1,1,1,0.332864445,0,0,0,0.392010044,0.468095152,0.110920824,0.579015976,0.357174329,nan,nan,nan,[ nan  nan  nan],nan,nan,nan,218.5728363,479.2579577,479.5908221,nan,nan
0,196,17:42:04:328000,6,0,187,131.484375,[ 1.         -0.09124635  0.38538321],0,1,0,0.343032689,0,0,0,0.351530934,0.467390826,0.11105899,0.578449816,0.356331836,nan,nan,nan,[ nan  nan  nan],nan,nan,nan,218.5728363,480.1997633,480.5427959,nan,nan
0,197,17:42:05:280000,6,1,64,45,[ 1.         -0.10803687 -1.        ],1,1,1,0.433238007,0,0,0,0.369711713,0.466746483,0.111130132,0.577876615,0.355616352,nan,nan,nan,[ nan  nan  nan],nan,nan,nan,218.5728363,481.1415429,481.5747809,nan,nan
0,198,17:42:06:216000,6,1,483,339.609375,[ 0.60602571  0.31931445 -1.        ],1,1,1,0.459394165,0,0,0,0.411888287,0.466573759,0.110869314,0.577443073,0.355704445,nan,nan,nan,[ nan  nan  nan],nan,nan,nan,218.5728363,482.0833413,482.5427355,nan,nan
0,199,17:42:07:167000,6,1,132,92.8125,[ 1.         -0.30742683 -0.11555536],1,1,1,0.437568049,0,0,0,0.443400073,0.466536941,0.110585857,0.577122798,0.355951083,nan,nan,nan,[ nan  nan  nan],nan,nan,nan,218.5728363,483.0251415,483.4627095,nan,nan
0,200,17:42:08:103000,6,1,481,338.203125,[ 0.58928949  0.32561186 -1.        ],1,1,1,0.27180566,0,0,0,0.389589291,0.46638914,0.110322697,0.576711837,0.356066443,nan,nan,nan,[ nan  nan  nan],nan,nan,nan,218.5728363,483.9669194,484.2387251,nan,nan
0,201,17:42:09:039000,6,0,143,100.546875,[ 1.         -0.28705753 -0.00469999],0,0,1,0.609962347,0,0,0,0.439778685,0.465401407,0.110907783,0.576309189,0.354493624,nan,nan,nan,[ nan  nan  nan],nan,nan,nan,218.5728363,484.9087224,485.5186848,nan,nan
0,202,17:42:09:991000,6,1,427,300.234375,[ 0.16326517  0.44486322 -0.84020871],1,1,1,0.532132204,0,0,0,0.47130007,0.466131512,0.111100963,0.577232476,0.355030549,nan,nan,nan,[ nan  nan  nan],nan,nan,nan,218.5728363,485.8505146,486.3826468,nan,nan
0,203,17:42:10:927000,6,1,376,264.375,[-0.12496282  0.47870467 -0.13262763],1,1,1,0.486333482,0,0,0,0.542809344,0.466463174,0.110919686,0.57738286,0.355543488,nan,nan,nan,[ nan  nan  nan],nan,nan,nan,218.5728363,486.7923011,487.2786346,nan,nan
0,204,17:42:11:863000,6,1,132,92.8125,[ 1.         -0.30742683 -0.11555536],1,1,1,0.480467626,0,0,0,0.499644437,0.466562526,0.110650916,0.577213441,0.35591161,nan,nan,nan,[ nan  nan  nan],nan,nan,nan,218.5728363,487.7341138,488.2145814,nan,nan
0,205,17:42:12:815000,6,0,402,282.65625,[ 0.00072492  0.47013996 -0.43781156],0,1,0,0.242716717,0,0,0,0.403172608,0.466631705,0.110379657,0.577011363,0.356252048,nan,nan,nan,[ nan  nan  nan],nan,nan,nan,218.5728363,488.6758926,488.9186093,nan,nan
0,206,17:42:13:751000,6,1,102,71.71875,[ 1.         -0.27661034 -0.43492695],1,1,1,0.212897642,0,0,0,0.312027328,0.465523215,0.111221996,0.576745211,0.35430122,nan,nan,nan,[ nan  nan  nan],nan,nan,nan,218.5728363,489.617685,489.8305827,nan,nan
0,207,17:42:14:702000,6,1,383,269.296875,[-0.09687871  0.47813121 -0.21108141],1,1,1,0.383072465,0,0,0,0.279562275,0.464278754,0.112348692,0.576627447,0.351930062,nan,nan,nan,[ nan  nan  nan],nan,nan,nan,218.5728363,490.5594915,490.9425639,nan,nan
0,208,17:42:15:638000,6,1,12,8.4375,[ 0.94247669  0.15927395 -1.        ],1,1,1,0.441268884,0,1,0,0.34574633,0.463880684,0.112216409,0.576097093,0.351664276,nan,nan,nan,[ nan  nan  nan],nan,nan,nan,218.5728363,491.5012725,491.9425414,nan,nan
0,209,17:42:21:332000,6,1,442,310.78125,[ 0.27390726  0.42109554 -1.        ],1,1,1,0.515440102,1,0,0,0.446593817,0.463770383,0.111953461,0.575723844,0.351816922,nan,148.3924978,429,[ 0.17753182  0.44208078 -0.9018852 ],nan,-9.173747754,2.708980846,218.5728363,492.4430678,492.9585079,494.2682565,496.9853307
0,210,17:42:22:268000,6,1,505,355.078125,[ 0.78953796  0.24068314 -1.        ],1,1,1,0.63885486,0,0,0,0.531854615,0.464021207,0.111739124,0.575760331,0.352282083,nan,nan,nan,[ nan  nan  nan],nan,nan,nan,218.5728363,498.1355048,498.7743597,nan,nan
0,211,17:42:23:220000,6,1,167,117.421875,[ 1.         -0.19560581  0.22154672],1,1,1,0.369066256,0,0,0,0.507787072,0.464865814,0.112126122,0.576991935,0.352739692,nan,nan,nan,[ nan  nan  nan],nan,nan,nan,218.5728363,499.0773076,499.4463738,nan,nan
0,212,17:42:24:156000,6,1,370,260.15625,[-0.144806    0.47817873 -0.06718033],1,1,1,0.595245107,0,0,0,0.534388741,0.464405239,0.112052373,0.576457612,0.352352866,nan,nan,nan,[ nan  nan  nan],nan,nan,nan,218.5728363,500.0190858,500.6143309,nan,nan
0,213,17:42:25:092000,6,1,474,333.28125,[ 0.53090176  0.34654538 -1.        ],1,1,1,0.309436088,0,0,0,0.424582484,0.465031267,0.112148012,0.577179279,0.352883255,nan,nan,nan,[ nan  nan  nan],nan,nan,nan,218.5728363,500.9608834,501.2703195,nan,nan
0,214,17:42:26:043000,6,1,342,240.46875,[-0.17005262  0.46291356  0.21407524],1,1,1,0.695616103,0,0,0,0.533432433,0.464290338,0.112392265,0.576682603,0.351898072,nan,nan,nan,[ nan  nan  nan],nan,nan,nan,218.5728363,501.9026824,502.5982985,nan,nan
0,215,17:42:26:979000,6,1,81,56.953125,[ 1.         -0.19380425 -0.69421917],1,1,1,0.473807777,0,0,0,0.492953323,0.465386668,0.11324558,0.578632249,0.352141088,nan,nan,nan,[ nan  nan  nan],nan,nan,nan,218.5728363,502.844472,503.3182798,nan,nan
0,216,17:42:27:915000,6,1,504,354.375,[ 0.78128615  0.24462829 -1.        ],1,1,1,0.499995296,0,0,0,0.556473059,0.46542639,0.112979649,0.57840604,0.352446741,nan,nan,nan,[ nan  nan  nan],nan,nan,nan,218.5728363,503.7862599,504.2862552,nan,nan
0,217,17:42:28:867000,6,1,344,241.875,[-0.17254346  0.46473023  0.19550382],1,1,1,0.69415584,0,0,0,0.555986304,0.465588686,0.112738895,0.578327581,0.352849791,nan,nan,nan,[ nan  nan  nan],nan,nan,nan,218.5728363,504.7280652,505.422221,nan,nan
0,218,17:42:29:803000,6,1,203,142.734375,[ 1.         -0.00249325  0.49367467],1,1,1,0.69634652,0,0,1,0.630165885,0.466656757,0.113550213,0.580206969,0.353106544,nan,nan,nan,[ nan  nan  nan],nan,nan,nan,218.5728363,505.6698614,506.3662079,nan,nan
0,219,17:42:35:154000,6,1,63,44.296875,[ 1.         -0.10274464 -1.        ],1,1,1,0.786524468,1,0,0,0.725675609,0.467725081,0.114358743,0.582083824,0.353366338,nan,69.34539562,29,[ 1.          0.07701739 -1.        ],nan,-23.64227062,2.342280035,218.5728363,506.6116487,507.3981732,508.4451622,510.7954862
0,220,17:42:36:090000,6,1,508,357.1875,[ 0.81419982  0.22863893 -1.        ],1,1,1,0.61202844,0,0,0,0.698299809,0.469201004,0.116128038,0.585329042,0.353072966,nan,nan,nan,[ nan  nan  nan],nan,nan,nan,218.5728363,511.9540314,512.5660598,nan,nan
0,221,17:42:37:026000,6,0,175,123.046875,[ 1.         -0.15562995  0.29036176],0,0,1,0.58218,0,0,0,0.660244303,0.469859195,0.116263277,0.586122472,0.353595918,nan,nan,nan,[ nan  nan  nan],nan,nan,nan,218.5728363,512.8958615,513.4780415,nan,nan
0,222,17:42:37:977000,6,1,430,302.34375,[ 0.18472502  0.44064573 -0.94190417],1,1,1,0.432398683,0,0,0,0.542202374,0.470374428,0.116244356,0.586618784,0.354130072,nan,nan,nan,[ nan  nan  nan],nan,nan,nan,218.5728363,513.837622,514.2700207,nan,nan
0,223,17:42:38:913000,6,1,217,152.578125,[ 0.89125041  0.07353733  0.56804835],1,1,1,0.386581145,0,0,0,0.467053276,0.470201023,0.116006911,0.586207934,0.354194112,nan,nan,nan,[ nan  nan  nan],nan,nan,nan,218.5728363,514.779417,515.1659982,nan,nan
0,224,17:42:39:865000,6,1,461,324.140625,[ 0.42395965  0.38092737 -1.        ],1,1,1,0.412761252,0,0,0,0.41058036,0.469820933,0.115879554,0.585700487,0.353941379,nan,nan,nan,[ nan  nan  nan],nan,nan,nan,218.5728363,515.7212101,516.1339713,nan,nan
0,225,17:42:40:801000,6,1,323,227.109375,[-0.11001989  0.43965345  0.37585536],1,1,1,0.390953952,0,0,0,0.39676545,0.469562744,0.115680491,0.585243235,0.353882253,nan,nan,nan,[ nan  nan  nan],nan,nan,nan,218.5728363,516.6630042,517.0539582,nan,nan
0,226,17:42:41:737000,6,1,64,45,[ 1.         -0.10803687 -1.        ],1,1,1,0.409154499,0,0,0,0.404289901,0.46920865,0.115539631,0.584748281,0.353669019,nan,nan,nan,[ nan  nan  nan],nan,nan,nan,218.5728363,517.6047961,518.0139506,nan,nan
0,227,17:42:42:689000,6,1,344,241.875,[-0.17254346  0.46473023  0.19550382],1,1,1,0.467312144,0,0,0,0.422473531,0.468939349,0.115350092,0.584289441,0.353589257,nan,nan,nan,[ nan  nan  nan],nan,nan,nan,218.5728363,518.5466008,519.013913,nan,nan
0,228,17:42:43:625000,6,1,434,305.15625,[ 0.21388182  0.43461034 -1.        ],1,1,1,0.501514574,0,0,0,0.459327072,0.468932085,0.115092377,0.584024462,0.353839708,nan,nan,nan,[ nan  nan  nan],nan,nan,nan,218.5728363,519.4883722,519.9898868,nan,nan
0,229,17:42:44:561000,6,1,94,66.09375,[ 1.         -0.24943901 -0.52674516],1,1,1,0.503655932,0,0,0,0.49082755,0.469076896,0.114856782,0.583933678,0.354220114,nan,nan,nan,[ nan  nan  nan],nan,nan,nan,218.5728363,520.4302148,520.9338708,nan,nan
0,230,17:42:45:512000,6,1,491,345.234375,[ 0.67303348  0.29270771 -1.        ],1,1,1,0.409878928,0,0,0,0.471683145,0.469229901,0.114625371,0.583855271,0.35460453,nan,nan,nan,[ nan  nan  nan],nan,nan,nan,218.5728363,521.3719745,521.7818535,nan,nan
0,231,17:42:46:448000,6,1,274,192.65625,[ 0.28934405  0.32290089  0.63267027],1,1,1,0.476062319,0,0,0,0.46319906,0.468968443,0.114440133,0.583408576,0.354528309,nan,nan,nan,[ nan  nan  nan],nan,nan,nan,218.5728363,522.313759,522.7898213,nan,nan
0,232,17:42:47:400000,6,1,78,54.84375,[ 1.         -0.17946765 -0.73990763],1,1,1,0.526234702,0,0,0,0.470725316,0.468999556,0.114189855,0.583189411,0.354809701,nan,nan,nan,[ nan  nan  nan],nan,nan,nan,218.5728363,523.2555569,523.7817916,nan,nan
0,233,17:42:48:336000,6,1,159,111.796875,[ 1.         -0.23176597  0.14905501],1,1,1,0.600428443,0,0,0,0.534241821,0.469249491,0.114002742,0.583252233,0.355246749,nan,nan,nan,[ nan  nan  nan],nan,nan,nan,218.5728363,524.1973513,524.7977798,nan,nan
0,234,17:42:49:272000,6,1,354,248.90625,[-0.17447067  0.47210079  0.09886772],1,1,1,0.498609158,0,0,0,0.541757434,0.469819834,0.114081593,0.583901428,0.355738241,nan,nan,nan,[ nan  nan  nan],nan,nan,nan,218.5728363,525.1391472,525.6377564,nan,nan
0,235,17:42:50:223000,6,1,192,135,[ 1.         -0.06359976  0.42165841],1,1,1,0.564794544,0,0,0,0.554610715,0.469944464,0.113850086,0.583794549,0.356094378,nan,nan,nan,[ nan  nan  nan],nan,nan,nan,218.5728363,526.0809371,526.6457317,nan,nan
0,236,17:42:51:159000,6,1,401,281.953125,[-0.00506341  0.47079689 -0.4252031 ],1,1,1,0.639025917,0,0,0,0.56747654,0.4703533,0.113774264,0.584127564,0.356579036,nan,nan,nan,[ nan  nan  nan],nan,nan,nan,218.5728363,527.0226891,527.661715,nan,nan
0,237,17:42:52:095000,6,1,185,130.078125,[ 1.         -0.10221447  0.37029995],1,1,1,0.425160374,0,0,0,0.542993612,0.471077217,0.114064051,0.585141268,0.357013166,nan,nan,nan,[ nan  nan  nan],nan,nan,nan,218.5728363,527.9645278,528.3896881,nan,nan
0,238,17:42:53:047000,6,1,259,182.109375,[ 0.44882283  0.26890698  0.65501178],1,1,1,0.387353186,0,0,0,0.483846492,0.470880991,0.113859468,0.584740459,0.357021523,nan,nan,nan,[ nan  nan  nan],nan,nan,nan,218.5728363,528.9063188,529.293672,nan,nan
0,239,17:42:53:983000,6,1,453,318.515625,[ 0.35967042  0.39926175 -1.        ],1,1,1,0.44553706,0,0,0,0.419350207,0.470525554,0.113746979,0.584272532,0.356778575,nan,nan,nan,[ nan  nan  nan],nan,nan,nan,218.5728363,529.8481124,530.2936495,nan,nan
0,240,17:42:54:919000,6,1,223,156.796875,[ 0.83172397  0.10489059  0.59343224],1,1,1,0.303720193,0,0,0,0.378870146,0.47041967,0.113517339,0.583937009,0.356902331,nan,nan,nan,[ nan  nan  nan],nan,nan,nan,218.5728363,530.7899026,531.0936228,nan,nan
0,241,17:42:55:871000,6,1,121,85.078125,[ 1.         -0.31073281 -0.22964081],1,1,1,0.417911231,0,0,0,0.389056161,0.469716297,0.11379179,0.583508086,0.355924507,nan,nan,nan,[ nan  nan  nan],nan,nan,nan,218.5728363,531.7317019,532.1496131,nan,nan
0,242,17:42:56:807000,6,1,49,34.453125,[ 1.         -0.02778543 -1.        ],1,1,1,0.524093914,0,0,0,0.415241779,0.469498628,0.113601913,0.583100541,0.355896716,nan,nan,nan,[ nan  nan  nan],nan,nan,nan,218.5728363,532.6734918,533.1975857,nan,nan
0,243,17:42:57:758000,6,1,426,299.53125,[ 0.15619305  0.44621085 -0.8148597 ],1,1,1,0.494297647,0,0,0,0.478767597,0.469727061,0.113418765,0.583145825,0.356308296,nan,nan,nan,[ nan  nan  nan],nan,nan,nan,218.5728363,533.6152857,534.1095833,nan,nan
0,244,17:42:58:694000,6,1,134,94.21875,[ 1.         -0.304951   -0.09514411],1,1,1,0.472464689,0,0,0,0.496952083,0.469829438,0.113193295,0.583022733,0.356636143,nan,nan,nan,[ nan  nan  nan],nan,nan,nan,218.5728363,534.5570821,535.0295468,nan,nan
0,245,17:42:59:630000,6,1,43,30.234375,[ 1.          0.00424534 -1.        ],1,1,1,0.546621652,0,0,0,0.504461329,0.469840373,0.112958337,0.58279871,0.356882036,nan,nan,nan,[ nan  nan  nan],nan,nan,nan,218.5728363,535.4988877,536.0455093,nan,nan
0,246,17:43:00:582000,6,1,305,214.453125,[ 0.00361193  0.40685925  0.50019691],1,1,1,0.45282184,0,0,0,0.49063606,0.470157651,0.112832268,0.582989918,0.357325383,nan,nan,nan,[ nan  nan  nan],nan,nan,nan,218.5728363,536.4406656,536.8934875,nan,nan
0,247,17:43:01:518000,6,1,235,165.234375,[ 0.70759192  0.16453778  0.63165963],1,1,1,0.447044364,0,0,0,0.482162619,0.47008631,0.112605332,0.582691642,0.357480978,nan,nan,nan,[ nan  nan  nan],nan,nan,nan,218.5728363,537.3824313,537.8294756,nan,nan
0,248,17:43:02:454000,6,1,101,71.015625,[ 1.         -0.27357267 -0.44615261],1,1,1,0.601196777,0,0,0,0.500354327,0.469991876,0.112383988,0.582375864,0.357607887,nan,nan,nan,[ nan  nan  nan],nan,nan,nan,218.5728363,538.3242537,538.9254505,nan,nan
0,249,17:43:03:405000,6,1,309,217.265625,[-0.02583963  0.41510654  0.4753057 ],1,1,1,0.619381643,0,0,0,0.555874262,0.470527406,0.112465935,0.582993341,0.358061471,nan,nan,nan,[ nan  nan  nan],nan,nan,nan,218.5728363,539.2660524,539.8854341,nan,nan
0,250,17:43:04:341000,6,1,211,148.359375,[ 0.94867577  0.04136069  0.53868916],1,1,1,0.53357194,0,0,1,0.584716787,0.471132504,0.112636028,0.583768533,0.358496476,nan,nan,nan,[ nan  nan  nan],nan,nan,nan,218.5728363,540.2078349,540.7414068,nan,nan
0,251,17:43:08:897000,6,1,358,251.71875,[-0.17058391  0.47426832  0.05858744],1,1,1,0.535754922,1,0,0,0.562902835,0.471385296,0.112477692,0.583862988,0.358907604,nan,-153.1780188,346,[-0.17431756  0.46643129  0.17667017],nan,-8.540731202,1.550486702,218.5728363,541.1496219,541.6853769,542.983177,544.5417026
0,252,17:43:09:833000,6,1,179,125.859375,[ 1.         -0.13461442  0.32320413],1,1,1,0.393045703,0,0,0,0.487457522,0.471644851,0.112324789,0.58396964,0.359320061,nan,nan,nan,[ nan  nan  nan],nan,nan,nan,218.5728363,545.7002412,546.0932869,nan,nan
0,253,17:43:10:784000,6,1,21,14.765625,[ 1.        0.116714 -1.      ],1,1,1,0.315153694,0,0,0,0.41465144,0.471329191,0.112209176,0.583538367,0.359120016,nan,nan,nan,[ nan  nan  nan],nan,nan,nan,218.5728363,546.6421058,546.9572595,nan,nan
0,254,17:43:11:720000,6,1,223,156.796875,[ 0.83172397  0.10489059  0.59343224],1,1,1,0.253459429,0,1,0,0.320552942,0.470704489,0.112417563,0.583122052,0.358286927,nan,nan,nan,[ nan  nan  nan],nan,nan,nan,218.5728363,547.5838321,547.8372916,nan,nan
0,255,17:43:15:651000,6,1,428,300.9375,[ 0.17037832  0.44348657 -0.8686614 ],1,1,1,0.207619654,1,0,0,0.258744259,0.469838971,0.11302495,0.582863922,0.356814021,nan,148.7449115,428,[ 0.17037832  0.44348657 -0.8686614 ],nan,0.317588493,0.950388971,218.5728363,548.5256066,548.7332263,550.342505,551.3009399
0,256,17:43:16:587000,6,1,130,91.40625,[ 1.         -0.30933315 -0.13607149],1,1,1,0.649973044,0,0,0,0.370350709,0.468798418,0.113998757,0.582797176,0.354799661,nan,nan,nan,[ nan  nan  nan],nan,nan,nan,218.5728363,552.4511247,553.1010977,nan,nan
0,257,17:43:17:523000,6,1,92,64.6875,[ 1.         -0.24170366 -0.55060884],1,1,1,0.548158036,0,0,0,0.468583578,0.469514524,0.114339746,0.58385427,0.355174778,nan,nan,nan,[ nan  nan  nan],nan,nan,nan,218.5728363,553.3929496,553.9411077,nan,nan
0,258,17:43:18:475000,6,1,180,126.5625,[ 1.         -0.12927862  0.33123896],1,1,1,0.63032934,0,0,1,0.609486807,0.469824144,0.114220666,0.584044809,0.355603478,nan,nan,nan,[ nan  nan  nan],nan,nan,nan,218.5728363,554.3347421,554.9650714,nan,nan
0,259,17:43:25:979000,6,0,315,221.484375,[-0.06571114  0.42643481  0.43495652],0,0,1,0.784519101,1,0,0,0.654335492,0.470453576,0.11443701,0.584890586,0.356016566,nan,-138.1150648,324,[-0.11479964  0.44115833  0.36806404],nan,6.63068976,4.517593719,218.5728363,555.276538,556.0610571,557.1017212,561.6273592
0,260,17:43:26:915000,6,1,66,46.40625,[ 1.         -0.11856871 -1.        ],1,1,1,0.755298158,0,0,0,0.7233822,0.471680394,0.115881275,0.58756167,0.355799119,nan,nan,nan,[ nan  nan  nan],nan,nan,nan,218.5728363,562.7775425,563.5328407,nan,nan
0,261,17:43:27:851000,6,1,300,210.9375,[ 0.04335371  0.39574842  0.52895103],1,1,1,0.445490304,0,0,0,0.661769188,0.472783965,0.116995699,0.589779664,0.355788267,nan,nan,nan,[ nan  nan  nan],nan,nan,nan,218.5728363,563.7193421,564.1648324,nan,nan
0,262,17:43:28:802000,6,1,229,161.015625,[ 0.77039703  0.13526594  0.61468147],1,1,1,0.335654682,0,0,0,0.512147715,0.472678176,0.116781058,0.589459234,0.355897118,nan,nan,nan,[ nan  nan  nan],nan,nan,nan,218.5728363,564.6612155,564.9968702,nan,nan
0,263,17:43:29:738000,6,1,351,246.796875,[-0.17568629  0.47018527  0.12848998],1,1,1,0.321881966,0,0,0,0.367675651,0.472149128,0.116864759,0.589013887,0.355284368,nan,nan,nan,[ nan  nan  nan],nan,nan,nan,218.5728363,565.6029242,565.9248061,nan,nan
0,264,17:43:30:674000,6,1,287,201.796875,[ 0.15950165  0.36255249  0.59075192],1,1,1,0.316093656,0,1,0,0.324543435,0.471571177,0.117010071,0.588581248,0.354561107,nan,nan,nan,[ nan  nan  nan],nan,nan,nan,218.5728363,566.5447203,566.860814,nan,nan
0,265,17:43:35:963000,6,0,415,291.796875,[ 0.08130773  0.45915368 -0.61496802],0,0,1,0.486258217,1,0,0,0.374744613,0.470975478,0.117180042,0.58815552,0.353795436,nan,164.6710783,406,[ 0.02449675  0.4672457  -0.4893661 ],nan,-6.467953273,2.292265024,218.5728363,567.486512,567.9727702,569.3117017,571.612013
0,266,17:43:36:899000,6,1,47,33.046875,[ 1.         -0.01707559 -1.        ],1,1,1,0.434429709,0,0,0,0.412260527,0.471033809,0.116959999,0.587993808,0.35407381,nan,nan,nan,[ nan  nan  nan],nan,nan,nan,218.5728363,572.7622291,573.1966588,nan,nan
0,267,17:43:37:835000,6,1,365,256.640625,[-0.15796203  0.47701659 -0.01391969],1,1,1,0.772575278,0,0,0,0.564421068,0.47089463,0.116759165,0.587653795,0.354135465,nan,nan,nan,[ nan  nan  nan],nan,nan,nan,218.5728363,573.7040162,574.4765915,nan,nan
0,268,17:43:38:786000,6,1,197,138.515625,[ 1.         -0.0357976   0.45577474],1,1,1,0.646832994,0,0,1,0.617945993,0.47203736,0.118002107,0.590039467,0.354035253,nan,nan,nan,[ nan  nan  nan],nan,nan,nan,218.5728363,574.6458101,575.2926431,nan,nan
0,269,17:43:46:602000,6,1,276,194.0625,[ 0.26871044  0.32943033  0.62756301],1,1,1,0.456988522,1,0,0,0.625465598,0.472696966,0.118265858,0.590962824,0.354431108,nan,-113.7088448,290,[ 0.13126538  0.37077654  0.57820662],nan,9.64634478,4.825959556,218.5728363,575.5875985,576.0445871,577.4127829,582.2467682
0,270,17:43:47:538000,6,1,137,96.328125,[ 1.         -0.30019022 -0.06473166],1,1,1,0.647062211,0,0,0,0.583627909,0.472637911,0.118047259,0.59068517,0.354590653,nan,nan,nan,[ nan  nan  nan],nan,nan,nan,218.5728363,583.4053182,584.0523805,nan,nan
0,271,17:43:48:489000,6,1,205,144.140625,[ 1.          0.008548    0.50553524],1,1,1,0.601241537,0,0,0,0.568430757,0.473291186,0.118306737,0.591597923,0.354984449,nan,nan,nan,[ nan  nan  nan],nan,nan,nan,218.5728363,584.3471153,584.9483568,nan,nan
0,272,17:43:49:425000,6,0,439,308.671875,[ 0.25114429  0.4263922  -1.        ],0,0,1,0.603428226,0,0,0,0.617243991,0.473768613,0.118343218,0.592111831,0.355425395,nan,nan,nan,[ nan  nan  nan],nan,nan,nan,218.5728363,585.2889009,585.8923291,nan,nan
0,273,17:43:50:362000,6,1,319,224.296875,[-0.08918918  0.43330867  0.4061371 ],1,1,1,0.493618547,0,0,0,0.566096103,0.474250619,0.118386308,0.592636927,0.355864311,nan,nan,nan,[ nan  nan  nan],nan,nan,nan,218.5728363,586.2307013,586.7243199,nan,nan
0,274,17:43:51:313000,6,1,247,173.671875,[ 0.57894763  0.21939267  0.65238059],1,1,1,0.423804456,0,0,0,0.50695041,0.474322352,0.118172728,0.592495079,0.356149624,nan,nan,nan,[ nan  nan  nan],nan,nan,nan,218.5728363,587.1725021,587.5963065,nan,nan
0,275,17:43:52:249000,6,1,461,324.140625,[ 0.42395965  0.38092737 -1.        ],1,1,1,0.409987835,0,0,0,0.442470279,0.474135939,0.11799426,0.592130199,0.356141679,nan,nan,nan,[ nan  nan  nan],nan,nan,nan,218.5728363,588.1142991,588.5242869,nan,nan
0,276,17:43:53:201000,6,1,155,108.984375,[ 1.         -0.24798314  0.11161188],1,1,1,0.74018777,0,0,0,0.52466002,0.4739001,0.117841131,0.591741231,0.356058969,nan,nan,nan,[ nan  nan  nan],nan,nan,nan,218.5728363,589.0560953,589.796283,nan,nan
0,277,17:43:54:137000,6,1,259,182.109375,[ 0.44882283  0.26890698  0.65501178],1,nan,nan,nan,0,0,0,0.575087803,0.474875513,0.118720069,0.593595582,0.356155444,nan,nan,nan,[ nan  nan  nan],nan,nan,nan,218.5728363,589.9978755,nan,nan,nan
0,278,17:43:55:073000,6,1,332,233.4375,[-0.14664709  0.45205424  0.30271419],1,1,1,0.592559215,0,0,0,0.666373493,0.474875513,0.118720069,0.593595582,0.356155444,nan,nan,nan,[ nan  nan  nan],nan,nan,nan,218.5728363,590.9396702,591.5322294,nan,nan
0,279,17:43:56:024000,6,1,214,150.46875,[ 0.92024366  0.05754104  0.55385485],1,1,1,0.410739919,0,0,0,0.501649567,0.475305016,0.118715526,0.594020541,0.35658949,nan,nan,nan,[ nan  nan  nan],nan,nan,nan,218.5728363,591.881465,592.2922049,nan,nan
0,280,17:43:56:960000,6,0,129,90.703125,[ 1.         -0.31007049 -0.146368  ],0,0,1,0.492934031,0,0,0,0.498744388,0.475070233,0.118563194,0.593633428,0.356507039,nan,nan,nan,[ nan  nan  nan],nan,nan,nan,218.5728363,592.82325,593.316184,nan,nan
0,281,17:43:57:896000,6,1,59,41.484375,[ 1.         -0.08144099 -1.        ],1,1,1,0.671082143,0,0,0,0.524918698,0.475134957,0.118353078,0.593488035,0.356781879,nan,nan,nan,[ nan  nan  nan],nan,nan,nan,218.5728363,593.7650522,594.4361343,nan,nan
0,282,17:43:58:848000,6,0,129,90.703125,[ 1.         -0.31007049 -0.146368  ],0,0,1,0.537290736,0,0,0,0.567102303,0.475842348,0.118722338,0.594564685,0.35712001,nan,nan,nan,[ nan  nan  nan],nan,nan,nan,218.5728363,594.7068506,595.2441413,nan,nan
0,283,17:43:59:784000,6,1,76,53.4375,[ 1.         -0.16967451 -0.77336583],1,1,1,0.467458683,0,0,0,0.558610521,0.476063385,0.118565701,0.594629087,0.357497684,nan,nan,nan,[ nan  nan  nan],nan,nan,nan,218.5728363,595.6486396,596.1160983,nan,nan
0,284,17:44:00:736000,6,1,492,345.9375,[ 0.68140332  0.28922202 -1.        ],1,1,1,0.397675952,0,0,0,0.467475124,0.476032544,0.118354144,0.594386688,0.3576784,nan,nan,nan,[ nan  nan  nan],nan,nan,nan,218.5728363,596.5904324,596.9881083,nan,nan
0,285,17:44:01:672000,6,1,69,48.515625,[ 1.         -0.1342072  -0.93964801],1,1,1,0.471854012,0,0,0,0.445662883,0.475752699,0.118235043,0.593987742,0.357517656,nan,nan,nan,[ nan  nan  nan],nan,nan,nan,218.5728363,597.5322269,598.0040809,nan,nan
0,286,17:44:02:608000,6,1,404,284.0625,[ 0.01248946  0.46874627 -0.4633491 ],1,1,1,0.426044172,0,0,0,0.431858046,0.475738825,0.118024701,0.593763526,0.357714124,nan,nan,nan,[ nan  nan  nan],nan,nan,nan,218.5728363,598.4740136,598.9000578,nan,nan
0,287,17:44:03:559000,6,0,304,213.75,[ 0.01130928  0.40470892  0.50616037],0,0,1,0.420226213,0,0,0,0.439374799,0.475562602,0.117852279,0.593414882,0.357710323,nan,nan,nan,[ nan  nan  nan],nan,nan,nan,218.5728363,599.4158067,599.8360329,nan,nan
0,288,17:44:04:495000,6,1,161,113.203125,[ 1.         -0.22315835  0.16749055],1,1,1,0.366421702,0,0,0,0.404230696,0.475367068,0.117689691,0.593056759,0.357677376,nan,nan,nan,[ nan  nan  nan],nan,nan,nan,218.5728363,600.3576054,600.7240271,nan,nan
0,289,17:44:05:431000,6,1,453,318.515625,[ 0.35967042  0.39926175 -1.        ],1,1,1,0.536611066,0,0,0,0.441086327,0.474983457,0.117659416,0.592642873,0.357324041,nan,nan,nan,[ nan  nan  nan],nan,nan,nan,218.5728363,601.2993941,601.8360052,nan,nan
0,290,17:44:06:383000,6,1,378,265.78125,[-0.11745014  0.47867092 -0.15481012],1,1,1,0.666771487,0,0,0,0.523268085,0.475199694,0.117509332,0.592709026,0.357690362,nan,nan,nan,[ nan  nan  nan],nan,nan,nan,218.5728363,602.2411889,602.9079604,nan,nan
0,291,17:44:07:319000,6,1,127,89.296875,[ 1.         -0.31111021 -0.16703665],1,1,1,0.516963941,0,0,0,0.573448832,0.475869526,0.117847503,0.593717029,0.358022023,nan,nan,nan,[ nan  nan  nan],nan,nan,nan,218.5728363,603.1829836,603.6999476,nan,nan
0,292,17:44:08:270000,6,1,7,4.921875,[ 0.90309146  0.18185306 -1.        ],1,1,1,0.367156966,0,0,0,0.516964131,0.476012712,0.117666934,0.593679645,0.358345778,nan,nan,nan,[ nan  nan  nan],nan,nan,nan,218.5728363,604.1247818,604.4919388,nan,nan
0,293,17:44:09:206000,6,1,477,335.390625,[ 0.55587987  0.33778403 -1.        ],1,1,1,0.353335213,0,0,0,0.412485373,0.475634741,0.117636874,0.593271614,0.357997867,nan,nan,nan,[ nan  nan  nan],nan,nan,nan,218.5728363,605.0665688,605.4199041,nan,nan
0,294,17:44:10:142000,6,1,178,125.15625,[ 1.         -0.13991966  0.31509783],1,1,1,0.459512195,0,0,0,0.393334791,0.475211559,0.117652565,0.592864124,0.357558994,nan,nan,nan,[ nan  nan  nan],nan,nan,nan,218.5728363,606.0083602,606.4678724,nan,nan
0,295,17:44:11:094000,6,1,405,284.765625,[ 0.01846332  0.46800938 -0.47629333],1,1,1,0.421710424,0,0,0,0.411519277,0.475157423,0.117453146,0.592610569,0.357704277,nan,nan,nan,[ nan  nan  nan],nan,nan,nan,218.5728363,606.950156,607.3718665,nan,nan
0,296,17:44:12:030000,6,0,502,352.96875,[ 0.76474094  0.25241358 -1.        ],0,nan,nan,nan,0,0,0,0.440611309,0.474973756,0.117292872,0.592266629,0.357680884,nan,nan,nan,[ nan  nan  nan],nan,nan,nan,218.5728363,607.8919154,nan,nan,nan
0,297,17:44:12:966000,6,1,335,235.546875,[-0.15559599  0.45562772  0.27689323],1,1,1,0.474043552,0,0,0,0.447876988,0.474973756,0.117292872,0.592266629,0.357680884,nan,nan,nan,[ nan  nan  nan],nan,nan,nan,218.5728363,608.8337401,609.3077837,nan,nan
0,298,17:44:13:918000,6,1,145,101.953125,[ 1.         -0.28166741  0.01505517],1,1,1,0.564260559,0,0,0,0.519152055,0.474970571,0.117091869,0.59206244,0.357878702,nan,nan,nan,[ nan  nan  nan],nan,nan,nan,218.5728363,609.7755383,610.3397988,nan,nan
0,299,17:44:14:854000,6,1,17,11.953125,[ 0.98106915  0.13592191 -1.        ],1,1,1,0.486447236,0,0,0,0.508250449,0.475275315,0.11700782,0.592283135,0.358267495,nan,nan,nan,[ nan  nan  nan],nan,nan,nan,218.5728363,610.7173302,611.2037774,nan,nan
0,300,17:44:15:805000,6,1,372,261.5625,[-0.13866002  0.47845887 -0.08881238],1,1,1,0.480664058,0,0,0,0.510457284,0.475313314,0.116810469,0.592123783,0.358502846,nan,nan,nan,[ nan  nan  nan],nan,nan,nan,218.5728363,611.6591246,612.1397887,nan,nan
0,301,17:44:16:741000,6,1,228,160.3125,[ 0.78072981  0.13027695  0.61143314],1,1,1,0.458815704,0,0,0,0.475308999,0.475331453,0.116612731,0.591944184,0.358718721,nan,nan,nan,[ nan  nan  nan],nan,nan,nan,218.5728363,612.6009157,613.0597314,nan,nan
0,302,17:44:17:677000,6,1,194,136.40625,[ 1.         -0.05248646  0.4355717 ],1,1,1,0.428992068,0,0,0,0.456157277,0.475275656,0.116419528,0.591695184,0.358856128,nan,nan,nan,[ nan  nan  nan],nan,nan,nan,218.5728363,613.5427187,613.9717108,nan,nan
0,303,17:44:18:629000,6,1,256,180,[ 0.48131261  0.25704791  0.65606572],1,1,1,0.335209932,0,0,0,0.407672568,0.475119819,0.116254291,0.59137411,0.358865528,nan,nan,nan,[ nan  nan  nan],nan,nan,nan,218.5728363,614.4844963,614.8197063,nan,nan
0,304,17:44:19:565000,6,0,94,66.09375,[ 1.         -0.24943901 -0.52674516],0,1,0,0.393372139,0,0,0,0.385858046,0.474650323,0.116340769,0.590991092,0.358309554,nan,nan,nan,[ nan  nan  nan],nan,nan,nan,218.5728363,615.4262908,615.8196629,nan,nan
0,305,17:44:20:501000,6,1,232,163.125,[ 0.73915824  0.15004662  0.62371202],1,1,1,0.211566812,0,0,0,0.313382961,0.474378489,0.116240813,0.590619302,0.358137677,nan,nan,nan,[ nan  nan  nan],nan,nan,nan,218.5728363,616.3680895,616.5796563,nan,nan
0,306,17:44:21:452000,6,1,346,243.28125,[-0.17431756  0.46643129  0.17667017],1,1,1,0.293744104,0,0,0,0.299561018,0.473502451,0.117031417,0.590533868,0.356471033,nan,nan,nan,[ nan  nan  nan],nan,nan,nan,218.5728363,617.3098834,617.6036275,nan,nan
0,307,17:44:22:388000,6,1,280,196.875,[ 0.22808935  0.34201885  0.61587222],1,1,1,0.215931636,0,1,0,0.240414184,0.472905247,0.117293842,0.590199089,0.355611404,nan,nan,nan,[ nan  nan  nan],nan,nan,nan,218.5728363,618.2516719,618.4676035,nan,nan
0,308,17:44:28:176000,6,1,108,75.9375,[ 1.         -0.29242661 -0.36866329],1,1,1,0.226108433,1,0,0,0.245261391,0.472054341,0.118026379,0.590080719,0.354027962,nan,-7.650650955,139,[ 1.         -0.29633561 -0.04459929],nan,21.71315096,2.792328743,218.5728363,619.1934732,619.4195816,621.0270086,623.8273637
0,309,17:44:29:112000,6,1,259,182.109375,[ 0.44882283  0.26890698  0.65501178],1,1,1,0.521837092,0,0,0,0.321292387,0.471242638,0.118672776,0.589915414,0.352569862,nan,nan,nan,[ nan  nan  nan],nan,nan,nan,218.5728363,624.9775772,625.4994143,nan,nan
0,310,17:44:30:064000,6,1,316,222.1875,[-0.07182156  0.42820351  0.42789226],1,1,1,0.491926786,0,0,0,0.41329077,0.471409067,0.118512844,0.589921911,0.352896224,nan,nan,nan,[ nan  nan  nan],nan,nan,nan,218.5728363,625.919456,626.4113828,nan,nan
0,311,17:44:31:000000,6,1,242,170.15625,[ 0.63291185  0.19716118  0.6459214 ],1,1,1,0.366211872,0,0,0,0.459991917,0.471476338,0.118324214,0.589800553,0.353152124,nan,nan,nan,[ nan  nan  nan],nan,nan,nan,218.5728363,626.8611667,627.2273785,nan,nan
0,312,17:44:31:936000,6,1,440,309.375,[ 0.2586994  0.4246574 -1.       ],1,1,1,0.376443122,0,0,0,0.41152726,0.471132337,0.118283383,0.58941572,0.352848953,nan,nan,nan,[ nan  nan  nan],nan,nan,nan,218.5728363,627.8029392,628.1793823,nan,nan
0,313,17:44:32:887000,6,1,506,355.78125,[ 0.79777474  0.23670313 -1.        ],1,1,1,0.354616151,0,0,0,0.365757048,0.470823903,0.118213772,0.589037675,0.352610131,nan,nan,nan,[ nan  nan  nan],nan,nan,nan,218.5728363,628.744749,629.0993652,nan,nan
0,314,17:44:33:823000,6,0,78,54.84375,[ 1.         -0.17946765 -0.73990763],0,0,1,0.540766059,0,0,0,0.423941777,0.470446605,0.118206712,0.588653317,0.352239893,nan,nan,nan,[ nan  nan  nan],nan,nan,nan,218.5728363,629.6865352,630.2273013,nan,nan
0,315,17:44:34:775000,6,1,146,102.65625,[ 1.         -0.27879258  0.02488132],1,1,1,0.462952736,0,0,0,0.452778316,0.470674176,0.118082844,0.58875702,0.352591332,nan,nan,nan,[ nan  nan  nan],nan,nan,nan,218.5728363,630.6283354,631.0912881,nan,nan
0,316,17:44:35:711000,6,1,30,21.09375,[ 1.          0.07194566 -1.        ],1,1,1,0.513155625,0,0,0,0.505624807,0.470649268,0.117893047,0.588542315,0.352756221,nan,nan,nan,[ nan  nan  nan],nan,nan,nan,218.5728363,631.5701355,632.0832912,nan,nan
0,317,17:44:36:647000,6,1,325,228.515625,[-0.1194049   0.44263104  0.36018642],1,1,1,0.531333079,0,0,0,0.50248048,0.470785945,0.117727953,0.588513898,0.353057992,nan,nan,nan,[ nan  nan  nan],nan,nan,nan,218.5728363,632.5119266,633.0432597,nan,nan
0,318,17:44:37:598000,6,1,230,161.71875,[ 0.76002313  0.14022421  0.6178111 ],1,1,1,0.557428226,0,0,0,0.53397231,0.470980006,0.117588947,0.588568953,0.353391059,nan,nan,nan,[ nan  nan  nan],nan,nan,nan,218.5728363,633.4537909,634.0112191,nan,nan
0,319,17:44:38:534000,6,1,491,345.234375,[ 0.67303348  0.29270771 -1.        ],1,1,1,0.511726438,0,0,0,0.533495914,0.471256198,0.117502274,0.588758472,0.353753925,nan,nan,nan,[ nan  nan  nan],nan,nan,nan,218.5728363,634.3955075,634.9072339,nan,nan
0,320,17:44:39:470000,6,1,171,120.234375,[ 1.         -0.17601187  0.25645091],1,1,1,0.425923862,0,0,0,0.498359509,0.471385084,0.117337177,0.588722261,0.354047908,nan,nan,nan,[ nan  nan  nan],nan,nan,nan,218.5728363,635.3372994,635.7632233,nan,nan
0,321,17:44:40:422000,6,1,470,330.46875,[ 0.49774161  0.35774078 -1.        ],1,1,1,0.492118086,0,0,0,0.476589462,0.471240763,0.11717869,0.588419453,0.354062073,nan,nan,nan,[ nan  nan  nan],nan,nan,nan,218.5728363,636.2790656,636.7711837,nan,nan
0,322,17:44:41:358000,6,1,385,270.703125,[-0.08797966  0.47773344 -0.23392672],1,1,1,0.430267588,0,0,0,0.449436512,0.471306831,0.116999009,0.58830584,0.354307821,nan,nan,nan,[ nan  nan  nan],nan,nan,nan,218.5728363,637.2208875,637.6511551,nan,nan
0,323,17:44:42:310000,6,1,173,121.640625,[ 1.         -0.16590952  0.27353519],1,1,1,0.488460586,0,0,0,0.470282087,0.471177369,0.11683699,0.588014359,0.354340379,nan,nan,nan,[ nan  nan  nan],nan,nan,nan,218.5728363,638.1626848,638.6511454,nan,nan
0,324,17:44:43:246000,6,1,263,184.921875,[ 0.4056988   0.28417174  0.65182989],1,1,1,0.426648861,0,0,0,0.448459012,0.471231719,0.116657153,0.587888872,0.354574566,nan,nan,nan,[ nan  nan  nan],nan,nan,nan,218.5728363,639.1044821,639.5311309,nan,nan
0,325,17:44:44:182000,6,1,441,310.078125,[ 0.26628726  0.42289189 -1.        ],1,1,1,0.444836579,0,0,0,0.453315342,0.471091961,0.116500822,0.587592783,0.354591139,nan,nan,nan,[ nan  nan  nan],nan,nan,nan,218.5728363,640.0462688,640.4911054,nan,nan
0,326,17:44:45:133000,6,1,56,39.375,[ 1.         -0.06536751 -1.        ],1,1,1,0.351005121,0,0,0,0.407496854,0.471009913,0.116327877,0.58733779,0.354682035,nan,nan,nan,[ nan  nan  nan],nan,nan,nan,218.5728363,640.9880739,641.339079,nan,nan
0,327,17:44:46:069000,6,1,200,140.625,[ 1.         -0.01912099  0.47515178],1,1,1,0.42519373,0,0,0,0.40701181,0.470636066,0.116338912,0.586974978,0.354297154,nan,nan,nan,[ nan  nan  nan],nan,nan,nan,218.5728363,641.9298515,642.3550452,nan,nan
0,328,17:44:47:005000,6,1,465,326.953125,[ 0.45658868  0.37096153 -1.        ],1,1,1,0.355368235,0,0,0,0.377189029,0.470494941,0.116185637,0.586680578,0.354309304,nan,nan,nan,[ nan  nan  nan],nan,nan,nan,218.5728363,642.8716497,643.2270179,nan,nan
0,329,17:44:47:957000,6,1,13,9.140625,[ 0.95026217  0.15466406 -1.        ],1,1,1,0.357558629,0,0,0,0.379373531,0.470138511,0.116181826,0.586320338,0.353956685,nan,nan,nan,[ nan  nan  nan],nan,nan,nan,218.5728363,643.8134401,644.1709988,nan,nan
0,330,17:44:48:893000,6,0,120,84.375,[ 1.         -0.3101615  -0.24016291],0,0,1,0.639740083,0,0,0,0.450888982,0.469791043,0.116170362,0.585961404,0.353620681,nan,nan,nan,[ nan  nan  nan],nan,nan,nan,218.5728363,644.7552369,645.3949769,nan,nan
0,331,17:44:49:829000,6,1,446,313.59375,[ 0.30469626  0.41359904 -1.        ],1,1,1,0.457929625,0,0,0,0.485076113,0.470313963,0.116372782,0.586686745,0.35394118,nan,nan,nan,[ nan  nan  nan],nan,nan,nan,218.5728363,645.6970279,646.1549575,nan,nan
0,332,17:44:50:780000,6,0,67,47.109375,[ 1.         -0.12380467 -1.        ],0,0,1,0.500128151,0,0,0,0.532599286,0.470275974,0.116196178,0.586472152,0.354079796,nan,nan,nan,[ nan  nan  nan],nan,nan,nan,218.5728363,646.6388175,647.1389457,nan,nan
0,333,17:44:51:716000,6,1,253,177.890625,[ 0.5138659   0.24483993  0.65597719],1,1,1,0.3502767,0,0,0,0.436111492,0.470367265,0.11603008,0.586397345,0.354337185,nan,nan,nan,[ nan  nan  nan],nan,nan,nan,218.5728363,647.5806177,647.9308944,nan,nan
0,334,17:44:52:668000,6,1,363,255.234375,[-0.16228773  0.47636573  0.00704813],1,1,1,0.368451018,0,0,0,0.40628529,0.470001135,0.116042098,0.586043233,0.353959038,nan,nan,nan,[ nan  nan  nan],nan,nan,nan,218.5728363,648.5224218,648.8908728,nan,nan
0,335,17:44:53:604000,6,1,58,40.78125,[ 1.         -0.07608966 -1.        ],1,1,1,0.418689544,0,0,0,0.379139087,0.469692472,0.116000382,0.585692854,0.353692091,nan,nan,nan,[ nan  nan  nan],nan,nan,nan,218.5728363,649.4642015,649.882891,nan,nan
0,336,17:44:54:540000,6,1,132,92.8125,[ 1.         -0.30742683 -0.11555536],1,1,1,0.444867369,0,0,0,0.41066931,0.469537918,0.115858411,0.585396329,0.353679507,nan,nan,nan,[ nan  nan  nan],nan,nan,nan,218.5728363,650.4060033,650.8508707,nan,nan
0,337,17:44:55:492000,6,1,299,210.234375,[ 0.05166456  0.39341767  0.53437875],1,1,1,0.487048504,0,0,0,0.450201805,0.469463385,0.115691189,0.585154573,0.353772196,nan,nan,nan,[ nan  nan  nan],nan,nan,nan,218.5728363,651.3477861,651.8348346,nan,nan
0,338,17:44:56:428000,6,1,171,120.234375,[ 1.         -0.17601187  0.25645091],1,1,1,0.385232925,0,0,0,0.439049599,0.469516352,0.115520843,0.585037195,0.353995509,nan,nan,nan,[ nan  nan  nan],nan,nan,nan,218.5728363,652.2895774,652.6748103,nan,nan
0,339,17:44:57:364000,6,1,261,183.515625,[ 0.42722581  0.27661781  0.65367446],1,1,1,0.355419837,0,0,0,0.409233755,0.469263248,0.115439414,0.584702662,0.353823834,nan,nan,nan,[ nan  nan  nan],nan,nan,nan,218.5728363,653.2313756,653.5867954,nan,nan
0,340,17:44:58:315000,6,1,154,108.28125,[ 1.         -0.25181315  0.10213817],1,1,1,0.341591812,0,0,0,0.360748191,0.4689224,0.115434165,0.584356565,0.353488235,nan,nan,nan,[ nan  nan  nan],nan,nan,nan,218.5728363,654.1731683,654.5147601,nan,nan
0,341,17:44:59:251000,6,1,109,76.640625,[ 1.         -0.29463833 -0.3577737 ],1,1,1,0.511784882,0,0,0,0.402932177,0.468542309,0.115470875,0.584013184,0.353071433,nan,nan,nan,[ nan  nan  nan],nan,nan,nan,218.5728363,655.1149568,655.6267417,nan,nan
0,342,17:45:00:203000,6,1,252,177.1875,[ 0.52472169  0.24069367  0.65569401],1,1,1,0.537903123,0,0,0,0.463759939,0.468671007,0.115322975,0.583993982,0.353348032,nan,nan,nan,[ nan  nan  nan],nan,nan,nan,218.5728363,656.056822,656.5947251,nan,nan
0,343,17:45:01:139000,6,1,205,144.140625,[ 1.          0.008548    0.50553524],1,1,1,0.404164173,0,0,0,0.484617393,0.468876443,0.115213303,0.584089746,0.35366314,nan,nan,nan,[ nan  nan  nan],nan,nan,nan,218.5728363,656.9985443,657.4027085,nan,nan
0,344,17:45:02:075000,6,1,360,253.125,[-0.1677095   0.47518832  0.03812586],1,1,1,0.446345878,0,0,0,0.462804391,0.468684987,0.115096419,0.583781405,0.353588568,nan,nan,nan,[ nan  nan  nan],nan,nan,nan,218.5728363,657.9403385,658.3866844,nan,nan
0,345,17:45:03:026000,6,1,19,13.359375,[ 0.99625917  0.12637453 -1.        ],1,1,1,0.416526518,0,0,0,0.422345523,0.46861909,0.11493292,0.58355201,0.35368617,nan,nan,nan,[ nan  nan  nan],nan,nan,nan,218.5728363,658.8821381,659.2986646,nan,nan
0,346,17:45:03:962000,6,1,365,256.640625,[-0.15796203  0.47701659 -0.01391969],1,1,1,0.394682441,0,0,0,0.419184946,0.468465876,0.114798442,0.583264318,0.353667435,nan,nan,nan,[ nan  nan  nan],nan,nan,nan,218.5728363,659.8239197,660.2186021,nan,nan
0,347,17:45:04:898000,6,1,226,158.90625,[ 0.80126593  0.12020899  0.60458277],1,1,1,0.284892435,0,0,0,0.365367131,0.468249503,0.114699403,0.582948905,0.3535501,nan,nan,nan,[ nan  nan  nan],nan,nan,nan,218.5728363,660.7657196,661.050612,nan,nan
0,348,17:45:05:850000,6,1,295,207.421875,[ 0.08602229  0.38372732  0.55498608],1,1,1,0.327054753,0,1,0,0.33554321,0.467713371,0.114958694,0.582672065,0.352754676,nan,nan,nan,[ nan  nan  nan],nan,nan,nan,218.5728363,661.7075326,662.0345873,nan,nan
0,349,17:45:13:291000,6,1,421,296.015625,[ 0.12147167  0.45251804 -0.71261034],1,1,1,0.433275354,1,0,0,0.348407514,0.467303287,0.115041235,0.582344523,0.352262052,nan,140.3009265,440,[ 0.2586994  0.4246574 -1.       ],nan,13.68344848,4.459232515,218.5728363,662.6493034,663.0825787,664.4744951,668.9418706
0,350,17:45:14:227000,6,1,100,70.3125,[ 1.         -0.27042709 -0.4574399 ],1,1,1,0.518397405,0,0,0,0.426242504,0.467204369,0.11488851,0.582092879,0.352315859,nan,nan,nan,[ nan  nan  nan],nan,nan,nan,218.5728363,670.0919715,670.6103689,nan,nan
0,351,17:45:15:179000,6,1,156,109.6875,[ 1.         -0.24406061  0.12104147],1,1,1,0.336628001,0,0,0,0.429433587,0.467352755,0.114754891,0.582107645,0.352597864,nan,nan,nan,[ nan  nan  nan],nan,nan,nan,218.5728363,671.033764,671.370392,nan,nan
0,352,17:45:16:115000,6,1,347,243.984375,[-0.17493884  0.46723881  0.16715748],1,1,1,0.258807551,0,0,0,0.371277652,0.466974937,0.114803626,0.581778563,0.352171312,nan,nan,nan,[ nan  nan  nan],nan,nan,nan,218.5728363,671.975563,672.2343705,nan,nan
0,353,17:45:17:051000,6,0,72,50.625,[ 1.         -0.14960778 -0.85320374],0,1,0,0.284993074,0,0,0,0.293476208,0.466375031,0.115179908,0.581554939,0.351195124,nan,nan,nan,[ nan  nan  nan],nan,nan,nan,218.5728363,672.9173523,673.2023454,nan,nan
0,354,17:45:18:002000,6,1,28,19.6875,[ 1.          0.08206613 -1.        ],1,1,1,0.223089548,0,0,0,0.255630058,0.465853819,0.115423378,0.581277197,0.350430441,nan,nan,nan,[ nan  nan  nan],nan,nan,nan,218.5728363,673.8592297,674.0823193,nan,nan
0,355,17:45:18:938000,6,0,305,214.453125,[ 0.00361193  0.40685925  0.50019691],0,1,0,0.353351464,0,0,0,0.287144695,0.465158219,0.115986057,0.581144277,0.349172162,nan,nan,nan,[ nan  nan  nan],nan,nan,nan,218.5728363,674.8009389,675.1542904,nan,nan
0,356,17:45:19:890000,6,1,437,307.265625,[ 0.23613483  0.42977024 -1.        ],1,1,1,0.37953271,0,0,0,0.318657907,0.464838771,0.115973891,0.580812662,0.34886488,nan,nan,nan,[ nan  nan  nan],nan,nan,nan,218.5728363,675.7427288,676.1222615,nan,nan
0,357,17:45:20:826000,6,1,268,188.4375,[ 0.35230222  0.30236752  0.64500531],1,1,1,0.405723935,0,0,0,0.379536036,0.464595734,0.115897791,0.580493525,0.348697943,nan,nan,nan,[ nan  nan  nan],nan,nan,nan,218.5728363,676.6845162,677.0902401,nan,nan
0,358,17:45:21:762000,6,1,219,153.984375,[ 0.87162732  0.08408817  0.57695967],1,1,1,0.375939642,0,0,0,0.387065429,0.464428485,0.115775457,0.580203941,0.348653028,nan,nan,nan,[ nan  nan  nan],nan,nan,nan,218.5728363,677.6263203,678.00226,nan,nan
0,359,17:45:22:714000,6,1,103,72.421875,[ 1.         -0.27953747 -0.42375884],1,1,1,0.4340779,0,0,0,0.405247159,0.464177808,0.115706975,0.579884783,0.348470833,nan,nan,nan,[ nan  nan  nan],nan,nan,nan,218.5728363,678.5681142,679.0021921,nan,nan
0,360,17:45:23:650000,6,1,204,143.4375,[ 1.          0.00303257  0.49965442],1,1,1,0.380295057,0,0,0,0.396770866,0.46409278,0.115554475,0.579647255,0.348538305,nan,nan,nan,[ nan  nan  nan],nan,nan,nan,218.5728363,679.5099072,679.8902023,nan,nan
0,361,17:45:24:586000,6,1,264,185.625,[ 0.39496696  0.28788971  0.65071762],1,1,1,0.478475944,0,0,0,0.430949634,0.46385673,0.115477044,0.579333774,0.348379686,nan,nan,nan,[ nan  nan  nan],nan,nan,nan,218.5728363,680.4516966,680.9301725,nan,nan
0,362,17:45:25:537000,6,1,117,82.265625,[ 1.         -0.30758797 -0.27188654],1,1,1,0.280570945,0,0,0,0.379780649,0.463897795,0.115317339,0.579215134,0.348580456,nan,nan,nan,[ nan  nan  nan],nan,nan,nan,218.5728363,681.3935865,681.6741575,nan,nan
0,363,17:45:26:473000,6,1,232,163.125,[ 0.73915824  0.15004662  0.62371202],1,1,1,0.202849708,0,1,0,0.320632199,0.463384275,0.115562613,0.578946888,0.347821662,nan,nan,nan,[ nan  nan  nan],nan,nan,nan,218.5728363,682.3352812,682.5381309,nan,nan
0,364,17:45:30:654000,6,1,380,267.1875,[-0.10951951  0.47853303 -0.17717739],1,1,1,0.25303036,1,0,0,0.245483671,0.462656525,0.116217418,0.578873943,0.346439106,nan,-176.281006,379,[-0.11353594  0.47861499 -0.16597052],nan,-0.906493973,1.183796439,218.5728363,683.2770802,683.5301106,685.110598,686.3024843
0,365,17:45:31:590000,6,1,65,45.703125,[ 1.         -0.11331216 -1.        ],1,1,1,0.597336003,0,0,0,0.351072024,0.462072608,0.11658014,0.578652748,0.345492468,nan,nan,nan,[ nan  nan  nan],nan,nan,nan,218.5728363,687.452634,688.04997,nan,nan
0,366,17:45:32:542000,6,0,161,113.203125,[ 1.         -0.22315835  0.16749055],0,0,1,0.56752149,0,0,0,0.472629284,0.462448339,0.116635578,0.579083917,0.345812761,nan,nan,nan,[ nan  nan  nan],nan,nan,nan,218.5728363,688.3944344,688.9619559,nan,nan
0,367,17:45:33:478000,6,1,272,191.25,[ 0.3101667   0.31621412  0.63728143],1,1,1,0.401734868,0,0,0,0.522197454,0.462739401,0.116604769,0.57934417,0.346134631,nan,nan,nan,[ nan  nan  nan],nan,nan,nan,218.5728363,689.3362186,689.7379535,nan,nan
0,368,17:45:34:414000,6,1,438,307.96875,[ 0.24362256  0.42809644 -1.        ],1,1,1,0.331890271,0,0,0,0.433715543,0.46257088,0.116487615,0.579058495,0.346083265,nan,nan,nan,[ nan  nan  nan],nan,nan,nan,218.5728363,690.2780193,690.6099096,nan,nan
0,369,17:45:35:365000,6,1,340,239.0625,[-0.16683717  0.46098011  0.2323764 ],1,1,1,0.318045996,0,0,0,0.350557045,0.462210878,0.116528533,0.578739411,0.345682345,nan,nan,nan,[ nan  nan  nan],nan,nan,nan,218.5728363,691.21986,691.537906,nan,nan
0,370,17:45:36:301000,6,1,202,142.03125,[ 1.         -0.00802826  0.48759698],1,1,1,0.304288675,0,1,0,0.318074981,0.461814821,0.116612757,0.578427578,0.345202064,nan,nan,nan,[ nan  nan  nan],nan,nan,nan,218.5728363,692.1616051,692.4658938,nan,nan
0,371,17:45:41:683000,6,1,158,111.09375,[ 1.         -0.23594923  0.13976411],1,1,1,0.242479231,1,0,0,0.288271301,0.461383242,0.11674364,0.578126882,0.344639603,nan,-30.19601984,171,[ 1.         -0.17601187  0.25645091],nan,9.102269844,2.392262259,218.5728363,693.1033933,693.3458725,694.9202683,697.3205731
0,372,17:45:42:619000,6,1,291,204.609375,[ 0.12202764  0.37344194  0.57379193],1,1,1,0.682586633,0,0,0,0.409784846,0.460785144,0.117142682,0.577927826,0.343642462,nan,nan,nan,[ nan  nan  nan],nan,nan,nan,218.5728363,698.4791126,699.1616992,nan,nan
0,373,17:45:43:555000,6,1,235,165.234375,[ 0.70759192  0.16453778  0.63165963],1,1,1,0.48477258,0,0,0,0.469946148,0.461389508,0.11755297,0.578942477,0.343836538,nan,nan,nan,[ nan  nan  nan],nan,nan,nan,218.5728363,699.4209104,699.905683,nan,nan
0,374,17:45:44:507000,6,1,66,46.40625,[ 1.         -0.11856871 -1.        ],1,1,1,0.438959034,0,0,0,0.535439416,0.461453049,0.117399453,0.578852502,0.344053596,nan,nan,nan,[ nan  nan  nan],nan,nan,nan,218.5728363,700.3627026,700.8016617,nan,nan
0,375,17:45:45:443000,6,1,195,137.109375,[ 1.         -0.04692453  0.44239605],1,1,1,0.385161651,0,0,0,0.436297755,0.461392089,0.117246099,0.578638189,0.34414599,nan,nan,nan,[ nan  nan  nan],nan,nan,nan,218.5728363,701.3044939,701.6896556,nan,nan
0,376,17:45:46:379000,6,1,318,223.59375,[-0.08356276  0.43164026  0.41348156],1,1,1,0.323275517,0,0,0,0.3824654,0.461186061,0.117154419,0.57834048,0.344031642,nan,nan,nan,[ nan  nan  nan],nan,nan,nan,218.5728363,702.2463634,702.5696389,nan,nan
0,377,17:45:47:331000,6,1,454,319.21875,[ 0.36762736  0.39708484 -1.        ],1,1,1,0.269560812,0,0,0,0.325999327,0.460814335,0.117214716,0.578029051,0.343599618,nan,nan,nan,[ nan  nan  nan],nan,nan,nan,218.5728363,703.1880817,703.4576425,nan,nan
0,378,17:45:48:267000,6,1,60,42.1875,[ 1.         -0.08678377 -1.        ],1,1,1,0.247744104,0,0,0,0.280193478,0.460300212,0.117475187,0.577775399,0.342825026,nan,nan,nan,[ nan  nan  nan],nan,nan,nan,218.5728363,704.1298713,704.3776154,nan,nan
0,379,17:45:49:218000,6,0,167,117.421875,[ 1.         -0.19560581  0.22154672],0,1,0,0.201922005,0,0,0,0.239742307,0.459730357,0.117831331,0.577561688,0.341899026,nan,nan,nan,[ nan  nan  nan],nan,nan,nan,218.5728363,705.0716715,705.2735935,nan,nan
0,380,17:45:50:154000,6,1,36,25.3125,[ 1.          0.04106996 -1.        ],1,1,1,0.268132765,0,0,0,0.239266291,0.45904103,0.118424398,0.577465428,0.340616631,nan,nan,nan,[ nan  nan  nan],nan,nan,nan,218.5728363,706.0134166,706.2815494,nan,nan
0,381,17:45:51:090000,6,1,460,323.4375,[ 0.41584892  0.38333493 -1.        ],1,1,1,0.342260363,0,0,0,0.270771711,0.458531941,0.118675482,0.577207422,0.339856459,nan,nan,nan,[ nan  nan  nan],nan,nan,nan,218.5728363,706.9552712,707.2975316,nan,nan
0,382,17:45:52:042000,6,1,147,103.359375,[ 1.         -0.27580113  0.03467205],1,1,1,0.328493349,0,0,0,0.312962159,0.458222708,0.11866875,0.576891458,0.339553958,nan,nan,nan,[ nan  nan  nan],nan,nan,nan,218.5728363,707.8970455,708.2255388,nan,nan
0,383,17:45:52:978000,6,1,77,54.140625,[ 1.         -0.17459302 -0.75626719],1,1,1,0.458664888,0,0,0,0.376472867,0.457878598,0.118698953,0.576577551,0.339179645,nan,nan,nan,[ nan  nan  nan],nan,nan,nan,218.5728363,708.8388399,709.2975048,nan,nan
0,384,17:45:53:914000,6,1,466,327.65625,[ 0.46478901  0.3683856  -1.        ],1,1,1,0.356823651,0,0,0,0.381327296,0.457880678,0.118541847,0.576422525,0.339338832,nan,nan,nan,[ nan  nan  nan],nan,nan,nan,218.5728363,709.7806541,710.1374777,nan,nan
0,385,17:45:54:865000,6,1,91,63.984375,[ 1.         -0.2377099  -0.56272232],1,1,1,0.3910372,0,0,0,0.402175247,0.457614037,0.118498807,0.576112844,0.33911523,nan,nan,nan,[ nan  nan  nan],nan,nan,nan,218.5728363,710.7224277,711.1134649,nan,nan
0,386,17:45:55:801000,6,1,326,229.21875,[-0.12383419  0.44407177  0.35222354],1,1,1,0.353230013,0,0,0,0.367030288,0.457438835,0.118391927,0.575830762,0.339046907,nan,nan,nan,[ nan  nan  nan],nan,nan,nan,218.5728363,711.6642133,712.0174433,nan,nan
0,387,17:45:56:753000,6,0,378,265.78125,[-0.11745014  0.47867092 -0.15481012],0,0,1,0.523397424,0,0,0,0.422554879,0.457165321,0.11835661,0.575521931,0.338808711,nan,nan,nan,[ nan  nan  nan],nan,nan,nan,218.5728363,712.6060132,713.1294106,nan,nan
0,388,17:45:57:689000,6,1,155,108.984375,[ 1.         -0.24798314  0.11161188],1,1,1,0.341602646,0,0,0,0.406076694,0.457338703,0.11825003,0.575588734,0.339088673,nan,nan,nan,[ nan  nan  nan],nan,nan,nan,218.5728363,713.5477937,713.8893963,nan,nan
0,389,17:45:58:625000,6,1,75,52.734375,[ 1.         -0.16471446 -0.79135592],1,1,1,0.399745751,0,0,0,0.42158194,0.45703652,0.11824315,0.57527967,0.338793371,nan,nan,nan,[ nan  nan  nan],nan,nan,nan,218.5728363,714.489601,714.8893467,nan,nan
0,390,17:45:59:577000,6,1,159,111.796875,[ 1.         -0.23176597  0.14905501],1,1,1,0.345941811,0,0,0,0.362430069,0.456887326,0.118125178,0.575012504,0.338762148,nan,nan,nan,[ nan  nan  nan],nan,nan,nan,218.5728363,715.4313894,715.7773313,nan,nan
0,391,17:46:00:513000,6,1,423,297.421875,[ 0.13522958  0.45008089 -0.75003992],1,1,1,0.228158845,0,0,0,0.324615469,0.456599156,0.118106743,0.574705899,0.338492412,nan,nan,nan,[ nan  nan  nan],nan,nan,nan,218.5728363,716.3731799,716.6013388,nan,nan
0,392,17:46:01:449000,6,1,324,227.8125,[-0.11479964  0.44115833  0.36806404],1,1,1,0.270326296,0,0,0,0.281475651,0.456007341,0.118523875,0.574531216,0.337483466,nan,nan,nan,[ nan  nan  nan],nan,nan,nan,218.5728363,717.3149969,717.5853232,nan,nan
0,393,17:46:02:400000,6,0,236,165.9375,[ 0.69700456  0.16930175  0.63406585],0,1,0,0.208523409,0,0,0,0.235669517,0.455527545,0.118745393,0.574272938,0.336782153,nan,nan,nan,[ nan  nan  nan],nan,nan,nan,218.5728363,718.256772,718.4652954,nan,nan
0,394,17:46:03:336000,6,1,379,266.484375,[-0.11353594  0.47861499 -0.16597052],1,1,1,0.362711745,0,0,0,0.280520483,0.454890937,0.119251694,0.574142631,0.335639243,nan,nan,nan,[ nan  nan  nan],nan,nan,nan,218.5728363,719.1985584,719.5612702,nan,nan
0,395,17:46:04:288000,6,1,224,157.5,[ 0.82161942  0.11002479  0.59726488],1,1,1,0.364894442,0,0,0,0.312043199,0.454653972,0.119189747,0.57384372,0.335464225,nan,nan,nan,[ nan  nan  nan],nan,nan,nan,218.5728363,720.1403543,720.5052488,nan,nan
0,396,17:46:05:224000,6,1,274,192.65625,[ 0.28934405  0.32290089  0.63267027],1,1,1,0.399114833,0,0,0,0.375573673,0.45442382,0.119123361,0.573547181,0.335300459,nan,nan,nan,[ nan  nan  nan],nan,nan,nan,218.5728363,721.0821451,721.4812599,nan,nan
0,397,17:46:06:160000,6,1,354,248.90625,[-0.17447067  0.47210079  0.09886772],1,1,1,0.633285789,0,0,0,0.465765021,0.454282364,0.119003724,0.573286088,0.33527864,nan,nan,nan,[ nan  nan  nan],nan,nan,nan,218.5728363,722.0239159,722.6572017,nan,nan
0,398,17:46:07:111000,6,1,400,281.25,[-0.01078748  0.4714273  -0.41269269],1,1,1,0.48345458,0,0,0,0.505285067,0.454739006,0.119194341,0.573933347,0.335544665,nan,nan,nan,[ nan  nan  nan],nan,nan,nan,218.5728363,722.9657348,723.4491894,nan,nan
0,399,17:46:08:047000,6,1,75,52.734375,[ 1.         -0.16471446 -0.79135592],1,1,1,0.453610987,0,0,0,0.523450452,0.454812073,0.119051388,0.573863461,0.335760686,nan,nan,nan,[ nan  nan  nan],nan,nan,nan,218.5728363,723.907529,724.36114,nan,nan
0,400,17:46:08:983000,6,1,121,85.078125,[ 1.         -0.31073281 -0.22964081],1,1,1,0.271763751,0,0,0,0.402943106,0.454809025,0.118900227,0.573709252,0.335908798,nan,nan,nan,[ nan  nan  nan],nan,nan,nan,218.5728363,724.8493637,725.1211274,nan,nan
0,401,17:46:09:935000,6,1,320,225,[-0.09465004  0.43494402  0.39870124],1,1,1,0.273994344,0,0,0,0.333123027,0.454345619,0.119105343,0.573450963,0.335240276,nan,nan,nan,[ nan  nan  nan],nan,nan,nan,218.5728363,725.7911105,726.0651049,nan,nan
0,402,17:46:10:871000,6,1,23,16.171875,[ 1.          0.10694394 -1.        ],1,1,1,0.548175427,0,0,0,0.364644507,0.453890187,0.119298742,0.573188929,0.334591445,nan,nan,nan,[ nan  nan  nan],nan,nan,nan,218.5728363,726.7329127,727.2810881,nan,nan
0,403,17:46:11:823000,6,1,370,260.15625,[-0.144806    0.47817873 -0.06718033],1,nan,nan,nan,0,0,0,0.411084885,0.454127681,0.119242091,0.573369772,0.33488559,nan,nan,nan,[ nan  nan  nan],nan,nan,nan,218.5728363,727.6747051,nan,nan,nan
0,404,17:46:12:759000,6,1,79,55.546875,[ 1.         -0.18429602 -0.72417078],1,1,1,0.056579067,0,0,0,0.302377247,0.454127681,0.119242091,0.573369772,0.33488559,nan,nan,nan,[ nan  nan  nan],nan,nan,nan,218.5728363,728.6164939,728.673073,nan,nan
0,405,17:46:13:695000,6,1,383,269.296875,[-0.09687871  0.47813121 -0.21108141],1,1,1,0.058726127,0,0,0,0.057652597,0.453128815,0.120743741,0.573872556,0.332385074,nan,nan,nan,[ nan  nan  nan],nan,nan,nan,218.5728363,729.5582847,729.6170108,nan,nan
0,406,17:46:14:646000,6,1,480,337.5,[ 0.58092807  0.32870764 -1.        ],1,nan,nan,nan,0,0,0,0.057652597,0.452140337,0.12219408,0.574334417,0.329946257,nan,nan,nan,[ nan  nan  nan],nan,nan,nan,218.5728363,730.5000777,nan,nan,nan
0,407,17:46:15:582000,6,1,189,132.890625,[ 1.         -0.08021946  0.40014347],1,nan,nan,nan,0,0,0,0.058726127,0.452140337,0.12219408,0.574334417,0.329946257,nan,nan,nan,[ nan  nan  nan],nan,nan,nan,218.5728363,731.4418702,nan,nan,nan
0,408,17:46:16:518000,6,1,399,280.546875,[-0.01644604  0.47203125 -0.40027452],1,1,1,0.049259505,0,0,0,0.049259505,0.452140337,0.12219408,0.574334417,0.329946257,nan,nan,nan,[ nan  nan  nan],nan,nan,nan,218.5728363,732.3837134,732.4329729,nan,nan
0,409,17:46:17:470000,6,1,86,60.46875,[ 1.         -0.21659106 -0.6256178 ],1,1,1,0.779465484,0,0,0,0.414362495,0.451133135,0.12368845,0.574821585,0.327444685,nan,nan,nan,[ nan  nan  nan],nan,nan,nan,218.5728363,733.3254633,734.1049288,nan,nan
0,410,17:46:18:406000,6,1,145,101.953125,[ 1.         -0.28166741  0.01505517],1,nan,nan,nan,0,0,0,0.414362495,0.451951919,0.124614782,0.576566701,0.327337137,nan,nan,nan,[ nan  nan  nan],nan,nan,nan,218.5728363,734.2672473,nan,nan,nan
