block,trial,time,setsize,freqtrials,trials_colorind,trials_colordeg,colorrgb0,colorrgb1,colorrgb2,correct_response,actual_response,acc,rts,probe_trials,rt_triggered_fast,rt_triggered_slow,rt_strailingavg,rts_runningavg,rts_runningstd,rts_runningslowthresh,rts_runningfastthresh,wm_respdeg,wm_respind,wm_resprgb0,wm_resprgb1,wm_resprgb2,wm_respcolorminusorigcolor,wm_rts,time_blockstart,time_encarray_onset,time_response,time_encarray_offest,time_memprobe_onset,time_memprobe_offset
0,0,4334,6,1,463,325,0.440238315199,0.376011795327,-1.0,1,1.0,1.0,0.307909924537,0,nan,nan,nan,nan,nan,nan,nan,nan,nan,0.0,0.0,0.0,nan,nan,338.512055932,339.53211627,339.840026194,340.032174714,nan,nan
0,1,4335,6,1,162,113,1.0,-0.218739557155,0.176632971453,1,1.0,1.0,0.291433551349,0,nan,nan,nan,nan,nan,nan,nan,nan,nan,0.0,0.0,0.0,nan,nan,338.512055932,340.5405985,340.832032051,341.040611044,nan,nan
0,2,4336,6,1,510,358,0.830554458933,0.220436700166,-1.0,1,1.0,1.0,0.275277628563,0,nan,nan,nan,nan,nan,nan,nan,nan,nan,0.0,0.0,0.0,nan,nan,338.512055932,341.540717956,341.815995584,342.040739338,nan,nan
0,3,4337,6,0,198,139,1.0,-0.0302354974571,0.462326941081,0,0.0,1.0,0.466991944239,0,nan,nan,nan,nan,nan,nan,nan,nan,nan,0.0,0.0,0.0,nan,nan,338.512055932,342.54099165,343.007983594,343.040895287,nan,nan
0,4,4338,6,1,438,307,0.243622561222,0.428096439079,-1.0,1,1.0,1.0,0.323004714213,0,nan,nan,nan,nan,nan,nan,nan,nan,nan,0.0,0.0,0.0,nan,nan,338.512055932,343.540955442,343.863960156,344.040989654,nan,nan
0,5,4339,6,1,375,263,-0.128556699755,0.478682433309,-0.121605159467,1,1.0,1.0,0.290902699344,0,nan,nan,nan,nan,nan,nan,nan,nan,nan,0.0,0.0,0.0,nan,nan,338.512055932,344.541085732,344.831988432,345.041122509,nan,nan
0,6,4340,6,1,455,319,0.375608248681,0.394875365091,-1.0,1,1.0,1.0,0.378724517301,0,nan,nan,nan,nan,nan,nan,nan,nan,nan,0.0,0.0,0.0,nan,nan,338.512055932,345.541202907,345.919927425,346.041274467,nan,nan
0,7,4341,6,1,74,52,1.0,-0.159715158178,-0.810443278181,1,1.0,1.0,0.394552294165,0,nan,nan,nan,nan,nan,nan,nan,nan,nan,0.0,0.0,0.0,nan,nan,338.512055932,346.541347736,346.935900031,347.04140105,nan,nan
0,8,4342,6,1,316,222,-0.0718215561597,0.428203514031,0.427892255365,1,1.0,1.0,0.36242661532,0,nan,nan,nan,nan,nan,nan,nan,nan,nan,0.0,0.0,0.0,nan,nan,338.512055932,347.541470614,347.90389723,348.04151851,nan,nan
0,9,4349,6,1,149,104,1.0,-0.269478519393,0.0541436597792,1,1.0,1.0,0.295817500912,1,nan,nan,nan,nan,nan,nan,nan,-18.6836988354,155.0,1.0,-0.2479831371,0.111611878621,3.91807383535,3.73411891144,338.512055932,348.648059851,348.943877352,349.149985118,350.46680606,354.208949619
0,10,4350,6,0,235,165,0.707591924495,0.164537776567,0.631659631194,0,0.0,1.0,0.429956881329,0,nan,nan,nan,nan,nan,nan,nan,nan,nan,0.0,0.0,0.0,nan,nan,338.512055932,355.425820112,355.855776994,355.925854894,nan,nan
0,11,4351,6,1,494,347,0.698129958021,0.282143999684,-1.0,1,1.0,1.0,0.333876349963,0,nan,nan,nan,nan,nan,nan,nan,nan,nan,0.0,0.0,0.0,nan,nan,338.512055932,356.425910203,356.759786553,356.925965227,nan,nan
0,12,4357,6,1,194,136,1.0,-0.0524864644427,0.435571704399,1,1.0,1.0,0.269654073752,1,nan,nan,nan,nan,nan,nan,nan,63.7680600668,37.0,1.0,0.0358565504353,-1.0,-110.174310067,2.93400983233,338.512055932,357.426057599,357.695711672,357.926081832,359.251251579,362.19330174
0,13,4358,6,1,397,279,-0.0275613476434,0.473159987783,-0.37569455347,1,1.0,1.0,0.477806274779,0,nan,nan,nan,nan,nan,nan,nan,nan,nan,0.0,0.0,0.0,nan,nan,338.512055932,363.401806893,363.879613168,363.901839394,nan,nan
0,14,4359,6,1,337,236,-0.160643365934,0.457858386897,0.259303564052,1,1.0,1.0,0.373651771806,0,nan,nan,nan,nan,nan,nan,nan,nan,nan,0.0,0.0,0.0,nan,nan,338.512055932,364.401945735,364.775597507,364.901981942,nan,nan
0,15,4400,6,1,181,127,1.0,-0.123914391386,0.3392011262,1,1.0,1.0,0.445500985719,0,nan,nan,nan,nan,nan,nan,nan,nan,nan,0.0,0.0,0.0,nan,nan,338.512055932,365.40207631,365.847577295,365.902088854,nan,nan
0,16,4401,6,1,113,79,1.0,-0.302191989669,-0.314576349441,1,1.0,1.0,0.421023341827,0,nan,nan,nan,nan,nan,nan,nan,nan,nan,0.0,0.0,0.0,nan,nan,338.512055932,366.410543145,366.831566487,366.91060159,nan,nan
0,17,4402,6,1,434,305,0.213881816697,0.43461034373,-1.0,1,1.0,1.0,0.468874445185,0,nan,nan,nan,nan,nan,nan,nan,nan,nan,0.0,0.0,0.0,nan,nan,338.512055932,367.410674861,367.879549306,367.910683698,nan,nan
0,18,4403,6,1,276,194,0.268710435127,0.329430325417,0.627563005949,1,1.0,1.0,0.548685584217,0,nan,nan,nan,nan,nan,nan,nan,nan,nan,0.0,0.0,0.0,nan,nan,338.512055932,368.410820261,368.959505845,368.910859033,nan,nan
0,19,4404,6,0,99,69,1.0,-0.267176270739,-0.468793303331,0,0.0,1.0,0.548584089614,0,nan,nan,nan,nan,nan,nan,nan,nan,nan,0.0,0.0,0.0,nan,nan,338.512055932,369.410940002,369.959524091,369.910988183,nan,nan
0,20,4405,6,1,379,266,-0.113535935895,0.478614986251,-0.165970515924,1,1.0,1.0,0.372441817075,0,nan,nan,nan,nan,nan,nan,nan,nan,nan,0.0,0.0,0.0,nan,nan,338.512055932,370.411058317,370.783500134,370.91111163,nan,nan
0,21,4406,6,1,38,26,1.0,0.0306259494545,-1.0,1,0.0,0.0,0.484275999479,0,0.0,0.0,nan,nan,nan,nan,nan,nan,nan,0.0,0.0,0.0,nan,nan,338.512055932,371.411191458,371.895467457,371.911216831,nan,nan
0,22,4407,6,1,218,153,0.881467392804,0.0788246127756,0.572559633417,1,1.0,1.0,0.556120935827,0,nan,nan,nan,nan,nan,nan,nan,nan,nan,0.0,0.0,0.0,nan,nan,338.512055932,372.411309488,372.967430424,372.911365367,nan,nan
0,23,4408,6,1,407,286,0.0305886347219,0.46645515455,-0.502577406972,1,1.0,1.0,0.468005182222,0,nan,nan,nan,nan,nan,nan,nan,nan,nan,0.0,0.0,0.0,nan,nan,338.512055932,373.411436357,373.879441539,373.911473989,nan,nan
0,24,4409,6,1,188,132,1.0,-0.0857393506835,0.392804289229,1,1.0,1.0,0.523833038285,0,nan,nan,nan,nan,nan,nan,nan,nan,nan,0.0,0.0,0.0,nan,nan,338.512055932,374.411582896,374.935415935,374.911627087,nan,nan
0,25,4410,6,1,329,231,-0.136053278316,0.448203788942,0.3278337444,1,1.0,1.0,0.475717647932,0,nan,nan,nan,nan,nan,nan,nan,nan,nan,0.0,0.0,0.0,nan,nan,338.512055932,375.411689809,375.887407457,375.911726872,nan,nan
0,26,4411,6,1,399,280,-0.0164460389312,0.472031251936,-0.400274523968,1,1.0,1.0,0.411582612433,0,nan,nan,nan,nan,nan,nan,nan,nan,nan,0.0,0.0,0.0,nan,nan,338.512055932,376.411818388,376.823401,376.911851459,nan,nan
0,27,4412,6,1,4,2,0.879126049628,0.195014037372,-1.0,1,1.0,1.0,0.387409168296,0,nan,nan,nan,nan,nan,nan,nan,nan,nan,0.0,0.0,0.0,nan,nan,338.512055932,377.411943831,377.799352999,377.911969774,nan,nan
0,28,4413,6,1,156,109,1.0,-0.244060613314,0.121041471254,1,1.0,1.0,0.291273041628,0,nan,nan,nan,nan,nan,nan,nan,nan,nan,0.0,0.0,0.0,nan,nan,338.512055932,378.412066708,378.70333975,378.912098924,nan,nan
0,29,4414,6,0,384,270,-0.0924750057551,0.477945316949,-0.222479273925,0,0.0,1.0,0.387106109411,0,nan,nan,nan,nan,nan,nan,nan,nan,nan,0.0,0.0,0.0,nan,nan,338.512055932,379.412213818,379.799319928,379.912256869,nan,nan
0,30,4415,6,1,190,133,1.0,-0.0746884387243,0.407399635172,1,1.0,1.0,0.299005749635,0,nan,nan,nan,nan,nan,nan,nan,nan,nan,0.0,0.0,0.0,nan,nan,338.512055932,380.412312462,380.711318212,380.912343537,nan,nan
0,31,4416,6,1,67,47,1.0,-0.12380466598,-1.0,1,1.0,1.0,0.392388971522,0,nan,nan,nan,nan,nan,nan,nan,nan,nan,0.0,0.0,0.0,nan,nan,338.512055932,381.438906672,381.831295644,381.937473485,nan,nan
0,32,4417,6,1,207,145,0.985653507947,0.0195431921708,0.51699622314,1,1.0,1.0,0.401694849133,0,nan,nan,nan,nan,nan,nan,nan,nan,nan,0.0,0.0,0.0,nan,nan,338.512055932,382.437578117,382.839272966,382.937621451,nan,nan
0,33,4418,6,1,302,212,0.027086081288,0.400300843718,0.517770016443,1,1.0,1.0,0.38554605376,0,nan,nan,nan,nan,nan,nan,nan,nan,nan,0.0,0.0,0.0,nan,nan,338.512055932,383.437710402,383.823256455,383.937734635,nan,nan
0,34,4419,6,1,459,322,0.407758158413,0.385709174134,-1.0,1,1.0,1.0,0.377397103235,0,nan,nan,nan,nan,nan,nan,nan,nan,nan,0.0,0.0,0.0,nan,nan,338.512055932,384.437840121,384.815237224,384.937859223,nan,nan
0,35,4420,6,1,413,290,0.0683106243366,0.461143133648,-0.585495598612,1,1.0,1.0,0.385257819667,0,nan,nan,nan,nan,nan,nan,nan,nan,nan,0.0,0.0,0.0,nan,nan,338.512055932,385.437965564,385.823223384,385.937989512,nan,nan
0,36,4421,6,1,156,109,1.0,-0.244060613314,0.121041471254,1,1.0,1.0,0.382098935544,0,nan,nan,nan,nan,nan,nan,nan,nan,nan,0.0,0.0,0.0,nan,nan,338.512055932,386.513118491,386.895217426,387.013120486,nan,nan
0,37,4422,6,1,298,209,0.0600896634305,0.391050340636,0.53969689008,1,1.0,1.0,0.381949258968,0,nan,nan,nan,nan,nan,nan,nan,nan,nan,0.0,0.0,0.0,nan,nan,338.512055932,387.51323253,387.895181789,388.013252486,nan,nan
0,38,4423,6,1,408,286,0.036737934283,0.465637664749,-0.515938449969,1,1.0,1.0,0.372458922677,0,nan,nan,nan,nan,nan,nan,nan,nan,nan,0.0,0.0,0.0,nan,nan,338.512055932,388.54670273,388.919161652,389.046711567,nan,nan
0,39,4424,6,1,187,131,1.0,-0.0912463489427,0.385383214542,1,1.0,1.0,0.364352451637,0,nan,nan,nan,nan,nan,nan,nan,nan,nan,0.0,0.0,0.0,nan,nan,338.512055932,389.546801658,389.91115411,390.046857538,nan,nan
0,40,4425,6,0,329,231,-0.136053278316,0.448203788942,0.3278337444,0,0.0,1.0,0.572151416913,0,nan,nan,nan,nan,nan,nan,nan,nan,nan,0.0,0.0,0.0,nan,nan,338.512055932,390.546962453,391.11911387,391.04701092,nan,nan
0,41,4426,6,1,489,343,0.656284860842,0.299572439858,-1.0,1,1.0,1.0,0.452034287155,0,nan,nan,nan,nan,nan,nan,nan,nan,nan,0.0,0.0,0.0,nan,nan,338.512055932,391.547079058,391.999113346,392.047087612,nan,nan
0,42,4427,6,1,232,163,0.739158239773,0.150046616059,0.623712016981,1,1.0,1.0,0.403899511322,0,nan,nan,nan,nan,nan,nan,nan,nan,nan,0.0,0.0,0.0,nan,nan,338.512055932,392.547211628,392.95111114,393.047250972,nan,nan
0,43,4428,6,1,429,301,0.177531820842,0.442080780324,-0.901885199234,1,1.0,1.0,0.467745457776,0,nan,nan,nan,nan,nan,nan,nan,nan,nan,0.0,0.0,0.0,nan,nan,338.512055932,393.547334791,394.015080249,394.047356173,nan,nan
0,44,4429,6,1,15,10,0.965734432428,0.145352784795,-1.0,1,1.0,1.0,0.500198142603,0,nan,nan,nan,nan,nan,nan,nan,nan,nan,0.0,0.0,0.0,nan,nan,338.512055932,394.56414872,395.064346863,395.064187779,nan,nan
0,45,4430,6,1,153,107,1.0,-0.255547855702,0.0926213922694,1,1.0,1.0,0.458803934976,0,nan,nan,nan,nan,nan,nan,nan,nan,nan,0.0,0.0,0.0,nan,nan,338.512055932,395.564247934,396.023051869,396.064273878,nan,nan
0,46,4431,6,1,338,237,-0.162891363375,0.458928707883,0.250399161362,1,1.0,1.0,0.34663761314,0,nan,nan,nan,nan,nan,nan,nan,nan,nan,0.0,0.0,0.0,nan,nan,338.512055932,396.564386777,396.91102439,397.064413005,nan,nan
0,47,4432,6,0,24,16,1.0,0.102019060141,-1.0,0,0.0,1.0,0.522475686856,0,nan,nan,nan,nan,nan,nan,nan,nan,nan,0.0,0.0,0.0,nan,nan,338.512055932,397.56452619,398.087001877,398.064573801,nan,nan
0,48,4433,6,1,218,153,0.881467392804,0.0788246127756,0.572559633417,1,1.0,1.0,0.394370686263,0,nan,nan,nan,nan,nan,nan,nan,nan,nan,0.0,0.0,0.0,nan,nan,338.512055932,398.564617706,398.958988393,399.064663322,nan,nan
0,49,4434,6,1,62,43,1.0,-0.0974372467467,-1.0,1,1.0,1.0,0.466207070276,0,nan,nan,nan,nan,nan,nan,nan,nan,nan,0.0,0.0,0.0,nan,nan,338.512055932,399.564763961,400.030971032,400.064794752,nan,nan
0,50,4435,6,1,456,320,0.383612429175,0.392633185378,-1.0,1,1.0,1.0,0.51404619962,0,nan,nan,nan,nan,nan,nan,nan,nan,nan,0.0,0.0,0.0,nan,nan,338.512055932,400.564891115,401.078937314,401.064959253,nan,nan
0,51,4436,6,1,14,9,0.95801504718,0.150023555696,-1.0,1,1.0,1.0,0.449906032532,0,nan,nan,nan,nan,nan,nan,nan,nan,nan,0.0,0.0,0.0,nan,nan,338.512055932,401.565025396,402.014931428,402.065041931,nan,nan
0,52,4437,6,1,463,325,0.440238315199,0.376011795327,-1.0,1,1.0,1.0,0.345746682957,0,nan,nan,nan,nan,nan,nan,nan,nan,nan,0.0,0.0,0.0,nan,nan,338.512055932,402.565163668,402.910910351,403.065189042,nan,nan
0,53,4438,6,1,231,162,0.749609680972,0.145151270079,0.620821461523,1,1.0,1.0,0.425651905127,0,nan,nan,nan,nan,nan,nan,nan,nan,nan,0.0,0.0,0.0,nan,nan,338.512055932,403.565255185,403.99090709,404.065303652,nan,nan
0,54,4439,6,1,399,280,-0.0164460389312,0.472031251936,-0.400274523968,1,1.0,1.0,0.400121965446,0,nan,nan,nan,nan,nan,nan,nan,nan,nan,0.0,0.0,0.0,nan,nan,338.512055932,404.598758455,404.998880421,405.098760736,nan,nan
0,55,4440,6,1,31,21,1.0,0.0668515730764,-1.0,1,1.0,1.0,0.432015288621,0,nan,nan,nan,nan,nan,nan,nan,nan,nan,0.0,0.0,0.0,nan,nan,338.512055932,405.598869073,406.030884362,406.09890129,nan,nan
0,56,4441,6,1,382,268,-0.1011887567,0.478291136399,-0.199732273247,1,1.0,1.0,0.591813758947,0,nan,nan,nan,nan,nan,nan,nan,nan,nan,0.0,0.0,0.0,nan,nan,338.512055932,406.599021886,407.190835644,407.099056668,nan,nan
0,57,4442,6,1,479,336,0.572572153349,0.331768222426,-1.0,1,1.0,1.0,0.487709147856,0,nan,nan,nan,nan,nan,nan,nan,nan,nan,0.0,0.0,0.0,nan,nan,338.512055932,407.5991211,408.086830248,408.107494708,nan,nan
0,58,4443,6,1,142,99,1.0,-0.289568116499,-0.0146273521697,1,1.0,1.0,0.391567889601,0,nan,nan,nan,nan,nan,nan,nan,nan,nan,0.0,0.0,0.0,nan,nan,338.512055932,408.59925367,408.99082156,409.099299571,nan,nan
0,59,4444,6,1,212,149,0.93926288676,0.0467731277665,0.543851001166,1,1.0,1.0,0.359413132071,0,nan,nan,nan,nan,nan,nan,nan,nan,nan,0.0,0.0,0.0,nan,nan,338.512055932,409.599384815,409.958797948,410.099390803,nan,nan
0,60,4445,6,1,414,291,0.0747837862165,0.460162189034,-0.600089175003,1,1.0,1.0,0.34326747153,0,nan,nan,nan,nan,nan,nan,nan,nan,nan,0.0,0.0,0.0,nan,nan,338.512055932,410.599512825,410.942780296,411.09954504,nan,nan
0,61,4446,6,0,314,220,-0.0594438881467,0.42463230952,0.441925406839,0,0.0,1.0,0.471121585928,0,nan,nan,nan,nan,nan,nan,nan,nan,nan,0.0,0.0,0.0,nan,nan,338.512055932,411.59964454,412.070766126,412.099676185,nan,nan
0,62,4447,6,1,94,66,1.0,-0.249439013202,-0.526745155233,1,1.0,1.0,0.519004620612,0,nan,nan,nan,nan,nan,nan,nan,nan,nan,0.0,0.0,0.0,nan,nan,338.512055932,412.59973463,413.118739251,413.099819589,nan,nan
0,63,4448,6,1,38,26,1.0,0.0306259494545,-1.0,1,1.0,1.0,0.326863228343,0,nan,nan,nan,nan,nan,nan,nan,nan,nan,0.0,0.0,0.0,nan,nan,338.512055932,413.59986435,413.926727578,414.099909966,nan,nan
0,64,4449,6,1,494,347,0.698129958021,0.282143999684,-1.0,1,1.0,1.0,0.374658452347,0,nan,nan,nan,nan,nan,nan,nan,nan,nan,0.0,0.0,0.0,nan,nan,338.512055932,414.60002543,414.974683883,415.100035978,nan,nan
0,65,4450,6,1,163,114,1.0,-0.214247802105,0.185723682048,1,1.0,1.0,0.358533890918,0,nan,nan,nan,nan,nan,nan,nan,nan,nan,0.0,0.0,0.0,nan,nan,338.512055932,415.600143746,415.958677636,416.100166554,nan,nan
0,66,4451,6,1,208,146,0.97651257568,0.025020743352,0.522574479073,1,1.0,1.0,0.334394942969,0,nan,nan,nan,nan,nan,nan,nan,nan,nan,0.0,0.0,0.0,nan,nan,338.512055932,416.600265767,416.93466071,417.100322503,nan,nan
0,67,4457,6,1,395,277,-0.0383984177995,0.474183508328,-0.351427224487,1,1.0,1.0,0.286227950826,1,nan,nan,nan,nan,nan,nan,nan,175.932480433,390.0,-0.0641960347588,0.476284203309,-0.291947553613,-3.66685543342,2.91735869367,338.512055932,417.60041858,417.886646531,418.100421716,419.425573788,422.350950003
0,68,4458,6,1,467,328,0.473005185182,0.365775667588,-1.0,1,1.0,1.0,0.598671500571,0,nan,nan,nan,nan,nan,nan,nan,nan,nan,0.0,0.0,0.0,nan,nan,338.512055932,423.567861265,424.166532765,424.067880651,nan,nan
0,69,4459,6,1,293,206,0.103830259013,0.378659598285,0.564617056734,1,1.0,1.0,0.398598686792,0,nan,nan,nan,nan,nan,nan,nan,nan,nan,0.0,0.0,0.0,nan,nan,338.512055932,424.567939951,424.966538638,425.067973307,nan,nan
0,70,4500,6,1,215,151,0.910639861846,0.0628947364355,0.558695148714,1,1.0,1.0,0.318417775445,0,nan,nan,nan,nan,nan,nan,nan,nan,nan,0.0,0.0,0.0,nan,nan,338.512055932,425.568101317,425.886519092,426.068101602,nan,nan
0,71,4501,6,1,13,9,0.950262168777,0.154664060346,-1.0,1,1.0,1.0,0.382284534164,0,nan,nan,nan,nan,nan,nan,nan,nan,nan,0.0,0.0,0.0,nan,nan,338.512055932,426.568197395,426.950481929,427.068226189,nan,nan
0,72,4502,6,1,402,282,0.000724920831492,0.470139955471,-0.437811562499,1,1.0,1.0,0.278150843456,0,nan,nan,nan,nan,nan,nan,nan,nan,nan,0.0,0.0,0.0,nan,nan,338.512055932,427.56832854,427.846479383,428.068351918,nan,nan
0,73,4503,6,1,296,208,0.0772713571413,0.386205321608,0.550001308524,1,1.0,1.0,0.325988832861,0,nan,nan,nan,nan,nan,nan,nan,nan,nan,0.0,0.0,0.0,nan,nan,338.512055932,428.568457689,428.894446522,429.068481637,nan,nan
0,74,4504,6,1,78,54,1.0,-0.179467652321,-0.739907630878,1,1.0,1.0,0.357817154378,0,nan,nan,nan,nan,nan,nan,nan,nan,nan,0.0,0.0,0.0,nan,nan,338.512055932,429.568599097,429.926416252,430.068601663,nan,nan
0,75,4505,6,0,302,212,0.027086081288,0.400300843718,0.517770016443,0,0.0,1.0,0.54967943579,0,nan,nan,nan,nan,nan,nan,nan,nan,nan,0.0,0.0,0.0,nan,nan,338.512055932,430.568730243,431.118409678,431.06876702,nan,nan
0,76,4506,6,1,446,313,0.304696255059,0.41359904426,-1.0,1,1.0,1.0,0.437590091489,0,nan,nan,nan,nan,nan,nan,nan,nan,nan,0.0,0.0,0.0,nan,nan,338.512055932,431.568816056,432.006406148,432.068861102,nan,nan
0,77,4507,6,1,175,123,1.0,-0.155629953633,0.290361762956,1,1.0,1.0,0.365407598205,0,nan,nan,nan,nan,nan,nan,nan,nan,nan,0.0,0.0,0.0,nan,nan,338.512055932,432.568962597,432.934370195,433.068985404,nan,nan
0,78,4508,6,1,226,158,0.801265930663,0.120208988367,0.60458276857,1,1.0,1.0,0.349298715591,0,nan,nan,nan,nan,nan,nan,nan,nan,nan,0.0,0.0,0.0,nan,nan,338.512055932,433.569070364,433.91836908,434.069107141,nan,nan
0,79,4509,6,0,102,71,1.0,-0.276610342793,-0.434926949461,0,0.0,1.0,0.741106659174,0,nan,nan,nan,nan,nan,nan,nan,nan,nan,0.0,0.0,0.0,nan,nan,338.512055932,434.569222606,435.310329265,435.069287893,nan,nan
0,80,4510,6,1,301,211,0.0351599448551,0.39804275895,0.523414514543,1,1.0,1.0,0.372981222346,0,0.0,0.0,0.487795532371,0.411302132974,0.088326009839,0.499628142813,0.322976123135,nan,nan,0.0,0.0,0.0,nan,nan,338.512055932,435.56934976,435.942330983,436.06939338,nan,nan
0,81,4511,6,1,451,317,0.343830962376,0.403518361206,-1.0,1,1.0,1.0,0.42884072382,0,0.0,0.0,0.514309535113,0.410829035312,0.0878810281485,0.498710063461,0.322948007164,nan,nan,0.0,0.0,0.0,nan,nan,338.512055932,436.569486607,436.998327331,437.069514262,nan,nan
0,82,4512,6,1,337,236,-0.160643365934,0.457858386897,0.259303564052,1,1.0,1.0,0.420698329806,0,0.0,0.0,0.407506758658,0.41104869005,0.0873658936323,0.498414583683,0.323682796418,nan,nan,0.0,0.0,0.0,nan,nan,338.512055932,437.569606348,437.990304678,438.06962659,nan,nan
0,83,4513,6,1,114,80,1.0,-0.303747463913,-0.303859371662,1,1.0,1.0,0.460557856597,0,0.0,0.0,0.436698970074,0.41116495077,0.0868443797231,0.498009330493,0.324320571047,nan,nan,0.0,0.0,0.0,nan,nan,338.512055932,438.569726374,439.030284231,439.069742055,nan,nan
0,84,4514,6,1,308,216,-0.0186828559465,0.413097475488,0.481682330771,1,1.0,1.0,0.460429848172,0,0.0,0.0,0.447228678192,0.411752961554,0.0864919592748,0.498244920829,0.325261002279,nan,nan,0.0,0.0,0.0,nan,nan,338.512055932,439.569835281,440.030265129,440.069866357,nan,nan
0,85,4515,6,1,419,294,0.107894673663,0.454841969249,-0.678098861371,1,1.0,1.0,0.364274620079,0,0.0,0.0,0.428420774949,0.412325630808,0.0861417246134,0.498467355422,0.326183906195,nan,nan,0.0,0.0,0.0,nan,nan,338.512055932,440.569964145,440.934238765,441.070003774,nan,nan
0,86,4516,6,1,227,159,0.791019951953,0.125257787881,0.608066708266,1,1.0,1.0,0.308094098233,0,0.0,0.0,0.377599522161,0.411766898125,0.0857942219763,0.497561120102,0.325972676149,nan,nan,0.0,0.0,0.0,nan,nan,338.512055932,441.570132923,441.878227022,442.070138626,nan,nan
0,87,4517,6,1,383,269,-0.0968787136249,0.478131214543,-0.211081409456,1,1.0,1.0,0.355981124565,0,0.0,0.0,0.342783280959,0.410575256747,0.0860125813938,0.496587838141,0.324562675353,nan,nan,0.0,0.0,0.0,nan,nan,338.512055932,442.57023841,442.926219534,443.070262073,nan,nan
0,88,4518,6,1,210,147,0.958022500947,0.0359304984579,0.533421856807,1,1.0,1.0,0.267850545235,0,1.0,0.0,0.310641922678,0.409954868881,0.0857180189156,0.495672887797,0.324236849966,nan,nan,0.0,0.0,0.0,nan,nan,338.512055932,443.570358436,443.838208981,444.070379818,nan,nan
0,89,4524,6,1,96,67,1.0,-0.25681952169,-0.503302481145,1,1.0,1.0,0.419711036608,1,0.0,0.0,0.347847568803,0.408358191088,0.0865411297593,0.494899320847,0.321817061328,17.7838884427,103.0,1.0,-0.279537473278,-0.423758835275,4.71611155731,2.35891763214,338.512055932,444.570475326,444.990186363,445.070504121,446.395702948,448.762652641
0,90,4525,6,1,503,353,0.773020196022,0.248538461814,-1.0,1,1.0,1.0,0.466548901983,0,0.0,0.0,0.384703494608,0.408484333816,0.0860672302127,0.494551564028,0.322417103603,nan,nan,0.0,0.0,0.0,nan,nan,338.512055932,449.979492913,450.446041815,450.479525984,nan,nan
0,91,4526,6,1,253,177,0.513865899396,0.244839928328,0.655977188727,1,1.0,1.0,0.410425970331,0,0.0,0.0,0.432228636307,0.409122405993,0.0858068092776,0.494929215271,0.323315596716,nan,nan,0.0,0.0,0.0,nan,nan,338.512055932,450.979640024,451.390065994,451.479678227,nan,nan
0,92,4527,6,1,116,81,1.0,-0.306446923025,-0.282515442494,1,1.0,1.0,0.418264165521,0,0.0,0.0,0.431746345945,0.409136575171,0.085339300798,0.494475875969,0.323797274373,nan,nan,0.0,0.0,0.0,nan,nan,338.512055932,451.97977516,452.398039325,452.479791125,nan,nan
0,93,4528,6,1,12,8,0.942476689623,0.159273951266,-1.0,1,1.0,1.0,0.450119284913,0,0.0,0.0,0.426269806921,0.409234721304,0.0848844675339,0.494119188838,0.32435025377,nan,nan,0.0,0.0,0.0,nan,nan,338.512055932,452.979899462,453.430018747,453.479923411,nan,nan
0,94,4529,6,1,502,352,0.764740937618,0.25241357569,-1.0,1,1.0,1.0,0.353646743111,0,0.0,0.0,0.407343397848,0.40966966347,0.0845358691447,0.494205532614,0.325133794325,nan,nan,0.0,0.0,0.0,nan,nan,338.512055932,453.988362877,454.34200962,454.488391956,nan,nan
0,95,4530,6,1,141,99,1.0,-0.291952736687,-0.024586852943,1,1.0,1.0,0.329542292282,0,0.0,0.0,0.377769440102,0.409079948519,0.0842839166917,0.49336386521,0.324796031827,nan,nan,0.0,0.0,0.0,nan,nan,338.512055932,454.988463801,455.318006094,455.48851911,nan,nan
0,96,4531,6,1,2,1,0.863024578927,0.203622855609,-1.0,1,1.0,1.0,0.297319681384,0,0.0,0.0,0.326836238926,0.408251431266,0.0842317802173,0.492483211483,0.324019651049,nan,nan,0.0,0.0,0.0,nan,nan,338.512055932,455.988639992,456.285959673,456.488641988,nan,nan
0,97,4532,6,0,490,344,0.664660387652,0.296157848571,-1.0,0,0.0,1.0,0.425206297077,0,0.0,0.0,0.350689423581,0.407107804979,0.084542327429,0.491650132408,0.32256547755,nan,nan,0.0,0.0,0.0,nan,nan,338.512055932,456.988760873,457.41396717,457.488800216,nan,nan
0,98,4533,6,1,285,200,0.178734351563,0.356878681702,0.598527012995,1,1.0,1.0,0.425054909661,0,0.0,0.0,0.382526962707,0.40729248347,0.084129547234,0.491422030704,0.323162936236,nan,nan,0.0,0.0,0.0,nan,nan,338.512055932,457.988871492,458.413926401,458.488905133,nan,nan
0,99,4534,6,1,227,159,0.791019951953,0.125257787881,0.608066708266,1,1.0,1.0,0.432913917117,0,0.0,0.0,0.427725041285,0.407471901916,0.0837224145567,0.491194316473,0.323749487359,nan,nan,0.0,0.0,0.0,nan,nan,338.512055932,458.98900007,459.421913987,459.489039414,nan,nan
0,100,4535,6,1,443,311,0.281558783006,0.419268214519,-1.0,1,1.0,1.0,0.256806424819,0,0.0,0.0,0.371591750532,0.407726322068,0.0833412053187,0.491067527387,0.324385116749,nan,nan,0.0,0.0,0.0,nan,nan,338.512055932,459.98910185,460.245908275,460.489146611,nan,nan
0,101,4536,6,1,106,74,1.0,-0.287630069369,-0.390564445695,1,1.0,1.0,0.280303617939,0,0.0,0.0,0.323341319958,0.406232065659,0.0842630812338,0.490495146893,0.321968984426,nan,nan,0.0,0.0,0.0,nan,nan,338.512055932,460.997574957,461.277878575,461.497604323,nan,nan
0,102,4537,6,1,419,294,0.107894673663,0.454841969249,-0.678098861371,1,1.0,1.0,0.431097843684,0,0.0,0.0,0.322735962148,0.404997473035,0.0847620346231,0.489759507658,0.320235438412,nan,nan,0.0,0.0,0.0,nan,nan,338.512055932,461.998769232,462.429867076,462.497762837,nan,nan
0,103,4538,6,1,318,223,-0.0835627602325,0.431640264478,0.413481556053,1,1.0,1.0,0.344038946554,0,0.0,0.0,0.351813469393,0.405250874692,0.0843883804546,0.489639255146,0.320862494237,nan,nan,0.0,0.0,0.0,nan,nan,338.512055932,462.997839243,463.34187819,463.497864617,nan,nan
0,104,4539,6,1,8,5,0.91102658764,0.177400941622,-1.0,1,1.0,1.0,0.423862345517,0,0.0,0.0,0.399666378585,0.404662298459,0.0841938550713,0.488856153531,0.320468443388,nan,nan,0.0,0.0,0.0,nan,nan,338.512055932,463.997971528,464.421833874,464.497982077,nan,nan
0,105,4540,6,1,482,338,0.597655625539,0.322480811492,-1.0,1,1.0,1.0,0.311730805784,0,0.0,0.0,0.359877365952,0.404845156051,0.0838127206526,0.488657876703,0.321032435398,nan,nan,0.0,0.0,0.0,nan,nan,338.512055932,464.998080151,465.309810957,465.498144583,nan,nan
0,106,4541,6,1,289,203,0.140592130943,0.368073254824,0.582505265782,1,1.0,1.0,0.247629982419,0,0.0,0.0,0.327741044573,0.403966718784,0.0839006916419,0.487867410426,0.320066027142,nan,nan,0.0,0.0,0.0,nan,nan,338.512055932,465.998201317,466.2458313,466.498276298,nan,nan
0,107,4542,6,1,91,63,1.0,-0.237709898716,-0.562722318432,1,1.0,1.0,0.24744210206,0,1.0,0.0,0.268934296754,0.40250562779,0.0848517847463,0.487357412536,0.317653843043,nan,nan,0.0,0.0,0.0,nan,nan,338.512055932,466.998329042,467.245771144,467.498375512,nan,nan
0,108,4543,6,0,26,18,1.0,0.0920921692153,-1.0,0,1.0,0.0,0.311256403103,0,0.0,0.0,0.268776162528,0.401069854403,0.0857539209779,0.486823775381,0.315315933425,nan,nan,0.0,0.0,0.0,nan,nan,338.512055932,467.998504091,468.309760494,468.498522907,nan,nan
0,109,4544,6,1,274,192,0.289344050657,0.322900892411,0.632670269059,1,1.0,1.0,0.351140162908,0,0.0,0.0,0.303279556024,0.400245877786,0.0857880804719,0.486033958258,0.314457797314,nan,nan,0.0,0.0,0.0,nan,nan,338.512055932,468.998606157,469.349746319,469.498648351,nan,nan
0,110,4545,6,1,62,43,1.0,-0.0974372467467,-1.0,1,1.0,1.0,0.367016975768,0,0.0,0.0,0.34313784726,0.399799462196,0.0855243334614,0.485323795658,0.314275128735,nan,nan,0.0,0.0,0.0,nan,nan,338.512055932,469.998707651,470.365724627,470.498751557,nan,nan
0,111,4546,6,1,355,249,-0.173737462994,0.472683863687,0.0888799762457,1,1.0,1.0,0.318855686113,0,0.0,0.0,0.345670941596,0.399504124481,0.0851945461528,0.484698670633,0.314309578328,nan,nan,0.0,0.0,0.0,nan,nan,338.512055932,470.998870157,471.317725843,471.498905509,nan,nan
0,112,4547,6,0,105,73,1.0,-0.285049837405,-0.401580786678,0,0.0,1.0,0.374694660306,0,0.0,0.0,0.353522440729,0.398784049138,0.0851519851665,0.483936034304,0.313632063972,nan,nan,0.0,0.0,0.0,nan,nan,338.512055932,471.999003298,472.373697958,472.499033803,nan,nan
0,113,4548,6,1,364,255,-0.160194321586,0.476704516321,-0.00341124574885,1,1.0,1.0,0.318552057259,0,0.0,0.0,0.337367467893,0.398570868706,0.0848043843822,0.483375253088,0.313766484324,nan,nan,0.0,0.0,0.0,nan,nan,338.512055932,472.999100516,473.317652573,473.499135298,nan,nan
0,114,4549,6,1,448,315,0.32026743599,0.409662251776,-1.0,1,1.0,1.0,0.310421921313,0,0.0,0.0,0.334556212959,0.397868949307,0.0847606739855,0.482629623293,0.313108275322,nan,nan,0.0,0.0,0.0,nan,nan,338.512055932,473.999237078,474.309659,474.499264447,nan,nan
0,115,4550,6,1,186,130,1.0,-0.0967386681424,0.377881386018,1,1.0,1.0,0.300230530091,0,1.0,0.0,0.309734836221,0.397108540368,0.0847809904151,0.481889530783,0.312327549953,nan,nan,0.0,0.0,0.0,nan,nan,338.512055932,475.049389491,475.349620021,475.549420566,nan,nan
0,116,4556,6,1,504,354,0.78128615449,0.244628286196,-1.0,1,1.0,1.0,0.324105761945,1,0.0,0.0,0.311586071116,0.396273385107,0.0848885333687,0.481161918476,0.311384851738,-33.8327715385,176.0,1.0,-0.150429669724,0.298675466069,129.457771539,2.70062618889,338.512055932,476.049511513,476.373617275,476.549540878,477.874712336,480.58336916
0,117,4557,6,1,314,220,-0.0594438881467,0.42463230952,0.441925406839,1,1.0,1.0,0.677285230719,0,0.0,0.0,0.433873840918,0.395656567815,0.0847856508433,0.480442218658,0.310870916972,nan,nan,0.0,0.0,0.0,nan,nan,338.512055932,481.800222832,482.477508062,482.300298098,nan,nan
0,118,4558,6,1,14,9,0.95801504718,0.150023555696,-1.0,1,1.0,1.0,0.525138215162,0,0.0,0.0,0.508843069275,0.398043251399,0.0882844745246,0.486327725924,0.309758776874,nan,nan,0.0,0.0,0.0,nan,nan,338.512055932,482.800343429,483.325481644,483.300430099,nan,nan
0,119,4559,6,1,220,154,0.861731547614,0.0893272636146,0.581247684387,1,1.0,1.0,0.301004000939,0,0.0,1.0,0.501142482273,0.399111276305,0.088674975646,0.487786251951,0.310436300659,nan,nan,0.0,0.0,0.0,nan,nan,338.512055932,483.800493104,484.101497105,484.300532448,nan,nan
0,120,4604,6,1,127,89,1.0,-0.31111021432,-0.167036648065,1,1.0,1.0,0.372833541594,1,0.0,0.0,0.399658585899,0.398293715677,0.0887539545704,0.487047670247,0.309539761106,-26.7915155294,166.0,1.0,-0.20036215083,0.21267421211,27.4946405294,2.62556991074,338.512055932,484.800622254,485.173455795,485.300659887,486.625826783,489.259493472
0,121,4605,6,1,425,298,0.149162615564,0.447529597292,-0.791715667876,1,1.0,1.0,0.785013148561,0,0.0,0.0,0.486283563698,0.398083301015,0.0884164917443,0.486499792759,0.30966680927,nan,nan,0.0,0.0,0.0,nan,nan,338.512055932,490.476339731,491.26135288,490.976405874,nan,nan
0,122,4606,6,1,308,216,-0.0186828559465,0.413097475488,0.481682330771,1,1.0,1.0,0.456875532866,0,0.0,0.0,0.538240741007,0.401254857142,0.0947127726378,0.49596762978,0.306542084504,nan,nan,0.0,0.0,0.0,nan,nan,338.512055932,491.476468881,491.933344414,491.976480285,nan,nan
0,123,4607,6,1,160,112,1.0,-0.227501418013,0.158297521075,1,1.0,1.0,0.408729068004,0,0.0,1.0,0.550205916477,0.401707057758,0.0944591210483,0.496166178806,0.307247936709,nan,nan,0.0,0.0,0.0,nan,nan,338.512055932,492.476595749,492.885324817,492.976618842,nan,nan
0,124,4614,6,1,295,207,0.0860222946478,0.38372732295,0.554986075565,1,1.0,1.0,0.528555397876,1,0.0,0.0,0.464719999582,0.401763686873,0.0940795628253,0.495843249698,0.307684124047,-123.759601205,304.0,0.0113092810281,0.404708921832,0.506160370659,6.33772620484,3.40904524177,338.512055932,493.476728319,494.005283717,493.976783914,495.301931708,498.719011292
0,125,4615,6,1,413,290,0.0683106243366,0.461143133648,-0.585495598612,1,1.0,1.0,0.485595718026,0,0.0,0.0,0.474293394635,0.402778020561,0.0943808066254,0.497158827186,0.308397213935,nan,nan,0.0,0.0,0.0,nan,nan,338.512055932,499.927551511,500.413147229,500.427581161,nan,nan
0,126,4616,6,0,26,18,1.0,0.0920921692153,-1.0,0,0.0,1.0,0.405481233262,0,0.0,0.0,0.473210783054,0.403435303874,0.0942923273962,0.49772763127,0.309142976478,nan,nan,0.0,0.0,0.0,nan,nan,338.512055932,500.927688928,501.333170162,501.427717723,nan,nan
0,127,4617,6,1,83,58,1.0,-0.203097876184,-0.665876706514,1,1.0,1.0,0.725347306579,0,0.0,0.0,0.538808085956,0.403451413554,0.0939205381847,0.497371951739,0.309530875369,nan,nan,0.0,0.0,0.0,nan,nan,338.512055932,501.92778415,502.653131457,502.427865404,nan,nan
0,128,4618,6,1,221,155,0.851781464038,0.0945411604707,0.585422935822,1,1.0,1.0,0.421210651286,0,0.0,0.0,0.517346397042,0.405966225218,0.097751399846,0.503717625064,0.308214825372,nan,nan,0.0,0.0,0.0,nan,nan,338.512055932,502.927921853,503.349132504,503.427939244,nan,nan
0,129,4619,6,1,321,225,-0.0999433513493,0.43654647086,0.391174984052,1,1.0,1.0,0.270152139477,0,0.0,0.0,0.472236699114,0.406084399064,0.0973809597705,0.503465358834,0.308703439293,nan,nan,0.0,0.0,0.0,nan,nan,338.512055932,503.958974993,504.229127132,504.461420277,nan,nan
0,130,4620,6,1,411,288,0.0555201669072,0.463022710015,-0.557054760163,1,1.0,1.0,0.33959341608,0,0.0,0.0,0.343652068948,0.405038766298,0.097729968044,0.502768734342,0.307308798254,nan,nan,0.0,0.0,0.0,nan,nan,338.512055932,504.961504951,505.301098367,505.461541444,nan,nan
0,131,4621,6,1,118,82,1.0,-0.308588151016,-0.261285249573,1,1.0,1.0,0.531410937198,0,0.0,0.0,0.380385497585,0.404539183472,0.0975227303117,0.502061913783,0.30701645316,nan,nan,0.0,0.0,0.0,nan,nan,338.512055932,505.96163296,506.493043898,506.461711077,nan,nan
0,132,4622,6,1,399,280,-0.0164460389312,0.472031251936,-0.400274523968,1,1.0,1.0,0.355298599228,0,0.0,0.0,0.408767650835,0.405500333121,0.0977734689585,0.50327380208,0.307726864163,nan,nan,0.0,0.0,0.0,nan,nan,338.512055932,506.961780926,507.317079525,507.461793755,nan,nan
0,133,4623,6,1,348,244,-0.175384772129,0.468017843042,0.157582163916,1,1.0,1.0,0.339158642106,0,0.0,0.0,0.408622726177,0.405122876475,0.0975016956766,0.502624572152,0.307621180799,nan,nan,0.0,0.0,0.0,nan,nan,338.512055932,507.961903803,508.301062445,508.461950274,nan,nan
0,134,4624,6,0,219,153,0.871627318206,0.0840881726889,0.576959667802,0,0.0,1.0,0.434973463416,0,0.0,0.0,0.376476901583,0.40463060607,0.0973029595557,0.501933565625,0.307327646514,nan,nan,0.0,0.0,0.0,nan,nan,338.512055932,508.962050058,509.397023521,509.462070585,nan,nan
0,135,4625,6,1,74,52,1.0,-0.159715158178,-0.810443278181,1,1.0,1.0,0.45088448748,0,0.0,0.0,0.408338864334,0.404855367976,0.0969768168098,0.501832184786,0.307878551166,nan,nan,0.0,0.0,0.0,nan,nan,338.512055932,509.962141574,510.413026062,510.462184054,nan,nan
0,136,4626,6,1,254,178,0.503011129055,0.248947817922,0.65613358125,1,1.0,1.0,0.378731075674,0,0.0,0.0,0.421529675523,0.405193817384,0.0966996185177,0.501893435902,0.308494198866,nan,nan,0.0,0.0,0.0,nan,nan,338.512055932,510.9622616,511.340992676,511.462314914,nan,nan
0,137,4627,6,1,441,310,0.266287261384,0.422891888867,-1.0,1,1.0,1.0,0.330584039912,0,0.0,0.0,0.386733201022,0.405000658685,0.0963723834245,0.50137304211,0.308628275261,nan,nan,0.0,0.0,0.0,nan,nan,338.512055932,511.962412418,512.292996458,512.462460884,nan,nan
0,138,4628,6,1,138,97,1.0,-0.29832987918,-0.0546508148191,1,1.0,1.0,0.402411300689,0,0.0,0.0,0.370575472092,0.404461407825,0.0962297927304,0.500691200555,0.308231615094,nan,nan,0.0,0.0,0.0,nan,nan,338.512055932,512.962545273,513.364956574,513.462582621,nan,nan
0,139,4629,6,1,51,35,1.0,-0.0385160204876,-1.0,1,1.0,1.0,0.378266936168,0,0.0,0.0,0.370420758923,0.404446658853,0.0958831741166,0.500329832969,0.308563484736,nan,nan,0.0,0.0,0.0,nan,nan,338.512055932,513.962688962,514.340955898,514.462695234,nan,nan
0,140,4630,6,0,373,262,-0.135407706169,0.478559568072,-0.0996974893599,0,0.0,1.0,0.386036707088,0,0.0,0.0,0.388904981315,0.404259660833,0.0955655545483,0.499825215382,0.308694106285,nan,nan,0.0,0.0,0.0,nan,nan,338.512055932,514.962897369,515.348934076,515.462837784,nan,nan
0,141,4631,6,1,65,45,1.0,-0.113312155659,-1.0,1,1.0,1.0,0.378010917455,0,0.0,0.0,0.380771520237,0.404130420027,0.0952383442042,0.499368764231,0.308892075822,nan,nan,0.0,0.0,0.0,nan,nan,338.512055932,515.962905637,516.340916554,516.462941844,nan,nan
0,142,4632,6,1,491,345,0.673033477965,0.292707709811,-1.0,1,1.0,1.0,0.433854169212,0,0.0,0.0,0.399300597919,0.403946479868,0.0949275363047,0.498874016172,0.309018943563,nan,nan,0.0,0.0,0.0,nan,nan,338.512055932,516.963045334,517.396899504,517.463062726,nan,nan
0,143,4633,6,0,381,267,-0.105403061426,0.478425078289,-0.188431136224,0,0.0,1.0,0.601664458402,0,0.0,0.0,0.471176515023,0.404155624548,0.0946278648028,0.498783489351,0.309527759746,nan,nan,0.0,0.0,0.0,nan,nan,338.512055932,517.963190734,518.564855193,518.463239201,nan,nan
0,144,4634,6,1,188,132,1.0,-0.0857393506835,0.392804289229,1,1.0,1.0,0.545541525818,0,0.0,0.0,0.527020051144,0.405527213672,0.0957145179569,0.501241731629,0.309812695716,nan,nan,0.0,0.0,0.0,nan,nan,338.512055932,518.963305344,519.50884687,519.46336664,nan,nan
0,145,4635,6,1,64,45,1.0,-0.108036866323,-1.0,1,1.0,1.0,0.313402904198,0,0.0,0.0,0.486869629472,0.406492829618,0.0960851467234,0.502577976342,0.310407682895,nan,nan,0.0,0.0,0.0,nan,nan,338.512055932,519.963436204,520.276839108,520.463457871,nan,nan
0,146,4636,6,1,443,311,0.281558783006,0.419268214519,-1.0,1,1.0,1.0,0.297265226953,0,0.0,0.0,0.38540321899,0.405855227389,0.0960628331723,0.501918060562,0.309792394217,nan,nan,0.0,0.0,0.0,nan,nan,338.512055932,520.963562788,521.260828014,521.463588731,nan,nan
0,147,4637,6,1,106,74,1.0,-0.287630069369,-0.390564445695,1,1.0,1.0,0.329135743901,0,0.0,0.0,0.31326795835,0.405116519903,0.0961507280385,0.501267247942,0.308965791865,nan,nan,0.0,0.0,0.0,nan,nan,338.512055932,521.963670269,522.292806013,522.463728714,nan,nan
0,148,4638,6,0,292,205,0.112881669716,0.376069582356,0.569261850688,0,0.0,1.0,0.328970956616,0,0.0,0.0,0.318457309157,0.404603136282,0.0960272891563,0.500630425438,0.308575847125,nan,nan,0.0,0.0,0.0,nan,nan,338.512055932,522.963831919,523.292802876,523.463861,nan,nan
0,149,4639,6,1,158,111,1.0,-0.235949227405,0.139764106,1,1.0,1.0,0.312830428593,0,0.0,0.0,0.323645709703,0.404095537761,0.0959035237645,0.499999061525,0.308192013996,nan,nan,0.0,0.0,0.0,nan,nan,338.512055932,523.963948525,524.276778953,524.463961069,nan,nan
0,150,4640,6,1,380,267,-0.109519508899,0.478533032186,-0.177177385375,1,1.0,1.0,0.35268510785,0,0.0,0.0,0.331495497686,0.403487103699,0.0958714133983,0.499358517098,0.307615690301,nan,nan,0.0,0.0,0.0,nan,nan,338.512055932,524.964070546,525.316755654,525.464131272,nan,nan
0,151,4641,6,1,19,13,0.99625917486,0.126374530333,-1.0,1,1.0,1.0,0.320543749258,0,0.0,0.0,0.328686428567,0.403150666641,0.095642232669,0.49879289931,0.307508433972,nan,nan,0.0,0.0,0.0,nan,nan,338.512055932,525.964186867,526.284730616,526.464217086,nan,nan
0,152,4642,6,1,442,310,0.273907262724,0.421095538958,-1.0,1,1.0,1.0,0.296374011785,0,0.0,0.0,0.323200956297,0.402607200079,0.0955607393597,0.498167939439,0.307046460719,nan,nan,0.0,0.0,0.0,nan,nan,338.512055932,526.964344526,527.260718537,527.464368189,nan,nan
0,153,4643,6,1,321,225,-0.0999433513493,0.43654647086,0.391174984052,1,1.0,1.0,0.304225890897,0,0.0,0.0,0.30704788398,0.401912865515,0.0956318401724,0.497544705687,0.306281025343,nan,nan,0.0,0.0,0.0,nan,nan,338.512055932,527.964456854,528.268682745,528.464468543,nan,nan
0,154,4644,6,1,260,182,0.438016636947,0.272781976488,0.654406567654,1,1.0,1.0,0.288090780377,0,1.0,0.0,0.296230227686,0.401278534511,0.0956432241411,0.496921758652,0.30563531037,nan,nan,0.0,0.0,0.0,nan,nan,338.512055932,528.964578305,529.252669086,529.464622211,nan,nan
0,155,4645,6,1,327,229,-0.128086156831,0.445480682368,0.344176439252,1,nan,nan,nan,0,0.0,0.0,0.296158335637,0.400548290936,0.0957639324309,0.496312223367,0.304784358505,nan,nan,0.0,0.0,0.0,nan,nan,338.512055932,529.96471002,nan,530.464767326,nan,nan
0,156,4646,6,1,205,144,1.0,0.00854800403903,0.505535240796,1,1.0,1.0,0.543804995716,0,0.0,0.0,0.415947888047,0.400548290936,0.0957639324309,0.496312223367,0.304784358505,nan,nan,0.0,0.0,0.0,nan,nan,338.512055932,530.964834323,531.508639319,531.464898186,nan,nan
0,157,4647,6,1,119,83,1.0,-0.309446327048,-0.250710895617,1,1.0,1.0,0.48766723834,0,0.0,0.0,0.515736117028,0.401466603146,0.0961387284235,0.49760533157,0.305327874723,nan,nan,0.0,0.0,0.0,nan,nan,338.512055932,531.96494209,532.452609329,532.473303439,nan,nan
0,158,4648,6,1,267,187,0.362924526182,0.298807232282,0.646622522267,1,1.0,1.0,0.351515637711,0,0.0,0.0,0.460995957255,0.402015651778,0.0960771126473,0.498092764425,0.305938539131,nan,nan,0.0,0.0,0.0,nan,nan,338.512055932,532.965090056,533.316605694,533.465126834,nan,nan
0,159,4649,6,1,129,90,1.0,-0.310070485259,-0.146368003411,1,1.0,1.0,0.334020324051,0,0.0,0.0,0.391067733367,0.401696031436,0.0958562850896,0.497552316525,0.305839746346,nan,nan,0.0,0.0,0.0,nan,nan,338.512055932,533.998562536,534.33258286,534.498595037,nan,nan
0,160,4650,6,0,447,314,0.312467642152,0.411646472288,-1.0,0,0.0,1.0,0.509856116958,0,0.0,0.0,0.39846402624,0.401270398056,0.095704035526,0.496974433582,0.30556636253,nan,nan,0.0,0.0,0.0,nan,nan,338.512055932,534.998694536,535.508550653,535.498740722,nan,nan
0,161,4651,6,1,236,165,0.697004556276,0.169301754335,0.634065852989,1,1.0,1.0,0.717722365633,0,0.0,0.0,0.520532935547,0.401949058799,0.0957875216828,0.497736580482,0.306161537116,nan,nan,0.0,0.0,0.0,nan,nan,338.512055932,535.998811997,536.716534362,536.498871868,nan,nan
0,162,4652,6,1,62,43,1.0,-0.0974372467467,-1.0,1,1.0,1.0,0.373595322482,0,0.0,0.0,0.533724601691,0.403910383686,0.0986597558991,0.502570139585,0.305250627787,nan,nan,0.0,0.0,0.0,nan,nan,338.512055932,536.998932594,537.372527916,537.498977639,nan,nan
0,163,4653,6,0,4,2,0.879126049628,0.195014037372,-1.0,0,0.0,1.0,0.405406538397,0,0.0,0.0,0.498908075504,0.403723253679,0.0983834356655,0.502106689344,0.305339818013,nan,nan,0.0,0.0,0.0,nan,nan,338.512055932,537.999109639,538.404516177,538.499107358,nan,nan
0,164,4654,6,1,317,222,-0.077772836126,0.429938605076,0.420733606481,1,1.0,1.0,0.277329192497,0,0.0,0.0,0.352110351125,0.403733580579,0.0980812697649,0.501814850344,0.305652310814,nan,nan,0.0,0.0,0.0,nan,nan,338.512055932,538.999191177,539.27652037,539.49922881,nan,nan
0,165,4655,6,1,261,183,0.427225806086,0.276617811781,0.653674462902,1,1.0,1.0,0.309185167775,0,0.0,0.0,0.330640299556,0.402962822115,0.098275686306,0.501238508421,0.304687135809,nan,nan,0.0,0.0,0.0,nan,nan,338.512055932,539.99931605,540.308501218,540.499359955,nan,nan
0,166,4656,6,1,77,54,1.0,-0.174593022316,-0.756267193339,1,1.0,1.0,0.309010118246,0,1.0,0.0,0.298508159506,0.402394472695,0.0982474018495,0.500641874544,0.304147070845,nan,nan,0.0,0.0,0.0,nan,nan,338.512055932,540.999445484,541.308455602,541.499465156,nan,nan
0,167,4702,6,1,400,281,-0.0107874812989,0.471427301814,-0.412692688905,1,1.0,1.0,0.324887500145,1,0.0,0.0,0.314360928722,0.401831916343,0.0982172162041,0.500049132547,0.303614700139,163.206091202,408.0,0.036737934283,0.465637664749,-0.515938449969,5.54390879802,3.39240721706,338.512055932,541.999549545,542.324437045,542.499602288,543.833098033,547.233521345
0,168,4703,6,1,265,186,0.384259149088,0.291568309415,0.649478858709,1,1.0,1.0,0.610274982639,0,0.0,0.0,0.414724200343,0.401371171335,0.0981024812508,0.499473652586,0.303268690085,nan,nan,0.0,0.0,0.0,nan,nan,338.512055932,548.442052727,549.052327709,548.94212058,nan,nan
0,169,4704,6,1,480,337,0.580928072941,0.32870764083,-1.0,1,1.0,1.0,0.306116089225,0,0.0,0.0,0.413759524003,0.402614646403,0.0991212943191,0.501735940722,0.303493352084,nan,nan,0.0,0.0,0.0,nan,nan,338.512055932,549.442190429,549.748306518,549.942229487,nan,nan
0,170,4705,6,1,186,130,1.0,-0.0967386681424,0.377881386018,1,1.0,1.0,0.297970845364,0,0.0,0.0,0.404787305743,0.402043649023,0.0991043343893,0.501147983412,0.302939314634,nan,nan,0.0,0.0,0.0,nan,nan,338.512055932,550.442315872,550.740286717,550.942335829,nan,nan
0,171,4706,6,1,307,215,-0.0113868739462,0.411053355611,0.487957006857,1,1.0,1.0,0.225902961567,0,1.0,0.0,0.276663298719,0.40143145606,0.0991323984803,0.500563854541,0.30229905758,nan,nan,0.0,0.0,0.0,nan,nan,338.512055932,551.442416511,551.668319473,551.942466688,nan,nan
0,172,4713,6,1,236,165,0.697004556276,0.169301754335,0.634065852989,1,1.0,1.0,0.217779669911,1,0.0,0.0,0.247217825614,0.400404973636,0.0997441049952,0.500149078632,0.300660868641,-68.1063268583,225.0,0.81146624694,0.115131125244,0.600981946568,-7.83117314173,3.28405464906,338.512055932,552.442565332,552.660345002,552.942594128,554.267755322,557.55983462
0,173,4714,6,1,349,245,-0.175656888649,0.468768509344,0.147945183432,1,1.0,1.0,0.443782701157,0,0.0,0.0,0.295821777545,0.399343198615,0.100418244048,0.499761442663,0.298924954567,nan,nan,0.0,0.0,0.0,nan,nan,338.512055932,558.768366857,559.212149558,559.268398503,nan,nan
0,174,4715,6,0,176,123,1.0,-0.150429669724,0.298675466069,0,1.0,0.0,0.395622266456,0,0.0,0.0,0.352394879175,0.399600074352,0.100184256168,0.49978433052,0.299415818184,nan,nan,0.0,0.0,0.0,nan,nan,338.512055932,559.768515677,560.164137944,560.268549889,nan,nan
0,175,4716,6,1,345,242,-0.173519535469,0.465595146217,0.186119282857,1,1.0,1.0,0.267488756217,0,0.0,0.0,0.36896457461,0.399577213387,0.0998964080922,0.499473621479,0.299680805295,nan,nan,0.0,0.0,0.0,nan,nan,338.512055932,560.768636844,561.0361256,561.268674192,nan,nan
0,176,4717,6,1,85,59,1.0,-0.212156452387,-0.638781227021,1,1.0,1.0,0.331333847716,0,0.0,0.0,0.331481623463,0.398822422203,0.100106929407,0.49892935161,0.298715492797,nan,nan,0.0,0.0,0.0,nan,nan,338.512055932,561.768759436,562.100093284,562.268786521,nan,nan
0,177,4718,6,1,268,188,0.35230222188,0.302367520405,0.645005310408,1,1.0,1.0,0.475197914988,0,0.0,0.0,0.35800683964,0.398438964394,0.0999509356575,0.498389900051,0.298488028736,nan,nan,0.0,0.0,0.0,nan,nan,338.512055932,562.768882599,563.244080514,563.268905692,nan,nan
0,178,4719,6,1,80,56,1.0,-0.189075709245,-0.708965549488,1,1.0,1.0,0.379042402841,0,0.0,0.0,0.395191388515,0.398872630781,0.0998340998872,0.498706730668,0.299038530894,nan,nan,0.0,0.0,0.0,nan,nan,338.512055932,563.768999203,564.148041606,564.269039403,nan,nan
0,179,4720,6,1,32,22,1.0,0.061735800531,-1.0,1,1.0,1.0,0.306897542439,0,0.0,0.0,0.387045953423,0.398761225006,0.0995643046763,0.498325529682,0.29919692033,nan,nan,0.0,0.0,0.0,nan,nan,338.512055932,564.769146029,565.076043571,565.269156863,nan,nan
0,180,4721,6,1,368,258,-0.150457169737,0.477793263397,-0.0457341785459,1,1.0,1.0,0.314790761098,0,0.0,0.0,0.333576902126,0.398248020076,0.0995216162918,0.497769636367,0.298726403784,nan,nan,0.0,0.0,0.0,nan,nan,338.512055932,565.769244673,566.084035434,566.269292569,nan,nan
0,181,4722,6,1,129,90,1.0,-0.310070485259,-0.146368003411,1,1.0,1.0,0.290649817325,0,0.0,0.0,0.304112706954,0.397784368637,0.0994384579797,0.497222826617,0.298345910657,nan,nan,0.0,0.0,0.0,nan,nan,338.512055932,566.769372967,567.060022784,567.269420578,nan,nan
0,182,4723,6,1,328,230,-0.132159558243,0.44685796506,0.336046158271,1,1.0,1.0,0.29850939475,0,0.0,0.0,0.301316657724,0.397192465039,0.0994808525769,0.496673317615,0.297711612462,nan,nan,0.0,0.0,0.0,nan,nan,338.512055932,567.769499836,568.06800923,568.269548872,nan,nan
0,183,4724,6,1,54,37,1.0,-0.0546292063271,-1.0,1,1.0,1.0,0.298344323412,0,1.0,0.0,0.295834511829,0.396650250367,0.0994750089074,0.496125259274,0.297175241459,nan,nan,0.0,0.0,0.0,nan,nan,338.512055932,568.769658634,569.068002958,569.26970311,nan,nan
0,184,4731,6,1,299,210,0.0516645560415,0.393417669654,0.534378752182,1,1.0,1.0,0.274155768566,1,0.0,0.0,0.290336495576,0.396113059509,0.0994672072306,0.495580266739,0.296645852278,-122.892329743,303.0,0.0191349273956,0.402522842081,0.512018356663,2.65795474324,4.46753762104,338.512055932,569.769778376,570.043934144,570.269807741,571.594963804,576.070533771
0,185,4732,6,1,509,357,0.822386376617,0.224555004187,-1.0,1,nan,nan,nan,0,0.0,0.0,0.286250045989,0.395450248145,0.0996009559563,0.495051204101,0.295849292189,nan,nan,0.0,0.0,0.0,nan,nan,338.512055932,577.287382026,nan,577.787464134,nan,nan
0,186,4733,6,1,364,255,-0.160194321586,0.476704516321,-0.00341124574885,1,1.0,1.0,0.380308521912,0,0.0,0.0,0.327232145239,0.395450248145,0.0996009559563,0.495051204101,0.295849292189,nan,nan,0.0,0.0,0.0,nan,nan,338.512055932,578.287505473,578.667813995,578.787565344,nan,nan
0,187,4734,6,1,182,127,1.0,-0.118523835432,0.347089474713,1,1.0,1.0,0.268154174089,0,0.0,0.0,0.324231348,0.395368400976,0.0993376037563,0.494706004733,0.29603079722,nan,nan,0.0,0.0,0.0,nan,nan,338.512055932,579.287658856,579.55581303,579.787675962,nan,nan
0,188,4735,6,1,125,87,1.0,-0.311567427947,-0.187805059354,1,1.0,1.0,0.396003155969,0,0.0,0.0,0.34815528399,0.39468445352,0.0995060100547,0.494190463575,0.295178443465,nan,nan,0.0,0.0,0.0,nan,nan,338.512055932,580.287780878,580.683784034,580.787797414,nan,nan
0,189,4736,6,1,367,258,-0.15309091083,0.477560897992,-0.0350816338538,1,1.0,1.0,0.395843217149,0,0.0,0.0,0.353333515736,0.394691505405,0.0992396411588,0.493931146563,0.295451864246,nan,nan,0.0,0.0,0.0,nan,nan,338.512055932,581.287906036,581.683749253,581.787942529,nan,nan
0,190,4737,6,1,464,326,0.448404880525,0.373503555275,-1.0,1,1.0,1.0,0.403721325099,0,0.0,0.0,0.398522566073,0.394697631531,0.098975389482,0.493673021013,0.295722242049,nan,nan,0.0,0.0,0.0,nan,nan,338.512055932,582.288019504,582.691740829,582.788083937,nan,nan
0,191,4738,6,1,307,215,-0.0113868739462,0.411053355611,0.487957006857,1,1.0,1.0,0.347277087159,0,0.0,0.0,0.382280543136,0.394745375941,0.0987153732248,0.493460749166,0.296030002717,nan,nan,0.0,0.0,0.0,nan,nan,338.512055932,583.288447722,583.635724809,583.788204818,nan,nan
0,192,4739,6,1,510,358,0.830554458933,0.220436700166,-1.0,1,1.0,1.0,0.251383580267,0,0.0,0.0,0.334127330842,0.394495542843,0.0985151441057,0.493010686948,0.295980398737,nan,nan,0.0,0.0,0.0,nan,nan,338.512055932,584.288317717,584.539701297,584.788316862,nan,nan
0,193,4740,6,1,181,127,1.0,-0.123914391386,0.3392011262,1,1.0,1.0,0.249889097176,0,1.0,0.0,0.282849921534,0.393746265552,0.0987982287487,0.4925444943,0.294948036803,nan,nan,0.0,0.0,0.0,nan,nan,338.512055932,585.321771665,585.571660763,585.821779934,nan,nan
0,194,4745,6,1,363,255,-0.162287729338,0.476365729747,0.00704812682028,1,1.0,1.0,0.305787941441,1,0.0,0.0,0.269020206295,0.392997009466,0.0990831744928,0.492080183959,0.293913834973,-162.84162607,360.0,-0.167709501072,0.475188317955,0.0381258551808,-2.39274893004,1.88387680519,338.512055932,586.321857195,586.627645137,586.821912219,588.147071988,590.038987412
0,195,4746,6,1,481,338,0.589289488337,0.325611856148,-1.0,1,1.0,1.0,0.48404592555,0,0.0,0.0,0.346574321389,0.39254514901,0.0990242892952,0.491569438305,0.293520859715,nan,nan,0.0,0.0,0.0,nan,nan,338.512055932,591.247516513,591.731562438,591.747551294,nan,nan
0,196,4747,6,1,247,173,0.578947625354,0.219392674348,0.6523805853,1,1.0,1.0,0.315929156728,0,0.0,0.0,0.368587674573,0.393016802497,0.0989858508174,0.492002653315,0.29403095168,nan,nan,0.0,0.0,0.0,nan,nan,338.512055932,592.247645091,592.563574248,592.747688427,nan,nan
0,197,4748,6,1,49,34,1.0,-0.027785429985,-1.0,1,1.0,1.0,0.323780465871,0,0.0,0.0,0.374585182716,0.392621481237,0.0988851333407,0.491506614578,0.293736347896,nan,nan,0.0,0.0,0.0,nan,nan,338.512055932,593.24777082,593.571551286,593.747817576,nan,nan
0,198,4749,6,1,3,2,0.871087178923,0.199335109687,-1.0,1,1.0,1.0,0.283668342046,0,0.0,0.0,0.307792654882,0.392270251567,0.098754423243,0.49102467481,0.293515828324,nan,nan,0.0,0.0,0.0,nan,nan,338.512055932,594.247920496,594.531588838,594.747956418,nan,nan
0,199,4750,6,1,308,216,-0.0186828559465,0.413097475488,0.481682330771,1,1.0,1.0,0.419484953396,0,0.0,0.0,0.342311253771,0.391718972838,0.098805350931,0.490524323769,0.292913621907,nan,nan,0.0,0.0,0.0,nan,nan,338.512055932,595.248024557,595.66750951,595.748045939,nan,nan
0,200,4751,6,1,454,319,0.367627362238,0.397084843583,-1.0,1,1.0,1.0,0.371341054328,0,0.0,0.0,0.358164783257,0.391859205063,0.0985751786733,0.490434383737,0.29328402639,nan,nan,0.0,0.0,0.0,nan,nan,338.512055932,596.248149144,596.619490199,596.748188773,nan,nan
0,201,4752,6,1,343,241,-0.171388175652,0.463836419185,0.204822810802,1,1.0,1.0,0.315194173716,0,0.0,0.0,0.368673393813,0.391756098778,0.0983378934756,0.490093992254,0.293418205303,nan,nan,0.0,0.0,0.0,nan,nan,338.512055932,597.248286847,597.563481021,597.748293974,nan,nan
0,202,4753,6,1,51,35,1.0,-0.0385160204876,-1.0,1,1.0,1.0,0.34702762682,0,0.0,0.0,0.344520951621,0.391373289153,0.0982402752714,0.489613564424,0.293133013882,nan,nan,0.0,0.0,0.0,nan,nan,338.512055932,598.248423409,598.595451036,598.748454199,nan,nan
0,203,4754,6,1,274,192,0.289344050657,0.322900892411,0.632670269059,1,1.0,1.0,0.322897517122,0,0.0,0.0,0.328373105886,0.391152663967,0.0980452502668,0.489197914234,0.2931074137,nan,nan,0.0,0.0,0.0,nan,nan,338.512055932,599.248536022,599.57143354,599.748563392,nan,nan
0,204,4755,6,1,226,158,0.801265930663,0.120208988367,0.60458276857,1,1.0,1.0,0.345050758682,0,0.0,0.0,0.338325300875,0.390814767201,0.0979195161767,0.488734283377,0.292895251024,nan,nan,0.0,0.0,0.0,nan,nan,338.512055932,600.290354171,600.63540493,600.790357022,nan,nan
0,205,4756,6,0,175,123,1.0,-0.155629953633,0.290361762956,0,0.0,1.0,0.500188164413,0,0.0,0.0,0.389378813406,0.390589328735,0.0977305741589,0.488319902894,0.292858754576,nan,nan,0.0,0.0,0.0,nan,nan,338.512055932,601.290492443,601.790680608,601.790524375,nan,nan
0,206,4757,6,1,310,217,-0.032854544558,0.417080732083,0.468828018046,1,1.0,1.0,0.288814073429,0,0.0,0.0,0.378017665508,0.39112657793,0.0977907891768,0.488917367106,0.293335788753,nan,nan,0.0,0.0,0.0,nan,nan,338.512055932,602.290568564,602.579382638,602.790607053,nan,nan
0,207,4758,6,1,200,140,1.0,-0.0191209939188,0.47515178387,1,1.0,1.0,0.272685804404,0,0.0,0.0,0.353896014082,0.390627492542,0.0978120803866,0.488439572928,0.292815412155,nan,nan,0.0,0.0,0.0,nan,nan,338.512055932,603.290715675,603.563401479,603.790738483,nan,nan
0,208,4759,6,1,487,342,0.639529740128,0.306295026098,-1.0,1,1.0,1.0,0.29650316108,0,1.0,0.0,0.286001012971,0.390054960075,0.0979181187953,0.48797307887,0.29213684128,nan,nan,0.0,0.0,0.0,nan,nan,338.512055932,604.290860505,604.587363666,604.790889869,nan,nan
0,209,4805,6,1,164,115,1.0,-0.209685835145,0.194761549991,1,1.0,1.0,0.456365778111,1,0.0,0.0,0.341851581198,0.389603019017,0.0978964503906,0.487499469408,0.291706568627,-33.1949311401,175.0,1.0,-0.155629953633,0.290361762956,7.8824311401,2.72563725058,338.512055932,605.290979676,605.747345454,605.791013317,607.116178217,609.84994931
0,210,4806,6,1,0,0,0.846831709088,0.212097570855,-1.0,1,1.0,1.0,0.504838679917,0,0.0,0.0,0.419235873036,0.38992399382,0.09776996259,0.48769395641,0.29215403123,nan,nan,0.0,0.0,0.0,nan,nan,338.512055932,611.0583772,611.56321588,611.558432509,nan,nan
0,211,4807,6,0,123,86,1.0,-0.311441137266,-0.208672863777,0,1.0,0.0,0.384718985297,0,0.0,0.0,0.448641147775,0.390473824854,0.0978576019219,0.488331426776,0.292616222932,nan,nan,0.0,0.0,0.0,nan,nan,338.512055932,612.058490383,612.443209369,612.558551679,nan,nan
0,212,4808,6,1,340,239,-0.166837174664,0.460980112934,0.232376404312,1,1.0,1.0,0.288609657437,0,0.0,0.0,0.392722440884,0.390446420857,0.0976251334623,0.488071554319,0.292821287394,nan,nan,0.0,0.0,0.0,nan,nan,338.512055932,613.058632933,613.34724259,613.558660017,nan,nan
0,213,4809,6,1,493,346,0.689769084006,0.285700779988,-1.0,1,1.0,1.0,0.256454614922,0,0.0,0.0,0.309927752552,0.389963782167,0.0976443294258,0.487608111593,0.292319452742,nan,nan,0.0,0.0,0.0,nan,nan,338.512055932,614.058739274,614.315193889,614.558775197,nan,nan
0,214,4810,6,1,137,96,1.0,-0.300190217086,-0.0647316600203,1,1.0,1.0,0.36827853322,0,0.0,0.0,0.30444760186,0.389334021944,0.0978423404156,0.48717636236,0.291491681529,nan,nan,0.0,0.0,0.0,nan,nan,338.512055932,615.058883534,615.427162067,615.558933141,nan,nan
0,215,4811,6,1,25,17,1.0,0.0970682892709,-1.0,1,1.0,1.0,0.416139901616,0,0.0,0.0,0.346957683253,0.389235169885,0.0976230041668,0.486858174052,0.291612165718,nan,nan,0.0,0.0,0.0,nan,nan,338.512055932,616.058992726,616.475132627,616.559021806,nan,nan
0,216,4812,6,1,452,317,0.351738073422,0.401406211611,-1.0,1,1.0,1.0,0.437933918089,0,0.0,0.0,0.407450784308,0.38936089293,0.0974119284183,0.486772821349,0.291948964512,nan,nan,0.0,0.0,0.0,nan,nan,338.512055932,617.109172224,617.547106142,617.609175645,nan,nan
0,217,4813,6,1,135,94,1.0,-0.303502321856,-0.0849788702499,1,1.0,1.0,0.405830478296,0,0.0,0.0,0.419968099333,0.389586813977,0.0972413037402,0.486828117718,0.292345510237,nan,nan,0.0,0.0,0.0,nan,nan,338.512055932,618.109277995,618.515108474,618.609291109,nan,nan
0,218,4814,6,1,461,324,0.423959648591,0.380927367285,-1.0,1,1.0,1.0,0.509659399278,0,0.0,0.0,0.451141265221,0.389662016127,0.0970222133067,0.486684229434,0.29263980282,nan,nan,0.0,0.0,0.0,nan,nan,338.512055932,619.10940686,619.619066259,619.609464164,nan,nan
0,219,4815,6,1,155,108,1.0,-0.2479831371,0.111611878621,1,1.0,1.0,0.445514670573,0,0.0,0.0,0.453668182716,0.39021499946,0.0971389794522,0.487353978912,0.293076020007,nan,nan,0.0,0.0,0.0,nan,nan,338.512055932,620.109534868,620.555049539,620.609567939,nan,nan
0,220,4816,6,1,29,20,1.0,0.0770173926463,-1.0,1,1.0,1.0,0.709344195202,0,0.0,1.0,0.554839421685,0.390468667676,0.0969879396232,0.487456607299,0.293480728053,nan,nan,0.0,0.0,0.0,nan,nan,338.512055932,621.109682264,621.819026459,621.609725028,nan,nan
0,221,4822,6,1,215,151,0.910639861846,0.0628947364355,0.558695148714,1,1.0,1.0,0.349233428948,1,0.0,0.0,0.501364098241,0.391924720313,0.0991256127773,0.49105033309,0.292799107536,80.7959590455,13.0,0.950262168777,0.154664060346,-1.0,-141.967834046,2.85900145024,338.512055932,622.109786039,622.459019468,622.609813694,623.934970042,626.802005264
0,222,4823,6,1,447,314,0.312467642152,0.411646472288,-1.0,1,1.0,1.0,0.480072801933,0,0.0,0.0,0.512883475361,0.391730668988,0.098941753729,0.490672422717,0.292788915259,nan,nan,0.0,0.0,0.0,nan,nan,338.512055932,628.018846677,628.498919479,628.518901415,nan,nan
0,223,4824,6,0,86,60,1.0,-0.21659106269,-0.625617802914,0,0.0,1.0,0.479895757511,0,0.0,0.0,0.436400662797,0.392130407147,0.0988955424409,0.491025949587,0.293234864706,nan,nan,0.0,0.0,0.0,nan,nan,338.512055932,629.019008611,629.498904369,629.519041969,nan,nan
0,224,4825,6,1,425,298,0.149162615564,0.447529597292,-0.791715667876,1,1.0,1.0,0.295783003792,0,0.0,0.0,0.418583854412,0.392525746563,0.098847425818,0.491373172381,0.293678320745,nan,nan,0.0,0.0,0.0,nan,nan,338.512055932,630.01912037,630.314903374,630.519168837,nan,nan
0,225,4826,6,1,27,18,1.0,0.0870912575778,-1.0,1,1.0,1.0,0.271602717228,0,0.0,0.0,0.349093826177,0.392091922604,0.0988371357318,0.490929058336,0.293254786872,nan,nan,0.0,0.0,0.0,nan,nan,338.512055932,631.01925123,631.290853947,631.519277459,nan,nan
0,226,4827,6,1,197,138,1.0,-0.035797595552,0.455774741445,1,1.0,1.0,0.15612698067,0,1.0,0.0,0.241170900563,0.391554024366,0.0989428641901,0.490496888556,0.292611160176,nan,nan,0.0,0.0,0.0,nan,nan,338.512055932,632.110769342,632.266896322,632.61111374,nan,nan
0,227,4832,6,1,146,102,1.0,-0.278792578557,0.0248813210997,1,1.0,1.0,0.243652012199,1,0.0,0.0,0.223793903366,0.390507681949,0.0999571063431,0.490464788292,0.290550575606,-21.4649448502,159.0,1.0,-0.231765974528,0.149055008463,8.80869485024,2.00889419671,338.512055932,633.111192142,633.354844154,633.611205257,634.928034182,636.944965286
0,228,4833,6,1,478,336,0.56422249903,0.334793662244,-1.0,1,1.0,1.0,0.296934514306,0,0.0,0.0,0.232237835725,0.389857878101,0.1002108697,0.490068747801,0.289647008401,nan,nan,0.0,0.0,0.0,nan,nan,338.512055932,638.161813826,638.458748341,638.661857446,nan,nan
0,229,4834,6,1,94,66,1.0,-0.249439013202,-0.526745155233,1,1.0,1.0,0.368776028976,0,0.0,0.0,0.303120851827,0.389448524075,0.100179092333,0.489627616409,0.289269431742,nan,nan,0.0,0.0,0.0,nan,nan,338.512055932,639.161952384,639.530728413,639.661978613,nan,nan
0,230,4835,6,1,470,330,0.497741612616,0.357740777197,-1.0,1,1.0,1.0,0.480617909692,0,0.0,0.0,0.382109484325,0.389357855237,0.0999684939503,0.489326349187,0.289389361287,nan,nan,0.0,0.0,0.0,nan,nan,338.512055932,640.162080963,640.642698873,640.662106051,nan,nan
0,231,4836,6,0,132,92,1.0,-0.307426825298,-0.115555361894,0,0.0,1.0,0.480448561721,0,0.0,0.0,0.443280833463,0.389756370759,0.0999313209453,0.489687691704,0.289825049813,nan,nan,0.0,0.0,0.0,nan,nan,338.512055932,641.16223235,641.642680911,641.662302769,nan,nan
0,232,4837,6,1,419,294,0.107894673663,0.454841969249,-0.678098861371,1,1.0,1.0,0.512329910882,0,0.0,0.0,0.491132127432,0.390150684633,0.0998922221753,0.490042906808,0.290258462457,nan,nan,0.0,0.0,0.0,nan,nan,338.512055932,642.162319019,642.67464893,642.662414812,nan,nan
0,233,4838,6,1,155,108,1.0,-0.2479831371,0.111611878621,1,1.0,1.0,0.311496740207,0,0.0,0.0,0.43475840427,0.390679599032,0.0999980093467,0.490677608379,0.290681589685,nan,nan,0.0,0.0,0.0,nan,nan,338.512055932,643.179148629,643.49064537,643.679162314,nan,nan
0,234,4839,6,1,21,14,1.0,0.116713997928,-1.0,1,1.0,1.0,0.303363469429,0,0.0,0.0,0.375730040173,0.390338293606,0.0999170115198,0.490255305126,0.290421282086,nan,nan,0.0,0.0,0.0,nan,nan,338.512055932,644.179261528,644.482624997,644.679290323,nan,nan
0,235,4840,6,1,509,357,0.822386376617,0.224555004187,-1.0,1,1.0,1.0,0.343201044016,0,0.0,0.0,0.319353751217,0.389965011099,0.0998643519075,0.489829363006,0.290100659191,nan,nan,0.0,0.0,0.0,nan,nan,338.512055932,645.179418617,645.522619661,645.679424888,nan,nan
0,236,4841,6,0,105,73,1.0,-0.285049837405,-0.401580786678,0,0.0,1.0,0.527093701996,0,0.0,0.0,0.391219405147,0.389765165086,0.0996974184873,0.489462583573,0.290067746598,nan,nan,0.0,0.0,0.0,nan,nan,338.512055932,646.179509562,646.706603264,646.679585114,nan,nan
0,237,4842,6,1,296,208,0.0772713571413,0.386205321608,0.550001308524,1,1.0,1.0,0.350940595381,0,0.0,0.0,0.407078447131,0.390349541838,0.0998858813667,0.490235423205,0.290463660472,nan,nan,0.0,0.0,0.0,nan,nan,338.512055932,647.179647835,647.53058843,647.679676346,nan,nan
0,238,4843,6,1,141,99,1.0,-0.291952736687,-0.024586852943,1,1.0,1.0,0.350788068026,0,0.0,0.0,0.409607455134,0.390182554777,0.0997069003131,0.48988945509,0.290475654464,nan,nan,0.0,0.0,0.0,nan,nan,338.512055932,648.179774703,648.530562771,648.679799792,nan,nan
0,239,4844,6,1,386,271,-0.0833946583454,0.477495592553,-0.245424736514,1,1.0,1.0,0.422655526549,0,0.0,0.0,0.374794729985,0.390016333314,0.0995290883908,0.489545421705,0.290487244923,nan,nan,0.0,0.0,0.0,nan,nan,338.512055932,649.179901287,649.602556814,649.679943481,nan,nan
0,240,4845,6,1,318,223,-0.0835627602325,0.431640264478,0.413481556053,1,1.0,1.0,0.542487272993,0,0.0,0.0,0.438643622523,0.390153472781,0.0993422102422,0.489495683024,0.290811262539,nan,nan,0.0,0.0,0.0,nan,nan,338.512055932,650.180034143,650.722521416,650.680092303,nan,nan
0,241,4846,6,1,493,346,0.689769084006,0.285700779988,-1.0,1,1.0,1.0,0.486363771372,0,0.0,0.0,0.483835523638,0.390790852699,0.0996206335289,0.490411486227,0.29117021917,nan,nan,0.0,0.0,0.0,nan,nan,338.512055932,651.180159301,651.666523072,651.68020064,nan,nan
0,242,4847,6,1,214,150,0.920243657418,0.0575410437433,0.553854850604,1,1.0,1.0,0.45420131553,0,0.0,1.0,0.494350786631,0.391189073193,0.0996033132605,0.490792386454,0.291585759933,nan,nan,0.0,0.0,0.0,nan,nan,338.512055932,652.180279898,652.634481213,652.680303561,nan,nan
0,243,4852,6,1,358,251,-0.170583909915,0.474268316859,0.0585874414746,1,1.0,1.0,0.398073251359,1,0.0,0.0,0.44621277942,0.39145053478,0.0994789510544,0.490929485834,0.291971583725,-155.830387555,350.0,-0.175756816429,0.469490941964,0.138247479403,-5.88836244473,2.38404843491,338.512055932,653.180401634,653.578474886,653.680444114,655.005624695,657.397597994
0,244,4853,6,1,462,324,0.432089675478,0.378486360879,-1.0,1,1.0,1.0,0.404279546812,0,0.0,0.0,0.418851371234,0.391477901377,0.0992741123265,0.490752013703,0.29220378905,nan,nan,0.0,0.0,0.0,nan,nan,338.512055932,658.606093737,659.010373284,659.106155033,nan,nan
0,245,4854,6,1,15,10,0.965734432428,0.145352784795,-1.0,1,1.0,1.0,0.444132800214,0,0.0,0.0,0.415495199462,0.391530583045,0.0990730236824,0.490603606728,0.292457559363,nan,nan,0.0,0.0,0.0,nan,nan,338.512055932,659.60623144,660.05036424,660.106252537,nan,nan
0,246,4855,6,1,299,210,0.0516645560415,0.393417669654,0.534378752182,1,1.0,1.0,0.379971820861,0,0.0,0.0,0.409461389296,0.391746165903,0.0989268940699,0.490673059973,0.292819271833,nan,nan,0.0,0.0,0.0,nan,nan,338.512055932,660.606360589,660.98633241,661.106380546,nan,nan
0,247,4856,6,1,99,69,1.0,-0.267176270739,-0.468793303331,1,1.0,1.0,0.307853761129,0,0.0,0.0,0.377319460735,0.391698107351,0.0987276501125,0.490425757464,0.292970457239,nan,nan,0.0,0.0,0.0,nan,nan,338.512055932,661.606479474,661.914333235,662.106511121,nan,nan
0,248,4857,6,1,452,317,0.351738073422,0.401406211611,-1.0,1,1.0,1.0,0.315683117136,0,0.0,0.0,0.334502899709,0.391357276676,0.0986711046856,0.490028381361,0.29268617199,nan,nan,0.0,0.0,0.0,nan,nan,338.512055932,662.606608339,662.922291456,663.106644547,nan,nan
0,249,4858,6,1,339,238,-0.164955840019,0.45996923152,0.241423096872,1,1.0,1.0,0.339521571994,0,0.0,0.0,0.32101948342,0.39105090356,0.09858833913,0.48963924269,0.29246256443,nan,nan,0.0,0.0,0.0,nan,nan,338.512055932,663.60677227,663.946293842,664.106779967,nan,nan
0,250,4859,6,1,411,288,0.0555201669072,0.463022710015,-0.557054760163,1,1.0,1.0,0.291446096264,0,0.0,0.0,0.315550261798,0.390843123997,0.0984435472855,0.489286671283,0.292399576712,nan,nan,0.0,0.0,0.0,nan,nan,338.512055932,664.606871199,664.898317295,665.106890015,nan,nan
0,251,4900,6,1,239,168,0.665069831863,0.183388857662,0.640549267122,1,1.0,1.0,0.259264538996,0,0.0,0.0,0.296744069085,0.390443939147,0.0984465856818,0.488890524829,0.291997353465,nan,nan,0.0,0.0,0.0,nan,nan,338.512055932,665.606992366,665.866256905,666.107025152,nan,nan
0,252,4901,6,1,325,228,-0.119404900653,0.442631039184,0.360186421743,1,1.0,1.0,0.283145758323,0,1.0,0.0,0.277952131194,0.389919221547,0.0985977693612,0.488516990908,0.291321452185,nan,nan,0.0,0.0,0.0,nan,nan,338.512055932,666.607130923,666.890276682,667.107154301,nan,nan
0,253,4908,6,0,24,16,1.0,0.102019060141,-1.0,0,0.0,1.0,0.47494560387,1,0.0,0.0,0.33911863373,0.389493829263,0.0986307691135,0.488124598376,0.290863060149,70.7693276243,27.0,1.0,0.0870912575778,-1.0,2.35567237566,3.15903155692,338.512055932,667.607270051,668.082215655,668.107299986,669.440776343,672.607838251
0,254,4909,6,1,502,352,0.764740937618,0.25241357569,-1.0,1,1.0,1.0,0.409761977382,0,0.0,0.0,0.389284446525,0.389832923606,0.0985813702289,0.488414293835,0.291251553378,nan,nan,0.0,0.0,0.0,nan,nan,338.512055932,673.816351957,674.226113934,674.316399853,nan,nan
0,255,4910,6,1,146,102,1.0,-0.278792578557,0.0248813210997,1,1.0,1.0,0.433620103635,0,0.0,0.0,0.439442561629,0.38991169457,0.0983942985253,0.488305993095,0.291517396045,nan,nan,0.0,0.0,0.0,nan,nan,338.512055932,674.81647968,675.250099784,675.31652102,nan,nan
0,256,4911,6,1,445,312,0.296953900578,0.415520102116,-1.0,1,1.0,1.0,0.369441732764,0,0.0,0.0,0.404274604594,0.390083774921,0.0982385557275,0.488322330648,0.291845219193,nan,nan,0.0,0.0,0.0,nan,nan,338.512055932,675.816624795,676.186066528,676.316655016,nan,nan
0,257,4912,6,1,54,37,1.0,-0.0546292063271,-1.0,1,1.0,1.0,0.321306101047,0,0.0,0.0,0.374789312482,0.390002825736,0.0980542294161,0.488057055152,0.29194859632,nan,nan,0.0,0.0,0.0,nan,nan,338.512055932,676.816758221,677.138064322,677.316791862,nan,nan
0,258,4913,6,1,424,298,0.142174562463,0.448819569244,-0.770229420881,1,1.0,1.0,0.337144141085,0,0.0,0.0,0.342630658299,0.389734479155,0.0979563028692,0.487690782024,0.291778176286,nan,nan,0.0,0.0,0.0,nan,nan,338.512055932,677.816885659,678.154029801,678.316921012,nan,nan
0,259,4914,6,1,52,36,1.0,-0.0438860552364,-1.0,1,1.0,1.0,0.344991172664,0,0.0,0.0,0.334480471599,0.389529847489,0.0978203491834,0.487350196673,0.291709498306,nan,nan,0.0,0.0,0.0,nan,nan,338.512055932,678.817035336,679.162026509,679.317040183,nan,nan
0,260,4915,6,1,131,92,1.0,-0.308451667147,-0.125800503078,1,1.0,1.0,0.288837166503,0,0.0,0.0,0.323657493417,0.389357216967,0.0976698069794,0.487027023946,0.291687409987,nan,nan,0.0,0.0,0.0,nan,nan,338.512055932,679.817170757,680.106007923,680.317166195,nan,nan
0,261,4916,6,0,306,215,-0.00395437407881,0.408974006242,0.494128827808,0,0.0,1.0,0.432766235434,0,0.0,0.0,0.355531524867,0.388969108664,0.0976802006924,0.486649309356,0.291288907971,nan,nan,0.0,0.0,0.0,nan,nan,338.512055932,680.817289073,681.250055308,681.317309029,nan,nan
0,262,4917,6,1,399,280,-0.0164460389312,0.472031251936,-0.400274523968,1,1.0,1.0,0.288554918952,0,0.0,0.0,0.336719440296,0.389137559151,0.0975298574985,0.48666741665,0.291607701653,nan,nan,0.0,0.0,0.0,nan,nan,338.512055932,681.817403967,682.105958886,682.317423924,nan,nan
0,263,4918,6,1,205,144,1.0,0.00854800403903,0.505535240796,1,1.0,1.0,0.336445081048,0,0.0,0.0,0.352588745145,0.388752185051,0.0975409750332,0.486293160084,0.291211210018,nan,nan,0.0,0.0,0.0,nan,nan,338.512055932,682.817514015,683.153959096,683.31755621,nan,nan
0,264,4919,6,1,19,13,0.99625917486,0.126374530333,-1.0,1,1.0,1.0,0.288277518936,0,0.0,0.0,0.304425839645,0.388552539616,0.0974080639713,0.485960603587,0.291144475645,nan,nan,0.0,0.0,0.0,nan,nan,338.512055932,683.817652858,684.105930377,684.317695907,nan,nan
0,265,4920,6,1,227,159,0.791019951953,0.125257787881,0.608066708266,1,1.0,1.0,0.27215324156,0,0.0,0.0,0.298958613848,0.388171265773,0.0974183786329,0.485589644406,0.29075288714,nan,nan,0.0,0.0,0.0,nan,nan,338.512055932,684.817777731,685.089930972,685.317821921,nan,nan
0,266,4921,6,1,64,45,1.0,-0.108036866323,-1.0,1,1.0,1.0,0.29599369131,0,1.0,0.0,0.285474817269,0.38773180356,0.0974945364963,0.485226340056,0.290237267064,nan,nan,0.0,0.0,0.0,nan,nan,338.512055932,685.81790688,686.113900571,686.317949074,nan,nan
0,267,4927,6,1,428,300,0.170378320166,0.443486568519,-0.86866140055,1,1.0,1.0,0.295858555473,1,0.0,0.0,0.288001829448,0.387385622004,0.0974728384016,0.484858460406,0.289912783603,171.347458209,396.0,-0.0330153705648,0.473684876347,-0.363523780775,-22.2849582089,2.90057926159,338.512055932,686.818037169,687.113895725,687.318079079,688.643246545,691.551930283
0,268,4928,6,1,100,70,1.0,-0.270427092546,-0.457439896749,1,1.0,1.0,0.457339102402,0,0.0,0.0,0.349730449729,0.387041535288,0.0974505577467,0.484492093035,0.289590977541,nan,nan,0.0,0.0,0.0,nan,nan,338.512055932,692.760432869,693.217771972,693.260483046,nan,nan
0,269,4929,6,1,162,113,1.0,-0.218739557155,0.176632971453,1,1.0,1.0,0.313210749067,0,0.0,0.0,0.355469468981,0.387304822056,0.0973626338605,0.484667455917,0.289942188196,nan,nan,0.0,0.0,0.0,nan,nan,338.512055932,693.760603358,694.073814107,694.260613906,nan,nan
0,270,4930,6,1,86,60,1.0,-0.21659106269,-0.625617802914,1,1.0,1.0,0.273062418215,0,0.0,0.0,0.347870756562,0.387028351635,0.0972857628469,0.484314114482,0.289742588788,nan,nan,0.0,0.0,0.0,nan,nan,338.512055932,694.760688887,695.033751305,695.260762157,nan,nan
0,271,4931,6,1,280,196,0.228089347314,0.342018854333,0.61587222022,1,1.0,1.0,0.288918988779,0,0.0,0.0,0.291730718687,0.386604686455,0.0973521415804,0.483956828035,0.289252544874,nan,nan,0.0,0.0,0.0,nan,nan,338.512055932,695.760819747,696.049738736,696.260866218,nan,nan
0,272,4932,6,1,205,144,1.0,0.00854800403903,0.505535240796,1,1.0,1.0,0.248769232072,0,1.0,0.0,0.270250213022,0.386242887574,0.0973527067945,0.483595594369,0.28889018078,nan,nan,0.0,0.0,0.0,nan,nan,338.512055932,696.760943765,697.009712997,697.260985959,nan,nan
0,273,4937,6,1,39,27,1.0,0.0253789930673,-1.0,1,1.0,1.0,0.222569883801,1,0.0,0.0,0.253419368217,0.385735604713,0.0975297785614,0.483265383274,0.288205826151,-74.2611985626,234.0,0.71814774995,0.15974031316,0.62913160129,136.839323563,2.06726769079,338.512055932,697.811119555,698.033689439,698.31112925,699.636287877,701.711584494
0,274,4938,6,1,493,346,0.689769084006,0.285700779988,-1.0,1,1.0,1.0,0.393167858943,0,0.0,0.0,0.288168991605,0.385135730739,0.0978499153115,0.48298564605,0.287285815427,nan,nan,0.0,0.0,0.0,nan,nan,338.512055932,702.928436739,703.321604598,703.428464964,nan,nan
0,275,4939,6,1,143,100,1.0,-0.287057525782,-0.00469998909502,1,1.0,1.0,0.472997815348,0,0.0,0.0,0.362911852698,0.385165152454,0.0976717439347,0.482836896388,0.287493408519,nan,nan,0.0,0.0,0.0,nan,nan,338.512055932,703.92856988,704.401567696,704.428586701,nan,nan
0,276,4940,6,1,376,264,-0.124962824795,0.478704673615,-0.132627625282,1,1.0,1.0,0.280921994708,0,0.0,0.0,0.382362556333,0.385485709618,0.0976371113789,0.483122820997,0.287848598239,nan,nan,0.0,0.0,0.0,nan,nan,338.512055932,704.928702166,705.209624161,705.428696749,nan,nan
0,277,4941,6,1,506,355,0.797774742377,0.236703125255,-1.0,1,1.0,1.0,0.240737456828,0,0.0,0.0,0.331552422295,0.385105477927,0.0976624488007,0.482767926728,0.287443029126,nan,nan,0.0,0.0,0.0,nan,nan,338.512055932,705.928809647,706.169547104,706.428833595,nan,nan
0,278,4942,6,0,197,138,1.0,-0.035797595552,0.455774741445,0,0.0,1.0,0.432542433962,0,0.0,0.0,0.318067295166,0.384582405387,0.0978705136616,0.482452919048,0.286711891725,nan,nan,0.0,0.0,0.0,nan,nan,338.512055932,706.928981562,707.361523996,707.428980136,nan,nan
0,279,4943,6,1,350,246,-0.175756816429,0.469490941964,0.138247479403,1,1.0,1.0,0.25647970289,0,0.0,0.0,0.30991986456,0.384755546284,0.0977360291317,0.482491575416,0.287019517153,nan,nan,0.0,0.0,0.0,nan,nan,338.512055932,707.92906367,708.185543373,708.429110426,nan,nan
0,280,4944,6,1,477,335,0.555879874869,0.337784025865,-1.0,1,1.0,1.0,0.512285434641,0,0.0,0.0,0.400435857164,0.384294122387,0.0978618777344,0.482156000122,0.286432244653,nan,nan,0.0,0.0,0.0,nan,nan,338.512055932,708.929200232,709.441485667,709.429252405,nan,nan
0,281,4945,6,1,323,227,-0.11001989341,0.43965344528,0.375855360355,1,1.0,1.0,0.344151560217,0,0.0,0.0,0.370972232583,0.38475287261,0.0979853393609,0.482738211971,0.286767533249,nan,nan,0.0,0.0,0.0,nan,nan,338.512055932,709.929317692,710.273469253,710.429359887,nan,nan
0,282,4946,6,1,241,169,0.64365311028,0.192605941253,0.644254782112,1,1.0,1.0,0.288025206886,0,0.0,0.0,0.381487400581,0.384607867923,0.0978401928943,0.482448060817,0.286767675029,nan,nan,0.0,0.0,0.0,nan,nan,338.512055932,710.929446272,711.217471479,711.429488751,nan,nan
0,283,4947,6,1,54,37,1.0,-0.0546292063271,-1.0,1,1.0,1.0,0.359866722487,0,0.0,0.0,0.330681163197,0.384264157386,0.0978351425974,0.482099299983,0.286429014788,nan,nan,0.0,0.0,0.0,nan,nan,338.512055932,711.92957428,712.289441003,712.429601079,nan,nan
0,284,4948,6,1,282,198,0.208142307666,0.34807905204,0.609295500931,1,1.0,1.0,0.287706468254,0,0.0,0.0,0.311866132542,0.384177641659,0.0976722895793,0.481849931238,0.28650535208,nan,nan,0.0,0.0,0.0,nan,nan,338.512055932,712.929719965,713.217426433,713.429725952,nan,nan
0,285,4949,6,0,473,332,0.522594813828,0.349396171415,-1.0,0,1.0,0.0,0.215573866852,0,0.0,0.0,0.287715685864,0.383836754121,0.097667476462,0.481504230583,0.286169277658,nan,nan,0.0,0.0,0.0,nan,nan,338.512055932,713.929847689,714.145421556,714.429883326,nan,nan
0,286,4950,6,1,238,167,0.675741828754,0.178727669763,0.638511091232,1,1.0,1.0,0.239449954592,0,0.0,0.0,0.247576763233,0.383244279165,0.0980035135891,0.481247792754,0.285240765576,nan,nan,0.0,0.0,0.0,nan,nan,338.512055932,714.929974558,715.169424512,715.429978264,nan,nan
0,287,4951,6,1,342,240,-0.170052622031,0.462913557708,0.21407524247,1,1.0,1.0,0.279349965043,0,0.0,0.0,0.244791262162,0.382739737676,0.0982002222727,0.480939959948,0.284539515403,nan,nan,0.0,0.0,0.0,nan,nan,338.512055932,715.93008318,716.209433145,716.430106558,nan,nan
0,288,4952,6,1,232,163,0.739158239773,0.150046616059,0.623712016981,1,1.0,1.0,0.319142494351,0,1.0,0.0,0.279314137995,0.382378234974,0.0982181799735,0.480596414948,0.284160055001,nan,nan,0.0,0.0,0.0,nan,nan,338.512055932,716.930193228,717.249335722,717.430234566,nan,nan
0,289,4959,6,1,46,32,1.0,-0.0117313672748,-1.0,1,1.0,1.0,0.391019931063,1,0.0,0.0,0.329837463486,0.382157901383,0.0981176982342,0.480275599617,0.284040203149,84.9960800478,7.0,0.9030914636,0.181853060355,-1.0,-27.3398300478,4.34256185498,338.512055932,717.93031525,718.321335181,718.430355733,719.763857179,724.114426292
0,290,5000,6,1,474,333,0.530901762182,0.346545376391,-1.0,1,1.0,1.0,0.597916847095,0,0.0,0.0,0.43602642417,0.382188672319,0.0979485940806,0.4801372664,0.284240078239,nan,nan,0.0,0.0,0.0,nan,nan,338.512055932,725.331260292,725.929177139,725.831342115,nan,nan
0,291,5001,6,1,101,71,1.0,-0.273572672894,-0.446152610616,1,1.0,1.0,0.605741357431,0,0.0,0.0,0.53155937853,0.382935136592,0.0985961777606,0.481531314353,0.284338958832,nan,nan,0.0,0.0,0.0,nan,nan,338.512055932,726.331414529,726.937155887,726.831473545,nan,nan
0,292,5002,6,1,303,213,0.0191349273956,0.402522842081,0.512018356663,1,1.0,1.0,0.357627850026,0,0.0,1.0,0.520428684851,0.383703433905,0.0992888513789,0.482992285284,0.284414582526,nan,nan,0.0,0.0,0.0,nan,nan,338.512055932,727.331536551,727.689164401,727.831578746,nan,nan
0,293,5009,6,0,492,345,0.681403316433,0.289222019555,-1.0,0,0.0,1.0,0.365451504476,1,0.0,0.0,0.442940237311,0.383613827088,0.0991298506592,0.482743677747,0.284483976429,104.222469614,492.0,0.681403316433,0.289222019555,-1.0,-0.159969614466,3.31746326759,338.512055932,728.331691359,728.697142864,728.831710747,730.148540242,733.473939492
0,294,5010,6,1,91,63,1.0,-0.237709898716,-0.562722318432,1,1.0,1.0,0.486233767122,0,0.0,0.0,0.403104373875,0.383551627353,0.098965650298,0.482517277651,0.284585977055,nan,nan,0.0,0.0,0.0,nan,nan,338.512055932,734.690783471,735.177017238,735.190820249,nan,nan
0,295,5011,6,1,185,130,1.0,-0.102214474652,0.370299946716,1,1.0,1.0,0.493429064751,0,0.0,0.0,0.44837144545,0.383902078342,0.0989779514684,0.48288002981,0.284924126873,nan,nan,0.0,0.0,0.0,nan,nan,338.512055932,735.707582005,736.20101107,736.215977851,nan,nan
0,296,5012,6,1,307,215,-0.0113868739462,0.411053355611,0.487957006857,1,1.0,1.0,0.317259137519,0,0.0,0.0,0.43230732313,0.384274619112,0.0990150365893,0.483289655701,0.285259582523,nan,nan,0.0,0.0,0.0,nan,nan,338.512055932,736.707734818,737.024993955,737.207779008,nan,nan
0,297,5013,6,1,61,42,1.0,-0.0921163965413,-1.0,1,1.0,1.0,0.405104619451,0,0.0,0.0,0.405264273907,0.384047447988,0.0989237889712,0.482971236959,0.285123659017,nan,nan,0.0,0.0,0.0,nan,nan,338.512055932,737.707860831,738.112965451,738.207879933,nan,nan
0,298,5014,6,1,270,189,0.331159066004,0.309369715406,0.641393874915,1,1.0,1.0,0.452960000373,0,0.0,0.0,0.391774585781,0.384118587081,0.0987641049401,0.482882692021,0.285354482141,nan,nan,0.0,0.0,0.0,nan,nan,338.512055932,738.708001099,739.160961099,739.208011078,nan,nan
0,299,5015,6,1,177,124,1.0,-0.145192147526,0.306921212481,1,0.0,0.0,0.500822506845,0,0.0,0.0,0.452962375556,0.384350376351,0.0986783080282,0.483028684379,0.285672068323,nan,nan,0.0,0.0,0.0,nan,nan,338.512055932,739.708109722,740.208932228,740.208179285,nan,nan
0,300,5016,6,1,25,17,1.0,0.0970682892709,-1.0,1,1.0,1.0,0.356679613702,0,0.0,0.0,0.436820706973,0.384741222427,0.0987426074316,0.483483829858,0.285998614995,nan,nan,0.0,0.0,0.0,nan,nan,338.512055932,740.708247138,741.064926752,741.208285912,nan,nan
0,301,5017,6,0,95,66,1.0,-0.253175017597,-0.514975443931,0,1.0,0.0,0.348518689163,0,0.0,0.0,0.40200693657,0.384647370892,0.0985906603121,0.483238031204,0.28605671058,nan,nan,0.0,0.0,0.0,nan,nan,338.512055932,741.708385411,742.0569041,742.208417627,nan,nan
0,302,5018,6,1,464,326,0.448404880525,0.373503555275,-1.0,1,1.0,1.0,0.524369306862,0,0.0,0.0,0.409855869909,0.384526941953,0.0984482317877,0.482975173741,0.286078710166,nan,nan,0.0,0.0,0.0,nan,nan,338.512055932,742.708500875,743.232870182,743.208563027,nan,nan
0,303,5019,6,1,29,20,1.0,0.0770173926463,-1.0,1,1.0,1.0,0.340255698189,0,0.0,0.0,0.404381231405,0.384991534528,0.0986134306477,0.483604965175,0.28637810388,nan,nan,0.0,0.0,0.0,nan,nan,338.512055932,743.708627174,744.048882872,744.208655113,nan,nan
0,304,5020,6,1,219,153,0.871627318206,0.0840881726889,0.576959667802,1,1.0,1.0,0.364078472368,0,0.0,0.0,0.409567825807,0.384843402619,0.0984835665215,0.483326969141,0.286359836098,nan,nan,0.0,0.0,0.0,nan,nan,338.512055932,744.708782267,745.072860739,745.208774854,nan,nan
0,305,5021,6,1,406,285,0.0244967455079,0.467245700284,-0.489366101921,1,1.0,1.0,0.243955641054,0,0.0,0.0,0.31609660387,0.384774871496,0.0983281306584,0.483103002155,0.286446740838,nan,nan,0.0,0.0,0.0,nan,nan,338.512055932,745.708888608,745.952844249,746.208925671,nan,nan
0,306,5022,6,1,224,157,0.821619416966,0.11002478857,0.597264883709,1,1.0,1.0,0.251872522756,0,0.0,0.0,0.286635545393,0.384311650344,0.0984968686499,0.482808518993,0.285814781694,nan,nan,0.0,0.0,0.0,nan,nan,338.512055932,746.708992098,746.960864621,747.209030872,nan,nan
0,307,5023,6,1,407,286,0.0305886347219,0.46645515455,-0.502577406972,1,1.0,1.0,0.323676975444,0,1.0,0.0,0.273168379751,0.383877423696,0.0986262872983,0.482503710994,0.285251136397,nan,nan,0.0,0.0,0.0,nan,nan,338.512055932,747.709116116,748.032793092,748.209158882,nan,nan
0,308,5029,6,1,296,208,0.0772713571413,0.386205321608,0.550001308524,1,1.0,1.0,0.299540593289,1,0.0,0.0,0.291696697163,0.383680690205,0.0985249269599,0.482205617165,0.285155763245,-121.924418901,301.0,0.0351599448551,0.39804275895,0.523414514543,3.79941890091,3.13399398047,338.512055932,748.709243841,749.008784434,749.209289741,750.542798885,753.684868546
0,309,5030,6,1,29,20,1.0,0.0770173926463,-1.0,1,1.0,1.0,0.539563309401,0,0.0,0.0,0.387593626045,0.383406618228,0.0984811004305,0.481887718658,0.284925517797,nan,nan,0.0,0.0,0.0,nan,nan,338.512055932,754.88508448,755.424647789,755.385113275,nan,nan
0,310,5031,6,1,381,267,-0.105403061426,0.478425078289,-0.188431136224,1,1.0,1.0,0.411475415342,0,0.0,0.0,0.416859772677,0.383913620472,0.0987215941884,0.48263521466,0.285192026283,nan,nan,0.0,0.0,0.0,nan,nan,338.512055932,755.885184549,756.296659964,756.385201369,nan,nan
0,311,5032,6,1,11,7,0.934659501434,0.163852895862,-1.0,1,1.0,1.0,0.323350537568,0,0.0,0.0,0.42479642077,0.384002817219,0.0985741513988,0.482576968618,0.28542866582,nan,nan,0.0,0.0,0.0,nan,nan,338.512055932,756.885283764,757.208634301,757.38533223,nan,nan
0,312,5033,6,1,71,49,1.0,-0.144504067012,-0.877980773838,1,1.0,1.0,0.37919407431,0,0.0,0.0,0.371340009073,0.383807164704,0.0984751090111,0.482282273715,0.285332055693,nan,nan,0.0,0.0,0.0,nan,nan,338.512055932,757.88543515,758.264629224,758.385469647,nan,nan
0,313,5034,6,1,480,337,0.580928072941,0.32870764083,-1.0,1,1.0,1.0,0.500238627195,0,0.0,0.0,0.400927746358,0.383792331616,0.0983170082983,0.482109339914,0.285475323318,nan,nan,0.0,0.0,0.0,nan,nan,338.512055932,758.885558027,759.385796654,759.385628161,nan,nan
0,314,5035,6,1,358,251,-0.170583909915,0.474268316859,0.0585874414746,1,nan,nan,nan,0,0.0,0.0,0.439716350753,0.384165556922,0.0983797438924,0.482545300815,0.28578581303,nan,nan,0.0,0.0,0.0,nan,nan,338.512055932,759.885694019,nan,760.38575446,nan,nan
0,315,5036,6,1,243,170,0.622151010882,0.20168048164,0.647463484622,1,1.0,1.0,0.338815954514,0,0.0,0.0,0.419527290855,0.384165556922,0.0983797438924,0.482545300815,0.28578581303,nan,nan,0.0,0.0,0.0,nan,nan,338.512055932,760.885795228,761.224611183,761.385847687,nan,nan
0,316,5037,6,1,80,56,1.0,-0.189075709245,-0.708965549488,1,1.0,1.0,0.234661166556,0,0.0,0.0,0.286738560535,0.384020670014,0.0982557968678,0.482276466881,0.285764873146,nan,nan,0.0,0.0,0.0,nan,nan,338.512055932,761.885922098,762.120583264,762.385978547,nan,nan
0,317,5038,6,1,158,111,1.0,-0.235949227405,0.139764106,1,1.0,1.0,0.2824715022,0,0.0,0.0,0.285316207757,0.383545002805,0.0984595089967,0.482004511802,0.285085493808,nan,nan,0.0,0.0,0.0,nan,nan,338.512055932,762.886073769,763.168545271,763.386113683,nan,nan
0,318,5039,6,1,268,188,0.35230222188,0.302367520405,0.645005310408,1,nan,nan,nan,0,0.0,0.0,0.258566334378,0.383224134549,0.0984673943871,0.481691528936,0.284756740162,nan,nan,0.0,0.0,0.0,nan,nan,338.512055932,763.88620634,nan,764.386265355,nan,nan
0,319,5040,6,1,114,80,1.0,-0.303747463913,-0.303859371662,1,1.0,1.0,0.37015419174,0,0.0,0.0,0.32631284697,0.383224134549,0.0984673943871,0.481691528936,0.284756740162,nan,nan,0.0,0.0,0.0,nan,nan,338.512055932,764.88633777,765.256491962,765.386369701,nan,nan
0,320,5041,6,0,374,262,-0.132039125116,0.478634076427,-0.110628443238,0,0.0,1.0,0.554013493471,0,0.0,0.0,0.462083842605,0.383182773971,0.0983142086773,0.481496982648,0.284868565293,nan,nan,0.0,0.0,0.0,nan,nan,338.512055932,765.88645694,766.440470434,766.386516526,nan,nan
0,321,5042,6,1,91,63,1.0,-0.237709898716,-0.562722318432,1,1.0,1.0,0.361871815287,0,0.0,0.0,0.428679833499,0.38372167214,0.0986253641969,0.482347036336,0.285096307943,nan,nan,0.0,0.0,0.0,nan,nan,338.512055932,766.886582669,767.248454484,767.386609468,nan,nan
0,322,5043,6,1,43,30,1.0,0.00424534395127,-1.0,1,1.0,1.0,0.321738310158,0,0.0,0.0,0.412541206305,0.383652961898,0.0984777696668,0.482130731565,0.285175192231,nan,nan,0.0,0.0,0.0,nan,nan,338.512055932,767.886704976,768.208443286,768.386749166,nan,nan
0,323,5044,6,1,448,315,0.32026743599,0.409662251776,-1.0,1,1.0,1.0,0.345652315766,0,0.0,0.0,0.343087480403,0.38345887208,0.0983841938587,0.481843065939,0.285074678222,nan,nan,0.0,0.0,0.0,nan,nan,338.512055932,768.886839827,769.232492142,769.386881451,nan,nan
0,324,5045,6,1,328,230,-0.132159558243,0.44685796506,0.336046158271,1,1.0,1.0,0.425432094373,0,0.0,0.0,0.364274240099,0.383340726592,0.09825301032,0.481593736912,0.285087716272,nan,nan,0.0,0.0,0.0,nan,nan,338.512055932,769.886968976,770.31240107,770.387019154,nan,nan
0,325,5046,6,1,101,71,1.0,-0.273572672894,-0.446152610616,1,0.0,0.0,0.561269232072,0,0.0,0.0,0.444117880737,0.383471852348,0.0981278880687,0.481599740417,0.28534396428,nan,nan,0.0,0.0,0.0,nan,nan,338.512055932,770.887098126,771.448367358,771.387156285,nan,nan
0,326,5047,6,1,453,318,0.359670421306,0.39926174925,-1.0,1,1.0,1.0,0.457134972326,0,0.0,0.0,0.481278766257,0.384024018124,0.0984735861802,0.482497604304,0.285550431944,nan,nan,0.0,0.0,0.0,nan,nan,338.512055932,771.887223284,772.344358256,772.387240959,nan,nan
0,327,5048,6,1,252,177,0.524721685615,0.240693665738,0.655694012224,1,1.0,1.0,0.217062648386,0,0.0,0.0,0.411822284261,0.384250367827,0.0984048919816,0.482655259809,0.285845475846,nan,nan,0.0,0.0,0.0,nan,nan,338.512055932,772.887346446,773.104409094,773.387375241,nan,nan
0,328,5049,6,1,166,116,1.0,-0.20036215083,0.21267421211,1,1.0,1.0,0.288847144693,0,0.0,0.0,0.321014921802,0.383734356348,0.0986896137627,0.48242397011,0.285044742585,nan,nan,0.0,0.0,0.0,nan,nan,338.512055932,773.887470463,774.176317608,774.387490706,nan,nan
0,329,5050,6,1,338,237,-0.162891363375,0.458928707883,0.250399161362,1,1.0,1.0,0.280770323239,0,1.0,0.0,0.262226705439,0.383442395696,0.0986777068697,0.482120102566,0.284764688827,nan,nan,0.0,0.0,0.0,nan,nan,338.512055932,774.887604174,775.168374497,775.38764751,nan,nan
0,330,5058,6,1,140,98,1.0,-0.294209249228,-0.0345777392028,1,1.0,1.0,0.296572725289,1,0.0,0.0,0.288730064407,0.383127450689,0.0986897041849,0.481817154874,0.284437746504,-25.7613554831,165.0,1.0,-0.205056383665,0.203745440608,17.3238554831,5.65113121085,338.512055932,775.8877376,776.184310325,776.387756702,777.712938423,783.372007613
0,331,5059,6,1,425,298,0.149162615564,0.447529597292,-0.791715667876,1,1.0,1.0,0.723629307002,0,0.0,0.0,0.433657451843,0.382862757339,0.0986545144623,0.481517271801,0.284208242877,nan,nan,0.0,0.0,0.0,nan,nan,338.512055932,784.580495659,785.304124966,785.080568359,nan,nan
0,332,5100,6,1,278,195,0.248285521772,0.335802812283,0.621962573991,1,1.0,1.0,0.4035023693,0,0.0,0.0,0.474568133863,0.383901679746,0.10027956403,0.484181243776,0.283622115717,nan,nan,0.0,0.0,0.0,nan,nan,338.512055932,785.580631651,785.98413402,786.08065788,nan,nan
0,333,5101,6,1,174,122,1.0,-0.160790688716,0.281981279739,1,1.0,1.0,0.33937560115,0,0.0,1.0,0.48883575915,0.38396125631,0.100132860901,0.484094117212,0.283828395409,nan,nan,0.0,0.0,0.0,nan,nan,338.512055932,786.580741414,786.920117015,787.080802995,nan,nan
0,334,5107,6,1,18,12,0.988682696815,0.131162580546,-1.0,1,1.0,1.0,0.259272806346,1,0.0,0.0,0.334050258932,0.383826148264,0.100011058655,0.48383720692,0.283815089609,-29.4563207733,170.0,1.0,-0.180990482069,0.247815061387,106.800070773,2.66729255114,338.512055932,787.580889665,787.840162471,788.080945258,789.414426463,792.08975193
0,335,5108,6,0,117,82,1.0,-0.307587969795,-0.271886539361,0,0.0,1.0,0.501684358343,0,0.0,0.0,0.366777588613,0.38344985418,0.100093560128,0.483543414308,0.283356294052,nan,nan,0.0,0.0,0.0,nan,nan,338.512055932,793.298300132,793.79998449,793.798346033,nan,nan
0,336,5109,6,1,51,35,1.0,-0.0385160204876,-1.0,1,1.0,1.0,0.341568003409,0,0.0,0.0,0.367508389366,0.383805982205,0.100152502228,0.483958484433,0.283653479977,nan,nan,0.0,0.0,0.0,nan,nan,338.512055932,794.29839564,794.639963644,794.798442396,nan,nan
0,337,5110,6,1,229,161,0.770397026975,0.135265939772,0.614681466938,1,1.0,1.0,0.357423149049,0,0.0,0.0,0.400225170267,0.383679141428,0.100028712974,0.483707854401,0.283650428454,nan,nan,0.0,0.0,0.0,nan,nan,338.512055932,795.298529066,795.655952215,795.798575251,nan,nan
0,338,5111,6,1,332,233,-0.146647089803,0.45205423783,0.302714191958,1,1.0,1.0,0.285273442976,0,0.0,0.0,0.328088198478,0.383600530672,0.0998891582072,0.483489688879,0.283711372465,nan,nan,0.0,0.0,0.0,nan,nan,338.512055932,796.298670189,796.583943632,796.798705542,nan,nan
0,339,5112,6,1,235,165,0.707591924495,0.164537776567,0.631659631194,1,1.0,1.0,0.253140352666,0,0.0,0.0,0.298612314897,0.383307016977,0.099884100412,0.483191117389,0.283422916565,nan,nan,0.0,0.0,0.0,nan,nan,338.512055932,797.298799339,797.551939691,797.798817014,nan,nan
0,340,5113,6,1,171,120,1.0,-0.176011872558,0.256450910142,1,1.0,1.0,0.253006071784,0,1.0,0.0,0.263806622475,0.382919616191,0.099987084901,0.482906701092,0.28293253129,nan,nan,0.0,0.0,0.0,nan,nan,338.512055932,798.298909957,798.551916028,798.798938751,nan,nan
0,341,5122,6,1,476,334,0.547545041103,0.340739382997,-1.0,1,1.0,1.0,0.252881484106,1,0.0,0.0,0.253009302852,0.382534116059,0.100088382437,0.482622498496,0.282445733622,86.7366686818,5.0,0.88714030954,0.190659852496,-1.0,28.5758313182,6.12606712151,338.512055932,799.299061343,799.551942827,799.799096125,801.132598141,807.26669932
0,342,5123,6,1,386,271,-0.0833946583454,0.477495592553,-0.245424736514,1,1.0,1.0,0.67649892997,0,0.0,0.0,0.39412882862,0.38215052839,0.100187984264,0.482338512655,0.281962544126,nan,nan,0.0,0.0,0.0,nan,nan,338.512055932,808.475203047,809.151701977,808.97528544,nan,nan
0,343,5124,6,1,157,110,1.0,-0.240048375319,0.130425901556,1,1.0,1.0,0.356374274008,0,0.0,0.0,0.428584896028,0.383018812761,0.101305709885,0.484324522646,0.281713102876,nan,nan,0.0,0.0,0.0,nan,nan,338.512055932,809.475328204,809.831702478,809.975370969,nan,nan
0,344,5125,6,1,264,185,0.394966959701,0.287889713878,0.650717615019,1,1.0,1.0,0.252263106406,0,0.0,0.0,0.428378770128,0.38294044647,0.101166911112,0.484107357583,0.281773535358,nan,nan,0.0,0.0,0.0,nan,nan,338.512055932,810.475477025,810.727740131,810.975502684,nan,nan
0,345,5126,6,1,23,16,1.0,0.106943944166,-1.0,1,1.0,1.0,0.252147641964,0,0.0,0.0,0.286928340793,0.382557228464,0.101265300305,0.483822528769,0.281291928159,nan,nan,0.0,0.0,0.0,nan,nan,338.512055932,811.475614158,811.727761799,811.975625562,nan,nan
0,346,5127,6,1,385,270,-0.0879796604702,0.477733444059,-0.233926720364,1,1.0,1.0,0.235963209532,0,1.0,0.0,0.246791319301,0.382175913884,0.101362016223,0.483537930107,0.280813897661,nan,nan,0.0,0.0,0.0,nan,nan,338.512055932,812.4757262,812.71168941,812.975783505,nan,nan
0,347,5134,6,1,48,33,1.0,-0.0224273256894,-1.0,1,1.0,1.0,0.331759783439,1,0.0,0.0,0.273290211645,0.381749637778,0.101520685074,0.483270322852,0.280228952704,75.7808982821,20.0,1.0,0.121558187834,-1.0,-19.5308982821,3.52574376296,338.512055932,813.475866754,813.807626537,813.975889277,815.292708224,818.826492886
0,348,5135,6,1,372,261,-0.138660017671,0.478458869494,-0.0888123791441,1,1.0,1.0,0.300518764183,0,0.0,0.0,0.289413919051,0.381604318434,0.101408738598,0.483013057032,0.280195579836,nan,nan,0.0,0.0,0.0,nan,nan,338.512055932,820.035013434,820.335532198,820.535067032,nan,nan
0,349,5136,6,1,224,157,0.821619416966,0.11002478857,0.597264883709,1,1.0,1.0,0.260399228893,0,0.0,0.0,0.297559258838,0.381369287842,0.101355447267,0.482724735109,0.280013840574,nan,nan,0.0,0.0,0.0,nan,nan,338.512055932,821.035160258,821.295559487,821.535174799,nan,nan
0,350,5137,6,1,315,221,-0.0657111424032,0.426434809442,0.434956515233,1,1.0,1.0,0.348200234585,0,0.0,0.0,0.30303940922,0.381019663394,0.101417000567,0.482436663961,0.279602662827,nan,nan,0.0,0.0,0.0,nan,nan,338.512055932,822.035283421,822.383483656,822.535311931,nan,nan
0,351,5138,6,0,131,92,1.0,-0.308451667147,-0.125800503078,0,1.0,0.0,0.332016942091,0,0.0,0.0,0.313538801856,0.380925082908,0.101286041441,0.482211124349,0.279639041466,nan,nan,0.0,0.0,0.0,nan,nan,338.512055932,823.035436518,823.367453461,823.535459042,nan,nan
0,352,5139,6,1,4,2,0.879126049628,0.195014037372,-1.0,1,1.0,1.0,0.267954319715,0,0.0,0.0,0.316057165464,0.380784542273,0.101174287896,0.481958830169,0.279610254377,nan,nan,0.0,0.0,0.0,nan,nan,338.512055932,824.035548277,824.303502597,824.535589046,nan,nan
0,353,5140,6,1,419,294,0.107894673663,0.454841969249,-0.678098861371,1,1.0,1.0,0.339745943435,0,0.0,0.0,0.313239068414,0.380461246506,0.101209087308,0.481670333815,0.279252159198,nan,nan,0.0,0.0,0.0,nan,nan,338.512055932,825.035665452,825.375411396,825.535696813,nan,nan
0,354,5141,6,1,326,229,-0.12383419111,0.444071765824,0.352223541474,1,1.0,1.0,0.323586883955,0,0.0,0.0,0.310429049035,0.380344917069,0.101087762351,0.48143267942,0.279257154718,nan,nan,0.0,0.0,0.0,nan,nan,338.512055932,826.035814558,826.359401442,826.535832235,nan,nan
0,355,5142,6,1,207,145,0.985653507947,0.0195431921708,0.51699622314,1,1.0,1.0,0.315441924147,0,0.0,0.0,0.326258250512,0.380183213271,0.100988981238,0.481172194509,0.279194232033,nan,nan,0.0,0.0,0.0,nan,nan,338.512055932,827.035928883,827.351370807,827.535943137,nan,nan
0,356,5143,6,0,360,253,-0.167709501072,0.475188317955,0.0381258551808,0,0.0,1.0,0.443304591812,0,0.0,0.0,0.360777799971,0.379999289154,0.100904282352,0.480903571506,0.279095006802,nan,nan,0.0,0.0,0.0,nan,nan,338.512055932,828.036067725,828.479372317,828.536095095,nan,nan
0,357,5144,6,1,67,47,1.0,-0.12380466598,-1.0,1,1.0,1.0,0.299249793403,0,0.0,0.0,0.352665436454,0.380178624289,0.100817417301,0.48099604159,0.279361206988,nan,nan,0.0,0.0,0.0,nan,nan,338.512055932,829.036163803,829.335413597,829.536211129,nan,nan
0,358,5145,6,1,490,344,0.664660387652,0.296157848571,-1.0,1,1.0,1.0,0.363036724739,0,0.0,0.0,0.368530369985,0.379950011773,0.100766504447,0.48071651622,0.279183507325,nan,nan,0.0,0.0,0.0,nan,nan,338.512055932,830.036304642,830.399341366,830.536322317,nan,nan
0,359,5146,6,1,435,305,0.221263830514,0.433027056876,-1.0,1,1.0,1.0,0.370882902294,0,0.0,0.0,0.344389806812,0.37990236871,0.100628472347,0.480530841057,0.279273896364,nan,nan,0.0,0.0,0.0,nan,nan,338.512055932,831.036429229,831.407312131,831.536453747,nan,nan
0,360,5147,6,1,145,101,1.0,-0.281667413287,0.0150551701241,1,0.0,0.0,0.418753677979,0,0.0,0.0,0.384224435004,0.379877033131,0.100488174662,0.480365207793,0.279388858469,nan,nan,0.0,0.0,0.0,nan,nan,338.512055932,832.036546404,832.455300082,832.536574344,nan,nan
0,361,5148,6,0,405,284,0.018463324075,0.468009379796,-0.476293327428,0,1.0,0.0,0.330595443957,0,0.0,0.0,0.373410674743,0.379985931296,0.10036836964,0.480354300935,0.279617561656,nan,nan,0.0,0.0,0.0,nan,nan,338.512055932,833.03670891,833.367304354,833.536744262,nan,nan
0,362,5149,6,1,75,52,1.0,-0.164714458691,-0.791355921409,1,1.0,1.0,0.402452924289,0,0.0,0.0,0.383934015408,0.37984796904,0.100261984224,0.480109953264,0.279585984816,nan,nan,0.0,0.0,0.0,nan,nan,338.512055932,834.036818388,834.439271312,834.53686828,nan,nan
0,363,5150,6,1,302,212,0.027086081288,0.400300843718,0.517770016443,1,1.0,1.0,0.578274177387,0,0.0,0.0,0.437107515211,0.37991093549,0.100129334228,0.480040269717,0.279781601262,nan,nan,0.0,0.0,0.0,nan,nan,338.512055932,835.036962077,835.615236254,835.537008548,nan,nan
0,364,5151,6,1,430,302,0.184725017221,0.440645728776,-0.941904167281,1,1.0,1.0,0.338189879432,0,0.0,0.0,0.439638993703,0.380461944495,0.100533726769,0.480995671264,0.279928217726,nan,nan,0.0,0.0,0.0,nan,nan,338.512055932,836.0370573,836.37524718,836.537095218,nan,nan
0,365,5152,6,1,228,160,0.780729811514,0.1302769546,0.611433142569,1,1.0,1.0,0.290008062497,0,0.0,0.0,0.402157373105,0.380344847362,0.100418967981,0.480763815342,0.279925879381,nan,nan,0.0,0.0,0.0,nan,nan,338.512055932,837.037197568,837.32720563,837.537225507,nan,nan
0,366,5153,6,1,487,342,0.639529740128,0.306295026098,-1.0,1,1.0,1.0,0.313868469559,0,0.0,0.0,0.314022137163,0.380095298232,0.100392201157,0.48048749939,0.279703097075,nan,nan,0.0,0.0,0.0,nan,nan,338.512055932,838.037311037,838.351179507,838.537355512,nan,nan
0,367,5154,6,1,314,220,-0.0594438881467,0.42463230952,0.441925406839,1,1.0,1.0,0.241765804589,0,0.0,0.0,0.281880778881,0.379912855178,0.100313900685,0.480226755863,0.279598954493,nan,nan,0.0,0.0,0.0,nan,nan,338.512055932,839.037462709,839.279228513,839.537500626,nan,nan
0,368,5155,6,1,197,138,1.0,-0.035797595552,0.455774741445,1,1.0,1.0,0.233632818796,0,0.0,0.0,0.263089030981,0.379533330314,0.100436644713,0.479969975027,0.279096685601,nan,nan,0.0,0.0,0.0,nan,nan,338.512055932,840.037585586,840.271218405,840.537613525,nan,nan
0,369,5156,6,1,500,351,0.748145934353,0.260058294274,-1.0,1,1.0,1.0,0.217442113906,0,0.0,0.0,0.23094691243,0.379133602885,0.100588484507,0.479722087392,0.278545118378,nan,nan,0.0,0.0,0.0,nan,nan,338.512055932,841.037689647,841.255131761,841.537732126,nan,nan
0,370,5157,6,0,195,137,1.0,-0.0469245268387,0.442396054288,0,1.0,0.0,0.249325458892,0,0.0,0.0,0.233466797198,0.37869182286,0.100804936333,0.479496759193,0.277886886528,nan,nan,0.0,0.0,0.0,nan,nan,338.512055932,842.037854148,842.287179607,842.537893777,nan,nan
0,371,5158,6,1,285,200,0.178734351563,0.356878681702,0.598527012995,1,1.0,1.0,0.225234122947,0,0.0,0.0,0.230667231915,0.378339325956,0.100893130582,0.479232456537,0.277446195374,nan,nan,0.0,0.0,0.0,nan,nan,338.512055932,843.03796277,843.263196893,843.537988429,nan,nan
0,372,5159,6,1,44,30,1.0,-0.00106984144607,-1.0,1,1.0,1.0,0.280999541283,0,0.0,0.0,0.25185304104,0.377923279209,0.101070708653,0.478993987862,0.276852570555,nan,nan,0.0,0.0,0.0,nan,nan,338.512055932,844.038089069,844.31908861,844.538119004,nan,nan
0,373,5200,6,1,461,324,0.423959648591,0.380927367285,-1.0,1,1.0,1.0,0.320867050439,0,0.0,0.0,0.275700238223,0.377660613252,0.101059358858,0.47871997211,0.276601254394,nan,nan,0.0,0.0,0.0,nan,nan,338.512055932,845.038198547,845.359065597,845.538275808,nan,nan
0,374,5201,6,1,379,266,-0.113535935895,0.478614986251,-0.165970515924,1,1.0,1.0,0.33672048524,0,0.0,0.0,0.312862358987,0.377507117136,0.100965763289,0.478472880426,0.276541353847,nan,nan,0.0,0.0,0.0,nan,nan,338.512055932,846.038332257,846.375052743,846.538368464,nan,nan
0,375,5202,6,1,133,93,1.0,-0.306259573676,-0.105336427414,1,1.0,1.0,0.50459292531,0,0.0,0.0,0.387393486996,0.377397180123,0.100851771982,0.478248952105,0.276545408141,nan,nan,0.0,0.0,0.0,nan,nan,338.512055932,847.038473381,847.543066306,847.538539808,nan,nan
0,376,5203,6,1,298,209,0.0600896634305,0.391050340636,0.53969689008,1,1.0,1.0,0.368436193094,0,0.0,0.0,0.403249867881,0.377739104169,0.100931227432,0.478670331602,0.276807876737,nan,nan,0.0,0.0,0.0,nan,nan,338.512055932,848.038586564,848.407022757,848.538629899,nan,nan
0,377,5204,6,1,374,262,-0.132039125116,0.478634076427,-0.110628443238,1,1.0,1.0,0.335938747041,0,0.0,0.0,0.402989288482,0.377714163389,0.100796987935,0.478511151324,0.276917175454,nan,nan,0.0,0.0,0.0,nan,nan,338.512055932,849.047067084,849.383005831,849.547087897,nan,nan
0,378,5205,6,1,313,220,-0.0530221528698,0.42279583272,0.448797959603,1,1.0,1.0,0.247818146832,0,0.0,0.0,0.317397695656,0.377602464415,0.100685255665,0.47828772008,0.27691720875,nan,nan,0.0,0.0,0.0,nan,nan,338.512055932,850.047185115,850.295003261,850.547241849,nan,nan
0,379,5206,6,1,389,273,-0.0691208065164,0.476626077068,-0.280234315682,1,1.0,1.0,0.359648052603,0,0.0,0.0,0.314468315492,0.377256372901,0.100773432964,0.478029805865,0.276482939938,nan,nan,0.0,0.0,0.0,nan,nan,338.512055932,851.047314834,851.406962886,851.547347335,nan,nan
0,380,5207,6,1,29,20,1.0,0.0770173926463,-1.0,1,1.0,1.0,0.351502237841,0,0.0,0.0,0.319656145759,0.377209542262,0.100643422393,0.477852964655,0.276566119869,nan,nan,0.0,0.0,0.0,nan,nan,338.512055932,852.047448545,852.398950783,852.547475914,nan,nan
0,381,5208,6,0,283,198,0.19826868328,0.351050922538,0.605825948857,0,0.0,1.0,0.502905146219,0,0.0,0.0,0.404685145554,0.377141353126,0.100518551247,0.477659904373,0.276622801879,nan,nan,0.0,0.0,0.0,nan,nan,338.512055932,853.056014595,853.558919741,853.555974681,nan,nan
0,382,5209,6,1,229,161,0.770397026975,0.135265939772,0.614681466938,1,1.0,1.0,0.310886346735,0,0.0,0.0,0.388431243598,0.377474061573,0.100593146003,0.478067207576,0.276880915571,nan,nan,0.0,0.0,0.0,nan,nan,338.512055932,854.056018585,854.366904932,854.556060495,nan,nan
0,383,5210,6,1,327,229,-0.128086156831,0.445480682368,0.344176439252,1,1.0,1.0,0.342730062082,0,0.0,0.0,0.385507185012,0.377298368394,0.100518406292,0.477816774686,0.276779962102,nan,nan,0.0,0.0,0.0,nan,nan,338.512055932,855.056150871,855.398880933,855.556191355,nan,nan
0,384,5211,6,1,24,16,1.0,0.102019060141,-1.0,1,1.0,1.0,0.350605320185,0,0.0,0.0,0.334740576334,0.377207399167,0.100401678463,0.47760907763,0.276805720704,nan,nan,0.0,0.0,0.0,nan,nan,338.512055932,856.056288003,856.406893323,856.55633704,nan,nan
0,385,5212,6,1,232,163,0.739158239773,0.150046616059,0.623712016981,1,1.0,1.0,0.350400334224,0,0.0,0.0,0.347911905497,0.377137577437,0.100279068448,0.477416645885,0.27685850899,nan,nan,0.0,0.0,0.0,nan,nan,338.512055932,857.056440245,857.40684058,857.556448513,nan,nan
