block,trial,freq_trials,correct_response,actual_response,acc,rts,probe_trials,fast_rt_trigger,slow_rt_trigger,rt_triggered,rts_runningavg,rts_runningstd,rts_runningfastthresh,rts_runningslowthresh,rts_runningstd,rts_trailingavg,trials_colorind,trials_colorrgb0,trials_colorrgb1,trials_colorrgb2,wm_respdeg,wm_respdeg_in_colorspace,wm_respcolorminusorigcolor,wm_resptexind,wm_resptexrgb0,wm_resptexrgb1,wm_resptexrgb2,wm_rts,time_blockstart,time_encarray_offset,time_encarray_onset,time_response,time_iti_offset,time_iti_onset,time_memprobe_offset,time_memprobe_onset
1,1,1,1,1.0,1.0,0.410876108799,0,nan,nan,nan,nan,nan,nan,nan,nan,nan,457,0.391639248186,0.390358177281,-1.0,nan,nan,nan,nan,0.0,0.0,0.0,nan,125.853164206,126.866269831,127.366336543,127.277145939,nan,nan,nan,nan
1,2,1,1,1.0,1.0,0.257686927915,0,nan,nan,nan,nan,nan,nan,nan,nan,nan,243,0.622151010882,0.20168048164,0.647463484622,nan,nan,nan,nan,0.0,0.0,0.0,nan,125.853164206,127.891427361,128.391443326,128.149114289,nan,nan,nan,nan
1,3,1,1,1.0,1.0,0.273216732778,0,nan,nan,nan,nan,nan,nan,nan,nan,nan,425,0.149162615564,0.447529597292,-0.791715667876,nan,nan,nan,nan,0.0,0.0,0.0,nan,125.853164206,128.899878206,129.39993152,129.173094939,nan,nan,nan,nan
1,4,1,1,1.0,1.0,0.281047206838,1,nan,nan,nan,nan,nan,nan,nan,nan,nan,91,1.0,-0.237709898716,-0.562722318432,20.7971622792,69.2028377208,5.21846272084,98.0,1.0,-0.263822910468,-0.480217789416,2.83396605868,125.853164206,129.900018189,130.400061239,130.181065396,134.575556695,135.575098829,131.725219795,134.567224164
1,5,1,1,1.0,1.0,0.357186354697,0,nan,nan,nan,nan,nan,nan,nan,nan,nan,256,0.481312611765,0.257047908656,0.656065722404,nan,nan,nan,nan,0.0,0.0,0.0,nan,125.853164206,135.775745543,136.275805128,136.132931897,nan,nan,nan,nan
1,6,1,1,1.0,1.0,0.285071066115,0,nan,nan,nan,nan,nan,nan,nan,nan,nan,53,1.0,-0.049257555853,-1.0,nan,nan,nan,nan,0.0,0.0,0.0,nan,125.853164206,136.775885526,137.275925154,137.060956592,nan,nan,nan,nan
1,7,1,1,1.0,1.0,0.364899084438,0,nan,nan,nan,nan,nan,nan,nan,nan,nan,136,1.0,-0.301914900238,-0.074841205769,nan,nan,nan,nan,0.0,0.0,0.0,nan,125.853164206,137.776018951,138.276048031,138.140918035,nan,nan,nan,nan
1,8,1,1,1.0,1.0,0.260793345049,0,nan,nan,nan,nan,nan,nan,nan,nan,nan,387,-0.0787219327085,0.477231755363,-0.256974454483,nan,nan,nan,nan,0.0,0.0,0.0,nan,125.853164206,138.776150951,139.276170623,139.036944296,nan,nan,nan,nan
1,9,1,1,1.0,1.0,0.236642207019,0,nan,nan,nan,nan,nan,nan,nan,nan,nan,440,0.258699398066,0.424657399123,-1.0,nan,nan,nan,nan,0.0,0.0,0.0,nan,125.853164206,139.776288653,140.276302337,140.01293086,nan,nan,nan,nan
1,10,0,0,1.0,0.0,0.228422860615,0,0.0,0.0,0.0,nan,nan,nan,nan,nan,nan,501,0.7564492333,0.256253544744,-1.0,nan,nan,nan,nan,0.0,0.0,0.0,nan,125.853164206,140.776434907,141.276461136,141.004857768,nan,nan,nan,nan
1,11,1,1,1.0,1.0,0.236296099611,0,nan,nan,nan,nan,nan,nan,nan,nan,nan,432,0.199227897075,0.437687328843,-1.0,nan,nan,nan,nan,0.0,0.0,0.0,nan,125.853164206,141.776543244,142.276561205,142.012839344,nan,nan,nan,nan
1,12,1,1,1.0,1.0,0.252127536107,0,nan,nan,nan,nan,nan,nan,nan,nan,nan,386,-0.0833946583454,0.477495592553,-0.245424736514,nan,nan,nan,nan,0.0,0.0,0.0,nan,125.853164206,142.776686078,143.276690354,143.028813614,nan,nan,nan,nan
1,13,1,1,1.0,1.0,0.235960825346,0,nan,nan,nan,nan,nan,nan,nan,nan,nan,158,1.0,-0.235949227405,0.139764106,nan,nan,nan,nan,0.0,0.0,0.0,nan,125.853164206,143.776808099,144.276826631,144.012768925,nan,nan,nan,nan
1,14,1,1,1.0,1.0,0.259826296009,0,nan,nan,nan,nan,nan,nan,nan,nan,nan,79,1.0,-0.184296021705,-0.724170777997,nan,nan,nan,nan,0.0,0.0,0.0,nan,125.853164206,144.776936678,145.276958916,145.036762974,nan,nan,nan,nan
1,15,1,1,1.0,1.0,0.26768756099,0,nan,nan,nan,nan,nan,nan,nan,nan,nan,475,0.539218753276,0.343659807328,-1.0,nan,nan,nan,nan,0.0,0.0,0.0,nan,125.853164206,145.777079512,146.277088635,146.044767073,nan,nan,nan,nan
1,16,1,1,1.0,1.0,0.259575981181,1,nan,nan,nan,nan,nan,nan,nan,nan,nan,347,-0.174938837379,0.46723881498,0.167157479366,-159.685835262,249.685835262,5.70146026226,355.0,-0.173737462994,0.472683863687,0.0888799762457,3.61743231351,125.853164206,146.77719127,147.277216358,147.036767251,152.236182631,153.235734173,148.602378051,152.227850956
1,17,1,1,1.0,1.0,0.351901796646,0,nan,nan,nan,nan,nan,nan,nan,nan,nan,403,0.00657627305109,0.469456436931,-0.450524507496,nan,nan,nan,nan,0.0,0.0,0.0,nan,125.853164206,153.444700588,153.944754472,153.796602385,nan,nan,nan,nan
1,18,1,1,1.0,1.0,0.247760420199,0,nan,nan,nan,nan,nan,nan,nan,nan,nan,254,0.503011129055,0.248947817922,0.65613358125,nan,nan,nan,nan,0.0,0.0,0.0,nan,125.853164206,154.44483829,154.944875068,154.69259871,nan,nan,nan,nan
1,19,1,1,1.0,1.0,0.247589076869,0,nan,nan,nan,nan,nan,nan,nan,nan,nan,20,1.0,0.121558187834,-1.0,nan,nan,nan,nan,0.0,0.0,0.0,nan,125.853164206,155.444979983,155.945006212,155.69256906,nan,nan,nan,nan
1,20,1,1,1.0,1.0,0.239448131993,0,nan,nan,nan,nan,nan,nan,nan,nan,nan,133,1.0,-0.306259573676,-0.105336427414,nan,nan,nan,nan,0.0,0.0,0.0,nan,125.853164206,156.445114264,156.945153607,156.684562396,nan,nan,nan,nan
1,21,0,0,1.0,0.0,0.199264278635,0,0.0,0.0,0.0,nan,nan,nan,nan,nan,nan,390,-0.0641960347588,0.476284203309,-0.291947553613,nan,nan,nan,nan,0.0,0.0,0.0,nan,125.853164206,157.44526508,157.945300717,157.644529359,nan,nan,nan,nan
1,22,1,1,1.0,1.0,0.175197529607,1,nan,nan,nan,nan,nan,nan,nan,nan,nan,34,1.0,0.0514419701458,-1.0,60.3191005631,29.6808994369,5.77464943687,42.0,1.0,0.00954878589686,-1.0,2.45072468789,125.853164206,158.445362583,158.945423594,158.620560113,162.737548531,163.737109196,160.27056362,162.729222558
1,23,0,0,0.0,1.0,0.500202133786,0,nan,nan,nan,nan,nan,nan,nan,nan,nan,238,0.675741828754,0.178727669763,0.638511091232,nan,nan,nan,nan,0.0,0.0,0.0,nan,125.853164206,163.937768454,164.437812359,164.437970588,nan,nan,nan,nan
1,24,1,1,1.0,1.0,0.266480460297,0,nan,nan,nan,nan,nan,nan,nan,nan,nan,371,-0.14179360683,0.478331938097,-0.0779732583494,nan,nan,nan,nan,0.0,0.0,0.0,nan,125.853164206,164.93787394,165.437901595,165.204354401,nan,nan,nan,nan
1,25,1,1,1.0,1.0,0.354342511855,0,nan,nan,nan,nan,nan,nan,nan,nan,nan,68,1.0,-0.129018143495,-0.972903198114,nan,nan,nan,nan,0.0,0.0,0.0,nan,125.853164206,165.93800651,166.438029318,166.292349022,nan,nan,nan,nan
1,26,1,1,1.0,1.0,0.257849718444,0,nan,nan,nan,nan,nan,nan,nan,nan,nan,362,-0.164239727892,0.476000155386,0.0174578511848,nan,nan,nan,nan,0.0,0.0,0.0,nan,125.853164206,166.946457926,167.446494989,167.204307645,nan,nan,nan,nan
1,27,1,1,1.0,1.0,0.257377312984,0,nan,nan,nan,nan,nan,nan,nan,nan,nan,105,1.0,-0.285049837405,-0.401580786678,nan,nan,nan,nan,0.0,0.0,0.0,nan,125.853164206,167.95491761,168.454961515,168.212294923,nan,nan,nan,nan
1,28,1,1,1.0,1.0,0.240845392458,0,nan,nan,nan,nan,nan,nan,nan,nan,nan,42,1.0,0.00954878589686,-1.0,nan,nan,nan,nan,0.0,0.0,0.0,nan,125.853164206,168.963449993,169.46342519,169.204295386,nan,nan,nan,nan
1,29,1,1,1.0,1.0,0.240397790447,0,nan,nan,nan,nan,nan,nan,nan,nan,nan,217,0.891250405156,0.0735373331823,0.568048345461,nan,nan,nan,nan,0.0,0.0,0.0,nan,125.853164206,169.971846385,170.471888864,170.212244175,nan,nan,nan,nan
1,30,1,1,1.0,1.0,0.207957456354,0,nan,nan,nan,nan,nan,nan,nan,nan,nan,347,-0.174938837379,0.46723881498,0.167157479366,nan,nan,nan,nan,0.0,0.0,0.0,nan,125.853164206,170.980313481,171.480380479,171.188270938,nan,nan,nan,nan
1,31,1,1,1.0,1.0,0.2474374054,0,nan,nan,nan,nan,nan,nan,nan,nan,nan,90,1.0,-0.233635786423,-0.574971871003,nan,nan,nan,nan,0.0,0.0,0.0,nan,125.853164206,171.988788275,172.4888624,172.23622568,nan,nan,nan,nan
1,32,1,1,1.0,1.0,0.238967458252,0,nan,nan,nan,nan,nan,nan,nan,nan,nan,437,0.23613482661,0.429770237144,-1.0,nan,nan,nan,nan,0.0,0.0,0.0,nan,125.853164206,172.997248244,173.497310965,173.236215702,nan,nan,nan,nan
1,33,1,1,1.0,1.0,0.174483361654,0,nan,nan,nan,nan,nan,nan,nan,nan,nan,300,0.0433537089178,0.395748422077,0.528951029102,nan,nan,nan,nan,0.0,0.0,0.0,nan,125.853164206,174.00571762,174.50577692,174.180200982,nan,nan,nan,nan
1,34,1,1,1.0,1.0,0.18197941687,1,nan,nan,nan,nan,nan,nan,nan,nan,nan,347,-0.174938837379,0.46723881498,0.167157479366,-151.166994287,241.166994287,-2.81738071298,343.0,-0.171388175652,0.463836419185,0.204822810802,2.70067351311,125.853164206,175.014172743,175.514236889,175.196152159,179.556409579,180.555714798,176.839385753,179.548090449
1,35,0,0,0.0,1.0,0.487433779053,0,nan,nan,nan,nan,nan,nan,nan,nan,nan,70,1.0,-0.13936984996,-0.906436913284,nan,nan,nan,nan,0.0,0.0,0.0,nan,125.853164206,180.756610402,181.256650886,181.244044181,nan,nan,nan,nan
1,36,1,1,1.0,1.0,0.238961756695,0,nan,nan,nan,nan,nan,nan,nan,nan,nan,25,1.0,0.0970682892709,-1.0,nan,nan,nan,nan,0.0,0.0,0.0,nan,125.853164206,181.765041005,182.265086336,182.004002762,nan,nan,nan,nan
1,37,1,1,1.0,1.0,0.230509770568,0,nan,nan,nan,nan,nan,nan,nan,nan,nan,254,0.503011129055,0.248947817922,0.65613358125,nan,nan,nan,nan,0.0,0.0,0.0,nan,125.853164206,182.773501544,183.273544879,183.004011315,nan,nan,nan,nan
1,38,1,1,1.0,1.0,0.22199876979,0,nan,nan,nan,nan,nan,nan,nan,nan,nan,327,-0.128086156831,0.445480682368,0.344176439252,nan,nan,nan,nan,0.0,0.0,0.0,nan,125.853164206,183.781970921,184.282046472,184.003969691,nan,nan,nan,nan
1,39,1,1,1.0,1.0,0.229447783902,0,nan,nan,nan,nan,nan,nan,nan,nan,nan,161,1.0,-0.223158351501,0.167490545043,nan,nan,nan,nan,0.0,0.0,0.0,nan,125.853164206,184.790500739,185.290513283,185.019948523,nan,nan,nan,nan
1,40,1,1,1.0,1.0,0.245383851696,0,nan,nan,nan,nan,nan,nan,nan,nan,nan,493,0.689769084006,0.285700779988,-1.0,nan,nan,nan,nan,0.0,0.0,0.0,nan,125.853164206,185.790581136,186.290637015,186.035964988,nan,nan,nan,nan
1,41,1,1,1.0,1.0,0.22087035561,0,nan,nan,nan,nan,nan,nan,nan,nan,nan,301,0.0351599448551,0.39804275895,0.523414514543,nan,nan,nan,nan,0.0,0.0,0.0,nan,125.853164206,186.799032267,187.299110953,187.019902622,nan,nan,nan,nan
1,42,1,1,1.0,1.0,0.220726096537,0,nan,nan,nan,nan,nan,nan,nan,nan,nan,82,1.0,-0.198479155091,-0.679872484948,nan,nan,nan,nan,0.0,0.0,0.0,nan,125.853164206,187.799167118,188.299234115,188.019893214,nan,nan,nan,nan
1,43,1,1,1.0,1.0,0.196263347287,0,nan,nan,nan,nan,nan,nan,nan,nan,nan,250,0.546428449327,0.232286661223,0.654747725831,nan,nan,nan,nan,0.0,0.0,0.0,nan,125.853164206,188.807629937,189.307694084,189.003893285,nan,nan,nan,nan
1,44,1,1,1.0,1.0,0.196120514069,0,nan,nan,nan,nan,nan,nan,nan,nan,nan,419,0.107894673663,0.454841969249,-0.678098861371,nan,nan,nan,nan,0.0,0.0,0.0,nan,125.853164206,189.807755094,190.307830931,190.003875609,nan,nan,nan,nan
1,45,1,1,1.0,1.0,0.21163121704,0,nan,nan,nan,nan,nan,nan,nan,nan,nan,144,1.0,-0.284423189345,0.00519445478499,nan,nan,nan,nan,0.0,0.0,0.0,nan,125.853164206,190.81622048,191.31629261,191.027851697,nan,nan,nan,nan
1,46,1,1,1.0,1.0,0.195145767182,0,nan,nan,nan,nan,nan,nan,nan,nan,nan,345,-0.173519535469,0.465595146217,0.186119282857,nan,nan,nan,nan,0.0,0.0,0.0,nan,125.853164206,191.824673037,192.324758566,192.019818804,nan,nan,nan,nan
1,47,1,1,1.0,1.0,0.442623086739,0,nan,nan,nan,nan,nan,nan,nan,nan,nan,454,0.367627362238,0.397084843583,-1.0,nan,nan,nan,nan,0.0,0.0,0.0,nan,125.853164206,192.833167787,193.333181472,193.275790873,nan,nan,nan,nan
1,48,1,1,1.0,1.0,0.266111259814,0,nan,nan,nan,nan,nan,nan,nan,nan,nan,60,1.0,-0.0867837676833,-1.0,nan,nan,nan,nan,0.0,0.0,0.0,nan,125.853164206,193.841678218,194.341652274,194.107789477,nan,nan,nan,nan
1,49,1,1,1.0,1.0,0.217995152343,0,nan,nan,nan,nan,nan,nan,nan,nan,nan,389,-0.0691208065164,0.476626077068,-0.280234315682,nan,nan,nan,nan,0.0,0.0,0.0,nan,125.853164206,194.841740939,195.341783989,195.059736091,nan,nan,nan,nan
1,50,1,1,1.0,1.0,0.241524493322,0,nan,nan,nan,nan,nan,nan,nan,nan,nan,99,1.0,-0.267176270739,-0.468793303331,nan,nan,nan,nan,0.0,0.0,0.0,nan,125.853164206,195.85020661,196.350244243,196.091731103,nan,nan,nan,nan
1,51,1,1,1.0,1.0,0.217347411904,0,nan,nan,nan,nan,nan,nan,nan,nan,nan,270,0.331159066004,0.309369715406,0.641393874915,nan,nan,nan,nan,0.0,0.0,0.0,nan,125.853164206,196.850356285,197.350388502,197.067703697,nan,nan,nan,nan
1,52,1,1,1.0,1.0,0.217219687998,0,nan,nan,nan,nan,nan,nan,nan,nan,nan,401,-0.00506340639596,0.470796889516,-0.425203102762,nan,nan,nan,nan,0.0,0.0,0.0,nan,125.853164206,197.85048686,198.350511664,198.067706548,nan,nan,nan,nan
1,53,0,0,1.0,0.0,0.241030420177,0,0.0,0.0,0.0,nan,nan,nan,nan,nan,nan,170,1.0,-0.180990482069,0.247815061387,nan,nan,nan,nan,0.0,0.0,0.0,nan,125.853164206,198.850634825,199.350664475,199.091665246,nan,nan,nan,nan
1,54,1,1,1.0,1.0,0.232586131897,0,nan,nan,nan,nan,nan,nan,nan,nan,nan,267,0.362924526182,0.298807232282,0.646622522267,nan,nan,nan,nan,0.0,0.0,0.0,nan,125.853164206,199.859076833,200.35909736,200.091662965,nan,nan,nan,nan
1,55,1,1,1.0,1.0,0.240436848253,0,nan,nan,nan,nan,nan,nan,nan,nan,nan,484,0.614398947124,0.316112737715,-1.0,nan,nan,nan,nan,0.0,0.0,0.0,nan,125.853164206,200.859201991,201.359225654,201.099638839,nan,nan,nan,nan
1,56,1,1,1.0,1.0,0.288246191572,0,nan,nan,nan,nan,nan,nan,nan,nan,nan,261,0.427225806086,0.276617811781,0.653674462902,nan,nan,nan,nan,0.0,0.0,0.0,nan,125.853164206,201.859345109,202.359354232,202.147591301,nan,nan,nan,nan
1,57,1,1,1.0,1.0,0.271825458854,0,nan,nan,nan,nan,nan,nan,nan,nan,nan,140,1.0,-0.294209249228,-0.0345777392028,nan,nan,nan,nan,0.0,0.0,0.0,nan,125.853164206,202.867785121,203.367848983,203.13961058,nan,nan,nan,nan
1,58,1,1,1.0,1.0,0.271336802747,0,nan,nan,nan,nan,nan,nan,nan,nan,nan,187,1.0,-0.0912463489427,0.385383214542,nan,nan,nan,nan,0.0,0.0,0.0,nan,125.853164206,203.876243949,204.376308096,204.147580752,nan,nan,nan,nan
1,59,1,1,1.0,1.0,0.279107692186,0,nan,nan,nan,nan,nan,nan,nan,nan,nan,308,-0.0186828559465,0.413097475488,0.481682330771,nan,nan,nan,nan,0.0,0.0,0.0,nan,125.853164206,204.876426126,205.376428407,205.155533819,nan,nan,nan,nan
1,60,1,1,1.0,1.0,0.271003809292,0,nan,nan,nan,nan,nan,nan,nan,nan,nan,254,0.503011129055,0.248947817922,0.65613358125,nan,nan,nan,nan,0.0,0.0,0.0,nan,125.853164206,205.876513366,206.376544157,206.147517175,nan,nan,nan,nan
1,61,1,1,1.0,1.0,0.206503462046,0,nan,nan,nan,nan,nan,nan,nan,nan,nan,346,-0.174317561957,0.466431294057,0.176670174816,nan,nan,nan,nan,0.0,0.0,0.0,nan,125.853164206,206.884983028,207.385011823,207.09148649,nan,nan,nan,nan
1,62,1,1,1.0,1.0,0.190022003837,0,nan,nan,nan,nan,nan,nan,nan,nan,nan,159,1.0,-0.231765974528,0.149055008463,nan,nan,nan,nan,0.0,0.0,0.0,nan,125.853164206,207.893447558,208.393475783,208.083469562,nan,nan,nan,nan
1,63,1,1,1.0,1.0,0.213539371267,0,nan,nan,nan,nan,nan,nan,nan,nan,nan,72,1.0,-0.149607777062,-0.853203742106,nan,nan,nan,nan,0.0,0.0,0.0,nan,125.853164206,208.90190154,209.401936607,209.115440911,nan,nan,nan,nan
1,64,1,1,1.0,1.0,0.277369740419,0,nan,nan,nan,nan,nan,nan,nan,nan,nan,366,-0.155593376329,0.477302029306,-0.0244766492797,nan,nan,nan,nan,0.0,0.0,0.0,nan,125.853164206,209.902044089,210.402069747,210.179413829,nan,nan,nan,nan
1,65,1,1,1.0,1.0,0.324969252106,0,nan,nan,nan,nan,nan,nan,nan,nan,nan,220,0.861731547614,0.0893272636146,0.581247684387,nan,nan,nan,nan,0.0,0.0,0.0,nan,125.853164206,210.910500066,211.410539124,211.235469318,nan,nan,nan,nan
1,66,1,1,1.0,1.0,0.268747551832,0,nan,nan,nan,nan,nan,nan,nan,nan,nan,315,-0.0657111424032,0.426434809442,0.434956515233,nan,nan,nan,nan,0.0,0.0,0.0,nan,125.853164206,211.91065915,212.410661716,212.179406702,nan,nan,nan,nan
1,67,0,0,0.0,1.0,0.428593177348,0,nan,nan,nan,nan,nan,nan,nan,nan,nan,389,-0.0691208065164,0.476626077068,-0.280234315682,nan,nan,nan,nan,0.0,0.0,0.0,nan,125.853164206,212.910764921,213.410823366,213.339358098,nan,nan,nan,nan
1,68,1,1,1.0,1.0,0.20414371416,0,nan,nan,nan,nan,nan,nan,nan,nan,nan,52,1.0,-0.0438860552364,-1.0,nan,nan,nan,nan,0.0,0.0,0.0,nan,125.853164206,213.919231161,214.41925511,214.123374876,nan,nan,nan,nan
1,69,1,1,1.0,1.0,0.219969164114,0,nan,nan,nan,nan,nan,nan,nan,nan,nan,295,0.0860222946478,0.38372732295,0.554986075565,nan,nan,nan,nan,0.0,0.0,0.0,nan,125.853164206,214.919365727,215.419391956,215.139334891,nan,nan,nan,nan
1,70,1,1,1.0,1.0,0.251850137021,0,nan,nan,nan,nan,nan,nan,nan,nan,nan,172,1.0,-0.170984061773,0.265024678188,nan,nan,nan,nan,0.0,0.0,0.0,nan,125.853164206,215.919504284,216.419529658,216.171354421,nan,nan,nan,nan
1,71,1,1,1.0,1.0,0.235652920324,0,nan,nan,nan,nan,nan,nan,nan,nan,nan,387,-0.0787219327085,0.477231755363,-0.256974454483,nan,nan,nan,nan,0.0,0.0,0.0,nan,125.853164206,216.919626591,217.419644552,217.155279512,nan,nan,nan,nan
1,72,1,1,1.0,1.0,0.283176881727,0,nan,nan,nan,nan,nan,nan,nan,nan,nan,157,1.0,-0.240048375319,0.130425901556,nan,nan,nan,nan,0.0,0.0,0.0,nan,125.853164206,217.928085134,218.428114214,218.211262016,nan,nan,nan,nan
1,73,0,0,0.0,1.0,0.443230628036,0,nan,nan,nan,nan,nan,nan,nan,nan,nan,395,-0.0383984177995,0.474183508328,-0.351427224487,nan,nan,nan,nan,0.0,0.0,0.0,nan,125.853164206,218.928237376,219.428264461,219.371468004,nan,nan,nan,nan
1,74,1,1,1.0,1.0,0.0745702590793,0,nan,nan,nan,nan,nan,nan,nan,nan,nan,305,0.00361192545304,0.406859252708,0.500196907155,nan,nan,nan,nan,0.0,0.0,0.0,nan,125.853164206,219.936666554,220.436730701,220.011236813,nan,nan,nan,nan
1,75,1,1,1.0,1.0,0.184668737464,0,nan,nan,nan,nan,nan,nan,nan,nan,nan,477,0.555879874869,0.337784025865,-1.0,nan,nan,nan,nan,0.0,0.0,0.0,nan,125.853164206,220.978530199,221.478507962,221.163198937,nan,nan,nan,nan
1,76,1,1,1.0,1.0,0.112720800564,0,nan,nan,nan,nan,nan,nan,nan,nan,nan,97,1.0,-0.260369742894,-0.491718830742,nan,nan,nan,nan,0.0,0.0,0.0,nan,125.853164206,221.978594631,222.478643953,222.091315432,nan,nan,nan,nan
1,77,1,1,1.0,1.0,0.152421129402,0,nan,nan,nan,nan,nan,nan,nan,nan,nan,368,-0.150457169737,0.477793263397,-0.0457341785459,nan,nan,nan,nan,0.0,0.0,0.0,nan,125.853164206,222.978738035,223.478765975,223.131159164,nan,nan,nan,nan
1,78,0,0,1.0,0.0,0.200272666756,0,0.0,0.0,0.0,nan,nan,nan,nan,nan,nan,457,0.391639248186,0.390358177281,-1.0,nan,nan,nan,nan,0.0,0.0,0.0,nan,125.853164206,223.978889422,224.478924774,224.179162088,nan,nan,nan,nan
1,79,1,1,1.0,1.0,0.134458021726,0,nan,nan,nan,nan,nan,nan,nan,nan,nan,13,0.950262168777,0.154664060346,-1.0,nan,nan,nan,nan,0.0,0.0,0.0,nan,125.853164206,225.02069006,225.520744799,225.155148082,nan,nan,nan,nan
1,80,1,1,1.0,1.0,0.0623242016882,0,nan,nan,nan,nan,nan,nan,nan,nan,nan,97,1.0,-0.260369742894,-0.491718830742,nan,nan,nan,nan,0.0,0.0,0.0,nan,125.853164206,226.020821205,226.520867105,226.083145407,nan,nan,nan,nan
1,81,1,1,1.0,1.0,0.0858501219191,0,1.0,0.0,0.0,0.251986114046,0.0771391557398,0.174846958307,0.329125269786,0.0771391557398,0.0942107817779,392,-0.0541067903503,0.475522277549,-0.315549842675,nan,nan,nan,nan,0.0,0.0,0.0,nan,125.853164206,227.029258366,227.529329355,227.115108488,nan,nan,nan,nan
1,82,1,1,1.0,1.0,0.173691361677,1,0.0,0.0,1.0,0.249935052415,0.0788259812233,0.171109071192,0.328761033638,0.0788259812233,0.107288561761,291,0.122027637739,0.373441943191,0.573791926984,-163.300755766,253.300755766,48.691380766,360.0,-0.167709501072,0.475188317955,0.0381258551808,2.90900843823,125.853164206,228.029410893,228.529454798,228.203102254,232.779963268,233.779612598,229.854596533,232.771641001
1,83,1,1,1.0,1.0,0.302775020245,0,0.0,0.0,0.0,0.249005251309,0.0787895134698,0.170215737839,0.327794764778,0.0787895134698,0.187438834614,415,0.0813077335083,0.459153678902,-0.614968023274,nan,nan,nan,nan,0.0,0.0,0.0,nan,125.853164206,233.980161809,234.480200298,234.28293683,nan,nan,nan,nan
1,84,1,1,1.0,1.0,0.246285043657,0,0.0,0.0,0.0,0.24965307985,0.0785328512299,0.17112022862,0.32818593108,0.0785328512299,0.24091714186,16,0.973419431522,0.140652110383,-1.0,nan,nan,nan,nan,0.0,0.0,0.0,nan,125.853164206,234.988624914,235.488688491,235.234909958,nan,nan,nan,nan
1,85,1,1,1.0,1.0,0.278133515269,0,0.0,0.0,0.0,0.249612984181,0.0780648488495,0.171548135332,0.32767783303,0.0780648488495,0.275731193057,319,-0.0891891826932,0.433308674125,0.406137099325,nan,nan,nan,nan,0.0,0.0,0.0,nan,125.853164206,235.988764612,236.488782573,236.266898127,nan,nan,nan,nan
1,86,0,0,1.0,0.0,0.253962135874,0,0.0,0.0,0.0,0.249948519841,0.0776651927195,0.172283327121,0.32761371256,0.0776651927195,0.2594602316,370,-0.144805996584,0.478178727438,-0.0671803333712,nan,nan,nan,nan,0.0,0.0,0.0,nan,125.853164206,236.988914573,237.488940232,237.242876709,nan,nan,nan,nan
1,87,1,1,1.0,1.0,0.213502593804,0,0.0,0.0,0.0,0.249995189795,0.0772135294666,0.172781660328,0.327208719261,0.0772135294666,0.248532748315,318,-0.0835627602325,0.431640264478,0.413481556053,nan,nan,nan,nan,0.0,0.0,0.0,nan,125.853164206,237.997348027,238.497442394,238.210850621,nan,nan,nan,nan
1,88,1,1,1.0,1.0,0.253033004701,0,0.0,0.0,0.0,0.249575734668,0.076866977796,0.172708756872,0.326442712464,0.076866977796,0.24016591146,494,0.698129958021,0.282143999684,-1.0,nan,nan,nan,nan,0.0,0.0,0.0,nan,125.853164206,239.005817119,239.505852186,239.258850124,nan,nan,nan,nan
1,89,1,1,1.0,1.0,0.228554575704,0,0.0,0.0,0.0,0.249615021828,0.0764298642293,0.173185157599,0.326044886057,0.0764298642293,0.231696724736,54,1.0,-0.0546292063271,-1.0,nan,nan,nan,nan,0.0,0.0,0.0,nan,125.853164206,240.014281364,240.51434209,240.24283594,nan,nan,nan,nan
1,90,0,0,1.0,0.0,0.236367944162,0,0.0,0.0,0.0,0.249378387602,0.0760316820145,0.173346705587,0.325410069616,0.0760316820145,0.239318508189,371,-0.14179360683,0.478331938097,-0.0779732583494,nan,nan,nan,nan,0.0,0.0,0.0,nan,125.853164206,241.014440448,241.514463542,241.250808393,nan,nan,nan,nan
1,91,1,1,1.0,1.0,0.115935839713,0,0.0,0.0,0.0,0.249233827119,0.0756204024842,0.173613424635,0.324854229603,0.0756204024842,0.193619453193,484,0.614398947124,0.316112737715,-1.0,nan,nan,nan,nan,0.0,0.0,0.0,nan,125.853164206,242.022876754,242.522945177,242.138812594,nan,nan,nan,nan
1,92,1,1,1.0,1.0,0.0677806735039,0,0.0,0.0,0.0,0.247769014071,0.0764768995707,0.1712921145,0.324245913641,0.0764768995707,0.14002815246,422,0.128328379107,0.451313674078,-0.730894888444,nan,nan,nan,nan,0.0,0.0,0.0,nan,125.853164206,243.023000201,243.523066914,243.090780875,nan,nan,nan,nan
1,93,1,1,1.0,1.0,0.0112724504434,0,1.0,0.0,0.0,0.245812619064,0.0783163072122,0.167496311852,0.324128926277,0.0783163072122,0.06499632122,314,-0.0594438881467,0.42463230952,0.441925406839,nan,nan,nan,nan,0.0,0.0,0.0,nan,125.853164206,244.031469008,244.531541137,244.042741458,nan,nan,nan,nan
1,94,1,1,1.0,1.0,0.0668270238675,1,0.0,0.0,1.0,0.243290681767,0.0815636462894,0.161727035478,0.324854328057,0.0815636462894,0.0486267159383,248,0.568115903494,0.223728204869,0.653295769881,-96.4539865904,186.45398659,12.0789865904,265.0,0.384259149088,0.291568309415,0.649478858709,2.28393637994,125.853164206,245.039920139,245.539993123,245.106747163,249.165428395,250.165241942,246.865128872,249.157098431
1,95,1,1,1.0,1.0,0.276674389374,0,0.0,0.0,0.0,0.241413408811,0.0831240160996,0.158289392712,0.324537424911,0.0831240160996,0.118257954561,365,-0.157962026257,0.477016591838,-0.0139196855225,nan,nan,nan,nan,0.0,0.0,0.0,nan,125.853164206,250.373944072,250.874006793,250.650618461,nan,nan,nan,nan
1,96,1,1,1.0,1.0,0.252177428454,0,0.0,0.0,0.0,0.241784577028,0.0827636356666,0.159020941361,0.324548212694,0.0827636356666,0.198559613898,266,0.373577590308,0.295207490188,0.648113769863,nan,nan,nan,nan,0.0,0.0,0.0,nan,125.853164206,251.382432835,251.8824756,251.634610264,nan,nan,nan,nan
1,97,1,1,1.0,1.0,0.292003199924,0,0.0,0.0,0.0,0.241892835897,0.0823382080314,0.159554627865,0.324231043928,0.0823382080314,0.27361833925,416,0.087881616042,0.458117504295,-0.630165317015,nan,nan,nan,nan,0.0,0.0,0.0,nan,125.853164206,252.382557423,252.882587073,252.674560623,nan,nan,nan,nan
1,98,1,1,1.0,1.0,0.203902807087,0,0.0,0.0,0.0,0.242409437588,0.0820689231123,0.160340514475,0.3244783607,0.0820689231123,0.249361145155,96,1.0,-0.25681952169,-0.503302481145,nan,nan,nan,nan,0.0,0.0,0.0,nan,125.853164206,253.382674598,253.882706244,253.586577405,nan,nan,nan,nan
1,99,1,1,1.0,1.0,0.243734280113,0,0.0,0.0,0.0,0.242016512787,0.0817407874133,0.160275725373,0.3237573002,0.0817407874133,0.246546762375,189,1.0,-0.0802194643608,0.400143472992,nan,nan,nan,nan,0.0,0.0,0.0,nan,125.853164206,254.382819997,254.882841664,254.626554277,nan,nan,nan,nan
1,100,1,1,1.0,1.0,0.211583890487,0,0.0,0.0,0.0,0.242033863972,0.0813270887419,0.16070677523,0.323360952714,0.0813270887419,0.219740325895,391,-0.0591907973189,0.475916278612,-0.303718712187,nan,nan,nan,nan,0.0,0.0,0.0,nan,125.853164206,255.38296226,255.882998753,255.594546151,nan,nan,nan,nan
1,101,1,1,1.0,1.0,0.21143792104,0,0.0,0.0,0.0,0.241729364237,0.0809761304235,0.160753233813,0.32270549466,0.0809761304235,0.222252030546,261,0.427225806086,0.276617811781,0.653674462902,nan,nan,nan,nan,0.0,0.0,0.0,nan,125.853164206,256.38307801,256.883129042,256.594515931,nan,nan,nan,nan
1,102,1,1,1.0,1.0,0.211275700945,0,0.0,0.0,0.0,0.241429448958,0.0806300595313,0.160799389426,0.322059508489,0.0806300595313,0.211432504157,162,1.0,-0.218739557155,0.176632971453,nan,nan,nan,nan,0.0,0.0,0.0,nan,125.853164206,257.38322455,257.883249923,257.594500251,nan,nan,nan,nan
1,103,1,1,1.0,1.0,0.275105500128,0,0.0,0.0,0.0,0.241133823977,0.0802888285406,0.160844995437,0.321422652518,0.0802888285406,0.232606374038,294,0.0948761993654,0.381212130724,0.559858230992,nan,nan,nan,nan,0.0,0.0,0.0,nan,125.853164206,258.383329466,258.883357975,258.658434966,nan,nan,nan,nan
1,104,0,0,1.0,0.0,0.258947912138,0,0.0,0.0,0.0,0.241463646076,0.0799675335207,0.161496112555,0.321431179596,0.0799675335207,0.248443037737,387,-0.0787219327085,0.477231755363,-0.256974454483,nan,nan,nan,nan,0.0,0.0,0.0,nan,125.853164206,259.383481137,259.883509647,259.642429049,nan,nan,nan,nan
1,105,1,1,0.0,0.0,0.354811496567,0,0.0,0.0,0.0,0.241631764019,0.0796004337258,0.162031330293,0.321232197744,0.0796004337258,0.296288302944,507,0.805995650865,0.232688349973,-1.0,nan,nan,nan,nan,0.0,0.0,0.0,nan,125.853164206,260.38359204,260.883621975,260.738403536,nan,nan,nan,nan
1,106,1,1,1.0,1.0,0.274649059866,0,0.0,0.0,0.0,0.242709666233,0.0799794900082,0.162730176225,0.322689156242,0.0799794900082,0.29613615619,221,0.851781464038,0.0945411604707,0.585422935822,nan,nan,nan,nan,0.0,0.0,0.0,nan,125.853164206,261.383728601,261.883743996,261.658377661,nan,nan,nan,nan
1,107,1,1,1.0,1.0,0.234515668824,0,0.0,0.0,0.0,0.243010981268,0.0796611915974,0.16334978967,0.322672172865,0.0796611915974,0.287992075086,475,0.539218753276,0.343659807328,-1.0,nan,nan,nan,nan,0.0,0.0,0.0,nan,125.853164206,262.383867729,262.883904506,262.618383397,nan,nan,nan,nan
1,108,0,0,0.0,1.0,0.386332677212,0,0.0,0.0,0.0,0.242931585824,0.0792922827559,0.163639303068,0.32222386858,0.0792922827559,0.298499135301,423,0.135229581944,0.450080889006,-0.750039916123,nan,nan,nan,nan,0.0,0.0,0.0,nan,125.853164206,263.384002009,263.884030234,263.770334687,nan,nan,nan,nan
1,109,1,1,1.0,1.0,0.218220378738,0,0.0,0.0,0.0,0.244259373707,0.0801105104757,0.164148863232,0.324369884183,0.0801105104757,0.279689574925,56,1.0,-0.0653675053377,-1.0,nan,nan,nan,nan,0.0,0.0,0.0,nan,125.853164206,264.384112342,264.884162234,264.602332721,nan,nan,nan,nan
1,110,1,1,1.0,1.0,0.241721780505,0,0.0,0.0,0.0,0.244020483845,0.0797808206691,0.164239663176,0.323801304514,0.0797808206691,0.282091612152,499,0.739831889234,0.263827757734,-1.0,nan,nan,nan,nan,0.0,0.0,0.0,nan,125.853164206,265.392563757,265.892619636,265.634285538,nan,nan,nan,nan
1,111,1,1,1.0,1.0,0.185285401996,0,0.0,0.0,0.0,0.243999586542,0.0794176523075,0.164581934235,0.32341723885,0.0794176523075,0.215075853746,251,0.535576518695,0.236509187076,0.655284151108,nan,nan,nan,nan,0.0,0.0,0.0,nan,125.853164206,266.401010042,266.901091579,266.586295444,nan,nan,nan,nan
1,112,1,1,1.0,1.0,0.264769022819,0,0.0,0.0,0.0,0.243470629925,0.0792535151688,0.164217114756,0.322724145094,0.0792535151688,0.23059206844,85,1.0,-0.212156452387,-0.638781227021,nan,nan,nan,nan,0.0,0.0,0.0,nan,125.853164206,267.409479989,267.909531591,267.674249012,nan,nan,nan,nan
1,113,1,1,1.0,1.0,0.208310976624,0,0.0,0.0,0.0,0.243660794147,0.0789243452359,0.164736448911,0.322585139383,0.0789243452359,0.219455133813,239,0.665069831863,0.183388857662,0.640549267122,nan,nan,nan,nan,0.0,0.0,0.0,nan,125.853164206,268.417948795,268.91802121,268.626259772,nan,nan,nan,nan
1,114,0,0,1.0,0.0,0.232086927164,0,0.0,0.0,0.0,0.243347963903,0.0786440623556,0.164703901548,0.321992026259,0.0786440623556,0.235055642202,331,-0.143297839787,0.450801753776,0.311166711333,nan,nan,nan,nan,0.0,0.0,0.0,nan,125.853164206,269.418115007,269.918146368,269.650201934,nan,nan,nan,nan
1,115,1,1,1.0,1.0,0.112025448587,0,0.0,0.0,0.0,0.243249182879,0.0783054133159,0.164943769564,0.321554596195,0.0783054133159,0.184141117459,510,0.830554458933,0.220436700166,-1.0,nan,nan,nan,nan,0.0,0.0,0.0,nan,125.853164206,270.418232752,270.918283214,270.530258201,nan,nan,nan,nan
1,116,1,1,1.0,1.0,0.143845696468,0,0.0,0.0,0.0,0.242108106929,0.078910407988,0.163197698941,0.321018514917,0.078910407988,0.16265269074,394,-0.0437090198531,0.474655926729,-0.339401417396,nan,nan,nan,nan,0.0,0.0,0.0,nan,125.853164206,271.418337953,271.918442298,271.562183649,nan,nan,nan,nan
1,117,1,1,1.0,1.0,0.159698515665,0,1.0,0.0,0.0,0.241261017184,0.0790929342306,0.162168082953,0.320353951414,0.0790929342306,0.13852322024,236,0.697004556276,0.169301754335,0.634065852989,nan,nan,nan,nan,0.0,0.0,0.0,nan,125.853164206,272.418480786,272.91853581,272.578179302,nan,nan,nan,nan
1,118,1,1,1.0,1.0,0.239515129942,1,0.0,0.0,1.0,0.240563901786,0.0791112968919,0.161452604894,0.319675198678,0.0791112968919,0.181019780692,23,1.0,0.106943944166,-1.0,67.8159866547,22.1840133453,6.01213834527,32.0,1.0,0.061735800531,-1.0,2.62564025633,125.853164206,273.418597676,273.918634739,273.658112806,277.885815796,278.885240471,275.243807836,277.877485832
1,119,1,1,1.0,1.0,0.355979824439,0,0.0,0.0,0.0,0.240555013889,0.0787754249634,0.161779588926,0.319330438852,0.0787754249634,0.251731156682,333,-0.149813480994,0.453275949072,0.294183738108,nan,nan,nan,nan,0.0,0.0,0.0,nan,125.853164206,279.086020325,279.586038001,279.442000149,nan,nan,nan,nan
1,120,1,1,1.0,1.0,0.259503566194,0,0.0,0.0,0.0,0.24152497028,0.0791481911906,0.16237677909,0.320673161471,0.0791481911906,0.284999506858,34,1.0,0.0514419701458,-1.0,nan,nan,nan,nan,0.0,0.0,0.0,nan,125.853164206,280.094473736,280.594509944,280.353977303,nan,nan,nan,nan
1,121,1,1,1.0,1.0,0.211400288157,0,0.0,0.0,0.0,0.241674791913,0.0788346603347,0.162840131578,0.320509452248,0.0788346603347,0.27562789293,174,1.0,-0.160790688716,0.281981279739,nan,nan,nan,nan,0.0,0.0,0.0,nan,125.853164206,281.094608302,281.594648786,281.30600859,nan,nan,nan,nan
1,122,1,1,1.0,1.0,0.243215403985,0,0.0,0.0,0.0,0.241424589402,0.0785560499604,0.162868539442,0.319980639363,0.0785560499604,0.238039752779,4,0.879126049628,0.195014037372,-1.0,nan,nan,nan,nan,0.0,0.0,0.0,nan,125.853164206,282.094728043,282.594765391,282.337943447,nan,nan,nan,nan
1,123,1,1,1.0,1.0,0.25110004656,0,0.0,0.0,0.0,0.241439268211,0.078233603109,0.163205665102,0.31967287132,0.078233603109,0.235238579568,230,0.760023132926,0.140224214653,0.61781109556,nan,nan,nan,nan,0.0,0.0,0.0,nan,125.853164206,283.094858618,283.594888838,283.345958664,nan,nan,nan,nan
1,124,1,1,1.0,1.0,0.202569122892,0,0.0,0.0,0.0,0.241517811124,0.077919760887,0.163598050237,0.319437572011,0.077919760887,0.232294857812,171,1.0,-0.176011872558,0.256450910142,nan,nan,nan,nan,0.0,0.0,0.0,nan,125.853164206,284.103329705,284.60335907,284.305898828,nan,nan,nan,nan
1,125,1,1,1.0,1.0,0.202445106115,0,0.0,0.0,0.0,0.241203708799,0.0776830787743,0.163520630025,0.318886787574,0.0776830787743,0.218704758522,272,0.310166696092,0.316214117232,0.637281430288,nan,nan,nan,nan,0.0,0.0,0.0,nan,125.853164206,285.103467407,285.603490785,285.305912513,nan,nan,nan,nan
1,126,0,0,1.0,0.0,0.274288982153,0,0.0,0.0,0.0,0.240893639978,0.077448725836,0.163444914142,0.318342365814,0.077448725836,0.22643440372,135,1.0,-0.303502321856,-0.0849788702499,nan,nan,nan,nan,0.0,0.0,0.0,nan,125.853164206,286.103594845,286.603644737,286.377883827,nan,nan,nan,nan
1,127,1,1,1.0,1.0,0.2021768298,0,0.0,0.0,0.0,0.241158682376,0.0771976714119,0.163961010964,0.318356353788,0.0771976714119,0.226303639356,292,0.112881669716,0.376069582356,0.569261850688,nan,nan,nan,nan,0.0,0.0,0.0,nan,125.853164206,287.103704322,287.603746517,287.305881152,nan,nan,nan,nan
1,128,1,1,1.0,1.0,0.225980434567,0,0.0,0.0,0.0,0.240851738655,0.076970295886,0.163881442769,0.317822034541,0.076970295886,0.23414874884,434,0.213881816697,0.43461034373,-1.0,nan,nan,nan,nan,0.0,0.0,0.0,nan,125.853164206,288.10387538,288.603883648,288.329855815,nan,nan,nan,nan
1,129,1,1,1.0,1.0,0.25752556324,0,0.0,0.0,0.0,0.240735556592,0.0766802200549,0.164055336537,0.317415776647,0.0766802200549,0.228560942536,269,0.34171296506,0.305888347675,0.643262349404,nan,nan,nan,nan,0.0,0.0,0.0,nan,125.853164206,289.112309976,289.612339626,289.369835539,nan,nan,nan,nan
1,130,1,1,1.0,1.0,0.249329023995,0,0.0,0.0,0.0,0.240865711682,0.07639662448,0.164469087202,0.317262336162,0.07639662448,0.2442783406,172,1.0,-0.170984061773,0.265024678188,nan,nan,nan,nan,0.0,0.0,0.0,nan,125.853164206,290.112448248,290.612466779,290.361777272,nan,nan,nan,nan
1,131,1,1,1.0,1.0,0.23325696541,0,0.0,0.0,0.0,0.240930814085,0.0761058161425,0.164824997942,0.317036630227,0.0761058161425,0.246703850882,420,0.1146601879,0.45369410126,-0.695047497311,nan,nan,nan,nan,0.0,0.0,0.0,nan,125.853164206,291.112564282,291.61260277,291.345821247,nan,nan,nan,nan
1,132,1,1,1.0,1.0,0.225076961797,0,0.0,0.0,0.0,0.240872235087,0.0758177213982,0.165054513689,0.316689956485,0.0758177213982,0.2358876504,299,0.0516645560415,0.393417669654,0.534378752182,nan,nan,nan,nan,0.0,0.0,0.0,nan,125.853164206,292.112690295,292.612730779,292.337767257,nan,nan,nan,nan
1,133,1,1,1.0,1.0,0.192922865506,0,0.0,0.0,0.0,0.240752573926,0.0755424033843,0.165210170542,0.31629497731,0.0755424033843,0.217085597571,137,1.0,-0.300190217086,-0.0647316600203,nan,nan,nan,nan,0.0,0.0,0.0,nan,125.853164206,293.112817734,293.612859928,293.305740599,nan,nan,nan,nan
1,134,1,1,1.0,1.0,0.216751274187,0,0.0,0.0,0.0,0.240392952058,0.0753712067835,0.165021745275,0.315764158842,0.0753712067835,0.211583700497,239,0.665069831863,0.183388857662,0.640549267122,nan,nan,nan,nan,0.0,0.0,0.0,nan,125.853164206,294.112947167,294.612986226,294.329698442,nan,nan,nan,nan
1,135,1,1,1.0,1.0,0.392596543767,0,0.0,0.0,0.0,0.240216521626,0.0751170062336,0.165099515393,0.31533352786,0.0751170062336,0.267423561153,373,-0.135407706169,0.478559568072,-0.0996974893599,nan,nan,nan,nan,0.0,0.0,0.0,nan,125.853164206,295.113076602,295.613111098,295.505673145,nan,nan,nan,nan
1,136,1,1,1.0,1.0,0.224486241117,0,0.0,0.0,0.0,0.241345262531,0.0759703320944,0.165374930437,0.317315594625,0.0759703320944,0.277944686357,12,0.942476689623,0.159273951266,-1.0,nan,nan,nan,nan,0.0,0.0,0.0,nan,125.853164206,296.113208886,296.613251366,296.337695127,nan,nan,nan,nan
1,137,1,1,1.0,1.0,0.20833378518,0,0.0,0.0,0.0,0.241221299138,0.0757042169013,0.165517082237,0.316925516039,0.0757042169013,0.275138856688,394,-0.0437090198531,0.474655926729,-0.339401417396,nan,nan,nan,nan,0.0,0.0,0.0,nan,125.853164206,297.11333661,297.613386787,297.321670395,nan,nan,nan,nan
1,138,1,1,1.0,1.0,0.224143553991,0,0.0,0.0,0.0,0.240981244292,0.0754793520308,0.165501892261,0.316460596323,0.0754793520308,0.218987860096,442,0.273907262724,0.421095538958,-1.0,nan,nan,nan,nan,0.0,0.0,0.0,nan,125.853164206,298.113504532,298.613511374,298.337648086,nan,nan,nan,nan
1,139,1,1,1.0,1.0,0.208002216648,0,0.0,0.0,0.0,0.240859232043,0.0752189373164,0.165640294727,0.31607816936,0.0752189373164,0.213493185273,267,0.362924526182,0.298807232282,0.646622522267,nan,nan,nan,nan,0.0,0.0,0.0,nan,125.853164206,299.11361686,299.613638243,299.321619077,nan,nan,nan,nan
1,140,1,1,1.0,1.0,0.207862804644,0,0.0,0.0,0.0,0.240622850637,0.0749993013854,0.165623549252,0.315622152023,0.0749993013854,0.213336191761,366,-0.155593376329,0.477302029306,-0.0244766492797,nan,nan,nan,nan,0.0,0.0,0.0,nan,125.853164206,300.113724057,300.613759409,300.321586861,nan,nan,nan,nan
1,141,1,1,1.0,1.0,0.207720255945,0,0.0,0.0,0.0,0.240388850309,0.0747818727417,0.165606977567,0.315170723051,0.0747818727417,0.207861759079,462,0.432089675478,0.378486360879,-1.0,nan,nan,nan,nan,0.0,0.0,0.0,nan,125.853164206,301.113867746,301.613895685,301.321588002,nan,nan,nan,nan
1,142,0,0,1.0,0.0,0.191526175477,0,0.0,0.0,0.0,0.24015715815,0.0745666276725,0.165590530478,0.314723785823,0.0745666276725,0.202369745355,341,-0.168535884224,0.46196150489,0.223260112086,nan,nan,nan,nan,0.0,0.0,0.0,nan,125.853164206,302.114024834,302.614047357,302.30555101,nan,nan,nan,nan
1,143,1,1,1.0,1.0,0.111115134321,0,0.0,0.0,0.0,0.239814686441,0.0744148049808,0.165399881461,0.314229491422,0.0744148049808,0.170120521914,45,1.0,-0.0063957592436,-1.0,nan,nan,nan,nan,0.0,0.0,0.0,nan,125.853164206,303.122450591,303.62253555,303.233565725,nan,nan,nan,nan
1,144,1,1,1.0,1.0,0.110949777998,0,0.0,0.0,0.0,0.238914689573,0.0749256843919,0.163989005182,0.313840373965,0.0749256843919,0.137863695932,489,0.656284860842,0.299572439858,-1.0,nan,nan,nan,nan,0.0,0.0,0.0,nan,125.853164206,304.122577459,304.622644172,304.233527237,nan,nan,nan,nan
1,145,1,1,1.0,1.0,0.270783999469,0,0.0,0.0,0.0,0.238026044354,0.0754174964575,0.162608547897,0.313443540812,0.0754174964575,0.164282970596,206,0.994723455659,0.014051917983,0.511316161583,nan,nan,nan,nan,0.0,0.0,0.0,nan,125.853164206,305.122706893,305.622751654,305.393490893,nan,nan,nan,nan
1,146,1,1,1.0,1.0,0.222622846719,0,0.0,0.0,0.0,0.238251961286,0.0752058648759,0.16304609641,0.313457826162,0.0752058648759,0.201452208062,133,1.0,-0.306259573676,-0.105336427414,nan,nan,nan,nan,0.0,0.0,0.0,nan,125.853164206,306.122850867,306.622879092,306.345473714,nan,nan,nan,nan
1,147,1,1,1.0,1.0,0.206116015092,0,0.0,0.0,0.0,0.238144912556,0.0749589523448,0.163185960211,0.313103864901,0.0749589523448,0.233174287093,375,-0.128556699755,0.478682433309,-0.121605159467,nan,nan,nan,nan,0.0,0.0,0.0,nan,125.853164206,307.131313117,307.631342767,307.337429132,nan,nan,nan,nan
1,148,1,1,1.0,1.0,0.253623440396,0,0.0,0.0,0.0,0.2379270289,0.0747499311331,0.163177097767,0.312676960033,0.0747499311331,0.227454100735,190,1.0,-0.0746884387243,0.407399635172,nan,nan,nan,nan,0.0,0.0,0.0,nan,125.853164206,308.139782493,308.639822978,308.393405934,nan,nan,nan,nan
1,149,1,1,1.0,1.0,0.165473440662,0,0.0,0.0,0.0,0.238033085734,0.0745080662543,0.16352501948,0.312541151989,0.0745080662543,0.208404298717,64,1.0,-0.108036866323,-1.0,nan,nan,nan,nan,0.0,0.0,0.0,nan,125.853164206,309.139923617,309.639937587,309.305397057,nan,nan,nan,nan
1,150,1,1,1.0,1.0,0.277356056031,0,0.0,0.0,0.0,0.237546108251,0.074493567753,0.163052540498,0.312039676004,0.074493567753,0.23215097903,427,0.163265173604,0.444863218481,-0.840208708629,nan,nan,nan,nan,0.0,0.0,0.0,nan,125.853164206,310.140043357,310.640089543,310.417399413,nan,nan,nan,nan
1,151,1,1,1.0,1.0,0.189155878965,0,0.0,0.0,0.0,0.237811507902,0.0743154860598,0.163496021843,0.312126993962,0.0743154860598,0.210661791886,193,1.0,-0.0580453890011,0.428658791268,nan,nan,nan,nan,0.0,0.0,0.0,nan,125.853164206,311.140193318,311.640188472,311.329349197,nan,nan,nan,nan
1,152,1,1,1.0,1.0,0.204696801957,0,0.0,0.0,0.0,0.237489285194,0.0741740575364,0.163315227658,0.311663342731,0.0741740575364,0.223736245651,247,0.578947625354,0.219392674348,0.6523805853,nan,nan,nan,nan,0.0,0.0,0.0,nan,125.853164206,312.14863276,312.64867524,312.353329562,nan,nan,nan,nan
1,153,1,1,1.0,1.0,0.172560097184,0,0.0,0.0,0.0,0.237273545173,0.0739771784168,0.163296366756,0.31125072359,0.0739771784168,0.188804259369,382,-0.1011887567,0.478291136399,-0.199732273247,nan,nan,nan,nan,0.0,0.0,0.0,nan,125.853164206,313.148749935,313.648788708,313.321310032,nan,nan,nan,nan
1,154,1,1,1.0,1.0,0.212092218921,0,0.0,0.0,0.0,0.236850581461,0.0739191902763,0.162931391184,0.310769771737,0.0739191902763,0.19644970602,211,0.948675772315,0.0413606888024,0.538689155053,nan,nan,nan,nan,0.0,0.0,0.0,nan,125.853164206,314.157221592,314.657247822,314.369313811,nan,nan,nan,nan
1,155,1,1,1.0,1.0,0.235903521068,0,0.0,0.0,0.0,0.236689812873,0.0737056333592,0.162984179513,0.310395446232,0.0737056333592,0.206851945724,436,0.228681708805,0.431413732101,-1.0,nan,nan,nan,nan,0.0,0.0,0.0,nan,125.853164206,315.157352452,315.657382387,315.393255973,nan,nan,nan,nan
1,156,1,1,1.0,1.0,0.218402270693,0,0.0,0.0,0.0,0.236684740022,0.0734675154967,0.163217224526,0.310152255519,0.0734675154967,0.222132670227,90,1.0,-0.233635786423,-0.574971871003,nan,nan,nan,nan,0.0,0.0,0.0,nan,125.853164206,316.190872448,316.690883282,316.409274719,nan,nan,nan,nan
1,157,1,1,1.0,1.0,0.201977261808,0,0.0,0.0,0.0,0.236567544706,0.0732461979507,0.163321346755,0.309813742657,0.0732461979507,0.218761017856,201,1.0,-0.0135712615467,0.48142235136,nan,nan,nan,nan,0.0,0.0,0.0,nan,125.853164206,317.199267985,317.699340114,317.401245247,nan,nan,nan,nan
1,158,1,1,1.0,1.0,0.209821990691,0,0.0,0.0,0.0,0.236347224433,0.0730643955983,0.163282828835,0.309411620031,0.0730643955983,0.210067174397,451,0.343830962376,0.403518361206,-1.0,nan,nan,nan,nan,0.0,0.0,0.0,nan,125.853164206,318.199416521,318.699466127,318.409238511,nan,nan,nan,nan
1,159,1,1,1.0,1.0,0.23365467554,0,0.0,0.0,0.0,0.236179343207,0.0728631829504,0.163316160256,0.309042526157,0.0728631829504,0.215151309346,46,1.0,-0.0117313672748,-1.0,nan,nan,nan,nan,0.0,0.0,0.0,nan,125.853164206,319.199542533,319.699597557,319.433197209,nan,nan,nan,nan
1,160,1,1,1.0,1.0,0.249449905008,0,0.0,0.0,0.0,0.236163464794,0.0726339662624,0.163529498531,0.308797431056,0.0726339662624,0.230975523746,208,0.97651257568,0.025020743352,0.522574479073,nan,nan,nan,nan,0.0,0.0,0.0,nan,125.853164206,320.199719294,320.699730983,320.449169199,nan,nan,nan,nan
1,161,0,0,1.0,0.0,0.265346914995,0,0.0,0.0,0.0,0.236246505045,0.0724142001755,0.163832304869,0.308660705221,0.0724142001755,0.249483831848,148,1.0,-0.272695592461,0.0444264621409,nan,nan,nan,nan,0.0,0.0,0.0,nan,125.853164206,321.199806533,321.699862697,321.465153448,nan,nan,nan,nan
1,162,1,1,1.0,1.0,0.0972169400193,0,0.0,0.0,0.0,0.236427252933,0.0722251567446,0.164202096188,0.308652409677,0.0722251567446,0.204004586674,292,0.112881669716,0.376069582356,0.569261850688,nan,nan,nan,nan,0.0,0.0,0.0,nan,125.853164206,322.199927984,322.699988995,322.297144924,nan,nan,nan,nan
1,163,1,1,1.0,1.0,0.241054653656,0,0.0,0.0,0.0,0.235567930014,0.0728228054329,0.162745124581,0.308390735447,0.0728228054329,0.201206169557,430,0.184725017221,0.440645728776,-0.941904167281,nan,nan,nan,nan,0.0,0.0,0.0,nan,125.853164206,323.200074809,323.700118429,323.441129463,nan,nan,nan,nan
1,164,1,1,1.0,1.0,0.296583853662,0,0.0,0.0,0.0,0.235601590895,0.0726003430846,0.16300124781,0.30820193398,0.0726003430846,0.211618482446,86,1.0,-0.21659106269,-0.625617802914,nan,nan,nan,nan,0.0,0.0,0.0,nan,125.853164206,324.20851254,324.708550173,324.505096394,nan,nan,nan,nan
1,165,1,1,1.0,1.0,0.312432111241,0,0.0,0.0,0.0,0.235973433961,0.0725341870847,0.163439246876,0.308507621045,0.0725341870847,0.283356872853,491,0.673033477965,0.292707709811,-1.0,nan,nan,nan,nan,0.0,0.0,0.0,nan,125.853164206,325.208642545,325.708689015,325.521074656,nan,nan,nan,nan
1,166,1,1,1.0,1.0,0.336324095726,0,0.0,1.0,0.0,0.236436819883,0.0725571315128,0.163879688371,0.308993951396,0.0725571315128,0.315113353543,396,-0.0330153705648,0.473684876347,-0.363523780775,nan,nan,nan,nan,0.0,0.0,0.0,nan,125.853164206,326.208771124,326.708807331,326.545095219,nan,nan,nan,nan
1,167,1,1,1.0,1.0,0.384150544647,1,0.0,0.0,1.0,0.237038550461,0.0727500268146,0.164288523646,0.309788577275,0.0727500268146,0.344302250538,239,0.665069831863,0.183388857662,0.640549267122,-58.4258092497,148.42580925,-19.6210657503,211.0,0.948675772315,0.0413606888024,0.538689155053,2.43394216755,125.853164206,327.208902268,327.708964704,327.593052813,331.484441971,332.484165427,329.034118699,331.476096896
1,168,1,1,1.0,1.0,0.348282489926,0,0.0,0.0,0.0,0.237919460606,0.0734145137733,0.164504946832,0.311333974379,0.0734145137733,0.356252376766,151,1.0,-0.262720288689,0.0734626651272,nan,nan,nan,nan,0.0,0.0,0.0,nan,125.853164206,332.684629679,333.184657903,333.032912169,nan,nan,nan,nan
1,169,1,1,1.0,1.0,0.292155156843,0,0.0,0.0,0.0,0.238576383399,0.0736863473208,0.164890036078,0.31226273072,0.0736863473208,0.341529397139,40,1.0,0.0201165467467,-1.0,nan,nan,nan,nan,0.0,0.0,0.0,nan,125.853164206,333.684749134,334.184776789,333.976904291,nan,nan,nan,nan
1,170,1,1,1.0,1.0,0.268026541453,0,0.0,0.0,0.0,0.238893417562,0.0735828465166,0.165310571045,0.312476264078,0.0735828465166,0.302821396074,276,0.268710435127,0.329430325417,0.627563005949,nan,nan,nan,nan,0.0,0.0,0.0,nan,125.853164206,334.684870301,335.184911354,334.952896842,nan,nan,nan,nan
1,171,1,1,1.0,1.0,0.219863677863,0,0.0,0.0,0.0,0.239064788879,0.0733999243579,0.165664864521,0.312464713237,0.0733999243579,0.260015125386,186,1.0,-0.0967386681424,0.377881386018,nan,nan,nan,nan,0.0,0.0,0.0,nan,125.853164206,335.685013419,336.18505875,335.904877097,nan,nan,nan,nan
1,172,1,1,1.0,1.0,0.219654131681,0,0.0,0.0,0.0,0.23895250168,0.0731996324609,0.165752869219,0.312152134141,0.0731996324609,0.235848116999,457,0.391639248186,0.390358177281,-1.0,nan,nan,nan,nan,0.0,0.0,0.0,nan,125.853164206,336.685160244,337.185170223,336.904814376,nan,nan,nan,nan
1,173,1,1,1.0,1.0,0.203549001832,0,0.0,0.0,0.0,0.238840301854,0.0730012782906,0.165839023564,0.311841580145,0.0730012782906,0.214355603792,255,0.492159363509,0.253017189294,0.656163111527,nan,nan,nan,nan,0.0,0.0,0.0,nan,125.853164206,337.685262309,338.185301082,337.888811311,nan,nan,nan,nan
1,174,1,1,1.0,1.0,0.20341244014,0,0.0,0.0,0.0,0.2386363059,0.0728391361365,0.165797169764,0.311475442037,0.0728391361365,0.208871857884,397,-0.0275613476434,0.473159987783,-0.37569455347,nan,nan,nan,nan,0.0,0.0,0.0,nan,125.853164206,338.685390603,339.185439069,338.888803043,nan,nan,nan,nan
1,175,0,0,1.0,0.0,0.227216899861,0,0.0,0.0,0.0,0.23843386989,0.0726783168754,0.165755553015,0.311112186766,0.0726783168754,0.211392780611,443,0.281558783006,0.419268214519,-1.0,nan,nan,nan,nan,0.0,0.0,0.0,nan,125.853164206,339.68555938,340.185588175,339.91277628,nan,nan,nan,nan
1,176,1,1,0.0,0.0,0.211108633783,0,0.0,0.0,0.0,0.238369772919,0.0724752989989,0.165916727836,0.310513032329,0.0724752989989,0.213912657928,329,-0.136053278316,0.448203788942,0.3278337444,nan,nan,nan,nan,0.0,0.0,0.0,nan,125.853164206,340.68566287,341.185691095,340.896771504,nan,nan,nan,nan
1,177,1,1,nan,nan,nan,0,0.0,0.0,0.0,0.238214880083,0.0722981522469,0.165916727836,0.310513032329,0.0722981522469,0.219162766822,49,1.0,-0.027785429985,-1.0,nan,nan,nan,nan,0.0,0.0,0.0,nan,125.853164206,341.685785177,342.185853315,nan,nan,nan,nan,nan
1,178,1,1,nan,nan,nan,0,0.0,0.0,0.0,0.238214880083,0.0722981522469,0.165916727836,0.310513032329,0.0722981522469,0.211108633783,276,0.268710435127,0.329430325417,0.627563005949,nan,nan,nan,nan,0.0,0.0,0.0,nan,125.853164206,342.685921738,343.186003276,nan,nan,nan,nan,nan
1,179,1,1,nan,nan,nan,0,0.0,0.0,0.0,0.238214880083,0.0722981522469,0.165916727836,0.310513032329,0.0722981522469,nan,431,0.191957257768,0.43918128748,-0.982298765802,nan,nan,nan,nan,0.0,0.0,0.0,nan,125.853164206,343.68604433,344.186117315,nan,nan,nan,nan,nan
1,180,1,1,nan,nan,nan,0,0.0,0.0,0.0,0.238214880083,0.0722981522469,0.165916727836,0.310513032329,0.0722981522469,nan,283,0.19826868328,0.351050922538,0.605825948857,nan,nan,nan,nan,0.0,0.0,0.0,nan,125.853164206,344.694532808,345.194578709,nan,nan,nan,nan,nan
1,181,1,1,nan,nan,nan,0,0.0,0.0,0.0,0.238214880083,0.0722981522469,0.165916727836,0.310513032329,0.0722981522469,nan,464,0.448404880525,0.373503555275,-1.0,nan,nan,nan,nan,0.0,0.0,0.0,nan,125.853164206,345.702968829,346.203063766,nan,nan,nan,nan,nan
1,182,1,1,nan,nan,nan,0,0.0,0.0,0.0,0.238214880083,0.0722981522469,0.165916727836,0.310513032329,0.0722981522469,nan,358,-0.170583909915,0.474268316859,0.0585874414746,nan,nan,nan,nan,0.0,0.0,0.0,nan,125.853164206,346.70311993,347.20317581,nan,nan,nan,nan,nan
1,183,1,1,1.0,1.0,0.0410650884733,0,0.0,0.0,0.0,0.238214880083,0.0722981522469,0.165916727836,0.310513032329,0.0722981522469,0.0410650884733,505,0.789537956352,0.240683140511,-1.0,nan,nan,nan,nan,0.0,0.0,0.0,nan,125.853164206,347.711557091,348.211630647,347.75262218,nan,nan,nan,nan
1,184,1,1,1.0,1.0,0.184913635254,0,0.0,0.0,0.0,0.237101039452,0.0735924209631,0.163508618489,0.310693460415,0.0735924209631,0.112989361864,360,-0.167709501072,0.475188317955,0.0381258551808,nan,nan,nan,nan,0.0,0.0,0.0,nan,125.853164206,348.711692228,349.211745256,348.896605863,nan,nan,nan,nan
1,185,1,1,1.0,1.0,0.288693793584,0,0.0,0.0,0.0,0.236807851788,0.0734889996874,0.1633188521,0.310296851475,0.0734889996874,0.17155750577,499,0.739831889234,0.263827757734,-1.0,nan,nan,nan,nan,0.0,0.0,0.0,nan,125.853164206,349.711859009,350.211868987,350.000552803,nan,nan,nan,nan
1,186,1,1,1.0,1.0,0.256270566024,0,0.0,0.0,0.0,0.237097717385,0.0733854063692,0.163712311015,0.310483123754,0.0733854063692,0.243292664954,250,0.546428449327,0.232286661223,0.654747725831,nan,nan,nan,nan,0.0,0.0,0.0,nan,125.853164206,350.720284196,351.220322399,350.976554762,nan,nan,nan,nan
1,187,1,1,1.0,1.0,0.327767194249,0,0.0,0.0,0.0,0.23720423321,0.0731951483775,0.164009084833,0.310399381588,0.0731951483775,0.290910517952,345,-0.173519535469,0.465595146217,0.186119282857,nan,nan,nan,nan,0.0,0.0,0.0,nan,125.853164206,351.728735897,352.228781512,352.056503091,nan,nan,nan,nan
1,188,1,1,1.0,1.0,0.311313105281,0,0.0,0.0,0.0,0.237704581061,0.0733007010138,0.164403880048,0.311005282075,0.0733007010138,0.298450288518,411,0.0555201669072,0.463022710015,-0.557054760163,nan,nan,nan,nan,0.0,0.0,0.0,nan,125.853164206,352.737197576,353.237255736,353.048510681,nan,nan,nan,nan
1,189,1,1,1.0,1.0,0.263118026312,0,0.0,0.0,0.0,0.238109023502,0.0733012801275,0.164807743375,0.31141030363,0.0733012801275,0.300732775281,274,0.289344050657,0.322900892411,0.632670269059,nan,nan,nan,nan,0.0,0.0,0.0,nan,125.853164206,353.737338129,354.237376047,354.000456155,nan,nan,nan,nan
1,190,1,1,1.0,1.0,0.214683465194,0,0.0,0.0,0.0,0.23824568472,0.0731239746777,0.165121710042,0.311369659397,0.0731239746777,0.263038198929,370,-0.144805996584,0.478178727438,-0.0671803333712,nan,nan,nan,nan,0.0,0.0,0.0,nan,125.853164206,354.745803514,355.245838867,354.96048698,nan,nan,nan,nan
1,191,1,1,1.0,1.0,0.190187930129,0,0.0,0.0,0.0,0.238117629179,0.07294556968,0.165172059499,0.311063198859,0.07294556968,0.222663140545,492,0.681403316433,0.289222019555,-1.0,nan,nan,nan,nan,0.0,0.0,0.0,nan,125.853164206,355.754260917,356.254317936,355.944448847,nan,nan,nan,nan
1,192,0,0,1.0,0.0,0.181951763108,0,0.0,0.0,0.0,0.237858549724,0.0728329880511,0.165025561673,0.310691537776,0.0728329880511,0.195607719477,106,1.0,-0.287630069369,-0.390564445695,nan,nan,nan,nan,0.0,0.0,0.0,nan,125.853164206,356.754461055,357.254469608,356.936412818,nan,nan,nan,nan
1,193,1,1,1.0,1.0,0.021903147921,0,0.0,0.0,0.0,0.237557975603,0.0727518958154,0.164806079787,0.310309871418,0.0727518958154,0.13134761372,165,1.0,-0.205056383665,0.203745440608,nan,nan,nan,nan,0.0,0.0,0.0,nan,125.853164206,357.754527768,358.254596476,357.776430916,nan,nan,nan,nan
1,194,0,0,0.0,1.0,0.533654561732,0,0.0,0.0,0.0,0.23640474123,0.0742422050235,0.162162536207,0.310646946254,0.0742422050235,0.24583649092,384,-0.0924750057551,0.477945316949,-0.222479273925,nan,nan,nan,nan,0.0,0.0,0.0,nan,125.853164206,358.754695975,359.254743872,359.288350537,nan,nan,nan,nan
1,195,1,1,1.0,1.0,0.245561182033,0,0.0,0.0,0.0,0.237985857297,0.077136715655,0.160849141642,0.315122572952,0.077136715655,0.267039630562,192,1.0,-0.0635997558896,0.421658406928,nan,nan,nan,nan,0.0,0.0,0.0,nan,125.853164206,359.754802316,360.254821988,360.000363498,nan,nan,nan,nan
1,196,1,1,1.0,1.0,0.269082255661,0,0.0,0.0,0.0,0.23802593838,0.0769343424978,0.161091595882,0.314960280878,0.0769343424978,0.349432666476,110,1.0,-0.296722754836,-0.346921960777,nan,nan,nan,nan,0.0,0.0,0.0,nan,125.853164206,360.763245749,361.263288229,361.032328005,nan,nan,nan,nan
1,197,1,1,1.0,1.0,0.220962726977,0,0.0,0.0,0.0,0.238189392681,0.0767645136648,0.161424879017,0.314953906346,0.0767645136648,0.24520205489,276,0.268710435127,0.329430325417,0.627563005949,nan,nan,nan,nan,0.0,0.0,0.0,nan,125.853164206,361.763374328,362.263415382,361.984337055,nan,nan,nan,nan
1,198,1,1,1.0,1.0,0.260798191652,0,0.0,0.0,0.0,0.238099200714,0.0765733884837,0.161525812231,0.314672589198,0.0765733884837,0.250281058097,359,-0.169222339917,0.474741883077,0.0483828026834,nan,nan,nan,nan,0.0,0.0,0.0,nan,125.853164206,362.763513456,363.263566769,363.024311647,nan,nan,nan,nan
1,199,0,0,1.0,0.0,0.244517441839,0,0.0,0.0,0.0,0.238217424626,0.0763911934206,0.161826231205,0.314608618046,0.0763911934206,0.242092786822,235,0.707591924495,0.164537776567,0.631659631194,nan,nan,nan,nan,0.0,0.0,0.0,nan,125.853164206,363.763745524,364.263705326,364.008262966,nan,nan,nan,nan
1,200,1,1,1.0,1.0,0.0204939134419,0,0.0,0.0,0.0,0.238250067202,0.0761943742757,0.159546568489,0.314708657113,0.0761943742757,0.175269848978,383,-0.0968787136249,0.478131214543,-0.211081409456,nan,nan,nan,nan,0.0,0.0,0.0,nan,125.853164206,364.763762916,365.263843313,364.784256829,nan,nan,nan,nan
1,201,1,1,nan,nan,nan,0,0.0,0.0,0.0,0.237127612801,0.0775810443124,0.159546568489,0.314708657113,0.0775810443124,0.13250567764,463,0.440238315199,0.376011795327,-1.0,nan,nan,nan,nan,0.0,0.0,0.0,nan,125.853164206,365.772224595,366.272317251,nan,nan,nan,nan,nan
1,202,1,1,1.0,1.0,0.299496119376,0,0.0,0.0,0.0,0.237127612801,0.0775810443124,0.159546568489,0.314708657113,0.0775810443124,0.159995016409,120,1.0,-0.310161497659,-0.240162905937,nan,nan,nan,nan,0.0,0.0,0.0,nan,125.853164206,366.780692546,367.280734741,367.080188666,nan,nan,nan,nan
1,203,1,1,1.0,1.0,0.339353251737,0,0.0,0.0,0.0,0.237447451296,0.0775099880897,0.159937463207,0.314957439386,0.0775099880897,0.319424685556,333,-0.149813480994,0.453275949072,0.294183738108,nan,nan,nan,nan,0.0,0.0,0.0,nan,125.853164206,367.780822265,368.280871302,368.120175517,nan,nan,nan,nan
1,204,1,1,1.0,1.0,0.307189462241,0,0.0,0.0,0.0,0.23796737885,0.0776521701602,0.160315208689,0.31561954901,0.0776521701602,0.315346277785,145,1.0,-0.281667413287,0.0150551701241,nan,nan,nan,nan,0.0,0.0,0.0,nan,125.853164206,368.780974792,369.280997885,369.088164255,nan,nan,nan,nan
1,205,0,0,0.0,1.0,0.443054153118,0,0.0,0.0,0.0,0.238318759983,0.0776108946736,0.16070786531,0.315929654657,0.0776108946736,0.363198955699,95,1.0,-0.253175017597,-0.514975443931,nan,nan,nan,nan,0.0,0.0,0.0,nan,125.853164206,369.781080563,370.281150127,370.224134716,nan,nan,nan,nan
1,206,1,1,1.0,1.0,0.2029280602,0,0.0,0.0,0.0,0.239352777121,0.0787633177063,0.160589459414,0.318116094827,0.0787633177063,0.317723891853,474,0.530901762182,0.346545376391,-1.0,nan,nan,nan,nan,0.0,0.0,0.0,nan,125.853164206,370.781207146,371.281260174,370.984135206,nan,nan,nan,nan
1,207,1,1,1.0,1.0,0.186455154791,0,0.0,0.0,0.0,0.239169738342,0.0786073767318,0.16056236161,0.317777115074,0.0786073767318,0.277479122703,377,-0.121259861678,0.478700828387,-0.143695900877,nan,nan,nan,nan,0.0,0.0,0.0,nan,125.853164206,371.789674242,372.289742095,371.976129397,nan,nan,nan,nan
1,208,1,1,1.0,1.0,0.231393856462,0,0.0,0.0,0.0,0.238906165424,0.0784987181053,0.160407447319,0.31740488353,0.0784987181053,0.206925690485,68,1.0,-0.129018143495,-0.972903198114,nan,nan,nan,nan,0.0,0.0,0.0,nan,125.853164206,372.800700369,373.306554266,373.032094226,nan,nan,nan,nan
1,209,1,1,1.0,1.0,0.281458031852,0,0.0,0.0,0.0,0.238868790753,0.0783049880817,0.160563802671,0.317173778834,0.0783049880817,0.233102347702,224,0.821619416966,0.11002478857,0.597264883709,nan,nan,nan,nan,0.0,0.0,0.0,nan,125.853164206,373.806604158,374.306668875,374.08806219,nan,nan,nan,nan
1,210,1,1,1.0,1.0,0.305286154617,0,0.0,0.0,0.0,0.23907962858,0.078168096569,0.160911532011,0.317247725149,0.078168096569,0.272712680977,9,0.918933560847,0.172916688009,-1.0,nan,nan,nan,nan,0.0,0.0,0.0,nan,125.853164206,374.80675697,375.306770084,375.112043125,nan,nan,nan,nan
1,211,1,1,1.0,1.0,0.185183336958,0,0.0,0.0,0.0,0.239405769102,0.0781129811514,0.161292787951,0.317518750254,0.0781129811514,0.257309174476,470,0.497741612616,0.357740777197,-1.0,nan,nan,nan,nan,0.0,0.0,0.0,nan,125.853164206,375.806861601,376.30693145,375.992044938,nan,nan,nan,nan
1,212,1,1,1.0,1.0,0.073037577793,0,0.0,0.0,0.0,0.239139972866,0.0780132636528,0.159651193895,0.317008240666,0.0780132636528,0.187835689789,102,1.0,-0.276610342793,-0.434926949461,nan,nan,nan,nan,0.0,0.0,0.0,nan,125.853164206,376.806995026,377.307075138,376.880032604,nan,nan,nan,nan
1,213,1,1,nan,nan,nan,0,0.0,0.0,0.0,0.238329717281,0.0786785233854,0.159651193895,0.317008240666,0.0786785233854,0.129110457376,159,1.0,-0.231765974528,0.149055008463,nan,nan,nan,nan,0.0,0.0,0.0,nan,125.853164206,377.815445587,378.315538243,nan,nan,nan,nan,nan
1,214,1,1,nan,nan,nan,0,0.0,0.0,0.0,0.238329717281,0.0786785233854,0.159651193895,0.317008240666,0.0786785233854,0.073037577793,387,-0.0787219327085,0.477231755363,-0.256974454483,nan,nan,nan,nan,0.0,0.0,0.0,nan,125.853164206,378.815582148,379.315665111,nan,nan,nan,nan,nan
1,215,1,1,1.0,1.0,0.792205618694,0,0.0,0.0,0.0,0.238329717281,0.0786785233854,0.153598489714,0.328438380783,0.0786785233854,0.792205618694,74,1.0,-0.159715158178,-0.810443278181,nan,nan,nan,nan,0.0,0.0,0.0,nan,125.853164206,379.815711867,380.315794545,380.607917486,nan,nan,nan,nan
1,216,1,1,nan,nan,nan,0,0.0,0.0,0.0,0.241018435249,0.0874199455344,0.153598489714,0.328438380783,0.0874199455344,0.792205618694,397,-0.0275613476434,0.473159987783,-0.37569455347,nan,nan,nan,nan,0.0,0.0,0.0,nan,125.853164206,380.824186376,381.324269624,nan,nan,nan,nan,nan
1,217,1,1,nan,nan,nan,0,0.0,0.0,0.0,0.241018435249,0.0874199455344,0.153598489714,0.328438380783,0.0874199455344,0.792205618694,295,0.0860222946478,0.38372732295,0.554986075565,nan,nan,nan,nan,0.0,0.0,0.0,nan,125.853164206,381.824305831,382.324409321,nan,nan,nan,nan,nan
1,218,0,0,0.0,1.0,0.591355060227,0,0.0,0.0,0.0,0.241018435249,0.0874199455344,0.153598489714,0.328438380783,0.0874199455344,0.591355060227,80,1.0,-0.189075709245,-0.708965549488,nan,nan,nan,nan,0.0,0.0,0.0,nan,125.853164206,382.82447803,383.324520509,383.41583309,nan,nan,nan,nan
1,219,1,1,1.0,1.0,0.239275363274,0,0.0,0.0,0.0,0.242710882712,0.0905283920334,0.152383539624,0.33300519196,0.0905283920334,0.415315211751,472,0.51429864939,0.352212277195,-1.0,nan,nan,nan,nan,0.0,0.0,0.0,nan,125.853164206,383.824570687,384.32462514,384.06384605,nan,nan,nan,nan
1,220,1,1,nan,nan,nan,0,0.0,0.0,0.0,0.242694365792,0.0903108261684,0.152383539624,0.33300519196,0.0903108261684,0.415315211751,178,1.0,-0.139919655122,0.315097826042,nan,nan,nan,nan,0.0,0.0,0.0,nan,125.853164206,384.824698125,385.324792207,nan,nan,nan,nan,nan
1,221,1,1,nan,nan,nan,0,0.0,0.0,0.0,0.242694365792,0.0903108261684,0.152383539624,0.33300519196,0.0903108261684,0.239275363274,439,0.251144291643,0.426392204401,-1.0,nan,nan,nan,nan,0.0,0.0,0.0,nan,125.853164206,385.824858635,386.324909382,nan,nan,nan,nan,nan
1,222,1,1,nan,nan,nan,0,0.0,0.0,0.0,0.242694365792,0.0903108261684,0.152383539624,0.33300519196,0.0903108261684,nan,220,0.861731547614,0.0893272636146,0.581247684387,nan,nan,nan,nan,0.0,0.0,0.0,nan,125.853164206,386.833286387,387.333376478,nan,nan,nan,nan,nan
1,223,1,1,1.0,1.0,0.0540364319459,0,0.0,0.0,0.0,0.242694365792,0.0903108261684,0.152383539624,0.33300519196,0.0903108261684,0.0540364319459,0,0.846831709088,0.212097570855,-1.0,nan,nan,nan,nan,0.0,0.0,0.0,nan,125.853164206,387.8417589,388.3418316,387.895795332,nan,nan,nan,nan
1,224,1,1,1.0,1.0,0.0138574251905,0,0.0,0.0,0.0,0.241791696252,0.0910302265237,0.150761469728,0.332821922776,0.0910302265237,0.0339469285682,314,-0.0594438881467,0.42463230952,0.441925406839,nan,nan,nan,nan,0.0,0.0,0.0,nan,125.853164206,388.841900023,389.341968162,388.855757448,nan,nan,nan,nan
1,225,1,1,1.0,1.0,0.14175736066,0,1.0,0.0,0.0,0.240706294961,0.0921589098406,0.148547385121,0.332865204802,0.0921589098406,0.0698837392653,226,0.801265930663,0.120208988367,0.60458276857,nan,nan,nan,nan,0.0,0.0,0.0,nan,125.853164206,389.842015773,390.342087047,389.983773133,nan,nan,nan,nan
1,226,1,1,1.0,1.0,0.205585734919,1,0.0,0.0,1.0,0.240237342666,0.0921910767778,0.148046265888,0.332428419444,0.0921910767778,0.12040017359,330,-0.139766326074,0.449518327743,0.319540245599,-147.355359865,237.355359865,5.32410986508,338.0,-0.162891363375,0.458928707883,0.250399161362,3.32587928185,125.853164206,390.842161457,391.342215341,391.047747192,396.009481471,397.009474629,392.667357076,396.001150366
1,227,0,0,1.0,0.0,0.277922543697,0,0.0,0.0,0.0,0.240073891686,0.0920040282799,0.148069863406,0.332077919966,0.0920040282799,0.208421879758,119,1.0,-0.309446327048,-0.250710895617,nan,nan,nan,nan,0.0,0.0,0.0,nan,125.853164206,397.209678017,397.70970111,397.487600561,nan,nan,nan,nan
1,228,1,1,1.0,1.0,0.0938057545573,0,0.0,0.0,0.0,0.240251584888,0.0918242589075,0.14842732598,0.332075843796,0.0918242589075,0.192438011058,44,1.0,-0.00106984144607,-1.0,nan,nan,nan,nan,0.0,0.0,0.0,nan,125.853164206,398.209781222,398.709835961,398.303586977,nan,nan,nan,nan
1,229,1,1,1.0,1.0,0.213660252281,0,0.0,0.0,0.0,0.239567258578,0.092152278943,0.147414979635,0.331719537521,0.092152278943,0.195129516845,392,-0.0541067903503,0.475522277549,-0.315549842675,nan,nan,nan,nan,0.0,0.0,0.0,nan,125.853164206,399.209912367,399.709977369,399.423572619,nan,nan,nan,nan
1,230,1,1,1.0,1.0,0.253470343538,0,0.0,0.0,0.0,0.239446760874,0.0919546184664,0.147492142408,0.331401379341,0.0919546184664,0.186978783458,339,-0.164955840019,0.45996923152,0.241423096872,nan,nan,nan,nan,0.0,0.0,0.0,nan,125.853164206,400.210062613,400.710073161,400.463532956,nan,nan,nan,nan
1,231,1,1,1.0,1.0,0.231607393827,0,0.0,0.0,0.0,0.239511684868,0.0917464526442,0.147765232224,0.331258137512,0.0917464526442,0.232912663215,171,1.0,-0.176011872558,0.256450910142,nan,nan,nan,nan,0.0,0.0,0.0,nan,125.853164206,401.255929875,401.760222581,401.487537269,nan,nan,nan,nan
1,232,1,1,1.0,1.0,0.235179089475,0,0.0,0.0,0.0,0.239475259564,0.0915363766331,0.147938882931,0.331011636197,0.0915363766331,0.240085608947,25,1.0,0.0970682892709,-1.0,nan,nan,nan,nan,0.0,0.0,0.0,nan,125.853164206,402.260311531,402.760330347,402.49549062,nan,nan,nan,nan
1,233,1,1,1.0,1.0,0.211056461558,0,0.0,0.0,0.0,0.239455552362,0.0913266509038,0.148128901458,0.330782203265,0.0913266509038,0.225947648287,176,1.0,-0.150429669724,0.298675466069,nan,nan,nan,nan,0.0,0.0,0.0,nan,125.853164206,403.260432127,403.760477743,403.471488588,nan,nan,nan,nan
1,234,1,1,1.0,1.0,0.250893636607,0,0.0,0.0,0.0,0.239325876148,0.0911380178632,0.148187858285,0.330463894011,0.0911380178632,0.23237639588,488,0.647907709101,0.302951493728,-1.0,nan,nan,nan,nan,0.0,0.0,0.0,nan,125.853164206,404.260550157,404.760588075,404.511443794,nan,nan,nan,nan
1,235,1,1,1.0,1.0,0.250689792447,0,0.0,0.0,0.0,0.239378456877,0.0909339793614,0.148444477516,0.330312436239,0.0909339793614,0.237546630204,362,-0.164239727892,0.476000155386,0.0174578511848,nan,nan,nan,nan,0.0,0.0,0.0,nan,125.853164206,405.260717794,405.76071979,405.511407587,nan,nan,nan,nan
1,236,1,1,1.0,1.0,0.226621617563,0,0.0,0.0,0.0,0.239429639391,0.0907311891657,0.148698450225,0.330160828557,0.0907311891657,0.242735015539,115,1.0,-0.305166285737,-0.293172749504,nan,nan,nan,nan,0.0,0.0,0.0,nan,125.853164206,406.260833259,406.760855781,406.487454876,nan,nan,nan,nan
1,237,1,1,1.0,1.0,0.298107982147,0,0.0,0.0,0.0,0.239371945599,0.0905306718817,0.148841273717,0.329902617481,0.0905306718817,0.258473130719,282,0.208142307666,0.34807905204,0.609295500931,nan,nan,nan,nan,0.0,0.0,0.0,nan,125.853164206,407.269292372,407.769316605,407.567400354,nan,nan,nan,nan
1,238,1,1,1.0,1.0,0.273945725523,0,0.0,0.0,0.0,0.239635335898,0.0904126716854,0.149222664212,0.330048007583,0.0904126716854,0.266225108411,125,1.0,-0.311567427947,-0.187805059354,nan,nan,nan,nan,0.0,0.0,0.0,nan,125.853164206,408.269428078,408.769464001,408.543373804,nan,nan,nan,nan
1,239,1,1,1.0,1.0,0.249803995714,0,0.0,0.0,0.0,0.23978850728,0.0902396255749,0.149548881705,0.330028132855,0.0902396255749,0.273952567795,345,-0.173519535469,0.465595146217,0.186119282857,nan,nan,nan,nan,0.0,0.0,0.0,nan,125.853164206,409.269543543,409.76958089,409.519347538,nan,nan,nan,nan
1,240,1,1,1.0,1.0,0.249651753809,0,0.0,0.0,0.0,0.239833020562,0.0900413344474,0.149791686114,0.329874355009,0.0900413344474,0.257800491682,194,1.0,-0.0524864644427,0.435571704399,nan,nan,nan,nan,0.0,0.0,0.0,nan,125.853164206,410.26968267,410.769702341,410.519334424,nan,nan,nan,nan
1,241,0,0,1.0,0.0,0.265414197464,0,0.0,0.0,0.0,0.239876466284,0.0898442706394,0.150032195645,0.329720736923,0.0898442706394,0.254956648995,74,1.0,-0.159715158178,-0.810443278181,nan,nan,nan,nan,0.0,0.0,0.0,nan,125.853164206,411.269887655,411.769860855,411.535301852,nan,nan,nan,nan
1,242,1,1,1.0,1.0,0.233382123057,0,0.0,0.0,0.0,0.239988967302,0.0896621095593,0.150326857743,0.329651076862,0.0896621095593,0.249482691443,243,0.622151010882,0.20168048164,0.647463484622,nan,nan,nan,nan,0.0,0.0,0.0,nan,125.853164206,412.269938402,412.769957503,412.503320525,nan,nan,nan,nan
1,243,0,0,0.0,1.0,0.409161250107,0,0.0,0.0,0.0,0.239959989915,0.0894663313158,0.1504936586,0.329426321231,0.0894663313158,0.302652523542,316,-0.0718215561597,0.428203514031,0.427892255365,nan,nan,nan,nan,0.0,0.0,0.0,nan,125.853164206,413.270084657,413.770112596,413.679245907,nan,nan,nan,nan
1,244,1,1,1.0,1.0,0.233061959036,0,0.0,0.0,0.0,0.240698860047,0.0899652339646,0.150733626083,0.330664094012,0.0899652339646,0.291868444066,74,1.0,-0.159715158178,-0.810443278181,nan,nan,nan,nan,0.0,0.0,0.0,nan,125.853164206,414.270203827,414.77022635,414.503265786,nan,nan,nan,nan
1,245,1,1,1.0,1.0,0.27288801549,0,0.0,0.0,0.0,0.24066565613,0.0897708505389,0.150894805591,0.330436506669,0.0897708505389,0.305037074878,413,0.0683106243366,0.461143133648,-0.585495598612,nan,nan,nan,nan,0.0,0.0,0.0,nan,125.853164206,415.270321572,415.770346661,415.543209588,nan,nan,nan,nan
1,246,1,1,1.0,1.0,0.216771515552,0,0.0,0.0,0.0,0.240805146863,0.0896013072728,0.15120383959,0.330406454136,0.0896013072728,0.240907163359,472,0.51429864939,0.352212277195,-1.0,nan,nan,nan,nan,0.0,0.0,0.0,nan,125.853164206,416.270449011,416.770484648,416.487220526,nan,nan,nan,nan
1,247,1,1,1.0,1.0,0.272637985647,0,0.0,0.0,0.0,0.240701553625,0.0894218547528,0.151279698872,0.330123408377,0.0894218547528,0.25409917223,53,1.0,-0.049257555853,-1.0,nan,nan,nan,nan,0.0,0.0,0.0,nan,125.853164206,417.270577875,417.770630047,417.54321586,nan,nan,nan,nan
1,248,0,0,1.0,0.0,0.280412866268,0,0.0,0.0,0.0,0.240838619856,0.0892541762577,0.151584443599,0.330092796114,0.0892541762577,0.256607455822,256,0.481312611765,0.257047908656,0.656065722404,nan,nan,nan,nan,0.0,0.0,0.0,nan,125.853164206,418.270739239,418.770763473,418.551152105,nan,nan,nan,nan
1,249,1,1,1.0,1.0,0.0322889471427,0,0.0,0.0,0.0,0.241007740568,0.0891006630229,0.151907077545,0.33010840359,0.0891006630229,0.195113266353,436,0.228681708805,0.431413732101,-1.0,nan,nan,nan,nan,0.0,0.0,0.0,nan,125.853164206,419.270846721,419.770909727,419.303135668,nan,nan,nan,nan
1,250,1,1,1.0,1.0,0.240168571938,0,0.0,0.0,0.0,0.240119575489,0.0899429451622,0.150176630327,0.330062520651,0.0899429451622,0.18429012845,510,0.830554458933,0.220436700166,-1.0,nan,nan,nan,nan,0.0,0.0,0.0,nan,125.853164206,420.270969028,420.771010081,420.5111376,nan,nan,nan,nan
1,251,1,1,1.0,1.0,0.232002538163,0,0.0,0.0,0.0,0.240119783101,0.0897521858413,0.15036759726,0.329871968943,0.0897521858413,0.168153352415,84,1.0,-0.20765784414,-0.652191087791,nan,nan,nan,nan,0.0,0.0,0.0,nan,125.853164206,421.271106159,421.771135524,421.503108697,nan,nan,nan,nan
1,252,1,1,1.0,1.0,0.215866332874,0,0.0,0.0,0.0,0.240085533123,0.0895641805895,0.150521352533,0.329649713712,0.0895641805895,0.229345814325,23,1.0,0.106943944166,-1.0,nan,nan,nan,nan,0.0,0.0,0.0,nan,125.853164206,422.271228181,422.77125498,422.487094514,nan,nan,nan,nan
1,253,1,1,1.0,1.0,0.239672788419,0,0.0,0.0,0.0,0.239983771777,0.0893895512212,0.150594220556,0.329373322998,0.0893895512212,0.229180553152,110,1.0,-0.296722754836,-0.346921960777,nan,nan,nan,nan,0.0,0.0,0.0,nan,125.853164206,423.271362747,423.771389831,423.511035535,nan,nan,nan,nan
1,254,1,1,1.0,1.0,0.343507970218,0,0.0,0.0,0.0,0.239982470591,0.0892023500257,0.150780120566,0.329184820617,0.0892023500257,0.266349030503,303,0.0191349273956,0.402522842081,0.512018356663,nan,nan,nan,nan,0.0,0.0,0.0,nan,125.853164206,424.271497312,424.771515558,424.615005283,nan,nan,nan,nan
1,255,1,1,1.0,1.0,0.295408968814,0,0.0,0.0,0.0,0.24041382684,0.0892657556933,0.151148071147,0.329679582533,0.0892657556933,0.292863242483,355,-0.173737462994,0.472683863687,0.0888799762457,nan,nan,nan,nan,0.0,0.0,0.0,nan,125.853164206,425.271620474,425.771641572,425.567029443,nan,nan,nan,nan
1,256,1,1,1.0,1.0,0.270926548168,0,0.0,0.0,0.0,0.24064202245,0.0891504846816,0.151491537768,0.329792507131,0.0891504846816,0.3032811624,69,1.0,-0.134207199312,-0.939648005704,nan,nan,nan,nan,0.0,0.0,0.0,nan,125.853164206,426.280079302,426.780111233,426.551005851,nan,nan,nan,nan
1,257,0,0,0.0,1.0,0.36673111748,0,0.0,0.0,0.0,0.240767165118,0.0889873078535,0.151779857264,0.329754472971,0.0889873078535,0.311022211487,371,-0.14179360683,0.478331938097,-0.0779732583494,nan,nan,nan,nan,0.0,0.0,0.0,nan,125.853164206,427.280240097,427.780263475,427.646971215,nan,nan,nan,nan
1,258,1,1,1.0,1.0,0.0386503166519,0,0.0,0.0,0.0,0.241285535292,0.0891693938297,0.152116141463,0.330454929122,0.0891693938297,0.2254359941,282,0.208142307666,0.34807905204,0.609295500931,nan,nan,nan,nan,0.0,0.0,0.0,nan,125.853164206,428.280325911,428.780406879,428.318976228,nan,nan,nan,nan
1,259,1,1,1.0,1.0,0.102493800223,0,0.0,0.0,0.0,0.240455063085,0.0899232296055,0.149722380827,0.330061530952,0.0899232296055,0.169291744785,499,0.739831889234,0.263827757734,-1.0,nan,nan,nan,nan,0.0,0.0,0.0,nan,125.853164206,429.280458197,429.780537453,429.382951997,nan,nan,nan,nan
1,260,1,1,nan,nan,nan,0,0.0,0.0,0.0,0.239891955889,0.0901695750626,0.149722380827,0.330061530952,0.0901695750626,0.0705720584374,48,1.0,-0.0224273256894,-1.0,nan,nan,nan,nan,0.0,0.0,0.0,nan,125.853164206,430.280580503,430.780668313,nan,nan,nan,nan,nan
1,261,1,1,nan,nan,nan,0,0.0,0.0,0.0,0.239891955889,0.0901695750626,0.149722380827,0.330061530952,0.0901695750626,0.102493800223,309,-0.0258396312562,0.415106541901,0.475305697888,nan,nan,nan,nan,0.0,0.0,0.0,nan,125.853164206,431.280726758,431.780794041,nan,nan,nan,nan,nan
1,262,1,1,1.0,1.0,0.021986966487,0,0.0,0.0,0.0,0.239891955889,0.0901695750626,0.149722380827,0.330061530952,0.0901695750626,0.021986966487,370,-0.144805996584,0.478178727438,-0.0671803333712,nan,nan,nan,nan,0.0,0.0,0.0,nan,125.853164206,432.280869877,432.780924615,432.302856843,nan,nan,nan,nan
1,263,1,1,1.0,1.0,0.01383718336,0,0.0,0.0,0.0,0.23900616325,0.0910479832214,0.147958180028,0.330054146471,0.0910479832214,0.0179120749235,312,-0.0464483572634,0.420925197877,0.455573212045,nan,nan,nan,nan,0.0,0.0,0.0,nan,125.853164206,433.28099931,433.781050913,433.294836494,nan,nan,nan,nan
1,264,1,1,1.0,1.0,0.125755435787,0,1.0,0.0,0.0,0.238094547946,0.0919815743121,0.146112973634,0.330076122258,0.0919815743121,0.0538598618781,251,0.535576518695,0.236509187076,0.655284151108,nan,nan,nan,nan,0.0,0.0,0.0,nan,125.853164206,434.281111354,434.781180347,434.406866789,nan,nan,nan,nan
1,265,1,1,1.0,1.0,0.213570161723,1,0.0,0.0,1.0,0.237641567655,0.0920715855329,0.145569982122,0.329713153188,0.0920715855329,0.117720926957,174,1.0,-0.160790688716,0.281981279739,-32.8557219504,122.85572195,0.511971950433,175.0,1.0,-0.155629953633,0.290361762956,2.85075741727,125.853164206,435.281259034,435.781272148,435.494829196,439.973480561,440.973044648,437.106464346,439.965157439
1,266,1,1,1.0,1.0,0.361010076012,0,0.0,0.0,0.0,0.237544895342,0.0918991276808,0.145645767662,0.329444023023,0.0918991276808,0.233445224507,388,-0.0739633693698,0.476941921698,-0.268577162136,nan,nan,nan,nan,0.0,0.0,0.0,nan,125.853164206,441.173675681,441.673709038,441.534685757,nan,nan,nan,nan
1,267,1,1,1.0,1.0,0.296847283375,0,0.0,0.0,0.0,0.238038756065,0.0920456331108,0.145993122954,0.330084389176,0.0920456331108,0.29047584037,165,1.0,-0.205056383665,0.203745440608,nan,nan,nan,nan,0.0,0.0,0.0,nan,125.853164206,442.173825643,442.67383391,442.470672926,nan,nan,nan,nan
1,268,1,1,1.0,1.0,0.392697467934,0,0.0,1.0,0.0,0.238273052987,0.0919367595721,0.146336293414,0.330209812559,0.0919367595721,0.35018494244,352,-0.17544712699,0.470851603012,0.118673592819,nan,nan,nan,nan,0.0,0.0,0.0,nan,125.853164206,443.173942247,443.673959923,443.566639715,nan,nan,nan,nan
1,269,1,1,1.0,1.0,0.408561691176,1,0.0,0.0,1.0,0.238885848284,0.0922663625376,0.146619485746,0.331152210822,0.0922663625376,0.366035480828,71,1.0,-0.144504067012,-0.877980773838,61.189206257,28.810793743,-21.111081257,41.0,1.0,0.0148395037771,-1.0,2.52553414367,125.853164206,444.17405258,444.674093348,444.582614271,448.541259524,449.541346194,445.999264449,448.532932981
1,270,1,1,1.0,1.0,0.273082736414,0,0.0,0.0,0.0,0.23955650379,0.0926972349707,0.146859268819,0.33225373876,0.0926972349707,0.358113965175,239,0.665069831863,0.183388857662,0.640549267122,nan,nan,nan,nan,0.0,0.0,0.0,nan,125.853164206,449.741456355,450.241480018,450.014539092,nan,nan,nan,nan
1,271,1,1,1.0,1.0,0.24089528434,0,0.0,0.0,0.0,0.239688496831,0.092538399307,0.147150097524,0.332226896138,0.092538399307,0.30751323731,129,1.0,-0.310070485259,-0.146368003411,nan,nan,nan,nan,0.0,0.0,0.0,nan,125.853164206,450.741581228,451.24163283,450.982476512,nan,nan,nan,nan
1,272,1,1,1.0,1.0,0.248783633579,0,0.0,0.0,0.0,0.239693229331,0.0923568040231,0.147336425308,0.332050033354,0.0923568040231,0.254253884777,508,0.814199817736,0.228638933499,-1.0,nan,nan,nan,nan,0.0,0.0,0.0,nan,125.853164206,451.741694696,452.241743163,451.99047833,nan,nan,nan,nan
1,273,1,1,1.0,1.0,0.248612005264,0,0.0,0.0,0.0,0.239728738723,0.0921779872474,0.147550751476,0.33190672597,0.0921779872474,0.246096974394,209,0.967301840512,0.0304835193525,0.52804999659,nan,nan,nan,nan,0.0,0.0,0.0,nan,125.853164206,452.741847794,453.241876018,452.990459799,nan,nan,nan,nan
1,274,1,1,1.0,1.0,0.240494152997,0,0.0,0.0,0.0,0.239763303962,0.092000140133,0.147763163829,0.331763444095,0.092000140133,0.245963263946,49,1.0,-0.027785429985,-1.0,nan,nan,nan,nan,0.0,0.0,0.0,nan,125.853164206,453.741983214,454.241995474,453.982477367,nan,nan,nan,nan
1,275,1,1,1.0,1.0,0.280341306701,0,0.0,0.0,0.0,0.239766136711,0.0918216834156,0.147944453295,0.331587820126,0.0918216834156,0.256482488321,460,0.415848916989,0.383334931935,-1.0,nan,nan,nan,nan,0.0,0.0,0.0,nan,125.853164206,454.742083569,455.242151707,455.022424875,nan,nan,nan,nan
1,276,0,0,0.0,1.0,0.464120256249,0,0.0,0.0,0.0,0.239922797599,0.0916787901637,0.148244007435,0.331601587762,0.0916787901637,0.328318571982,370,-0.144805996584,0.478178727438,-0.0671803333712,nan,nan,nan,nan,0.0,0.0,0.0,nan,125.853164206,455.742255197,456.242279145,456.206375453,nan,nan,nan,nan
1,277,1,1,1.0,1.0,0.271988534369,0,0.0,0.0,0.0,0.240785095517,0.0925486633329,0.148236432184,0.333333758849,0.0925486633329,0.338816699106,39,1.0,0.0253789930673,-1.0,nan,nan,nan,nan,0.0,0.0,0.0,nan,125.853164206,456.742346998,457.242389478,457.014335533,nan,nan,nan,nan
1,278,1,1,1.0,1.0,0.263833619654,0,0.0,0.0,0.0,0.240904648922,0.0923913101963,0.148513338726,0.333295959118,0.0923913101963,0.333314136757,207,0.985653507947,0.0195431921708,0.51699622314,nan,nan,nan,nan,0.0,0.0,0.0,nan,125.853164206,457.742483845,458.242516631,458.006317465,nan,nan,nan,nan
1,279,1,1,1.0,1.0,0.279701264109,0,0.0,0.0,0.0,0.240992164078,0.0922256603777,0.1487665037,0.333217824455,0.0922256603777,0.271841139377,112,1.0,-0.300501516081,-0.325324861792,nan,nan,nan,nan,0.0,0.0,0.0,nan,125.853164206,458.742620406,459.242657184,459.02232167,nan,nan,nan,nan
1,280,1,1,1.0,1.0,0.23955219239,0,0.0,0.0,0.0,0.241139346967,0.0920809834163,0.149058363551,0.333220330384,0.0920809834163,0.261029025385,15,0.965734432428,0.145352784795,-1.0,nan,nan,nan,nan,0.0,0.0,0.0,nan,125.853164206,459.74274813,460.242777495,459.982300322,nan,nan,nan,nan
1,281,1,1,1.0,1.0,0.247446528636,0,0.0,0.0,0.0,0.241133335018,0.0919064738676,0.149226861151,0.333039808886,0.0919064738676,0.255566661712,426,0.156193047225,0.446210853967,-0.81485970128,nan,nan,nan,nan,0.0,0.0,0.0,nan,125.853164206,460.742885832,461.242907214,460.99033236,nan,nan,nan,nan
1,282,1,1,1.0,1.0,0.255236804485,0,0.0,0.0,0.0,0.24115715839,0.0917337182067,0.149423440184,0.332890876597,0.0917337182067,0.247411841837,232,0.739158239773,0.150046616059,0.623712016981,nan,nan,nan,nan,0.0,0.0,0.0,nan,125.853164206,461.743001011,462.243032657,461.998237815,nan,nan,nan,nan
1,283,1,1,1.0,1.0,0.230739559047,0,0.0,0.0,0.0,0.241210089391,0.0915651783353,0.149644911055,0.332775267726,0.0915651783353,0.244474297389,318,-0.0835627602325,0.431640264478,0.413481556053,nan,nan,nan,nan,0.0,0.0,0.0,nan,125.853164206,462.751479511,463.251498042,462.98221907,nan,nan,nan,nan
1,284,1,1,1.0,1.0,0.286657915916,0,0.0,0.0,0.0,0.241170873921,0.0913957850353,0.149775088886,0.332566658957,0.0913957850353,0.257544759816,59,1.0,-0.0814409933332,-1.0,nan,nan,nan,nan,0.0,0.0,0.0,nan,125.853164206,463.751589844,464.251625766,464.038247759,nan,nan,nan,nan
1,285,1,1,1.0,1.0,0.278482759371,0,0.0,0.0,0.0,0.24134060169,0.0912672587033,0.150073342987,0.332607860393,0.0912672587033,0.265293411445,403,0.00657627305109,0.469456436931,-0.450524507496,nan,nan,nan,nan,0.0,0.0,0.0,nan,125.853164206,464.751734103,465.251763753,465.030216862,nan,nan,nan,nan
1,286,1,1,1.0,1.0,0.254323353525,0,0.0,0.0,0.0,0.241478676626,0.091125497933,0.150353178693,0.332604174559,0.091125497933,0.273154676271,69,1.0,-0.134207199312,-0.939648005704,nan,nan,nan,nan,0.0,0.0,0.0,nan,125.853164206,465.751860971,466.251884634,466.006184324,nan,nan,nan,nan
1,287,1,1,1.0,1.0,0.43816274358,0,0.0,0.0,0.0,0.241526249503,0.0909599370327,0.15056631247,0.332486186536,0.0909599370327,0.323656285492,284,0.188465149253,0.353984098999,0.602236276499,nan,nan,nan,nan,0.0,0.0,0.0,nan,125.853164206,466.751988979,467.252038871,467.190151723,nan,nan,nan,nan
1,288,1,1,1.0,1.0,0.254000338726,0,0.0,0.0,0.0,0.242251845422,0.0915714584216,0.150680387,0.333823303844,0.0915714584216,0.31549547861,434,0.213881816697,0.43461034373,-1.0,nan,nan,nan,nan,0.0,0.0,0.0,nan,125.853164206,467.752140366,468.252142361,468.006140704,nan,nan,nan,nan
1,289,1,1,1.0,1.0,0.333861142863,0,0.0,1.0,0.0,0.242295038412,0.0914057391958,0.150889299216,0.333700777608,0.0914057391958,0.342008075056,224,0.821619416966,0.11002478857,0.597264883709,nan,nan,nan,nan,0.0,0.0,0.0,nan,125.853164206,468.752237014,469.252268374,469.086098156,nan,nan,nan,nan
1,290,1,1,1.0,1.0,0.269764777739,1,0.0,0.0,1.0,0.242630445388,0.0914057117533,0.151224733635,0.334036157142,0.0914057117533,0.285875419776,286,0.169078956243,0.359734776014,0.594698705761,-100.463748778,190.463748778,-10.6300012221,271.0,0.320642857732,0.312811632898,0.639400143054,2.35893571004,125.853164206,469.752365592,470.252408357,470.02213037,473.952879736,474.952262786,471.577570335,473.944544355
1,291,1,1,1.0,1.0,0.363501538523,0,0.0,0.0,0.0,0.242729475798,0.0912534314003,0.151476044398,0.333982907198,0.0912534314003,0.322375819708,65,1.0,-0.113312155659,-1.0,nan,nan,nan,nan,0.0,0.0,0.0,nan,125.853164206,475.186473686,475.686444321,475.549975225,nan,nan,nan,nan
1,292,0,0,0.0,1.0,0.467386612669,0,0.0,0.0,0.0,0.243168646935,0.0913769926668,0.151791654269,0.334545639602,0.0913769926668,0.366884309643,169,1.0,-0.185917379452,0.239118302078,nan,nan,nan,nan,0.0,0.0,0.0,nan,125.853164206,476.186566628,476.686594567,476.653953241,nan,nan,nan,nan
1,293,1,1,1.0,1.0,0.362918230239,0,0.0,0.0,0.0,0.243981030869,0.0922008305791,0.15178020029,0.336181861448,0.0922008305791,0.397935460477,332,-0.146647089803,0.45205423783,0.302714191958,nan,nan,nan,nan,0.0,0.0,0.0,nan,125.853164206,477.195016903,477.695032584,477.557935134,nan,nan,nan,nan
1,294,1,1,1.0,1.0,0.250485092402,0,0.0,0.0,0.0,0.24441040704,0.0923102815987,0.152100125441,0.336720688639,0.0923102815987,0.36026331177,185,1.0,-0.102214474652,0.370299946716,nan,nan,nan,nan,0.0,0.0,0.0,nan,125.853164206,478.203476587,478.703525909,478.453961679,nan,nan,nan,nan
1,295,1,1,1.0,1.0,0.234285310376,0,0.0,0.0,0.0,0.244432258426,0.0921448240323,0.152287434394,0.336577082459,0.0921448240323,0.282562877672,85,1.0,-0.212156452387,-0.638781227021,nan,nan,nan,nan,0.0,0.0,0.0,nan,125.853164206,479.203590625,479.703654773,479.437875936,nan,nan,nan,nan
1,296,1,1,1.0,1.0,0.21018064348,0,0.0,0.0,0.0,0.244395889437,0.0919815405587,0.152414348878,0.336377429996,0.0919815405587,0.231650348753,503,0.773020196022,0.248538461814,-1.0,nan,nan,nan,nan,0.0,0.0,0.0,nan,125.853164206,480.2037346,480.703785917,480.413915243,nan,nan,nan,nan
1,297,0,0,1.0,0.0,0.154012255836,0,0.0,0.0,0.0,0.24427369213,0.0918398249134,0.152433867217,0.336113517043,0.0918398249134,0.199492736564,318,-0.0835627602325,0.431640264478,0.413481556053,nan,nan,nan,nan,0.0,0.0,0.0,nan,125.853164206,481.203860898,481.703937018,481.357873153,nan,nan,nan,nan
1,298,1,1,1.0,1.0,0.0978866331279,0,0.0,0.0,0.0,0.243952477054,0.0918336942015,0.152118782853,0.335786171256,0.0918336942015,0.154026510815,381,-0.105403061426,0.478425078289,-0.188431136224,nan,nan,nan,nan,0.0,0.0,0.0,nan,125.853164206,482.203976932,482.704016561,482.301863565,nan,nan,nan,nan
1,299,1,1,1.0,1.0,0.209731330164,0,0.0,0.0,0.0,0.243434513069,0.09208099793,0.151353515139,0.335515510999,0.09208099793,0.153876739709,333,-0.149813480994,0.453275949072,0.294183738108,nan,nan,nan,nan,0.0,0.0,0.0,nan,125.853164206,483.204110072,483.704177925,483.413841403,nan,nan,nan,nan
1,300,1,1,1.0,1.0,0.241164986044,0,0.0,0.0,0.0,0.24331542055,0.0919399204935,0.151375500056,0.335255341043,0.0919399204935,0.182927649779,71,1.0,-0.144504067012,-0.877980773838,nan,nan,nan,nan,0.0,0.0,0.0,nan,125.853164206,484.212645022,484.712635328,484.453810008,nan,nan,nan,nan
1,301,1,1,1.0,1.0,0.225066128187,0,0.0,0.0,0.0,0.243307848597,0.0917780000934,0.151529848504,0.33508584869,0.0917780000934,0.225320814798,511,0.838703193994,0.216284169582,-1.0,nan,nan,nan,nan,0.0,0.0,0.0,nan,125.853164206,485.212704892,485.71277132,485.43777102,nan,nan,nan,nan
1,302,1,1,1.0,1.0,0.192898632959,0,0.0,0.0,0.0,0.243243842561,0.0916231940739,0.151620648487,0.334867036634,0.0916231940739,0.21970991573,356,-0.17284377641,0.473239407326,0.0788368070227,nan,nan,nan,nan,0.0,0.0,0.0,nan,125.853164206,486.212851432,486.712897617,486.405750065,nan,nan,nan,nan
1,303,1,1,1.0,1.0,0.224441195372,0,0.0,0.0,0.0,0.243067810359,0.0915111392215,0.151556671138,0.334578949581,0.0915111392215,0.214135318839,283,0.19826868328,0.351050922538,0.605825948857,nan,nan,nan,nan,0.0,0.0,0.0,nan,125.853164206,487.221297146,487.721366139,487.445738341,nan,nan,nan,nan
1,304,1,1,1.0,1.0,0.191959808115,0,0.0,0.0,0.0,0.243002909262,0.0913581664181,0.151644742843,0.33436107568,0.0913581664181,0.203099878815,346,-0.174317561957,0.466431294057,0.176670174816,nan,nan,nan,nan,0.0,0.0,0.0,nan,125.853164206,488.229769659,488.729829244,488.421729467,nan,nan,nan,nan
1,305,1,1,1.0,1.0,0.167826061137,0,0.0,0.0,0.0,0.242825676272,0.0912488324433,0.151576843828,0.334074508715,0.0912488324433,0.194742354875,260,0.438016636947,0.272781976488,0.654406567654,nan,nan,nan,nan,0.0,0.0,0.0,nan,125.853164206,489.229907645,489.729958963,489.397733707,nan,nan,nan,nan
1,306,1,1,1.0,1.0,0.191342288163,0,0.0,0.0,0.0,0.242566162032,0.0911972293715,0.151368932661,0.333763391404,0.0911972293715,0.183709385805,420,0.1146601879,0.45369410126,-0.695047497311,nan,nan,nan,nan,0.0,0.0,0.0,nan,125.853164206,490.238353074,490.738416936,490.429695362,nan,nan,nan,nan
1,307,1,1,1.0,1.0,0.190858193673,0,0.0,0.0,0.0,0.242389527984,0.0910893640369,0.151300163948,0.333478892021,0.0910893640369,0.183342180991,280,0.228089347314,0.342018854333,0.61587222022,nan,nan,nan,nan,0.0,0.0,0.0,nan,125.853164206,491.246812473,491.746885743,491.437670666,nan,nan,nan,nan
1,308,1,1,1.0,1.0,0.102704772726,0,0.0,0.0,0.0,0.242212444361,0.0909827086561,0.151229735705,0.333195153017,0.0909827086561,0.161635084854,363,-0.162287729338,0.476365729747,0.00704812682028,nan,nan,nan,nan,0.0,0.0,0.0,nan,125.853164206,492.246955591,492.747016032,492.349660364,nan,nan,nan,nan
1,309,1,1,1.0,1.0,0.222181801684,0,0.0,0.0,0.0,0.241734678363,0.0911917113752,0.150542966987,0.332926389738,0.0911917113752,0.171914922694,201,1.0,-0.0135712615467,0.48142235136,nan,nan,nan,nan,0.0,0.0,0.0,nan,125.853164206,493.255416986,493.755453193,493.477598787,nan,nan,nan,nan
1,310,1,1,1.0,1.0,0.196318941657,0,0.0,0.0,0.0,0.241667944995,0.0910431029343,0.150624842061,0.332711047929,0.0910431029343,0.173735172022,424,0.142174562463,0.448819569244,-0.770229420881,nan,nan,nan,nan,0.0,0.0,0.0,nan,125.853164206,494.297287758,494.797255827,494.4936067,nan,nan,nan,nan
1,311,1,1,1.0,1.0,0.284200665075,0,0.0,0.0,0.0,0.241513696684,0.090926478271,0.150587218413,0.332440174955,0.090926478271,0.234233802805,91,1.0,-0.237709898716,-0.562722318432,nan,nan,nan,nan,0.0,0.0,0.0,nan,125.853164206,495.297351335,495.797394384,495.581552,nan,nan,nan,nan
1,312,1,1,1.0,1.0,0.3960382347,0,0.0,0.0,0.0,0.241658398272,0.0908061371204,0.150852261152,0.332464535393,0.0908061371204,0.292185947144,361,-0.166047812515,0.475607712818,0.0278173107143,nan,nan,nan,nan,0.0,0.0,0.0,nan,125.853164206,496.297506142,496.797502151,496.693544377,nan,nan,nan,nan
1,313,1,1,1.0,1.0,0.363933175337,0,0.0,1.0,0.0,0.242179951774,0.0910941413378,0.151085810436,0.333274093111,0.0910941413378,0.34805735837,300,0.0433537089178,0.395748422077,0.528951029102,nan,nan,nan,nan,0.0,0.0,0.0,nan,125.853164206,497.297596233,497.797642419,497.661529408,nan,nan,nan,nan
1,314,1,1,1.0,1.0,0.315716428682,1,0.0,0.0,1.0,0.242589895287,0.0912137413037,0.151376153984,0.333803636591,0.0912137413037,0.358562612906,213,0.929785093221,0.0521668813814,0.548906519778,-98.8033056407,188.803305641,39.0376806407,269.0,0.34171296506,0.305888347675,0.643262349404,2.62564681377,125.853164206,498.29777841,498.797768432,498.613494839,502.764950915,503.764295476,500.122935826,502.75661867
1,315,0,0,0.0,1.0,0.544190036599,0,0.0,0.0,0.0,0.242835286339,0.0911587170757,0.151676569263,0.333994003415,0.0911587170757,0.407946546872,427,0.163265173604,0.444863218481,-0.840208708629,nan,nan,nan,nan,0.0,0.0,0.0,nan,125.853164206,503.965159149,504.465213888,504.509349186,nan,nan,nan,nan
1,316,1,1,1.0,1.0,0.312075169757,0,0.0,0.0,0.0,0.243843161758,0.0926543662456,0.151188795512,0.336497528004,0.0926543662456,0.390660545013,92,1.0,-0.241703663401,-0.55060883727,nan,nan,nan,nan,0.0,0.0,0.0,nan,125.853164206,504.965250381,505.465293145,505.277325551,nan,nan,nan,nan
1,317,1,1,1.0,1.0,0.263641464058,0,0.0,0.0,0.0,0.244070601785,0.0925833810132,0.151487220771,0.336653982798,0.0925833810132,0.373302223471,34,1.0,0.0514419701458,-1.0,nan,nan,nan,nan,0.0,0.0,0.0,nan,125.853164206,505.973717192,506.473759671,506.237358656,nan,nan,nan,nan
1,318,1,1,1.0,1.0,0.247165423352,0,0.0,0.0,0.0,0.244135621261,0.0924363205089,0.151699300752,0.336571941769,0.0924363205089,0.274294019056,490,0.664660387652,0.296157848571,-1.0,nan,nan,nan,nan,0.0,0.0,0.0,nan,125.853164206,506.982174024,507.482228763,507.229339447,nan,nan,nan,nan
1,319,1,1,1.0,1.0,0.278996218927,0,0.0,0.0,0.0,0.244145653718,0.0922833174892,0.151862336229,0.336428971207,0.0922833174892,0.263267702113,298,0.0600896634305,0.391050340636,0.53969689008,nan,nan,nan,nan,0.0,0.0,0.0,nan,125.853164206,507.982312582,508.482355916,508.2613088,nan,nan,nan,nan
1,320,1,1,1.0,1.0,0.27081450494,0,0.0,0.0,0.0,0.244260672085,0.0921525887146,0.15210808337,0.336413260799,0.0921525887146,0.26565871574,429,0.177531820842,0.442080780324,-0.901885199234,nan,nan,nan,nan,0.0,0.0,0.0,nan,125.853164206,508.982480504,509.482487346,509.253295009,nan,nan,nan,nan
1,321,1,1,1.0,1.0,0.233759591356,0,0.0,0.0,0.0,0.244348020219,0.0920134602473,0.152334559972,0.336361480467,0.0920134602473,0.261190105074,238,0.675741828754,0.178727669763,0.638511091232,nan,nan,nan,nan,0.0,0.0,0.0,nan,125.853164206,510.011522766,510.51601732,510.245282357,nan,nan,nan,nan
1,322,0,0,1.0,0.0,0.253143052105,0,0.0,0.0,0.0,0.244313304059,0.0918644888437,0.152448815215,0.336177792903,0.0918644888437,0.2525723828,147,1.0,-0.275801134503,0.0346720467303,nan,nan,nan,nan,0.0,0.0,0.0,nan,125.853164206,511.016081752,511.516110832,511.269224804,nan,nan,nan,nan
1,323,1,1,1.0,1.0,0.173079258762,0,0.0,0.0,0.0,0.244342159445,0.0917156451036,0.152626514341,0.336057804548,0.0917156451036,0.219993967408,84,1.0,-0.20765784414,-0.652191087791,nan,nan,nan,nan,0.0,0.0,0.0,nan,125.853164206,512.016169562,512.516234564,512.189248821,nan,nan,nan,nan
1,324,1,1,1.0,1.0,0.228890704922,0,0.0,0.0,0.0,0.244110032733,0.0916561390663,0.152453893666,0.335766171799,0.0916561390663,0.218371005263,263,0.405698801511,0.284171736334,0.651829885785,nan,nan,nan,nan,0.0,0.0,0.0,nan,125.853164206,513.016322944,513.516374547,513.245213649,nan,nan,nan,nan
1,325,1,1,1.0,1.0,0.244733260479,0,0.0,0.0,0.0,0.244060619331,0.091511321407,0.152549297924,0.335571940738,0.091511321407,0.215567741388,503,0.773020196022,0.248538461814,-1.0,nan,nan,nan,nan,0.0,0.0,0.0,nan,125.853164206,514.016429,514.516474331,514.261162261,nan,nan,nan,nan
1,326,1,1,1.0,1.0,0.284600941464,0,0.0,0.0,0.0,0.244062796163,0.0913631328252,0.152699663338,0.335425928988,0.0913631328252,0.252741635622,422,0.128328379107,0.451313674078,-0.730894888444,nan,nan,nan,nan,0.0,0.0,0.0,nan,125.853164206,515.016556724,515.516596067,515.301157665,nan,nan,nan,nan
1,327,1,1,1.0,1.0,0.476424758323,0,0.0,0.0,0.0,0.244193564373,0.0912446136346,0.152948950739,0.335438178008,0.0912446136346,0.335252986755,507,0.805995650865,0.232688349973,-1.0,nan,nan,nan,nan,0.0,0.0,0.0,nan,125.853164206,516.016711531,516.516719229,516.49313629,nan,nan,nan,nan
1,328,1,1,1.0,1.0,0.29196784785,0,0.0,1.0,0.0,0.24494028847,0.0920416438181,0.152898644652,0.336981932288,0.0920416438181,0.350997849212,392,-0.0541067903503,0.475522277549,-0.315549842675,nan,nan,nan,nan,0.0,0.0,0.0,nan,125.853164206,517.025152969,517.525184329,517.317120817,nan,nan,nan,nan
1,329,0,0,1.0,0.0,0.259818883613,0,0.0,0.0,0.0,0.245091017827,0.0919324596719,0.153158558155,0.337023477499,0.0919324596719,0.342737163262,175,1.0,-0.155629953633,0.290361762956,nan,nan,nan,nan,0.0,0.0,0.0,nan,125.853164206,518.025281262,518.525353392,518.285100146,nan,nan,nan,nan
1,330,1,1,1.0,1.0,0.251650854014,0,0.0,0.0,0.0,0.245138071711,0.0917892482083,0.153348823503,0.336927319919,0.0917892482083,0.267812528492,436,0.228681708805,0.431413732101,-1.0,nan,nan,nan,nan,0.0,0.0,0.0,nan,125.853164206,519.025418964,519.525479975,519.277069818,nan,nan,nan,nan
1,331,0,0,1.0,0.0,0.283473667689,0,0.0,0.0,0.0,0.245158813056,0.0916437050904,0.153515107965,0.336802518146,0.0916437050904,0.264981135105,4,0.879126049628,0.195014037372,-1.0,nan,nan,nan,nan,0.0,0.0,0.0,nan,125.853164206,520.025583465,520.525615111,520.309057133,nan,nan,nan,nan
1,332,1,1,1.0,1.0,0.267373383977,0,0.0,0.0,0.0,0.245280447515,0.091523506115,0.1537569414,0.33680395363,0.091523506115,0.267499301893,421,0.121471671064,0.452518040197,-0.712610339232,nan,nan,nan,nan,0.0,0.0,0.0,nan,125.853164206,521.025663577,521.525714895,521.293036961,nan,nan,nan,nan
1,333,1,1,1.0,1.0,0.251216080971,0,0.0,0.0,0.0,0.245350361871,0.0913870002817,0.153963361589,0.336737362153,0.0913870002817,0.267354377545,198,1.0,-0.0302354974571,0.462326941081,nan,nan,nan,nan,0.0,0.0,0.0,nan,125.853164206,522.02580185,522.525849176,522.277017931,nan,nan,nan,nan
1,334,1,1,1.0,1.0,0.235038821585,0,0.0,0.0,0.0,0.245368865717,0.0912433357905,0.154125529926,0.336612201507,0.0912433357905,0.251209428844,341,-0.168535884224,0.46196150489,0.223260112086,nan,nan,nan,nan,0.0,0.0,0.0,nan,125.853164206,523.025941262,523.525977469,523.260980084,nan,nan,nan,nan
1,335,1,1,1.0,1.0,0.226926671341,0,0.0,0.0,0.0,0.245336381301,0.0911015943989,0.154234786902,0.3364379757,0.0911015943989,0.237727191299,393,-0.0489456633786,0.475102171109,-0.327443230616,nan,nan,nan,nan,0.0,0.0,0.0,nan,125.853164206,524.026075542,524.526128571,524.253002214,nan,nan,nan,nan
1,336,1,1,1.0,1.0,0.210793316364,0,0.0,0.0,0.0,0.245278670612,0.0909645115724,0.154314159039,0.336243182184,0.0909645115724,0.22425293643,209,0.967301840512,0.0304835193525,0.52804999659,nan,nan,nan,nan,0.0,0.0,0.0,nan,125.853164206,525.026188156,525.526253728,525.236981472,nan,nan,nan,nan
1,337,1,1,1.0,1.0,0.258607221302,0,0.0,0.0,0.0,0.24517090388,0.0908426616793,0.1543282422,0.336013565559,0.0908426616793,0.232109069669,254,0.503011129055,0.248947817922,0.65613358125,nan,nan,nan,nan,0.0,0.0,0.0,nan,125.853164206,526.026319586,526.526372043,526.284926807,nan,nan,nan,nan
1,338,1,1,1.0,1.0,0.290450561326,0,0.0,0.0,0.0,0.245212761566,0.0907041424884,0.154508619078,0.335916904055,0.0907041424884,0.253283699664,303,0.0191349273956,0.402522842081,0.512018356663,nan,nan,nan,nan,0.0,0.0,0.0,nan,125.853164206,527.026464985,527.526507179,527.316915547,nan,nan,nan,nan
1,339,1,1,1.0,1.0,0.30631136382,0,0.0,0.0,0.0,0.245353251628,0.090598160848,0.15475509078,0.335951412476,0.090598160848,0.285123048816,24,1.0,0.102019060141,-1.0,nan,nan,nan,nan,0.0,0.0,0.0,nan,125.853164206,528.026588717,528.526612095,528.332900081,nan,nan,nan,nan
1,340,1,1,1.0,1.0,0.418158341665,0,0.0,1.0,0.0,0.245541976433,0.0905211775903,0.155020798843,0.336063154024,0.0905211775903,0.338306755604,364,-0.160194321586,0.476704516321,-0.00341124574885,nan,nan,nan,nan,0.0,0.0,0.0,nan,125.853164206,529.026703896,529.52674324,529.444862238,nan,nan,nan,nan
1,341,1,1,1.0,1.0,0.322011655662,1,0.0,0.0,1.0,0.246074742993,0.0908871475934,0.155187595399,0.336961890586,0.0908871475934,0.348827120382,6,0.895129075663,0.186272780825,-1.0,69.9739109059,20.0260890941,15.8073390941,28.0,1.0,0.082066132397,-1.0,1.85054387944,125.853164206,530.026834756,530.526868112,530.348846412,533.718951653,534.718394858,531.852042635,533.710621403
1,342,1,1,1.0,1.0,0.285635843407,0,0.0,0.0,0.0,0.246308395032,0.0908446199674,0.155463775064,0.337153014999,0.0908446199674,0.341935280245,64,1.0,-0.108036866323,-1.0,nan,nan,nan,nan,0.0,0.0,0.0,nan,125.853164206,534.919132803,535.419173287,535.204768647,nan,nan,nan,nan
1,343,1,1,1.0,1.0,0.229462609626,0,0.0,0.0,0.0,0.246429031376,0.0907312491641,0.155697782212,0.33716028054,0.0907312491641,0.279036702899,117,1.0,-0.307587969795,-0.271886539361,nan,nan,nan,nan,0.0,0.0,0.0,nan,125.853164206,535.919259671,536.419306142,536.148722281,nan,nan,nan,nan
1,344,1,1,1.0,1.0,0.27733723959,0,0.0,0.0,0.0,0.246377146294,0.0905972537502,0.155779892544,0.336974400045,0.0905972537502,0.264145230874,184,1.0,-0.107671891867,0.362640045218,nan,nan,nan,nan,0.0,0.0,0.0,nan,125.853164206,536.919391101,537.41943244,537.196728341,nan,nan,nan,nan
1,345,1,1,1.0,1.0,0.269142126199,0,0.0,0.0,0.0,0.246471536823,0.0904751449094,0.155996391913,0.336946681732,0.0904751449094,0.258647325138,501,0.7564492333,0.256253544744,-1.0,nan,nan,nan,nan,0.0,0.0,0.0,nan,125.853164206,537.919532509,538.419577269,538.188674635,nan,nan,nan,nan
1,346,1,1,1.0,1.0,0.250997697003,0,0.0,0.0,0.0,0.246540444389,0.090346159678,0.156194284711,0.336886604067,0.090346159678,0.265825687597,328,-0.132159558243,0.44685796506,0.336046158271,nan,nan,nan,nan,0.0,0.0,0.0,nan,125.853164206,538.969664252,539.469699604,539.220661949,nan,nan,nan,nan
1,347,1,1,1.0,1.0,0.226873358246,0,0.0,0.0,0.0,0.246553951215,0.0902095003724,0.156344450843,0.336763451588,0.0902095003724,0.249004393816,381,-0.105403061426,0.478425078289,-0.188431136224,nan,nan,nan,nan,0.0,0.0,0.0,nan,125.853164206,539.969792546,540.469831034,540.196665904,nan,nan,nan,nan
1,348,1,1,1.0,1.0,0.250698059797,0,0.0,0.0,0.0,0.246494493231,0.090079604968,0.156414888263,0.336574098199,0.090079604968,0.242856371682,194,1.0,-0.0524864644427,0.435571704399,nan,nan,nan,nan,0.0,0.0,0.0,nan,125.853164206,540.969928253,541.469954766,541.220626312,nan,nan,nan,nan
1,349,0,0,1.0,0.0,0.274511358235,0,0.0,0.0,0.0,0.246507154576,0.0899441355783,0.156563018997,0.336451290154,0.0899441355783,0.250694258759,114,1.0,-0.303747463913,-0.303859371662,nan,nan,nan,nan,0.0,0.0,0.0,nan,125.853164206,541.970095889,542.470115276,542.244607247,nan,nan,nan,nan
1,350,1,1,1.0,1.0,0.226363319438,0,0.0,0.0,0.0,0.246591251283,0.0898220539583,0.156769197325,0.336413305242,0.0898220539583,0.250524245823,180,1.0,-0.129278616986,0.331238955499,nan,nan,nan,nan,0.0,0.0,0.0,nan,125.853164206,542.970207362,543.470217056,543.196570682,nan,nan,nan,nan
1,351,1,1,1.0,1.0,0.290242725983,0,0.0,0.0,0.0,0.246530688613,0.0896942978916,0.156836390722,0.336224986505,0.0896942978916,0.263705801219,326,-0.12383419111,0.444071765824,0.352223541474,nan,nan,nan,nan,0.0,0.0,0.0,nan,125.853164206,543.970322256,544.470343639,544.260564982,nan,nan,nan,nan
1,352,1,1,1.0,1.0,0.274078010581,0,0.0,0.0,0.0,0.246661172307,0.089592067901,0.157069104406,0.336253240208,0.089592067901,0.263561352001,265,0.384259149088,0.291568309415,0.649478858709,nan,nan,nan,nan,0.0,0.0,0.0,nan,125.853164206,544.970453401,545.470483907,545.244531412,nan,nan,nan,nan
1,353,1,1,1.0,1.0,0.265957307536,0,0.0,0.0,0.0,0.24674277004,0.0894711127759,0.157271657264,0.336213882816,0.0894711127759,0.276759348034,476,0.547545041103,0.340739382997,-1.0,nan,nan,nan,nan,0.0,0.0,0.0,nan,125.853164206,545.970582835,546.470605073,546.236540142,nan,nan,nan,nan
1,354,1,1,1.0,1.0,0.281792165246,0,0.0,0.0,0.0,0.246799786472,0.089344380731,0.157455405741,0.336144167202,0.089344380731,0.273942494454,311,-0.0397249783266,0.419020224334,0.462250212202,nan,nan,nan,nan,0.0,0.0,0.0,nan,125.853164206,546.97073023,547.470733081,547.252522395,nan,nan,nan,nan
1,355,1,1,1.0,1.0,0.28166586766,0,0.0,0.0,0.0,0.246903314219,0.0892323579762,0.157670956243,0.336135672196,0.0892323579762,0.276471780147,380,-0.109519508899,0.478533032186,-0.177177385375,nan,nan,nan,nan,0.0,0.0,0.0,nan,125.853164206,547.970828874,548.47087563,548.252494741,nan,nan,nan,nan
1,356,1,1,1.0,1.0,0.273517794907,0,0.0,0.0,0.0,0.247005858625,0.0891205921993,0.157885266425,0.336126450824,0.0891205921993,0.278991942604,256,0.481312611765,0.257047908656,0.656065722404,nan,nan,nan,nan,0.0,0.0,0.0,nan,125.853164206,548.970955742,549.470997937,549.244473537,nan,nan,nan,nan
1,357,1,1,1.0,1.0,0.265357177705,0,0.0,0.0,0.0,0.247083834908,0.0890010165152,0.158082818393,0.336084851423,0.0890010165152,0.273513613424,65,1.0,-0.113312155659,-1.0,nan,nan,nan,nan,0.0,0.0,0.0,nan,125.853164206,549.971100857,550.471121383,550.236458034,nan,nan,nan,nan
1,358,1,1,1.0,1.0,0.273182235658,0,0.0,0.0,0.0,0.247137422424,0.0888759136243,0.158261508799,0.336013336048,0.0888759136243,0.27068573609,435,0.221263830514,0.433027056876,-1.0,nan,nan,nan,nan,0.0,0.0,0.0,nan,125.853164206,550.971216891,551.471249677,551.244399127,nan,nan,nan,nan
1,359,1,1,1.0,1.0,0.24103384139,0,0.0,0.0,0.0,0.247213576848,0.088757024342,0.158456552506,0.33597060119,0.088757024342,0.259857751584,326,-0.12383419111,0.444071765824,0.352223541474,nan,nan,nan,nan,0.0,0.0,0.0,nan,125.853164206,551.971369703,552.471384528,552.212403544,nan,nan,nan,nan
1,360,1,1,1.0,1.0,0.200903586578,0,0.0,0.0,0.0,0.247195560127,0.0886281727768,0.15856738735,0.335823732904,0.0886281727768,0.238373221209,254,0.503011129055,0.248947817922,0.65613358125,nan,nan,nan,nan,0.0,0.0,0.0,nan,125.853164206,552.971474333,553.471509971,553.17237792,nan,nan,nan,nan
1,361,1,1,1.0,1.0,0.216778357979,0,0.0,0.0,0.0,0.247060990436,0.0885343449266,0.15852664551,0.335595335363,0.0885343449266,0.219571928649,394,-0.0437090198531,0.474655926729,-0.339401417396,nan,nan,nan,nan,0.0,0.0,0.0,nan,125.853164206,553.97159778,554.471635413,554.188376138,nan,nan,nan,nan
1,362,1,1,1.0,1.0,0.232603807934,0,0.0,0.0,0.0,0.24697321469,0.088420929705,0.158552284985,0.335394144395,0.088420929705,0.216761917497,336,-0.158211608236,0.456758111158,0.268135266647,nan,nan,nan,nan,0.0,0.0,0.0,nan,125.853164206,554.97174432,555.471765132,555.204348128,nan,nan,nan,nan