block,trial,freq_trials,correct_response,actual_response,acc,rts,probe_trials,fast_rt_trigger,slow_rt_trigger,rt_triggered,rts_runningavg,rts_runningstd,rts_runningfastthresh,rts_runningslowthresh,rts_runningstd,rts_trailingavg,trials_colorind0,trials_colorind1,trials_colorind2,trials_colorind3,trials_colorind4,trials_colorind5,wholereport_resp0,wholereport_resp1,wholereport_resp2,wholereport_resp3,wholereport_resp4,wholereport_resp5,wholereport_respacc0,wholereport_respacc1,wholereport_respacc2,wholereport_respacc3,wholereport_respacc4,wholereport_respacc5,wholereport_respacc_total,wholereport_respcolorind0,wholereport_respcolorind1,wholereport_respcolorind2,wholereport_respcolorind3,wholereport_respcolorind4,wholereport_respcolorind5,wholereport_resporder0,wholereport_resporder1,wholereport_resporder2,wholereport_resporder3,wholereport_resporder4,wholereport_resporder5,wholereport_rts0,wholereport_rts1,wholereport_rts2,wholereport_rts3,wholereport_rts4,wholereport_rts5,time_blockstart,time_encarray_offset,time_encarray_onset,time_response,time_iti_offset,time_iti_onset,time_memprobe_offset,time_memprobe_onset
1,1,1,1,nan,nan,nan,0,nan,nan,nan,nan,nan,nan,nan,nan,nan,6,2,3,1,0,7,nan,nan,nan,nan,nan,nan,nan,nan,nan,nan,nan,nan,0.0,nan,nan,nan,nan,nan,nan,nan,nan,nan,nan,nan,nan,nan,nan,nan,nan,nan,nan,149.31367974635214,150.3296619586181,nan,nan,nan,nan,nan,nan
1,2,1,1,nan,nan,nan,0,nan,nan,nan,nan,nan,nan,nan,nan,nan,6,4,7,8,3,0,nan,nan,nan,nan,nan,nan,nan,nan,nan,nan,nan,nan,0.0,nan,nan,nan,nan,nan,nan,nan,nan,nan,nan,nan,nan,nan,nan,nan,nan,nan,nan,149.31367974635214,151.3465111486148,nan,nan,nan,nan,nan,nan
1,3,1,1,1.0,1.0,0.0697319838218391,0,nan,nan,nan,nan,nan,nan,nan,nan,nan,1,6,3,0,5,2,nan,nan,nan,nan,nan,nan,nan,nan,nan,nan,nan,nan,0.0,nan,nan,nan,nan,nan,nan,nan,nan,nan,nan,nan,nan,nan,nan,nan,nan,nan,nan,149.31367974635214,152.37994752521627,nan,152.4496795090381,nan,nan,nan,nan
1,4,0,0,1.0,0.0,0.26087877503596246,0,nan,nan,nan,nan,nan,nan,nan,nan,nan,2,3,6,1,7,0,nan,nan,nan,nan,nan,nan,nan,nan,nan,nan,nan,nan,0.0,nan,nan,nan,nan,nan,nan,nan,nan,nan,nan,nan,nan,nan,nan,nan,nan,nan,nan,149.31367974635214,153.39674311713316,nan,153.65762189216912,nan,nan,nan,nan
1,5,1,1,1.0,1.0,0.6120201721787453,0,nan,nan,nan,nan,nan,nan,nan,nan,nan,6,4,1,0,8,2,nan,nan,nan,nan,nan,nan,nan,nan,nan,nan,nan,nan,0.0,nan,nan,nan,nan,nan,nan,nan,nan,nan,nan,nan,nan,nan,nan,nan,nan,nan,nan,149.31367974635214,154.413564652903,nan,155.02558482508175,nan,nan,nan,nan
1,6,1,1,1.0,1.0,0.3712150261271745,0,nan,nan,nan,nan,nan,nan,nan,nan,nan,8,1,3,6,2,4,nan,nan,nan,nan,nan,nan,nan,nan,nan,nan,nan,nan,0.0,nan,nan,nan,nan,nan,nan,nan,nan,nan,nan,nan,nan,nan,nan,nan,nan,nan,nan,149.31367974635214,155.4303613852244,nan,155.80157641135156,nan,nan,nan,nan
1,7,1,1,nan,nan,nan,0,nan,nan,nan,nan,nan,nan,nan,nan,nan,7,3,2,5,8,6,nan,nan,nan,nan,nan,nan,nan,nan,nan,nan,nan,nan,0.0,nan,nan,nan,nan,nan,nan,nan,nan,nan,nan,nan,nan,nan,nan,nan,nan,nan,nan,149.31367974635214,156.44714614353143,nan,nan,nan,nan,nan,nan
1,8,1,1,1.0,1.0,0.18559311563149095,0,nan,nan,nan,nan,nan,nan,nan,nan,nan,3,6,0,8,7,5,nan,nan,nan,nan,nan,nan,nan,nan,nan,nan,nan,nan,0.0,nan,nan,nan,nan,nan,nan,nan,nan,nan,nan,nan,nan,nan,nan,nan,nan,nan,nan,149.31367974635214,157.46395000326447,nan,157.64954311889596,nan,nan,nan,nan
1,9,1,1,1.0,1.0,0.5287532426882535,0,nan,nan,nan,nan,nan,nan,nan,nan,nan,1,4,6,7,5,2,nan,nan,nan,nan,nan,nan,nan,nan,nan,nan,nan,nan,0.0,nan,nan,nan,nan,nan,nan,nan,nan,nan,nan,nan,nan,nan,nan,nan,nan,nan,nan,149.31367974635214,158.48075101198629,nan,159.00950425467454,nan,nan,nan,nan
1,10,1,1,1.0,1.0,0.29593392834067345,0,nan,nan,nan,nan,nan,nan,nan,nan,nan,2,3,8,6,7,5,nan,nan,nan,nan,nan,nan,nan,nan,nan,nan,nan,nan,0.0,nan,nan,nan,nan,nan,nan,nan,nan,nan,nan,nan,nan,nan,nan,nan,nan,nan,nan,149.31367974635214,159.49755601212382,nan,159.7934899404645,nan,nan,nan,nan
1,11,1,1,1.0,1.0,0.29239645367488265,0,nan,nan,nan,nan,nan,nan,nan,nan,nan,8,0,5,7,3,1,nan,nan,nan,nan,nan,nan,nan,nan,nan,nan,nan,nan,0.0,nan,nan,nan,nan,nan,nan,nan,nan,nan,nan,nan,nan,nan,nan,nan,nan,nan,nan,149.31367974635214,160.58104360639118,nan,160.87344006006606,nan,nan,nan,nan
1,12,1,1,1.0,1.0,0.2675862351898104,1,nan,nan,nan,nan,nan,nan,nan,nan,nan,7,8,2,4,0,3,1.0,1.0,1.0,1.0,1.0,1.0,1.0,0.0,0.0,0.0,0.0,0.0,1.0,7.0,5.0,4.0,7.0,7.0,4.0,1.0,2.0,3.0,4.0,5.0,6.0,3.105896446853876,3.777752340771258,4.368962480453774,5.095942595275119,5.687672750558704,8.999225108418614,149.31367974635214,161.59784433012828,162.40626077121124,161.8654305653181,172.45758750964887,173.45447853463702,163.42306434595957,172.44925214978866
1,13,1,1,nan,nan,nan,0,nan,nan,nan,nan,nan,nan,nan,nan,nan,2,4,6,1,3,0,nan,nan,nan,nan,nan,nan,nan,nan,nan,nan,nan,nan,0.0,nan,nan,nan,nan,nan,nan,nan,nan,nan,nan,nan,nan,nan,nan,nan,nan,nan,nan,149.31367974635214,173.67445283615962,nan,nan,nan,nan,nan,nan
1,14,0,0,1.0,0.0,0.253907315665856,0,nan,nan,nan,nan,nan,nan,nan,nan,nan,6,5,4,0,8,7,nan,nan,nan,nan,nan,nan,nan,nan,nan,nan,nan,nan,0.0,nan,nan,nan,nan,nan,nan,nan,nan,nan,nan,nan,nan,nan,nan,nan,nan,nan,nan,149.31367974635214,174.69122875644825,nan,174.9451360721141,nan,nan,nan,nan
1,15,1,1,1.0,1.0,0.4690421079285443,0,nan,nan,nan,nan,nan,nan,nan,nan,nan,1,3,7,6,5,2,nan,nan,nan,nan,nan,nan,nan,nan,nan,nan,nan,nan,0.0,nan,nan,nan,nan,nan,nan,nan,nan,nan,nan,nan,nan,nan,nan,nan,nan,nan,nan,149.31367974635214,175.7080554238055,nan,176.17709753173403,nan,nan,nan,nan
1,16,1,1,1.0,1.0,0.36423529917374253,0,nan,nan,nan,nan,nan,nan,nan,nan,nan,8,7,2,3,4,5,nan,nan,nan,nan,nan,nan,nan,nan,nan,nan,nan,nan,0.0,nan,nan,nan,nan,nan,nan,nan,nan,nan,nan,nan,nan,nan,nan,nan,nan,nan,nan,149.31367974635214,176.72484902013093,nan,177.08908431930467,nan,nan,nan,nan
1,17,1,1,1.0,1.0,0.3870278913527727,0,nan,nan,nan,nan,nan,nan,nan,nan,nan,4,3,1,6,2,0,nan,nan,nan,nan,nan,nan,nan,nan,nan,nan,nan,nan,0.0,nan,nan,nan,nan,nan,nan,nan,nan,nan,nan,nan,nan,nan,nan,nan,nan,nan,nan,149.31367974635214,177.7500352805946,nan,178.13706317194737,nan,nan,nan,nan
1,18,1,1,1.0,1.0,0.3862501485273242,0,nan,nan,nan,nan,nan,nan,nan,nan,nan,5,6,8,7,1,3,nan,nan,nan,nan,nan,nan,nan,nan,nan,nan,nan,nan,0.0,nan,nan,nan,nan,nan,nan,nan,nan,nan,nan,nan,nan,nan,nan,nan,nan,nan,nan,149.31367974635214,178.76678696786985,nan,179.15303711639717,nan,nan,nan,nan
1,19,1,1,1.0,1.0,0.34543120372109115,0,nan,nan,nan,nan,nan,nan,nan,nan,nan,3,0,7,6,5,8,nan,nan,nan,nan,nan,nan,nan,nan,nan,nan,nan,nan,0.0,nan,nan,nan,nan,nan,nan,nan,nan,nan,nan,nan,nan,nan,nan,nan,nan,nan,nan,149.31367974635214,179.78357600257732,nan,180.1290072062984,nan,nan,nan,nan
1,20,1,1,1.0,1.0,0.6485974546521902,0,nan,nan,nan,nan,nan,nan,nan,nan,nan,5,3,4,8,1,0,nan,nan,nan,nan,nan,nan,nan,nan,nan,nan,nan,nan,0.0,nan,nan,nan,nan,nan,nan,nan,nan,nan,nan,nan,nan,nan,nan,nan,nan,nan,nan,149.31367974635214,180.80037986231036,nan,181.44897731696256,nan,nan,nan,nan
1,21,1,1,1.0,1.0,0.4237722400575876,0,nan,nan,nan,nan,nan,nan,nan,nan,nan,6,2,3,7,0,1,nan,nan,nan,nan,nan,nan,nan,nan,nan,nan,nan,nan,0.0,nan,nan,nan,nan,nan,nan,nan,nan,nan,nan,nan,nan,nan,nan,nan,nan,nan,nan,149.31367974635214,181.8171862878371,nan,182.2409585278947,nan,nan,nan,nan
1,22,1,1,1.0,1.0,0.3669397223275155,0,nan,nan,nan,nan,nan,nan,nan,nan,nan,8,6,2,4,1,3,nan,nan,nan,nan,nan,nan,nan,nan,nan,nan,nan,nan,0.0,nan,nan,nan,nan,nan,nan,nan,nan,nan,nan,nan,nan,nan,nan,nan,nan,nan,nan,149.31367974635214,182.83398872218095,nan,183.20092844450846,nan,nan,nan,nan
1,23,1,1,1.0,1.0,0.34213235485367477,0,nan,nan,nan,nan,nan,nan,nan,nan,nan,0,3,5,6,8,1,nan,nan,nan,nan,nan,nan,nan,nan,nan,nan,nan,nan,0.0,nan,nan,nan,nan,nan,nan,nan,nan,nan,nan,nan,nan,nan,nan,nan,nan,nan,nan,149.31367974635214,183.85078317369334,nan,184.19291552854702,nan,nan,nan,nan
1,24,1,1,1.0,1.0,0.4932906867470592,0,nan,nan,nan,nan,nan,nan,nan,nan,nan,6,5,2,0,1,7,nan,nan,nan,nan,nan,nan,nan,nan,nan,nan,nan,nan,0.0,nan,nan,nan,nan,nan,nan,nan,nan,nan,nan,nan,nan,nan,nan,nan,nan,nan,nan,149.31367974635214,184.86758845904842,nan,185.36087914579548,nan,nan,nan,nan
1,25,1,1,1.0,1.0,0.36448703915812075,0,nan,nan,nan,nan,nan,nan,nan,nan,nan,0,2,1,3,6,8,nan,nan,nan,nan,nan,nan,nan,nan,nan,nan,nan,nan,0.0,nan,nan,nan,nan,nan,nan,nan,nan,nan,nan,nan,nan,nan,nan,nan,nan,nan,nan,149.31367974635214,185.88438832736574,nan,186.24887536652386,nan,nan,nan,nan
1,26,1,1,1.0,1.0,0.3156380725558847,0,nan,nan,nan,nan,nan,nan,nan,nan,nan,8,6,3,4,1,0,nan,nan,nan,nan,nan,nan,nan,nan,nan,nan,nan,nan,0.0,nan,nan,nan,nan,nan,nan,nan,nan,nan,nan,nan,nan,nan,nan,nan,nan,nan,nan,149.31367974635214,186.9012010251172,nan,187.21683909767307,nan,nan,nan,nan
1,27,1,1,1.0,1.0,0.2828095213044435,0,nan,nan,nan,nan,nan,nan,nan,nan,nan,0,4,2,5,8,6,nan,nan,nan,nan,nan,nan,nan,nan,nan,nan,nan,nan,0.0,nan,nan,nan,nan,nan,nan,nan,nan,nan,nan,nan,nan,nan,nan,nan,nan,nan,nan,149.31367974635214,187.91800260404125,nan,188.2008121253457,nan,nan,nan,nan
1,28,1,1,1.0,1.0,0.27399462927132845,0,nan,nan,nan,nan,nan,nan,nan,nan,nan,4,5,3,8,6,1,nan,nan,nan,nan,nan,nan,nan,nan,nan,nan,nan,nan,0.0,nan,nan,nan,nan,nan,nan,nan,nan,nan,nan,nan,nan,nan,nan,nan,nan,nan,nan,149.31367974635214,188.93479534517974,nan,189.20878997445107,nan,nan,nan,nan
1,29,1,1,1.0,1.0,0.39319708943367004,0,nan,nan,nan,nan,nan,nan,nan,nan,nan,1,4,8,2,3,5,nan,nan,nan,nan,nan,nan,nan,nan,nan,nan,nan,nan,0.0,nan,nan,nan,nan,nan,nan,nan,nan,nan,nan,nan,nan,nan,nan,nan,nan,nan,nan,149.31367974635214,189.9515729760751,nan,190.34477006550878,nan,nan,nan,nan
1,30,1,1,1.0,1.0,0.5363311015535146,0,nan,nan,nan,nan,nan,nan,nan,nan,nan,7,6,5,0,1,8,nan,nan,nan,nan,nan,nan,nan,nan,nan,nan,nan,nan,0.0,nan,nan,nan,nan,nan,nan,nan,nan,nan,nan,nan,nan,nan,nan,nan,nan,nan,nan,149.31367974635214,190.96841731946915,nan,191.50474842102267,nan,nan,nan,nan
1,31,1,1,1.0,1.0,0.46352036320604384,0,nan,nan,nan,nan,nan,nan,nan,nan,nan,6,2,4,1,7,0,nan,nan,nan,nan,nan,nan,nan,nan,nan,nan,nan,nan,0.0,nan,nan,nan,nan,nan,nan,nan,nan,nan,nan,nan,nan,nan,nan,nan,nan,nan,nan,149.31367974635214,191.9852035031654,nan,192.44872386637144,nan,nan,nan,nan
1,32,0,0,0.0,1.0,0.3747194295283407,0,nan,nan,nan,nan,nan,nan,nan,nan,nan,0,7,6,3,4,2,nan,nan,nan,nan,nan,nan,nan,nan,nan,nan,nan,nan,0.0,nan,nan,nan,nan,nan,nan,nan,nan,nan,nan,nan,nan,nan,nan,nan,nan,nan,nan,149.31367974635214,193.0019876912702,nan,193.37670712079853,nan,nan,nan,nan
1,33,1,1,1.0,1.0,0.4138791139703244,0,nan,nan,nan,nan,nan,nan,nan,nan,nan,5,3,7,1,8,0,nan,nan,nan,nan,nan,nan,nan,nan,nan,nan,nan,nan,0.0,nan,nan,nan,nan,nan,nan,nan,nan,nan,nan,nan,nan,nan,nan,nan,nan,nan,nan,149.31367974635214,194.01879269140773,nan,194.43267180537805,nan,nan,nan,nan
1,34,1,1,1.0,1.0,0.7090427121147513,0,nan,nan,nan,nan,nan,nan,nan,nan,nan,1,8,0,2,3,5,nan,nan,nan,nan,nan,nan,nan,nan,nan,nan,nan,nan,0.0,nan,nan,nan,nan,nan,nan,nan,nan,nan,nan,nan,nan,nan,nan,nan,nan,nan,nan,149.31367974635214,195.035601682961,nan,195.74464439507574,nan,nan,nan,nan
1,35,0,0,0.0,1.0,0.5798898215871304,0,nan,nan,nan,nan,nan,nan,nan,nan,nan,3,7,2,6,0,1,nan,nan,nan,nan,nan,nan,nan,nan,nan,nan,nan,nan,0.0,nan,nan,nan,nan,nan,nan,nan,nan,nan,nan,nan,nan,nan,nan,nan,nan,nan,nan,149.31367974635214,196.06074090255424,nan,196.64063072414137,nan,nan,nan,nan
1,36,1,1,1.0,1.0,0.44262993335723877,0,nan,nan,nan,nan,nan,nan,nan,nan,nan,1,2,0,5,8,4,nan,nan,nan,nan,nan,nan,nan,nan,nan,nan,nan,nan,0.0,nan,nan,nan,nan,nan,nan,nan,nan,nan,nan,nan,nan,nan,nan,nan,nan,nan,nan,149.31367974635214,197.08597306348383,nan,197.52860299684107,nan,nan,nan,nan
1,37,1,1,1.0,1.0,0.3859519378747791,0,nan,nan,nan,nan,nan,nan,nan,nan,nan,4,6,2,1,3,5,nan,nan,nan,nan,nan,nan,nan,nan,nan,nan,nan,nan,0.0,nan,nan,nan,nan,nan,nan,nan,nan,nan,nan,nan,nan,nan,nan,nan,nan,nan,nan,149.31367974635214,198.10263808141463,nan,198.4885900192894,nan,nan,nan,nan
1,38,1,1,1.0,1.0,0.41614905069582164,0,nan,nan,nan,nan,nan,nan,nan,nan,nan,6,2,7,8,5,1,nan,nan,nan,nan,nan,nan,nan,nan,nan,nan,nan,nan,0.0,nan,nan,nan,nan,nan,nan,nan,nan,nan,nan,nan,nan,nan,nan,nan,nan,nan,nan,149.31367974635214,199.1204158300534,nan,199.5365648807492,nan,nan,nan,nan
1,39,1,1,1.0,1.0,0.3598656284157187,0,nan,nan,nan,nan,nan,nan,nan,nan,nan,5,7,6,0,1,4,nan,nan,nan,nan,nan,nan,nan,nan,nan,nan,nan,nan,0.0,nan,nan,nan,nan,nan,nan,nan,nan,nan,nan,nan,nan,nan,nan,nan,nan,nan,nan,149.31367974635214,200.14466070267372,nan,200.50452633108944,nan,nan,nan,nan
1,40,1,1,1.0,1.0,0.4310929421335459,0,nan,nan,nan,nan,nan,nan,nan,nan,nan,1,4,3,5,8,0,nan,nan,nan,nan,nan,nan,nan,nan,nan,nan,nan,nan,0.0,nan,nan,nan,nan,nan,nan,nan,nan,nan,nan,nan,nan,nan,nan,nan,nan,nan,nan,149.31367974635214,201.16141010913998,nan,201.59250305127352,nan,nan,nan,nan
1,41,0,0,1.0,0.0,0.3662486490793526,0,nan,nan,nan,nan,nan,nan,nan,nan,nan,6,8,2,0,5,7,nan,nan,nan,nan,nan,nan,nan,nan,nan,nan,nan,nan,0.0,nan,nan,nan,nan,nan,nan,nan,nan,nan,nan,nan,nan,nan,nan,nan,nan,nan,nan,149.31367974635214,202.17823107447475,nan,202.5444797235541,nan,nan,nan,nan
1,42,1,1,1.0,1.0,0.5073687408585101,0,nan,nan,nan,nan,nan,nan,nan,nan,nan,8,2,7,5,4,1,nan,nan,nan,nan,nan,nan,nan,nan,nan,nan,nan,nan,0.0,nan,nan,nan,nan,nan,nan,nan,nan,nan,nan,nan,nan,nan,nan,nan,nan,nan,nan,149.31367974635214,203.24509156867862,nan,203.75246030953713,nan,nan,nan,nan
1,43,1,1,1.0,1.0,0.4422752733808011,0,nan,nan,nan,nan,nan,nan,nan,nan,nan,5,1,6,7,8,3,nan,nan,nan,nan,nan,nan,nan,nan,nan,nan,nan,nan,0.0,nan,nan,nan,nan,nan,nan,nan,nan,nan,nan,nan,nan,nan,nan,nan,nan,nan,nan,149.31367974635214,204.270162650384,nan,204.7124379237648,nan,nan,nan,nan
1,44,1,1,1.0,1.0,0.6334599824622273,0,nan,nan,nan,nan,nan,nan,nan,nan,nan,6,5,7,1,0,4,nan,nan,nan,nan,nan,nan,nan,nan,nan,nan,nan,nan,0.0,nan,nan,nan,nan,nan,nan,nan,nan,nan,nan,nan,nan,nan,nan,nan,nan,nan,nan,149.31367974635214,205.28695510630496,nan,205.9204150887672,nan,nan,nan,nan
1,45,1,1,1.0,1.0,0.6482864145655185,1,nan,nan,nan,nan,nan,nan,nan,nan,nan,3,6,1,2,8,7,1.0,1.0,1.0,1.0,1.0,1.0,0.0,0.0,0.0,0.0,1.0,0.0,1.0,1.0,2.0,0.0,7.0,8.0,4.0,3.0,4.0,5.0,6.0,1.0,2.0,3.0462716962210834,3.7172081547323614,4.172556803328916,4.676325063453987,2.125630526104942,2.5589537764899433,149.31367974635214,206.3120991725009,207.12052046041936,206.9603855870664,212.8462675337214,213.85758386040106,208.12896244623698,212.83793388446793
1,46,1,1,1.0,1.0,0.6644354080781341,0,nan,nan,nan,nan,nan,nan,nan,nan,nan,8,3,4,7,0,6,nan,nan,nan,nan,nan,nan,nan,nan,nan,nan,nan,nan,0.0,nan,nan,nan,nan,nan,nan,nan,nan,nan,nan,nan,nan,nan,nan,nan,nan,nan,nan,149.31367974635214,214.0797645219136,nan,214.74419992999174,nan,nan,nan,nan
1,47,1,1,1.0,1.0,0.42354929470457137,0,nan,nan,nan,nan,nan,nan,nan,nan,nan,2,4,6,8,1,3,nan,nan,nan,nan,nan,nan,nan,nan,nan,nan,nan,nan,0.0,nan,nan,nan,nan,nan,nan,nan,nan,nan,nan,nan,nan,nan,nan,nan,nan,nan,nan,149.31367974635214,215.09663794515654,nan,215.52018723986112,nan,nan,nan,nan
1,48,0,0,1.0,0.0,0.20678289653733373,0,nan,nan,nan,nan,nan,nan,nan,nan,nan,4,3,8,5,6,0,nan,nan,nan,nan,nan,nan,nan,nan,nan,nan,nan,nan,0.0,nan,nan,nan,nan,nan,nan,nan,nan,nan,nan,nan,nan,nan,nan,nan,nan,nan,nan,149.31367974635214,216.11339305341244,nan,216.32017594994977,nan,nan,nan,nan
1,49,1,1,1.0,1.0,0.3819223870523274,0,nan,nan,nan,nan,nan,nan,nan,nan,nan,0,7,4,1,8,2,nan,nan,nan,nan,nan,nan,nan,nan,nan,nan,nan,nan,0.0,nan,nan,nan,nan,nan,nan,nan,nan,nan,nan,nan,nan,nan,nan,nan,nan,nan,nan,149.31367974635214,217.13022057618946,nan,217.51214296324179,nan,nan,nan,nan
1,50,1,1,1.0,1.0,0.4127324568107724,0,nan,nan,nan,nan,nan,nan,nan,nan,nan,1,3,6,0,2,7,nan,nan,nan,nan,nan,nan,nan,nan,nan,nan,nan,nan,0.0,nan,nan,nan,nan,nan,nan,nan,nan,nan,nan,nan,nan,nan,nan,nan,nan,nan,nan,149.31367974635214,218.15538944583386,nan,218.56812190264463,nan,nan,nan,nan
1,51,1,1,1.0,1.0,0.31561469472944736,0,nan,nan,nan,nan,nan,nan,nan,nan,nan,5,7,0,1,4,2,nan,nan,nan,nan,nan,nan,nan,nan,nan,nan,nan,nan,0.0,nan,nan,nan,nan,nan,nan,nan,nan,nan,nan,nan,nan,nan,nan,nan,nan,nan,nan,149.31367974635214,219.18046908034012,nan,219.49608377506956,nan,nan,nan,nan
1,52,1,1,1.0,1.0,0.4184760064817965,1,nan,nan,nan,nan,nan,nan,nan,nan,nan,4,2,7,0,1,3,1.0,1.0,1.0,1.0,1.0,1.0,0.0,0.0,0.0,0.0,0.0,0.0,0.0,6.0,5.0,4.0,4.0,5.0,4.0,2.0,3.0,4.0,5.0,6.0,1.0,2.5267889292445034,3.8068253190722317,4.222129059256986,4.726397378137335,5.182538879336789,2.1206384904216975,149.31367974635214,220.20560003211722,221.01401276723482,220.62407603859901,227.24818001664244,228.25609371927567,222.03083059657365,227.23984266119078
1,53,1,1,nan,nan,nan,0,nan,nan,nan,nan,nan,nan,nan,nan,nan,7,5,0,3,8,6,nan,nan,nan,nan,nan,nan,nan,nan,nan,nan,nan,nan,0.0,nan,nan,nan,nan,nan,nan,nan,nan,nan,nan,nan,nan,nan,nan,nan,nan,nan,nan,149.31367974635214,228.47337414580397,nan,nan,nan,nan,nan,nan
1,54,1,1,1.0,1.0,0.6376725651789457,0,nan,nan,nan,nan,nan,nan,nan,nan,nan,1,2,7,6,5,0,nan,nan,nan,nan,nan,nan,nan,nan,nan,nan,nan,nan,0.0,nan,nan,nan,nan,nan,nan,nan,nan,nan,nan,nan,nan,nan,nan,nan,nan,nan,nan,149.31367974635214,229.49017829075456,nan,230.1278508559335,nan,nan,nan,nan
1,55,1,1,1.0,1.0,0.3968269354663789,0,nan,nan,nan,nan,nan,nan,nan,nan,nan,5,7,3,0,4,1,nan,nan,nan,nan,nan,nan,nan,nan,nan,nan,nan,nan,0.0,nan,nan,nan,nan,nan,nan,nan,nan,nan,nan,nan,nan,nan,nan,nan,nan,nan,nan,149.31367974635214,230.50698842247948,nan,230.90381535794586,nan,nan,nan,nan
1,56,1,1,1.0,1.0,0.2600423025432974,0,nan,nan,nan,nan,nan,nan,nan,nan,nan,3,0,4,1,5,2,nan,nan,nan,nan,nan,nan,nan,nan,nan,nan,nan,nan,0.0,nan,nan,nan,nan,nan,nan,nan,nan,nan,nan,nan,nan,nan,nan,nan,nan,nan,nan,149.31367974635214,231.5237666235771,nan,231.7838089261204,nan,nan,nan,nan
1,57,1,1,1.0,1.0,0.2512048881035298,0,nan,nan,nan,nan,nan,nan,nan,nan,nan,2,3,1,8,4,7,nan,nan,nan,nan,nan,nan,nan,nan,nan,nan,nan,nan,0.0,nan,nan,nan,nan,nan,nan,nan,nan,nan,nan,nan,nan,nan,nan,nan,nan,nan,nan,149.31367974635214,232.54058445314877,nan,232.7917893412523,nan,nan,nan,nan
1,58,1,1,1.0,1.0,0.25837220856919885,0,nan,nan,nan,nan,nan,nan,nan,nan,nan,4,2,3,1,8,0,nan,nan,nan,nan,nan,nan,nan,nan,nan,nan,nan,nan,0.0,nan,nan,nan,nan,nan,nan,nan,nan,nan,nan,nan,nan,nan,nan,nan,nan,nan,nan,149.31367974635214,233.55737719405442,nan,233.81574940262362,nan,nan,nan,nan
1,59,1,1,1.0,1.0,0.6495556633453816,0,nan,nan,nan,nan,nan,nan,nan,nan,nan,6,5,0,2,3,4,nan,nan,nan,nan,nan,nan,nan,nan,nan,nan,nan,nan,0.0,nan,nan,nan,nan,nan,nan,nan,nan,nan,nan,nan,nan,nan,nan,nan,nan,nan,nan,149.31367974635214,234.5741750667803,nan,235.22373073012568,nan,nan,nan,nan
1,60,1,1,1.0,1.0,0.6647279169410467,0,nan,nan,nan,nan,nan,nan,nan,nan,nan,2,6,4,0,8,1,nan,nan,nan,nan,nan,nan,nan,nan,nan,nan,nan,nan,0.0,nan,nan,nan,nan,nan,nan,nan,nan,nan,nan,nan,nan,nan,nan,nan,nan,nan,nan,149.31367974635214,235.59097778610885,nan,236.2557057030499,nan,nan,nan,nan
1,61,1,1,1.0,1.0,0.5039256333839148,0,nan,nan,nan,nan,nan,nan,nan,nan,nan,6,1,8,4,7,3,nan,nan,nan,nan,nan,nan,nan,nan,nan,nan,nan,nan,0.0,nan,nan,nan,nan,nan,nan,nan,nan,nan,nan,nan,nan,nan,nan,nan,nan,nan,nan,149.31367974635214,236.60774771939032,nan,237.11167335277423,nan,nan,nan,nan
1,62,1,1,1.0,1.0,0.5751244374550879,0,nan,nan,nan,nan,nan,nan,nan,nan,nan,0,3,2,6,8,5,nan,nan,nan,nan,nan,nan,nan,nan,nan,nan,nan,nan,0.0,nan,nan,nan,nan,nan,nan,nan,nan,nan,nan,nan,nan,nan,nan,nan,nan,nan,nan,149.31367974635214,237.6245353287086,nan,238.19965976616368,nan,nan,nan,nan
1,63,1,1,1.0,1.0,0.38989624474197626,0,nan,nan,nan,nan,nan,nan,nan,nan,nan,3,6,4,0,2,7,nan,nan,nan,nan,nan,nan,nan,nan,nan,nan,nan,nan,0.0,nan,nan,nan,nan,nan,nan,nan,nan,nan,nan,nan,nan,nan,nan,nan,nan,nan,nan,149.31367974635214,238.64973898022436,nan,239.03963522496633,nan,nan,nan,nan
1,64,1,1,1.0,1.0,0.4530402240343392,0,nan,nan,nan,nan,nan,nan,nan,nan,nan,4,3,6,7,1,8,nan,nan,nan,nan,nan,nan,nan,nan,nan,nan,nan,nan,0.0,nan,nan,nan,nan,nan,nan,nan,nan,nan,nan,nan,nan,nan,nan,nan,nan,nan,nan,149.31367974635214,239.66656393697485,nan,240.1196041610092,nan,nan,nan,nan
1,65,1,1,1.0,1.0,0.5799351520836353,0,nan,nan,nan,nan,nan,nan,nan,nan,nan,0,8,1,3,7,4,nan,nan,nan,nan,nan,nan,nan,nan,nan,nan,nan,nan,0.0,nan,nan,nan,nan,nan,nan,nan,nan,nan,nan,nan,nan,nan,nan,nan,nan,nan,nan,149.31367974635214,240.69165069889277,nan,241.2715858509764,nan,nan,nan,nan
1,66,1,1,1.0,1.0,0.5311112739145756,0,nan,nan,nan,nan,nan,nan,nan,nan,nan,6,4,2,8,0,7,nan,nan,nan,nan,nan,nan,nan,nan,nan,nan,nan,nan,0.0,nan,nan,nan,nan,nan,nan,nan,nan,nan,nan,nan,nan,nan,nan,nan,nan,nan,nan,149.31367974635214,241.70845512882806,nan,242.23956640274264,nan,nan,nan,nan
1,67,1,1,nan,nan,nan,0,nan,nan,nan,nan,nan,nan,nan,nan,nan,7,0,6,5,2,3,nan,nan,nan,nan,nan,nan,nan,nan,nan,nan,nan,nan,0.0,nan,nan,nan,nan,nan,nan,nan,nan,nan,nan,nan,nan,nan,nan,nan,nan,nan,nan,149.31367974635214,242.72526326496154,nan,nan,nan,nan,nan,nan
1,68,1,1,1.0,1.0,0.5851350231096148,0,nan,nan,nan,nan,nan,nan,nan,nan,nan,2,1,7,4,5,6,nan,nan,nan,nan,nan,nan,nan,nan,nan,nan,nan,nan,0.0,nan,nan,nan,nan,nan,nan,nan,nan,nan,nan,nan,nan,nan,nan,nan,nan,nan,nan,149.31367974635214,243.75038452353328,nan,244.3355195466429,nan,nan,nan,nan
1,69,1,1,1.0,1.0,0.7762889415025711,0,nan,nan,nan,nan,nan,nan,nan,nan,nan,8,0,3,5,2,1,nan,nan,nan,nan,nan,nan,nan,nan,nan,nan,nan,nan,0.0,nan,nan,nan,nan,nan,nan,nan,nan,nan,nan,nan,nan,nan,nan,nan,nan,nan,nan,149.31367974635214,244.7671915194951,nan,245.54348046099767,nan,nan,nan,nan
1,70,1,1,1.0,1.0,0.4391360783483833,0,nan,nan,nan,nan,nan,nan,nan,nan,nan,4,7,2,1,6,5,nan,nan,nan,nan,nan,nan,nan,nan,nan,nan,nan,nan,0.0,nan,nan,nan,nan,nan,nan,nan,nan,nan,nan,nan,nan,nan,nan,nan,nan,nan,nan,149.31367974635214,245.79233073908836,nan,246.23146681743674,nan,nan,nan,nan
1,71,1,1,1.0,1.0,0.4543080471921712,0,nan,nan,nan,nan,nan,nan,nan,nan,nan,1,6,4,8,7,3,nan,nan,nan,nan,nan,nan,nan,nan,nan,nan,nan,nan,0.0,nan,nan,nan,nan,nan,nan,nan,nan,nan,nan,nan,nan,nan,nan,nan,nan,nan,nan,149.31367974635214,246.80914058582857,nan,247.26344863302074,nan,nan,nan,nan
1,72,1,1,1.0,1.0,0.3251808152999729,0,nan,nan,nan,nan,nan,nan,nan,nan,nan,5,7,3,4,2,0,nan,nan,nan,nan,nan,nan,nan,nan,nan,nan,nan,nan,0.0,nan,nan,nan,nan,nan,nan,nan,nan,nan,nan,nan,nan,nan,nan,nan,nan,nan,nan,149.31367974635214,247.83424815977924,nan,248.1594289750792,nan,nan,nan,nan
1,73,1,1,1.0,1.0,0.3003150029107928,0,nan,nan,nan,nan,nan,nan,nan,nan,nan,8,5,4,3,0,2,nan,nan,nan,nan,nan,nan,nan,nan,nan,nan,nan,nan,0.0,nan,nan,nan,nan,nan,nan,nan,nan,nan,nan,nan,nan,nan,nan,nan,nan,nan,nan,149.31367974635214,248.85108993737958,nan,249.15140494029038,nan,nan,nan,nan
1,74,1,1,1.0,1.0,0.42754662968218327,0,nan,nan,nan,nan,nan,nan,nan,nan,nan,2,4,1,7,8,6,nan,nan,nan,nan,nan,nan,nan,nan,nan,nan,nan,nan,0.0,nan,nan,nan,nan,nan,nan,nan,nan,nan,nan,nan,nan,nan,nan,nan,nan,nan,nan,149.31367974635214,249.86783307162113,nan,250.29537970130332,nan,nan,nan,nan
1,75,1,1,1.0,1.0,0.3786854038480669,0,nan,nan,nan,nan,nan,nan,nan,nan,nan,6,5,3,1,7,2,nan,nan,nan,nan,nan,nan,nan,nan,nan,nan,nan,nan,0.0,nan,nan,nan,nan,nan,nan,nan,nan,nan,nan,nan,nan,nan,nan,nan,nan,nan,nan,149.31367974635214,250.8846637303941,nan,251.26334913424216,nan,nan,nan,nan
1,76,1,1,1.0,1.0,0.41747902473434806,1,nan,nan,nan,nan,nan,nan,nan,nan,nan,2,1,0,3,8,5,1.0,1.0,1.0,1.0,1.0,1.0,0.0,0.0,0.0,0.0,0.0,0.0,0.0,6.0,5.0,4.0,8.0,5.0,7.0,2.0,3.0,4.0,5.0,6.0,1.0,2.8783790681045502,3.50244655366987,4.127046884270385,5.158323941752315,5.630069047445431,2.4223570220638067,149.31367974635214,251.90983972745016,252.71821140870452,252.3273187521845,259.39407632662915,260.39134795521386,253.72668732097372,259.3857492345851
1,77,1,1,1.0,1.0,0.588180991820991,0,nan,nan,nan,nan,nan,nan,nan,nan,nan,3,7,5,6,4,0,nan,nan,nan,nan,nan,nan,nan,nan,nan,nan,nan,nan,0.0,nan,nan,nan,nan,nan,nan,nan,nan,nan,nan,nan,nan,nan,nan,nan,nan,nan,nan,149.31367974635214,260.6109419381246,nan,261.1991229299456,nan,nan,nan,nan
1,78,1,1,1.0,1.0,0.32333310623653233,0,nan,nan,nan,nan,nan,nan,nan,nan,nan,4,0,1,2,8,6,nan,nan,nan,nan,nan,nan,nan,nan,nan,nan,nan,nan,0.0,nan,nan,nan,nan,nan,nan,nan,nan,nan,nan,nan,nan,nan,nan,nan,nan,nan,nan,149.31367974635214,261.627780579729,nan,261.95111368596554,nan,nan,nan,nan
1,79,1,1,1.0,1.0,0.3065161320846528,0,nan,nan,nan,nan,nan,nan,nan,nan,nan,3,6,7,8,2,0,nan,nan,nan,nan,nan,nan,nan,nan,nan,nan,nan,nan,0.0,nan,nan,nan,nan,nan,nan,nan,nan,nan,nan,nan,nan,nan,nan,nan,nan,nan,nan,149.31367974635214,262.64457218023017,nan,262.9510883123148,nan,nan,nan,nan
1,80,1,1,1.0,1.0,0.4977302059996873,0,nan,nan,nan,nan,nan,nan,nan,nan,nan,7,8,2,3,1,4,nan,nan,nan,nan,nan,nan,nan,nan,nan,nan,nan,nan,0.0,nan,nan,nan,nan,nan,nan,nan,nan,nan,nan,nan,nan,nan,nan,nan,nan,nan,nan,149.31367974635214,263.661336411722,nan,264.1590666177217,nan,nan,nan,nan
1,81,0,0,1.0,0.0,0.4965154107194394,0,0.0,0.0,0.0,0.4256804972584989,0.136376405121898,0.2893040921366009,0.5620569023803969,0.136376405121898,0.4335872496012598,1,7,3,5,6,8,nan,nan,nan,nan,nan,nan,nan,nan,nan,nan,nan,nan,0.0,nan,nan,nan,nan,nan,nan,nan,nan,nan,nan,nan,nan,nan,nan,nan,nan,nan,nan,149.31367974635214,264.6865104129538,nan,265.18302582367323,nan,nan,nan,nan
1,82,1,1,1.0,1.0,0.4717183066532016,0,0.0,0.0,0.0,0.4266249627713114,0.13570759991030146,0.29091736286100994,0.5623325626816129,0.13570759991030146,0.48865464112410945,3,6,8,1,4,7,nan,nan,nan,nan,nan,nan,nan,nan,nan,nan,nan,nan,0.0,nan,nan,nan,nan,nan,nan,nan,nan,nan,nan,nan,nan,nan,nan,nan,nan,nan,nan,149.31367974635214,265.7032954564784,nan,266.1750137631316,nan,nan,nan,nan
1,83,1,1,1.0,1.0,0.5268921342212707,0,0.0,0.0,0.0,0.42721829624344154,0.13490972150889796,0.2923085747345436,0.5621280177523396,0.13490972150889796,0.4983752838646372,2,1,3,7,5,0,nan,nan,nan,nan,nan,nan,nan,nan,nan,nan,nan,nan,0.0,nan,nan,nan,nan,nan,nan,nan,nan,nan,nan,nan,nan,nan,nan,nan,nan,nan,nan,149.31367974635214,266.72009703540243,nan,267.2469891696237,nan,nan,nan,nan
1,84,1,1,1.0,1.0,0.5180758167989552,0,0.0,0.0,0.0,0.42851276167172503,0.1345050549148161,0.2940077067569089,0.5630178165865412,0.1345050549148161,0.5055620858911425,7,3,6,8,2,4,nan,nan,nan,nan,nan,nan,nan,nan,nan,nan,nan,nan,0.0,nan,nan,nan,nan,nan,nan,nan,nan,nan,nan,nan,nan,nan,nan,nan,nan,nan,nan,149.31367974635214,267.7368914869148,nan,268.2549673037138,nan,nan,nan,nan
1,85,0,0,0.0,1.0,0.6452464328613132,0,0.0,0.0,0.0,0.429661005968228,0.13401935638013687,0.29564164958809114,0.5636803623483648,0.13401935638013687,0.5634047946271797,0,1,3,7,6,8,nan,nan,nan,nan,nan,nan,nan,nan,nan,nan,nan,nan,0.0,nan,nan,nan,nan,nan,nan,nan,nan,nan,nan,nan,nan,nan,nan,nan,nan,nan,nan,149.31367974635214,268.75369762745686,nan,269.3989440603182,nan,nan,nan,nan
1,86,1,1,1.0,1.0,0.5404216630849987,1,0.0,1.0,1.0,0.4323899354225708,0.13533181976641648,0.29705811565615436,0.5677217551889873,0.13533181976641648,0.5679146375817558,3,6,2,1,5,7,1.0,1.0,1.0,1.0,1.0,1.0,0.0,0.0,0.0,0.0,0.0,1.0,1.0,4.0,4.0,0.0,6.0,6.0,7.0,2.0,3.0,4.0,5.0,6.0,1.0,3.041358346818015,3.417716509895399,3.9526323936879635,4.52112663211301,5.152560720453039,2.4729921168182045,149.31367974635214,269.7704935045913,270.57889968226664,270.3109151676763,276.77970724599436,277.7849903651513,271.5873721735552,276.7713773029391
1,87,1,1,nan,nan,nan,0,0.0,0.0,0.0,0.0,0.0,0.0,0.0,0.0,0.0,2,3,7,4,8,1,nan,nan,nan,nan,nan,nan,nan,nan,nan,nan,nan,nan,0.0,nan,nan,nan,nan,nan,nan,nan,nan,nan,nan,nan,nan,nan,nan,nan,nan,nan,nan,149.31367974635214,278.004933306016,nan,nan,nan,nan,nan,nan
1,88,1,1,1.0,1.0,0.3769916470628232,0,0.0,0.0,0.0,0.43374033201835116,0.13501788688755065,0.2987224451308005,0.5687582189059018,0.13501788688755065,0.45870665507391095,8,0,1,6,4,2,nan,nan,nan,nan,nan,nan,nan,nan,nan,nan,nan,nan,0.0,nan,nan,nan,nan,nan,nan,nan,nan,nan,nan,nan,nan,nan,nan,nan,nan,nan,nan,149.31367974635214,279.02171948971227,nan,279.3987111367751,nan,nan,nan,nan
1,89,1,1,1.0,1.0,0.30418318905867636,0,0.0,0.0,0.0,0.4330397309695175,0.1343280964617648,0.2987116345077527,0.5673678274312823,0.1343280964617648,0.34058741806074977,4,6,3,0,8,7,nan,nan,nan,nan,nan,nan,nan,nan,nan,nan,nan,nan,0.0,nan,nan,nan,nan,nan,nan,nan,nan,nan,nan,nan,nan,nan,nan,nan,nan,nan,nan,149.31367974635214,280.038510520244,nan,280.3426937093027,nan,nan,nan,nan
1,90,1,1,1.0,1.0,0.5353335498366505,0,0.0,0.0,0.0,0.43146830972670236,0.13425351691393422,0.29721479281276814,0.5657218266406365,0.13425351691393422,0.4055027953193833,7,3,4,6,5,0,nan,nan,nan,nan,nan,nan,nan,nan,nan,nan,nan,nan,0.0,nan,nan,nan,nan,nan,nan,nan,nan,nan,nan,nan,nan,nan,nan,nan,nan,nan,nan,149.31367974635214,281.0553226477932,nan,281.59065619762987,nan,nan,nan,nan
1,91,1,1,1.0,1.0,0.46252537705004215,0,0.0,0.0,0.0,0.432719698161762,0.13392258914217522,0.2987971090195868,0.5666422873039372,0.13392258914217522,0.43401403864845634,0,4,8,5,3,1,nan,nan,nan,nan,nan,nan,nan,nan,nan,nan,nan,nan,0.0,nan,nan,nan,nan,nan,nan,nan,nan,nan,nan,nan,nan,nan,nan,nan,nan,nan,nan,149.31367974635214,282.0721128229052,nan,282.5346381999552,nan,nan,nan,nan
1,92,0,0,0.0,1.0,0.6296932904515415,0,0.0,0.0,0.0,0.43307452767233673,0.13316228788366793,0.29991223978866877,0.5662368155560047,0.13316228788366793,0.5425174057794114,8,2,0,6,5,7,nan,nan,nan,nan,nan,nan,nan,nan,nan,nan,nan,nan,0.0,nan,nan,nan,nan,nan,nan,nan,nan,nan,nan,nan,nan,nan,nan,nan,nan,nan,nan,149.31367974635214,283.0889189634472,nan,283.71861225389875,nan,nan,nan,nan
1,93,1,1,1.0,1.0,0.5968912532553077,0,0.0,0.0,0.0,0.4353876895873862,0.13406357138460845,0.30132411820277777,0.5694512609719946,0.13406357138460845,0.5630366402522972,4,7,5,3,1,6,nan,nan,nan,nan,nan,nan,nan,nan,nan,nan,nan,nan,0.0,nan,nan,nan,nan,nan,nan,nan,nan,nan,nan,nan,nan,nan,nan,nan,nan,nan,nan,149.31367974635214,284.10570172593,nan,284.7025929791853,nan,nan,nan,nan
1,94,1,1,1.0,1.0,0.459735139971599,0,0.0,0.0,0.0,0.4372656380021295,0.13440171499155548,0.30286392301057397,0.571667352993685,0.13440171499155548,0.5621065612261494,6,3,0,1,5,4,nan,nan,nan,nan,nan,nan,nan,nan,nan,nan,nan,nan,0.0,nan,nan,nan,nan,nan,nan,nan,nan,nan,nan,nan,nan,nan,nan,nan,nan,nan,nan,149.31367974635214,285.13082583551295,nan,285.59056097548455,nan,nan,nan,nan
1,95,1,1,1.0,1.0,0.5222245377954096,0,0.0,0.0,0.0,0.4375239081397096,0.13364852174348887,0.3038753863962207,0.5711724298831985,0.13364852174348887,0.5262836436741054,0,1,7,2,3,8,nan,nan,nan,nan,nan,nan,nan,nan,nan,nan,nan,nan,0.0,nan,nan,nan,nan,nan,nan,nan,nan,nan,nan,nan,nan,nan,nan,nan,nan,nan,nan,149.31367974635214,286.16431181901135,nan,286.68653635680676,nan,nan,nan,nan
1,96,1,1,1.0,1.0,0.6413950673304498,0,0.0,0.0,0.0,0.438486415294888,0.1331898999885768,0.3052965153063112,0.5716763152834649,0.1331898999885768,0.5411182483658195,8,0,6,3,2,7,nan,nan,nan,nan,nan,nan,nan,nan,nan,nan,nan,nan,0.0,nan,nan,nan,nan,nan,nan,nan,nan,nan,nan,nan,nan,nan,nan,nan,nan,nan,nan,149.31367974635214,287.18111624894664,nan,287.8225113162771,nan,nan,nan,nan
1,97,1,1,1.0,1.0,0.5365757143590599,0,0.0,0.0,0.0,0.4407662877896696,0.13415527091644922,0.30661101687322034,0.5749215587061188,0.13415527091644922,0.5667317731616398,2,8,5,1,4,3,nan,nan,nan,nan,nan,nan,nan,nan,nan,nan,nan,nan,0.0,nan,nan,nan,nan,nan,nan,nan,nan,nan,nan,nan,nan,nan,nan,nan,nan,nan,nan,149.31367974635214,288.1979212490842,nan,288.73449696344323,nan,nan,nan,nan
1,98,1,1,1.0,1.0,0.3753771467600018,0,0.0,0.0,0.0,0.44183083697377395,0.13378536375594452,0.30804547321782944,0.5756162007297185,0.13378536375594452,0.5177826428165039,6,2,8,5,3,4,nan,nan,nan,nan,nan,nan,nan,nan,nan,nan,nan,nan,0.0,nan,nan,nan,nan,nan,nan,nan,nan,nan,nan,nan,nan,nan,nan,nan,nan,nan,nan,149.31367974635214,289.22309239953756,nan,289.59846954629757,nan,nan,nan,nan
1,99,0,0,0.0,1.0,0.4541506739333272,0,0.0,0.0,0.0,0.44110057664175445,0.13322849431334471,0.30787208232840974,0.5743290709550992,0.13322849431334471,0.45536784501746297,7,0,1,4,5,2,nan,nan,nan,nan,nan,nan,nan,nan,nan,nan,nan,nan,0.0,nan,nan,nan,nan,nan,nan,nan,nan,nan,nan,nan,nan,nan,nan,nan,nan,nan,nan,149.31367974635214,290.2482860723976,nan,290.70243674633093,nan,nan,nan,nan
1,100,1,1,1.0,1.0,0.4531072215177119,0,0.0,0.0,0.0,0.44124242552535853,0.13250935727109464,0.3087330682542639,0.5737517827964531,0.13250935727109464,0.42754501407034695,3,2,6,7,8,0,nan,nan,nan,nan,nan,nan,nan,nan,nan,nan,nan,nan,0.0,nan,nan,nan,nan,nan,nan,nan,nan,nan,nan,nan,nan,nan,nan,nan,nan,nan,nan,149.31367974635214,291.2733152450528,nan,291.7264224665705,nan,nan,nan,nan
1,101,1,1,1.0,1.0,0.38827376207336783,0,0.0,0.0,0.0,0.4413700039768892,0.13180069663922112,0.3095693073376681,0.5731707006161103,0.13180069663922112,0.431843885841469,4,8,0,1,2,5,nan,nan,nan,nan,nan,nan,nan,nan,nan,nan,nan,nan,0.0,nan,nan,nan,nan,nan,nan,nan,nan,nan,nan,nan,nan,nan,nan,nan,nan,nan,nan,149.31367974635214,292.29012423637323,nan,292.6783979984466,nan,nan,nan,nan
1,102,1,1,1.0,1.0,0.29914610809646547,0,0.0,0.0,0.0,0.4408051503396177,0.13121087531613296,0.30959427502348474,0.5720160256557507,0.13121087531613296,0.3801756972291817,7,2,1,8,4,0,nan,nan,nan,nan,nan,nan,nan,nan,nan,nan,nan,nan,0.0,nan,nan,nan,nan,nan,nan,nan,nan,nan,nan,nan,nan,nan,nan,nan,nan,nan,nan,149.31367974635214,293.3152380825486,nan,293.61438419064507,nan,nan,nan,nan
1,103,1,1,1.0,1.0,0.306302024750039,0,0.0,0.0,0.0,0.43931400252653185,0.13131671906194567,0.3079972834645862,0.5706307215884775,0.13131671906194567,0.33124063163995743,6,8,7,4,3,1,nan,nan,nan,nan,nan,nan,nan,nan,nan,nan,nan,nan,0.0,nan,nan,nan,nan,nan,nan,nan,nan,nan,nan,nan,nan,nan,nan,nan,nan,nan,nan,149.31367974635214,294.3320616139099,nan,294.63836363865994,nan,nan,nan,nan
1,104,0,0,0.0,1.0,0.4654584478121251,0,0.0,0.0,0.0,0.4379284610913601,0.13132718205318258,0.30660127903817747,0.5692556431445427,0.13132718205318258,0.35696886021954316,1,4,5,0,7,2,nan,nan,nan,nan,nan,nan,nan,nan,nan,nan,nan,nan,0.0,nan,nan,nan,nan,nan,nan,nan,nan,nan,nan,nan,nan,nan,nan,nan,nan,nan,nan,149.31367974635214,295.34886034182273,nan,295.81431878963485,nan,nan,nan,nan
1,105,1,1,1.0,1.0,0.4486628556624055,0,0.0,0.0,0.0,0.43821227538745045,0.13067807482921967,0.3075342005582308,0.5688903502166701,0.13067807482921967,0.4068077760748565,6,0,8,4,1,7,nan,nan,nan,nan,nan,nan,nan,nan,nan,nan,nan,nan,0.0,nan,nan,nan,nan,nan,nan,nan,nan,nan,nan,nan,nan,nan,nan,nan,nan,nan,nan,149.31367974635214,296.3656490915455,nan,296.8143119472079,nan,nan,nan,nan
1,106,1,1,1.0,1.0,0.31184059008955956,0,0.0,0.0,0.0,0.43831891396168465,0.13001388256239796,0.30830503139928667,0.5683327965240826,0.13001388256239796,0.4086539645213634,8,1,5,3,2,4,nan,nan,nan,nan,nan,nan,nan,nan,nan,nan,nan,nan,0.0,nan,nan,nan,nan,nan,nan,nan,nan,nan,nan,nan,nan,nan,nan,nan,nan,nan,nan,149.31367974635214,297.3824520960916,nan,297.69429268618114,nan,nan,nan,nan
1,107,1,1,1.0,1.0,0.4790039418730885,0,0.0,0.0,0.0,0.4370413551346935,0.1299723719471561,0.3070689831875374,0.5670137270818496,0.1299723719471561,0.4131691292083512,5,0,4,1,3,8,nan,nan,nan,nan,nan,nan,nan,nan,nan,nan,nan,nan,0.0,nan,nan,nan,nan,nan,nan,nan,nan,nan,nan,nan,nan,nan,nan,nan,nan,nan,nan,149.31367974635214,298.39924882841296,nan,298.87825277028605,nan,nan,nan,nan
1,108,1,1,1.0,1.0,0.34218310192227364,0,0.0,0.0,0.0,0.4374609810020775,0.12938825988420816,0.3080727211178693,0.5668492408862856,0.12938825988420816,0.37767587796164054,7,3,0,2,1,5,nan,nan,nan,nan,nan,nan,nan,nan,nan,nan,nan,nan,0.0,nan,nan,nan,nan,nan,nan,nan,nan,nan,nan,nan,nan,nan,nan,nan,nan,nan,nan,149.31367974635214,299.416050407337,nan,299.7582335092593,nan,nan,nan,nan
1,109,1,1,1.0,1.0,0.32503285026177764,0,0.0,0.0,0.0,0.4365176356646537,0.12909127072378723,0.30742636494086645,0.5656089063884409,0.12909127072378723,0.3820732980190466,3,0,2,7,6,4,nan,nan,nan,nan,nan,nan,nan,nan,nan,nan,nan,nan,0.0,nan,nan,nan,nan,nan,nan,nan,nan,nan,nan,nan,nan,nan,nan,nan,nan,nan,nan,149.31367974635214,300.4411813591141,nan,300.7662142093759,nan,nan,nan,nan
1,110,1,1,1.0,1.0,0.32420008396729827,0,0.0,0.0,0.0,0.4354246475724686,0.12892569602403361,0.306498951548435,0.5643503435965023,0.12892569602403361,0.33047201205044985,0,4,3,1,5,6,nan,nan,nan,nan,nan,nan,nan,nan,nan,nan,nan,nan,0.0,nan,nan,nan,nan,nan,nan,nan,nan,nan,nan,nan,nan,nan,nan,nan,nan,nan,nan,149.31367974635214,301.4579994736705,nan,301.7821995576378,nan,nan,nan,nan
1,111,1,1,1.0,1.0,0.323373019695282,0,0.0,0.0,0.0,0.43434479744037957,0.12876101055410494,0.30558378688627463,0.5631058079944845,0.12876101055410494,0.3242019846414526,7,1,8,5,6,3,nan,nan,nan,nan,nan,nan,nan,nan,nan,nan,nan,nan,0.0,nan,nan,nan,nan,nan,nan,nan,nan,nan,nan,nan,nan,nan,nan,nan,nan,nan,nan,149.31367974635214,302.4747979165986,nan,302.7981709362939,nan,nan,nan,nan
1,112,1,1,1.0,1.0,0.29856137558817863,0,0.0,0.0,0.0,0.4332777611159075,0.1285972507611621,0.3046805103547454,0.5618750118770696,0.1285972507611621,0.31537815975025296,1,7,5,2,0,6,nan,nan,nan,nan,nan,nan,nan,nan,nan,nan,nan,nan,0.0,nan,nan,nan,nan,nan,nan,nan,nan,nan,nan,nan,nan,nan,nan,nan,nan,nan,nan,149.31367974635214,303.49159379373305,nan,303.7901551693212,nan,nan,nan,nan
1,113,1,1,1.0,1.0,0.27339820796623826,1,1.0,0.0,1.0,0.4319947479204053,0.12865050343490086,0.30334424448550446,0.5606452513553062,0.12865050343490086,0.29844420108323294,3,0,2,4,7,8,1.0,1.0,1.0,1.0,1.0,1.0,0.0,0.0,0.0,0.0,0.0,1.0,1.0,7.0,1.0,1.0,6.0,8.0,8.0,2.0,3.0,4.0,5.0,6.0,1.0,2.5177488112822175,2.9990349491126835,3.390213842038065,3.797405167715624,4.1810754800681025,2.168285205727443,149.31367974635214,304.5167238903232,305.3251485992223,304.79012209828943,310.55915904580615,311.5582113857381,306.3419299365487,310.55082910275087
1,114,1,1,1.0,1.0,0.5339742107316852,0,0.0,0.0,0.0,0.4304985541472528,0.1289568281900751,0.3015417259571777,0.5594553823373278,0.1289568281900751,0.36864459809536737,4,8,7,1,6,0,nan,nan,nan,nan,nan,nan,nan,nan,nan,nan,nan,nan,0.0,nan,nan,nan,nan,nan,nan,nan,nan,nan,nan,nan,nan,nan,nan,nan,nan,nan,nan,149.31367974635214,311.775973910233,nan,312.3099481209647,nan,nan,nan,nan
1,115,1,1,1.0,1.0,0.3087889195885509,0,0.0,0.0,0.0,0.43146561635832226,0.12873840312580312,0.30272721323251917,0.5602040194841253,0.12873840312580312,0.3720537794288248,1,3,5,7,8,4,nan,nan,nan,nan,nan,nan,nan,nan,nan,nan,nan,nan,0.0,nan,nan,nan,nan,nan,nan,nan,nan,nan,nan,nan,nan,nan,nan,nan,nan,nan,nan,149.31367974635214,312.8011504774913,nan,313.10993939707987,nan,nan,nan,nan
1,116,1,1,1.0,1.0,0.21993894944898784,0,0.0,0.0,0.0,0.4303297210178614,0.12867857252975665,0.3016511484881047,0.559008293547618,0.12867857252975665,0.3542340265897413,7,6,4,1,2,3,nan,nan,nan,nan,nan,nan,nan,nan,nan,nan,nan,nan,0.0,nan,nan,nan,nan,nan,nan,nan,nan,nan,nan,nan,nan,nan,nan,nan,nan,nan,nan,149.31367974635214,313.8179623200558,nan,314.0379012695048,nan,nan,nan,nan
1,117,1,1,1.0,1.0,0.34680308727547526,1,1.0,0.0,1.0,0.4283995304530093,0.12964811534398973,0.2987514151090196,0.5580476457969991,0.12964811534398973,0.291843652104338,3,2,0,4,8,5,1.0,1.0,1.0,1.0,1.0,1.0,0.0,0.0,0.0,1.0,0.0,0.0,1.0,5.0,1.0,4.0,4.0,4.0,7.0,2.0,3.0,4.0,5.0,6.0,1.0,3.8234241944737732,4.374548942083493,4.870839981827885,5.247336416738108,5.750717516057193,2.0968429292552173,149.31367974635214,314.84307844680734,315.6515008751303,315.1898815340828,322.4607087436598,323.4607398191001,316.66828306764364,322.4524170034565
1,118,0,0,nan,nan,nan,0,0.0,0.0,0.0,0.0,0.0,0.0,0.0,0.0,0.0,1,6,2,7,0,8,nan,nan,nan,nan,nan,nan,nan,nan,nan,nan,nan,nan,0.0,nan,nan,nan,nan,nan,nan,nan,nan,nan,nan,nan,nan,nan,nan,nan,nan,nan,nan,149.31367974635214,323.6776057158131,nan,nan,nan,nan,nan,nan
1,119,1,1,1.0,1.0,0.6952383506577462,0,0.0,0.0,0.0,0.42765774460594086,0.12928961633014557,0.2983681282757953,0.5569473609360864,0.12928961633014557,0.5210207189666107,7,8,0,6,2,1,nan,nan,nan,nan,nan,nan,nan,nan,nan,nan,nan,nan,0.0,nan,nan,nan,nan,nan,nan,nan,nan,nan,nan,nan,nan,nan,nan,nan,nan,nan,nan,149.31367974635214,324.69440073752776,nan,325.3896390881855,nan,nan,nan,nan
1,120,1,1,1.0,1.0,0.4303807718679309,1,0.0,1.0,1.0,0.43006838069649767,0.1311656980832362,0.2989026826132615,0.5612340787797339,0.1311656980832362,0.5628095612628385,2,3,8,5,1,7,1.0,1.0,1.0,1.0,1.0,1.0,1.0,0.0,0.0,0.0,0.0,0.0,1.0,2.0,1.0,3.0,3.0,2.0,2.0,2.0,3.0,4.0,5.0,6.0,1.0,2.6986435404978693,3.323636733694002,3.835313564632088,4.234755688114092,4.58658017613925,2.339253452606499,149.31367974635214,325.7112462213263,326.5196019371506,326.1416269931942,332.15368742099963,333.16372965229675,327.52807442843914,332.1453406573273
1,121,0,0,0.0,1.0,0.3542663373518735,0,0.0,0.0,0.0,0.43007116990338545,0.1305788273136971,0.2994923425896884,0.5606499972170825,0.1305788273136971,0.4932951532925169,8,2,3,6,4,0,nan,nan,nan,nan,nan,nan,nan,nan,nan,nan,nan,nan,0.0,nan,nan,nan,nan,nan,nan,nan,nan,nan,nan,nan,nan,nan,nan,nan,nan,nan,nan,149.31367974635214,333.387194957817,nan,333.74146129516885,nan,nan,nan,nan
1,122,1,1,1.0,1.0,0.4574740412645042,0,0.0,0.0,0.0,0.42940033067726585,0.1301934739931727,0.2992068566840932,0.5595938046704385,0.1301934739931727,0.4140403834947695,3,1,2,7,5,4,nan,nan,nan,nan,nan,nan,nan,nan,nan,nan,nan,nan,0.0,nan,nan,nan,nan,nan,nan,nan,nan,nan,nan,nan,nan,nan,nan,nan,nan,nan,nan,149.31367974635214,334.403959189076,nan,334.8614332303405,nan,nan,nan,nan
1,123,1,1,1.0,1.0,0.4242352363653481,0,0.0,0.0,0.0,0.42964659129645216,0.1296476234900092,0.299998967806443,0.5592942147864614,0.1296476234900092,0.41199187166057527,7,4,3,2,0,6,nan,nan,nan,nan,nan,nan,nan,nan,nan,nan,nan,nan,0.0,nan,nan,nan,nan,nan,nan,nan,nan,nan,nan,nan,nan,nan,nan,nan,nan,nan,nan,149.31367974635214,335.42920589004643,nan,335.8534411264118,nan,nan,nan,nan
1,124,1,1,1.0,1.0,0.35910584684461355,0,0.0,0.0,0.0,0.42959953603618173,0.1290836851464195,0.30051585088976224,0.5586832211826012,0.1290836851464195,0.41360504149148863,5,3,2,4,8,1,nan,nan,nan,nan,nan,nan,nan,nan,nan,nan,nan,nan,0.0,nan,nan,nan,nan,nan,nan,nan,nan,nan,nan,nan,nan,nan,nan,nan,nan,nan,nan,149.31367974635214,336.4542709845118,nan,336.81337683135644,nan,nan,nan,nan
1,125,1,1,1.0,1.0,0.4543066215701401,0,0.0,0.0,0.0,0.428991831819013,0.12869119897855213,0.3003006328404609,0.5576830307975651,0.12869119897855213,0.4125492349267006,6,2,7,0,4,3,nan,nan,nan,nan,nan,nan,nan,nan,nan,nan,nan,nan,0.0,nan,nan,nan,nan,nan,nan,nan,nan,nan,nan,nan,nan,nan,nan,nan,nan,nan,nan,149.31367974635214,337.47105431742966,nan,337.9253609389998,nan,nan,nan,nan
1,126,1,1,1.0,1.0,0.7334634894505143,0,0.0,0.0,0.0,0.42920819754338163,0.12816124412168253,0.30104695342169907,0.5573694416650642,0.12816124412168253,0.5156253192884227,3,1,2,5,0,6,nan,nan,nan,nan,nan,nan,nan,nan,nan,nan,nan,nan,0.0,nan,nan,nan,nan,nan,nan,nan,nan,nan,nan,nan,nan,nan,nan,nan,nan,nan,nan,149.31367974635214,338.4878607429564,nan,339.2213242324069,nan,nan,nan,nan
1,127,0,0,0.0,1.0,0.5166397870052606,0,0.0,0.0,0.0,0.43178663222056074,0.13062909732935782,0.3011575348912029,0.5624157295499186,0.13062909732935782,0.568136632675305,7,3,4,0,2,8,nan,nan,nan,nan,nan,nan,nan,nan,nan,nan,nan,nan,0.0,nan,nan,nan,nan,nan,nan,nan,nan,nan,nan,nan,nan,nan,nan,nan,nan,nan,nan,149.31367974635214,339.5046586156823,nan,340.02129840268753,nan,nan,nan,nan
1,128,1,1,1.0,1.0,0.4918928595725447,1,0.0,1.0,1.0,0.43249968394144056,0.1303094880794751,0.3021901958619655,0.5628091720209156,0.1303094880794751,0.5806653786761066,3,5,8,1,7,0,1.0,1.0,1.0,1.0,1.0,1.0,0.0,1.0,0.0,0.0,0.0,0.0,1.0,6.0,5.0,1.0,3.0,8.0,3.0,2.0,3.0,4.0,5.0,6.0,1.0,1.5942287391517311,2.7039126900490373,3.24784217774868,3.759955775924027,4.263766230316833,1.2002128530293703,149.31367974635214,340.5214584842324,341.329869793728,341.01335134380497,346.6472455281764,347.6558024077676,342.3466668110341,346.6389118786901
1,129,1,1,1.0,1.0,0.6522962935268879,0,0.0,0.0,0.0,0.4329946270716997,0.1298776704059097,0.30311695666579,0.5628722974776095,0.1298776704059097,0.5536096467015644,5,1,6,8,0,2,nan,nan,nan,nan,nan,nan,nan,nan,nan,nan,nan,nan,0.0,nan,nan,nan,nan,nan,nan,nan,nan,nan,nan,nan,nan,nan,nan,nan,nan,nan,nan,149.31367974635214,347.88079982064664,nan,348.53309611417353,nan,nan,nan,nan
1,130,1,1,1.0,1.0,0.4832025549840182,0,0.0,0.0,0.0,0.43480703753827155,0.1308548141483699,0.30395222338990163,0.5656618516866414,0.1308548141483699,0.5424639026944836,6,4,8,2,5,0,nan,nan,nan,nan,nan,nan,nan,nan,nan,nan,nan,nan,0.0,nan,nan,nan,nan,nan,nan,nan,nan,nan,nan,nan,nan,nan,nan,nan,nan,nan,nan,149.31367974635214,348.9058948501479,nan,349.3890974051319,nan,nan,nan,nan
1,131,1,1,1.0,1.0,0.4583755156490952,0,0.0,0.0,0.0,0.43520372210749897,0.1303904538971689,0.30481326821033006,0.5655941760046679,0.1303904538971689,0.5312914547200004,2,6,1,3,0,4,nan,nan,nan,nan,nan,nan,nan,nan,nan,nan,nan,nan,0.0,nan,nan,nan,nan,nan,nan,nan,nan,nan,nan,nan,nan,nan,nan,nan,nan,nan,nan,149.31367974635214,349.9226918676868,nan,350.3810673833359,nan,nan,nan,nan
1,132,1,1,1.0,1.0,0.3775384617038071,0,0.0,0.0,0.0,0.4353921106728778,0.12987599976535402,0.3055161109075238,0.5652681104382318,0.12987599976535402,0.4397055107789735,6,7,5,1,3,0,nan,nan,nan,nan,nan,nan,nan,nan,nan,nan,nan,nan,0.0,nan,nan,nan,nan,nan,nan,nan,nan,nan,nan,nan,nan,nan,nan,nan,nan,nan,nan,149.31367974635214,350.93950456543826,nan,351.31704302714206,nan,nan,nan,nan
1,133,1,1,1.0,1.0,0.30472316150553524,0,0.0,0.0,0.0,0.43492554898764335,0.12945470051378963,0.30547084847385375,0.564380249501433,0.12945470051378963,0.3802123796194792,3,4,2,0,7,1,nan,nan,nan,nan,nan,nan,nan,nan,nan,nan,nan,nan,0.0,nan,nan,nan,nan,nan,nan,nan,nan,nan,nan,nan,nan,nan,nan,nan,nan,nan,nan,149.31367974635214,351.9562947405502,nan,352.26101790205576,nan,nan,nan,nan
1,134,1,1,1.0,1.0,0.5598800543230027,0,0.0,0.0,0.0,0.4338839298877865,0.12945650872989425,0.30442742115789223,0.5633404386176808,0.12945650872989425,0.414047225844115,0,5,1,8,2,3,nan,nan,nan,nan,nan,nan,nan,nan,nan,nan,nan,nan,0.0,nan,nan,nan,nan,nan,nan,nan,nan,nan,nan,nan,nan,nan,nan,nan,nan,nan,nan,149.31367974635214,352.9731051574927,nan,353.5329852118157,nan,nan,nan,nan
1,135,1,1,1.0,1.0,0.4710588790476322,0,0.0,0.0,0.0,0.43488389912933584,0.12942554664565498,0.30545835248368086,0.5643094457749909,0.12942554664565498,0.44522069829205674,4,8,3,5,7,2,nan,nan,nan,nan,nan,nan,nan,nan,nan,nan,nan,nan,0.0,nan,nan,nan,nan,nan,nan,nan,nan,nan,nan,nan,nan,nan,nan,nan,nan,nan,nan,149.31367974635214,353.9898984686006,nan,354.4609573476482,nan,nan,nan,nan
1,136,1,1,1.0,1.0,0.43025247822515666,0,0.0,0.0,0.0,0.43516874149089724,0.1289546344175411,0.30621410707335617,0.5641233759084383,0.1289546344175411,0.4870638038652639,2,5,0,4,3,8,nan,nan,nan,nan,nan,nan,nan,nan,nan,nan,nan,nan,0.0,nan,nan,nan,nan,nan,nan,nan,nan,nan,nan,nan,nan,nan,nan,nan,nan,nan,nan,149.31367974635214,355.0066929203458,nan,355.43694539857097,nan,nan,nan,nan
1,137,1,1,1.0,1.0,0.39744901563972235,0,0.0,0.0,0.0,0.43513033318413363,0.1284506469401187,0.3066796862440149,0.5635809801242524,0.1284506469401187,0.43292012430417043,5,8,7,3,2,0,nan,nan,nan,nan,nan,nan,nan,nan,nan,nan,nan,nan,0.0,nan,nan,nan,nan,nan,nan,nan,nan,nan,nan,nan,nan,nan,nan,nan,nan,nan,nan,149.31367974635214,356.02347682323307,nan,356.4209258388728,nan,nan,nan,nan
1,138,1,1,1.0,1.0,0.4046074978541583,0,0.0,0.0,0.0,0.43483822994735527,0.1279944786954762,0.30684375125187907,0.5628327086428315,0.1279944786954762,0.4107696639063458,3,2,8,6,4,5,nan,nan,nan,nan,nan,nan,nan,nan,nan,nan,nan,nan,0.0,nan,nan,nan,nan,nan,nan,nan,nan,nan,nan,nan,nan,nan,nan,nan,nan,nan,nan,149.31367974635214,357.0402957932092,nan,357.4449032910634,nan,nan,nan,nan
1,139,1,1,1.0,1.0,0.28377998899668455,0,0.0,0.0,0.0,0.4346056858543307,0.1275285951510683,0.3070770907032624,0.562134281005399,0.1275285951510683,0.3619455008301884,7,6,1,3,8,0,nan,nan,nan,nan,nan,nan,nan,nan,nan,nan,nan,nan,0.0,nan,nan,nan,nan,nan,nan,nan,nan,nan,nan,nan,nan,nan,nan,nan,nan,nan,nan,149.31367974635214,358.0570962317288,nan,358.3408762207255,nan,nan,nan,nan
1,140,1,1,1.0,1.0,0.4109583026729524,0,0.0,0.0,0.0,0.43345434465694405,0.12771734280456915,0.3057370018523749,0.5611716874615131,0.12771734280456915,0.36644859650793177,6,7,5,1,0,4,nan,nan,nan,nan,nan,nan,nan,nan,nan,nan,nan,nan,0.0,nan,nan,nan,nan,nan,nan,nan,nan,nan,nan,nan,nan,nan,nan,nan,nan,nan,nan,149.31367974635214,359.073906078469,nan,359.48486438114196,nan,nan,nan,nan
1,141,1,1,1.0,1.0,0.4021208882331848,0,0.0,0.0,0.0,0.4332839200964593,0.12724759664866556,0.30603632344779375,0.5605315167451248,0.12724759664866556,0.36561972663427394,1,6,2,7,5,0,nan,nan,nan,nan,nan,nan,nan,nan,nan,nan,nan,nan,0.0,nan,nan,nan,nan,nan,nan,nan,nan,nan,nan,nan,nan,nan,nan,nan,nan,nan,nan,149.31367974635214,360.0907025258057,nan,360.49282341403887,nan,nan,nan,nan
1,142,1,1,1.0,1.0,0.32931243046186864,0,0.0,0.0,0.0,0.4330496115862091,0.12679689950696496,0.3062527120792441,0.5598465110931741,0.12679689950696496,0.3807972071226686,2,1,5,8,7,3,nan,nan,nan,nan,nan,nan,nan,nan,nan,nan,nan,nan,0.0,nan,nan,nan,nan,nan,nan,nan,nan,nan,nan,nan,nan,nan,nan,nan,nan,nan,nan,149.31367974635214,361.107502394123,nan,361.43681482458487,nan,nan,nan,nan
1,143,1,1,1.0,1.0,0.32816206687130034,0,0.0,0.0,0.0,0.43227545351811697,0.12663799738486428,0.30563745613325266,0.5589134509029813,0.12663799738486428,0.3531984618554513,7,4,8,1,0,5,nan,nan,nan,nan,nan,nan,nan,nan,nan,nan,nan,nan,0.0,nan,nan,nan,nan,nan,nan,nan,nan,nan,nan,nan,nan,nan,nan,nan,nan,nan,nan,149.31367974635214,362.1326293547172,nan,362.4607914215885,nan,nan,nan,nan
1,144,1,1,1.0,1.0,0.27930967905558646,0,0.0,0.0,0.0,0.4315042432466591,0.12648354432880435,0.30502069891785477,0.5579877875754634,0.12648354432880435,0.31226139212958515,6,0,5,4,2,8,nan,nan,nan,nan,nan,nan,nan,nan,nan,nan,nan,nan,0.0,nan,nan,nan,nan,nan,nan,nan,nan,nan,nan,nan,nan,nan,nan,nan,nan,nan,nan,149.31367974635214,363.14945573708974,nan,363.4287654161453,nan,nan,nan,nan
1,145,0,0,0.0,1.0,0.4370748323854059,0,0.0,0.0,0.0,0.43038516556878353,0.12668669700510696,0.30369846856367655,0.5570718625738905,0.12668669700510696,0.34818219277076423,7,8,0,2,5,3,nan,nan,nan,nan,nan,nan,nan,nan,nan,nan,nan,nan,0.0,nan,nan,nan,nan,nan,nan,nan,nan,nan,nan,nan,nan,nan,nan,nan,nan,nan,nan,149.31367974635214,364.1996589107439,nan,364.6367337431293,nan,nan,nan,nan
1,146,1,1,1.0,1.0,0.43631961243227124,0,0.0,0.0,0.0,0.4304339952535764,0.1262247744813962,0.30420922077218016,0.5566587697349726,0.1262247744813962,0.38423470795775455,6,2,4,0,3,7,nan,nan,nan,nan,nan,nan,nan,nan,nan,nan,nan,nan,0.0,nan,nan,nan,nan,nan,nan,nan,nan,nan,nan,nan,nan,nan,nan,nan,nan,nan,nan,149.31367974635214,365.2163823733572,nan,365.65270198578946,nan,nan,nan,nan
1,147,1,1,1.0,1.0,0.6355041228234768,0,0.0,0.0,0.0,0.430476644653422,0.125767597535399,0.304709047118023,0.556244242188821,0.125767597535399,0.5029661892137179,8,1,3,5,7,6,nan,nan,nan,nan,nan,nan,nan,nan,nan,nan,nan,nan,0.0,nan,nan,nan,nan,nan,nan,nan,nan,nan,nan,nan,nan,nan,nan,nan,nan,nan,nan,149.31367974635214,366.2331771100871,nan,366.8686812329106,nan,nan,nan,nan
1,148,1,1,1.0,1.0,0.4827253036201,0,0.0,0.0,0.0,0.4319516624819836,0.1265066686619175,0.30544499382006607,0.5584583311439011,0.1265066686619175,0.518183012958616,4,0,5,8,3,2,nan,nan,nan,nan,nan,nan,nan,nan,nan,nan,nan,nan,0.0,nan,nan,nan,nan,nan,nan,nan,nan,nan,nan,nan,nan,nan,nan,nan,nan,nan,nan,149.31367974635214,367.24994504777715,nan,367.73267035139725,nan,nan,nan,nan
1,149,1,1,1.0,1.0,0.38586640916764736,0,0.0,0.0,0.0,0.43231433134725583,0.12612654704221057,0.30618778430504523,0.5584408783894664,0.12612654704221057,0.5013652785370747,5,2,1,7,6,4,nan,nan,nan,nan,nan,nan,nan,nan,nan,nan,nan,nan,0.0,nan,nan,nan,nan,nan,nan,nan,nan,nan,nan,nan,nan,nan,nan,nan,nan,nan,nan,149.31367974635214,368.2667836891487,nan,368.65265009831637,nan,nan,nan,nan
1,150,1,1,1.0,1.0,0.32104691909626126,0,0.0,0.0,0.0,0.4319849134594572,0.12573892039311044,0.3062459930663468,0.5577238338525676,0.12573892039311044,0.3965462106280029,1,3,4,2,5,0,nan,nan,nan,nan,nan,nan,nan,nan,nan,nan,nan,nan,0.0,nan,nan,nan,nan,nan,nan,nan,nan,nan,nan,nan,nan,nan,nan,nan,nan,nan,nan,149.31367974635214,369.28357842587866,nan,369.6046253449749,nan,nan,nan,nan
1,151,1,1,1.0,1.0,0.38421142520383,0,0.0,0.0,0.0,0.43120365997802623,0.12563835587270025,0.305565304105326,0.5568420158507265,0.12563835587270025,0.3637082511559129,2,6,5,8,1,4,nan,nan,nan,nan,nan,nan,nan,nan,nan,nan,nan,nan,0.0,nan,nan,nan,nan,nan,nan,nan,nan,nan,nan,nan,nan,nan,nan,nan,nan,nan,nan,149.31367974635214,370.30037772399373,nan,370.68458914919756,nan,nan,nan,nan
1,152,1,1,1.0,1.0,0.30306162033230066,0,0.0,0.0,0.0,0.43087504295163326,0.1252595159459999,0.3056155270056333,0.5561345588976332,0.1252595159459999,0.336106654877464,8,5,3,4,6,1,nan,nan,nan,nan,nan,nan,nan,nan,nan,nan,nan,nan,0.0,nan,nan,nan,nan,nan,nan,nan,nan,nan,nan,nan,nan,nan,nan,nan,nan,nan,nan,149.31367974635214,371.325503829401,nan,371.6285654497333,nan,nan,nan,nan
1,153,1,1,1.0,1.0,0.33343691821210086,0,0.0,0.0,0.0,0.429987449738999,0.12527428658370263,0.3047131631552964,0.5552617363227016,0.12527428658370263,0.3402366545827438,4,0,8,3,1,5,nan,nan,nan,nan,nan,nan,nan,nan,nan,nan,nan,nan,0.0,nan,nan,nan,nan,nan,nan,nan,nan,nan,nan,nan,nan,nan,nan,nan,nan,nan,nan,149.31367974635214,372.3591055618599,nan,372.692542480072,nan,nan,nan,nan
1,154,1,1,1.0,1.0,0.26075646886602044,1,1.0,0.0,1.0,0.42932158400433074,0.12509700693879555,0.3042245770655352,0.5544185909431263,0.12509700693879555,0.29908500247014064,2,7,5,1,4,0,1.0,1.0,1.0,1.0,1.0,1.0,0.0,0.0,1.0,0.0,0.0,0.0,1.0,7.0,1.0,5.0,4.0,5.0,4.0,2.0,3.0,4.0,5.0,6.0,1.0,2.0013473650906235,2.4261761717498302,3.6175715669523925,4.081245312001556,4.504801734117791,1.5694689825177193,149.31367974635214,373.3757782771718,374.18419956509024,373.6365347460378,379.74325426574796,380.7426738096401,375.20097890659235,379.7349246076774
1,155,0,0,0.0,1.0,0.6842610035091639,0,0.0,0.0,0.0,0.42816702842119164,0.12544066015883518,0.30272636826235644,0.5536076885800268,0.12544066015883518,0.42615146352909505,3,0,4,6,7,1,nan,nan,nan,nan,nan,nan,nan,nan,nan,nan,nan,nan,0.0,nan,nan,nan,nan,nan,nan,nan,nan,nan,nan,nan,nan,nan,nan,nan,nan,nan,nan,149.31367974635214,380.9600765425712,nan,381.64433754608035,nan,nan,nan,nan
1,156,1,1,1.0,1.0,0.5634143929928541,0,0.0,0.0,0.0,0.42990916430614384,0.12677314947399618,0.3031360148321477,0.55668231378014,0.12677314947399618,0.5028106217893461,6,5,8,3,1,2,nan,nan,nan,nan,nan,nan,nan,nan,nan,nan,nan,nan,0.0,nan,nan,nan,nan,nan,nan,nan,nan,nan,nan,nan,nan,nan,nan,nan,nan,nan,nan,149.31367974635214,381.9768909509294,nan,382.5403053439222,nan,nan,nan,nan
1,157,1,1,nan,nan,nan,0,0.0,0.0,0.0,0.0,0.0,0.0,0.0,0.0,0.0,1,8,7,4,6,5,nan,nan,nan,nan,nan,nan,nan,nan,nan,nan,nan,nan,0.0,nan,nan,nan,nan,nan,nan,nan,nan,nan,nan,nan,nan,nan,nan,nan,nan,nan,nan,149.31367974635214,382.99366601603106,nan,nan,nan,nan,nan,nan
1,158,1,1,1.0,1.0,0.6577501853462309,1,0.0,1.0,1.0,0.4308112266621351,0.12681662745594316,0.303994599206192,0.5576278541180782,0.12681662745594316,0.6105822891695425,0,5,8,1,3,6,1.0,1.0,1.0,1.0,1.0,1.0,0.0,0.0,0.0,0.0,0.0,0.0,0.0,6.0,0.0,2.0,8.0,8.0,7.0,2.0,3.0,4.0,5.0,6.0,1.0,2.630199051462114,3.262556566623971,3.7021855765488,4.318047421285883,4.829098180634901,1.8484456695150584,149.31367974635214,384.01051064464264,384.8189230945427,384.66826082998887,390.71133802249096,391.7092265994288,385.84405604191124,390.7030588265043
1,159,0,0,0.0,1.0,0.4998846787493676,0,0.0,0.0,0.0,0.4323343069217599,0.12774133051177425,0.3045929764099856,0.5600756374335342,0.12774133051177425,0.5788174320477992,2,0,1,4,6,7,nan,nan,nan,nan,nan,nan,nan,nan,nan,nan,nan,nan,0.0,nan,nan,nan,nan,nan,nan,nan,nan,nan,nan,nan,nan,nan,nan,nan,nan,nan,nan,149.31367974635214,391.9282073401846,nan,392.42809201893397,nan,nan,nan,nan
1,160,1,1,1.0,1.0,0.48308880161494017,0,0.0,0.0,0.0,0.43278464273394396,0.127433431327872,0.30535121140607197,0.5602180740618159,0.127433431327872,0.5469078885701796,5,3,2,0,7,8,nan,nan,nan,nan,nan,nan,nan,nan,nan,nan,nan,nan,0.0,nan,nan,nan,nan,nan,nan,nan,nan,nan,nan,nan,nan,nan,nan,nan,nan,nan,nan,149.31367974635214,392.9450043577235,nan,393.42809315933846,nan,nan,nan,nan
1,161,1,1,1.0,1.0,0.4741966484580189,0,0.0,0.0,0.0,0.43311778285898367,0.12707628368271962,0.30604149917626405,0.5601940665417033,0.12707628368271962,0.4857233762741089,0,5,6,1,8,2,nan,nan,nan,nan,nan,nan,nan,nan,nan,nan,nan,nan,0.0,nan,nan,nan,nan,nan,nan,nan,nan,nan,nan,nan,nan,nan,nan,nan,nan,nan,nan,149.31367974635214,393.96184071851894,nan,394.43603736697696,nan,nan,nan,nan
1,162,1,1,1.0,1.0,0.48142070323228836,0,0.0,0.0,0.0,0.43338803855371416,0.126701110016422,0.3066869285372922,0.5600891485701361,0.126701110016422,0.4795687177684158,6,1,8,0,3,4,nan,nan,nan,nan,nan,nan,nan,nan,nan,nan,nan,nan,0.0,nan,nan,nan,nan,nan,nan,nan,nan,nan,nan,nan,nan,nan,nan,nan,nan,nan,nan,149.31367974635214,394.97860494977795,nan,395.46002565301023,nan,nan,nan,nan
1,163,1,1,1.0,1.0,0.424589040922001,0,0.0,0.0,0.0,0.43370197753854145,0.12634567408342245,0.307356303455119,0.5600476516219639,0.12634567408342245,0.46006879753743607,8,2,4,7,5,3,nan,nan,nan,nan,nan,nan,nan,nan,nan,nan,nan,nan,0.0,nan,nan,nan,nan,nan,nan,nan,nan,nan,nan,nan,nan,nan,nan,nan,nan,nan,nan,149.31367974635214,395.9954076691065,nan,396.4199967100285,nan,nan,nan,nan
1,164,1,1,1.0,1.0,0.5917546735145152,0,0.0,0.0,0.0,0.433642802625447,0.12593691985137848,0.3077058827740685,0.5595797224768255,0.12593691985137848,0.4992548058896015,1,3,6,5,4,7,nan,nan,nan,nan,nan,nan,nan,nan,nan,nan,nan,nan,0.0,nan,nan,nan,nan,nan,nan,nan,nan,nan,nan,nan,nan,nan,nan,nan,nan,nan,nan,149.31367974635214,397.01220896304585,nan,397.60396363656037,nan,nan,nan,nan
1,165,1,1,1.0,1.0,0.4469525630120188,0,0.0,0.0,0.0,0.4346628792118281,0.12616667613487578,0.30849620307695236,0.5608295553467039,0.12616667613487578,0.4877654258161783,5,4,2,1,6,8,nan,nan,nan,nan,nan,nan,nan,nan,nan,nan,nan,nan,0.0,nan,nan,nan,nan,nan,nan,nan,nan,nan,nan,nan,nan,nan,nan,nan,nan,nan,nan,149.31367974635214,398.02899942337535,nan,398.4759519863874,nan,nan,nan,nan
1,166,1,1,1.0,1.0,0.326110799331218,0,0.0,0.0,0.0,0.4347416592361883,0.12576547017088346,0.30897618906530483,0.5605071294070718,0.12576547017088346,0.45493934528591734,0,5,1,3,7,2,nan,nan,nan,nan,nan,nan,nan,nan,nan,nan,nan,nan,0.0,nan,nan,nan,nan,nan,nan,nan,nan,nan,nan,nan,nan,nan,nan,nan,nan,nan,nan,149.31367974635214,399.04583350312896,nan,399.3719443024602,nan,nan,nan,nan
1,167,1,1,1.0,1.0,0.3809208436869085,0,0.0,0.0,0.0,0.43404974293106113,0.1256618210741337,0.3083879218569274,0.5597115640051948,0.1256618210741337,0.38466140201004845,3,7,8,5,1,4,nan,nan,nan,nan,nan,nan,nan,nan,nan,nan,nan,nan,0.0,nan,nan,nan,nan,nan,nan,nan,nan,nan,nan,nan,nan,nan,nan,nan,nan,nan,nan,149.31367974635214,400.07098640757613,nan,400.45190725126304,nan,nan,nan,nan
1,168,1,1,nan,nan,nan,0,0.0,0.0,0.0,0.0,0.0,0.0,0.0,0.0,0.0,2,5,7,1,3,6,nan,nan,nan,nan,nan,nan,nan,nan,nan,nan,nan,nan,0.0,nan,nan,nan,nan,nan,nan,nan,nan,nan,nan,nan,nan,nan,nan,nan,nan,nan,nan,149.31367974635214,401.08773952000774,nan,nan,nan,nan,nan,nan
1,169,1,1,1.0,1.0,0.7713091648183763,1,0.0,1.0,1.0,0.4337134840750855,0.1253343644258199,0.30837911964926557,0.5590478485009054,0.1253343644258199,0.5761150042526424,5,0,1,3,8,2,1.0,1.0,1.0,1.0,1.0,1.0,0.0,0.0,0.0,0.0,0.0,0.0,0.0,6.0,8.0,0.0,8.0,5.0,3.0,2.0,3.0,4.0,5.0,6.0,1.0,2.6813940750434995,3.1446490136440843,3.8386509015690535,4.783432884141803,5.20697048981674,2.3045150411780924,149.31367974635214,402.1045356823597,402.9129635274876,402.8758448471781,409.1804485535249,410.17921750759706,403.93810160667636,409.17211518925615
1,170,1,1,1.0,1.0,0.34238666063174605,0,0.0,0.0,0.0,0.4358367273502005,0.1277583485696422,0.3080783787805583,0.5635950759198427,0.1277583485696422,0.5568479127250612,0,1,4,2,5,3,nan,nan,nan,nan,nan,nan,nan,nan,nan,nan,nan,nan,0.0,nan,nan,nan,nan,nan,nan,nan,nan,nan,nan,nan,nan,nan,nan,nan,nan,nan,nan,149.31367974635214,410.39729278278537,nan,410.7396794434171,nan,nan,nan,nan
1,171,1,1,1.0,1.0,0.2775494947563857,0,0.0,0.0,0.0,0.43525266443321015,0.12757124086418908,0.30768142356902106,0.5628239052973992,0.12757124086418908,0.46374844006883603,7,4,1,8,2,0,nan,nan,nan,nan,nan,nan,nan,nan,nan,nan,nan,nan,0.0,nan,nan,nan,nan,nan,nan,nan,nan,nan,nan,nan,nan,nan,nan,nan,nan,nan,nan,149.31367974635214,411.4141012041364,nan,411.6916506988928,nan,nan,nan,nan
1,172,0,0,1.0,0.0,0.2527760537341237,0,0.0,0.0,0.0,0.4342731416401864,0.12777657264393402,0.3064965689962523,0.5620497142841204,0.12777657264393402,0.2909040697074185,6,3,7,4,0,5,nan,nan,nan,nan,nan,nan,nan,nan,nan,nan,nan,nan,0.0,nan,nan,nan,nan,nan,nan,nan,nan,nan,nan,nan,nan,nan,nan,nan,nan,nan,nan,149.31367974635214,412.43085317639634,nan,412.68362923013046,nan,nan,nan,nan
1,173,1,1,1.0,1.0,0.3478873083367944,1,1.0,0.0,1.0,0.43315278924570455,0.12817236435341145,0.3049804248922931,0.561325153599116,0.12817236435341145,0.2927376189424346,4,7,5,6,8,1,1.0,1.0,1.0,1.0,1.0,1.0,0.0,0.0,0.0,0.0,1.0,0.0,1.0,6.0,1.0,4.0,7.0,8.0,3.0,2.0,3.0,4.0,5.0,6.0,1.0,1.936816107481718,2.4566903116647154,2.848697124281898,3.4633259274996817,4.327564790379256,1.536260682856664,149.31367974635214,413.4477043619845,414.2561384793371,413.7955916703213,419.648487692466,420.6465741263237,415.2812491892837,419.64015290280804
1,174,1,1,1.0,1.0,0.4980127364397049,0,0.0,0.0,0.0,0.4326296881358339,0.12795193468632762,0.3046777534495063,0.5605816228221615,0.12795193468632762,0.3662253661702077,3,8,7,0,5,4,nan,nan,nan,nan,nan,nan,nan,nan,nan,nan,nan,nan,0.0,nan,nan,nan,nan,nan,nan,nan,nan,nan,nan,nan,nan,nan,nan,nan,nan,nan,nan,149.31367974635214,420.8653461767826,nan,421.3633589132223,nan,nan,nan,nan
1,175,1,1,1.0,1.0,0.4732544054277241,0,0.0,0.0,0.0,0.433028365259638,0.12766275082356415,0.30536561443607385,0.5606911160832022,0.12766275082356415,0.43971815006807446,7,6,4,5,8,2,nan,nan,nan,nan,nan,nan,nan,nan,nan,nan,nan,nan,0.0,nan,nan,nan,nan,nan,nan,nan,nan,nan,nan,nan,nan,nan,nan,nan,nan,nan,nan,149.31367974635214,421.88213578169234,nan,422.35539018712007,nan,nan,nan,nan
1,176,1,1,1.0,1.0,0.3763906639069319,0,0.0,0.0,0.0,0.4332721594424749,0.12731359304890544,0.30595856639356944,0.5605857524913803,0.12731359304890544,0.4492192685914536,5,3,6,0,1,4,nan,nan,nan,nan,nan,nan,nan,nan,nan,nan,nan,nan,0.0,nan,nan,nan,nan,nan,nan,nan,nan,nan,nan,nan,nan,nan,nan,nan,nan,nan,nan,149.31367974635214,422.89897328289226,nan,423.2753639467992,nan,nan,nan,nan
1,177,1,1,1.0,1.0,0.47960264421999454,0,0.0,0.0,0.0,0.432929499830815,0.12700583243465985,0.3059236673961552,0.5599353322654749,0.12700583243465985,0.44308257118488353,4,8,7,5,3,6,nan,nan,nan,nan,nan,nan,nan,nan,nan,nan,nan,nan,0.0,nan,nan,nan,nan,nan,nan,nan,nan,nan,nan,nan,nan,nan,nan,nan,nan,nan,nan,149.31367974635214,423.91573637374677,nan,424.39533901796676,nan,nan,nan,nan
1,178,1,1,1.0,1.0,0.6867738419678062,0,0.0,0.0,0.0,0.433208979737337,0.12667619294886479,0.30653278678847223,0.5598851726862017,0.12667619294886479,0.5142557166982442,0,3,2,8,5,4,nan,nan,nan,nan,nan,nan,nan,nan,nan,nan,nan,nan,0.0,nan,nan,nan,nan,nan,nan,nan,nan,nan,nan,nan,nan,nan,nan,nan,nan,nan,nan,149.31367974635214,424.93253310606815,nan,425.61930694803596,nan,nan,nan,nan
1,179,1,1,1.0,1.0,0.4539747694507241,0,0.0,0.0,0.0,0.43471829439347076,0.12779582145383414,0.3069224729396366,0.5625141158473049,0.12779582145383414,0.5401170852128416,8,2,6,7,0,5,nan,nan,nan,nan,nan,nan,nan,nan,nan,nan,nan,nan,0.0,nan,nan,nan,nan,nan,nan,nan,nan,nan,nan,nan,nan,nan,nan,nan,nan,nan,nan,149.31367974635214,425.94932727259584,nan,426.40330204204656,nan,nan,nan,nan
1,180,1,1,1.0,1.0,0.3651752616278827,0,0.0,0.0,0.0,0.4348322380328628,0.12742572521562212,0.3074065128172407,0.562257963248485,0.12742572521562212,0.5019746243488044,5,0,2,6,1,7,nan,nan,nan,nan,nan,nan,nan,nan,nan,nan,nan,nan,0.0,nan,nan,nan,nan,nan,nan,nan,nan,nan,nan,nan,nan,nan,nan,nan,nan,nan,nan,149.31367974635214,426.9661074692849,nan,427.3312827309128,nan,nan,nan,nan
1,181,0,0,1.0,0.0,0.3483166634105146,0,0.0,0.0,0.0,0.4344224911128335,0.12716200558914753,0.30726048552368596,0.561584496701981,0.12716200558914753,0.38915556482970715,4,3,8,2,7,6,nan,nan,nan,nan,nan,nan,nan,nan,nan,nan,nan,nan,0.0,nan,nan,nan,nan,nan,nan,nan,nan,nan,nan,nan,nan,nan,nan,nan,nan,nan,nan,149.31367974635214,427.9829355622642,nan,428.3312522256747,nan,nan,nan,nan
1,182,1,1,1.0,1.0,0.7154853178653866,0,0.0,0.0,0.0,0.43391894826077315,0.12695951186625853,0.3069594363945146,0.5608784601270317,0.12695951186625853,0.4763257476345946,6,4,2,3,1,7,nan,nan,nan,nan,nan,nan,nan,nan,nan,nan,nan,nan,0.0,nan,nan,nan,nan,nan,nan,nan,nan,nan,nan,nan,nan,nan,nan,nan,nan,nan,nan,149.31367974635214,428.9997414178215,nan,429.7152267356869,nan,nan,nan,nan
1,183,1,1,nan,nan,nan,0,0.0,0.0,0.0,0.0,0.0,0.0,0.0,0.0,0.0,1,8,5,6,7,4,nan,nan,nan,nan,nan,nan,nan,nan,nan,nan,nan,nan,0.0,nan,nan,nan,nan,nan,nan,nan,nan,nan,nan,nan,nan,nan,nan,nan,nan,nan,nan,149.31367974635214,430.0165526899509,nan,nan,nan,nan,nan,nan
1,184,1,1,nan,nan,nan,0,0.0,0.0,0.0,0.0,0.0,0.0,0.0,0.0,0.0,0,4,3,5,2,8,nan,nan,nan,nan,nan,nan,nan,nan,nan,nan,nan,nan,0.0,nan,nan,nan,nan,nan,nan,nan,nan,nan,nan,nan,nan,nan,nan,nan,nan,nan,nan,149.31367974635214,431.0333491372876,nan,nan,nan,nan,nan,nan
1,185,1,1,nan,nan,nan,0,0.0,0.0,0.0,0.0,0.0,0.0,0.0,0.0,0.0,6,3,5,8,1,4,nan,nan,nan,nan,nan,nan,nan,nan,nan,nan,nan,nan,0.0,nan,nan,nan,nan,nan,nan,nan,nan,nan,nan,nan,nan,nan,nan,nan,nan,nan,nan,149.31367974635214,432.05014216317795,nan,nan,nan,nan,nan,nan
1,186,1,1,nan,nan,nan,0,0.0,0.0,0.0,0.0,0.0,0.0,0.0,0.0,0.0,8,0,4,6,7,2,nan,nan,nan,nan,nan,nan,nan,nan,nan,nan,nan,nan,0.0,nan,nan,nan,nan,nan,nan,nan,nan,nan,nan,nan,nan,nan,nan,nan,nan,nan,nan,149.31367974635214,433.0753954213578,nan,nan,nan,nan,nan,nan
1,187,0,0,nan,nan,nan,0,0.0,0.0,0.0,0.0,0.0,0.0,0.0,0.0,0.0,5,4,7,0,1,8,nan,nan,nan,nan,nan,nan,nan,nan,nan,nan,nan,nan,0.0,nan,nan,nan,nan,nan,nan,nan,nan,nan,nan,nan,nan,nan,nan,nan,nan,nan,nan,149.31367974635214,434.1003735617269,nan,nan,nan,nan,nan,nan
1,188,1,1,nan,nan,nan,0,0.0,0.0,0.0,0.0,0.0,0.0,0.0,0.0,0.0,0,3,1,2,6,7,nan,nan,nan,nan,nan,nan,nan,nan,nan,nan,nan,nan,0.0,nan,nan,nan,nan,nan,nan,nan,nan,nan,nan,nan,nan,nan,nan,nan,nan,nan,nan,149.31367974635214,435.1172139137052,nan,nan,nan,nan,nan,nan
1,189,1,1,nan,nan,nan,0,0.0,0.0,0.0,0.0,0.0,0.0,0.0,0.0,0.0,4,8,5,3,7,2,nan,nan,nan,nan,nan,nan,nan,nan,nan,nan,nan,nan,0.0,nan,nan,nan,nan,nan,nan,nan,nan,nan,nan,nan,nan,nan,nan,nan,nan,nan,nan,149.31367974635214,436.15923453937285,nan,nan,nan,nan,nan,nan
1,190,1,1,nan,nan,nan,0,0.0,0.0,0.0,0.0,0.0,0.0,0.0,0.0,0.0,6,3,8,2,4,0,nan,nan,nan,nan,nan,nan,nan,nan,nan,nan,nan,nan,0.0,nan,nan,nan,nan,nan,nan,nan,nan,nan,nan,nan,nan,nan,nan,nan,nan,nan,nan,149.31367974635214,437.18415280943736,nan,nan,nan,nan,nan,nan
1,191,1,1,nan,nan,nan,0,0.0,0.0,0.0,0.0,0.0,0.0,0.0,0.0,0.0,0,7,6,8,2,4,nan,nan,nan,nan,nan,nan,nan,nan,nan,nan,nan,nan,0.0,nan,nan,nan,nan,nan,nan,nan,nan,nan,nan,nan,nan,nan,nan,nan,nan,nan,nan,149.31367974635214,438.2603014551569,nan,nan,nan,nan,nan,nan
1,192,1,1,nan,nan,nan,0,0.0,0.0,0.0,0.0,0.0,0.0,0.0,0.0,0.0,3,1,5,7,6,8,nan,nan,nan,nan,nan,nan,nan,nan,nan,nan,nan,nan,0.0,nan,nan,nan,nan,nan,nan,nan,nan,nan,nan,nan,nan,nan,nan,nan,nan,nan,nan,149.31367974635214,439.2845158225391,nan,nan,nan,nan,nan,nan
1,193,1,1,nan,nan,nan,0,0.0,0.0,0.0,0.0,0.0,0.0,0.0,0.0,0.0,8,4,7,6,1,0,nan,nan,nan,nan,nan,nan,nan,nan,nan,nan,nan,nan,0.0,nan,nan,nan,nan,nan,nan,nan,nan,nan,nan,nan,nan,nan,nan,nan,nan,nan,nan,149.31367974635214,440.3095367271453,nan,nan,nan,nan,nan,nan
1,194,1,1,0.0,0.0,0.21257861866615713,1,1.0,0.0,1.0,0.43555596203754415,0.1283871192550205,0.30716884278252365,0.5639430812925647,0.1283871192550205,0.21257861866615713,2,1,8,3,7,4,1.0,1.0,1.0,1.0,1.0,1.0,0.0,1.0,0.0,0.0,0.0,0.0,1.0,4.0,1.0,0.0,6.0,2.0,5.0,2.0,3.0,4.0,5.0,6.0,1.0,2.512298625893891,3.0334118583705276,3.633144096005708,4.185325125232339,4.6884071584790945,1.9777653412893414,149.31367974635214,441.32632490666583,442.1347801210359,441.538903525332,447.87717852764763,448.88196101761423,443.15157172153704,447.86885257577524
1,195,1,1,1.0,1.0,0.3564142528921366,0,0.0,0.0,0.0,0.4342670756596749,0.12912670021107192,0.30514037544860295,0.5633937758707468,0.12912670021107192,0.28449643577914685,5,8,7,4,6,3,nan,nan,nan,nan,nan,nan,nan,nan,nan,nan,nan,nan,0.0,nan,nan,nan,nan,nan,nan,nan,nan,nan,nan,nan,nan,nan,nan,nan,nan,nan,nan,149.31367974635214,449.1023669547867,nan,449.45878120767884,nan,nan,nan,nan
1,196,1,1,nan,nan,nan,0,0.0,0.0,0.0,0.0,0.0,0.0,0.0,0.0,0.0,7,2,5,1,4,8,nan,nan,nan,nan,nan,nan,nan,nan,nan,nan,nan,nan,0.0,nan,nan,nan,nan,nan,nan,nan,nan,nan,nan,nan,nan,nan,nan,nan,nan,nan,nan,149.31367974635214,450.1191482921131,nan,nan,nan,nan,nan,nan
1,197,1,1,nan,nan,nan,0,0.0,0.0,0.0,0.0,0.0,0.0,0.0,0.0,0.0,5,0,8,4,3,2,nan,nan,nan,nan,nan,nan,nan,nan,nan,nan,nan,nan,0.0,nan,nan,nan,nan,nan,nan,nan,nan,nan,nan,nan,nan,nan,nan,nan,nan,nan,nan,149.31367974635214,451.1359632704407,nan,nan,nan,nan,nan,nan
1,198,1,1,nan,nan,nan,0,0.0,0.0,0.0,0.0,0.0,0.0,0.0,0.0,0.0,8,6,1,7,2,4,nan,nan,nan,nan,nan,nan,nan,nan,nan,nan,nan,nan,0.0,nan,nan,nan,nan,nan,nan,nan,nan,nan,nan,nan,nan,nan,nan,nan,nan,nan,nan,149.31367974635214,452.16110477084294,nan,nan,nan,nan,nan,nan
1,199,1,1,1.0,1.0,0.29640120128169656,1,1.0,0.0,1.0,0.4338196456437695,0.1288895353176009,0.3049301103261686,0.5627091809613705,0.1288895353176009,0.29640120128169656,2,3,4,6,7,5,1.0,1.0,1.0,1.0,1.0,1.0,0.0,0.0,0.0,0.0,0.0,0.0,0.0,3.0,0.0,0.0,0.0,8.0,4.0,2.0,3.0,4.0,5.0,6.0,1.0,2.2139462258201092,2.996491035213694,3.5975569530855864,4.004615138750523,4.460173332830891,1.8219471108168364,149.31367974635214,453.18623543763533,453.99465273413807,453.48263663891703,459.5120403287001,460.5192965990864,455.01145716407336,459.5037089600228
1,200,1,1,1.0,1.0,0.5212703205179423,0,0.0,0.0,0.0,0.43303439739027194,0.12893748349958065,0.30409691389069127,0.5619718808898526,0.12893748349958065,0.40883576089981943,3,5,7,8,4,6,nan,nan,nan,nan,nan,nan,nan,nan,nan,nan,nan,nan,0.0,nan,nan,nan,nan,nan,nan,nan,nan,nan,nan,nan,nan,nan,nan,nan,nan,nan,nan,149.31367974635214,460.7372301814612,nan,461.25850050197914,nan,nan,nan,nan
1,201,1,1,1.0,1.0,0.28845015121623874,0,0.0,0.0,0.0,0.43353573786258826,0.12874160179696337,0.3047941360656249,0.5622773396595516,0.12874160179696337,0.36870722433862585,6,4,0,3,7,2,nan,nan,nan,nan,nan,nan,nan,nan,nan,nan,nan,nan,0.0,nan,nan,nan,nan,nan,nan,nan,nan,nan,nan,nan,nan,nan,nan,nan,nan,nan,nan,149.31367974635214,461.75402919435874,nan,462.042479345575,nan,nan,nan,nan
1,202,1,1,1.0,1.0,0.21566564147360623,0,0.0,0.0,0.0,0.4327160452826654,0.12883715705492776,0.3038788882277376,0.5615532023375931,0.12883715705492776,0.34179537106926244,1,2,7,5,3,8,nan,nan,nan,nan,nan,nan,nan,nan,nan,nan,nan,nan,0.0,nan,nan,nan,nan,nan,nan,nan,nan,nan,nan,nan,nan,nan,nan,nan,nan,nan,nan,149.31367974635214,462.7707925704308,nan,462.9864582119044,nan,nan,nan,nan
1,203,1,1,1.0,1.0,0.022785464767366648,1,1.0,0.0,1.0,0.4314966609916032,0.1294949462739159,0.30200171471768733,0.5609916072655191,0.1294949462739159,0.1756337524857372,0,5,4,7,6,2,1.0,1.0,1.0,1.0,1.0,1.0,0.0,0.0,1.0,0.0,0.0,0.0,1.0,4.0,1.0,4.0,3.0,5.0,5.0,2.0,3.0,4.0,5.0,6.0,1.0,2.1305683935061097,2.538172253407538,3.067765104584396,3.5632669979240745,4.242582721402869,1.6186449544038624,149.31367974635214,463.7876334928442,464.59605135954916,463.81041895761155,469.905059233075,470.9086828066502,465.62117660953663,469.8967204520013
1,204,1,1,1.0,1.0,0.3200043221004307,0,0.0,0.0,0.0,0.4292133582194008,0.13267726938345425,0.29653608883594657,0.561890627602855,0.13267726938345425,0.18615180944713453,5,0,1,2,8,7,nan,nan,nan,nan,nan,nan,nan,nan,nan,nan,nan,nan,0.0,nan,nan,nan,nan,nan,nan,nan,nan,nan,nan,nan,nan,nan,nan,nan,nan,nan,nan,149.31367974635214,471.1302482304163,nan,471.45025255251676,nan,nan,nan,nan
1,205,1,1,1.0,1.0,0.06847727508284152,0,0.0,0.0,0.0,0.42860664135207316,0.13255697942108707,0.2960496619309861,0.5611636207731603,0.13255697942108707,0.13708902065021297,0,7,2,6,1,3,nan,nan,nan,nan,nan,nan,nan,nan,nan,nan,nan,nan,0.0,nan,nan,nan,nan,nan,nan,nan,nan,nan,nan,nan,nan,nan,nan,nan,nan,nan,nan,149.31367974635214,472.2137261314783,nan,472.28220340656117,nan,nan,nan,nan
1,206,1,1,1.0,1.0,0.019718114053830504,1,1.0,0.0,1.0,0.42661697634506085,0.13485863534555567,0.29175834099950515,0.5614756116906165,0.13485863534555567,0.13606657041236758,7,2,8,4,3,5,1.0,1.0,1.0,1.0,1.0,1.0,0.0,0.0,0.0,0.0,0.0,0.0,0.0,4.0,5.0,4.0,6.0,4.0,7.0,2.0,3.0,4.0,5.0,6.0,1.0,1.8741642045788467,2.327415684936568,2.8565586542245,3.3199934884905815,3.999568364350125,1.3130861758254468,149.31367974635214,473.2305291357916,474.03894557710737,473.2502472498454,479.09793342254125,480.0968526226934,475.05575228785165,479.0896088962909
1,207,1,1,1.0,1.0,0.03929653065279126,0,0.0,0.0,0.0,0.42438126831049366,0.13781013183683619,0.2865711364736575,0.5621914001473298,0.13781013183683619,0.04249730659648776,0,8,2,3,6,7,nan,nan,nan,nan,nan,nan,nan,nan,nan,nan,nan,nan,0.0,nan,nan,nan,nan,nan,nan,nan,nan,nan,nan,nan,nan,nan,nan,nan,nan,nan,nan,149.31367974635214,480.31479304726236,nan,480.35408957791515,nan,nan,nan,nan
1,208,1,1,1.0,1.0,0.27843186794780195,0,0.0,0.0,0.0,0.4222769801265718,0.14033443718191022,0.2819425429446616,0.562611417308482,0.14033443718191022,0.1124821708848079,4,6,5,1,7,3,nan,nan,nan,nan,nan,nan,nan,nan,nan,nan,nan,nan,0.0,nan,nan,nan,nan,nan,nan,nan,nan,nan,nan,nan,nan,nan,nan,nan,nan,nan,nan,149.31367974635214,481.3315894943662,nan,481.610021362314,nan,nan,nan,nan
1,209,1,1,1.0,1.0,0.4056101816240698,1,1.0,0.0,1.0,0.42149521321255673,0.14035157703407602,0.2811436361784807,0.5618467902466328,0.14035157703407602,0.24111286007488766,2,1,4,3,0,5,1.0,1.0,1.0,1.0,1.0,1.0,0.0,0.0,0.0,0.0,0.0,0.0,0.0,4.0,0.0,3.0,7.0,7.0,3.0,2.0,3.0,4.0,5.0,6.0,1.0,1.5147456070408225,2.339149962645024,2.658357440494001,3.2429636099841446,3.7697533946484327,1.0187912657856941,149.31367974635214,482.3483939243015,483.1568063744344,482.75400410592556,487.9740955820307,488.97308292007074,484.1652762996964,487.96576478355564
1,210,1,1,nan,nan,nan,0,0.0,0.0,0.0,0.0,0.0,0.0,0.0,0.0,0.0,8,2,0,7,4,3,nan,nan,nan,nan,nan,nan,nan,nan,nan,nan,nan,nan,0.0,nan,nan,nan,nan,nan,nan,nan,nan,nan,nan,nan,nan,nan,nan,nan,nan,nan,nan,149.31367974635214,489.1909415218979,nan,nan,nan,nan,nan,nan
1,211,1,1,1.0,1.0,0.14608732424676418,0,0.0,0.0,0.0,0.4214093481769433,0.13997658033139002,0.28143276784555327,0.5613859285083334,0.13997658033139002,0.275848752935417,2,1,3,5,8,4,nan,nan,nan,nan,nan,nan,nan,nan,nan,nan,nan,nan,0.0,nan,nan,nan,nan,nan,nan,nan,nan,nan,nan,nan,nan,nan,nan,nan,nan,nan,nan,149.31367974635214,490.2077545048669,nan,490.35384182911366,nan,nan,nan,nan
1,212,0,0,1.0,0.0,0.07333132438361645,0,0.0,0.0,0.0,0.4199291222418348,0.1410441408962435,0.2788849813455913,0.5609732631380784,0.1410441408962435,0.10970932431519032,5,6,7,0,4,3,nan,nan,nan,nan,nan,nan,nan,nan,nan,nan,nan,nan,0.0,nan,nan,nan,nan,nan,nan,nan,nan,nan,nan,nan,nan,nan,nan,nan,nan,nan,nan,149.31367974635214,491.2245441097766,nan,491.29787543416023,nan,nan,nan,nan
1,213,1,1,1.0,1.0,0.2319645956158638,1,1.0,0.0,1.0,0.4180756580821652,0.14291969375863625,0.27515596432352896,0.5609953518408014,0.14291969375863625,0.1504610814154148,8,0,6,5,3,2,1.0,1.0,1.0,1.0,1.0,1.0,0.0,1.0,0.0,0.0,0.0,0.0,1.0,5.0,0.0,2.0,0.0,8.0,4.0,2.0,3.0,4.0,5.0,6.0,1.0,1.766311997314915,2.283833872061223,2.6844209423288703,3.5157562734093517,4.012026216369122,0.8626394725870341,149.31367974635214,492.2497942317277,493.0580989152659,492.4817588273436,498.125423546182,499.12843615864404,494.0749036304187,498.11709559871815
1,214,1,1,1.0,1.0,0.01098732533864677,0,0.0,0.0,0.0,0.41708570562223807,0.14318048337466832,0.27390522224756975,0.5602661889969064,0.14318048337466832,0.10542774844604234,7,5,4,2,0,3,nan,nan,nan,nan,nan,nan,nan,nan,nan,nan,nan,nan,0.0,nan,nan,nan,nan,nan,nan,nan,nan,nan,nan,nan,nan,nan,nan,nan,nan,nan,nan,149.31367974635214,499.35067098843865,nan,499.3616583137773,nan,nan,nan,nan
1,215,1,1,1.0,1.0,0.13024994102306664,0,0.0,0.0,0.0,0.4149370369434889,0.14580855894138806,0.2691284780021008,0.5607455958848769,0.14580855894138806,0.1244006206591924,3,8,7,0,6,2,nan,nan,nan,nan,nan,nan,nan,nan,nan,nan,nan,nan,0.0,nan,nan,nan,nan,nan,nan,nan,nan,nan,nan,nan,nan,nan,nan,nan,nan,nan,nan,149.31367974635214,500.3674004380591,nan,500.4976503790822,nan,nan,nan,nan
1,216,0,0,0.0,1.0,0.6812985679134727,0,0.0,0.0,0.0,0.4134386838070656,0.1468759924208742,0.2665626913861914,0.5603146762279398,0.1468759924208742,0.274178611425062,6,0,1,7,2,3,nan,nan,nan,nan,nan,nan,nan,nan,nan,nan,nan,nan,0.0,nan,nan,nan,nan,nan,nan,nan,nan,nan,nan,nan,nan,nan,nan,nan,nan,nan,nan,149.31367974635214,501.38419888098724,nan,502.0654974489007,nan,nan,nan,nan
1,217,1,1,1.0,1.0,0.2565310567151755,0,0.0,0.0,0.0,0.41484109157725624,0.14776093482197966,0.2670801567552766,0.562602026399236,0.14776093482197966,0.35602652188390493,0,7,3,1,4,5,nan,nan,nan,nan,nan,nan,nan,nan,nan,nan,nan,nan,0.0,nan,nan,nan,nan,nan,nan,nan,nan,nan,nan,nan,nan,nan,nan,nan,nan,nan,nan,149.31367974635214,502.4010115787387,nan,502.65754263545386,nan,nan,nan,nan
1,218,0,0,0.0,1.0,0.5197116993367672,0,0.0,0.0,0.0,0.4140165601456829,0.14781552873387901,0.26620103141180385,0.5618320888795619,0.14781552873387901,0.4858471079884718,7,2,0,3,5,6,nan,nan,nan,nan,nan,nan,nan,nan,nan,nan,nan,nan,0.0,nan,nan,nan,nan,nan,nan,nan,nan,nan,nan,nan,nan,nan,nan,nan,nan,nan,nan,149.31367974635214,503.41781087685376,nan,503.93752257619053,nan,nan,nan,nan
1,219,1,1,1.0,1.0,0.350871411152184,0,0.0,0.0,0.0,0.41456420335392685,0.14762724803463084,0.266936955319296,0.5621914513885578,0.14762724803463084,0.3757047224013756,3,6,7,0,2,8,nan,nan,nan,nan,nan,nan,nan,nan,nan,nan,nan,nan,0.0,nan,nan,nan,nan,nan,nan,nan,nan,nan,nan,nan,nan,nan,nan,nan,nan,nan,nan,149.31367974635214,504.434616161976,nan,504.7854875731282,nan,nan,nan,nan
1,220,1,1,1.0,1.0,0.6140258247032762,0,0.0,0.0,0.0,0.4142358899920622,0.14731689845230053,0.2669189915397616,0.5615527884443627,0.14731689845230053,0.49486964506407577,5,0,6,4,1,7,nan,nan,nan,nan,nan,nan,nan,nan,nan,nan,nan,nan,0.0,nan,nan,nan,nan,nan,nan,nan,nan,nan,nan,nan,nan,nan,nan,nan,nan,nan,nan,149.31367974635214,505.45144254434854,nan,506.0654683690518,nan,nan,nan,nan
1,221,1,1,1.0,1.0,0.4292412418872118,0,0.0,0.0,0.0,0.415260453759812,0.14763001958268893,0.26763043417712307,0.562890473342501,0.14763001958268893,0.46471282591422397,6,4,2,7,0,3,nan,nan,nan,nan,nan,nan,nan,nan,nan,nan,nan,nan,0.0,nan,nan,nan,nan,nan,nan,nan,nan,nan,nan,nan,nan,nan,nan,nan,nan,nan,nan,149.31367974635214,506.4681999334134,nan,506.8974411753006,nan,nan,nan,nan
1,222,1,1,1.0,1.0,0.2524168323725462,0,0.0,0.0,0.0,0.41533178431148243,0.14725629968448722,0.2680754846269952,0.5625880839959696,0.14725629968448722,0.43189463298767805,0,5,1,3,7,8,nan,nan,nan,nan,nan,nan,nan,nan,nan,nan,nan,nan,0.0,nan,nan,nan,nan,nan,nan,nan,nan,nan,nan,nan,nan,nan,nan,nan,nan,nan,nan,149.31367974635214,507.485006359173,nan,507.73742319154553,nan,nan,nan,nan
1,223,1,1,1.0,1.0,0.2515894831158221,0,0.0,0.0,0.0,0.41450480486001573,0.14733766671343387,0.2671671381465819,0.5618424715734496,0.14733766671343387,0.31108251912519336,1,0,8,6,2,5,nan,nan,nan,nan,nan,nan,nan,nan,nan,nan,nan,nan,0.0,nan,nan,nan,nan,nan,nan,nan,nan,nan,nan,nan,nan,nan,nan,nan,nan,nan,nan,149.31367974635214,508.5018050870858,nan,508.75339457020164,nan,nan,nan,nan
1,224,1,1,1.0,1.0,0.18676058505661786,1,1.0,0.0,1.0,0.41368200020474205,0.14741818133055348,0.2662638188741886,0.5611001815352955,0.14741818133055348,0.23025563351499537,4,7,0,3,8,2,1.0,1.0,1.0,1.0,1.0,1.0,0.0,0.0,1.0,0.0,0.0,0.0,1.0,1.0,4.0,0.0,0.0,4.0,8.0,2.0,3.0,4.0,5.0,6.0,1.0,1.4798620818182826,2.320611006813124,2.864081204403192,3.470840210095048,4.086718875449151,0.745899103814736,149.31367974635214,509.51862006564625,510.32702282234095,509.70538065070286,515.4693559987936,516.4752497943118,511.34382497146726,515.4610326129477
1,225,1,1,1.0,1.0,0.018690341850742698,0,0.0,0.0,0.0,0.41254169158590726,0.14792015986487034,0.2646215317210369,0.5604618514507775,0.14792015986487034,0.15234680334106088,1,3,4,6,2,0,nan,nan,nan,nan,nan,nan,nan,nan,nan,nan,nan,nan,0.0,nan,nan,nan,nan,nan,nan,nan,nan,nan,nan,nan,nan,nan,nan,nan,nan,nan,nan,149.31367974635214,516.6945492727682,nan,516.7132396146189,nan,nan,nan,nan
1,226,1,1,1.0,1.0,0.3055413879919797,0,0.0,0.0,0.0,0.41057243483723144,0.15014222684599893,0.2604302079912325,0.5607146616832304,0.15014222684599893,0.17033077163311341,8,1,2,0,7,3,nan,nan,nan,nan,nan,nan,nan,nan,nan,nan,nan,nan,0.0,nan,nan,nan,nan,nan,nan,nan,nan,nan,nan,nan,nan,nan,nan,nan,nan,nan,nan,149.31367974635214,517.7196497193072,nan,518.0251911072992,nan,nan,nan,nan
1,227,1,1,1.0,1.0,0.22435166966170073,1,1.0,0.0,1.0,0.41004989231561323,0.1499504776305629,0.2600994146850503,0.5600003699461762,0.1499504776305629,0.18286113316814104,7,5,8,3,2,0,1.0,1.0,1.0,1.0,1.0,1.0,1.0,0.0,0.0,0.0,0.0,0.0,1.0,7.0,4.0,1.0,7.0,5.0,7.0,2.0,3.0,4.0,5.0,6.0,1.0,1.6279402335640043,2.093475942267105,2.812333664158359,3.3407299662940204,4.083896137308329,0.9160539710428566,149.31367974635214,518.744810606353,519.5532361706719,518.9691622760147,524.7038964394014,525.7102549416013,520.5783725392539,524.6955699175596
1,228,1,1,nan,nan,nan,0,0.0,0.0,0.0,0.0,0.0,0.0,0.0,0.0,0.0,1,7,0,4,6,2,nan,nan,nan,nan,nan,nan,nan,nan,nan,nan,nan,nan,0.0,nan,nan,nan,nan,nan,nan,nan,nan,nan,nan,nan,nan,nan,nan,nan,nan,nan,nan,149.31367974635214,525.9291053935885,nan,nan,nan,nan,nan,nan
1,229,1,1,1.0,1.0,0.7349268884863704,0,0.0,0.0,0.0,0.4091305941836632,0.1501455962027837,0.2589849979808795,0.5592761903864469,0.1501455962027837,0.4796392790740356,4,3,1,2,8,6,nan,nan,nan,nan,nan,nan,nan,nan,nan,nan,nan,nan,0.0,nan,nan,nan,nan,nan,nan,nan,nan,nan,nan,nan,nan,nan,nan,nan,nan,nan,nan,149.31367974635214,526.9459839486517,nan,527.6809108371381,nan,nan,nan,nan
1,230,1,1,nan,nan,nan,0,0.0,0.0,0.0,0.0,0.0,0.0,0.0,0.0,0.0,3,7,8,5,0,1,nan,nan,nan,nan,nan,nan,nan,nan,nan,nan,nan,nan,0.0,nan,nan,nan,nan,nan,nan,nan,nan,nan,nan,nan,nan,nan,nan,nan,nan,nan,nan,149.31367974635214,527.9961269670166,nan,nan,nan,nan,nan,nan
1,231,1,1,1.0,1.0,0.5240343289915472,1,0.0,1.0,1.0,0.4107355020373711,0.15150229256237394,0.2592332094749972,0.562237794599745,0.15150229256237394,0.6294806087389588,2,5,0,7,1,4,1.0,1.0,1.0,1.0,1.0,1.0,1.0,0.0,0.0,0.0,0.0,1.0,2.0,2.0,6.0,3.0,3.0,7.0,4.0,2.0,3.0,4.0,5.0,6.0,1.0,1.370401646476239,1.8337518069893122,2.2253586295992136,2.552478954894468,2.8399694717954844,0.8424423967953771,149.31367974635214,529.0128353196196,529.8212426376995,529.5368696486112,533.713412953075,534.7113511369098,530.8380447870586,533.7050684702117
1,232,0,0,0.0,1.0,0.5584388924762607,0,0.0,0.0,0.0,0.41129088844400924,0.15133752473000847,0.2599533637140008,0.5626284131740177,0.15133752473000847,0.541236610733904,0,3,1,4,7,8,nan,nan,nan,nan,nan,nan,nan,nan,nan,nan,nan,nan,0.0,nan,nan,nan,nan,nan,nan,nan,nan,nan,nan,nan,nan,nan,nan,nan,nan,nan,nan,149.31367974635214,534.9302631695755,nan,535.4887020620517,nan,nan,nan,nan
1,233,1,1,1.0,1.0,0.26165195601060987,0,0.0,0.0,0.0,0.41200868358563,0.15131566708842503,0.26069301649720494,0.5633243506740551,0.15131566708842503,0.44804172582613927,7,4,3,2,6,0,nan,nan,nan,nan,nan,nan,nan,nan,nan,nan,nan,nan,0.0,nan,nan,nan,nan,nan,nan,nan,nan,nan,nan,nan,nan,nan,nan,nan,nan,nan,nan,149.31367974635214,535.9470596169122,nan,536.2087115729228,nan,nan,nan,nan
1,234,1,1,nan,nan,nan,0,0.0,0.0,0.0,0.0,0.0,0.0,0.0,0.0,0.0,0,8,4,6,5,1,nan,nan,nan,nan,nan,nan,nan,nan,nan,nan,nan,nan,0.0,nan,nan,nan,nan,nan,nan,nan,nan,nan,nan,nan,nan,nan,nan,nan,nan,nan,nan,149.31367974635214,536.9638603404164,nan,nan,nan,nan,nan,nan
1,235,1,1,1.0,1.0,0.5799710741266608,0,0.0,0.0,0.0,0.41127879655856675,0.15130926631377847,0.2599695302447883,0.5625880628723452,0.15130926631377847,0.42081151506863534,5,4,7,1,0,8,nan,nan,nan,nan,nan,nan,nan,nan,nan,nan,nan,nan,0.0,nan,nan,nan,nan,nan,nan,nan,nan,nan,nan,nan,nan,nan,nan,nan,nan,nan,nan,149.31367974635214,537.9806704723742,nan,538.5606415465008,nan,nan,nan,nan
1,236,1,1,1.0,1.0,0.23521497822366655,0,0.0,0.0,0.0,0.41209373509754305,0.1513958465915425,0.2606978885060005,0.5634895816890856,0.1513958465915425,0.4075930261751637,1,0,8,5,2,6,nan,nan,nan,nan,nan,nan,nan,nan,nan,nan,nan,nan,0.0,nan,nan,nan,nan,nan,nan,nan,nan,nan,nan,nan,nan,nan,nan,nan,nan,nan,nan,149.31367974635214,538.9974808893166,nan,539.2326958675403,nan,nan,nan,nan
1,237,1,1,1.0,1.0,0.1623973974492401,0,0.0,0.0,0.0,0.41124335645872634,0.1515262269489958,0.2597171295097305,0.5627695834077222,0.1515262269489958,0.32586114993318915,6,8,4,2,0,1,nan,nan,nan,nan,nan,nan,nan,nan,nan,nan,nan,nan,0.0,nan,nan,nan,nan,nan,nan,nan,nan,nan,nan,nan,nan,nan,nan,nan,nan,nan,nan,149.31367974635214,540.0142699240241,nan,540.1766673214734,nan,nan,nan,nan
1,238,1,1,1.0,1.0,0.009543027728796005,1,1.0,0.0,1.0,0.4100527059371499,0.1521355020090237,0.25791720392812617,0.5621882079461735,0.1521355020090237,0.13571846780056754,7,4,1,0,5,3,1.0,1.0,1.0,1.0,1.0,1.0,0.0,1.0,0.0,0.0,0.0,0.0,1.0,0.0,4.0,4.0,3.0,7.0,5.0,2.0,3.0,4.0,5.0,6.0,1.0,1.735538134817034,2.20624834112823,2.4936975191812962,2.909759045112878,3.2856730283237994,0.7029162782710046,149.31367974635214,541.031064660754,541.8394885144662,541.0406076884829,546.1733670469839,547.1753590146545,542.8479427595157,546.1650342529174
1,239,1,1,nan,nan,nan,0,0.0,0.0,0.0,0.0,0.0,0.0,0.0,0.0,0.0,5,2,4,6,3,0,nan,nan,nan,nan,nan,nan,nan,nan,nan,nan,nan,nan,0.0,nan,nan,nan,nan,nan,nan,nan,nan,nan,nan,nan,nan,nan,nan,nan,nan,nan,nan,149.31367974635214,547.3986201910302,nan,nan,nan,nan,nan,nan
1,240,1,1,1.0,1.0,0.6570180582348257,0,0.0,0.0,0.0,0.40814551699330054,0.15425694779073348,0.2538885692025671,0.562402464784034,0.15425694779073348,0.33328054298181087,6,5,7,2,0,8,nan,nan,nan,nan,nan,nan,nan,nan,nan,nan,nan,nan,0.0,nan,nan,nan,nan,nan,nan,nan,nan,nan,nan,nan,nan,nan,nan,nan,nan,nan,nan,149.31367974635214,548.4153710228857,nan,549.0723890811205,nan,nan,nan,nan
1,241,0,0,1.0,0.0,0.376273489324376,0,0.0,0.0,0.0,0.409325007710085,0.1548372826794103,0.25448772503067474,0.5641622903894953,0.1548372826794103,0.5166457737796009,4,2,0,8,1,7,nan,nan,nan,nan,nan,nan,nan,nan,nan,nan,nan,nan,0.0,nan,nan,nan,nan,nan,nan,nan,nan,nan,nan,nan,nan,nan,nan,nan,nan,nan,nan,149.31367974635214,549.4321800144389,nan,549.8084535037633,nan,nan,nan,nan
1,242,1,1,1.0,1.0,0.1114843338727951,0,0.0,0.0,0.0,0.4091691043214732,0.1544882681128489,0.25468083620862425,0.5636573724343221,0.1544882681128489,0.3815919604773323,1,6,4,3,5,2,nan,nan,nan,nan,nan,nan,nan,nan,nan,nan,nan,nan,0.0,nan,nan,nan,nan,nan,nan,nan,nan,nan,nan,nan,nan,nan,nan,nan,nan,nan,nan,149.31367974635214,550.4489547943231,nan,550.5604391281959,nan,nan,nan,nan
1,243,1,1,1.0,1.0,0.26265720557421446,1,1.0,0.0,1.0,0.4077715232395545,0.1554627301722987,0.25230879306725584,0.5632342534118532,0.1554627301722987,0.25013834292379516,6,4,2,0,7,1,1.0,1.0,1.0,1.0,1.0,1.0,0.0,0.0,0.0,0.0,0.0,0.0,0.0,7.0,5.0,3.0,2.0,3.0,3.0,2.0,3.0,4.0,5.0,6.0,1.0,1.3066378680523485,1.8999064029194415,3.1556565810460597,3.706944973906502,4.506502903532237,0.8353876895271242,149.31367974635214,551.4657512416597,552.2741742399521,551.728408447234,557.8332329320256,558.843935446348,553.2909795253072,557.824900137959
1,244,1,1,1.0,1.0,0.3094081487506628,0,0.0,0.0,0.0,0.4070934189513987,0.15541449617883488,0.2516789227725639,0.5625079151302336,0.15541449617883488,0.2278498960658908,0,5,4,2,3,6,nan,nan,nan,nan,nan,nan,nan,nan,nan,nan,nan,nan,0.0,nan,nan,nan,nan,nan,nan,nan,nan,nan,nan,nan,nan,nan,nan,nan,nan,nan,nan,149.31367974635214,559.0668240017258,nan,559.3762321504764,nan,nan,nan,nan
1,245,1,1,1.0,1.0,0.20465465285815299,0,0.0,0.0,0.0,0.40663906885744183,0.15519503815974495,0.2514440306976969,0.5618341070171868,0.15519503815974495,0.25890666906101006,5,1,3,6,8,7,nan,nan,nan,nan,nan,nan,nan,nan,nan,nan,nan,nan,0.0,nan,nan,nan,nan,nan,nan,nan,nan,nan,nan,nan,nan,nan,nan,nan,nan,nan,nan,149.31367974635214,560.0835577279795,nan,560.2882123808376,nan,nan,nan,nan
1,246,1,1,1.0,1.0,0.20382730336859822,1,1.0,0.0,1.0,0.4057039558204081,0.1554412967967374,0.2502626590236707,0.5611452526171454,0.1554412967967374,0.239296701659138,1,8,5,3,4,6,1.0,1.0,1.0,1.0,1.0,1.0,0.0,0.0,0.0,0.0,0.0,0.0,0.0,2.0,0.0,1.0,6.0,5.0,7.0,2.0,3.0,4.0,5.0,6.0,1.0,1.545364092104137,2.425507335923612,2.808144459500909,3.4966097776778042,4.183819246711209,1.050933305406943,149.31367974635214,561.1003533198964,561.9087917136494,561.304180623265,567.1511189886369,568.1568879119586,562.9255744761322,567.1427899010014
1,247,1,1,1.0,1.0,0.6156725406181067,0,0.0,0.0,0.0,0.40477364866625226,0.15568427333979853,0.24908937532645373,0.5604579220060508,0.15568427333979853,0.3413848322816193,5,7,1,6,2,8,nan,nan,nan,nan,nan,nan,nan,nan,nan,nan,nan,nan,0.0,nan,nan,nan,nan,nan,nan,nan,nan,nan,nan,nan,nan,nan,nan,nan,nan,nan,nan,149.31367974635214,568.3763165390119,nan,568.99198907963,nan,nan,nan,nan
1,248,1,1,1.0,1.0,0.470799726434052,0,0.0,0.0,0.0,0.40574107477612315,0.15597917978875592,0.24976189498736723,0.5617202545648791,0.15597917978875592,0.430099856806919,3,0,5,7,1,4,nan,nan,nan,nan,nan,nan,nan,nan,nan,nan,nan,nan,0.0,nan,nan,nan,nan,nan,nan,nan,nan,nan,nan,nan,nan,nan,nan,nan,nan,nan,nan,149.31367974635214,569.3931434915867,nan,569.8639432180207,nan,nan,nan,nan
1,249,1,1,1.0,1.0,0.33406213438138366,0,0.0,0.0,0.0,0.4060381462448808,0.15568445560600813,0.2503536906388727,0.561722601850889,0.15568445560600813,0.47351146714451414,7,6,3,4,8,1,nan,nan,nan,nan,nan,nan,nan,nan,nan,nan,nan,nan,0.0,nan,nan,nan,nan,nan,nan,nan,nan,nan,nan,nan,nan,nan,nan,nan,nan,nan,nan,149.31367974635214,570.4099008806515,nan,570.7439630150329,nan,nan,nan,nan
1,250,1,1,1.0,1.0,0.30924906488507986,0,0.0,0.0,0.0,0.4057109825545922,0.1554056610417831,0.2503053215128091,0.5611166435963753,0.1554056610417831,0.3713703085668385,2,5,4,3,1,7,nan,nan,nan,nan,nan,nan,nan,nan,nan,nan,nan,nan,0.0,nan,nan,nan,nan,nan,nan,nan,nan,nan,nan,nan,nan,nan,nan,nan,nan,nan,nan,149.31367974635214,571.4266904855613,nan,571.7359395504463,nan,nan,nan,nan
1,251,1,1,1.0,1.0,0.2684218524955213,0,0.0,0.0,0.0,0.4052745032891193,0.15518876382649296,0.25008573946262636,0.5604632671156122,0.15518876382649296,0.30391101725399494,3,2,0,5,6,8,nan,nan,nan,nan,nan,nan,nan,nan,nan,nan,nan,nan,0.0,nan,nan,nan,nan,nan,nan,nan,nan,nan,nan,nan,nan,nan,nan,nan,nan,nan,nan,149.31367974635214,572.4434986216947,nan,572.7119204741903,nan,nan,nan,nan
1,252,1,1,1.0,1.0,0.2516439363826066,0,0.0,0.0,0.0,0.40465804990716614,0.15510980372717426,0.24954824617999188,0.5597678536343405,0.15510980372717426,0.27643828458773595,5,3,6,1,7,4,nan,nan,nan,nan,nan,nan,nan,nan,nan,nan,nan,nan,0.0,nan,nan,nan,nan,nan,nan,nan,nan,nan,nan,nan,nan,nan,nan,nan,nan,nan,nan,149.31367974635214,573.4602953540161,nan,573.7119392903987,nan,nan,nan,nan
1,253,1,1,nan,nan,nan,0,0.0,0.0,0.0,0.0,0.0,0.0,0.0,0.0,0.0,1,5,3,2,4,7,nan,nan,nan,nan,nan,nan,nan,nan,nan,nan,nan,nan,0.0,nan,nan,nan,nan,nan,nan,nan,nan,nan,nan,nan,nan,nan,nan,nan,nan,nan,nan,149.31367974635214,574.477090945933,nan,nan,nan,nan,nan,nan
1,254,1,1,1.0,1.0,0.4578751716762781,0,0.0,0.0,0.0,0.40397188796310984,0.1550989514266455,0.24887293653646433,0.5590708393897553,0.1550989514266455,0.35475955402944237,0,7,1,5,2,3,nan,nan,nan,nan,nan,nan,nan,nan,nan,nan,nan,nan,0.0,nan,nan,nan,nan,nan,nan,nan,nan,nan,nan,nan,nan,nan,nan,nan,nan,nan,nan,149.31367974635214,575.4938979418948,nan,575.9517731135711,nan,nan,nan,nan
1,255,1,1,1.0,1.0,0.017085249768570065,1,1.0,0.0,1.0,0.4042125276225436,0.1547940781952933,0.2494184494272503,0.5590066058178369,0.1547940781952933,0.2374802107224241,2,4,0,7,5,8,1.0,1.0,1.0,1.0,1.0,1.0,1.0,0.0,1.0,0.0,0.0,0.0,2.0,2.0,8.0,0.0,4.0,8.0,7.0,2.0,3.0,4.0,5.0,6.0,1.0,2.0218015974387527,2.342598772374913,2.925416532671079,3.492457635467872,4.237014790996909,1.375924531603232,149.31367974635214,576.5107083588373,577.319123374531,576.5277936086059,582.6198015902191,583.6161774462089,578.3442557519302,582.6114770639688
1,256,1,1,1.0,1.0,0.23499602428637445,0,0.0,0.0,0.0,0.4024919619431926,0.15658170376559696,0.24591025817759563,0.5590736657087896,0.15658170376559696,0.2366521485770742,3,1,7,6,2,4,nan,nan,nan,nan,nan,nan,nan,nan,nan,nan,nan,nan,0.0,nan,nan,nan,nan,nan,nan,nan,nan,nan,nan,nan,nan,nan,nan,nan,nan,nan,nan,149.31367974635214,583.8366506660823,nan,584.0716466903687,nan,nan,nan,nan
1,257,1,1,1.0,1.0,0.2021552138030529,0,0.0,0.0,0.0,0.4017508294756846,0.15662991853770322,0.24512091093798136,0.5583807480133878,0.15662991853770322,0.15141216261933246,0,5,4,2,6,7,nan,nan,nan,nan,nan,nan,nan,nan,nan,nan,nan,nan,0.0,nan,nan,nan,nan,nan,nan,nan,nan,nan,nan,nan,nan,nan,nan,nan,nan,nan,nan,149.31367974635214,584.8534613682423,nan,585.0556165820453,nan,nan,nan,nan
1,258,1,1,1.0,1.0,0.18535391986370087,1,1.0,0.0,1.0,0.400871553635717,0.15684254292176955,0.24402901071394748,0.5577140965574866,0.15684254292176955,0.20750171931770942,5,4,7,3,8,6,1.0,1.0,1.0,1.0,1.0,1.0,0.0,0.0,0.0,1.0,1.0,0.0,2.0,1.0,1.0,4.0,3.0,8.0,1.0,2.0,3.0,4.0,5.0,6.0,1.0,2.359089311445132,2.8132750522345304,3.149570630863309,3.9169377696234733,5.1731825897004455,1.4382251959759742,149.31367974635214,585.870253253961,586.678666559048,586.0556071738247,592.9128192686476,593.911920075072,587.7038146166597,592.9044836235698
1,259,1,1,1.0,1.0,0.26136800018139184,0,0.0,0.0,0.0,0.3999263008560152,0.15714488696953416,0.24278141388648106,0.5570711878255494,0.15714488696953416,0.21629237794938186,3,2,6,4,0,8,nan,nan,nan,nan,nan,nan,nan,nan,nan,nan,nan,nan,0.0,nan,nan,nan,nan,nan,nan,nan,nan,nan,nan,nan,nan,nan,nan,nan,nan,nan,nan,149.31367974635214,594.1380464690737,nan,594.3994144692551,nan,nan,nan,nan
1,260,1,1,1.0,1.0,0.18859574967063963,0,0.0,0.0,0.0,0.3993212427744666,0.15706733878418025,0.24225390399028637,0.5563885815586469,0.15706733878418025,0.21177255657191077,0,4,5,2,7,6,nan,nan,nan,nan,nan,nan,nan,nan,nan,nan,nan,nan,0.0,nan,nan,nan,nan,nan,nan,nan,nan,nan,nan,nan,nan,nan,nan,nan,nan,nan,nan,149.31367974635214,595.1547973009292,nan,595.3433930505998,nan,nan,nan,nan
1,261,1,1,1.0,1.0,0.13976559950970113,1,1.0,0.0,1.0,0.39840504497836304,0.157337580411342,0.24106746456702105,0.5557426253897051,0.157337580411342,0.1965764497872442,4,1,0,6,8,7,1.0,1.0,1.0,1.0,1.0,1.0,1.0,0.0,0.0,0.0,0.0,1.0,2.0,4.0,5.0,1.0,0.0,5.0,7.0,2.0,3.0,4.0,5.0,6.0,1.0,1.4182171390857548,2.1275215696077794,2.5688600167632103,3.1123906548600644,3.775812830775976,0.9698596214875579,149.31367974635214,596.1716102836654,596.9800136105623,596.3113758831751,601.8139695466962,602.8193515941966,597.9968174702954,601.8056358972099
1,262,1,1,1.0,1.0,0.19201148813590407,0,0.0,0.0,0.0,0.3972853936992779,0.15791225911901466,0.23937313458026324,0.5551976528182926,0.15791225911901466,0.17345761243874827,5,3,2,0,4,1,nan,nan,nan,nan,nan,nan,nan,nan,nan,nan,nan,nan,0.0,nan,nan,nan,nan,nan,nan,nan,nan,nan,nan,nan,nan,nan,nan,nan,nan,nan,nan,149.31367974635214,603.0391690926626,nan,603.2311805807985,nan,nan,nan,nan
1,263,1,1,1.0,1.0,0.2072356294374913,0,0.0,0.0,0.0,0.3964005923821944,0.15814436871535317,0.2382562236668412,0.5545449610975476,0.15814436871535317,0.1796709056943655,6,8,1,4,7,3,nan,nan,nan,nan,nan,nan,nan,nan,nan,nan,nan,nan,0.0,nan,nan,nan,nan,nan,nan,nan,nan,nan,nan,nan,nan,nan,nan,nan,nan,nan,nan,149.31367974635214,604.055949004367,nan,604.2631846338045,nan,nan,nan,nan
1,264,1,1,nan,nan,nan,0,0.0,0.0,0.0,0.0,0.0,0.0,0.0,0.0,0.0,3,2,6,8,4,5,nan,nan,nan,nan,nan,nan,nan,nan,nan,nan,nan,nan,0.0,nan,nan,nan,nan,nan,nan,nan,nan,nan,nan,nan,nan,nan,nan,nan,nan,nan,nan,149.31367974635214,605.0727571405005,nan,nan,nan,nan,nan,nan
1,265,1,1,nan,nan,nan,0,0.0,0.0,0.0,0.0,0.0,0.0,0.0,0.0,0.0,6,3,1,7,5,8,nan,nan,nan,nan,nan,nan,nan,nan,nan,nan,nan,nan,0.0,nan,nan,nan,nan,nan,nan,nan,nan,nan,nan,nan,nan,nan,nan,nan,nan,nan,nan,149.31367974635214,606.0895672724582,nan,nan,nan,nan,nan,nan
1,266,1,1,1.0,1.0,0.7727112683933228,1,0.0,1.0,1.0,0.3955887255884403,0.15828841228621987,0.23730031330222046,0.5538771378746602,0.15828841228621987,0.7727112683933228,1,4,6,8,7,3,1.0,1.0,1.0,1.0,1.0,1.0,0.0,0.0,0.0,0.0,0.0,0.0,0.0,7.0,1.0,3.0,4.0,4.0,7.0,2.0,3.0,4.0,5.0,6.0,1.0,1.578392210882157,2.386444299016148,2.8011863995343447,3.2885650447569788,3.8168675501365215,1.153317080810666,149.31367974635214,607.1063551667612,607.914769327268,607.8790664351545,612.7904137517326,613.8014749172144,608.9315885822289,612.7820829532575
1,267,0,0,0.0,1.0,0.6549499698448926,0,0.0,0.0,0.0,0.39720036038675177,0.1598541032147153,0.23734625717203647,0.557054463601467,0.1598541032147153,0.7138306191191077,7,5,1,3,2,4,nan,nan,nan,nan,nan,nan,nan,nan,nan,nan,nan,nan,0.0,nan,nan,nan,nan,nan,nan,nan,nan,nan,nan,nan,nan,nan,nan,nan,nan,nan,nan,149.31367974635214,614.0239346879534,nan,614.6788846577983,nan,nan,nan,nan
1,268,1,1,1.0,1.0,0.23784812749363482,0,0.0,0.0,0.0,0.39829716723550984,0.160393563690716,0.23790360354479384,0.5586907309262259,0.160393563690716,0.5551697885772834,4,0,6,1,5,2,nan,nan,nan,nan,nan,nan,nan,nan,nan,nan,nan,nan,0.0,nan,nan,nan,nan,nan,nan,nan,nan,nan,nan,nan,nan,nan,nan,nan,nan,nan,nan,149.31367974635214,615.0490542359184,nan,615.2869023634121,nan,nan,nan,nan
1,269,1,1,1.0,1.0,0.2369925535749644,0,0.0,0.0,0.0,0.3976172984230443,0.16039235789662487,0.2372249405264194,0.5580096563196691,0.16039235789662487,0.3765968836378306,8,2,4,7,0,6,nan,nan,nan,nan,nan,nan,nan,nan,nan,nan,nan,nan,0.0,nan,nan,nan,nan,nan,nan,nan,nan,nan,nan,nan,nan,nan,nan,nan,nan,nan,nan,149.31367974635214,616.0658886008896,nan,616.3028811544646,nan,nan,nan,nan
1,270,1,1,1.0,1.0,0.24421033612452447,0,0.0,0.0,0.0,0.3969395568836009,0.16039190723587485,0.23654764964772604,0.5573314641194758,0.16039190723587485,0.2396836723977079,7,4,0,5,6,8,nan,nan,nan,nan,nan,nan,nan,nan,nan,nan,nan,nan,0.0,nan,nan,nan,nan,nan,nan,nan,nan,nan,nan,nan,nan,nan,nan,nan,nan,nan,nan,149.31367974635214,617.0826733591966,nan,617.3268836953212,nan,nan,nan,nan
1,271,1,1,1.0,1.0,0.20338568952865899,0,0.0,0.0,0.0,0.3962978374686468,0.16035919307758942,0.23593864439105736,0.5566570305462362,0.16035919307758942,0.2281961930760493,5,8,6,4,3,0,nan,nan,nan,nan,nan,nan,nan,nan,nan,nan,nan,nan,0.0,nan,nan,nan,nan,nan,nan,nan,nan,nan,nan,nan,nan,nan,nan,nan,nan,nan,nan,149.31367974635214,618.0994737977162,nan,618.3028594872449,nan,nan,nan,nan
1,272,1,1,1.0,1.0,0.5384986887220293,0,0.0,0.0,0.0,0.39549067366973467,0.1605071230655273,0.23498355060420736,0.555997796735262,0.1605071230655273,0.32869823812507093,0,3,1,8,6,5,nan,nan,nan,nan,nan,nan,nan,nan,nan,nan,nan,nan,0.0,nan,nan,nan,nan,nan,nan,nan,nan,nan,nan,nan,nan,nan,nan,nan,nan,nan,nan,149.31367974635214,619.1162810786627,nan,619.6547797673848,nan,nan,nan,nan
1,273,1,1,1.0,1.0,0.24142294959165156,0,0.0,0.0,0.0,0.3960865403991193,0.16043706340339994,0.23564947699571934,0.5565236038025192,0.16043706340339994,0.32776910928077996,1,5,0,2,4,7,nan,nan,nan,nan,nan,nan,nan,nan,nan,nan,nan,nan,0.0,nan,nan,nan,nan,nan,nan,nan,nan,nan,nan,nan,nan,nan,nan,nan,nan,nan,nan,149.31367974635214,620.1413966354448,nan,620.3828195850365,nan,nan,nan,nan
1,274,1,1,1.0,1.0,0.23259294778108597,0,0.0,0.0,0.0,0.395444782760914,0.16041225267797063,0.23503253008294336,0.5558570354388847,0.16041225267797063,0.33750486203158897,6,3,7,1,8,0,nan,nan,nan,nan,nan,nan,nan,nan,nan,nan,nan,nan,0.0,nan,nan,nan,nan,nan,nan,nan,nan,nan,nan,nan,nan,nan,nan,nan,nan,nan,nan,149.31367974635214,621.1582101883832,nan,621.3908031361643,nan,nan,nan,nan
1,275,0,0,1.0,0.0,0.16777032194659114,0,0.0,0.0,0.0,0.3947718412940552,0.16042099849445562,0.23435084279959956,0.5551928397885109,0.16042099849445562,0.21392873977310956,5,1,2,4,3,7,nan,nan,nan,nan,nan,nan,nan,nan,nan,nan,nan,nan,0.0,nan,nan,nan,nan,nan,nan,nan,nan,nan,nan,nan,nan,nan,nan,nan,nan,nan,nan,149.31367974635214,622.1749955168925,nan,622.3427658388391,nan,nan,nan,nan
1,276,1,1,1.0,1.0,0.6228749279398471,0,0.0,0.0,0.0,0.3938376786629957,0.16074879629339417,0.2330888823696015,0.5545864749563898,0.16074879629339417,0.3410793992225081,0,8,3,7,2,5,nan,nan,nan,nan,nan,nan,nan,nan,nan,nan,nan,nan,0.0,nan,nan,nan,nan,nan,nan,nan,nan,nan,nan,nan,nan,nan,nan,nan,nan,nan,nan,149.31367974635214,623.1917956704274,nan,623.8146705983672,nan,nan,nan,nan
