block,trial,freq_trials,correct_response,actual_response,acc,rts,probe_trials,trials_colorind0,trials_colorind1,trials_colorind2,trials_colorind3,trials_colorind4,trials_colorind5,wholereport_resp0,wholereport_resp1,wholereport_resp2,wholereport_resp3,wholereport_resp4,wholereport_resp5,wholereport_respacc0,wholereport_respacc1,wholereport_respacc2,wholereport_respacc3,wholereport_respacc4,wholereport_respacc5,wholereport_respacc_total,wholereport_respcolorind0,wholereport_respcolorind1,wholereport_respcolorind2,wholereport_respcolorind3,wholereport_respcolorind4,wholereport_respcolorind5,wholereport_resporder0,wholereport_resporder1,wholereport_resporder2,wholereport_resporder3,wholereport_resporder4,wholereport_resporder5,wholereport_rts0,wholereport_rts1,wholereport_rts2,wholereport_rts3,wholereport_rts4,wholereport_rts5,time_blockstart,time_encarray_offset,time_encarray_onset,time_response,time_iti_offset,time_iti_onset,time_memprobe_offset,time_memprobe_onset
1,1,1,1,1.0,1.0,0.4103210536413826,0.0,6,0,8,5,4,2,nan,nan,nan,nan,nan,nan,nan,nan,nan,nan,nan,nan,0.0,nan,nan,nan,nan,nan,nan,nan,nan,nan,nan,nan,nan,nan,nan,nan,nan,nan,nan,492.64648633670004,493.6680942306266,nan,494.078415284268,nan,nan,nan,nan
1,2,1,1,1.0,1.0,0.3537645465985406,0.0,4,5,6,0,3,2,nan,nan,nan,nan,nan,nan,nan,nan,nan,nan,nan,nan,0.0,nan,nan,nan,nan,nan,nan,nan,nan,nan,nan,nan,nan,nan,nan,nan,nan,nan,nan,492.64648633670004,494.67665505287005,nan,495.0304195994686,nan,nan,nan,nan
1,3,1,1,1.0,1.0,0.3213487143802922,0.0,8,1,0,7,2,5,nan,nan,nan,nan,nan,nan,nan,nan,nan,nan,nan,nan,0.0,nan,nan,nan,nan,nan,nan,nan,nan,nan,nan,nan,nan,nan,nan,nan,nan,nan,nan,492.64648633670004,495.6850177343149,nan,496.0063664486952,nan,nan,nan,nan
1,4,0,0,0.0,1.0,0.497198232304072,1.0,6,5,7,2,3,8,1.0,1.0,1.0,1.0,1.0,1.0,0.0,1.0,1.0,0.0,0.0,0.0,2.0,0.0,5.0,7.0,6.0,7.0,4.0,3.0,2.0,1.0,6.0,5.0,4.0,7.104284202869167,4.666350021536346,2.6115226135589182,13.143957119478728,10.60910244504339,9.024796107420116,492.64648633670004,496.68513633369,497.49356327547866,497.1823345659941,511.6870048440469,512.6882498523919,498.5020265953499,511.6786729528103
1,5,1,1,1.0,1.0,0.406365935516078,0.0,4,2,3,8,0,1,nan,nan,nan,nan,nan,nan,nan,nan,nan,nan,nan,nan,0.0,nan,nan,nan,nan,nan,nan,nan,nan,nan,nan,nan,nan,nan,nan,nan,nan,nan,nan,492.64648633670004,512.8955273495667,nan,513.3018932850828,nan,nan,nan,nan
1,6,1,1,1.0,1.0,0.5418645817553625,0.0,8,3,6,2,5,0,nan,nan,nan,nan,nan,nan,nan,nan,nan,nan,nan,nan,0.0,nan,nan,nan,nan,nan,nan,nan,nan,nan,nan,nan,nan,nan,nan,nan,nan,nan,nan,492.64648633670004,513.903979550727,nan,514.4458441324823,nan,nan,nan,nan
1,7,1,1,1.0,1.0,0.43738936545560136,0.0,3,7,4,6,8,5,nan,nan,nan,nan,nan,nan,nan,nan,nan,nan,nan,nan,0.0,nan,nan,nan,nan,nan,nan,nan,nan,nan,nan,nan,nan,nan,nan,nan,nan,nan,nan,492.64648633670004,514.9124206332199,nan,515.3498099986755,nan,nan,nan,nan
1,8,1,1,1.0,1.0,0.31688954892160837,0.0,2,0,6,5,4,8,nan,nan,nan,nan,nan,nan,nan,nan,nan,nan,nan,nan,0.0,nan,nan,nan,nan,nan,nan,nan,nan,nan,nan,nan,nan,nan,nan,nan,nan,nan,nan,492.64648633670004,515.9209019140399,nan,516.2377914629615,nan,nan,nan,nan
1,9,1,1,1.0,1.0,0.24438484699930996,0.0,3,8,7,2,0,6,nan,nan,nan,nan,nan,nan,nan,nan,nan,nan,nan,nan,0.0,nan,nan,nan,nan,nan,nan,nan,nan,nan,nan,nan,nan,nan,nan,nan,nan,nan,nan,492.64648633670004,516.9293757824053,nan,517.1737606294046,nan,nan,nan,nan
1,10,1,1,1.0,1.0,0.45190096837177407,0.0,2,6,8,4,1,5,nan,nan,nan,nan,nan,nan,nan,nan,nan,nan,nan,nan,0.0,nan,nan,nan,nan,nan,nan,nan,nan,nan,nan,nan,nan,nan,nan,nan,nan,nan,nan,492.64648633670004,517.9378231369774,nan,518.3897241053492,nan,nan,nan,nan
1,11,0,0,0.0,1.0,0.4514037633052794,0.0,6,2,5,1,8,7,nan,nan,nan,nan,nan,nan,nan,nan,nan,nan,nan,nan,0.0,nan,nan,nan,nan,nan,nan,nan,nan,nan,nan,nan,nan,nan,nan,nan,nan,nan,nan,492.64648633670004,518.9462901630759,nan,519.3976939263812,nan,nan,nan,nan
1,12,1,1,1.0,1.0,0.49091275049431715,0.0,8,4,6,7,0,3,nan,nan,nan,nan,nan,nan,nan,nan,nan,nan,nan,nan,0.0,nan,nan,nan,nan,nan,nan,nan,nan,nan,nan,nan,nan,nan,nan,nan,nan,nan,nan,492.64648633670004,519.9547457853769,nan,520.4456585358712,nan,nan,nan,nan
1,13,1,1,1.0,1.0,0.5547471538302489,0.0,7,0,2,6,1,8,nan,nan,nan,nan,nan,nan,nan,nan,nan,nan,nan,nan,0.0,nan,nan,nan,nan,nan,nan,nan,nan,nan,nan,nan,nan,nan,nan,nan,nan,nan,nan,492.64648633670004,520.9548883327079,nan,521.5096354865382,nan,nan,nan,nan
1,14,1,1,1.0,1.0,0.41859278990887105,0.0,6,2,0,7,3,5,nan,nan,nan,nan,nan,nan,nan,nan,nan,nan,nan,nan,0.0,nan,nan,nan,nan,nan,nan,nan,nan,nan,nan,nan,nan,nan,nan,nan,nan,nan,nan,492.64648633670004,521.9550117786857,nan,522.3736045685946,nan,nan,nan,nan
1,15,1,1,1.0,1.0,0.41812124334683176,0.0,0,7,5,2,6,4,nan,nan,nan,nan,nan,nan,nan,nan,nan,nan,nan,nan,0.0,nan,nan,nan,nan,nan,nan,nan,nan,nan,nan,nan,nan,nan,nan,nan,nan,nan,nan,492.64648633670004,522.9634571375937,nan,523.3815783809405,nan,nan,nan,nan
1,16,1,1,1.0,1.0,0.3379648860282032,0.0,8,0,7,6,4,3,nan,nan,nan,nan,nan,nan,nan,nan,nan,nan,nan,nan,0.0,nan,nan,nan,nan,nan,nan,nan,nan,nan,nan,nan,nan,nan,nan,nan,nan,nan,nan,492.64648633670004,523.963600540199,nan,524.3015654262272,nan,nan,nan,nan
1,17,1,1,1.0,1.0,0.40180185523058753,0.0,0,6,2,7,8,1,nan,nan,nan,nan,nan,nan,nan,nan,nan,nan,nan,nan,0.0,nan,nan,nan,nan,nan,nan,nan,nan,nan,nan,nan,nan,nan,nan,nan,nan,nan,nan,492.64648633670004,524.9637202799495,nan,525.3655221351801,nan,nan,nan,nan
1,18,1,1,1.0,1.0,0.31333185273979325,0.0,7,0,6,1,2,8,nan,nan,nan,nan,nan,nan,nan,nan,nan,nan,nan,nan,0.0,nan,nan,nan,nan,nan,nan,nan,nan,nan,nan,nan,nan,nan,nan,nan,nan,nan,nan,492.64648633670004,525.9721721960377,nan,526.2855040487775,nan,nan,nan,nan
1,19,1,1,1.0,1.0,0.30484914644330274,0.0,8,5,3,2,6,1,nan,nan,nan,nan,nan,nan,nan,nan,nan,nan,nan,nan,0.0,nan,nan,nan,nan,nan,nan,nan,nan,nan,nan,nan,nan,nan,nan,nan,nan,nan,nan,492.64648633670004,526.9806261077756,nan,527.2854752542189,nan,nan,nan,nan
1,20,1,1,1.0,1.0,0.3043496606114786,0.0,5,8,4,6,7,2,nan,nan,nan,nan,nan,nan,nan,nan,nan,nan,nan,nan,0.0,nan,nan,nan,nan,nan,nan,nan,nan,nan,nan,nan,nan,nan,nan,nan,nan,nan,nan,492.64648633670004,527.9891076736967,nan,528.2934573343082,nan,nan,nan,nan
1,21,1,1,1.0,1.0,0.2318612090894021,0.0,6,7,5,4,8,0,nan,nan,nan,nan,nan,nan,nan,nan,nan,nan,nan,nan,0.0,nan,nan,nan,nan,nan,nan,nan,nan,nan,nan,nan,nan,nan,nan,nan,nan,nan,nan,492.64648633670004,528.9975601599581,nan,529.2294213690475,nan,nan,nan,nan
1,22,1,1,1.0,1.0,0.2556686082534725,0.0,2,5,6,7,3,8,nan,nan,nan,nan,nan,nan,nan,nan,nan,nan,nan,nan,0.0,nan,nan,nan,nan,nan,nan,nan,nan,nan,nan,nan,nan,nan,nan,nan,nan,nan,nan,492.64648633670004,529.9977101197583,nan,530.2533787280117,nan,nan,nan,nan
1,23,1,1,1.0,1.0,0.3671947855036706,0.0,8,0,5,1,7,2,nan,nan,nan,nan,nan,nan,nan,nan,nan,nan,nan,nan,0.0,nan,nan,nan,nan,nan,nan,nan,nan,nan,nan,nan,nan,nan,nan,nan,nan,nan,nan,492.64648633670004,531.0061466407205,nan,531.3733414262242,nan,nan,nan,nan
1,24,1,1,1.0,1.0,0.3750286163704004,0.0,2,6,4,5,0,3,nan,nan,nan,nan,nan,nan,nan,nan,nan,nan,nan,nan,0.0,nan,nan,nan,nan,nan,nan,nan,nan,nan,nan,nan,nan,nan,nan,nan,nan,nan,nan,492.64648633670004,532.0062863370986,nan,532.381314953469,nan,nan,nan,nan
1,25,1,1,1.0,1.0,0.3345577198342653,0.0,4,5,6,2,3,1,nan,nan,nan,nan,nan,nan,nan,nan,nan,nan,nan,nan,0.0,nan,nan,nan,nan,nan,nan,nan,nan,nan,nan,nan,nan,nan,nan,nan,nan,nan,nan,492.64648633670004,533.0147339767573,nan,533.3492916965915,nan,nan,nan,nan
1,26,1,1,1.0,1.0,0.31835550561663695,0.0,1,8,0,7,6,3,nan,nan,nan,nan,nan,nan,nan,nan,nan,nan,nan,nan,0.0,nan,nan,nan,nan,nan,nan,nan,nan,nan,nan,nan,nan,nan,nan,nan,nan,nan,nan,492.64648633670004,534.0149152969534,nan,534.33327080257,nan,nan,nan,nan
1,27,0,0,0.0,1.0,0.3179233021219261,0.0,3,2,4,8,7,1,nan,nan,nan,nan,nan,nan,nan,nan,nan,nan,nan,nan,0.0,nan,nan,nan,nan,nan,nan,nan,nan,nan,nan,nan,nan,nan,nan,nan,nan,nan,nan,492.64648633670004,535.0233104791987,nan,535.3412337813206,nan,nan,nan,nan
1,28,1,1,1.0,1.0,0.4294272419938352,0.0,5,3,2,6,0,4,nan,nan,nan,nan,nan,nan,nan,nan,nan,nan,nan,nan,0.0,nan,nan,nan,nan,nan,nan,nan,nan,nan,nan,nan,nan,nan,nan,nan,nan,nan,nan,492.64648633670004,536.0317718034057,nan,536.4611990453996,nan,nan,nan,nan
1,29,0,0,0.0,1.0,0.5572494296065997,1.0,3,7,0,8,1,2,1.0,1.0,1.0,1.0,1.0,1.0,0.0,0.0,0.0,0.0,0.0,0.0,0.0,4.0,6.0,2.0,0.0,8.0,5.0,5.0,6.0,2.0,1.0,3.0,4.0,12.35651057830546,13.715705037655425,8.28404179829522,2.6148565104376758,10.044087607311667,11.436077074773493,492.64648633670004,537.0319214780902,537.840315919093,537.5891709076968,552.6171706237365,553.6215191724768,538.8654270561092,552.6088350262726
1,30,1,1,1.0,1.0,0.5550274018751225,0.0,6,0,2,1,5,3,nan,nan,nan,nan,nan,nan,nan,nan,nan,nan,nan,nan,0.0,nan,nan,nan,nan,nan,nan,nan,nan,nan,nan,nan,nan,nan,nan,nan,nan,nan,nan,492.64648633670004,553.825684006224,nan,554.3807114080992,nan,nan,nan,nan
1,31,0,0,0.0,1.0,0.5788416433206294,0.0,8,2,1,6,7,0,nan,nan,nan,nan,nan,nan,nan,nan,nan,nan,nan,nan,0.0,nan,nan,nan,nan,nan,nan,nan,nan,nan,nan,nan,nan,nan,nan,nan,nan,nan,nan,492.64648633670004,554.8258154348587,nan,555.4046570781793,nan,nan,nan,nan
1,32,1,1,1.0,1.0,0.6343758009461453,0.0,6,3,7,8,1,5,nan,nan,nan,nan,nan,nan,nan,nan,nan,nan,nan,nan,0.0,nan,nan,nan,nan,nan,nan,nan,nan,nan,nan,nan,nan,nan,nan,nan,nan,nan,nan,492.64648633670004,555.8342633596039,nan,556.4686391605501,nan,nan,nan,nan
1,33,1,1,nan,nan,nan,0.0,2,1,3,6,4,0,nan,nan,nan,nan,nan,nan,nan,nan,nan,nan,nan,nan,0.0,nan,nan,nan,nan,nan,nan,nan,nan,nan,nan,nan,nan,nan,nan,nan,nan,nan,nan,492.64648633670004,556.8344070473104,nan,nan,nan,nan,nan,nan
1,34,1,1,1.0,1.0,0.5136995108041447,0.0,6,2,4,1,0,5,nan,nan,nan,nan,nan,nan,nan,nan,nan,nan,nan,nan,0.0,nan,nan,nan,nan,nan,nan,nan,nan,nan,nan,nan,nan,nan,nan,nan,nan,nan,nan,492.64648633670004,557.8428444235615,nan,558.3565439343656,nan,nan,nan,nan
1,35,1,1,1.0,1.0,0.5212376985145966,0.0,3,1,5,7,8,6,nan,nan,nan,nan,nan,nan,nan,nan,nan,nan,nan,nan,0.0,nan,nan,nan,nan,nan,nan,nan,nan,nan,nan,nan,nan,nan,nan,nan,nan,nan,nan,492.64648633670004,558.8513085987215,nan,559.3725462972361,nan,nan,nan,nan
1,36,0,0,0.0,1.0,0.38473380854702555,0.0,8,7,6,2,1,5,nan,nan,nan,nan,nan,nan,nan,nan,nan,nan,nan,nan,0.0,nan,nan,nan,nan,nan,nan,nan,nan,nan,nan,nan,nan,nan,nan,nan,nan,nan,nan,492.64648633670004,559.8597924453934,nan,560.2445262539404,nan,nan,nan,nan
1,37,1,1,1.0,1.0,0.37625851470511407,0.0,7,3,1,4,0,6,nan,nan,nan,nan,nan,nan,nan,nan,nan,nan,nan,nan,0.0,nan,nan,nan,nan,nan,nan,nan,nan,nan,nan,nan,nan,nan,nan,nan,nan,nan,nan,492.64648633670004,560.8682360937237,nan,561.2444946084288,nan,nan,nan,nan
1,38,1,1,1.0,1.0,0.27975368962506764,0.0,3,2,0,8,7,5,nan,nan,nan,nan,nan,nan,nan,nan,nan,nan,nan,nan,0.0,nan,nan,nan,nan,nan,nan,nan,nan,nan,nan,nan,nan,nan,nan,nan,nan,nan,nan,492.64648633670004,561.8767002688692,nan,562.1564539584942,nan,nan,nan,nan
1,39,1,1,1.0,1.0,0.38358345163578633,0.0,7,5,8,1,6,3,nan,nan,nan,nan,nan,nan,nan,nan,nan,nan,nan,nan,0.0,nan,nan,nan,nan,nan,nan,nan,nan,nan,nan,nan,nan,nan,nan,nan,nan,nan,nan,492.64648633670004,562.8768445267633,nan,563.2604279783991,nan,nan,nan,nan
1,40,1,1,1.0,1.0,0.3351261985662859,0.0,2,3,5,7,1,6,nan,nan,nan,nan,nan,nan,nan,nan,nan,nan,nan,nan,0.0,nan,nan,nan,nan,nan,nan,nan,nan,nan,nan,nan,nan,nan,nan,nan,nan,nan,nan,492.64648633670004,563.8852816179278,nan,564.2204078164941,nan,nan,nan,nan
1,41,1,1,1.0,1.0,0.326965364132775,0.0,4,1,6,8,5,3,nan,nan,nan,nan,nan,nan,nan,nan,nan,nan,nan,nan,0.0,nan,nan,nan,nan,nan,nan,nan,nan,nan,nan,nan,nan,nan,nan,nan,nan,nan,nan,492.64648633670004,564.8854147571255,nan,565.2123801212583,nan,nan,nan,nan
1,42,1,1,1.0,1.0,0.25479023162915837,0.0,7,6,8,2,0,5,nan,nan,nan,nan,nan,nan,nan,nan,nan,nan,nan,nan,0.0,nan,nan,nan,nan,nan,nan,nan,nan,nan,nan,nan,nan,nan,nan,nan,nan,nan,nan,492.64648633670004,565.8855604404962,nan,566.1403506721254,nan,nan,nan,nan
1,43,1,1,1.0,1.0,0.2066519994987175,0.0,1,3,4,6,8,7,nan,nan,nan,nan,nan,nan,nan,nan,nan,nan,nan,nan,0.0,nan,nan,nan,nan,nan,nan,nan,nan,nan,nan,nan,nan,nan,nan,nan,nan,nan,nan,492.64648633670004,566.8856750485429,nan,567.0923270480416,nan,nan,nan,nan
1,44,1,1,1.0,1.0,0.1904922643880127,0.0,8,6,0,3,7,5,nan,nan,nan,nan,nan,nan,nan,nan,nan,nan,nan,nan,0.0,nan,nan,nan,nan,nan,nan,nan,nan,nan,nan,nan,nan,nan,nan,nan,nan,nan,nan,492.64648633670004,567.8857982094341,nan,568.0762904738222,nan,nan,nan,nan
1,45,1,1,1.0,1.0,0.21432731773529667,0.0,0,4,3,8,1,2,nan,nan,nan,nan,nan,nan,nan,nan,nan,nan,nan,nan,0.0,nan,nan,nan,nan,nan,nan,nan,nan,nan,nan,nan,nan,nan,nan,nan,nan,nan,nan,492.64648633670004,568.8859256467549,nan,569.1002529644902,nan,nan,nan,nan
1,46,1,1,1.0,1.0,0.19018350687110797,0.0,3,1,6,7,2,8,nan,nan,nan,nan,nan,nan,nan,nan,nan,nan,nan,nan,0.0,nan,nan,nan,nan,nan,nan,nan,nan,nan,nan,nan,nan,nan,nan,nan,nan,nan,nan,492.64648633670004,569.8860476672562,nan,570.0762311741273,nan,nan,nan,nan
1,47,1,1,1.0,1.0,0.09370348502125125,0.0,6,5,4,1,3,0,nan,nan,nan,nan,nan,nan,nan,nan,nan,nan,nan,nan,0.0,nan,nan,nan,nan,nan,nan,nan,nan,nan,nan,nan,nan,nan,nan,nan,nan,nan,nan,492.64648633670004,570.8945226760115,nan,570.9882261610328,nan,nan,nan,nan
1,48,1,1,1.0,1.0,0.07722643956367392,0.0,1,8,7,6,4,5,nan,nan,nan,nan,nan,nan,nan,nan,nan,nan,nan,nan,0.0,nan,nan,nan,nan,nan,nan,nan,nan,nan,nan,nan,nan,nan,nan,nan,nan,nan,nan,492.64648633670004,571.90295406527,nan,571.9801805048337,nan,nan,nan,nan
1,49,0,0,1.0,0.0,0.16504956228891388,1.0,3,0,2,4,5,7,1.0,1.0,1.0,1.0,1.0,1.0,0.0,0.0,1.0,1.0,0.0,0.0,2.0,0.0,3.0,2.0,4.0,6.0,1.0,4.0,3.0,2.0,1.0,6.0,5.0,6.036518344277283,4.6050828955485485,3.5501596957765287,2.693694304980454,7.907916422787821,6.8600196658371715,492.64648633670004,572.9031000337272,573.71149447473,573.0681495960162,582.6792767832958,583.681852898575,574.7282811329787,582.6709628530225
1,50,1,1,1.0,1.0,0.45998169122321997,0.0,6,4,8,0,7,3,nan,nan,nan,nan,nan,nan,nan,nan,nan,nan,nan,nan,0.0,nan,nan,nan,nan,nan,nan,nan,nan,nan,nan,nan,nan,nan,nan,nan,nan,nan,nan,492.64648633670004,583.8878457592364,nan,584.3478274504596,nan,nan,nan,nan
1,51,1,1,1.0,1.0,0.45186903777357657,0.0,2,7,6,3,5,8,nan,nan,nan,nan,nan,nan,nan,nan,nan,nan,nan,nan,0.0,nan,nan,nan,nan,nan,nan,nan,nan,nan,nan,nan,nan,nan,nan,nan,nan,nan,nan,492.64648633670004,584.8879207391292,nan,585.3397897769028,nan,nan,nan,nan
1,52,1,1,1.0,1.0,0.3314199680899037,0.0,0,4,5,6,3,7,nan,nan,nan,nan,nan,nan,nan,nan,nan,nan,nan,nan,0.0,nan,nan,nan,nan,nan,nan,nan,nan,nan,nan,nan,nan,nan,nan,nan,nan,nan,nan,492.64648633670004,585.8963450010197,nan,586.2277649691096,nan,nan,nan,nan
1,53,1,1,1.0,1.0,0.21922039726632647,0.0,2,6,7,8,1,4,nan,nan,nan,nan,nan,nan,nan,nan,nan,nan,nan,nan,0.0,nan,nan,nan,nan,nan,nan,nan,nan,nan,nan,nan,nan,nan,nan,nan,nan,nan,nan,492.64648633670004,586.8965189087612,nan,587.1157393060275,nan,nan,nan,nan
1,54,1,1,1.0,1.0,0.21907899031066336,0.0,1,8,6,2,3,7,nan,nan,nan,nan,nan,nan,nan,nan,nan,nan,nan,nan,0.0,nan,nan,nan,nan,nan,nan,nan,nan,nan,nan,nan,nan,nan,nan,nan,nan,nan,nan,492.64648633670004,587.8966423547536,nan,588.1157213450642,nan,nan,nan,nan
1,55,1,1,1.0,1.0,0.21093070005008485,0.0,6,5,2,1,8,0,nan,nan,nan,nan,nan,nan,nan,nan,nan,nan,nan,nan,0.0,nan,nan,nan,nan,nan,nan,nan,nan,nan,nan,nan,nan,nan,nan,nan,nan,nan,nan,492.64648633670004,588.896761809403,nan,589.107692509453,nan,nan,nan,nan
1,56,1,1,1.0,1.0,0.2587607448513154,0.0,8,2,0,7,5,4,nan,nan,nan,nan,nan,nan,nan,nan,nan,nan,nan,nan,0.0,nan,nan,nan,nan,nan,nan,nan,nan,nan,nan,nan,nan,nan,nan,nan,nan,nan,nan,492.64648633670004,589.8969006505067,nan,590.155661395358,nan,nan,nan,nan
1,57,1,1,1.0,1.0,0.3063336343038827,0.0,3,0,5,8,4,1,nan,nan,nan,nan,nan,nan,nan,nan,nan,nan,nan,nan,0.0,nan,nan,nan,nan,nan,nan,nan,nan,nan,nan,nan,nan,nan,nan,nan,nan,nan,nan,492.64648633670004,590.9053565579088,nan,591.2116901922127,nan,nan,nan,nan
1,58,1,1,1.0,1.0,0.2500824636226753,0.0,4,6,7,1,0,3,nan,nan,nan,nan,nan,nan,nan,nan,nan,nan,nan,nan,0.0,nan,nan,nan,nan,nan,nan,nan,nan,nan,nan,nan,nan,nan,nan,nan,nan,nan,nan,492.64648633670004,591.9055059475068,nan,592.1555884111294,nan,nan,nan,nan
1,59,1,1,1.0,1.0,0.32992949323670473,0.0,8,1,4,0,3,7,nan,nan,nan,nan,nan,nan,nan,nan,nan,nan,nan,nan,0.0,nan,nan,nan,nan,nan,nan,nan,nan,nan,nan,nan,nan,nan,nan,nan,nan,nan,nan,492.64648633670004,592.9056356655783,nan,593.235565158815,nan,nan,nan,nan
1,60,1,1,1.0,1.0,0.2814710998063674,0.0,5,2,8,6,7,1,nan,nan,nan,nan,nan,nan,nan,nan,nan,nan,nan,nan,0.0,nan,nan,nan,nan,nan,nan,nan,nan,nan,nan,nan,nan,nan,nan,nan,nan,nan,nan,492.64648633670004,593.9140613529453,nan,594.1955324527516,nan,nan,nan,nan
1,61,1,1,1.0,1.0,0.2573144596826751,0.0,4,8,6,3,1,2,nan,nan,nan,nan,nan,nan,nan,nan,nan,nan,nan,nan,0.0,nan,nan,nan,nan,nan,nan,nan,nan,nan,nan,nan,nan,nan,nan,nan,nan,nan,nan,492.64648633670004,594.9142013344244,nan,595.1715157941071,nan,nan,nan,nan
1,62,1,1,1.0,1.0,0.2731434850138612,0.0,2,3,7,4,5,6,nan,nan,nan,nan,nan,nan,nan,nan,nan,nan,nan,nan,0.0,nan,nan,nan,nan,nan,nan,nan,nan,nan,nan,nan,nan,nan,nan,nan,nan,nan,nan,492.64648633670004,595.9143367543729,nan,596.1874802393868,nan,nan,nan,nan
1,63,1,1,1.0,1.0,0.34466974207316525,0.0,7,6,2,3,8,1,nan,nan,nan,nan,nan,nan,nan,nan,nan,nan,nan,nan,0.0,nan,nan,nan,nan,nan,nan,nan,nan,nan,nan,nan,nan,nan,nan,nan,nan,nan,nan,492.64648633670004,596.9227809729055,nan,597.2674507149786,nan,nan,nan,nan
1,64,1,1,1.0,1.0,0.2802166833425872,0.0,1,0,4,2,6,7,nan,nan,nan,nan,nan,nan,nan,nan,nan,nan,nan,nan,0.0,nan,nan,nan,nan,nan,nan,nan,nan,nan,nan,nan,nan,nan,nan,nan,nan,nan,nan,492.64648633670004,597.9312226255715,nan,598.2114393089141,nan,nan,nan,nan
1,65,0,0,0.0,1.0,0.4797222151828464,1.0,0,4,2,1,7,5,1.0,1.0,1.0,1.0,1.0,1.0,0.0,1.0,1.0,0.0,1.0,0.0,3.0,5.0,4.0,2.0,6.0,7.0,3.0,3.0,2.0,1.0,6.0,5.0,4.0,4.919310800774838,3.488637410060619,2.3214442210883135,8.20691599714337,6.97568513234728,5.847317273568478,492.64648633670004,598.9396745416452,599.7481074704265,599.4193967568281,608.9992610346671,609.9983130949404,600.7565864704957,608.9909302838059
1,66,1,1,1.0,1.0,0.6113082223891979,0.0,1,3,4,2,6,8,nan,nan,nan,nan,nan,nan,nan,nan,nan,nan,nan,nan,0.0,nan,nan,nan,nan,nan,nan,nan,nan,nan,nan,nan,nan,nan,nan,nan,nan,nan,nan,492.64648633670004,610.2077764128044,nan,610.8190846351936,nan,nan,nan,nan
1,67,1,1,1.0,1.0,0.49079500639345497,0.0,4,2,5,8,7,3,nan,nan,nan,nan,nan,nan,nan,nan,nan,nan,nan,nan,0.0,nan,nan,nan,nan,nan,nan,nan,nan,nan,nan,nan,nan,nan,nan,nan,nan,nan,nan,492.64648633670004,611.2162428687152,nan,611.7070378751087,nan,nan,nan,nan
1,68,1,1,1.0,1.0,0.31431428891664837,0.0,5,7,2,6,0,8,nan,nan,nan,nan,nan,nan,nan,nan,nan,nan,nan,nan,0.0,nan,nan,nan,nan,nan,nan,nan,nan,nan,nan,nan,nan,nan,nan,nan,nan,nan,nan,492.64648633670004,612.2246987761173,nan,612.5390130650339,nan,nan,nan,nan
1,69,1,1,1.0,1.0,0.3138110968575347,0.0,8,2,1,7,6,3,nan,nan,nan,nan,nan,nan,nan,nan,nan,nan,nan,nan,0.0,nan,nan,nan,nan,nan,nan,nan,nan,nan,nan,nan,nan,nan,nan,nan,nan,nan,nan,492.64648633670004,613.2331777761865,nan,613.546988873044,nan,nan,nan,nan
1,70,1,1,1.0,1.0,0.30519582153647207,0.0,3,0,8,6,2,4,nan,nan,nan,nan,nan,nan,nan,nan,nan,nan,nan,nan,0.0,nan,nan,nan,nan,nan,nan,nan,nan,nan,nan,nan,nan,nan,nan,nan,nan,nan,nan,492.64648633670004,614.2417557041044,nan,614.5469515256409,nan,nan,nan,nan
1,71,1,1,1.0,1.0,0.3928396197152324,0.0,5,8,1,0,4,7,nan,nan,nan,nan,nan,nan,nan,nan,nan,nan,nan,nan,0.0,nan,nan,nan,nan,nan,nan,nan,nan,nan,nan,nan,nan,nan,nan,nan,nan,nan,nan,492.64648633670004,615.2500850294891,nan,615.6429246492044,nan,nan,nan,nan
1,72,1,1,1.0,1.0,0.3123907552944729,0.0,0,6,8,2,7,3,nan,nan,nan,nan,nan,nan,nan,nan,nan,nan,nan,nan,0.0,nan,nan,nan,nan,nan,nan,nan,nan,nan,nan,nan,nan,nan,nan,nan,nan,nan,nan,492.64648633670004,616.2585400816024,nan,616.5709308368969,nan,nan,nan,nan
1,73,1,1,1.0,1.0,0.2238700059679104,0.0,4,1,5,7,2,6,nan,nan,nan,nan,nan,nan,nan,nan,nan,nan,nan,nan,0.0,nan,nan,nan,nan,nan,nan,nan,nan,nan,nan,nan,nan,nan,nan,nan,nan,nan,nan,492.64648633670004,617.2670073927875,nan,617.4908773987554,nan,nan,nan,nan
1,74,1,1,1.0,1.0,0.2714012715732679,0.0,6,4,7,8,5,3,nan,nan,nan,nan,nan,nan,nan,nan,nan,nan,nan,nan,0.0,nan,nan,nan,nan,nan,nan,nan,nan,nan,nan,nan,nan,nan,nan,nan,nan,nan,nan,492.64648633670004,618.2754584535869,nan,618.5468597251602,nan,nan,nan,nan
1,75,1,1,1.0,1.0,0.2629265479336027,0.0,4,5,8,7,3,6,nan,nan,nan,nan,nan,nan,nan,nan,nan,nan,nan,nan,0.0,nan,nan,nan,nan,nan,nan,nan,nan,nan,nan,nan,nan,nan,nan,nan,nan,nan,nan,492.64648633670004,619.2839066634333,nan,619.5468332113669,nan,nan,nan,nan
1,76,1,1,1.0,1.0,0.22271052600990515,0.0,7,4,6,8,1,0,nan,nan,nan,nan,nan,nan,nan,nan,nan,nan,nan,nan,0.0,nan,nan,nan,nan,nan,nan,nan,nan,nan,nan,nan,nan,nan,nan,nan,nan,nan,nan,492.64648633670004,620.2840731587057,nan,620.5067836847156,nan,nan,nan,nan
1,77,1,1,1.0,1.0,0.20626455586170778,0.0,6,2,8,0,7,3,nan,nan,nan,nan,nan,nan,nan,nan,nan,nan,nan,nan,0.0,nan,nan,nan,nan,nan,nan,nan,nan,nan,nan,nan,nan,nan,nan,nan,nan,nan,nan,492.64648633670004,621.2925068287295,nan,621.4987713845912,nan,nan,nan,nan
1,78,1,1,1.0,1.0,0.3177456881676335,0.0,2,1,7,6,5,4,nan,nan,nan,nan,nan,nan,nan,nan,nan,nan,nan,nan,0.0,nan,nan,nan,nan,nan,nan,nan,nan,nan,nan,nan,nan,nan,nan,nan,nan,nan,nan,492.64648633670004,622.300978131243,nan,622.6187238194107,nan,nan,nan,nan
1,79,1,1,1.0,1.0,0.5172466584772337,0.0,5,4,0,8,2,1,nan,nan,nan,nan,nan,nan,nan,nan,nan,nan,nan,nan,0.0,nan,nan,nan,nan,nan,nan,nan,nan,nan,nan,nan,nan,nan,nan,nan,nan,nan,nan,492.64648633670004,623.3094363194105,nan,623.8266829778877,nan,nan,nan,nan
1,80,1,1,1.0,1.0,0.5170813035801984,0.0,2,5,1,7,0,6,nan,nan,nan,nan,nan,nan,nan,nan,nan,nan,nan,nan,0.0,nan,nan,nan,nan,nan,nan,nan,nan,nan,nan,nan,nan,nan,nan,nan,nan,nan,nan,492.64648633670004,624.309570313897,nan,624.8266516174772,nan,nan,nan,nan
1,81,1,1,1.0,1.0,0.48461557978589553,0.0,6,4,7,5,2,1,nan,nan,nan,nan,nan,nan,nan,nan,nan,nan,nan,nan,0.0,nan,nan,nan,nan,nan,nan,nan,nan,nan,nan,nan,nan,nan,nan,nan,nan,nan,nan,492.64648633670004,625.3180085454369,nan,625.8026241252228,nan,nan,nan,nan
1,82,1,1,1.0,1.0,0.5244190697558224,0.0,4,2,0,3,1,6,nan,nan,nan,nan,nan,nan,nan,nan,nan,nan,nan,nan,0.0,nan,nan,nan,nan,nan,nan,nan,nan,nan,nan,nan,nan,nan,nan,nan,nan,nan,nan,492.64648633670004,626.3181761810847,nan,626.8425952508405,nan,nan,nan,nan
1,83,1,1,1.0,1.0,0.5159708599094301,0.0,2,1,3,6,0,8,nan,nan,nan,nan,nan,nan,nan,nan,nan,nan,nan,nan,0.0,nan,nan,nan,nan,nan,nan,nan,nan,nan,nan,nan,nan,nan,nan,nan,nan,nan,nan,492.64648633670004,627.3265973069356,nan,627.842568166845,nan,nan,nan,nan
1,84,0,0,0.0,1.0,0.6194756140030222,0.0,8,3,5,0,4,7,nan,nan,nan,nan,nan,nan,nan,nan,nan,nan,nan,nan,0.0,nan,nan,nan,nan,nan,nan,nan,nan,nan,nan,nan,nan,nan,nan,nan,nan,nan,nan,492.64648633670004,628.3350631926587,nan,628.9545388066617,nan,nan,nan,nan
1,85,1,1,1.0,1.0,0.5873180775379296,0.0,0,6,2,7,5,4,nan,nan,nan,nan,nan,nan,nan,nan,nan,nan,nan,nan,0.0,nan,nan,nan,nan,nan,nan,nan,nan,nan,nan,nan,nan,nan,nan,nan,nan,nan,nan,492.64648633670004,629.3351963318564,nan,629.9225144093944,nan,nan,nan,nan
1,86,1,1,1.0,1.0,0.6031448221037863,0.0,5,7,4,6,3,8,nan,nan,nan,nan,nan,nan,nan,nan,nan,nan,nan,nan,0.0,nan,nan,nan,nan,nan,nan,nan,nan,nan,nan,nan,nan,nan,nan,nan,nan,nan,nan,492.64648633670004,630.3353297561553,nan,630.938474578259,nan,nan,nan,nan
1,87,1,1,1.0,1.0,0.5470048383285757,0.0,1,4,3,5,0,7,nan,nan,nan,nan,nan,nan,nan,nan,nan,nan,nan,nan,0.0,nan,nan,nan,nan,nan,nan,nan,nan,nan,nan,nan,nan,nan,nan,nan,nan,nan,nan,492.64648633670004,631.3354597593279,nan,631.8824645976565,nan,nan,nan,nan
1,88,0,0,0.0,1.0,0.5705305640003644,1.0,8,2,1,0,5,3,1.0,1.0,1.0,1.0,1.0,1.0,0.0,1.0,1.0,1.0,0.0,0.0,3.0,7.0,2.0,1.0,0.0,4.0,8.0,6.0,2.0,1.0,3.0,4.0,5.0,9.336854157256312,4.32995743250649,2.666821853184956,5.329475622551399,6.361944482370745,8.121296085897484,492.64648633670004,632.3438977057667,633.152326643205,632.9144282697671,643.5536116218282,644.5513493957551,634.1774500393076,643.5452885685372
1,89,1,1,1.0,1.0,0.6402496060763951,0.0,7,5,4,1,8,6,nan,nan,nan,nan,nan,nan,nan,nan,nan,nan,nan,nan,0.0,nan,nan,nan,nan,nan,nan,nan,nan,nan,nan,nan,nan,nan,nan,nan,nan,nan,nan,492.64648633670004,644.7538028062991,nan,645.3940524123755,nan,nan,nan,nan
1,90,1,1,1.0,1.0,0.48808717737847473,0.0,1,7,3,4,2,0,nan,nan,nan,nan,nan,nan,nan,nan,nan,nan,nan,nan,0.0,nan,nan,nan,nan,nan,nan,nan,nan,nan,nan,nan,nan,nan,nan,nan,nan,nan,nan,492.64648633670004,645.7539610338426,nan,646.2420482112211,nan,nan,nan,nan
1,91,1,1,1.0,1.0,0.6559343734843424,0.0,8,4,1,0,3,6,nan,nan,nan,nan,nan,nan,nan,nan,nan,nan,nan,nan,0.0,nan,nan,nan,nan,nan,nan,nan,nan,nan,nan,nan,nan,nan,nan,nan,nan,nan,nan,492.64648633670004,646.7540571107384,nan,647.4099914842227,nan,nan,nan,nan
1,92,1,1,1.0,1.0,0.4958064001984894,0.0,0,8,2,7,6,5,nan,nan,nan,nan,nan,nan,nan,nan,nan,nan,nan,nan,0.0,nan,nan,nan,nan,nan,nan,nan,nan,nan,nan,nan,nan,nan,nan,nan,nan,nan,nan,492.64648633670004,647.7541797014419,nan,648.2499861016404,nan,nan,nan,nan
1,93,1,1,1.0,1.0,0.37563814874738455,0.0,7,3,5,8,1,0,nan,nan,nan,nan,nan,nan,nan,nan,nan,nan,nan,nan,0.0,nan,nan,nan,nan,nan,nan,nan,nan,nan,nan,nan,nan,nan,nan,nan,nan,nan,nan,492.64648633670004,648.7543102747877,nan,649.1299484235351,nan,nan,nan,nan
1,94,1,1,1.0,1.0,0.5594934096006909,0.0,8,4,2,0,6,5,nan,nan,nan,nan,nan,nan,nan,nan,nan,nan,nan,nan,0.0,nan,nan,nan,nan,nan,nan,nan,nan,nan,nan,nan,nan,nan,nan,nan,nan,nan,nan,492.64648633670004,649.754433435679,nan,650.3139268452796,nan,nan,nan,nan
1,95,1,1,1.0,1.0,0.47131933536729775,0.0,6,1,0,4,7,8,nan,nan,nan,nan,nan,nan,nan,nan,nan,nan,nan,nan,0.0,nan,nan,nan,nan,nan,nan,nan,nan,nan,nan,nan,nan,nan,nan,nan,nan,nan,nan,492.64648633670004,650.7545637239382,nan,651.2258830593055,nan,nan,nan,nan
1,96,1,1,1.0,1.0,0.4791782545798924,0.0,8,4,3,7,5,0,nan,nan,nan,nan,nan,nan,nan,nan,nan,nan,nan,nan,0.0,nan,nan,nan,nan,nan,nan,nan,nan,nan,nan,nan,nan,nan,nan,nan,nan,nan,nan,492.64648633670004,651.7546854593529,nan,652.2338637139328,nan,nan,nan,nan
1,97,1,1,1.0,1.0,0.3270346421340946,0.0,7,2,5,6,8,1,nan,nan,nan,nan,nan,nan,nan,nan,nan,nan,nan,nan,0.0,nan,nan,nan,nan,nan,nan,nan,nan,nan,nan,nan,nan,nan,nan,nan,nan,nan,nan,492.64648633670004,652.7548114711826,nan,653.0818461133167,nan,nan,nan,nan
1,98,1,1,1.0,1.0,0.2785745381406741,0.0,3,0,8,1,2,7,nan,nan,nan,nan,nan,nan,nan,nan,nan,nan,nan,nan,0.0,nan,nan,nan,nan,nan,nan,nan,nan,nan,nan,nan,nan,nan,nan,nan,nan,nan,nan,492.64648633670004,653.7632462815818,nan,654.0418208197225,nan,nan,nan,nan
1,99,1,1,1.0,1.0,0.24609997642983217,0.0,0,7,1,6,4,5,nan,nan,nan,nan,nan,nan,nan,nan,nan,nan,nan,nan,0.0,nan,nan,nan,nan,nan,nan,nan,nan,nan,nan,nan,nan,nan,nan,nan,nan,nan,nan,492.64648633670004,654.7717053250235,nan,655.0178053014533,nan,nan,nan,nan
1,100,1,1,1.0,1.0,0.26190533889166545,0.0,5,0,7,2,6,3,nan,nan,nan,nan,nan,nan,nan,nan,nan,nan,nan,nan,0.0,nan,nan,nan,nan,nan,nan,nan,nan,nan,nan,nan,nan,nan,nan,nan,nan,nan,nan,492.64648633670004,655.7718521487695,nan,656.0337574876612,nan,nan,nan,nan
1,101,1,1,1.0,1.0,0.2534537079045549,0.0,8,7,5,4,0,6,nan,nan,nan,nan,nan,nan,nan,nan,nan,nan,nan,nan,0.0,nan,nan,nan,nan,nan,nan,nan,nan,nan,nan,nan,nan,nan,nan,nan,nan,nan,nan,492.64648633670004,656.780304920132,nan,657.0337586280366,nan,nan,nan,nan
1,102,1,1,1.0,1.0,0.25325499691825826,0.0,2,6,3,1,5,0,nan,nan,nan,nan,nan,nan,nan,nan,nan,nan,nan,nan,0.0,nan,nan,nan,nan,nan,nan,nan,nan,nan,nan,nan,nan,nan,nan,nan,nan,nan,nan,492.64648633670004,657.7804497482284,nan,658.0337047451467,nan,nan,nan,nan
1,103,1,1,1.0,1.0,0.26109880610601977,0.0,7,0,2,6,1,4,nan,nan,nan,nan,nan,nan,nan,nan,nan,nan,nan,nan,0.0,nan,nan,nan,nan,nan,nan,nan,nan,nan,nan,nan,nan,nan,nan,nan,nan,nan,nan,492.64648633670004,658.7805763302458,nan,659.0416751363518,nan,nan,nan,nan
1,104,1,1,1.0,1.0,0.2689463215210708,0.0,2,8,0,7,4,5,nan,nan,nan,nan,nan,nan,nan,nan,nan,nan,nan,nan,0.0,nan,nan,nan,nan,nan,nan,nan,nan,nan,nan,nan,nan,nan,nan,nan,nan,nan,nan,492.64648633670004,659.7806957849098,nan,660.0496421064308,nan,nan,nan,nan
1,105,1,1,1.0,1.0,0.2924589328322327,0.0,1,6,5,0,3,2,nan,nan,nan,nan,nan,nan,nan,nan,nan,nan,nan,nan,0.0,nan,nan,nan,nan,nan,nan,nan,nan,nan,nan,nan,nan,nan,nan,nan,nan,nan,nan,492.64648633670004,660.7891511221242,nan,661.0816100549564,nan,nan,nan,nan
1,106,1,1,1.0,1.0,0.26831740271882154,0.0,8,0,7,4,2,1,nan,nan,nan,nan,nan,nan,nan,nan,nan,nan,nan,nan,0.0,nan,nan,nan,nan,nan,nan,nan,nan,nan,nan,nan,nan,nan,nan,nan,nan,nan,nan,492.64648633670004,661.7892871122749,nan,662.0576045149937,nan,nan,nan,nan
1,107,1,1,1.0,1.0,0.2681403589376714,0.0,7,3,6,1,5,0,nan,nan,nan,nan,nan,nan,nan,nan,nan,nan,nan,nan,0.0,nan,nan,nan,nan,nan,nan,nan,nan,nan,nan,nan,nan,nan,nan,nan,nan,nan,nan,492.64648633670004,662.7894062818377,nan,663.0575466407754,nan,nan,nan,nan
1,108,0,0,1.0,0.0,0.2439532136777416,0.0,6,2,0,8,7,3,nan,nan,nan,nan,nan,nan,nan,nan,nan,nan,nan,nan,0.0,nan,nan,nan,nan,nan,nan,nan,nan,nan,nan,nan,nan,nan,nan,nan,nan,nan,nan,492.64648633670004,663.7895787641028,nan,664.0335319777805,nan,nan,nan,nan
1,109,1,1,1.0,1.0,0.49950806917331647,0.0,1,7,5,6,8,4,nan,nan,nan,nan,nan,nan,nan,nan,nan,nan,nan,nan,0.0,nan,nan,nan,nan,nan,nan,nan,nan,nan,nan,nan,nan,nan,nan,nan,nan,nan,nan,492.64648633670004,664.7979739463481,nan,665.2974820155214,nan,nan,nan,nan
1,110,1,1,1.0,1.0,0.45134788475115784,0.0,3,8,0,1,7,2,nan,nan,nan,nan,nan,nan,nan,nan,nan,nan,nan,nan,0.0,nan,nan,nan,nan,nan,nan,nan,nan,nan,nan,nan,nan,nan,nan,nan,nan,nan,nan,492.64648633670004,665.7981159234769,nan,666.249463808228,nan,nan,nan,nan
1,111,0,0,0.0,1.0,0.4988745888695121,1.0,6,0,7,2,3,5,1.0,1.0,1.0,1.0,1.0,1.0,1.0,1.0,1.0,1.0,0.0,0.0,4.0,6.0,0.0,7.0,2.0,5.0,8.0,6.0,1.0,2.0,3.0,4.0,5.0,9.825377529472462,3.0348111974890344,4.37087450218678,6.331024256709497,7.74689724361815,8.906198727505398,492.64648633670004,666.8065590016195,667.6149802415166,667.305433590489,678.49966800728,679.5099978418439,668.6317754526099,678.4913366862456
1,112,1,1,1.0,1.0,0.5405565674882382,0.0,1,7,3,6,5,0,nan,nan,nan,nan,nan,nan,nan,nan,nan,nan,nan,nan,0.0,nan,nan,nan,nan,nan,nan,nan,nan,nan,nan,nan,nan,nan,nan,nan,nan,nan,nan,492.64648633670004,679.7165152766538,nan,680.257071844142,nan,nan,nan,nan
1,113,1,1,1.0,1.0,0.5643531330570113,0.0,0,6,2,3,7,8,nan,nan,nan,nan,nan,nan,nan,nan,nan,nan,nan,nan,0.0,nan,nan,nan,nan,nan,nan,nan,nan,nan,nan,nan,nan,nan,nan,nan,nan,nan,nan,492.64648633670004,680.7166586792737,nan,681.2810118123307,nan,nan,nan,nan
1,114,1,1,1.0,1.0,0.5002128231717506,0.0,6,3,7,4,2,1,nan,nan,nan,nan,nan,nan,nan,nan,nan,nan,nan,nan,0.0,nan,nan,nan,nan,nan,nan,nan,nan,nan,nan,nan,nan,nan,nan,nan,nan,nan,nan,492.64648633670004,681.7167812699627,nan,682.2169940931344,nan,nan,nan,nan
1,115,1,1,1.0,1.0,0.4437347171478905,0.0,7,5,8,3,4,2,nan,nan,nan,nan,nan,nan,nan,nan,nan,nan,nan,nan,0.0,nan,nan,nan,nan,nan,nan,nan,nan,nan,nan,nan,nan,nan,nan,nan,nan,nan,nan,492.64648633670004,682.7252408836066,nan,683.1689756007545,nan,nan,nan,nan
1,116,1,1,1.0,1.0,0.32356247436837293,0.0,8,4,2,6,1,5,nan,nan,nan,nan,nan,nan,nan,nan,nan,nan,nan,nan,0.0,nan,nan,nan,nan,nan,nan,nan,nan,nan,nan,nan,nan,nan,nan,nan,nan,nan,nan,492.64648633670004,683.7253808650712,nan,684.0489433394396,nan,nan,nan,nan
1,117,1,1,1.0,1.0,0.30740530509501696,0.0,0,6,1,7,2,4,nan,nan,nan,nan,nan,nan,nan,nan,nan,nan,nan,nan,0.0,nan,nan,nan,nan,nan,nan,nan,nan,nan,nan,nan,nan,nan,nan,nan,nan,nan,nan,492.64648633670004,684.7255026005005,nan,685.0329079055955,nan,nan,nan,nan
1,118,1,1,1.0,1.0,0.21895012752793264,0.0,3,5,7,2,4,8,nan,nan,nan,nan,nan,nan,nan,nan,nan,nan,nan,nan,0.0,nan,nan,nan,nan,nan,nan,nan,nan,nan,nan,nan,nan,nan,nan,nan,nan,nan,nan,492.64648633670004,685.733941117127,nan,685.9528912446549,nan,nan,nan,nan
1,119,1,1,1.0,1.0,0.33877740579191595,0.0,4,8,6,3,7,2,nan,nan,nan,nan,nan,nan,nan,nan,nan,nan,nan,nan,0.0,nan,nan,nan,nan,nan,nan,nan,nan,nan,nan,nan,nan,nan,nan,nan,nan,nan,nan,492.64648633670004,686.7340845197323,nan,687.0728619255242,nan,nan,nan,nan
1,120,1,1,1.0,1.0,0.3946280184754869,0.0,6,3,0,8,5,7,nan,nan,nan,nan,nan,nan,nan,nan,nan,nan,nan,nan,0.0,nan,nan,nan,nan,nan,nan,nan,nan,nan,nan,nan,nan,nan,nan,nan,nan,nan,nan,492.64648633670004,687.7342031191074,nan,688.1288311375829,nan,nan,nan,nan
1,121,1,1,1.0,1.0,0.33015386274200864,0.0,1,8,7,6,4,0,nan,nan,nan,nan,nan,nan,nan,nan,nan,nan,nan,nan,0.0,nan,nan,nan,nan,nan,nan,nan,nan,nan,nan,nan,nan,nan,nan,nan,nan,nan,nan,492.64648633670004,688.7426538948057,nan,689.0728077575477,nan,nan,nan,nan
1,122,1,1,1.0,1.0,0.36965572254848666,0.0,8,2,5,7,1,4,nan,nan,nan,nan,nan,nan,nan,nan,nan,nan,nan,nan,0.0,nan,nan,nan,nan,nan,nan,nan,nan,nan,nan,nan,nan,nan,nan,nan,nan,nan,nan,492.64648633670004,689.7511251973192,nan,690.1207809198677,nan,nan,nan,nan
1,123,1,1,1.0,1.0,0.40116951528762,0.0,2,1,7,4,3,6,nan,nan,nan,nan,nan,nan,nan,nan,nan,nan,nan,nan,0.0,nan,nan,nan,nan,nan,nan,nan,nan,nan,nan,nan,nan,nan,nan,nan,nan,nan,nan,492.64648633670004,690.7595788239705,nan,691.1607483392581,nan,nan,nan,nan
1,124,1,1,1.0,1.0,0.40869059730903246,0.0,1,4,6,3,7,8,nan,nan,nan,nan,nan,nan,nan,nan,nan,nan,nan,nan,0.0,nan,nan,nan,nan,nan,nan,nan,nan,nan,nan,nan,nan,nan,nan,nan,nan,nan,nan,492.64648633670004,691.7680318804341,nan,692.1767224777432,nan,nan,nan,nan
1,125,1,1,1.0,1.0,0.46450699865818024,0.0,5,8,3,7,6,1,nan,nan,nan,nan,nan,nan,nan,nan,nan,nan,nan,nan,0.0,nan,nan,nan,nan,nan,nan,nan,nan,nan,nan,nan,nan,nan,nan,nan,nan,nan,nan,492.64648633670004,692.7681673003826,nan,693.2326742990408,nan,nan,nan,nan
1,126,1,1,1.0,1.0,0.4163522310118424,0.0,1,3,7,6,4,2,nan,nan,nan,nan,nan,nan,nan,nan,nan,nan,nan,nan,0.0,nan,nan,nan,nan,nan,nan,nan,nan,nan,nan,nan,nan,nan,nan,nan,nan,nan,nan,492.64648633670004,693.7682973035553,nan,694.1846495345671,nan,nan,nan,nan
1,127,1,1,1.0,1.0,0.384192128709401,0.0,5,4,2,1,8,3,nan,nan,nan,nan,nan,nan,nan,nan,nan,nan,nan,nan,0.0,nan,nan,nan,nan,nan,nan,nan,nan,nan,nan,nan,nan,nan,nan,nan,nan,nan,nan,492.64648633670004,694.7684330086049,nan,695.1526251373143,nan,nan,nan,nan
1,128,1,1,1.0,1.0,0.32804416230646893,0.0,7,5,3,0,2,8,nan,nan,nan,nan,nan,nan,nan,nan,nan,nan,nan,nan,0.0,nan,nan,nan,nan,nan,nan,nan,nan,nan,nan,nan,nan,nan,nan,nan,nan,nan,nan,492.64648633670004,695.7685538887308,nan,696.0965980510373,nan,nan,nan,nan
1,129,1,1,1.0,1.0,0.40787950303638354,0.0,4,1,0,5,6,2,nan,nan,nan,nan,nan,nan,nan,nan,nan,nan,nan,nan,0.0,nan,nan,nan,nan,nan,nan,nan,nan,nan,nan,nan,nan,nan,nan,nan,nan,nan,nan,492.64648633670004,696.7686841769901,nan,697.1765636800264,nan,nan,nan,nan
1,130,0,0,0.0,1.0,0.559713502676459,1.0,1,3,6,7,8,4,1.0,1.0,1.0,1.0,1.0,1.0,0.0,0.0,0.0,0.0,1.0,1.0,2.0,0.0,2.0,3.0,8.0,8.0,4.0,6.0,5.0,4.0,3.0,2.0,1.0,11.934124889128725,10.726931779980077,8.759590512840077,5.49610746014514,4.17646617765422,3.040286725386977,492.64648633670004,697.7688153205381,698.5772020639706,698.3285288232146,711.5787854796799,712.5810428591358,699.6023331576289,711.5704598605225
1,131,1,1,1.0,1.0,0.4607619952876121,0.0,8,2,1,6,4,3,nan,nan,nan,nan,nan,nan,nan,nan,nan,nan,nan,nan,0.0,nan,nan,nan,nan,nan,nan,nan,nan,nan,nan,nan,nan,nan,nan,nan,nan,nan,nan,492.64648633670004,712.7873424816498,nan,713.2481044769374,nan,nan,nan,nan
1,132,1,1,1.0,1.0,0.4365962321317056,0.0,2,1,0,5,7,6,nan,nan,nan,nan,nan,nan,nan,nan,nan,nan,nan,nan,0.0,nan,nan,nan,nan,nan,nan,nan,nan,nan,nan,nan,nan,nan,nan,nan,nan,nan,nan,492.64648633670004,713.7874747655587,nan,714.2240709976904,nan,nan,nan,nan
1,133,1,1,1.0,1.0,0.43612839179695584,0.0,3,5,4,1,8,7,nan,nan,nan,nan,nan,nan,nan,nan,nan,nan,nan,nan,0.0,nan,nan,nan,nan,nan,nan,nan,nan,nan,nan,nan,nan,nan,nan,nan,nan,nan,nan,492.64648633670004,714.7959246859828,nan,715.2320530777797,nan,nan,nan,nan
1,134,1,1,1.0,1.0,0.4999582336313324,0.0,7,1,6,0,3,8,nan,nan,nan,nan,nan,nan,nan,nan,nan,nan,nan,nan,0.0,nan,nan,nan,nan,nan,nan,nan,nan,nan,nan,nan,nan,nan,nan,nan,nan,nan,nan,492.64648633670004,715.7960658078373,nan,716.2960240414686,nan,nan,nan,nan
1,135,1,1,1.0,1.0,0.48378966058953665,0.0,0,5,1,6,2,3,nan,nan,nan,nan,nan,nan,nan,nan,nan,nan,nan,nan,0.0,nan,nan,nan,nan,nan,nan,nan,nan,nan,nan,nan,nan,nan,nan,nan,nan,nan,nan,492.64648633670004,716.7961938153312,nan,717.2799834759207,nan,nan,nan,nan
1,136,1,1,1.0,1.0,0.5233339995029382,0.0,1,0,6,2,8,5,nan,nan,nan,nan,nan,nan,nan,nan,nan,nan,nan,nan,0.0,nan,nan,nan,nan,nan,nan,nan,nan,nan,nan,nan,nan,nan,nan,nan,nan,nan,nan,492.64648633670004,717.8046300512069,nan,718.3279640507099,nan,nan,nan,nan
1,137,1,1,1.0,1.0,0.41915357107063755,0.0,7,5,8,0,4,2,nan,nan,nan,nan,nan,nan,nan,nan,nan,nan,nan,nan,0.0,nan,nan,nan,nan,nan,nan,nan,nan,nan,nan,nan,nan,nan,nan,nan,nan,nan,nan,492.64648633670004,718.8047706028738,nan,719.2239241739444,nan,nan,nan,nan
1,138,1,1,1.0,1.0,0.33099432176095434,0.0,0,2,6,1,8,4,nan,nan,nan,nan,nan,nan,nan,nan,nan,nan,nan,nan,0.0,nan,nan,nan,nan,nan,nan,nan,nan,nan,nan,nan,nan,nan,nan,nan,nan,nan,nan,492.64648633670004,719.8049000358442,nan,720.1358943576051,nan,nan,nan,nan
1,139,1,1,1.0,1.0,0.29884733381913975,0.0,3,4,5,6,7,0,nan,nan,nan,nan,nan,nan,nan,nan,nan,nan,nan,nan,0.0,nan,nan,nan,nan,nan,nan,nan,nan,nan,nan,nan,nan,nan,nan,nan,nan,nan,nan,492.64648633670004,720.8050431533484,nan,721.1038904871675,nan,nan,nan,nan
1,140,0,0,0.0,1.0,0.4903710706566926,0.0,8,7,4,1,6,5,nan,nan,nan,nan,nan,nan,nan,nan,nan,nan,nan,nan,0.0,nan,nan,nan,nan,nan,nan,nan,nan,nan,nan,nan,nan,nan,nan,nan,nan,nan,nan,492.64648633670004,721.8134716916684,nan,722.3038427623251,nan,nan,nan,nan
1,141,1,1,1.0,1.0,0.5618984681059374,0.0,0,2,8,6,7,3,nan,nan,nan,nan,nan,nan,nan,nan,nan,nan,nan,nan,0.0,nan,nan,nan,nan,nan,nan,nan,nan,nan,nan,nan,nan,nan,nan,nan,nan,nan,nan,492.64648633670004,722.8219321605866,nan,723.3838306286925,nan,nan,nan,nan
1,142,1,1,1.0,1.0,0.4094001979101449,0.0,1,4,5,7,6,2,nan,nan,nan,nan,nan,nan,nan,nan,nan,nan,nan,nan,0.0,nan,nan,nan,nan,nan,nan,nan,nan,nan,nan,nan,nan,nan,nan,nan,nan,nan,nan,492.64648633670004,723.8303900636529,nan,724.239790261563,nan,nan,nan,nan
1,143,1,1,1.0,1.0,0.3129218866379233,0.0,6,2,8,0,7,4,nan,nan,nan,nan,nan,nan,nan,nan,nan,nan,nan,nan,0.0,nan,nan,nan,nan,nan,nan,nan,nan,nan,nan,nan,nan,nan,nan,nan,nan,nan,nan,492.64648633670004,724.8388596556033,nan,725.1517815422412,nan,nan,nan,nan
1,144,1,1,1.0,1.0,0.3764047682634555,0.0,3,5,4,6,2,7,nan,nan,nan,nan,nan,nan,nan,nan,nan,nan,nan,nan,0.0,nan,nan,nan,nan,nan,nan,nan,nan,nan,nan,nan,nan,nan,nan,nan,nan,nan,nan,492.64648633670004,725.8473283922649,nan,726.2237331605284,nan,nan,nan,nan
1,145,1,1,1.0,1.0,0.3442301261238754,0.0,2,4,3,8,7,1,nan,nan,nan,nan,nan,nan,nan,nan,nan,nan,nan,nan,0.0,nan,nan,nan,nan,nan,nan,nan,nan,nan,nan,nan,nan,nan,nan,nan,nan,nan,nan,492.64648633670004,726.8474629569391,nan,727.191693083063,nan,nan,nan,nan
1,146,0,0,0.0,1.0,0.5037554093141807,0.0,4,6,1,5,8,3,nan,nan,nan,nan,nan,nan,nan,nan,nan,nan,nan,nan,0.0,nan,nan,nan,nan,nan,nan,nan,nan,nan,nan,nan,nan,nan,nan,nan,nan,nan,nan,492.64648633670004,727.8559174388793,nan,728.3596728481934,nan,nan,nan,nan
1,147,1,1,1.0,1.0,0.4872749427158851,0.0,8,7,4,3,2,1,nan,nan,nan,nan,nan,nan,nan,nan,nan,nan,nan,nan,0.0,nan,nan,nan,nan,nan,nan,nan,nan,nan,nan,nan,nan,nan,nan,nan,nan,nan,nan,492.64648633670004,728.8643727760937,nan,729.3516477188095,nan,nan,nan,nan
1,148,1,1,1.0,1.0,0.38311333053570706,0.0,1,5,8,0,4,3,nan,nan,nan,nan,nan,nan,nan,nan,nan,nan,nan,nan,0.0,nan,nan,nan,nan,nan,nan,nan,nan,nan,nan,nan,nan,nan,nan,nan,nan,nan,nan,492.64648633670004,729.864497647548,nan,730.2476109780837,nan,nan,nan,nan
1,149,1,1,1.0,1.0,0.3349594182072906,0.0,2,0,7,5,6,8,nan,nan,nan,nan,nan,nan,nan,nan,nan,nan,nan,nan,0.0,nan,nan,nan,nan,nan,nan,nan,nan,nan,nan,nan,nan,nan,nan,nan,nan,nan,nan,492.64648633670004,730.8646256550419,nan,731.1995850732492,nan,nan,nan,nan
1,150,1,1,1.0,1.0,0.33480774784402456,0.0,7,6,8,2,3,0,nan,nan,nan,nan,nan,nan,nan,nan,nan,nan,nan,nan,0.0,nan,nan,nan,nan,nan,nan,nan,nan,nan,nan,nan,nan,nan,nan,nan,nan,nan,nan,492.64648633670004,731.8647465351823,nan,732.1995542830264,nan,nan,nan,nan
1,151,1,1,1.0,1.0,0.2706320862052962,0.0,3,0,1,6,2,8,nan,nan,nan,nan,nan,nan,nan,nan,nan,nan,nan,nan,0.0,nan,nan,nan,nan,nan,nan,nan,nan,nan,nan,nan,nan,nan,nan,nan,nan,nan,nan,492.64648633670004,732.8648882272246,nan,733.1355203134299,nan,nan,nan,nan
1,152,1,1,1.0,1.0,0.39850473556725774,0.0,8,3,2,5,7,6,nan,nan,nan,nan,nan,nan,nan,nan,nan,nan,nan,nan,0.0,nan,nan,nan,nan,nan,nan,nan,nan,nan,nan,nan,nan,nan,nan,nan,nan,nan,nan,492.64648633670004,733.8650008396071,nan,734.2635055751743,nan,nan,nan,nan
1,153,1,1,1.0,1.0,0.3980243510741275,0.0,2,5,6,1,0,4,nan,nan,nan,nan,nan,nan,nan,nan,nan,nan,nan,nan,0.0,nan,nan,nan,nan,nan,nan,nan,nan,nan,nan,nan,nan,nan,nan,nan,nan,nan,nan,492.64648633670004,734.8734459134139,nan,735.271470264488,nan,nan,nan,nan
1,154,1,1,1.0,1.0,0.4378840046701953,0.0,0,7,4,6,2,3,nan,nan,nan,nan,nan,nan,nan,nan,nan,nan,nan,nan,0.0,nan,nan,nan,nan,nan,nan,nan,nan,nan,nan,nan,nan,nan,nan,nan,nan,nan,nan,492.64648633670004,735.8735633724136,nan,736.3114473770838,nan,nan,nan,nan
1,155,1,1,1.0,1.0,0.3333953889377881,0.0,2,6,3,5,8,4,nan,nan,nan,nan,nan,nan,nan,nan,nan,nan,nan,nan,0.0,nan,nan,nan,nan,nan,nan,nan,nan,nan,nan,nan,nan,nan,nan,nan,nan,nan,nan,492.64648633670004,736.882054061367,nan,737.2154494503047,nan,nan,nan,nan
1,156,1,1,1.0,1.0,0.30083672430191655,0.0,5,4,2,7,6,1,nan,nan,nan,nan,nan,nan,nan,nan,nan,nan,nan,nan,0.0,nan,nan,nan,nan,nan,nan,nan,nan,nan,nan,nan,nan,nan,nan,nan,nan,nan,nan,492.64648633670004,737.8905675578862,nan,738.1914042821882,nan,nan,nan,nan
1,157,0,0,1.0,0.0,0.228407572460128,0.0,7,8,0,3,1,6,nan,nan,nan,nan,nan,nan,nan,nan,nan,nan,nan,nan,0.0,nan,nan,nan,nan,nan,nan,nan,nan,nan,nan,nan,nan,nan,nan,nan,nan,nan,nan,492.64648633670004,738.8989618848427,nan,739.1273694573028,nan,nan,nan,nan
1,158,1,1,1.0,1.0,0.4442353433551034,0.0,0,2,6,4,7,3,nan,nan,nan,nan,nan,nan,nan,nan,nan,nan,nan,nan,0.0,nan,nan,nan,nan,nan,nan,nan,nan,nan,nan,nan,nan,nan,nan,nan,nan,nan,nan,492.64648633670004,739.8990898923366,nan,740.3433252356917,nan,nan,nan,nan
1,159,1,1,1.0,1.0,0.4037633064435795,0.0,2,1,5,6,4,7,nan,nan,nan,nan,nan,nan,nan,nan,nan,nan,nan,nan,0.0,nan,nan,nan,nan,nan,nan,nan,nan,nan,nan,nan,nan,nan,nan,nan,nan,nan,nan,492.64648633670004,740.9075363916199,nan,741.3112996980635,nan,nan,nan,nan
1,160,1,1,1.0,1.0,0.35527469296357594,0.0,4,6,7,0,5,2,nan,nan,nan,nan,nan,nan,nan,nan,nan,nan,nan,nan,0.0,nan,nan,nan,nan,nan,nan,nan,nan,nan,nan,nan,nan,nan,nan,nan,nan,nan,nan,492.64648633670004,741.915993439412,nan,742.2712681323756,nan,nan,nan,nan
1,161,1,1,1.0,1.0,0.25083197746425867,0.0,3,4,5,2,7,6,nan,nan,nan,nan,nan,nan,nan,nan,nan,nan,nan,nan,0.0,nan,nan,nan,nan,nan,nan,nan,nan,nan,nan,nan,nan,nan,nan,nan,nan,nan,nan,492.64648633670004,742.9244293901866,nan,743.1752613676508,nan,nan,nan,nan
1,162,1,1,1.0,1.0,0.2586062235641293,0.0,8,7,6,3,4,2,nan,nan,nan,nan,nan,nan,nan,nan,nan,nan,nan,nan,0.0,nan,nan,nan,nan,nan,nan,nan,nan,nan,nan,nan,nan,nan,nan,nan,nan,nan,nan,492.64648633670004,743.9246078594297,nan,744.1832140829938,nan,nan,nan,nan
1,163,1,1,1.0,1.0,0.30644396592106204,0.0,4,1,0,7,6,5,nan,nan,nan,nan,nan,nan,nan,nan,nan,nan,nan,nan,0.0,nan,nan,nan,nan,nan,nan,nan,nan,nan,nan,nan,nan,nan,nan,nan,nan,nan,nan,492.64648633670004,744.9247307352343,nan,745.2311747011554,nan,nan,nan,nan
1,164,1,1,1.0,1.0,0.2663131873123348,0.0,2,3,5,8,7,1,nan,nan,nan,nan,nan,nan,nan,nan,nan,nan,nan,nan,0.0,nan,nan,nan,nan,nan,nan,nan,nan,nan,nan,nan,nan,nan,nan,nan,nan,nan,nan,492.64648633670004,745.9248461985699,nan,746.1911593858822,nan,nan,nan,nan
1,165,1,1,1.0,1.0,0.24215626208751928,0.0,6,2,8,5,3,4,nan,nan,nan,nan,nan,nan,nan,nan,nan,nan,nan,nan,0.0,nan,nan,nan,nan,nan,nan,nan,nan,nan,nan,nan,nan,nan,nan,nan,nan,nan,nan,492.64648633670004,746.9249767719157,nan,747.1671330340032,nan,nan,nan,nan
1,166,1,1,1.0,1.0,0.4337261842592852,0.0,1,7,5,2,0,3,nan,nan,nan,nan,nan,nan,nan,nan,nan,nan,nan,nan,0.0,nan,nan,nan,nan,nan,nan,nan,nan,nan,nan,nan,nan,nan,nan,nan,nan,nan,nan,492.64648633670004,747.9333827877563,nan,748.3671089720156,nan,nan,nan,nan
1,167,1,1,1.0,1.0,0.41720266838092357,0.0,4,2,8,7,3,1,nan,nan,nan,nan,nan,nan,nan,nan,nan,nan,nan,nan,0.0,nan,nan,nan,nan,nan,nan,nan,nan,nan,nan,nan,nan,nan,nan,nan,nan,nan,nan,492.64648633670004,748.9418794636877,nan,749.3590821320686,nan,nan,nan,nan
1,168,1,1,1.0,1.0,0.3926890897419071,0.0,3,6,5,0,2,4,nan,nan,nan,nan,nan,nan,nan,nan,nan,nan,nan,nan,0.0,nan,nan,nan,nan,nan,nan,nan,nan,nan,nan,nan,nan,nan,nan,nan,nan,nan,nan,492.64648633670004,749.950347345075,nan,750.3430364348169,nan,nan,nan,nan
1,169,1,1,1.0,1.0,0.32054218159464654,0.0,4,3,7,1,6,5,nan,nan,nan,nan,nan,nan,nan,nan,nan,nan,nan,nan,0.0,nan,nan,nan,nan,nan,nan,nan,nan,nan,nan,nan,nan,nan,nan,nan,nan,nan,nan,492.64648633670004,750.9504796289984,nan,751.2710218105931,nan,nan,nan,nan
1,170,1,1,1.0,1.0,0.3760729180794442,0.0,6,2,4,7,8,3,nan,nan,nan,nan,nan,nan,nan,nan,nan,nan,nan,nan,0.0,nan,nan,nan,nan,nan,nan,nan,nan,nan,nan,nan,nan,nan,nan,nan,nan,nan,nan,492.64648633670004,751.9589130139211,nan,752.3349859320006,nan,nan,nan,nan
1,171,0,0,0.0,1.0,0.335570661132806,0.0,0,4,8,5,7,1,nan,nan,nan,nan,nan,nan,nan,nan,nan,nan,nan,nan,0.0,nan,nan,nan,nan,nan,nan,nan,nan,nan,nan,nan,nan,nan,nan,nan,nan,nan,nan,492.64648633670004,752.9673945798422,nan,753.302965240975,nan,nan,nan,nan
1,172,1,1,1.0,1.0,0.39907635033887345,0.0,4,1,2,0,3,6,nan,nan,nan,nan,nan,nan,nan,nan,nan,nan,nan,nan,0.0,nan,nan,nan,nan,nan,nan,nan,nan,nan,nan,nan,nan,nan,nan,nan,nan,nan,nan,492.64648633670004,753.9758482064935,nan,754.3749245568324,nan,nan,nan,nan
1,173,1,1,1.0,1.0,0.31860524852527305,0.0,7,8,1,6,2,5,nan,nan,nan,nan,nan,nan,nan,nan,nan,nan,nan,nan,0.0,nan,nan,nan,nan,nan,nan,nan,nan,nan,nan,nan,nan,nan,nan,nan,nan,nan,nan,492.64648633670004,754.9843035437079,nan,755.3029087922332,nan,nan,nan,nan
1,174,1,1,1.0,1.0,0.32612946661538444,0.0,5,3,8,2,6,4,nan,nan,nan,nan,nan,nan,nan,nan,nan,nan,nan,nan,0.0,nan,nan,nan,nan,nan,nan,nan,nan,nan,nan,nan,nan,nan,nan,nan,nan,nan,nan,492.64648633670004,755.9927660082758,nan,756.3188954748912,nan,nan,nan,nan
1,175,1,1,1.0,1.0,0.3895995189959649,0.0,6,4,5,3,7,1,nan,nan,nan,nan,nan,nan,nan,nan,nan,nan,nan,nan,0.0,nan,nan,nan,nan,nan,nan,nan,nan,nan,nan,nan,nan,nan,nan,nan,nan,nan,nan,492.64648633670004,757.0012253368186,nan,757.3908248558146,nan,nan,nan,nan
1,176,1,1,1.0,1.0,0.38141986829577945,0.0,4,5,1,0,3,8,nan,nan,nan,nan,nan,nan,nan,nan,nan,nan,nan,nan,0.0,nan,nan,nan,nan,nan,nan,nan,nan,nan,nan,nan,nan,nan,nan,nan,nan,nan,nan,492.64648633670004,758.001376151893,nan,758.3827960201888,nan,nan,nan,nan
1,177,1,1,1.0,1.0,0.3733320180908777,0.0,5,1,0,8,7,2,nan,nan,nan,nan,nan,nan,nan,nan,nan,nan,nan,nan,0.0,nan,nan,nan,nan,nan,nan,nan,nan,nan,nan,nan,nan,nan,nan,nan,nan,nan,nan,492.64648633670004,759.0014545529266,nan,759.3747865710175,nan,nan,nan,nan
1,178,1,1,1.0,1.0,0.30913525944924913,0.0,3,0,7,1,2,8,nan,nan,nan,nan,nan,nan,nan,nan,nan,nan,nan,nan,0.0,nan,nan,nan,nan,nan,nan,nan,nan,nan,nan,nan,nan,nan,nan,nan,nan,nan,nan,492.64648633670004,760.0016122102679,nan,760.3107474697172,nan,nan,nan,nan
1,179,1,1,1.0,1.0,0.284613413081388,0.0,8,6,2,3,4,5,nan,nan,nan,nan,nan,nan,nan,nan,nan,nan,nan,nan,0.0,nan,nan,nan,nan,nan,nan,nan,nan,nan,nan,nan,nan,nan,nan,nan,nan,nan,nan,492.64648633670004,761.0101117371523,nan,761.2947251502337,nan,nan,nan,nan
1,180,1,1,1.0,1.0,0.2604733084444888,0.0,4,3,5,0,7,1,nan,nan,nan,nan,nan,nan,nan,nan,nan,nan,nan,nan,0.0,nan,nan,nan,nan,nan,nan,nan,nan,nan,nan,nan,nan,nan,nan,nan,nan,nan,nan,492.64648633670004,762.0102041078208,nan,762.2706774162652,nan,nan,nan,nan
1,181,1,1,1.0,1.0,0.25232501815480646,0.0,2,7,6,5,3,4,nan,nan,nan,nan,nan,nan,nan,nan,nan,nan,nan,nan,0.0,nan,nan,nan,nan,nan,nan,nan,nan,nan,nan,nan,nan,nan,nan,nan,nan,nan,nan,492.64648633670004,763.0103286941885,nan,763.2626537123433,nan,nan,nan,nan
1,182,0,0,1.0,0.0,0.2361781123036053,0.0,5,4,8,2,1,6,nan,nan,nan,nan,nan,nan,nan,nan,nan,nan,nan,nan,0.0,nan,nan,nan,nan,nan,nan,nan,nan,nan,nan,nan,nan,nan,nan,nan,nan,nan,nan,492.64648633670004,764.0104581271589,nan,764.2466362394625,nan,nan,nan,nan
1,183,1,1,1.0,1.0,0.42001427184732165,0.0,2,6,3,7,0,8,nan,nan,nan,nan,nan,nan,nan,nan,nan,nan,nan,nan,0.0,nan,nan,nan,nan,nan,nan,nan,nan,nan,nan,nan,nan,nan,nan,nan,nan,nan,nan,492.64648633670004,765.0105775818083,nan,765.4305918536556,nan,nan,nan,nan
1,184,1,1,1.0,1.0,0.3718595042155357,0.0,1,0,5,3,2,4,nan,nan,nan,nan,nan,nan,nan,nan,nan,nan,nan,nan,0.0,nan,nan,nan,nan,nan,nan,nan,nan,nan,nan,nan,nan,nan,nan,nan,nan,nan,nan,492.64648633670004,766.0106996023242,nan,766.3825591065397,nan,nan,nan,nan
1,185,1,1,1.0,1.0,0.2753848991560517,0.0,8,1,4,2,6,0,nan,nan,nan,nan,nan,nan,nan,nan,nan,nan,nan,nan,0.0,nan,nan,nan,nan,nan,nan,nan,nan,nan,nan,nan,nan,nan,nan,nan,nan,nan,nan,492.64648633670004,767.0191486674594,nan,767.2945335666154,nan,nan,nan,nan
1,186,1,1,1.0,1.0,0.22722728058579378,0.0,2,4,0,1,5,8,nan,nan,nan,nan,nan,nan,nan,nan,nan,nan,nan,nan,0.0,nan,nan,nan,nan,nan,nan,nan,nan,nan,nan,nan,nan,nan,nan,nan,nan,nan,nan,492.64648633670004,768.0192897893139,nan,768.2465170698997,nan,nan,nan,nan
1,187,1,1,1.0,1.0,0.21905247651739046,0.0,4,0,6,3,7,2,nan,nan,nan,nan,nan,nan,nan,nan,nan,nan,nan,nan,0.0,nan,nan,nan,nan,nan,nan,nan,nan,nan,nan,nan,nan,nan,nan,nan,nan,nan,nan,492.64648633670004,769.0194391789119,nan,769.2384916554292,nan,nan,nan,nan
1,188,1,1,1.0,1.0,0.20290813651809003,0.0,3,4,7,1,8,6,nan,nan,nan,nan,nan,nan,nan,nan,nan,nan,nan,nan,0.0,nan,nan,nan,nan,nan,nan,nan,nan,nan,nan,nan,nan,nan,nan,nan,nan,nan,nan,492.64648633670004,770.0195543571463,nan,770.2224624936644,nan,nan,nan,nan
1,189,1,1,1.0,1.0,0.24241598331718706,0.0,4,1,0,7,5,2,nan,nan,nan,nan,nan,nan,nan,nan,nan,nan,nan,nan,0.0,nan,nan,nan,nan,nan,nan,nan,nan,nan,nan,nan,nan,nan,nan,nan,nan,nan,nan,492.64648633670004,771.028016251541,nan,771.2704322348582,nan,nan,nan,nan
1,190,0,0,1.0,0.0,0.20996565464884043,0.0,0,3,5,2,4,8,nan,nan,nan,nan,nan,nan,nan,nan,nan,nan,nan,nan,0.0,nan,nan,nan,nan,nan,nan,nan,nan,nan,nan,nan,nan,nan,nan,nan,nan,nan,nan,492.64648633670004,772.0364581893082,nan,772.246423843957,nan,nan,nan,nan
1,191,1,1,1.0,1.0,0.217473622324178,0.0,3,1,6,5,0,7,nan,nan,nan,nan,nan,nan,nan,nan,nan,nan,nan,nan,0.0,nan,nan,nan,nan,nan,nan,nan,nan,nan,nan,nan,nan,nan,nan,nan,nan,nan,nan,492.64648633670004,773.0449123861472,nan,773.2623860084714,nan,nan,nan,nan
1,192,1,1,1.0,1.0,0.24928220294532366,0.0,8,4,2,7,6,5,nan,nan,nan,nan,nan,nan,nan,nan,nan,nan,nan,nan,0.0,nan,nan,nan,nan,nan,nan,nan,nan,nan,nan,nan,nan,nan,nan,nan,nan,nan,nan,492.64648633670004,774.045058639691,nan,774.2943408426363,nan,nan,nan,nan
1,193,1,1,1.0,1.0,0.25712658230622765,0.0,2,1,7,5,4,3,nan,nan,nan,nan,nan,nan,nan,nan,nan,nan,nan,nan,0.0,nan,nan,nan,nan,nan,nan,nan,nan,nan,nan,nan,nan,nan,nan,nan,nan,nan,nan,492.64648633670004,775.0451806602068,nan,775.302307242513,nan,nan,nan,nan
1,194,1,1,1.0,1.0,0.24867238546721637,0.0,1,0,2,7,3,4,nan,nan,nan,nan,nan,nan,nan,nan,nan,nan,nan,nan,0.0,nan,nan,nan,nan,nan,nan,nan,nan,nan,nan,nan,nan,nan,nan,nan,nan,nan,nan,492.64648633670004,776.0536131898552,nan,776.3022855753225,nan,nan,nan,nan
1,195,1,1,1.0,1.0,0.2165165595797589,0.0,8,1,3,6,0,5,nan,nan,nan,nan,nan,nan,nan,nan,nan,nan,nan,nan,0.0,nan,nan,nan,nan,nan,nan,nan,nan,nan,nan,nan,nan,nan,nan,nan,nan,nan,nan,492.64648633670004,777.053760583789,nan,777.2702771433687,nan,nan,nan,nan
1,196,0,0,0.0,1.0,0.36802241527766455,1.0,4,2,7,3,6,8,1.0,1.0,1.0,1.0,1.0,1.0,0.0,0.0,1.0,1.0,1.0,0.0,3.0,5.0,1.0,7.0,3.0,6.0,4.0,5.0,6.0,1.0,2.0,3.0,4.0,7.39128043706296,8.735028183029499,2.4394785390613833,3.872676442944794,4.975087859042105,6.246860894054407,492.64648633670004,778.062204802307,778.8706189148361,778.4302272175846,788.6635030663456,789.6740946177888,779.8874149812182,788.6551771621016
1,197,1,1,1.0,1.0,0.7655404382530833,0.0,8,3,2,6,5,7,nan,nan,nan,nan,nan,nan,nan,nan,nan,nan,nan,nan,0.0,nan,nan,nan,nan,nan,nan,nan,nan,nan,nan,nan,nan,nan,nan,nan,nan,nan,nan,492.64648633670004,789.8803543270478,nan,790.6458947653009,nan,nan,nan,nan
1,198,1,1,nan,nan,nan,0.0,0,2,7,3,1,5,nan,nan,nan,nan,nan,nan,nan,nan,nan,nan,nan,nan,0.0,nan,nan,nan,nan,nan,nan,nan,nan,nan,nan,nan,nan,nan,nan,nan,nan,nan,nan,492.64648633670004,790.8888062431215,nan,nan,nan,nan,nan,nan
1,199,1,1,1.0,1.0,0.06060656167392153,0.0,2,5,3,1,7,4,nan,nan,nan,nan,nan,nan,nan,nan,nan,nan,nan,nan,0.0,nan,nan,nan,nan,nan,nan,nan,nan,nan,nan,nan,nan,nan,nan,nan,nan,nan,nan,492.64648633670004,791.8972675673285,nan,791.9578741290024,nan,nan,nan,nan
1,200,1,1,1.0,1.0,0.3320677031442756,0.0,5,8,6,0,2,7,nan,nan,nan,nan,nan,nan,nan,nan,nan,nan,nan,nan,0.0,nan,nan,nan,nan,nan,nan,nan,nan,nan,nan,nan,nan,nan,nan,nan,nan,nan,nan,492.64648633670004,792.9057371592644,nan,793.2378048624087,nan,nan,nan,nan
1,201,1,1,1.0,1.0,0.227602180064423,0.0,0,3,4,6,8,1,nan,nan,nan,nan,nan,nan,nan,nan,nan,nan,nan,nan,0.0,nan,nan,nan,nan,nan,nan,nan,nan,nan,nan,nan,nan,nan,nan,nan,nan,nan,nan,492.64648633670004,793.9141896455403,nan,794.1417918256047,nan,nan,nan,nan
1,202,1,1,1.0,1.0,0.17140061585814692,0.0,1,7,8,5,3,6,nan,nan,nan,nan,nan,nan,nan,nan,nan,nan,nan,nan,0.0,nan,nan,nan,nan,nan,nan,nan,nan,nan,nan,nan,nan,nan,nan,nan,nan,nan,nan,492.64648633670004,794.9143344736221,nan,795.0857350894803,nan,nan,nan,nan
1,203,1,1,1.0,1.0,0.22724923287751153,0.0,3,6,5,0,4,7,nan,nan,nan,nan,nan,nan,nan,nan,nan,nan,nan,nan,0.0,nan,nan,nan,nan,nan,nan,nan,nan,nan,nan,nan,nan,nan,nan,nan,nan,nan,nan,492.64648633670004,795.9144613407407,nan,796.1417105736182,nan,nan,nan,nan
1,204,1,1,1.0,1.0,0.44308013981208205,0.0,8,4,7,2,3,1,nan,nan,nan,nan,nan,nan,nan,nan,nan,nan,nan,nan,0.0,nan,nan,nan,nan,nan,nan,nan,nan,nan,nan,nan,nan,nan,nan,nan,nan,nan,nan,492.64648633670004,796.9145879227726,nan,797.3576680625847,nan,nan,nan,nan
1,205,1,1,1.0,1.0,0.30662927746016067,0.0,6,3,1,7,4,5,nan,nan,nan,nan,nan,nan,nan,nan,nan,nan,nan,nan,0.0,nan,nan,nan,nan,nan,nan,nan,nan,nan,nan,nan,nan,nan,nan,nan,nan,nan,nan,492.64648633670004,797.9230275797745,nan,798.2296568572347,nan,nan,nan,nan
1,206,1,1,1.0,1.0,0.2184560585010331,0.0,0,4,8,6,7,1,nan,nan,nan,nan,nan,nan,nan,nan,nan,nan,nan,nan,0.0,nan,nan,nan,nan,nan,nan,nan,nan,nan,nan,nan,nan,nan,nan,nan,nan,nan,nan,492.64648633670004,798.9231618593622,nan,799.1416179178632,nan,nan,nan,nan
1,207,1,1,1.0,1.0,0.30629600179963745,0.0,8,2,6,4,5,7,nan,nan,nan,nan,nan,nan,nan,nan,nan,nan,nan,nan,0.0,nan,nan,nan,nan,nan,nan,nan,nan,nan,nan,nan,nan,nan,nan,nan,nan,nan,nan,492.64648633670004,799.9232949985599,nan,800.2295910003595,nan,nan,nan,nan
1,208,1,1,1.0,1.0,0.19383357372134924,0.0,5,7,1,8,2,3,nan,nan,nan,nan,nan,nan,nan,nan,nan,nan,nan,nan,0.0,nan,nan,nan,nan,nan,nan,nan,nan,nan,nan,nan,nan,nan,nan,nan,nan,nan,nan,492.64648633670004,800.9317335151864,nan,801.1255670889077,nan,nan,nan,nan
1,209,1,1,1.0,1.0,0.2976493660826236,0.0,1,3,7,0,4,6,nan,nan,nan,nan,nan,nan,nan,nan,nan,nan,nan,nan,0.0,nan,nan,nan,nan,nan,nan,nan,nan,nan,nan,nan,nan,nan,nan,nan,nan,nan,nan,492.64648633670004,801.9318772028928,nan,802.2295265689754,nan,nan,nan,nan
1,210,1,1,1.0,1.0,0.29749541496858,0.0,4,0,2,5,7,1,nan,nan,nan,nan,nan,nan,nan,nan,nan,nan,nan,nan,0.0,nan,nan,nan,nan,nan,nan,nan,nan,nan,nan,nan,nan,nan,nan,nan,nan,nan,nan,492.64648633670004,802.9319989383075,nan,803.2294943532761,nan,nan,nan,nan
1,211,1,1,1.0,1.0,0.2573452499054838,0.0,2,3,5,8,1,6,nan,nan,nan,nan,nan,nan,nan,nan,nan,nan,nan,nan,0.0,nan,nan,nan,nan,nan,nan,nan,nan,nan,nan,nan,nan,nan,nan,nan,nan,nan,nan,492.64648633670004,803.9321235246753,nan,804.1894687745807,nan,nan,nan,nan
1,212,0,0,1.0,0.0,0.19288991042412817,1.0,0,8,3,4,2,1,1.0,1.0,1.0,1.0,1.0,1.0,1.0,0.0,1.0,1.0,0.0,0.0,3.0,0.0,6.0,3.0,4.0,1.0,2.0,5.0,6.0,1.0,2.0,3.0,4.0,7.359965070194448,8.296007791068405,2.745223738005734,3.9300169602793176,5.13735803354939,6.44066652849142,492.64648633670004,804.9405740152724,805.7489886979893,805.1334639256966,815.1001568875945,816.0997469214781,806.7657881855121,815.091822430506
1,213,1,1,1.0,1.0,0.31278988781559747,0.0,1,3,6,5,7,8,nan,nan,nan,nan,nan,nan,nan,nan,nan,nan,nan,nan,0.0,nan,nan,nan,nan,nan,nan,nan,nan,nan,nan,nan,nan,nan,nan,nan,nan,nan,nan,492.64648633670004,816.3003415148851,nan,816.6131314027007,nan,nan,nan,nan
1,214,1,1,1.0,1.0,0.48065076845523436,0.0,0,8,4,2,6,7,nan,nan,nan,nan,nan,nan,nan,nan,nan,nan,nan,nan,0.0,nan,nan,nan,nan,nan,nan,nan,nan,nan,nan,nan,nan,nan,nan,nan,nan,nan,nan,492.64648633670004,817.3004367365065,nan,817.7810875049618,nan,nan,nan,nan
1,215,1,1,1.0,1.0,0.3764757568424102,0.0,5,7,1,3,8,6,nan,nan,nan,nan,nan,nan,nan,nan,nan,nan,nan,nan,0.0,nan,nan,nan,nan,nan,nan,nan,nan,nan,nan,nan,nan,nan,nan,nan,nan,nan,nan,492.64648633670004,818.3005844155268,nan,818.6770601723692,nan,nan,nan,nan
1,216,1,1,1.0,1.0,0.2803238789347233,0.0,7,1,8,0,4,2,nan,nan,nan,nan,nan,nan,nan,nan,nan,nan,nan,nan,0.0,nan,nan,nan,nan,nan,nan,nan,nan,nan,nan,nan,nan,nan,nan,nan,nan,nan,nan,492.64648633670004,819.3007152739738,nan,819.5810391529085,nan,nan,nan,nan
1,217,1,1,1.0,1.0,0.2398589693766553,0.0,2,8,6,5,1,3,nan,nan,nan,nan,nan,nan,nan,nan,nan,nan,nan,nan,0.0,nan,nan,nan,nan,nan,nan,nan,nan,nan,nan,nan,nan,nan,nan,nan,nan,nan,nan,492.64648633670004,820.3091540757014,nan,820.549013045078,nan,nan,nan,nan
1,218,1,1,1.0,1.0,0.19968742222408764,0.0,6,7,8,4,3,0,nan,nan,nan,nan,nan,nan,nan,nan,nan,nan,nan,nan,0.0,nan,nan,nan,nan,nan,nan,nan,nan,nan,nan,nan,nan,nan,nan,nan,nan,nan,nan,492.64648633670004,821.3092912062275,nan,821.5089786284516,nan,nan,nan,nan
1,219,0,0,1.0,0.0,0.08752833484322764,0.0,4,2,3,8,5,7,nan,nan,nan,nan,nan,nan,nan,nan,nan,nan,nan,nan,0.0,nan,nan,nan,nan,nan,nan,nan,nan,nan,nan,nan,nan,nan,nan,nan,nan,nan,nan,492.64648633670004,822.3094226348621,nan,822.3969509697054,nan,nan,nan,nan
1,220,1,1,1.0,1.0,0.40704503099550493,0.0,0,7,5,4,6,2,nan,nan,nan,nan,nan,nan,nan,nan,nan,nan,nan,nan,0.0,nan,nan,nan,nan,nan,nan,nan,nan,nan,nan,nan,nan,nan,nan,nan,nan,nan,nan,492.64648633670004,823.3178708447085,nan,823.724915875704,nan,nan,nan,nan
1,221,1,1,1.0,1.0,0.32688753330148757,0.0,3,4,1,7,5,0,nan,nan,nan,nan,nan,nan,nan,nan,nan,nan,nan,nan,0.0,nan,nan,nan,nan,nan,nan,nan,nan,nan,nan,nan,nan,nan,nan,nan,nan,nan,nan,492.64648633670004,824.3180036988197,nan,824.6448912321212,nan,nan,nan,nan
1,222,1,1,1.0,1.0,0.31872356281382963,0.0,1,6,7,8,2,5,nan,nan,nan,nan,nan,nan,nan,nan,nan,nan,nan,nan,0.0,nan,nan,nan,nan,nan,nan,nan,nan,nan,nan,nan,nan,nan,nan,nan,nan,nan,nan,492.64648633670004,825.3181282851874,nan,825.6368518480012,nan,nan,nan,nan
1,223,1,1,1.0,1.0,0.4065697781916242,0.0,6,2,5,3,8,0,nan,nan,nan,nan,nan,nan,nan,nan,nan,nan,nan,nan,0.0,nan,nan,nan,nan,nan,nan,nan,nan,nan,nan,nan,nan,nan,nan,nan,nan,nan,nan,492.64648633670004,826.3182611392986,nan,826.7248309174902,nan,nan,nan,nan
1,224,0,0,0.0,1.0,0.45440210377273615,0.0,1,8,0,7,6,2,nan,nan,nan,nan,nan,nan,nan,nan,nan,nan,nan,nan,0.0,nan,nan,nan,nan,nan,nan,nan,nan,nan,nan,nan,nan,nan,nan,nan,nan,nan,nan,492.64648633670004,827.3183888616913,nan,827.7727909654641,nan,nan,nan,nan
1,225,1,1,1.0,1.0,0.38223552411363926,0.0,3,4,5,2,1,0,nan,nan,nan,nan,nan,nan,nan,nan,nan,nan,nan,nan,0.0,nan,nan,nan,nan,nan,nan,nan,nan,nan,nan,nan,nan,nan,nan,nan,nan,nan,nan,492.64648633670004,828.3185305537336,nan,828.7007660778472,nan,nan,nan,nan
1,226,1,1,1.0,1.0,0.3097684546810342,0.0,6,3,8,0,2,4,nan,nan,nan,nan,nan,nan,nan,nan,nan,nan,nan,nan,0.0,nan,nan,nan,nan,nan,nan,nan,nan,nan,nan,nan,nan,nan,nan,nan,nan,nan,nan,492.64648633670004,829.3269713511254,nan,829.6367398058064,nan,nan,nan,nan
1,227,1,1,1.0,1.0,0.28564060911594424,0.0,0,2,6,7,4,1,nan,nan,nan,nan,nan,nan,nan,nan,nan,nan,nan,nan,0.0,nan,nan,nan,nan,nan,nan,nan,nan,nan,nan,nan,nan,nan,nan,nan,nan,nan,nan,492.64648633670004,830.3270893803128,nan,830.6127299894288,nan,nan,nan,nan
1,228,0,0,0.0,1.0,0.39744788968528155,1.0,4,1,8,3,7,2,1.0,1.0,1.0,1.0,1.0,1.0,0.0,0.0,0.0,1.0,0.0,0.0,1.0,7.0,8.0,1.0,3.0,2.0,6.0,5.0,2.0,1.0,3.0,4.0,6.0,8.612566915282514,3.8781622342503397,2.6460184963652864,4.9258397534285905,5.821896238659974,9.612462000441155,492.64648633670004,831.32723648916,832.135628934484,831.7246843788453,842.7952903503756,843.8045755981293,833.1441010922863,842.7869638759439
1,229,1,1,1.0,1.0,0.5841968612803612,0.0,6,5,3,8,0,7,nan,nan,nan,nan,nan,nan,nan,nan,nan,nan,nan,nan,0.0,nan,nan,nan,nan,nan,nan,nan,nan,nan,nan,nan,nan,nan,nan,nan,nan,nan,nan,492.64648633670004,844.0121424663666,nan,844.596339327647,nan,nan,nan,nan
1,230,1,1,1.0,1.0,0.4557084074622253,0.0,0,2,6,1,7,8,nan,nan,nan,nan,nan,nan,nan,nan,nan,nan,nan,nan,0.0,nan,nan,nan,nan,nan,nan,nan,nan,nan,nan,nan,nan,nan,nan,nan,nan,nan,nan,492.64648633670004,845.0205735705385,nan,845.4762819780008,nan,nan,nan,nan
1,231,1,1,1.0,1.0,0.3115197911247378,0.0,6,8,2,4,1,5,nan,nan,nan,nan,nan,nan,nan,nan,nan,nan,nan,nan,0.0,nan,nan,nan,nan,nan,nan,nan,nan,nan,nan,nan,nan,nan,nan,nan,nan,nan,nan,492.64648633670004,846.020740065811,nan,846.3322598569357,nan,nan,nan,nan
1,232,1,1,1.0,1.0,0.3193718680558959,0.0,7,5,8,2,0,1,nan,nan,nan,nan,nan,nan,nan,nan,nan,nan,nan,nan,0.0,nan,nan,nan,nan,nan,nan,nan,nan,nan,nan,nan,nan,nan,nan,nan,nan,nan,nan,492.64648633670004,847.0208560993342,nan,847.3402279673901,nan,nan,nan,nan
1,233,1,1,1.0,1.0,0.25522557116346434,0.0,1,4,3,0,8,2,nan,nan,nan,nan,nan,nan,nan,nan,nan,nan,nan,nan,0.0,nan,nan,nan,nan,nan,nan,nan,nan,nan,nan,nan,nan,nan,nan,nan,nan,nan,nan,492.64648633670004,848.0209829664527,nan,848.2762085376162,nan,nan,nan,nan
1,234,1,1,1.0,1.0,0.3830491842527408,0.0,3,7,0,6,4,8,nan,nan,nan,nan,nan,nan,nan,nan,nan,nan,nan,nan,0.0,nan,nan,nan,nan,nan,nan,nan,nan,nan,nan,nan,nan,nan,nan,nan,nan,nan,nan,492.64648633670004,849.0211098335712,nan,849.404159017824,nan,nan,nan,nan
1,235,1,1,1.0,1.0,0.2549173838488059,0.0,4,5,6,3,1,7,nan,nan,nan,nan,nan,nan,nan,nan,nan,nan,nan,nan,0.0,nan,nan,nan,nan,nan,nan,nan,nan,nan,nan,nan,nan,nan,nan,nan,nan,nan,nan,492.64648633670004,850.0212369857909,nan,850.2761543696397,nan,nan,nan,nan
1,236,1,1,1.0,1.0,0.3267692190274829,0.0,6,0,3,5,2,8,nan,nan,nan,nan,nan,nan,nan,nan,nan,nan,nan,nan,0.0,nan,nan,nan,nan,nan,nan,nan,nan,nan,nan,nan,nan,nan,nan,nan,nan,nan,nan,492.64648633670004,851.0213558702526,nan,851.3481250892801,nan,nan,nan,nan
1,237,1,1,1.0,1.0,0.3746001191029791,0.0,5,3,2,4,6,0,nan,nan,nan,nan,nan,nan,nan,nan,nan,nan,nan,nan,0.0,nan,nan,nan,nan,nan,nan,nan,nan,nan,nan,nan,nan,nan,nan,nan,nan,nan,nan,492.64648633670004,852.0214884392772,nan,852.3960885583801,nan,nan,nan,nan
1,238,1,1,1.0,1.0,0.278445105170249,0.0,6,8,7,1,3,5,nan,nan,nan,nan,nan,nan,nan,nan,nan,nan,nan,nan,0.0,nan,nan,nan,nan,nan,nan,nan,nan,nan,nan,nan,nan,nan,nan,nan,nan,nan,nan,492.64648633670004,853.0216104597785,nan,853.3000555649487,nan,nan,nan,nan
1,239,0,0,0.0,1.0,0.39028802257962525,1.0,8,2,5,3,4,7,1.0,1.0,1.0,1.0,1.0,1.0,0.0,1.0,1.0,1.0,1.0,1.0,5.0,6.0,2.0,5.0,3.0,4.0,7.0,6.0,2.0,1.0,3.0,4.0,5.0,8.852984955272404,3.9741935171186924,2.6555440789088607,5.197952906353748,6.006532088693348,8.045240530089359,492.64648633670004,854.021744454265,854.8301292020478,854.4120324768446,864.7397122881812,865.7375615341152,855.8469326808845,864.7313818224211
1,240,1,1,1.0,1.0,0.543777851969935,0.0,0,4,7,5,8,2,nan,nan,nan,nan,nan,nan,nan,nan,nan,nan,nan,nan,0.0,nan,nan,nan,nan,nan,nan,nan,nan,nan,nan,nan,nan,nan,nan,nan,nan,nan,nan,492.64648633670004,865.9399111702078,nan,866.4836890221777,nan,nan,nan,nan
1,241,1,1,1.0,1.0,0.43961452922667377,0.0,7,8,1,6,3,4,nan,nan,nan,nan,nan,nan,nan,nan,nan,nan,nan,nan,0.0,nan,nan,nan,nan,nan,nan,nan,nan,nan,nan,nan,nan,nan,nan,nan,nan,nan,nan,492.64648633670004,866.9400625554699,nan,867.3796770846966,nan,nan,nan,nan
1,242,0,0,0.0,1.0,0.5114857508306159,0.0,8,4,3,5,7,0,nan,nan,nan,nan,nan,nan,nan,nan,nan,nan,nan,nan,0.0,nan,nan,nan,nan,nan,nan,nan,nan,nan,nan,nan,nan,nan,nan,nan,nan,nan,nan,492.64648633670004,867.9401358247997,nan,868.4516215756303,nan,nan,nan,nan
1,243,1,1,1.0,1.0,0.5193104586651316,0.0,5,3,8,2,4,6,nan,nan,nan,nan,nan,nan,nan,nan,nan,nan,nan,nan,0.0,nan,nan,nan,nan,nan,nan,nan,nan,nan,nan,nan,nan,nan,nan,nan,nan,nan,nan,492.64648633670004,868.9402769466542,nan,869.4595874053193,nan,nan,nan,nan
1,244,1,1,1.0,1.0,0.44717010771273635,0.0,8,0,7,1,6,4,nan,nan,nan,nan,nan,nan,nan,nan,nan,nan,nan,nan,0.0,nan,nan,nan,nan,nan,nan,nan,nan,nan,nan,nan,nan,nan,nan,nan,nan,nan,nan,492.64648633670004,869.9403895590367,nan,870.3875596667494,nan,nan,nan,nan
1,245,1,1,1.0,1.0,0.4310086620389484,0.0,5,2,4,3,7,1,nan,nan,nan,nan,nan,nan,nan,nan,nan,nan,nan,nan,0.0,nan,nan,nan,nan,nan,nan,nan,nan,nan,nan,nan,nan,nan,nan,nan,nan,nan,nan,492.64648633670004,870.9405272597505,nan,871.3715359217895,nan,nan,nan,nan
1,246,1,1,1.0,1.0,0.37487238450557925,0.0,1,0,8,7,6,5,nan,nan,nan,nan,nan,nan,nan,nan,nan,nan,nan,nan,0.0,nan,nan,nan,nan,nan,nan,nan,nan,nan,nan,nan,nan,nan,nan,nan,nan,nan,nan,492.64648633670004,871.9406469995156,nan,872.3155193840212,nan,nan,nan,nan
1,247,1,1,1.0,1.0,0.43871020898222923,0.0,2,6,7,4,1,3,nan,nan,nan,nan,nan,nan,nan,nan,nan,nan,nan,nan,0.0,nan,nan,nan,nan,nan,nan,nan,nan,nan,nan,nan,nan,nan,nan,nan,nan,nan,nan,492.64648633670004,872.9407707305945,nan,873.3794809395768,nan,nan,nan,nan
1,248,1,1,1.0,1.0,0.41422913114365656,0.0,0,8,6,3,2,5,nan,nan,nan,nan,nan,nan,nan,nan,nan,nan,nan,nan,0.0,nan,nan,nan,nan,nan,nan,nan,nan,nan,nan,nan,nan,nan,nan,nan,nan,nan,nan,492.64648633670004,873.9492266379966,nan,874.3634557691403,nan,nan,nan,nan
1,249,1,1,1.0,1.0,0.3820698841154808,0.0,2,0,4,1,3,6,nan,nan,nan,nan,nan,nan,nan,nan,nan,nan,nan,nan,0.0,nan,nan,nan,nan,nan,nan,nan,nan,nan,nan,nan,nan,nan,nan,nan,nan,nan,nan,492.64648633670004,874.9493580666312,nan,875.3314279507467,nan,nan,nan,nan
1,250,1,1,1.0,1.0,0.3099141380371293,0.0,1,2,5,4,8,3,nan,nan,nan,nan,nan,nan,nan,nan,nan,nan,nan,nan,0.0,nan,nan,nan,nan,nan,nan,nan,nan,nan,nan,nan,nan,nan,nan,nan,nan,nan,nan,492.64648633670004,875.9494855039375,nan,876.2593996419746,nan,nan,nan,nan
1,251,1,1,1.0,1.0,0.43775856302818283,0.0,4,6,7,2,5,0,nan,nan,nan,nan,nan,nan,nan,nan,nan,nan,nan,nan,0.0,nan,nan,nan,nan,nan,nan,nan,nan,nan,nan,nan,nan,nan,nan,nan,nan,nan,nan,492.64648633670004,876.949615222009,nan,877.3873737850372,nan,nan,nan,nan
1,252,1,1,1.0,1.0,0.461597037530737,0.0,7,2,5,6,4,8,nan,nan,nan,nan,nan,nan,nan,nan,nan,nan,nan,nan,0.0,nan,nan,nan,nan,nan,nan,nan,nan,nan,nan,nan,nan,nan,nan,nan,nan,nan,nan,492.64648633670004,877.9497457953548,nan,878.4113428328856,nan,nan,nan,nan
1,253,1,1,1.0,1.0,0.3734865394071676,0.0,6,8,3,4,0,5,nan,nan,nan,nan,nan,nan,nan,nan,nan,nan,nan,nan,0.0,nan,nan,nan,nan,nan,nan,nan,nan,nan,nan,nan,nan,nan,nan,nan,nan,nan,nan,492.64648633670004,878.9498470039543,nan,879.3233335433615,nan,nan,nan,nan
1,254,1,1,1.0,1.0,0.3009906754014082,0.0,2,5,8,0,1,6,nan,nan,nan,nan,nan,nan,nan,nan,nan,nan,nan,nan,0.0,nan,nan,nan,nan,nan,nan,nan,nan,nan,nan,nan,nan,nan,nan,nan,nan,nan,nan,492.64648633670004,879.9583148853417,nan,880.2593055607431,nan,nan,nan,nan
1,255,1,1,1.0,1.0,0.30048776844341774,0.0,4,8,7,1,5,0,nan,nan,nan,nan,nan,nan,nan,nan,nan,nan,nan,nan,0.0,nan,nan,nan,nan,nan,nan,nan,nan,nan,nan,nan,nan,nan,nan,nan,nan,nan,nan,492.64648633670004,880.9667659461265,nan,881.26725371457,nan,nan,nan,nan
1,256,1,1,1.0,1.0,0.26031565108860377,0.0,1,3,0,4,6,7,nan,nan,nan,nan,nan,nan,nan,nan,nan,nan,nan,nan,0.0,nan,nan,nan,nan,nan,nan,nan,nan,nan,nan,nan,nan,nan,nan,nan,nan,nan,nan,492.64648633670004,881.9669113444106,nan,882.2272269954992,nan,nan,nan,nan
1,257,1,1,1.0,1.0,0.2438340441294713,0.0,0,5,7,6,2,3,nan,nan,nan,nan,nan,nan,nan,nan,nan,nan,nan,nan,0.0,nan,nan,nan,nan,nan,nan,nan,nan,nan,nan,nan,nan,nan,nan,nan,nan,nan,nan,492.64648633670004,882.9753669667116,nan,883.2192010108411,nan,nan,nan,nan
1,258,1,1,1.0,1.0,0.3876697132800473,0.0,8,0,6,5,3,2,nan,nan,nan,nan,nan,nan,nan,nan,nan,nan,nan,nan,0.0,nan,nan,nan,nan,nan,nan,nan,nan,nan,nan,nan,nan,nan,nan,nan,nan,nan,nan,492.64648633670004,883.9754958294943,nan,884.3631655427744,nan,nan,nan,nan
1,259,1,1,1.0,1.0,0.29921196987561416,0.0,3,1,0,8,2,6,nan,nan,nan,nan,nan,nan,nan,nan,nan,nan,nan,nan,0.0,nan,nan,nan,nan,nan,nan,nan,nan,nan,nan,nan,nan,nan,nan,nan,nan,nan,nan,492.64648633670004,884.9839300697058,nan,885.2831420395814,nan,nan,nan,nan
1,260,1,1,1.0,1.0,0.24308795141405426,0.0,7,8,6,4,3,5,nan,nan,nan,nan,nan,nan,nan,nan,nan,nan,nan,nan,0.0,nan,nan,nan,nan,nan,nan,nan,nan,nan,nan,nan,nan,nan,nan,nan,nan,nan,nan,492.64648633670004,885.9840386907745,nan,886.2271266421885,nan,nan,nan,nan
1,261,1,1,1.0,1.0,0.25087331619579345,0.0,0,1,2,5,6,4,nan,nan,nan,nan,nan,nan,nan,nan,nan,nan,nan,nan,0.0,nan,nan,nan,nan,nan,nan,nan,nan,nan,nan,nan,nan,nan,nan,nan,nan,nan,nan,492.64648633670004,886.9842049009458,nan,887.2350782171416,nan,nan,nan,nan
1,262,1,1,1.0,1.0,0.26673712306364905,0.0,5,3,8,2,0,6,nan,nan,nan,nan,nan,nan,nan,nan,nan,nan,nan,nan,0.0,nan,nan,nan,nan,nan,nan,nan,nan,nan,nan,nan,nan,nan,nan,nan,nan,nan,nan,492.64648633670004,887.9843243556097,nan,888.2510614786734,nan,nan,nan,nan
1,263,1,1,1.0,1.0,0.20257742670946755,0.0,4,0,2,8,3,1,nan,nan,nan,nan,nan,nan,nan,nan,nan,nan,nan,nan,0.0,nan,nan,nan,nan,nan,nan,nan,nan,nan,nan,nan,nan,nan,nan,nan,nan,nan,nan,492.64648633670004,888.9844463761256,nan,889.187023802835,nan,nan,nan,nan
1,264,0,0,1.0,0.0,0.2264116247970378,0.0,8,3,1,7,5,6,nan,nan,nan,nan,nan,nan,nan,nan,nan,nan,nan,nan,0.0,nan,nan,nan,nan,nan,nan,nan,nan,nan,nan,nan,nan,nan,nan,nan,nan,nan,nan,492.64648633670004,889.9845783749479,nan,890.2109899997449,nan,nan,nan,nan
1,265,1,1,1.0,1.0,0.306274619710166,0.0,5,7,4,0,6,2,nan,nan,nan,nan,nan,nan,nan,nan,nan,nan,nan,nan,0.0,nan,nan,nan,nan,nan,nan,nan,nan,nan,nan,nan,nan,nan,nan,nan,nan,nan,nan,492.64648633670004,890.9846841450635,nan,891.2909587647737,nan,nan,nan,nan
1,266,1,1,1.0,1.0,0.3300994096498471,0.0,7,2,8,4,1,3,nan,nan,nan,nan,nan,nan,nan,nan,nan,nan,nan,nan,0.0,nan,nan,nan,nan,nan,nan,nan,nan,nan,nan,nan,nan,nan,nan,nan,nan,nan,nan,492.64648633670004,891.9848266923946,nan,892.3149261020444,nan,nan,nan,nan
1,267,1,1,1.0,1.0,0.2979484303796198,0.0,4,7,3,5,6,0,nan,nan,nan,nan,nan,nan,nan,nan,nan,nan,nan,nan,0.0,nan,nan,nan,nan,nan,nan,nan,nan,nan,nan,nan,nan,nan,nan,nan,nan,nan,nan,492.64648633670004,892.9849544147874,nan,893.282902845167,nan,nan,nan,nan
1,268,1,1,1.0,1.0,0.2818109326326521,0.0,3,4,6,0,8,7,nan,nan,nan,nan,nan,nan,nan,nan,nan,nan,nan,nan,0.0,nan,nan,nan,nan,nan,nan,nan,nan,nan,nan,nan,nan,nan,nan,nan,nan,nan,nan,492.64648633670004,893.9850747247401,nan,894.2668856573728,nan,nan,nan,nan
1,269,1,1,1.0,1.0,0.24931926524732262,0.0,8,2,7,3,0,5,nan,nan,nan,nan,nan,nan,nan,nan,nan,nan,nan,nan,0.0,nan,nan,nan,nan,nan,nan,nan,nan,nan,nan,nan,nan,nan,nan,nan,nan,nan,nan,492.64648633670004,894.9935323427053,nan,895.2428516079526,nan,nan,nan,nan
1,270,1,1,1.0,1.0,0.3368213713692967,0.0,3,8,5,4,1,7,nan,nan,nan,nan,nan,nan,nan,nan,nan,nan,nan,nan,0.0,nan,nan,nan,nan,nan,nan,nan,nan,nan,nan,nan,nan,nan,nan,nan,nan,nan,nan,492.64648633670004,896.0019996539049,nan,896.3388210252742,nan,nan,nan,nan
1,271,1,1,1.0,1.0,0.2966598025377607,0.0,4,0,8,1,3,2,nan,nan,nan,nan,nan,nan,nan,nan,nan,nan,nan,nan,0.0,nan,nan,nan,nan,nan,nan,nan,nan,nan,nan,nan,nan,nan,nan,nan,nan,nan,nan,492.64648633670004,897.0021327931026,nan,897.2987925956404,nan,nan,nan,nan
1,272,1,1,1.0,1.0,0.25652503260062076,0.0,2,7,1,3,4,0,nan,nan,nan,nan,nan,nan,nan,nan,nan,nan,nan,nan,0.0,nan,nan,nan,nan,nan,nan,nan,nan,nan,nan,nan,nan,nan,nan,nan,nan,nan,nan,492.64648633670004,898.0022416992579,nan,898.2587667318585,nan,nan,nan,nan
1,273,1,1,1.0,1.0,0.24837246591050643,0.0,7,2,4,0,3,8,nan,nan,nan,nan,nan,nan,nan,nan,nan,nan,nan,nan,0.0,nan,nan,nan,nan,nan,nan,nan,nan,nan,nan,nan,nan,nan,nan,nan,nan,nan,nan,492.64648633670004,899.0023697067518,nan,899.2507421726623,nan,nan,nan,nan
1,274,1,1,1.0,1.0,0.25619831412041094,0.0,6,8,2,3,1,4,nan,nan,nan,nan,nan,nan,nan,nan,nan,nan,nan,nan,0.0,nan,nan,nan,nan,nan,nan,nan,nan,nan,nan,nan,nan,nan,nan,nan,nan,nan,nan,492.64648633670004,900.0025082627544,nan,900.2587065768748,nan,nan,nan,nan
1,275,0,0,0.0,1.0,0.504093246490811,1.0,7,3,5,8,4,2,1.0,1.0,1.0,1.0,1.0,1.0,0.0,1.0,1.0,1.0,0.0,0.0,3.0,6.0,3.0,5.0,8.0,2.0,1.0,6.0,2.0,1.0,3.0,4.0,5.0,7.36705965064175,3.4396361964172684,2.6650018089276273,4.479735329528921,5.462852024182212,6.3349100968189305,492.64648633670004,901.0025863786868,901.811033277103,901.5066796251776,910.237062190834,911.2416171481018,902.8278210757417,910.2287360015034
1,276,1,1,1.0,1.0,0.4687623214413179,0.0,3,0,7,5,6,4,nan,nan,nan,nan,nan,nan,nan,nan,nan,nan,nan,nan,0.0,nan,nan,nan,nan,nan,nan,nan,nan,nan,nan,nan,nan,nan,nan,nan,nan,nan,nan,492.64648633670004,911.4456043678802,nan,911.9143666893215,nan,nan,nan,nan
1,277,1,1,1.0,1.0,0.29229044188105036,0.0,0,5,4,1,8,6,nan,nan,nan,nan,nan,nan,nan,nan,nan,nan,nan,nan,0.0,nan,nan,nan,nan,nan,nan,nan,nan,nan,nan,nan,nan,nan,nan,nan,nan,nan,nan,492.64648633670004,912.4540406037559,nan,912.7463310456369,nan,nan,nan,nan
1,278,1,1,1.0,1.0,0.2521439830597956,0.0,7,0,1,3,2,8,nan,nan,nan,nan,nan,nan,nan,nan,nan,nan,nan,nan,0.0,nan,nan,nan,nan,nan,nan,nan,nan,nan,nan,nan,nan,nan,nan,nan,nan,nan,nan,492.64648633670004,913.4541714622028,nan,913.7063154452626,nan,nan,nan,nan
1,279,1,1,1.0,1.0,0.2516484885563841,0.0,1,8,3,4,6,7,nan,nan,nan,nan,nan,nan,nan,nan,nan,nan,nan,nan,0.0,nan,nan,nan,nan,nan,nan,nan,nan,nan,nan,nan,nan,nan,nan,nan,nan,nan,nan,492.64648633670004,914.462631931121,nan,914.7142804196774,nan,nan,nan,nan
1,280,1,1,1.0,1.0,0.2514777168544242,0.0,2,3,4,6,1,0,nan,nan,nan,nan,nan,nan,nan,nan,nan,nan,nan,nan,0.0,nan,nan,nan,nan,nan,nan,nan,nan,nan,nan,nan,nan,nan,nan,nan,nan,nan,nan,492.64648633670004,915.4627727678744,nan,915.7142504847288,nan,nan,nan,nan
1,281,0,0,0.0,1.0,0.45934992146794684,1.0,4,6,8,5,3,1,1.0,1.0,1.0,1.0,1.0,1.0,0.0,1.0,1.0,1.0,0.0,0.0,3.0,3.0,6.0,8.0,5.0,1.0,2.0,6.0,1.0,2.0,3.0,4.0,5.0,7.706379876646679,2.2902075403544586,3.378991146950284,4.52330948135932,5.802766672539292,6.739105891843792,492.64648633670004,916.4628845249827,917.2712983524107,916.9222344464506,926.0307089705311,927.0282508844393,918.2880747472664,926.0223836364894
1,282,1,1,1.0,1.0,0.44301143201300874,0.0,1,7,0,4,5,3,nan,nan,nan,nan,nan,nan,nan,nan,nan,nan,nan,nan,0.0,nan,nan,nan,nan,nan,nan,nan,nan,nan,nan,nan,nan,nan,nan,nan,nan,nan,nan,492.64648633670004,927.2308935978363,nan,927.6739050298493,nan,nan,nan,nan
1,283,1,1,1.0,1.0,0.6425052749546012,0.0,8,2,1,5,7,6,nan,nan,nan,nan,nan,nan,nan,nan,nan,nan,nan,nan,0.0,nan,nan,nan,nan,nan,nan,nan,nan,nan,nan,nan,nan,nan,nan,nan,nan,nan,nan,492.64648633670004,928.2393611941225,nan,928.8818664690771,nan,nan,nan,nan
1,284,0,0,0.0,1.0,0.7220426917774603,0.0,6,7,3,2,4,0,nan,nan,nan,nan,nan,nan,nan,nan,nan,nan,nan,nan,0.0,nan,nan,nan,nan,nan,nan,nan,nan,nan,nan,nan,nan,nan,nan,nan,nan,nan,nan,492.64648633670004,929.2478028467885,nan,929.969845538566,nan,nan,nan,nan
1,285,1,1,1.0,1.0,0.6338654815190239,0.0,7,2,4,6,1,5,nan,nan,nan,nan,nan,nan,nan,nan,nan,nan,nan,nan,0.0,nan,nan,nan,nan,nan,nan,nan,nan,nan,nan,nan,nan,nan,nan,nan,nan,nan,nan,492.64648633670004,930.2479513810977,nan,930.8818168626167,nan,nan,nan,nan
1,286,1,1,1.0,1.0,0.5294184895756189,0.0,0,3,8,7,2,4,nan,nan,nan,nan,nan,nan,nan,nan,nan,nan,nan,nan,0.0,nan,nan,nan,nan,nan,nan,nan,nan,nan,nan,nan,nan,nan,nan,nan,nan,nan,nan,492.64648633670004,931.2564013015217,nan,931.7858197910973,nan,nan,nan,nan
1,287,1,1,1.0,1.0,0.4252363505947869,0.0,2,1,7,5,4,8,nan,nan,nan,nan,nan,nan,nan,nan,nan,nan,nan,nan,0.0,nan,nan,nan,nan,nan,nan,nan,nan,nan,nan,nan,nan,nan,nan,nan,nan,nan,nan,492.64648633670004,932.2565398575243,nan,932.6817762081191,nan,nan,nan,nan
1,288,1,1,1.0,1.0,0.3047696050343802,0.0,7,2,6,1,3,0,nan,nan,nan,nan,nan,nan,nan,nan,nan,nan,nan,nan,0.0,nan,nan,nan,nan,nan,nan,nan,nan,nan,nan,nan,nan,nan,nan,nan,nan,nan,nan,492.64648633670004,933.2649872120819,nan,933.5697568171163,nan,nan,nan,nan
1,289,1,1,1.0,1.0,0.304287795064738,0.0,8,3,7,4,1,2,nan,nan,nan,nan,nan,nan,nan,nan,nan,nan,nan,nan,0.0,nan,nan,nan,nan,nan,nan,nan,nan,nan,nan,nan,nan,nan,nan,nan,nan,nan,nan,492.64648633670004,934.2734465406247,nan,934.5777343356895,nan,nan,nan,nan
1,290,1,1,1.0,1.0,0.3201245179370744,0.0,3,4,5,1,2,8,nan,nan,nan,nan,nan,nan,nan,nan,nan,nan,nan,nan,0.0,nan,nan,nan,nan,nan,nan,nan,nan,nan,nan,nan,nan,nan,nan,nan,nan,nan,nan,492.64648633670004,935.2735748332198,nan,935.5936993511568,nan,nan,nan,nan
1,291,1,1,1.0,1.0,0.2956306108389981,0.0,8,7,1,6,3,4,nan,nan,nan,nan,nan,nan,nan,nan,nan,nan,nan,nan,0.0,nan,nan,nan,nan,nan,nan,nan,nan,nan,nan,nan,nan,nan,nan,nan,nan,nan,nan,492.64648633670004,936.2820355872245,nan,936.5776661980635,nan,nan,nan,nan
1,292,1,1,1.0,1.0,0.27114953300042544,0.0,4,3,0,1,6,5,nan,nan,nan,nan,nan,nan,nan,nan,nan,nan,nan,nan,0.0,nan,nan,nan,nan,nan,nan,nan,nan,nan,nan,nan,nan,nan,nan,nan,nan,nan,nan,492.64648633670004,937.2904909244389,nan,937.5616404574394,nan,nan,nan,nan
1,293,1,1,1.0,1.0,0.3906378337123897,0.0,7,8,2,6,3,0,nan,nan,nan,nan,nan,nan,nan,nan,nan,nan,nan,nan,0.0,nan,nan,nan,nan,nan,nan,nan,nan,nan,nan,nan,nan,nan,nan,nan,nan,nan,nan,492.64648633670004,938.29897249036,nan,938.6896103240724,nan,nan,nan,nan
1,294,1,1,1.0,1.0,0.2701705179642886,0.0,8,7,6,4,0,1,nan,nan,nan,nan,nan,nan,nan,nan,nan,nan,nan,nan,0.0,nan,nan,nan,nan,nan,nan,nan,nan,nan,nan,nan,nan,nan,nan,nan,nan,nan,nan,492.64648633670004,939.3074169939791,nan,939.5775875119434,nan,nan,nan,nan
1,295,1,1,1.0,1.0,0.2936797081347322,0.0,6,4,8,0,5,3,nan,nan,nan,nan,nan,nan,nan,nan,nan,nan,nan,nan,0.0,nan,nan,nan,nan,nan,nan,nan,nan,nan,nan,nan,nan,nan,nan,nan,nan,nan,nan,492.64648633670004,940.3158891517814,nan,940.6095688599162,nan,nan,nan,nan
1,296,1,1,1.0,1.0,0.22920868842629716,0.0,2,1,3,4,6,8,nan,nan,nan,nan,nan,nan,nan,nan,nan,nan,nan,nan,0.0,nan,nan,nan,nan,nan,nan,nan,nan,nan,nan,nan,nan,nan,nan,nan,nan,nan,nan,492.64648633670004,941.3243202559534,nan,941.5535289443797,nan,nan,nan,nan
1,297,1,1,1.0,1.0,0.29270782046660315,0.0,1,3,4,6,2,5,nan,nan,nan,nan,nan,nan,nan,nan,nan,nan,nan,nan,0.0,nan,nan,nan,nan,nan,nan,nan,nan,nan,nan,nan,nan,nan,nan,nan,nan,nan,nan,492.64648633670004,942.3327850012865,nan,942.6254928217531,nan,nan,nan,nan
1,298,1,1,1.0,1.0,0.324211919985828,0.0,4,8,0,2,3,7,nan,nan,nan,nan,nan,nan,nan,nan,nan,nan,nan,nan,0.0,nan,nan,nan,nan,nan,nan,nan,nan,nan,nan,nan,nan,nan,nan,nan,nan,nan,nan,492.64648633670004,943.3412523124716,nan,943.6654642324575,nan,nan,nan,nan
1,299,1,1,1.0,1.0,0.403731375845382,0.0,0,2,8,5,4,6,nan,nan,nan,nan,nan,nan,nan,nan,nan,nan,nan,nan,0.0,nan,nan,nan,nan,nan,nan,nan,nan,nan,nan,nan,nan,nan,nan,nan,nan,nan,nan,492.64648633670004,944.3497153472417,nan,944.7534467230871,nan,nan,nan,nan
1,300,1,1,1.0,1.0,0.45155087213788647,0.0,3,0,1,2,7,4,nan,nan,nan,nan,nan,nan,nan,nan,nan,nan,nan,nan,0.0,nan,nan,nan,nan,nan,nan,nan,nan,nan,nan,nan,nan,nan,nan,nan,nan,nan,nan,492.64648633670004,945.349841359086,nan,945.8013922312239,nan,nan,nan,nan
1,301,1,1,1.0,1.0,0.45938897943415213,0.0,7,4,5,6,3,2,nan,nan,nan,nan,nan,nan,nan,nan,nan,nan,nan,nan,0.0,nan,nan,nan,nan,nan,nan,nan,nan,nan,nan,nan,nan,nan,nan,nan,nan,nan,nan,492.64648633670004,946.3499659454537,nan,946.8093549248879,nan,nan,nan,nan
1,302,1,1,1.0,1.0,0.5232419139356352,0.0,1,5,4,8,0,3,nan,nan,nan,nan,nan,nan,nan,nan,nan,nan,nan,nan,0.0,nan,nan,nan,nan,nan,nan,nan,nan,nan,nan,nan,nan,nan,nan,nan,nan,nan,nan,492.64648633670004,947.3500987995503,nan,947.873340713486,nan,nan,nan,nan
1,303,1,1,1.0,1.0,0.5550764381478075,0.0,7,3,1,0,5,6,nan,nan,nan,nan,nan,nan,nan,nan,nan,nan,nan,nan,0.0,nan,nan,nan,nan,nan,nan,nan,nan,nan,nan,nan,nan,nan,nan,nan,nan,nan,nan,492.64648633670004,948.3502171138389,nan,948.9052935519867,nan,nan,nan,nan
1,304,1,1,1.0,1.0,0.6029492471570848,0.0,1,8,4,2,0,3,nan,nan,nan,nan,nan,nan,nan,nan,nan,nan,nan,nan,0.0,nan,nan,nan,nan,nan,nan,nan,nan,nan,nan,nan,nan,nan,nan,nan,nan,nan,nan,492.64648633670004,949.3503397045424,nan,949.9532889516995,nan,nan,nan,nan
1,305,1,1,1.0,1.0,0.6187739960587351,0.0,0,4,8,1,3,5,nan,nan,nan,nan,nan,nan,nan,nan,nan,nan,nan,nan,0.0,nan,nan,nan,nan,nan,nan,nan,nan,nan,nan,nan,nan,nan,nan,nan,nan,nan,nan,492.64648633670004,950.3504668567475,nan,950.9692408528063,nan,nan,nan,nan
1,306,1,1,1.0,1.0,0.5626251743669854,0.0,6,3,1,5,2,0,nan,nan,nan,nan,nan,nan,nan,nan,nan,nan,nan,nan,0.0,nan,nan,nan,nan,nan,nan,nan,nan,nan,nan,nan,nan,nan,nan,nan,nan,nan,nan,492.64648633670004,951.3505846008484,nan,951.9132097752154,nan,nan,nan,nan
1,307,1,1,nan,nan,nan,0.0,1,0,3,4,8,5,nan,nan,nan,nan,nan,nan,nan,nan,nan,nan,nan,nan,0.0,nan,nan,nan,nan,nan,nan,nan,nan,nan,nan,nan,nan,nan,nan,nan,nan,nan,nan,492.64648633670004,952.350745964417,nan,nan,nan,nan,nan,nan
1,308,0,0,0.0,1.0,0.46600374557601754,0.0,8,1,2,6,4,7,nan,nan,nan,nan,nan,nan,nan,nan,nan,nan,nan,nan,0.0,nan,nan,nan,nan,nan,nan,nan,nan,nan,nan,nan,nan,nan,nan,nan,nan,nan,nan,492.64648633670004,953.3591625287518,nan,953.8251662743278,nan,nan,nan,nan
1,309,1,1,1.0,1.0,0.5695124909980223,0.0,4,3,1,0,7,8,nan,nan,nan,nan,nan,nan,nan,nan,nan,nan,nan,nan,0.0,nan,nan,nan,nan,nan,nan,nan,nan,nan,nan,nan,nan,nan,nan,nan,nan,nan,nan,492.64648633670004,954.3676264188107,nan,954.9371389098087,nan,nan,nan,nan
1,310,1,1,1.0,1.0,0.5850281972816447,0.0,2,0,8,1,6,3,nan,nan,nan,nan,nan,nan,nan,nan,nan,nan,nan,nan,0.0,nan,nan,nan,nan,nan,nan,nan,nan,nan,nan,nan,nan,nan,nan,nan,nan,nan,nan,492.64648633670004,955.3760877430177,nan,955.9611159402994,nan,nan,nan,nan
1,311,1,1,1.0,1.0,0.44053595514560584,0.0,5,3,4,7,1,0,nan,nan,nan,nan,nan,nan,nan,nan,nan,nan,nan,nan,0.0,nan,nan,nan,nan,nan,nan,nan,nan,nan,nan,nan,nan,nan,nan,nan,nan,nan,nan,492.64648633670004,956.3845459311706,nan,956.8250818863162,nan,nan,nan,nan
1,312,1,1,1.0,1.0,0.4960418883856619,0.0,8,0,6,1,7,2,nan,nan,nan,nan,nan,nan,nan,nan,nan,nan,nan,nan,0.0,nan,nan,nan,nan,nan,nan,nan,nan,nan,nan,nan,nan,nan,nan,nan,nan,nan,nan,492.64648633670004,957.393008395753,nan,957.8890502841386,nan,nan,nan,nan
1,313,1,1,1.0,1.0,0.37556117319036275,0.0,3,8,2,0,5,1,nan,nan,nan,nan,nan,nan,nan,nan,nan,nan,nan,nan,0.0,nan,nan,nan,nan,nan,nan,nan,nan,nan,nan,nan,nan,nan,nan,nan,nan,nan,nan,492.64648633670004,958.4014708603354,nan,958.7770320335258,nan,nan,nan,nan
1,314,1,1,1.0,1.0,0.2790911296469858,0.0,5,7,1,2,8,3,nan,nan,nan,nan,nan,nan,nan,nan,nan,nan,nan,nan,0.0,nan,nan,nan,nan,nan,nan,nan,nan,nan,nan,nan,nan,nan,nan,nan,nan,nan,nan,492.64648633670004,959.4099142235791,nan,959.6890053532261,nan,nan,nan,nan
1,315,1,1,1.0,1.0,0.24693444847071078,0.0,4,8,0,1,2,6,nan,nan,nan,nan,nan,nan,nan,nan,nan,nan,nan,nan,0.0,nan,nan,nan,nan,nan,nan,nan,nan,nan,nan,nan,nan,nan,nan,nan,nan,nan,nan,492.64648633670004,960.410054775246,nan,960.6569892237167,nan,nan,nan,nan
1,316,0,0,0.0,1.0,0.4547453577251872,0.0,2,7,5,6,3,1,nan,nan,nan,nan,nan,nan,nan,nan,nan,nan,nan,nan,0.0,nan,nan,nan,nan,nan,nan,nan,nan,nan,nan,nan,nan,nan,nan,nan,nan,nan,nan,492.64648633670004,961.4101913355844,nan,961.8649366933096,nan,nan,nan,nan
1,317,1,1,1.0,1.0,0.5745740614656825,0.0,1,0,4,5,7,8,nan,nan,nan,nan,nan,nan,nan,nan,nan,nan,nan,nan,0.0,nan,nan,nan,nan,nan,nan,nan,nan,nan,nan,nan,nan,nan,nan,nan,nan,nan,nan,492.64648633670004,962.4103122157103,nan,962.984886277176,nan,nan,nan,nan
1,318,1,1,1.0,1.0,0.6144134733476676,0.0,4,5,2,3,1,0,nan,nan,nan,nan,nan,nan,nan,nan,nan,nan,nan,nan,0.0,nan,nan,nan,nan,nan,nan,nan,nan,nan,nan,nan,nan,nan,nan,nan,nan,nan,nan,492.64648633670004,963.4104444996337,nan,964.0248579729814,nan,nan,nan,nan
1,319,1,1,1.0,1.0,0.39028859276731964,0.0,6,1,5,8,0,3,nan,nan,nan,nan,nan,nan,nan,nan,nan,nan,nan,nan,0.0,nan,nan,nan,nan,nan,nan,nan,nan,nan,nan,nan,nan,nan,nan,nan,nan,nan,nan,492.64648633670004,964.4105633840954,nan,964.8008519768628,nan,nan,nan,nan
1,320,1,1,1.0,1.0,0.30981406981300097,0.0,4,7,3,0,5,8,nan,nan,nan,nan,nan,nan,nan,nan,nan,nan,nan,nan,0.0,nan,nan,nan,nan,nan,nan,nan,nan,nan,nan,nan,nan,nan,nan,nan,nan,nan,nan,492.64648633670004,965.4190127343318,nan,965.7288268041448,nan,nan,nan,nan
1,321,1,1,1.0,1.0,0.27733722735138144,0.0,8,1,4,7,3,5,nan,nan,nan,nan,nan,nan,nan,nan,nan,nan,nan,nan,0.0,nan,nan,nan,nan,nan,nan,nan,nan,nan,nan,nan,nan,nan,nan,nan,nan,nan,nan,492.64648633670004,966.427467786445,nan,966.7048050137964,nan,nan,nan,nan
1,322,0,0,1.0,0.0,0.2611663735442562,0.0,2,3,8,6,0,7,nan,nan,nan,nan,nan,nan,nan,nan,nan,nan,nan,nan,0.0,nan,nan,nan,nan,nan,nan,nan,nan,nan,nan,nan,nan,nan,nan,nan,nan,nan,nan,492.64648633670004,967.4276086231985,nan,967.6887749967427,nan,nan,nan,nan
1,323,1,1,1.0,1.0,0.4050219993223436,0.0,0,2,5,4,1,8,nan,nan,nan,nan,nan,nan,nan,nan,nan,nan,nan,nan,0.0,nan,nan,nan,nan,nan,nan,nan,nan,nan,nan,nan,nan,nan,nan,nan,nan,nan,nan,492.64648633670004,968.4276995684049,nan,968.8327215677273,nan,nan,nan,nan
1,324,1,1,1.0,1.0,0.3885364010347985,0.0,6,3,1,5,2,0,nan,nan,nan,nan,nan,nan,nan,nan,nan,nan,nan,nan,0.0,nan,nan,nan,nan,nan,nan,nan,nan,nan,nan,nan,nan,nan,nan,nan,nan,nan,nan,492.64648633670004,969.4361839852645,nan,969.8247203862993,nan,nan,nan,nan
1,325,1,1,1.0,1.0,0.38033935957355425,0.0,5,2,3,8,0,7,nan,nan,nan,nan,nan,nan,nan,nan,nan,nan,nan,nan,0.0,nan,nan,nan,nan,nan,nan,nan,nan,nan,nan,nan,nan,nan,nan,nan,nan,nan,nan,492.64648633670004,970.4363242518302,nan,970.8166636114038,nan,nan,nan,nan
1,326,1,1,1.0,1.0,0.35618956171674654,0.0,2,1,5,0,8,4,nan,nan,nan,nan,nan,nan,nan,nan,nan,nan,nan,nan,0.0,nan,nan,nan,nan,nan,nan,nan,nan,nan,nan,nan,nan,nan,nan,nan,nan,nan,nan,492.64648633670004,971.4364548251906,nan,971.7926443869073,nan,nan,nan,nan
1,327,1,1,1.0,1.0,0.3560310491011478,0.0,8,4,0,1,3,5,nan,nan,nan,nan,nan,nan,nan,nan,nan,nan,nan,nan,0.0,nan,nan,nan,nan,nan,nan,nan,nan,nan,nan,nan,nan,nan,nan,nan,nan,nan,nan,492.64648633670004,972.4365768456919,nan,972.792607894793,nan,nan,nan,nan
1,328,1,1,1.0,1.0,0.3238740828091977,0.0,2,1,4,7,5,0,nan,nan,nan,nan,nan,nan,nan,nan,nan,nan,nan,nan,0.0,nan,nan,nan,nan,nan,nan,nan,nan,nan,nan,nan,nan,nan,nan,nan,nan,nan,nan,492.64648633670004,973.4367059935757,nan,973.7605800763849,nan,nan,nan,nan
1,329,1,1,1.0,1.0,0.3634640368836699,0.0,5,2,7,0,3,8,nan,nan,nan,nan,nan,nan,nan,nan,nan,nan,nan,nan,0.0,nan,nan,nan,nan,nan,nan,nan,nan,nan,nan,nan,nan,nan,nan,nan,nan,nan,nan,492.64648633670004,974.4451151454559,nan,974.8085791823396,nan,nan,nan,nan
1,330,1,1,1.0,1.0,0.39523584027483594,0.0,6,7,4,1,8,3,nan,nan,nan,nan,nan,nan,nan,nan,nan,nan,nan,nan,0.0,nan,nan,nan,nan,nan,nan,nan,nan,nan,nan,nan,nan,nan,nan,nan,nan,nan,nan,492.64648633670004,975.4452862022445,nan,975.8405220425193,nan,nan,nan,nan
1,331,1,1,1.0,1.0,0.3710960207390599,0.0,3,0,5,6,2,4,nan,nan,nan,nan,nan,nan,nan,nan,nan,nan,nan,nan,0.0,nan,nan,nan,nan,nan,nan,nan,nan,nan,nan,nan,nan,nan,nan,nan,nan,nan,nan,492.64648633670004,976.4453999550169,nan,976.816495975756,nan,nan,nan,nan
1,332,1,1,1.0,1.0,0.40292940457584336,0.0,7,3,6,4,5,8,nan,nan,nan,nan,nan,nan,nan,nan,nan,nan,nan,nan,0.0,nan,nan,nan,nan,nan,nan,nan,nan,nan,nan,nan,nan,nan,nan,nan,nan,nan,nan,492.64648633670004,977.4455308134638,nan,977.8484602180397,nan,nan,nan,nan
1,333,1,1,1.0,1.0,0.4424794453807408,0.0,2,4,1,8,7,0,nan,nan,nan,nan,nan,nan,nan,nan,nan,nan,nan,nan,0.0,nan,nan,nan,nan,nan,nan,nan,nan,nan,nan,nan,nan,nan,nan,nan,nan,nan,nan,492.64648633670004,978.453972751231,nan,978.8964521966118,nan,nan,nan,nan
1,334,1,1,1.0,1.0,0.49831010145135224,0.0,0,7,3,5,8,1,nan,nan,nan,nan,nan,nan,nan,nan,nan,nan,nan,nan,0.0,nan,nan,nan,nan,nan,nan,nan,nan,nan,nan,nan,nan,nan,nan,nan,nan,nan,nan,492.64648633670004,979.4541158687352,nan,979.9524259701866,nan,nan,nan,nan
1,335,1,1,1.0,1.0,0.5221534225420328,0.0,6,0,1,2,4,3,nan,nan,nan,nan,nan,nan,nan,nan,nan,nan,nan,nan,0.0,nan,nan,nan,nan,nan,nan,nan,nan,nan,nan,nan,nan,nan,nan,nan,nan,nan,nan,492.64648633670004,980.454231902273,nan,980.976385324815,nan,nan,nan,nan
1,336,1,1,1.0,1.0,0.562024194849073,0.0,0,5,3,4,7,1,nan,nan,nan,nan,nan,nan,nan,nan,nan,nan,nan,nan,0.0,nan,nan,nan,nan,nan,nan,nan,nan,nan,nan,nan,nan,nan,nan,nan,nan,nan,nan,492.64648633670004,981.4543268387788,nan,982.0163510336279,nan,nan,nan,nan
1,337,1,1,1.0,1.0,0.5938222269469406,0.0,7,4,5,6,1,2,nan,nan,nan,nan,nan,nan,nan,nan,nan,nan,nan,nan,0.0,nan,nan,nan,nan,nan,nan,nan,nan,nan,nan,nan,nan,nan,nan,nan,nan,nan,nan,492.64648633670004,982.4544879172608,nan,983.0483101442078,nan,nan,nan,nan
1,338,1,1,1.0,1.0,0.5936848113342421,0.0,3,5,0,2,7,1,nan,nan,nan,nan,nan,nan,nan,nan,nan,nan,nan,nan,0.0,nan,nan,nan,nan,nan,nan,nan,nan,nan,nan,nan,nan,nan,nan,nan,nan,nan,nan,492.64648633670004,983.4546244775993,nan,984.0483092889335,nan,nan,nan,nan
1,339,1,1,1.0,1.0,0.633519376598997,0.0,1,4,8,5,3,6,nan,nan,nan,nan,nan,nan,nan,nan,nan,nan,nan,nan,0.0,nan,nan,nan,nan,nan,nan,nan,nan,nan,nan,nan,nan,nan,nan,nan,nan,nan,nan,492.64648633670004,984.4547350943321,nan,985.0882544709311,nan,nan,nan,nan
1,340,1,1,1.0,1.0,0.6173513737448957,0.0,3,7,0,4,1,2,nan,nan,nan,nan,nan,nan,nan,nan,nan,nan,nan,nan,0.0,nan,nan,nan,nan,nan,nan,nan,nan,nan,nan,nan,nan,nan,nan,nan,nan,nan,nan,492.64648633670004,985.4548753608979,nan,986.0722267346428,nan,nan,nan,nan
1,341,1,1,1.0,1.0,0.6412083793838974,0.0,0,6,4,2,7,5,nan,nan,nan,nan,nan,nan,nan,nan,nan,nan,nan,nan,0.0,nan,nan,nan,nan,nan,nan,nan,nan,nan,nan,nan,nan,nan,nan,nan,nan,nan,nan,492.64648633670004,986.4549999472656,nan,987.0962083266495,nan,nan,nan,nan
1,342,1,1,1.0,1.0,0.6647255522111664,0.0,5,4,2,3,1,6,nan,nan,nan,nan,nan,nan,nan,nan,nan,nan,nan,nan,0.0,nan,nan,nan,nan,nan,nan,nan,nan,nan,nan,nan,nan,nan,nan,nan,nan,nan,nan,492.64648633670004,987.4634518633393,nan,988.1281774155505,nan,nan,nan,nan
1,343,1,1,1.0,1.0,0.6886164841125719,0.0,7,0,8,6,5,4,nan,nan,nan,nan,nan,nan,nan,nan,nan,nan,nan,nan,0.0,nan,nan,nan,nan,nan,nan,nan,nan,nan,nan,nan,nan,nan,nan,nan,nan,nan,nan,492.64648633670004,988.4635587738303,nan,989.1521752579429,nan,nan,nan,nan
1,344,1,1,1.0,1.0,0.7280744393501664,0.0,1,4,0,8,2,3,nan,nan,nan,nan,nan,nan,nan,nan,nan,nan,nan,nan,0.0,nan,nan,nan,nan,nan,nan,nan,nan,nan,nan,nan,nan,nan,nan,nan,nan,nan,nan,492.64648633670004,989.4720315018203,nan,990.2001059411705,nan,nan,nan,nan
1,345,1,1,1.0,1.0,0.6876602766424185,0.0,4,8,5,1,0,7,nan,nan,nan,nan,nan,nan,nan,nan,nan,nan,nan,nan,0.0,nan,nan,nan,nan,nan,nan,nan,nan,nan,nan,nan,nan,nan,nan,nan,nan,nan,nan,492.64648633670004,990.4804352369101,nan,991.1680955135525,nan,nan,nan,nan
1,346,1,1,1.0,1.0,0.6630682969844202,0.0,1,3,6,8,7,2,nan,nan,nan,nan,nan,nan,nan,nan,nan,nan,nan,nan,0.0,nan,nan,nan,nan,nan,nan,nan,nan,nan,nan,nan,nan,nan,nan,nan,nan,nan,nan,492.64648633670004,991.4889994802797,nan,992.1520677772642,nan,nan,nan,nan
1,347,0,0,0.0,1.0,0.6629340174113167,1.0,7,2,5,1,3,4,1.0,1.0,1.0,1.0,1.0,1.0,0.0,1.0,1.0,1.0,0.0,1.0,4.0,0.0,2.0,5.0,1.0,8.0,4.0,4.0,3.0,2.0,1.0,6.0,5.0,7.582910799290403,5.111971209989861,4.175837543938542,3.030743466981221,18.221695303946035,8.663007001639926,492.64648633670004,992.4890838682913,993.2974763136299,993.1520178857027,1012.5665469364176,1013.5745714956138,994.3059387782123,1012.558213619719
1,348,1,1,1.0,1.0,0.7440072391327703,0.0,6,0,4,7,1,3,nan,nan,nan,nan,nan,nan,nan,nan,nan,nan,nan,nan,0.0,nan,nan,nan,nan,nan,nan,nan,nan,nan,nan,nan,nan,nan,nan,nan,nan,nan,nan,492.64648633670004,1013.783437255086,nan,1014.5274444942188,nan,nan,nan,nan
1,349,1,1,1.0,1.0,0.58353544169222,0.0,4,5,8,2,7,6,nan,nan,nan,nan,nan,nan,nan,nan,nan,nan,nan,nan,0.0,nan,nan,nan,nan,nan,nan,nan,nan,nan,nan,nan,nan,nan,nan,nan,nan,nan,nan,492.64648633670004,1014.7918489728181,nan,1015.3753844145103,nan,nan,nan,nan
1,350,1,1,1.0,1.0,0.39936315556406043,0.0,5,1,0,3,8,4,nan,nan,nan,nan,nan,nan,nan,nan,nan,nan,nan,nan,0.0,nan,nan,nan,nan,nan,nan,nan,nan,nan,nan,nan,nan,nan,nan,nan,nan,nan,nan,492.64648633670004,1015.7919915201492,nan,1016.1913546757132,nan,nan,nan,nan
1,351,0,0,0.0,1.0,0.5192132413940271,1.0,1,3,2,4,6,5,1.0,1.0,1.0,1.0,1.0,1.0,0.0,1.0,1.0,1.0,0.0,0.0,3.0,8.0,3.0,2.0,4.0,1.0,7.0,6.0,2.0,1.0,3.0,4.0,5.0,10.894369009984075,3.598975882981904,2.5363143590511754,4.623406784172403,6.48703403773834,10.078778209761367,492.64648633670004,1016.7921121151885,1017.6005236618657,1017.3113253565825,1029.5436735073308,1030.5469640698138,1018.6089904028631,1029.535345037235
1,352,1,1,1.0,1.0,0.5267363190941978,0.0,3,0,6,1,2,4,nan,nan,nan,nan,nan,nan,nan,nan,nan,nan,nan,nan,0.0,nan,nan,nan,nan,nan,nan,nan,nan,nan,nan,nan,nan,nan,nan,nan,nan,nan,nan,492.64648633670004,1030.7521883152804,nan,1031.2789246343746,nan,nan,nan,nan
1,353,1,1,1.0,1.0,0.42255959690373857,0.0,5,8,4,6,1,2,nan,nan,nan,nan,nan,nan,nan,nan,nan,nan,nan,nan,0.0,nan,nan,nan,nan,nan,nan,nan,nan,nan,nan,nan,nan,nan,nan,nan,nan,nan,nan,492.64648633670004,1031.7523282967595,nan,1032.1748878936633,nan,nan,nan,nan
1,354,1,1,1.0,1.0,0.3824353754607728,0.0,8,4,1,3,6,0,nan,nan,nan,nan,nan,nan,nan,nan,nan,nan,nan,nan,0.0,nan,nan,nan,nan,nan,nan,nan,nan,nan,nan,nan,nan,nan,nan,nan,nan,nan,nan,492.64648633670004,1032.752443760095,nan,1033.1348791355558,nan,nan,nan,nan
1,355,1,1,1.0,1.0,0.46195397603150923,0.0,6,5,2,0,7,1,nan,nan,nan,nan,nan,nan,nan,nan,nan,nan,nan,nan,0.0,nan,nan,nan,nan,nan,nan,nan,nan,nan,nan,nan,nan,nan,nan,nan,nan,nan,nan,492.64648633670004,1033.7608859829488,nan,1034.2228399589803,nan,nan,nan,nan
1,356,1,1,1.0,1.0,0.42978361030691303,0.0,8,7,6,5,2,3,nan,nan,nan,nan,nan,nan,nan,nan,nan,nan,nan,nan,0.0,nan,nan,nan,nan,nan,nan,nan,nan,nan,nan,nan,nan,nan,nan,nan,nan,nan,nan,492.64648633670004,1034.761028815381,nan,1035.190812425688,nan,nan,nan,nan
1,357,1,1,1.0,1.0,0.3656641123088775,0.0,1,6,3,2,8,4,nan,nan,nan,nan,nan,nan,nan,nan,nan,nan,nan,nan,0.0,nan,nan,nan,nan,nan,nan,nan,nan,nan,nan,nan,nan,nan,nan,nan,nan,nan,nan,492.64648633670004,1035.7611183350964,nan,1036.1267824474053,nan,nan,nan,nan
1,358,1,1,1.0,1.0,0.357468211237574,0.0,0,2,6,1,4,5,nan,nan,nan,nan,nan,nan,nan,nan,nan,nan,nan,nan,0.0,nan,nan,nan,nan,nan,nan,nan,nan,nan,nan,nan,nan,nan,nan,nan,nan,nan,nan,492.64648633670004,1036.7612802688527,nan,1037.1187484800903,nan,nan,nan,nan
1,359,1,1,1.0,1.0,0.35732281296805013,0.0,6,0,3,4,1,2,nan,nan,nan,nan,nan,nan,nan,nan,nan,nan,nan,nan,0.0,nan,nan,nan,nan,nan,nan,nan,nan,nan,nan,nan,nan,nan,nan,nan,nan,nan,nan,492.64648633670004,1037.7614054254082,nan,1038.1187282383762,nan,nan,nan,nan
1,360,1,1,1.0,1.0,0.46918198076309636,0.0,3,8,7,5,4,6,nan,nan,nan,nan,nan,nan,nan,nan,nan,nan,nan,nan,0.0,nan,nan,nan,nan,nan,nan,nan,nan,nan,nan,nan,nan,nan,nan,nan,nan,nan,nan,492.64648633670004,1038.7615151868522,nan,1039.2306971676153,nan,nan,nan,nan
1,361,1,1,nan,nan,nan,0.0,8,4,1,6,3,7,nan,nan,nan,nan,nan,nan,nan,nan,nan,nan,nan,nan,0.0,nan,nan,nan,nan,nan,nan,nan,nan,nan,nan,nan,nan,nan,nan,nan,nan,nan,nan,492.64648633670004,1039.7616605851217,nan,nan,nan,nan,nan,nan
1,362,0,0,0.0,1.0,0.5488368565711426,1.0,2,1,8,3,4,6,1.0,1.0,1.0,1.0,1.0,1.0,1.0,1.0,1.0,1.0,1.0,0.0,5.0,2.0,1.0,8.0,3.0,4.0,5.0,5.0,4.0,1.0,2.0,3.0,6.0,7.77171729899419,5.715927411481971,2.7824779115762794,4.028392861568136,4.845212419750169,8.779586481599836,492.64648633670004,1040.7617880224425,1041.570182178344,1041.3106248790136,1051.4047380450647,1052.4019438323594,1042.5869574328099,1051.3964098600554
1,363,1,1,1.0,1.0,0.5613844424369745,0.0,5,7,0,1,2,3,nan,nan,nan,nan,nan,nan,nan,nan,nan,nan,nan,nan,0.0,nan,nan,nan,nan,nan,nan,nan,nan,nan,nan,nan,nan,nan,nan,nan,nan,nan,nan,492.64648633670004,1052.6049132642365,nan,1053.1662977066735,nan,nan,nan,nan
1,364,1,1,1.0,1.0,0.32088686103816144,0.0,7,5,3,6,1,2,nan,nan,nan,nan,nan,nan,nan,nan,nan,nan,nan,nan,0.0,nan,nan,nan,nan,nan,nan,nan,nan,nan,nan,nan,nan,nan,nan,nan,nan,nan,nan,492.64648633670004,1053.6133717374905,nan,1053.9342585985287,nan,nan,nan,nan
1,365,1,1,1.0,1.0,0.28071445861132815,0.0,5,4,2,8,0,7,nan,nan,nan,nan,nan,nan,nan,nan,nan,nan,nan,nan,0.0,nan,nan,nan,nan,nan,nan,nan,nan,nan,nan,nan,nan,nan,nan,nan,nan,nan,nan,492.64648633670004,1054.6135228376515,nan,1054.8942372962629,nan,nan,nan,nan
1,366,1,1,1.0,1.0,0.26426791826088447,0.0,1,3,4,6,5,0,nan,nan,nan,nan,nan,nan,nan,nan,nan,nan,nan,nan,0.0,nan,nan,nan,nan,nan,nan,nan,nan,nan,nan,nan,nan,nan,nan,nan,nan,nan,nan,492.64648633670004,1055.6219604990038,nan,1055.8862284172646,nan,nan,nan,nan
1,367,1,1,1.0,1.0,0.2800824037549319,0.0,3,0,2,5,8,1,nan,nan,nan,nan,nan,nan,nan,nan,nan,nan,nan,nan,0.0,nan,nan,nan,nan,nan,nan,nan,nan,nan,nan,nan,nan,nan,nan,nan,nan,nan,nan,492.64648633670004,1056.622109318414,nan,1056.902191722169,nan,nan,nan,nan
1,368,1,1,1.0,1.0,0.23194445672561415,0.0,5,2,1,6,0,4,nan,nan,nan,nan,nan,nan,nan,nan,nan,nan,nan,nan,0.0,nan,nan,nan,nan,nan,nan,nan,nan,nan,nan,nan,nan,nan,nan,nan,nan,nan,nan,492.64648633670004,1057.6222093866236,nan,1057.8541538433492,nan,nan,nan,nan
1,369,1,1,1.0,1.0,0.21578329613839742,0.0,2,6,4,7,3,8,nan,nan,nan,nan,nan,nan,nan,nan,nan,nan,nan,nan,0.0,nan,nan,nan,nan,nan,nan,nan,nan,nan,nan,nan,nan,nan,nan,nan,nan,nan,nan,492.64648633670004,1058.6223499382904,nan,1058.8381332344288,nan,nan,nan,nan
1,370,0,0,0.0,1.0,0.44762682933651377,0.0,5,2,0,6,7,1,nan,nan,nan,nan,nan,nan,nan,nan,nan,nan,nan,nan,0.0,nan,nan,nan,nan,nan,nan,nan,nan,nan,nan,nan,nan,nan,nan,nan,nan,nan,nan,492.64648633670004,1059.6224748097593,nan,1060.0701016390958,nan,nan,nan,nan
1,371,1,1,1.0,1.0,0.5434670987888239,0.0,1,4,2,5,6,3,nan,nan,nan,nan,nan,nan,nan,nan,nan,nan,nan,nan,0.0,nan,nan,nan,nan,nan,nan,nan,nan,nan,nan,nan,nan,nan,nan,nan,nan,nan,nan,492.64648633670004,1060.622600821589,nan,1061.1660679203778,nan,nan,nan,nan
1,372,1,1,1.0,1.0,0.3833083352801623,0.0,2,3,8,1,5,4,nan,nan,nan,nan,nan,nan,nan,nan,nan,nan,nan,nan,0.0,nan,nan,nan,nan,nan,nan,nan,nan,nan,nan,nan,nan,nan,nan,nan,nan,nan,nan,492.64648633670004,1061.6227239824802,nan,1062.0060323177604,nan,nan,nan,nan
1,373,1,1,1.0,1.0,0.31895705533679575,0.0,8,0,2,7,4,5,nan,nan,nan,nan,nan,nan,nan,nan,nan,nan,nan,nan,0.0,nan,nan,nan,nan,nan,nan,nan,nan,nan,nan,nan,nan,nan,nan,nan,nan,nan,nan,492.64648633670004,1062.631178749507,nan,1062.9501358048437,nan,nan,nan,nan
1,374,1,1,1.0,1.0,0.24640502770489547,0.0,6,8,5,3,7,1,nan,nan,nan,nan,nan,nan,nan,nan,nan,nan,nan,nan,0.0,nan,nan,nan,nan,nan,nan,nan,nan,nan,nan,nan,nan,nan,nan,nan,nan,nan,nan,492.64648633670004,1063.639634656909,nan,1063.886039684614,nan,nan,nan,nan
1,375,1,1,1.0,1.0,0.3018545122031355,0.0,3,4,1,5,0,8,nan,nan,nan,nan,nan,nan,nan,nan,nan,nan,nan,nan,0.0,nan,nan,nan,nan,nan,nan,nan,nan,nan,nan,nan,nan,nan,nan,nan,nan,nan,nan,492.64648633670004,1064.648114512267,nan,1064.9499690244702,nan,nan,nan,nan
1,376,1,1,1.0,1.0,0.29369082681660075,0.0,5,3,0,1,2,7,nan,nan,nan,nan,nan,nan,nan,nan,nan,nan,nan,nan,0.0,nan,nan,nan,nan,nan,nan,nan,nan,nan,nan,nan,nan,nan,nan,nan,nan,nan,nan,492.64648633670004,1065.6482305457903,nan,1065.9419213726069,nan,nan,nan,nan
1,377,1,1,1.0,1.0,0.3575819640100235,0.0,6,1,2,8,7,3,nan,nan,nan,nan,nan,nan,nan,nan,nan,nan,nan,nan,0.0,nan,nan,nan,nan,nan,nan,nan,nan,nan,nan,nan,nan,nan,nan,nan,nan,nan,nan,492.64648633670004,1066.6483454389236,nan,1067.0059274029336,nan,nan,nan,nan
1,378,1,1,1.0,1.0,0.30107734417833854,0.0,7,3,6,5,2,4,nan,nan,nan,nan,nan,nan,nan,nan,nan,nan,nan,nan,0.0,nan,nan,nan,nan,nan,nan,nan,nan,nan,nan,nan,nan,nan,nan,nan,nan,nan,nan,492.64648633670004,1067.6568050525675,nan,1067.9578823967458,nan,nan,nan,nan
1,379,1,1,1.0,1.0,0.29258209372346755,0.0,4,7,5,8,6,3,nan,nan,nan,nan,nan,nan,nan,nan,nan,nan,nan,nan,0.0,nan,nan,nan,nan,nan,nan,nan,nan,nan,nan,nan,nan,nan,nan,nan,nan,nan,nan,492.64648633670004,1068.665264666197,nan,1068.9578467599204,nan,nan,nan,nan
1,380,1,1,1.0,1.0,0.3244208943651756,0.0,7,1,3,6,5,8,nan,nan,nan,nan,nan,nan,nan,nan,nan,nan,nan,nan,0.0,nan,nan,nan,nan,nan,nan,nan,nan,nan,nan,nan,nan,nan,nan,nan,nan,nan,nan,492.64648633670004,1069.6653980904957,nan,1069.989818984861,nan,nan,nan,nan
1,381,1,1,1.0,1.0,0.3082603039656533,0.0,1,0,8,5,2,6,nan,nan,nan,nan,nan,nan,nan,nan,nan,nan,nan,nan,0.0,nan,nan,nan,nan,nan,nan,nan,nan,nan,nan,nan,nan,nan,nan,nan,nan,nan,nan,492.64648633670004,1070.6655278085673,nan,1070.973788112533,nan,nan,nan,nan
1,382,0,0,1.0,0.0,0.283788634245866,0.0,7,2,3,4,6,5,nan,nan,nan,nan,nan,nan,nan,nan,nan,nan,nan,nan,0.0,nan,nan,nan,nan,nan,nan,nan,nan,nan,nan,nan,nan,nan,nan,nan,nan,nan,nan,492.64648633670004,1071.67396119349,nan,1071.9577498277358,nan,nan,nan,nan
