block,trial,freq_trials,correct_response,actual_response,acc,rts,probe_trials,fast_rt_trigger,slow_rt_trigger,rt_triggered,rts_runningavg,rts_runningstd,rts_runningfastthresh,rts_runningslowthresh,rts_runningstd,rts_trailingavg,trials_colorind0,trials_colorind1,trials_colorind2,trials_colorind3,trials_colorind4,trials_colorind5,wholereport_resp0,wholereport_resp1,wholereport_resp2,wholereport_resp3,wholereport_resp4,wholereport_resp5,wholereport_respacc0,wholereport_respacc1,wholereport_respacc2,wholereport_respacc3,wholereport_respacc4,wholereport_respacc5,wholereport_respacc_total,wholereport_respcolorind0,wholereport_respcolorind1,wholereport_respcolorind2,wholereport_respcolorind3,wholereport_respcolorind4,wholereport_respcolorind5,wholereport_resporder0,wholereport_resporder1,wholereport_resporder2,wholereport_resporder3,wholereport_resporder4,wholereport_resporder5,wholereport_rts0,wholereport_rts1,wholereport_rts2,wholereport_rts3,wholereport_rts4,wholereport_rts5,time_blockstart,time_encarray_offset,time_encarray_onset,time_response,time_iti_offset,time_iti_onset,time_memprobe_offset,time_memprobe_onset
1,1,1,1,1.0,1.0,0.47042625027825125,0,nan,nan,nan,nan,nan,nan,nan,nan,nan,2,6,4,7,8,3,nan,nan,nan,nan,nan,nan,nan,nan,nan,nan,nan,nan,0.0,nan,nan,nan,nan,nan,nan,nan,nan,nan,nan,nan,nan,nan,nan,nan,nan,nan,nan,25.312523110595066,1110.6117270933173,nan,1111.0821533435956,nan,nan,nan,nan
1,2,1,1,1.0,1.0,0.2936081129300874,0,nan,nan,nan,nan,nan,nan,nan,nan,nan,3,7,1,2,8,0,nan,nan,nan,nan,nan,nan,nan,nan,nan,nan,nan,nan,0.0,nan,nan,nan,nan,nan,nan,nan,nan,nan,nan,nan,nan,nan,nan,nan,nan,nan,nan,25.312523110595066,1111.6285366549855,nan,1111.9221447679156,nan,nan,nan,nan
1,3,1,1,1.0,1.0,0.31679328266181983,0,nan,nan,nan,nan,nan,nan,nan,nan,nan,2,4,5,8,1,3,nan,nan,nan,nan,nan,nan,nan,nan,nan,nan,nan,nan,0.0,nan,nan,nan,nan,nan,nan,nan,nan,nan,nan,nan,nan,nan,nan,nan,nan,nan,nan,25.312523110595066,1112.6453157113574,nan,1112.9621089940192,nan,nan,nan,nan
1,4,1,1,1.0,1.0,0.25996561170904897,0,nan,nan,nan,nan,nan,nan,nan,nan,nan,0,7,1,5,2,8,nan,nan,nan,nan,nan,nan,nan,nan,nan,nan,nan,nan,0.0,nan,nan,nan,nan,nan,nan,nan,nan,nan,nan,nan,nan,nan,nan,nan,nan,nan,nan,25.312523110595066,1113.6621090225235,nan,1113.9220746342326,nan,nan,nan,nan
1,5,1,1,1.0,1.0,0.37915581281413324,0,nan,nan,nan,nan,nan,nan,nan,nan,nan,1,2,3,7,0,5,nan,nan,nan,nan,nan,nan,nan,nan,nan,nan,nan,nan,0.0,nan,nan,nan,nan,nan,nan,nan,nan,nan,nan,nan,nan,nan,nan,nan,nan,nan,nan,25.312523110595066,1114.67890033804,nan,1115.058056150854,nan,nan,nan,nan
1,6,1,1,1.0,1.0,0.3383471315319184,0,nan,nan,nan,nan,nan,nan,nan,nan,nan,4,8,7,1,5,6,nan,nan,nan,nan,nan,nan,nan,nan,nan,nan,nan,nan,0.0,nan,nan,nan,nan,nan,nan,nan,nan,nan,nan,nan,nan,nan,nan,nan,nan,nan,nan,25.312523110595066,1115.6956882324012,nan,1116.034035363933,nan,nan,nan,nan
1,7,1,1,1.0,1.0,0.3695261158281937,0,nan,nan,nan,nan,nan,nan,nan,nan,nan,0,5,2,6,4,3,nan,nan,nan,nan,nan,nan,nan,nan,nan,nan,nan,nan,0.0,nan,nan,nan,nan,nan,nan,nan,nan,nan,nan,nan,nan,nan,nan,nan,nan,nan,nan,25.312523110595066,1116.7124789777154,nan,1117.0820050935436,nan,nan,nan,nan
1,8,1,1,1.0,1.0,0.28870103578083217,0,nan,nan,nan,nan,nan,nan,nan,nan,nan,4,0,5,1,8,7,nan,nan,nan,nan,nan,nan,nan,nan,nan,nan,nan,nan,0.0,nan,nan,nan,nan,nan,nan,nan,nan,nan,nan,nan,nan,nan,nan,nan,nan,nan,nan,25.312523110595066,1117.7292782759177,nan,1118.0179793116986,nan,nan,nan,nan
1,9,1,1,1.0,1.0,0.2878976344654802,0,nan,nan,nan,nan,nan,nan,nan,nan,nan,6,5,0,8,7,3,nan,nan,nan,nan,nan,nan,nan,nan,nan,nan,nan,nan,0.0,nan,nan,nan,nan,nan,nan,nan,nan,nan,nan,nan,nan,nan,nan,nan,nan,nan,nan,25.312523110595066,1118.746066170279,nan,1119.0339638047444,nan,nan,nan,nan
1,10,1,1,1.0,1.0,0.35075224077445455,0,nan,nan,nan,nan,nan,nan,nan,nan,nan,7,0,2,5,6,1,nan,nan,nan,nan,nan,nan,nan,nan,nan,nan,nan,nan,0.0,nan,nan,nan,nan,nan,nan,nan,nan,nan,nan,nan,nan,nan,nan,nan,nan,nan,nan,25.312523110595066,1119.7711899947317,nan,1120.1219422355061,nan,nan,nan,nan
1,11,1,1,1.0,1.0,0.26193933322792873,0,nan,nan,nan,nan,nan,nan,nan,nan,nan,0,1,5,2,8,3,nan,nan,nan,nan,nan,nan,nan,nan,nan,nan,nan,nan,0.0,nan,nan,nan,nan,nan,nan,nan,nan,nan,nan,nan,nan,nan,nan,nan,nan,nan,nan,25.312523110595066,1120.7879841612012,nan,1121.049923494429,nan,nan,nan,nan
1,12,1,1,1.0,1.0,0.20511479830020107,0,nan,nan,nan,nan,nan,nan,nan,nan,nan,4,0,2,5,1,8,nan,nan,nan,nan,nan,nan,nan,nan,nan,nan,nan,nan,0.0,nan,nan,nan,nan,nan,nan,nan,nan,nan,nan,nan,nan,nan,nan,nan,nan,nan,nan,25.312523110595066,1121.8047749065154,nan,1122.0098897048156,nan,nan,nan,nan
1,13,1,1,1.0,1.0,0.2602900512574706,0,nan,nan,nan,nan,nan,nan,nan,nan,nan,2,1,6,3,0,5,nan,nan,nan,nan,nan,nan,nan,nan,nan,nan,nan,nan,0.0,nan,nan,nan,nan,nan,nan,nan,nan,nan,nan,nan,nan,nan,nan,nan,nan,nan,nan,25.312523110595066,1122.8215793364507,nan,1123.0818693877081,nan,nan,nan,nan
1,14,1,1,1.0,1.0,0.2514606195036322,0,nan,nan,nan,nan,nan,nan,nan,nan,nan,3,6,2,0,1,7,nan,nan,nan,nan,nan,nan,nan,nan,nan,nan,nan,nan,0.0,nan,nan,nan,nan,nan,nan,nan,nan,nan,nan,nan,nan,nan,nan,nan,nan,nan,nan,25.312523110595066,1123.8383749284258,nan,1124.0898355479294,nan,nan,nan,nan
1,15,1,1,1.0,1.0,0.27466260993969627,0,nan,nan,nan,nan,nan,nan,nan,nan,nan,0,5,7,6,3,1,nan,nan,nan,nan,nan,nan,nan,nan,nan,nan,nan,nan,0.0,nan,nan,nan,nan,nan,nan,nan,nan,nan,nan,nan,nan,nan,nan,nan,nan,nan,nan,25.312523110595066,1124.8551653886389,nan,1125.1298279985785,nan,nan,nan,nan
1,16,1,1,1.0,1.0,0.22584642947185785,0,nan,nan,nan,nan,nan,nan,nan,nan,nan,2,0,3,5,7,4,nan,nan,nan,nan,nan,nan,nan,nan,nan,nan,nan,nan,0.0,nan,nan,nan,nan,nan,nan,nan,nan,nan,nan,nan,nan,nan,nan,nan,nan,nan,nan,25.312523110595066,1125.8719512873213,nan,1126.0977977167931,nan,nan,nan,nan
1,17,1,1,1.0,1.0,0.25670924197766,0,nan,nan,nan,nan,nan,nan,nan,nan,nan,6,3,8,2,0,1,nan,nan,nan,nan,nan,nan,nan,nan,nan,nan,nan,nan,0.0,nan,nan,nan,nan,nan,nan,nan,nan,nan,nan,nan,nan,nan,nan,nan,nan,nan,nan,25.312523110595066,1126.8970728309941,nan,1127.1537820729718,nan,nan,nan,nan
1,18,1,1,1.0,1.0,0.23188505374128,0,nan,nan,nan,nan,nan,nan,nan,nan,nan,2,8,6,0,5,4,nan,nan,nan,nan,nan,nan,nan,nan,nan,nan,nan,nan,0.0,nan,nan,nan,nan,nan,nan,nan,nan,nan,nan,nan,nan,nan,nan,nan,nan,nan,nan,25.312523110595066,1127.9138778311317,nan,1128.145762884873,nan,nan,nan,nan
1,19,1,1,1.0,1.0,0.22305875807069242,0,nan,nan,nan,nan,nan,nan,nan,nan,nan,8,7,0,6,2,1,nan,nan,nan,nan,nan,nan,nan,nan,nan,nan,nan,nan,0.0,nan,nan,nan,nan,nan,nan,nan,nan,nan,nan,nan,nan,nan,nan,nan,nan,nan,nan,25.312523110595066,1128.9306625894096,nan,1129.1537213474803,nan,nan,nan,nan
1,20,1,1,1.0,1.0,0.21423844940727577,0,nan,nan,nan,nan,nan,nan,nan,nan,nan,6,1,5,0,4,8,nan,nan,nan,nan,nan,nan,nan,nan,nan,nan,nan,nan,0.0,nan,nan,nan,nan,nan,nan,nan,nan,nan,nan,nan,nan,nan,nan,nan,nan,nan,nan,25.312523110595066,1129.9474712958036,nan,1130.1617097452108,nan,nan,nan,nan
1,21,1,1,1.0,1.0,0.19739610166288912,0,nan,nan,nan,nan,nan,nan,nan,nan,nan,2,7,8,3,6,1,nan,nan,nan,nan,nan,nan,nan,nan,nan,nan,nan,nan,0.0,nan,nan,nan,nan,nan,nan,nan,nan,nan,nan,nan,nan,nan,nan,nan,nan,nan,nan,25.312523110595066,1130.9642911209376,nan,1131.1616872226004,nan,nan,nan,nan
1,22,1,1,1.0,1.0,0.24462771700927988,0,nan,nan,nan,nan,nan,nan,nan,nan,nan,4,2,1,8,0,5,nan,nan,nan,nan,nan,nan,nan,nan,nan,nan,nan,nan,0.0,nan,nan,nan,nan,nan,nan,nan,nan,nan,nan,nan,nan,nan,nan,nan,nan,nan,nan,25.312523110595066,1131.981033970078,nan,1132.2256616870873,nan,nan,nan,nan
1,23,1,1,1.0,1.0,0.21179004258010536,0,nan,nan,nan,nan,nan,nan,nan,nan,nan,6,3,8,4,5,1,nan,nan,nan,nan,nan,nan,nan,nan,nan,nan,nan,nan,0.0,nan,nan,nan,nan,nan,nan,nan,nan,nan,nan,nan,nan,nan,nan,nan,nan,nan,nan,25.312523110595066,1132.9978384000133,nan,1133.2096284425934,nan,nan,nan,nan
1,24,0,0,1.0,0.0,0.21899528079666197,0,nan,nan,0.0,nan,nan,nan,nan,nan,nan,0,2,3,1,6,7,nan,nan,nan,nan,nan,nan,nan,nan,nan,nan,nan,nan,0.0,nan,nan,nan,nan,nan,nan,nan,nan,nan,nan,nan,nan,nan,nan,nan,nan,nan,nan,25.312523110595066,1134.014614320331,nan,1134.2336096011277,nan,nan,nan,nan
1,25,1,1,1.0,1.0,0.5461640723515302,0,nan,nan,nan,nan,nan,nan,nan,nan,nan,8,1,7,2,0,4,nan,nan,nan,nan,nan,nan,nan,nan,nan,nan,nan,nan,0.0,nan,nan,nan,nan,nan,nan,nan,nan,nan,nan,nan,nan,nan,nan,nan,nan,nan,nan,25.312523110595066,1135.0314090570027,nan,1135.5775731293543,nan,nan,nan,nan
1,26,0,0,0.0,1.0,0.5213612662919331,0,nan,nan,nan,nan,nan,nan,nan,nan,nan,2,5,6,4,7,8,nan,nan,nan,nan,nan,nan,nan,nan,nan,nan,nan,nan,0.0,nan,nan,nan,nan,nan,nan,nan,nan,nan,nan,nan,nan,nan,nan,nan,nan,nan,nan,25.312523110595066,1136.0482017979957,nan,1136.5695630642876,nan,nan,nan,nan
1,27,1,1,1.0,1.0,0.44053818195243366,0,nan,nan,nan,nan,nan,nan,nan,nan,nan,0,7,8,1,3,5,nan,nan,nan,nan,nan,nan,nan,nan,nan,nan,nan,nan,0.0,nan,nan,nan,nan,nan,nan,nan,nan,nan,nan,nan,nan,nan,nan,nan,nan,nan,nan,25.312523110595066,1137.0650045173534,nan,1137.5055426993058,nan,nan,nan,nan
1,28,1,1,1.0,1.0,0.29572865905356593,0,nan,nan,nan,nan,nan,nan,nan,nan,nan,2,6,3,0,1,8,nan,nan,nan,nan,nan,nan,nan,nan,nan,nan,nan,nan,0.0,nan,nan,nan,nan,nan,nan,nan,nan,nan,nan,nan,nan,nan,nan,nan,nan,nan,nan,25.312523110595066,1138.081788420357,nan,1138.3775170794106,nan,nan,nan,nan
1,29,1,1,1.0,1.0,0.2709124535031151,0,nan,nan,nan,nan,nan,nan,nan,nan,nan,1,2,0,6,4,7,nan,nan,nan,nan,nan,nan,nan,nan,nan,nan,nan,nan,0.0,nan,nan,nan,nan,nan,nan,nan,nan,nan,nan,nan,nan,nan,nan,nan,nan,nan,nan,25.312523110595066,1139.0985777401947,nan,1139.3694901936979,nan,nan,nan,nan
1,30,1,1,1.0,1.0,0.23774834381765686,0,nan,nan,nan,nan,nan,nan,nan,nan,nan,4,1,6,5,7,0,nan,nan,nan,nan,nan,nan,nan,nan,nan,nan,nan,nan,0.0,nan,nan,nan,nan,nan,nan,nan,nan,nan,nan,nan,nan,nan,nan,nan,nan,nan,nan,25.312523110595066,1140.12371097281,nan,1140.3614593166276,nan,nan,nan,nan
1,31,1,1,1.0,1.0,0.33292517048539594,0,nan,nan,nan,nan,nan,nan,nan,nan,nan,5,7,8,0,1,3,nan,nan,nan,nan,nan,nan,nan,nan,nan,nan,nan,nan,0.0,nan,nan,nan,nan,nan,nan,nan,nan,nan,nan,nan,nan,nan,nan,nan,nan,nan,nan,25.312523110595066,1141.1405185388285,nan,1141.4734437093139,nan,nan,nan,nan
1,32,1,1,1.0,1.0,0.3401381063449662,1,nan,nan,nan,nan,nan,nan,nan,nan,nan,7,3,1,2,5,8,1.0,1.0,1.0,1.0,1.0,1.0,1.0,0.0,0.0,0.0,0.0,0.0,1.0,7.0,5.0,6.0,8.0,2.0,6.0,2.0,4.0,5.0,6.0,1.0,3.0,6.048363732668804,8.278844972344814,10.167782010830706,11.566836973681347,2.897452864330262,6.624867180769797,25.312523110595066,1142.157293888944,1142.9657014922414,1142.497431995289,1155.5922561578627,1156.6029598125606,1143.9825107688084,1155.5839299210638
1,33,1,1,1.0,1.0,0.7193443811847828,0,nan,nan,nan,nan,nan,nan,nan,nan,nan,8,0,5,6,4,7,nan,nan,nan,nan,nan,nan,nan,nan,nan,nan,nan,nan,0.0,nan,nan,nan,nan,nan,nan,nan,nan,nan,nan,nan,nan,nan,nan,nan,nan,nan,nan,25.312523110595066,1156.8257454483828,nan,1157.5450898295676,nan,nan,nan,nan
1,34,1,1,1.0,1.0,0.5341666507301852,0,nan,nan,nan,nan,nan,nan,nan,nan,nan,2,1,7,4,0,8,nan,nan,nan,nan,nan,nan,nan,nan,nan,nan,nan,nan,0.0,nan,nan,nan,nan,nan,nan,nan,nan,nan,nan,nan,nan,nan,nan,nan,nan,nan,nan,25.312523110595066,1157.850884097832,nan,1158.3850507485622,nan,nan,nan,nan
1,35,1,1,1.0,1.0,0.45333501350251026,1,nan,nan,nan,nan,nan,nan,nan,nan,nan,3,7,4,5,2,1,1.0,1.0,1.0,1.0,1.0,1.0,0.0,0.0,1.0,0.0,0.0,0.0,1.0,6.0,4.0,4.0,4.0,6.0,8.0,5.0,6.0,2.0,1.0,3.0,4.0,7.888495709426934,8.664532625989523,3.1861060039082076,2.394541033456335,5.6581652856839355,6.896301075350493,25.312523110595066,1158.8676947998756,1159.676094705559,1159.3210298133781,1169.3856249324745,1170.3930539712892,1160.6845600693778,1169.377291853365
1,36,1,1,nan,nan,nan,0,nan,nan,nan,nan,nan,nan,nan,nan,nan,2,1,3,8,4,7,nan,nan,nan,nan,nan,nan,nan,nan,nan,nan,nan,nan,0.0,nan,nan,nan,nan,nan,nan,nan,nan,nan,nan,nan,nan,nan,nan,nan,nan,nan,nan,25.312523110595066,1170.6191572725074,nan,nan,nan,nan,nan,nan
1,37,1,1,1.0,1.0,0.004855474719079211,0,nan,nan,nan,nan,nan,nan,nan,nan,nan,4,8,5,0,6,1,nan,nan,nan,nan,nan,nan,nan,nan,nan,nan,nan,nan,0.0,nan,nan,nan,nan,nan,nan,nan,nan,nan,nan,nan,nan,nan,nan,nan,nan,nan,nan,25.312523110595066,1171.635908674536,nan,1171.6407641492551,nan,nan,nan,nan
1,38,0,0,0.0,1.0,0.5319927916279994,0,nan,nan,nan,nan,nan,nan,nan,nan,nan,6,5,3,4,7,8,nan,nan,nan,nan,nan,nan,nan,nan,nan,nan,nan,nan,0.0,nan,nan,nan,nan,nan,nan,nan,nan,nan,nan,nan,nan,nan,nan,nan,nan,nan,nan,25.312523110595066,1172.6527170958288,nan,1173.1847098874568,nan,nan,nan,nan
1,39,1,1,1.0,1.0,0.4028456029773224,0,nan,nan,nan,nan,nan,nan,nan,nan,nan,7,3,2,5,4,0,nan,nan,nan,nan,nan,nan,nan,nan,nan,nan,nan,nan,0.0,nan,nan,nan,nan,nan,nan,nan,nan,nan,nan,nan,nan,nan,nan,nan,nan,nan,nan,25.312523110595066,1173.6778514688485,nan,1174.0806970718259,nan,nan,nan,nan
1,40,1,1,1.0,1.0,0.43403342526289634,0,nan,nan,nan,nan,nan,nan,nan,nan,nan,8,7,3,1,2,6,nan,nan,nan,nan,nan,nan,nan,nan,nan,nan,nan,nan,0.0,nan,nan,nan,nan,nan,nan,nan,nan,nan,nan,nan,nan,nan,nan,nan,nan,nan,nan,25.312523110595066,1174.6946225425054,nan,1175.1286559677683,nan,nan,nan,nan
1,41,1,1,1.0,1.0,0.3368780303862877,0,nan,nan,nan,nan,nan,nan,nan,nan,nan,3,8,4,6,7,1,nan,nan,nan,nan,nan,nan,nan,nan,nan,nan,nan,nan,0.0,nan,nan,nan,nan,nan,nan,nan,nan,nan,nan,nan,nan,nan,nan,nan,nan,nan,nan,25.312523110595066,1175.7197683193663,nan,1176.0566463497526,nan,nan,nan,nan
1,42,1,1,1.0,1.0,0.28806498597259633,0,nan,nan,nan,nan,nan,nan,nan,nan,nan,7,3,8,2,4,0,nan,nan,nan,nan,nan,nan,nan,nan,nan,nan,nan,nan,0.0,nan,nan,nan,nan,nan,nan,nan,nan,nan,nan,nan,nan,nan,nan,nan,nan,nan,nan,25.312523110595066,1176.7365479459404,nan,1177.024612931913,nan,nan,nan,nan
1,43,1,1,1.0,1.0,0.3192425448214635,0,nan,nan,nan,nan,nan,nan,nan,nan,nan,2,5,1,8,0,6,nan,nan,nan,nan,nan,nan,nan,nan,nan,nan,nan,nan,0.0,nan,nan,nan,nan,nan,nan,nan,nan,nan,nan,nan,nan,nan,nan,nan,nan,nan,nan,25.312523110595066,1177.7533566523052,nan,1178.0725991971267,nan,nan,nan,nan
1,44,1,1,1.0,1.0,0.2784253106219694,0,nan,nan,nan,nan,nan,nan,nan,nan,nan,8,7,3,5,6,0,nan,nan,nan,nan,nan,nan,nan,nan,nan,nan,nan,nan,0.0,nan,nan,nan,nan,nan,nan,nan,nan,nan,nan,nan,nan,nan,nan,nan,nan,nan,nan,25.312523110595066,1178.7701471125474,nan,1179.0485724231694,nan,nan,nan,nan
1,45,1,1,1.0,1.0,0.2856162940734066,0,nan,nan,nan,nan,nan,nan,nan,nan,nan,6,1,0,3,7,5,nan,nan,nan,nan,nan,nan,nan,nan,nan,nan,nan,nan,0.0,nan,nan,nan,nan,nan,nan,nan,nan,nan,nan,nan,nan,nan,nan,nan,nan,nan,nan,25.312523110595066,1179.7869350068795,nan,1180.072551300953,nan,nan,nan,nan
1,46,1,1,1.0,1.0,0.3247899482084904,0,nan,nan,nan,nan,nan,nan,nan,nan,nan,1,3,5,2,0,7,nan,nan,nan,nan,nan,nan,nan,nan,nan,nan,nan,nan,0.0,nan,nan,nan,nan,nan,nan,nan,nan,nan,nan,nan,nan,nan,nan,nan,nan,nan,nan,25.312523110595066,1180.80372945845,nan,1181.1285194066586,nan,nan,nan,nan
1,47,1,1,1.0,1.0,0.32397571322508156,0,nan,nan,nan,nan,nan,nan,nan,nan,nan,0,5,1,7,3,6,nan,nan,nan,nan,nan,nan,nan,nan,nan,nan,nan,nan,0.0,nan,nan,nan,nan,nan,nan,nan,nan,nan,nan,nan,nan,nan,nan,nan,nan,nan,nan,25.312523110595066,1181.82052162927,nan,1182.144497342495,nan,nan,nan,nan
1,48,0,0,nan,nan,nan,0,nan,nan,nan,nan,nan,nan,nan,nan,nan,7,3,5,6,1,2,nan,nan,nan,nan,nan,nan,nan,nan,nan,nan,nan,nan,0.0,nan,nan,nan,nan,nan,nan,nan,nan,nan,nan,nan,nan,nan,nan,nan,nan,nan,nan,25.312523110595066,1182.8373186466924,nan,nan,nan,nan,nan,nan
1,49,1,1,nan,nan,nan,0,nan,nan,nan,nan,nan,nan,nan,nan,nan,5,1,4,8,0,7,nan,nan,nan,nan,nan,nan,nan,nan,nan,nan,nan,nan,0.0,nan,nan,nan,nan,nan,nan,nan,nan,nan,nan,nan,nan,nan,nan,nan,nan,nan,nan,25.312523110595066,1183.8541054006782,nan,nan,nan,nan,nan,nan
1,50,0,0,0.0,1.0,0.4894920639053453,0,nan,nan,nan,nan,nan,nan,nan,nan,nan,4,7,6,5,2,0,nan,nan,nan,nan,nan,nan,nan,nan,nan,nan,nan,nan,0.0,nan,nan,nan,nan,nan,nan,nan,nan,nan,nan,nan,nan,nan,nan,nan,nan,nan,nan,25.312523110595066,1184.8708932950394,nan,1185.3603853589448,nan,nan,nan,nan
1,51,1,1,1.0,1.0,0.344695940555539,0,nan,nan,nan,nan,nan,nan,nan,nan,nan,1,8,0,2,6,3,nan,nan,nan,nan,nan,nan,nan,nan,nan,nan,nan,nan,0.0,nan,nan,nan,nan,nan,nan,nan,nan,nan,nan,nan,nan,nan,nan,nan,nan,nan,nan,25.312523110595066,1185.8877020014043,nan,1186.2323979419598,nan,nan,nan,nan
1,52,1,1,1.0,1.0,0.42393531507696025,0,nan,nan,nan,nan,nan,nan,nan,nan,nan,2,4,3,1,7,5,nan,nan,nan,nan,nan,nan,nan,nan,nan,nan,nan,nan,0.0,nan,nan,nan,nan,nan,nan,nan,nan,nan,nan,nan,nan,nan,nan,nan,nan,nan,nan,25.312523110595066,1186.904486189509,nan,1187.328421504586,nan,nan,nan,nan
1,53,1,1,1.0,1.0,0.3190857418521773,0,nan,nan,nan,nan,nan,nan,nan,nan,nan,4,5,2,8,0,7,nan,nan,nan,nan,nan,nan,nan,nan,nan,nan,nan,nan,0.0,nan,nan,nan,nan,nan,nan,nan,nan,nan,nan,nan,nan,nan,nan,nan,nan,nan,nan,25.312523110595066,1187.921276079549,nan,1188.2403618214012,nan,nan,nan,nan
1,54,1,1,1.0,1.0,0.24626416963292286,0,nan,nan,nan,nan,nan,nan,nan,nan,nan,3,2,8,4,1,5,nan,nan,nan,nan,nan,nan,nan,nan,nan,nan,nan,nan,0.0,nan,nan,nan,nan,nan,nan,nan,nan,nan,nan,nan,nan,nan,nan,nan,nan,nan,nan,25.312523110595066,1188.938074522477,nan,1189.18433869211,nan,nan,nan,nan
1,55,1,1,1.0,1.0,0.2854352579161059,0,nan,nan,nan,nan,nan,nan,nan,nan,nan,0,8,2,6,7,1,nan,nan,nan,nan,nan,nan,nan,nan,nan,nan,nan,nan,0.0,nan,nan,nan,nan,nan,nan,nan,nan,nan,nan,nan,nan,nan,nan,nan,nan,nan,nan,25.312523110595066,1189.9548692591197,nan,1190.2403045170358,nan,nan,nan,nan
1,56,1,1,1.0,1.0,0.22861899077543058,0,nan,nan,nan,nan,nan,nan,nan,nan,nan,1,2,6,3,0,7,nan,nan,nan,nan,nan,nan,nan,nan,nan,nan,nan,nan,0.0,nan,nan,nan,nan,nan,nan,nan,nan,nan,nan,nan,nan,nan,nan,nan,nan,nan,nan,25.312523110595066,1190.9716742592573,nan,1191.2002932500327,nan,nan,nan,nan
1,57,1,1,1.0,1.0,0.29948252174654044,0,nan,nan,nan,nan,nan,nan,nan,nan,nan,4,5,1,2,7,8,nan,nan,nan,nan,nan,nan,nan,nan,nan,nan,nan,nan,0.0,nan,nan,nan,nan,nan,nan,nan,nan,nan,nan,nan,nan,nan,nan,nan,nan,nan,nan,25.312523110595066,1191.996787535143,nan,1192.2962700568896,nan,nan,nan,nan
1,58,1,1,1.0,1.0,0.2906587919278536,0,nan,nan,nan,nan,nan,nan,nan,nan,nan,6,3,2,0,8,1,nan,nan,nan,nan,nan,nan,nan,nan,nan,nan,nan,nan,0.0,nan,nan,nan,nan,nan,nan,nan,nan,nan,nan,nan,nan,nan,nan,nan,nan,nan,nan,25.312523110595066,1193.0135834121902,nan,1193.304242204118,nan,nan,nan,nan
1,59,1,1,1.0,1.0,0.41783824606682174,0,nan,nan,nan,nan,nan,nan,nan,nan,nan,2,0,1,3,5,6,nan,nan,nan,nan,nan,nan,nan,nan,nan,nan,nan,nan,0.0,nan,nan,nan,nan,nan,nan,nan,nan,nan,nan,nan,nan,nan,nan,nan,nan,nan,nan,25.312523110595066,1194.0303790041362,nan,1194.448217250203,nan,nan,nan,nan
1,60,1,1,1.0,1.0,0.2810379329312127,0,nan,nan,nan,nan,nan,nan,nan,nan,nan,0,8,4,5,6,1,nan,nan,nan,nan,nan,nan,nan,nan,nan,nan,nan,nan,0.0,nan,nan,nan,nan,nan,nan,nan,nan,nan,nan,nan,nan,nan,nan,nan,nan,nan,nan,25.312523110595066,1195.0471566350316,nan,1195.3281945679628,nan,nan,nan,nan
1,61,1,1,1.0,1.0,0.3838815687049646,0,nan,nan,nan,nan,nan,nan,nan,nan,nan,1,3,0,6,5,7,nan,nan,nan,nan,nan,nan,nan,nan,nan,nan,nan,nan,0.0,nan,nan,nan,nan,nan,nan,nan,nan,nan,nan,nan,nan,nan,nan,nan,nan,nan,nan,25.312523110595066,1196.0722844508418,nan,1196.4561660195468,nan,nan,nan,nan
1,62,1,1,1.0,1.0,0.3430783042567782,0,nan,nan,nan,nan,nan,nan,nan,nan,nan,3,2,6,5,0,8,nan,nan,nan,nan,nan,nan,nan,nan,nan,nan,nan,nan,0.0,nan,nan,nan,nan,nan,nan,nan,nan,nan,nan,nan,nan,nan,nan,nan,nan,nan,nan,25.312523110595066,1197.0890712047985,nan,1197.4321495090553,nan,nan,nan,nan
1,63,1,1,1.0,1.0,0.30223455611849204,1,nan,nan,nan,nan,nan,nan,nan,nan,nan,4,7,0,1,3,2,1.0,1.0,1.0,1.0,1.0,1.0,0.0,1.0,1.0,0.0,0.0,0.0,2.0,6.0,7.0,0.0,5.0,4.0,8.0,6.0,1.0,2.0,3.0,4.0,5.0,7.040806400531437,1.7477559359103907,2.7206210423319135,3.5773336484562606,4.993448202410946,6.0415821475035045,25.312523110595066,1198.1058821919432,1198.914288084663,1198.4081167480617,1207.0236168055271,1208.0194161969412,1199.9394216023793,1207.0152842965908
1,64,0,0,0.0,1.0,0.6154111074283719,0,nan,nan,nan,nan,nan,nan,nan,nan,nan,7,1,4,3,6,8,nan,nan,nan,nan,nan,nan,nan,nan,nan,nan,nan,nan,0.0,nan,nan,nan,nan,nan,nan,nan,nan,nan,nan,nan,nan,nan,nan,nan,nan,nan,nan,25.312523110595066,1208.2404618901783,nan,1208.8558729976066,nan,nan,nan,nan
1,65,1,1,1.0,1.0,0.4381852823717054,0,nan,nan,nan,nan,nan,nan,nan,nan,nan,5,2,6,0,4,3,nan,nan,nan,nan,nan,nan,nan,nan,nan,nan,nan,nan,0.0,nan,nan,nan,nan,nan,nan,nan,nan,nan,nan,nan,nan,nan,nan,nan,nan,nan,nan,25.312523110595066,1209.2656760901446,nan,1209.7038613725163,nan,nan,nan,nan
1,66,1,1,1.0,1.0,0.4374548656924162,0,nan,nan,nan,nan,nan,nan,nan,nan,nan,3,0,1,4,7,8,nan,nan,nan,nan,nan,nan,nan,nan,nan,nan,nan,nan,0.0,nan,nan,nan,nan,nan,nan,nan,nan,nan,nan,nan,nan,nan,nan,nan,nan,nan,nan,25.312523110595066,1210.2823872936133,nan,1210.7198421593057,nan,nan,nan,nan
1,67,1,1,1.0,1.0,0.3006368765782099,0,nan,nan,nan,nan,nan,nan,nan,nan,nan,4,1,2,7,6,3,nan,nan,nan,nan,nan,nan,nan,nan,nan,nan,nan,nan,0.0,nan,nan,nan,nan,nan,nan,nan,nan,nan,nan,nan,nan,nan,nan,nan,nan,nan,nan,25.312523110595066,1211.2991751879745,nan,1211.5998120645527,nan,nan,nan,nan
1,68,1,1,1.0,1.0,0.2918430818535853,0,nan,nan,nan,nan,nan,nan,nan,nan,nan,7,5,4,1,3,0,nan,nan,nan,nan,nan,nan,nan,nan,nan,nan,nan,nan,0.0,nan,nan,nan,nan,nan,nan,nan,nan,nan,nan,nan,nan,nan,nan,nan,nan,nan,nan,25.312523110595066,1212.315945121256,nan,1212.6077882031095,nan,nan,nan,nan
1,69,1,1,1.0,1.0,0.2910077497945167,0,nan,nan,nan,nan,nan,nan,nan,nan,nan,5,4,0,6,7,3,nan,nan,nan,nan,nan,nan,nan,nan,nan,nan,nan,nan,0.0,nan,nan,nan,nan,nan,nan,nan,nan,nan,nan,nan,nan,nan,nan,nan,nan,nan,nan,25.312523110595066,1213.3327643761877,nan,1213.6237721259822,nan,nan,nan,nan
1,70,1,1,1.0,1.0,0.3541933528613299,0,nan,nan,nan,nan,nan,nan,nan,nan,nan,6,3,8,0,5,2,nan,nan,nan,nan,nan,nan,nan,nan,nan,nan,nan,nan,0.0,nan,nan,nan,nan,nan,nan,nan,nan,nan,nan,nan,nan,nan,nan,nan,nan,nan,nan,25.312523110595066,1214.349563389318,nan,1214.7037567421794,nan,nan,nan,nan
1,71,1,1,1.0,1.0,0.4413817818276584,0,nan,nan,nan,nan,nan,nan,nan,nan,nan,1,5,2,6,3,4,nan,nan,nan,nan,nan,nan,nan,nan,nan,nan,nan,nan,0.0,nan,nan,nan,nan,nan,nan,nan,nan,nan,nan,nan,nan,nan,nan,nan,nan,nan,nan,25.312523110595066,1215.3663338928018,nan,1215.8077156746294,nan,nan,nan,nan
1,72,1,1,1.0,1.0,0.320567102113273,0,nan,nan,nan,nan,nan,nan,nan,nan,nan,4,2,1,7,5,6,nan,nan,nan,nan,nan,nan,nan,nan,nan,nan,nan,nan,0.0,nan,nan,nan,nan,nan,nan,nan,nan,nan,nan,nan,nan,nan,nan,nan,nan,nan,nan,25.312523110595066,1216.3831263486936,nan,1216.703693450807,nan,nan,nan,nan
1,73,1,1,1.0,1.0,0.3193876588193234,0,nan,nan,nan,nan,nan,nan,nan,nan,nan,5,1,7,4,6,3,nan,nan,nan,nan,nan,nan,nan,nan,nan,nan,nan,nan,0.0,nan,nan,nan,nan,nan,nan,nan,nan,nan,nan,nan,nan,nan,nan,nan,nan,nan,nan,25.312523110595066,1217.4082855250745,nan,1217.7276731838938,nan,nan,nan,nan
1,74,1,1,1.0,1.0,0.2781963783199899,0,nan,nan,nan,nan,nan,nan,nan,nan,nan,6,2,4,3,0,1,nan,nan,nan,nan,nan,nan,nan,nan,nan,nan,nan,nan,0.0,nan,nan,nan,nan,nan,nan,nan,nan,nan,nan,nan,nan,nan,nan,nan,nan,nan,nan,25.312523110595066,1218.4334543947189,nan,1218.7116507730389,nan,nan,nan,nan
1,75,0,0,1.0,0.0,0.27746168518206105,0,nan,nan,0.0,nan,nan,nan,nan,nan,nan,7,8,1,4,2,0,nan,nan,nan,nan,nan,nan,nan,nan,nan,nan,nan,nan,0.0,nan,nan,nan,nan,nan,nan,nan,nan,nan,nan,nan,nan,nan,nan,nan,nan,nan,nan,25.312523110595066,1219.4501653130865,nan,1219.7276269982685,nan,nan,nan,nan
1,76,1,1,1.0,1.0,0.5406275026325602,1,nan,nan,nan,nan,nan,nan,nan,nan,nan,4,6,8,0,3,7,1.0,1.0,1.0,1.0,1.0,1.0,0.0,0.0,1.0,0.0,0.0,0.0,1.0,3.0,4.0,8.0,6.0,5.0,2.0,6.0,2.0,1.0,3.0,4.0,5.0,7.6715662362694275,2.728309233672917,1.8984301743621472,4.561472031899029,5.648631381045561,6.567485567706171,25.312523110595066,1220.4669589093537,1221.2753762059147,1221.0075864119863,1230.0014471487084,1230.9976998432248,1222.2921772147238,1229.993124618166
1,77,1,1,1.0,1.0,0.6047125844634138,0,nan,nan,nan,nan,nan,nan,nan,nan,nan,1,0,2,3,7,6,nan,nan,nan,nan,nan,nan,nan,nan,nan,nan,nan,nan,0.0,nan,nan,nan,nan,nan,nan,nan,nan,nan,nan,nan,nan,nan,nan,nan,nan,nan,nan,25.312523110595066,1231.2266318697366,nan,1231.8313444542,nan,nan,nan,nan
1,78,1,1,1.0,1.0,0.579588474938646,0,nan,nan,nan,nan,nan,nan,nan,nan,nan,0,6,4,7,3,2,nan,nan,nan,nan,nan,nan,nan,nan,nan,nan,nan,nan,0.0,nan,nan,nan,nan,nan,nan,nan,nan,nan,nan,nan,nan,nan,nan,nan,nan,nan,nan,25.312523110595066,1232.2517482816475,nan,1232.831336756586,nan,nan,nan,nan
1,79,1,1,1.0,1.0,0.3867579050711356,0,nan,nan,nan,nan,nan,nan,nan,nan,nan,3,2,5,6,8,4,nan,nan,nan,nan,nan,nan,nan,nan,nan,nan,nan,nan,0.0,nan,nan,nan,nan,nan,nan,nan,nan,nan,nan,nan,nan,nan,nan,nan,nan,nan,nan,25.312523110595066,1233.2685527116118,nan,1233.655310616683,nan,nan,nan,nan
1,80,1,1,1.0,1.0,0.2659543441259302,0,nan,nan,nan,nan,nan,nan,nan,nan,nan,4,1,0,7,3,6,nan,nan,nan,nan,nan,nan,nan,nan,nan,nan,nan,nan,0.0,nan,nan,nan,nan,nan,nan,nan,nan,nan,nan,nan,nan,nan,nan,nan,nan,nan,nan,25.312523110595066,1234.2853357593121,nan,1234.551290103438,nan,nan,nan,nan
1,81,1,1,1.0,1.0,0.29713218804681674,0,0.0,0.0,0.0,0.340978925615283,0.11591048603288796,0.22506843958239503,0.45688941164817093,0.11591048603288796,0.3166148124146275,8,2,3,4,7,0,nan,nan,nan,nan,nan,nan,nan,nan,nan,nan,nan,nan,0.0,nan,nan,nan,nan,nan,nan,nan,nan,nan,nan,nan,nan,nan,nan,nan,nan,nan,nan,25.312523110595066,1235.3021353426157,nan,1235.5992675306625,nan,nan,nan,nan
1,82,0,0,nan,nan,nan,0,0.0,0.0,0.0,0.3404167879541488,0.11527066408920517,0.22514612386494365,0.455687452043354,0.11527066408920517,0.2815432660863735,3,7,0,8,5,2,nan,nan,nan,nan,nan,nan,nan,nan,nan,nan,nan,nan,0.0,nan,nan,nan,nan,nan,nan,nan,nan,nan,nan,nan,nan,nan,nan,nan,nan,nan,nan,25.312523110595066,1236.3189269432332,nan,nan,nan,nan,nan,nan
1,83,1,1,0.0,0.0,0.015504676004638895,0,0.0,0.0,0.0,0.3404167879541488,0.11527066408920517,0.22514612386494365,0.455687452043354,0.11527066408920517,0.15631843202572782,2,4,7,5,6,1,nan,nan,nan,nan,nan,nan,nan,nan,nan,nan,nan,nan,0.0,nan,nan,nan,nan,nan,nan,nan,nan,nan,nan,nan,nan,nan,nan,nan,nan,nan,nan,25.312523110595066,1237.3357251010602,nan,1237.3512297770649,nan,nan,nan,nan
1,84,1,1,1.0,1.0,0.4306775569857564,0,0.0,0.0,0.0,0.33630397641048415,0.12016038892031174,0.21614358749017243,0.4564643653307959,0.12016038892031174,0.22309111649519764,8,3,0,4,7,5,nan,nan,nan,nan,nan,nan,nan,nan,nan,nan,nan,nan,0.0,nan,nan,nan,nan,nan,nan,nan,nan,nan,nan,nan,nan,nan,nan,nan,nan,nan,nan,25.312523110595066,1238.3525167016487,nan,1238.7831942586345,nan,nan,nan,nan
1,85,1,1,1.0,1.0,0.3094865501334425,0,0.0,0.0,0.0,0.337483646167675,0.11986649079416861,0.2176171553735064,0.4573501369618436,0.11986649079416861,0.2518895943746126,0,8,1,5,6,2,nan,nan,nan,nan,nan,nan,nan,nan,nan,nan,nan,nan,0.0,nan,nan,nan,nan,nan,nan,nan,nan,nan,nan,nan,nan,nan,nan,nan,nan,nan,nan,25.312523110595066,1239.377682435268,nan,1239.6871689854015,nan,nan,nan,nan
1,86,1,1,1.0,1.0,0.35673185013001785,0,0.0,0.0,0.0,0.33713800300675856,0.11916438535015303,0.21797361765660553,0.4563023883569116,0.11916438535015303,0.36563198574973893,8,1,6,4,2,5,nan,nan,nan,nan,nan,nan,nan,nan,nan,nan,nan,nan,0.0,nan,nan,nan,nan,nan,nan,nan,nan,nan,nan,nan,nan,nan,nan,nan,nan,nan,nan,25.312523110595066,1240.394426424784,nan,1240.751158274914,nan,nan,nan,nan
1,87,0,0,0.0,1.0,0.6118759135424625,0,0.0,0.0,0.0,0.3373769523619203,0.1184550674571203,0.21892188490479997,0.4558320198190406,0.1184550674571203,0.4260314379353076,2,6,3,1,8,0,nan,nan,nan,nan,nan,nan,nan,nan,nan,nan,nan,nan,0.0,nan,nan,nan,nan,nan,nan,nan,nan,nan,nan,nan,nan,nan,nan,nan,nan,nan,nan,25.312523110595066,1241.4112334206002,nan,1242.0231093341426,nan,nan,nan,nan
1,88,1,1,1.0,1.0,0.4750972677138634,0,0.0,0.0,0.0,0.34068416876168583,0.12148842469216589,0.21919574406951994,0.46217259345385175,0.12148842469216589,0.4812350104621146,0,8,6,4,2,3,nan,nan,nan,nan,nan,nan,nan,nan,nan,nan,nan,nan,0.0,nan,nan,nan,nan,nan,nan,nan,nan,nan,nan,nan,nan,nan,nan,nan,nan,nan,nan,25.312523110595066,1242.4280227404379,nan,1242.9031200081517,nan,nan,nan,nan
1,89,1,1,1.0,1.0,0.5862888076808304,0,0.0,0.0,0.0,0.3422843247015927,0.12163984201950422,0.22064448268208847,0.46392416672109693,0.12163984201950422,0.5577539963123854,1,2,4,7,6,0,nan,nan,nan,nan,nan,nan,nan,nan,nan,nan,nan,nan,0.0,nan,nan,nan,nan,nan,nan,nan,nan,nan,nan,nan,nan,nan,nan,nan,nan,nan,nan,25.312523110595066,1243.4447798443725,nan,1244.0310686520534,nan,nan,nan,nan
1,90,1,1,1.0,1.0,0.4411177826987114,0,0.0,1.0,0.0,0.34515496567781906,0.123751308320369,0.22140365735745005,0.4689062739981881,0.123751308320369,0.5008346193644684,4,6,5,2,3,1,nan,nan,nan,nan,nan,nan,nan,nan,nan,nan,nan,nan,0.0,nan,nan,nan,nan,nan,nan,nan,nan,nan,nan,nan,nan,nan,nan,nan,nan,nan,nan,25.312523110595066,1244.469935599598,nan,1244.9110533822968,nan,nan,nan,nan
1,91,1,1,1.0,1.0,0.6559711847512517,1,0.0,0.0,1.0,0.3462708123873643,0.1234590893021045,0.2228117230852598,0.4697299016894688,0.1234590893021045,0.5611259250435978,0,1,4,6,7,8,1.0,1.0,1.0,1.0,1.0,1.0,1.0,0.0,1.0,0.0,0.0,0.0,2.0,0.0,5.0,4.0,7.0,6.0,5.0,4.0,6.0,1.0,2.0,3.0,5.0,5.035409813077422,7.667446309962543,1.260762740887003,2.9726210639928468,3.8281485248880927,6.459415832039667,25.312523110595066,1245.4950554326933,1246.3034707336046,1246.1510266174446,1255.0212160097726,1256.0195462008705,1247.311935527192,1255.0128840710095
1,92,1,1,1.0,1.0,0.5767409332911484,0,0.0,0.0,0.0,0.3498305867823515,0.1271091700246493,0.2227214167577022,0.47693975680700085,0.1271091700246493,0.5579433002470372,6,8,5,3,1,2,nan,nan,nan,nan,nan,nan,nan,nan,nan,nan,nan,nan,0.0,nan,nan,nan,nan,nan,nan,nan,nan,nan,nan,nan,nan,nan,nan,nan,nan,nan,nan,25.312523110595066,1256.2380305891274,nan,1256.8147715224186,nan,nan,nan,nan
1,93,1,1,nan,nan,nan,0,0.0,0.0,0.0,0.3524091134472242,0.12865297257689334,0.22375614087033086,0.48106208602411754,0.12865297257689334,0.6163560590212,5,4,2,1,3,8,nan,nan,nan,nan,nan,nan,nan,nan,nan,nan,nan,nan,0.0,nan,nan,nan,nan,nan,nan,nan,nan,nan,nan,nan,nan,nan,nan,nan,nan,nan,nan,25.312523110595066,1257.2548478484096,nan,nan,nan,nan,nan,nan
1,94,1,1,nan,nan,nan,0,0.0,0.0,0.0,0.3524091134472242,0.12865297257689334,0.22375614087033086,0.48106208602411754,0.12865297257689334,0.5767409332911484,3,0,1,8,5,7,nan,nan,nan,nan,nan,nan,nan,nan,nan,nan,nan,nan,0.0,nan,nan,nan,nan,nan,nan,nan,nan,nan,nan,nan,nan,nan,nan,nan,nan,nan,nan,25.312523110595066,1258.2716371682473,nan,nan,nan,nan,nan,nan
1,95,1,1,1.0,1.0,0.4542775418085512,0,0.0,0.0,0.0,0.3524091134472242,0.12865297257689334,0.22375614087033086,0.48106208602411754,0.12865297257689334,0.4542775418085512,0,3,5,7,1,2,nan,nan,nan,nan,nan,nan,nan,nan,nan,nan,nan,nan,0.0,nan,nan,nan,nan,nan,nan,nan,nan,nan,nan,nan,nan,nan,nan,nan,nan,nan,nan,25.312523110595066,1259.2884224967274,nan,1259.742700038536,nan,nan,nan,nan
1,96,1,1,1.0,1.0,0.31747038636240177,0,0.0,0.0,0.0,0.35355370252993573,0.12837796488522737,0.22517573764470836,0.48193166741516313,0.12837796488522737,0.3858739640854765,1,7,2,3,8,4,nan,nan,nan,nan,nan,nan,nan,nan,nan,nan,nan,nan,0.0,nan,nan,nan,nan,nan,nan,nan,nan,nan,nan,nan,nan,nan,nan,nan,nan,nan,nan,25.312523110595066,1260.3052246458828,nan,1260.6226950322452,nan,nan,nan,nan
1,97,1,1,1.0,1.0,0.38830284180585295,0,0.0,0.0,0.0,0.35315277679474094,0.1277187798439321,0.22543399695080885,0.48087155663867304,0.1277187798439321,0.38668358999226865,5,0,4,6,1,8,nan,nan,nan,nan,nan,nan,nan,nan,nan,nan,nan,nan,0.0,nan,nan,nan,nan,nan,nan,nan,nan,nan,nan,nan,nan,nan,nan,nan,nan,nan,nan,25.312523110595066,1261.330352461693,nan,1261.718655303499,nan,nan,nan,nan
1,98,1,1,1.0,1.0,0.37920114310691133,0,0.0,0.0,0.0,0.35353904124541247,0.1270679386976776,0.22647110254773486,0.4806069799430901,0.1270679386976776,0.3616581237583887,1,8,3,2,4,0,nan,nan,nan,nan,nan,nan,nan,nan,nan,nan,nan,nan,0.0,nan,nan,nan,nan,nan,nan,nan,nan,nan,nan,nan,nan,nan,nan,nan,nan,nan,nan,25.312523110595066,1262.3554395087122,nan,1262.734640651819,nan,nan,nan,nan
1,99,0,0,0.0,1.0,0.32236007260507904,0,0.0,0.0,0.0,0.3538179771352114,0.12640347496575666,0.22741450216945475,0.48022145210096806,0.12640347496575666,0.36328801917261444,4,2,1,6,7,5,nan,nan,nan,nan,nan,nan,nan,nan,nan,nan,nan,nan,0.0,nan,nan,nan,nan,nan,nan,nan,nan,nan,nan,nan,nan,nan,nan,nan,nan,nan,nan,25.312523110595066,1263.3722604742215,nan,1263.6946205468266,nan,nan,nan,nan
1,100,1,1,1.0,1.0,0.37753732124110684,0,0.0,0.0,0.0,0.353479720097253,0.12576390662000847,0.2277158134772445,0.47924362671726145,0.12576390662000847,0.3596995123176991,6,8,5,0,2,3,nan,nan,nan,nan,nan,nan,nan,nan,nan,nan,nan,nan,0.0,nan,nan,nan,nan,nan,nan,nan,nan,nan,nan,nan,nan,nan,nan,nan,nan,nan,nan,25.312523110595066,1264.3890563512687,nan,1264.7665936725098,nan,nan,nan,nan
1,101,1,1,1.0,1.0,0.5927009080769494,0,0.0,0.0,0.0,0.35373565202431523,0.12511750691483658,0.22861814510947864,0.4788531589391518,0.12511750691483658,0.4308661006410451,1,7,3,8,4,6,nan,nan,nan,nan,nan,nan,nan,nan,nan,nan,nan,nan,0.0,nan,nan,nan,nan,nan,nan,nan,nan,nan,nan,nan,nan,nan,nan,nan,nan,nan,nan,25.312523110595066,1265.4058545090957,nan,1265.9985554171726,nan,nan,nan,nan
1,102,0,0,0.0,1.0,0.6878840068529826,0,0.0,0.0,0.0,0.35625107577223775,0.1268242051095764,0.22942687066266135,0.4830752808818142,0.1268242051095764,0.5527074120570129,4,6,0,5,2,3,nan,nan,nan,nan,nan,nan,nan,nan,nan,nan,nan,nan,0.0,nan,nan,nan,nan,nan,nan,nan,nan,nan,nan,nan,nan,nan,nan,nan,nan,nan,nan,25.312523110595066,1266.422642973659,nan,1267.110526980512,nan,nan,nan,nan
1,103,1,1,1.0,1.0,0.47108168664271943,0,0.0,0.0,0.0,0.35970558547099546,0.1305776739211654,0.22912791154983006,0.4902832593921609,0.1305776739211654,0.5838888671908838,3,1,8,6,4,0,nan,nan,nan,nan,nan,nan,nan,nan,nan,nan,nan,nan,0.0,nan,nan,nan,nan,nan,nan,nan,nan,nan,nan,nan,nan,nan,nan,nan,nan,nan,nan,25.312523110595066,1267.4394334338722,nan,1267.910515120515,nan,nan,nan,nan
1,104,1,1,1.0,1.0,0.4382537054771092,0,0.0,0.0,0.0,0.36085379269956996,0.13038908981410136,0.2304647028854686,0.4912428825136713,0.13038908981410136,0.5324064663242704,2,4,7,8,6,3,nan,nan,nan,nan,nan,nan,nan,nan,nan,nan,nan,nan,0.0,nan,nan,nan,nan,nan,nan,nan,nan,nan,nan,nan,nan,nan,nan,nan,nan,nan,nan,25.312523110595066,1268.4562412849627,nan,1268.8944949904399,nan,nan,nan,nan
1,105,1,1,1.0,1.0,0.5014484316343442,0,0.0,0.0,0.0,0.36164358772791216,0.1299551392949637,0.23168844843294847,0.4915987270228759,0.1299551392949637,0.4702612745847243,3,0,4,1,5,7,nan,nan,nan,nan,nan,nan,nan,nan,nan,nan,nan,nan,0.0,nan,nan,nan,nan,nan,nan,nan,nan,nan,nan,nan,nan,nan,nan,nan,nan,nan,nan,25.312523110595066,1269.4730140692263,nan,1269.9744625008607,nan,nan,nan,nan
1,106,1,1,1.0,1.0,0.4286416844406631,0,0.0,0.0,0.0,0.3630557578683812,0.1300506937916258,0.2330050640767554,0.493106451660007,0.1300506937916258,0.4561146071840388,4,8,1,0,6,3,nan,nan,nan,nan,nan,nan,nan,nan,nan,nan,nan,nan,0.0,nan,nan,nan,nan,nan,nan,nan,nan,nan,nan,nan,nan,nan,nan,nan,nan,nan,nan,25.312523110595066,1270.4898070953204,nan,1270.918448779761,nan,nan,nan,nan
1,107,1,1,1.0,1.0,0.4918110370344948,0,0.0,0.0,0.0,0.363711617134104,0.12956325139634847,0.23414836573775552,0.49327486853045244,0.12956325139634847,0.47396705103650066,8,3,7,1,2,0,nan,nan,nan,nan,nan,nan,nan,nan,nan,nan,nan,nan,0.0,nan,nan,nan,nan,nan,nan,nan,nan,nan,nan,nan,nan,nan,nan,nan,nan,nan,nan,25.312523110595066,1271.5066103848803,nan,1271.9984214219148,nan,nan,nan,nan
1,108,1,1,1.0,1.0,0.3869988114456646,0,0.0,0.0,0.0,0.3649799282222267,0.12954263041977496,0.23543729780245173,0.4945225586420017,0.12954263041977496,0.43581717764027417,1,2,4,7,0,5,nan,nan,nan,nan,nan,nan,nan,nan,nan,nan,nan,nan,0.0,nan,nan,nan,nan,nan,nan,nan,nan,nan,nan,nan,nan,nan,nan,nan,nan,nan,nan,25.312523110595066,1272.5233988494147,nan,1272.9103976608603,nan,nan,nan,nan
1,109,1,1,1.0,1.0,0.3622108304116409,0,0.0,0.0,0.0,0.36519579962637805,0.12892430826464224,0.2362714913617358,0.4941201078910203,0.12892430826464224,0.4136735596306001,6,0,1,8,4,7,nan,nan,nan,nan,nan,nan,nan,nan,nan,nan,nan,nan,0.0,nan,nan,nan,nan,nan,nan,nan,nan,nan,nan,nan,nan,nan,nan,nan,nan,nan,nan,25.312523110595066,1273.5401636509632,nan,1273.9023744813749,nan,nan,nan,nan
1,110,1,1,1.0,1.0,0.3564376307767816,0,0.0,0.0,0.0,0.3651668193427398,0.12829726950043935,0.23686954984230046,0.49346408884317916,0.12829726950043935,0.36854909087802906,1,7,2,4,3,0,nan,nan,nan,nan,nan,nan,nan,nan,nan,nan,nan,nan,0.0,nan,nan,nan,nan,nan,nan,nan,nan,nan,nan,nan,nan,nan,nan,nan,nan,nan,nan,25.312523110595066,1274.5699217154179,nan,1274.9263593461947,nan,nan,nan,nan
1,111,1,1,1.0,1.0,0.2798804420453962,0,0.0,0.0,0.0,0.3650828848372979,0.1276818074153154,0.2374010774219825,0.4927646922526133,0.1276818074153154,0.33284296774460626,5,3,4,0,2,7,nan,nan,nan,nan,nan,nan,nan,nan,nan,nan,nan,nan,0.0,nan,nan,nan,nan,nan,nan,nan,nan,nan,nan,nan,nan,nan,nan,nan,nan,nan,nan,25.312523110595066,1275.5904477921722,nan,1275.8703282342176,nan,nan,nan,nan
1,112,1,1,1.0,1.0,0.2870711403666064,0,0.0,0.0,0.0,0.3642714330011846,0.12734150891888724,0.23692992408229735,0.4916129419200718,0.12734150891888724,0.3077964043962614,0,1,7,2,5,4,nan,nan,nan,nan,nan,nan,nan,nan,nan,nan,nan,nan,0.0,nan,nan,nan,nan,nan,nan,nan,nan,nan,nan,nan,nan,nan,nan,nan,nan,nan,nan,25.312523110595066,1276.6072302696994,nan,1276.894301410066,nan,nan,nan,nan
1,113,0,0,1.0,0.0,0.262261491996469,0,0.0,0.0,0.0,0.36354312835368857,0.1269589500101312,0.23658417834355738,0.49050207836381976,0.1269589500101312,0.2764043581361572,4,0,5,8,2,6,nan,nan,nan,nan,nan,nan,nan,nan,nan,nan,nan,nan,0.0,nan,nan,nan,nan,nan,nan,nan,nan,nan,nan,nan,nan,nan,nan,nan,nan,nan,nan,25.312523110595066,1277.6240241510968,nan,1277.8862856430933,nan,nan,nan,nan
1,114,1,1,1.0,1.0,0.33344775199657306,0,0.0,0.0,0.0,0.36259657100455567,0.12673952424697926,0.2358570467575764,0.48933609525153493,0.12673952424697926,0.29426012811988284,2,4,8,3,6,1,nan,nan,nan,nan,nan,nan,nan,nan,nan,nan,nan,nan,0.0,nan,nan,nan,nan,nan,nan,nan,nan,nan,nan,nan,nan,nan,nan,nan,nan,nan,nan,25.312523110595066,1278.6408137560065,nan,1278.974261508003,nan,nan,nan,nan
1,115,1,1,1.0,1.0,0.4206253472948447,0,0.0,0.0,0.0,0.36232667453225953,0.1261822915675475,0.23614438296471202,0.48850896609980704,0.1261822915675475,0.33877819709596224,8,5,2,1,4,7,nan,nan,nan,nan,nan,nan,nan,nan,nan,nan,nan,nan,0.0,nan,nan,nan,nan,nan,nan,nan,nan,nan,nan,nan,nan,nan,nan,nan,nan,nan,nan,25.312523110595066,1279.657610203256,nan,1280.0782355505507,nan,nan,nan,nan
1,116,1,1,1.0,1.0,0.5150988414534368,0,0.0,0.0,0.0,0.36286152474109057,0.12572506739730627,0.2371364573437843,0.48858659213839684,0.12572506739730627,0.4230573135816182,2,6,4,0,7,8,nan,nan,nan,nan,nan,nan,nan,nan,nan,nan,nan,nan,0.0,nan,nan,nan,nan,nan,nan,nan,nan,nan,nan,nan,nan,nan,nan,nan,nan,nan,nan,25.312523110595066,1280.6910782255873,nan,1281.2061770670407,nan,nan,nan,nan
1,117,1,1,1.0,1.0,0.5543229576433077,0,0.0,1.0,0.0,0.3642455003475665,0.12598361719688667,0.2382618831506798,0.49022911754445314,0.12598361719688667,0.49668238213052973,5,3,0,4,8,2,nan,nan,nan,nan,nan,nan,nan,nan,nan,nan,nan,nan,0.0,nan,nan,nan,nan,nan,nan,nan,nan,nan,nan,nan,nan,nan,nan,nan,nan,nan,nan,25.312523110595066,1281.7078655497462,nan,1282.2621885073895,nan,nan,nan,nan
1,118,1,1,1.0,1.0,0.6654931153752841,1,0.0,0.0,1.0,0.3659579098727533,0.12669427796065652,0.23926363191209676,0.4926521878334098,0.12669427796065652,0.5783049714906762,6,0,7,5,4,1,1.0,1.0,1.0,1.0,1.0,1.0,0.0,0.0,1.0,0.0,0.0,0.0,1.0,5.0,8.0,7.0,4.0,1.0,8.0,4.0,6.0,1.0,2.0,3.0,5.0,7.356927426182665,11.492261774284998,1.623395798902493,2.8524304600432515,5.878154127043672,8.460635473922594,25.312523110595066,1282.7246557248582,1283.5330690300907,1283.3901488402335,1296.084616005246,1297.0934311821766,1284.5498691835674,1296.0762763689272
1,119,1,1,1.0,1.0,0.6556992028781679,0,0.0,0.0,0.0,0.3686323313504545,0.1292364286703907,0.23939590268006378,0.4978687600208452,0.1292364286703907,0.6251717586322533,0,2,3,7,5,4,nan,nan,nan,nan,nan,nan,nan,nan,nan,nan,nan,nan,0.0,nan,nan,nan,nan,nan,nan,nan,nan,nan,nan,nan,nan,nan,nan,nan,nan,nan,nan,25.312523110595066,1297.3181226866436,nan,1297.9738218895218,nan,nan,nan,nan
1,120,1,1,1.0,1.0,0.31092970751342364,0,0.0,0.0,0.0,0.37117274614273515,0.13144224557944645,0.2397305005632887,0.5026149917221816,0.13144224557944645,0.5440406752556252,1,8,6,4,0,7,nan,nan,nan,nan,nan,nan,nan,nan,nan,nan,nan,nan,0.0,nan,nan,nan,nan,nan,nan,nan,nan,nan,nan,nan,nan,nan,nan,nan,nan,nan,nan,25.312523110595066,1298.3348792204051,nan,1298.6458089279186,nan,nan,nan,nan
1,121,1,1,1.0,1.0,0.269736716436455,0,0.0,0.0,0.0,0.3706442984354605,0.13098498680888726,0.23965931162657322,0.5016292852443478,0.13098498680888726,0.4121218756093488,3,2,5,0,7,6,nan,nan,nan,nan,nan,nan,nan,nan,nan,nan,nan,nan,0.0,nan,nan,nan,nan,nan,nan,nan,nan,nan,nan,nan,nan,nan,nan,nan,nan,nan,nan,25.312523110595066,1299.3600620597717,nan,1299.6297987762082,nan,nan,nan,nan
1,122,1,1,1.0,1.0,0.33292374503798783,0,0.0,0.0,0.0,0.3697668412006865,0.13075032329230946,0.23901651790837702,0.500517164492996,0.13075032329230946,0.3045300563292888,1,5,2,6,0,4,nan,nan,nan,nan,nan,nan,nan,nan,nan,nan,nan,nan,0.0,nan,nan,nan,nan,nan,nan,nan,nan,nan,nan,nan,nan,nan,nan,nan,nan,nan,nan,25.312523110595066,1300.3768399757391,nan,1300.7097637207771,nan,nan,nan,nan
1,123,1,1,1.0,1.0,0.2601241251977626,0,0.0,0.0,0.0,0.3694492283027322,0.13023007232600745,0.23921915597672475,0.49967930062873966,0.13023007232600745,0.2875948622240685,8,0,7,5,1,3,nan,nan,nan,nan,nan,nan,nan,nan,nan,nan,nan,nan,0.0,nan,nan,nan,nan,nan,nan,nan,nan,nan,nan,nan,nan,nan,nan,nan,nan,nan,nan,25.312523110595066,1301.3936255893495,nan,1301.6537497145473,nan,nan,nan,nan
1,124,1,1,1.0,1.0,0.2833058738033287,0,0.0,0.0,0.0,0.36851482571209143,0.13006227785448754,0.2384525478576039,0.49857710356657897,0.13006227785448754,0.29211791467969306,6,2,4,7,5,1,nan,nan,nan,nan,nan,nan,nan,nan,nan,nan,nan,nan,0.0,nan,nan,nan,nan,nan,nan,nan,nan,nan,nan,nan,nan,nan,nan,nan,nan,nan,nan,25.312523110595066,1302.4104157644615,nan,1302.6937216382648,nan,nan,nan,nan
1,125,1,1,1.0,1.0,0.3145119422406424,0,0.0,0.0,0.0,0.3677927159501528,0.1297453170635623,0.2380473988865905,0.4975380330137151,0.1297453170635623,0.2859806470805779,3,8,7,4,1,0,nan,nan,nan,nan,nan,nan,nan,nan,nan,nan,nan,nan,0.0,nan,nan,nan,nan,nan,nan,nan,nan,nan,nan,nan,nan,nan,nan,nan,nan,nan,nan,25.312523110595066,1303.4272090756567,nan,1303.7417210178974,nan,nan,nan,nan
1,126,1,1,1.0,1.0,0.24969444805174135,0,0.0,0.0,0.0,0.3673449783559552,0.12929053227026602,0.23805444608568918,0.49663551062622124,0.12929053227026602,0.28250408803190413,7,4,5,2,0,3,nan,nan,nan,nan,nan,nan,nan,nan,nan,nan,nan,nan,0.0,nan,nan,nan,nan,nan,nan,nan,nan,nan,nan,nan,nan,nan,nan,nan,nan,nan,nan,25.312523110595066,1304.443975587783,nan,1304.6936700358347,nan,nan,nan,nan
1,127,1,1,1.0,1.0,0.2087996676855255,0,0.0,0.0,0.0,0.36636455727008677,0.12919414546374589,0.23717041180634088,0.4955587027338326,0.12919414546374589,0.2576686859926364,2,6,1,3,8,7,nan,nan,nan,nan,nan,nan,nan,nan,nan,nan,nan,nan,0.0,nan,nan,nan,nan,nan,nan,nan,nan,nan,nan,nan,nan,nan,nan,nan,nan,nan,nan,25.312523110595066,1305.4608461600728,nan,1305.6696458277584,nan,nan,nan,nan
1,128,1,1,1.0,1.0,0.20803760533453897,0,1.0,0.0,0.0,0.3650623680999664,0.12944754774849257,0.23561482035147382,0.49450991584845894,0.12944754774849257,0.2221772403572686,3,8,0,4,1,5,nan,nan,nan,nan,nan,nan,nan,nan,nan,nan,nan,nan,0.0,nan,nan,nan,nan,nan,nan,nan,nan,nan,nan,nan,nan,nan,nan,nan,nan,nan,nan,25.312523110595066,1306.4775892943144,nan,1306.685626899649,nan,nan,nan,nan
1,129,1,1,1.0,1.0,0.0068414553825277835,1,0.0,0.0,1.0,0.3637752798805777,0.1296910405916573,0.2340842392889204,0.49346632047223493,0.1296910405916573,0.14122624280086407,1,7,3,6,8,2,1.0,1.0,1.0,1.0,1.0,1.0,1.0,0.0,0.0,0.0,0.0,0.0,1.0,1.0,2.0,7.0,8.0,6.0,0.0,5.0,4.0,3.0,2.0,1.0,6.0,6.745873160107294,5.315406004199758,3.474814167129807,2.756378957943525,1.8269528311211616,7.73020711960271,25.312523110595066,1307.502723952406,1308.3111369725084,1307.5095654077886,1317.0872041092662,1318.0905622583232,1309.3195946387132,1317.0788710301567
1,130,0,0,0.0,1.0,0.748938230186468,0,0.0,0.0,0.0,0.3608733788683984,0.13308037248871232,0.22779300637968605,0.4939537513571107,0.13308037248871232,0.32127243030117825,5,3,4,2,7,0,nan,nan,nan,nan,nan,nan,nan,nan,nan,nan,nan,nan,0.0,nan,nan,nan,nan,nan,nan,nan,nan,nan,nan,nan,nan,nan,nan,nan,nan,nan,nan,25.312523110595066,1318.3123939619982,nan,1319.0613321921846,nan,nan,nan,nan
1,131,1,1,1.0,1.0,0.48412199041922577,0,0.0,0.0,0.0,0.36400293412096346,0.13701181018284964,0.22699112393811383,0.5010147443038131,0.13701181018284964,0.4133005586627405,7,8,2,0,3,6,nan,nan,nan,nan,nan,nan,nan,nan,nan,nan,nan,nan,0.0,nan,nan,nan,nan,nan,nan,nan,nan,nan,nan,nan,nan,nan,nan,nan,nan,nan,nan,25.312523110595066,1319.3291844222404,nan,1319.8133064126596,nan,nan,nan,nan
1,132,1,1,1.0,1.0,0.4673201263358351,0,0.0,0.0,0.0,0.3649638865713496,0.13688156746772207,0.22808231910362753,0.5018454540390717,0.13688156746772207,0.5667934489805097,8,6,1,3,2,7,nan,nan,nan,nan,nan,nan,nan,nan,nan,nan,nan,nan,0.0,nan,nan,nan,nan,nan,nan,nan,nan,nan,nan,nan,nan,nan,nan,nan,nan,nan,nan,25.312523110595066,1320.3459797290852,nan,1320.813299855421,nan,nan,nan,nan
1,133,1,1,1.0,1.0,0.3225086077582091,0,0.0,0.0,0.0,0.36577623768059153,0.13663948886755675,0.22913674881303478,0.5024157265481483,0.13663948886755675,0.4246502415044233,7,8,5,0,1,6,nan,nan,nan,nan,nan,nan,nan,nan,nan,nan,nan,nan,0.0,nan,nan,nan,nan,nan,nan,nan,nan,nan,nan,nan,nan,nan,nan,nan,nan,nan,nan,25.312523110595066,1321.3627679085475,nan,1321.6852765163057,nan,nan,nan,nan
1,134,0,0,0.0,1.0,0.4016915332467761,0,0.0,0.0,0.0,0.3654355476812027,0.1361541922521955,0.22928135542900718,0.5015897399333982,0.1361541922521955,0.3971734224469401,2,0,8,5,3,1,nan,nan,nan,nan,nan,nan,nan,nan,nan,nan,nan,nan,0.0,nan,nan,nan,nan,nan,nan,nan,nan,nan,nan,nan,nan,nan,nan,nan,nan,nan,nan,25.312523110595066,1322.3795569432841,nan,1322.781248476531,nan,nan,nan,nan
1,135,1,1,1.0,1.0,0.3608472149062436,0,0.0,0.0,0.0,0.36571879756843373,0.13565885705287373,0.23005994051556,0.5013776546213075,0.13565885705287373,0.3616824519704096,3,4,7,8,1,0,nan,nan,nan,nan,nan,nan,nan,nan,nan,nan,nan,nan,0.0,nan,nan,nan,nan,nan,nan,nan,nan,nan,nan,nan,nan,nan,nan,nan,nan,nan,nan,25.312523110595066,1323.3963696410065,nan,1323.7572168559127,nan,nan,nan,nan
1,136,1,1,1.0,1.0,0.34404905707924627,0,0.0,0.0,0.0,0.36568103336175006,0.1351326999813548,0.23054833338039527,0.5008137333431049,0.1351326999813548,0.36886260174408864,2,0,1,5,3,4,nan,nan,nan,nan,nan,nan,nan,nan,nan,nan,nan,nan,0.0,nan,nan,nan,nan,nan,nan,nan,nan,nan,nan,nan,nan,nan,nan,nan,nan,nan,nan,25.312523110595066,1324.4131455613242,nan,1324.7571946184034,nan,nan,nan,nan
1,137,1,1,1.0,1.0,0.5592357366986107,0,0.0,0.0,0.0,0.36551463354419234,0.13462522208507757,0.23088941145911476,0.5001398556292699,0.13462522208507757,0.4213773362280335,6,8,7,0,5,1,nan,nan,nan,nan,nan,nan,nan,nan,nan,nan,nan,nan,0.0,nan,nan,nan,nan,nan,nan,nan,nan,nan,nan,nan,nan,nan,nan,nan,nan,nan,nan,25.312523110595066,1325.4299331705843,nan,1325.9891689072829,nan,nan,nan,nan
1,138,1,1,1.0,1.0,0.3104139683418907,0,0.0,0.0,0.0,0.3669934205911727,0.13516613888774667,0.231827281703426,0.5021595594789193,0.13516613888774667,0.4045662540399159,7,1,4,5,0,3,nan,nan,nan,nan,nan,nan,nan,nan,nan,nan,nan,nan,0.0,nan,nan,nan,nan,nan,nan,nan,nan,nan,nan,nan,nan,nan,nan,nan,nan,nan,nan,25.312523110595066,1326.4467353197688,nan,1326.7571492881107,nan,nan,nan,nan
1,139,1,1,1.0,1.0,0.30928042557206936,0,0.0,0.0,0.0,0.36656478837716294,0.13474251345311716,0.23182227492404578,0.50130730183028,0.13474251345311716,0.3929767102041903,1,3,5,6,7,0,nan,nan,nan,nan,nan,nan,nan,nan,nan,nan,nan,nan,0.0,nan,nan,nan,nan,nan,nan,nan,nan,nan,nan,nan,nan,nan,nan,nan,nan,nan,nan,25.312523110595066,1327.4718485956255,nan,1327.7811290211976,nan,nan,nan,nan
1,140,1,1,1.0,1.0,0.26050615424173884,0,0.0,0.0,0.0,0.3661340788823878,0.1343261868859822,0.2318078919964056,0.50046026576837,0.1343261868859822,0.2934001827185663,6,4,0,8,2,3,nan,nan,nan,nan,nan,nan,nan,nan,nan,nan,nan,nan,0.0,nan,nan,nan,nan,nan,nan,nan,nan,nan,nan,nan,nan,nan,nan,nan,nan,nan,nan,25.312523110595066,1328.4886091207445,nan,1328.7491152749863,nan,nan,nan,nan
1,141,1,1,1.0,1.0,0.36333582032239065,0,0.0,0.0,0.0,0.3653458107880546,0.13413244600699006,0.23121336478106455,0.49947825679504465,0.13413244600699006,0.31104080004539963,0,2,6,1,4,8,nan,nan,nan,nan,nan,nan,nan,nan,nan,nan,nan,nan,0.0,nan,nan,nan,nan,nan,nan,nan,nan,nan,nan,nan,nan,nan,nan,nan,nan,nan,nan,25.312523110595066,1329.5137526168255,nan,1329.877088437148,nan,nan,nan,nan
1,142,0,0,0.0,1.0,0.5464927883585915,0,0.0,0.0,0.0,0.36533092196979045,0.13363484691249247,0.23169607505729797,0.49896576888228295,0.13363484691249247,0.390111587640907,2,6,4,0,5,3,nan,nan,nan,nan,nan,nan,nan,nan,nan,nan,nan,nan,0.0,nan,nan,nan,nan,nan,nan,nan,nan,nan,nan,nan,nan,nan,nan,nan,nan,nan,nan,25.312523110595066,1330.5305661698512,nan,1331.0770589582098,nan,nan,nan,nan
1,143,1,1,1.0,1.0,0.29768014306318946,0,0.0,0.0,0.0,0.3666629945167669,0.13403920253055285,0.23262379198621408,0.5007021970473198,0.13403920253055285,0.4025029172480572,7,0,5,4,3,1,nan,nan,nan,nan,nan,nan,nan,nan,nan,nan,nan,nan,0.0,nan,nan,nan,nan,nan,nan,nan,nan,nan,nan,nan,nan,nan,nan,nan,nan,nan,nan,25.312523110595066,1331.54735577479,nan,1331.8450359178532,nan,nan,nan,nan
1,144,1,1,1.0,1.0,0.33687403905787505,0,0.0,0.0,0.0,0.3661594700536021,0.13367814495487618,0.23248132509872593,0.4998376150084783,0.13367814495487618,0.3936823234932187,0,4,1,5,6,3,nan,nan,nan,nan,nan,nan,nan,nan,nan,nan,nan,nan,0.0,nan,nan,nan,nan,nan,nan,nan,nan,nan,nan,nan,nan,nan,nan,nan,nan,nan,nan,25.312523110595066,1332.56414338405,nan,1332.901017423108,nan,nan,nan,nan
1,145,1,1,1.0,1.0,0.3920470112352632,0,0.0,0.0,0.0,0.36594725678551715,0.13321608206318547,0.23273117472233168,0.4991633388487026,0.13321608206318547,0.3422003977854426,4,7,2,6,0,5,nan,nan,nan,nan,nan,nan,nan,nan,nan,nan,nan,nan,0.0,nan,nan,nan,nan,nan,nan,nan,nan,nan,nan,nan,nan,nan,nan,nan,nan,nan,nan,25.312523110595066,1333.580935839942,nan,1333.9729828511772,nan,nan,nan,nan
1,146,1,1,1.0,1.0,0.41524529541493393,0,0.0,0.0,0.0,0.3661350248031412,0.1327543487962452,0.233380676006896,0.4988893735993864,0.1327543487962452,0.3813887819026907,8,5,7,3,6,2,nan,nan,nan,nan,nan,nan,nan,nan,nan,nan,nan,nan,0.0,nan,nan,nan,nan,nan,nan,nan,nan,nan,nan,nan,nan,nan,nan,nan,nan,nan,nan,25.312523110595066,1334.5977171770937,nan,1335.0129624725087,nan,nan,nan,nan
1,147,1,1,1.0,1.0,0.3184131997113582,0,0.0,0.0,0.0,0.36648581245036826,0.13234401253883446,0.2341417999115338,0.4988298249892027,0.13234401253883446,0.3752351687871851,0,6,8,7,4,1,nan,nan,nan,nan,nan,nan,nan,nan,nan,nan,nan,nan,0.0,nan,nan,nan,nan,nan,nan,nan,nan,nan,nan,nan,nan,nan,nan,nan,nan,nan,nan,25.312523110595066,1335.614532155596,nan,1335.9329453553073,nan,nan,nan,nan
1,148,1,1,1.0,1.0,0.28564822481712326,0,0.0,0.0,0.0,0.3661448719344888,0.13193555964878714,0.23420931228570166,0.498080431583276,0.13193555964878714,0.3397689066478051,4,0,7,3,8,6,nan,nan,nan,nan,nan,nan,nan,nan,nan,nan,nan,nan,0.0,nan,nan,nan,nan,nan,nan,nan,nan,nan,nan,nan,nan,nan,nan,nan,nan,nan,nan,25.312523110595066,1336.6312770004151,nan,1336.9169252252323,nan,nan,nan,nan
1,149,0,0,0.0,1.0,0.4687615731381811,0,0.0,0.0,0.0,0.3655779941378876,0.13164238626428496,0.23393560787360265,0.49722038040217253,0.13164238626428496,0.35760766588888754,5,6,3,4,7,1,nan,nan,nan,nan,nan,nan,nan,nan,nan,nan,nan,nan,0.0,nan,nan,nan,nan,nan,nan,nan,nan,nan,nan,nan,nan,nan,nan,nan,nan,nan,nan,25.312523110595066,1337.648131892376,nan,1338.1168934655143,nan,nan,nan,nan
1,150,1,1,1.0,1.0,0.2760114004195202,0,0.0,0.0,0.0,0.3662995576274002,0.13146278512422577,0.23483677250317442,0.49776234275162595,0.13146278512422577,0.3434737327916082,0,1,4,6,2,8,nan,nan,nan,nan,nan,nan,nan,nan,nan,nan,nan,nan,0.0,nan,nan,nan,nan,nan,nan,nan,nan,nan,nan,nan,nan,nan,nan,nan,nan,nan,nan,25.312523110595066,1338.664865333354,nan,1338.9408767337736,nan,nan,nan,nan
1,151,0,0,0.0,1.0,0.4591569646145217,0,0.0,0.0,0.0,0.36567255653567876,0.13121990857016197,0.2344526479655168,0.49689246510584073,0.13121990857016197,0.40130997939074103,8,7,1,0,5,4,nan,nan,nan,nan,nan,nan,nan,nan,nan,nan,nan,nan,0.0,nan,nan,nan,nan,nan,nan,nan,nan,nan,nan,nan,nan,nan,nan,nan,nan,nan,nan,25.312523110595066,1339.6816888647445,nan,1340.140845829359,nan,nan,nan,nan
1,152,1,1,1.0,1.0,0.2503247959248256,0,0.0,0.0,0.0,0.36631727659139496,0.13099530756598057,0.23532196902541438,0.49731258415737556,0.13099530756598057,0.3284977203196225,1,8,2,5,3,6,nan,nan,nan,nan,nan,nan,nan,nan,nan,nan,nan,nan,0.0,nan,nan,nan,nan,nan,nan,nan,nan,nan,nan,nan,nan,nan,nan,nan,nan,nan,nan,25.312523110595066,1340.6984921543044,nan,1340.9488169502292,nan,nan,nan,nan
1,153,1,1,1.0,1.0,0.3854681295051705,0,0.0,0.0,0.0,0.3655228075457335,0.13089598612367165,0.23462682142206187,0.49641879366940517,0.13089598612367165,0.3649832966815059,7,0,4,3,6,8,nan,nan,nan,nan,nan,nan,nan,nan,nan,nan,nan,nan,0.0,nan,nan,nan,nan,nan,nan,nan,nan,nan,nan,nan,nan,nan,nan,nan,nan,nan,nan,25.312523110595066,1341.7153211025288,nan,1342.100789232034,nan,nan,nan,nan
1,154,1,1,1.0,1.0,0.3367035514675081,0,0.0,0.0,0.0,0.36565849000804257,0.130460303613906,0.23519818639413656,0.49611879362194855,0.130460303613906,0.3241654922991681,0,5,1,8,4,3,nan,nan,nan,nan,nan,nan,nan,nan,nan,nan,nan,nan,0.0,nan,nan,nan,nan,nan,nan,nan,nan,nan,nan,nan,nan,nan,nan,nan,nan,nan,nan,25.312523110595066,1342.7320673728245,nan,1343.068770924292,nan,nan,nan,nan
1,155,1,1,1.0,1.0,0.3598790279356763,0,0.0,0.0,0.0,0.36546284853141736,0.13004044781561644,0.23542240071580092,0.49550329634703383,0.13004044781561644,0.3606835696361183,4,8,6,1,5,0,nan,nan,nan,nan,nan,nan,nan,nan,nan,nan,nan,nan,0.0,nan,nan,nan,nan,nan,nan,nan,nan,nan,nan,nan,nan,nan,nan,nan,nan,nan,nan,25.312523110595066,1343.7488772195939,nan,1344.1087562475295,nan,nan,nan,nan
1,156,1,1,1.0,1.0,0.31069991990807466,0,0.0,0.0,0.0,0.3654253732254057,0.12960413770100135,0.23582123552440434,0.495029510926407,0.12960413770100135,0.335760833103753,0,3,4,7,8,5,nan,nan,nan,nan,nan,nan,nan,nan,nan,nan,nan,nan,0.0,nan,nan,nan,nan,nan,nan,nan,nan,nan,nan,nan,nan,nan,nan,nan,nan,nan,nan,25.312523110595066,1344.7740341151948,nan,1345.0847340351029,nan,nan,nan,nan
1,157,1,1,1.0,1.0,0.3339324156404473,0,0.0,0.0,0.0,0.3650605368699568,0.12924814771798848,0.23581238915196834,0.4943086845879453,0.12924814771798848,0.3348371211613994,2,1,3,4,6,0,nan,nan,nan,nan,nan,nan,nan,nan,nan,nan,nan,nan,0.0,nan,nan,nan,nan,nan,nan,nan,nan,nan,nan,nan,nan,nan,nan,nan,nan,nan,nan,25.312523110595066,1345.79076014366,nan,1346.1246925593005,nan,nan,nan,nan
1,158,0,0,1.0,0.0,0.2691040878125932,0,0.0,0.0,0.0,0.3648543903717481,0.12884420224456355,0.23601018812718455,0.49369859261631166,0.12884420224456355,0.3045788077870384,5,0,6,2,1,3,nan,nan,nan,nan,nan,nan,nan,nan,nan,nan,nan,nan,0.0,nan,nan,nan,nan,nan,nan,nan,nan,nan,nan,nan,nan,nan,nan,nan,nan,nan,nan,25.312523110595066,1346.807574837061,nan,1347.0766789248737,nan,nan,nan,nan
1,159,1,1,1.0,1.0,0.38829856537631713,0,0.0,0.0,0.0,0.36422445417070104,0.12865275837542575,0.2355716957952753,0.4928772125461268,0.12865275837542575,0.3304450229431192,6,5,1,8,3,0,nan,nan,nan,nan,nan,nan,nan,nan,nan,nan,nan,nan,0.0,nan,nan,nan,nan,nan,nan,nan,nan,nan,nan,nan,nan,nan,nan,nan,nan,nan,nan,25.312523110595066,1347.824359310267,nan,1348.2126578756433,nan,nan,nan,nan
1,160,1,1,1.0,1.0,0.323143232089933,0,0.0,0.0,0.0,0.36438180130276393,0.12824630802707532,0.2361354932756886,0.49262810932983925,0.12824630802707532,0.3268486284262811,8,7,0,4,2,1,nan,nan,nan,nan,nan,nan,nan,nan,nan,nan,nan,nan,0.0,nan,nan,nan,nan,nan,nan,nan,nan,nan,nan,nan,nan,nan,nan,nan,nan,nan,nan,25.312523110595066,1348.849494538561,nan,1349.172637770651,nan,nan,nan,nan
1,161,1,1,1.0,1.0,0.2823328402300831,0,0.0,0.0,0.0,0.3641140183857975,0.1278721523545878,0.2362418660312097,0.4919861707403853,0.1278721523545878,0.3312582125654444,7,5,4,6,0,3,nan,nan,nan,nan,nan,nan,nan,nan,nan,nan,nan,nan,0.0,nan,nan,nan,nan,nan,nan,nan,nan,nan,nan,nan,nan,nan,nan,nan,nan,nan,nan,25.312523110595066,1349.8662832881964,nan,1350.1486161284265,nan,nan,nan,nan
1,162,1,1,1.0,1.0,0.37750824142131023,0,0.0,0.0,0.0,0.36358639788156705,0.12762705909961303,0.23595933878195402,0.4912134569811801,0.12762705909961303,0.32766143791377544,3,0,2,4,1,6,nan,nan,nan,nan,nan,nan,nan,nan,nan,nan,nan,nan,0.0,nan,nan,nan,nan,nan,nan,nan,nan,nan,nan,nan,nan,nan,nan,nan,nan,nan,nan,25.312523110595066,1350.883074888814,nan,1351.2605831302353,nan,nan,nan,nan
1,163,1,1,1.0,1.0,0.3287046051991638,0,0.0,0.0,0.0,0.36367564046836026,0.127222192028324,0.23645344844003627,0.4908978324966843,0.127222192028324,0.3295152289501857,0,3,5,2,8,1,nan,nan,nan,nan,nan,nan,nan,nan,nan,nan,nan,nan,0.0,nan,nan,nan,nan,nan,nan,nan,nan,nan,nan,nan,nan,nan,nan,nan,nan,nan,nan,25.312523110595066,1351.899867629807,nan,1352.2285722350061,nan,nan,nan,nan
1,164,1,1,1.0,1.0,0.31988087538047694,0,0.0,0.0,0.0,0.36345289502078576,0.12684689156390178,0.23660600345688398,0.49029978658468754,0.12684689156390178,0.34203124066698365,5,8,4,6,7,2,nan,nan,nan,nan,nan,nan,nan,nan,nan,nan,nan,nan,0.0,nan,nan,nan,nan,nan,nan,nan,nan,nan,nan,nan,nan,nan,nan,nan,nan,nan,nan,25.312523110595066,1352.9166566645436,nan,1353.236537539924,nan,nan,nan,nan
1,165,1,1,1.0,1.0,0.3110172320739366,0,0.0,0.0,0.0,0.3631771227445813,0.1264920452582228,0.2366850774863585,0.48966916800280413,0.1264920452582228,0.3198675708845258,8,7,2,5,3,6,nan,nan,nan,nan,nan,nan,nan,nan,nan,nan,nan,nan,0.0,nan,nan,nan,nan,nan,nan,nan,nan,nan,nan,nan,nan,nan,nan,nan,nan,nan,nan,25.312523110595066,1353.9335012930678,nan,1354.2445185251418,nan,nan,nan,nan
1,166,1,1,1.0,1.0,0.30225479794899,0,0.0,0.0,0.0,0.3628490731177219,0.12616104987320073,0.23668802324452118,0.4890101229909226,0.12616104987320073,0.31105096846780117,6,5,8,3,2,0,nan,nan,nan,nan,nan,nan,nan,nan,nan,nan,nan,nan,0.0,nan,nan,nan,nan,nan,nan,nan,nan,nan,nan,nan,nan,nan,nan,nan,nan,nan,nan,25.312523110595066,1354.9502256109554,nan,1355.2524804089044,nan,nan,nan,nan
1,167,1,1,1.0,1.0,0.2454721721878741,0,0.0,0.0,0.0,0.36247035889791734,0.12585680823315115,0.2366135506647662,0.4883271671310685,0.12585680823315115,0.28624806740360026,8,1,4,0,5,6,nan,nan,nan,nan,nan,nan,nan,nan,nan,nan,nan,nan,0.0,nan,nan,nan,nan,nan,nan,nan,nan,nan,nan,nan,nan,nan,nan,nan,nan,nan,nan,25.312523110595066,1355.9669955442369,nan,1356.2124677164247,nan,nan,nan,nan
1,168,1,1,1.0,1.0,0.25142070604488254,0,0.0,0.0,0.0,0.3617436620860537,0.12580161208384458,0.2359420500022091,0.48754527416989824,0.12580161208384458,0.26638255872724886,2,6,3,5,8,7,nan,nan,nan,nan,nan,nan,nan,nan,nan,nan,nan,nan,0.0,nan,nan,nan,nan,nan,nan,nan,nan,nan,nan,nan,nan,nan,nan,nan,nan,nan,nan,25.312523110595066,1356.9850176203763,nan,1357.2364383264212,nan,nan,nan,nan
1,169,1,1,1.0,1.0,0.3074486819677986,0,0.0,0.0,0.0,0.361062656184565,0.12571006633705165,0.23535258984751337,0.48677272252161663,0.12571006633705165,0.26811385340018506,6,3,2,4,7,0,nan,nan,nan,nan,nan,nan,nan,nan,nan,nan,nan,nan,0.0,nan,nan,nan,nan,nan,nan,nan,nan,nan,nan,nan,nan,nan,nan,nan,nan,nan,nan,25.312523110595066,1358.0089608611306,nan,1358.3164095430984,nan,nan,nan,nan
1,170,1,1,1.0,1.0,0.290632848162204,0,0.0,0.0,0.0,0.36073373609734555,0.12539376481865858,0.23533997127868697,0.4861275009160041,0.12539376481865858,0.28316741205829504,0,2,5,7,1,3,nan,nan,nan,nan,nan,nan,nan,nan,nan,nan,nan,nan,0.0,nan,nan,nan,nan,nan,nan,nan,nan,nan,nan,nan,nan,nan,nan,nan,nan,nan,nan,25.312523110595066,1359.02575730838,nan,1359.3163901565422,nan,nan,nan,nan
1,171,1,1,1.0,1.0,0.2658166426117532,0,0.0,0.0,0.0,0.36030629165871664,0.12512994123876434,0.2351763504199523,0.48543623289748095,0.12512994123876434,0.2879660575805853,1,0,4,8,3,2,nan,nan,nan,nan,nan,nan,nan,nan,nan,nan,nan,nan,0.0,nan,nan,nan,nan,nan,nan,nan,nan,nan,nan,nan,nan,nan,nan,nan,nan,nan,nan,25.312523110595066,1360.0425654445717,nan,1360.3083820871834,nan,nan,nan,nan
1,172,1,1,1.0,1.0,0.2247080400120467,0,0.0,0.0,0.0,0.35973362711903806,0.12496555992922229,0.23476806718981577,0.4846991870482603,0.12496555992922229,0.2603858435953346,5,1,6,7,2,3,nan,nan,nan,nan,nan,nan,nan,nan,nan,nan,nan,nan,0.0,nan,nan,nan,nan,nan,nan,nan,nan,nan,nan,nan,nan,nan,nan,nan,nan,nan,nan,25.312523110595066,1361.0676410877495,nan,1361.2923491277616,nan,nan,nan,nan
1,173,1,1,1.0,1.0,0.29585666727507487,0,0.0,0.0,0.0,0.35892021996779117,0.12502593998763445,0.23389427998015672,0.4839461599554256,0.12502593998763445,0.26212711663295823,7,0,4,6,1,2,nan,nan,nan,nan,nan,nan,nan,nan,nan,nan,nan,nan,0.0,nan,nan,nan,nan,nan,nan,nan,nan,nan,nan,nan,nan,nan,nan,nan,nan,nan,nan,25.312523110595066,1362.0844657595153,nan,1362.3803224267904,nan,nan,nan,nan
1,174,1,1,1.0,1.0,0.18306659249356017,0,0.0,0.0,0.0,0.3585425939037629,0.12474596506074564,0.23379662884301727,0.48328855896450856,0.12474596506074564,0.23454376659356058,6,7,3,8,0,5,nan,nan,nan,nan,nan,nan,nan,nan,nan,nan,nan,nan,0.0,nan,nan,nan,nan,nan,nan,nan,nan,nan,nan,nan,nan,nan,nan,nan,nan,nan,nan,25.312523110595066,1363.101227995212,nan,1363.2842945877055,nan,nan,nan,nan
1,175,1,1,1.0,1.0,0.22990933651453815,0,0.0,0.0,0.0,0.35749809389536885,0.12510444114933789,0.23239365274603097,0.48260253504470674,0.12510444114933789,0.23627753209439106,7,3,1,2,4,8,nan,nan,nan,nan,nan,nan,nan,nan,nan,nan,nan,nan,0.0,nan,nan,nan,nan,nan,nan,nan,nan,nan,nan,nan,nan,nan,nan,nan,nan,nan,nan,25.312523110595066,1364.1263754826505,nan,1364.356284819165,nan,nan,nan,nan
1,176,1,1,1.0,1.0,0.23677958664484322,0,1.0,0.0,0.0,0.3567431308339438,0.12511700859736127,0.23162612223658255,0.4818601394313051,0.12511700859736127,0.21658517188431384,0,8,2,4,7,1,nan,nan,nan,nan,nan,nan,nan,nan,nan,nan,nan,nan,0.0,nan,nan,nan,nan,nan,nan,nan,nan,nan,nan,nan,nan,nan,nan,nan,nan,nan,nan,25.312523110595066,1365.1514742186118,nan,1365.3882538052567,nan,nan,nan,nan
1,177,1,1,1.0,1.0,0.23594539493205957,1,0.0,0.0,1.0,0.3560374629269491,0.12508532439736025,0.23095213852958885,0.48112278732430935,0.12508532439736025,0.23421143936381364,5,0,6,1,3,2,1.0,1.0,1.0,1.0,1.0,1.0,0.0,1.0,0.0,0.0,0.0,1.0,2.0,1.0,0.0,8.0,4.0,5.0,2.0,6.0,1.0,2.0,3.0,4.0,5.0,6.094553891336545,2.026154447492445,2.9046595280524343,3.6317040746216662,4.6240187342627905,5.335324825864518,25.312523110595066,1366.168294613948,1366.9767110552057,1366.4042400088802,1374.1275857163419,1375.138492074475,1367.9935106385092,1374.119262615597
1,178,1,1,1.0,1.0,0.6349436236196198,0,0.0,0.0,0.0,0.35533517013165733,0.12505473163257602,0.2302804384990813,0.48038990176423335,0.12505473163257602,0.36922286839884083,4,5,2,7,0,1,nan,nan,nan,nan,nan,nan,nan,nan,nan,nan,nan,nan,0.0,nan,nan,nan,nan,nan,nan,nan,nan,nan,nan,nan,nan,nan,nan,nan,nan,nan,nan,25.312523110595066,1375.361072726082,nan,1375.9960163497017,nan,nan,nan,nan
1,179,1,1,1.0,1.0,0.33008874763618223,0,0.0,0.0,0.0,0.35696080067519204,0.12648976511476615,0.2304710355604259,0.48345056578995815,0.12648976511476615,0.4003259220626205,0,3,5,1,7,2,nan,nan,nan,nan,nan,nan,nan,nan,nan,nan,nan,nan,0.0,nan,nan,nan,nan,nan,nan,nan,nan,nan,nan,nan,nan,nan,nan,nan,nan,nan,nan,25.312523110595066,1376.3779036699561,nan,1376.7079924175923,nan,nan,nan,nan
1,180,1,1,1.0,1.0,0.40128897727117874,0,0.0,0.0,0.0,0.35680547088883935,0.12614010858551267,0.23066536230332668,0.482945579474352,0.12614010858551267,0.4554404495089936,8,5,3,6,4,7,nan,nan,nan,nan,nan,nan,nan,nan,nan,nan,nan,nan,0.0,nan,nan,nan,nan,nan,nan,nan,nan,nan,nan,nan,nan,nan,nan,nan,nan,nan,nan,25.312523110595066,1377.3946821561549,nan,1377.795971133426,nan,nan,nan,nan
1,181,0,0,0.0,1.0,0.6084978077269625,0,0.0,0.0,0.0,0.35706112322437006,0.1258220550624421,0.23123906816192796,0.48288317828681215,0.1258220550624421,0.4466251775447745,3,4,1,7,0,8,nan,nan,nan,nan,nan,nan,nan,nan,nan,nan,nan,nan,0.0,nan,nan,nan,nan,nan,nan,nan,nan,nan,nan,nan,nan,nan,nan,nan,nan,nan,nan,25.312523110595066,1378.4114389750175,nan,1379.0199367827445,nan,nan,nan,nan
1,182,1,1,1.0,1.0,0.3196616363420617,0,0.0,0.0,0.0,0.35849790427867056,0.12688546301589607,0.2316124412627745,0.48538336729456666,0.12688546301589607,0.44314947378006764,2,3,6,5,7,1,nan,nan,nan,nan,nan,nan,nan,nan,nan,nan,nan,nan,0.0,nan,nan,nan,nan,nan,nan,nan,nan,nan,nan,nan,nan,nan,nan,nan,nan,nan,nan,25.312523110595066,1379.428268208314,nan,1379.747929844656,nan,nan,nan,nan
1,183,1,1,1.0,1.0,0.5827997993910685,0,0.0,0.0,0.0,0.3582772436653944,0.12655814808242322,0.23171909558297116,0.4848353917478176,0.12655814808242322,0.5036530811533643,4,7,0,8,1,2,nan,nan,nan,nan,nan,nan,nan,nan,nan,nan,nan,nan,0.0,nan,nan,nan,nan,nan,nan,nan,nan,nan,nan,nan,nan,nan,nan,nan,nan,nan,nan,25.312523110595066,1380.4450923099066,nan,1381.0278921092977,nan,nan,nan,nan
1,184,1,1,1.0,1.0,0.34996993659297004,0,0.0,0.0,0.0,0.35954573268079365,0.12731719777981257,0.23222853490098108,0.48686293046060625,0.12731719777981257,0.4174771241087001,0,6,7,4,3,5,nan,nan,nan,nan,nan,nan,nan,nan,nan,nan,nan,nan,0.0,nan,nan,nan,nan,nan,nan,nan,nan,nan,nan,nan,nan,nan,nan,nan,nan,nan,nan,25.312523110595066,1381.461897024943,nan,1381.811866961536,nan,nan,nan,nan
1,185,1,1,1.0,1.0,0.38120993151096627,0,0.0,0.0,0.0,0.3594919360735587,0.12696107886446992,0.2325308572090888,0.4864530149380286,0.12696107886446992,0.43799322249833494,4,3,6,7,5,8,nan,nan,nan,nan,nan,nan,nan,nan,nan,nan,nan,nan,0.0,nan,nan,nan,nan,nan,nan,nan,nan,nan,nan,nan,nan,nan,nan,nan,nan,nan,nan,25.312523110595066,1382.4786341721483,nan,1382.8598441036593,nan,nan,nan,nan
1,186,1,1,1.0,1.0,0.3323800664220471,0,0.0,0.0,0.0,0.3596132656570079,0.12661629016861026,0.23299697548839765,0.48622955582561816,0.12661629016861026,0.3545199781753278,6,5,0,3,2,1,nan,nan,nan,nan,nan,nan,nan,nan,nan,nan,nan,nan,0.0,nan,nan,nan,nan,nan,nan,nan,nan,nan,nan,nan,nan,nan,nan,nan,nan,nan,nan,25.312523110595066,1383.4954374617082,nan,1383.8278175281303,nan,nan,nan,nan
1,187,0,0,1.0,0.0,0.26757597172399983,0,0.0,0.0,0.0,0.3594619701057026,0.12628031276211854,0.23318165734358404,0.4857422828678211,0.12628031276211854,0.3270553232190044,0,8,6,2,3,5,nan,nan,nan,nan,nan,nan,nan,nan,nan,nan,nan,nan,0.0,nan,nan,nan,nan,nan,nan,nan,nan,nan,nan,nan,nan,nan,nan,nan,nan,nan,nan,25.312523110595066,1384.5122310580045,nan,1384.7798070297285,nan,nan,nan,nan
1,188,1,1,1.0,1.0,0.4107404891110491,0,0.0,0.0,0.0,0.3589543126560799,0.12611503826191844,0.23283927439416147,0.48506935091799835,0.12611503826191844,0.336898842419032,8,4,5,3,1,2,nan,nan,nan,nan,nan,nan,nan,nan,nan,nan,nan,nan,0.0,nan,nan,nan,nan,nan,nan,nan,nan,nan,nan,nan,nan,nan,nan,nan,nan,nan,nan,25.312523110595066,1385.529030356207,nan,1385.939770845318,nan,nan,nan,nan
1,189,1,1,1.0,1.0,0.313972255011322,0,0.0,0.0,0.0,0.3592388520871512,0.12582633665736254,0.23341251542978864,0.4850651887445137,0.12582633665736254,0.33076290528212365,3,1,4,8,7,6,nan,nan,nan,nan,nan,nan,nan,nan,nan,nan,nan,nan,0.0,nan,nan,nan,nan,nan,nan,nan,nan,nan,nan,nan,nan,nan,nan,nan,nan,nan,nan,25.312523110595066,1386.5457814731344,nan,1386.8597537281457,nan,nan,nan,nan
1,190,1,1,1.0,1.0,0.31311753633781336,0,0.0,0.0,0.0,0.3589914936331849,0.1255264424958985,0.23346505113728638,0.4845179361290834,0.1255264424958985,0.34594342682006146,7,5,8,6,2,0,nan,nan,nan,nan,nan,nan,nan,nan,nan,nan,nan,nan,0.0,nan,nan,nan,nan,nan,nan,nan,nan,nan,nan,nan,nan,nan,nan,nan,nan,nan,nan,25.312523110595066,1387.5626061449293,nan,1387.8757236812671,nan,nan,nan,nan
1,191,1,1,1.0,1.0,0.6162886337551754,0,0.0,0.0,0.0,0.35874217864788394,0.12523029750466516,0.23351188114321877,0.4839724761525491,0.12523029750466516,0.41445947503477026,5,4,2,3,0,8,nan,nan,nan,nan,nan,nan,nan,nan,nan,nan,nan,nan,0.0,nan,nan,nan,nan,nan,nan,nan,nan,nan,nan,nan,nan,nan,nan,nan,nan,nan,nan,25.312523110595066,1388.5794134258176,nan,1389.1957020595728,nan,nan,nan,nan
1,192,1,1,1.0,1.0,0.3915004816662986,0,0.0,0.0,0.0,0.36013432164846393,0.12631096502990113,0.2338233566185628,0.48644528667836506,0.12631096502990113,0.44030221725309576,0,2,6,4,1,3,nan,nan,nan,nan,nan,nan,nan,nan,nan,nan,nan,nan,0.0,nan,nan,nan,nan,nan,nan,nan,nan,nan,nan,nan,nan,nan,nan,nan,nan,nan,nan,25.312523110595066,1389.5961959033448,nan,1389.987696385011,nan,nan,nan,nan
1,193,1,1,1.0,1.0,0.2866583209251985,0,0.0,0.0,0.0,0.360302956917377,0.12599184189344317,0.23431111502393384,0.48629479881082016,0.12599184189344317,0.4314824787822242,1,0,3,6,8,7,nan,nan,nan,nan,nan,nan,nan,nan,nan,nan,nan,nan,0.0,nan,nan,nan,nan,nan,nan,nan,nan,nan,nan,nan,nan,nan,nan,nan,nan,nan,nan,25.312523110595066,1390.6129960568505,nan,1390.8996543777757,nan,nan,nan,nan
1,194,1,1,1.0,1.0,0.32585421259864233,0,0.0,0.0,0.0,0.3599091353345311,0.12576925130218447,0.23413988403234665,0.4856783866367156,0.12576925130218447,0.3346710050633798,0,4,7,8,2,1,nan,nan,nan,nan,nan,nan,nan,nan,nan,nan,nan,nan,0.0,nan,nan,nan,nan,nan,nan,nan,nan,nan,nan,nan,nan,nan,nan,nan,nan,nan,nan,25.312523110595066,1391.6297791045508,nan,1391.9556333171495,nan,nan,nan,nan
1,195,1,1,1.0,1.0,0.2530372019391507,0,0.0,0.0,0.0,0.35972799212848916,0.12545876927442862,0.23426922285406054,0.4851867614029178,0.12545876927442862,0.2885165784876638,6,8,4,2,3,5,nan,nan,nan,nan,nan,nan,nan,nan,nan,nan,nan,nan,0.0,nan,nan,nan,nan,nan,nan,nan,nan,nan,nan,nan,nan,nan,nan,nan,nan,nan,nan,25.312523110595066,1392.6465772623778,nan,1392.899614464317,nan,nan,nan,nan
1,196,1,1,1.0,1.0,0.23623847390990704,0,0.0,0.0,0.0,0.3591634905930958,0.12536559070101577,0.23379789989208005,0.4845290812941116,0.12536559070101577,0.27170996281590004,3,1,8,0,4,6,nan,nan,nan,nan,nan,nan,nan,nan,nan,nan,nan,nan,0.0,nan,nan,nan,nan,nan,nan,nan,nan,nan,nan,nan,nan,nan,nan,nan,nan,nan,nan,25.312523110595066,1393.6633637312625,nan,1393.8996022051724,nan,nan,nan,nan
1,197,1,1,1.0,1.0,0.21940838531008922,0,0.0,0.0,0.0,0.35851651682107905,0.12535120036327838,0.23316531645780067,0.4838677171843574,0.12535120036327838,0.23622802038638233,2,4,3,8,6,0,nan,nan,nan,nan,nan,nan,nan,nan,nan,nan,nan,nan,0.0,nan,nan,nan,nan,nan,nan,nan,nan,nan,nan,nan,nan,nan,nan,nan,nan,nan,nan,25.312523110595066,1394.6801570424286,nan,1394.8995654277387,nan,nan,nan,nan
1,198,1,1,1.0,1.0,0.24259555072057992,0,0.0,0.0,0.0,0.3577882019964142,0.12542504091931522,0.23236316107709898,0.4832132429157294,0.12542504091931522,0.23274746998019205,1,5,8,4,0,2,nan,nan,nan,nan,nan,nan,nan,nan,nan,nan,nan,nan,0.0,nan,nan,nan,nan,nan,nan,nan,nan,nan,nan,nan,nan,nan,nan,nan,nan,nan,nan,25.312523110595066,1395.6969475026708,nan,1395.9395430533914,nan,nan,nan,nan
1,199,1,1,1.0,1.0,0.22578427847474813,0,1.0,0.0,0.0,0.3571882402710192,0.12537247516654326,0.23181576510447593,0.48256071543756246,0.12537247516654326,0.22926273816847242,3,7,4,2,8,6,nan,nan,nan,nan,nan,nan,nan,nan,nan,nan,nan,nan,0.0,nan,nan,nan,nan,nan,nan,nan,nan,nan,nan,nan,nan,nan,nan,nan,nan,nan,nan,25.312523110595066,1396.7137485114508,nan,1396.9395327899256,nan,nan,nan,nan
1,200,1,1,1.0,1.0,0.21697822463465855,1,0.0,0.0,1.0,0.35650739072803334,0.12540262577699052,0.23110476495104282,0.48191001650502385,0.12540262577699052,0.22845268460999554,1,3,2,4,7,0,1.0,1.0,1.0,1.0,1.0,1.0,0.0,0.0,1.0,0.0,0.0,0.0,1.0,6.0,7.0,2.0,5.0,4.0,8.0,5.0,6.0,1.0,2.0,3.0,4.0,7.7410980825079605,8.940326783049386,2.4309586618910544,3.454097360925516,4.477860705927014,6.660328881349415,25.312523110595066,1397.73053355483,1398.5389465749613,1397.9475117794645,1408.523502054275,1409.5201210975065,1399.5474113685777,1408.515170400613
1,201,1,1,1.0,1.0,0.5108606001595035,0,0.0,0.0,0.0,0.3557881682223974,0.12547745959664774,0.23031070862574965,0.48126562781904514,0.12547745959664774,0.3178743677563034,8,5,6,7,1,2,nan,nan,nan,nan,nan,nan,nan,nan,nan,nan,nan,nan,0.0,nan,nan,nan,nan,nan,nan,nan,nan,nan,nan,nan,nan,nan,nan,nan,nan,nan,nan,25.312523110595066,1409.7403551216412,nan,1410.2512157218007,nan,nan,nan,nan
1,202,1,1,1.0,1.0,0.29407994728535414,0,0.0,0.0,0.0,0.3565834114631005,0.12564449552786897,0.23093891593523155,0.4822279069909695,0.12564449552786897,0.34063959069317207,4,1,2,0,6,5,nan,nan,nan,nan,nan,nan,nan,nan,nan,nan,nan,nan,0.0,nan,nan,nan,nan,nan,nan,nan,nan,nan,nan,nan,nan,nan,nan,nan,nan,nan,nan,25.312523110595066,1410.757112795778,nan,1411.0511927430634,nan,nan,nan,nan
1,203,1,1,1.0,1.0,0.34125283276080154,0,0.0,0.0,0.0,0.35626451623770383,0.12540265567742168,0.23086186056028216,0.48166717191512554,0.12540265567742168,0.38206446006855305,7,6,1,3,2,8,nan,nan,nan,nan,nan,nan,nan,nan,nan,nan,nan,nan,0.0,nan,nan,nan,nan,nan,nan,nan,nan,nan,nan,nan,nan,nan,nan,nan,nan,nan,nan,25.312523110595066,1411.7739306252624,nan,1412.1151834580232,nan,nan,nan,nan
1,204,1,1,1.0,1.0,0.22843054213444702,0,0.0,0.0,0.0,0.3561883147987348,0.1250885191694088,0.231099795629326,0.4812768339681436,0.1250885191694088,0.2879211073935342,6,0,8,1,7,4,nan,nan,nan,nan,nan,nan,nan,nan,nan,nan,nan,nan,0.0,nan,nan,nan,nan,nan,nan,nan,nan,nan,nan,nan,nan,nan,nan,nan,nan,nan,nan,25.312523110595066,1412.7907296383637,nan,1413.0191601804981,nan,nan,nan,nan
1,205,1,1,1.0,1.0,0.2036114856309723,0,0.0,0.0,0.0,0.3555430735226525,0.1251004793449585,0.23044259417769403,0.480643552867611,0.1251004793449585,0.2577649535087403,2,8,0,6,5,3,nan,nan,nan,nan,nan,nan,nan,nan,nan,nan,nan,nan,0.0,nan,nan,nan,nan,nan,nan,nan,nan,nan,nan,nan,nan,nan,nan,nan,nan,nan,nan,25.312523110595066,1413.8075266557862,nan,1414.0111381414172,nan,nan,nan,nan
1,206,1,1,1.0,1.0,0.29080191024695523,0,0.0,0.0,0.0,0.3547795982066139,0.12524735201135115,0.22953224619526277,0.48002695021796504,0.12524735201135115,0.24094797933745818,1,4,3,8,2,5,nan,nan,nan,nan,nan,nan,nan,nan,nan,nan,nan,nan,0.0,nan,nan,nan,nan,nan,nan,nan,nan,nan,nan,nan,nan,nan,nan,nan,nan,nan,nan,25.312523110595066,1414.824308278039,nan,1415.115110188286,nan,nan,nan,nan
1,207,1,1,1.0,1.0,0.24996272366843186,0,0.0,0.0,0.0,0.3544597097668156,0.125015311398626,0.2294443983681896,0.4794750211654416,0.125015311398626,0.2481253731821198,7,6,4,3,8,2,nan,nan,nan,nan,nan,nan,nan,nan,nan,nan,nan,nan,0.0,nan,nan,nan,nan,nan,nan,nan,nan,nan,nan,nan,nan,nan,nan,nan,nan,nan,nan,25.312523110595066,1415.8411292435485,nan,1416.091091967217,nan,nan,nan,nan
1,208,1,1,1.0,1.0,0.233181101444643,0,0.0,0.0,0.0,0.35393982426383863,0.12492049034379468,0.22901933392004395,0.47886031460763334,0.12492049034379468,0.2579819117866767,0,1,8,4,5,6,nan,nan,nan,nan,nan,nan,nan,nan,nan,nan,nan,nan,0.0,nan,nan,nan,nan,nan,nan,nan,nan,nan,nan,nan,nan,nan,nan,nan,nan,nan,nan,25.312523110595066,1416.8578891984653,nan,1417.09107029991,nan,nan,nan,nan
1,209,0,0,1.0,0.0,0.2643851742031984,0,0.0,0.0,0.0,0.35334200880433764,0.12489879840245369,0.22844321040188395,0.4782408072067913,0.12489879840245369,0.24917633310542442,7,5,1,3,6,8,nan,nan,nan,nan,nan,nan,nan,nan,nan,nan,nan,nan,0.0,nan,nan,nan,nan,nan,nan,nan,nan,nan,nan,nan,nan,nan,nan,nan,nan,nan,nan,25.312523110595066,1417.87466226783,nan,1418.1390474420332,nan,nan,nan,nan
1,210,1,1,1.0,1.0,0.3595283595204819,0,0.0,0.0,0.0,0.35290379779645026,0.12474635792818112,0.22815743986826914,0.4776501557246314,0.12474635792818112,0.28569821172277443,6,3,7,8,0,1,nan,nan,nan,nan,nan,nan,nan,nan,nan,nan,nan,nan,0.0,nan,nan,nan,nan,nan,nan,nan,nan,nan,nan,nan,nan,nan,nan,nan,nan,nan,nan,25.312523110595066,1418.8914835184405,nan,1419.251011877961,nan,nan,nan,nan
1,211,1,1,1.0,1.0,0.3586973038909491,0,0.0,0.0,0.0,0.3529362711382347,0.12444109155234132,0.2284951795858934,0.47737736269057607,0.12444109155234132,0.32753694587154314,5,4,3,1,8,2,nan,nan,nan,nan,nan,nan,nan,nan,nan,nan,nan,nan,0.0,nan,nan,nan,nan,nan,nan,nan,nan,nan,nan,nan,nan,nan,nan,nan,nan,nan,nan,25.312523110595066,1419.9082947906863,nan,1420.2669920945773,nan,nan,nan,nan
1,212,1,1,1.0,1.0,0.22954583878163248,0,0.0,0.0,0.0,0.35296437373702844,0.1241378545676083,0.22882651916942015,0.4771022283046367,0.1241378545676083,0.3159238340643545,0,2,8,4,7,1,nan,nan,nan,nan,nan,nan,nan,nan,nan,nan,nan,nan,0.0,nan,nan,nan,nan,nan,nan,nan,nan,nan,nan,nan,nan,nan,nan,nan,nan,nan,nan,25.312523110595066,1420.933410347352,nan,1421.1629561861337,nan,nan,nan,nan
1,213,1,1,1.0,1.0,0.2767609185539186,0,0.0,0.0,0.0,0.3523652546353032,0.12413292699747226,0.22823232763783097,0.47649818163277546,0.12413292699747226,0.2883346870755001,5,6,7,1,2,3,nan,nan,nan,nan,nan,nan,nan,nan,nan,nan,nan,nan,0.0,nan,nan,nan,nan,nan,nan,nan,nan,nan,nan,nan,nan,nan,nan,nan,nan,nan,nan,25.312523110595066,1421.9501919695758,nan,1422.2269528881297,nan,nan,nan,nan
1,214,1,1,1.0,1.0,0.30794132832670584,0,0.0,0.0,0.0,0.3520000162967458,0.12394363329305659,0.22805638300368924,0.4759436495898024,0.12394363329305659,0.27141602855408564,3,7,8,2,4,5,nan,nan,nan,nan,nan,nan,nan,nan,nan,nan,nan,nan,0.0,nan,nan,nan,nan,nan,nan,nan,nan,nan,nan,nan,nan,nan,nan,nan,nan,nan,nan,25.312523110595066,1422.9669810043415,nan,1423.2749223326682,nan,nan,nan,nan
1,215,1,1,1.0,1.0,0.33914711166289635,0,0.0,0.0,0.0,0.35178819568150527,0.12368288490556537,0.2281053107759399,0.47547108058707066,0.12368288490556537,0.3079497861811736,7,3,5,6,8,0,nan,nan,nan,nan,nan,nan,nan,nan,nan,nan,nan,nan,0.0,nan,nan,nan,nan,nan,nan,nan,nan,nan,nan,nan,nan,nan,nan,nan,nan,nan,nan,25.312523110595066,1423.9837440953124,nan,1424.3228912069753,nan,nan,nan,nan
1,216,1,1,1.0,1.0,0.28229720317176543,0,0.0,0.0,0.0,0.3517277120259138,0.12338972149168669,0.2283379905342271,0.4751174335176005,0.12338972149168669,0.30979521438712254,8,5,3,7,2,1,nan,nan,nan,nan,nan,nan,nan,nan,nan,nan,nan,nan,0.0,nan,nan,nan,nan,nan,nan,nan,nan,nan,nan,nan,nan,nan,nan,nan,nan,nan,nan,25.312523110595066,1425.0005670565006,nan,1425.2828642596724,nan,nan,nan,nan
1,217,1,1,1.0,1.0,0.35356528576812707,0,0.0,0.0,0.0,0.35139709055517976,0.12318834833256563,0.2282087422226141,0.4745854388877454,0.12318834833256563,0.3250032002009296,7,4,6,8,0,5,nan,nan,nan,nan,nan,nan,nan,nan,nan,nan,nan,nan,0.0,nan,nan,nan,nan,nan,nan,nan,nan,nan,nan,nan,nan,nan,nan,nan,nan,nan,nan,25.312523110595066,1426.0173700609594,nan,1426.3709353467275,nan,nan,nan,nan
1,218,1,1,1.0,1.0,0.3606684595288243,0,0.0,0.0,0.0,0.3514073663618762,0.12289617633755691,0.2285111900243193,0.4743035426994331,0.12289617633755691,0.3321769828229056,2,3,4,5,1,7,nan,nan,nan,nan,nan,nan,nan,nan,nan,nan,nan,nan,0.0,nan,nan,nan,nan,nan,nan,nan,nan,nan,nan,nan,nan,nan,nan,nan,nan,nan,nan,25.312523110595066,1427.03415111301,nan,1427.3948195725388,nan,nan,nan,nan
1,219,0,0,1.0,0.0,0.327841903839726,0,0.0,0.0,0.0,0.3514510507636071,0.12260762631913767,0.22884342444446942,0.4740586770827448,0.12260762631913767,0.3473585497122258,8,1,5,6,0,4,nan,nan,nan,nan,nan,nan,nan,nan,nan,nan,nan,nan,0.0,nan,nan,nan,nan,nan,nan,nan,nan,nan,nan,nan,nan,nan,nan,nan,nan,nan,nan,25.312523110595066,1428.050957538624,nan,1428.3787994424638,nan,nan,nan,nan
1,220,1,1,1.0,1.0,0.5106117111281492,0,0.0,0.0,0.0,0.35134020969823676,0.12233012254151103,0.22901008715672572,0.4736703322397478,0.12233012254151103,0.3997073581655665,4,8,1,2,5,0,nan,nan,nan,nan,nan,nan,nan,nan,nan,nan,nan,nan,0.0,nan,nan,nan,nan,nan,nan,nan,nan,nan,nan,nan,nan,nan,nan,nan,nan,nan,nan,25.312523110595066,1429.0761580539693,nan,1429.5867697650974,nan,nan,nan,nan
1,221,1,1,1.0,1.0,0.40555116668110713,0,0.0,0.0,0.0,0.352084469050713,0.12252638879454239,0.2295580802561706,0.47461085784525536,0.12252638879454239,0.41466826054966077,1,5,7,0,6,3,nan,nan,nan,nan,nan,nan,nan,nan,nan,nan,nan,nan,0.0,nan,nan,nan,nan,nan,nan,nan,nan,nan,nan,nan,nan,nan,nan,nan,nan,nan,nan,25.312523110595066,1430.101201196143,nan,1430.506752362824,nan,nan,nan,nan
1,222,1,1,1.0,1.0,0.3727856215846259,0,0.0,0.0,0.0,0.35233315136527293,0.1222952318957597,0.23003791946951324,0.4746283832610326,0.1222952318957597,0.42964949979796074,4,7,5,2,8,6,nan,nan,nan,nan,nan,nan,nan,nan,nan,nan,nan,nan,0.0,nan,nan,nan,nan,nan,nan,nan,nan,nan,nan,nan,nan,nan,nan,nan,nan,nan,nan,25.312523110595066,1431.117956589529,nan,1431.4907422111137,nan,nan,nan,nan
1,223,1,1,1.0,1.0,0.40388820008956827,0,0.0,0.0,0.0,0.3524278387273996,0.1220197117500426,0.23040812697735696,0.4744475504774422,0.1220197117500426,0.3940749961184338,0,2,1,6,7,3,nan,nan,nan,nan,nan,nan,nan,nan,nan,nan,nan,nan,0.0,nan,nan,nan,nan,nan,nan,nan,nan,nan,nan,nan,nan,nan,nan,nan,nan,nan,nan,25.312523110595066,1432.1348054944829,nan,1432.5386936945724,nan,nan,nan,nan
1,224,1,1,1.0,1.0,0.4191015076939948,0,0.0,0.0,0.0,0.3526649832498059,0.12178811655063576,0.23087686669917012,0.47445309980044165,0.12178811655063576,0.398591776456063,6,4,8,1,3,0,nan,nan,nan,nan,nan,nan,nan,nan,nan,nan,nan,nan,0.0,nan,nan,nan,nan,nan,nan,nan,nan,nan,nan,nan,nan,nan,nan,nan,nan,nan,nan,25.312523110595066,1433.1515848359559,nan,1433.5706863436499,nan,nan,nan,nan
1,225,1,1,1.0,1.0,0.28227182960836217,0,0.0,0.0,0.0,0.35296973794909114,0.12159136901609932,0.23137836893299182,0.4745611069651905,0.12159136901609932,0.36842051246397506,3,2,6,0,5,4,nan,nan,nan,nan,nan,nan,nan,nan,nan,nan,nan,nan,0.0,nan,nan,nan,nan,nan,nan,nan,nan,nan,nan,nan,nan,nan,nan,nan,nan,nan,nan,25.312523110595066,1434.1683852745628,nan,1434.4506571041711,nan,nan,nan,nan
1,226,1,1,1.0,1.0,0.46505817247089,0,0.0,0.0,0.0,0.35264691644981844,0.12140704533028235,0.2312398711195361,0.4740539617801008,0.12140704533028235,0.38881050325774896,2,8,0,6,4,3,nan,nan,nan,nan,nan,nan,nan,nan,nan,nan,nan,nan,0.0,nan,nan,nan,nan,nan,nan,nan,nan,nan,nan,nan,nan,nan,nan,nan,nan,nan,nan,25.312523110595066,1435.1935701096081,nan,1435.658628282079,nan,nan,nan,nan
1,227,1,1,1.0,1.0,0.6403094207053073,0,0.0,0.0,0.0,0.3531578767044597,0.12136658830364903,0.23179128840081065,0.47452446500810874,0.12136658830364903,0.4625464742615198,1,7,3,4,5,8,nan,nan,nan,nan,nan,nan,nan,nan,nan,nan,nan,nan,0.0,nan,nan,nan,nan,nan,nan,nan,nan,nan,nan,nan,nan,nan,nan,nan,nan,nan,nan,25.312523110595066,1436.2102932870912,nan,1436.8506027077965,nan,nan,nan,nan
1,228,1,1,1.0,1.0,0.527509082457982,0,0.0,1.0,0.0,0.35445720495785715,0.12261571562134213,0.23184148933651502,0.47707292057919926,0.12261571562134213,0.5442922252113931,8,6,7,5,0,2,nan,nan,nan,nan,nan,nan,nan,nan,nan,nan,nan,nan,0.0,nan,nan,nan,nan,nan,nan,nan,nan,nan,nan,nan,nan,nan,nan,nan,nan,nan,nan,25.312523110595066,1437.227077475196,nan,1437.754586557654,nan,nan,nan,nan
1,229,1,1,1.0,1.0,0.5026734903512988,1,0.0,0.0,1.0,0.35523671791956946,0.12288685354106493,0.23234986437850452,0.4781235714606344,0.12288685354106493,0.5568306645048627,1,0,5,8,6,3,1.0,1.0,1.0,1.0,1.0,1.0,0.0,0.0,1.0,0.0,0.0,0.0,1.0,2.0,6.0,5.0,4.0,7.0,8.0,3.0,2.0,1.0,6.0,5.0,4.0,5.585836930054938,4.491656229773071,3.274194766941946,8.19388229001197,7.37777680211002,6.435356557078194,25.312523110595066,1438.2438853263156,1439.0522860872734,1438.746558816667,1448.2950849116605,1449.2992364836682,1440.0607471746334,1448.2867532580276
1,230,1,1,nan,nan,nan,0,0.0,0.0,0.0,0.35589786936545165,0.123006103087592,0.23289176627785965,0.4789039724530436,0.123006103087592,0.5150912864046404,7,3,8,5,4,2,nan,nan,nan,nan,nan,nan,nan,nan,nan,nan,nan,nan,0.0,nan,nan,nan,nan,nan,nan,nan,nan,nan,nan,nan,nan,nan,nan,nan,nan,nan,nan,25.312523110595066,1449.5202684922842,nan,nan,nan,nan,nan,nan
1,231,0,0,1.0,0.0,0.40122796667856164,0,0.0,0.0,0.0,0.35589786936545165,0.123006103087592,0.23289176627785965,0.4789039724530436,0.123006103087592,0.45195072851493023,4,7,0,8,1,5,nan,nan,nan,nan,nan,nan,nan,nan,nan,nan,nan,nan,0.0,nan,nan,nan,nan,nan,nan,nan,nan,nan,nan,nan,nan,nan,nan,nan,nan,nan,nan,25.312523110595066,1450.5370543909667,nan,1450.9382823576452,nan,nan,nan,nan
1,232,1,1,1.0,1.0,0.520418738014996,0,0.0,0.0,0.0,0.35610023587131373,0.12276842776854546,0.23333180810276827,0.4788686636398592,0.12276842776854546,0.46082335234677885,2,8,3,5,6,7,nan,nan,nan,nan,nan,nan,nan,nan,nan,nan,nan,nan,0.0,nan,nan,nan,nan,nan,nan,nan,nan,nan,nan,nan,nan,nan,nan,nan,nan,nan,nan,25.312523110595066,1451.5538382939703,nan,1452.0742570319853,nan,nan,nan,nan
1,233,1,1,1.0,1.0,0.48760045011295006,0,0.0,0.0,0.0,0.35683054032528566,0.12298198645921234,0.23384855386607334,0.479812526784498,0.12298198645921234,0.46974905160216923,6,3,0,1,7,4,nan,nan,nan,nan,nan,nan,nan,nan,nan,nan,nan,nan,0.0,nan,nan,nan,nan,nan,nan,nan,nan,nan,nan,nan,nan,nan,nan,nan,nan,nan,nan,25.312523110595066,1452.5706353113928,nan,1453.0582357615058,nan,nan,nan,nan
1,234,1,1,1.0,1.0,0.6067718348640483,0,0.0,1.0,0.0,0.3574091682447001,0.1230161714261778,0.2343929968185223,0.48042533967087786,0.1230161714261778,0.5382636743306648,3,1,5,8,6,0,nan,nan,nan,nan,nan,nan,nan,nan,nan,nan,nan,nan,0.0,nan,nan,nan,nan,nan,nan,nan,nan,nan,nan,nan,nan,nan,nan,nan,nan,nan,nan,25.312523110595066,1453.587430903368,nan,1454.194202738232,nan,nan,nan,nan
1,235,0,0,0.0,1.0,0.525963290448999,1,0.0,0.0,1.0,0.3585076821945651,0.12385085774465739,0.2346568244499077,0.48235853993922245,0.12385085774465739,0.5401118584753325,6,0,7,1,5,2,1.0,1.0,1.0,1.0,1.0,1.0,1.0,1.0,1.0,1.0,0.0,0.0,4.0,6.0,0.0,7.0,1.0,2.0,3.0,6.0,3.0,2.0,1.0,4.0,5.0,6.409116580733098,3.353532499691937,2.1140772844664752,1.227519089326961,4.560622159915511,5.481412150285905,25.312523110595066,1454.6042276356893,1455.4126398005174,1455.1301909261383,1462.8802247813146,1463.8849174660572,1456.4294331117126,1462.8718951233604
1,236,1,1,nan,nan,nan,0,0.0,0.0,0.0,0.35924213661673365,0.12407339595436155,0.2351687406623721,0.4833155325710952,0.12407339595436155,0.5663675626565237,8,1,3,4,0,5,nan,nan,nan,nan,nan,nan,nan,nan,nan,nan,nan,nan,0.0,nan,nan,nan,nan,nan,nan,nan,nan,nan,nan,nan,nan,nan,nan,nan,nan,nan,nan,25.312523110595066,1464.1054026600032,nan,nan,nan,nan,nan,nan
1,237,1,1,1.0,1.0,0.5754235033818986,0,0.0,0.0,0.0,0.35924213661673365,0.12407339595436155,0.2351687406623721,0.4833155325710952,0.12407339595436155,0.5506933969154488,0,7,2,5,8,3,nan,nan,nan,nan,nan,nan,nan,nan,nan,nan,nan,nan,0.0,nan,nan,nan,nan,nan,nan,nan,nan,nan,nan,nan,nan,nan,nan,nan,nan,nan,nan,25.312523110595066,1465.1304976897372,nan,1465.7059211931191,nan,nan,nan,nan
1,238,1,1,1.0,1.0,0.3185968017205596,0,0.0,0.0,0.0,0.3601861600523894,0.12462011501389623,0.23556604503849315,0.48480627506628565,0.12462011501389623,0.4470101525512291,4,1,5,3,7,8,nan,nan,nan,nan,nan,nan,nan,nan,nan,nan,nan,nan,0.0,nan,nan,nan,nan,nan,nan,nan,nan,nan,nan,nan,nan,nan,nan,nan,nan,nan,nan,25.312523110595066,1466.1473314845935,nan,1466.465928286314,nan,nan,nan,nan
1,239,1,1,1.0,1.0,0.34177769502275623,0,0.0,0.0,0.0,0.36000533675529445,0.12437901029642398,0.23562632645887047,0.4843843470517184,0.12437901029642398,0.41193266670840484,7,6,2,1,5,3,nan,nan,nan,nan,nan,nan,nan,nan,nan,nan,nan,nan,0.0,nan,nan,nan,nan,nan,nan,nan,nan,nan,nan,nan,nan,nan,nan,nan,nan,nan,nan,25.312523110595066,1467.1641102558642,nan,1467.505887950887,nan,nan,nan,nan
1,240,1,1,1.0,1.0,0.30095875027473085,0,0.0,0.0,0.0,0.35992642921532675,0.12411526891981693,0.2358111602955098,0.4840416981351437,0.12411526891981693,0.3204444156726822,2,4,5,0,3,1,nan,nan,nan,nan,nan,nan,nan,nan,nan,nan,nan,nan,0.0,nan,nan,nan,nan,nan,nan,nan,nan,nan,nan,nan,nan,nan,nan,nan,nan,nan,nan,25.312523110595066,1468.1809072732867,nan,1468.4818660235615,nan,nan,nan,nan
1,241,1,1,1.0,1.0,0.27619984906050377,0,0.0,0.0,0.0,0.35967225818541043,0.12390772419011437,0.23576453399529607,0.4835799823755248,0.12390772419011437,0.3063120981193303,0,2,4,3,1,8,nan,nan,nan,nan,nan,nan,nan,nan,nan,nan,nan,nan,0.0,nan,nan,nan,nan,nan,nan,nan,nan,nan,nan,nan,nan,nan,nan,nan,nan,nan,nan,25.312523110595066,1469.1976581051422,nan,1469.4738579542027,nan,nan,nan,nan
1,242,1,1,1.0,1.0,0.33133176737464964,0,0.0,0.0,0.0,0.3593140075024709,0.12376189470695965,0.23555211279551125,0.48307590220943053,0.12376189470695965,0.3028301222366281,4,1,6,8,3,5,nan,nan,nan,nan,nan,nan,nan,nan,nan,nan,nan,nan,0.0,nan,nan,nan,nan,nan,nan,nan,nan,nan,nan,nan,nan,nan,nan,nan,nan,nan,nan,25.312523110595066,1470.2144890490454,nan,1470.54582081642,nan,nan,nan,nan
1,243,1,1,1.0,1.0,0.2745146449597087,0,0.0,0.0,0.0,0.3591944252797024,0.12351065203834828,0.23568377324135414,0.4827050773180507,0.12351065203834828,0.29401542046495405,5,3,1,2,7,0,nan,nan,nan,nan,nan,nan,nan,nan,nan,nan,nan,nan,0.0,nan,nan,nan,nan,nan,nan,nan,nan,nan,nan,nan,nan,nan,nan,nan,nan,nan,nan,25.312523110595066,1471.2312897727243,nan,1471.505804417684,nan,nan,nan,nan
1,244,1,1,1.0,1.0,0.26569918292807415,0,0.0,0.0,0.0,0.3588340857889791,0.12337078423743617,0.2354633015515429,0.4822048700264152,0.12337078423743617,0.2905151984208108,8,7,0,6,2,4,nan,nan,nan,nan,nan,nan,nan,nan,nan,nan,nan,nan,0.0,nan,nan,nan,nan,nan,nan,nan,nan,nan,nan,nan,nan,nan,nan,nan,nan,nan,nan,25.312523110595066,1472.248079092562,nan,1472.51377827549,nan,nan,nan,nan
1,245,1,1,1.0,1.0,0.25688429112778977,0,0.0,0.0,0.0,0.3584394463700769,0.12325768274979813,0.23518176362027876,0.48169712911987506,0.12325768274979813,0.26569937300519086,5,3,6,8,4,1,nan,nan,nan,nan,nan,nan,nan,nan,nan,nan,nan,nan,0.0,nan,nan,nan,nan,nan,nan,nan,nan,nan,nan,nan,nan,nan,nan,nan,nan,nan,nan,25.312523110595066,1473.2648706931504,nan,1473.5217549842782,nan,nan,nan,nan
1,246,1,1,1.0,1.0,0.3116310443729162,0,0.0,0.0,0.0,0.3580109436053415,0.12317339897740029,0.23483754462794124,0.4811843425827418,0.12317339897740029,0.2780715061429267,8,6,5,2,1,0,nan,nan,nan,nan,nan,nan,nan,nan,nan,nan,nan,nan,0.0,nan,nan,nan,nan,nan,nan,nan,nan,nan,nan,nan,nan,nan,nan,nan,nan,nan,nan,25.312523110595066,1474.2900951565825,nan,1474.6017262009555,nan,nan,nan,nan
1,247,1,1,1.0,1.0,0.3508902273897547,0,0.0,0.0,0.0,0.3578160700791549,0.1229509653224578,0.23486510475669709,0.4807670354016127,0.1229509653224578,0.3064685209634869,0,5,8,1,2,6,nan,nan,nan,nan,nan,nan,nan,nan,nan,nan,nan,nan,0.0,nan,nan,nan,nan,nan,nan,nan,nan,nan,nan,nan,nan,nan,nan,nan,nan,nan,nan,25.312523110595066,1475.3068314485135,nan,1475.6577216759033,nan,nan,nan,nan
1,248,1,1,1.0,1.0,0.2540886369824875,0,0.0,0.0,0.0,0.3577870916578603,0.122694290574223,0.23509280108363734,0.4804813822320833,0.122694290574223,0.3055366362483862,5,6,4,0,7,3,nan,nan,nan,nan,nan,nan,nan,nan,nan,nan,nan,nan,0.0,nan,nan,nan,nan,nan,nan,nan,nan,nan,nan,nan,nan,nan,nan,nan,nan,nan,nan,25.312523110595066,1476.3236164919217,nan,1476.5777051289042,nan,nan,nan,nan
1,249,1,1,1.0,1.0,0.31723746267380193,0,0.0,0.0,0.0,0.3573550147633796,0.12262048531171185,0.23473452945166776,0.4799755000750915,0.12262048531171185,0.3074054423486814,6,7,3,8,2,5,nan,nan,nan,nan,nan,nan,nan,nan,nan,nan,nan,nan,0.0,nan,nan,nan,nan,nan,nan,nan,nan,nan,nan,nan,nan,nan,nan,nan,nan,nan,nan,25.312523110595066,1477.3404297598463,nan,1477.65766722252,nan,nan,nan,nan
1,250,1,1,1.0,1.0,0.27646527369506657,0,0.0,0.0,0.0,0.3571885518916386,0.12239299264380504,0.23479555924783357,0.47958154453544366,0.12239299264380504,0.282597124450452,7,0,8,1,3,2,nan,nan,nan,nan,nan,nan,nan,nan,nan,nan,nan,nan,0.0,nan,nan,nan,nan,nan,nan,nan,nan,nan,nan,nan,nan,nan,nan,nan,nan,nan,nan,25.312523110595066,1478.3571671921527,nan,1478.6336324658478,nan,nan,nan,nan
1,251,1,1,1.0,1.0,0.2676714789995458,0,0.0,0.0,0.0,0.3568549846263635,0.12224957674116793,0.23460540788519557,0.47910456136753143,0.12224957674116793,0.2871247384561381,5,1,6,3,0,8,nan,nan,nan,nan,nan,nan,nan,nan,nan,nan,nan,nan,0.0,nan,nan,nan,nan,nan,nan,nan,nan,nan,nan,nan,nan,nan,nan,nan,nan,nan,nan,25.312523110595066,1479.3739525206329,nan,1479.6416239996324,nan,nan,nan,nan
1,252,1,1,1.0,1.0,0.290882877598051,0,0.0,0.0,0.0,0.35648797431514206,0.12213129694733481,0.23435667736780724,0.4786192712624769,0.12213129694733481,0.2783398767642211,4,5,3,8,6,1,nan,nan,nan,nan,nan,nan,nan,nan,nan,nan,nan,nan,0.0,nan,nan,nan,nan,nan,nan,nan,nan,nan,nan,nan,nan,nan,nan,nan,nan,nan,nan,25.312523110595066,1480.3907127606508,nan,1480.6815956382488,nan,nan,nan,nan
1,253,1,1,1.0,1.0,0.49006596274557523,0,0.0,0.0,0.0,0.35621910096794085,0.12195281667723179,0.23426628429070906,0.47817191764517264,0.12195281667723179,0.349540106447724,7,2,4,1,8,0,nan,nan,nan,nan,nan,nan,nan,nan,nan,nan,nan,nan,0.0,nan,nan,nan,nan,nan,nan,nan,nan,nan,nan,nan,nan,nan,nan,nan,nan,nan,nan,25.312523110595066,1481.4075020804885,nan,1481.897568043234,nan,nan,nan,nan
1,254,1,1,1.0,1.0,0.28925782881560735,0,0.0,0.0,0.0,0.3567654146894822,0.12200249741396832,0.23476291727551388,0.4787679121034505,0.12200249741396832,0.3567355563864112,5,1,3,6,4,7,nan,nan,nan,nan,nan,nan,nan,nan,nan,nan,nan,nan,0.0,nan,nan,nan,nan,nan,nan,nan,nan,nan,nan,nan,nan,nan,nan,nan,nan,nan,nan,25.312523110595066,1482.424293396005,nan,1482.7135512248205,nan,nan,nan,nan
1,255,1,1,1.0,1.0,0.28038905377616175,0,0.0,0.0,0.0,0.3564909936086941,0.12183001695319949,0.23466097665549457,0.4783210105618936,0.12183001695319949,0.3532376151124481,2,5,4,8,0,1,nan,nan,nan,nan,nan,nan,nan,nan,nan,nan,nan,nan,0.0,nan,nan,nan,nan,nan,nan,nan,nan,nan,nan,nan,nan,nan,nan,nan,nan,nan,nan,25.312523110595066,1483.441132322594,nan,1483.7215213763702,nan,nan,nan,nan
1,256,1,1,1.0,1.0,0.2636427835095674,0,0.0,0.0,0.0,0.35618288858912917,0.12167914440838969,0.2345037441807395,0.47786203299751884,0.12167914440838969,0.27776322203377884,4,7,1,0,3,6,nan,nan,nan,nan,nan,nan,nan,nan,nan,nan,nan,nan,0.0,nan,nan,nan,nan,nan,nan,nan,nan,nan,nan,nan,nan,nan,nan,nan,nan,nan,nan,25.312523110595066,1484.457876597211,nan,1484.7215193807206,nan,nan,nan,nan
1,257,1,1,1.0,1.0,0.23876727791503072,0,0.0,0.0,0.0,0.355809743004131,0.12157510030565827,0.23423464269847272,0.47738484330978925,0.12157510030565827,0.2609330384002533,8,2,5,6,7,1,nan,nan,nan,nan,nan,nan,nan,nan,nan,nan,nan,nan,0.0,nan,nan,nan,nan,nan,nan,nan,nan,nan,nan,nan,nan,nan,nan,nan,nan,nan,nan,25.312523110595066,1485.4747058305365,nan,1485.7134731084516,nan,nan,nan,nan
1,258,1,1,1.0,1.0,0.3259043895523064,0,0.0,0.0,0.0,0.3553396929435322,0.12155632615043235,0.23378336679309983,0.4768960190939645,0.12155632615043235,0.2761048169923015,6,5,3,8,2,4,nan,nan,nan,nan,nan,nan,nan,nan,nan,nan,nan,nan,0.0,nan,nan,nan,nan,nan,nan,nan,nan,nan,nan,nan,nan,nan,nan,nan,nan,nan,nan,25.312523110595066,1486.491551029234,nan,1486.8174554187863,nan,nan,nan,nan
1,259,1,1,1.0,1.0,0.2291273174341768,0,0.0,0.0,0.0,0.35522195172996723,0.12132719625389471,0.23389475547607252,0.47654914798386194,0.12132719625389471,0.26459966163383797,0,7,4,2,5,1,nan,nan,nan,nan,nan,nan,nan,nan,nan,nan,nan,nan,0.0,nan,nan,nan,nan,nan,nan,nan,nan,nan,nan,nan,nan,nan,nan,nan,nan,nan,nan,25.312523110595066,1487.5082990101364,nan,1487.7374263275706,nan,nan,nan,nan
1,260,1,1,1.0,1.0,0.2043193796707783,0,0.0,0.0,0.0,0.35471958266902787,0.12134552176016539,0.23337406090886248,0.47606510442919325,0.12134552176016539,0.2531170288857538,2,8,3,4,1,6,nan,nan,nan,nan,nan,nan,nan,nan,nan,nan,nan,nan,0.0,nan,nan,nan,nan,nan,nan,nan,nan,nan,nan,nan,nan,nan,nan,nan,nan,nan,nan,25.312523110595066,1488.5250866193965,nan,1488.7294059990672,nan,nan,nan,nan
1,261,1,1,1.0,1.0,0.25948693504324183,0,1.0,0.0,0.0,0.35412275646665387,0.12147308648850208,0.23264966997815179,0.47559584295515595,0.12147308648850208,0.23097787738273232,7,5,8,6,3,2,nan,nan,nan,nan,nan,nan,nan,nan,nan,nan,nan,nan,0.0,nan,nan,nan,nan,nan,nan,nan,nan,nan,nan,nan,nan,nan,nan,nan,nan,nan,nan,25.312523110595066,1489.5418853473966,nan,1489.8013722824398,nan,nan,nan,nan
1,262,1,1,1.0,1.0,0.09066631845780648,1,0.0,0.0,1.0,0.3537487018365218,0.12137811509494065,0.23237058674158115,0.4751268169314624,0.12137811509494065,0.18482421105727553,4,1,6,2,0,7,1.0,1.0,1.0,1.0,1.0,1.0,0.0,0.0,0.0,0.0,0.0,0.0,0.0,3.0,8.0,7.0,5.0,4.0,1.0,3.0,2.0,1.0,6.0,5.0,4.0,6.213878087699413,5.502418044081423,4.791102259187028,8.6696033483895,7.989475385780679,7.142018430342432,25.312523110595066,1490.5586718162813,1491.36708854264,1490.649338134739,1501.0932755196118,1502.1040629926138,1492.383894968254,1501.0849427256035
1,263,1,1,nan,nan,nan,0,0.0,0.0,0.0,0.35271294442164497,0.12225408383090922,0.23045886059073575,0.4749670282525542,0.12225408383090922,0.17507662675052416,3,8,1,7,6,4,nan,nan,nan,nan,nan,nan,nan,nan,nan,nan,nan,nan,0.0,nan,nan,nan,nan,nan,nan,nan,nan,nan,nan,nan,nan,nan,nan,nan,nan,nan,nan,25.312523110595066,1502.3267913240707,nan,nan,nan,nan,nan,nan
1,264,1,1,1.0,1.0,0.6014696142810863,0,0.0,0.0,0.0,0.35271294442164497,0.12225408383090922,0.23045886059073575,0.4749670282525542,0.12225408383090922,0.34606796636944637,7,0,4,8,2,5,nan,nan,nan,nan,nan,nan,nan,nan,nan,nan,nan,nan,0.0,nan,nan,nan,nan,nan,nan,nan,nan,nan,nan,nan,nan,nan,nan,nan,nan,nan,nan,25.312523110595066,1503.3435777929553,nan,1503.9450474072364,nan,nan,nan,nan
1,265,1,1,1.0,1.0,0.34465460159117356,0,0.0,0.0,0.0,0.35368846077403493,0.12300066494300464,0.23068779583103027,0.4766891257170396,0.12300066494300464,0.4730621079361299,0,7,3,6,4,8,nan,nan,nan,nan,nan,nan,nan,nan,nan,nan,nan,nan,0.0,nan,nan,nan,nan,nan,nan,nan,nan,nan,nan,nan,nan,nan,nan,nan,nan,nan,nan,25.312523110595066,1504.3603708190203,nan,1504.7050254206115,nan,nan,nan,nan
1,266,0,0,nan,nan,nan,0,0.0,0.0,0.0,0.35365317226160187,0.1227614875576778,0.23089168470392407,0.47641465981927966,0.1227614875576778,0.4730621079361299,3,4,8,7,0,5,nan,nan,nan,nan,nan,nan,nan,nan,nan,nan,nan,nan,0.0,nan,nan,nan,nan,nan,nan,nan,nan,nan,nan,nan,nan,nan,nan,nan,nan,nan,nan,25.312523110595066,1505.3771592835838,nan,nan,nan,nan,nan,nan
1,267,1,1,1.0,1.0,0.4710266630863771,0,0.0,0.0,0.0,0.35365317226160187,0.1227614875576778,0.23089168470392407,0.47641465981927966,0.1227614875576778,0.4078406323387753,1,0,4,2,5,3,nan,nan,nan,nan,nan,nan,nan,nan,nan,nan,nan,nan,0.0,nan,nan,nan,nan,nan,nan,nan,nan,nan,nan,nan,nan,nan,nan,nan,nan,nan,nan,25.312523110595066,1506.3939511692734,nan,1506.8649778323597,nan,nan,nan,nan
1,268,1,1,1.0,1.0,0.34220106300199404,0,0.0,0.0,0.0,0.35410987845158154,0.12274013127226446,0.23136974717931708,0.476850009723846,0.12274013127226446,0.40661386304418556,0,5,8,1,6,7,nan,nan,nan,nan,nan,nan,nan,nan,nan,nan,nan,nan,0.0,nan,nan,nan,nan,nan,nan,nan,nan,nan,nan,nan,nan,nan,nan,nan,nan,nan,nan,25.312523110595066,1507.4107516078802,nan,1507.7529526708822,nan,nan,nan,nan
1,269,1,1,1.0,1.0,0.3410851961816661,0,0.0,0.0,0.0,0.35406372025216454,0.12250426673715138,0.23155945351501317,0.4765679869893159,0.12250426673715138,0.38477097409001243,3,6,4,0,2,5,nan,nan,nan,nan,nan,nan,nan,nan,nan,nan,nan,nan,0.0,nan,nan,nan,nan,nan,nan,nan,nan,nan,nan,nan,nan,nan,nan,nan,nan,nan,nan,25.312523110595066,1508.4358469226863,nan,1508.776932118868,nan,nan,nan,nan
1,270,1,1,1.0,1.0,0.2842312963330187,0,0.0,0.0,0.0,0.3540136101206182,0.1222701925571728,0.2317434175634454,0.476283802677791,0.1222701925571728,0.32250585183889297,0,4,8,6,5,2,nan,nan,nan,nan,nan,nan,nan,nan,nan,nan,nan,nan,0.0,nan,nan,nan,nan,nan,nan,nan,nan,nan,nan,nan,nan,nan,nan,nan,nan,nan,nan,25.312523110595066,1509.4526707391778,nan,1509.7369020355109,nan,nan,nan,nan
1,271,1,1,1.0,1.0,0.33942222959012724,0,0.0,0.0,0.0,0.3537452166060505,0.12211124875861293,0.2316339678474376,0.4758564653646634,0.12211124875861293,0.32157957403493737,1,8,7,5,0,6,nan,nan,nan,nan,nan,nan,nan,nan,nan,nan,nan,nan,0.0,nan,nan,nan,nan,nan,nan,nan,nan,nan,nan,nan,nan,nan,nan,nan,nan,nan,nan,25.312523110595066,1510.469461484492,nan,1510.8088837140822,nan,nan,nan,nan
1,272,1,1,1.0,1.0,0.3946057503344491,0,0.0,0.0,0.0,0.35369033926116195,0.12188030685615373,0.23181003240500822,0.4755706461173157,0.12188030685615373,0.33941975875253166,7,6,4,0,2,8,nan,nan,nan,nan,nan,nan,nan,nan,nan,nan,nan,nan,0.0,nan,nan,nan,nan,nan,nan,nan,nan,nan,nan,nan,nan,nan,nan,nan,nan,nan,nan,25.312523110595066,1511.4862528000085,nan,1511.880858550343,nan,nan,nan,nan
1,273,0,0,0.0,1.0,0.5537889722909313,0,0.0,0.0,0.0,0.3538465049522813,0.12167364813318912,0.2321728568190922,0.47552015308547047,0.12167364813318912,0.4292723174051692,5,8,6,1,3,2,nan,nan,nan,nan,nan,nan,nan,nan,nan,nan,nan,nan,0.0,nan,nan,nan,nan,nan,nan,nan,nan,nan,nan,nan,nan,nan,nan,nan,nan,nan,nan,25.312523110595066,1512.5030438304238,nan,1513.0568328027148,nan,nan,nan,nan
1,274,1,1,1.0,1.0,0.3049948583065998,0,0.0,0.0,0.0,0.35460674247067925,0.12206396547878098,0.23254277699189826,0.4766707079494602,0.12206396547878098,0.4177965269773267,4,6,0,8,2,5,nan,nan,nan,nan,nan,nan,nan,nan,nan,nan,nan,nan,0.0,nan,nan,nan,nan,nan,nan,nan,nan,nan,nan,nan,nan,nan,nan,nan,nan,nan,nan,25.312523110595066,1513.5198257377488,nan,1513.8248205960554,nan,nan,nan,nan
