block,trial,freq_trials,correct_response,actual_response,acc,rts,probe_trials,fast_rt_trigger,slow_rt_trigger,rt_triggered,rts_runningavg,rts_runningstd,rts_runningfastthresh,rts_runningslowthresh,rts_runningstd,rts_trailingavg,trials_colorind0,trials_colorind1,trials_colorind2,trials_colorind3,trials_colorind4,trials_colorind5,wholereport_resp0,wholereport_resp1,wholereport_resp2,wholereport_resp3,wholereport_resp4,wholereport_resp5,wholereport_respacc0,wholereport_respacc1,wholereport_respacc2,wholereport_respacc3,wholereport_respacc4,wholereport_respacc5,wholereport_respacc_total,wholereport_respcolorind0,wholereport_respcolorind1,wholereport_respcolorind2,wholereport_respcolorind3,wholereport_respcolorind4,wholereport_respcolorind5,wholereport_resporder0,wholereport_resporder1,wholereport_resporder2,wholereport_resporder3,wholereport_resporder4,wholereport_resporder5,wholereport_rts0,wholereport_rts1,wholereport_rts2,wholereport_rts3,wholereport_rts4,wholereport_rts5,time_blockstart,time_encarray_offset,time_encarray_onset,time_response,time_iti_offset,time_iti_onset,time_memprobe_offset,time_memprobe_onset
1,1,1,1,1.0,1.0,0.5600380091345869,0,nan,nan,nan,nan,nan,nan,nan,nan,nan,7,8,4,1,5,3,nan,nan,nan,nan,nan,nan,nan,nan,nan,nan,nan,nan,0.0,nan,nan,nan,nan,nan,nan,nan,nan,nan,nan,nan,nan,nan,nan,nan,nan,nan,nan,1588.9215250523412,1589.937490484881,nan,1590.4975284940156,nan,nan,nan,nan
1,2,1,1,1.0,1.0,0.37473179498920217,0,nan,nan,nan,nan,nan,nan,nan,nan,nan,8,2,5,6,0,7,nan,nan,nan,nan,nan,nan,nan,nan,nan,nan,nan,nan,0.0,nan,nan,nan,nan,nan,nan,nan,nan,nan,nan,nan,nan,nan,nan,nan,nan,nan,nan,1588.9215250523412,1590.9627629093302,nan,1591.3374947043194,nan,nan,nan,nan
1,3,1,1,1.0,1.0,0.24573252539266832,0,nan,nan,nan,nan,nan,nan,nan,nan,nan,1,7,3,4,8,0,nan,nan,nan,nan,nan,nan,nan,nan,nan,nan,nan,nan,0.0,nan,nan,nan,nan,nan,nan,nan,nan,nan,nan,nan,nan,nan,nan,nan,nan,nan,nan,1588.9215250523412,1591.9877593598794,nan,1592.233491885272,nan,nan,nan,nan
1,4,1,1,1.0,1.0,0.3325052215659525,0,nan,nan,nan,nan,nan,nan,nan,nan,nan,0,4,8,5,1,3,nan,nan,nan,nan,nan,nan,nan,nan,nan,nan,nan,nan,0.0,nan,nan,nan,nan,nan,nan,nan,nan,nan,nan,nan,nan,nan,nan,nan,nan,nan,nan,1588.9215250523412,1593.0129468254163,nan,1593.3454520469822,nan,nan,nan,nan
1,5,1,1,1.0,1.0,0.26073119399370626,0,nan,nan,nan,nan,nan,nan,nan,nan,nan,7,3,0,4,5,6,nan,nan,nan,nan,nan,nan,nan,nan,nan,nan,nan,nan,0.0,nan,nan,nan,nan,nan,nan,nan,nan,nan,nan,nan,nan,nan,nan,nan,nan,nan,nan,1588.9215250523412,1594.2047201801324,nan,1594.4654513741261,nan,nan,nan,nan
1,6,1,1,1.0,1.0,0.3875879595580045,0,nan,nan,nan,nan,nan,nan,nan,nan,nan,2,4,1,7,6,5,nan,nan,nan,nan,nan,nan,nan,nan,nan,nan,nan,nan,0.0,nan,nan,nan,nan,nan,nan,nan,nan,nan,nan,nan,nan,nan,nan,nan,nan,nan,nan,1588.9215250523412,1595.229830669472,nan,1595.61741862903,nan,nan,nan,nan
1,7,1,1,1.0,1.0,0.3624141786713153,0,nan,nan,nan,nan,nan,nan,nan,nan,nan,7,3,6,1,2,0,nan,nan,nan,nan,nan,nan,nan,nan,nan,nan,nan,nan,0.0,nan,nan,nan,nan,nan,nan,nan,nan,nan,nan,nan,nan,nan,nan,nan,nan,nan,nan,1588.9215250523412,1596.2549884849286,nan,1596.6174026636,nan,nan,nan,nan
1,8,0,0,0.0,1.0,0.6575665601703804,0,nan,nan,nan,nan,nan,nan,nan,nan,nan,1,6,8,5,3,2,nan,nan,nan,nan,nan,nan,nan,nan,nan,nan,nan,nan,0.0,nan,nan,nan,nan,nan,nan,nan,nan,nan,nan,nan,nan,nan,nan,nan,nan,nan,nan,1588.9215250523412,1597.2718049320683,nan,1597.9293714922387,nan,nan,nan,nan
1,9,1,1,1.0,1.0,0.4404138696263544,0,nan,nan,nan,nan,nan,nan,nan,nan,nan,4,7,6,0,8,5,nan,nan,nan,nan,nan,nan,nan,nan,nan,nan,nan,nan,0.0,nan,nan,nan,nan,nan,nan,nan,nan,nan,nan,nan,nan,nan,nan,nan,nan,nan,nan,1588.9215250523412,1598.2969405099575,nan,1598.7373543795838,nan,nan,nan,nan
1,10,1,1,1.0,1.0,0.6792687147681136,1,nan,nan,nan,nan,nan,nan,nan,nan,nan,7,6,4,5,1,0,1.0,1.0,1.0,1.0,1.0,1.0,0.0,0.0,0.0,0.0,0.0,0.0,0.0,0.0,2.0,2.0,7.0,2.0,7.0,5.0,6.0,1.0,2.0,3.0,4.0,9.809867663658224,13.569982477929443,3.0343641680956353,3.970996225893032,4.714577694365289,8.266143760731211,1588.9215250523412,1599.3220524247736,1600.1304692297708,1600.0013211395417,1614.7573673343868,1615.763662561454,1601.1472888129647,1614.749028817023
1,11,1,1,nan,nan,nan,0,nan,nan,nan,nan,nan,nan,nan,nan,nan,2,8,0,6,7,5,nan,nan,nan,nan,nan,nan,nan,nan,nan,nan,nan,nan,0.0,nan,nan,nan,nan,nan,nan,nan,nan,nan,nan,nan,nan,nan,nan,nan,nan,nan,nan,1588.9215250523412,1615.9908615004388,nan,nan,nan,nan,nan,nan
1,12,1,1,nan,nan,nan,0,nan,nan,nan,nan,nan,nan,nan,nan,nan,7,4,1,2,0,3,nan,nan,nan,nan,nan,nan,nan,nan,nan,nan,nan,nan,0.0,nan,nan,nan,nan,nan,nan,nan,nan,nan,nan,nan,nan,nan,nan,nan,nan,nan,nan,1588.9215250523412,1617.0160196009965,nan,nan,nan,nan,nan,nan
1,13,1,1,1.0,1.0,0.511799309955677,0,nan,nan,nan,nan,nan,nan,nan,nan,nan,6,2,8,3,7,5,nan,nan,nan,nan,nan,nan,nan,nan,nan,nan,nan,nan,0.0,nan,nan,nan,nan,nan,nan,nan,nan,nan,nan,nan,nan,nan,nan,nan,nan,nan,nan,1588.9215250523412,1618.0411603106186,nan,1618.5529596205743,nan,nan,nan,nan
1,14,1,1,nan,nan,nan,0,nan,nan,nan,nan,nan,nan,nan,nan,nan,2,4,3,8,5,6,nan,nan,nan,nan,nan,nan,nan,nan,nan,nan,nan,nan,0.0,nan,nan,nan,nan,nan,nan,nan,nan,nan,nan,nan,nan,nan,nan,nan,nan,nan,nan,1588.9215250523412,1619.0662759317202,nan,nan,nan,nan,nan,nan
1,15,1,1,nan,nan,nan,0,nan,nan,nan,nan,nan,nan,nan,nan,nan,4,7,5,6,0,2,nan,nan,nan,nan,nan,nan,nan,nan,nan,nan,nan,nan,0.0,nan,nan,nan,nan,nan,nan,nan,nan,nan,nan,nan,nan,nan,nan,nan,nan,nan,nan,1588.9215250523412,1620.091471094871,nan,nan,nan,nan,nan,nan
1,16,1,1,nan,nan,nan,1,nan,nan,nan,nan,nan,nan,nan,nan,nan,7,0,2,8,3,5,1.0,1.0,1.0,1.0,1.0,1.0,0.0,0.0,1.0,0.0,0.0,0.0,1.0,0.0,1.0,2.0,5.0,5.0,7.0,5.0,6.0,1.0,2.0,3.0,4.0,14.063650473341113,15.32763861559215,1.5446173969539814,7.113558700628346,10.456523846369237,12.536125212325715,1588.9215250523412,1621.1165422408376,1621.9249770069146,nan,1638.3020953489759,1639.3036029419745,1622.9334401116648,1638.293759682594
1,17,1,1,nan,nan,nan,0,nan,nan,nan,nan,nan,nan,nan,nan,nan,6,7,8,3,4,1,nan,nan,nan,nan,nan,nan,nan,nan,nan,nan,nan,nan,0.0,nan,nan,nan,nan,nan,nan,nan,nan,nan,nan,nan,nan,nan,nan,nan,nan,nan,nan,1588.9215250523412,1639.527355913393,nan,nan,nan,nan,nan,nan
1,18,1,1,1.0,1.0,0.47200917557347566,0,nan,nan,nan,nan,nan,nan,nan,nan,nan,8,5,6,7,3,4,nan,nan,nan,nan,nan,nan,nan,nan,nan,nan,nan,nan,0.0,nan,nan,nan,nan,nan,nan,nan,nan,nan,nan,nan,nan,nan,nan,nan,nan,nan,nan,1588.9215250523412,1640.5524165107636,nan,1641.024425686337,nan,nan,nan,nan
1,19,1,1,1.0,1.0,0.7748862605367322,0,nan,nan,nan,nan,nan,nan,nan,nan,nan,4,8,0,1,6,5,nan,nan,nan,nan,nan,nan,nan,nan,nan,nan,nan,nan,0.0,nan,nan,nan,nan,nan,nan,nan,nan,nan,nan,nan,nan,nan,nan,nan,nan,nan,nan,1588.9215250523412,1641.5775586458913,nan,1642.352444906428,nan,nan,nan,nan
1,20,1,1,1.0,1.0,0.5337437970156316,0,nan,nan,nan,nan,nan,nan,nan,nan,nan,8,2,7,5,4,3,nan,nan,nan,nan,nan,nan,nan,nan,nan,nan,nan,nan,0.0,nan,nan,nan,nan,nan,nan,nan,nan,nan,nan,nan,nan,nan,nan,nan,nan,nan,nan,1588.9215250523412,1642.60269621943,nan,1643.1364400164457,nan,nan,nan,nan
1,21,0,0,nan,nan,nan,0,nan,nan,nan,nan,nan,nan,nan,nan,nan,6,5,8,4,2,7,nan,nan,nan,nan,nan,nan,nan,nan,nan,nan,nan,nan,0.0,nan,nan,nan,nan,nan,nan,nan,nan,nan,nan,nan,nan,nan,nan,nan,nan,nan,nan,1588.9215250523412,1643.6361554896284,nan,nan,nan,nan,nan,nan
1,22,1,1,0.0,0.0,0.23503254953539,0,nan,nan,0.0,nan,nan,nan,nan,nan,nan,7,4,2,0,1,8,nan,nan,nan,nan,nan,nan,nan,nan,nan,nan,nan,nan,0.0,nan,nan,nan,nan,nan,nan,nan,nan,nan,nan,nan,nan,nan,nan,nan,nan,nan,nan,1588.9215250523412,1644.6613785922818,nan,1644.8964111418172,nan,nan,nan,nan
1,23,1,1,nan,nan,nan,0,nan,nan,nan,nan,nan,nan,nan,nan,nan,8,3,1,5,0,7,nan,nan,nan,nan,nan,nan,nan,nan,nan,nan,nan,nan,0.0,nan,nan,nan,nan,nan,nan,nan,nan,nan,nan,nan,nan,nan,nan,nan,nan,nan,nan,1588.9215250523412,1645.6864163819118,nan,nan,nan,nan,nan,nan
1,24,1,1,nan,nan,nan,0,nan,nan,nan,nan,nan,nan,nan,nan,nan,0,1,3,7,8,5,nan,nan,nan,nan,nan,nan,nan,nan,nan,nan,nan,nan,0.0,nan,nan,nan,nan,nan,nan,nan,nan,nan,nan,nan,nan,nan,nan,nan,nan,nan,nan,1588.9215250523412,1646.7115556660574,nan,nan,nan,nan,nan,nan
1,25,1,1,1.0,1.0,0.6876308951759711,0,nan,nan,nan,nan,nan,nan,nan,nan,nan,3,6,8,5,4,7,nan,nan,nan,nan,nan,nan,nan,nan,nan,nan,nan,nan,0.0,nan,nan,nan,nan,nan,nan,nan,nan,nan,nan,nan,nan,nan,nan,nan,nan,nan,nan,1588.9215250523412,1647.7366920992208,nan,1648.4243229943968,nan,nan,nan,nan
1,26,0,0,1.0,0.0,0.07849632995203137,0,nan,nan,0.0,nan,nan,nan,nan,nan,nan,6,1,3,4,2,8,nan,nan,nan,nan,nan,nan,nan,nan,nan,nan,nan,nan,0.0,nan,nan,nan,nan,nan,nan,nan,nan,nan,nan,nan,nan,nan,nan,nan,nan,nan,nan,1588.9215250523412,1648.7618336641463,nan,1648.8403299940983,nan,nan,nan,nan
1,27,1,1,1.0,1.0,0.46132259923615493,0,nan,nan,nan,nan,nan,nan,nan,nan,nan,1,8,0,2,3,6,nan,nan,nan,nan,nan,nan,nan,nan,nan,nan,nan,nan,0.0,nan,nan,nan,nan,nan,nan,nan,nan,nan,nan,nan,nan,nan,nan,nan,nan,nan,nan,1588.9215250523412,1649.786968101631,nan,1650.248290700867,nan,nan,nan,nan
1,28,1,1,1.0,1.0,0.6841270529257599,0,nan,nan,nan,nan,nan,nan,nan,nan,nan,3,4,2,5,8,1,nan,nan,nan,nan,nan,nan,nan,nan,nan,nan,nan,nan,0.0,nan,nan,nan,nan,nan,nan,nan,nan,nan,nan,nan,nan,nan,nan,nan,nan,nan,nan,1588.9215250523412,1650.8120934160252,nan,1651.496220468951,nan,nan,nan,nan
1,29,0,0,nan,nan,nan,0,nan,nan,nan,nan,nan,nan,nan,nan,nan,0,5,7,3,6,4,nan,nan,nan,nan,nan,nan,nan,nan,nan,nan,nan,nan,0.0,nan,nan,nan,nan,nan,nan,nan,nan,nan,nan,nan,nan,nan,nan,nan,nan,nan,nan,1588.9215250523412,1651.8372478103265,nan,nan,nan,nan,nan,nan
1,30,1,1,0.0,0.0,0.26588318205904216,0,nan,nan,0.0,nan,nan,nan,nan,nan,nan,4,0,2,1,7,3,nan,nan,nan,nan,nan,nan,nan,nan,nan,nan,nan,nan,0.0,nan,nan,nan,nan,nan,nan,nan,nan,nan,nan,nan,nan,nan,nan,nan,nan,nan,nan,1588.9215250523412,1652.8623600102437,nan,1653.1282431923028,nan,nan,nan,nan
1,31,1,1,1.0,1.0,0.4247187090222724,0,nan,nan,nan,nan,nan,nan,nan,nan,nan,8,3,1,6,2,7,nan,nan,nan,nan,nan,nan,nan,nan,nan,nan,nan,nan,0.0,nan,nan,nan,nan,nan,nan,nan,nan,nan,nan,nan,nan,nan,nan,nan,nan,nan,nan,1588.9215250523412,1653.8874913116742,nan,1654.3122100206965,nan,nan,nan,nan
1,32,1,1,1.0,1.0,0.3355626018892508,0,nan,nan,nan,nan,nan,nan,nan,nan,nan,6,4,5,8,1,0,nan,nan,nan,nan,nan,nan,nan,nan,nan,nan,nan,nan,0.0,nan,nan,nan,nan,nan,nan,nan,nan,nan,nan,nan,nan,nan,nan,nan,nan,nan,nan,1588.9215250523412,1654.912625749159,nan,1655.2481883510482,nan,nan,nan,nan
1,33,1,1,1.0,1.0,0.2144126232014969,0,nan,nan,nan,nan,nan,nan,nan,nan,nan,4,7,0,2,6,5,nan,nan,nan,nan,nan,nan,nan,nan,nan,nan,nan,nan,0.0,nan,nan,nan,nan,nan,nan,nan,nan,nan,nan,nan,nan,nan,nan,nan,nan,nan,nan,1588.9215250523412,1655.9377670289832,nan,1656.1521796521847,nan,nan,nan,nan
1,34,1,1,1.0,1.0,0.30128367780707777,0,nan,nan,nan,nan,nan,nan,nan,nan,nan,8,5,1,3,4,2,nan,nan,nan,nan,nan,nan,nan,nan,nan,nan,nan,nan,0.0,nan,nan,nan,nan,nan,nan,nan,nan,nan,nan,nan,nan,nan,nan,nan,nan,nan,nan,1588.9215250523412,1656.9628823649837,nan,1657.2641660427907,nan,nan,nan,nan
1,35,1,1,1.0,1.0,0.25199553652782924,0,nan,nan,nan,nan,nan,nan,nan,nan,nan,5,6,3,0,7,1,nan,nan,nan,nan,nan,nan,nan,nan,nan,nan,nan,nan,0.0,nan,nan,nan,nan,nan,nan,nan,nan,nan,nan,nan,nan,nan,nan,nan,nan,nan,nan,1588.9215250523412,1657.9881325518654,nan,1658.2401280883932,nan,nan,nan,nan
1,36,1,1,1.0,1.0,0.19495560752693564,0,nan,nan,nan,nan,nan,nan,nan,nan,nan,1,3,0,8,6,4,nan,nan,nan,nan,nan,nan,nan,nan,nan,nan,nan,nan,0.0,nan,nan,nan,nan,nan,nan,nan,nan,nan,nan,nan,nan,nan,nan,nan,nan,nan,nan,1588.9215250523412,1659.0131572270184,nan,1659.2081128345453,nan,nan,nan,nan
1,37,1,1,1.0,1.0,0.23381547039025463,0,nan,nan,nan,nan,nan,nan,nan,nan,nan,6,7,4,5,0,2,nan,nan,nan,nan,nan,nan,nan,nan,nan,nan,nan,nan,0.0,nan,nan,nan,nan,nan,nan,nan,nan,nan,nan,nan,nan,nan,nan,nan,nan,nan,nan,1588.9215250523412,1660.0382788351271,nan,1660.2720943055174,nan,nan,nan,nan
1,38,1,1,1.0,1.0,0.040623187844175845,1,nan,nan,nan,nan,nan,nan,nan,nan,nan,2,3,6,1,8,5,1.0,1.0,1.0,1.0,1.0,1.0,0.0,0.0,1.0,0.0,0.0,0.0,1.0,8.0,5.0,6.0,3.0,7.0,4.0,6.0,3.0,1.0,2.0,4.0,5.0,12.867516844969941,5.492567520966986,2.404722574952757,3.932390954665607,8.84378194870078,12.131526939687319,1588.9215250523412,1661.063421255356,1661.8718503194978,1661.1040444432,1675.7986505218141,1676.805268193595,1662.888652511785,1675.7903168511111
1,39,1,1,nan,nan,nan,0,nan,nan,nan,nan,nan,nan,nan,nan,nan,7,8,1,4,6,0,nan,nan,nan,nan,nan,nan,nan,nan,nan,nan,nan,nan,0.0,nan,nan,nan,nan,nan,nan,nan,nan,nan,nan,nan,nan,nan,nan,nan,nan,nan,nan,1588.9215250523412,1677.0321483941225,nan,nan,nan,nan,nan,nan
1,40,1,1,1.0,1.0,0.6703885130991694,0,nan,nan,nan,nan,nan,nan,nan,nan,nan,6,5,0,7,4,3,nan,nan,nan,nan,nan,nan,nan,nan,nan,nan,nan,nan,0.0,nan,nan,nan,nan,nan,nan,nan,nan,nan,nan,nan,nan,nan,nan,nan,nan,nan,nan,1588.9215250523412,1678.057318753854,nan,1678.727707266953,nan,nan,nan,nan
1,41,1,1,1.0,1.0,0.013220233464380726,0,nan,nan,nan,nan,nan,nan,nan,nan,nan,8,4,7,0,5,1,nan,nan,nan,nan,nan,nan,nan,nan,nan,nan,nan,nan,0.0,nan,nan,nan,nan,nan,nan,nan,nan,nan,nan,nan,nan,nan,nan,nan,nan,nan,nan,1588.9215250523412,1679.0824449235224,nan,1679.0956651569868,nan,nan,nan,nan
1,42,1,1,1.0,1.0,0.2601016998232808,0,nan,nan,nan,nan,nan,nan,nan,nan,nan,1,5,4,2,6,3,nan,nan,nan,nan,nan,nan,nan,nan,nan,nan,nan,nan,0.0,nan,nan,nan,nan,nan,nan,nan,nan,nan,nan,nan,nan,nan,nan,nan,nan,nan,nan,1588.9215250523412,1680.1075722335954,nan,1680.3676739334187,nan,nan,nan,nan
1,43,1,1,1.0,1.0,0.09090660279616714,0,nan,nan,nan,nan,nan,nan,nan,nan,nan,4,1,8,7,5,6,nan,nan,nan,nan,nan,nan,nan,nan,nan,nan,nan,nan,0.0,nan,nan,nan,nan,nan,nan,nan,nan,nan,nan,nan,nan,nan,nan,nan,nan,nan,nan,1588.9215250523412,1681.132755992876,nan,1681.223662595672,nan,nan,nan,nan
1,44,1,1,nan,nan,nan,0,nan,nan,nan,nan,nan,nan,nan,nan,nan,6,7,1,8,0,5,nan,nan,nan,nan,nan,nan,nan,nan,nan,nan,nan,nan,0.0,nan,nan,nan,nan,nan,nan,nan,nan,nan,nan,nan,nan,nan,nan,nan,nan,nan,nan,1588.9215250523412,1682.157843959576,nan,nan,nan,nan,nan,nan
1,45,1,1,nan,nan,nan,0,nan,nan,nan,nan,nan,nan,nan,nan,nan,8,6,2,5,4,3,nan,nan,nan,nan,nan,nan,nan,nan,nan,nan,nan,nan,0.0,nan,nan,nan,nan,nan,nan,nan,nan,nan,nan,nan,nan,nan,nan,nan,nan,nan,nan,1588.9215250523412,1683.182979537436,nan,nan,nan,nan,nan,nan
1,46,1,1,nan,nan,nan,0,nan,nan,nan,nan,nan,nan,nan,nan,nan,7,4,3,2,6,1,nan,nan,nan,nan,nan,nan,nan,nan,nan,nan,nan,nan,0.0,nan,nan,nan,nan,nan,nan,nan,nan,nan,nan,nan,nan,nan,nan,nan,nan,nan,nan,1588.9215250523412,1684.2081102686934,nan,nan,nan,nan,nan,nan
1,47,1,1,1.0,1.0,0.04634308916865848,0,nan,nan,nan,nan,nan,nan,nan,nan,nan,1,6,4,8,3,0,nan,nan,nan,nan,nan,nan,nan,nan,nan,nan,nan,nan,0.0,nan,nan,nan,nan,nan,nan,nan,nan,nan,nan,nan,nan,nan,nan,nan,nan,nan,nan,1588.9215250523412,1685.2332467018568,nan,1685.2795897910255,nan,nan,nan,nan
1,48,1,1,1.0,1.0,0.7011439232446719,0,nan,nan,nan,nan,nan,nan,nan,nan,nan,5,1,8,3,2,7,nan,nan,nan,nan,nan,nan,nan,nan,nan,nan,nan,nan,0.0,nan,nan,nan,nan,nan,nan,nan,nan,nan,nan,nan,nan,nan,nan,nan,nan,nan,nan,1588.9215250523412,1686.2583817095438,nan,1686.9595256327884,nan,nan,nan,nan
1,49,1,1,1.0,1.0,0.46800327746313997,0,nan,nan,nan,nan,nan,nan,nan,nan,nan,4,0,7,2,8,6,nan,nan,nan,nan,nan,nan,nan,nan,nan,nan,nan,nan,0.0,nan,nan,nan,nan,nan,nan,nan,nan,nan,nan,nan,nan,nan,nan,nan,nan,nan,nan,1588.9215250523412,1687.2835215638916,nan,1687.7515248413547,nan,nan,nan,nan
1,50,1,1,1.0,1.0,0.22683772107120603,0,nan,nan,nan,nan,nan,nan,nan,nan,nan,0,2,1,3,7,4,nan,nan,nan,nan,nan,nan,nan,nan,nan,nan,nan,nan,0.0,nan,nan,nan,nan,nan,nan,nan,nan,nan,nan,nan,nan,nan,nan,nan,nan,nan,nan,1588.9215250523412,1688.3086642691924,nan,1688.5355019902636,nan,nan,nan,nan
1,51,1,1,nan,nan,nan,0,nan,nan,nan,nan,nan,nan,nan,nan,nan,2,3,8,7,4,0,nan,nan,nan,nan,nan,nan,nan,nan,nan,nan,nan,nan,0.0,nan,nan,nan,nan,nan,nan,nan,nan,nan,nan,nan,nan,nan,nan,nan,nan,nan,nan,1588.9215250523412,1689.3337730479543,nan,nan,nan,nan,nan,nan
1,52,1,1,1.0,1.0,0.7045177612453699,0,nan,nan,nan,nan,nan,nan,nan,nan,nan,4,0,6,1,5,3,nan,nan,nan,nan,nan,nan,nan,nan,nan,nan,nan,nan,0.0,nan,nan,nan,nan,nan,nan,nan,nan,nan,nan,nan,nan,nan,nan,nan,nan,nan,nan,1588.9215250523412,1690.3588849627995,nan,1691.0634027240449,nan,nan,nan,nan
1,53,1,1,1.0,1.0,0.4314087954699062,0,nan,nan,nan,nan,nan,nan,nan,nan,nan,8,5,4,2,7,0,nan,nan,nan,nan,nan,nan,nan,nan,nan,nan,nan,nan,0.0,nan,nan,nan,nan,nan,nan,nan,nan,nan,nan,nan,nan,nan,nan,nan,nan,nan,nan,1588.9215250523412,1691.384050190769,nan,1691.8154589862388,nan,nan,nan,nan
1,54,1,1,1.0,1.0,0.2302671530051157,0,nan,nan,nan,nan,nan,nan,nan,nan,nan,0,8,6,1,3,7,nan,nan,nan,nan,nan,nan,nan,nan,nan,nan,nan,nan,0.0,nan,nan,nan,nan,nan,nan,nan,nan,nan,nan,nan,nan,nan,nan,nan,nan,nan,nan,1588.9215250523412,1692.4091666671447,nan,1692.6394338201499,nan,nan,nan,nan
1,55,1,1,1.0,1.0,0.7970291751262266,0,nan,nan,nan,nan,nan,nan,nan,nan,nan,4,2,5,3,1,0,nan,nan,nan,nan,nan,nan,nan,nan,nan,nan,nan,nan,0.0,nan,nan,nan,nan,nan,nan,nan,nan,nan,nan,nan,nan,nan,nan,nan,nan,nan,nan,1588.9215250523412,1693.4343099426478,nan,1694.231339117774,nan,nan,nan,nan
1,56,0,0,1.0,0.0,0.5955736408359371,0,nan,nan,0.0,nan,nan,nan,nan,nan,nan,5,3,2,6,8,7,nan,nan,nan,nan,nan,nan,nan,nan,nan,nan,nan,nan,0.0,nan,nan,nan,nan,nan,nan,nan,nan,nan,nan,nan,nan,nan,nan,nan,nan,nan,nan,1588.9215250523412,1694.4677860335505,nan,1695.0633596743864,nan,nan,nan,nan
1,57,1,1,1.0,1.0,0.6024410576210357,0,nan,nan,nan,nan,nan,nan,nan,nan,nan,7,8,0,2,5,6,nan,nan,nan,nan,nan,nan,nan,nan,nan,nan,nan,nan,0.0,nan,nan,nan,nan,nan,nan,nan,nan,nan,nan,nan,nan,nan,nan,nan,nan,nan,nan,1588.9215250523412,1695.492917334981,nan,1696.095358392602,nan,nan,nan,nan
1,58,1,1,1.0,1.0,0.37724121887004003,0,nan,nan,nan,nan,nan,nan,nan,nan,nan,1,7,8,5,6,2,nan,nan,nan,nan,nan,nan,nan,nan,nan,nan,nan,nan,0.0,nan,nan,nan,nan,nan,nan,nan,nan,nan,nan,nan,nan,nan,nan,nan,nan,nan,nan,1588.9215250523412,1696.51809168607,nan,1696.89533290494,nan,nan,nan,nan
1,59,0,0,1.0,0.0,0.20018343141418882,0,nan,nan,0.0,nan,nan,nan,nan,nan,nan,2,6,4,1,3,7,nan,nan,nan,nan,nan,nan,nan,nan,nan,nan,nan,nan,0.0,nan,nan,nan,nan,nan,nan,nan,nan,nan,nan,nan,nan,nan,nan,nan,nan,nan,nan,1588.9215250523412,1697.5431790825387,nan,1697.743362513953,nan,nan,nan,nan
1,60,1,1,1.0,1.0,0.12698819529032335,0,nan,nan,nan,nan,nan,nan,nan,nan,nan,8,3,1,0,2,4,nan,nan,nan,nan,nan,nan,nan,nan,nan,nan,nan,nan,0.0,nan,nan,nan,nan,nan,nan,nan,nan,nan,nan,nan,nan,nan,nan,nan,nan,nan,nan,1588.9215250523412,1698.5683146604279,nan,1698.6953028557182,nan,nan,nan,nan
1,61,1,1,1.0,1.0,0.18975914432667196,0,nan,nan,nan,nan,nan,nan,nan,nan,nan,5,2,0,8,4,6,nan,nan,nan,nan,nan,nan,nan,nan,nan,nan,nan,nan,0.0,nan,nan,nan,nan,nan,nan,nan,nan,nan,nan,nan,nan,nan,nan,nan,nan,nan,nan,1588.9215250523412,1699.593502981268,nan,1699.7832621255948,nan,nan,nan,nan
1,62,1,1,nan,nan,nan,0,nan,nan,nan,nan,nan,nan,nan,nan,nan,7,0,8,6,5,3,nan,nan,nan,nan,nan,nan,nan,nan,nan,nan,nan,nan,0.0,nan,nan,nan,nan,nan,nan,nan,nan,nan,nan,nan,nan,nan,nan,nan,nan,nan,nan,1588.9215250523412,1700.6186009263329,nan,nan,nan,nan,nan,nan
1,63,1,1,1.0,1.0,0.21953410588321276,0,nan,nan,nan,nan,nan,nan,nan,nan,nan,1,6,4,5,0,7,nan,nan,nan,nan,nan,nan,nan,nan,nan,nan,nan,nan,0.0,nan,nan,nan,nan,nan,nan,nan,nan,nan,nan,nan,nan,nan,nan,nan,nan,nan,nan,1588.9215250523412,1701.6437142666546,nan,1701.8632483725378,nan,nan,nan,nan
1,64,1,1,1.0,1.0,0.05834994974429719,0,nan,nan,nan,nan,nan,nan,nan,nan,nan,3,1,6,0,4,2,nan,nan,nan,nan,nan,nan,nan,nan,nan,nan,nan,nan,0.0,nan,nan,nan,nan,nan,nan,nan,nan,nan,nan,nan,nan,nan,nan,nan,nan,nan,nan,1588.9215250523412,1702.6688464233594,nan,1702.7271963731037,nan,nan,nan,nan
1,65,0,0,nan,nan,nan,0,nan,nan,nan,nan,nan,nan,nan,nan,nan,7,6,1,5,8,4,nan,nan,nan,nan,nan,nan,nan,nan,nan,nan,nan,nan,0.0,nan,nan,nan,nan,nan,nan,nan,nan,nan,nan,nan,nan,nan,nan,nan,nan,nan,nan,1588.9215250523412,1703.6939851373318,nan,nan,nan,nan,nan,nan
1,66,1,1,1.0,1.0,0.8000075835734606,0,nan,nan,nan,nan,nan,nan,nan,nan,nan,4,1,5,8,0,7,nan,nan,nan,nan,nan,nan,nan,nan,nan,nan,nan,nan,0.0,nan,nan,nan,nan,nan,nan,nan,nan,nan,nan,nan,nan,nan,nan,nan,nan,nan,nan,1588.9215250523412,1704.7191458037414,nan,1705.5191533873149,nan,nan,nan,nan
1,67,1,1,1.0,1.0,0.23859540687408298,0,nan,nan,nan,nan,nan,nan,nan,nan,nan,1,5,3,4,7,2,nan,nan,nan,nan,nan,nan,nan,nan,nan,nan,nan,nan,0.0,nan,nan,nan,nan,nan,nan,nan,nan,nan,nan,nan,nan,nan,nan,nan,nan,nan,nan,1588.9215250523412,1705.7525617391802,nan,1705.9911571460543,nan,nan,nan,nan
1,68,1,1,nan,nan,nan,0,nan,nan,nan,nan,nan,nan,nan,nan,nan,8,4,7,0,2,5,nan,nan,nan,nan,nan,nan,nan,nan,nan,nan,nan,nan,0.0,nan,nan,nan,nan,nan,nan,nan,nan,nan,nan,nan,nan,nan,nan,nan,nan,nan,nan,1588.9215250523412,1706.7777110017196,nan,nan,nan,nan,nan,nan
1,69,1,1,1.0,1.0,0.6442739120975602,0,nan,nan,nan,nan,nan,nan,nan,nan,nan,6,2,1,4,8,3,nan,nan,nan,nan,nan,nan,nan,nan,nan,nan,nan,nan,0.0,nan,nan,nan,nan,nan,nan,nan,nan,nan,nan,nan,nan,nan,nan,nan,nan,nan,nan,1588.9215250523412,1707.80282633772,nan,1708.4471002498176,nan,nan,nan,nan
1,70,1,1,1.0,1.0,0.14709352151839994,1,nan,nan,nan,nan,nan,nan,nan,nan,nan,3,4,6,2,0,7,1.0,1.0,1.0,1.0,1.0,1.0,0.0,1.0,1.0,1.0,0.0,0.0,3.0,1.0,4.0,6.0,2.0,7.0,0.0,6.0,1.0,2.0,3.0,4.0,5.0,12.54212707458646,2.4880336232017726,3.3661805952724535,4.718989000393776,7.823323672346305,8.765964434714988,1588.9215250523412,1708.8279892849096,1709.6364100812643,1708.975082806428,1723.2381717527169,1724.2439375546237,1710.653207997093,1723.2298415031692
1,71,1,1,nan,nan,nan,0,nan,nan,nan,nan,nan,nan,nan,nan,nan,5,8,0,6,7,1,nan,nan,nan,nan,nan,nan,nan,nan,nan,nan,nan,nan,0.0,nan,nan,nan,nan,nan,nan,nan,nan,nan,nan,nan,nan,nan,nan,nan,nan,nan,nan,1588.9215250523412,1724.4634055180068,nan,nan,nan,nan,nan,nan
1,72,1,1,1.0,1.0,0.40658824978163466,0,nan,nan,nan,nan,nan,nan,nan,nan,nan,2,0,8,1,4,5,nan,nan,nan,nan,nan,nan,nan,nan,nan,nan,nan,nan,0.0,nan,nan,nan,nan,nan,nan,nan,nan,nan,nan,nan,nan,nan,nan,nan,nan,nan,nan,1588.9215250523412,1725.480152686563,nan,1725.8867409363447,nan,nan,nan,nan
1,73,1,1,1.0,1.0,0.2774321768665686,0,nan,nan,nan,nan,nan,nan,nan,nan,nan,7,6,5,2,8,3,nan,nan,nan,nan,nan,nan,nan,nan,nan,nan,nan,nan,0.0,nan,nan,nan,nan,nan,nan,nan,nan,nan,nan,nan,nan,nan,nan,nan,nan,nan,nan,1588.9215250523412,1726.505282562488,nan,1726.7827147393546,nan,nan,nan,nan
1,74,1,1,nan,nan,nan,0,nan,nan,nan,nan,nan,nan,nan,nan,nan,1,0,6,7,2,8,nan,nan,nan,nan,nan,nan,nan,nan,nan,nan,nan,nan,0.0,nan,nan,nan,nan,nan,nan,nan,nan,nan,nan,nan,nan,nan,nan,nan,nan,nan,nan,1588.9215250523412,1727.5304207062582,nan,nan,nan,nan,nan,nan
1,75,1,1,1.0,1.0,0.13913874473655596,0,nan,nan,nan,nan,nan,nan,nan,nan,nan,6,1,8,5,3,4,nan,nan,nan,nan,nan,nan,nan,nan,nan,nan,nan,nan,0.0,nan,nan,nan,nan,nan,nan,nan,nan,nan,nan,nan,nan,nan,nan,nan,nan,nan,nan,1588.9215250523412,1728.5555542884686,nan,1728.694693033205,nan,nan,nan,nan
1,76,1,1,1.0,1.0,0.6099433854396921,0,nan,nan,nan,nan,nan,nan,nan,nan,nan,3,6,7,0,8,5,nan,nan,nan,nan,nan,nan,nan,nan,nan,nan,nan,nan,0.0,nan,nan,nan,nan,nan,nan,nan,nan,nan,nan,nan,nan,nan,nan,nan,nan,nan,nan,1588.9215250523412,1729.5806921471085,nan,1730.1906355325482,nan,nan,nan,nan
1,77,1,1,1.0,1.0,0.6404644458380062,0,nan,nan,nan,nan,nan,nan,nan,nan,nan,0,8,6,4,5,7,nan,nan,nan,nan,nan,nan,nan,nan,nan,nan,nan,nan,0.0,nan,nan,nan,nan,nan,nan,nan,nan,nan,nan,nan,nan,nan,nan,nan,nan,nan,nan,1588.9215250523412,1730.6141328859958,nan,1731.2545973318338,nan,nan,nan,nan
1,78,0,0,1.0,0.0,0.6233418045158032,0,nan,nan,0.0,nan,nan,nan,nan,nan,nan,3,6,4,5,0,1,nan,nan,nan,nan,nan,nan,nan,nan,nan,nan,nan,nan,0.0,nan,nan,nan,nan,nan,nan,nan,nan,nan,nan,nan,nan,nan,nan,nan,nan,nan,nan,1588.9215250523412,1731.6392624768487,nan,1732.2626042813645,nan,nan,nan,nan
1,79,1,1,nan,nan,nan,0,nan,nan,nan,nan,nan,nan,nan,nan,nan,6,2,8,1,4,7,nan,nan,nan,nan,nan,nan,nan,nan,nan,nan,nan,nan,0.0,nan,nan,nan,nan,nan,nan,nan,nan,nan,nan,nan,nan,nan,nan,nan,nan,nan,nan,1588.9215250523412,1732.6644319812767,nan,nan,nan,nan,nan,nan
1,80,1,1,1.0,1.0,0.02899294043891132,0,nan,nan,nan,nan,nan,nan,nan,nan,nan,3,8,2,6,7,5,nan,nan,nan,nan,nan,nan,nan,nan,nan,nan,nan,nan,0.0,nan,nan,nan,nan,nan,nan,nan,nan,nan,nan,nan,nan,nan,nan,nan,nan,nan,nan,1588.9215250523412,1733.6895726908988,nan,1733.7185656313377,nan,nan,nan,nan
1,81,1,1,1.0,1.0,0.22786464050295763,0,0.0,0.0,0.0,0.3825321941472732,0.22183290976399267,0.16069928438328052,0.6043651039112659,0.22183290976399267,0.12842879047093447,8,6,4,0,1,7,nan,nan,nan,nan,nan,nan,nan,nan,nan,nan,nan,nan,0.0,nan,nan,nan,nan,nan,nan,nan,nan,nan,nan,nan,nan,nan,nan,nan,nan,nan,nan,1588.9215250523412,1734.7146857461194,nan,1734.9425503866223,nan,nan,nan,nan
1,82,1,1,1.0,1.0,0.20298992638709024,0,1.0,0.0,0.0,0.3799544015865346,0.22086586814506404,0.15908853344147056,0.6008202697315986,0.22086586814506404,0.15328250244298638,1,0,7,6,2,4,nan,nan,nan,nan,nan,nan,nan,nan,nan,nan,nan,nan,0.0,nan,nan,nan,nan,nan,nan,nan,nan,nan,nan,nan,nan,nan,nan,nan,nan,nan,nan,1588.9215250523412,1735.731539255852,nan,1735.9345291822392,nan,nan,nan,nan
1,83,1,1,1.0,1.0,0.19388763414463028,1,0.0,0.0,1.0,0.3770533446160519,0.2201976364186768,0.1568557081973751,0.5972509810347286,0.2201976364186768,0.20824740034489272,7,6,1,0,4,2,1.0,1.0,1.0,1.0,1.0,1.0,0.0,1.0,0.0,0.0,0.0,1.0,2.0,0.0,6.0,0.0,7.0,6.0,2.0,6.0,1.0,2.0,3.0,4.0,5.0,10.66881078624283,2.3025620527623687,3.4378525580686983,4.870006597135216,7.309327975002816,8.597222071752185,1588.9215250523412,1736.7566297884332,1737.5650440275203,1736.9505174225778,1749.2832145144057,1750.2798386806971,1738.5735062769963,1749.2749489818816
1,84,1,1,nan,nan,nan,0,0.0,0.0,0.0,0.37409905896328705,0.21963002239869045,0.1544690365645966,0.5937290813619776,0.21963002239869045,0.19843878026586026,8,1,0,3,6,4,nan,nan,nan,nan,nan,nan,nan,nan,nan,nan,nan,nan,0.0,nan,nan,nan,nan,nan,nan,nan,nan,nan,nan,nan,nan,nan,nan,nan,nan,nan,nan,1588.9215250523412,1750.5000821079302,nan,nan,nan,nan,nan,nan
1,85,1,1,nan,nan,nan,0,0.0,0.0,0.0,0.37409905896328705,0.21963002239869045,0.1544690365645966,0.5937290813619776,0.21963002239869045,0.19388763414463028,0,7,8,6,4,5,nan,nan,nan,nan,nan,nan,nan,nan,nan,nan,nan,nan,0.0,nan,nan,nan,nan,nan,nan,nan,nan,nan,nan,nan,nan,nan,nan,nan,nan,nan,nan,1588.9215250523412,1751.5252179709205,nan,nan,nan,nan,nan,nan
1,86,1,1,nan,nan,nan,0,0.0,0.0,0.0,0.37409905896328705,0.21963002239869045,0.1544690365645966,0.5937290813619776,0.21963002239869045,nan,6,0,7,8,1,4,nan,nan,nan,nan,nan,nan,nan,nan,nan,nan,nan,nan,0.0,nan,nan,nan,nan,nan,nan,nan,nan,nan,nan,nan,nan,nan,nan,nan,nan,nan,nan,1588.9215250523412,1752.5503948878613,nan,nan,nan,nan,nan,nan
1,87,1,1,1.0,1.0,0.24668474940699525,0,0.0,0.0,0.0,0.37409905896328705,0.21963002239869045,0.1544690365645966,0.5937290813619776,0.21963002239869045,0.24668474940699525,1,4,8,3,0,5,nan,nan,nan,nan,nan,nan,nan,nan,nan,nan,nan,nan,0.0,nan,nan,nan,nan,nan,nan,nan,nan,nan,nan,nan,nan,nan,nan,nan,nan,nan,nan,1588.9215250523412,1753.5754831396625,nan,1753.8221678890695,nan,nan,nan,nan
1,88,0,0,1.0,0.0,0.2455201281409245,0,0.0,0.0,0.0,0.3720766096052507,0.2184611481603818,0.15361546144486887,0.5905377577656326,0.2184611481603818,0.24610243877395988,2,8,1,4,3,6,nan,nan,nan,nan,nan,nan,nan,nan,nan,nan,nan,nan,0.0,nan,nan,nan,nan,nan,nan,nan,nan,nan,nan,nan,nan,nan,nan,nan,nan,nan,nan,1588.9215250523412,1754.600614441064,nan,1754.8461345692049,nan,nan,nan,nan
1,89,1,1,0.0,0.0,0.012351257755653933,0,0.0,0.0,0.0,0.3700991645823706,0.21731524119697776,0.15278392338539282,0.5874144057793483,0.21731524119697776,0.16818537843452455,3,2,5,1,6,0,nan,nan,nan,nan,nan,nan,nan,nan,nan,nan,nan,nan,0.0,nan,nan,nan,nan,nan,nan,nan,nan,nan,nan,nan,nan,nan,nan,nan,nan,nan,nan,1588.9215250523412,1755.6257485934766,nan,1755.6380998512323,nan,nan,nan,nan
1,90,1,1,1.0,1.0,0.4992085706908256,0,0.0,0.0,0.0,0.3645953506311903,0.22008645456988865,0.14450889606130166,0.5846818052010789,0.22008645456988865,0.2523599855291347,8,1,3,4,5,6,nan,nan,nan,nan,nan,nan,nan,nan,nan,nan,nan,nan,0.0,nan,nan,nan,nan,nan,nan,nan,nan,nan,nan,nan,nan,nan,nan,nan,nan,nan,nan,1588.9215250523412,1756.6508793247049,nan,1757.1500878953957,nan,nan,nan,nan
1,91,0,0,1.0,0.0,0.6023848935146816,0,0.0,0.0,0.0,0.36663494487451814,0.2190308975436907,0.14760404733082744,0.5856658424182088,0.2190308975436907,0.371314907320387,5,8,2,7,4,3,nan,nan,nan,nan,nan,nan,nan,nan,nan,nan,nan,nan,0.0,nan,nan,nan,nan,nan,nan,nan,nan,nan,nan,nan,nan,nan,nan,nan,nan,nan,nan,1588.9215250523412,1757.6676795213134,nan,1758.270064414828,nan,nan,nan,nan
1,92,1,1,1.0,1.0,0.6812259057187475,0,0.0,0.0,0.0,0.3701536008243713,0.21926157501142338,0.15089202581294794,0.5894151758357947,0.21926157501142338,0.5942731233080849,8,0,3,1,2,6,nan,nan,nan,nan,nan,nan,nan,nan,nan,nan,nan,nan,0.0,nan,nan,nan,nan,nan,nan,nan,nan,nan,nan,nan,nan,nan,nan,nan,nan,nan,nan,1588.9215250523412,1758.69281909056,nan,1759.3740449962788,nan,nan,nan,nan
1,93,1,1,1.0,1.0,0.5120758540579118,0,0.0,0.0,0.0,0.37472819354340625,0.22084099664344842,0.15388719689995783,0.5955691901868547,0.22084099664344842,0.5985622177637803,1,3,8,0,6,5,nan,nan,nan,nan,nan,nan,nan,nan,nan,nan,nan,nan,0.0,nan,nan,nan,nan,nan,nan,nan,nan,nan,nan,nan,nan,nan,nan,nan,nan,nan,nan,1588.9215250523412,1759.717951532366,nan,1760.230027386424,nan,nan,nan,nan
1,94,1,1,nan,nan,nan,0,0.0,0.0,0.0,0.3767187393479643,0.21984848858338366,0.15687025076458064,0.596567227931348,0.21984848858338366,0.5966508798883297,4,8,1,5,7,3,nan,nan,nan,nan,nan,nan,nan,nan,nan,nan,nan,nan,0.0,nan,nan,nan,nan,nan,nan,nan,nan,nan,nan,nan,nan,nan,nan,nan,nan,nan,nan,1588.9215250523412,1760.7514723835047,nan,nan,nan,nan,nan,nan
1,95,1,1,1.0,1.0,0.7334003691503312,0,0.0,0.0,0.0,0.3767187393479643,0.21984848858338366,0.15687025076458064,0.596567227931348,0.21984848858338366,0.6227381116041215,3,6,5,2,1,8,nan,nan,nan,nan,nan,nan,nan,nan,nan,nan,nan,nan,0.0,nan,nan,nan,nan,nan,nan,nan,nan,nan,nan,nan,nan,nan,nan,nan,nan,nan,nan,1588.9215250523412,1761.7765686179919,nan,1762.5099689871422,nan,nan,nan,nan
1,96,1,1,1.0,1.0,0.668263970175758,0,0.0,0.0,0.0,0.3818141912022838,0.22233841735715684,0.15947577384512698,0.6041526085594406,0.22233841735715684,0.7008321696630446,2,3,0,4,5,1,nan,nan,nan,nan,nan,nan,nan,nan,nan,nan,nan,nan,0.0,nan,nan,nan,nan,nan,nan,nan,nan,nan,nan,nan,nan,nan,nan,nan,nan,nan,nan,1588.9215250523412,1762.8016964982671,nan,1763.4699604684429,nan,nan,nan,nan
1,97,1,1,1.0,1.0,0.363143741938984,0,0.0,0.0,0.0,0.3858486951314877,0.2233327531095896,0.16251594202189806,0.6091814482410773,0.2233327531095896,0.5882693604216911,0,4,6,2,1,7,nan,nan,nan,nan,nan,nan,nan,nan,nan,nan,nan,nan,0.0,nan,nan,nan,nan,nan,nan,nan,nan,nan,nan,nan,nan,nan,nan,nan,nan,nan,nan,1588.9215250523412,1763.8268092683866,nan,1764.1899530103256,nan,nan,nan,nan
1,98,1,1,1.0,1.0,0.12198645333410241,0,0.0,0.0,0.0,0.3855333485593696,0.221792325798615,0.1637410227607546,0.6073256743579846,0.221792325798615,0.3844647218162815,4,7,1,8,2,0,nan,nan,nan,nan,nan,nan,nan,nan,nan,nan,nan,nan,0.0,nan,nan,nan,nan,nan,nan,nan,nan,nan,nan,nan,nan,nan,nan,nan,nan,nan,nan,1588.9215250523412,1764.8519528289908,nan,1764.9739392823249,nan,nan,nan,nan
1,99,1,1,1.0,1.0,0.008759035437833518,0,0.0,0.0,0.0,0.3819231171179276,0.2223879640074571,0.15953515311047048,0.6043110811253847,0.2223879640074571,0.16462974357030666,2,1,5,7,4,6,nan,nan,nan,nan,nan,nan,nan,nan,nan,nan,nan,nan,0.0,nan,nan,nan,nan,nan,nan,nan,nan,nan,nan,nan,nan,nan,nan,nan,nan,nan,nan,1588.9215250523412,1765.8771511282248,nan,1765.8859101636626,nan,nan,nan,nan
1,100,1,1,nan,nan,nan,0,0.0,0.0,0.0,0.3768803592573858,0.22504315900880087,0.1518372002485849,0.6019235182661866,0.22504315900880087,0.06537274438596796,8,7,0,2,6,3,nan,nan,nan,nan,nan,nan,nan,nan,nan,nan,nan,nan,0.0,nan,nan,nan,nan,nan,nan,nan,nan,nan,nan,nan,nan,nan,nan,nan,nan,nan,nan,1588.9215250523412,1766.9022217039892,nan,nan,nan,nan,nan,nan
1,101,1,1,1.0,1.0,0.022532357077579945,0,0.0,0.0,0.0,0.3768803592573858,0.22504315900880087,0.1518372002485849,0.6019235182661866,0.22504315900880087,0.01564569625770673,5,4,6,0,3,8,nan,nan,nan,nan,nan,nan,nan,nan,nan,nan,nan,nan,0.0,nan,nan,nan,nan,nan,nan,nan,nan,nan,nan,nan,nan,nan,nan,nan,nan,nan,nan,1588.9215250523412,1767.92738037472,nan,1767.9499127317977,nan,nan,nan,nan
1,102,1,1,nan,nan,nan,0,0.0,0.0,0.0,0.3721557192283217,0.22720257254196086,0.14495314668636083,0.5993582917702825,0.22720257254196086,0.022532357077579945,0,8,3,2,6,7,nan,nan,nan,nan,nan,nan,nan,nan,nan,nan,nan,nan,0.0,nan,nan,nan,nan,nan,nan,nan,nan,nan,nan,nan,nan,nan,nan,nan,nan,nan,nan,1588.9215250523412,1768.9524882982078,nan,nan,nan,nan,nan,nan
1,103,1,1,nan,nan,nan,0,0.0,0.0,0.0,0.3721557192283217,0.22720257254196086,0.14495314668636083,0.5993582917702825,0.22720257254196086,0.022532357077579945,3,1,5,6,7,0,nan,nan,nan,nan,nan,nan,nan,nan,nan,nan,nan,nan,0.0,nan,nan,nan,nan,nan,nan,nan,nan,nan,nan,nan,nan,nan,nan,nan,nan,nan,nan,1588.9215250523412,1769.977621310216,nan,nan,nan,nan,nan,nan
1,104,1,1,nan,nan,nan,0,0.0,0.0,0.0,0.3721557192283217,0.22720257254196086,0.14495314668636083,0.5993582917702825,0.22720257254196086,nan,0,2,4,5,6,1,nan,nan,nan,nan,nan,nan,nan,nan,nan,nan,nan,nan,0.0,nan,nan,nan,nan,nan,nan,nan,nan,nan,nan,nan,nan,nan,nan,nan,nan,nan,nan,1588.9215250523412,1771.0028022185143,nan,nan,nan,nan,nan,nan
1,105,1,1,1.0,1.0,0.5698986593924928,0,0.0,0.0,0.0,0.3721557192283217,0.22720257254196086,0.14495314668636083,0.5993582917702825,0.22720257254196086,0.5698986593924928,6,8,0,1,3,4,nan,nan,nan,nan,nan,nan,nan,nan,nan,nan,nan,nan,0.0,nan,nan,nan,nan,nan,nan,nan,nan,nan,nan,nan,nan,nan,nan,nan,nan,nan,nan,1588.9215250523412,1772.0278796366183,nan,1772.5977782960108,nan,nan,nan,nan
1,106,1,1,1.0,1.0,0.5287232386472169,0,0.0,0.0,0.0,0.3747576000199555,0.22682486402837934,0.14793273599157616,0.6015824640483348,0.22682486402837934,0.5493109490198549,2,7,1,4,6,3,nan,nan,nan,nan,nan,nan,nan,nan,nan,nan,nan,nan,0.0,nan,nan,nan,nan,nan,nan,nan,nan,nan,nan,nan,nan,nan,nan,nan,nan,nan,nan,1588.9215250523412,1773.0530237673956,nan,1773.5817470060429,nan,nan,nan,nan
1,107,0,0,1.0,0.0,0.2795966333360411,0,0.0,0.0,0.0,0.3767571537683615,0.22602037015604176,0.15073678361231974,0.6027775239244033,0.22602037015604176,0.4594061771252503,3,2,6,7,5,8,nan,nan,nan,nan,nan,nan,nan,nan,nan,nan,nan,nan,0.0,nan,nan,nan,nan,nan,nan,nan,nan,nan,nan,nan,nan,nan,nan,nan,nan,nan,nan,1588.9215250523412,1774.0781473712123,nan,1774.3577440045483,nan,nan,nan,nan
1,108,1,1,1.0,1.0,0.3184180081007071,0,0.0,0.0,0.0,0.37551150607051126,0.22483270515052392,0.15067880091998734,0.6003442112210352,0.22483270515052392,0.37557929336132173,8,3,4,2,0,1,nan,nan,nan,nan,nan,nan,nan,nan,nan,nan,nan,nan,0.0,nan,nan,nan,nan,nan,nan,nan,nan,nan,nan,nan,nan,nan,nan,nan,nan,nan,nan,1588.9215250523412,1775.103292357293,nan,1775.4217103653937,nan,nan,nan,nan
1,109,1,1,1.0,1.0,0.39725502897636034,0,0.0,0.0,0.0,0.37478880356456434,0.22349634096939566,0.15129246259516868,0.59828514453396,0.22349634096939566,0.3317565568043695,7,0,5,4,1,3,nan,nan,nan,nan,nan,nan,nan,nan,nan,nan,nan,nan,0.0,nan,nan,nan,nan,nan,nan,nan,nan,nan,nan,nan,nan,nan,nan,nan,nan,nan,nan,1588.9215250523412,1776.1284247990989,nan,1776.5256798280752,nan,nan,nan,nan
1,110,1,1,1.0,1.0,0.3001056569337379,0,0.0,0.0,0.0,0.37506963138221183,0.2221091218819356,0.15296050950027623,0.5971787532641475,0.2221091218819356,0.33859289800360176,8,7,1,2,4,6,nan,nan,nan,nan,nan,nan,nan,nan,nan,nan,nan,nan,0.0,nan,nan,nan,nan,nan,nan,nan,nan,nan,nan,nan,nan,nan,nan,nan,nan,nan,nan,1588.9215250523412,1777.15356550875,nan,1777.4536711656838,nan,nan,nan,nan
1,111,1,1,1.0,1.0,0.31495094337151386,0,0.0,0.0,0.0,0.37414415021618125,0.22088897779932792,0.15325517241685332,0.5950331280155092,0.22088897779932792,0.33743720976053737,1,6,2,4,3,5,nan,nan,nan,nan,nan,nan,nan,nan,nan,nan,nan,nan,0.0,nan,nan,nan,nan,nan,nan,nan,nan,nan,nan,nan,nan,nan,nan,nan,nan,nan,nan,1588.9215250523412,1778.178695384675,nan,1778.4936463280465,nan,nan,nan,nan
1,112,1,1,1.0,1.0,0.16982316572102718,0,0.0,0.0,0.0,0.3734222818400268,0.21963407171608942,0.15378821012393737,0.5930563535561162,0.21963407171608942,0.2616265886754263,7,2,5,8,1,6,nan,nan,nan,nan,nan,nan,nan,nan,nan,nan,nan,nan,0.0,nan,nan,nan,nan,nan,nan,nan,nan,nan,nan,nan,nan,nan,nan,nan,nan,nan,nan,1588.9215250523412,1779.2038246904267,nan,1779.3736478561477,nan,nan,nan,nan
1,113,1,1,nan,nan,nan,0,0.0,0.0,0.0,0.3709692804410027,0.2194341424591239,0.1515351379818788,0.5904034229001266,0.2194341424591239,0.24238705454627052,8,3,4,6,7,0,nan,nan,nan,nan,nan,nan,nan,nan,nan,nan,nan,nan,0.0,nan,nan,nan,nan,nan,nan,nan,nan,nan,nan,nan,nan,nan,nan,nan,nan,nan,nan,1588.9215250523412,1780.2289514302975,nan,nan,nan,nan,nan,nan
1,114,1,1,1.0,1.0,0.42348908563144505,0,0.0,0.0,0.0,0.3709692804410027,0.2194341424591239,0.1515351379818788,0.5904034229001266,0.2194341424591239,0.2966561256762361,1,8,6,3,0,5,nan,nan,nan,nan,nan,nan,nan,nan,nan,nan,nan,nan,0.0,nan,nan,nan,nan,nan,nan,nan,nan,nan,nan,nan,nan,nan,nan,nan,nan,nan,nan,1588.9215250523412,1781.2540935654251,nan,1781.6775826510566,nan,nan,nan,nan
1,115,1,1,nan,nan,nan,0,0.0,0.0,0.0,0.3715945162170794,0.21819843937528635,0.15339607684179304,0.5897929555923658,0.21819843937528635,0.42348908563144505,5,0,4,7,8,3,nan,nan,nan,nan,nan,nan,nan,nan,nan,nan,nan,nan,0.0,nan,nan,nan,nan,nan,nan,nan,nan,nan,nan,nan,nan,nan,nan,nan,nan,nan,nan,1588.9215250523412,1782.2791909403168,nan,nan,nan,nan,nan,nan
1,116,1,1,1.0,1.0,0.5332123761763796,0,0.0,0.0,0.0,0.3715945162170794,0.21819843937528635,0.15339607684179304,0.5897929555923658,0.21819843937528635,0.47835073090391234,2,5,8,4,3,7,nan,nan,nan,nan,nan,nan,nan,nan,nan,nan,nan,nan,0.0,nan,nan,nan,nan,nan,nan,nan,nan,nan,nan,nan,nan,nan,nan,nan,nan,nan,nan,1588.9215250523412,1783.3043724188174,nan,1783.8375847949937,nan,nan,nan,nan
1,117,1,1,nan,nan,nan,0,0.0,0.0,0.0,0.37349590280483586,0.21761001236898786,0.155885890435848,0.5911059151738237,0.21761001236898786,0.5332123761763796,3,0,2,7,1,4,nan,nan,nan,nan,nan,nan,nan,nan,nan,nan,nan,nan,0.0,nan,nan,nan,nan,nan,nan,nan,nan,nan,nan,nan,nan,nan,nan,nan,nan,nan,nan,1588.9215250523412,1784.3295997979294,nan,nan,nan,nan,nan,nan
1,118,1,1,1.0,1.0,0.03488218938582577,0,0.0,0.0,0.0,0.37349590280483586,0.21761001236898786,0.155885890435848,0.5911059151738237,0.21761001236898786,0.2840472827811027,4,1,5,0,3,8,nan,nan,nan,nan,nan,nan,nan,nan,nan,nan,nan,nan,0.0,nan,nan,nan,nan,nan,nan,nan,nan,nan,nan,nan,nan,nan,nan,nan,nan,nan,nan,1588.9215250523412,1785.3546307451907,nan,1785.3895129345765,nan,nan,nan,nan
1,119,1,1,nan,nan,nan,0,0.0,0.0,0.0,0.3695585340441497,0.21936552234699178,0.1501930116971579,0.5889240563911414,0.21936552234699178,0.03488218938582577,6,4,7,5,8,3,nan,nan,nan,nan,nan,nan,nan,nan,nan,nan,nan,nan,0.0,nan,nan,nan,nan,nan,nan,nan,nan,nan,nan,nan,nan,nan,nan,nan,nan,nan,nan,1588.9215250523412,1786.3797309710644,nan,nan,nan,nan,nan,nan
1,120,1,1,nan,nan,nan,0,0.0,0.0,0.0,0.3695585340441497,0.21936552234699178,0.1501930116971579,0.5889240563911414,0.21936552234699178,0.03488218938582577,0,2,4,3,1,7,nan,nan,nan,nan,nan,nan,nan,nan,nan,nan,nan,nan,0.0,nan,nan,nan,nan,nan,nan,nan,nan,nan,nan,nan,nan,nan,nan,nan,nan,nan,nan,1588.9215250523412,1787.4048979096115,nan,nan,nan,nan,nan,nan
1,121,1,1,nan,nan,nan,0,0.0,0.0,0.0,0.3695585340441497,0.21936552234699175,0.15019301169715793,0.5889240563911414,0.21936552234699175,nan,3,7,6,0,4,5,nan,nan,nan,nan,nan,nan,nan,nan,nan,nan,nan,nan,0.0,nan,nan,nan,nan,nan,nan,nan,nan,nan,nan,nan,nan,nan,nan,nan,nan,nan,nan,1588.9215250523412,1788.43004232549,nan,nan,nan,nan,nan,nan
1,122,1,1,1.0,1.0,0.09426019890815951,0,0.0,0.0,0.0,0.3695585340441497,0.21936552234699175,0.15019301169715793,0.5889240563911414,0.21936552234699175,0.09426019890815951,8,4,7,6,0,3,nan,nan,nan,nan,nan,nan,nan,nan,nan,nan,nan,nan,0.0,nan,nan,nan,nan,nan,nan,nan,nan,nan,nan,nan,nan,nan,nan,nan,nan,nan,nan,1588.9215250523412,1789.4551702057652,nan,1789.5494304046733,nan,nan,nan,nan
1,123,1,1,1.0,1.0,0.6770988414355088,0,0.0,0.0,0.0,0.3663941853644257,0.22006644815052748,0.14632773721389822,0.5864606335149531,0.22006644815052748,0.38567952017183416,2,0,6,5,3,7,nan,nan,nan,nan,nan,nan,nan,nan,nan,nan,nan,nan,0.0,nan,nan,nan,nan,nan,nan,nan,nan,nan,nan,nan,nan,nan,nan,nan,nan,nan,nan,1588.9215250523412,1790.4802926691773,nan,1791.1573915106128,nan,nan,nan,nan
1,124,1,1,1.0,1.0,0.49192975895130076,0,0.0,0.0,0.0,0.36992492009250616,0.22127688298217696,0.1486480371103292,0.5912018030746831,0.22127688298217696,0.4210962664316564,7,6,1,0,4,2,nan,nan,nan,nan,nan,nan,nan,nan,nan,nan,nan,nan,0.0,nan,nan,nan,nan,nan,nan,nan,nan,nan,nan,nan,nan,nan,nan,nan,nan,nan,nan,1588.9215250523412,1791.5054319533228,nan,1791.9973617122741,nan,nan,nan,nan
1,125,1,1,nan,nan,nan,0,0.0,0.0,0.0,0.37129576097856004,0.22040571166579676,0.15089004931276329,0.5917014726443568,0.22040571166579676,0.5845143001934048,5,8,2,1,7,6,nan,nan,nan,nan,nan,nan,nan,nan,nan,nan,nan,nan,0.0,nan,nan,nan,nan,nan,nan,nan,nan,nan,nan,nan,nan,nan,nan,nan,nan,nan,nan,1588.9215250523412,1792.5222335754079,nan,nan,nan,nan,nan,nan
1,126,1,1,1.0,1.0,0.6899755329941399,0,0.0,0.0,0.0,0.37129576097856004,0.22040571166579676,0.15089004931276329,0.5917014726443568,0.22040571166579676,0.5909526459727203,0,4,5,6,2,3,nan,nan,nan,nan,nan,nan,nan,nan,nan,nan,nan,nan,0.0,nan,nan,nan,nan,nan,nan,nan,nan,nan,nan,nan,nan,nan,nan,nan,nan,nan,nan,1588.9215250523412,1793.5473546133435,nan,1794.2373301463376,nan,nan,nan,nan
1,127,1,1,1.0,1.0,0.2808154230588116,0,0.0,0.0,0.0,0.3748366473342887,0.22170878563862878,0.1531278616956599,0.5965454329729174,0.22170878563862878,0.48539547802647576,1,3,0,7,8,4,nan,nan,nan,nan,nan,nan,nan,nan,nan,nan,nan,nan,0.0,nan,nan,nan,nan,nan,nan,nan,nan,nan,nan,nan,nan,nan,nan,nan,nan,nan,nan,1588.9215250523412,1794.5724941825902,nan,1794.853309605649,nan,nan,nan,nan
1,128,1,1,1.0,1.0,0.08774772789911367,0,0.0,0.0,0.0,0.3738034470675252,0.2207050031175632,0.15309844394996203,0.5945084501850884,0.2207050031175632,0.3528462279840217,0,2,1,5,6,7,nan,nan,nan,nan,nan,nan,nan,nan,nan,nan,nan,nan,0.0,nan,nan,nan,nan,nan,nan,nan,nan,nan,nan,nan,nan,nan,nan,nan,nan,nan,nan,1588.9215250523412,1795.597626339324,nan,1795.6853740672232,nan,nan,nan,nan
1,129,1,1,1.0,1.0,0.22283438887097873,0,0.0,0.0,0.0,0.3706941457722164,0.22149717820248574,0.14919696756973064,0.5921913239747021,0.22149717820248574,0.19713251327630132,5,0,3,1,8,2,nan,nan,nan,nan,nan,nan,nan,nan,nan,nan,nan,nan,0.0,nan,nan,nan,nan,nan,nan,nan,nan,nan,nan,nan,nan,nan,nan,nan,nan,nan,nan,1588.9215250523412,1796.6144336633442,nan,1796.8372680522152,nan,nan,nan,nan
1,130,0,0,1.0,0.0,0.7976945915434044,0,0.0,0.0,0.0,0.3691042559130633,0.22083028618394887,0.1482739697291144,0.5899345420970121,0.22083028618394887,0.3694255694378323,8,3,1,6,7,4,nan,nan,nan,nan,nan,nan,nan,nan,nan,nan,nan,nan,0.0,nan,nan,nan,nan,nan,nan,nan,nan,nan,nan,nan,nan,nan,nan,nan,nan,nan,nan,1588.9215250523412,1797.6395632541971,nan,1798.4372578457405,nan,nan,nan,nan
1,131,1,1,0.0,0.0,0.17217607135535218,0,0.0,0.0,0.0,0.37366372756870525,0.2240102332589471,0.14965349430975816,0.5976739608276523,0.2240102332589471,0.39756835058991175,5,1,6,2,0,8,nan,nan,nan,nan,nan,nan,nan,nan,nan,nan,nan,nan,0.0,nan,nan,nan,nan,nan,nan,nan,nan,nan,nan,nan,nan,nan,nan,nan,nan,nan,nan,1588.9215250523412,1798.6730518893746,nan,1798.84522796073,nan,nan,nan,nan
1,132,1,1,nan,nan,nan,0,0.0,0.0,0.0,0.3715428048717226,0.22377490778640996,0.14776789708531263,0.5953177126581326,0.22377490778640996,0.4849353314493783,0,7,2,1,4,5,nan,nan,nan,nan,nan,nan,nan,nan,nan,nan,nan,nan,0.0,nan,nan,nan,nan,nan,nan,nan,nan,nan,nan,nan,nan,nan,nan,nan,nan,nan,nan,1588.9215250523412,1799.6981603830354,nan,nan,nan,nan,nan,nan
1,133,1,1,1.0,1.0,0.4658841514028609,0,0.0,0.0,0.0,0.3715428048717226,0.22377490778640996,0.14776789708531263,0.5953177126581326,0.22377490778640996,0.31903011137910653,1,2,5,8,7,3,nan,nan,nan,nan,nan,nan,nan,nan,nan,nan,nan,nan,0.0,nan,nan,nan,nan,nan,nan,nan,nan,nan,nan,nan,nan,nan,nan,nan,nan,nan,nan,1588.9215250523412,1800.7232979566033,nan,1801.1891821080062,nan,nan,nan,nan
1,134,0,0,1.0,0.0,0.7367388551065233,0,0.0,0.0,0.0,0.3725255272314219,0.222812338523134,0.1497131887082879,0.5953378657545559,0.222812338523134,0.6013115032546921,6,5,4,0,3,2,nan,nan,nan,nan,nan,nan,nan,nan,nan,nan,nan,nan,0.0,nan,nan,nan,nan,nan,nan,nan,nan,nan,nan,nan,nan,nan,nan,nan,nan,nan,nan,1588.9215250523412,1801.7484232709976,nan,1802.4851621261041,nan,nan,nan,nan
1,135,1,1,0.0,0.0,0.4555724776291754,0,0.0,0.0,0.0,0.3762803038074539,0.22469306155933175,0.15158724224812217,0.6009733653667857,0.22469306155933175,0.5527318280461865,5,0,3,2,4,8,nan,nan,nan,nan,nan,nan,nan,nan,nan,nan,nan,nan,0.0,nan,nan,nan,nan,nan,nan,nan,nan,nan,nan,nan,nan,nan,nan,nan,nan,nan,nan,1588.9215250523412,1802.7735665465007,nan,1803.2291390241298,nan,nan,nan,nan
1,136,1,1,1.0,1.0,0.08649273088667542,0,0.0,0.0,0.0,0.37708940762196125,0.22368571631071568,0.15340369131124557,0.600775123932677,0.22368571631071568,0.42626802120745805,0,1,8,6,7,5,nan,nan,nan,nan,nan,nan,nan,nan,nan,nan,nan,nan,0.0,nan,nan,nan,nan,nan,nan,nan,nan,nan,nan,nan,nan,nan,nan,nan,nan,nan,nan,1588.9215250523412,1803.7986559386482,nan,1803.8851486695348,nan,nan,nan,nan
1,137,1,1,1.0,1.0,0.6692558226932306,0,0.0,0.0,0.0,0.3741540876549382,0.22444213227068474,0.14971195538425344,0.598596219925623,0.22444213227068474,0.4037736770696938,6,2,7,0,3,1,nan,nan,nan,nan,nan,nan,nan,nan,nan,nan,nan,nan,0.0,nan,nan,nan,nan,nan,nan,nan,nan,nan,nan,nan,nan,nan,nan,nan,nan,nan,nan,1588.9215250523412,1804.8238271536538,nan,1805.493082976347,nan,nan,nan,nan
1,138,0,0,0.0,1.0,0.6441248063347302,0,0.0,0.0,0.0,0.3771051050053211,0.2252391392890083,0.15186596571631278,0.6023442442943294,0.2252391392890083,0.46662445330487873,5,3,8,4,6,7,nan,nan,nan,nan,nan,nan,nan,nan,nan,nan,nan,nan,0.0,nan,nan,nan,nan,nan,nan,nan,nan,nan,nan,nan,nan,nan,nan,nan,nan,nan,nan,1588.9215250523412,1805.8489581700123,nan,1806.493082976347,nan,nan,nan,nan
1,139,1,1,1.0,1.0,0.3229943852929864,0,0.0,0.0,0.0,0.3797488644244241,0.22567523699379802,0.1540736274306261,0.6054241014182221,0.22567523699379802,0.5454583381069824,2,6,3,1,7,4,nan,nan,nan,nan,nan,nan,nan,nan,nan,nan,nan,nan,0.0,nan,nan,nan,nan,nan,nan,nan,nan,nan,nan,nan,nan,nan,nan,nan,nan,nan,nan,1588.9215250523412,1806.8740678040485,nan,1807.1970621893415,nan,nan,nan,nan
1,140,1,1,1.0,1.0,0.32211742689833045,0,0.0,0.0,0.0,0.37919244796235124,0.22463587232055046,0.15455657564180078,0.6038283202829017,0.22463587232055046,0.4297455395086824,3,4,5,2,0,8,nan,nan,nan,nan,nan,nan,nan,nan,nan,nan,nan,nan,0.0,nan,nan,nan,nan,nan,nan,nan,nan,nan,nan,nan,nan,nan,nan,nan,nan,nan,nan,1588.9215250523412,1807.8909144714708,nan,1808.213031898369,nan,nan,nan,nan
1,141,1,1,1.0,1.0,0.24129955199896358,0,0.0,0.0,0.0,0.3786383215442539,0.22361278935149698,0.15502553219275694,0.6022511108957509,0.22361278935149698,0.2954704547300935,8,5,1,3,7,4,nan,nan,nan,nan,nan,nan,nan,nan,nan,nan,nan,nan,0.0,nan,nan,nan,nan,nan,nan,nan,nan,nan,nan,nan,nan,nan,nan,nan,nan,nan,nan,1588.9215250523412,1808.907726927253,nan,1809.149026479252,nan,nan,nan,nan
1,142,1,1,1.0,1.0,0.5685028244333807,0,0.0,0.0,0.0,0.3773177564524723,0.22293834452247305,0.15437941192999924,0.6002561009749453,0.22293834452247305,0.3773066011102249,2,1,4,6,3,5,nan,nan,nan,nan,nan,nan,nan,nan,nan,nan,nan,nan,0.0,nan,nan,nan,nan,nan,nan,nan,nan,nan,nan,nan,nan,nan,nan,nan,nan,nan,nan,1588.9215250523412,1809.9244906314416,nan,1810.492993455875,nan,nan,nan,nan
1,143,1,1,1.0,1.0,0.35964731220155954,0,0.0,0.0,0.0,0.37913856662371903,0.22264984651707875,0.15648872010664028,0.6017884131407978,0.22264984651707875,0.38981656287796795,7,0,5,2,8,1,nan,nan,nan,nan,nan,nan,nan,nan,nan,nan,nan,nan,0.0,nan,nan,nan,nan,nan,nan,nan,nan,nan,nan,nan,nan,nan,nan,nan,nan,nan,nan,1588.9215250523412,1810.941325039661,nan,1811.3009723518626,nan,nan,nan,nan
1,144,1,1,nan,nan,nan,0,0.0,0.0,0.0,0.37895468686501943,0.2216051330873473,0.15734955377767212,0.6005598199523667,0.2216051330873473,0.46407506831747014,2,5,4,8,1,6,nan,nan,nan,nan,nan,nan,nan,nan,nan,nan,nan,nan,0.0,nan,nan,nan,nan,nan,nan,nan,nan,nan,nan,nan,nan,nan,nan,nan,nan,nan,nan,1588.9215250523412,1811.9664212741773,nan,nan,nan,nan,nan,nan
1,145,1,1,nan,nan,nan,0,0.0,0.0,0.0,0.37895468686501943,0.2216051330873473,0.15734955377767212,0.6005598199523667,0.2216051330873473,0.35964731220155954,4,0,1,7,8,3,nan,nan,nan,nan,nan,nan,nan,nan,nan,nan,nan,nan,0.0,nan,nan,nan,nan,nan,nan,nan,nan,nan,nan,nan,nan,nan,nan,nan,nan,nan,nan,1588.9215250523412,1812.9915289125347,nan,nan,nan,nan,nan,nan
1,146,1,1,nan,nan,nan,0,0.0,0.0,0.0,0.37895468686501943,0.2216051330873473,0.15734955377767212,0.6005598199523667,0.2216051330873473,nan,7,4,3,5,0,6,nan,nan,nan,nan,nan,nan,nan,nan,nan,nan,nan,nan,0.0,nan,nan,nan,nan,nan,nan,nan,nan,nan,nan,nan,nan,nan,nan,nan,nan,nan,nan,1588.9215250523412,1814.0166907193488,nan,nan,nan,nan,nan,nan
1,147,1,1,nan,nan,nan,0,0.0,0.0,0.0,0.37895468686501943,0.2216051330873473,0.15734955377767212,0.6005598199523667,0.2216051330873473,nan,3,6,5,7,4,2,nan,nan,nan,nan,nan,nan,nan,nan,nan,nan,nan,nan,0.0,nan,nan,nan,nan,nan,nan,nan,nan,nan,nan,nan,nan,nan,nan,nan,nan,nan,nan,1588.9215250523412,1815.0418302885955,nan,nan,nan,nan,nan,nan
1,148,1,1,1.0,1.0,0.7782144830271136,0,0.0,0.0,0.0,0.37895468686501943,0.2216051330873473,0.15734955377767212,0.6005598199523667,0.2216051330873473,0.7782144830271136,7,2,8,3,1,6,nan,nan,nan,nan,nan,nan,nan,nan,nan,nan,nan,nan,0.0,nan,nan,nan,nan,nan,nan,nan,nan,nan,nan,nan,nan,nan,nan,nan,nan,nan,nan,1588.9215250523412,1816.0586404635978,nan,1816.836854946625,nan,nan,nan,nan
1,149,1,1,1.0,1.0,0.721016325202072,0,0.0,0.0,0.0,0.3826860868291512,0.22388780355164742,0.15879828327750375,0.6065738903807986,0.22388780355164742,0.7496154041145928,1,6,5,2,4,0,nan,nan,nan,nan,nan,nan,nan,nan,nan,nan,nan,nan,0.0,nan,nan,nan,nan,nan,nan,nan,nan,nan,nan,nan,nan,nan,nan,nan,nan,nan,nan,1588.9215250523412,1817.083820516622,nan,1817.804836841824,nan,nan,nan,nan
1,150,1,1,1.0,1.0,0.703935308061773,0,0.0,1.0,0.0,0.385818774221493,0.22519256297538492,0.1606262112461081,0.611011337196878,0.22519256297538492,0.7343887054303195,0,3,2,4,7,5,nan,nan,nan,nan,nan,nan,nan,nan,nan,nan,nan,nan,0.0,nan,nan,nan,nan,nan,nan,nan,nan,nan,nan,nan,nan,nan,nan,nan,nan,nan,nan,1588.9215250523412,1818.1088845351478,nan,1818.8128198432096,nan,nan,nan,nan
1,151,1,1,1.0,1.0,0.5667674389551394,1,0.0,0.0,1.0,0.3887372745319543,0.22619980351871008,0.1625374710132442,0.6149370780506643,0.22619980351871008,0.6639063574063281,2,7,4,0,6,3,1.0,1.0,1.0,1.0,1.0,1.0,0.0,1.0,1.0,1.0,0.0,0.0,3.0,3.0,7.0,4.0,0.0,2.0,6.0,6.0,1.0,2.0,3.0,4.0,5.0,12.329557603545254,2.3154259149741847,3.434231826046016,5.473639930452919,7.115023243939504,10.33753575826995,1588.9215250523412,1819.1340286659251,1819.9424483219045,1819.7007961048803,1833.3275151685812,1834.3309588553675,1820.959264198842,1833.3191871998424
1,152,0,0,nan,nan,nan,0,0.0,0.0,0.0,0.39035573057216505,0.2258023849750651,0.16455334559709994,0.6161581155472302,0.2258023849750651,0.6353513735084562,6,3,0,5,4,2,nan,nan,nan,nan,nan,nan,nan,nan,nan,nan,nan,nan,0.0,nan,nan,nan,nan,nan,nan,nan,nan,nan,nan,nan,nan,nan,nan,nan,nan,nan,nan,1588.9215250523412,1834.5527081650216,nan,nan,nan,nan,nan,nan
1,153,1,1,nan,nan,nan,0,0.0,0.0,0.0,0.39035573057216505,0.2258023849750651,0.16455334559709994,0.6161581155472302,0.2258023849750651,0.5667674389551394,3,7,4,6,8,1,nan,nan,nan,nan,nan,nan,nan,nan,nan,nan,nan,nan,0.0,nan,nan,nan,nan,nan,nan,nan,nan,nan,nan,nan,nan,nan,nan,nan,nan,nan,nan,1588.9215250523412,1835.577899621916,nan,nan,nan,nan,nan,nan
1,154,1,1,1.0,1.0,0.5694142795982771,0,0.0,0.0,0.0,0.39035573057216505,0.2258023849750651,0.16455334559709994,0.6161581155472302,0.2258023849750651,0.5694142795982771,2,4,0,7,1,5,nan,nan,nan,nan,nan,nan,nan,nan,nan,nan,nan,nan,0.0,nan,nan,nan,nan,nan,nan,nan,nan,nan,nan,nan,nan,nan,nan,nan,nan,nan,nan,1588.9215250523412,1836.602969342377,nan,1837.1723836219753,nan,nan,nan,nan
1,155,1,1,1.0,1.0,0.5363085296994541,0,0.0,0.0,0.0,0.3919688706534814,0.22541876933499735,0.16655010131848405,0.6173876399884788,0.22541876933499735,0.5528614046488656,5,1,8,4,2,0,nan,nan,nan,nan,nan,nan,nan,nan,nan,nan,nan,nan,0.0,nan,nan,nan,nan,nan,nan,nan,nan,nan,nan,nan,nan,nan,nan,nan,nan,nan,nan,1588.9215250523412,1837.6281086265226,nan,1838.164417156222,nan,nan,nan,nan
1,156,1,1,1.0,1.0,0.3431635732704308,0,0.0,0.0,0.0,0.393257617609249,0.22482056166254452,0.16843705594670447,0.6180781792717935,0.22482056166254452,0.48296212752272066,4,8,0,1,6,5,nan,nan,nan,nan,nan,nan,nan,nan,nan,nan,nan,nan,0.0,nan,nan,nan,nan,nan,nan,nan,nan,nan,nan,nan,nan,nan,nan,nan,nan,nan,nan,1588.9215250523412,1838.6532453447871,nan,1838.9964089180576,nan,nan,nan,nan
1,157,1,1,nan,nan,nan,0,0.0,0.0,0.0,0.3928143074823568,0.22387273407563324,0.16894157340672356,0.61668704155799,0.22387273407563324,0.43973605148494244,2,3,5,7,1,6,nan,nan,nan,nan,nan,nan,nan,nan,nan,nan,nan,nan,0.0,nan,nan,nan,nan,nan,nan,nan,nan,nan,nan,nan,nan,nan,nan,nan,nan,nan,nan,1588.9215250523412,1839.6783606807876,nan,nan,nan,nan,nan,nan
1,158,1,1,nan,nan,nan,0,0.0,0.0,0.0,0.3928143074823568,0.22387273407563324,0.16894157340672356,0.61668704155799,0.22387273407563324,0.3431635732704308,7,8,6,4,5,3,nan,nan,nan,nan,nan,nan,nan,nan,nan,nan,nan,nan,0.0,nan,nan,nan,nan,nan,nan,nan,nan,nan,nan,nan,nan,nan,nan,nan,nan,nan,nan,1588.9215250523412,1840.7035062370705,nan,nan,nan,nan,nan,nan
1,159,1,1,nan,nan,nan,0,0.0,0.0,0.0,0.3928143074823568,0.22387273407563324,0.16894157340672356,0.61668704155799,0.22387273407563324,nan,4,1,5,0,6,8,nan,nan,nan,nan,nan,nan,nan,nan,nan,nan,nan,nan,0.0,nan,nan,nan,nan,nan,nan,nan,nan,nan,nan,nan,nan,nan,nan,nan,nan,nan,nan,1588.9215250523412,1841.7286335471435,nan,nan,nan,nan,nan,nan
1,160,1,1,1.0,1.0,0.010507535422220826,0,0.0,0.0,0.0,0.3928143074823568,0.22387273407563324,0.16894157340672356,0.61668704155799,0.22387273407563324,0.010507535422220826,8,0,3,4,1,6,nan,nan,nan,nan,nan,nan,nan,nan,nan,nan,nan,nan,0.0,nan,nan,nan,nan,nan,nan,nan,nan,nan,nan,nan,nan,nan,nan,nan,nan,nan,nan,1588.9215250523412,1842.7538321314496,nan,1842.7643396668718,nan,nan,nan,nan
1,161,1,1,1.0,1.0,0.22538629220798612,0,0.0,0.0,0.0,0.3894607393063907,0.22572152335793808,0.16373921594845262,0.6151822626643287,0.22572152335793808,0.11794691381510347,7,1,6,5,2,3,nan,nan,nan,nan,nan,nan,nan,nan,nan,nan,nan,nan,0.0,nan,nan,nan,nan,nan,nan,nan,nan,nan,nan,nan,nan,nan,nan,nan,nan,nan,nan,1588.9215250523412,1843.7789072687738,nan,1844.0042935609818,nan,nan,nan,nan
1,162,1,1,1.0,1.0,0.2722257352725137,0,0.0,0.0,0.0,0.38803400498379587,0.22525367013844874,0.16278033484534712,0.6132876751222446,0.22525367013844874,0.16937318763424022,2,8,1,4,3,5,nan,nan,nan,nan,nan,nan,nan,nan,nan,nan,nan,nan,0.0,nan,nan,nan,nan,nan,nan,nan,nan,nan,nan,nan,nan,nan,nan,nan,nan,nan,nan,1588.9215250523412,1844.8040419913596,nan,1845.076267726632,nan,nan,nan,nan
1,163,1,1,1.0,1.0,0.14309845710522495,0,0.0,0.0,0.0,0.38703565783111243,0.22453603059734784,0.1624996272337646,0.6115716884284603,0.22453603059734784,0.21357016152857491,7,5,8,0,6,2,nan,nan,nan,nan,nan,nan,nan,nan,nan,nan,nan,nan,0.0,nan,nan,nan,nan,nan,nan,nan,nan,nan,nan,nan,nan,nan,nan,nan,nan,nan,nan,1588.9215250523412,1845.8291707269382,nan,1845.9722691840434,nan,nan,nan,nan
1,164,1,1,1.0,1.0,0.053952898539137095,0,1.0,0.0,0.0,0.3849507244915749,0.2246992773509648,0.16025144714061013,0.6096500018425397,0.2246992773509648,0.15642569697229192,8,4,0,7,2,1,nan,nan,nan,nan,nan,nan,nan,nan,nan,nan,nan,nan,0.0,nan,nan,nan,nan,nan,nan,nan,nan,nan,nan,nan,nan,nan,nan,nan,nan,nan,nan,1588.9215250523412,1846.8543034538452,nan,1846.9082563523843,nan,nan,nan,nan
1,165,1,1,1.0,1.0,0.11673240055097267,1,0.0,0.0,1.0,0.3821456581699441,0.22579302100071924,0.15635263716922487,0.6079386791706634,0.22579302100071924,0.1045945853984449,3,8,7,0,1,4,1.0,1.0,1.0,1.0,1.0,1.0,0.0,1.0,1.0,1.0,0.0,0.0,3.0,2.0,8.0,7.0,0.0,6.0,1.0,6.0,1.0,2.0,3.0,4.0,5.0,8.487389018846443,2.14322218921734,3.207413776690373,4.6235390916408505,5.919690453069052,7.256043914065231,1588.9215250523412,1847.8794923448586,1848.687867810775,1847.9962247454096,1858.2390854886326,1859.2436658571824,1849.7129877083353,1858.2307666429551
1,166,0,0,nan,nan,nan,0,0.0,0.0,0.0,0.37991529466054097,0.22614388690444306,0.1537714077560979,0.6060591815649841,0.22614388690444306,0.08534264954505488,1,0,6,5,4,3,nan,nan,nan,nan,nan,nan,nan,nan,nan,nan,nan,nan,0.0,nan,nan,nan,nan,nan,nan,nan,nan,nan,nan,nan,nan,nan,nan,nan,nan,nan,nan,1588.9215250523412,1859.4642819061992,nan,nan,nan,nan,nan,nan
1,167,1,1,1.0,1.0,0.7385004695679527,0,0.0,0.0,0.0,0.37991529466054097,0.22614388690444306,0.1537714077560979,0.6060591815649841,0.22614388690444306,0.4276164350594627,7,1,4,2,8,6,nan,nan,nan,nan,nan,nan,nan,nan,nan,nan,nan,nan,0.0,nan,nan,nan,nan,nan,nan,nan,nan,nan,nan,nan,nan,nan,nan,nan,nan,nan,nan,1588.9215250523412,1860.4893912551634,nan,1861.2278917247313,nan,nan,nan,nan
1,168,1,1,1.0,1.0,0.5934006314200815,0,0.0,0.0,0.0,0.38290350445143606,0.22754665551740053,0.15535684893403554,0.6104501599688366,0.22754665551740053,0.6659505504940171,2,0,3,6,5,4,nan,nan,nan,nan,nan,nan,nan,nan,nan,nan,nan,nan,0.0,nan,nan,nan,nan,nan,nan,nan,nan,nan,nan,nan,nan,nan,nan,nan,nan,nan,nan,1588.9215250523412,1861.5145450792625,nan,1862.1079457106825,nan,nan,nan,nan
1,169,1,1,1.0,1.0,0.37626362120499834,0,0.0,0.0,0.0,0.3846431501288629,0.22740433466767787,0.15723881546118504,0.6120474847965408,0.22740433466767787,0.5693882407310108,0,3,5,8,7,2,nan,nan,nan,nan,nan,nan,nan,nan,nan,nan,nan,nan,0.0,nan,nan,nan,nan,nan,nan,nan,nan,nan,nan,nan,nan,nan,nan,nan,nan,nan,nan,1588.9215250523412,1862.539660415263,nan,1862.915924036468,nan,nan,nan,nan
1,170,1,1,1.0,1.0,0.34338623404619284,0,0.0,0.0,0.0,0.3845744654655525,0.22647169228280578,0.15810277318274674,0.6110461577483584,0.22647169228280578,0.4376834955570909,5,1,6,4,2,0,nan,nan,nan,nan,nan,nan,nan,nan,nan,nan,nan,nan,0.0,nan,nan,nan,nan,nan,nan,nan,nan,nan,nan,nan,nan,nan,nan,nan,nan,nan,nan,1588.9215250523412,1863.5564948234824,nan,1863.8998810575285,nan,nan,nan,nan
1,171,1,1,1.0,1.0,0.11825995030812919,0,0.0,0.0,0.0,0.38423960179547645,0.22557952145400748,0.15866008034146897,0.609819123249484,0.22557952145400748,0.27930326851977344,7,2,8,6,3,4,nan,nan,nan,nan,nan,nan,nan,nan,nan,nan,nan,nan,0.0,nan,nan,nan,nan,nan,nan,nan,nan,nan,nan,nan,nan,nan,nan,nan,nan,nan,nan,1588.9215250523412,1864.5816255547397,nan,1864.6998855050479,nan,nan,nan,nan
1,172,1,1,1.0,1.0,0.013084242178592831,0,0.0,0.0,0.0,0.3820946046060623,0.2259240428813336,0.1561705617247287,0.6080186474873959,0.2259240428813336,0.15824347551097162,2,5,0,3,7,1,nan,nan,nan,nan,nan,nan,nan,nan,nan,nan,nan,nan,0.0,nan,nan,nan,nan,nan,nan,nan,nan,nan,nan,nan,nan,nan,nan,nan,nan,nan,nan,1588.9215250523412,1865.606748303253,nan,1865.6198325454316,nan,nan,nan,nan
1,173,0,0,0.0,1.0,0.6999182912113611,0,0.0,0.0,0.0,0.3791425217066426,0.22740706707096348,0.1517354546356791,0.606549588777606,0.22740706707096348,0.2770874945660277,8,7,3,5,6,4,nan,nan,nan,nan,nan,nan,nan,nan,nan,nan,nan,nan,0.0,nan,nan,nan,nan,nan,nan,nan,nan,nan,nan,nan,nan,nan,nan,nan,nan,nan,nan,1588.9215250523412,1866.6318559416104,nan,1867.3317742328218,nan,nan,nan,nan
1,174,1,1,1.0,1.0,0.22678697379888035,0,0.0,0.0,0.0,0.3816883611471562,0.2282842703618164,0.15340409078533981,0.6099726315089726,0.2282842703618164,0.31326316906294477,3,1,0,7,2,5,nan,nan,nan,nan,nan,nan,nan,nan,nan,nan,nan,nan,0.0,nan,nan,nan,nan,nan,nan,nan,nan,nan,nan,nan,nan,nan,nan,nan,nan,nan,nan,1588.9215250523412,1867.6570231652877,nan,1867.8838101390866,nan,nan,nan,nan
1,175,1,1,1.0,1.0,0.18564719017012976,0,0.0,0.0,0.0,0.38046866518378397,0.22779554182430317,0.1526731233594808,0.6082642070080871,0.22779554182430317,0.3707841517267904,7,0,2,6,8,1,nan,nan,nan,nan,nan,nan,nan,nan,nan,nan,nan,nan,0.0,nan,nan,nan,nan,nan,nan,nan,nan,nan,nan,nan,nan,nan,nan,nan,nan,nan,nan,1588.9215250523412,1868.6821496200573,nan,1868.8677968102274,nan,nan,nan,nan
1,176,1,1,1.0,1.0,0.12049710654537193,0,0.0,0.0,0.0,0.3789466224102398,0.22755136109165106,0.15139526131858874,0.6064979835018909,0.22755136109165106,0.17764375683812736,8,7,5,2,1,4,nan,nan,nan,nan,nan,nan,nan,nan,nan,nan,nan,nan,0.0,nan,nan,nan,nan,nan,nan,nan,nan,nan,nan,nan,nan,nan,nan,nan,nan,nan,nan,1588.9215250523412,1869.707273223874,nan,1869.8277703304193,nan,nan,nan,nan
1,177,0,0,0.0,1.0,0.6232719557301607,0,0.0,0.0,0.0,0.3769431377911323,0.22779818962361584,0.14914494816751647,0.6047413274147482,0.22779818962361584,0.30980541748188745,7,3,8,4,0,6,nan,nan,nan,nan,nan,nan,nan,nan,nan,nan,nan,nan,0.0,nan,nan,nan,nan,nan,nan,nan,nan,nan,nan,nan,nan,nan,nan,nan,nan,nan,nan,1588.9215250523412,1870.7324179248535,nan,1871.3556898805837,nan,nan,nan,nan
1,178,1,1,1.0,1.0,0.11017745005665347,0,0.0,0.0,0.0,0.3788379748522017,0.22793860667751997,0.15089936817468175,0.6067765815297217,0.22793860667751997,0.28464883744406205,2,8,7,0,1,3,nan,nan,nan,nan,nan,nan,nan,nan,nan,nan,nan,nan,0.0,nan,nan,nan,nan,nan,nan,nan,nan,nan,nan,nan,nan,nan,nan,nan,nan,nan,nan,1588.9215250523412,1871.757559489779,nan,1871.8677369398356,nan,nan,nan,nan
1,179,1,1,1.0,1.0,0.10066205228213221,0,0.0,0.0,0.0,0.3767871311514724,0.2282677648023552,0.1485193663491172,0.6050548959538276,0.2282677648023552,0.2780371526896488,0,4,8,5,3,1,nan,nan,nan,nan,nan,nan,nan,nan,nan,nan,nan,nan,0.0,nan,nan,nan,nan,nan,nan,nan,nan,nan,nan,nan,nan,nan,nan,nan,nan,nan,nan,1588.9215250523412,1872.7910310191219,nan,1872.891693071404,nan,nan,nan,nan
1,180,1,1,nan,nan,nan,0,0.0,0.0,0.0,0.3746952744933713,0.228658406662911,0.1460368678304603,0.6033536811562823,0.228658406662911,0.10541975116939284,1,0,5,8,7,2,nan,nan,nan,nan,nan,nan,nan,nan,nan,nan,nan,nan,0.0,nan,nan,nan,nan,nan,nan,nan,nan,nan,nan,nan,nan,nan,nan,nan,nan,nan,nan,1588.9215250523412,1873.8161537676351,nan,nan,nan,nan,nan,nan
1,181,0,0,0.0,1.0,0.6103741670376621,0,0.0,0.0,0.0,0.3746952744933713,0.228658406662911,0.1460368678304603,0.6033536811562823,0.228658406662911,0.35551810965989716,7,8,1,0,3,4,nan,nan,nan,nan,nan,nan,nan,nan,nan,nan,nan,nan,0.0,nan,nan,nan,nan,nan,nan,nan,nan,nan,nan,nan,nan,nan,nan,nan,nan,nan,nan,1588.9215250523412,1874.841254278581,nan,1875.4516284456186,nan,nan,nan,nan
1,182,1,1,1.0,1.0,0.00920293148374185,0,0.0,0.0,0.0,0.3764672962418246,0.22870513156302505,0.14776216467879957,0.6051724278048497,0.22870513156302505,0.309788549260702,1,3,2,4,7,6,nan,nan,nan,nan,nan,nan,nan,nan,nan,nan,nan,nan,0.0,nan,nan,nan,nan,nan,nan,nan,nan,nan,nan,nan,nan,nan,nan,nan,nan,nan,nan,1588.9215250523412,1875.8664329061285,nan,1875.8756358376122,nan,nan,nan,nan
1,183,1,1,1.0,1.0,0.08039222506340593,0,0.0,0.0,0.0,0.3737265174003464,0.23003211117916178,0.14369440622118462,0.6037586285795082,0.23003211117916178,0.2333231078616033,5,0,4,6,3,1,nan,nan,nan,nan,nan,nan,nan,nan,nan,nan,nan,nan,0.0,nan,nan,nan,nan,nan,nan,nan,nan,nan,nan,nan,nan,nan,nan,nan,nan,nan,nan,1588.9215250523412,1876.8832339580113,nan,1876.9636261830747,nan,nan,nan,nan
1,184,1,1,nan,nan,nan,0,0.0,0.0,0.0,0.3715536707904431,0.23055467910772315,0.14099899168271995,0.6021083498981663,0.23055467910772315,0.04479757827357389,7,3,2,4,1,5,nan,nan,nan,nan,nan,nan,nan,nan,nan,nan,nan,nan,0.0,nan,nan,nan,nan,nan,nan,nan,nan,nan,nan,nan,nan,nan,nan,nan,nan,nan,nan,1588.9215250523412,1877.9083698210015,nan,nan,nan,nan,nan,nan
1,185,1,1,1.0,1.0,0.7580384527391288,0,0.0,0.0,0.0,0.3715536707904431,0.23055467910772315,0.14099899168271995,0.6021083498981663,0.23055467910772315,0.4192153389012674,1,2,5,8,0,6,nan,nan,nan,nan,nan,nan,nan,nan,nan,nan,nan,nan,0.0,nan,nan,nan,nan,nan,nan,nan,nan,nan,nan,nan,nan,nan,nan,nan,nan,nan,nan,1588.9215250523412,1878.933487722883,nan,1879.6915261756221,nan,nan,nan,nan
1,186,1,1,1.0,1.0,0.7089379053213634,0,0.0,0.0,0.0,0.3743954706577129,0.23206647250950538,0.14232899814820751,0.6064619431672182,0.23206647250950538,0.7334881790302461,0,6,2,3,7,5,nan,nan,nan,nan,nan,nan,nan,nan,nan,nan,nan,nan,0.0,nan,nan,nan,nan,nan,nan,nan,nan,nan,nan,nan,nan,nan,nan,nan,nan,nan,nan,1588.9215250523412,1879.9585910847818,nan,1880.6675289901032,nan,nan,nan,nan
1,187,1,1,1.0,1.0,0.6357660471112467,0,0.0,1.0,0.0,0.3768373862391994,0.23296503604047397,0.1438723501987254,0.6098024222796734,0.23296503604047397,0.7009141350572463,8,2,3,5,1,4,nan,nan,nan,nan,nan,nan,nan,nan,nan,nan,nan,nan,0.0,nan,nan,nan,nan,nan,nan,nan,nan,nan,nan,nan,nan,nan,nan,nan,nan,nan,nan,1588.9215250523412,1880.9837594488345,nan,1881.6195254959457,nan,nan,nan,nan
1,188,1,1,1.0,1.0,0.5789390856225509,1,0.0,0.0,1.0,0.37871368088319973,0.23315602823526002,0.1455576526479397,0.6118697091184597,0.23315602823526002,0.641214346018387,3,8,0,1,6,2,1.0,1.0,1.0,1.0,1.0,1.0,1.0,1.0,1.0,1.0,1.0,0.0,5.0,3.0,8.0,0.0,1.0,6.0,7.0,4.0,1.0,2.0,3.0,5.0,6.0,5.934673156240024,2.366547800222179,3.6237249748955946,4.687795111036394,7.646009582676925,9.174009815324098,1588.9215250523412,1882.0005619261938,1882.808965616743,1882.5795010118163,1893.0353069839184,1894.0465785792912,1883.8257786426984,1893.0269630497205
1,189,1,1,nan,nan,nan,0,0.0,0.0,0.0,0.38015415142089287,0.23293128973060898,0.1472228616902839,0.6130854411515019,0.23293128973060898,0.6073525663668988,0,2,8,7,4,5,nan,nan,nan,nan,nan,nan,nan,nan,nan,nan,nan,nan,0.0,nan,nan,nan,nan,nan,nan,nan,nan,nan,nan,nan,nan,nan,nan,nan,nan,nan,nan,1588.9215250523412,1894.26882395774,nan,nan,nan,nan,nan,nan
1,190,1,1,1.0,1.0,0.061264496471267194,0,0.0,0.0,0.0,0.38015415142089287,0.23293128973060898,0.1472228616902839,0.6130854411515019,0.23293128973060898,0.32010179104690906,6,5,1,4,3,7,nan,nan,nan,nan,nan,nan,nan,nan,nan,nan,nan,nan,0.0,nan,nan,nan,nan,nan,nan,nan,nan,nan,nan,nan,nan,nan,nan,nan,nan,nan,nan,1588.9215250523412,1895.2939583952248,nan,1895.355222891696,nan,nan,nan,nan
1,191,1,1,1.0,1.0,0.6201701002719346,0,0.0,0.0,0.0,0.3778763681712527,0.23364633328055714,0.14423003489069555,0.6115227014518099,0.23364633328055714,0.3407172983716009,8,1,5,0,7,3,nan,nan,nan,nan,nan,nan,nan,nan,nan,nan,nan,nan,0.0,nan,nan,nan,nan,nan,nan,nan,nan,nan,nan,nan,nan,nan,nan,nan,nan,nan,nan,1588.9215250523412,1896.3190489277767,nan,1896.9392190280487,nan,nan,nan,nan
1,192,1,1,1.0,1.0,0.4112963418010622,0,0.0,0.0,0.0,0.3795947634343781,0.23370247139169512,0.14589229204268298,0.6132972348260732,0.23370247139169512,0.36424364618142135,5,6,8,7,4,2,nan,nan,nan,nan,nan,nan,nan,nan,nan,nan,nan,nan,0.0,nan,nan,nan,nan,nan,nan,nan,nan,nan,nan,nan,nan,nan,nan,nan,nan,nan,nan,1588.9215250523412,1897.3358975908777,nan,1897.7471939326788,nan,nan,nan,nan
1,193,1,1,1.0,1.0,0.30616168765118346,0,0.0,0.0,0.0,0.3798180139862562,0.23289320947309958,0.14692480451315662,0.6127112234593558,0.23289320947309958,0.44587604324139346,3,5,7,1,2,8,nan,nan,nan,nan,nan,nan,nan,nan,nan,nan,nan,nan,0.0,nan,nan,nan,nan,nan,nan,nan,nan,nan,nan,nan,nan,nan,nan,nan,nan,nan,nan,1588.9215250523412,1898.3610140672536,nan,1898.6671757549047,nan,nan,nan,nan
1,194,1,1,1.0,1.0,0.23300607997225598,0,0.0,0.0,0.0,0.3793029347811158,0.23215862060328202,0.1471443141778338,0.6114615553843978,0.23215862060328202,0.3168213698081672,7,6,3,8,0,5,nan,nan,nan,nan,nan,nan,nan,nan,nan,nan,nan,nan,0.0,nan,nan,nan,nan,nan,nan,nan,nan,nan,nan,nan,nan,nan,nan,nan,nan,nan,nan,1588.9215250523412,1899.386155632179,nan,1899.6191617121513,nan,nan,nan,nan
1,195,0,0,1.0,0.0,0.2157542897039093,0,0.0,0.0,0.0,0.37828698440049874,0.23166988204605418,0.14661710235444456,0.6099568664465529,0.23166988204605418,0.2516406857757829,5,3,1,7,2,8,nan,nan,nan,nan,nan,nan,nan,nan,nan,nan,nan,nan,0.0,nan,nan,nan,nan,nan,nan,nan,nan,nan,nan,nan,nan,nan,nan,nan,nan,nan,nan,1588.9215250523412,1900.4113861473743,nan,1900.6271404370782,nan,nan,nan,nan
1,196,1,1,1.0,1.0,0.7906783540965989,0,0.0,0.0,0.0,0.3771660692646602,0.2312611484446233,0.14590492082003687,0.6084272177092835,0.2312611484446233,0.4131462412575881,7,4,0,2,5,3,nan,nan,nan,nan,nan,nan,nan,nan,nan,nan,nan,nan,0.0,nan,nan,nan,nan,nan,nan,nan,nan,nan,nan,nan,nan,nan,nan,nan,nan,nan,nan,1588.9215250523412,1901.4364247922786,nan,1902.2271031463752,nan,nan,nan,nan
1,197,1,1,1.0,1.0,0.5818533472192939,0,0.0,0.0,0.0,0.3799983451881666,0.23297760566006037,0.14702073952810624,0.612975950848227,0.23297760566006037,0.5294286636732674,6,2,7,3,0,5,nan,nan,nan,nan,nan,nan,nan,nan,nan,nan,nan,nan,0.0,nan,nan,nan,nan,nan,nan,nan,nan,nan,nan,nan,nan,nan,nan,nan,nan,nan,nan,1588.9215250523412,1902.4532321162988,nan,1903.035085463518,nan,nan,nan,nan
1,198,1,1,1.0,1.0,0.4850289858004544,0,0.0,1.0,0.0,0.3813715084672899,0.23277589458790474,0.14859561387938516,0.6141474030551947,0.23277589458790474,0.619186895705449,7,4,3,8,5,0,nan,nan,nan,nan,nan,nan,nan,nan,nan,nan,nan,nan,0.0,nan,nan,nan,nan,nan,nan,nan,nan,nan,nan,nan,nan,nan,nan,nan,nan,nan,nan,1588.9215250523412,1903.4700442869798,nan,1903.9550732727803,nan,nan,nan,nan
1,199,1,1,1.0,1.0,0.6358954811585136,1,0.0,0.0,1.0,0.38207189682764914,0.2321435219217231,0.14992837490592603,0.6142154187493722,0.2321435219217231,0.5675926047260873,5,3,7,1,4,6,1.0,1.0,1.0,1.0,1.0,1.0,0.0,1.0,1.0,1.0,0.0,0.0,3.0,2.0,3.0,7.0,1.0,6.0,0.0,5.0,1.0,2.0,3.0,4.0,6.0,11.20747450235649,2.575881705270149,3.336491733061848,5.296205529855797,6.77547184980358,13.678925457963487,1588.9215250523412,1904.4951542061171,1905.3035889722232,1905.1310496872757,1920.0388131069485,1921.0496453678352,1906.3203780500335,1920.030480861722
1,200,1,1,nan,nan,nan,0,0.0,0.0,0.0,0.3837754108164469,0.23228952378138426,0.15148588703506263,0.6160649345978312,0.23228952378138426,0.560462233479484,1,5,2,6,0,8,nan,nan,nan,nan,nan,nan,nan,nan,nan,nan,nan,nan,0.0,nan,nan,nan,nan,nan,nan,nan,nan,nan,nan,nan,nan,nan,nan,nan,nan,nan,nan,1588.9215250523412,1921.2723651476845,nan,nan,nan,nan,nan,nan
1,201,1,1,1.0,1.0,0.1452161576889921,0,0.0,0.0,0.0,0.3837754108164469,0.23228952378138426,0.15148588703506263,0.6160649345978312,0.23228952378138426,0.39055581942375284,2,7,6,1,3,4,nan,nan,nan,nan,nan,nan,nan,nan,nan,nan,nan,nan,0.0,nan,nan,nan,nan,nan,nan,nan,nan,nan,nan,nan,nan,nan,nan,nan,nan,nan,nan,1588.9215250523412,1922.2974764923274,nan,1922.4426926500164,nan,nan,nan,nan
1,202,1,1,1.0,1.0,0.39205514459172264,0,0.0,0.0,0.0,0.38218501579559716,0.23232643872696507,0.1498585770686321,0.6145114545225623,0.23232643872696507,0.26863565114035737,6,2,8,3,5,1,nan,nan,nan,nan,nan,nan,nan,nan,nan,nan,nan,nan,0.0,nan,nan,nan,nan,nan,nan,nan,nan,nan,nan,nan,nan,nan,nan,nan,nan,nan,nan,1588.9215250523412,1923.3226020918228,nan,1923.7146572364145,nan,nan,nan,nan
1,203,1,1,nan,nan,nan,0,0.0,0.0,0.0,0.3822503808869623,0.23155725185687465,0.15069312903008764,0.6138076327438369,0.23155725185687465,0.26863565114035737,1,3,4,7,6,0,nan,nan,nan,nan,nan,nan,nan,nan,nan,nan,nan,nan,0.0,nan,nan,nan,nan,nan,nan,nan,nan,nan,nan,nan,nan,nan,nan,nan,nan,nan,nan,1588.9215250523412,1924.3477524947375,nan,nan,nan,nan,nan,nan
1,204,1,1,nan,nan,nan,0,0.0,0.0,0.0,0.3822503808869623,0.23155725185687465,0.15069312903008764,0.6138076327438369,0.23155725185687465,0.39205514459172264,5,4,3,6,0,1,nan,nan,nan,nan,nan,nan,nan,nan,nan,nan,nan,nan,0.0,nan,nan,nan,nan,nan,nan,nan,nan,nan,nan,nan,nan,nan,nan,nan,nan,nan,nan,1588.9215250523412,1925.3728875024244,nan,nan,nan,nan,nan,nan
1,205,1,1,1.0,1.0,0.10826188325881958,0,0.0,0.0,0.0,0.3822503808869623,0.23155725185687465,0.15069312903008764,0.6138076327438369,0.23155725185687465,0.10826188325881958,6,1,7,4,8,2,nan,nan,nan,nan,nan,nan,nan,nan,nan,nan,nan,nan,0.0,nan,nan,nan,nan,nan,nan,nan,nan,nan,nan,nan,nan,nan,nan,nan,nan,nan,nan,1588.9215250523412,1926.406347342825,nan,1926.5146092260838,nan,nan,nan,nan
1,206,0,0,1.0,0.0,0.7870864169090055,0,0.0,0.0,0.0,0.38044782498151397,0.23185477406838417,0.1485930509131298,0.6123025990498981,0.23185477406838417,0.44767415008391254,8,4,6,5,3,1,nan,nan,nan,nan,nan,nan,nan,nan,nan,nan,nan,nan,0.0,nan,nan,nan,nan,nan,nan,nan,nan,nan,nan,nan,nan,nan,nan,nan,nan,nan,nan,1588.9215250523412,1927.4314832057862,nan,1928.2185696226952,nan,nan,nan,nan
1,207,1,1,1.0,1.0,0.6659455613116734,0,0.0,0.0,0.0,0.38310559355620344,0.23340731186405875,0.1496982816921447,0.6165129054202622,0.23340731186405875,0.5204312871598328,0,7,3,6,8,5,nan,nan,nan,nan,nan,nan,nan,nan,nan,nan,nan,nan,0.0,nan,nan,nan,nan,nan,nan,nan,nan,nan,nan,nan,nan,nan,nan,nan,nan,nan,nan,1588.9215250523412,1928.4566122264368,nan,1929.1225577877485,nan,nan,nan,nan
1,208,1,1,1.0,1.0,0.4807856019178871,0,0.0,0.0,0.0,0.38494221672344675,0.23375480940059945,0.1511874073228473,0.6186970261240462,0.23375480940059945,0.6446058600461887,4,1,0,2,5,8,nan,nan,nan,nan,nan,nan,nan,nan,nan,nan,nan,nan,0.0,nan,nan,nan,nan,nan,nan,nan,nan,nan,nan,nan,nan,nan,nan,nan,nan,nan,nan,1588.9215250523412,1929.4817475192249,nan,1929.9625331211428,nan,nan,nan,nan
1,209,0,0,1.0,0.0,0.3759597078023944,0,0.0,0.0,0.0,0.385560561144056,0.23312586343863306,0.15243469770542295,0.6186864245826891,0.23312586343863306,0.5075636236773183,8,2,6,4,1,7,nan,nan,nan,nan,nan,nan,nan,nan,nan,nan,nan,nan,0.0,nan,nan,nan,nan,nan,nan,nan,nan,nan,nan,nan,nan,nan,nan,nan,nan,nan,nan,1588.9215250523412,1930.4985537028697,nan,1930.874513410672,nan,nan,nan,nan
1,210,1,1,1.0,1.0,0.18275031945086084,0,0.0,0.0,0.0,0.3854990172123787,0.23237872708603846,0.15312029012634026,0.6178777442984171,0.23237872708603846,0.34649854305704747,0,3,1,6,4,5,nan,nan,nan,nan,nan,nan,nan,nan,nan,nan,nan,nan,0.0,nan,nan,nan,nan,nan,nan,nan,nan,nan,nan,nan,nan,nan,nan,nan,nan,nan,nan,1588.9215250523412,1931.5237571338366,nan,1931.7065074532875,nan,nan,nan,nan
1,211,1,1,1.0,1.0,0.053650410613045096,0,0.0,0.0,0.0,0.384207624233006,0.2321983744920668,0.15200924974093918,0.6164059987250727,0.2321983744920668,0.20412014595543346,2,8,5,3,0,1,nan,nan,nan,nan,nan,nan,nan,nan,nan,nan,nan,nan,0.0,nan,nan,nan,nan,nan,nan,nan,nan,nan,nan,nan,nan,nan,nan,nan,nan,nan,nan,1588.9215250523412,1932.5488125994743,nan,1932.6024630100874,nan,nan,nan,nan
1,212,1,1,1.0,1.0,0.7564610109839123,0,0.0,0.0,0.0,0.3821154899695885,0.232942132553502,0.1491733574160865,0.6150576225230905,0.232942132553502,0.33095391368260607,7,1,6,8,5,2,nan,nan,nan,nan,nan,nan,nan,nan,nan,nan,nan,nan,0.0,nan,nan,nan,nan,nan,nan,nan,nan,nan,nan,nan,nan,nan,nan,nan,nan,nan,nan,1588.9215250523412,1933.573941620125,nan,1934.3304026311089,nan,nan,nan,nan
1,213,1,1,1.0,1.0,0.7556673009239603,0,0.0,0.0,0.0,0.38446986431559055,0.23408667808640318,0.15038318622918737,0.6185565424019938,0.23408667808640318,0.5219262408403059,5,8,7,4,2,0,nan,nan,nan,nan,nan,nan,nan,nan,nan,nan,nan,nan,0.0,nan,nan,nan,nan,nan,nan,nan,nan,nan,nan,nan,nan,nan,nan,nan,nan,nan,nan,1588.9215250523412,1934.590748373943,nan,1935.3464156748669,nan,nan,nan,nan
1,214,1,1,1.0,1.0,0.6985213158477563,0,0.0,1.0,0.0,0.3867898482943929,0.23518053503087752,0.15160931326351537,0.6219703833252704,0.23518053503087752,0.7368832092518763,7,3,6,5,1,2,nan,nan,nan,nan,nan,nan,nan,nan,nan,nan,nan,nan,0.0,nan,nan,nan,nan,nan,nan,nan,nan,nan,nan,nan,nan,nan,nan,nan,nan,nan,nan,1588.9215250523412,1935.6158753989148,nan,1936.3143967147626,nan,nan,nan,nan
1,215,1,1,1.0,1.0,0.47368868204648606,1,0.0,0.0,1.0,0.3887260685897554,0.23572478921408987,0.15300127937566552,0.6244508578038452,0.23572478921408987,0.6426257662727343,6,2,0,3,4,7,1.0,1.0,1.0,1.0,1.0,1.0,0.0,1.0,0.0,0.0,0.0,0.0,1.0,0.0,2.0,3.0,0.0,2.0,1.0,6.0,1.0,2.0,3.0,4.0,5.0,13.09279679597239,3.134180622640997,4.558541534934193,6.693578303878894,10.39634756516898,11.701132234273246,1588.9215250523412,1936.6327095220622,1937.4410849879787,1937.1063982041087,1951.5929233790375,1952.5922285976121,1938.457900009642,1951.5845922742155
1,216,1,1,nan,nan,nan,0,0.0,0.0,0.0,0.38925052916664876,0.235090322311309,0.15416020685533977,0.6243408514779578,0.235090322311309,0.5861049989471212,5,3,2,8,7,1,nan,nan,nan,nan,nan,nan,nan,nan,nan,nan,nan,nan,0.0,nan,nan,nan,nan,nan,nan,nan,nan,nan,nan,nan,nan,nan,nan,nan,nan,nan,nan,1588.9215250523412,1952.8097963894252,nan,nan,nan,nan,nan,nan
1,217,1,1,1.0,1.0,0.7751097765867598,0,0.0,0.0,0.0,0.38925052916664876,0.23509032231130897,0.1541602068553398,0.6243408514779577,0.23509032231130897,0.624399229316623,3,5,8,4,6,2,nan,nan,nan,nan,nan,nan,nan,nan,nan,nan,nan,nan,0.0,nan,nan,nan,nan,nan,nan,nan,nan,nan,nan,nan,nan,nan,nan,nan,nan,nan,nan,1588.9215250523412,1953.8348752330057,nan,1954.6099850095925,nan,nan,nan,nan
1,218,1,1,nan,nan,nan,0,0.0,0.0,0.0,0.3916177638133979,0.2362968705976151,0.15532089321578282,0.627914634411013,0.2362968705976151,0.7751097765867598,4,6,0,2,1,8,nan,nan,nan,nan,nan,nan,nan,nan,nan,nan,nan,nan,0.0,nan,nan,nan,nan,nan,nan,nan,nan,nan,nan,nan,nan,nan,nan,nan,nan,nan,nan,1588.9215250523412,1954.8600441672315,nan,nan,nan,nan,nan,nan
1,219,1,1,1.0,1.0,0.27684174093883485,0,0.0,0.0,0.0,0.3916177638133979,0.2362968705976151,0.15532089321578282,0.627914634411013,0.2362968705976151,0.5259757587627973,6,0,3,1,5,7,nan,nan,nan,nan,nan,nan,nan,nan,nan,nan,nan,nan,0.0,nan,nan,nan,nan,nan,nan,nan,nan,nan,nan,nan,nan,nan,nan,nan,nan,nan,nan,1588.9215250523412,1955.8851663455425,nan,1956.1620080864814,nan,nan,nan,nan
1,220,1,1,1.0,1.0,0.07568641382385977,0,0.0,0.0,0.0,0.3909179100153823,0.23574474117754393,0.15517316883783835,0.6266626511929262,0.23574474117754393,0.1762640773813473,8,1,0,7,4,2,nan,nan,nan,nan,nan,nan,nan,nan,nan,nan,nan,nan,0.0,nan,nan,nan,nan,nan,nan,nan,nan,nan,nan,nan,nan,nan,nan,nan,nan,nan,nan,1588.9215250523412,1956.9103016383306,nan,1956.9859880521544,nan,nan,nan,nan
1,221,1,1,nan,nan,nan,0,0.0,0.0,0.0,0.38900741609907,0.23629929992799079,0.15270811617107924,0.6253067160270608,0.23629929992799079,0.1762640773813473,3,5,7,6,0,4,nan,nan,nan,nan,nan,nan,nan,nan,nan,nan,nan,nan,0.0,nan,nan,nan,nan,nan,nan,nan,nan,nan,nan,nan,nan,nan,nan,nan,nan,nan,nan,1588.9215250523412,1957.9354517561733,nan,nan,nan,nan,nan,nan
1,222,1,1,nan,nan,nan,0,0.0,0.0,0.0,0.38900741609907,0.23629929992799079,0.15270811617107924,0.6253067160270608,0.23629929992799079,0.07568641382385977,7,6,0,2,8,1,nan,nan,nan,nan,nan,nan,nan,nan,nan,nan,nan,nan,0.0,nan,nan,nan,nan,nan,nan,nan,nan,nan,nan,nan,nan,nan,nan,nan,nan,nan,nan,1588.9215250523412,1958.960575930163,nan,nan,nan,nan,nan,nan
1,223,1,1,1.0,1.0,0.07220423893886618,0,0.0,0.0,0.0,0.38900741609907,0.23629929992799079,0.15270811617107924,0.6253067160270608,0.23629929992799079,0.07220423893886618,2,8,5,4,6,0,nan,nan,nan,nan,nan,nan,nan,nan,nan,nan,nan,nan,0.0,nan,nan,nan,nan,nan,nan,nan,nan,nan,nan,nan,nan,nan,nan,nan,nan,nan,nan,1588.9215250523412,1959.9857140739332,nan,1960.057918312872,nan,nan,nan,nan
1,224,1,1,1.0,1.0,0.6949276680243202,0,0.0,0.0,0.0,0.38709896322461096,0.23685850471275305,0.1502404585118579,0.6239574679373641,0.23685850471275305,0.38356595348159317,6,5,4,0,3,8,nan,nan,nan,nan,nan,nan,nan,nan,nan,nan,nan,nan,0.0,nan,nan,nan,nan,nan,nan,nan,nan,nan,nan,nan,nan,nan,nan,nan,nan,nan,nan,1588.9215250523412,1961.0109035351488,nan,1961.7058312031731,nan,nan,nan,nan
1,225,1,1,1.0,1.0,0.5018836359377019,0,0.0,0.0,0.0,0.3889422488820943,0.23733948251690515,0.15160276636518913,0.6262817313989995,0.23733948251690515,0.42300518096696277,4,1,2,5,8,3,nan,nan,nan,nan,nan,nan,nan,nan,nan,nan,nan,nan,0.0,nan,nan,nan,nan,nan,nan,nan,nan,nan,nan,nan,nan,nan,nan,nan,nan,nan,nan,1588.9215250523412,1962.0359937825997,nan,1962.5378774185374,nan,nan,nan,nan
1,226,1,1,1.0,1.0,0.3730611265054904,0,0.0,0.0,0.0,0.38961451904313954,0.2367914849425507,0.15282303410058884,0.6264060039856902,0.2367914849425507,0.5232908101558374,0,5,8,7,2,6,nan,nan,nan,nan,nan,nan,nan,nan,nan,nan,nan,nan,0.0,nan,nan,nan,nan,nan,nan,nan,nan,nan,nan,nan,nan,nan,nan,nan,nan,nan,nan,1588.9215250523412,1963.0527885623742,nan,1963.4258496888797,nan,nan,nan,nan
1,227,1,1,1.0,1.0,0.05188166876905598,0,0.0,0.0,0.0,0.38951656997486944,0.23609329249653288,0.15342327747833656,0.6256098624714024,0.23609329249653288,0.3089421437374161,8,2,4,3,0,5,nan,nan,nan,nan,nan,nan,nan,nan,nan,nan,nan,nan,0.0,nan,nan,nan,nan,nan,nan,nan,nan,nan,nan,nan,nan,nan,nan,nan,nan,nan,nan,1588.9215250523412,1964.0779212892812,nan,1964.1298029580503,nan,nan,nan,nan
1,228,0,0,1.0,0.0,0.2271250988706015,0,0.0,0.0,0.0,0.3875304823207176,0.23680960310362753,0.15072087921709004,0.624340085424345,0.23680960310362753,0.21735596471504928,4,3,5,2,8,7,nan,nan,nan,nan,nan,nan,nan,nan,nan,nan,nan,nan,0.0,nan,nan,nan,nan,nan,nan,nan,nan,nan,nan,nan,nan,nan,nan,nan,nan,nan,nan,1588.9215250523412,1965.0946898401016,nan,1965.3218149389722,nan,nan,nan,nan
1,229,1,1,1.0,1.0,0.08226502733305097,0,0.0,0.0,0.0,0.38659243914264674,0.23643271610205704,0.1501597230405897,0.6230251552447038,0.23643271610205704,0.12042393165756948,0,4,2,1,3,8,nan,nan,nan,nan,nan,nan,nan,nan,nan,nan,nan,nan,0.0,nan,nan,nan,nan,nan,nan,nan,nan,nan,nan,nan,nan,nan,nan,nan,nan,nan,nan,1588.9215250523412,1966.1115202569927,nan,1966.1937852843257,nan,nan,nan,nan
1,230,1,1,1.0,1.0,0.5530967522354331,0,0.0,0.0,0.0,0.3848230937251491,0.23687709149703054,0.14794600222811857,0.6217001852221796,0.23687709149703054,0.28749562614636187,7,8,6,2,0,4,nan,nan,nan,nan,nan,nan,nan,nan,nan,nan,nan,nan,0.0,nan,nan,nan,nan,nan,nan,nan,nan,nan,nan,nan,nan,nan,nan,nan,nan,nan,nan,1588.9215250523412,1967.136664102698,nan,1967.6897608549334,nan,nan,nan,nan
1,231,1,1,1.0,1.0,0.4319587476202287,0,0.0,0.0,0.0,0.385795773832145,0.23653572072069073,0.14926005311145424,0.6223314945528358,0.23653572072069073,0.3557735090629042,1,4,0,6,2,8,nan,nan,nan,nan,nan,nan,nan,nan,nan,nan,nan,nan,0.0,nan,nan,nan,nan,nan,nan,nan,nan,nan,nan,nan,nan,nan,nan,nan,nan,nan,nan,1588.9215250523412,1968.161784000229,nan,1968.5937427478493,nan,nan,nan,nan
1,232,1,1,1.0,1.0,0.22313488108920865,0,0.0,0.0,0.0,0.3860610782792029,0.2358808538431784,0.1501802244360245,0.6219419321223812,0.2358808538431784,0.40273012698162347,6,5,8,4,1,0,nan,nan,nan,nan,nan,nan,nan,nan,nan,nan,nan,nan,0.0,nan,nan,nan,nan,nan,nan,nan,nan,nan,nan,nan,nan,nan,nan,nan,nan,nan,nan,1588.9215250523412,1969.178595600737,nan,1969.4017304818262,nan,nan,nan,nan
1,233,1,1,1.0,1.0,0.7659823958238121,0,0.0,0.0,0.0,0.3851300714381172,0.23552633452794355,0.14960373691017367,0.6206564059660608,0.23552633452794355,0.4736920081777498,5,7,0,2,8,1,nan,nan,nan,nan,nan,nan,nan,nan,nan,nan,nan,nan,0.0,nan,nan,nan,nan,nan,nan,nan,nan,nan,nan,nan,nan,nan,nan,nan,nan,nan,nan,1588.9215250523412,1970.2037040943978,nan,1970.9696864902216,nan,nan,nan,nan
1,234,1,1,1.0,1.0,0.6928498810448218,0,0.0,0.0,0.0,0.3872940050993996,0.23659443204870176,0.15069957305069784,0.6238884371481014,0.23659443204870176,0.5606557193192808,2,8,4,1,0,7,nan,nan,nan,nan,nan,nan,nan,nan,nan,nan,nan,nan,0.0,nan,nan,nan,nan,nan,nan,nan,nan,nan,nan,nan,nan,nan,nan,nan,nan,nan,nan,1588.9215250523412,1971.2288245621312,nan,1971.921674443176,nan,nan,nan,nan
1,235,0,0,1.0,0.0,0.579608208296122,0,0.0,0.0,0.0,0.38902030948327204,0.23703411944836839,0.15198619003490366,0.6260544289316404,0.23703411944836839,0.6794801617215853,3,5,7,4,6,1,nan,nan,nan,nan,nan,nan,nan,nan,nan,nan,nan,nan,0.0,nan,nan,nan,nan,nan,nan,nan,nan,nan,nan,nan,nan,nan,nan,nan,nan,nan,nan,1588.9215250523412,1972.2540422479506,nan,1972.8336504562467,nan,nan,nan,nan
1,236,1,1,nan,nan,nan,0,0.0,0.0,0.0,0.3900910280159285,0.23679621258821548,0.153294815427713,0.6268872406041439,0.23679621258821548,0.6362290446704719,5,8,6,7,0,3,nan,nan,nan,nan,nan,nan,nan,nan,nan,nan,nan,nan,0.0,nan,nan,nan,nan,nan,nan,nan,nan,nan,nan,nan,nan,nan,nan,nan,nan,nan,nan,1588.9215250523412,1973.2791202362569,nan,nan,nan,nan,nan,nan
1,237,0,0,0.0,1.0,0.7536565117188729,0,0.0,0.0,0.0,0.3900910280159285,0.23679621258821548,0.153294815427713,0.6268872406041439,0.23679621258821548,0.6666323600074975,4,3,7,0,5,6,nan,nan,nan,nan,nan,nan,nan,nan,nan,nan,nan,nan,0.0,nan,nan,nan,nan,nan,nan,nan,nan,nan,nan,nan,nan,nan,nan,nan,nan,nan,nan,1588.9215250523412,1974.2959349727898,nan,1975.0495914845087,nan,nan,nan,nan
1,238,1,1,1.0,1.0,0.5125391366891563,0,0.0,0.0,0.0,0.39212212010365444,0.23768361754326137,0.15443850256039307,0.6298057376469158,0.23768361754326137,0.6330978242040146,0,8,3,2,4,7,nan,nan,nan,nan,nan,nan,nan,nan,nan,nan,nan,nan,0.0,nan,nan,nan,nan,nan,nan,nan,nan,nan,nan,nan,nan,nan,nan,nan,nan,nan,nan,1588.9215250523412,1975.321052304469,nan,1975.8335914411582,nan,nan,nan,nan
1,239,1,1,1.0,1.0,0.37539379025110975,0,0.0,0.0,0.0,0.39279110352912944,0.23719139678477083,0.1555997067443586,0.6299825003139002,0.23719139678477083,0.5471964795530463,7,4,5,3,2,1,nan,nan,nan,nan,nan,nan,nan,nan,nan,nan,nan,nan,0.0,nan,nan,nan,nan,nan,nan,nan,nan,nan,nan,nan,nan,nan,nan,nan,nan,nan,nan,1588.9215250523412,1976.3461838910007,nan,1976.7215776812518,nan,nan,nan,nan
1,240,1,1,1.0,1.0,0.3422310209425632,0,0.0,0.0,0.0,0.3926949857762122,0.2365387796209461,0.1561562061552661,0.6292337653971583,0.2365387796209461,0.41005464929427643,6,5,2,4,3,8,nan,nan,nan,nan,nan,nan,nan,nan,nan,nan,nan,nan,0.0,nan,nan,nan,nan,nan,nan,nan,nan,nan,nan,nan,nan,nan,nan,nan,nan,nan,nan,1588.9215250523412,1977.3713208943664,nan,1977.713551915309,nan,nan,nan,nan
1,241,1,1,1.0,1.0,0.37307851744117215,0,0.0,0.0,0.0,0.3924177112441592,0.2359175468421704,0.1565001644019888,0.6283352580863296,0.2359175468421704,0.363567776211615,8,0,3,1,6,4,nan,nan,nan,nan,nan,nan,nan,nan,nan,nan,nan,nan,0.0,nan,nan,nan,nan,nan,nan,nan,nan,nan,nan,nan,nan,nan,nan,nan,nan,nan,nan,1588.9215250523412,1978.39645276597,nan,1978.7695312834112,nan,nan,nan,nan
1,242,1,1,1.0,1.0,0.4359221662161872,0,0.0,0.0,0.0,0.39231203258949804,0.23527639996857924,0.1570356326209188,0.6275884325580773,0.23527639996857924,0.3837439015333075,5,3,4,6,1,2,nan,nan,nan,nan,nan,nan,nan,nan,nan,nan,nan,nan,0.0,nan,nan,nan,nan,nan,nan,nan,nan,nan,nan,nan,nan,nan,nan,nan,nan,nan,nan,1588.9215250523412,1979.4215815015486,nan,1979.8575036677648,nan,nan,nan,nan
1,243,0,0,1.0,0.0,0.2747745025262702,0,0.0,0.0,0.0,0.3925490441852953,0.23465809597927206,0.15789094820602323,0.6272071401645674,0.23465809597927206,0.3612583953945432,0,2,7,4,5,3,nan,nan,nan,nan,nan,nan,nan,nan,nan,nan,nan,nan,0.0,nan,nan,nan,nan,nan,nan,nan,nan,nan,nan,nan,nan,nan,nan,nan,nan,nan,nan,1588.9215250523412,1980.4467253472249,nan,1980.7214998497511,nan,nan,nan,nan
1,244,1,1,1.0,1.0,0.39362089737551287,0,0.0,0.0,0.0,0.39191242504119245,0.23418229806759472,0.15773012697359773,0.6260947231087872,0.23418229806759472,0.3681058553726568,7,6,5,8,2,0,nan,nan,nan,nan,nan,nan,nan,nan,nan,nan,nan,nan,0.0,nan,nan,nan,nan,nan,nan,nan,nan,nan,nan,nan,nan,nan,nan,nan,nan,nan,nan,1588.9215250523412,1981.4718480957672,nan,1981.8654689931427,nan,nan,nan,nan
1,245,0,0,nan,nan,nan,0,0.0,0.0,0.0,0.39192161037632317,0.23355196076213094,0.15836964961419223,0.6254735711384541,0.23355196076213094,0.33419769995089155,0,3,8,7,1,4,nan,nan,nan,nan,nan,nan,nan,nan,nan,nan,nan,nan,0.0,nan,nan,nan,nan,nan,nan,nan,nan,nan,nan,nan,nan,nan,nan,nan,nan,nan,nan,1588.9215250523412,1982.497009047278,nan,nan,nan,nan,nan,nan
1,246,1,1,1.0,1.0,0.2153223677596543,0,0.0,0.0,0.0,0.39192161037632317,0.23355196076213094,0.15836964961419223,0.6254735711384541,0.23355196076213094,0.3044716325675836,1,8,3,4,6,0,nan,nan,nan,nan,nan,nan,nan,nan,nan,nan,nan,nan,0.0,nan,nan,nan,nan,nan,nan,nan,nan,nan,nan,nan,nan,nan,nan,nan,nan,nan,nan,1588.9215250523412,1983.5221149750578,nan,1983.7374373428174,nan,nan,nan,nan
1,247,1,1,1.0,1.0,0.31015019479673356,0,0.0,0.0,0.0,0.3909772293997635,0.2332824701386146,0.15769475926114887,0.6242596995383781,0.2332824701386146,0.26273628127819393,8,6,1,5,2,4,nan,nan,nan,nan,nan,nan,nan,nan,nan,nan,nan,nan,0.0,nan,nan,nan,nan,nan,nan,nan,nan,nan,nan,nan,nan,nan,nan,nan,nan,nan,nan,1588.9215250523412,1984.5472551145067,nan,1984.8574053093034,nan,nan,nan,nan
1,248,1,1,1.0,1.0,0.013019810226978734,0,0.0,0.0,0.0,0.39054729836464097,0.2327354812175842,0.15781181714705678,0.6232827795822251,0.2327354812175842,0.17949745759445554,0,3,8,1,7,5,nan,nan,nan,nan,nan,nan,nan,nan,nan,nan,nan,nan,0.0,nan,nan,nan,nan,nan,nan,nan,nan,nan,nan,nan,nan,nan,nan,nan,nan,nan,nan,1588.9215250523412,1985.5723824245797,nan,1985.5854022348067,nan,nan,nan,nan
1,249,1,1,1.0,1.0,0.283876509667607,0,0.0,0.0,0.0,0.38854979842740467,0.23372918899601397,0.1548206094313907,0.6222789874234187,0.23372918899601397,0.20234883823043978,6,4,5,7,1,8,nan,nan,nan,nan,nan,nan,nan,nan,nan,nan,nan,nan,0.0,nan,nan,nan,nan,nan,nan,nan,nan,nan,nan,nan,nan,nan,nan,nan,nan,nan,nan,1588.9215250523412,1986.5974880672584,nan,1986.881364576926,nan,nan,nan,nan
1,250,1,1,1.0,1.0,0.17069613275816664,0,0.0,0.0,0.0,0.3879988863813005,0.23323630345836088,0.1547625829229396,0.6212351898396613,0.23323630345836088,0.1558641508842508,3,2,8,6,4,5,nan,nan,nan,nan,nan,nan,nan,nan,nan,nan,nan,nan,0.0,nan,nan,nan,nan,nan,nan,nan,nan,nan,nan,nan,nan,nan,nan,nan,nan,nan,nan,1588.9215250523412,1987.6226541505312,nan,1987.7933502832893,nan,nan,nan,nan
1,251,1,1,1.0,1.0,0.04150812898296863,0,0.0,0.0,0.0,0.38686117562934685,0.23315294147617815,0.1537082341531687,0.620014117105525,0.23315294147617815,0.16536025713624744,1,4,2,5,6,0,nan,nan,nan,nan,nan,nan,nan,nan,nan,nan,nan,nan,0.0,nan,nan,nan,nan,nan,nan,nan,nan,nan,nan,nan,nan,nan,nan,nan,nan,nan,nan,1588.9215250523412,1988.6477823158784,nan,1988.6892904448614,nan,nan,nan,nan
1,252,1,1,nan,nan,nan,0,0.0,0.0,0.0,0.3850624618447303,0.23386988583699184,0.15119257600773847,0.6189323476817221,0.23386988583699184,0.10610213087056763,8,1,0,7,4,3,nan,nan,nan,nan,nan,nan,nan,nan,nan,nan,nan,nan,0.0,nan,nan,nan,nan,nan,nan,nan,nan,nan,nan,nan,nan,nan,nan,nan,nan,nan,nan,1588.9215250523412,1989.6645870740467,nan,nan,nan,nan,nan,nan
1,253,1,1,1.0,1.0,0.07160952658159658,0,0.0,0.0,0.0,0.3850624618447303,0.23386988583699184,0.15119257600773847,0.6189323476817221,0.23386988583699184,0.056558827782282606,5,2,3,1,0,6,nan,nan,nan,nan,nan,nan,nan,nan,nan,nan,nan,nan,0.0,nan,nan,nan,nan,nan,nan,nan,nan,nan,nan,nan,nan,nan,nan,nan,nan,nan,nan,1588.9215250523412,1990.689689010469,nan,1990.7612985370506,nan,nan,nan,nan
1,254,1,1,1.0,1.0,0.5264002681942657,0,0.0,0.0,0.0,0.3834383533718643,0.23434626713219572,0.1490920862396686,0.61778462050406,0.23434626713219572,0.2990048973879311,2,3,7,8,6,4,nan,nan,nan,nan,nan,nan,nan,nan,nan,nan,nan,nan,0.0,nan,nan,nan,nan,nan,nan,nan,nan,nan,nan,nan,nan,nan,nan,nan,nan,nan,nan,1588.9215250523412,1991.7148419792939,nan,1992.2412422474881,nan,nan,nan,nan
1,255,1,1,1.0,1.0,0.10927625841577537,0,0.0,0.0,0.0,0.38417527045857774,0.23396559059875202,0.15020967985982572,0.6181408610573298,0.23396559059875202,0.23576201773054586,8,4,0,7,2,6,nan,nan,nan,nan,nan,nan,nan,nan,nan,nan,nan,nan,0.0,nan,nan,nan,nan,nan,nan,nan,nan,nan,nan,nan,nan,nan,nan,nan,nan,nan,nan,1588.9215250523412,1992.7399786975584,nan,1992.8492549559742,nan,nan,nan,nan
1,256,1,1,1.0,1.0,0.1000559360254556,0,0.0,0.0,0.0,0.38276553193528134,0.23418951412329034,0.148576017811991,0.6169550460585717,0.23418951412329034,0.2452441542118322,6,8,1,4,5,3,nan,nan,nan,nan,nan,nan,nan,nan,nan,nan,nan,nan,0.0,nan,nan,nan,nan,nan,nan,nan,nan,nan,nan,nan,nan,nan,nan,nan,nan,nan,nan,1588.9215250523412,1993.765173575608,nan,1993.8652295116335,nan,nan,nan,nan
1,257,1,1,1.0,1.0,0.22694434734876268,0,1.0,0.0,0.0,0.38132313603778223,0.2344581138225018,0.14686502221528042,0.615781249860284,0.2344581138225018,0.1454255139299979,5,0,4,2,3,7,nan,nan,nan,nan,nan,nan,nan,nan,nan,nan,nan,nan,0.0,nan,nan,nan,nan,nan,nan,nan,nan,nan,nan,nan,nan,nan,nan,nan,nan,nan,nan,1588.9215250523412,1994.7902595466294,nan,1995.0172038939781,nan,nan,nan,nan
1,258,1,1,1.0,1.0,0.11380017778719775,1,0.0,0.0,1.0,0.3805394873642339,0.2341194847722678,0.14642000259196608,0.6146589721365017,0.2341194847722678,0.14693348705380535,6,4,8,7,1,5,1.0,1.0,1.0,1.0,1.0,1.0,0.0,1.0,1.0,1.0,0.0,0.0,3.0,2.0,4.0,8.0,7.0,6.0,0.0,6.0,1.0,2.0,3.0,4.0,5.0,11.196497127064504,2.775665430672234,4.429885237041162,5.997110826894641,7.253841824742267,9.756689373694826,1588.9215250523412,1995.8153851460957,1996.6238033765694,1995.9291853238828,2008.8753923647746,2009.874328952923,1997.6406203939114,2008.8670618301257
1,259,1,1,nan,nan,nan,0,0.0,0.0,0.0,0.37919231913404683,0.2342917690961288,0.14490055003791802,0.6134840882301756,0.2342917690961288,0.17037226256798021,7,3,5,0,8,2,nan,nan,nan,nan,nan,nan,nan,nan,nan,nan,nan,nan,0.0,nan,nan,nan,nan,nan,nan,nan,nan,nan,nan,nan,nan,nan,nan,nan,nan,nan,nan,1588.9215250523412,2010.100609309331,nan,nan,nan,nan,nan,nan
1,260,1,1,1.0,1.0,0.019181326817488298,0,0.0,0.0,0.0,0.37919231913404683,0.2342917690961288,0.14490055003791802,0.6134840882301756,0.2342917690961288,0.06649075230234303,0,2,8,3,5,4,nan,nan,nan,nan,nan,nan,nan,nan,nan,nan,nan,nan,0.0,nan,nan,nan,nan,nan,nan,nan,nan,nan,nan,nan,nan,nan,nan,nan,nan,nan,nan,1588.9215250523412,2011.1256904336915,nan,2011.144871760509,nan,nan,nan,nan
1,261,0,0,0.0,1.0,0.6342675772320945,0,0.0,0.0,0.0,0.37738321867014457,0.23508469515835775,0.14229852351178682,0.6124679138285023,0.23508469515835775,0.3267244520247914,1,0,4,8,6,7,nan,nan,nan,nan,nan,nan,nan,nan,nan,nan,nan,nan,0.0,nan,nan,nan,nan,nan,nan,nan,nan,nan,nan,nan,nan,nan,nan,nan,nan,nan,nan,1588.9215250523412,2012.1425199952791,nan,2012.7767875725112,nan,nan,nan,nan
1,262,1,1,1.0,1.0,0.36915501236217096,0,0.0,0.0,0.0,0.3786676404629543,0.23519521244539945,0.14347242801755486,0.6138628529083537,0.23519521244539945,0.34086797213725123,8,3,0,7,4,5,nan,nan,nan,nan,nan,nan,nan,nan,nan,nan,nan,nan,0.0,nan,nan,nan,nan,nan,nan,nan,nan,nan,nan,nan,nan,nan,nan,nan,nan,nan,nan,1588.9215250523412,2013.1676535774895,nan,2013.5368085898517,nan,nan,nan,nan
1,263,1,1,1.0,1.0,0.3443421643169131,0,0.0,0.0,0.0,0.3786203139549902,0.23461037491258363,0.14400993904240655,0.6132306888675738,0.23461037491258363,0.44925491797039285,4,5,2,3,1,0,nan,nan,nan,nan,nan,nan,nan,nan,nan,nan,nan,nan,0.0,nan,nan,nan,nan,nan,nan,nan,nan,nan,nan,nan,nan,nan,nan,nan,nan,nan,nan,1588.9215250523412,2014.1844480721338,nan,2014.5287902364507,nan,nan,nan,nan
1,264,1,1,1.0,1.0,0.12723166812793352,0,0.0,0.0,0.0,0.3784506201449007,0.23404130131931364,0.14440931882558708,0.6124919214642144,0.23404130131931364,0.28024294826900586,6,8,3,7,2,1,nan,nan,nan,nan,nan,nan,nan,nan,nan,nan,nan,nan,0.0,nan,nan,nan,nan,nan,nan,nan,nan,nan,nan,nan,nan,nan,nan,nan,nan,nan,nan,1588.9215250523412,2015.2095696802717,nan,2015.3368013483996,nan,nan,nan,nan
1,265,1,1,1.0,1.0,0.7100244099856354,0,0.0,0.0,0.0,0.3772130883615659,0.23412573856933083,0.14308734979223509,0.6113388269308968,0.23412573856933083,0.39386608081016067,8,2,6,5,4,7,nan,nan,nan,nan,nan,nan,nan,nan,nan,nan,nan,nan,0.0,nan,nan,nan,nan,nan,nan,nan,nan,nan,nan,nan,nan,nan,nan,nan,nan,nan,nan,1588.9215250523412,2016.2347078240418,nan,2016.9447322340275,nan,nan,nan,nan
1,266,1,1,nan,nan,nan,0,0.0,0.0,0.0,0.3788445164087427,0.23470504324875383,0.1441394731599889,0.6135495596574966,0.23470504324875383,0.4186280390567845,1,0,4,3,2,8,nan,nan,nan,nan,nan,nan,nan,nan,nan,nan,nan,nan,0.0,nan,nan,nan,nan,nan,nan,nan,nan,nan,nan,nan,nan,nan,nan,nan,nan,nan,nan,1588.9215250523412,2017.2598374148656,nan,nan,nan,nan,nan,nan
1,267,1,1,1.0,1.0,0.6756813390820753,0,0.0,0.0,0.0,0.3788445164087427,0.23470504324875383,0.1441394731599889,0.6135495596574966,0.23470504324875383,0.6928528745338554,2,7,0,6,8,5,nan,nan,nan,nan,nan,nan,nan,nan,nan,nan,nan,nan,0.0,nan,nan,nan,nan,nan,nan,nan,nan,nan,nan,nan,nan,nan,nan,nan,nan,nan,nan,1588.9215250523412,2018.284973562957,nan,2018.960654902039,nan,nan,nan,nan
1,268,1,1,nan,nan,nan,0,0.0,0.0,0.0,0.3802925009095882,0.2350435307763511,0.14524897013323712,0.6153360316859393,0.2350435307763511,0.6756813390820753,6,5,8,1,0,4,nan,nan,nan,nan,nan,nan,nan,nan,nan,nan,nan,nan,0.0,nan,nan,nan,nan,nan,nan,nan,nan,nan,nan,nan,nan,nan,nan,nan,nan,nan,nan,1588.9215250523412,2019.3101080004417,nan,nan,nan,nan,nan,nan
1,269,1,1,1.0,1.0,0.4174524415284395,0,0.0,0.0,0.0,0.3802925009095882,0.2350435307763511,0.14524897013323712,0.6153360316859393,0.2350435307763511,0.5465668903052574,1,8,5,7,6,0,nan,nan,nan,nan,nan,nan,nan,nan,nan,nan,nan,nan,0.0,nan,nan,nan,nan,nan,nan,nan,nan,nan,nan,nan,nan,nan,nan,nan,nan,nan,nan,1588.9215250523412,2020.3352184898104,nan,2020.7526709313388,nan,nan,nan,nan
1,270,1,1,1.0,1.0,0.1202801477338653,0,0.0,0.0,0.0,0.3804728889708448,0.23448656715970803,0.14598632181113677,0.6149594561305528,0.23448656715970803,0.2688662946311524,6,1,3,2,5,4,nan,nan,nan,nan,nan,nan,nan,nan,nan,nan,nan,nan,0.0,nan,nan,nan,nan,nan,nan,nan,nan,nan,nan,nan,nan,nan,nan,nan,nan,nan,nan,1588.9215250523412,2021.3603771605412,nan,2021.480657308275,nan,nan,nan,nan
1,271,1,1,nan,nan,nan,0,0.0,0.0,0.0,0.37921591920641495,0.23461415487197934,0.1446017643344356,0.6138300740783943,0.23461415487197934,0.2688662946311524,5,0,2,4,7,1,nan,nan,nan,nan,nan,nan,nan,nan,nan,nan,nan,nan,0.0,nan,nan,nan,nan,nan,nan,nan,nan,nan,nan,nan,nan,nan,nan,nan,nan,nan,nan,1588.9215250523412,2022.37718876102,nan,nan,nan,nan,nan,nan
1,272,1,1,nan,nan,nan,0,0.0,0.0,0.0,0.37921591920641495,0.23461415487197934,0.1446017643344356,0.6138300740783943,0.23461415487197934,0.1202801477338653,6,7,4,5,0,2,nan,nan,nan,nan,nan,nan,nan,nan,nan,nan,nan,nan,0.0,nan,nan,nan,nan,nan,nan,nan,nan,nan,nan,nan,nan,nan,nan,nan,nan,nan,nan,1588.9215250523412,2023.402300105663,nan,nan,nan,nan,nan,nan
1,273,1,1,nan,nan,nan,0,0.0,0.0,0.0,0.37921591920641495,0.23461415487197934,0.1446017643344356,0.6138300740783943,0.23461415487197934,nan,0,4,8,3,2,5,nan,nan,nan,nan,nan,nan,nan,nan,nan,nan,nan,nan,0.0,nan,nan,nan,nan,nan,nan,nan,nan,nan,nan,nan,nan,nan,nan,nan,nan,nan,nan,1588.9215250523412,2024.4274482277979,nan,nan,nan,nan,nan,nan
1,274,1,1,1.0,1.0,0.43596835192875005,0,0.0,0.0,0.0,0.37921591920641495,0.23461415487197934,0.1446017643344356,0.6138300740783943,0.23461415487197934,0.43596835192875005,7,1,4,8,3,2,nan,nan,nan,nan,nan,nan,nan,nan,nan,nan,nan,nan,0.0,nan,nan,nan,nan,nan,nan,nan,nan,nan,nan,nan,nan,nan,nan,nan,nan,nan,nan,1588.9215250523412,2025.4525872268714,nan,2025.8885555788002,nan,nan,nan,nan
1,275,1,1,1.0,1.0,0.05086558303446509,0,0.0,0.0,0.0,0.37948876744065696,0.23408241787740963,0.14540634956324733,0.6135711853180665,0.23408241787740963,0.24341696748160757,3,5,0,2,6,1,nan,nan,nan,nan,nan,nan,nan,nan,nan,nan,nan,nan,0.0,nan,nan,nan,nan,nan,nan,nan,nan,nan,nan,nan,nan,nan,nan,nan,nan,nan,nan,1588.9215250523412,2026.4777148220164,nan,2026.528580405051,nan,nan,nan,nan
1,276,1,1,nan,nan,nan,0,0.0,0.0,0.0,0.377916407706656,0.23462021415672438,0.14329619354993164,0.6125366218633804,0.23462021415672438,0.24341696748160757,8,1,6,5,2,4,nan,nan,nan,nan,nan,nan,nan,nan,nan,nan,nan,nan,0.0,nan,nan,nan,nan,nan,nan,nan,nan,nan,nan,nan,nan,nan,nan,nan,nan,nan,nan,1588.9215250523412,2027.502843842667,nan,nan,nan,nan,nan,nan
1,277,1,1,1.0,1.0,0.23252854248858057,0,0.0,0.0,0.0,0.377916407706656,0.23462021415672438,0.14329619354993164,0.6125366218633804,0.23462021415672438,0.14169706276152283,7,2,8,6,5,1,nan,nan,nan,nan,nan,nan,nan,nan,nan,nan,nan,nan,0.0,nan,nan,nan,nan,nan,nan,nan,nan,nan,nan,nan,nan,nan,nan,nan,nan,nan,nan,1588.9215250523412,2028.527983982116,nan,2028.7605125246046,nan,nan,nan,nan
1,278,1,1,nan,nan,nan,0,0.0,0.0,0.0,0.3772240845389509,0.2342748259769693,0.1429492585619816,0.6114989105159202,0.2342748259769693,0.23252854248858057,2,0,5,4,8,7,nan,nan,nan,nan,nan,nan,nan,nan,nan,nan,nan,nan,0.0,nan,nan,nan,nan,nan,nan,nan,nan,nan,nan,nan,nan,nan,nan,nan,nan,nan,nan,1588.9215250523412,2029.5448078417685,nan,nan,nan,nan,nan,nan
1,279,1,1,1.0,1.0,0.5424535106576513,0,0.0,0.0,0.0,0.3772240845389509,0.2342748259769693,0.1429492585619816,0.6114989105159202,0.2342748259769693,0.38749102657311596,5,1,4,3,7,2,nan,nan,nan,nan,nan,nan,nan,nan,nan,nan,nan,nan,0.0,nan,nan,nan,nan,nan,nan,nan,nan,nan,nan,nan,nan,nan,nan,nan,nan,nan,nan,1588.9215250523412,2030.569999583764,nan,2031.1124530944217,nan,nan,nan,nan
