block,trial,freq_trials,correct_response,actual_response,acc,rts,probe_trials,trials_colorind0,trials_colorind1,trials_colorind2,trials_colorind3,trials_colorind4,trials_colorind5,wholereport_resp0,wholereport_resp1,wholereport_resp2,wholereport_resp3,wholereport_resp4,wholereport_resp5,wholereport_respacc0,wholereport_respacc1,wholereport_respacc2,wholereport_respacc3,wholereport_respacc4,wholereport_respacc5,wholereport_respacc_total,wholereport_respcolorind0,wholereport_respcolorind1,wholereport_respcolorind2,wholereport_respcolorind3,wholereport_respcolorind4,wholereport_respcolorind5,wholereport_resporder0,wholereport_resporder1,wholereport_resporder2,wholereport_resporder3,wholereport_resporder4,wholereport_resporder5,wholereport_rts0,wholereport_rts1,wholereport_rts2,wholereport_rts3,wholereport_rts4,wholereport_rts5,time_blockstart,time_encarray_offset,time_encarray_onset,time_response,time_iti_offset,time_iti_onset,time_memprobe_offset,time_memprobe_onset
1,1,1,1,1.0,1.0,0.7695998183917254,0.0,5,6,8,7,1,0,nan,nan,nan,nan,nan,nan,nan,nan,nan,nan,nan,nan,0.0,nan,nan,nan,nan,nan,nan,nan,nan,nan,nan,nan,nan,nan,nan,nan,nan,nan,nan,217.50340607343242,218.51773085445166,nan,219.28733067284338,nan,nan,nan,nan
1,2,1,1,1.0,1.0,0.34267630078829825,0.0,8,5,6,4,1,7,nan,nan,nan,nan,nan,nan,nan,nan,nan,nan,nan,nan,0.0,nan,nan,nan,nan,nan,nan,nan,nan,nan,nan,nan,nan,nan,nan,nan,nan,nan,nan,217.50340607343242,219.52867636131123,nan,219.87135266209953,nan,nan,nan,nan
1,3,1,1,1.0,1.0,0.36865733936429024,0.0,4,7,0,8,6,1,nan,nan,nan,nan,nan,nan,nan,nan,nan,nan,nan,nan,0.0,nan,nan,nan,nan,nan,nan,nan,nan,nan,nan,nan,nan,nan,nan,nan,nan,nan,nan,217.50340607343242,220.5346471820958,nan,220.9033045214601,nan,nan,nan,nan
1,4,1,1,1.0,1.0,0.5441868673078716,0.0,8,6,7,5,1,0,nan,nan,nan,nan,nan,nan,nan,nan,nan,nan,nan,nan,0.0,nan,nan,nan,nan,nan,nan,nan,nan,nan,nan,nan,nan,nan,nan,nan,nan,nan,nan,217.50340607343242,221.5431539551355,nan,222.08734082244337,nan,nan,nan,nan
1,5,1,1,1.0,1.0,0.40764856920577586,0.0,5,1,0,7,2,6,nan,nan,nan,nan,nan,nan,nan,nan,nan,nan,nan,nan,0.0,nan,nan,nan,nan,nan,nan,nan,nan,nan,nan,nan,nan,nan,nan,nan,nan,nan,nan,217.50340607343242,222.5516344991047,nan,222.95928306831047,nan,nan,nan,nan
1,6,0,0,0.0,1.0,0.5671769361943007,1.0,1,2,4,5,6,8,1.0,1.0,1.0,1.0,1.0,1.0,0.0,0.0,1.0,0.0,0.0,0.0,1.0,6.0,1.0,4.0,4.0,0.0,3.0,3.0,2.0,1.0,6.0,5.0,4.0,5.451702580554411,4.220204198965803,3.222618129104376,8.667151049245149,7.403432815568522,6.468107726192102,217.50340607343242,223.56010791566223,224.3685324662365,224.12728485185653,234.08653370826505,235.08572374284267,225.3770227036439,234.07820569188334
1,7,1,1,nan,nan,nan,0.0,8,0,1,6,7,2,nan,nan,nan,nan,nan,nan,nan,nan,nan,nan,nan,nan,0.0,nan,nan,nan,nan,nan,nan,nan,nan,nan,nan,nan,nan,nan,nan,nan,nan,nan,nan,217.50340607343242,235.29507081583142,nan,nan,nan,nan,nan,nan
1,8,1,1,1.0,1.0,0.4315130354370922,0.0,7,3,0,8,4,6,nan,nan,nan,nan,nan,nan,nan,nan,nan,nan,nan,nan,0.0,nan,nan,nan,nan,nan,nan,nan,nan,nan,nan,nan,nan,nan,nan,nan,nan,nan,nan,217.50340607343242,236.3035436621867,nan,236.7350566976238,nan,nan,nan,nan
1,9,1,1,1.0,1.0,0.5510175456292927,0.0,4,5,6,2,1,0,nan,nan,nan,nan,nan,nan,nan,nan,nan,nan,nan,nan,0.0,nan,nan,nan,nan,nan,nan,nan,nan,nan,nan,nan,nan,nan,nan,nan,nan,nan,nan,217.50340607343242,237.31203076336533,nan,237.86304830899462,nan,nan,nan,nan
1,10,0,0,0.0,1.0,0.4945312379859388,1.0,3,2,1,8,0,4,1.0,1.0,1.0,1.0,1.0,1.0,0.0,0.0,1.0,0.0,0.0,1.0,2.0,7.0,7.0,1.0,6.0,2.0,4.0,5.0,6.0,1.0,2.0,3.0,4.0,5.266766793327406,6.370770490495488,1.1817021984606981,2.338889050297439,3.523135184077546,4.298558997455984,217.50340607343242,238.32050674571656,239.128924169112,238.8150379837025,246.54663215833716,247.54624328389764,240.13744263118133,246.53827648772858
1,11,1,1,1.0,1.0,0.5797292590141296,0.0,8,4,7,2,5,6,nan,nan,nan,nan,nan,nan,nan,nan,nan,nan,nan,nan,0.0,nan,nan,nan,nan,nan,nan,nan,nan,nan,nan,nan,nan,nan,nan,nan,nan,nan,nan,217.50340607343242,247.75516898091882,nan,248.33489823993295,nan,nan,nan,nan
1,12,1,1,1.0,1.0,0.491261726943776,0.0,0,7,2,5,6,1,nan,nan,nan,nan,nan,nan,nan,nan,nan,nan,nan,nan,0.0,nan,nan,nan,nan,nan,nan,nan,nan,nan,nan,nan,nan,nan,nan,nan,nan,nan,nan,217.50340607343242,248.76362500642426,nan,249.25488673336804,nan,nan,nan,nan
1,13,1,1,1.0,1.0,0.41876770090311766,0.0,3,1,6,8,5,0,nan,nan,nan,nan,nan,nan,nan,nan,nan,nan,nan,nan,0.0,nan,nan,nan,nan,nan,nan,nan,nan,nan,nan,nan,nan,nan,nan,nan,nan,nan,nan,217.50340607343242,249.77209642739035,nan,250.19086412829347,nan,nan,nan,nan
1,14,1,1,1.0,1.0,0.5062909864354879,0.0,8,3,0,2,7,5,nan,nan,nan,nan,nan,nan,nan,nan,nan,nan,nan,nan,0.0,nan,nan,nan,nan,nan,nan,nan,nan,nan,nan,nan,nan,nan,nan,nan,nan,nan,nan,217.50340607343242,250.78056699293666,nan,251.28685797937214,nan,nan,nan,nan
1,15,1,1,1.0,1.0,0.41779152350500226,0.0,6,7,2,0,5,8,nan,nan,nan,nan,nan,nan,nan,nan,nan,nan,nan,nan,0.0,nan,nan,nan,nan,nan,nan,nan,nan,nan,nan,nan,nan,nan,nan,nan,nan,nan,nan,217.50340607343242,251.78904554108158,nan,252.20683706458658,nan,nan,nan,nan
1,16,1,1,1.0,1.0,0.5453024581074715,0.0,2,0,5,7,1,6,nan,nan,nan,nan,nan,nan,nan,nan,nan,nan,nan,nan,0.0,nan,nan,nan,nan,nan,nan,nan,nan,nan,nan,nan,nan,nan,nan,nan,nan,nan,nan,217.50340607343242,252.79751382605173,nan,253.3428162841592,nan,nan,nan,nan
1,17,1,1,1.0,1.0,0.5207774185109884,0.0,3,6,7,0,5,2,nan,nan,nan,nan,nan,nan,nan,nan,nan,nan,nan,nan,0.0,nan,nan,nan,nan,nan,nan,nan,nan,nan,nan,nan,nan,nan,nan,nan,nan,nan,nan,217.50340607343242,253.806035424117,nan,254.326812842628,nan,nan,nan,nan
1,18,1,1,1.0,1.0,0.5762918246909976,0.0,1,2,5,4,3,7,nan,nan,nan,nan,nan,nan,nan,nan,nan,nan,nan,nan,0.0,nan,nan,nan,nan,nan,nan,nan,nan,nan,nan,nan,nan,nan,nan,nan,nan,nan,nan,217.50340607343242,254.81450000265613,nan,255.39079182734713,nan,nan,nan,nan
1,19,1,1,1.0,1.0,0.6638789721764624,0.0,4,0,7,8,5,6,nan,nan,nan,nan,nan,nan,nan,nan,nan,nan,nan,nan,0.0,nan,nan,nan,nan,nan,nan,nan,nan,nan,nan,nan,nan,nan,nan,nan,nan,nan,nan,217.50340607343242,255.822913833661,nan,256.48679280583747,nan,nan,nan,nan
1,20,1,1,1.0,1.0,0.4874171717092395,0.0,8,5,6,1,7,0,nan,nan,nan,nan,nan,nan,nan,nan,nan,nan,nan,nan,0.0,nan,nan,nan,nan,nan,nan,nan,nan,nan,nan,nan,nan,nan,nan,nan,nan,nan,nan,217.50340607343242,256.83141233888455,nan,257.3188295105938,nan,nan,nan,nan
1,21,1,1,1.0,1.0,0.4869162533432245,0.0,7,6,1,4,0,8,nan,nan,nan,nan,nan,nan,nan,nan,nan,nan,nan,nan,0.0,nan,nan,nan,nan,nan,nan,nan,nan,nan,nan,nan,nan,nan,nan,nan,nan,nan,nan,217.50340607343242,257.8398846150376,nan,258.3268008683808,nan,nan,nan,nan
1,22,1,1,1.0,1.0,0.43837193865329027,0.0,4,3,2,8,5,6,nan,nan,nan,nan,nan,nan,nan,nan,nan,nan,nan,nan,0.0,nan,nan,nan,nan,nan,nan,nan,nan,nan,nan,nan,nan,nan,nan,nan,nan,nan,nan,217.50340607343242,258.84836829500273,nan,259.286740233656,nan,nan,nan,nan
1,23,1,1,1.0,1.0,0.46993919974192977,0.0,6,1,3,5,2,7,nan,nan,nan,nan,nan,nan,nan,nan,nan,nan,nan,nan,0.0,nan,nan,nan,nan,nan,nan,nan,nan,nan,nan,nan,nan,nan,nan,nan,nan,nan,nan,217.50340607343242,259.85681633790955,nan,260.3267555376515,nan,nan,nan,nan
1,24,1,1,1.0,1.0,0.34140533092431724,0.0,0,8,5,6,7,1,nan,nan,nan,nan,nan,nan,nan,nan,nan,nan,nan,nan,0.0,nan,nan,nan,nan,nan,nan,nan,nan,nan,nan,nan,nan,nan,nan,nan,nan,nan,nan,217.50340607343242,260.86532197054476,nan,261.2067273014691,nan,nan,nan,nan
1,25,1,1,1.0,1.0,0.35689131869003177,0.0,7,0,2,1,4,3,nan,nan,nan,nan,nan,nan,nan,nan,nan,nan,nan,nan,0.0,nan,nan,nan,nan,nan,nan,nan,nan,nan,nan,nan,nan,nan,nan,nan,nan,nan,nan,217.50340607343242,261.87380451033823,nan,262.23069582902826,nan,nan,nan,nan
1,26,1,1,1.0,1.0,0.3244191543199122,0.0,2,4,0,7,1,5,nan,nan,nan,nan,nan,nan,nan,nan,nan,nan,nan,nan,0.0,nan,nan,nan,nan,nan,nan,nan,nan,nan,nan,nan,nan,nan,nan,nan,nan,nan,nan,217.50340607343242,262.88225796981715,nan,263.20667712413706,nan,nan,nan,nan
1,27,1,1,1.0,1.0,0.2919441389385611,0.0,8,3,1,2,5,7,nan,nan,nan,nan,nan,nan,nan,nan,nan,nan,nan,nan,0.0,nan,nan,nan,nan,nan,nan,nan,nan,nan,nan,nan,nan,nan,nan,nan,nan,nan,nan,217.50340607343242,263.89072967576794,nan,264.1826738147065,nan,nan,nan,nan
1,28,1,1,1.0,1.0,0.3154396878089756,0.0,7,2,6,4,1,0,nan,nan,nan,nan,nan,nan,nan,nan,nan,nan,nan,nan,0.0,nan,nan,nan,nan,nan,nan,nan,nan,nan,nan,nan,nan,nan,nan,nan,nan,nan,nan,217.50340607343242,264.89920765394345,nan,265.2146473417524,nan,nan,nan,nan
1,29,1,1,1.0,1.0,0.3149430458433926,0.0,4,1,7,6,5,8,nan,nan,nan,nan,nan,nan,nan,nan,nan,nan,nan,nan,0.0,nan,nan,nan,nan,nan,nan,nan,nan,nan,nan,nan,nan,nan,nan,nan,nan,nan,nan,217.50340607343242,265.90768192592077,nan,266.22262497176416,nan,nan,nan,nan
1,30,1,1,1.0,1.0,0.330460109282285,0.0,2,7,0,8,6,3,nan,nan,nan,nan,nan,nan,nan,nan,nan,nan,nan,nan,0.0,nan,nan,nan,nan,nan,nan,nan,nan,nan,nan,nan,nan,nan,nan,nan,nan,nan,nan,217.50340607343242,266.916155627463,nan,267.2466157367453,nan,nan,nan,nan
1,31,1,1,1.0,1.0,0.40996927209198475,0.0,5,4,8,7,2,0,nan,nan,nan,nan,nan,nan,nan,nan,nan,nan,nan,nan,0.0,nan,nan,nan,nan,nan,nan,nan,nan,nan,nan,nan,nan,nan,nan,nan,nan,nan,nan,217.50340607343242,267.924633320421,nan,268.33460259251297,nan,nan,nan,nan
1,32,1,1,1.0,1.0,0.2894743294455111,0.0,8,7,5,2,1,3,nan,nan,nan,nan,nan,nan,nan,nan,nan,nan,nan,nan,0.0,nan,nan,nan,nan,nan,nan,nan,nan,nan,nan,nan,nan,nan,nan,nan,nan,nan,nan,217.50340607343242,268.93310958798975,nan,269.22258391743526,nan,nan,nan,nan
1,33,1,1,1.0,1.0,0.3609947431832552,0.0,7,6,1,8,3,4,nan,nan,nan,nan,nan,nan,nan,nan,nan,nan,nan,nan,0.0,nan,nan,nan,nan,nan,nan,nan,nan,nan,nan,nan,nan,nan,nan,nan,nan,nan,nan,217.50340607343242,269.94158214936033,nan,270.3025768925436,nan,nan,nan,nan
1,34,1,1,1.0,1.0,0.28055644407868385,0.0,5,4,7,1,0,6,nan,nan,nan,nan,nan,nan,nan,nan,nan,nan,nan,nan,0.0,nan,nan,nan,nan,nan,nan,nan,nan,nan,nan,nan,nan,nan,nan,nan,nan,nan,nan,217.50340607343242,270.950011375593,nan,271.2305678196717,nan,nan,nan,nan
1,35,1,1,1.0,1.0,0.2800136161968112,0.0,0,5,2,8,1,4,nan,nan,nan,nan,nan,nan,nan,nan,nan,nan,nan,nan,0.0,nan,nan,nan,nan,nan,nan,nan,nan,nan,nan,nan,nan,nan,nan,nan,nan,nan,nan,217.50340607343242,271.9585343992803,nan,272.23854801547714,nan,nan,nan,nan
1,36,1,1,1.0,1.0,0.27147662290371954,0.0,6,3,1,0,7,8,nan,nan,nan,nan,nan,nan,nan,nan,nan,nan,nan,nan,0.0,nan,nan,nan,nan,nan,nan,nan,nan,nan,nan,nan,nan,nan,nan,nan,nan,nan,nan,217.50340607343242,272.9670534315519,nan,273.2385300544556,nan,nan,nan,nan
1,37,1,1,1.0,1.0,0.35910910088568926,0.0,5,0,2,3,4,1,nan,nan,nan,nan,nan,nan,nan,nan,nan,nan,nan,nan,0.0,nan,nan,nan,nan,nan,nan,nan,nan,nan,nan,nan,nan,nan,nan,nan,nan,nan,nan,217.50340607343242,273.97546840296127,nan,274.33457750384696,nan,nan,nan,nan
1,38,1,1,1.0,1.0,0.3266075714491308,0.0,3,2,8,5,7,6,nan,nan,nan,nan,nan,nan,nan,nan,nan,nan,nan,nan,0.0,nan,nan,nan,nan,nan,nan,nan,nan,nan,nan,nan,nan,nan,nan,nan,nan,nan,nan,217.50340607343242,274.98394894693047,nan,275.3105565183796,nan,nan,nan,nan
1,39,1,1,1.0,1.0,0.2860594179946929,0.0,8,5,0,1,4,3,nan,nan,nan,nan,nan,nan,nan,nan,nan,nan,nan,nan,0.0,nan,nan,nan,nan,nan,nan,nan,nan,nan,nan,nan,nan,nan,nan,nan,nan,nan,nan,217.50340607343242,275.99242407409474,nan,276.27848349208944,nan,nan,nan,nan
1,40,1,1,1.0,1.0,0.33361330023035407,0.0,1,6,8,5,2,4,nan,nan,nan,nan,nan,nan,nan,nan,nan,nan,nan,nan,0.0,nan,nan,nan,nan,nan,nan,nan,nan,nan,nan,nan,nan,nan,nan,nan,nan,nan,nan,217.50340607343242,277.0008843760006,nan,277.33449767623097,nan,nan,nan,nan
1,41,1,1,1.0,1.0,0.405156236840412,0.0,0,8,3,2,1,7,nan,nan,nan,nan,nan,nan,nan,nan,nan,nan,nan,nan,0.0,nan,nan,nan,nan,nan,nan,nan,nan,nan,nan,nan,nan,nan,nan,nan,nan,nan,nan,217.50340607343242,278.00937375822105,nan,278.41452999506146,nan,nan,nan,nan
1,42,0,0,nan,nan,nan,1.0,3,5,7,8,0,1,1.0,1.0,1.0,1.0,1.0,1.0,0.0,0.0,1.0,0.0,0.0,0.0,1.0,2.0,1.0,7.0,3.0,6.0,8.0,3.0,2.0,1.0,6.0,5.0,4.0,4.650856806896627,3.4248058050870895,2.2663089248817414,8.61690384009853,7.489234105218202,6.201679344987497,217.50340607343242,279.0178166690748,279.8262683041394,nan,289.4942985975649,290.4940260432195,280.8347451419104,289.4859403609298
1,43,1,1,1.0,1.0,0.6714831229764968,0.0,6,0,3,7,8,5,nan,nan,nan,nan,nan,nan,nan,nan,nan,nan,nan,nan,0.0,nan,nan,nan,nan,nan,nan,nan,nan,nan,nan,nan,nan,nan,nan,nan,nan,nan,nan,217.50340607343242,290.7027955062222,nan,291.37427862919867,nan,nan,nan,nan
1,44,1,1,1.0,1.0,0.3989892683457583,0.0,4,7,5,3,1,2,nan,nan,nan,nan,nan,nan,nan,nan,nan,nan,nan,nan,0.0,nan,nan,nan,nan,nan,nan,nan,nan,nan,nan,nan,nan,nan,nan,nan,nan,nan,nan,217.50340607343242,291.71127177379094,nan,292.1102610421367,nan,nan,nan,nan
1,45,1,1,1.0,1.0,0.2944917802233249,0.0,7,3,8,4,2,0,nan,nan,nan,nan,nan,nan,nan,nan,nan,nan,nan,nan,0.0,nan,nan,nan,nan,nan,nan,nan,nan,nan,nan,nan,nan,nan,nan,nan,nan,nan,nan,217.50340607343242,292.71975716459565,nan,293.014248944819,nan,nan,nan,nan
1,46,1,1,1.0,1.0,0.2460050554946065,0.0,3,5,7,8,6,2,nan,nan,nan,nan,nan,nan,nan,nan,nan,nan,nan,nan,0.0,nan,nan,nan,nan,nan,nan,nan,nan,nan,nan,nan,nan,nan,nan,nan,nan,nan,nan,217.50340607343242,293.72822060249746,nan,293.97422565799206,nan,nan,nan,nan
1,47,1,1,1.0,1.0,0.2135440099518746,0.0,6,4,8,0,1,3,nan,nan,nan,nan,nan,nan,nan,nan,nan,nan,nan,nan,0.0,nan,nan,nan,nan,nan,nan,nan,nan,nan,nan,nan,nan,nan,nan,nan,nan,nan,nan,217.50340607343242,294.7366700707935,nan,294.95021408074535,nan,nan,nan,nan
1,48,1,1,1.0,1.0,0.26103488518856466,0.0,8,2,3,1,4,5,nan,nan,nan,nan,nan,nan,nan,nan,nan,nan,nan,nan,0.0,nan,nan,nan,nan,nan,nan,nan,nan,nan,nan,nan,nan,nan,nan,nan,nan,nan,nan,217.50340607343242,295.7451848266646,nan,296.0062197118532,nan,nan,nan,nan
1,49,0,0,1.0,0.0,0.11651439545676112,0.0,2,6,8,3,7,1,nan,nan,nan,nan,nan,nan,nan,nan,nan,nan,nan,nan,0.0,nan,nan,nan,nan,nan,nan,nan,nan,nan,nan,nan,nan,nan,nan,nan,nan,nan,nan,217.50340607343242,296.7536459839903,nan,296.87016037944704,nan,nan,nan,nan
1,50,1,1,1.0,1.0,0.6840454242192209,0.0,4,5,1,8,0,7,nan,nan,nan,nan,nan,nan,nan,nan,nan,nan,nan,nan,0.0,nan,nan,nan,nan,nan,nan,nan,nan,nan,nan,nan,nan,nan,nan,nan,nan,nan,nan,217.50340607343242,297.7621154091321,nan,298.4461608333513,nan,nan,nan,nan
1,51,1,1,1.0,1.0,0.4915989984292537,0.0,1,0,3,6,4,5,nan,nan,nan,nan,nan,nan,nan,nan,nan,nan,nan,nan,0.0,nan,nan,nan,nan,nan,nan,nan,nan,nan,nan,nan,nan,nan,nan,nan,nan,nan,nan,217.50340607343242,298.770552047994,nan,299.26215104642324,nan,nan,nan,nan
1,52,1,1,1.0,1.0,0.30708544235676527,0.0,8,7,6,5,3,4,nan,nan,nan,nan,nan,nan,nan,nan,nan,nan,nan,nan,0.0,nan,nan,nan,nan,nan,nan,nan,nan,nan,nan,nan,nan,nan,nan,nan,nan,nan,nan,217.50340607343242,299.7790488426108,nan,300.08613428496756,nan,nan,nan,nan
1,53,1,1,1.0,1.0,0.3065665627364069,0.0,4,6,3,7,5,0,nan,nan,nan,nan,nan,nan,nan,nan,nan,nan,nan,nan,0.0,nan,nan,nan,nan,nan,nan,nan,nan,nan,nan,nan,nan,nan,nan,nan,nan,nan,nan,217.50340607343242,300.7875507690478,nan,301.0941173317842,nan,nan,nan,nan
1,54,1,1,1.0,1.0,0.32208875799551606,0.0,1,5,0,8,2,7,nan,nan,nan,nan,nan,nan,nan,nan,nan,nan,nan,nan,0.0,nan,nan,nan,nan,nan,nan,nan,nan,nan,nan,nan,nan,nan,nan,nan,nan,nan,nan,217.50340607343242,301.79601791338064,nan,302.11810667137615,nan,nan,nan,nan
1,55,1,1,1.0,1.0,0.3135982356034219,0.0,8,7,3,4,5,2,nan,nan,nan,nan,nan,nan,nan,nan,nan,nan,nan,nan,0.0,nan,nan,nan,nan,nan,nan,nan,nan,nan,nan,nan,nan,nan,nan,nan,nan,nan,nan,217.50340607343242,302.8044990275521,nan,303.1180972631555,nan,nan,nan,nan
1,56,1,1,1.0,1.0,0.289108547847718,0.0,2,3,4,0,6,7,nan,nan,nan,nan,nan,nan,nan,nan,nan,nan,nan,nan,0.0,nan,nan,nan,nan,nan,nan,nan,nan,nan,nan,nan,nan,nan,nan,nan,nan,nan,nan,217.50340607343242,303.8129610402975,nan,304.10206958814524,nan,nan,nan,nan
1,57,1,1,1.0,1.0,0.3046338791027665,0.0,5,1,2,3,8,6,nan,nan,nan,nan,nan,nan,nan,nan,nan,nan,nan,nan,0.0,nan,nan,nan,nan,nan,nan,nan,nan,nan,nan,nan,nan,nan,nan,nan,nan,nan,nan,217.50340607343242,304.8214310356416,nan,305.12606491474435,nan,nan,nan,nan
1,58,1,1,1.0,1.0,0.3521301713772118,0.0,2,6,5,1,7,0,nan,nan,nan,nan,nan,nan,nan,nan,nan,nan,nan,nan,0.0,nan,nan,nan,nan,nan,nan,nan,nan,nan,nan,nan,nan,nan,nan,nan,nan,nan,nan,217.50340607343242,305.8299118648283,nan,306.18204203620553,nan,nan,nan,nan
1,59,1,1,1.0,1.0,0.41561850160360336,0.0,6,4,1,5,2,3,nan,nan,nan,nan,nan,nan,nan,nan,nan,nan,nan,nan,0.0,nan,nan,nan,nan,nan,nan,nan,nan,nan,nan,nan,nan,nan,nan,nan,nan,nan,nan,217.50340607343242,306.8383861365728,nan,307.2540046381764,nan,nan,nan,nan
1,60,1,1,1.0,1.0,0.46315784356556833,0.0,5,7,2,1,3,4,nan,nan,nan,nan,nan,nan,nan,nan,nan,nan,nan,nan,0.0,nan,nan,nan,nan,nan,nan,nan,nan,nan,nan,nan,nan,nan,nan,nan,nan,nan,nan,217.50340607343242,307.84686183393933,nan,308.3100196775049,nan,nan,nan,nan
1,61,1,1,1.0,1.0,0.4706761797424406,0.0,3,2,4,0,5,6,nan,nan,nan,nan,nan,nan,nan,nan,nan,nan,nan,nan,0.0,nan,nan,nan,nan,nan,nan,nan,nan,nan,nan,nan,nan,nan,nan,nan,nan,nan,nan,217.50340607343242,308.8553329696879,nan,309.3260091494303,nan,nan,nan,nan
1,62,1,1,1.0,1.0,0.42215182166546583,0.0,5,0,7,2,8,4,nan,nan,nan,nan,nan,nan,nan,nan,nan,nan,nan,nan,0.0,nan,nan,nan,nan,nan,nan,nan,nan,nan,nan,nan,nan,nan,nan,nan,nan,nan,nan,217.50340607343242,309.863824917702,nan,310.28597673936747,nan,nan,nan,nan
1,63,1,1,1.0,1.0,0.4297400072682649,0.0,2,1,6,4,5,8,nan,nan,nan,nan,nan,nan,nan,nan,nan,nan,nan,nan,0.0,nan,nan,nan,nan,nan,nan,nan,nan,nan,nan,nan,nan,nan,nan,nan,nan,nan,nan,217.50340607343242,310.8722806579899,nan,311.30202066525817,nan,nan,nan,nan
1,64,0,0,0.0,1.0,0.55725322291255,1.0,8,5,3,1,6,0,1.0,1.0,1.0,1.0,1.0,1.0,0.0,1.0,1.0,0.0,1.0,0.0,3.0,1.0,5.0,3.0,3.0,6.0,8.0,3.0,2.0,1.0,6.0,5.0,4.0,3.5531880012713373,2.5076343710534275,1.4978104424662888,10.89703463204205,9.417655246099457,7.722217565402389,217.50340607343242,311.8807309817057,312.68918005074374,312.43798420461826,324.6408569724299,325.6405020246748,313.70598861109465,324.632527530659
1,65,1,1,1.0,1.0,0.45236315415240824,0.0,1,7,6,3,4,5,nan,nan,nan,nan,nan,nan,nan,nan,nan,nan,nan,nan,0.0,nan,nan,nan,nan,nan,nan,nan,nan,nan,nan,nan,nan,nan,nan,nan,nan,nan,nan,217.50340607343242,325.84938039514236,nan,326.30174354929477,nan,nan,nan,nan
1,66,1,1,1.0,1.0,0.29987985943444073,0.0,5,4,1,0,6,7,nan,nan,nan,nan,nan,nan,nan,nan,nan,nan,nan,nan,0.0,nan,nan,nan,nan,nan,nan,nan,nan,nan,nan,nan,nan,nan,nan,nan,nan,nan,nan,217.50340607343242,326.8578372760676,nan,327.157717135502,nan,nan,nan,nan
1,67,1,1,1.0,1.0,0.2516622676048428,0.0,0,5,7,6,3,2,nan,nan,nan,nan,nan,nan,nan,nan,nan,nan,nan,nan,0.0,nan,nan,nan,nan,nan,nan,nan,nan,nan,nan,nan,nan,nan,nan,nan,nan,nan,nan,217.50340607343242,327.8663269432727,nan,328.11798921087757,nan,nan,nan,nan
1,68,1,1,1.0,1.0,0.26691019791178405,0.0,5,4,6,3,7,0,nan,nan,nan,nan,nan,nan,nan,nan,nan,nan,nan,nan,0.0,nan,nan,nan,nan,nan,nan,nan,nan,nan,nan,nan,nan,nan,nan,nan,nan,nan,nan,217.50340607343242,328.8747849643696,nan,329.1416951622814,nan,nan,nan,nan
1,69,0,0,1.0,0.0,0.1784010415431112,1.0,0,6,7,2,8,5,1.0,1.0,1.0,1.0,1.0,1.0,0.0,1.0,1.0,0.0,1.0,0.0,3.0,1.0,6.0,7.0,3.0,8.0,3.0,3.0,2.0,1.0,6.0,5.0,4.0,2.8228377120103687,1.8467158630955964,1.1837295347359031,6.974111333256587,6.014893837738782,5.391145349480212,217.50340607343242,329.8832780527882,330.6916835019365,330.06167909433134,338.71779511566274,339.7170430254191,331.70849633868784,338.7094867711421
1,70,1,1,1.0,1.0,0.3192206658422947,0.0,3,7,8,0,2,6,nan,nan,nan,nan,nan,nan,nan,nan,nan,nan,nan,nan,0.0,nan,nan,nan,nan,nan,nan,nan,nan,nan,nan,nan,nan,nan,nan,nan,nan,nan,nan,217.50340607343242,339.9263042835519,nan,340.24552494939417,nan,nan,nan,nan
1,71,1,1,1.0,1.0,0.36672266013920307,0.0,6,0,4,1,5,3,nan,nan,nan,nan,nan,nan,nan,nan,nan,nan,nan,nan,0.0,nan,nan,nan,nan,nan,nan,nan,nan,nan,nan,nan,nan,nan,nan,nan,nan,nan,nan,217.50340607343242,340.93479052954353,nan,341.30151318968274,nan,nan,nan,nan
1,72,1,1,1.0,1.0,0.34222812578082085,0.0,4,1,0,6,3,2,nan,nan,nan,nan,nan,nan,nan,nan,nan,nan,nan,nan,0.0,nan,nan,nan,nan,nan,nan,nan,nan,nan,nan,nan,nan,nan,nan,nan,nan,nan,nan,217.50340607343242,341.9432744947262,nan,342.28550262050703,nan,nan,nan,nan
1,73,1,1,1.0,1.0,0.34174260264262557,0.0,3,0,1,5,2,4,nan,nan,nan,nan,nan,nan,nan,nan,nan,nan,nan,nan,0.0,nan,nan,nan,nan,nan,nan,nan,nan,nan,nan,nan,nan,nan,nan,nan,nan,nan,nan,217.50340607343242,342.95174905168824,nan,343.29349165433086,nan,nan,nan,nan
1,74,1,1,1.0,1.0,0.3224445611704141,0.0,2,5,8,1,0,7,nan,nan,nan,nan,nan,nan,nan,nan,nan,nan,nan,nan,0.0,nan,nan,nan,nan,nan,nan,nan,nan,nan,nan,nan,nan,nan,nan,nan,nan,nan,nan,217.50340607343242,343.9630420936737,nan,344.28548665484414,nan,nan,nan,nan
1,75,1,1,1.0,1.0,0.3404397019185126,0.0,6,7,0,2,4,3,nan,nan,nan,nan,nan,nan,nan,nan,nan,nan,nan,nan,0.0,nan,nan,nan,nan,nan,nan,nan,nan,nan,nan,nan,nan,nan,nan,nan,nan,nan,nan,217.50340607343242,344.9770361604169,nan,345.3174758623354,nan,nan,nan,nan
1,76,1,1,1.0,1.0,0.35595334437675774,0.0,5,1,7,4,8,6,nan,nan,nan,nan,nan,nan,nan,nan,nan,nan,nan,nan,0.0,nan,nan,nan,nan,nan,nan,nan,nan,nan,nan,nan,nan,nan,nan,nan,nan,nan,nan,217.50340607343242,345.9854967473075,nan,346.34145009168424,nan,nan,nan,nan
1,77,1,1,1.0,1.0,0.339511705795303,0.0,3,6,2,7,5,0,nan,nan,nan,nan,nan,nan,nan,nan,nan,nan,nan,nan,0.0,nan,nan,nan,nan,nan,nan,nan,nan,nan,nan,nan,nan,nan,nan,nan,nan,nan,nan,217.50340607343242,346.99396674288437,nan,347.33347844867967,nan,nan,nan,nan
1,78,1,1,1.0,1.0,0.37102109217084944,0.0,4,0,5,3,1,2,nan,nan,nan,nan,nan,nan,nan,nan,nan,nan,nan,nan,0.0,nan,nan,nan,nan,nan,nan,nan,nan,nan,nan,nan,nan,nan,nan,nan,nan,nan,nan,217.50340607343242,348.0024478570558,nan,348.37346894922666,nan,nan,nan,nan
1,79,1,1,1.0,1.0,0.34646526142023504,0.0,3,2,1,8,7,6,nan,nan,nan,nan,nan,nan,nan,nan,nan,nan,nan,nan,0.0,nan,nan,nan,nan,nan,nan,nan,nan,nan,nan,nan,nan,nan,nan,nan,nan,nan,nan,217.50340607343242,349.0109643235337,nan,349.35742958495393,nan,nan,nan,nan
1,80,1,1,1.0,1.0,0.31398112303577363,0.0,2,7,3,0,8,4,nan,nan,nan,nan,nan,nan,nan,nan,nan,nan,nan,nan,0.0,nan,nan,nan,nan,nan,nan,nan,nan,nan,nan,nan,nan,nan,nan,nan,nan,nan,nan,217.50340607343242,350.01940181758255,nan,350.3333829406183,nan,nan,nan,nan
1,81,1,1,1.0,1.0,0.3294979012571275,0.0,0,5,2,7,4,3,nan,nan,nan,nan,nan,nan,nan,nan,nan,nan,nan,nan,0.0,nan,nan,nan,nan,nan,nan,nan,nan,nan,nan,nan,nan,nan,nan,nan,nan,nan,nan,217.50340607343242,351.0278729533311,nan,351.3573708545882,nan,nan,nan,nan
1,82,0,0,1.0,0.0,0.30500792851671576,1.0,2,7,4,5,3,6,1.0,1.0,1.0,1.0,1.0,1.0,0.0,1.0,1.0,1.0,0.0,1.0,4.0,3.0,7.0,4.0,5.0,5.0,6.0,4.0,3.0,1.0,2.0,6.0,5.0,5.205124476924539,3.96520428173244,1.7505863052792847,2.7983406118582934,6.8051521885208786,6.101757975295186,217.50340607343242,352.0363435188774,352.84476778446697,352.3413514473941,360.70418764301576,361.70398180163465,353.86160114826635,360.69586076703854
1,83,1,1,1.0,1.0,0.764465477084741,0.0,5,8,0,4,2,3,nan,nan,nan,nan,nan,nan,nan,nan,nan,nan,nan,nan,0.0,nan,nan,nan,nan,nan,nan,nan,nan,nan,nan,nan,nan,nan,nan,nan,nan,nan,nan,217.50340607343242,361.9127321629785,nan,362.67719764006324,nan,nan,nan,nan
1,84,1,1,1.0,1.0,0.34003657242283225,0.0,1,4,5,3,7,6,nan,nan,nan,nan,nan,nan,nan,nan,nan,nan,nan,nan,0.0,nan,nan,nan,nan,nan,nan,nan,nan,nan,nan,nan,nan,nan,nan,nan,nan,nan,nan,217.50340607343242,362.92120843054727,nan,363.2612450029701,nan,nan,nan,nan
1,85,1,1,1.0,1.0,0.33960464783012867,0.0,5,8,0,7,4,2,nan,nan,nan,nan,nan,nan,nan,nan,nan,nan,nan,nan,0.0,nan,nan,nan,nan,nan,nan,nan,nan,nan,nan,nan,nan,nan,nan,nan,nan,nan,nan,217.50340607343242,363.92967215389945,nan,364.2692768017296,nan,nan,nan,nan
1,86,1,1,1.0,1.0,0.29108257102780044,0.0,4,6,7,3,1,0,nan,nan,nan,nan,nan,nan,nan,nan,nan,nan,nan,nan,0.0,nan,nan,nan,nan,nan,nan,nan,nan,nan,nan,nan,nan,nan,nan,nan,nan,nan,nan,217.50340607343242,364.93811820074916,nan,365.22920077177696,nan,nan,nan,nan
1,87,1,1,1.0,1.0,0.31453763553872705,0.0,6,4,5,1,2,7,nan,nan,nan,nan,nan,nan,nan,nan,nan,nan,nan,nan,0.0,nan,nan,nan,nan,nan,nan,nan,nan,nan,nan,nan,nan,nan,nan,nan,nan,nan,nan,217.50340607343242,365.94663552264683,nan,366.26117315818556,nan,nan,nan,nan
1,88,1,1,1.0,1.0,0.3220688011497259,0.0,1,8,3,0,6,2,nan,nan,nan,nan,nan,nan,nan,nan,nan,nan,nan,nan,0.0,nan,nan,nan,nan,nan,nan,nan,nan,nan,nan,nan,nan,nan,nan,nan,nan,nan,nan,217.50340607343242,366.9550818547141,nan,367.2771506558638,nan,nan,nan,nan
1,89,1,1,1.0,1.0,0.41754918941296637,0.0,0,5,2,8,7,6,nan,nan,nan,nan,nan,nan,nan,nan,nan,nan,nan,nan,0.0,nan,nan,nan,nan,nan,nan,nan,nan,nan,nan,nan,nan,nan,nan,nan,nan,nan,nan,217.50340607343242,367.96355926268734,nan,368.3811084521003,nan,nan,nan,nan
1,90,1,1,1.0,1.0,0.4810931137762964,0.0,6,1,8,5,2,0,nan,nan,nan,nan,nan,nan,nan,nan,nan,nan,nan,nan,0.0,nan,nan,nan,nan,nan,nan,nan,nan,nan,nan,nan,nan,nan,nan,nan,nan,nan,nan,217.50340607343242,368.97200987138785,nan,369.45310298516415,nan,nan,nan,nan
1,91,1,1,1.0,1.0,0.48058877419680357,0.0,3,7,0,8,1,5,nan,nan,nan,nan,nan,nan,nan,nan,nan,nan,nan,nan,0.0,nan,nan,nan,nan,nan,nan,nan,nan,nan,nan,nan,nan,nan,nan,nan,nan,nan,nan,217.50340607343242,369.98050552560017,nan,370.46109429979697,nan,nan,nan,nan
1,92,0,0,nan,nan,nan,1.0,2,1,8,4,7,6,1.0,1.0,1.0,1.0,1.0,1.0,0.0,1.0,0.0,1.0,0.0,0.0,2.0,8.0,1.0,3.0,4.0,3.0,4.0,3.0,2.0,1.0,6.0,5.0,4.0,6.052888077683747,5.108319235267118,3.9017615674529225,8.700019215699285,7.884690716629848,6.93969850265421,217.50340607343242,370.9890162900556,371.7974029225297,nan,381.55709470808506,382.5568529444281,372.81421176786534,381.5487709683366
1,93,1,1,nan,nan,nan,0.0,7,4,6,3,8,0,nan,nan,nan,nan,nan,nan,nan,nan,nan,nan,nan,nan,0.0,nan,nan,nan,nan,nan,nan,nan,nan,nan,nan,nan,nan,nan,nan,nan,nan,nan,nan,217.50340607343242,382.76560815260746,nan,nan,nan,nan,nan,nan
1,94,0,0,nan,nan,nan,0.0,2,5,1,7,3,6,nan,nan,nan,nan,nan,nan,nan,nan,nan,nan,nan,nan,0.0,nan,nan,nan,nan,nan,nan,nan,nan,nan,nan,nan,nan,nan,nan,nan,nan,nan,nan,217.50340607343242,383.7740858455654,nan,nan,nan,nan,nan,nan
1,95,1,1,nan,nan,nan,0.0,4,0,2,1,6,5,nan,nan,nan,nan,nan,nan,nan,nan,nan,nan,nan,nan,0.0,nan,nan,nan,nan,nan,nan,nan,nan,nan,nan,nan,nan,nan,nan,nan,nan,nan,nan,217.50340607343242,384.78255413030274,nan,nan,nan,nan,nan,nan
1,96,1,1,1.0,1.0,0.693827158305794,0.0,5,3,0,8,4,1,nan,nan,nan,nan,nan,nan,nan,nan,nan,nan,nan,nan,0.0,nan,nan,nan,nan,nan,nan,nan,nan,nan,nan,nan,nan,nan,nan,nan,nan,nan,nan,217.50340607343242,385.79101699823514,nan,386.48484415654093,nan,nan,nan,nan
1,97,0,0,nan,nan,nan,0.0,1,5,4,0,3,2,nan,nan,nan,nan,nan,nan,nan,nan,nan,nan,nan,nan,0.0,nan,nan,nan,nan,nan,nan,nan,nan,nan,nan,nan,nan,nan,nan,nan,nan,nan,nan,217.50340607343242,386.79951635887846,nan,nan,nan,nan,nan,nan
1,98,1,1,0.0,0.0,0.15680225379765034,0.0,3,8,0,2,7,4,nan,nan,nan,nan,nan,nan,nan,nan,nan,nan,nan,nan,0.0,nan,nan,nan,nan,nan,nan,nan,nan,nan,nan,nan,nan,nan,nan,nan,nan,nan,nan,217.50340607343242,387.80802655313164,nan,387.9648288069293,nan,nan,nan,nan
1,99,1,1,1.0,1.0,0.45235003950074315,0.0,8,4,2,5,3,1,nan,nan,nan,nan,nan,nan,nan,nan,nan,nan,nan,nan,0.0,nan,nan,nan,nan,nan,nan,nan,nan,nan,nan,nan,nan,nan,nan,nan,nan,nan,nan,217.50340607343242,388.8164463711437,nan,389.2687964106444,nan,nan,nan,nan
1,100,1,1,1.0,1.0,0.2918571839109063,0.0,5,3,6,1,8,7,nan,nan,nan,nan,nan,nan,nan,nan,nan,nan,nan,nan,0.0,nan,nan,nan,nan,nan,nan,nan,nan,nan,nan,nan,nan,nan,nan,nan,nan,nan,nan,217.50340607343242,389.8249226384796,nan,390.1167798223905,nan,nan,nan,nan
1,101,1,1,1.0,1.0,0.34737529628910124,0.0,6,7,2,0,4,3,nan,nan,nan,nan,nan,nan,nan,nan,nan,nan,nan,nan,0.0,nan,nan,nan,nan,nan,nan,nan,nan,nan,nan,nan,nan,nan,nan,nan,nan,nan,nan,217.50340607343242,390.83340204227716,nan,391.18077733856626,nan,nan,nan,nan
1,102,1,1,1.0,1.0,0.33890615636482835,0.0,8,1,3,6,0,4,nan,nan,nan,nan,nan,nan,nan,nan,nan,nan,nan,nan,0.0,nan,nan,nan,nan,nan,nan,nan,nan,nan,nan,nan,nan,nan,nan,nan,nan,nan,nan,217.50340607343242,391.8418720376212,nan,392.18077819398604,nan,nan,nan,nan
1,103,1,1,1.0,1.0,0.4023913503624499,0.0,0,4,5,8,2,3,nan,nan,nan,nan,nan,nan,nan,nan,nan,nan,nan,nan,0.0,nan,nan,nan,nan,nan,nan,nan,nan,nan,nan,nan,nan,nan,nan,nan,nan,nan,nan,217.50340607343242,392.8503488753922,nan,393.2527402257547,nan,nan,nan,nan
1,104,1,1,1.0,1.0,0.3938945555128157,0.0,6,7,8,3,1,5,nan,nan,nan,nan,nan,nan,nan,nan,nan,nan,nan,nan,0.0,nan,nan,nan,nan,nan,nan,nan,nan,nan,nan,nan,nan,nan,nan,nan,nan,nan,nan,217.50340607343242,393.858850231627,nan,394.2527447871398,nan,nan,nan,nan
1,105,1,1,1.0,1.0,0.41741576325148344,0.0,5,8,2,4,7,0,nan,nan,nan,nan,nan,nan,nan,nan,nan,nan,nan,nan,0.0,nan,nan,nan,nan,nan,nan,nan,nan,nan,nan,nan,nan,nan,nan,nan,nan,nan,nan,217.50340607343242,394.86730882292613,nan,395.2847245861776,nan,nan,nan,nan
1,106,1,1,1.0,1.0,0.36893930193036795,0.0,0,2,7,1,5,4,nan,nan,nan,nan,nan,nan,nan,nan,nan,nan,nan,nan,0.0,nan,nan,nan,nan,nan,nan,nan,nan,nan,nan,nan,nan,nan,nan,nan,nan,nan,nan,217.50340607343242,395.8757642782293,nan,396.2447035801597,nan,nan,nan,nan
1,107,1,1,1.0,1.0,0.49643854796886444,0.0,6,4,3,0,7,8,nan,nan,nan,nan,nan,nan,nan,nan,nan,nan,nan,nan,0.0,nan,nan,nan,nan,nan,nan,nan,nan,nan,nan,nan,nan,nan,nan,nan,nan,nan,nan,217.50340607343242,396.8842448221985,nan,397.3806833701674,nan,nan,nan,nan
1,108,1,1,1.0,1.0,0.4239704660139978,0.0,1,3,5,6,2,4,nan,nan,nan,nan,nan,nan,nan,nan,nan,nan,nan,nan,0.0,nan,nan,nan,nan,nan,nan,nan,nan,nan,nan,nan,nan,nan,nan,nan,nan,nan,nan,217.50340607343242,397.8927096859552,nan,398.3166801519692,nan,nan,nan,nan
1,109,1,1,1.0,1.0,0.35948543110862374,0.0,5,2,0,7,4,6,nan,nan,nan,nan,nan,nan,nan,nan,nan,nan,nan,nan,0.0,nan,nan,nan,nan,nan,nan,nan,nan,nan,nan,nan,nan,nan,nan,nan,nan,nan,nan,217.50340607343242,398.901183672715,nan,399.2606691038236,nan,nan,nan,nan
1,110,1,1,1.0,1.0,0.31114980834536254,0.0,2,4,8,5,7,1,nan,nan,nan,nan,nan,nan,nan,nan,nan,nan,nan,nan,0.0,nan,nan,nan,nan,nan,nan,nan,nan,nan,nan,nan,nan,nan,nan,nan,nan,nan,nan,217.50340607343242,399.9096716293134,nan,400.22082143765874,nan,nan,nan,nan
1,111,1,1,1.0,1.0,0.3025566504802555,0.0,0,6,3,7,4,5,nan,nan,nan,nan,nan,nan,nan,nan,nan,nan,nan,nan,0.0,nan,nan,nan,nan,nan,nan,nan,nan,nan,nan,nan,nan,nan,nan,nan,nan,nan,nan,217.50340607343242,400.91815046267584,nan,401.2207071131561,nan,nan,nan,nan
1,112,1,1,1.0,1.0,0.3260137108154595,0.0,3,1,7,2,0,6,nan,nan,nan,nan,nan,nan,nan,nan,nan,nan,nan,nan,0.0,nan,nan,nan,nan,nan,nan,nan,nan,nan,nan,nan,nan,nan,nan,nan,nan,nan,nan,217.50340607343242,401.9266278706491,nan,402.25264158146456,nan,nan,nan,nan
1,113,1,1,1.0,1.0,0.34150825161486864,0.0,4,3,6,1,2,5,nan,nan,nan,nan,nan,nan,nan,nan,nan,nan,nan,nan,0.0,nan,nan,nan,nan,nan,nan,nan,nan,nan,nan,nan,nan,nan,nan,nan,nan,nan,nan,217.50340607343242,402.9350810451433,nan,403.2765892967582,nan,nan,nan,nan
1,114,0,0,1.0,0.0,0.2450351498555392,1.0,3,5,8,7,6,2,1.0,1.0,1.0,1.0,1.0,1.0,1.0,1.0,1.0,0.0,0.0,0.0,3.0,3.0,5.0,8.0,1.0,7.0,5.0,4.0,2.0,1.0,3.0,6.0,5.0,4.561903181718662,2.3547014761716127,1.497078309301287,3.386049496708438,6.329320570221171,5.529758310643956,217.50340607343242,403.9435504702851,404.75198100786656,404.18858562014066,412.1280178404413,413.1281509816181,405.7604695346672,412.1196633100044
1,115,1,1,1.0,1.0,0.6679151135031134,0.0,2,3,6,4,1,5,nan,nan,nan,nan,nan,nan,nan,nan,nan,nan,nan,nan,0.0,nan,nan,nan,nan,nan,nan,nan,nan,nan,nan,nan,nan,nan,nan,nan,nan,nan,nan,217.50340607343242,413.33652814873494,nan,414.00444326223806,nan,nan,nan,nan
1,116,0,0,0.0,1.0,0.5154189895838499,1.0,3,6,1,8,7,2,1.0,1.0,1.0,1.0,1.0,1.0,0.0,1.0,1.0,0.0,0.0,0.0,2.0,8.0,6.0,1.0,7.0,5.0,3.0,4.0,2.0,1.0,3.0,6.0,5.0,4.65706853591837,2.5845291793812066,1.1439152252860367,3.729615590069443,6.27137028076686,5.424189992016181,217.50340607343242,414.3449992844835,415.15342839667574,414.86041827406734,422.4710961303208,423.4705427538138,416.1619194895029,422.4627766669728
1,117,1,1,1.0,1.0,0.5806609611026943,0.0,8,5,4,0,2,3,nan,nan,nan,nan,nan,nan,nan,nan,nan,nan,nan,nan,0.0,nan,nan,nan,nan,nan,nan,nan,nan,nan,nan,nan,nan,nan,nan,nan,nan,nan,nan,217.50340607343242,423.67962439986877,nan,424.26028536097147,nan,nan,nan,nan
1,118,1,1,1.0,1.0,0.44411353999748826,0.0,1,7,3,4,5,8,nan,nan,nan,nan,nan,nan,nan,nan,nan,nan,nan,nan,0.0,nan,nan,nan,nan,nan,nan,nan,nan,nan,nan,nan,nan,nan,nan,nan,nan,nan,nan,217.50340607343242,424.68813858530484,nan,425.13225212530233,nan,nan,nan,nan
1,119,1,1,nan,nan,nan,0.0,6,0,7,5,3,2,nan,nan,nan,nan,nan,nan,nan,nan,nan,nan,nan,nan,0.0,nan,nan,nan,nan,nan,nan,nan,nan,nan,nan,nan,nan,nan,nan,nan,nan,nan,nan,217.50340607343242,425.6966097212862,nan,nan,nan,nan,nan,nan
1,120,1,1,1.0,1.0,0.09921318478882313,0.0,3,7,2,1,5,4,nan,nan,nan,nan,nan,nan,nan,nan,nan,nan,nan,nan,0.0,nan,nan,nan,nan,nan,nan,nan,nan,nan,nan,nan,nan,nan,nan,nan,nan,nan,nan,217.50340607343242,426.705048070522,nan,426.80426125531085,nan,nan,nan,nan
1,121,1,1,1.0,1.0,0.10671926173381507,0.0,4,0,7,6,2,8,nan,nan,nan,nan,nan,nan,nan,nan,nan,nan,nan,nan,0.0,nan,nan,nan,nan,nan,nan,nan,nan,nan,nan,nan,nan,nan,nan,nan,nan,nan,nan,217.50340607343242,427.7135097980499,nan,427.82022905978374,nan,nan,nan,nan
1,122,1,1,1.0,1.0,0.22617958136834204,0.0,7,2,0,1,6,3,nan,nan,nan,nan,nan,nan,nan,nan,nan,nan,nan,nan,0.0,nan,nan,nan,nan,nan,nan,nan,nan,nan,nan,nan,nan,nan,nan,nan,nan,nan,nan,217.50340607343242,428.7220413747709,nan,428.94822095613927,nan,nan,nan,nan
1,123,1,1,1.0,1.0,0.033762235660105944,0.0,0,5,4,3,8,6,nan,nan,nan,nan,nan,nan,nan,nan,nan,nan,nan,nan,0.0,nan,nan,nan,nan,nan,nan,nan,nan,nan,nan,nan,nan,nan,nan,nan,nan,nan,nan,217.50340607343242,429.73047345201485,nan,429.76423568767495,nan,nan,nan,nan
1,124,1,1,nan,nan,nan,0.0,5,1,6,8,4,3,nan,nan,nan,nan,nan,nan,nan,nan,nan,nan,nan,nan,0.0,nan,nan,nan,nan,nan,nan,nan,nan,nan,nan,nan,nan,nan,nan,nan,nan,nan,nan,217.50340607343242,430.73894914938137,nan,nan,nan,nan,nan,nan
1,125,1,1,1.0,1.0,0.23275851737707853,0.0,0,4,7,1,6,8,nan,nan,nan,nan,nan,nan,nan,nan,nan,nan,nan,nan,0.0,nan,nan,nan,nan,nan,nan,nan,nan,nan,nan,nan,nan,nan,nan,nan,nan,nan,nan,217.50340607343242,431.7474288381636,nan,431.9801873555407,nan,nan,nan,nan
1,126,0,0,1.0,0.0,0.2722518059890717,0.0,8,0,4,3,5,7,nan,nan,nan,nan,nan,nan,nan,nan,nan,nan,nan,nan,0.0,nan,nan,nan,nan,nan,nan,nan,nan,nan,nan,nan,nan,nan,nan,nan,nan,nan,nan,217.50340607343242,432.7558982633054,nan,433.0281500692945,nan,nan,nan,nan
1,127,1,1,1.0,1.0,0.5118164832238108,0.0,4,8,5,0,1,6,nan,nan,nan,nan,nan,nan,nan,nan,nan,nan,nan,nan,0.0,nan,nan,nan,nan,nan,nan,nan,nan,nan,nan,nan,nan,nan,nan,nan,nan,nan,nan,217.50340607343242,433.764364837436,nan,434.2761813206598,nan,nan,nan,nan
1,128,1,1,0.0,0.0,0.43131460691802204,0.0,0,6,7,4,2,5,nan,nan,nan,nan,nan,nan,nan,nan,nan,nan,nan,nan,0.0,nan,nan,nan,nan,nan,nan,nan,nan,nan,nan,nan,nan,nan,nan,nan,nan,nan,nan,217.50340607343242,434.772815160919,nan,435.204129767837,nan,nan,nan,nan
1,129,1,1,1.0,1.0,0.6707911887206137,0.0,7,3,2,5,6,0,nan,nan,nan,nan,nan,nan,nan,nan,nan,nan,nan,nan,0.0,nan,nan,nan,nan,nan,nan,nan,nan,nan,nan,nan,nan,nan,nan,nan,nan,nan,nan,217.50340607343242,435.7813048281241,nan,436.45209601684473,nan,nan,nan,nan
1,130,1,1,1.0,1.0,0.3743376445490867,0.0,0,7,4,6,8,5,nan,nan,nan,nan,nan,nan,nan,nan,nan,nan,nan,nan,0.0,nan,nan,nan,nan,nan,nan,nan,nan,nan,nan,nan,nan,nan,nan,nan,nan,nan,nan,217.50340607343242,436.78978907852434,nan,437.1641267230734,nan,nan,nan,nan
1,131,1,1,1.0,1.0,0.29384574689902365,0.0,1,2,6,0,3,7,nan,nan,nan,nan,nan,nan,nan,nan,nan,nan,nan,nan,0.0,nan,nan,nan,nan,nan,nan,nan,nan,nan,nan,nan,nan,nan,nan,nan,nan,nan,nan,217.50340607343242,437.79825878865086,nan,438.0921045355499,nan,nan,nan,nan
1,132,1,1,1.0,1.0,0.3413232227321714,0.0,0,7,3,2,1,5,nan,nan,nan,nan,nan,nan,nan,nan,nan,nan,nan,nan,0.0,nan,nan,nan,nan,nan,nan,nan,nan,nan,nan,nan,nan,nan,nan,nan,nan,nan,nan,217.50340607343242,438.8067376220133,nan,439.1480608447455,nan,nan,nan,nan
1,133,0,0,1.0,0.0,0.3008397864177823,0.0,1,2,7,4,5,3,nan,nan,nan,nan,nan,nan,nan,nan,nan,nan,nan,nan,0.0,nan,nan,nan,nan,nan,nan,nan,nan,nan,nan,nan,nan,nan,nan,nan,nan,nan,nan,217.50340607343242,439.8152087579947,nan,440.1160485444125,nan,nan,nan,nan
1,134,1,1,1.0,1.0,0.7083247089758515,0.0,2,0,5,7,4,8,nan,nan,nan,nan,nan,nan,nan,nan,nan,nan,nan,nan,0.0,nan,nan,nan,nan,nan,nan,nan,nan,nan,nan,nan,nan,nan,nan,nan,nan,nan,nan,217.50340607343242,440.8236858807504,nan,441.53201058972627,nan,nan,nan,nan
1,135,0,0,0.0,1.0,0.6998686837032437,0.0,5,3,8,0,7,6,nan,nan,nan,nan,nan,nan,nan,nan,nan,nan,nan,nan,0.0,nan,nan,nan,nan,nan,nan,nan,nan,nan,nan,nan,nan,nan,nan,nan,nan,nan,nan,217.50340607343242,441.83215445047244,nan,442.5320231341757,nan,nan,nan,nan
1,136,1,1,1.0,1.0,0.5393912233412266,0.0,0,6,1,3,5,7,nan,nan,nan,nan,nan,nan,nan,nan,nan,nan,nan,nan,0.0,nan,nan,nan,nan,nan,nan,nan,nan,nan,nan,nan,nan,nan,nan,nan,nan,nan,nan,217.50340607343242,442.8406290074345,nan,443.3800202307757,nan,nan,nan,nan
1,137,1,1,0.0,0.0,0.5708829334471375,0.0,3,0,7,8,2,4,nan,nan,nan,nan,nan,nan,nan,nan,nan,nan,nan,nan,0.0,nan,nan,nan,nan,nan,nan,nan,nan,nan,nan,nan,nan,nan,nan,nan,nan,nan,nan,217.50340607343242,443.8490998581983,nan,444.41998279164545,nan,nan,nan,nan
1,138,1,1,1.0,1.0,0.4983546957373619,0.0,7,1,4,3,0,5,nan,nan,nan,nan,nan,nan,nan,nan,nan,nan,nan,nan,0.0,nan,nan,nan,nan,nan,nan,nan,nan,nan,nan,nan,nan,nan,nan,nan,nan,nan,nan,217.50340607343242,444.8575766959693,nan,445.3559313917067,nan,nan,nan,nan
1,139,1,1,1.0,1.0,0.3619067738763988,0.0,3,0,1,2,8,6,nan,nan,nan,nan,nan,nan,nan,nan,nan,nan,nan,nan,0.0,nan,nan,nan,nan,nan,nan,nan,nan,nan,nan,nan,nan,nan,nan,nan,nan,nan,nan,217.50340607343242,445.86604241491295,nan,446.22794918878935,nan,nan,nan,nan
1,140,1,1,1.0,1.0,0.3374441706109792,0.0,4,2,7,5,6,8,nan,nan,nan,nan,nan,nan,nan,nan,nan,nan,nan,nan,0.0,nan,nan,nan,nan,nan,nan,nan,nan,nan,nan,nan,nan,nan,nan,nan,nan,nan,nan,217.50340607343242,446.87449815520085,nan,447.21194232581183,nan,nan,nan,nan
1,141,1,1,1.0,1.0,0.32092840666882694,0.0,0,4,2,6,5,1,nan,nan,nan,nan,nan,nan,nan,nan,nan,nan,nan,nan,0.0,nan,nan,nan,nan,nan,nan,nan,nan,nan,nan,nan,nan,nan,nan,nan,nan,nan,nan,217.50340607343242,447.8830077792518,nan,448.2039361859206,nan,nan,nan,nan
1,142,1,1,1.0,1.0,0.4484273672569543,0.0,6,1,3,5,7,4,nan,nan,nan,nan,nan,nan,nan,nan,nan,nan,nan,nan,0.0,nan,nan,nan,nan,nan,nan,nan,nan,nan,nan,nan,nan,nan,nan,nan,nan,nan,nan,217.50340607343242,448.89145981357433,nan,449.3398871808313,nan,nan,nan,nan
1,143,1,1,1.0,1.0,0.33595453039743006,0.0,8,5,1,3,0,2,nan,nan,nan,nan,nan,nan,nan,nan,nan,nan,nan,nan,0.0,nan,nan,nan,nan,nan,nan,nan,nan,nan,nan,nan,nan,nan,nan,nan,nan,nan,nan,217.50340607343242,449.8999343703035,nan,450.23588890070096,nan,nan,nan,nan
1,144,0,0,0.0,1.0,0.5514731330331415,0.0,7,3,0,2,6,5,nan,nan,nan,nan,nan,nan,nan,nan,nan,nan,nan,nan,0.0,nan,nan,nan,nan,nan,nan,nan,nan,nan,nan,nan,nan,nan,nan,nan,nan,nan,nan,217.50340607343242,450.9084080720786,nan,451.45988120511174,nan,nan,nan,nan
1,145,1,1,1.0,1.0,0.4629956225398928,0.0,1,8,2,4,7,0,nan,nan,nan,nan,nan,nan,nan,nan,nan,nan,nan,nan,0.0,nan,nan,nan,nan,nan,nan,nan,nan,nan,nan,nan,nan,nan,nan,nan,nan,nan,nan,217.50340607343242,451.91688548005186,nan,452.37988110259175,nan,nan,nan,nan
1,146,1,1,0.0,0.0,0.5105255565140396,0.0,6,0,3,7,1,8,nan,nan,nan,nan,nan,nan,nan,nan,nan,nan,nan,nan,0.0,nan,nan,nan,nan,nan,nan,nan,nan,nan,nan,nan,nan,nan,nan,nan,nan,nan,nan,217.50340607343242,452.92535861139186,nan,453.4358841679059,nan,nan,nan,nan
1,147,1,1,1.0,1.0,0.4700093341525644,0.0,3,1,0,6,8,2,nan,nan,nan,nan,nan,nan,nan,nan,nan,nan,nan,nan,0.0,nan,nan,nan,nan,nan,nan,nan,nan,nan,nan,nan,nan,nan,nan,nan,nan,nan,nan,217.50340607343242,453.9338363043498,nan,454.4038456385024,nan,nan,nan,nan
1,148,1,1,1.0,1.0,0.41351076727733016,0.0,7,3,5,8,4,0,nan,nan,nan,nan,nan,nan,nan,nan,nan,nan,nan,nan,0.0,nan,nan,nan,nan,nan,nan,nan,nan,nan,nan,nan,nan,nan,nan,nan,nan,nan,nan,217.50340607343242,454.9423265417572,nan,455.35583730903454,nan,nan,nan,nan
1,149,1,1,1.0,1.0,0.30101768812164664,0.0,8,0,3,6,1,5,nan,nan,nan,nan,nan,nan,nan,nan,nan,nan,nan,nan,0.0,nan,nan,nan,nan,nan,nan,nan,nan,nan,nan,nan,nan,nan,nan,nan,nan,nan,nan,217.50340607343242,455.9507931158878,nan,456.25181080400944,nan,nan,nan,nan
1,150,1,1,1.0,1.0,0.3245388956274837,0.0,4,5,1,0,3,2,nan,nan,nan,nan,nan,nan,nan,nan,nan,nan,nan,nan,0.0,nan,nan,nan,nan,nan,nan,nan,nan,nan,nan,nan,nan,nan,nan,nan,nan,nan,nan,217.50340607343242,456.95925512863323,nan,457.2837940242607,nan,nan,nan,nan
1,151,0,0,0.0,1.0,0.5640933094546199,0.0,2,3,4,8,5,1,nan,nan,nan,nan,nan,nan,nan,nan,nan,nan,nan,nan,0.0,nan,nan,nan,nan,nan,nan,nan,nan,nan,nan,nan,nan,nan,nan,nan,nan,nan,nan,217.50340607343242,457.9677294003777,nan,458.53182270983234,nan,nan,nan,nan
1,152,1,1,1.0,1.0,0.4595499204006046,0.0,5,0,6,7,1,2,nan,nan,nan,nan,nan,nan,nan,nan,nan,nan,nan,nan,0.0,nan,nan,nan,nan,nan,nan,nan,nan,nan,nan,nan,nan,nan,nan,nan,nan,nan,nan,217.50340607343242,458.97620367235504,nan,459.43575359275565,nan,nan,nan,nan
1,153,1,1,1.0,1.0,0.7390725968871266,0.0,2,6,1,8,5,0,nan,nan,nan,nan,nan,nan,nan,nan,nan,nan,nan,nan,0.0,nan,nan,nan,nan,nan,nan,nan,nan,nan,nan,nan,nan,nan,nan,nan,nan,nan,nan,217.50340607343242,459.9846688210964,nan,460.72374141798355,nan,nan,nan,nan
1,154,1,1,1.0,1.0,0.466580452863127,0.0,0,7,3,1,6,4,nan,nan,nan,nan,nan,nan,nan,nan,nan,nan,nan,nan,0.0,nan,nan,nan,nan,nan,nan,nan,nan,nan,nan,nan,nan,nan,nan,nan,nan,nan,nan,217.50340607343242,460.99315250106156,nan,461.4597329539247,nan,nan,nan,nan
1,155,1,1,1.0,1.0,0.44214578927494586,0.0,1,6,2,7,8,0,nan,nan,nan,nan,nan,nan,nan,nan,nan,nan,nan,nan,0.0,nan,nan,nan,nan,nan,nan,nan,nan,nan,nan,nan,nan,nan,nan,nan,nan,nan,nan,217.50340607343242,462.0016421682667,nan,462.44378795754164,nan,nan,nan,nan
1,156,1,1,1.0,1.0,0.3456467434298247,0.0,2,3,4,5,1,8,nan,nan,nan,nan,nan,nan,nan,nan,nan,nan,nan,nan,0.0,nan,nan,nan,nan,nan,nan,nan,nan,nan,nan,nan,nan,nan,nan,nan,nan,nan,nan,217.50340607343242,463.0100502972491,nan,463.35569704067893,nan,nan,nan,nan
1,157,1,1,1.0,1.0,0.2811269264202565,0.0,6,2,0,1,8,3,nan,nan,nan,nan,nan,nan,nan,nan,nan,nan,nan,nan,0.0,nan,nan,nan,nan,nan,nan,nan,nan,nan,nan,nan,nan,nan,nan,nan,nan,nan,nan,217.50340607343242,464.018562202109,nan,464.2996891285293,nan,nan,nan,nan
1,158,1,1,1.0,1.0,0.2886364245787263,0.0,8,0,2,4,6,7,nan,nan,nan,nan,nan,nan,nan,nan,nan,nan,nan,nan,0.0,nan,nan,nan,nan,nan,nan,nan,nan,nan,nan,nan,nan,nan,nan,nan,nan,nan,nan,217.50340607343242,465.02703704405576,nan,465.3156734686345,nan,nan,nan,nan
1,159,0,0,0.0,1.0,0.49613833893090487,1.0,4,8,7,2,1,3,1.0,1.0,1.0,1.0,1.0,1.0,0.0,1.0,1.0,0.0,1.0,0.0,3.0,1.0,8.0,7.0,0.0,1.0,4.0,4.0,2.0,1.0,3.0,6.0,5.0,4.62916821334511,2.2762580120470375,1.0612970620859414,3.5342389207798988,5.932425066130236,5.260567608522251,217.50340607343242,466.03551473724656,466.8439375772141,466.53165307617746,473.82823776546866,474.82768324879,467.8524309506174,473.81990575790405
1,160,1,1,1.0,1.0,0.42276022234000266,0.0,0,5,1,7,3,2,nan,nan,nan,nan,nan,nan,nan,nan,nan,nan,nan,nan,0.0,nan,nan,nan,nan,nan,nan,nan,nan,nan,nan,nan,nan,nan,nan,nan,nan,nan,nan,217.50340607343242,475.0367643244099,nan,475.4595245467499,nan,nan,nan,nan
1,161,1,1,1.0,1.0,0.31027027941308916,0.0,2,6,8,4,7,3,nan,nan,nan,nan,nan,nan,nan,nan,nan,nan,nan,nan,0.0,nan,nan,nan,nan,nan,nan,nan,nan,nan,nan,nan,nan,nan,nan,nan,nan,nan,nan,217.50340607343242,476.04521920951083,nan,476.3554894889239,nan,nan,nan,nan
1,162,0,0,0.0,1.0,0.7897619940340519,0.0,6,4,1,0,2,5,nan,nan,nan,nan,nan,nan,nan,nan,nan,nan,nan,nan,0.0,nan,nan,nan,nan,nan,nan,nan,nan,nan,nan,nan,nan,nan,nan,nan,nan,nan,nan,217.50340607343242,477.0537239869591,nan,477.84348598099314,nan,nan,nan,nan
1,163,1,1,1.0,1.0,0.4692732095718384,0.0,1,6,3,4,5,0,nan,nan,nan,nan,nan,nan,nan,nan,nan,nan,nan,nan,0.0,nan,nan,nan,nan,nan,nan,nan,nan,nan,nan,nan,nan,nan,nan,nan,nan,nan,nan,217.50340607343242,478.06218514428474,nan,478.5314583538566,nan,nan,nan,nan
1,164,1,1,1.0,1.0,0.3567912490107119,0.0,8,0,2,5,6,1,nan,nan,nan,nan,nan,nan,nan,nan,nan,nan,nan,nan,0.0,nan,nan,nan,nan,nan,nan,nan,nan,nan,nan,nan,nan,nan,nan,nan,nan,nan,nan,217.50340607343242,479.070662552258,nan,479.4274538012687,nan,nan,nan,nan
1,165,1,1,1.0,1.0,0.41231449344195426,0.0,6,4,8,0,7,3,nan,nan,nan,nan,nan,nan,nan,nan,nan,nan,nan,nan,0.0,nan,nan,nan,nan,nan,nan,nan,nan,nan,nan,nan,nan,nan,nan,nan,nan,nan,nan,217.50340607343242,480.0791405304335,nan,480.49145502387546,nan,nan,nan,nan
1,166,1,1,1.0,1.0,0.3798594349063933,0.0,4,6,5,1,8,2,nan,nan,nan,nan,nan,nan,nan,nan,nan,nan,nan,nan,0.0,nan,nan,nan,nan,nan,nan,nan,nan,nan,nan,nan,nan,nan,nan,nan,nan,nan,nan,217.50340607343242,481.08761309157126,nan,481.46747252647765,nan,nan,nan,nan
1,167,1,1,1.0,1.0,0.37133669620379806,0.0,2,7,0,8,3,6,nan,nan,nan,nan,nan,nan,nan,nan,nan,nan,nan,nan,0.0,nan,nan,nan,nan,nan,nan,nan,nan,nan,nan,nan,nan,nan,nan,nan,nan,nan,nan,217.50340607343242,482.09608337213285,nan,482.46742006833665,nan,nan,nan,nan
1,168,1,1,1.0,1.0,0.38684691744856536,0.0,8,4,2,6,7,5,nan,nan,nan,nan,nan,nan,nan,nan,nan,nan,nan,nan,0.0,nan,nan,nan,nan,nan,nan,nan,nan,nan,nan,nan,nan,nan,nan,nan,nan,nan,nan,217.50340607343242,483.10455621848814,nan,483.4914031359367,nan,nan,nan,nan
1,169,1,1,1.0,1.0,0.33033780194818974,0.0,6,0,4,7,1,3,nan,nan,nan,nan,nan,nan,nan,nan,nan,nan,nan,nan,0.0,nan,nan,nan,nan,nan,nan,nan,nan,nan,nan,nan,nan,nan,nan,nan,nan,nan,nan,217.50340607343242,484.11304189427756,nan,484.44337969622575,nan,nan,nan,nan
1,170,1,1,1.0,1.0,0.35388124734163284,0.0,3,6,2,5,7,0,nan,nan,nan,nan,nan,nan,nan,nan,nan,nan,nan,nan,0.0,nan,nan,nan,nan,nan,nan,nan,nan,nan,nan,nan,nan,nan,nan,nan,nan,nan,nan,217.50340607343242,485.1214944985695,nan,485.47537574591115,nan,nan,nan,nan
1,171,1,1,1.0,1.0,0.3213939727284014,0.0,0,3,5,4,8,6,nan,nan,nan,nan,nan,nan,nan,nan,nan,nan,nan,nan,0.0,nan,nan,nan,nan,nan,nan,nan,nan,nan,nan,nan,nan,nan,nan,nan,nan,nan,nan,217.50340607343242,486.1299633535091,nan,486.4513573262375,nan,nan,nan,nan
1,172,1,1,1.0,1.0,0.3528739938046783,0.0,3,2,4,8,7,1,nan,nan,nan,nan,nan,nan,nan,nan,nan,nan,nan,nan,0.0,nan,nan,nan,nan,nan,nan,nan,nan,nan,nan,nan,nan,nan,nan,nan,nan,nan,nan,217.50340607343242,487.1384601481259,nan,487.49133414193057,nan,nan,nan,nan
1,173,1,1,1.0,1.0,0.37640660535544157,0.0,5,8,7,6,1,3,nan,nan,nan,nan,nan,nan,nan,nan,nan,nan,nan,nan,0.0,nan,nan,nan,nan,nan,nan,nan,nan,nan,nan,nan,nan,nan,nan,nan,nan,nan,nan,217.50340607343242,488.14690790581517,nan,488.5233145111706,nan,nan,nan,nan
1,174,1,1,1.0,1.0,0.3519636739511043,0.0,6,7,1,8,0,2,nan,nan,nan,nan,nan,nan,nan,nan,nan,nan,nan,nan,0.0,nan,nan,nan,nan,nan,nan,nan,nan,nan,nan,nan,nan,nan,nan,nan,nan,nan,nan,217.50340607343242,489.15538702439517,nan,489.5073506983463,nan,nan,nan,nan
1,175,1,1,1.0,1.0,0.3274574503302574,0.0,5,8,3,2,1,0,nan,nan,nan,nan,nan,nan,nan,nan,nan,nan,nan,nan,0.0,nan,nan,nan,nan,nan,nan,nan,nan,nan,nan,nan,nan,nan,nan,nan,nan,nan,nan,217.50340607343242,490.16386215155944,nan,490.4913196018897,nan,nan,nan,nan
1,176,1,1,1.0,1.0,0.36696470878086984,0.0,2,3,0,5,8,7,nan,nan,nan,nan,nan,nan,nan,nan,nan,nan,nan,nan,0.0,nan,nan,nan,nan,nan,nan,nan,nan,nan,nan,nan,nan,nan,nan,nan,nan,nan,nan,217.50340607343242,491.1723358531017,nan,491.53930056188256,nan,nan,nan,nan
1,177,1,1,1.0,1.0,0.36645409697666764,0.0,5,4,8,3,1,2,nan,nan,nan,nan,nan,nan,nan,nan,nan,nan,nan,nan,0.0,nan,nan,nan,nan,nan,nan,nan,nan,nan,nan,nan,nan,nan,nan,nan,nan,nan,nan,217.50340607343242,492.1808189630974,nan,492.5472730600741,nan,nan,nan,nan
1,178,1,1,1.0,1.0,0.3739493403118104,0.0,4,8,5,1,2,0,nan,nan,nan,nan,nan,nan,nan,nan,nan,nan,nan,nan,0.0,nan,nan,nan,nan,nan,nan,nan,nan,nan,nan,nan,nan,nan,nan,nan,nan,nan,nan,217.50340607343242,493.18929608585313,nan,493.56324542616494,nan,nan,nan,nan
1,179,1,1,1.0,1.0,0.3255059502553195,0.0,0,5,1,3,6,7,nan,nan,nan,nan,nan,nan,nan,nan,nan,nan,nan,nan,0.0,nan,nan,nan,nan,nan,nan,nan,nan,nan,nan,nan,nan,nan,nan,nan,nan,nan,nan,217.50340607343242,494.19775182637386,nan,494.5232577766292,nan,nan,nan,nan
1,180,1,1,1.0,1.0,0.3490029245149344,0.0,5,4,2,0,3,1,nan,nan,nan,nan,nan,nan,nan,nan,nan,nan,nan,nan,0.0,nan,nan,nan,nan,nan,nan,nan,nan,nan,nan,nan,nan,nan,nan,nan,nan,nan,nan,217.50340607343242,495.2062278087251,nan,495.55523073324,nan,nan,nan,nan
1,181,1,1,1.0,1.0,0.5165149087551981,0.0,3,2,1,8,4,7,nan,nan,nan,nan,nan,nan,nan,nan,nan,nan,nan,nan,0.0,nan,nan,nan,nan,nan,nan,nan,nan,nan,nan,nan,nan,nan,nan,nan,nan,nan,nan,217.50340607343242,496.21469552326016,nan,496.73121043201536,nan,nan,nan,nan
1,182,1,1,1.0,1.0,0.4520147636067122,0.0,2,3,4,1,0,5,nan,nan,nan,nan,nan,nan,nan,nan,nan,nan,nan,nan,0.0,nan,nan,nan,nan,nan,nan,nan,nan,nan,nan,nan,nan,nan,nan,nan,nan,nan,nan,217.50340607343242,497.22318062884733,nan,497.67519539245404,nan,nan,nan,nan
1,183,1,1,1.0,1.0,0.42754018609412014,0.0,5,4,0,6,2,1,nan,nan,nan,nan,nan,nan,nan,nan,nan,nan,nan,nan,0.0,nan,nan,nan,nan,nan,nan,nan,nan,nan,nan,nan,nan,nan,nan,nan,nan,nan,nan,217.50340607343242,498.2316503392067,nan,498.6591905253008,nan,nan,nan,nan
1,184,1,1,1.0,1.0,0.4190131709910929,0.0,3,5,4,1,0,8,nan,nan,nan,nan,nan,nan,nan,nan,nan,nan,nan,nan,0.0,nan,nan,nan,nan,nan,nan,nan,nan,nan,nan,nan,nan,nan,nan,nan,nan,nan,nan,217.50340607343242,499.2401374403853,nan,499.6591506113764,nan,nan,nan,nan
1,185,1,1,1.0,1.0,0.35454666754230857,0.0,7,3,2,8,6,5,nan,nan,nan,nan,nan,nan,nan,nan,nan,nan,nan,nan,0.0,nan,nan,nan,nan,nan,nan,nan,nan,nan,nan,nan,nan,nan,nan,nan,nan,nan,nan,217.50340607343242,500.24859603191726,nan,500.60314269945957,nan,nan,nan,nan
1,186,0,0,0.0,1.0,0.6500448461156338,0.0,1,0,3,4,8,6,nan,nan,nan,nan,nan,nan,nan,nan,nan,nan,nan,nan,0.0,nan,nan,nan,nan,nan,nan,nan,nan,nan,nan,nan,nan,nan,nan,nan,nan,nan,nan,217.50340607343242,501.25707914168015,nan,501.9071239877958,nan,nan,nan,nan
1,187,1,1,1.0,1.0,0.6015623975545168,0.0,5,7,8,2,6,1,nan,nan,nan,nan,nan,nan,nan,nan,nan,nan,nan,nan,0.0,nan,nan,nan,nan,nan,nan,nan,nan,nan,nan,nan,nan,nan,nan,nan,nan,nan,nan,217.50340607343242,502.2655411544256,nan,502.8671035519801,nan,nan,nan,nan
1,188,1,1,1.0,1.0,0.513083461439237,0.0,1,6,4,5,7,3,nan,nan,nan,nan,nan,nan,nan,nan,nan,nan,nan,nan,0.0,nan,nan,nan,nan,nan,nan,nan,nan,nan,nan,nan,nan,nan,nan,nan,nan,nan,nan,217.50340607343242,503.27401884738356,nan,503.7871023088228,nan,nan,nan,nan
1,189,1,1,1.0,1.0,0.4085759948939085,0.0,8,3,0,1,6,7,nan,nan,nan,nan,nan,nan,nan,nan,nan,nan,nan,nan,0.0,nan,nan,nan,nan,nan,nan,nan,nan,nan,nan,nan,nan,nan,nan,nan,nan,nan,nan,217.50340607343242,504.28250138717704,nan,504.69107738207094,nan,nan,nan,nan
1,190,1,1,1.0,1.0,0.33611276000738144,0.0,4,5,2,6,8,3,nan,nan,nan,nan,nan,nan,nan,nan,nan,nan,nan,nan,0.0,nan,nan,nan,nan,nan,nan,nan,nan,nan,nan,nan,nan,nan,nan,nan,nan,nan,nan,217.50340607343242,505.29097622912377,nan,505.62708898913115,nan,nan,nan,nan
1,191,1,1,1.0,1.0,0.3116108130197972,0.0,3,8,5,0,1,4,nan,nan,nan,nan,nan,nan,nan,nan,nan,nan,nan,nan,0.0,nan,nan,nan,nan,nan,nan,nan,nan,nan,nan,nan,nan,nan,nan,nan,nan,nan,nan,217.50340607343242,506.2994556326885,nan,506.6110664457083,nan,nan,nan,nan
1,192,1,1,1.0,1.0,0.5431684949435294,0.0,0,6,3,4,8,2,nan,nan,nan,nan,nan,nan,nan,nan,nan,nan,nan,nan,0.0,nan,nan,nan,nan,nan,nan,nan,nan,nan,nan,nan,nan,nan,nan,nan,nan,nan,nan,217.50340607343242,507.30790082458407,nan,507.8510693195276,nan,nan,nan,nan
1,193,1,1,1.0,1.0,0.7426562865730375,0.0,3,1,2,7,6,0,nan,nan,nan,nan,nan,nan,nan,nan,nan,nan,nan,nan,0.0,nan,nan,nan,nan,nan,nan,nan,nan,nan,nan,nan,nan,nan,nan,nan,nan,nan,nan,217.50340607343242,508.31639619381167,nan,509.0590524803847,nan,nan,nan,nan
1,194,1,1,1.0,1.0,0.6141717401333153,0.0,5,3,6,1,0,4,nan,nan,nan,nan,nan,nan,nan,nan,nan,nan,nan,nan,0.0,nan,nan,nan,nan,nan,nan,nan,nan,nan,nan,nan,nan,nan,nan,nan,nan,nan,nan,217.50340607343242,509.32483910466544,nan,509.93901084479876,nan,nan,nan,nan
1,195,1,1,1.0,1.0,0.6056732349097729,0.0,2,8,7,4,3,6,nan,nan,nan,nan,nan,nan,nan,nan,nan,nan,nan,nan,0.0,nan,nan,nan,nan,nan,nan,nan,nan,nan,nan,nan,nan,nan,nan,nan,nan,nan,nan,217.50340607343242,510.3333224996459,nan,510.93899573455565,nan,nan,nan,nan
1,196,1,1,1.0,1.0,0.5571859397459775,0.0,8,0,5,6,4,1,nan,nan,nan,nan,nan,nan,nan,nan,nan,nan,nan,nan,0.0,nan,nan,nan,nan,nan,nan,nan,nan,nan,nan,nan,nan,nan,nan,nan,nan,nan,nan,217.50340607343242,511.34180760523304,nan,511.898993544979,nan,nan,nan,nan
1,197,1,1,1.0,1.0,0.412700517103076,0.0,3,5,7,0,1,6,nan,nan,nan,nan,nan,nan,nan,nan,nan,nan,nan,nan,0.0,nan,nan,nan,nan,nan,nan,nan,nan,nan,nan,nan,nan,nan,nan,nan,nan,nan,nan,217.50340607343242,512.350267051952,nan,512.762967569055,nan,nan,nan,nan
1,198,1,1,1.0,1.0,0.44417227036319673,0.0,0,1,2,5,6,4,nan,nan,nan,nan,nan,nan,nan,nan,nan,nan,nan,nan,0.0,nan,nan,nan,nan,nan,nan,nan,nan,nan,nan,nan,nan,nan,nan,nan,nan,nan,nan,217.50340607343242,513.3587852290366,nan,513.8029574993998,nan,nan,nan,nan
1,199,1,1,1.0,1.0,0.4757580629084259,0.0,5,7,4,1,3,2,nan,nan,nan,nan,nan,nan,nan,nan,nan,nan,nan,nan,0.0,nan,nan,nan,nan,nan,nan,nan,nan,nan,nan,nan,nan,nan,nan,nan,nan,nan,nan,217.50340607343242,514.3671810987871,nan,514.8429391616955,nan,nan,nan,nan
1,200,1,1,1.0,1.0,0.4512358740903437,0.0,8,2,1,7,0,5,nan,nan,nan,nan,nan,nan,nan,nan,nan,nan,nan,nan,0.0,nan,nan,nan,nan,nan,nan,nan,nan,nan,nan,nan,nan,nan,nan,nan,nan,nan,nan,217.50340607343242,515.375690722838,nan,515.8269265969284,nan,nan,nan,nan
1,201,1,1,1.0,1.0,0.41877539874985814,0.0,2,0,5,1,4,6,nan,nan,nan,nan,nan,nan,nan,nan,nan,nan,nan,nan,0.0,nan,nan,nan,nan,nan,nan,nan,nan,nan,nan,nan,nan,nan,nan,nan,nan,nan,nan,217.50340607343242,516.3841527353507,nan,516.8029281341005,nan,nan,nan,nan
1,202,1,1,1.0,1.0,0.3862365211825818,0.0,4,3,7,8,6,1,nan,nan,nan,nan,nan,nan,nan,nan,nan,nan,nan,nan,0.0,nan,nan,nan,nan,nan,nan,nan,nan,nan,nan,nan,nan,nan,nan,nan,nan,nan,nan,217.50340607343242,517.3926458237693,nan,517.7788823449519,nan,nan,nan,nan
1,203,1,1,1.0,1.0,0.46575765823945403,0.0,1,6,5,4,3,8,nan,nan,nan,nan,nan,nan,nan,nan,nan,nan,nan,nan,0.0,nan,nan,nan,nan,nan,nan,nan,nan,nan,nan,nan,nan,nan,nan,nan,nan,nan,nan,217.50340607343242,518.4011212359183,nan,518.8668788941577,nan,nan,nan,nan
1,204,1,1,1.0,1.0,0.42527678795158863,0.0,3,7,8,2,0,5,nan,nan,nan,nan,nan,nan,nan,nan,nan,nan,nan,nan,0.0,nan,nan,nan,nan,nan,nan,nan,nan,nan,nan,nan,nan,nan,nan,nan,nan,nan,nan,217.50340607343242,519.4095955078956,nan,519.8348722958472,nan,nan,nan,nan
1,205,1,1,1.0,1.0,0.41673922422342,0.0,0,5,1,3,4,2,nan,nan,nan,nan,nan,nan,nan,nan,nan,nan,nan,nan,0.0,nan,nan,nan,nan,nan,nan,nan,nan,nan,nan,nan,nan,nan,nan,nan,nan,nan,nan,217.50340607343242,520.4181079829577,nan,520.8348472071812,nan,nan,nan,nan
1,206,1,1,1.0,1.0,0.31227480759844184,0.0,2,8,3,4,6,7,nan,nan,nan,nan,nan,nan,nan,nan,nan,nan,nan,nan,0.0,nan,nan,nan,nan,nan,nan,nan,nan,nan,nan,nan,nan,nan,nan,nan,nan,nan,nan,217.50340607343242,521.4265697104856,nan,521.7388445180841,nan,nan,nan,nan
1,207,1,1,1.0,1.0,0.35181485232897103,0.0,8,0,7,2,3,5,nan,nan,nan,nan,nan,nan,nan,nan,nan,nan,nan,nan,0.0,nan,nan,nan,nan,nan,nan,nan,nan,nan,nan,nan,nan,nan,nan,nan,nan,nan,nan,217.50340607343242,522.4350223147776,nan,522.7868371671066,nan,nan,nan,nan
1,208,1,1,1.0,1.0,0.28733238321729004,0.0,0,7,5,4,8,6,nan,nan,nan,nan,nan,nan,nan,nan,nan,nan,nan,nan,0.0,nan,nan,nan,nan,nan,nan,nan,nan,nan,nan,nan,nan,nan,nan,nan,nan,nan,nan,217.50340607343242,523.4434925953392,nan,523.7308249785565,nan,nan,nan,nan
1,209,1,1,1.0,1.0,0.35885194200091064,0.0,8,0,4,7,6,3,nan,nan,nan,nan,nan,nan,nan,nan,nan,nan,nan,nan,0.0,nan,nan,nan,nan,nan,nan,nan,nan,nan,nan,nan,nan,nan,nan,nan,nan,nan,nan,217.50340607343242,524.4519503314514,nan,524.8108022734523,nan,nan,nan,nan
1,210,1,1,1.0,1.0,0.3344141421839595,0.0,1,3,2,5,4,0,nan,nan,nan,nan,nan,nan,nan,nan,nan,nan,nan,nan,0.0,nan,nan,nan,nan,nan,nan,nan,nan,nan,nan,nan,nan,nan,nan,nan,nan,nan,nan,217.50340607343242,525.4603960933164,nan,525.7948102355003,nan,nan,nan,nan
1,211,1,1,1.0,1.0,0.3338698889128864,0.0,2,1,3,7,6,5,nan,nan,nan,nan,nan,nan,nan,nan,nan,nan,nan,nan,0.0,nan,nan,nan,nan,nan,nan,nan,nan,nan,nan,nan,nan,nan,nan,nan,nan,nan,nan,217.50340607343242,526.468907427974,nan,526.8027773168869,nan,nan,nan,nan
1,212,1,1,1.0,1.0,0.3012836850248277,0.0,1,5,7,3,2,0,nan,nan,nan,nan,nan,nan,nan,nan,nan,nan,nan,nan,0.0,nan,nan,nan,nan,nan,nan,nan,nan,nan,nan,nan,nan,nan,nan,nan,nan,nan,nan,217.50340607343242,527.4774638083763,nan,527.7787474934012,nan,nan,nan,nan
1,213,1,1,1.0,1.0,0.26088292757049203,0.0,2,0,3,6,4,8,nan,nan,nan,nan,nan,nan,nan,nan,nan,nan,nan,nan,0.0,nan,nan,nan,nan,nan,nan,nan,nan,nan,nan,nan,nan,nan,nan,nan,nan,nan,nan,217.50340607343242,528.485845993273,nan,528.7467289208435,nan,nan,nan,nan
1,214,1,1,1.0,1.0,0.25240266881883144,0.0,1,7,2,8,0,3,nan,nan,nan,nan,nan,nan,nan,nan,nan,nan,nan,nan,0.0,nan,nan,nan,nan,nan,nan,nan,nan,nan,nan,nan,nan,nan,nan,nan,nan,nan,nan,217.50340607343242,529.4943048697896,nan,529.7467075386085,nan,nan,nan,nan
1,215,1,1,1.0,1.0,0.3559014562051743,0.0,0,8,4,5,2,1,nan,nan,nan,nan,nan,nan,nan,nan,nan,nan,nan,nan,0.0,nan,nan,nan,nan,nan,nan,nan,nan,nan,nan,nan,nan,nan,nan,nan,nan,nan,nan,217.50340607343242,530.502793681575,nan,530.8586951377802,nan,nan,nan,nan
1,216,1,1,1.0,1.0,0.24342576786875725,0.0,8,3,5,4,1,7,nan,nan,nan,nan,nan,nan,nan,nan,nan,nan,nan,nan,0.0,nan,nan,nan,nan,nan,nan,nan,nan,nan,nan,nan,nan,nan,nan,nan,nan,nan,nan,217.50340607343242,531.5112568347249,nan,531.7546826025937,nan,nan,nan,nan
1,217,1,1,1.0,1.0,0.12294536549597979,0.0,5,1,7,0,2,6,nan,nan,nan,nan,nan,nan,nan,nan,nan,nan,nan,nan,0.0,nan,nan,nan,nan,nan,nan,nan,nan,nan,nan,nan,nan,nan,nan,nan,nan,nan,nan,217.50340607343242,532.5197271150537,nan,532.6426724805497,nan,nan,nan,nan
1,218,1,1,1.0,1.0,0.2184434300288558,0.0,4,5,1,8,6,2,nan,nan,nan,nan,nan,nan,nan,nan,nan,nan,nan,nan,0.0,nan,nan,nan,nan,nan,nan,nan,nan,nan,nan,nan,nan,nan,nan,nan,nan,nan,nan,217.50340607343242,533.5282093696296,nan,533.7466527996585,nan,nan,nan,nan
1,219,0,0,1.0,0.0,0.05800331733189523,1.0,5,1,8,4,0,6,1.0,1.0,1.0,1.0,1.0,1.0,0.0,0.0,1.0,1.0,0.0,0.0,2.0,1.0,3.0,8.0,4.0,5.0,3.0,4.0,3.0,1.0,2.0,6.0,5.0,5.341997765935957,4.015268742572516,2.1039090445265174,2.967402392299846,7.469920668518171,6.534346117870882,217.50340607343242,534.5366363152862,535.3451321404427,534.594639632618,543.8712754002772,544.8705817551818,536.3619153269101,543.862950805109
1,220,1,1,nan,nan,nan,0.0,1,6,3,7,2,5,nan,nan,nan,nan,nan,nan,nan,nan,nan,nan,nan,nan,0.0,nan,nan,nan,nan,nan,nan,nan,nan,nan,nan,nan,nan,nan,nan,nan,nan,nan,nan,217.50340607343242,545.0797879893798,nan,nan,nan,nan,nan,nan
1,221,1,1,1.0,1.0,0.402190355816856,0.0,4,1,0,5,8,6,nan,nan,nan,nan,nan,nan,nan,nan,nan,nan,nan,nan,0.0,nan,nan,nan,nan,nan,nan,nan,nan,nan,nan,nan,nan,nan,nan,nan,nan,nan,nan,217.50340607343242,546.0882408788893,nan,546.4904312347062,nan,nan,nan,nan
1,222,1,1,1.0,1.0,0.34568893793039024,0.0,2,7,3,8,1,4,nan,nan,nan,nan,nan,nan,nan,nan,nan,nan,nan,nan,0.0,nan,nan,nan,nan,nan,nan,nan,nan,nan,nan,nan,nan,nan,nan,nan,nan,nan,nan,217.50340607343242,547.0967559197452,nan,547.4424448576756,nan,nan,nan,nan
1,223,0,0,1.0,0.0,0.1451936075463891,1.0,4,6,0,7,5,8,1.0,1.0,1.0,1.0,1.0,1.0,0.0,1.0,1.0,0.0,0.0,0.0,2.0,6.0,6.0,0.0,3.0,7.0,1.0,4.0,1.0,2.0,3.0,6.0,5.0,7.069281819276512,2.84720623283647,3.8380058149341494,5.981253053992987,9.269249147037044,8.12597510847263,217.50340607343242,548.1052501485683,548.9136875285767,548.2504437561147,559.2400875482708,560.2402192638256,549.9304652982391,559.2317418558523
1,224,1,1,1.0,1.0,0.6336801843717694,0.0,1,0,5,2,6,3,nan,nan,nan,nan,nan,nan,nan,nan,nan,nan,nan,nan,0.0,nan,nan,nan,nan,nan,nan,nan,nan,nan,nan,nan,nan,nan,nan,nan,nan,nan,nan,217.50340607343242,560.4486015627626,nan,561.0822817471344,nan,nan,nan,nan
1,225,0,0,1.0,0.0,0.31316089420579374,1.0,2,5,7,3,8,4,1.0,1.0,1.0,1.0,1.0,1.0,0.0,1.0,1.0,1.0,0.0,0.0,3.0,7.0,5.0,7.0,3.0,4.0,0.0,6.0,2.0,1.0,3.0,4.0,5.0,5.901094151427969,1.8871545388828963,1.0541510647162795,2.7738731619901955,3.9906413522548974,5.08625374129042,217.50340607343242,561.4570795409381,562.26549838949,561.7702404351439,569.2164602838457,570.2156406252179,563.2739966097288,569.2081294166856
1,226,1,1,1.0,1.0,0.6330783411394805,0.0,7,8,4,1,0,6,nan,nan,nan,nan,nan,nan,nan,nan,nan,nan,nan,nan,0.0,nan,nan,nan,nan,nan,nan,nan,nan,nan,nan,nan,nan,nan,nan,nan,nan,nan,nan,217.50340607343242,570.425005089026,nan,571.0580834301654,nan,nan,nan,nan
1,227,1,1,1.0,1.0,0.3126260491553694,0.0,3,0,2,7,4,5,nan,nan,nan,nan,nan,nan,nan,nan,nan,nan,nan,nan,0.0,nan,nan,nan,nan,nan,nan,nan,nan,nan,nan,nan,nan,nan,nan,nan,nan,nan,nan,217.50340607343242,571.433455982944,nan,571.7460820320994,nan,nan,nan,nan
1,228,1,1,1.0,1.0,0.31212627119384706,0.0,5,4,8,1,3,6,nan,nan,nan,nan,nan,nan,nan,nan,nan,nan,nan,nan,0.0,nan,nan,nan,nan,nan,nan,nan,nan,nan,nan,nan,nan,nan,nan,nan,nan,nan,nan,217.50340607343242,572.4419365269132,nan,572.754062798107,nan,nan,nan,nan
1,229,1,1,1.0,1.0,0.32770805223844945,0.0,6,8,0,2,7,1,nan,nan,nan,nan,nan,nan,nan,nan,nan,nan,nan,nan,0.0,nan,nan,nan,nan,nan,nan,nan,nan,nan,nan,nan,nan,nan,nan,nan,nan,nan,nan,217.50340607343242,573.4504079476465,nan,573.7781159998849,nan,nan,nan,nan
1,230,1,1,1.0,1.0,0.31115864659659564,0.0,3,0,7,6,1,4,nan,nan,nan,nan,nan,nan,nan,nan,nan,nan,nan,nan,0.0,nan,nan,nan,nan,nan,nan,nan,nan,nan,nan,nan,nan,nan,nan,nan,nan,nan,nan,217.50340607343242,574.4588816494215,nan,574.7700402960181,nan,nan,nan,nan
1,231,1,1,1.0,1.0,0.29464544844813645,0.0,8,2,1,7,4,0,nan,nan,nan,nan,nan,nan,nan,nan,nan,nan,nan,nan,0.0,nan,nan,nan,nan,nan,nan,nan,nan,nan,nan,nan,nan,nan,nan,nan,nan,nan,nan,217.50340607343242,575.4673696060199,nan,575.7620150544681,nan,nan,nan,nan
1,232,1,1,1.0,1.0,0.28619512473233044,0.0,2,6,5,0,8,4,nan,nan,nan,nan,nan,nan,nan,nan,nan,nan,nan,nan,0.0,nan,nan,nan,nan,nan,nan,nan,nan,nan,nan,nan,nan,nan,nan,nan,nan,nan,nan,217.50340607343242,576.4758330441546,nan,576.7620281688869,nan,nan,nan,nan
1,233,1,1,1.0,1.0,0.14170314511284232,0.0,3,5,0,6,7,2,nan,nan,nan,nan,nan,nan,nan,nan,nan,nan,nan,nan,0.0,nan,nan,nan,nan,nan,nan,nan,nan,nan,nan,nan,nan,nan,nan,nan,nan,nan,nan,217.50340607343242,577.4843190049287,nan,577.6260221500415,nan,nan,nan,nan
1,234,1,1,1.0,1.0,0.013259082334116101,0.0,1,7,4,0,6,8,nan,nan,nan,nan,nan,nan,nan,nan,nan,nan,nan,nan,0.0,nan,nan,nan,nan,nan,nan,nan,nan,nan,nan,nan,nan,nan,nan,nan,nan,nan,nan,217.50340607343242,578.4927701838315,nan,578.5060292661656,nan,nan,nan,nan
1,235,1,1,1.0,1.0,0.32473276276141405,0.0,8,0,1,3,2,6,nan,nan,nan,nan,nan,nan,nan,nan,nan,nan,nan,nan,0.0,nan,nan,nan,nan,nan,nan,nan,nan,nan,nan,nan,nan,nan,nan,nan,nan,nan,nan,217.50340607343242,579.5012530086096,nan,579.825985771371,nan,nan,nan,nan
1,236,1,1,1.0,1.0,0.2922263864893466,0.0,5,6,2,4,7,1,nan,nan,nan,nan,nan,nan,nan,nan,nan,nan,nan,nan,0.0,nan,nan,nan,nan,nan,nan,nan,nan,nan,nan,nan,nan,nan,nan,nan,nan,nan,nan,217.50340607343242,580.5097218635492,nan,580.8019482500385,nan,nan,nan,nan
1,237,1,1,1.0,1.0,0.2757436940446496,0.0,4,1,0,5,2,8,nan,nan,nan,nan,nan,nan,nan,nan,nan,nan,nan,nan,0.0,nan,nan,nan,nan,nan,nan,nan,nan,nan,nan,nan,nan,nan,nan,nan,nan,nan,nan,217.50340607343242,581.5181887228973,nan,581.793932416942,nan,nan,nan,nan
1,238,1,1,1.0,1.0,0.17923894617706537,0.0,2,0,8,3,4,7,nan,nan,nan,nan,nan,nan,nan,nan,nan,nan,nan,nan,0.0,nan,nan,nan,nan,nan,nan,nan,nan,nan,nan,nan,nan,nan,nan,nan,nan,nan,nan,217.50340607343242,582.5266872281209,nan,582.7059261742979,nan,nan,nan,nan
1,239,1,1,1.0,1.0,0.07477823598310351,0.0,0,5,7,1,8,6,nan,nan,nan,nan,nan,nan,nan,nan,nan,nan,nan,nan,0.0,nan,nan,nan,nan,nan,nan,nan,nan,nan,nan,nan,nan,nan,nan,nan,nan,nan,nan,217.50340607343242,583.5351914353669,nan,583.60996967135,nan,nan,nan,nan
1,240,1,1,1.0,1.0,0.21028561750426888,0.0,5,0,3,6,1,4,nan,nan,nan,nan,nan,nan,nan,nan,nan,nan,nan,nan,0.0,nan,nan,nan,nan,nan,nan,nan,nan,nan,nan,nan,nan,nan,nan,nan,nan,nan,nan,217.50340607343242,584.5436121085659,nan,584.7538977260701,nan,nan,nan,nan
1,241,1,1,1.0,1.0,0.3058290125336498,0.0,6,7,0,8,5,1,nan,nan,nan,nan,nan,nan,nan,nan,nan,nan,nan,nan,0.0,nan,nan,nan,nan,nan,nan,nan,nan,nan,nan,nan,nan,nan,nan,nan,nan,nan,nan,217.50340607343242,585.5520427604206,nan,585.8578717729542,nan,nan,nan,nan
1,242,1,1,1.0,1.0,0.345307475887239,0.0,2,8,4,3,7,0,nan,nan,nan,nan,nan,nan,nan,nan,nan,nan,nan,nan,0.0,nan,nan,nan,nan,nan,nan,nan,nan,nan,nan,nan,nan,nan,nan,nan,nan,nan,nan,217.50340607343242,586.560551244067,nan,586.9058587199543,nan,nan,nan,nan
1,243,1,1,1.0,1.0,0.3928080447949469,0.0,3,7,1,6,0,2,nan,nan,nan,nan,nan,nan,nan,nan,nan,nan,nan,nan,0.0,nan,nan,nan,nan,nan,nan,nan,nan,nan,nan,nan,nan,nan,nan,nan,nan,nan,nan,217.50340607343242,587.5690326432232,nan,587.9618406880181,nan,nan,nan,nan
1,244,1,1,1.0,1.0,0.36031791917048395,0.0,0,1,2,8,6,4,nan,nan,nan,nan,nan,nan,nan,nan,nan,nan,nan,nan,0.0,nan,nan,nan,nan,nan,nan,nan,nan,nan,nan,nan,nan,nan,nan,nan,nan,nan,nan,217.50340607343242,588.577505774796,nan,588.9378236939665,nan,nan,nan,nan
1,245,1,1,1.0,1.0,0.43986557028256357,0.0,7,4,3,5,0,2,nan,nan,nan,nan,nan,nan,nan,nan,nan,nan,nan,nan,0.0,nan,nan,nan,nan,nan,nan,nan,nan,nan,nan,nan,nan,nan,nan,nan,nan,nan,nan,217.50340607343242,589.5859418434557,nan,590.0258074137382,nan,nan,nan,nan
1,246,1,1,1.0,1.0,0.39133950183168054,0.0,1,6,5,7,3,8,nan,nan,nan,nan,nan,nan,nan,nan,nan,nan,nan,nan,0.0,nan,nan,nan,nan,nan,nan,nan,nan,nan,nan,nan,nan,nan,nan,nan,nan,nan,nan,217.50340607343242,590.5944429144729,nan,590.9857824163046,nan,nan,nan,nan
1,247,1,1,1.0,1.0,0.3668592222966254,0.0,8,0,1,3,5,7,nan,nan,nan,nan,nan,nan,nan,nan,nan,nan,nan,nan,0.0,nan,nan,nan,nan,nan,nan,nan,nan,nan,nan,nan,nan,nan,nan,nan,nan,nan,nan,217.50340607343242,591.6029177566525,nan,591.9697769789491,nan,nan,nan,nan
1,248,1,1,nan,nan,nan,0.0,4,5,7,0,1,3,nan,nan,nan,nan,nan,nan,nan,nan,nan,nan,nan,nan,0.0,nan,nan,nan,nan,nan,nan,nan,nan,nan,nan,nan,nan,nan,nan,nan,nan,nan,nan,217.50340607343242,592.6113971602172,nan,nan,nan,nan,nan,nan
1,249,0,0,nan,nan,nan,0.0,1,7,0,4,2,8,nan,nan,nan,nan,nan,nan,nan,nan,nan,nan,nan,nan,0.0,nan,nan,nan,nan,nan,nan,nan,nan,nan,nan,nan,nan,nan,nan,nan,nan,nan,nan,217.50340607343242,593.619863449363,nan,nan,nan,nan,nan,nan
1,250,1,1,1.0,1.0,0.5974338843952864,0.0,7,1,8,5,3,6,nan,nan,nan,nan,nan,nan,nan,nan,nan,nan,nan,nan,0.0,nan,nan,nan,nan,nan,nan,nan,nan,nan,nan,nan,nan,nan,nan,nan,nan,nan,nan,217.50340607343242,594.6283402869012,nan,595.2257741712965,nan,nan,nan,nan
1,251,0,0,1.0,0.0,0.340899565955624,1.0,6,7,5,1,0,4,1.0,1.0,1.0,1.0,1.0,1.0,0.0,1.0,1.0,0.0,0.0,0.0,2.0,1.0,7.0,5.0,6.0,5.0,5.0,6.0,2.0,1.0,3.0,4.0,5.0,4.4173481948673725,1.6258488099556416,0.9389036474749446,2.529169296612963,3.2891880904790014,3.8737172700930387,217.50340607343242,595.6368251075037,596.4452391094528,595.9777246734593,601.9126623137854,602.9119980339892,597.4537398954853,601.9043285956141
1,252,1,1,nan,nan,nan,0.0,7,8,2,4,1,0,nan,nan,nan,nan,nan,nan,nan,nan,nan,nan,nan,nan,0.0,nan,nan,nan,nan,nan,nan,nan,nan,nan,nan,nan,nan,nan,nan,nan,nan,nan,nan,217.50340607343242,603.121208259603,nan,nan,nan,nan,nan,nan
1,253,1,1,1.0,1.0,0.35992305749095976,0.0,0,1,3,5,6,7,nan,nan,nan,nan,nan,nan,nan,nan,nan,nan,nan,nan,0.0,nan,nan,nan,nan,nan,nan,nan,nan,nan,nan,nan,nan,nan,nan,nan,nan,nan,nan,217.50340607343242,604.129657727899,nan,604.48958078539,nan,nan,nan,nan
1,254,1,1,1.0,1.0,0.03945251926779747,0.0,3,4,6,1,7,2,nan,nan,nan,nan,nan,nan,nan,nan,nan,nan,nan,nan,0.0,nan,nan,nan,nan,nan,nan,nan,nan,nan,nan,nan,nan,nan,nan,nan,nan,nan,nan,217.50340607343242,605.1381342804525,nan,605.1775867997203,nan,nan,nan,nan
1,255,1,1,1.0,1.0,0.3589346206281334,0.0,5,7,4,6,2,1,nan,nan,nan,nan,nan,nan,nan,nan,nan,nan,nan,nan,0.0,nan,nan,nan,nan,nan,nan,nan,nan,nan,nan,nan,nan,nan,nan,nan,nan,nan,nan,217.50340607343242,606.1466210966464,nan,606.5055557172745,nan,nan,nan,nan
1,256,1,1,1.0,1.0,0.254444545134902,0.0,7,2,6,4,1,8,nan,nan,nan,nan,nan,nan,nan,nan,nan,nan,nan,nan,0.0,nan,nan,nan,nan,nan,nan,nan,nan,nan,nan,nan,nan,nan,nan,nan,nan,nan,nan,217.50340607343242,607.155110478634,nan,607.4095550237689,nan,nan,nan,nan
1,257,1,1,1.0,1.0,0.3340275485534221,0.0,2,0,1,7,8,6,nan,nan,nan,nan,nan,nan,nan,nan,nan,nan,nan,nan,0.0,nan,nan,nan,nan,nan,nan,nan,nan,nan,nan,nan,nan,nan,nan,nan,nan,nan,nan,217.50340607343242,608.1635488281026,nan,608.4975763766561,nan,nan,nan,nan
1,258,1,1,1.0,1.0,0.3174884063191712,0.0,7,2,0,6,1,5,nan,nan,nan,nan,nan,nan,nan,nan,nan,nan,nan,nan,0.0,nan,nan,nan,nan,nan,nan,nan,nan,nan,nan,nan,nan,nan,nan,nan,nan,nan,nan,217.50340607343242,609.1720268062782,nan,609.4895152125973,nan,nan,nan,nan
1,259,1,1,1.0,1.0,0.2530033716466278,0.0,8,4,3,5,2,7,nan,nan,nan,nan,nan,nan,nan,nan,nan,nan,nan,nan,0.0,nan,nan,nan,nan,nan,nan,nan,nan,nan,nan,nan,nan,nan,nan,nan,nan,nan,nan,217.50340607343242,610.1804973718245,nan,610.4335007434711,nan,nan,nan,nan
1,260,1,1,1.0,1.0,0.29255995200946927,0.0,4,2,0,3,8,1,nan,nan,nan,nan,nan,nan,nan,nan,nan,nan,nan,nan,0.0,nan,nan,nan,nan,nan,nan,nan,nan,nan,nan,nan,nan,nan,nan,nan,nan,nan,nan,217.50340607343242,611.1889422785025,nan,611.481502230512,nan,nan,nan,nan
1,261,1,1,1.0,1.0,0.1720350740943104,0.0,1,6,8,7,5,3,nan,nan,nan,nan,nan,nan,nan,nan,nan,nan,nan,nan,0.0,nan,nan,nan,nan,nan,nan,nan,nan,nan,nan,nan,nan,nan,nan,nan,nan,nan,nan,217.50340607343242,612.1974433495197,nan,612.369478423614,nan,nan,nan,nan
1,262,1,1,1.0,1.0,0.12376217287965119,0.0,6,5,2,8,3,7,nan,nan,nan,nan,nan,nan,nan,nan,nan,nan,nan,nan,0.0,nan,nan,nan,nan,nan,nan,nan,nan,nan,nan,nan,nan,nan,nan,nan,nan,nan,nan,217.50340607343242,613.2059338721447,nan,613.3296960450243,nan,nan,nan,nan
1,263,1,1,nan,nan,nan,0.0,1,6,4,7,8,3,nan,nan,nan,nan,nan,nan,nan,nan,nan,nan,nan,nan,0.0,nan,nan,nan,nan,nan,nan,nan,nan,nan,nan,nan,nan,nan,nan,nan,nan,nan,nan,217.50340607343242,614.2144124202896,nan,nan,nan,nan,nan,nan
1,264,0,0,1.0,0.0,0.24261893890798092,0.0,6,1,3,4,7,2,nan,nan,nan,nan,nan,nan,nan,nan,nan,nan,nan,nan,0.0,nan,nan,nan,nan,nan,nan,nan,nan,nan,nan,nan,nan,nan,nan,nan,nan,nan,nan,217.50340607343242,615.2228670204058,nan,615.4654859593138,nan,nan,nan,nan
1,265,1,1,1.0,1.0,0.762004790827632,0.0,1,0,5,3,4,6,nan,nan,nan,nan,nan,nan,nan,nan,nan,nan,nan,nan,0.0,nan,nan,nan,nan,nan,nan,nan,nan,nan,nan,nan,nan,nan,nan,nan,nan,nan,nan,217.50340607343242,616.2313957461156,nan,616.9934005369432,nan,nan,nan,nan
1,266,0,0,0.0,1.0,0.6495336641091853,0.0,3,7,0,6,5,4,nan,nan,nan,nan,nan,nan,nan,nan,nan,nan,nan,nan,0.0,nan,nan,nan,nan,nan,nan,nan,nan,nan,nan,nan,nan,nan,nan,nan,nan,nan,nan,217.50340607343242,617.239858614048,nan,617.8893922781572,nan,nan,nan,nan
1,267,1,1,1.0,1.0,0.5290974518284202,0.0,8,1,2,0,4,6,nan,nan,nan,nan,nan,nan,nan,nan,nan,nan,nan,nan,0.0,nan,nan,nan,nan,nan,nan,nan,nan,nan,nan,nan,nan,nan,nan,nan,nan,nan,nan,217.50340607343242,618.2482889806852,nan,618.7773864325136,nan,nan,nan,nan
1,268,0,0,0.0,1.0,0.3686228422448039,1.0,0,6,8,3,7,4,1.0,1.0,1.0,1.0,1.0,1.0,0.0,1.0,0.0,0.0,0.0,0.0,1.0,5.0,6.0,7.0,6.0,4.0,3.0,6.0,2.0,1.0,3.0,4.0,5.0,8.564492162317038,3.054293328896165,1.9568950820248574,3.9559742133133113,5.044549797894433,6.588980709668249,217.50340607343242,619.2567569804378,620.0652553716209,619.6253798226826,629.6915090214461,630.6911589202937,621.0902995760553,629.6831730224658
1,269,1,1,1.0,1.0,0.7411888840142637,0.0,6,3,5,7,2,0,nan,nan,nan,nan,nan,nan,nan,nan,nan,nan,nan,nan,0.0,nan,nan,nan,nan,nan,nan,nan,nan,nan,nan,nan,nan,nan,nan,nan,nan,nan,nan,217.50340607343242,630.9000313039869,nan,631.6412201880012,nan,nan,nan,nan
1,270,1,1,1.0,1.0,0.3567122765816748,0.0,5,4,7,0,3,1,nan,nan,nan,nan,nan,nan,nan,nan,nan,nan,nan,nan,0.0,nan,nan,nan,nan,nan,nan,nan,nan,nan,nan,nan,nan,nan,nan,nan,nan,nan,nan,217.50340607343242,631.9085052907467,nan,632.2652175673284,nan,nan,nan,nan
1,271,0,0,0.0,1.0,0.564179124077782,0.0,1,2,8,7,4,3,nan,nan,nan,nan,nan,nan,nan,nan,nan,nan,nan,nan,0.0,nan,nan,nan,nan,nan,nan,nan,nan,nan,nan,nan,nan,nan,nan,nan,nan,nan,nan,217.50340607343242,632.9169824135024,nan,633.4811615375802,nan,nan,nan,nan
1,272,1,1,1.0,1.0,0.459699597209692,0.0,8,3,2,5,1,7,nan,nan,nan,nan,nan,nan,nan,nan,nan,nan,nan,nan,0.0,nan,nan,nan,nan,nan,nan,nan,nan,nan,nan,nan,nan,nan,nan,nan,nan,nan,nan,217.50340607343242,633.9254561152775,nan,634.3851557124872,nan,nan,nan,nan
1,273,1,1,1.0,1.0,0.779192817164585,0.0,2,7,6,0,4,3,nan,nan,nan,nan,nan,nan,nan,nan,nan,nan,nan,nan,0.0,nan,nan,nan,nan,nan,nan,nan,nan,nan,nan,nan,nan,nan,nan,nan,nan,nan,nan,217.50340607343242,634.9339406506624,nan,635.713133467827,nan,nan,nan,nan
1,274,1,1,1.0,1.0,0.4107299151364714,0.0,1,4,2,6,5,8,nan,nan,nan,nan,nan,nan,nan,nan,nan,nan,nan,nan,0.0,nan,nan,nan,nan,nan,nan,nan,nan,nan,nan,nan,nan,nan,nan,nan,nan,nan,nan,217.50340607343242,635.9423943953589,nan,636.3531243104953,nan,nan,nan,nan
1,275,1,1,1.0,1.0,0.3862179899588227,0.0,6,5,4,8,3,7,nan,nan,nan,nan,nan,nan,nan,nan,nan,nan,nan,nan,0.0,nan,nan,nan,nan,nan,nan,nan,nan,nan,nan,nan,nan,nan,nan,nan,nan,nan,nan,217.50340607343242,636.9508891941514,nan,637.3371071841102,nan,nan,nan,nan
1,276,1,1,1.0,1.0,0.3697270294651389,0.0,2,3,6,1,7,8,nan,nan,nan,nan,nan,nan,nan,nan,nan,nan,nan,nan,0.0,nan,nan,nan,nan,nan,nan,nan,nan,nan,nan,nan,nan,nan,nan,nan,nan,nan,nan,217.50340607343242,637.9593688829336,nan,638.3290959123988,nan,nan,nan,nan
1,277,1,1,1.0,1.0,0.29726094333454967,0.0,4,2,7,8,0,5,nan,nan,nan,nan,nan,nan,nan,nan,nan,nan,nan,nan,0.0,nan,nan,nan,nan,nan,nan,nan,nan,nan,nan,nan,nan,nan,nan,nan,nan,nan,nan,217.50340607343242,638.9678260488436,nan,639.2650869921781,nan,nan,nan,nan
1,278,1,1,1.0,1.0,0.21678130491636693,0.0,3,1,5,0,8,2,nan,nan,nan,nan,nan,nan,nan,nan,nan,nan,nan,nan,0.0,nan,nan,nan,nan,nan,nan,nan,nan,nan,nan,nan,nan,nan,nan,nan,nan,nan,nan,217.50340607343242,639.9762943335809,nan,640.1930756384972,nan,nan,nan,nan
1,279,1,1,1.0,1.0,0.35226502316072583,0.0,2,0,6,5,1,7,nan,nan,nan,nan,nan,nan,nan,nan,nan,nan,nan,nan,0.0,nan,nan,nan,nan,nan,nan,nan,nan,nan,nan,nan,nan,nan,nan,nan,nan,nan,nan,217.50340607343242,640.9847677501384,nan,641.3370327732991,nan,nan,nan,nan
1,280,0,0,1.0,0.0,0.3197957098018378,0.0,6,3,8,4,0,1,nan,nan,nan,nan,nan,nan,nan,nan,nan,nan,nan,nan,0.0,nan,nan,nan,nan,nan,nan,nan,nan,nan,nan,nan,nan,nan,nan,nan,nan,nan,nan,217.50340607343242,641.9932346094865,nan,642.3130303192884,nan,nan,nan,nan
1,281,1,1,1.0,1.0,0.4872814647387713,0.0,7,0,3,1,8,6,nan,nan,nan,nan,nan,nan,nan,nan,nan,nan,nan,nan,0.0,nan,nan,nan,nan,nan,nan,nan,nan,nan,nan,nan,nan,nan,nan,nan,nan,nan,nan,217.50340607343242,643.0017074558418,nan,643.4889889205806,nan,nan,nan,nan
1,282,1,1,1.0,1.0,0.5267610684968531,0.0,6,8,7,0,1,4,nan,nan,nan,nan,nan,nan,nan,nan,nan,nan,nan,nan,0.0,nan,nan,nan,nan,nan,nan,nan,nan,nan,nan,nan,nan,nan,nan,nan,nan,nan,nan,217.50340607343242,644.0102310497314,nan,644.5369921182282,nan,nan,nan,nan
1,283,1,1,1.0,1.0,0.5902821850031614,0.0,0,3,6,8,2,7,nan,nan,nan,nan,nan,nan,nan,nan,nan,nan,nan,nan,0.0,nan,nan,nan,nan,nan,nan,nan,nan,nan,nan,nan,nan,nan,nan,nan,nan,nan,nan,217.50340607343242,645.0186999046709,nan,645.6089820896741,nan,nan,nan,nan
1,284,1,1,1.0,1.0,0.3658491177484393,0.0,4,6,3,7,5,2,nan,nan,nan,nan,nan,nan,nan,nan,nan,nan,nan,nan,0.0,nan,nan,nan,nan,nan,nan,nan,nan,nan,nan,nan,nan,nan,nan,nan,nan,nan,nan,217.50340607343242,646.027124284301,nan,646.3929734020494,nan,nan,nan,nan
1,285,1,1,1.0,1.0,0.341372259426862,0.0,2,4,1,3,7,5,nan,nan,nan,nan,nan,nan,nan,nan,nan,nan,nan,nan,0.0,nan,nan,nan,nan,nan,nan,nan,nan,nan,nan,nan,nan,nan,nan,nan,nan,nan,nan,217.50340607343242,647.0356085347012,nan,647.376980794128,nan,nan,nan,nan
1,286,1,1,1.0,1.0,0.7649544212035835,0.0,0,3,5,7,8,1,nan,nan,nan,nan,nan,nan,nan,nan,nan,nan,nan,nan,0.0,nan,nan,nan,nan,nan,nan,nan,nan,nan,nan,nan,nan,nan,nan,nan,nan,nan,nan,217.50340607343242,648.0440517307725,nan,648.8090061519761,nan,nan,nan,nan
1,287,1,1,1.0,1.0,0.34841704671271145,0.0,8,7,6,4,5,3,nan,nan,nan,nan,nan,nan,nan,nan,nan,nan,nan,nan,0.0,nan,nan,nan,nan,nan,nan,nan,nan,nan,nan,nan,nan,nan,nan,nan,nan,nan,nan,217.50340607343242,649.0525485253893,nan,649.400965572102,nan,nan,nan,nan
1,288,1,1,1.0,1.0,0.2919489855412394,0.0,2,3,4,7,1,0,nan,nan,nan,nan,nan,nan,nan,nan,nan,nan,nan,nan,0.0,nan,nan,nan,nan,nan,nan,nan,nan,nan,nan,nan,nan,nan,nan,nan,nan,nan,nan,217.50340607343242,650.0610202313401,nan,650.3529692168813,nan,nan,nan,nan
1,289,1,1,1.0,1.0,0.38736608205363154,0.0,6,0,7,2,8,1,nan,nan,nan,nan,nan,nan,nan,nan,nan,nan,nan,nan,0.0,nan,nan,nan,nan,nan,nan,nan,nan,nan,nan,nan,nan,nan,nan,nan,nan,nan,nan,217.50340607343242,651.0695295701735,nan,651.4568956522271,nan,nan,nan,nan
1,290,1,1,1.0,1.0,0.2589071940165013,0.0,4,1,3,8,6,5,nan,nan,nan,nan,nan,nan,nan,nan,nan,nan,nan,nan,0.0,nan,nan,nan,nan,nan,nan,nan,nan,nan,nan,nan,nan,nan,nan,nan,nan,nan,nan,217.50340607343242,652.0779741918668,nan,652.3368813858833,nan,nan,nan,nan
1,291,1,1,1.0,1.0,0.09845567774027586,0.0,3,7,8,2,0,4,nan,nan,nan,nan,nan,nan,nan,nan,nan,nan,nan,nan,0.0,nan,nan,nan,nan,nan,nan,nan,nan,nan,nan,nan,nan,nan,nan,nan,nan,nan,nan,217.50340607343242,653.086404558504,nan,653.1848602362443,nan,nan,nan,nan
1,292,1,1,1.0,1.0,0.018014812609180808,0.0,2,0,6,3,5,1,nan,nan,nan,nan,nan,nan,nan,nan,nan,nan,nan,nan,0.0,nan,nan,nan,nan,nan,nan,nan,nan,nan,nan,nan,nan,nan,nan,nan,nan,nan,nan,217.50340607343242,654.0949127571657,nan,654.1129275697749,nan,nan,nan,nan
1,293,1,1,nan,nan,nan,0.0,8,1,0,4,3,2,nan,nan,nan,nan,nan,nan,nan,nan,nan,nan,nan,nan,0.0,nan,nan,nan,nan,nan,nan,nan,nan,nan,nan,nan,nan,nan,nan,nan,nan,nan,nan,217.50340607343242,655.1033984329551,nan,nan,nan,nan,nan,nan
1,294,1,1,1.0,1.0,0.3769719561096281,0.0,3,0,4,6,8,5,nan,nan,nan,nan,nan,nan,nan,nan,nan,nan,nan,nan,0.0,nan,nan,nan,nan,nan,nan,nan,nan,nan,nan,nan,nan,nan,nan,nan,nan,nan,nan,217.50340607343242,656.1118658622727,nan,656.4888378183823,nan,nan,nan,nan
1,295,1,1,1.0,1.0,0.4164715167135,0.0,8,6,3,2,1,0,nan,nan,nan,nan,nan,nan,nan,nan,nan,nan,nan,nan,0.0,nan,nan,nan,nan,nan,nan,nan,nan,nan,nan,nan,nan,nan,nan,nan,nan,nan,nan,217.50340607343242,657.1203335768078,nan,657.5368050935213,nan,nan,nan,nan
1,296,1,1,1.0,1.0,0.24798135901801288,0.0,6,8,4,5,0,1,nan,nan,nan,nan,nan,nan,nan,nan,nan,nan,nan,nan,0.0,nan,nan,nan,nan,nan,nan,nan,nan,nan,nan,nan,nan,nan,nan,nan,nan,nan,nan,217.50340607343242,658.1288078487851,nan,658.3767892078031,nan,nan,nan,nan
1,297,1,1,1.0,1.0,0.007537722820416093,0.0,2,5,8,1,7,3,nan,nan,nan,nan,nan,nan,nan,nan,nan,nan,nan,nan,0.0,nan,nan,nan,nan,nan,nan,nan,nan,nan,nan,nan,nan,nan,nan,nan,nan,nan,nan,217.50340607343242,659.1372784143314,nan,659.1448161371518,nan,nan,nan,nan
1,298,1,1,nan,nan,nan,0.0,8,7,0,5,6,1,nan,nan,nan,nan,nan,nan,nan,nan,nan,nan,nan,nan,0.0,nan,nan,nan,nan,nan,nan,nan,nan,nan,nan,nan,nan,nan,nan,nan,nan,nan,nan,217.50340607343242,660.1457618093118,nan,nan,nan,nan,nan,nan
1,299,1,1,1.0,1.0,0.2545400531962514,0.0,0,6,1,4,8,2,nan,nan,nan,nan,nan,nan,nan,nan,nan,nan,nan,nan,0.0,nan,nan,nan,nan,nan,nan,nan,nan,nan,nan,nan,nan,nan,nan,nan,nan,nan,nan,217.50340607343242,661.1542340854649,nan,661.4087741386611,nan,nan,nan,nan
1,300,1,1,1.0,1.0,0.27002176456153393,0.0,7,4,3,6,1,5,nan,nan,nan,nan,nan,nan,nan,nan,nan,nan,nan,nan,0.0,nan,nan,nan,nan,nan,nan,nan,nan,nan,nan,nan,nan,nan,nan,nan,nan,nan,nan,217.50340607343242,662.1627040808089,nan,662.4327258453704,nan,nan,nan,nan
1,301,1,1,1.0,1.0,0.09355711285024881,0.0,8,3,5,7,6,1,nan,nan,nan,nan,nan,nan,nan,nan,nan,nan,nan,nan,0.0,nan,nan,nan,nan,nan,nan,nan,nan,nan,nan,nan,nan,nan,nan,nan,nan,nan,nan,217.50340607343242,663.1711766421795,nan,663.2647337550297,nan,nan,nan,nan
1,302,1,1,1.0,1.0,0.00509528280235827,0.0,2,7,4,5,3,8,nan,nan,nan,nan,nan,nan,nan,nan,nan,nan,nan,nan,0.0,nan,nan,nan,nan,nan,nan,nan,nan,nan,nan,nan,nan,nan,nan,nan,nan,nan,nan,217.50340607343242,664.1796526245307,nan,664.1847479073331,nan,nan,nan,nan
1,303,1,1,1.0,1.0,0.2206013414543122,0.0,1,6,7,8,2,3,nan,nan,nan,nan,nan,nan,nan,nan,nan,nan,nan,nan,0.0,nan,nan,nan,nan,nan,nan,nan,nan,nan,nan,nan,nan,nan,nan,nan,nan,nan,nan,217.50340607343242,665.1881203390658,nan,665.4087216805201,nan,nan,nan,nan
1,304,0,0,1.0,0.0,0.276121734874323,1.0,8,7,5,0,4,6,1.0,1.0,1.0,1.0,1.0,1.0,0.0,0.0,1.0,0.0,0.0,0.0,1.0,4.0,6.0,5.0,6.0,1.0,3.0,6.0,2.0,1.0,3.0,4.0,5.0,6.392549175303429,1.985423477133736,1.075528045417741,3.9302215387579054,4.9775938130915165,5.769190987106413,217.50340607343242,666.1965638203546,667.0050183061976,666.472685555229,674.4477129103616,675.4470104272477,668.0135202326346,674.4394145442639
1,305,1,1,nan,nan,nan,0.0,6,5,7,2,3,1,nan,nan,nan,nan,nan,nan,nan,nan,nan,nan,nan,nan,0.0,nan,nan,nan,nan,nan,nan,nan,nan,nan,nan,nan,nan,nan,nan,nan,nan,nan,nan,217.50340607343242,675.6562337672804,nan,nan,nan,nan,nan,nan
1,306,1,1,1.0,1.0,0.3757711206562817,0.0,7,1,5,8,6,0,nan,nan,nan,nan,nan,nan,nan,nan,nan,nan,nan,nan,0.0,nan,nan,nan,nan,nan,nan,nan,nan,nan,nan,nan,nan,nan,nan,nan,nan,nan,nan,217.50340607343242,676.6647108900361,nan,677.0404820106924,nan,nan,nan,nan
1,307,1,1,1.0,1.0,0.2793205415364355,0.0,8,0,6,3,5,7,nan,nan,nan,nan,nan,nan,nan,nan,nan,nan,nan,nan,0.0,nan,nan,nan,nan,nan,nan,nan,nan,nan,nan,nan,nan,nan,nan,nan,nan,nan,nan,217.50340607343242,677.6731788897887,nan,677.9524994313251,nan,nan,nan,nan
1,308,1,1,1.0,1.0,0.31881554052233696,0.0,3,7,5,4,8,0,nan,nan,nan,nan,nan,nan,nan,nan,nan,nan,nan,nan,0.0,nan,nan,nan,nan,nan,nan,nan,nan,nan,nan,nan,nan,nan,nan,nan,nan,nan,nan,217.50340607343242,678.6816580083687,nan,679.000473548891,nan,nan,nan,nan
1,309,1,1,1.0,1.0,0.2783352406695485,0.0,1,8,0,5,4,7,nan,nan,nan,nan,nan,nan,nan,nan,nan,nan,nan,nan,0.0,nan,nan,nan,nan,nan,nan,nan,nan,nan,nan,nan,nan,nan,nan,nan,nan,nan,nan,217.50340607343242,679.690128573915,nan,679.9684638145845,nan,nan,nan,nan
1,310,1,1,1.0,1.0,0.2538603781722486,0.0,7,5,3,1,0,2,nan,nan,nan,nan,nan,nan,nan,nan,nan,nan,nan,nan,0.0,nan,nan,nan,nan,nan,nan,nan,nan,nan,nan,nan,nan,nan,nan,nan,nan,nan,nan,217.50340607343242,680.6986034158617,nan,680.952463794034,nan,nan,nan,nan
1,311,0,0,0.0,1.0,0.5413370213937014,1.0,0,6,1,3,5,4,1.0,1.0,1.0,1.0,1.0,1.0,0.0,1.0,1.0,1.0,0.0,1.0,4.0,5.0,6.0,1.0,3.0,4.0,4.0,6.0,2.0,1.0,3.0,4.0,5.0,6.601595469051972,2.987560006091371,0.9476310869213194,4.419457639800385,5.4813271798193455,6.017815528670326,217.50340607343242,681.707078543026,682.5155002428219,682.2484155644197,690.1665520570241,691.166668377351,683.5239919056185,690.1582197644748
1,312,1,1,1.0,1.0,0.6731994168367237,0.0,5,1,4,0,3,8,nan,nan,nan,nan,nan,nan,nan,nan,nan,nan,nan,nan,0.0,nan,nan,nan,nan,nan,nan,nan,nan,nan,nan,nan,nan,nan,nan,nan,nan,nan,nan,217.50340607343242,691.3750888796058,nan,692.0482882964425,nan,nan,nan,nan
1,313,1,1,1.0,1.0,0.3207274121232331,0.0,4,2,6,5,1,7,nan,nan,nan,nan,nan,nan,nan,nan,nan,nan,nan,nan,0.0,nan,nan,nan,nan,nan,nan,nan,nan,nan,nan,nan,nan,nan,nan,nan,nan,nan,nan,217.50340607343242,692.383561725961,nan,692.7042891380843,nan,nan,nan,nan
1,314,1,1,1.0,1.0,0.3442392114084214,0.0,2,7,1,6,0,4,nan,nan,nan,nan,nan,nan,nan,nan,nan,nan,nan,nan,0.0,nan,nan,nan,nan,nan,nan,nan,nan,nan,nan,nan,nan,nan,nan,nan,nan,nan,nan,217.50340607343242,693.3920257342979,nan,693.7362649457064,nan,nan,nan,nan
1,315,0,0,0.0,1.0,0.7357420746702701,1.0,3,2,4,0,1,6,1.0,1.0,1.0,1.0,1.0,1.0,0.0,1.0,1.0,0.0,0.0,0.0,2.0,7.0,2.0,4.0,6.0,3.0,1.0,6.0,2.0,1.0,3.0,4.0,5.0,7.763670336920768,2.2454995752777904,1.1578930411487818,3.387810265645385,4.947453185217455,5.988116803579032,217.50340607343242,694.4004974402487,695.2089160038158,695.136239514919,704.0268035484478,705.0262113984209,696.2257351127919,704.0184792382643
1,316,1,1,1.0,1.0,0.7247495264746249,0.0,2,6,7,3,4,8,nan,nan,nan,nan,nan,nan,nan,nan,nan,nan,nan,nan,0.0,nan,nan,nan,nan,nan,nan,nan,nan,nan,nan,nan,nan,nan,nan,nan,nan,nan,nan,217.50340607343242,705.2353372348007,nan,705.9600867612753,nan,nan,nan,nan
1,317,1,1,1.0,1.0,0.3002037312835455,0.0,6,0,3,2,5,1,nan,nan,nan,nan,nan,nan,nan,nan,nan,nan,nan,nan,0.0,nan,nan,nan,nan,nan,nan,nan,nan,nan,nan,nan,nan,nan,nan,nan,nan,nan,nan,217.50340607343242,706.2438787899446,nan,706.5440825212281,nan,nan,nan,nan
1,318,1,1,1.0,1.0,0.25977389398030937,0.0,2,6,7,1,0,4,nan,nan,nan,nan,nan,nan,nan,nan,nan,nan,nan,nan,0.0,nan,nan,nan,nan,nan,nan,nan,nan,nan,nan,nan,nan,nan,nan,nan,nan,nan,nan,217.50340607343242,707.2522874888964,nan,707.5120613828767,nan,nan,nan,nan
1,319,1,1,1.0,1.0,0.30732321459800005,0.0,5,7,1,8,4,6,nan,nan,nan,nan,nan,nan,nan,nan,nan,nan,nan,nan,0.0,nan,nan,nan,nan,nan,nan,nan,nan,nan,nan,nan,nan,nan,nan,nan,nan,nan,nan,217.50340607343242,708.2607446550392,nan,708.5680678696372,nan,nan,nan,nan
1,320,1,1,1.0,1.0,0.5707991141825914,0.0,4,3,5,1,0,2,nan,nan,nan,nan,nan,nan,nan,nan,nan,nan,nan,nan,0.0,nan,nan,nan,nan,nan,nan,nan,nan,nan,nan,nan,nan,nan,nan,nan,nan,nan,nan,217.50340607343242,709.2692269096151,nan,709.8400260237977,nan,nan,nan,nan
1,321,1,1,1.0,1.0,0.37829652428627014,0.0,1,0,3,5,4,7,nan,nan,nan,nan,nan,nan,nan,nan,nan,nan,nan,nan,0.0,nan,nan,nan,nan,nan,nan,nan,nan,nan,nan,nan,nan,nan,nan,nan,nan,nan,nan,217.50340607343242,710.2777225638274,nan,710.6560190881137,nan,nan,nan,nan
1,322,1,1,1.0,1.0,0.433847137959674,0.0,8,3,0,7,5,2,nan,nan,nan,nan,nan,nan,nan,nan,nan,nan,nan,nan,0.0,nan,nan,nan,nan,nan,nan,nan,nan,nan,nan,nan,nan,nan,nan,nan,nan,nan,nan,217.50340607343242,711.2861574920826,nan,711.7200046300422,nan,nan,nan,nan
1,323,1,1,1.0,1.0,0.4893609741702676,0.0,7,1,3,6,4,0,nan,nan,nan,nan,nan,nan,nan,nan,nan,nan,nan,nan,0.0,nan,nan,nan,nan,nan,nan,nan,nan,nan,nan,nan,nan,nan,nan,nan,nan,nan,nan,217.50340607343242,712.2946197898127,nan,712.783980763983,nan,nan,nan,nan
1,324,1,1,1.0,1.0,0.3848623458761722,0.0,0,7,6,3,2,5,nan,nan,nan,nan,nan,nan,nan,nan,nan,nan,nan,nan,0.0,nan,nan,nan,nan,nan,nan,nan,nan,nan,nan,nan,nan,nan,nan,nan,nan,nan,nan,217.50340607343242,713.3031279882416,nan,713.6879903341178,nan,nan,nan,nan
1,325,1,1,1.0,1.0,0.33640099479816854,0.0,7,5,1,0,3,8,nan,nan,nan,nan,nan,nan,nan,nan,nan,nan,nan,nan,0.0,nan,nan,nan,nan,nan,nan,nan,nan,nan,nan,nan,nan,nan,nan,nan,nan,nan,nan,217.50340607343242,714.3115629164968,nan,714.6479639112949,nan,nan,nan,nan
1,326,1,1,1.0,1.0,0.40793566359207034,0.0,4,2,8,3,0,5,nan,nan,nan,nan,nan,nan,nan,nan,nan,nan,nan,nan,0.0,nan,nan,nan,nan,nan,nan,nan,nan,nan,nan,nan,nan,nan,nan,nan,nan,nan,nan,217.50340607343242,715.3200397542678,nan,715.7279754178599,nan,nan,nan,nan
1,327,1,1,1.0,1.0,0.3354199700988829,0.0,1,7,4,2,3,8,nan,nan,nan,nan,nan,nan,nan,nan,nan,nan,nan,nan,0.0,nan,nan,nan,nan,nan,nan,nan,nan,nan,nan,nan,nan,nan,nan,nan,nan,nan,nan,217.50340607343242,716.3285374043044,nan,716.6639573744033,nan,nan,nan,nan
1,328,0,0,0.0,1.0,0.5909507411997765,0.0,4,1,2,7,6,3,nan,nan,nan,nan,nan,nan,nan,nan,nan,nan,nan,nan,0.0,nan,nan,nan,nan,nan,nan,nan,nan,nan,nan,nan,nan,nan,nan,nan,nan,nan,nan,217.50340607343242,717.3370173780713,nan,717.9279681192711,nan,nan,nan,nan
1,329,1,1,1.0,1.0,0.7023955127224326,0.0,7,4,5,0,1,2,nan,nan,nan,nan,nan,nan,nan,nan,nan,nan,nan,nan,0.0,nan,nan,nan,nan,nan,nan,nan,nan,nan,nan,nan,nan,nan,nan,nan,nan,nan,nan,217.50340607343242,718.3455041942652,nan,719.0478997069877,nan,nan,nan,nan
1,330,1,1,1.0,1.0,0.5659552884753793,0.0,0,8,7,3,4,1,nan,nan,nan,nan,nan,nan,nan,nan,nan,nan,nan,nan,0.0,nan,nan,nan,nan,nan,nan,nan,nan,nan,nan,nan,nan,nan,nan,nan,nan,nan,nan,217.50340607343242,719.3539690577891,nan,719.9199243462645,nan,nan,nan,nan
1,331,1,1,1.0,1.0,0.4534784599673003,0.0,4,5,8,1,6,0,nan,nan,nan,nan,nan,nan,nan,nan,nan,nan,nan,nan,0.0,nan,nan,nan,nan,nan,nan,nan,nan,nan,nan,nan,nan,nan,nan,nan,nan,nan,nan,217.50340607343242,720.3624188110698,nan,720.8158972710371,nan,nan,nan,nan
1,332,1,1,1.0,1.0,0.34900035872124135,0.0,8,2,6,0,7,5,nan,nan,nan,nan,nan,nan,nan,nan,nan,nan,nan,nan,0.0,nan,nan,nan,nan,nan,nan,nan,nan,nan,nan,nan,nan,nan,nan,nan,nan,nan,nan,217.50340607343242,721.3709010656457,nan,721.719901424367,nan,nan,nan,nan
1,333,1,1,1.0,1.0,0.41244649421423674,0.0,5,3,8,1,4,7,nan,nan,nan,nan,nan,nan,nan,nan,nan,nan,nan,nan,0.0,nan,nan,nan,nan,nan,nan,nan,nan,nan,nan,nan,nan,nan,nan,nan,nan,nan,nan,217.50340607343242,722.379405843094,nan,722.7918523373082,nan,nan,nan,nan
1,334,1,1,1.0,1.0,0.41996853658929467,0.0,2,0,6,7,3,4,nan,nan,nan,nan,nan,nan,nan,nan,nan,nan,nan,nan,0.0,nan,nan,nan,nan,nan,nan,nan,nan,nan,nan,nan,nan,nan,nan,nan,nan,nan,nan,217.50340607343242,723.3878481839783,nan,723.8078167205676,nan,nan,nan,nan
1,335,1,1,1.0,1.0,0.31548273749649525,0.0,6,4,5,1,2,0,nan,nan,nan,nan,nan,nan,nan,nan,nan,nan,nan,nan,0.0,nan,nan,nan,nan,nan,nan,nan,nan,nan,nan,nan,nan,nan,nan,nan,nan,nan,nan,217.50340607343242,724.3963244515471,nan,724.7118071890436,nan,nan,nan,nan
1,336,1,1,1.0,1.0,0.4749843052122742,0.0,3,0,1,8,5,2,nan,nan,nan,nan,nan,nan,nan,nan,nan,nan,nan,nan,0.0,nan,nan,nan,nan,nan,nan,nan,nan,nan,nan,nan,nan,nan,nan,nan,nan,nan,nan,217.50340607343242,725.4048146889545,nan,725.8797989941668,nan,nan,nan,nan
1,337,1,1,1.0,1.0,0.3705292970407754,0.0,7,4,0,3,2,1,nan,nan,nan,nan,nan,nan,nan,nan,nan,nan,nan,nan,0.0,nan,nan,nan,nan,nan,nan,nan,nan,nan,nan,nan,nan,nan,nan,nan,nan,nan,nan,217.50340607343242,726.4132718548644,nan,726.7838011519052,nan,nan,nan,nan
1,338,1,1,1.0,1.0,0.3460316266864538,0.0,0,1,7,5,3,4,nan,nan,nan,nan,nan,nan,nan,nan,nan,nan,nan,nan,0.0,nan,nan,nan,nan,nan,nan,nan,nan,nan,nan,nan,nan,nan,nan,nan,nan,nan,nan,217.50340607343242,727.4217492626049,nan,727.7677808892913,nan,nan,nan,nan
1,339,1,1,1.0,1.0,0.34553441451862454,0.0,5,7,8,3,1,0,nan,nan,nan,nan,nan,nan,nan,nan,nan,nan,nan,nan,0.0,nan,nan,nan,nan,nan,nan,nan,nan,nan,nan,nan,nan,nan,nan,nan,nan,nan,nan,217.50340607343242,728.4302181177773,nan,728.7757525322959,nan,nan,nan,nan
1,340,1,1,1.0,1.0,0.4410316238645464,0.0,1,8,6,0,4,7,nan,nan,nan,nan,nan,nan,nan,nan,nan,nan,nan,nan,0.0,nan,nan,nan,nan,nan,nan,nan,nan,nan,nan,nan,nan,nan,nan,nan,nan,nan,nan,217.50340607343242,729.438713486772,nan,729.8797451106366,nan,nan,nan,nan
1,341,0,0,0.0,1.0,0.5845505618490279,0.0,6,4,3,1,2,5,nan,nan,nan,nan,nan,nan,nan,nan,nan,nan,nan,nan,0.0,nan,nan,nan,nan,nan,nan,nan,nan,nan,nan,nan,nan,nan,nan,nan,nan,nan,nan,217.50340607343242,730.4471663762815,nan,731.0317169381306,nan,nan,nan,nan
1,342,1,1,1.0,1.0,0.6160790498834103,0.0,0,8,2,3,5,1,nan,nan,nan,nan,nan,nan,nan,nan,nan,nan,nan,nan,0.0,nan,nan,nan,nan,nan,nan,nan,nan,nan,nan,nan,nan,nan,nan,nan,nan,nan,nan,217.50340607343242,731.455646635266,nan,732.0717256851494,nan,nan,nan,nan
1,343,1,1,1.0,1.0,0.5756207024678588,0.0,1,6,8,0,4,2,nan,nan,nan,nan,nan,nan,nan,nan,nan,nan,nan,nan,0.0,nan,nan,nan,nan,nan,nan,nan,nan,nan,nan,nan,nan,nan,nan,nan,nan,nan,nan,217.50340607343242,732.4640995245427,nan,733.0397202270105,nan,nan,nan,nan
1,344,1,1,1.0,1.0,0.3910843385383487,0.0,7,0,5,8,2,6,nan,nan,nan,nan,nan,nan,nan,nan,nan,nan,nan,nan,0.0,nan,nan,nan,nan,nan,nan,nan,nan,nan,nan,nan,nan,nan,nan,nan,nan,nan,nan,217.50340607343242,733.4725903321523,nan,733.8636746706907,nan,nan,nan,nan
1,345,1,1,1.0,1.0,0.36659465078264475,0.0,8,5,6,2,3,7,nan,nan,nan,nan,nan,nan,nan,nan,nan,nan,nan,nan,0.0,nan,nan,nan,nan,nan,nan,nan,nan,nan,nan,nan,nan,nan,nan,nan,nan,nan,nan,217.50340607343242,734.4810665997211,nan,734.8476612505037,nan,nan,nan,nan
1,346,1,1,1.0,1.0,0.31812930828891695,0.0,4,3,2,6,7,5,nan,nan,nan,nan,nan,nan,nan,nan,nan,nan,nan,nan,0.0,nan,nan,nan,nan,nan,nan,nan,nan,nan,nan,nan,nan,nan,nan,nan,nan,nan,nan,217.50340607343242,735.4895297526382,nan,735.8076590609271,nan,nan,nan,nan
1,347,1,1,1.0,1.0,0.19766971794888377,0.0,7,0,1,3,5,8,nan,nan,nan,nan,nan,nan,nan,nan,nan,nan,nan,nan,0.0,nan,nan,nan,nan,nan,nan,nan,nan,nan,nan,nan,nan,nan,nan,nan,nan,nan,nan,217.50340607343242,736.498003739398,nan,736.6956734573469,nan,nan,nan,nan
1,348,0,0,1.0,0.0,0.10111450776457787,0.0,4,7,0,8,1,6,nan,nan,nan,nan,nan,nan,nan,nan,nan,nan,nan,nan,0.0,nan,nan,nan,nan,nan,nan,nan,nan,nan,nan,nan,nan,nan,nan,nan,nan,nan,nan,217.50340607343242,737.5065267630853,nan,737.6076412708499,nan,nan,nan,nan
1,349,1,1,1.0,1.0,0.5966504330281168,0.0,1,4,7,6,2,0,nan,nan,nan,nan,nan,nan,nan,nan,nan,nan,nan,nan,0.0,nan,nan,nan,nan,nan,nan,nan,nan,nan,nan,nan,nan,nan,nan,nan,nan,nan,nan,217.50340607343242,738.5149457259104,nan,739.1115961589385,nan,nan,nan,nan
1,350,1,1,1.0,1.0,0.42016354389488697,0.0,2,0,6,8,7,3,nan,nan,nan,nan,nan,nan,nan,nan,nan,nan,nan,nan,0.0,nan,nan,nan,nan,nan,nan,nan,nan,nan,nan,nan,nan,nan,nan,nan,nan,nan,nan,217.50340607343242,739.5234231338836,nan,739.9435866777785,nan,nan,nan,nan
1,351,1,1,1.0,1.0,0.2996449382044375,0.0,6,3,0,5,1,4,nan,nan,nan,nan,nan,nan,nan,nan,nan,nan,nan,nan,0.0,nan,nan,nan,nan,nan,nan,nan,nan,nan,nan,nan,nan,nan,nan,nan,nan,nan,nan,217.50340607343242,740.5319130860735,nan,740.8315580242779,nan,nan,nan,nan
1,352,1,1,1.0,1.0,0.23519382998347282,0.0,4,2,6,1,0,8,nan,nan,nan,nan,nan,nan,nan,nan,nan,nan,nan,nan,0.0,nan,nan,nan,nan,nan,nan,nan,nan,nan,nan,nan,nan,nan,nan,nan,nan,nan,nan,217.50340607343242,741.5403702519834,nan,741.7755640819669,nan,nan,nan,nan
1,353,1,1,1.0,1.0,0.17069796123541892,0.0,8,6,7,3,4,2,nan,nan,nan,nan,nan,nan,nan,nan,nan,nan,nan,nan,0.0,nan,nan,nan,nan,nan,nan,nan,nan,nan,nan,nan,nan,nan,nan,nan,nan,nan,nan,217.50340607343242,742.5488439537585,nan,742.7195419149939,nan,nan,nan,nan
1,354,1,1,1.0,1.0,0.2661926045548171,0.0,0,2,3,6,5,8,nan,nan,nan,nan,nan,nan,nan,nan,nan,nan,nan,nan,0.0,nan,nan,nan,nan,nan,nan,nan,nan,nan,nan,nan,nan,nan,nan,nan,nan,nan,nan,217.50340607343242,743.5573176553007,nan,743.8235102598555,nan,nan,nan,nan
1,355,1,1,1.0,1.0,0.3457302772440016,0.0,1,4,2,5,3,7,nan,nan,nan,nan,nan,nan,nan,nan,nan,nan,nan,nan,0.0,nan,nan,nan,nan,nan,nan,nan,nan,nan,nan,nan,nan,nan,nan,nan,nan,nan,nan,217.50340607343242,744.5657890762668,nan,744.9115193535108,nan,nan,nan,nan
1,356,1,1,1.0,1.0,0.3852352548856288,0.0,4,5,1,2,8,0,nan,nan,nan,nan,nan,nan,nan,nan,nan,nan,nan,nan,0.0,nan,nan,nan,nan,nan,nan,nan,nan,nan,nan,nan,nan,nan,nan,nan,nan,nan,nan,217.50340607343242,745.5742647734005,nan,745.9595000282861,nan,nan,nan,nan
1,357,1,1,1.0,1.0,0.5047352032270283,0.0,6,3,0,8,5,2,nan,nan,nan,nan,nan,nan,nan,nan,nan,nan,nan,nan,0.0,nan,nan,nan,nan,nan,nan,nan,nan,nan,nan,nan,nan,nan,nan,nan,nan,nan,nan,217.50340607343242,746.5827361943666,nan,747.0874713975936,nan,nan,nan,nan
1,358,1,1,1.0,1.0,0.3442694318946451,0.0,4,2,5,3,0,8,nan,nan,nan,nan,nan,nan,nan,nan,nan,nan,nan,nan,0.0,nan,nan,nan,nan,nan,nan,nan,nan,nan,nan,nan,nan,nan,nan,nan,nan,nan,nan,217.50340607343242,747.5912002027035,nan,747.9354696345981,nan,nan,nan,nan
1,359,1,1,1.0,1.0,0.35177607904188335,0.0,0,5,7,6,8,4,nan,nan,nan,nan,nan,nan,nan,nan,nan,nan,nan,nan,0.0,nan,nan,nan,nan,nan,nan,nan,nan,nan,nan,nan,nan,nan,nan,nan,nan,nan,nan,217.50340607343242,748.5996733340435,nan,748.9514494130854,nan,nan,nan,nan
1,360,1,1,1.0,1.0,0.34326588455587626,0.0,5,3,1,4,7,6,nan,nan,nan,nan,nan,nan,nan,nan,nan,nan,nan,nan,0.0,nan,nan,nan,nan,nan,nan,nan,nan,nan,nan,nan,nan,nan,nan,nan,nan,nan,nan,217.50340607343242,749.608148176223,nan,749.9514140607789,nan,nan,nan,nan
1,361,1,1,1.0,1.0,0.31880470691248775,0.0,2,1,7,0,6,4,nan,nan,nan,nan,nan,nan,nan,nan,nan,nan,nan,nan,0.0,nan,nan,nan,nan,nan,nan,nan,nan,nan,nan,nan,nan,nan,nan,nan,nan,nan,nan,217.50340607343242,750.6166523832362,nan,750.9354570901487,nan,nan,nan,nan
1,362,0,0,1.0,0.0,0.2622767749708146,0.0,8,0,1,4,7,3,nan,nan,nan,nan,nan,nan,nan,nan,nan,nan,nan,nan,0.0,nan,nan,nan,nan,nan,nan,nan,nan,nan,nan,nan,nan,nan,nan,nan,nan,nan,nan,217.50340607343242,751.625108123757,nan,751.8873848987278,nan,nan,nan,nan
1,363,1,1,1.0,1.0,0.533807281171903,0.0,4,1,8,6,2,7,nan,nan,nan,nan,nan,nan,nan,nan,nan,nan,nan,nan,0.0,nan,nan,nan,nan,nan,nan,nan,nan,nan,nan,nan,nan,nan,nan,nan,nan,nan,nan,217.50340607343242,752.6335667152889,nan,753.1673739964608,nan,nan,nan,nan
1,364,1,1,1.0,1.0,0.3333538605365902,0.0,6,3,5,8,0,1,nan,nan,nan,nan,nan,nan,nan,nan,nan,nan,nan,nan,0.0,nan,nan,nan,nan,nan,nan,nan,nan,nan,nan,nan,nan,nan,nan,nan,nan,nan,nan,217.50340607343242,753.6420464038383,nan,753.9754002643749,nan,nan,nan,nan
1,365,1,1,1.0,1.0,0.35683258855715394,0.0,3,5,8,0,1,7,nan,nan,nan,nan,nan,nan,nan,nan,nan,nan,nan,nan,0.0,nan,nan,nan,nan,nan,nan,nan,nan,nan,nan,nan,nan,nan,nan,nan,nan,nan,nan,217.50340607343242,754.6505309392232,nan,755.0073635277804,nan,nan,nan,nan
1,366,1,1,1.0,1.0,0.3243872232269496,0.0,0,4,5,2,6,8,nan,nan,nan,nan,nan,nan,nan,nan,nan,nan,nan,nan,0.0,nan,nan,nan,nan,nan,nan,nan,nan,nan,nan,nan,nan,nan,nan,nan,nan,nan,nan,217.50340607343242,755.658991241362,nan,755.9833784645889,nan,nan,nan,nan
1,367,1,1,1.0,1.0,0.16388210840523243,0.0,6,5,4,3,7,1,nan,nan,nan,nan,nan,nan,nan,nan,nan,nan,nan,nan,0.0,nan,nan,nan,nan,nan,nan,nan,nan,nan,nan,nan,nan,nan,nan,nan,nan,nan,nan,217.50340607343242,756.6674655131064,nan,756.8313476215117,nan,nan,nan,nan
1,368,1,1,1.0,1.0,0.3713654913008213,0.0,1,6,7,0,3,8,nan,nan,nan,nan,nan,nan,nan,nan,nan,nan,nan,nan,0.0,nan,nan,nan,nan,nan,nan,nan,nan,nan,nan,nan,nan,nan,nan,nan,nan,nan,nan,217.50340607343242,757.6759375042748,nan,758.0473029955756,nan,nan,nan,nan
1,369,1,1,1.0,1.0,0.2908961162902415,0.0,7,0,3,4,5,6,nan,nan,nan,nan,nan,nan,nan,nan,nan,nan,nan,nan,0.0,nan,nan,nan,nan,nan,nan,nan,nan,nan,nan,nan,nan,nan,nan,nan,nan,nan,nan,217.50340607343242,758.684395240387,nan,758.9752913566772,nan,nan,nan,nan
1,370,0,0,1.0,0.0,0.24240967631340027,1.0,5,3,8,6,7,4,1.0,1.0,1.0,1.0,1.0,1.0,0.0,0.0,0.0,1.0,0.0,0.0,1.0,8.0,1.0,3.0,6.0,3.0,3.0,3.0,2.0,1.0,6.0,5.0,4.0,4.15943998657167,3.192242295248434,1.8549184361472726,6.230819561751559,5.503463093191385,4.807544736424461,217.50340607343242,759.6928803459741,760.5013014753349,759.9352900222875,767.777324566152,768.7768513022456,761.5097797384951,767.7689794439357
1,371,1,1,1.0,1.0,0.5493129407986999,0.0,4,2,0,1,6,3,nan,nan,nan,nan,nan,nan,nan,nan,nan,nan,nan,nan,0.0,nan,nan,nan,nan,nan,nan,nan,nan,nan,nan,nan,nan,nan,nan,nan,nan,nan,nan,217.50340607343242,768.9858371552546,nan,769.5351500960533,nan,nan,nan,nan
1,372,1,1,1.0,1.0,0.3088196972385049,0.0,0,7,2,4,8,5,nan,nan,nan,nan,nan,nan,nan,nan,nan,nan,nan,nan,0.0,nan,nan,nan,nan,nan,nan,nan,nan,nan,nan,nan,nan,nan,nan,nan,nan,nan,nan,217.50340607343242,769.9943094314076,nan,770.3031291286461,nan,nan,nan,nan
1,373,1,1,1.0,1.0,0.2043396004009992,0.0,5,1,7,8,4,0,nan,nan,nan,nan,nan,nan,nan,nan,nan,nan,nan,nan,0.0,nan,nan,nan,nan,nan,nan,nan,nan,nan,nan,nan,nan,nan,nan,nan,nan,nan,nan,217.50340607343242,771.0027817075606,nan,771.2071213079616,nan,nan,nan,nan
1,374,1,1,1.0,1.0,0.16384076909162104,0.0,7,3,8,5,6,2,nan,nan,nan,nan,nan,nan,nan,nan,nan,nan,nan,nan,0.0,nan,nan,nan,nan,nan,nan,nan,nan,nan,nan,nan,nan,nan,nan,nan,nan,nan,nan,217.50340607343242,772.0112479964737,nan,772.1750887655653,nan,nan,nan,nan
1,375,1,1,1.0,1.0,0.21942530944943428,0.0,2,6,1,7,8,3,nan,nan,nan,nan,nan,nan,nan,nan,nan,nan,nan,nan,0.0,nan,nan,nan,nan,nan,nan,nan,nan,nan,nan,nan,nan,nan,nan,nan,nan,nan,nan,217.50340607343242,773.0197239790577,nan,773.2391492885072,nan,nan,nan,nan
1,376,1,1,1.0,1.0,0.26689964928664267,0.0,7,5,0,4,1,2,nan,nan,nan,nan,nan,nan,nan,nan,nan,nan,nan,nan,0.0,nan,nan,nan,nan,nan,nan,nan,nan,nan,nan,nan,nan,nan,nan,nan,nan,nan,nan,217.50340607343242,774.0282002466265,nan,774.2950998959132,nan,nan,nan,nan
1,377,1,1,1.0,1.0,0.21038027037866414,0.0,4,0,3,2,7,8,nan,nan,nan,nan,nan,nan,nan,nan,nan,nan,nan,nan,0.0,nan,nan,nan,nan,nan,nan,nan,nan,nan,nan,nan,nan,nan,nan,nan,nan,nan,nan,217.50340607343242,775.0366799351759,nan,775.2470602055546,nan,nan,nan,nan
1,378,1,1,1.0,1.0,0.16187814995646477,0.0,3,2,7,1,4,0,nan,nan,nan,nan,nan,nan,nan,nan,nan,nan,nan,nan,0.0,nan,nan,nan,nan,nan,nan,nan,nan,nan,nan,nan,nan,nan,nan,nan,nan,nan,nan,217.50340607343242,776.0451630451716,nan,776.2070411951281,nan,nan,nan,nan
1,379,1,1,1.0,1.0,0.28139577456749976,0.0,5,4,3,8,7,6,nan,nan,nan,nan,nan,nan,nan,nan,nan,nan,nan,nan,0.0,nan,nan,nan,nan,nan,nan,nan,nan,nan,nan,nan,nan,nan,nan,nan,nan,nan,nan,217.50340607343242,777.0536230620928,nan,777.3350188366603,nan,nan,nan,nan
1,380,1,1,1.0,1.0,0.31258014822378755,0.0,8,1,4,5,2,7,nan,nan,nan,nan,nan,nan,nan,nan,nan,nan,nan,nan,0.0,nan,nan,nan,nan,nan,nan,nan,nan,nan,nan,nan,nan,nan,nan,nan,nan,nan,nan,217.50340607343242,778.070429911837,nan,778.3830100600608,nan,nan,nan,nan
1,381,1,1,1.0,1.0,0.29609118355438113,0.0,0,3,5,2,4,6,nan,nan,nan,nan,nan,nan,nan,nan,nan,nan,nan,nan,0.0,nan,nan,nan,nan,nan,nan,nan,nan,nan,nan,nan,nan,nan,nan,nan,nan,nan,nan,217.50340607343242,779.0789033283945,nan,779.3749945119489,nan,nan,nan,nan
