block,trial,freq_trials,correct_response,actual_response,acc,rts,probe_trials,trials_colorind0,trials_colorind1,trials_colorind2,trials_colorind3,trials_colorind4,trials_colorind5,wholereport_resp0,wholereport_resp1,wholereport_resp2,wholereport_resp3,wholereport_resp4,wholereport_resp5,wholereport_respacc0,wholereport_respacc1,wholereport_respacc2,wholereport_respacc3,wholereport_respacc4,wholereport_respacc5,wholereport_respacc_total,wholereport_respcolorind0,wholereport_respcolorind1,wholereport_respcolorind2,wholereport_respcolorind3,wholereport_respcolorind4,wholereport_respcolorind5,wholereport_resporder0,wholereport_resporder1,wholereport_resporder2,wholereport_resporder3,wholereport_resporder4,wholereport_resporder5,wholereport_rts0,wholereport_rts1,wholereport_rts2,wholereport_rts3,wholereport_rts4,wholereport_rts5,time_blockstart,time_encarray_offset,time_encarray_onset,time_response,time_iti_offset,time_iti_onset,time_memprobe_offset,time_memprobe_onset
1,1,1,1,1.0,1.0,0.605514275142923,0,0,4,5,7,6,1,nan,nan,nan,nan,nan,nan,nan,nan,nan,nan,nan,nan,0.0,nan,nan,nan,nan,nan,nan,nan,nan,nan,nan,nan,nan,nan,nan,nan,nan,nan,nan,1130.090613860637,1131.1090704235248,nan,1131.7145846986677,nan,nan,nan,nan
1,2,1,1,1.0,1.0,0.5329923392273486,0,7,8,3,4,5,6,nan,nan,nan,nan,nan,nan,nan,nan,nan,nan,nan,nan,0.0,nan,nan,nan,nan,nan,nan,nan,nan,nan,nan,nan,nan,nan,nan,nan,nan,nan,nan,1130.090613860637,1132.1175939468667,nan,1132.650586286094,nan,nan,nan,nan
1,3,1,1,nan,nan,nan,0,8,2,4,0,7,3,nan,nan,nan,nan,nan,nan,nan,nan,nan,nan,nan,nan,0.0,nan,nan,nan,nan,nan,nan,nan,nan,nan,nan,nan,nan,nan,nan,nan,nan,nan,nan,1130.090613860637,1133.1176572383847,nan,nan,nan,nan,nan,nan
1,4,1,1,1.0,1.0,0.41239262209273875,0,2,3,7,6,8,5,nan,nan,nan,nan,nan,nan,nan,nan,nan,nan,nan,nan,0.0,nan,nan,nan,nan,nan,nan,nan,nan,nan,nan,nan,nan,nan,nan,nan,nan,nan,nan,1130.090613860637,1134.1261294444557,nan,1134.5385220665485,nan,nan,nan,nan
1,5,1,1,1.0,1.0,0.28388433437794447,0,1,4,3,2,6,0,nan,nan,nan,nan,nan,nan,nan,nan,nan,nan,nan,nan,0.0,nan,nan,nan,nan,nan,nan,nan,nan,nan,nan,nan,nan,nan,nan,nan,nan,nan,nan,1130.090613860637,1135.1345965187065,nan,1135.4184808530845,nan,nan,nan,nan
1,6,1,1,1.0,1.0,0.3154080000240356,0,7,8,5,3,4,2,nan,nan,nan,nan,nan,nan,nan,nan,nan,nan,nan,nan,0.0,nan,nan,nan,nan,nan,nan,nan,nan,nan,nan,nan,nan,nan,nan,nan,nan,nan,nan,1130.090613860637,1136.1430536147673,nan,1136.4584616147913,nan,nan,nan,nan
1,7,1,1,1.0,1.0,0.2912512219045311,0,1,4,6,7,3,0,nan,nan,nan,nan,nan,nan,nan,nan,nan,nan,nan,nan,0.0,nan,nan,nan,nan,nan,nan,nan,nan,nan,nan,nan,nan,nan,nan,nan,nan,nan,nan,1130.090613860637,1137.1431878951844,nan,1137.434439117089,nan,nan,nan,nan
1,8,1,1,1.0,1.0,0.22678411123342812,0,5,0,7,3,4,6,nan,nan,nan,nan,nan,nan,nan,nan,nan,nan,nan,nan,0.0,nan,nan,nan,nan,nan,nan,nan,nan,nan,nan,nan,nan,nan,nan,nan,nan,nan,nan,1130.090613860637,1138.1516409998294,nan,1138.3784251110628,nan,nan,nan,nan
1,9,1,1,1.0,1.0,0.2666074996814132,0,7,3,2,4,6,1,nan,nan,nan,nan,nan,nan,nan,nan,nan,nan,nan,nan,0.0,nan,nan,nan,nan,nan,nan,nan,nan,nan,nan,nan,nan,nan,nan,nan,nan,nan,nan,1130.090613860637,1139.1517761354335,nan,1139.4183836351149,nan,nan,nan,nan
1,10,1,1,1.0,1.0,0.2264705051202327,0,4,2,3,0,7,6,nan,nan,nan,nan,nan,nan,nan,nan,nan,nan,nan,nan,0.0,nan,nan,nan,nan,nan,nan,nan,nan,nan,nan,nan,nan,nan,nan,nan,nan,nan,nan,1130.090613860637,1140.151903288439,nan,1140.3783737935591,nan,nan,nan,nan
1,11,1,1,1.0,1.0,0.2819875886198133,0,2,7,6,5,3,0,nan,nan,nan,nan,nan,nan,nan,nan,nan,nan,nan,nan,0.0,nan,nan,nan,nan,nan,nan,nan,nan,nan,nan,nan,nan,nan,nan,nan,nan,nan,nan,1130.090613860637,1141.1603583886754,nan,1141.4423459772952,nan,nan,nan,nan
1,12,1,1,1.0,1.0,0.25749240163713694,0,8,0,7,3,5,6,nan,nan,nan,nan,nan,nan,nan,nan,nan,nan,nan,nan,0.0,nan,nan,nan,nan,nan,nan,nan,nan,nan,nan,nan,nan,nan,nan,nan,nan,nan,nan,1130.090613860637,1142.1688305947464,nan,1142.4263229963835,nan,nan,nan,nan
1,13,1,1,1.0,1.0,0.265011245617643,0,4,2,8,1,6,0,nan,nan,nan,nan,nan,nan,nan,nan,nan,nan,nan,nan,0.0,nan,nan,nan,nan,nan,nan,nan,nan,nan,nan,nan,nan,nan,nan,nan,nan,nan,nan,1130.090613860637,1143.1772856952157,nan,1143.4422969408333,nan,nan,nan,nan
1,14,1,1,1.0,1.0,0.2168433740735054,0,6,4,3,0,1,2,nan,nan,nan,nan,nan,nan,nan,nan,nan,nan,nan,nan,0.0,nan,nan,nan,nan,nan,nan,nan,nan,nan,nan,nan,nan,nan,nan,nan,nan,nan,nan,1130.090613860637,1144.1774299538229,nan,1144.3942733278964,nan,nan,nan,nan
1,15,1,1,1.0,1.0,0.3046983580570668,0,3,2,1,4,0,7,nan,nan,nan,nan,nan,nan,nan,nan,nan,nan,nan,nan,0.0,nan,nan,nan,nan,nan,nan,nan,nan,nan,nan,nan,nan,nan,nan,nan,nan,nan,nan,1130.090613860637,1145.1775462732185,nan,1145.4822446312755,nan,nan,nan,nan
1,16,0,0,1.0,0.0,0.22459799284115434,0,4,8,2,5,1,0,nan,nan,nan,nan,nan,nan,nan,nan,nan,nan,nan,nan,0.0,nan,nan,nan,nan,nan,nan,nan,nan,nan,nan,nan,nan,nan,nan,nan,nan,nan,nan,1130.090613860637,1146.177648337558,nan,1146.402246330399,nan,nan,nan,nan
1,17,1,1,1.0,1.0,0.488408412784338,0,6,7,0,4,8,3,nan,nan,nan,nan,nan,nan,nan,nan,nan,nan,nan,nan,0.0,nan,nan,nan,nan,nan,nan,nan,nan,nan,nan,nan,nan,nan,nan,nan,nan,nan,nan,1130.090613860637,1147.1778002940118,nan,1147.6662087067962,nan,nan,nan,nan
1,18,1,1,1.0,1.0,0.4159460619557649,0,4,2,1,6,5,7,nan,nan,nan,nan,nan,nan,nan,nan,nan,nan,nan,nan,0.0,nan,nan,nan,nan,nan,nan,nan,nan,nan,nan,nan,nan,nan,nan,nan,nan,nan,nan,1130.090613860637,1148.1862451308407,nan,1148.6021911927965,nan,nan,nan,nan
1,19,1,1,1.0,1.0,0.3277806080877781,0,1,8,0,4,6,5,nan,nan,nan,nan,nan,nan,nan,nan,nan,nan,nan,nan,0.0,nan,nan,nan,nan,nan,nan,nan,nan,nan,nan,nan,nan,nan,nan,nan,nan,nan,nan,1130.090613860637,1149.1863819770515,nan,1149.5141625851393,nan,nan,nan,nan
1,20,0,0,0.0,1.0,0.42361771780997515,0,3,7,1,6,5,4,nan,nan,nan,nan,nan,nan,nan,nan,nan,nan,nan,nan,0.0,nan,nan,nan,nan,nan,nan,nan,nan,nan,nan,nan,nan,nan,nan,nan,nan,nan,nan,1130.090613860637,1150.1865151170641,nan,1150.610132834874,nan,nan,nan,nan
1,21,1,1,1.0,1.0,0.33548020338639617,0,4,2,3,8,6,7,nan,nan,nan,nan,nan,nan,nan,nan,nan,nan,nan,nan,0.0,nan,nan,nan,nan,nan,nan,nan,nan,nan,nan,nan,nan,nan,nan,nan,nan,nan,nan,1130.090613860637,1151.1866416996345,nan,1151.522121903021,nan,nan,nan,nan
1,22,1,1,1.0,1.0,0.3033267599530518,0,8,7,6,1,5,0,nan,nan,nan,nan,nan,nan,nan,nan,nan,nan,nan,nan,0.0,nan,nan,nan,nan,nan,nan,nan,nan,nan,nan,nan,nan,nan,nan,nan,nan,nan,nan,1130.090613860637,1152.1867637210526,nan,1152.4900904810056,nan,nan,nan,nan
1,23,1,1,1.0,1.0,0.3511730427853763,0,3,0,5,4,6,2,nan,nan,nan,nan,nan,nan,nan,nan,nan,nan,nan,nan,0.0,nan,nan,nan,nan,nan,nan,nan,nan,nan,nan,nan,nan,nan,nan,nan,nan,nan,nan,1130.090613860637,1153.1868954354431,nan,1153.5380684782285,nan,nan,nan,nan
1,24,1,1,1.0,1.0,0.26302383933216333,0,2,7,6,5,3,1,nan,nan,nan,nan,nan,nan,nan,nan,nan,nan,nan,nan,0.0,nan,nan,nan,nan,nan,nan,nan,nan,nan,nan,nan,nan,nan,nan,nan,nan,nan,nan,1130.090613860637,1154.1870334220584,nan,1154.4500572613906,nan,nan,nan,nan
1,25,1,1,1.0,1.0,0.32689167791977525,0,7,3,0,2,6,5,nan,nan,nan,nan,nan,nan,nan,nan,nan,nan,nan,nan,0.0,nan,nan,nan,nan,nan,nan,nan,nan,nan,nan,nan,nan,nan,nan,nan,nan,nan,nan,1130.090613860637,1155.1871503114235,nan,1155.5140419893432,nan,nan,nan,nan
1,26,1,1,1.0,1.0,0.3027283428236842,0,0,6,8,1,2,7,nan,nan,nan,nan,nan,nan,nan,nan,nan,nan,nan,nan,0.0,nan,nan,nan,nan,nan,nan,nan,nan,nan,nan,nan,nan,nan,nan,nan,nan,nan,nan,1130.090613860637,1156.1872754688375,nan,1156.4900038116612,nan,nan,nan,nan
1,27,1,1,1.0,1.0,0.2545750110875815,0,6,3,0,7,8,4,nan,nan,nan,nan,nan,nan,nan,nan,nan,nan,nan,nan,0.0,nan,nan,nan,nan,nan,nan,nan,nan,nan,nan,nan,nan,nan,nan,nan,nan,nan,nan,1130.090613860637,1157.187400341034,nan,1157.4419753521215,nan,nan,nan,nan
1,28,1,1,1.0,1.0,0.2224152956623584,0,2,8,3,1,5,0,nan,nan,nan,nan,nan,nan,nan,nan,nan,nan,nan,nan,0.0,nan,nan,nan,nan,nan,nan,nan,nan,nan,nan,nan,nan,nan,nan,nan,nan,nan,nan,1130.090613860637,1158.1875474506523,nan,1158.4099627463147,nan,nan,nan,nan
1,29,1,1,1.0,1.0,0.26227802759967744,0,4,5,0,3,2,6,nan,nan,nan,nan,nan,nan,nan,nan,nan,nan,nan,nan,0.0,nan,nan,nan,nan,nan,nan,nan,nan,nan,nan,nan,nan,nan,nan,nan,nan,nan,nan,1130.090613860637,1159.1876552170143,nan,1159.449933244614,nan,nan,nan,nan
1,30,1,1,1.0,1.0,0.270117319887504,0,3,1,7,5,8,4,nan,nan,nan,nan,nan,nan,nan,nan,nan,nan,nan,nan,0.0,nan,nan,nan,nan,nan,nan,nan,nan,nan,nan,nan,nan,nan,nan,nan,nan,nan,nan,1130.090613860637,1160.1877937738318,nan,1160.4579110937193,nan,nan,nan,nan
1,31,1,1,1.0,1.0,0.365947587415576,0,0,2,8,6,1,5,nan,nan,nan,nan,nan,nan,nan,nan,nan,nan,nan,nan,0.0,nan,nan,nan,nan,nan,nan,nan,nan,nan,nan,nan,nan,nan,nan,nan,nan,nan,nan,1130.090613860637,1161.1879271988291,nan,1161.5538747862447,nan,nan,nan,nan
1,32,1,1,1.0,1.0,0.293810531264171,0,3,5,7,2,6,0,nan,nan,nan,nan,nan,nan,nan,nan,nan,nan,nan,nan,0.0,nan,nan,nan,nan,nan,nan,nan,nan,nan,nan,nan,nan,nan,nan,nan,nan,nan,nan,1130.090613860637,1162.1880560624413,nan,1162.4818665937055,nan,nan,nan,nan
1,33,1,1,1.0,1.0,0.28566932189278305,0,4,2,3,7,8,1,nan,nan,nan,nan,nan,nan,nan,nan,nan,nan,nan,nan,0.0,nan,nan,nan,nan,nan,nan,nan,nan,nan,nan,nan,nan,nan,nan,nan,nan,nan,nan,1130.090613860637,1163.1881738072261,nan,1163.473843129119,nan,nan,nan,nan
1,34,1,1,1.0,1.0,0.2935037675779313,0,7,8,5,2,0,6,nan,nan,nan,nan,nan,nan,nan,nan,nan,nan,nan,nan,0.0,nan,nan,nan,nan,nan,nan,nan,nan,nan,nan,nan,nan,nan,nan,nan,nan,nan,nan,1130.090613860637,1164.1883018154185,nan,1164.4818055829965,nan,nan,nan,nan
1,35,0,0,1.0,0.0,0.33336507389321923,0,6,2,4,3,5,8,nan,nan,nan,nan,nan,nan,nan,nan,nan,nan,nan,nan,0.0,nan,nan,nan,nan,nan,nan,nan,nan,nan,nan,nan,nan,nan,nan,nan,nan,nan,nan,1130.090613860637,1165.1884338150267,nan,1165.5217988889199,nan,nan,nan,nan
1,36,1,1,1.0,1.0,0.46086526149883866,0,1,3,7,6,0,5,nan,nan,nan,nan,nan,nan,nan,nan,nan,nan,nan,nan,0.0,nan,nan,nan,nan,nan,nan,nan,nan,nan,nan,nan,nan,nan,nan,nan,nan,nan,nan,1130.090613860637,1166.1968857792672,nan,1166.657751040766,nan,nan,nan,nan
1,37,1,1,1.0,1.0,0.30871507967822254,0,3,8,2,0,4,6,nan,nan,nan,nan,nan,nan,nan,nan,nan,nan,nan,nan,0.0,nan,nan,nan,nan,nan,nan,nan,nan,nan,nan,nan,nan,nan,nan,nan,nan,nan,nan,1130.090613860637,1167.197041726904,nan,1167.5057568065822,nan,nan,nan,nan
1,38,1,1,1.0,1.0,0.24457696988247335,0,6,1,0,2,5,4,nan,nan,nan,nan,nan,nan,nan,nan,nan,nan,nan,nan,0.0,nan,nan,nan,nan,nan,nan,nan,nan,nan,nan,nan,nan,nan,nan,nan,nan,nan,nan,1130.090613860637,1168.1971534846816,nan,1168.441730454564,nan,nan,nan,nan
1,39,1,1,1.0,1.0,0.23642264609225094,0,4,7,1,3,8,6,nan,nan,nan,nan,nan,nan,nan,nan,nan,nan,nan,nan,0.0,nan,nan,nan,nan,nan,nan,nan,nan,nan,nan,nan,nan,nan,nan,nan,nan,nan,nan,1130.090613860637,1169.1972834884655,nan,1169.4337061345577,nan,nan,nan,nan
1,40,1,1,1.0,1.0,0.26026724372059107,0,6,0,5,8,7,4,nan,nan,nan,nan,nan,nan,nan,nan,nan,nan,nan,nan,0.0,nan,nan,nan,nan,nan,nan,nan,nan,nan,nan,nan,nan,nan,nan,nan,nan,nan,nan,1130.090613860637,1170.1974055096507,nan,1170.4576727533713,nan,nan,nan,nan
1,41,1,1,1.0,1.0,0.22010715631768107,1,5,6,1,7,0,8,1.0,1.0,1.0,1.0,1.0,1.0,0.0,0.0,1.0,1.0,0.0,0.0,2.0,7.0,1.0,1.0,7.0,7.0,7.0,3.0,2.0,1.0,6.0,5.0,4.0,3.9186038721818477,3.206903777550906,2.1998043099883944,5.997579817660153,5.213508032727987,4.709710977971554,1130.090613860637,1171.1975469174795,1172.0059550909791,1171.4176540737972,1179.0485097018536,1180.0557853588834,1173.0144207398407,1179.0401780481916
1,42,1,1,nan,nan,nan,0,0,5,8,2,1,6,nan,nan,nan,nan,nan,nan,nan,nan,nan,nan,nan,nan,0.0,nan,nan,nan,nan,nan,nan,nan,nan,nan,nan,nan,nan,nan,nan,nan,nan,nan,nan,1130.090613860637,1180.257032255875,nan,nan,nan,nan,nan,nan
1,43,1,1,0.0,0.0,0.016301234951242805,0,3,2,5,0,6,7,nan,nan,nan,nan,nan,nan,nan,nan,nan,nan,nan,nan,0.0,nan,nan,nan,nan,nan,nan,nan,nan,nan,nan,nan,nan,nan,nan,nan,nan,nan,nan,1130.090613860637,1181.2571568430867,nan,1181.273458078038,nan,nan,nan,nan
1,44,1,1,1.0,1.0,0.3441191907040775,0,8,0,6,7,3,4,nan,nan,nan,nan,nan,nan,nan,nan,nan,nan,nan,nan,0.0,nan,nan,nan,nan,nan,nan,nan,nan,nan,nan,nan,nan,nan,nan,nan,nan,nan,nan,1130.090613860637,1182.2572908382863,nan,1182.6014100289904,nan,nan,nan,nan
1,45,0,0,0.0,1.0,0.40795851964503527,0,2,8,3,5,4,6,nan,nan,nan,nan,nan,nan,nan,nan,nan,nan,nan,nan,0.0,nan,nan,nan,nan,nan,nan,nan,nan,nan,nan,nan,nan,nan,nan,nan,nan,nan,nan,1130.090613860637,1183.2574114340823,nan,1183.6653699537273,nan,nan,nan,nan
1,46,1,1,1.0,1.0,0.3838427956216037,1,8,7,4,0,2,1,1.0,1.0,1.0,1.0,1.0,1.0,0.0,0.0,1.0,0.0,0.0,0.0,1.0,3.0,8.0,4.0,5.0,0.0,7.0,3.0,2.0,1.0,6.0,5.0,4.0,2.8734622977208346,2.2175130653195083,1.7228587630670518,4.936285828473046,4.368497773539275,3.4886316433548927,1130.090613860637,1184.2575211960357,1185.0659541729838,1184.6413639916573,1191.066720796749,1192.0675213471986,1186.0910999497864,1191.0583848666865
1,47,1,1,nan,nan,nan,0,7,5,2,3,8,0,nan,nan,nan,nan,nan,nan,nan,nan,nan,nan,nan,nan,0.0,nan,nan,nan,nan,nan,nan,nan,nan,nan,nan,nan,nan,nan,nan,nan,nan,nan,nan,1130.090613860637,1192.275231947191,nan,nan,nan,nan,nan,nan
1,48,1,1,1.0,1.0,0.08580713765695691,0,0,7,3,5,6,1,nan,nan,nan,nan,nan,nan,nan,nan,nan,nan,nan,nan,0.0,nan,nan,nan,nan,nan,nan,nan,nan,nan,nan,nan,nan,nan,nan,nan,nan,nan,nan,1130.090613860637,1193.2753667975776,nan,1193.3611739352345,nan,nan,nan,nan
1,49,1,1,1.0,1.0,0.333606835687533,0,4,2,6,0,3,7,nan,nan,nan,nan,nan,nan,nan,nan,nan,nan,nan,nan,0.0,nan,nan,nan,nan,nan,nan,nan,nan,nan,nan,nan,nan,nan,nan,nan,nan,nan,nan,1130.090613860637,1194.2754885337781,nan,1194.6090953694656,nan,nan,nan,nan
1,50,1,1,1.0,1.0,0.18948696088045835,0,3,5,1,7,8,6,nan,nan,nan,nan,nan,nan,nan,nan,nan,nan,nan,nan,0.0,nan,nan,nan,nan,nan,nan,nan,nan,nan,nan,nan,nan,nan,nan,nan,nan,nan,nan,1130.090613860637,1195.275618537562,nan,1195.4651054984424,nan,nan,nan,nan
1,51,1,1,1.0,1.0,0.013328251196071506,0,2,3,0,1,5,4,nan,nan,nan,nan,nan,nan,nan,nan,nan,nan,nan,nan,0.0,nan,nan,nan,nan,nan,nan,nan,nan,nan,nan,nan,nan,nan,nan,nan,nan,nan,nan,1130.090613860637,1196.275748256361,nan,1196.2890765075572,nan,nan,nan,nan
1,52,1,1,nan,nan,nan,0,1,7,8,3,2,0,nan,nan,nan,nan,nan,nan,nan,nan,nan,nan,nan,nan,0.0,nan,nan,nan,nan,nan,nan,nan,nan,nan,nan,nan,nan,nan,nan,nan,nan,nan,nan,1130.090613860637,1197.2841950890142,nan,nan,nan,nan,nan,nan
1,53,1,1,1.0,1.0,0.340712575474754,0,5,3,6,4,0,1,nan,nan,nan,nan,nan,nan,nan,nan,nan,nan,nan,nan,0.0,nan,nan,nan,nan,nan,nan,nan,nan,nan,nan,nan,nan,nan,nan,nan,nan,nan,nan,1130.090613860637,1198.284340488026,nan,1198.6250530635007,nan,nan,nan,nan
1,54,1,1,1.0,1.0,0.30852720118127763,0,1,5,8,7,6,2,nan,nan,nan,nan,nan,nan,nan,nan,nan,nan,nan,nan,0.0,nan,nan,nan,nan,nan,nan,nan,nan,nan,nan,nan,nan,nan,nan,nan,nan,nan,nan,1130.090613860637,1199.2844687814359,nan,1199.5929959826171,nan,nan,nan,nan
1,55,1,1,1.0,1.0,0.28438809933140874,0,5,0,1,2,3,7,nan,nan,nan,nan,nan,nan,nan,nan,nan,nan,nan,nan,0.0,nan,nan,nan,nan,nan,nan,nan,nan,nan,nan,nan,nan,nan,nan,nan,nan,nan,nan,1130.090613860637,1200.2846027766354,nan,1200.5689908759668,nan,nan,nan,nan
1,56,1,1,1.0,1.0,0.356199290137738,0,3,7,6,4,8,0,nan,nan,nan,nan,nan,nan,nan,nan,nan,nan,nan,nan,0.0,nan,nan,nan,nan,nan,nan,nan,nan,nan,nan,nan,nan,nan,nan,nan,nan,nan,nan,1130.090613860637,1201.28474817588,nan,1201.6409474660177,nan,nan,nan,nan
1,57,1,1,1.0,1.0,0.364070798503235,0,6,2,3,5,4,1,nan,nan,nan,nan,nan,nan,nan,nan,nan,nan,nan,nan,0.0,nan,nan,nan,nan,nan,nan,nan,nan,nan,nan,nan,nan,nan,nan,nan,nan,nan,nan,1130.090613860637,1202.2848607888445,nan,1202.6489315873478,nan,nan,nan,nan
1,58,0,0,0.0,1.0,0.4276019383687526,0,7,6,0,8,5,4,nan,nan,nan,nan,nan,nan,nan,nan,nan,nan,nan,nan,0.0,nan,nan,nan,nan,nan,nan,nan,nan,nan,nan,nan,nan,nan,nan,nan,nan,nan,nan,1130.090613860637,1203.2933076212648,nan,1203.7209095596336,nan,nan,nan,nan
1,59,1,1,1.0,1.0,0.29149754508398473,0,0,1,3,6,4,8,nan,nan,nan,nan,nan,nan,nan,nan,nan,nan,nan,nan,0.0,nan,nan,nan,nan,nan,nan,nan,nan,nan,nan,nan,nan,nan,nan,nan,nan,nan,nan,1130.090613860637,1204.2934017032385,nan,1204.5848992483225,nan,nan,nan,nan
1,60,1,1,1.0,1.0,0.33130667894147336,0,6,8,0,1,7,5,nan,nan,nan,nan,nan,nan,nan,nan,nan,nan,nan,nan,0.0,nan,nan,nan,nan,nan,nan,nan,nan,nan,nan,nan,nan,nan,nan,nan,nan,nan,nan,1130.090613860637,1205.2935636378825,nan,1205.624870316824,nan,nan,nan,nan
1,61,1,1,1.0,1.0,0.17114101513288915,0,2,0,8,7,1,3,nan,nan,nan,nan,nan,nan,nan,nan,nan,nan,nan,nan,0.0,nan,nan,nan,nan,nan,nan,nan,nan,nan,nan,nan,nan,nan,nan,nan,nan,nan,nan,1130.090613860637,1206.2937024796847,nan,1206.4648434948176,nan,nan,nan,nan
1,62,0,0,1.0,0.0,0.10666649183258414,0,4,5,6,8,2,0,nan,nan,nan,nan,nan,nan,nan,nan,nan,nan,nan,nan,0.0,nan,nan,nan,nan,nan,nan,nan,nan,nan,nan,nan,nan,nan,nan,nan,nan,nan,nan,1130.090613860637,1207.302165277535,nan,1207.4088317693677,nan,nan,nan,nan
1,63,1,1,1.0,1.0,0.2821452468633652,0,8,4,2,3,0,7,nan,nan,nan,nan,nan,nan,nan,nan,nan,nan,nan,nan,0.0,nan,nan,nan,nan,nan,nan,nan,nan,nan,nan,nan,nan,nan,nan,nan,nan,nan,nan,1130.090613860637,1208.310633777408,nan,1208.5927790242713,nan,nan,nan,nan
1,64,1,1,1.0,1.0,0.2820360551122576,0,3,5,8,7,4,6,nan,nan,nan,nan,nan,nan,nan,nan,nan,nan,nan,nan,0.0,nan,nan,nan,nan,nan,nan,nan,nan,nan,nan,nan,nan,nan,nan,nan,nan,nan,nan,1130.090613860637,1209.31074667559,nan,1209.5927827307023,nan,nan,nan,nan
1,65,1,1,1.0,1.0,0.305862121284008,0,4,6,7,2,1,8,nan,nan,nan,nan,nan,nan,nan,nan,nan,nan,nan,nan,0.0,nan,nan,nan,nan,nan,nan,nan,nan,nan,nan,nan,nan,nan,nan,nan,nan,nan,nan,1130.090613860637,1210.310884092003,nan,1210.6167462132871,nan,nan,nan,nan
1,66,1,1,1.0,1.0,0.27371637523174286,0,1,8,5,4,7,0,nan,nan,nan,nan,nan,nan,nan,nan,nan,nan,nan,nan,0.0,nan,nan,nan,nan,nan,nan,nan,nan,nan,nan,nan,nan,nan,nan,nan,nan,nan,nan,1130.090613860637,1211.311012385413,nan,1211.5847287606448,nan,nan,nan,nan
1,67,1,1,1.0,1.0,0.3132121884264052,0,3,4,1,2,6,5,nan,nan,nan,nan,nan,nan,nan,nan,nan,nan,nan,nan,0.0,nan,nan,nan,nan,nan,nan,nan,nan,nan,nan,nan,nan,nan,nan,nan,nan,nan,nan,1130.090613860637,1212.3194837360643,nan,1212.6326959244907,nan,nan,nan,nan
1,68,1,1,1.0,1.0,0.28907878836616874,0,4,0,3,8,5,7,nan,nan,nan,nan,nan,nan,nan,nan,nan,nan,nan,nan,0.0,nan,nan,nan,nan,nan,nan,nan,nan,nan,nan,nan,nan,nan,nan,nan,nan,nan,nan,1130.090613860637,1213.3196108890697,nan,1213.608689677436,nan,nan,nan,nan
1,69,1,1,1.0,1.0,0.3209197660908103,0,1,7,2,5,6,4,nan,nan,nan,nan,nan,nan,nan,nan,nan,nan,nan,nan,0.0,nan,nan,nan,nan,nan,nan,nan,nan,nan,nan,nan,nan,nan,nan,nan,nan,nan,nan,1130.090613860637,1214.3197369016707,nan,1214.6406566677615,nan,nan,nan,nan
1,70,1,1,1.0,1.0,0.4087716140784323,1,6,5,0,8,4,1,1.0,1.0,1.0,1.0,1.0,1.0,0.0,1.0,1.0,0.0,0.0,0.0,2.0,7.0,5.0,0.0,3.0,3.0,7.0,3.0,2.0,1.0,6.0,5.0,4.0,3.7305951355956495,3.0584875016938895,2.067259343806654,5.4019187551457435,4.961925677256659,4.186807625927031,1130.090613860637,1215.319861203665,1216.1282719429582,1215.7286328177433,1222.5874249162152,1223.5944126260001,1217.1450467228424,1222.5790909817442
1,71,1,1,1.0,1.0,0.5565156331285834,0,5,6,8,4,7,3,nan,nan,nan,nan,nan,nan,nan,nan,nan,nan,nan,nan,0.0,nan,nan,nan,nan,nan,nan,nan,nan,nan,nan,nan,nan,nan,nan,nan,nan,nan,nan,1130.090613860637,1223.7959420534316,nan,1224.3524576865602,nan,nan,nan,nan
1,72,0,0,1.0,0.0,0.3563603695947677,0,3,1,2,7,4,8,nan,nan,nan,nan,nan,nan,nan,nan,nan,nan,nan,nan,0.0,nan,nan,nan,nan,nan,nan,nan,nan,nan,nan,nan,nan,nan,nan,nan,nan,nan,nan,1130.090613860637,1224.796062364243,nan,1225.1524227338377,nan,nan,nan,nan
1,73,1,1,1.0,1.0,0.2602190622128546,0,1,7,6,8,3,2,nan,nan,nan,nan,nan,nan,nan,nan,nan,nan,nan,nan,0.0,nan,nan,nan,nan,nan,nan,nan,nan,nan,nan,nan,nan,nan,nan,nan,nan,nan,nan,1130.090613860637,1225.796176972799,nan,1226.0563960350119,nan,nan,nan,nan
1,74,1,1,1.0,1.0,0.3240472723264247,0,7,5,0,4,1,6,nan,nan,nan,nan,nan,nan,nan,nan,nan,nan,nan,nan,0.0,nan,nan,nan,nan,nan,nan,nan,nan,nan,nan,nan,nan,nan,nan,nan,nan,nan,nan,1130.090613860637,1226.7963226570282,nan,1227.1203699293546,nan,nan,nan,nan
1,75,1,1,1.0,1.0,0.2758965066168457,0,5,8,6,2,0,3,nan,nan,nan,nan,nan,nan,nan,nan,nan,nan,nan,nan,0.0,nan,nan,nan,nan,nan,nan,nan,nan,nan,nan,nan,nan,nan,nan,nan,nan,nan,nan,1130.090613860637,1227.796452661045,nan,1228.0723491676617,nan,nan,nan,nan
1,76,1,1,1.0,1.0,0.2837509091477841,0,4,6,8,3,5,2,nan,nan,nan,nan,nan,nan,nan,nan,nan,nan,nan,nan,0.0,nan,nan,nan,nan,nan,nan,nan,nan,nan,nan,nan,nan,nan,nan,nan,nan,nan,nan,1130.090613860637,1228.7965706908144,nan,1229.0803215999622,nan,nan,nan,nan
1,77,0,0,1.0,0.0,0.14758265437558293,0,7,0,5,8,1,3,nan,nan,nan,nan,nan,nan,nan,nan,nan,nan,nan,nan,0.0,nan,nan,nan,nan,nan,nan,nan,nan,nan,nan,nan,nan,nan,nan,nan,nan,nan,nan,1130.090613860637,1229.796720651444,nan,1229.9443033058196,nan,nan,nan,nan
1,78,1,1,1.0,1.0,0.29942065570503473,0,1,5,2,3,4,7,nan,nan,nan,nan,nan,nan,nan,nan,nan,nan,nan,nan,0.0,nan,nan,nan,nan,nan,nan,nan,nan,nan,nan,nan,nan,nan,nan,nan,nan,nan,nan,1130.090613860637,1230.7968335496262,nan,1231.0962542053312,nan,nan,nan,nan
1,79,1,1,1.0,1.0,0.2512872810475528,0,2,3,4,6,0,5,nan,nan,nan,nan,nan,nan,nan,nan,nan,nan,nan,nan,0.0,nan,nan,nan,nan,nan,nan,nan,nan,nan,nan,nan,nan,nan,nan,nan,nan,nan,nan,1130.090613860637,1231.7969621280208,nan,1232.0482494090684,nan,nan,nan,nan
1,80,1,1,1.0,1.0,0.2591442493721843,0,6,2,8,5,4,7,nan,nan,nan,nan,nan,nan,nan,nan,nan,nan,nan,nan,0.0,nan,nan,nan,nan,nan,nan,nan,nan,nan,nan,nan,nan,nan,nan,nan,nan,nan,nan,1130.090613860637,1232.79709184682,nan,1233.0562360961922,nan,nan,nan,nan
1,81,1,1,1.0,1.0,0.2110182868782431,0,1,5,7,3,0,2,nan,nan,nan,nan,nan,nan,nan,nan,nan,nan,nan,nan,0.0,nan,nan,nan,nan,nan,nan,nan,nan,nan,nan,nan,nan,nan,nan,nan,nan,nan,nan,1130.090613860637,1233.7972192848101,nan,1234.0082375716884,nan,nan,nan,nan
1,82,1,1,1.0,1.0,0.186832144157961,0,8,4,5,6,1,0,nan,nan,nan,nan,nan,nan,nan,nan,nan,nan,nan,nan,0.0,nan,nan,nan,nan,nan,nan,nan,nan,nan,nan,nan,nan,nan,nan,nan,nan,nan,nan,1130.090613860637,1234.797348433407,nan,1234.984180577565,nan,nan,nan,nan
1,83,1,1,1.0,1.0,0.3306814630050212,0,1,2,0,8,6,7,nan,nan,nan,nan,nan,nan,nan,nan,nan,nan,nan,nan,0.0,nan,nan,nan,nan,nan,nan,nan,nan,nan,nan,nan,nan,nan,nan,nan,nan,nan,nan,1130.090613860637,1235.7974747309927,nan,1236.1281561939977,nan,nan,nan,nan
1,84,0,0,0.0,1.0,0.44249536795541644,0,7,0,4,1,5,2,nan,nan,nan,nan,nan,nan,nan,nan,nan,nan,nan,nan,0.0,nan,nan,nan,nan,nan,nan,nan,nan,nan,nan,nan,nan,nan,nan,nan,nan,nan,nan,1130.090613860637,1236.7976358104497,nan,1237.2401311784051,nan,nan,nan,nan
1,85,1,1,1.0,1.0,0.38603062462061644,0,6,3,1,8,4,0,nan,nan,nan,nan,nan,nan,nan,nan,nan,nan,nan,nan,0.0,nan,nan,nan,nan,nan,nan,nan,nan,nan,nan,nan,nan,nan,nan,nan,nan,nan,nan,1130.090613860637,1237.8060763708781,nan,1238.1921069954988,nan,nan,nan,nan
1,86,1,1,1.0,1.0,0.31389870028942823,0,4,1,0,6,7,2,nan,nan,nan,nan,nan,nan,nan,nan,nan,nan,nan,nan,0.0,nan,nan,nan,nan,nan,nan,nan,nan,nan,nan,nan,nan,nan,nan,nan,nan,nan,nan,1130.090613860637,1238.8061935454607,nan,1239.1200922457501,nan,nan,nan,nan
1,87,1,1,1.0,1.0,0.3697467802558094,0,2,0,7,3,5,1,nan,nan,nan,nan,nan,nan,nan,nan,nan,nan,nan,nan,0.0,nan,nan,nan,nan,nan,nan,nan,nan,nan,nan,nan,nan,nan,nan,nan,nan,nan,nan,1130.090613860637,1239.8063212686684,nan,1240.1760680489242,nan,nan,nan,nan
1,88,1,1,1.0,1.0,0.34559427900239825,0,6,2,3,8,1,4,nan,nan,nan,nan,nan,nan,nan,nan,nan,nan,nan,nan,0.0,nan,nan,nan,nan,nan,nan,nan,nan,nan,nan,nan,nan,nan,nan,nan,nan,nan,nan,1130.090613860637,1240.8064512724523,nan,1241.1520455514546,nan,nan,nan,nan
1,89,1,1,1.0,1.0,0.289471936179325,0,0,1,5,7,8,3,nan,nan,nan,nan,nan,nan,nan,nan,nan,nan,nan,nan,0.0,nan,nan,nan,nan,nan,nan,nan,nan,nan,nan,nan,nan,nan,nan,nan,nan,nan,nan,1130.090613860637,1241.8065487754066,nan,1242.0960207115859,nan,nan,nan,nan
1,90,1,1,1.0,1.0,0.36095241527073085,0,4,3,8,1,0,2,nan,nan,nan,nan,nan,nan,nan,nan,nan,nan,nan,nan,0.0,nan,nan,nan,nan,nan,nan,nan,nan,nan,nan,nan,nan,nan,nan,nan,nan,nan,nan,1130.090613860637,1242.815050346544,nan,1243.1760027618147,nan,nan,nan,nan
1,91,1,1,1.0,1.0,0.304791584610939,0,2,1,6,0,5,7,nan,nan,nan,nan,nan,nan,nan,nan,nan,nan,nan,nan,0.0,nan,nan,nan,nan,nan,nan,nan,nan,nan,nan,nan,nan,nan,nan,nan,nan,nan,nan,1130.090613860637,1243.8151792099234,nan,1244.1199707945343,nan,nan,nan,nan
1,92,1,1,1.0,1.0,0.37664668052457273,0,6,0,4,7,8,2,nan,nan,nan,nan,nan,nan,nan,nan,nan,nan,nan,nan,0.0,nan,nan,nan,nan,nan,nan,nan,nan,nan,nan,nan,nan,nan,nan,nan,nan,nan,nan,1130.090613860637,1244.8153006609064,nan,1245.191947341431,nan,nan,nan,nan
1,93,1,1,1.0,1.0,0.33650512457825243,0,8,4,1,2,0,6,nan,nan,nan,nan,nan,nan,nan,nan,nan,nan,nan,nan,0.0,nan,nan,nan,nan,nan,nan,nan,nan,nan,nan,nan,nan,nan,nan,nan,nan,nan,nan,1130.090613860637,1245.8154255331028,nan,1246.151930657681,nan,nan,nan,nan
1,94,1,1,1.0,1.0,0.30400956561788917,0,2,8,3,6,7,5,nan,nan,nan,nan,nan,nan,nan,nan,nan,nan,nan,nan,0.0,nan,nan,nan,nan,nan,nan,nan,nan,nan,nan,nan,nan,nan,nan,nan,nan,nan,nan,1130.090613860637,1246.8238897565752,nan,1247.1278993221931,nan,nan,nan,nan
1,95,0,0,0.0,1.0,0.7358537365216762,0,8,2,4,1,6,7,nan,nan,nan,nan,nan,nan,nan,nan,nan,nan,nan,nan,0.0,nan,nan,nan,nan,nan,nan,nan,nan,nan,nan,nan,nan,nan,nan,nan,nan,nan,nan,1130.090613860637,1247.8240194753744,nan,1248.559873211896,nan,nan,nan,nan
1,96,1,1,1.0,1.0,0.30370223172940314,0,0,8,1,5,7,3,nan,nan,nan,nan,nan,nan,nan,nan,nan,nan,nan,nan,0.0,nan,nan,nan,nan,nan,nan,nan,nan,nan,nan,nan,nan,nan,nan,nan,nan,nan,nan,1130.090613860637,1248.8241574619897,nan,1249.127859693719,nan,nan,nan,nan
1,97,1,1,1.0,1.0,0.2795508708804846,1,7,5,6,3,8,1,1.0,1.0,1.0,1.0,1.0,1.0,0.0,1.0,1.0,0.0,0.0,0.0,2.0,1.0,5.0,6.0,1.0,1.0,0.0,6.0,2.0,1.0,3.0,4.0,5.0,5.288445874582976,2.1616598533000797,1.5288436182308942,3.112045688321814,3.920653999550268,4.584890980506316,1130.090613860637,1249.824274921557,1250.6326976350974,1250.1038257924374,1256.9834980571177,1257.9916788947303,1251.6578302974813,1256.9751644078642
1,98,1,1,1.0,1.0,0.22369281202554703,0,2,1,8,6,0,5,nan,nan,nan,nan,nan,nan,nan,nan,nan,nan,nan,nan,0.0,nan,nan,nan,nan,nan,nan,nan,nan,nan,nan,nan,nan,nan,nan,nan,nan,nan,nan,1130.090613860637,1258.1919958079234,nan,1258.415688619949,nan,nan,nan,nan
1,99,1,1,1.0,1.0,0.1994892784859985,0,1,5,6,8,7,4,nan,nan,nan,nan,nan,nan,nan,nan,nan,nan,nan,nan,0.0,nan,nan,nan,nan,nan,nan,nan,nan,nan,nan,nan,nan,nan,nan,nan,nan,nan,nan,1130.090613860637,1259.1921551767737,nan,1259.3916444552597,nan,nan,nan,nan
1,100,1,1,1.0,1.0,0.2233187658712268,0,4,7,8,0,2,6,nan,nan,nan,nan,nan,nan,nan,nan,nan,nan,nan,nan,0.0,nan,nan,nan,nan,nan,nan,nan,nan,nan,nan,nan,nan,nan,nan,nan,nan,nan,nan,1130.090613860637,1260.1922800487373,nan,1260.4155988146085,nan,nan,nan,nan
1,101,1,1,1.0,1.0,0.19919306365773082,0,0,6,7,4,3,8,nan,nan,nan,nan,nan,nan,nan,nan,nan,nan,nan,nan,0.0,nan,nan,nan,nan,nan,nan,nan,nan,nan,nan,nan,nan,nan,nan,nan,nan,nan,nan,1130.090613860637,1261.1923709944822,nan,1261.39156405814,nan,nan,nan,nan
1,102,1,1,1.0,1.0,0.2550143445841968,1,4,1,3,7,5,0,1.0,1.0,1.0,1.0,1.0,1.0,0.0,0.0,1.0,0.0,0.0,0.0,1.0,3.0,3.0,3.0,2.0,6.0,8.0,3.0,2.0,1.0,6.0,5.0,4.0,2.6900601466186345,2.2250435983296484,1.6892490477766842,4.136417428730056,3.6001863959245384,3.129416604526341,1130.090613860637,1262.1925303633325,1263.0009436686523,1262.4475447079167,1268.1849316922016,1269.1921982262284,1264.0094204363413,1268.1766094467603
1,103,1,1,1.0,1.0,0.6138923997059464,0,8,3,4,2,7,6,nan,nan,nan,nan,nan,nan,nan,nan,nan,nan,nan,nan,0.0,nan,nan,nan,nan,nan,nan,nan,nan,nan,nan,nan,nan,nan,nan,nan,nan,nan,nan,1130.090613860637,1269.3934445530176,nan,1270.0073369527236,nan,nan,nan,nan
1,104,1,1,1.0,1.0,0.30178609979338944,0,5,0,7,3,8,4,nan,nan,nan,nan,nan,nan,nan,nan,nan,nan,nan,nan,0.0,nan,nan,nan,nan,nan,nan,nan,nan,nan,nan,nan,nan,nan,nan,nan,nan,nan,nan,1130.090613860637,1270.3935796886217,nan,1270.695365788415,nan,nan,nan,nan
1,105,0,0,1.0,0.0,0.22963250800967216,0,7,3,4,0,6,1,nan,nan,nan,nan,nan,nan,nan,nan,nan,nan,nan,nan,0.0,nan,nan,nan,nan,nan,nan,nan,nan,nan,nan,nan,nan,nan,nan,nan,nan,nan,nan,1130.090613860637,1271.393702280242,nan,1271.6233347882517,nan,nan,nan,nan
1,106,1,1,1.0,1.0,0.24547730386257172,0,0,4,8,1,2,6,nan,nan,nan,nan,nan,nan,nan,nan,nan,nan,nan,nan,0.0,nan,nan,nan,nan,nan,nan,nan,nan,nan,nan,nan,nan,nan,nan,nan,nan,nan,nan,1130.090613860637,1272.393822305603,nan,1272.6392996094655,nan,nan,nan,nan
1,107,1,1,1.0,1.0,0.10933841415680945,0,3,0,6,7,5,1,nan,nan,nan,nan,nan,nan,nan,nan,nan,nan,nan,nan,0.0,nan,nan,nan,nan,nan,nan,nan,nan,nan,nan,nan,nan,nan,nan,nan,nan,nan,nan,1130.090613860637,1273.3939631432295,nan,1273.5033015573863,nan,nan,nan,nan
1,108,1,1,1.0,1.0,0.1648435234092176,0,2,6,5,3,7,8,nan,nan,nan,nan,nan,nan,nan,nan,nan,nan,nan,nan,0.0,nan,nan,nan,nan,nan,nan,nan,nan,nan,nan,nan,nan,nan,nan,nan,nan,nan,nan,1130.090613860637,1274.4024179584812,nan,1274.5672614818905,nan,nan,nan,nan
1,109,1,1,1.0,1.0,0.3406780785880983,0,5,2,1,6,0,3,nan,nan,nan,nan,nan,nan,nan,nan,nan,nan,nan,nan,0.0,nan,nan,nan,nan,nan,nan,nan,nan,nan,nan,nan,nan,nan,nan,nan,nan,nan,nan,1130.090613860637,1275.402551668696,nan,1275.7432297472842,nan,nan,nan,nan
1,110,1,1,1.0,1.0,0.2685316144488752,0,7,5,3,0,4,1,nan,nan,nan,nan,nan,nan,nan,nan,nan,nan,nan,nan,0.0,nan,nan,nan,nan,nan,nan,nan,nan,nan,nan,nan,nan,nan,nan,nan,nan,nan,nan,1130.090613860637,1276.402683098102,nan,1276.6712147125509,nan,nan,nan,nan
1,111,0,0,0.0,1.0,0.43604021798819304,0,4,6,2,1,3,8,nan,nan,nan,nan,nan,nan,nan,nan,nan,nan,nan,nan,0.0,nan,nan,nan,nan,nan,nan,nan,nan,nan,nan,nan,nan,nan,nan,nan,nan,nan,nan,1130.090613860637,1277.4111473213416,nan,1277.8471875393298,nan,nan,nan,nan
1,112,1,1,1.0,1.0,0.2118795628193766,0,0,8,4,2,6,7,nan,nan,nan,nan,nan,nan,nan,nan,nan,nan,nan,nan,0.0,nan,nan,nan,nan,nan,nan,nan,nan,nan,nan,nan,nan,nan,nan,nan,nan,nan,nan,1130.090613860637,1278.4112818867434,nan,1278.6231614495628,nan,nan,nan,nan
1,113,1,1,1.0,1.0,0.17975576943717897,0,7,0,6,5,3,8,nan,nan,nan,nan,nan,nan,nan,nan,nan,nan,nan,nan,0.0,nan,nan,nan,nan,nan,nan,nan,nan,nan,nan,nan,nan,nan,nan,nan,nan,nan,nan,1130.090613860637,1279.4113964955322,nan,1279.5911522649694,nan,nan,nan,nan
1,114,0,0,1.0,0.0,0.2035858267918229,0,6,1,8,4,5,2,nan,nan,nan,nan,nan,nan,nan,nan,nan,nan,nan,nan,0.0,nan,nan,nan,nan,nan,nan,nan,nan,nan,nan,nan,nan,nan,nan,nan,nan,nan,nan,1130.090613860637,1280.4115444605704,nan,1280.6151302873623,nan,nan,nan,nan
1,115,1,1,1.0,1.0,0.09944557305425406,0,2,0,4,8,3,7,nan,nan,nan,nan,nan,nan,nan,nan,nan,nan,nan,nan,0.0,nan,nan,nan,nan,nan,nan,nan,nan,nan,nan,nan,nan,nan,nan,nan,nan,nan,nan,1130.090613860637,1281.411650231341,nan,1281.5110958043952,nan,nan,nan,nan
1,116,1,1,1.0,1.0,0.08329401374794543,0,8,2,1,6,5,3,nan,nan,nan,nan,nan,nan,nan,nan,nan,nan,nan,nan,0.0,nan,nan,nan,nan,nan,nan,nan,nan,nan,nan,nan,nan,nan,nan,nan,nan,nan,nan,1130.090613860637,1282.4117916389368,nan,1282.4950856526848,nan,nan,nan,nan
1,117,1,1,1.0,1.0,0.29913384886458516,0,7,6,2,3,0,1,nan,nan,nan,nan,nan,nan,nan,nan,nan,nan,nan,nan,0.0,nan,nan,nan,nan,nan,nan,nan,nan,nan,nan,nan,nan,nan,nan,nan,nan,nan,nan,1130.090613860637,1283.4119210727513,nan,1283.7110549216159,nan,nan,nan,nan
1,118,1,1,1.0,1.0,0.3229764506686479,0,1,0,5,2,8,6,nan,nan,nan,nan,nan,nan,nan,nan,nan,nan,nan,nan,0.0,nan,nan,nan,nan,nan,nan,nan,nan,nan,nan,nan,nan,nan,nan,nan,nan,nan,nan,1130.090613860637,1284.4120459449477,nan,1284.7350223956164,nan,nan,nan,nan
1,119,1,1,1.0,1.0,0.29883649363182485,0,6,1,8,3,5,7,nan,nan,nan,nan,nan,nan,nan,nan,nan,nan,nan,nan,0.0,nan,nan,nan,nan,nan,nan,nan,nan,nan,nan,nan,nan,nan,nan,nan,nan,nan,nan,1130.090613860637,1285.412173382938,nan,1285.7110098765697,nan,nan,nan,nan
1,120,1,1,1.0,1.0,0.3146872764918953,0,8,7,5,0,4,3,nan,nan,nan,nan,nan,nan,nan,nan,nan,nan,nan,nan,0.0,nan,nan,nan,nan,nan,nan,nan,nan,nan,nan,nan,nan,nan,nan,nan,nan,nan,nan,1130.090613860637,1286.4122993955389,nan,1286.7269866720308,nan,nan,nan,nan
1,121,1,1,1.0,1.0,0.42653111671097577,0,0,5,3,2,1,7,nan,nan,nan,nan,nan,nan,nan,nan,nan,nan,nan,nan,0.0,nan,nan,nan,nan,nan,nan,nan,nan,nan,nan,nan,nan,nan,nan,nan,nan,nan,nan,1130.090613860637,1287.4124348161276,nan,1287.8389659328386,nan,nan,nan,nan
1,122,1,1,1.0,1.0,0.40238916384987533,0,4,1,8,5,7,6,nan,nan,nan,nan,nan,nan,nan,nan,nan,nan,nan,nan,0.0,nan,nan,nan,nan,nan,nan,nan,nan,nan,nan,nan,nan,nan,nan,nan,nan,nan,nan,1130.090613860637,1288.412550565321,nan,1288.8149397291709,nan,nan,nan,nan
1,123,1,1,1.0,1.0,0.40222808439284563,1,3,0,1,8,5,7,1.0,1.0,1.0,1.0,1.0,1.0,0.0,1.0,1.0,0.0,0.0,0.0,2.0,5.0,0.0,1.0,3.0,7.0,5.0,3.0,2.0,1.0,6.0,5.0,4.0,2.644818503409624,1.7180757026653737,0.9485845966264606,4.3714559325017035,3.892235602485016,3.404227749677375,1130.090613860637,1289.4126808543224,1290.2211152566597,1289.8149089387152,1295.6384525885805,1296.6475867882837,1291.2295695017092,1295.6301163733006
1,124,1,1,1.0,1.0,0.23944637714885175,0,6,4,0,3,7,2,nan,nan,nan,nan,nan,nan,nan,nan,nan,nan,nan,nan,0.0,nan,nan,nan,nan,nan,nan,nan,nan,nan,nan,nan,nan,nan,nan,nan,nan,nan,nan,1130.090613860637,1296.8553256127052,nan,1297.094771989854,nan,nan,nan,nan
1,125,1,1,1.0,1.0,0.31128921383060515,0,4,5,2,1,0,8,nan,nan,nan,nan,nan,nan,nan,nan,nan,nan,nan,nan,0.0,nan,nan,nan,nan,nan,nan,nan,nan,nan,nan,nan,nan,nan,nan,nan,nan,nan,nan,1130.090613860637,1297.8554308132734,nan,1298.166720027104,nan,nan,nan,nan
1,126,1,1,1.0,1.0,0.31916499859653413,0,6,3,0,7,4,1,nan,nan,nan,nan,nan,nan,nan,nan,nan,nan,nan,nan,0.0,nan,nan,nan,nan,nan,nan,nan,nan,nan,nan,nan,nan,nan,nan,nan,nan,nan,nan,1130.090613860637,1298.85552289919,nan,1299.1746878977865,nan,nan,nan,nan
1,127,1,1,1.0,1.0,0.36704634851776063,0,1,7,2,4,5,0,nan,nan,nan,nan,nan,nan,nan,nan,nan,nan,nan,nan,0.0,nan,nan,nan,nan,nan,nan,nan,nan,nan,nan,nan,nan,nan,nan,nan,nan,nan,nan,1130.090613860637,1299.8556560392026,nan,1300.2227023877203,nan,nan,nan,nan
1,128,1,1,1.0,1.0,0.28682681266218424,0,4,6,1,5,3,2,nan,nan,nan,nan,nan,nan,nan,nan,nan,nan,nan,nan,0.0,nan,nan,nan,nan,nan,nan,nan,nan,nan,nan,nan,nan,nan,nan,nan,nan,nan,nan,1130.090613860637,1300.8558128422592,nan,1301.1426396549214,nan,nan,nan,nan
1,129,1,1,1.0,1.0,0.35868333419784904,0,0,5,8,4,7,3,nan,nan,nan,nan,nan,nan,nan,nan,nan,nan,nan,nan,0.0,nan,nan,nan,nan,nan,nan,nan,nan,nan,nan,nan,nan,nan,nan,nan,nan,nan,nan,1130.090613860637,1301.855940565234,nan,1302.214623899432,nan,nan,nan,nan
1,130,0,0,0.0,1.0,0.39853409212082624,0,3,7,4,1,5,2,nan,nan,nan,nan,nan,nan,nan,nan,nan,nan,nan,nan,0.0,nan,nan,nan,nan,nan,nan,nan,nan,nan,nan,nan,nan,nan,nan,nan,nan,nan,nan,1130.090613860637,1302.856069713831,nan,1303.2546038059518,nan,nan,nan,nan
1,131,1,1,1.0,1.0,0.26237353472970426,0,2,4,8,6,0,5,nan,nan,nan,nan,nan,nan,nan,nan,nan,nan,nan,nan,0.0,nan,nan,nan,nan,nan,nan,nan,nan,nan,nan,nan,nan,nan,nan,nan,nan,nan,nan,1130.090613860637,1303.8561982924584,nan,1304.1185718271881,nan,nan,nan,nan
1,132,1,1,1.0,1.0,0.2542294745799154,0,1,6,5,3,2,7,nan,nan,nan,nan,nan,nan,nan,nan,nan,nan,nan,nan,0.0,nan,nan,nan,nan,nan,nan,nan,nan,nan,nan,nan,nan,nan,nan,nan,nan,nan,nan,1130.090613860637,1304.856324590044,nan,1305.110554064624,nan,nan,nan,nan
1,133,1,1,1.0,1.0,0.28609240474179387,0,2,8,0,6,4,3,nan,nan,nan,nan,nan,nan,nan,nan,nan,nan,nan,nan,0.0,nan,nan,nan,nan,nan,nan,nan,nan,nan,nan,nan,nan,nan,nan,nan,nan,nan,nan,1130.090613860637,1305.8564508876298,nan,1306.1425432923716,nan,nan,nan,nan
1,134,1,1,1.0,1.0,0.27793465997092426,0,4,2,6,3,1,0,nan,nan,nan,nan,nan,nan,nan,nan,nan,nan,nan,nan,0.0,nan,nan,nan,nan,nan,nan,nan,nan,nan,nan,nan,nan,nan,nan,nan,nan,nan,nan,1130.090613860637,1306.8565800362267,nan,1307.1345146961976,nan,nan,nan,nan
1,135,1,1,1.0,1.0,0.20580387581139803,0,8,0,7,6,4,2,nan,nan,nan,nan,nan,nan,nan,nan,nan,nan,nan,nan,0.0,nan,nan,nan,nan,nan,nan,nan,nan,nan,nan,nan,nan,nan,nan,nan,nan,nan,nan,1130.090613860637,1307.856684381608,nan,1308.0624882574193,nan,nan,nan,nan
1,136,0,0,0.0,1.0,0.3256418160162866,0,3,7,6,8,5,4,nan,nan,nan,nan,nan,nan,nan,nan,nan,nan,nan,nan,0.0,nan,nan,nan,nan,nan,nan,nan,nan,nan,nan,nan,nan,nan,nan,nan,nan,nan,nan,1130.090613860637,1308.8568383334205,nan,1309.1824801494367,nan,nan,nan,nan
1,137,1,1,1.0,1.0,0.2294888193719089,0,6,2,0,3,7,8,nan,nan,nan,nan,nan,nan,nan,nan,nan,nan,nan,nan,0.0,nan,nan,nan,nan,nan,nan,nan,nan,nan,nan,nan,nan,nan,nan,nan,nan,nan,nan,1130.090613860637,1309.856967767235,nan,1310.0864565866068,nan,nan,nan,nan
1,138,1,1,1.0,1.0,0.18132893065921962,0,7,8,2,1,4,5,nan,nan,nan,nan,nan,nan,nan,nan,nan,nan,nan,nan,0.0,nan,nan,nan,nan,nan,nan,nan,nan,nan,nan,nan,nan,nan,nan,nan,nan,nan,nan,1130.090613860637,1310.8571009072475,nan,1311.0384298379067,nan,nan,nan,nan
1,139,1,1,1.0,1.0,0.2531763289589435,0,2,1,3,7,6,8,nan,nan,nan,nan,nan,nan,nan,nan,nan,nan,nan,nan,0.0,nan,nan,nan,nan,nan,nan,nan,nan,nan,nan,nan,nan,nan,nan,nan,nan,nan,nan,1130.090613860637,1311.8572206476238,nan,1312.1103969765827,nan,nan,nan,nan
1,140,1,1,1.0,1.0,0.26100136642344296,0,5,6,1,4,3,2,nan,nan,nan,nan,nan,nan,nan,nan,nan,nan,nan,nan,0.0,nan,nan,nan,nan,nan,nan,nan,nan,nan,nan,nan,nan,nan,nan,nan,nan,nan,nan,1130.090613860637,1312.8573814418633,nan,1313.1183828082867,nan,nan,nan,nan
1,141,0,0,1.0,0.0,0.19686781824566424,0,8,4,2,1,5,3,nan,nan,nan,nan,nan,nan,nan,nan,nan,nan,nan,nan,0.0,nan,nan,nan,nan,nan,nan,nan,nan,nan,nan,nan,nan,nan,nan,nan,nan,nan,nan,1130.090613860637,1313.857487782836,nan,1314.0543556010816,nan,nan,nan,nan
1,142,1,1,1.0,1.0,0.612674753414467,0,1,2,8,5,3,6,nan,nan,nan,nan,nan,nan,nan,nan,nan,nan,nan,nan,0.0,nan,nan,nan,nan,nan,nan,nan,nan,nan,nan,nan,nan,nan,nan,nan,nan,nan,nan,1130.090613860637,1314.8576098040212,nan,1315.4702845574357,nan,nan,nan,nan
1,143,1,1,1.0,1.0,0.44456573692150414,0,6,5,4,7,2,1,nan,nan,nan,nan,nan,nan,nan,nan,nan,nan,nan,nan,0.0,nan,nan,nan,nan,nan,nan,nan,nan,nan,nan,nan,nan,nan,nan,nan,nan,nan,nan,1130.090613860637,1315.857737527229,nan,1316.3023032641504,nan,nan,nan,nan
1,144,1,1,1.0,1.0,0.2924161253031343,0,5,2,0,4,3,8,nan,nan,nan,nan,nan,nan,nan,nan,nan,nan,nan,nan,0.0,nan,nan,nan,nan,nan,nan,nan,nan,nan,nan,nan,nan,nan,nan,nan,nan,nan,nan,1130.090613860637,1316.8578689566348,nan,1317.150285081938,nan,nan,nan,nan
1,145,1,1,1.0,1.0,0.19629306416027248,1,3,1,5,7,8,0,1.0,1.0,1.0,1.0,1.0,1.0,0.0,0.0,1.0,0.0,0.0,1.0,2.0,5.0,5.0,5.0,5.0,5.0,0.0,6.0,5.0,4.0,3.0,2.0,1.0,5.156942650210112,4.5329621189739555,3.8706235939171165,3.1739956841338426,2.533839645329863,1.687757994281128,1130.090613860637,1317.8579644637648,1318.6664159719367,1318.054257527925,1324.875529530691,1325.8813437840436,1319.683195883641,1324.8672041490208
1,146,1,1,1.0,1.0,0.7460256866179407,0,4,2,8,3,7,6,nan,nan,nan,nan,nan,nan,nan,nan,nan,nan,nan,nan,0.0,nan,nan,nan,nan,nan,nan,nan,nan,nan,nan,nan,nan,nan,nan,nan,nan,nan,nan,1130.090613860637,1326.084049233701,nan,1326.830074920319,nan,nan,nan,nan
1,147,1,1,1.0,1.0,0.4978787412401289,0,5,1,4,6,8,2,nan,nan,nan,nan,nan,nan,nan,nan,nan,nan,nan,nan,0.0,nan,nan,nan,nan,nan,nan,nan,nan,nan,nan,nan,nan,nan,nan,nan,nan,nan,nan,1130.090613860637,1327.0841669784859,nan,1327.582045719726,nan,nan,nan,nan
1,148,1,1,1.0,1.0,0.3537141061387956,0,3,2,8,1,5,7,nan,nan,nan,nan,nan,nan,nan,nan,nan,nan,nan,nan,0.0,nan,nan,nan,nan,nan,nan,nan,nan,nan,nan,nan,nan,nan,nan,nan,nan,nan,nan,1130.090613860637,1328.0843152285088,nan,1328.4380293346476,nan,nan,nan,nan
1,149,1,1,1.0,1.0,0.5535628909710795,0,4,1,0,8,3,6,nan,nan,nan,nan,nan,nan,nan,nan,nan,nan,nan,nan,0.0,nan,nan,nan,nan,nan,nan,nan,nan,nan,nan,nan,nan,nan,nan,nan,nan,nan,nan,1130.090613860637,1329.0844267013017,nan,1329.6379895922728,nan,nan,nan,nan
1,150,1,1,1.0,1.0,0.2894243251066655,0,0,8,5,3,2,1,nan,nan,nan,nan,nan,nan,nan,nan,nan,nan,nan,nan,0.0,nan,nan,nan,nan,nan,nan,nan,nan,nan,nan,nan,nan,nan,nan,nan,nan,nan,nan,1130.090613860637,1330.084565543104,nan,1330.3739898682106,nan,nan,nan,nan
1,151,1,1,0.0,0.0,0.42524618771858513,0,1,0,4,5,3,7,nan,nan,nan,nan,nan,nan,nan,nan,nan,nan,nan,nan,0.0,nan,nan,nan,nan,nan,nan,nan,nan,nan,nan,nan,nan,nan,nan,nan,nan,nan,nan,1130.090613860637,1331.0846946917009,nan,1331.5099408794194,nan,nan,nan,nan
1,152,1,1,1.0,1.0,0.4650898182298988,0,0,5,7,3,6,2,nan,nan,nan,nan,nan,nan,nan,nan,nan,nan,nan,nan,0.0,nan,nan,nan,nan,nan,nan,nan,nan,nan,nan,nan,nan,nan,nan,nan,nan,nan,nan,1130.090613860637,1332.084813006688,nan,1332.5499028249178,nan,nan,nan,nan
1,153,1,1,nan,nan,nan,0,3,2,8,5,0,4,nan,nan,nan,nan,nan,nan,nan,nan,nan,nan,nan,nan,0.0,nan,nan,nan,nan,nan,nan,nan,nan,nan,nan,nan,nan,nan,nan,nan,nan,nan,nan,1130.090613860637,1333.0849116500467,nan,nan,nan,nan,nan,nan
1,154,1,1,1.0,1.0,0.04084403323940933,0,7,5,4,1,3,2,nan,nan,nan,nan,nan,nan,nan,nan,nan,nan,nan,nan,0.0,nan,nan,nan,nan,nan,nan,nan,nan,nan,nan,nan,nan,nan,nan,nan,nan,nan,nan,1130.090613860637,1334.0850704486948,nan,1334.1259144819342,nan,nan,nan,nan
1,155,1,1,nan,nan,nan,0,1,2,5,7,4,6,nan,nan,nan,nan,nan,nan,nan,nan,nan,nan,nan,nan,0.0,nan,nan,nan,nan,nan,nan,nan,nan,nan,nan,nan,nan,nan,nan,nan,nan,nan,nan,1130.090613860637,1335.0851921846624,nan,nan,nan,nan,nan,nan
1,156,1,1,1.0,1.0,0.6565040296409279,0,5,1,6,4,3,8,nan,nan,nan,nan,nan,nan,nan,nan,nan,nan,nan,nan,0.0,nan,nan,nan,nan,nan,nan,nan,nan,nan,nan,nan,nan,nan,nan,nan,nan,nan,nan,1130.090613860637,1336.0853204780724,nan,1336.7418245077133,nan,nan,nan,nan
1,157,1,1,1.0,1.0,0.34433500887826085,0,4,8,5,0,7,6,nan,nan,nan,nan,nan,nan,nan,nan,nan,nan,nan,nan,0.0,nan,nan,nan,nan,nan,nan,nan,nan,nan,nan,nan,nan,nan,nan,nan,nan,nan,nan,1130.090613860637,1337.0854838381056,nan,1337.4298188469838,nan,nan,nan,nan
1,158,1,1,1.0,1.0,0.3282130991574377,0,7,0,8,5,2,1,nan,nan,nan,nan,nan,nan,nan,nan,nan,nan,nan,nan,0.0,nan,nan,nan,nan,nan,nan,nan,nan,nan,nan,nan,nan,nan,nan,nan,nan,nan,nan,1130.090613860637,1338.0855764944572,nan,1338.4137895936146,nan,nan,nan,nan
1,159,1,1,1.0,1.0,0.3040466280654073,0,6,8,5,1,0,3,nan,nan,nan,nan,nan,nan,nan,nan,nan,nan,nan,nan,0.0,nan,nan,nan,nan,nan,nan,nan,nan,nan,nan,nan,nan,nan,nan,nan,nan,nan,nan,1130.090613860637,1339.0857261701021,nan,1339.3897727981675,nan,nan,nan,nan
1,160,0,0,1.0,0.0,0.23191384854726493,0,4,2,1,7,5,0,nan,nan,nan,nan,nan,nan,nan,nan,nan,nan,nan,nan,0.0,nan,nan,nan,nan,nan,nan,nan,nan,nan,nan,nan,nan,nan,nan,nan,nan,nan,nan,1130.090613860637,1340.0858299450483,nan,1340.3177437935956,nan,nan,nan,nan
1,161,1,1,1.0,1.0,0.2557376339100301,0,7,5,3,8,1,4,nan,nan,nan,nan,nan,nan,nan,nan,nan,nan,nan,nan,0.0,nan,nan,nan,nan,nan,nan,nan,nan,nan,nan,nan,nan,nan,nan,nan,nan,nan,nan,1130.090613860637,1341.0859625148587,nan,1341.3417001487687,nan,nan,nan,nan
1,162,1,1,1.0,1.0,0.2635974532458931,0,6,0,8,4,7,2,nan,nan,nan,nan,nan,nan,nan,nan,nan,nan,nan,nan,0.0,nan,nan,nan,nan,nan,nan,nan,nan,nan,nan,nan,nan,nan,nan,nan,nan,nan,nan,1130.090613860637,1342.0860939442646,nan,1342.3496913975105,nan,nan,nan,nan
1,163,1,1,1.0,1.0,0.25544655066914856,0,3,1,6,2,8,5,nan,nan,nan,nan,nan,nan,nan,nan,nan,nan,nan,nan,0.0,nan,nan,nan,nan,nan,nan,nan,nan,nan,nan,nan,nan,nan,nan,nan,nan,nan,nan,1130.090613860637,1343.086229650071,nan,1343.34167620074,nan,nan,nan,nan
1,164,1,1,1.0,1.0,0.31130888569168746,0,5,0,1,3,4,7,nan,nan,nan,nan,nan,nan,nan,nan,nan,nan,nan,nan,0.0,nan,nan,nan,nan,nan,nan,nan,nan,nan,nan,nan,nan,nan,nan,nan,nan,nan,nan,1130.090613860637,1344.0863499606494,nan,1344.397658846341,nan,nan,nan,nan
1,165,1,1,1.0,1.0,0.2711545000784099,0,1,3,5,0,8,2,nan,nan,nan,nan,nan,nan,nan,nan,nan,nan,nan,nan,0.0,nan,nan,nan,nan,nan,nan,nan,nan,nan,nan,nan,nan,nan,nan,nan,nan,nan,nan,1130.090613860637,1345.0864816752728,nan,1345.3576361753512,nan,nan,nan,nan
1,166,1,1,1.0,1.0,0.19896441628225148,0,4,0,6,8,3,5,nan,nan,nan,nan,nan,nan,nan,nan,nan,nan,nan,nan,0.0,nan,nan,nan,nan,nan,nan,nan,nan,nan,nan,nan,nan,nan,nan,nan,nan,nan,nan,1130.090613860637,1346.0866324910894,nan,1346.2855969073717,nan,nan,nan,nan
1,167,1,1,1.0,1.0,0.15886248857714236,0,7,2,5,4,8,6,nan,nan,nan,nan,nan,nan,nan,nan,nan,nan,nan,nan,0.0,nan,nan,nan,nan,nan,nan,nan,nan,nan,nan,nan,nan,nan,nan,nan,nan,nan,nan,1130.090613860637,1347.0867334152572,nan,1347.2455959038343,nan,nan,nan,nan
1,168,1,1,1.0,1.0,0.18268456356599927,0,4,5,3,8,2,1,nan,nan,nan,nan,nan,nan,nan,nan,nan,nan,nan,nan,0.0,nan,nan,nan,nan,nan,nan,nan,nan,nan,nan,nan,nan,nan,nan,nan,nan,nan,nan,1130.090613860637,1348.08686569985,nan,1348.269550263416,nan,nan,nan,nan
1,169,1,1,1.0,1.0,0.11053581861779094,0,0,6,2,5,7,4,nan,nan,nan,nan,nan,nan,nan,nan,nan,nan,nan,nan,0.0,nan,nan,nan,nan,nan,nan,nan,nan,nan,nan,nan,nan,nan,nan,nan,nan,nan,nan,1130.090613860637,1349.086992567638,nan,1349.1975283862557,nan,nan,nan,nan
1,170,1,1,1.0,1.0,0.04639713861979544,0,3,4,1,2,6,0,nan,nan,nan,nan,nan,nan,nan,nan,nan,nan,nan,nan,0.0,nan,nan,nan,nan,nan,nan,nan,nan,nan,nan,nan,nan,nan,nan,nan,nan,nan,nan,1130.090613860637,1350.0871220014524,nan,1350.1335191400722,nan,nan,nan,nan
1,171,1,1,1.0,1.0,0.2222316935658455,0,6,8,5,0,3,2,nan,nan,nan,nan,nan,nan,nan,nan,nan,nan,nan,nan,0.0,nan,nan,nan,nan,nan,nan,nan,nan,nan,nan,nan,nan,nan,nan,nan,nan,nan,nan,1130.090613860637,1351.0872491544578,nan,1351.3094808480237,nan,nan,nan,nan
1,172,1,1,1.0,1.0,0.2460842737928033,0,3,2,1,6,4,5,nan,nan,nan,nan,nan,nan,nan,nan,nan,nan,nan,nan,0.0,nan,nan,nan,nan,nan,nan,nan,nan,nan,nan,nan,nan,nan,nan,nan,nan,nan,nan,1130.090613860637,1352.0873771626502,nan,1352.333461436443,nan,nan,nan,nan
1,173,1,1,1.0,1.0,0.33396605704911053,0,0,1,2,7,6,8,nan,nan,nan,nan,nan,nan,nan,nan,nan,nan,nan,nan,0.0,nan,nan,nan,nan,nan,nan,nan,nan,nan,nan,nan,nan,nan,nan,nan,nan,nan,nan,1130.090613860637,1353.0874746656045,nan,1353.4214407226536,nan,nan,nan,nan
1,174,1,1,1.0,1.0,0.24579033954069018,0,1,2,8,0,3,5,nan,nan,nan,nan,nan,nan,nan,nan,nan,nan,nan,nan,0.0,nan,nan,nan,nan,nan,nan,nan,nan,nan,nan,nan,nan,nan,nan,nan,nan,nan,nan,1130.090613860637,1354.0876334642526,nan,1354.3334238037933,nan,nan,nan,nan
1,175,1,1,1.0,1.0,0.16561841499060392,0,2,8,6,4,1,7,nan,nan,nan,nan,nan,nan,nan,nan,nan,nan,nan,nan,0.0,nan,nan,nan,nan,nan,nan,nan,nan,nan,nan,nan,nan,nan,nan,nan,nan,nan,nan,1130.090613860637,1355.087777437875,nan,1355.2533958528657,nan,nan,nan,nan
1,176,1,1,1.0,1.0,0.07747919019311666,0,1,5,0,2,3,6,nan,nan,nan,nan,nan,nan,nan,nan,nan,nan,nan,nan,0.0,nan,nan,nan,nan,nan,nan,nan,nan,nan,nan,nan,nan,nan,nan,nan,nan,nan,nan,1130.090613860637,1356.0878968930338,nan,1356.1653760832269,nan,nan,nan,nan
1,177,1,1,1.0,1.0,0.13333838898688555,0,0,1,8,4,7,2,nan,nan,nan,nan,nan,nan,nan,nan,nan,nan,nan,nan,0.0,nan,nan,nan,nan,nan,nan,nan,nan,nan,nan,nan,nan,nan,nan,nan,nan,nan,nan,1130.090613860637,1357.0880243312567,nan,1357.2213627202436,nan,nan,nan,nan
1,178,1,1,nan,nan,nan,0,2,8,0,3,1,4,nan,nan,nan,nan,nan,nan,nan,nan,nan,nan,nan,nan,0.0,nan,nan,nan,nan,nan,nan,nan,nan,nan,nan,nan,nan,nan,nan,nan,nan,nan,nan,1130.090613860637,1358.0881392250303,nan,nan,nan,nan,nan,nan
1,179,0,0,0.0,1.0,0.49299276107922196,0,7,5,8,4,6,3,nan,nan,nan,nan,nan,nan,nan,nan,nan,nan,nan,nan,0.0,nan,nan,nan,nan,nan,nan,nan,nan,nan,nan,nan,nan,nan,nan,nan,nan,nan,nan,1130.090613860637,1359.0882692288142,nan,1359.5812619898934,nan,nan,nan,nan
1,180,1,1,1.0,1.0,0.3008871909696609,0,4,1,6,5,0,2,nan,nan,nan,nan,nan,nan,nan,nan,nan,nan,nan,nan,0.0,nan,nan,nan,nan,nan,nan,nan,nan,nan,nan,nan,nan,nan,nan,nan,nan,nan,nan,1130.090613860637,1360.088399803033,nan,1360.3892869940028,nan,nan,nan,nan
1,181,1,1,1.0,1.0,0.6127223644871265,0,6,0,1,8,4,5,nan,nan,nan,nan,nan,nan,nan,nan,nan,nan,nan,nan,0.0,nan,nan,nan,nan,nan,nan,nan,nan,nan,nan,nan,nan,nan,nan,nan,nan,nan,nan,1130.090613860637,1361.0885309472214,nan,1361.7012533117086,nan,nan,nan,nan
1,182,1,1,1.0,1.0,0.5005372639279813,0,7,1,0,4,6,3,nan,nan,nan,nan,nan,nan,nan,nan,nan,nan,nan,nan,0.0,nan,nan,nan,nan,nan,nan,nan,nan,nan,nan,nan,nan,nan,nan,nan,nan,nan,nan,1130.090613860637,1362.0886829036754,nan,1362.5892201676033,nan,nan,nan,nan
1,183,1,1,1.0,1.0,0.4524150078650564,0,5,4,2,7,3,1,nan,nan,nan,nan,nan,nan,nan,nan,nan,nan,nan,nan,0.0,nan,nan,nan,nan,nan,nan,nan,nan,nan,nan,nan,nan,nan,nan,nan,nan,nan,nan,1130.090613860637,1363.088786393404,nan,1363.541201401269,nan,nan,nan,nan
1,184,1,1,1.0,1.0,0.276269412599504,0,7,0,3,2,5,4,nan,nan,nan,nan,nan,nan,nan,nan,nan,nan,nan,nan,0.0,nan,nan,nan,nan,nan,nan,nan,nan,nan,nan,nan,nan,nan,nan,nan,nan,nan,nan,1130.090613860637,1364.0889249502216,nan,1364.365194362821,nan,nan,nan,nan
1,185,1,1,1.0,1.0,0.2921013792511076,0,6,4,0,8,2,5,nan,nan,nan,nan,nan,nan,nan,nan,nan,nan,nan,nan,0.0,nan,nan,nan,nan,nan,nan,nan,nan,nan,nan,nan,nan,nan,nan,nan,nan,nan,nan,1130.090613860637,1365.0890546690207,nan,1365.3811560482718,nan,nan,nan,nan
1,186,1,1,1.0,1.0,0.6999934713821858,0,0,6,5,3,1,7,nan,nan,nan,nan,nan,nan,nan,nan,nan,nan,nan,nan,0.0,nan,nan,nan,nan,nan,nan,nan,nan,nan,nan,nan,nan,nan,nan,nan,nan,nan,nan,1130.090613860637,1366.08914675517,nan,1366.7891402265523,nan,nan,nan,nan
1,187,1,1,nan,nan,nan,0,5,2,8,1,7,3,nan,nan,nan,nan,nan,nan,nan,nan,nan,nan,nan,nan,0.0,nan,nan,nan,nan,nan,nan,nan,nan,nan,nan,nan,nan,nan,nan,nan,nan,nan,nan,1130.090613860637,1367.089306409005,nan,nan,nan,nan,nan,nan
1,188,1,1,1.0,1.0,0.03569719009101391,0,6,0,7,5,2,1,nan,nan,nan,nan,nan,nan,nan,nan,nan,nan,nan,nan,0.0,nan,nan,nan,nan,nan,nan,nan,nan,nan,nan,nan,nan,nan,nan,nan,nan,nan,nan,1130.090613860637,1368.0894247239921,nan,1368.1251219140831,nan,nan,nan,nan
1,189,1,1,nan,nan,nan,0,1,3,5,6,4,2,nan,nan,nan,nan,nan,nan,nan,nan,nan,nan,nan,nan,0.0,nan,nan,nan,nan,nan,nan,nan,nan,nan,nan,nan,nan,nan,nan,nan,nan,nan,nan,1130.090613860637,1369.0895450348035,nan,nan,nan,nan,nan,nan
1,190,1,1,nan,nan,nan,0,8,6,4,7,0,1,nan,nan,nan,nan,nan,nan,nan,nan,nan,nan,nan,nan,0.0,nan,nan,nan,nan,nan,nan,nan,nan,nan,nan,nan,nan,nan,nan,nan,nan,nan,nan,1130.090613860637,1370.0896510905586,nan,nan,nan,nan,nan,nan
1,191,1,1,1.0,1.0,0.7231826323550195,0,0,4,3,1,5,2,nan,nan,nan,nan,nan,nan,nan,nan,nan,nan,nan,nan,0.0,nan,nan,nan,nan,nan,nan,nan,nan,nan,nan,nan,nan,nan,nan,nan,nan,nan,nan,1130.090613860637,1371.0898093190044,nan,1371.8129919513594,nan,nan,nan,nan
1,192,1,1,1.0,1.0,0.5150837313849479,0,3,5,8,6,2,4,nan,nan,nan,nan,nan,nan,nan,nan,nan,nan,nan,nan,0.0,nan,nan,nan,nan,nan,nan,nan,nan,nan,nan,nan,nan,nan,nan,nan,nan,nan,nan,1130.090613860637,1372.089954718016,nan,1372.605038449401,nan,nan,nan,nan
1,193,1,1,nan,nan,nan,0,8,4,1,5,0,2,nan,nan,nan,nan,nan,nan,nan,nan,nan,nan,nan,nan,0.0,nan,nan,nan,nan,nan,nan,nan,nan,nan,nan,nan,nan,nan,nan,nan,nan,nan,nan,1130.090613860637,1373.0900918494444,nan,nan,nan,nan,nan,nan
1,194,1,1,1.0,1.0,0.0027922329027205706,0,3,7,4,8,5,6,nan,nan,nan,nan,nan,nan,nan,nan,nan,nan,nan,nan,0.0,nan,nan,nan,nan,nan,nan,nan,nan,nan,nan,nan,nan,nan,nan,nan,nan,nan,nan,1130.090613860637,1374.090190777788,nan,1374.0929830106907,nan,nan,nan,nan
1,195,0,0,1.0,0.0,0.23461000411771238,0,1,5,8,3,4,7,nan,nan,nan,nan,nan,nan,nan,nan,nan,nan,nan,nan,0.0,nan,nan,nan,nan,nan,nan,nan,nan,nan,nan,nan,nan,nan,nan,nan,nan,nan,nan,1130.090613860637,1375.090315934969,nan,1375.3249259390868,nan,nan,nan,nan
1,196,1,1,1.0,1.0,0.25812103878706694,0,5,6,1,8,7,0,nan,nan,nan,nan,nan,nan,nan,nan,nan,nan,nan,nan,0.0,nan,nan,nan,nan,nan,nan,nan,nan,nan,nan,nan,nan,nan,nan,nan,nan,nan,nan,1130.090613860637,1376.098783579655,nan,1376.356904618442,nan,nan,nan,nan
1,197,0,0,1.0,0.0,0.21796836401335895,0,8,2,3,7,4,6,nan,nan,nan,nan,nan,nan,nan,nan,nan,nan,nan,nan,0.0,nan,nan,nan,nan,nan,nan,nan,nan,nan,nan,nan,nan,nan,nan,nan,nan,nan,nan,1130.090613860637,1377.0989150090609,nan,1377.3168833730742,nan,nan,nan,nan
1,198,1,1,1.0,1.0,0.2178292372263968,0,7,1,0,4,6,3,nan,nan,nan,nan,nan,nan,nan,nan,nan,nan,nan,nan,0.0,nan,nan,nan,nan,nan,nan,nan,nan,nan,nan,nan,nan,nan,nan,nan,nan,nan,nan,1130.090613860637,1378.0990421618335,nan,1378.31687139906,nan,nan,nan,nan
1,199,1,1,1.0,1.0,0.30569020798429847,0,3,5,4,1,7,0,nan,nan,nan,nan,nan,nan,nan,nan,nan,nan,nan,nan,0.0,nan,nan,nan,nan,nan,nan,nan,nan,nan,nan,nan,nan,nan,nan,nan,nan,nan,nan,1130.090613860637,1379.0991559154354,nan,1379.4048461234197,nan,nan,nan,nan
1,200,1,1,1.0,1.0,0.36951870331540704,0,0,6,2,8,4,7,nan,nan,nan,nan,nan,nan,nan,nan,nan,nan,nan,nan,0.0,nan,nan,nan,nan,nan,nan,nan,nan,nan,nan,nan,nan,nan,nan,nan,nan,nan,nan,1130.090613860637,1380.099302169634,nan,1380.4688208729494,nan,nan,nan,nan
1,201,1,1,1.0,1.0,0.4573351994622499,0,6,0,4,1,5,2,nan,nan,nan,nan,nan,nan,nan,nan,nan,nan,nan,nan,0.0,nan,nan,nan,nan,nan,nan,nan,nan,nan,nan,nan,nan,nan,nan,nan,nan,nan,nan,1130.090613860637,1381.0994769337121,nan,1381.5568121331744,nan,nan,nan,nan
1,202,1,1,1.0,1.0,0.25721785379573703,0,8,7,5,3,2,4,nan,nan,nan,nan,nan,nan,nan,nan,nan,nan,nan,nan,0.0,nan,nan,nan,nan,nan,nan,nan,nan,nan,nan,nan,nan,nan,nan,nan,nan,nan,nan,1130.090613860637,1382.0995593266562,nan,1382.356777180452,nan,nan,nan,nan
1,203,1,1,1.0,1.0,0.505052903899923,0,0,1,4,2,5,7,nan,nan,nan,nan,nan,nan,nan,nan,nan,nan,nan,nan,0.0,nan,nan,nan,nan,nan,nan,nan,nan,nan,nan,nan,nan,nan,nan,nan,nan,nan,nan,1130.090613860637,1383.0996896156576,nan,1383.6047425195575,nan,nan,nan,nan
1,204,1,1,1.0,1.0,0.4089101708959788,0,2,7,6,1,0,5,nan,nan,nan,nan,nan,nan,nan,nan,nan,nan,nan,nan,0.0,nan,nan,nan,nan,nan,nan,nan,nan,nan,nan,nan,nan,nan,nan,nan,nan,nan,nan,1130.090613860637,1384.09981762385,nan,1384.508727794746,nan,nan,nan,nan
1,205,1,1,1.0,1.0,0.2807879033498466,0,4,6,3,2,7,1,nan,nan,nan,nan,nan,nan,nan,nan,nan,nan,nan,nan,0.0,nan,nan,nan,nan,nan,nan,nan,nan,nan,nan,nan,nan,nan,nan,nan,nan,nan,nan,1130.090613860637,1385.0999128459953,nan,1385.3807007493451,nan,nan,nan,nan
1,206,0,0,1.0,0.0,0.16060157609172165,0,2,5,1,4,3,8,nan,nan,nan,nan,nan,nan,nan,nan,nan,nan,nan,nan,0.0,nan,nan,nan,nan,nan,nan,nan,nan,nan,nan,nan,nan,nan,nan,nan,nan,nan,nan,1130.090613860637,1386.1000784868374,nan,1386.2606800629292,nan,nan,nan,nan
1,207,1,1,1.0,1.0,0.4964270310010761,0,5,7,4,8,6,2,nan,nan,nan,nan,nan,nan,nan,nan,nan,nan,nan,nan,0.0,nan,nan,nan,nan,nan,nan,nan,nan,nan,nan,nan,nan,nan,nan,nan,nan,nan,nan,1130.090613860637,1387.100190244615,nan,1387.5966172756162,nan,nan,nan,nan
1,208,1,1,1.0,1.0,0.28830902837216854,0,2,8,3,1,4,7,nan,nan,nan,nan,nan,nan,nan,nan,nan,nan,nan,nan,0.0,nan,nan,nan,nan,nan,nan,nan,nan,nan,nan,nan,nan,nan,nan,nan,nan,nan,nan,1130.090613860637,1388.1003288014326,nan,1388.3886378298048,nan,nan,nan,nan
1,209,1,1,1.0,1.0,0.34412945434451103,0,3,2,1,4,7,0,nan,nan,nan,nan,nan,nan,nan,nan,nan,nan,nan,nan,0.0,nan,nan,nan,nan,nan,nan,nan,nan,nan,nan,nan,nan,nan,nan,nan,nan,nan,nan,1130.090613860637,1389.1004656476434,nan,1389.444595101988,nan,nan,nan,nan
1,210,1,1,1.0,1.0,0.2959829648025334,0,8,3,6,0,5,7,nan,nan,nan,nan,nan,nan,nan,nan,nan,nan,nan,nan,0.0,nan,nan,nan,nan,nan,nan,nan,nan,nan,nan,nan,nan,nan,nan,nan,nan,nan,nan,1130.090613860637,1390.10059051984,nan,1390.3965734846424,nan,nan,nan,nan
1,211,1,1,1.0,1.0,0.5438402527943254,0,3,5,0,8,4,2,nan,nan,nan,nan,nan,nan,nan,nan,nan,nan,nan,nan,0.0,nan,nan,nan,nan,nan,nan,nan,nan,nan,nan,nan,nan,nan,nan,nan,nan,nan,nan,1130.090613860637,1391.100713396212,nan,1391.6445536490064,nan,nan,nan,nan
1,212,1,1,1.0,1.0,0.34370950725860894,0,8,7,4,6,0,3,nan,nan,nan,nan,nan,nan,nan,nan,nan,nan,nan,nan,0.0,nan,nan,nan,nan,nan,nan,nan,nan,nan,nan,nan,nan,nan,nan,nan,nan,nan,nan,1130.090613860637,1392.1008223032113,nan,1392.44453181047,nan,nan,nan,nan
1,213,1,1,1.0,1.0,0.30354058207012713,0,6,0,8,5,3,7,nan,nan,nan,nan,nan,nan,nan,nan,nan,nan,nan,nan,0.0,nan,nan,nan,nan,nan,nan,nan,nan,nan,nan,nan,nan,nan,nan,nan,nan,nan,nan,1130.090613860637,1393.1009688426275,nan,1393.4045094246976,nan,nan,nan,nan
1,214,1,1,1.0,1.0,0.16742934682406485,0,3,7,1,8,5,6,nan,nan,nan,nan,nan,nan,nan,nan,nan,nan,nan,nan,0.0,nan,nan,nan,nan,nan,nan,nan,nan,nan,nan,nan,nan,nan,nan,nan,nan,nan,nan,1130.090613860637,1394.101060073357,nan,1394.2684894201811,nan,nan,nan,nan
1,215,1,1,1.0,1.0,0.3032147171907127,0,5,3,6,4,7,1,nan,nan,nan,nan,nan,nan,nan,nan,nan,nan,nan,nan,0.0,nan,nan,nan,nan,nan,nan,nan,nan,nan,nan,nan,nan,nan,nan,nan,nan,nan,nan,1130.090613860637,1395.1012567898724,nan,1395.4044715070631,nan,nan,nan,nan
1,216,1,1,1.0,1.0,0.30308813438750803,0,0,5,8,1,4,2,nan,nan,nan,nan,nan,nan,nan,nan,nan,nan,nan,nan,0.0,nan,nan,nan,nan,nan,nan,nan,nan,nan,nan,nan,nan,nan,nan,nan,nan,nan,nan,1130.090613860637,1396.101355718216,nan,1396.4044438526034,nan,nan,nan,nan
1,217,1,1,1.0,1.0,0.3269486972130835,0,1,0,5,6,2,7,nan,nan,nan,nan,nan,nan,nan,nan,nan,nan,nan,nan,0.0,nan,nan,nan,nan,nan,nan,nan,nan,nan,nan,nan,nan,nan,nan,nan,nan,nan,nan,1130.090613860637,1397.101480875397,nan,1397.4284295726102,nan,nan,nan,nan
1,218,1,1,1.0,1.0,0.33479967853054404,0,6,2,8,4,1,5,nan,nan,nan,nan,nan,nan,nan,nan,nan,nan,nan,nan,0.0,nan,nan,nan,nan,nan,nan,nan,nan,nan,nan,nan,nan,nan,nan,nan,nan,nan,nan,1130.090613860637,1398.1016040369868,nan,1398.4364037155174,nan,nan,nan,nan
1,219,1,1,1.0,1.0,0.2146424308884889,0,4,8,5,6,7,2,nan,nan,nan,nan,nan,nan,nan,nan,nan,nan,nan,nan,0.0,nan,nan,nan,nan,nan,nan,nan,nan,nan,nan,nan,nan,nan,nan,nan,nan,nan,nan,1130.090613860637,1399.101735181408,nan,1399.3163776122965,nan,nan,nan,nan
1,220,1,1,1.0,1.0,0.3104909441899508,0,6,5,2,0,4,1,nan,nan,nan,nan,nan,nan,nan,nan,nan,nan,nan,nan,0.0,nan,nan,nan,nan,nan,nan,nan,nan,nan,nan,nan,nan,nan,nan,nan,nan,nan,nan,1130.090613860637,1400.101863474818,nan,1400.412354419008,nan,nan,nan,nan
1,221,1,1,1.0,1.0,0.27837570384144783,0,0,4,6,3,5,8,nan,nan,nan,nan,nan,nan,nan,nan,nan,nan,nan,nan,0.0,nan,nan,nan,nan,nan,nan,nan,nan,nan,nan,nan,nan,nan,nan,nan,nan,nan,nan,1130.090613860637,1401.1019552757498,nan,1401.3803309795912,nan,nan,nan,nan
1,222,1,1,1.0,1.0,0.28618477610871196,0,6,1,8,5,3,7,nan,nan,nan,nan,nan,nan,nan,nan,nan,nan,nan,nan,0.0,nan,nan,nan,nan,nan,nan,nan,nan,nan,nan,nan,nan,nan,nan,nan,nan,nan,nan,1130.090613860637,1402.1021237676032,nan,1402.388308543712,nan,nan,nan,nan
1,223,1,1,1.0,1.0,0.2780290269292891,0,1,4,0,7,6,8,nan,nan,nan,nan,nan,nan,nan,nan,nan,nan,nan,nan,0.0,nan,nan,nan,nan,nan,nan,nan,nan,nan,nan,nan,nan,nan,nan,nan,nan,nan,nan,1130.090613860637,1403.1022500651889,nan,1403.3802790921181,nan,nan,nan,nan
1,224,1,1,1.0,1.0,0.2778725088573992,0,8,1,5,2,0,7,nan,nan,nan,nan,nan,nan,nan,nan,nan,nan,nan,nan,0.0,nan,nan,nan,nan,nan,nan,nan,nan,nan,nan,nan,nan,nan,nan,nan,nan,nan,nan,1130.090613860637,1404.1023883370217,nan,1404.380260845879,nan,nan,nan,nan
1,225,1,1,1.0,1.0,0.1577811185270548,0,0,7,6,3,5,1,nan,nan,nan,nan,nan,nan,nan,nan,nan,nan,nan,nan,0.0,nan,nan,nan,nan,nan,nan,nan,nan,nan,nan,nan,nan,nan,nan,nan,nan,nan,nan,1130.090613860637,1405.1024690191261,nan,1405.2602501376532,nan,nan,nan,nan
1,226,1,1,1.0,1.0,0.16558420355431736,0,4,0,5,1,7,3,nan,nan,nan,nan,nan,nan,nan,nan,nan,nan,nan,nan,0.0,nan,nan,nan,nan,nan,nan,nan,nan,nan,nan,nan,nan,nan,nan,nan,nan,nan,nan,1130.090613860637,1406.1026258221827,nan,1406.268210025737,nan,nan,nan,nan
1,227,1,1,1.0,1.0,0.19745255075395107,0,2,5,4,3,8,0,nan,nan,nan,nan,nan,nan,nan,nan,nan,nan,nan,nan,0.0,nan,nan,nan,nan,nan,nan,nan,nan,nan,nan,nan,nan,nan,nan,nan,nan,nan,nan,1130.090613860637,1407.1027572515886,nan,1407.3002098023426,nan,nan,nan,nan
1,228,1,1,1.0,1.0,0.13331244513392448,0,0,8,5,6,2,3,nan,nan,nan,nan,nan,nan,nan,nan,nan,nan,nan,nan,0.0,nan,nan,nan,nan,nan,nan,nan,nan,nan,nan,nan,nan,nan,nan,nan,nan,nan,nan,1130.090613860637,1408.1028838343918,nan,1408.2361962795258,nan,nan,nan,nan
1,229,1,1,1.0,1.0,0.3011372205801308,1,4,2,1,3,0,7,1.0,1.0,1.0,1.0,1.0,1.0,0.0,0.0,0.0,0.0,0.0,0.0,0.0,5.0,7.0,4.0,5.0,5.0,5.0,4.0,3.0,2.0,1.0,6.0,5.0,3.5432871656958014,2.8958982343319803,2.4385604690760374,1.9771489631384611,4.84616518416442,4.10995479230769,1130.090613860637,1409.1030132679734,1409.9114396877121,1409.4041504885536,1415.8121785717085,1416.811736102216,1410.9282341392245,1415.8038443522528
1,230,1,1,1.0,1.0,0.18363336380571127,0,0,1,5,4,8,6,nan,nan,nan,nan,nan,nan,nan,nan,nan,nan,nan,nan,0.0,nan,nan,nan,nan,nan,nan,nan,nan,nan,nan,nan,nan,nan,nan,nan,nan,nan,nan,1130.090613860637,1417.0123597788624,nan,1417.1959931426682,nan,nan,nan,nan
1,231,1,1,1.0,1.0,0.1514508407562971,0,7,6,3,0,1,8,nan,nan,nan,nan,nan,nan,nan,nan,nan,nan,nan,nan,0.0,nan,nan,nan,nan,nan,nan,nan,nan,nan,nan,nan,nan,nan,nan,nan,nan,nan,nan,1130.090613860637,1418.0124877870549,nan,1418.1639386278111,nan,nan,nan,nan
1,232,1,1,1.0,1.0,0.08731700736097991,1,8,3,0,2,6,5,1.0,1.0,1.0,1.0,1.0,1.0,0.0,0.0,0.0,1.0,0.0,1.0,2.0,6.0,4.0,2.0,2.0,3.0,5.0,4.0,3.0,2.0,1.0,6.0,5.0,3.6017843605950475,2.8729160530492663,2.4019880334381014,1.5860564541071653,4.872540296288207,4.056913485052064,1130.090613860637,1419.012612089049,1419.821039934177,1419.09992909641,1425.7384549549315,1426.7486882007215,1420.829516701866,1425.7301272924524
1,233,0,0,1.0,0.0,0.5124337614979595,0,7,6,5,4,3,0,nan,nan,nan,nan,nan,nan,nan,nan,nan,nan,nan,nan,0.0,nan,nan,nan,nan,nan,nan,nan,nan,nan,nan,nan,nan,nan,nan,nan,nan,nan,nan,1130.090613860637,1426.9553094475996,nan,1427.4677432090975,nan,nan,nan,nan
1,234,1,1,1.0,1.0,0.5842720365617424,0,0,1,8,3,5,4,nan,nan,nan,nan,nan,nan,nan,nan,nan,nan,nan,nan,0.0,nan,nan,nan,nan,nan,nan,nan,nan,nan,nan,nan,nan,nan,nan,nan,nan,nan,nan,1130.090613860637,1427.9554371708073,nan,1428.539709207369,nan,nan,nan,nan
1,235,1,1,1.0,1.0,0.3921014645602554,0,7,3,5,6,4,0,nan,nan,nan,nan,nan,nan,nan,nan,nan,nan,nan,nan,0.0,nan,nan,nan,nan,nan,nan,nan,nan,nan,nan,nan,nan,nan,nan,nan,nan,nan,nan,1130.090613860637,1428.955574017018,nan,1429.3476754815783,nan,nan,nan,nan
1,236,1,1,1.0,1.0,0.37596786627545953,0,6,0,2,8,1,3,nan,nan,nan,nan,nan,nan,nan,nan,nan,nan,nan,nan,0.0,nan,nan,nan,nan,nan,nan,nan,nan,nan,nan,nan,nan,nan,nan,nan,nan,nan,nan,1130.090613860637,1429.9556906213984,nan,1430.3316584876738,nan,nan,nan,nan
1,237,0,0,1.0,0.0,0.2398147217463702,0,8,6,3,1,5,7,nan,nan,nan,nan,nan,nan,nan,nan,nan,nan,nan,nan,0.0,nan,nan,nan,nan,nan,nan,nan,nan,nan,nan,nan,nan,nan,nan,nan,nan,nan,nan,1130.090613860637,1430.955822335789,nan,1431.1956370575354,nan,nan,nan,nan
1,238,1,1,1.0,1.0,0.3916632717009634,0,3,5,7,8,2,0,nan,nan,nan,nan,nan,nan,nan,nan,nan,nan,nan,nan,0.0,nan,nan,nan,nan,nan,nan,nan,nan,nan,nan,nan,nan,nan,nan,nan,nan,nan,nan,1130.090613860637,1431.9559514843859,nan,1432.3476147560868,nan,nan,nan,nan
1,239,1,1,1.0,1.0,0.2555121227633208,0,0,8,1,5,6,4,nan,nan,nan,nan,nan,nan,nan,nan,nan,nan,nan,nan,0.0,nan,nan,nan,nan,nan,nan,nan,nan,nan,nan,nan,nan,nan,nan,nan,nan,nan,nan,1130.090613860637,1432.95607578638,nan,1433.2115879091434,nan,nan,nan,nan
1,240,1,1,1.0,1.0,0.23939505987800658,0,1,3,8,6,5,0,nan,nan,nan,nan,nan,nan,nan,nan,nan,nan,nan,nan,0.0,nan,nan,nan,nan,nan,nan,nan,nan,nan,nan,nan,nan,nan,nan,nan,nan,nan,nan,1130.090613860637,1433.956162740942,nan,1434.19555780082,nan,nan,nan,nan
1,241,1,1,1.0,1.0,0.23922314681112766,0,2,8,6,0,7,1,nan,nan,nan,nan,nan,nan,nan,nan,nan,nan,nan,nan,0.0,nan,nan,nan,nan,nan,nan,nan,nan,nan,nan,nan,nan,nan,nan,nan,nan,nan,nan,1130.090613860637,1434.9563326581847,nan,1435.1955558049958,nan,nan,nan,nan
1,242,1,1,1.0,1.0,0.303057914134115,0,0,2,4,3,5,8,nan,nan,nan,nan,nan,nan,nan,nan,nan,nan,nan,nan,0.0,nan,nan,nan,nan,nan,nan,nan,nan,nan,nan,nan,nan,nan,nan,nan,nan,nan,nan,1130.090613860637,1435.9564558197744,nan,1436.2595137339085,nan,nan,nan,nan
1,243,1,1,1.0,1.0,0.15090203029103577,0,7,3,1,0,6,2,nan,nan,nan,nan,nan,nan,nan,nan,nan,nan,nan,nan,0.0,nan,nan,nan,nan,nan,nan,nan,nan,nan,nan,nan,nan,nan,nan,nan,nan,nan,nan,1130.090613860637,1436.956596657401,nan,1437.107498687692,nan,nan,nan,nan
1,244,1,1,1.0,1.0,0.2067928749602288,0,2,6,8,1,4,5,nan,nan,nan,nan,nan,nan,nan,nan,nan,nan,nan,nan,0.0,nan,nan,nan,nan,nan,nan,nan,nan,nan,nan,nan,nan,nan,nan,nan,nan,nan,nan,1130.090613860637,1437.956682186341,nan,1438.1634750613011,nan,nan,nan,nan
1,245,1,1,nan,nan,nan,0,8,7,4,6,0,1,nan,nan,nan,nan,nan,nan,nan,nan,nan,nan,nan,nan,0.0,nan,nan,nan,nan,nan,nan,nan,nan,nan,nan,nan,nan,nan,nan,nan,nan,nan,nan,1130.090613860637,1438.956839559367,nan,nan,nan,nan,nan,nan
1,246,1,1,1.0,1.0,0.6704224301502109,0,7,8,1,0,3,6,nan,nan,nan,nan,nan,nan,nan,nan,nan,nan,nan,nan,0.0,nan,nan,nan,nan,nan,nan,nan,nan,nan,nan,nan,nan,nan,nan,nan,nan,nan,nan,1130.090613860637,1439.956969278166,nan,1440.6273917083163,nan,nan,nan,nan
1,247,1,1,1.0,1.0,0.5023433489259332,0,8,6,0,3,7,2,nan,nan,nan,nan,nan,nan,nan,nan,nan,nan,nan,nan,0.0,nan,nan,nan,nan,nan,nan,nan,nan,nan,nan,nan,nan,nan,nan,nan,nan,nan,nan,1130.090613860637,1440.9570596537087,nan,1441.4594030026346,nan,nan,nan,nan
1,248,1,1,1.0,1.0,0.2941523618064821,0,7,4,8,1,6,0,nan,nan,nan,nan,nan,nan,nan,nan,nan,nan,nan,nan,0.0,nan,nan,nan,nan,nan,nan,nan,nan,nan,nan,nan,nan,nan,nan,nan,nan,nan,nan,1130.090613860637,1441.9572321369778,nan,1442.2513844987843,nan,nan,nan,nan
1,249,1,1,1.0,1.0,0.2460152804851532,0,6,3,7,2,0,1,nan,nan,nan,nan,nan,nan,nan,nan,nan,nan,nan,nan,0.0,nan,nan,nan,nan,nan,nan,nan,nan,nan,nan,nan,nan,nan,nan,nan,nan,nan,nan,1130.090613860637,1442.9573421841487,nan,1443.2033574646339,nan,nan,nan,nan
1,250,1,1,1.0,1.0,0.08585560391657054,0,8,6,5,3,2,4,nan,nan,nan,nan,nan,nan,nan,nan,nan,nan,nan,nan,0.0,nan,nan,nan,nan,nan,nan,nan,nan,nan,nan,nan,nan,nan,nan,nan,nan,nan,nan,1130.090613860637,1443.9574867279734,nan,1444.04334233189,nan,nan,nan,nan
1,251,1,1,nan,nan,nan,0,4,5,8,7,1,6,nan,nan,nan,nan,nan,nan,nan,nan,nan,nan,nan,nan,0.0,nan,nan,nan,nan,nan,nan,nan,nan,nan,nan,nan,nan,nan,nan,nan,nan,nan,nan,1130.090613860637,1444.9576150213834,nan,nan,nan,nan,nan,nan
1,252,1,1,1.0,1.0,0.4375041874591261,0,5,8,4,1,7,0,nan,nan,nan,nan,nan,nan,nan,nan,nan,nan,nan,nan,0.0,nan,nan,nan,nan,nan,nan,nan,nan,nan,nan,nan,nan,nan,nan,nan,nan,nan,nan,1130.090613860637,1445.9577450251672,nan,1446.3952492126264,nan,nan,nan,nan
1,253,1,1,1.0,1.0,0.4214427184779197,0,1,7,8,5,6,3,nan,nan,nan,nan,nan,nan,nan,nan,nan,nan,nan,nan,0.0,nan,nan,nan,nan,nan,nan,nan,nan,nan,nan,nan,nan,nan,nan,nan,nan,nan,nan,1130.090613860637,1446.9578319794964,nan,1447.3792746979743,nan,nan,nan,nan
1,254,1,1,1.0,1.0,0.3732577410992235,0,3,1,2,8,5,6,nan,nan,nan,nan,nan,nan,nan,nan,nan,nan,nan,nan,0.0,nan,nan,nan,nan,nan,nan,nan,nan,nan,nan,nan,nan,nan,nan,nan,nan,nan,nan,1130.090613860637,1447.9579967651516,nan,1448.3312545062508,nan,nan,nan,nan
1,255,1,1,1.0,1.0,0.36512964614667,0,8,6,7,5,4,2,nan,nan,nan,nan,nan,nan,nan,nan,nan,nan,nan,nan,0.0,nan,nan,nan,nan,nan,nan,nan,nan,nan,nan,nan,nan,nan,nan,nan,nan,nan,nan,1130.090613860637,1448.958089706488,nan,1449.3232193526346,nan,nan,nan,nan
1,256,1,1,1.0,1.0,0.2289522683713585,0,7,4,5,0,8,3,nan,nan,nan,nan,nan,nan,nan,nan,nan,nan,nan,nan,0.0,nan,nan,nan,nan,nan,nan,nan,nan,nan,nan,nan,nan,nan,nan,nan,nan,nan,nan,1130.090613860637,1449.9582550623454,nan,1450.1872073307168,nan,nan,nan,nan
1,257,1,1,1.0,1.0,0.14080905192531645,0,4,7,1,3,5,6,nan,nan,nan,nan,nan,nan,nan,nan,nan,nan,nan,nan,0.0,nan,nan,nan,nan,nan,nan,nan,nan,nan,nan,nan,nan,nan,nan,nan,nan,nan,nan,1130.090613860637,1450.9583753731567,nan,1451.099184425082,nan,nan,nan,nan
1,258,1,1,1.0,1.0,0.02064410666935146,1,7,3,8,6,4,2,1.0,1.0,1.0,1.0,1.0,1.0,0.0,1.0,0.0,0.0,1.0,0.0,2.0,8.0,3.0,7.0,2.0,4.0,7.0,1.0,6.0,5.0,4.0,3.0,2.0,6.44727443670854,9.149294942617416,8.637497801100835,7.909453992033377,7.454322587000206,6.90953182335943,1130.090613860637,1451.9585113639478,1452.7669332220685,1451.9791554706171,1462.9682214581408,1463.9694633374456,1453.7837273885962,1462.9598878088873
1,259,1,1,1.0,1.0,0.4824567430187017,1,8,4,1,3,2,7,1.0,1.0,1.0,1.0,1.0,1.0,0.0,0.0,0.0,0.0,0.0,0.0,0.0,3.0,3.0,5.0,7.0,4.0,4.0,1.0,2.0,3.0,4.0,5.0,6.0,1.7477567913010716,2.4533313072752208,3.075270834378898,3.6684575465042144,4.259370045503601,4.763642926001921,1130.090613860637,1464.1684163499158,1464.976827089209,1464.6508730929345,1470.794223493198,1471.8005141424946,1465.9936087115202,1470.7858921245206
1,260,1,1,1.0,1.0,0.4879345828667283,0,3,6,7,0,5,1,nan,nan,nan,nan,nan,nan,nan,nan,nan,nan,nan,nan,0.0,nan,nan,nan,nan,nan,nan,nan,nan,nan,nan,nan,nan,nan,nan,nan,nan,nan,nan,1130.090613860637,1472.002740060212,nan,1472.4906746430788,nan,nan,nan,nan
1,261,0,0,1.0,0.0,0.551788451615721,0,2,8,1,5,6,7,nan,nan,nan,nan,nan,nan,nan,nan,nan,nan,nan,nan,0.0,nan,nan,nan,nan,nan,nan,nan,nan,nan,nan,nan,nan,nan,nan,nan,nan,nan,nan,1130.090613860637,1473.002868353622,nan,1473.5546568052378,nan,nan,nan,nan
1,262,1,1,1.0,1.0,0.447631377261132,0,8,6,5,7,4,2,nan,nan,nan,nan,nan,nan,nan,nan,nan,nan,nan,nan,0.0,nan,nan,nan,nan,nan,nan,nan,nan,nan,nan,nan,nan,nan,nan,nan,nan,nan,nan,1130.090613860637,1474.0029986426234,nan,1474.4506300198846,nan,nan,nan,nan
1,263,1,1,1.0,1.0,0.5834968599956483,0,7,4,1,2,8,3,nan,nan,nan,nan,nan,nan,nan,nan,nan,nan,nan,nan,0.0,nan,nan,nan,nan,nan,nan,nan,nan,nan,nan,nan,nan,nan,nan,nan,nan,nan,nan,1130.090613860637,1475.0031203785911,nan,1475.5866172385868,nan,nan,nan,nan
1,264,1,1,nan,nan,nan,0,2,6,7,5,0,1,nan,nan,nan,nan,nan,nan,nan,nan,nan,nan,nan,nan,0.0,nan,nan,nan,nan,nan,nan,nan,nan,nan,nan,nan,nan,nan,nan,nan,nan,nan,nan,1130.090613860637,1476.0032386935782,nan,nan,nan,nan,nan,nan
1,265,1,1,1.0,1.0,0.27124886703677475,0,3,2,1,6,8,4,nan,nan,nan,nan,nan,nan,nan,nan,nan,nan,nan,nan,0.0,nan,nan,nan,nan,nan,nan,nan,nan,nan,nan,nan,nan,nan,nan,nan,nan,nan,nan,1130.090613860637,1477.0033450345509,nan,1477.2745939015877,nan,nan,nan,nan
1,266,1,1,nan,nan,nan,0,2,1,8,7,0,6,nan,nan,nan,nan,nan,nan,nan,nan,nan,nan,nan,nan,0.0,nan,nan,nan,nan,nan,nan,nan,nan,nan,nan,nan,nan,nan,nan,nan,nan,nan,nan,1130.090613860637,1478.0035072544124,nan,nan,nan,nan,nan,nan
1,267,1,1,nan,nan,nan,0,3,0,4,5,8,1,nan,nan,nan,nan,nan,nan,nan,nan,nan,nan,nan,nan,0.0,nan,nan,nan,nan,nan,nan,nan,nan,nan,nan,nan,nan,nan,nan,nan,nan,nan,nan,1130.090613860637,1479.0036326965783,nan,nan,nan,nan,nan,nan
1,268,1,1,1.0,1.0,0.110795256216079,0,4,5,7,6,0,8,nan,nan,nan,nan,nan,nan,nan,nan,nan,nan,nan,nan,0.0,nan,nan,nan,nan,nan,nan,nan,nan,nan,nan,nan,nan,nan,nan,nan,nan,nan,nan,1130.090613860637,1480.0037330505438,nan,1480.11452830676,nan,nan,nan,nan
1,269,1,1,1.0,1.0,0.06260429183021188,0,2,4,5,1,7,6,nan,nan,nan,nan,nan,nan,nan,nan,nan,nan,nan,nan,0.0,nan,nan,nan,nan,nan,nan,nan,nan,nan,nan,nan,nan,nan,nan,nan,nan,nan,nan,1130.090613860637,1481.0038918491919,nan,1481.066496141022,nan,nan,nan,nan
1,270,1,1,1.0,1.0,0.08647910947911441,0,8,6,0,3,4,7,nan,nan,nan,nan,nan,nan,nan,nan,nan,nan,nan,nan,0.0,nan,nan,nan,nan,nan,nan,nan,nan,nan,nan,nan,nan,nan,nan,nan,nan,nan,nan,1130.090613860637,1482.0039859309327,nan,1482.0904650404118,nan,nan,nan,nan
1,271,1,1,1.0,1.0,0.19028523028828204,0,6,1,4,0,2,3,nan,nan,nan,nan,nan,nan,nan,nan,nan,nan,nan,nan,0.0,nan,nan,nan,nan,nan,nan,nan,nan,nan,nan,nan,nan,nan,nan,nan,nan,nan,nan,1130.090613860637,1483.004149861401,nan,1483.1944350916892,nan,nan,nan,nan
1,272,1,1,1.0,1.0,0.04614283284172416,0,0,8,6,3,1,5,nan,nan,nan,nan,nan,nan,nan,nan,nan,nan,nan,nan,0.0,nan,nan,nan,nan,nan,nan,nan,nan,nan,nan,nan,nan,nan,nan,nan,nan,nan,nan,1130.090613860637,1484.0042775843758,nan,1484.0504204172175,nan,nan,nan,nan
1,273,0,0,1.0,0.0,0.18197609926573932,0,3,0,2,8,4,1,nan,nan,nan,nan,nan,nan,nan,nan,nan,nan,nan,nan,0.0,nan,nan,nan,nan,nan,nan,nan,nan,nan,nan,nan,nan,nan,nan,nan,nan,nan,nan,1130.090613860637,1485.0044078733772,nan,1485.186383972643,nan,nan,nan,nan
1,274,1,1,1.0,1.0,0.22986571677029133,0,7,8,5,2,3,6,nan,nan,nan,nan,nan,nan,nan,nan,nan,nan,nan,nan,0.0,nan,nan,nan,nan,nan,nan,nan,nan,nan,nan,nan,nan,nan,nan,nan,nan,nan,nan,1130.090613860637,1486.0045287543908,nan,1486.234394471161,nan,nan,nan,nan
1,275,1,1,1.0,1.0,0.2376981668639928,0,4,3,2,1,5,7,nan,nan,nan,nan,nan,nan,nan,nan,nan,nan,nan,nan,0.0,nan,nan,nan,nan,nan,nan,nan,nan,nan,nan,nan,nan,nan,nan,nan,nan,nan,nan,1130.090613860637,1487.0046490649693,nan,1487.2423472318333,nan,nan,nan,nan
1,276,1,1,1.0,1.0,0.2455220641568303,0,0,2,4,6,3,8,nan,nan,nan,nan,nan,nan,nan,nan,nan,nan,nan,nan,0.0,nan,nan,nan,nan,nan,nan,nan,nan,nan,nan,nan,nan,nan,nan,nan,nan,nan,nan,1130.090613860637,1488.0047970297746,nan,1488.2503190939315,nan,nan,nan,nan
1,277,1,1,1.0,1.0,0.3253743953537196,0,1,8,6,5,2,4,nan,nan,nan,nan,nan,nan,nan,nan,nan,nan,nan,nan,0.0,nan,nan,nan,nan,nan,nan,nan,nan,nan,nan,nan,nan,nan,nan,nan,nan,nan,nan,1130.090613860637,1489.004919621395,nan,1489.3302940167487,nan,nan,nan,nan
1,278,0,0,1.0,0.0,0.2692172711249441,0,4,6,2,8,1,5,nan,nan,nan,nan,nan,nan,nan,nan,nan,nan,nan,nan,0.0,nan,nan,nan,nan,nan,nan,nan,nan,nan,nan,nan,nan,nan,nan,nan,nan,nan,nan,1130.090613860637,1490.0050544717815,nan,1490.2742717429064,nan,nan,nan,nan
1,279,1,1,1.0,1.0,0.1970736577641219,0,6,0,4,2,5,8,nan,nan,nan,nan,nan,nan,nan,nan,nan,nan,nan,nan,0.0,nan,nan,nan,nan,nan,nan,nan,nan,nan,nan,nan,nan,nan,nan,nan,nan,nan,nan,1130.090613860637,1491.005178488791,nan,1491.202252146555,nan,nan,nan,nan
1,280,1,1,1.0,1.0,0.24491395382210612,1,5,3,1,7,8,6,1.0,1.0,1.0,1.0,1.0,1.0,1.0,0.0,0.0,0.0,0.0,0.0,1.0,5.0,2.0,2.0,2.0,5.0,5.0,4.0,3.0,2.0,1.0,6.0,5.0,3.126183042768389,2.3267186246812344,1.8148205589968711,1.1051520605105907,4.126545970328152,3.670224573230371,1130.090613860637,1492.005312198773,1492.813713244861,1492.2502261525951,1497.989378167782,1498.9906827684026,1493.822193148546,1497.9810496503487
1,281,0,0,nan,nan,nan,0,1,7,5,6,4,2,nan,nan,nan,nan,nan,nan,nan,nan,nan,nan,nan,nan,0.0,nan,nan,nan,nan,nan,nan,nan,nan,nan,nan,nan,nan,nan,nan,nan,nan,nan,nan,1130.090613860637,1499.1978884628043,nan,nan,nan,nan,nan,nan
1,282,1,1,1.0,1.0,0.4759893340524286,0,8,4,3,7,2,6,nan,nan,nan,nan,nan,nan,nan,nan,nan,nan,nan,nan,0.0,nan,nan,nan,nan,nan,nan,nan,nan,nan,nan,nan,nan,nan,nan,nan,nan,nan,nan,1130.090613860637,1500.1980130497832,nan,1500.6740023838356,nan,nan,nan,nan
1,283,1,1,0.0,0.0,0.4118269910104573,0,6,1,5,8,3,0,nan,nan,nan,nan,nan,nan,nan,nan,nan,nan,nan,nan,0.0,nan,nan,nan,nan,nan,nan,nan,nan,nan,nan,nan,nan,nan,nan,nan,nan,nan,nan,1130.090613860637,1501.1981898096856,nan,1501.610016800696,nan,nan,nan,nan
1,284,1,1,1.0,1.0,0.32374335965141654,0,0,5,8,6,7,2,nan,nan,nan,nan,nan,nan,nan,nan,nan,nan,nan,nan,0.0,nan,nan,nan,nan,nan,nan,nan,nan,nan,nan,nan,nan,nan,nan,nan,nan,nan,nan,1130.090613860637,1502.1982707770076,nan,1502.522014136659,nan,nan,nan,nan
1,285,1,1,1.0,1.0,0.19556435802951455,1,7,3,0,8,5,1,1.0,1.0,1.0,1.0,1.0,1.0,0.0,1.0,1.0,0.0,0.0,0.0,2.0,8.0,3.0,0.0,5.0,4.0,3.0,6.0,1.0,2.0,3.0,4.0,5.0,3.7645937220659107,1.4308286579325795,1.9890369076747447,2.629063512897119,3.0766857671551406,3.421377716353163,1130.090613860637,1503.1983984999824,1504.0068243495189,1503.393962858012,1508.8240904642735,1509.8324494871777,1505.0236222222447,1508.8157747760415
1,286,1,1,1.0,1.0,0.5132485667709261,0,8,2,6,4,1,0,nan,nan,nan,nan,nan,nan,nan,nan,nan,nan,nan,nan,0.0,nan,nan,nan,nan,nan,nan,nan,nan,nan,nan,nan,nan,nan,nan,nan,nan,nan,nan,1130.090613860637,1510.0325728198513,nan,1510.5458213866223,nan,nan,nan,nan
1,287,1,1,1.0,1.0,0.2650562908966094,0,1,6,2,0,7,8,nan,nan,nan,nan,nan,nan,nan,nan,nan,nan,nan,nan,0.0,nan,nan,nan,nan,nan,nan,nan,nan,nan,nan,nan,nan,nan,nan,nan,nan,nan,nan,1130.090613860637,1511.0327376055066,nan,1511.2977938964032,nan,nan,nan,nan
1,288,0,0,1.0,0.0,0.12090391479432583,0,5,0,6,4,8,3,nan,nan,nan,nan,nan,nan,nan,nan,nan,nan,nan,nan,0.0,nan,nan,nan,nan,nan,nan,nan,nan,nan,nan,nan,nan,nan,nan,nan,nan,nan,nan,1130.090613860637,1512.032861622516,nan,1512.1537655373104,nan,nan,nan,nan
1,289,1,1,1.0,1.0,0.29675358021631837,0,4,8,5,3,1,6,nan,nan,nan,nan,nan,nan,nan,nan,nan,nan,nan,nan,0.0,nan,nan,nan,nan,nan,nan,nan,nan,nan,nan,nan,nan,nan,nan,nan,nan,nan,nan,1130.090613860637,1513.0329879201017,nan,1513.329741500318,nan,nan,nan,nan
1,290,1,1,1.0,1.0,0.28859754581935704,0,1,7,6,4,2,8,nan,nan,nan,nan,nan,nan,nan,nan,nan,nan,nan,nan,0.0,nan,nan,nan,nan,nan,nan,nan,nan,nan,nan,nan,nan,nan,nan,nan,nan,nan,nan,1130.090613860637,1514.03311906429,nan,1514.3217166101094,nan,nan,nan,nan
1,291,0,0,0.0,1.0,0.4884383480530232,0,4,1,8,2,6,3,nan,nan,nan,nan,nan,nan,nan,nan,nan,nan,nan,nan,0.0,nan,nan,nan,nan,nan,nan,nan,nan,nan,nan,nan,nan,nan,nan,nan,nan,nan,nan,1130.090613860637,1515.033242796082,nan,1515.521681144135,nan,nan,nan,nan
1,292,1,1,1.0,1.0,0.36028586025349796,0,7,8,1,6,5,4,nan,nan,nan,nan,nan,nan,nan,nan,nan,nan,nan,nan,0.0,nan,nan,nan,nan,nan,nan,nan,nan,nan,nan,nan,nan,nan,nan,nan,nan,nan,nan,1130.090613860637,1516.0333762213122,nan,1516.3936620815657,nan,nan,nan,nan
1,293,1,1,1.0,1.0,0.4401558677200228,0,1,5,4,7,2,8,nan,nan,nan,nan,nan,nan,nan,nan,nan,nan,nan,nan,0.0,nan,nan,nan,nan,nan,nan,nan,nan,nan,nan,nan,nan,nan,nan,nan,nan,nan,nan,1130.090613860637,1517.0334999531042,nan,1517.4736558208242,nan,nan,nan,nan
1,294,1,1,1.0,1.0,0.28799998410977423,0,5,1,6,3,4,0,nan,nan,nan,nan,nan,nan,nan,nan,nan,nan,nan,nan,0.0,nan,nan,nan,nan,nan,nan,nan,nan,nan,nan,nan,nan,nan,nan,nan,nan,nan,nan,1130.090613860637,1518.0336305270903,nan,1518.3216305112,nan,nan,nan,nan
1,295,0,0,1.0,0.0,0.3518242025747895,0,2,6,0,5,1,7,nan,nan,nan,nan,nan,nan,nan,nan,nan,nan,nan,nan,0.0,nan,nan,nan,nan,nan,nan,nan,nan,nan,nan,nan,nan,nan,nan,nan,nan,nan,nan,1130.090613860637,1519.033760531107,nan,1519.3855847336818,nan,nan,nan,nan
1,296,1,1,1.0,1.0,0.23968500271439552,0,3,1,7,2,5,4,nan,nan,nan,nan,nan,nan,nan,nan,nan,nan,nan,nan,0.0,nan,nan,nan,nan,nan,nan,nan,nan,nan,nan,nan,nan,nan,nan,nan,nan,nan,nan,1130.090613860637,1520.033879701281,nan,1520.2735647039954,nan,nan,nan,nan
1,297,1,1,1.0,1.0,0.44753358932211995,0,5,3,6,1,7,8,nan,nan,nan,nan,nan,nan,nan,nan,nan,nan,nan,nan,0.0,nan,nan,nan,nan,nan,nan,nan,nan,nan,nan,nan,nan,nan,nan,nan,nan,nan,nan,1130.090613860637,1521.0340134114958,nan,1521.481547000818,nan,nan,nan,nan
1,298,1,1,1.0,1.0,0.41539554111659527,0,6,7,5,0,8,4,nan,nan,nan,nan,nan,nan,nan,nan,nan,nan,nan,nan,0.0,nan,nan,nan,nan,nan,nan,nan,nan,nan,nan,nan,nan,nan,nan,nan,nan,nan,nan,1130.090613860637,1522.0341391388793,nan,1522.4495346799958,nan,nan,nan,nan
1,299,1,1,1.0,1.0,0.7752557527273893,0,5,0,4,7,3,2,nan,nan,nan,nan,nan,nan,nan,nan,nan,nan,nan,nan,0.0,nan,nan,nan,nan,nan,nan,nan,nan,nan,nan,nan,nan,nan,nan,nan,nan,nan,nan,1130.090613860637,1523.0342343610246,nan,1523.809490113752,nan,nan,nan,nan
1,300,1,1,1.0,1.0,0.35109663708135486,1,0,1,5,4,6,3,1.0,1.0,1.0,1.0,1.0,1.0,0.0,1.0,1.0,0.0,1.0,1.0,4.0,3.0,1.0,5.0,7.0,6.0,3.0,6.0,1.0,2.0,3.0,4.0,5.0,3.903600965626538,1.0888876027893275,1.5926555776968598,2.1600048693362623,2.6078683151863515,3.271936234086752,1130.090613860637,1524.034399716882,1524.842819864396,1524.3854963539634,1529.8101136193145,1530.8139803800732,1525.8679570883978,1529.8017845314462
1,301,1,1,1.0,1.0,0.47868948080576956,0,5,0,4,7,8,1,nan,nan,nan,nan,nan,nan,nan,nan,nan,nan,nan,nan,0.0,nan,nan,nan,nan,nan,nan,nan,nan,nan,nan,nan,nan,nan,nan,nan,nan,nan,nan,1130.090613860637,1531.018654419575,nan,1531.4973439003807,nan,nan,nan,nan
1,302,1,1,1.0,1.0,0.3745278448332101,0,2,3,1,6,5,4,nan,nan,nan,nan,nan,nan,nan,nan,nan,nan,nan,nan,0.0,nan,nan,nan,nan,nan,nan,nan,nan,nan,nan,nan,nan,nan,nan,nan,nan,nan,nan,1130.090613860637,1532.0187624711543,nan,1532.3932903159875,nan,nan,nan,nan
1,303,1,1,1.0,1.0,0.32641784800216556,0,6,0,5,8,2,7,nan,nan,nan,nan,nan,nan,nan,nan,nan,nan,nan,nan,0.0,nan,nan,nan,nan,nan,nan,nan,nan,nan,nan,nan,nan,nan,nan,nan,nan,nan,nan,1130.090613860637,1533.0188585484866,nan,1533.3452763964888,nan,nan,nan,nan
1,304,1,1,1.0,1.0,0.3342454512603581,0,5,7,8,2,6,0,nan,nan,nan,nan,nan,nan,nan,nan,nan,nan,nan,nan,0.0,nan,nan,nan,nan,nan,nan,nan,nan,nan,nan,nan,nan,nan,nan,nan,nan,nan,nan,1130.090613860637,1534.0190184875391,nan,1534.3532639387995,nan,nan,nan,nan
1,305,1,1,1.0,1.0,0.2620841620955616,0,0,6,1,8,2,7,nan,nan,nan,nan,nan,nan,nan,nan,nan,nan,nan,nan,0.0,nan,nan,nan,nan,nan,nan,nan,nan,nan,nan,nan,nan,nan,nan,nan,nan,nan,nan,1130.090613860637,1535.019146780949,nan,1535.2812309430446,nan,nan,nan,nan
1,306,1,1,1.0,1.0,0.2619227976538241,0,1,7,8,2,5,3,nan,nan,nan,nan,nan,nan,nan,nan,nan,nan,nan,nan,0.0,nan,nan,nan,nan,nan,nan,nan,nan,nan,nan,nan,nan,nan,nan,nan,nan,nan,nan,1130.090613860637,1536.0192753593437,nan,1536.2811981569976,nan,nan,nan,nan
1,307,1,1,1.0,1.0,0.3657879335805774,0,8,5,6,1,3,0,nan,nan,nan,nan,nan,nan,nan,nan,nan,nan,nan,nan,0.0,nan,nan,nan,nan,nan,nan,nan,nan,nan,nan,nan,nan,nan,nan,nan,nan,nan,nan,1130.090613860637,1537.019398235716,nan,1537.3851861692965,nan,nan,nan,nan
1,308,1,1,1.0,1.0,0.2776227646972984,0,3,0,5,8,4,7,nan,nan,nan,nan,nan,nan,nan,nan,nan,nan,nan,nan,0.0,nan,nan,nan,nan,nan,nan,nan,nan,nan,nan,nan,nan,nan,nan,nan,nan,nan,nan,1130.090613860637,1538.019535652129,nan,1538.2971584168263,nan,nan,nan,nan
1,309,1,1,1.0,1.0,0.28548743040300906,0,4,8,1,6,5,3,nan,nan,nan,nan,nan,nan,nan,nan,nan,nan,nan,nan,0.0,nan,nan,nan,nan,nan,nan,nan,nan,nan,nan,nan,nan,nan,nan,nan,nan,nan,nan,1130.090613860637,1539.0196536821313,nan,1539.3051411125343,nan,nan,nan,nan
1,310,1,1,1.0,1.0,0.37333357660099864,0,8,3,5,7,2,4,nan,nan,nan,nan,nan,nan,nan,nan,nan,nan,nan,nan,0.0,nan,nan,nan,nan,nan,nan,nan,nan,nan,nan,nan,nan,nan,nan,nan,nan,nan,nan,1130.090613860637,1540.0197834009305,nan,1540.3931169775315,nan,nan,nan,nan
1,311,1,1,1.0,1.0,0.28518095216713846,0,6,8,0,1,5,3,nan,nan,nan,nan,nan,nan,nan,nan,nan,nan,nan,nan,0.0,nan,nan,nan,nan,nan,nan,nan,nan,nan,nan,nan,nan,nan,nan,nan,nan,nan,nan,1130.090613860637,1541.0199099835008,nan,1541.305090935668,nan,nan,nan,nan
1,312,1,1,1.0,1.0,0.26902654161676764,0,1,4,2,0,7,5,nan,nan,nan,nan,nan,nan,nan,nan,nan,nan,nan,nan,0.0,nan,nan,nan,nan,nan,nan,nan,nan,nan,nan,nan,nan,nan,nan,nan,nan,nan,nan,1130.090613860637,1542.0200416981243,nan,1542.289068239741,nan,nan,nan,nan
1,313,1,1,1.0,1.0,0.24488772498443723,0,6,8,3,2,0,4,nan,nan,nan,nan,nan,nan,nan,nan,nan,nan,nan,nan,0.0,nan,nan,nan,nan,nan,nan,nan,nan,nan,nan,nan,nan,nan,nan,nan,nan,nan,nan,1130.090613860637,1543.0201640042942,nan,1543.2650517292786,nan,nan,nan,nan
1,314,1,1,1.0,1.0,0.2207101348321885,0,0,3,5,6,8,1,nan,nan,nan,nan,nan,nan,nan,nan,nan,nan,nan,nan,0.0,nan,nan,nan,nan,nan,nan,nan,nan,nan,nan,nan,nan,nan,nan,nan,nan,nan,nan,1130.090613860637,1544.0203165309504,nan,1544.2410266657826,nan,nan,nan,nan
1,315,1,1,1.0,1.0,0.15658884588629007,0,4,0,8,3,2,6,nan,nan,nan,nan,nan,nan,nan,nan,nan,nan,nan,nan,0.0,nan,nan,nan,nan,nan,nan,nan,nan,nan,nan,nan,nan,nan,nan,nan,nan,nan,nan,1130.090613860637,1545.0204240120947,nan,1545.177012857981,nan,nan,nan,nan
1,316,1,1,1.0,1.0,0.012434189207851887,0,6,3,1,7,0,5,nan,nan,nan,nan,nan,nan,nan,nan,nan,nan,nan,nan,0.0,nan,nan,nan,nan,nan,nan,nan,nan,nan,nan,nan,nan,nan,nan,nan,nan,nan,nan,1130.090613860637,1546.0205554415006,nan,1546.0329896307085,nan,nan,nan,nan
1,317,1,1,1.0,1.0,0.03630701103247702,0,8,4,0,3,6,7,nan,nan,nan,nan,nan,nan,nan,nan,nan,nan,nan,nan,0.0,nan,nan,nan,nan,nan,nan,nan,nan,nan,nan,nan,nan,nan,nan,nan,nan,nan,nan,1130.090613860637,1547.0206478128675,nan,1547.0569548239,nan,nan,nan,nan
1,318,1,1,1.0,1.0,0.052138692466542125,1,7,1,2,5,0,4,1.0,1.0,1.0,1.0,1.0,1.0,0.0,0.0,0.0,1.0,0.0,0.0,1.0,4.0,0.0,0.0,5.0,7.0,5.0,4.0,3.0,2.0,1.0,6.0,5.0,3.604823771864176,3.070449856109917,2.431128293974325,1.3583429290447384,4.717243506573141,4.164875739254057,1130.090613860637,1548.0207906460855,1548.8292367372196,1548.072929338552,1554.604957482079,1555.6018208528403,1549.8460311889648,1554.5966269688215
1,319,0,0,0.0,1.0,0.5476172079797834,0,3,7,8,1,6,0,nan,nan,nan,nan,nan,nan,nan,nan,nan,nan,nan,nan,0.0,nan,nan,nan,nan,nan,nan,nan,nan,nan,nan,nan,nan,nan,nan,nan,nan,nan,nan,1130.090613860637,1555.8051498080604,nan,1556.3527670160402,nan,nan,nan,nan
1,320,1,1,1.0,1.0,0.43544864328578115,0,0,5,4,2,3,6,nan,nan,nan,nan,nan,nan,nan,nan,nan,nan,nan,nan,0.0,nan,nan,nan,nan,nan,nan,nan,nan,nan,nan,nan,nan,nan,nan,nan,nan,nan,nan,1130.090613860637,1556.8052721142303,nan,1557.240720757516,nan,nan,nan,nan
1,321,1,1,1.0,1.0,0.2912994031794369,0,6,8,5,3,0,1,nan,nan,nan,nan,nan,nan,nan,nan,nan,nan,nan,nan,0.0,nan,nan,nan,nan,nan,nan,nan,nan,nan,nan,nan,nan,nan,nan,nan,nan,nan,nan,1130.090613860637,1557.8054004076403,nan,1558.0966998108197,nan,nan,nan,nan
1,322,1,1,1.0,1.0,0.043161295587196946,0,8,3,0,4,2,5,nan,nan,nan,nan,nan,nan,nan,nan,nan,nan,nan,nan,0.0,nan,nan,nan,nan,nan,nan,nan,nan,nan,nan,nan,nan,nan,nan,nan,nan,nan,nan,1130.090613860637,1558.8055298414547,nan,1558.848691137042,nan,nan,nan,nan
1,323,0,0,1.0,0.0,0.26699751149863005,0,4,8,2,1,3,7,nan,nan,nan,nan,nan,nan,nan,nan,nan,nan,nan,nan,0.0,nan,nan,nan,nan,nan,nan,nan,nan,nan,nan,nan,nan,nan,nan,nan,nan,nan,nan,1130.090613860637,1559.8056547134183,nan,1560.072652224917,nan,nan,nan,nan
1,324,1,1,1.0,1.0,0.34683017106726766,0,7,1,3,4,2,6,nan,nan,nan,nan,nan,nan,nan,nan,nan,nan,nan,nan,0.0,nan,nan,nan,nan,nan,nan,nan,nan,nan,nan,nan,nan,nan,nan,nan,nan,nan,nan,1130.090613860637,1560.8057767348364,nan,1561.1526069059037,nan,nan,nan,nan
1,325,1,1,1.0,1.0,0.39468985376879573,0,4,0,8,7,5,2,nan,nan,nan,nan,nan,nan,nan,nan,nan,nan,nan,nan,0.0,nan,nan,nan,nan,nan,nan,nan,nan,nan,nan,nan,nan,nan,nan,nan,nan,nan,nan,1130.090613860637,1561.8059101598337,nan,1562.2006000136025,nan,nan,nan,nan
1,326,1,1,1.0,1.0,0.4665312650613487,0,2,1,5,3,4,7,nan,nan,nan,nan,nan,nan,nan,nan,nan,nan,nan,nan,0.0,nan,nan,nan,nan,nan,nan,nan,nan,nan,nan,nan,nan,nan,nan,nan,nan,nan,nan,1130.090613860637,1562.806041304022,nan,1563.2725725690834,nan,nan,nan,nan
1,327,1,1,1.0,1.0,0.5943978009745479,0,3,6,7,4,1,8,nan,nan,nan,nan,nan,nan,nan,nan,nan,nan,nan,nan,0.0,nan,nan,nan,nan,nan,nan,nan,nan,nan,nan,nan,nan,nan,nan,nan,nan,nan,nan,1130.090613860637,1563.8061636104248,nan,1564.4005614113994,nan,nan,nan,nan
1,328,0,0,nan,nan,nan,0,5,1,8,7,4,0,nan,nan,nan,nan,nan,nan,nan,nan,nan,nan,nan,nan,0.0,nan,nan,nan,nan,nan,nan,nan,nan,nan,nan,nan,nan,nan,nan,nan,nan,nan,nan,1130.090613860637,1564.8062907634303,nan,nan,nan,nan,nan,nan
1,329,1,1,1.0,1.0,0.6020734482444823,0,0,6,3,4,8,7,nan,nan,nan,nan,nan,nan,nan,nan,nan,nan,nan,nan,0.0,nan,nan,nan,nan,nan,nan,nan,nan,nan,nan,nan,nan,nan,nan,nan,nan,nan,nan,1130.090613860637,1565.8064105038065,nan,1566.408483952051,nan,nan,nan,nan
1,330,1,1,1.0,1.0,0.3859123094007373,0,8,0,1,2,3,5,nan,nan,nan,nan,nan,nan,nan,nan,nan,nan,nan,nan,0.0,nan,nan,nan,nan,nan,nan,nan,nan,nan,nan,nan,nan,nan,nan,nan,nan,nan,nan,1130.090613860637,1566.806578140473,nan,1567.1924904498737,nan,nan,nan,nan
1,331,1,1,1.0,1.0,0.137832076754421,0,2,4,3,5,6,7,nan,nan,nan,nan,nan,nan,nan,nan,nan,nan,nan,nan,0.0,nan,nan,nan,nan,nan,nan,nan,nan,nan,nan,nan,nan,nan,nan,nan,nan,nan,nan,1130.090613860637,1567.8066434273496,nan,1567.944475504104,nan,nan,nan,nan
1,332,1,1,1.0,1.0,0.017659433651715517,0,8,3,5,7,0,2,nan,nan,nan,nan,nan,nan,nan,nan,nan,nan,nan,nan,0.0,nan,nan,nan,nan,nan,nan,nan,nan,nan,nan,nan,nan,nan,nan,nan,nan,nan,nan,1130.090613860637,1568.8068036516197,nan,1568.8244630852714,nan,nan,nan,nan
1,333,1,1,1.0,1.0,0.561454355949536,0,4,6,8,5,1,3,nan,nan,nan,nan,nan,nan,nan,nan,nan,nan,nan,nan,0.0,nan,nan,nan,nan,nan,nan,nan,nan,nan,nan,nan,nan,nan,nan,nan,nan,nan,nan,1130.090613860637,1569.8069285235833,nan,1570.3683828795329,nan,nan,nan,nan
1,334,1,1,1.0,1.0,0.2733491715043783,0,3,4,0,7,6,8,nan,nan,nan,nan,nan,nan,nan,nan,nan,nan,nan,nan,0.0,nan,nan,nan,nan,nan,nan,nan,nan,nan,nan,nan,nan,nan,nan,nan,nan,nan,nan,1130.090613860637,1570.8070610933937,nan,1571.080410264898,nan,nan,nan,nan
1,335,1,1,1.0,1.0,0.2412350713275373,0,4,3,7,6,0,5,nan,nan,nan,nan,nan,nan,nan,nan,nan,nan,nan,nan,0.0,nan,nan,nan,nan,nan,nan,nan,nan,nan,nan,nan,nan,nan,nan,nan,nan,nan,nan,1130.090613860637,1571.8071588815656,nan,1572.048393952893,nan,nan,nan,nan
1,336,1,1,1.0,1.0,0.033048645593225956,0,0,1,4,5,7,2,nan,nan,nan,nan,nan,nan,nan,nan,nan,nan,nan,nan,0.0,nan,nan,nan,nan,nan,nan,nan,nan,nan,nan,nan,nan,nan,nan,nan,nan,nan,nan,1130.090613860637,1572.8073179651983,nan,1572.8403666107915,nan,nan,nan,nan
1,337,1,1,1.0,1.0,0.43283316981978714,0,1,3,5,6,4,8,nan,nan,nan,nan,nan,nan,nan,nan,nan,nan,nan,nan,0.0,nan,nan,nan,nan,nan,nan,nan,nan,nan,nan,nan,nan,nan,nan,nan,nan,nan,nan,1130.090613860637,1573.8074642196298,nan,1574.2402973894496,nan,nan,nan,nan
1,338,0,0,1.0,0.0,0.31271526543423533,0,6,2,8,5,1,7,nan,nan,nan,nan,nan,nan,nan,nan,nan,nan,nan,nan,0.0,nan,nan,nan,nan,nan,nan,nan,nan,nan,nan,nan,nan,nan,nan,nan,nan,nan,nan,1130.090613860637,1574.807585385628,nan,1575.1203006510623,nan,nan,nan,nan
1,339,1,1,1.0,1.0,0.28057436645030975,0,4,7,5,3,0,6,nan,nan,nan,nan,nan,nan,nan,nan,nan,nan,nan,nan,0.0,nan,nan,nan,nan,nan,nan,nan,nan,nan,nan,nan,nan,nan,nan,nan,nan,nan,nan,1130.090613860637,1575.80770313018,nan,1576.0882774966303,nan,nan,nan,nan
1,340,1,1,1.0,1.0,0.2404342358931899,0,8,6,3,7,5,2,nan,nan,nan,nan,nan,nan,nan,nan,nan,nan,nan,nan,0.0,nan,nan,nan,nan,nan,nan,nan,nan,nan,nan,nan,nan,nan,nan,nan,nan,nan,nan,1130.090613860637,1576.8078288577963,nan,1577.0482630936895,nan,nan,nan,nan
1,341,1,1,1.0,1.0,0.2642868161201477,0,1,8,5,2,4,7,nan,nan,nan,nan,nan,nan,nan,nan,nan,nan,nan,nan,0.0,nan,nan,nan,nan,nan,nan,nan,nan,nan,nan,nan,nan,nan,nan,nan,nan,nan,nan,1130.090613860637,1577.807961142389,nan,1578.0722479585093,nan,nan,nan,nan
1,342,1,1,1.0,1.0,0.31212796713225543,0,4,1,0,3,5,8,nan,nan,nan,nan,nan,nan,nan,nan,nan,nan,nan,nan,0.0,nan,nan,nan,nan,nan,nan,nan,nan,nan,nan,nan,nan,nan,nan,nan,nan,nan,nan,1130.090613860637,1578.8080877251923,nan,1579.1202156923246,nan,nan,nan,nan
1,343,1,1,1.0,1.0,0.3279573677573353,0,6,7,4,8,3,1,nan,nan,nan,nan,nan,nan,nan,nan,nan,nan,nan,nan,0.0,nan,nan,nan,nan,nan,nan,nan,nan,nan,nan,nan,nan,nan,nan,nan,nan,nan,nan,1130.090613860637,1579.8082334094215,nan,1580.1361907771789,nan,nan,nan,nan
1,344,1,1,1.0,1.0,0.3438064402434975,0,0,1,5,7,6,4,nan,nan,nan,nan,nan,nan,nan,nan,nan,nan,nan,nan,0.0,nan,nan,nan,nan,nan,nan,nan,nan,nan,nan,nan,nan,nan,nan,nan,nan,nan,nan,1130.090613860637,1580.8083534347825,nan,1581.152159875026,nan,nan,nan,nan
1,345,1,1,1.0,1.0,0.48765632905997336,0,8,4,3,6,1,0,nan,nan,nan,nan,nan,nan,nan,nan,nan,nan,nan,nan,0.0,nan,nan,nan,nan,nan,nan,nan,nan,nan,nan,nan,nan,nan,nan,nan,nan,nan,nan,1130.090613860637,1581.808482868597,nan,1582.2961391976569,nan,nan,nan,nan
1,346,0,0,1.0,0.0,0.2795377562288195,0,1,6,8,7,3,5,nan,nan,nan,nan,nan,nan,nan,nan,nan,nan,nan,nan,0.0,nan,nan,nan,nan,nan,nan,nan,nan,nan,nan,nan,nan,nan,nan,nan,nan,nan,nan,1130.090613860637,1582.8085963369813,nan,1583.08813409321,nan,nan,nan,nan
1,347,1,1,1.0,1.0,0.18337079021148384,0,7,3,5,1,2,4,nan,nan,nan,nan,nan,nan,nan,nan,nan,nan,nan,nan,0.0,nan,nan,nan,nan,nan,nan,nan,nan,nan,nan,nan,nan,nan,nan,nan,nan,nan,nan,1130.090613860637,1583.8087269109674,nan,1583.9920977011789,nan,nan,nan,nan
1,348,1,1,1.0,1.0,0.29522974067367613,0,2,6,8,4,5,1,nan,nan,nan,nan,nan,nan,nan,nan,nan,nan,nan,nan,0.0,nan,nan,nan,nan,nan,nan,nan,nan,nan,nan,nan,nan,nan,nan,nan,nan,nan,nan,1130.090613860637,1584.808857770171,nan,1585.1040875108447,nan,nan,nan,nan
1,349,1,1,1.0,1.0,0.2630651784129441,0,3,4,0,7,6,8,nan,nan,nan,nan,nan,nan,nan,nan,nan,nan,nan,nan,0.0,nan,nan,nan,nan,nan,nan,nan,nan,nan,nan,nan,nan,nan,nan,nan,nan,nan,nan,1130.090613860637,1585.808981501963,nan,1586.072046680376,nan,nan,nan,nan
1,350,1,1,1.0,1.0,0.22292989469133317,0,1,2,6,0,5,3,nan,nan,nan,nan,nan,nan,nan,nan,nan,nan,nan,nan,0.0,nan,nan,nan,nan,nan,nan,nan,nan,nan,nan,nan,nan,nan,nan,nan,nan,nan,nan,1130.090613860637,1586.8091112207621,nan,1587.0320411154535,nan,nan,nan,nan
1,351,1,1,1.0,1.0,0.23080054740421474,0,7,1,2,6,8,0,nan,nan,nan,nan,nan,nan,nan,nan,nan,nan,nan,nan,0.0,nan,nan,nan,nan,nan,nan,nan,nan,nan,nan,nan,nan,nan,nan,nan,nan,nan,nan,1130.090613860637,1587.8092152809259,nan,1588.04001582833,nan,nan,nan,nan
1,352,0,0,1.0,0.0,0.2546294645871967,0,2,8,4,5,3,1,nan,nan,nan,nan,nan,nan,nan,nan,nan,nan,nan,nan,0.0,nan,nan,nan,nan,nan,nan,nan,nan,nan,nan,nan,nan,nan,nan,nan,nan,nan,nan,1130.090613860637,1588.80936638196,nan,1589.0639958465472,nan,nan,nan,nan
1,353,1,1,1.0,1.0,0.23046470410190523,1,0,1,8,3,6,7,1.0,1.0,1.0,1.0,1.0,1.0,0.0,1.0,0.0,0.0,0.0,0.0,1.0,1.0,1.0,4.0,4.0,8.0,8.0,2.0,1.0,6.0,5.0,4.0,3.0,2.193304399959743,1.4415018074214458,4.631453189998865,4.103774760384113,3.2643560944125056,2.784124242607504,1130.090613860637,1589.8094941051677,1590.6179116866551,1590.0399588092696,1596.3019685612526,1597.2996914971154,1591.6347135507967,1596.293636622373
1,354,0,0,0.0,1.0,0.40165104949846864,0,6,7,5,8,0,4,nan,nan,nan,nan,nan,nan,nan,nan,nan,nan,nan,nan,0.0,nan,nan,nan,nan,nan,nan,nan,nan,nan,nan,nan,nan,nan,nan,nan,nan,nan,nan,1130.090613860637,1597.502147772815,nan,1597.9037988223135,nan,nan,nan,nan
1,355,1,1,1.0,1.0,0.45748544530943036,1,8,1,6,7,3,0,1.0,1.0,1.0,1.0,1.0,1.0,0.0,0.0,1.0,0.0,0.0,0.0,1.0,7.0,8.0,6.0,8.0,8.0,7.0,3.0,2.0,1.0,6.0,5.0,4.0,2.9792715047951788,2.5078266055788845,1.9415204811375588,4.594890732550994,4.059336518170312,3.579524613218382,1130.090613860637,1598.5022743553855,1599.3107024857309,1598.9597598006949,1604.953081420157,1605.9575317732524,1600.3191518841777,1604.944749766728
1,356,1,1,1.0,1.0,0.6140041572507471,1,6,8,0,1,5,2,1.0,1.0,1.0,1.0,1.0,1.0,0.0,0.0,0.0,1.0,0.0,0.0,1.0,3.0,4.0,5.0,1.0,3.0,3.0,3.0,2.0,1.0,6.0,5.0,4.0,2.976003446150571,2.559300168417394,1.8804015410132706,5.223462739493698,4.3836383814923465,3.7753398560453206,1130.090613860637,1606.1615968469996,1606.970011292491,1606.7756010042503,1613.2374797828961,1614.2409157634247,1607.9784931920003,1613.2291347298305
1,357,1,1,nan,nan,nan,0,3,5,4,0,7,6,nan,nan,nan,nan,nan,nan,nan,nan,nan,nan,nan,nan,0.0,nan,nan,nan,nan,nan,nan,nan,nan,nan,nan,nan,nan,nan,nan,nan,nan,nan,nan,1130.090613860637,1614.4459852313157,nan,nan,nan,nan,nan,nan
1,358,1,1,1.0,1.0,0.4092203557956964,0,2,0,3,6,4,1,nan,nan,nan,nan,nan,nan,nan,nan,nan,nan,nan,nan,0.0,nan,nan,nan,nan,nan,nan,nan,nan,nan,nan,nan,nan,nan,nan,nan,nan,nan,nan,1130.090613860637,1615.4461069675162,nan,1615.855327323312,nan,nan,nan,nan
1,359,1,1,1.0,1.0,0.4007692467421293,0,1,7,6,5,0,4,nan,nan,nan,nan,nan,nan,nan,nan,nan,nan,nan,nan,0.0,nan,nan,nan,nan,nan,nan,nan,nan,nan,nan,nan,nan,nan,nan,nan,nan,nan,nan,1130.090613860637,1616.4545706207864,nan,1616.8553398675285,nan,nan,nan,nan
1,360,1,1,1.0,1.0,0.34462523669935763,0,6,8,4,1,2,5,nan,nan,nan,nan,nan,nan,nan,nan,nan,nan,nan,nan,0.0,nan,nan,nan,nan,nan,nan,nan,nan,nan,nan,nan,nan,nan,nan,nan,nan,nan,nan,1130.090613860637,1617.454700909555,nan,1617.7993261462543,nan,nan,nan,nan
1,361,1,1,1.0,1.0,0.2564808800816536,0,1,0,2,5,4,7,nan,nan,nan,nan,nan,nan,nan,nan,nan,nan,nan,nan,0.0,nan,nan,nan,nan,nan,nan,nan,nan,nan,nan,nan,nan,nan,nan,nan,nan,nan,nan,1130.090613860637,1618.454824641347,nan,1618.7113055214286,nan,nan,nan,nan
1,362,1,1,1.0,1.0,0.3363001402467489,0,6,7,1,8,0,4,nan,nan,nan,nan,nan,nan,nan,nan,nan,nan,nan,nan,0.0,nan,nan,nan,nan,nan,nan,nan,nan,nan,nan,nan,nan,nan,nan,nan,nan,nan,nan,1130.090613860637,1619.4549631981645,nan,1619.7912633384112,nan,nan,nan,nan
1,363,0,0,1.0,0.0,0.26415424630977213,0,3,5,8,6,2,0,nan,nan,nan,nan,nan,nan,nan,nan,nan,nan,nan,nan,0.0,nan,nan,nan,nan,nan,nan,nan,nan,nan,nan,nan,nan,nan,nan,nan,nan,nan,nan,1130.090613860637,1620.455085789552,nan,1620.7192400358617,nan,nan,nan,nan
1,364,1,1,1.0,1.0,0.2160205862019211,0,4,7,6,0,1,2,nan,nan,nan,nan,nan,nan,nan,nan,nan,nan,nan,nan,0.0,nan,nan,nan,nan,nan,nan,nan,nan,nan,nan,nan,nan,nan,nan,nan,nan,nan,nan,1130.090613860637,1621.4552103767637,nan,1621.6712309629656,nan,nan,nan,nan
1,365,1,1,1.0,1.0,0.11987528763711452,0,0,3,1,5,6,8,nan,nan,nan,nan,nan,nan,nan,nan,nan,nan,nan,nan,0.0,nan,nan,nan,nan,nan,nan,nan,nan,nan,nan,nan,nan,nan,nan,nan,nan,nan,nan,1130.090613860637,1622.4553398103453,nan,1622.5752150979824,nan,nan,nan,nan
1,366,1,1,1.0,1.0,0.07963822432793677,0,5,4,6,0,3,1,nan,nan,nan,nan,nan,nan,nan,nan,nan,nan,nan,nan,0.0,nan,nan,nan,nan,nan,nan,nan,nan,nan,nan,nan,nan,nan,nan,nan,nan,nan,nan,1130.090613860637,1623.4555693129078,nan,1623.5352075372357,nan,nan,nan,nan
1,367,1,1,1.0,1.0,0.45551771065220237,0,0,7,1,3,4,8,nan,nan,nan,nan,nan,nan,nan,nan,nan,nan,nan,nan,0.0,nan,nan,nan,nan,nan,nan,nan,nan,nan,nan,nan,nan,nan,nan,nan,nan,nan,nan,1130.090613860637,1624.4555978225544,nan,1624.9111155332066,nan,nan,nan,nan
1,368,1,1,1.0,1.0,0.2634047279134393,0,2,5,8,1,6,3,nan,nan,nan,nan,nan,nan,nan,nan,nan,nan,nan,nan,0.0,nan,nan,nan,nan,nan,nan,nan,nan,nan,nan,nan,nan,nan,nan,nan,nan,nan,nan,1130.090613860637,1625.4557272563688,nan,1625.7191319842823,nan,nan,nan,nan
1,369,1,1,1.0,1.0,0.17525096307508647,0,7,4,2,0,3,6,nan,nan,nan,nan,nan,nan,nan,nan,nan,nan,nan,nan,0.0,nan,nan,nan,nan,nan,nan,nan,nan,nan,nan,nan,nan,nan,nan,nan,nan,nan,nan,1130.090613860637,1626.4558564049657,nan,1626.6311073680408,nan,nan,nan,nan
1,370,0,0,1.0,0.0,0.12710989057086408,0,6,1,3,4,8,5,nan,nan,nan,nan,nan,nan,nan,nan,nan,nan,nan,nan,0.0,nan,nan,nan,nan,nan,nan,nan,nan,nan,nan,nan,nan,nan,nan,nan,nan,nan,nan,1130.090613860637,1627.455983842956,nan,1627.5830937335268,nan,nan,nan,nan
1,371,1,1,1.0,1.0,0.3909231617581099,0,3,8,7,5,2,6,nan,nan,nan,nan,nan,nan,nan,nan,nan,nan,nan,nan,0.0,nan,nan,nan,nan,nan,nan,nan,nan,nan,nan,nan,nan,nan,nan,nan,nan,nan,nan,1130.090613860637,1628.456106719328,nan,1628.8470298810862,nan,nan,nan,nan
1,372,1,1,1.0,1.0,0.23084701830521226,0,6,0,1,2,8,4,nan,nan,nan,nan,nan,nan,nan,nan,nan,nan,nan,nan,0.0,nan,nan,nan,nan,nan,nan,nan,nan,nan,nan,nan,nan,nan,nan,nan,nan,nan,nan,1130.090613860637,1629.456203081878,nan,1629.6870501001831,nan,nan,nan,nan
1,373,1,1,1.0,1.0,0.21465982170775533,0,5,1,0,8,3,2,nan,nan,nan,nan,nan,nan,nan,nan,nan,nan,nan,nan,0.0,nan,nan,nan,nan,nan,nan,nan,nan,nan,nan,nan,nan,nan,nan,nan,nan,nan,nan,1130.090613860637,1630.4563692931551,nan,1630.671029114863,nan,nan,nan,nan
1,374,1,1,1.0,1.0,0.2225088074337691,0,4,2,3,0,1,8,nan,nan,nan,nan,nan,nan,nan,nan,nan,nan,nan,nan,0.0,nan,nan,nan,nan,nan,nan,nan,nan,nan,nan,nan,nan,nan,nan,nan,nan,nan,nan,1130.090613860637,1631.4564927397296,nan,1631.6790015471634,nan,nan,nan,nan
1,375,1,1,1.0,1.0,0.17436288832686841,0,7,3,2,8,6,4,nan,nan,nan,nan,nan,nan,nan,nan,nan,nan,nan,nan,0.0,nan,nan,nan,nan,nan,nan,nan,nan,nan,nan,nan,nan,nan,nan,nan,nan,nan,nan,1130.090613860637,1632.4566235989332,nan,1632.63098648726,nan,nan,nan,nan
1,376,1,1,1.0,1.0,0.14221343607641757,0,0,6,5,4,2,1,nan,nan,nan,nan,nan,nan,nan,nan,nan,nan,nan,nan,0.0,nan,nan,nan,nan,nan,nan,nan,nan,nan,nan,nan,nan,nan,nan,nan,nan,nan,nan,1130.090613860637,1633.4567453351337,nan,1633.5989587712102,nan,nan,nan,nan
1,377,1,1,1.0,1.0,0.05405739042907953,0,5,3,7,1,8,4,nan,nan,nan,nan,nan,nan,nan,nan,nan,nan,nan,nan,0.0,nan,nan,nan,nan,nan,nan,nan,nan,nan,nan,nan,nan,nan,nan,nan,nan,nan,nan,1130.090613860637,1634.4568793303333,nan,1634.5109367207624,nan,nan,nan,nan
1,378,1,1,1.0,1.0,0.3818679335527122,0,6,4,3,7,2,8,nan,nan,nan,nan,nan,nan,nan,nan,nan,nan,nan,nan,0.0,nan,nan,nan,nan,nan,nan,nan,nan,nan,nan,nan,nan,nan,nan,nan,nan,nan,nan,1130.090613860637,1635.456999355927,nan,1635.8388672894798,nan,nan,nan,nan
1,379,1,1,1.0,1.0,0.24576268531382084,0,8,7,5,1,6,4,nan,nan,nan,nan,nan,nan,nan,nan,nan,nan,nan,nan,0.0,nan,nan,nan,nan,nan,nan,nan,nan,nan,nan,nan,nan,nan,nan,nan,nan,nan,nan,1130.090613860637,1636.4571322107222,nan,1636.702894896036,nan,nan,nan,nan
1,380,1,1,1.0,1.0,0.1896001440472901,0,3,0,1,2,8,6,nan,nan,nan,nan,nan,nan,nan,nan,nan,nan,nan,nan,0.0,nan,nan,nan,nan,nan,nan,nan,nan,nan,nan,nan,nan,nan,nan,nan,nan,nan,nan,1130.090613860637,1637.4572639251128,nan,1637.64686406916,nan,nan,nan,nan
1,381,1,1,1.0,1.0,0.1894610170274973,0,2,7,0,6,5,3,nan,nan,nan,nan,nan,nan,nan,nan,nan,nan,nan,nan,0.0,nan,nan,nan,nan,nan,nan,nan,nan,nan,nan,nan,nan,nan,nan,nan,nan,nan,nan,1130.090613860637,1638.4573810996953,nan,1638.6468421167228,nan,nan,nan,nan
1,382,1,1,1.0,1.0,0.18128616618923843,1,6,1,4,8,3,2,1.0,1.0,1.0,1.0,1.0,1.0,0.0,0.0,1.0,0.0,0.0,0.0,1.0,3.0,2.0,4.0,7.0,7.0,7.0,4.0,3.0,2.0,1.0,6.0,5.0,3.4699769385624677,2.8952747287694365,2.4404349769465625,1.862858711509034,4.382071207277477,3.886002827435732,1130.090613860637,1639.457523362944,1640.2659395190421,1639.6388095291331,1645.7082911983598,1646.7193914218806,1641.2910570714157,1645.6999589744955
1,383,1,1,1.0,1.0,0.17753629479557276,0,2,6,0,4,1,7,nan,nan,nan,nan,nan,nan,nan,nan,nan,nan,nan,nan,0.0,nan,nan,nan,nan,nan,nan,nan,nan,nan,nan,nan,nan,nan,nan,nan,nan,nan,nan,1130.090613860637,1646.9251283004414,nan,1647.102664595237,nan,nan,nan,nan
