block,trial,freq_trials,correct_response,actual_response,acc,rts,probe_trials,fast_rt_trigger,slow_rt_trigger,rt_triggered,rts_runningavg,rts_runningstd,rts_runningfastthresh,rts_runningslowthresh,rts_runningstd,rts_trailingavg,trials_colorind0,trials_colorind1,trials_colorind2,trials_colorind3,trials_colorind4,trials_colorind5,wholereport_resp0,wholereport_resp1,wholereport_resp2,wholereport_resp3,wholereport_resp4,wholereport_resp5,wholereport_respacc0,wholereport_respacc1,wholereport_respacc2,wholereport_respacc3,wholereport_respacc4,wholereport_respacc5,wholereport_respacc_total,wholereport_respcolorind0,wholereport_respcolorind1,wholereport_respcolorind2,wholereport_respcolorind3,wholereport_respcolorind4,wholereport_respcolorind5,wholereport_resporder0,wholereport_resporder1,wholereport_resporder2,wholereport_resporder3,wholereport_resporder4,wholereport_resporder5,wholereport_rts0,wholereport_rts1,wholereport_rts2,wholereport_rts3,wholereport_rts4,wholereport_rts5,time_blockstart,time_encarray_offset,time_encarray_onset,time_response,time_iti_offset,time_iti_onset,time_memprobe_offset,time_memprobe_onset
1,1,1,1,nan,nan,nan,0,nan,nan,nan,nan,nan,nan,nan,nan,nan,2,0,7,8,4,3,nan,nan,nan,nan,nan,nan,nan,nan,nan,nan,nan,nan,0.0,nan,nan,nan,nan,nan,nan,nan,nan,nan,nan,nan,nan,nan,nan,nan,nan,nan,nan,832.2737237878918,833.2930769785611,nan,nan,nan,nan,nan,nan
1,2,1,1,1.0,1.0,0.5697922817024619,0,nan,nan,nan,nan,nan,nan,nan,nan,nan,5,2,0,4,8,3,nan,nan,nan,nan,nan,nan,nan,nan,nan,nan,nan,nan,0.0,nan,nan,nan,nan,nan,nan,nan,nan,nan,nan,nan,nan,nan,nan,nan,nan,nan,nan,832.2737237878918,834.3198364003516,nan,834.8896286820541,nan,nan,nan,nan
1,3,1,1,1.0,1.0,0.514365003633543,0,nan,nan,nan,nan,nan,nan,nan,nan,nan,8,3,1,2,6,7,nan,nan,nan,nan,nan,nan,nan,nan,nan,nan,nan,nan,0.0,nan,nan,nan,nan,nan,nan,nan,nan,nan,nan,nan,nan,nan,nan,nan,nan,nan,nan,832.2737237878918,835.3433303293689,nan,835.8576953330024,nan,nan,nan,nan
1,4,1,1,1.0,1.0,0.4811370323815254,0,nan,nan,nan,nan,nan,nan,nan,nan,nan,4,2,0,5,3,6,nan,nan,nan,nan,nan,nan,nan,nan,nan,nan,nan,nan,0.0,nan,nan,nan,nan,nan,nan,nan,nan,nan,nan,nan,nan,nan,nan,nan,nan,nan,nan,832.2737237878918,836.3684618514095,nan,836.849598883791,nan,nan,nan,nan
1,5,1,1,1.0,1.0,0.3763193899395674,0,nan,nan,nan,nan,nan,nan,nan,nan,nan,8,4,3,2,7,5,nan,nan,nan,nan,nan,nan,nan,nan,nan,nan,nan,nan,0.0,nan,nan,nan,nan,nan,nan,nan,nan,nan,nan,nan,nan,nan,nan,nan,nan,nan,nan,832.2737237878918,837.385255447691,nan,837.7615748376305,nan,nan,nan,nan
1,6,1,1,1.0,1.0,0.4155149964918792,0,nan,nan,nan,nan,nan,nan,nan,nan,nan,5,2,4,6,1,3,nan,nan,nan,nan,nan,nan,nan,nan,nan,nan,nan,nan,0.0,nan,nan,nan,nan,nan,nan,nan,nan,nan,nan,nan,nan,nan,nan,nan,nan,nan,nan,832.2737237878918,838.4020382103138,nan,838.8175532068057,nan,nan,nan,nan
1,7,0,0,0.0,1.0,0.4947130320645101,0,nan,nan,nan,nan,nan,nan,nan,nan,nan,7,4,8,5,6,2,nan,nan,nan,nan,nan,nan,nan,nan,nan,nan,nan,nan,0.0,nan,nan,nan,nan,nan,nan,nan,nan,nan,nan,nan,nan,nan,nan,nan,nan,nan,nan,832.2737237878918,839.4188312364026,nan,839.9135442684671,nan,nan,nan,nan
1,8,1,1,1.0,1.0,0.5015430836069754,0,nan,nan,nan,nan,nan,nan,nan,nan,nan,2,6,1,3,8,4,nan,nan,nan,nan,nan,nan,nan,nan,nan,nan,nan,nan,0.0,nan,nan,nan,nan,nan,nan,nan,nan,nan,nan,nan,nan,nan,nan,nan,nan,nan,nan,832.2737237878918,840.443964469021,nan,840.945507552628,nan,nan,nan,nan
1,9,1,1,1.0,1.0,0.6207409823334729,0,nan,nan,nan,nan,nan,nan,nan,nan,nan,3,1,7,0,2,8,nan,nan,nan,nan,nan,nan,nan,nan,nan,nan,nan,nan,0.0,nan,nan,nan,nan,nan,nan,nan,nan,nan,nan,nan,nan,nan,nan,nan,nan,nan,nan,832.2737237878918,841.4607500826066,nan,842.0814910649401,nan,nan,nan,nan
1,10,1,1,1.0,1.0,0.5319314959258463,0,nan,nan,nan,nan,nan,nan,nan,nan,nan,4,3,8,7,5,6,nan,nan,nan,nan,nan,nan,nan,nan,nan,nan,nan,nan,0.0,nan,nan,nan,nan,nan,nan,nan,nan,nan,nan,nan,nan,nan,nan,nan,nan,nan,nan,832.2737237878918,842.4775391173475,nan,843.0094706132734,nan,nan,nan,nan
1,11,1,1,1.0,1.0,0.531105001814467,0,nan,nan,nan,nan,nan,nan,nan,nan,nan,5,7,2,8,3,0,nan,nan,nan,nan,nan,nan,nan,nan,nan,nan,nan,nan,0.0,nan,nan,nan,nan,nan,nan,nan,nan,nan,nan,nan,nan,nan,nan,nan,nan,nan,nan,832.2737237878918,843.4943347093031,nan,844.0254397111175,nan,nan,nan,nan
1,12,0,0,0.0,1.0,0.5223285979791399,0,nan,nan,nan,nan,nan,nan,nan,nan,nan,8,2,5,0,7,1,nan,nan,nan,nan,nan,nan,nan,nan,nan,nan,nan,nan,0.0,nan,nan,nan,nan,nan,nan,nan,nan,nan,nan,nan,nan,nan,nan,nan,nan,nan,nan,832.2737237878918,844.5111046425934,nan,845.0334332405725,nan,nan,nan,nan
1,13,1,1,1.0,1.0,0.4651479777978693,0,nan,nan,nan,nan,nan,nan,nan,nan,nan,0,6,3,1,2,4,nan,nan,nan,nan,nan,nan,nan,nan,nan,nan,nan,nan,0.0,nan,nan,nan,nan,nan,nan,nan,nan,nan,nan,nan,nan,nan,nan,nan,nan,nan,nan,832.2737237878918,845.5362489939664,nan,846.0013969717643,nan,nan,nan,nan
1,14,1,1,1.0,1.0,0.4880032911514718,0,nan,nan,nan,nan,nan,nan,nan,nan,nan,5,2,0,4,8,7,nan,nan,nan,nan,nan,nan,nan,nan,nan,nan,nan,nan,0.0,nan,nan,nan,nan,nan,nan,nan,nan,nan,nan,nan,nan,nan,nan,nan,nan,nan,nan,832.2737237878918,846.5613816563923,nan,847.0493849475438,nan,nan,nan,nan
1,15,1,1,1.0,1.0,0.43886352640697623,0,nan,nan,nan,nan,nan,nan,nan,nan,nan,7,4,6,5,3,2,nan,nan,nan,nan,nan,nan,nan,nan,nan,nan,nan,nan,0.0,nan,nan,nan,nan,nan,nan,nan,nan,nan,nan,nan,nan,nan,nan,nan,nan,nan,nan,832.2737237878918,847.586492651501,nan,848.025356177908,nan,nan,nan,nan
1,16,1,1,1.0,1.0,0.5740202595118262,0,nan,nan,nan,nan,nan,nan,nan,nan,nan,6,3,2,7,1,0,nan,nan,nan,nan,nan,nan,nan,nan,nan,nan,nan,nan,0.0,nan,nan,nan,nan,nan,nan,nan,nan,nan,nan,nan,nan,nan,nan,nan,nan,nan,nan,832.2737237878918,848.603306489618,nan,849.1773267491299,nan,nan,nan,nan
1,17,1,1,1.0,1.0,0.5491969265481202,0,nan,nan,nan,nan,nan,nan,nan,nan,nan,5,8,4,3,2,7,nan,nan,nan,nan,nan,nan,nan,nan,nan,nan,nan,nan,0.0,nan,nan,nan,nan,nan,nan,nan,nan,nan,nan,nan,nan,nan,nan,nan,nan,nan,nan,832.2737237878918,849.6200986604181,nan,850.1692955869662,nan,nan,nan,nan
1,18,1,1,1.0,1.0,0.46836699987761676,0,nan,nan,nan,nan,nan,nan,nan,nan,nan,0,3,6,1,4,2,nan,nan,nan,nan,nan,nan,nan,nan,nan,nan,nan,nan,0.0,nan,nan,nan,nan,nan,nan,nan,nan,nan,nan,nan,nan,nan,nan,nan,nan,nan,nan,832.2737237878918,850.6369048009358,nan,851.1052718008134,nan,nan,nan,nan
1,19,1,1,1.0,1.0,0.5632245187359786,0,nan,nan,nan,nan,nan,nan,nan,nan,nan,6,7,8,0,2,1,nan,nan,nan,nan,nan,nan,nan,nan,nan,nan,nan,nan,0.0,nan,nan,nan,nan,nan,nan,nan,nan,nan,nan,nan,nan,nan,nan,nan,nan,nan,nan,832.2737237878918,851.6620223532589,nan,852.2252468719948,nan,nan,nan,nan
1,20,1,1,1.0,1.0,0.5784284181690964,0,nan,nan,nan,nan,nan,nan,nan,nan,nan,8,1,5,3,6,4,nan,nan,nan,nan,nan,nan,nan,nan,nan,nan,nan,nan,0.0,nan,nan,nan,nan,nan,nan,nan,nan,nan,nan,nan,nan,nan,nan,nan,nan,nan,nan,832.2737237878918,852.6788028351114,nan,853.2572312532805,nan,nan,nan,nan
1,21,0,0,0.0,1.0,0.5216181380533271,0,nan,nan,nan,nan,nan,nan,nan,nan,nan,4,3,8,1,0,2,nan,nan,nan,nan,nan,nan,nan,nan,nan,nan,nan,nan,0.0,nan,nan,nan,nan,nan,nan,nan,nan,nan,nan,nan,nan,nan,nan,nan,nan,nan,nan,832.2737237878918,853.6955970015854,nan,854.2172151396387,nan,nan,nan,nan
1,22,1,1,1.0,1.0,0.4808026144469295,0,nan,nan,nan,nan,nan,nan,nan,nan,nan,7,6,3,2,1,4,nan,nan,nan,nan,nan,nan,nan,nan,nan,nan,nan,nan,0.0,nan,nan,nan,nan,nan,nan,nan,nan,nan,nan,nan,nan,nan,nan,nan,nan,nan,nan,832.2737237878918,854.7123814747858,nan,855.1931840892328,nan,nan,nan,nan
1,23,1,1,1.0,1.0,0.43165543719942434,0,nan,nan,nan,nan,nan,nan,nan,nan,nan,3,1,0,4,6,2,nan,nan,nan,nan,nan,nan,nan,nan,nan,nan,nan,nan,0.0,nan,nan,nan,nan,nan,nan,nan,nan,nan,nan,nan,nan,nan,nan,nan,nan,nan,nan,832.2737237878918,855.7375149925006,nan,856.1691704297,nan,nan,nan,nan
1,24,1,1,1.0,1.0,0.3665129332500783,0,nan,nan,nan,nan,nan,nan,nan,nan,nan,4,7,5,6,1,0,nan,nan,nan,nan,nan,nan,nan,nan,nan,nan,nan,nan,0.0,nan,nan,nan,nan,nan,nan,nan,nan,nan,nan,nan,nan,nan,nan,nan,nan,nan,nan,832.2737237878918,856.7626405275194,nan,857.1291534607694,nan,nan,nan,nan
1,25,1,1,1.0,1.0,0.3173643305212863,0,nan,nan,nan,nan,nan,nan,nan,nan,nan,7,8,0,1,4,5,nan,nan,nan,nan,nan,nan,nan,nan,nan,nan,nan,nan,0.0,nan,nan,nan,nan,nan,nan,nan,nan,nan,nan,nan,nan,nan,nan,nan,nan,nan,nan,832.2737237878918,857.7877657774418,nan,858.1051301079631,nan,nan,nan,nan
1,26,1,1,1.0,1.0,0.4842115106482652,0,nan,nan,nan,nan,nan,nan,nan,nan,nan,3,2,6,0,1,4,nan,nan,nan,nan,nan,nan,nan,nan,nan,nan,nan,nan,0.0,nan,nan,nan,nan,nan,nan,nan,nan,nan,nan,nan,nan,nan,nan,nan,nan,nan,nan,832.2737237878918,858.8128924528457,nan,859.297103963494,nan,nan,nan,nan
1,27,1,1,1.0,1.0,0.43505948676397566,0,nan,nan,nan,nan,nan,nan,nan,nan,nan,7,6,4,8,5,0,nan,nan,nan,nan,nan,nan,nan,nan,nan,nan,nan,nan,0.0,nan,nan,nan,nan,nan,nan,nan,nan,nan,nan,nan,nan,nan,nan,nan,nan,nan,nan,832.2737237878918,859.8380145667093,nan,860.2730740534732,nan,nan,nan,nan
1,28,1,1,1.0,1.0,0.36190720287208933,0,nan,nan,nan,nan,nan,nan,nan,nan,nan,6,1,8,5,2,4,nan,nan,nan,nan,nan,nan,nan,nan,nan,nan,nan,nan,0.0,nan,nan,nan,nan,nan,nan,nan,nan,nan,nan,nan,nan,nan,nan,nan,nan,nan,nan,832.2737237878918,860.8631418123057,nan,861.2250490151778,nan,nan,nan,nan
1,29,1,1,1.0,1.0,0.4807435995173819,0,nan,nan,nan,nan,nan,nan,nan,nan,nan,4,6,5,1,3,7,nan,nan,nan,nan,nan,nan,nan,nan,nan,nan,nan,nan,0.0,nan,nan,nan,nan,nan,nan,nan,nan,nan,nan,nan,nan,nan,nan,nan,nan,nan,nan,832.2737237878918,861.8882776107905,nan,862.3690212103079,nan,nan,nan,nan
1,30,0,0,1.0,0.0,0.3436125746845846,0,nan,nan,0.0,nan,nan,nan,nan,nan,nan,6,2,7,3,8,5,nan,nan,nan,nan,nan,nan,nan,nan,nan,nan,nan,nan,0.0,nan,nan,nan,nan,nan,nan,nan,nan,nan,nan,nan,nan,nan,nan,nan,nan,nan,nan,832.2737237878918,862.9133908866693,nan,863.2570034613539,nan,nan,nan,nan
1,31,1,1,1.0,1.0,0.4944210934754665,0,nan,nan,nan,nan,nan,nan,nan,nan,nan,0,4,5,6,3,8,nan,nan,nan,nan,nan,nan,nan,nan,nan,nan,nan,nan,0.0,nan,nan,nan,nan,nan,nan,nan,nan,nan,nan,nan,nan,nan,nan,nan,nan,nan,nan,832.2737237878918,863.9385355231389,nan,864.4329566166143,nan,nan,nan,nan
1,32,1,1,1.0,1.0,0.5176393343915606,0,nan,nan,nan,nan,nan,nan,nan,nan,nan,7,5,6,2,0,1,nan,nan,nan,nan,nan,nan,nan,nan,nan,nan,nan,nan,0.0,nan,nan,nan,nan,nan,nan,nan,nan,nan,nan,nan,nan,nan,nan,nan,nan,nan,nan,832.2737237878918,864.9553274088425,nan,865.4729667432341,nan,nan,nan,nan
1,33,1,1,1.0,1.0,0.4684944379141598,0,nan,nan,nan,nan,nan,nan,nan,nan,nan,8,0,5,6,2,3,nan,nan,nan,nan,nan,nan,nan,nan,nan,nan,nan,nan,0.0,nan,nan,nan,nan,nan,nan,nan,nan,nan,nan,nan,nan,nan,nan,nan,nan,nan,nan,832.2737237878918,865.9804364082772,nan,866.4489308461914,nan,nan,nan,nan
1,34,1,1,1.0,1.0,0.4596396326021477,0,nan,nan,nan,nan,nan,nan,nan,nan,nan,4,6,2,3,7,5,nan,nan,nan,nan,nan,nan,nan,nan,nan,nan,nan,nan,0.0,nan,nan,nan,nan,nan,nan,nan,nan,nan,nan,nan,nan,nan,nan,nan,nan,nan,nan,832.2737237878918,866.9972576588978,nan,867.4568972914999,nan,nan,nan,nan
1,35,1,1,1.0,1.0,0.42654080996408084,0,nan,nan,nan,nan,nan,nan,nan,nan,nan,7,1,5,0,6,2,nan,nan,nan,nan,nan,nan,nan,nan,nan,nan,nan,nan,0.0,nan,nan,nan,nan,nan,nan,nan,nan,nan,nan,nan,nan,nan,nan,nan,nan,nan,nan,832.2737237878918,868.0223452761115,nan,868.4488860860756,nan,nan,nan,nan
1,36,1,1,1.0,1.0,0.3933767002786226,0,nan,nan,nan,nan,nan,nan,nan,nan,nan,0,6,4,5,8,1,nan,nan,nan,nan,nan,nan,nan,nan,nan,nan,nan,nan,0.0,nan,nan,nan,nan,nan,nan,nan,nan,nan,nan,nan,nan,nan,nan,nan,nan,nan,nan,832.2737237878918,869.0474927635437,nan,869.4408694638223,nan,nan,nan,nan
1,37,1,1,1.0,1.0,0.3285423854063083,0,nan,nan,nan,nan,nan,nan,nan,nan,nan,2,1,0,3,5,4,nan,nan,nan,nan,nan,nan,nan,nan,nan,nan,nan,nan,0.0,nan,nan,nan,nan,nan,nan,nan,nan,nan,nan,nan,nan,nan,nan,nan,nan,nan,nan,832.2737237878918,870.0642994742539,nan,870.3928418596602,nan,nan,nan,nan
1,38,1,1,1.0,1.0,0.32740228538887095,0,nan,nan,nan,nan,nan,nan,nan,nan,nan,7,5,4,2,0,3,nan,nan,nan,nan,nan,nan,nan,nan,nan,nan,nan,nan,0.0,nan,nan,nan,nan,nan,nan,nan,nan,nan,nan,nan,nan,nan,nan,nan,nan,nan,nan,832.2737237878918,871.0894113246513,nan,871.4168136100402,nan,nan,nan,nan
1,39,1,1,1.0,1.0,0.36629084324908945,0,nan,nan,nan,nan,nan,nan,nan,nan,nan,3,8,2,1,6,0,nan,nan,nan,nan,nan,nan,nan,nan,nan,nan,nan,nan,0.0,nan,nan,nan,nan,nan,nan,nan,nan,nan,nan,nan,nan,nan,nan,nan,nan,nan,nan,832.2737237878918,872.1145066394647,nan,872.4807974827138,nan,nan,nan,nan
1,40,1,1,1.0,1.0,0.3811027352992369,0,nan,nan,nan,nan,nan,nan,nan,nan,nan,6,3,7,0,8,5,nan,nan,nan,nan,nan,nan,nan,nan,nan,nan,nan,nan,0.0,nan,nan,nan,nan,nan,nan,nan,nan,nan,nan,nan,nan,nan,nan,nan,nan,nan,nan,832.2737237878918,873.139661254304,nan,873.5207639896032,nan,nan,nan,nan
1,41,1,1,1.0,1.0,0.39625360682430255,0,nan,nan,nan,nan,nan,nan,nan,nan,nan,8,5,2,6,1,4,nan,nan,nan,nan,nan,nan,nan,nan,nan,nan,nan,nan,0.0,nan,nan,nan,nan,nan,nan,nan,nan,nan,nan,nan,nan,nan,nan,nan,nan,nan,nan,832.2737237878918,874.1564748073249,nan,874.5527284141492,nan,nan,nan,nan
1,42,1,1,1.0,1.0,0.3074501074386262,0,nan,nan,nan,nan,nan,nan,nan,nan,nan,2,0,1,3,8,6,nan,nan,nan,nan,nan,nan,nan,nan,nan,nan,nan,nan,0.0,nan,nan,nan,nan,nan,nan,nan,nan,nan,nan,nan,nan,nan,nan,nan,nan,nan,nan,832.2737237878918,875.1732561444662,nan,875.4807062519048,nan,nan,nan,nan
1,43,1,1,1.0,1.0,0.2826504374661454,0,nan,nan,nan,nan,nan,nan,nan,nan,nan,3,1,2,4,0,5,nan,nan,nan,nan,nan,nan,nan,nan,nan,nan,nan,nan,0.0,nan,nan,nan,nan,nan,nan,nan,nan,nan,nan,nan,nan,nan,nan,nan,nan,nan,nan,832.2737237878918,876.1900332051634,nan,876.4726836426296,nan,nan,nan,nan
1,44,1,1,1.0,1.0,0.22582333666991872,0,nan,nan,nan,nan,nan,nan,nan,nan,nan,2,5,3,1,4,7,nan,nan,nan,nan,nan,nan,nan,nan,nan,nan,nan,nan,0.0,nan,nan,nan,nan,nan,nan,nan,nan,nan,nan,nan,nan,nan,nan,nan,nan,nan,nan,832.2737237878918,877.2068379201999,nan,877.4326612568698,nan,nan,nan,nan
1,45,1,1,1.0,1.0,0.17701485380121085,0,nan,nan,nan,nan,nan,nan,nan,nan,nan,6,0,7,3,1,4,nan,nan,nan,nan,nan,nan,nan,nan,nan,nan,nan,nan,0.0,nan,nan,nan,nan,nan,nan,nan,nan,nan,nan,nan,nan,nan,nan,nan,nan,nan,nan,832.2737237878918,878.2236263847483,nan,878.4006412385495,nan,nan,nan,nan
1,46,1,1,1.0,1.0,0.21618594207370734,0,nan,nan,nan,nan,nan,nan,nan,nan,nan,4,8,0,2,5,6,nan,nan,nan,nan,nan,nan,nan,nan,nan,nan,nan,nan,0.0,nan,nan,nan,nan,nan,nan,nan,nan,nan,nan,nan,nan,nan,nan,nan,nan,nan,nan,832.2737237878918,879.24042454257,nan,879.4566104846438,nan,nan,nan,nan
1,47,1,1,1.0,1.0,0.21537227729504593,0,nan,nan,nan,nan,nan,nan,nan,nan,nan,2,4,6,3,8,0,nan,nan,nan,nan,nan,nan,nan,nan,nan,nan,nan,nan,0.0,nan,nan,nan,nan,nan,nan,nan,nan,nan,nan,nan,nan,nan,nan,nan,nan,nan,nan,832.2737237878918,880.2572241258733,nan,880.4725964031684,nan,nan,nan,nan
1,48,1,1,1.0,1.0,0.2385468984803083,0,nan,nan,nan,nan,nan,nan,nan,nan,nan,3,0,5,2,6,1,nan,nan,nan,nan,nan,nan,nan,nan,nan,nan,nan,nan,0.0,nan,nan,nan,nan,nan,nan,nan,nan,nan,nan,nan,nan,nan,nan,nan,nan,nan,nan,832.2737237878918,881.2740145860957,nan,881.512561484576,nan,nan,nan,nan
1,49,1,1,1.0,1.0,0.21374295206351235,0,nan,nan,nan,nan,nan,nan,nan,nan,nan,5,4,8,0,7,2,nan,nan,nan,nan,nan,nan,nan,nan,nan,nan,nan,nan,0.0,nan,nan,nan,nan,nan,nan,nan,nan,nan,nan,nan,nan,nan,nan,nan,nan,nan,nan,832.2737237878918,882.2908044761257,nan,882.5045474281892,nan,nan,nan,nan
1,50,1,1,1.0,1.0,0.364920670534957,1,nan,nan,nan,nan,nan,nan,nan,nan,nan,6,5,7,2,3,0,1.0,1.0,1.0,1.0,1.0,1.0,1.0,0.0,0.0,0.0,0.0,0.0,1.0,6.0,6.0,6.0,7.0,2.0,6.0,4.0,5.0,6.0,1.0,2.0,3.0,4.320905511395722,5.000641181530227,6.1041031911681785,1.8325626705766354,2.8485297727470424,3.5368973029037534,832.2737237878918,883.3075929406741,884.1159925612678,883.6725136112091,891.2752037226733,892.2804420816933,885.1327921445711,891.2668686478767
1,51,1,1,1.0,1.0,0.49993884684818113,0,nan,nan,nan,nan,nan,nan,nan,nan,nan,5,2,0,1,8,3,nan,nan,nan,nan,nan,nan,nan,nan,nan,nan,nan,nan,0.0,nan,nan,nan,nan,nan,nan,nan,nan,nan,nan,nan,nan,nan,nan,nan,nan,nan,nan,832.2737237878918,892.5003781802134,nan,893.0003170270616,nan,nan,nan,nan
1,52,1,1,1.0,1.0,0.5387795085339349,0,nan,nan,nan,nan,nan,nan,nan,nan,nan,1,5,4,8,3,2,nan,nan,nan,nan,nan,nan,nan,nan,nan,nan,nan,nan,0.0,nan,nan,nan,nan,nan,nan,nan,nan,nan,nan,nan,nan,nan,nan,nan,nan,nan,nan,832.2737237878918,893.525508561869,nan,894.0642880704029,nan,nan,nan,nan
1,53,1,1,1.0,1.0,0.47394832972054246,0,nan,nan,nan,nan,nan,nan,nan,nan,nan,6,7,5,3,4,1,nan,nan,nan,nan,nan,nan,nan,nan,nan,nan,nan,nan,0.0,nan,nan,nan,nan,nan,nan,nan,nan,nan,nan,nan,nan,nan,nan,nan,nan,nan,nan,832.2737237878918,894.542302728343,nan,895.0162510580635,nan,nan,nan,nan
1,54,0,0,0.0,1.0,0.497134354757236,0,nan,nan,nan,nan,nan,nan,nan,nan,nan,0,3,7,4,6,2,nan,nan,nan,nan,nan,nan,nan,nan,nan,nan,nan,nan,0.0,nan,nan,nan,nan,nan,nan,nan,nan,nan,nan,nan,nan,nan,nan,nan,nan,nan,nan,832.2737237878918,895.5591068731867,nan,896.0562412279439,nan,nan,nan,nan
1,55,1,1,1.0,1.0,0.4883342879306838,0,nan,nan,nan,nan,nan,nan,nan,nan,nan,6,8,0,7,5,4,nan,nan,nan,nan,nan,nan,nan,nan,nan,nan,nan,nan,0.0,nan,nan,nan,nan,nan,nan,nan,nan,nan,nan,nan,nan,nan,nan,nan,nan,nan,nan,832.2737237878918,896.5758944824463,nan,897.064228770377,nan,nan,nan,nan
1,56,1,1,1.0,1.0,0.49521936305518466,1,nan,nan,nan,nan,nan,nan,nan,nan,nan,1,6,5,0,7,8,1.0,1.0,1.0,1.0,1.0,1.0,0.0,0.0,0.0,1.0,1.0,0.0,2.0,2.0,2.0,2.0,0.0,7.0,5.0,4.0,5.0,6.0,2.0,1.0,3.0,6.179403960614536,7.034514325660211,7.753971034788265,2.9487490973137938,2.1313963131917717,5.059865656931606,832.2737237878918,897.6009766828306,898.4094222039255,898.0961960458858,907.218836197078,908.2232777119998,899.4262226425176,907.2105028328592
1,57,1,1,1.0,1.0,0.7558680654249201,0,nan,nan,nan,nan,nan,nan,nan,nan,nan,4,3,6,5,2,1,nan,nan,nan,nan,nan,nan,nan,nan,nan,nan,nan,nan,0.0,nan,nan,nan,nan,nan,nan,nan,nan,nan,nan,nan,nan,nan,nan,nan,nan,nan,nan,832.2737237878918,908.4440140757736,nan,909.1998821411985,nan,nan,nan,nan
1,58,1,1,1.0,1.0,0.7227783658679527,0,nan,nan,nan,nan,nan,nan,nan,nan,nan,1,2,0,4,3,8,nan,nan,nan,nan,nan,nan,nan,nan,nan,nan,nan,nan,0.0,nan,nan,nan,nan,nan,nan,nan,nan,nan,nan,nan,nan,nan,nan,nan,nan,nan,nan,832.2737237878918,909.4691424617552,nan,910.1919208276231,nan,nan,nan,nan
1,59,1,1,1.0,1.0,0.6896325023442387,0,nan,nan,nan,nan,nan,nan,nan,nan,nan,4,0,7,1,2,3,nan,nan,nan,nan,nan,nan,nan,nan,nan,nan,nan,nan,0.0,nan,nan,nan,nan,nan,nan,nan,nan,nan,nan,nan,nan,nan,nan,nan,nan,nan,nan,832.2737237878918,910.4942614395595,nan,911.1838939419038,nan,nan,nan,nan
1,60,0,0,1.0,0.0,0.6724808251371996,0,nan,nan,0.0,nan,nan,nan,nan,nan,nan,1,4,0,7,6,2,nan,nan,nan,nan,nan,nan,nan,nan,nan,nan,nan,nan,0.0,nan,nan,nan,nan,nan,nan,nan,nan,nan,nan,nan,nan,nan,nan,nan,nan,nan,nan,832.2737237878918,911.5193929616,nan,912.1918737867372,nan,nan,nan,nan
1,61,1,1,1.0,1.0,0.7514014620307989,0,nan,nan,nan,nan,nan,nan,nan,nan,nan,4,5,7,8,0,1,nan,nan,nan,nan,nan,nan,nan,nan,nan,nan,nan,nan,0.0,nan,nan,nan,nan,nan,nan,nan,nan,nan,nan,nan,nan,nan,nan,nan,nan,nan,nan,832.2737237878918,912.5445110841156,nan,913.2959125461464,nan,nan,nan,nan
1,62,1,1,1.0,1.0,0.470165387202087,0,nan,nan,nan,nan,nan,nan,nan,nan,nan,3,6,0,4,2,8,nan,nan,nan,nan,nan,nan,nan,nan,nan,nan,nan,nan,0.0,nan,nan,nan,nan,nan,nan,nan,nan,nan,nan,nan,nan,nan,nan,nan,nan,nan,nan,832.2737237878918,913.5696554354888,nan,914.0398208226909,nan,nan,nan,nan
1,63,1,1,1.0,1.0,0.4370189534856763,0,nan,nan,nan,nan,nan,nan,nan,nan,nan,0,7,2,1,4,5,nan,nan,nan,nan,nan,nan,nan,nan,nan,nan,nan,nan,0.0,nan,nan,nan,nan,nan,nan,nan,nan,nan,nan,nan,nan,nan,nan,nan,nan,nan,nan,832.2737237878918,914.5947843916631,nan,915.0318033451488,nan,nan,nan,nan
1,64,0,0,0.0,1.0,0.46788433187816736,0,nan,nan,nan,nan,nan,nan,nan,nan,nan,6,8,7,4,3,2,nan,nan,nan,nan,nan,nan,nan,nan,nan,nan,nan,nan,0.0,nan,nan,nan,nan,nan,nan,nan,nan,nan,nan,nan,nan,nan,nan,nan,nan,nan,nan,832.2737237878918,915.6198976675419,nan,916.08778199942,nan,nan,nan,nan
1,65,1,1,1.0,1.0,0.4427271511726758,1,nan,nan,nan,nan,nan,nan,nan,nan,nan,8,0,6,5,2,4,1.0,1.0,1.0,1.0,1.0,1.0,0.0,0.0,1.0,0.0,0.0,0.0,1.0,3.0,3.0,6.0,4.0,7.0,3.0,5.0,6.0,2.0,1.0,3.0,4.0,5.701546960916403,6.501372310936176,2.4550741007992656,1.6549006482234745,3.8701181182391338,4.926866532462327,832.2737237878918,916.6450320405452,917.4534379332572,917.0877591917179,925.0127227065216,926.0224975175242,918.470234950694,925.0043705259484
1,66,1,1,1.0,1.0,0.489309032106803,0,nan,nan,nan,nan,nan,nan,nan,nan,nan,0,7,5,4,8,2,nan,nan,nan,nan,nan,nan,nan,nan,nan,nan,nan,nan,0.0,nan,nan,nan,nan,nan,nan,nan,nan,nan,nan,nan,nan,nan,nan,nan,nan,nan,nan,832.2737237878918,926.2461780705653,nan,926.7354871026721,nan,nan,nan,nan
1,67,1,1,1.0,1.0,0.368486939882132,1,nan,nan,nan,nan,nan,nan,nan,nan,nan,8,2,0,5,4,6,1.0,1.0,1.0,1.0,1.0,1.0,0.0,0.0,0.0,0.0,0.0,1.0,1.0,1.0,6.0,5.0,0.0,5.0,6.0,2.0,6.0,5.0,1.0,4.0,3.0,3.8589814023143845,9.115150101765039,8.171830377977813,1.9799403407528189,6.132459437214266,5.252758377768032,832.2737237878918,927.2630164269624,928.0714160475563,927.6315033668445,938.2476651327536,939.2509674029468,929.0965472845007,938.2393326238237
1,68,1,1,1.0,1.0,0.5343328618789656,0,nan,nan,nan,nan,nan,nan,nan,nan,nan,5,6,1,8,0,4,nan,nan,nan,nan,nan,nan,nan,nan,nan,nan,nan,nan,0.0,nan,nan,nan,nan,nan,nan,nan,nan,nan,nan,nan,nan,nan,nan,nan,nan,nan,nan,832.2737237878918,939.4728470027972,nan,940.0071798646761,nan,nan,nan,nan
1,69,1,1,1.0,1.0,0.7495688631529447,0,nan,nan,nan,nan,nan,nan,nan,nan,nan,7,1,5,6,2,8,nan,nan,nan,nan,nan,nan,nan,nan,nan,nan,nan,nan,0.0,nan,nan,nan,nan,nan,nan,nan,nan,nan,nan,nan,nan,nan,nan,nan,nan,nan,nan,832.2737237878918,940.4896320461901,nan,941.239200909343,nan,nan,nan,nan
1,70,1,1,1.0,1.0,0.7007301600788196,0,nan,nan,nan,nan,nan,nan,nan,nan,nan,0,2,3,5,1,6,nan,nan,nan,nan,nan,nan,nan,nan,nan,nan,nan,nan,0.0,nan,nan,nan,nan,nan,nan,nan,nan,nan,nan,nan,nan,nan,nan,nan,nan,nan,nan,832.2737237878918,941.5064324847822,nan,942.207162644861,nan,nan,nan,nan
1,71,1,1,1.0,1.0,0.7319188376509373,0,nan,nan,nan,nan,nan,nan,nan,nan,nan,5,3,6,1,8,2,nan,nan,nan,nan,nan,nan,nan,nan,nan,nan,nan,nan,0.0,nan,nan,nan,nan,nan,nan,nan,nan,nan,nan,nan,nan,nan,nan,nan,nan,nan,nan,832.2737237878918,942.5232263661601,nan,943.255145203811,nan,nan,nan,nan
1,72,1,1,1.0,1.0,0.7151035740525913,0,nan,nan,nan,nan,nan,nan,nan,nan,nan,0,2,8,4,3,1,nan,nan,nan,nan,nan,nan,nan,nan,nan,nan,nan,nan,0.0,nan,nan,nan,nan,nan,nan,nan,nan,nan,nan,nan,nan,nan,nan,nan,nan,nan,nan,832.2737237878918,943.5400208177302,nan,944.2551243917828,nan,nan,nan,nan
1,73,1,1,1.0,1.0,0.626287245334197,0,nan,nan,nan,nan,nan,nan,nan,nan,nan,3,5,4,6,7,2,nan,nan,nan,nan,nan,nan,nan,nan,nan,nan,nan,nan,0.0,nan,nan,nan,nan,nan,nan,nan,nan,nan,nan,nan,nan,nan,nan,nan,nan,nan,nan,832.2737237878918,944.5568129885303,nan,945.1831002338645,nan,nan,nan,nan
1,74,1,1,1.0,1.0,0.6174780554265453,0,nan,nan,nan,nan,nan,nan,nan,nan,nan,8,0,7,3,5,4,nan,nan,nan,nan,nan,nan,nan,nan,nan,nan,nan,nan,0.0,nan,nan,nan,nan,nan,nan,nan,nan,nan,nan,nan,nan,nan,nan,nan,nan,nan,nan,832.2737237878918,945.573593470383,nan,946.1910715258095,nan,nan,nan,nan
1,75,1,1,1.0,1.0,0.5606509546307734,0,nan,nan,nan,nan,nan,nan,nan,nan,nan,0,8,3,1,4,6,nan,nan,nan,nan,nan,nan,nan,nan,nan,nan,nan,nan,0.0,nan,nan,nan,nan,nan,nan,nan,nan,nan,nan,nan,nan,nan,nan,nan,nan,nan,nan,832.2737237878918,946.5903941940712,nan,947.151045148702,nan,nan,nan,nan
1,76,1,1,1.0,1.0,0.7035038617714235,0,nan,nan,nan,nan,nan,nan,nan,nan,nan,8,0,5,7,1,2,nan,nan,nan,nan,nan,nan,nan,nan,nan,nan,nan,nan,0.0,nan,nan,nan,nan,nan,nan,nan,nan,nan,nan,nan,nan,nan,nan,nan,nan,nan,nan,832.2737237878918,947.6155168781274,nan,948.3190207398989,nan,nan,nan,nan
1,77,0,0,0.0,1.0,0.5507387272218693,0,nan,nan,nan,nan,nan,nan,nan,nan,nan,7,6,4,2,3,0,nan,nan,nan,nan,nan,nan,nan,nan,nan,nan,nan,nan,0.0,nan,nan,nan,nan,nan,nan,nan,nan,nan,nan,nan,nan,nan,nan,nan,nan,nan,nan,832.2737237878918,948.6322882368991,nan,949.1830269641209,nan,nan,nan,nan
1,78,1,1,1.0,1.0,0.47787838191902665,0,nan,nan,nan,nan,nan,nan,nan,nan,nan,6,1,0,7,4,2,nan,nan,nan,nan,nan,nan,nan,nan,nan,nan,nan,nan,0.0,nan,nan,nan,nan,nan,nan,nan,nan,nan,nan,nan,nan,nan,nan,nan,nan,nan,nan,832.2737237878918,949.6491203211781,nan,950.1269987030971,nan,nan,nan,nan
1,79,1,1,1.0,1.0,0.4847452108813286,0,nan,nan,nan,nan,nan,nan,nan,nan,nan,2,8,5,3,0,1,nan,nan,nan,nan,nan,nan,nan,nan,nan,nan,nan,nan,0.0,nan,nan,nan,nan,nan,nan,nan,nan,nan,nan,nan,nan,nan,nan,nan,nan,nan,nan,832.2737237878918,950.6742227633983,nan,951.1589679742797,nan,nan,nan,nan
1,80,1,1,1.0,1.0,0.5476063744108615,0,nan,nan,nan,nan,nan,nan,nan,nan,nan,8,1,2,0,7,4,nan,nan,nan,nan,nan,nan,nan,nan,nan,nan,nan,nan,0.0,nan,nan,nan,nan,nan,nan,nan,nan,nan,nan,nan,nan,nan,nan,nan,nan,nan,nan,832.2737237878918,951.6993468729356,nan,952.2469532473465,nan,nan,nan,nan
1,81,1,1,1.0,1.0,0.6827451464498608,0,0.0,0.0,0.0,0.4806492759548818,0.1339440740087732,0.34670520194610865,0.614593349963655,0.1339440740087732,0.5716989105806837,3,4,6,1,5,8,nan,nan,nan,nan,nan,nan,nan,nan,nan,nan,nan,nan,0.0,nan,nan,nan,nan,nan,nan,nan,nan,nan,nan,nan,nan,nan,nan,nan,nan,nan,nan,832.2737237878918,952.7161826634663,nan,953.3989278099161,nan,nan,nan,nan
1,82,1,1,1.0,1.0,0.7216240110365106,0,0.0,1.0,0.0,0.48317547433606906,0.13498483195407474,0.3481906423819943,0.6181603062901437,0.13498483195407474,0.650658510632411,4,7,0,5,2,3,nan,nan,nan,nan,nan,nan,nan,nan,nan,nan,nan,nan,0.0,nan,nan,nan,nan,nan,nan,nan,nan,nan,nan,nan,nan,nan,nan,nan,nan,nan,nan,832.2737237878918,953.7412654340435,nan,954.46288944508,nan,nan,nan,nan
1,83,0,0,0.0,1.0,0.5444483629344177,1,0.0,0.0,1.0,0.48611928343113625,0.13670858193265897,0.3494107014984773,0.6228278653637952,0.13670858193265897,0.649605840140263,6,0,1,4,8,7,1.0,1.0,1.0,1.0,1.0,1.0,0.0,0.0,0.0,0.0,0.0,0.0,0.0,3.0,3.0,6.0,0.0,4.0,4.0,4.0,3.0,2.0,1.0,6.0,5.0,5.483591711338931,4.8371282023795175,3.7477408258155265,2.9255482472708536,6.955448004568325,6.284015193351024,832.2737237878918,954.7664320229262,955.5748065550476,955.3108803858606,963.584115233635,964.584801175281,956.5915958748849,963.575782724705
1,84,1,1,1.0,1.0,0.5332666017977772,0,0.0,0.0,0.0,0.4868306136689811,0.1360231748804998,0.3508074387884813,0.6228537885494809,0.1360231748804998,0.5997796585895685,5,3,8,0,6,4,nan,nan,nan,nan,nan,nan,nan,nan,nan,nan,nan,nan,0.0,nan,nan,nan,nan,nan,nan,nan,nan,nan,nan,nan,nan,nan,nan,nan,nan,nan,nan,832.2737237878918,964.8093911854503,nan,965.3426577872481,nan,nan,nan,nan
1,85,1,1,1.0,1.0,0.7325243821464937,0,0.0,0.0,0.0,0.48739008340547263,0.1352961614446841,0.35209392196078854,0.6226862448501567,0.1352961614446841,0.6034131156262296,7,6,4,3,8,0,nan,nan,nan,nan,nan,nan,nan,nan,nan,nan,nan,nan,0.0,nan,nan,nan,nan,nan,nan,nan,nan,nan,nan,nan,nan,nan,nan,nan,nan,nan,nan,832.2737237878918,965.8260830023603,nan,966.5586073845068,nan,nan,nan,nan
1,86,1,1,1.0,1.0,0.6993631234236091,0,0.0,1.0,0.0,0.4903083488666753,0.13709115474141736,0.3532171941252579,0.6273995036080926,0.13709115474141736,0.6550513691226266,5,0,7,4,2,6,nan,nan,nan,nan,nan,nan,nan,nan,nan,nan,nan,nan,0.0,nan,nan,nan,nan,nan,nan,nan,nan,nan,nan,nan,nan,nan,nan,nan,nan,nan,nan,832.2737237878918,966.8512216518079,nan,967.5505847752315,nan,nan,nan,nan
1,87,0,0,0.0,1.0,0.5142144727985851,1,0.0,0.0,1.0,0.4927678168026392,0.13813396953044949,0.3546338472721897,0.6309017863330887,0.13813396953044949,0.6487006594562293,2,4,6,8,7,3,1.0,1.0,1.0,1.0,1.0,1.0,1.0,0.0,0.0,1.0,0.0,1.0,3.0,2.0,3.0,3.0,8.0,3.0,3.0,1.0,5.0,6.0,2.0,3.0,4.0,1.3674112716234958,5.037426584144669,5.820885127011934,2.389108808990386,3.4219213949647838,4.173771313441421,832.2737237878918,967.8763483272119,968.6847570708867,968.3905628000105,975.5605956459526,976.5653379374482,969.7015580796713,975.5522696942371
1,88,1,1,1.0,1.0,0.4685908004562407,0,0.0,0.0,0.0,0.49301719652352227,0.1373477618718034,0.35566943465171885,0.6303649583953257,0.1373477618718034,0.5607227988928116,7,1,3,2,4,5,nan,nan,nan,nan,nan,nan,nan,nan,nan,nan,nan,nan,0.0,nan,nan,nan,nan,nan,nan,nan,nan,nan,nan,nan,nan,nan,nan,nan,nan,nan,nan,832.2737237878918,976.7857874943659,nan,977.2543782948221,nan,nan,nan,nan
1,89,1,1,1.0,1.0,0.5314348582087405,0,0.0,0.0,0.0,0.4927364333503351,0.13658094531592244,0.35615548803441266,0.6293173786662576,0.13658094531592244,0.5047467104878555,5,0,4,7,3,2,nan,nan,nan,nan,nan,nan,nan,nan,nan,nan,nan,nan,0.0,nan,nan,nan,nan,nan,nan,nan,nan,nan,nan,nan,nan,nan,nan,nan,nan,nan,nan,832.2737237878918,977.8109056168814,nan,978.3423404750902,nan,nan,nan,nan
1,90,1,1,1.0,1.0,0.6422831422285071,0,0.0,0.0,0.0,0.4931761881782716,0.135864630260082,0.3573115579181896,0.6290408184383536,0.135864630260082,0.5474362669644961,7,5,0,2,8,1,nan,nan,nan,nan,nan,nan,nan,nan,nan,nan,nan,nan,0.0,nan,nan,nan,nan,nan,nan,nan,nan,nan,nan,nan,nan,nan,nan,nan,nan,nan,nan,832.2737237878918,978.8360337177667,nan,979.4783168599952,nan,nan,nan,nan
1,91,1,1,1.0,1.0,0.785437396135876,0,0.0,1.0,0.0,0.4948515472125439,0.13601026392886562,0.35884128328367826,0.6308618111414095,0.13601026392886562,0.6530517988577079,5,1,3,7,2,6,nan,nan,nan,nan,nan,nan,nan,nan,nan,nan,nan,nan,0.0,nan,nan,nan,nan,nan,nan,nan,nan,nan,nan,nan,nan,nan,nan,nan,nan,nan,nan,832.2737237878918,979.85284556021,nan,980.6382829563458,nan,nan,nan,nan
1,92,1,1,1.0,1.0,0.7926312305296506,1,0.0,0.0,1.0,0.4980802788672476,0.1386399970519826,0.359440281815265,0.6367202759192302,0.1386399970519826,0.7401172562980113,4,8,6,2,5,1,1.0,1.0,1.0,1.0,1.0,1.0,1.0,0.0,0.0,0.0,0.0,0.0,1.0,4.0,4.0,4.0,5.0,3.0,2.0,4.0,5.0,6.0,1.0,2.0,3.0,5.436589313394052,6.331614867998951,7.1955917273041905,1.651995232049785,2.5326770226938606,4.524203961298781,832.2737237878918,980.86962547187,981.67802309679,981.6622567023996,989.929039821393,990.9325647517794,982.6948252459597,989.9207064571742
1,93,1,1,nan,nan,nan,0,0.0,0.0,0.0,0.5013171025118893,0.14125424214467977,0.3600628603672096,0.6425713446565691,0.14125424214467977,0.7890343133327633,0,7,4,8,3,2,nan,nan,nan,nan,nan,nan,nan,nan,nan,nan,nan,nan,0.0,nan,nan,nan,nan,nan,nan,nan,nan,nan,nan,nan,nan,nan,nan,nan,nan,nan,nan,832.2737237878918,991.1542157044144,nan,nan,nan,nan,nan,nan
1,94,1,1,1.0,1.0,0.7466201123449991,0,0.0,0.0,0.0,0.5013171025118893,0.14125424214467977,0.3600628603672096,0.6425713446565691,0.14125424214467977,0.7696256714373249,7,2,6,0,5,1,nan,nan,nan,nan,nan,nan,nan,nan,nan,nan,nan,nan,0.0,nan,nan,nan,nan,nan,nan,nan,nan,nan,nan,nan,nan,nan,nan,nan,nan,nan,nan,832.2737237878918,992.1793304057746,nan,992.9259505181196,nan,nan,nan,nan
1,95,1,1,1.0,1.0,0.6818163027746778,0,0.0,0.0,0.0,0.5039834395752927,0.14276846374912622,0.36121497582616646,0.6467519033244189,0.14276846374912622,0.7142182075598384,2,7,0,4,6,3,nan,nan,nan,nan,nan,nan,nan,nan,nan,nan,nan,nan,0.0,nan,nan,nan,nan,nan,nan,nan,nan,nan,nan,nan,nan,nan,nan,nan,nan,nan,nan,832.2737237878918,993.1961539371653,nan,993.8779702399399,nan,nan,nan,nan
1,96,1,1,1.0,1.0,0.6569804255746021,0,0.0,1.0,0.0,0.5058956209000173,0.14317840697235082,0.3627172139276664,0.6490740278723681,0.14317840697235082,0.695138946898093,4,1,8,6,3,0,nan,nan,nan,nan,nan,nan,nan,nan,nan,nan,nan,nan,0.0,nan,nan,nan,nan,nan,nan,nan,nan,nan,nan,nan,nan,nan,nan,nan,nan,nan,nan,832.2737237878918,994.2129780387486,nan,994.8699584643232,nan,nan,nan,nan
1,97,1,1,1.0,1.0,0.6238855942847295,1,0.0,0.0,1.0,0.5075029060561299,0.14325579749850686,0.36424710855762304,0.6507587035546367,0.14325579749850686,0.6542274408780031,7,6,0,8,5,3,1.0,1.0,1.0,1.0,1.0,1.0,1.0,0.0,0.0,1.0,0.0,1.0,3.0,7.0,2.0,3.0,8.0,4.0,3.0,2.0,3.0,4.0,1.0,5.0,6.0,2.362617092605433,3.004059200812435,3.7872802584797682,1.1077481470881594,5.523531704274319,6.514526368127235,832.2737237878918,995.2380576732664,996.0464364818322,995.8619432675512,1003.6140620318185,1004.6135120810973,997.0632640045706,1003.6057340844291
1,98,1,1,1.0,1.0,0.23881745484868588,0,0.0,0.0,0.0,0.508727986984852,0.14299397714586495,0.3657340098389871,0.6517219641307169,0.14299397714586495,0.5065611582360058,5,7,1,2,6,4,nan,nan,nan,nan,nan,nan,nan,nan,nan,nan,nan,nan,0.0,nan,nan,nan,nan,nan,nan,nan,nan,nan,nan,nan,nan,nan,nan,nan,nan,nan,nan,832.2737237878918,1004.8309099674505,nan,1005.0697274222991,nan,nan,nan,nan
1,99,1,1,1.0,1.0,0.4699869169317026,0,0.0,0.0,0.0,0.505916418941767,0.1448628728757618,0.36105354606600515,0.6507792918175288,0.1448628728757618,0.44422998868837266,0,8,6,1,5,7,nan,nan,nan,nan,nan,nan,nan,nan,nan,nan,nan,nan,0.0,nan,nan,nan,nan,nan,nan,nan,nan,nan,nan,nan,nan,nan,nan,nan,nan,nan,nan,832.2737237878918,1005.847703563732,nan,1006.3176904806637,nan,nan,nan,nan
1,100,1,1,1.0,1.0,0.533209582542213,0,0.0,0.0,0.0,0.5055460117045498,0.1441599128759074,0.3613860988286424,0.6497059245804573,0.1441599128759074,0.4140046514408671,8,2,0,6,3,4,nan,nan,nan,nan,nan,nan,nan,nan,nan,nan,nan,nan,0.0,nan,nan,nan,nan,nan,nan,nan,nan,nan,nan,nan,nan,nan,nan,nan,nan,nan,nan,832.2737237878918,1006.8644655143264,nan,1007.3976750968686,nan,nan,nan,nan
1,101,1,1,1.0,1.0,0.6120295804494162,0,0.0,0.0,0.0,0.505828293039628,0.1434494603044149,0.36237883273521304,0.6492777533440428,0.1434494603044149,0.5384086933077773,2,0,7,3,1,6,nan,nan,nan,nan,nan,nan,nan,nan,nan,nan,nan,nan,0.0,nan,nan,nan,nan,nan,nan,nan,nan,nan,nan,nan,nan,nan,nan,nan,nan,nan,nan,832.2737237878918,1007.889618418588,nan,1008.5016479990375,nan,nan,nan,nan
1,102,1,1,1.0,1.0,0.610883493410256,0,0.0,0.0,0.0,0.5069010333164945,0.1431176692494666,0.36378336406702794,0.6500187025659611,0.1431176692494666,0.5853742188006285,6,4,3,7,5,2,nan,nan,nan,nan,nan,nan,nan,nan,nan,nan,nan,nan,0.0,nan,nan,nan,nan,nan,nan,nan,nan,nan,nan,nan,nan,nan,nan,nan,nan,nan,nan,832.2737237878918,1008.9147436685105,nan,1009.5256271619207,nan,nan,nan,nan
1,103,1,1,1.0,1.0,0.6017358942201554,0,0.0,0.0,0.0,0.5079408579174322,0.14277563820118794,0.3651652197162442,0.65071649611862,0.14277563820118794,0.6082163226932759,7,5,6,4,2,1,nan,nan,nan,nan,nan,nan,nan,nan,nan,nan,nan,nan,0.0,nan,nan,nan,nan,nan,nan,nan,nan,nan,nan,nan,nan,nan,nan,nan,nan,nan,nan,832.2737237878918,1009.9398674929516,nan,1010.5416033871718,nan,nan,nan,nan
1,104,1,1,1.0,1.0,0.6165643218544119,0,0.0,0.0,0.0,0.5088695216432016,0.14237027067442484,0.3664992509687768,0.6512397923176265,0.14237027067442484,0.6097279031616077,5,2,8,0,1,4,nan,nan,nan,nan,nan,nan,nan,nan,nan,nan,nan,nan,0.0,nan,nan,nan,nan,nan,nan,nan,nan,nan,nan,nan,nan,nan,nan,nan,nan,nan,nan,832.2737237878918,1010.9650064274956,nan,1011.58157074935,nan,nan,nan,nan
1,105,1,1,1.0,1.0,0.6794046733552932,0,0.0,0.0,0.0,0.5099253530178214,0.1420674775330783,0.3678578754847431,0.6519928305508997,0.1420674775330783,0.6325682964766202,7,0,1,8,4,2,nan,nan,nan,nan,nan,nan,nan,nan,nan,nan,nan,nan,0.0,nan,nan,nan,nan,nan,nan,nan,nan,nan,nan,nan,nan,nan,nan,nan,nan,nan,nan,832.2737237878918,1011.99013766444,nan,1012.6695423377953,nan,nan,nan,nan
1,106,1,1,1.0,1.0,0.47027058772891905,0,0.0,0.0,0.0,0.51157078331236,0.14234947857538546,0.36922130473697445,0.6539202618877454,0.14234947857538546,0.588746527646208,2,3,7,4,6,1,nan,nan,nan,nan,nan,nan,nan,nan,nan,nan,nan,nan,0.0,nan,nan,nan,nan,nan,nan,nan,nan,nan,nan,nan,nan,nan,nan,nan,nan,nan,nan,832.2737237878918,1013.0152506552224,nan,1013.4855212429513,nan,nan,nan,nan
1,107,1,1,1.0,1.0,0.46113125633087293,0,0.0,0.0,0.0,0.5111736660471345,0.14172077206317504,0.36945289398395953,0.6528944381103096,0.14172077206317504,0.5369355058050284,1,8,5,3,4,7,nan,nan,nan,nan,nan,nan,nan,nan,nan,nan,nan,nan,0.0,nan,nan,nan,nan,nan,nan,nan,nan,nan,nan,nan,nan,nan,nan,nan,nan,nan,nan,832.2737237878918,1014.0403747647599,nan,1014.5015060210908,nan,nan,nan,nan
1,108,1,1,1.0,1.0,0.37997803048074275,0,0.0,0.0,0.0,0.5106970716688845,0.14112801433599,0.36956905733289447,0.6518250860048744,0.14112801433599,0.4371266248468449,0,5,4,1,3,2,nan,nan,nan,nan,nan,nan,nan,nan,nan,nan,nan,nan,0.0,nan,nan,nan,nan,nan,nan,nan,nan,nan,nan,nan,nan,nan,nan,nan,nan,nan,nan,832.2737237878918,1015.065504576223,nan,1015.4454826067038,nan,nan,nan,nan
1,109,1,1,1.0,1.0,0.5708257557116667,0,0.0,0.0,0.0,0.5094638731671095,0.14102801442552473,0.3684358587415848,0.6504918875926342,0.14102801442552473,0.47064501417442745,5,8,7,2,0,6,nan,nan,nan,nan,nan,nan,nan,nan,nan,nan,nan,nan,0.0,nan,nan,nan,nan,nan,nan,nan,nan,nan,nan,nan,nan,nan,nan,nan,nan,nan,nan,832.2737237878918,1016.0906329622046,nan,1016.6614587179163,nan,nan,nan,nan
1,110,1,1,1.0,1.0,0.553654977054066,0,0.0,0.0,0.0,0.5100373487049091,0.1404915796022758,0.36954576910263337,0.6505289283071849,0.1404915796022758,0.5014862544154918,6,7,4,8,3,0,nan,nan,nan,nan,nan,nan,nan,nan,nan,nan,nan,nan,0.0,nan,nan,nan,nan,nan,nan,nan,nan,nan,nan,nan,nan,nan,nan,nan,nan,nan,nan,832.2737237878918,1017.1157656246303,nan,1017.6694206016844,nan,nan,nan,nan
1,111,1,1,1.0,1.0,0.5205436101798568,0,0.0,0.0,0.0,0.510441215634068,0.1399020313063502,0.37053918432771776,0.6503432469404182,0.1399020313063502,0.5483414476485299,2,0,1,6,4,8,nan,nan,nan,nan,nan,nan,nan,nan,nan,nan,nan,nan,0.0,nan,nan,nan,nan,nan,nan,nan,nan,nan,nan,nan,nan,nan,nan,nan,nan,nan,nan,832.2737237878918,1018.1408780452202,nan,1018.6614216554001,nan,nan,nan,nan
1,112,1,1,1.0,1.0,0.5913529728557023,0,0.0,0.0,0.0,0.5105338981528367,0.139262131068894,0.37127176708394266,0.6497960292217306,0.139262131068894,0.5551838533632084,0,6,5,7,2,4,nan,nan,nan,nan,nan,nan,nan,nan,nan,nan,nan,nan,0.0,nan,nan,nan,nan,nan,nan,nan,nan,nan,nan,nan,nan,nan,nan,nan,nan,nan,nan,832.2737237878918,1019.1660101374534,nan,1019.7573631103091,nan,nan,nan,nan
1,113,0,0,0.0,1.0,0.59852599522128,0,0.0,0.0,0.0,0.5112686170137718,0.13883973523687304,0.37242888177689876,0.6501083522506448,0.13883973523687304,0.5701408594189464,1,4,8,6,7,0,nan,nan,nan,nan,nan,nan,nan,nan,nan,nan,nan,nan,0.0,nan,nan,nan,nan,nan,nan,nan,nan,nan,nan,nan,nan,nan,nan,nan,nan,nan,nan,832.2737237878918,1020.1828137121047,nan,1020.781339707326,nan,nan,nan,nan
1,114,1,1,1.0,1.0,0.5094200086841738,0,0.0,0.0,0.0,0.5120547195201458,0.13845860557064185,0.373596113949504,0.6505133250907876,0.13845860557064185,0.5664329922537187,8,0,7,3,2,6,nan,nan,nan,nan,nan,nan,nan,nan,nan,nan,nan,nan,0.0,nan,nan,nan,nan,nan,nan,nan,nan,nan,nan,nan,nan,nan,nan,nan,nan,nan,nan,832.2737237878918,1021.207920430769,nan,1021.7173404394532,nan,nan,nan,nan
1,115,1,1,1.0,1.0,0.500244184962412,0,0.0,0.0,0.0,0.5120311953162532,0.13783932369016666,0.3741918716260865,0.6498705190064198,0.13783932369016666,0.5360633962892886,4,2,5,7,6,1,nan,nan,nan,nan,nan,nan,nan,nan,nan,nan,nan,nan,0.0,nan,nan,nan,nan,nan,nan,nan,nan,nan,nan,nan,nan,nan,nan,nan,nan,nan,nan,832.2737237878918,1022.233057369639,nan,1022.7333015546014,nan,nan,nan,nan
1,116,1,1,1.0,1.0,0.5314402750379941,0,0.0,0.0,0.0,0.511926885490113,0.1372324998760722,0.3746943856140408,0.6491593853661852,0.1372324998760722,0.5137014895615266,7,0,3,5,2,4,nan,nan,nan,nan,nan,nan,nan,nan,nan,nan,nan,nan,0.0,nan,nan,nan,nan,nan,nan,nan,nan,nan,nan,nan,nan,nan,nan,nan,nan,nan,nan,832.2737237878918,1023.2498478298614,nan,1023.7812881048994,nan,nan,nan,nan
1,117,1,1,1.0,1.0,0.5866035539531822,0,0.0,0.0,0.0,0.5120980555738663,0.13664139267080042,0.3754566629030659,0.6487394482446668,0.13664139267080042,0.5394293379845294,2,5,0,4,3,8,nan,nan,nan,nan,nan,nan,nan,nan,nan,nan,nan,nan,0.0,nan,nan,nan,nan,nan,nan,nan,nan,nan,nan,nan,nan,nan,nan,nan,nan,nan,nan,832.2737237878918,1024.2666442771056,nan,1024.8532478310588,nan,nan,nan,nan
1,118,1,1,1.0,1.0,0.5134806349778955,0,0.0,0.0,0.0,0.5127459294728169,0.13622175019133267,0.3765241792814843,0.6489676796641496,0.13622175019133267,0.5438414879896906,8,4,2,7,6,1,nan,nan,nan,nan,nan,nan,nan,nan,nan,nan,nan,nan,0.0,nan,nan,nan,nan,nan,nan,nan,nan,nan,nan,nan,nan,nan,nan,nan,nan,nan,nan,832.2737237878918,1025.2917547020215,nan,1025.8052353369994,nan,nan,nan,nan
1,119,1,1,nan,nan,nan,0,0.0,0.0,0.0,0.5127522631409641,0.13563333356045243,0.3771189295805117,0.6483855967014165,0.13563333356045243,0.5500420944655389,0,5,6,4,3,2,nan,nan,nan,nan,nan,nan,nan,nan,nan,nan,nan,nan,0.0,nan,nan,nan,nan,nan,nan,nan,nan,nan,nan,nan,nan,nan,nan,nan,nan,nan,nan,832.2737237878918,1026.3169101721496,nan,nan,nan,nan,nan,nan
1,120,1,1,nan,nan,nan,0,0.0,0.0,0.0,0.5127522631409641,0.13563333356045243,0.3771189295805117,0.6483855967014165,0.13563333356045243,0.5134806349778955,7,1,5,8,6,4,nan,nan,nan,nan,nan,nan,nan,nan,nan,nan,nan,nan,0.0,nan,nan,nan,nan,nan,nan,nan,nan,nan,nan,nan,nan,nan,nan,nan,nan,nan,nan,832.2737237878918,1027.3336846669804,nan,nan,nan,nan,nan,nan
1,121,1,1,1.0,1.0,0.350346263684969,0,0.0,0.0,0.0,0.5127522631409641,0.1356333335604524,0.37711892958051174,0.6483855967014165,0.1356333335604524,0.350346263684969,5,6,3,7,8,2,nan,nan,nan,nan,nan,nan,nan,nan,nan,nan,nan,nan,0.0,nan,nan,nan,nan,nan,nan,nan,nan,nan,nan,nan,nan,nan,nan,nan,nan,nan,nan,832.2737237878918,1028.3588424178788,nan,1028.7091886815638,nan,nan,nan,nan
1,122,1,1,1.0,1.0,0.5255376416894251,0,0.0,0.0,0.0,0.5113641776755282,0.13587742123233204,0.3754867564431962,0.6472415989078603,0.13587742123233204,0.43794195268719704,8,5,4,2,3,7,nan,nan,nan,nan,nan,nan,nan,nan,nan,nan,nan,nan,0.0,nan,nan,nan,nan,nan,nan,nan,nan,nan,nan,nan,nan,nan,nan,nan,nan,nan,nan,832.2737237878918,1029.3756080747248,nan,1029.9011457164142,nan,nan,nan,nan
1,123,1,1,1.0,1.0,0.508709548758361,0,0.0,0.0,0.0,0.511484291777341,0.13530668228380732,0.3761776094935337,0.6467909740611484,0.13530668228380732,0.46153115137758505,4,3,7,6,2,1,nan,nan,nan,nan,nan,nan,nan,nan,nan,nan,nan,nan,0.0,nan,nan,nan,nan,nan,nan,nan,nan,nan,nan,nan,nan,nan,nan,nan,nan,nan,nan,832.2737237878918,1030.392406517643,nan,1030.9011160664013,nan,nan,nan,nan
1,124,1,1,1.0,1.0,0.4759072262497739,0,0.0,0.0,0.0,0.5114609746091142,0.13473720548342724,0.37672376912568695,0.6461981800925415,0.13473720548342724,0.5033848055658533,1,0,2,5,6,7,nan,nan,nan,nan,nan,nan,nan,nan,nan,nan,nan,nan,0.0,nan,nan,nan,nan,nan,nan,nan,nan,nan,nan,nan,nan,nan,nan,nan,nan,nan,nan,832.2737237878918,1031.409194411999,nan,1031.8851016382487,nan,nan,nan,nan
1,125,1,1,1.0,1.0,0.5870870772412218,0,0.0,0.0,0.0,0.5111646933727864,0.1342135476752872,0.37695114569749916,0.6453782410480735,0.1342135476752872,0.5239012840831189,6,7,8,3,5,4,nan,nan,nan,nan,nan,nan,nan,nan,nan,nan,nan,nan,0.0,nan,nan,nan,nan,nan,nan,nan,nan,nan,nan,nan,nan,nan,nan,nan,nan,nan,nan,832.2737237878918,1032.4259748938516,nan,1033.0130619710928,nan,nan,nan,nan
1,126,1,1,1.0,1.0,0.5542710701117812,0,0.0,0.0,0.0,0.5117921510907073,0.13383441526526788,0.37795773582543946,0.6456265663559752,0.13383441526526788,0.5390884578675923,0,8,2,6,4,7,nan,nan,nan,nan,nan,nan,nan,nan,nan,nan,nan,nan,0.0,nan,nan,nan,nan,nan,nan,nan,nan,nan,nan,nan,nan,nan,nan,nan,nan,nan,nan,832.2737237878918,1033.4427793237915,nan,1033.9970503939032,nan,nan,nan,nan
1,127,1,1,1.0,1.0,0.5934367415547968,0,0.0,0.0,0.0,0.5121403389515359,0.13333980392013697,0.3788005350313989,0.6454801428716729,0.13333980392013697,0.5782649629692665,1,5,8,4,7,6,nan,nan,nan,nan,nan,nan,nan,nan,nan,nan,nan,nan,0.0,nan,nan,nan,nan,nan,nan,nan,nan,nan,nan,nan,nan,nan,nan,nan,nan,nan,nan,832.2737237878918,1034.459581187865,nan,1035.0530179294199,nan,nan,nan,nan
1,128,1,1,1.0,1.0,0.568623957153477,0,0.0,0.0,0.0,0.5128012853141639,0.13299718122414358,0.3798041040900203,0.6457984665383075,0.13299718122414358,0.572110589606685,2,7,1,3,8,4,nan,nan,nan,nan,nan,nan,nan,nan,nan,nan,nan,nan,0.0,nan,nan,nan,nan,nan,nan,nan,nan,nan,nan,nan,nan,nan,nan,nan,nan,nan,nan,832.2737237878918,1035.4763679418359,nan,1036.0449918989893,nan,nan,nan,nan
1,129,1,1,1.0,1.0,0.6158011191168953,0,0.0,0.0,0.0,0.5132514681515777,0.13255387877629066,0.3806975893752871,0.6458053469278684,0.13255387877629066,0.592620605941723,3,0,7,6,2,1,nan,nan,nan,nan,nan,nan,nan,nan,nan,nan,nan,nan,0.0,nan,nan,nan,nan,nan,nan,nan,nan,nan,nan,nan,nan,nan,nan,nan,nan,nan,nan,832.2737237878918,1036.4931658145615,nan,1037.1089669336784,nan,nan,nan,nan
1,130,1,1,1.0,1.0,0.5990870646971871,0,0.0,0.0,0.0,0.5140718653593003,0.13233829728440996,0.38173356807489034,0.6464101626437102,0.13233829728440996,0.5945040469891865,4,2,6,3,0,8,nan,nan,nan,nan,nan,nan,nan,nan,nan,nan,nan,nan,0.0,nan,nan,nan,nan,nan,nan,nan,nan,nan,nan,nan,nan,nan,nan,nan,nan,nan,nan,832.2737237878918,1037.5099511430508,nan,1038.109038207748,nan,nan,nan,nan
1,131,1,1,1.0,1.0,0.5901852184993004,0,0.0,0.0,0.0,0.5147465891635693,0.13202778502536947,0.3827188041381998,0.6467743741889388,0.13202778502536947,0.601691134104461,2,1,0,8,6,5,nan,nan,nan,nan,nan,nan,nan,nan,nan,nan,nan,nan,0.0,nan,nan,nan,nan,nan,nan,nan,nan,nan,nan,nan,nan,nan,nan,nan,nan,nan,nan,832.2737237878918,1038.5267441691396,nan,1039.116929387639,nan,nan,nan,nan
1,132,1,1,1.0,1.0,0.5250444251275894,0,0.0,0.0,0.0,0.5153405941189687,0.1316758880059352,0.3836647061130335,0.6470164821249039,0.1316758880059352,0.5714389027746923,7,5,2,4,1,0,nan,nan,nan,nan,nan,nan,nan,nan,nan,nan,nan,nan,0.0,nan,nan,nan,nan,nan,nan,nan,nan,nan,nan,nan,nan,nan,nan,nan,nan,nan,nan,832.2737237878918,1039.5518583003072,nan,1040.0769027254348,nan,nan,nan,nan
1,133,1,1,1.0,1.0,0.5002342065927223,0,0.0,0.0,0.0,0.5154164052987236,0.13116330300045514,0.3842531022982684,0.6465797082991787,0.13116330300045514,0.538487950073204,8,0,1,6,3,7,nan,nan,nan,nan,nan,nan,nan,nan,nan,nan,nan,nan,0.0,nan,nan,nan,nan,nan,nan,nan,nan,nan,nan,nan,nan,nan,nan,nan,nan,nan,nan,832.2737237878918,1040.5686441989892,nan,1041.068878405582,nan,nan,nan,nan
1,134,1,1,1.0,1.0,0.4434136630109151,0,0.0,0.0,0.0,0.5152987138358863,0.13066071381155134,0.384638000024335,0.6459594276474376,0.13066071381155134,0.4895640982437423,5,4,8,7,6,1,nan,nan,nan,nan,nan,nan,nan,nan,nan,nan,nan,nan,0.0,nan,nan,nan,nan,nan,nan,nan,nan,nan,nan,nan,nan,nan,nan,nan,nan,nan,nan,832.2737237878918,1041.5854489140256,nan,1042.0288625770365,nan,nan,nan,nan
1,135,1,1,1.0,1.0,0.3545916323671463,0,0.0,0.0,0.0,0.5147457519064635,0.13030863853791652,0.384437113368547,0.6450543904443801,0.13030863853791652,0.43274650065692793,1,7,0,3,2,4,nan,nan,nan,nan,nan,nan,nan,nan,nan,nan,nan,nan,0.0,nan,nan,nan,nan,nan,nan,nan,nan,nan,nan,nan,nan,nan,nan,nan,nan,nan,nan,832.2737237878918,1042.6022396593441,nan,1042.9568312917113,nan,nan,nan,nan
1,136,1,1,1.0,1.0,0.47377413589447315,0,0.0,0.0,0.0,0.513523201375629,0.13055658629835498,0.38296661507727403,0.644079787673984,0.13055658629835498,0.42392647709084486,2,5,3,0,4,7,nan,nan,nan,nan,nan,nan,nan,nan,nan,nan,nan,nan,0.0,nan,nan,nan,nan,nan,nan,nan,nan,nan,nan,nan,nan,nan,nan,nan,nan,nan,nan,832.2737237878918,1043.6190301195666,nan,1044.092804255461,nan,nan,nan,nan
1,137,1,1,1.0,1.0,0.5286431954502859,0,0.0,0.0,0.0,0.5132220720916809,0.13010677230030512,0.3831152997913758,0.643328844391986,0.13010677230030512,0.4523363212373018,1,3,4,6,5,2,nan,nan,nan,nan,nan,nan,nan,nan,nan,nan,nan,nan,0.0,nan,nan,nan,nan,nan,nan,nan,nan,nan,nan,nan,nan,nan,nan,nan,nan,nan,nan,832.2737237878918,1044.6441413997713,nan,1045.1727845952216,nan,nan,nan,nan
1,138,1,1,1.0,1.0,0.49548193672740126,0,0.0,0.0,0.0,0.5133380203876102,0.12962357163986843,0.3837144487477418,0.6429615920274787,0.12962357163986843,0.49929975602405346,4,8,2,5,3,7,nan,nan,nan,nan,nan,nan,nan,nan,nan,nan,nan,nan,0.0,nan,nan,nan,nan,nan,nan,nan,nan,nan,nan,nan,nan,nan,nan,nan,nan,nan,nan,832.2737237878918,1045.6692734920045,nan,1046.164755428732,nan,nan,nan,nan
1,139,1,1,1.0,1.0,0.43866966093787596,0,0.0,0.0,0.0,0.513204766031937,0.12914813932777336,0.38405662670416363,0.6423529053597103,0.12914813932777336,0.4875982643718544,1,3,4,7,6,2,nan,nan,nan,nan,nan,nan,nan,nan,nan,nan,nan,nan,0.0,nan,nan,nan,nan,nan,nan,nan,nan,nan,nan,nan,nan,nan,nan,nan,nan,nan,nan,832.2737237878918,1046.6860707945377,nan,1047.1247404554756,nan,nan,nan,nan
1,140,0,0,0.0,1.0,0.5258255889305019,0,0.0,0.0,0.0,0.5126526541423514,0.12882755466926255,0.38382509947308885,0.6414802088116139,0.12882755466926255,0.48665906219859306,8,6,7,2,5,0,nan,nan,nan,nan,nan,nan,nan,nan,nan,nan,nan,nan,0.0,nan,nan,nan,nan,nan,nan,nan,nan,nan,nan,nan,nan,nan,nan,nan,nan,nan,nan,832.2737237878918,1047.7028911898692,nan,1048.2287167787997,nan,nan,nan,nan
1,141,1,1,1.0,1.0,0.49269512060573106,0,0.0,0.0,0.0,0.5127495139569701,0.128357983835915,0.3843915301210551,0.6411074977928851,0.128357983835915,0.4857301234913696,6,4,0,3,2,5,nan,nan,nan,nan,nan,nan,nan,nan,nan,nan,nan,nan,0.0,nan,nan,nan,nan,nan,nan,nan,nan,nan,nan,nan,nan,nan,nan,nan,nan,nan,nan,832.2737237878918,1048.7279984787262,nan,1049.220693599332,nan,nan,nan,nan
1,142,0,0,0.0,1.0,0.5638722574806252,0,0.0,0.0,0.0,0.5126031315237494,0.12790005898319776,0.3847030725405516,0.6405031905069472,0.12790005898319776,0.5274643223389527,0,8,7,5,6,2,nan,nan,nan,nan,nan,nan,nan,nan,nan,nan,nan,nan,0.0,nan,nan,nan,nan,nan,nan,nan,nan,nan,nan,nan,nan,nan,nan,nan,nan,nan,nan,832.2737237878918,1049.7447966365482,nan,1050.3086688940289,nan,nan,nan,nan
1,143,1,1,1.0,1.0,0.5070363186998748,0,0.0,0.0,0.0,0.512974646929234,0.127509980088213,0.385464666841021,0.640484627017447,0.127509980088213,0.521201232262077,8,6,2,0,7,4,nan,nan,nan,nan,nan,nan,nan,nan,nan,nan,nan,nan,0.0,nan,nan,nan,nan,nan,nan,nan,nan,nan,nan,nan,nan,nan,nan,nan,nan,nan,nan,832.2737237878918,1050.7616164616873,nan,1051.2686527803871,nan,nan,nan,nan
1,144,1,1,1.0,1.0,0.44994464855767546,0,0.0,0.0,0.0,0.5129319251434112,0.12705147438960257,0.38588045075380867,0.6399833995330138,0.12705147438960257,0.5069510749127252,0,2,8,1,6,7,nan,nan,nan,nan,nan,nan,nan,nan,nan,nan,nan,nan,0.0,nan,nan,nan,nan,nan,nan,nan,nan,nan,nan,nan,nan,nan,nan,nan,nan,nan,nan,832.2737237878918,1051.7866903942795,nan,1052.2366350428372,nan,nan,nan,nan
1,145,1,1,1.0,1.0,0.44078621570884025,0,0.0,0.0,0.0,0.5124820160249417,0.12670798209034737,0.3857740339345943,0.6391899981152891,0.12670798209034737,0.4659223943221302,8,3,6,4,7,1,nan,nan,nan,nan,nan,nan,nan,nan,nan,nan,nan,nan,0.0,nan,nan,nan,nan,nan,nan,nan,nan,nan,nan,nan,nan,nan,nan,nan,nan,nan,nan,832.2737237878918,1052.8118304692086,nan,1053.2526166849175,nan,nan,nan,nan
1,146,0,0,0.0,1.0,0.5276402267427329,0,0.0,0.0,0.0,0.511973535171636,0.12640112928725977,0.38557240588437625,0.6383746644588958,0.12640112928725977,0.4727903636697495,6,2,1,0,3,8,nan,nan,nan,nan,nan,nan,nan,nan,nan,nan,nan,nan,0.0,nan,nan,nan,nan,nan,nan,nan,nan,nan,nan,nan,nan,nan,nan,nan,nan,nan,nan,832.2737237878918,1053.8369520128795,nan,1054.3645922396222,nan,nan,nan,nan
1,147,1,1,1.0,1.0,0.5264793146968714,0,0.0,0.0,0.0,0.5120838639855171,0.12596208154389382,0.38612178244162326,0.638045945529411,0.12596208154389382,0.4983019190494815,2,3,8,5,7,6,nan,nan,nan,nan,nan,nan,nan,nan,nan,nan,nan,nan,0.0,nan,nan,nan,nan,nan,nan,nan,nan,nan,nan,nan,nan,nan,nan,nan,nan,nan,nan,832.2737237878918,1054.8620846753054,nan,1055.3885639900022,nan,nan,nan,nan
1,148,1,1,1.0,1.0,0.5093464538440458,0,0.0,0.0,0.0,0.512184531473009,0.12552661406666552,0.3866579174063435,0.6377111455396746,0.12552661406666552,0.5211553317612166,1,2,5,7,6,4,nan,nan,nan,nan,nan,nan,nan,nan,nan,nan,nan,nan,0.0,nan,nan,nan,nan,nan,nan,nan,nan,nan,nan,nan,nan,nan,nan,nan,nan,nan,nan,832.2737237878918,1055.8871908237772,nan,1056.3965372776213,nan,nan,nan,nan
1,149,1,1,1.0,1.0,0.4681828276818578,0,0.0,0.0,0.0,0.5121648226005857,0.12509022046141408,0.38707460213917166,0.6372550430619998,0.12509022046141408,0.5013361987409249,5,6,4,8,3,1,nan,nan,nan,nan,nan,nan,nan,nan,nan,nan,nan,nan,0.0,nan,nan,nan,nan,nan,nan,nan,nan,nan,nan,nan,nan,nan,nan,nan,nan,nan,nan,832.2737237878918,1056.9123351751502,nan,1057.380518002832,nan,nan,nan,nan
1,150,1,1,1.0,1.0,0.49868128716411775,0,0.0,0.0,0.0,0.5118614984976979,0.12471125778926417,0.38715024070843373,0.6365727562869621,0.12471125778926417,0.4920701895633404,7,4,1,3,2,0,nan,nan,nan,nan,nan,nan,nan,nan,nan,nan,nan,nan,0.0,nan,nan,nan,nan,nan,nan,nan,nan,nan,nan,nan,nan,nan,nan,nan,nan,nan,nan,832.2737237878918,1057.9457929340028,nan,1058.444474221167,nan,nan,nan,nan
1,151,1,1,1.0,1.0,0.44988021679864687,0,0.0,0.0,0.0,0.5117712230776049,0.12428818456092627,0.38748303851667865,0.6360594076385312,0.12428818456092627,0.4722481105482075,8,0,6,5,7,1,nan,nan,nan,nan,nan,nan,nan,nan,nan,nan,nan,nan,0.0,nan,nan,nan,nan,nan,nan,nan,nan,nan,nan,nan,nan,nan,nan,nan,nan,nan,nan,832.2737237878918,1058.9625865302842,nan,1059.4124667470828,nan,nan,nan,nan
1,152,1,1,1.0,1.0,0.4087328411242197,0,0.0,0.0,0.0,0.5113501958240065,0.12396914117858308,0.38738105464542344,0.6353193370025896,0.12396914117858308,0.4524314483623281,7,6,1,0,2,8,nan,nan,nan,nan,nan,nan,nan,nan,nan,nan,nan,nan,0.0,nan,nan,nan,nan,nan,nan,nan,nan,nan,nan,nan,nan,nan,nan,nan,nan,nan,nan,832.2737237878918,1059.9877035124146,nan,1060.3964363535388,nan,nan,nan,nan
1,153,1,1,1.0,1.0,0.375888039270194,0,0.0,0.0,0.0,0.5106568353192782,0.1238352851479124,0.38682155017136577,0.6344921204671906,0.1238352851479124,0.41150036573102017,1,8,0,4,3,6,nan,nan,nan,nan,nan,nan,nan,nan,nan,nan,nan,nan,0.0,nan,nan,nan,nan,nan,nan,nan,nan,nan,nan,nan,nan,nan,nan,nan,nan,nan,nan,832.2737237878918,1061.004516495243,nan,1061.3804045345132,nan,nan,nan,nan
1,154,1,1,1.0,1.0,0.2630711654478546,0,1.0,0.0,0.0,0.5097523467551904,0.12390857890488757,0.38584376785030283,0.633660925660078,0.12390857890488757,0.34923068194742274,5,6,1,2,0,8,nan,nan,nan,nan,nan,nan,nan,nan,nan,nan,nan,nan,0.0,nan,nan,nan,nan,nan,nan,nan,nan,nan,nan,nan,nan,nan,nan,nan,nan,nan,nan,832.2737237878918,1062.021332043938,nan,1062.2844032093858,nan,nan,nan,nan
1,155,1,1,1.0,1.0,0.29428521658905993,1,0.0,0.0,1.0,0.5081078055464748,0.12511575922190862,0.3829920463245662,0.6332235647683835,0.12511575922190862,0.31108147376903617,4,0,5,3,2,7,1.0,1.0,1.0,1.0,1.0,1.0,1.0,0.0,0.0,1.0,0.0,0.0,2.0,4.0,6.0,6.0,3.0,6.0,6.0,1.0,5.0,6.0,2.0,3.0,4.0,1.6444646989511966,5.633851989986397,6.4895456620179175,2.642288559057988,3.458312224329802,4.753912019858717,832.2737237878918,1063.038088577703,1063.8464961809927,1063.3323737942922,1071.3807580538985,1072.3783985970983,1064.8549584087293,1071.3724261151613
1,156,1,1,1.0,1.0,0.5025571710696113,0,0.0,0.0,0.0,0.5066917619109953,0.1259009991145263,0.380790762796469,0.6325927610255215,0.1259009991145263,0.35330451770217525,0,7,8,2,4,1,nan,nan,nan,nan,nan,nan,nan,nan,nan,nan,nan,nan,0.0,nan,nan,nan,nan,nan,nan,nan,nan,nan,nan,nan,nan,nan,nan,nan,nan,nan,nan,832.2737237878918,1072.5975977217386,nan,1073.1001548928082,nan,nan,nan,nan
1,157,1,1,1.0,1.0,0.6217108798725803,0,0.0,0.0,0.0,0.5066645606554598,0.12548661284907708,0.38117794780638276,0.6321511735045369,0.12548661284907708,0.47285108917708385,4,3,5,8,7,6,nan,nan,nan,nan,nan,nan,nan,nan,nan,nan,nan,nan,0.0,nan,nan,nan,nan,nan,nan,nan,nan,nan,nan,nan,nan,nan,nan,nan,nan,nan,nan,832.2737237878918,1073.6143950242717,nan,1074.2361059041443,nan,nan,nan,nan
1,158,1,1,1.0,1.0,0.5968918233534168,0,0.0,0.0,0.0,0.5074164973823692,0.1254189431406055,0.3819975542417636,0.6328354405229747,0.1254189431406055,0.5737199580985362,1,8,6,0,3,2,nan,nan,nan,nan,nan,nan,nan,nan,nan,nan,nan,nan,0.0,nan,nan,nan,nan,nan,nan,nan,nan,nan,nan,nan,nan,nan,nan,nan,nan,nan,nan,832.2737237878918,1074.631184629205,nan,1075.2280764525585,nan,nan,nan,nan
1,159,1,1,1.0,1.0,0.46009664193638855,0,0.0,0.0,0.0,0.5079975059925708,0.12521748033374552,0.38278002565882524,0.6332149863263163,0.12521748033374552,0.559566448387462,3,6,7,2,5,4,nan,nan,nan,nan,nan,nan,nan,nan,nan,nan,nan,nan,0.0,nan,nan,nan,nan,nan,nan,nan,nan,nan,nan,nan,nan,nan,nan,nan,nan,nan,nan,832.2737237878918,1075.647974519235,nan,1076.1080711611714,nan,nan,nan,nan
1,160,1,1,1.0,1.0,0.4272817751918865,0,0.0,0.0,0.0,0.5076884681599502,0.12487180436138239,0.38281666379856777,0.6325602725213325,0.12487180436138239,0.49475674682723064,5,4,0,1,8,6,nan,nan,nan,nan,nan,nan,nan,nan,nan,nan,nan,nan,0.0,nan,nan,nan,nan,nan,nan,nan,nan,nan,nan,nan,nan,nan,nan,nan,nan,nan,nan,832.2737237878918,1076.6647806597528,nan,1077.0920624349446,nan,nan,nan,nan
1,161,1,1,1.0,1.0,0.5944528246911887,0,0.0,0.0,0.0,0.5071730406409242,0.1246362337411596,0.38253680689976455,0.6318092743820838,0.1246362337411596,0.49394374727315454,4,1,3,2,0,7,nan,nan,nan,nan,nan,nan,nan,nan,nan,nan,nan,nan,0.0,nan,nan,nan,nan,nan,nan,nan,nan,nan,nan,nan,nan,nan,nan,nan,nan,nan,nan,832.2737237878918,1077.6815705497825,nan,1078.2760233744737,nan,nan,nan,nan
1,162,1,1,1.0,1.0,0.4896460159077378,0,0.0,0.0,0.0,0.5077289628323272,0.12443254634666073,0.3832964164856664,0.6321615091789878,0.12443254634666073,0.5037935385969377,8,0,7,4,6,5,nan,nan,nan,nan,nan,nan,nan,nan,nan,nan,nan,nan,0.0,nan,nan,nan,nan,nan,nan,nan,nan,nan,nan,nan,nan,nan,nan,nan,nan,nan,nan,832.2737237878918,1078.6983461849984,nan,1079.1879922009061,nan,nan,nan,nan
1,163,1,1,1.0,1.0,0.5288504604448008,0,0.0,0.0,0.0,0.5076145138011589,0.12404643684577524,0.38356807695538364,0.6316609506469341,0.12404643684577524,0.5376497670145758,5,8,1,6,3,0,nan,nan,nan,nan,nan,nan,nan,nan,nan,nan,nan,nan,0.0,nan,nan,nan,nan,nan,nan,nan,nan,nan,nan,nan,nan,nan,nan,nan,nan,nan,nan,832.2737237878918,1079.7151203947328,nan,1080.2439708551776,nan,nan,nan,nan
1,164,1,1,1.0,1.0,0.5756361852179452,0,0.0,0.0,0.0,0.5077480732140119,0.1236671341574074,0.38408093905660456,0.6314152073714193,0.1236671341574074,0.5313775538568279,1,6,3,7,0,4,nan,nan,nan,nan,nan,nan,nan,nan,nan,nan,nan,nan,0.0,nan,nan,nan,nan,nan,nan,nan,nan,nan,nan,nan,nan,nan,nan,nan,nan,nan,nan,832.2737237878918,1080.7403434326789,nan,1081.3159796178968,nan,nan,nan,nan
1,165,1,1,1.0,1.0,0.7188466030920608,0,0.0,0.0,0.0,0.5081723739140365,0.12339611121355025,0.3847762627004862,0.6315684851275867,0.12339611121355025,0.6077777495849356,2,1,0,3,4,6,nan,nan,nan,nan,nan,nan,nan,nan,nan,nan,nan,nan,0.0,nan,nan,nan,nan,nan,nan,nan,nan,nan,nan,nan,nan,nan,nan,nan,nan,nan,nan,832.2737237878918,1081.7570777289345,nan,1082.4759243320266,nan,nan,nan,nan
1,166,1,1,nan,nan,nan,0,0.0,0.0,0.0,0.5094809094989932,0.1241208587065518,0.38536005079244134,0.6336017682055449,0.1241208587065518,0.647241394155003,8,4,7,5,1,3,nan,nan,nan,nan,nan,nan,nan,nan,nan,nan,nan,nan,0.0,nan,nan,nan,nan,nan,nan,nan,nan,nan,nan,nan,nan,nan,nan,nan,nan,nan,nan,832.2737237878918,1082.7738510833801,nan,nan,nan,nan,nan,nan
1,167,0,0,0.0,1.0,0.7171887682329725,0,0.0,0.0,0.0,0.5094809094989932,0.1241208587065518,0.38536005079244134,0.6336017682055449,0.1241208587065518,0.7180176856625167,5,2,8,1,4,0,nan,nan,nan,nan,nan,nan,nan,nan,nan,nan,nan,nan,0.0,nan,nan,nan,nan,nan,nan,nan,nan,nan,nan,nan,nan,nan,nan,nan,nan,nan,nan,832.2737237878918,1083.7906589344755,nan,1084.5078477027084,nan,nan,nan,nan
1,168,1,1,1.0,1.0,0.700388329640873,0,0.0,0.0,0.0,0.5107630567751289,0.12480207146134437,0.38596098531378453,0.6355651282364733,0.12480207146134437,0.7087885489369228,0,7,3,8,6,2,nan,nan,nan,nan,nan,nan,nan,nan,nan,nan,nan,nan,0.0,nan,nan,nan,nan,nan,nan,nan,nan,nan,nan,nan,nan,nan,nan,nan,nan,nan,nan,832.2737237878918,1084.8074605134527,nan,1085.5078488430936,nan,nan,nan,nan
1,169,1,1,1.0,1.0,0.7955437741102287,0,0.0,0.0,0.0,0.511926402007434,0.12529663906648472,0.3866297629409493,0.6372230410739187,0.12529663906648472,0.7377069573280247,7,4,6,1,3,5,nan,nan,nan,nan,nan,nan,nan,nan,nan,nan,nan,nan,0.0,nan,nan,nan,nan,nan,nan,nan,nan,nan,nan,nan,nan,nan,nan,nan,nan,nan,nan,832.2737237878918,1085.8243014357163,nan,1086.6198452098265,nan,nan,nan,nan
1,170,1,1,nan,nan,nan,0,0.0,0.0,0.0,0.5136557762275731,0.1268503467766869,0.38680542945088614,0.64050612300426,0.1268503467766869,0.7479660518755509,3,0,7,6,2,8,nan,nan,nan,nan,nan,nan,nan,nan,nan,nan,nan,nan,0.0,nan,nan,nan,nan,nan,nan,nan,nan,nan,nan,nan,nan,nan,nan,nan,nan,nan,nan,832.2737237878918,1086.8576665382784,nan,nan,nan,nan,nan,nan
1,171,1,1,1.0,1.0,0.7529318588535716,0,0.0,0.0,0.0,0.5136557762275731,0.1268503467766869,0.38680542945088614,0.64050612300426,0.1268503467766869,0.7742378164819002,5,1,6,3,4,7,nan,nan,nan,nan,nan,nan,nan,nan,nan,nan,nan,nan,0.0,nan,nan,nan,nan,nan,nan,nan,nan,nan,nan,nan,nan,nan,nan,nan,nan,nan,nan,832.2737237878918,1087.882824859369,nan,1088.6357567182226,nan,nan,nan,nan
1,172,1,1,1.0,1.0,0.7118395067607253,0,0.0,0.0,0.0,0.5151059343040942,0.1278216506975124,0.38728428360658185,0.6429275850016066,0.1278216506975124,0.7323856828071484,8,2,0,6,3,5,nan,nan,nan,nan,nan,nan,nan,nan,nan,nan,nan,nan,0.0,nan,nan,nan,nan,nan,nan,nan,nan,nan,nan,nan,nan,nan,nan,nan,nan,nan,nan,832.2737237878918,1088.907929012167,nan,1089.6197685189277,nan,nan,nan,nan
1,173,1,1,nan,nan,nan,0,0.0,0.0,0.0,0.516291076306845,0.12834213300179007,0.3879489433050549,0.6446332093086351,0.12834213300179007,0.7323856828071484,0,1,2,7,5,6,nan,nan,nan,nan,nan,nan,nan,nan,nan,nan,nan,nan,0.0,nan,nan,nan,nan,nan,nan,nan,nan,nan,nan,nan,nan,nan,nan,nan,nan,nan,nan,832.2737237878918,1089.9247451310546,nan,nan,nan,nan,nan,nan
1,174,0,0,0.0,1.0,0.5818410206218232,0,0.0,0.0,0.0,0.516291076306845,0.12834213300179007,0.3879489433050549,0.6446332093086351,0.12834213300179007,0.6468402636912742,2,8,3,4,1,7,nan,nan,nan,nan,nan,nan,nan,nan,nan,nan,nan,nan,0.0,nan,nan,nan,nan,nan,nan,nan,nan,nan,nan,nan,nan,nan,nan,nan,nan,nan,nan,832.2737237878918,1090.9498612578961,nan,1091.531702278518,nan,nan,nan,nan
1,175,1,1,1.0,1.0,0.668713562913581,0,0.0,0.0,0.0,0.5166835909434616,0.12805719579768637,0.38862639514577524,0.644740786741148,0.12805719579768637,0.6252772917677021,6,1,8,3,5,0,nan,nan,nan,nan,nan,nan,nan,nan,nan,nan,nan,nan,0.0,nan,nan,nan,nan,nan,nan,nan,nan,nan,nan,nan,nan,nan,nan,nan,nan,nan,nan,832.2737237878918,1091.9749759592564,nan,1092.64368952217,nan,nan,nan,nan
1,176,1,1,1.0,1.0,0.619555552007796,0,0.0,0.0,0.0,0.5175885312528076,0.128209958833043,0.3893785724197646,0.6457984900858506,0.128209958833043,0.6233700451810668,0,4,6,2,1,7,nan,nan,nan,nan,nan,nan,nan,nan,nan,nan,nan,nan,0.0,nan,nan,nan,nan,nan,nan,nan,nan,nan,nan,nan,nan,nan,nan,nan,nan,nan,nan,832.2737237878918,1093.0001128981262,nan,1093.619668450134,nan,nan,nan,nan
1,177,1,1,1.0,1.0,0.6427224755934731,0,0.0,0.0,0.0,0.518191886405204,0.12806907036174522,0.3901228160434588,0.6462609567669492,0.12806907036174522,0.64366386350495,1,8,5,7,3,0,nan,nan,nan,nan,nan,nan,nan,nan,nan,nan,nan,nan,0.0,nan,nan,nan,nan,nan,nan,nan,nan,nan,nan,nan,nan,nan,nan,nan,nan,nan,nan,832.2737237878918,1094.0169150472962,nan,1094.6596375228896,nan,nan,nan,nan
1,178,1,1,1.0,1.0,0.6499143143134916,0,0.0,0.0,0.0,0.518924419282782,0.1280464463359267,0.3908779729468553,0.6469708656187088,0.1280464463359267,0.6373974473049202,6,5,8,1,0,4,nan,nan,nan,nan,nan,nan,nan,nan,nan,nan,nan,nan,0.0,nan,nan,nan,nan,nan,nan,nan,nan,nan,nan,nan,nan,nan,nan,nan,nan,nan,nan,832.2737237878918,1095.033704082037,nan,1095.6836183963505,nan,nan,nan,nan
1,179,1,1,nan,nan,nan,0,0.0,0.0,0.0,0.5196904420607394,0.1280615651154953,0.3916288769452442,0.6477520071762347,0.1280615651154953,0.6463183949534823,3,4,5,8,7,0,nan,nan,nan,nan,nan,nan,nan,nan,nan,nan,nan,nan,0.0,nan,nan,nan,nan,nan,nan,nan,nan,nan,nan,nan,nan,nan,nan,nan,nan,nan,nan,832.2737237878918,1096.050503380244,nan,nan,nan,nan,nan,nan
1,180,0,0,nan,nan,nan,0,0.0,0.0,0.0,0.5196904420607394,0.1280615651154953,0.3916288769452442,0.6477520071762347,0.1280615651154953,0.6499143143134916,0,6,1,7,4,2,nan,nan,nan,nan,nan,nan,nan,nan,nan,nan,nan,nan,0.0,nan,nan,nan,nan,nan,nan,nan,nan,nan,nan,nan,nan,nan,nan,nan,nan,nan,nan,832.2737237878918,1097.0756092436195,nan,nan,nan,nan,nan,nan
1,181,1,1,nan,nan,nan,0,0.0,0.0,0.0,0.5196904420607394,0.1280615651154953,0.3916288769452442,0.6477520071762347,0.1280615651154953,nan,6,7,2,1,8,3,nan,nan,nan,nan,nan,nan,nan,nan,nan,nan,nan,nan,0.0,nan,nan,nan,nan,nan,nan,nan,nan,nan,nan,nan,nan,nan,nan,nan,nan,nan,nan,832.2737237878918,1098.1007401954678,nan,nan,nan,nan,nan,nan
1,182,0,0,0.0,1.0,0.5012845012824982,0,0.0,0.0,0.0,0.5196904420607394,0.1280615651154953,0.3916288769452442,0.6477520071762347,0.1280615651154953,0.5012845012824982,0,3,5,4,6,2,nan,nan,nan,nan,nan,nan,nan,nan,nan,nan,nan,nan,0.0,nan,nan,nan,nan,nan,nan,nan,nan,nan,nan,nan,nan,nan,nan,nan,nan,nan,nan,832.2737237878918,1099.1342122091341,nan,1099.6354967104166,nan,nan,nan,nan
1,183,1,1,1.0,1.0,0.37251278443000047,0,0.0,0.0,0.0,0.519583430777145,0.12769641805459603,0.39188701272254894,0.6472798488317411,0.12769641805459603,0.43689864285624935,3,1,7,5,4,6,nan,nan,nan,nan,nan,nan,nan,nan,nan,nan,nan,nan,0.0,nan,nan,nan,nan,nan,nan,nan,nan,nan,nan,nan,nan,nan,nan,nan,nan,nan,nan,832.2737237878918,1100.1510092265707,nan,1100.5235220110008,nan,nan,nan,nan
1,184,1,1,1.0,1.0,0.4273824141782825,0,0.0,0.0,0.0,0.518733311434098,0.1278140194907322,0.3909192919433657,0.6465473309248302,0.1278140194907322,0.4337265666302604,4,3,8,7,5,1,nan,nan,nan,nan,nan,nan,nan,nan,nan,nan,nan,nan,0.0,nan,nan,nan,nan,nan,nan,nan,nan,nan,nan,nan,nan,nan,nan,nan,nan,nan,nan,832.2737237878918,1101.1761173707166,nan,1101.603499784895,nan,nan,nan,nan
1,185,1,1,1.0,1.0,0.506235198157583,0,0.0,0.0,0.0,0.5182083062774553,0.12763314674588355,0.39057515953157174,0.6458414530233388,0.12763314674588355,0.4353767989219553,6,7,2,3,1,8,nan,nan,nan,nan,nan,nan,nan,nan,nan,nan,nan,nan,0.0,nan,nan,nan,nan,nan,nan,nan,nan,nan,nan,nan,nan,nan,nan,nan,nan,nan,nan,832.2737237878918,1102.2012369187137,nan,1102.7074721168713,nan,nan,nan,nan
1,186,1,1,1.0,1.0,0.5530596960247749,0,0.0,0.0,0.0,0.5181398885167703,0.12727115803761874,0.39086873047915155,0.645411046554389,0.12727115803761874,0.49555910278688015,0,2,1,5,7,3,nan,nan,nan,nan,nan,nan,nan,nan,nan,nan,nan,nan,0.0,nan,nan,nan,nan,nan,nan,nan,nan,nan,nan,nan,nan,nan,nan,nan,nan,nan,nan,832.2737237878918,1103.2263675854654,nan,1103.7794272814901,nan,nan,nan,nan
1,187,1,1,1.0,1.0,0.6002186118262216,0,0.0,0.0,0.0,0.5183382965139749,0.1269362157857405,0.3914020807282344,0.6452745122997154,0.1269362157857405,0.5531711686695265,8,1,4,3,2,0,nan,nan,nan,nan,nan,nan,nan,nan,nan,nan,nan,nan,0.0,nan,nan,nan,nan,nan,nan,nan,nan,nan,nan,nan,nan,nan,nan,nan,nan,nan,nan,832.2737237878918,1104.2431785726199,nan,1104.843397184446,nan,nan,nan,nan
1,188,0,0,0.0,1.0,0.54308987916761,0,0.0,0.0,0.0,0.5188008971654565,0.126725822077534,0.3920750750879225,0.6455267192429905,0.126725822077534,0.5654560623395355,4,0,7,8,1,5,nan,nan,nan,nan,nan,nan,nan,nan,nan,nan,nan,nan,0.0,nan,nan,nan,nan,nan,nan,nan,nan,nan,nan,nan,nan,nan,nan,nan,nan,nan,nan,832.2737237878918,1105.2683009715797,nan,1105.8113908507473,nan,nan,nan,nan
1,189,1,1,nan,nan,nan,0,0.0,0.0,0.0,0.5189373521205247,0.12638238870190505,0.3925549634186197,0.6453197408224298,0.12638238870190505,0.5716542454969158,2,5,3,1,8,4,nan,nan,nan,nan,nan,nan,nan,nan,nan,nan,nan,nan,0.0,nan,nan,nan,nan,nan,nan,nan,nan,nan,nan,nan,nan,nan,nan,nan,nan,nan,nan,832.2737237878918,1106.2934233705394,nan,nan,nan,nan,nan,nan
1,190,1,1,1.0,1.0,0.580741404275841,0,0.0,0.0,0.0,0.5189373521205247,0.12638238870190505,0.3925549634186197,0.6453197408224298,0.12638238870190505,0.5619156417217255,4,8,5,0,6,3,nan,nan,nan,nan,nan,nan,nan,nan,nan,nan,nan,nan,0.0,nan,nan,nan,nan,nan,nan,nan,nan,nan,nan,nan,nan,nan,nan,nan,nan,nan,nan,832.2737237878918,1107.318553752195,nan,1107.8992951564708,nan,nan,nan,nan
1,191,1,1,1.0,1.0,0.339979877904625,0,0.0,0.0,0.0,0.519282626154912,0.12611303027454981,0.39316959588036227,0.6453956564294618,0.12611303027454981,0.460360641090233,2,0,7,8,5,1,nan,nan,nan,nan,nan,nan,nan,nan,nan,nan,nan,nan,0.0,nan,nan,nan,nan,nan,nan,nan,nan,nan,nan,nan,nan,nan,nan,nan,nan,nan,nan,832.2737237878918,1108.3353430720322,nan,1108.6753229499368,nan,nan,nan,nan
1,192,1,1,1.0,1.0,0.3628206513481018,0,0.0,0.0,0.0,0.5182864997757437,0.12646641459808391,0.39182008517765976,0.6447529143738276,0.12646641459808391,0.4278473111761893,5,4,3,2,7,8,nan,nan,nan,nan,nan,nan,nan,nan,nan,nan,nan,nan,0.0,nan,nan,nan,nan,nan,nan,nan,nan,nan,nan,nan,nan,nan,nan,nan,nan,nan,nan,832.2737237878918,1109.3604697474361,nan,1109.7232903987842,nan,nan,nan,nan
1,193,1,1,1.0,1.0,0.30600723517341066,0,1.0,0.0,0.0,0.5174275724363645,0.12664196323015844,0.3907856092062061,0.6440695356665229,0.12664196323015844,0.3362692548087125,8,5,2,7,0,6,nan,nan,nan,nan,nan,nan,nan,nan,nan,nan,nan,nan,0.0,nan,nan,nan,nan,nan,nan,nan,nan,nan,nan,nan,nan,nan,nan,nan,nan,nan,nan,832.2737237878918,1110.3772756028575,nan,1110.683282838031,nan,nan,nan,nan
1,194,0,0,1.0,0.0,0.2728536740501113,0,0.0,0.0,0.0,0.516265922231623,0.1272568740457076,0.3890090481859154,0.6435227962773307,0.1272568740457076,0.3138938535238746,4,1,7,0,6,2,nan,nan,nan,nan,nan,nan,nan,nan,nan,nan,nan,nan,0.0,nan,nan,nan,nan,nan,nan,nan,nan,nan,nan,nan,nan,nan,nan,nan,nan,nan,nan,832.2737237878918,1111.402391729699,nan,1111.6752454037492,nan,nan,nan,nan
1,195,1,1,1.0,1.0,0.27972249868639665,0,0.0,0.0,0.0,0.5149358006568606,0.12817104643091862,0.38676475422594203,0.6431068470877792,0.12817104643091862,0.2861944693033062,7,3,6,8,4,1,nan,nan,nan,nan,nan,nan,nan,nan,nan,nan,nan,nan,0.0,nan,nan,nan,nan,nan,nan,nan,nan,nan,nan,nan,nan,nan,nan,nan,nan,nan,nan,832.2737237878918,1112.4275127031774,nan,1112.7072352018638,nan,nan,nan,nan
1,196,1,1,1.0,1.0,0.35087654276276226,0,0.0,0.0,0.0,0.5136574674939777,0.12898675264100862,0.38467071485296905,0.6426442201349862,0.12898675264100862,0.3011509051664234,3,1,7,4,5,0,nan,nan,nan,nan,nan,nan,nan,nan,nan,nan,nan,nan,0.0,nan,nan,nan,nan,nan,nan,nan,nan,nan,nan,nan,nan,nan,nan,nan,nan,nan,nan,832.2737237878918,1113.4443219797542,nan,1113.795198522517,nan,nan,nan,nan
1,197,1,1,1.0,1.0,0.40607089717218514,0,1.0,0.0,0.0,0.5127775706035387,0.1291901919273441,0.3835873786761946,0.6419677625308828,0.1291901919273441,0.3455566462071147,2,6,4,5,0,7,nan,nan,nan,nan,nan,nan,nan,nan,nan,nan,nan,nan,0.0,nan,nan,nan,nan,nan,nan,nan,nan,nan,nan,nan,nan,nan,nan,nan,nan,nan,nan,832.2737237878918,1114.4611058827622,nan,1114.8671767799344,nan,nan,nan,nan
1,198,1,1,1.0,1.0,0.43692287603994373,1,0.0,0.0,1.0,0.512203878810897,0.1290785092867748,0.38312536952412224,0.6412823880976718,0.1290785092867748,0.3979567719916304,0,8,6,1,7,3,1.0,1.0,1.0,1.0,1.0,1.0,0.0,0.0,1.0,1.0,0.0,0.0,2.0,2.0,6.0,6.0,1.0,4.0,4.0,2.0,6.0,5.0,1.0,4.0,3.0,3.489893764573935,7.935464466027497,6.759628770434119,2.346239166697842,5.4566809034245125,4.6715622449280545,832.2737237878918,1115.486225430759,1116.2946336042414,1115.923148306799,1125.2957409181868,1126.3064049444818,1117.3197685474372,1125.2874092645457
1,199,1,1,1.0,1.0,0.44166060599491175,0,0.0,0.0,0.0,0.5118013066035657,0.12884994326490823,0.3829513633386575,0.640651249868474,0.12884994326490823,0.42821812640234685,3,6,4,7,1,8,nan,nan,nan,nan,nan,nan,nan,nan,nan,nan,nan,nan,0.0,nan,nan,nan,nan,nan,nan,nan,nan,nan,nan,nan,nan,nan,nan,nan,nan,nan,nan,832.2737237878918,1126.5292567226415,nan,1126.9709173286365,nan,nan,nan,nan
1,200,1,1,1.0,1.0,0.5048017340698152,0,0.0,0.0,0.0,0.5114282177705409,0.12860803726025774,0.3828201805102832,0.6400362550307986,0.12860803726025774,0.4611284053682236,1,5,0,8,4,2,nan,nan,nan,nan,nan,nan,nan,nan,nan,nan,nan,nan,0.0,nan,nan,nan,nan,nan,nan,nan,nan,nan,nan,nan,nan,nan,nan,nan,nan,nan,nan,832.2737237878918,1127.5460594420038,nan,1128.0508611760736,nan,nan,nan,nan
1,201,1,1,1.0,1.0,0.5360038111668928,0,0.0,0.0,0.0,0.5113931570102197,0.12826825397016026,0.3831249030400594,0.63966141098038,0.12826825397016026,0.49415538374387324,2,4,8,1,6,7,nan,nan,nan,nan,nan,nan,nan,nan,nan,nan,nan,nan,0.0,nan,nan,nan,nan,nan,nan,nan,nan,nan,nan,nan,nan,nan,nan,nan,nan,nan,nan,832.2737237878918,1128.5628422046268,nan,1129.0988460157937,nan,nan,nan,nan
1,202,1,1,1.0,1.0,0.4868400983355059,0,0.0,0.0,0.0,0.511522686768939,0.127942653622928,0.38358003314601097,0.639465340391867,0.127942653622928,0.5092152145240713,8,1,3,6,0,2,nan,nan,nan,nan,nan,nan,nan,nan,nan,nan,nan,nan,0.0,nan,nan,nan,nan,nan,nan,nan,nan,nan,nan,nan,nan,nan,nan,nan,nan,nan,nan,832.2737237878918,1129.5879737266673,nan,1130.0748138250028,nan,nan,nan,nan
1,203,1,1,1.0,1.0,0.40604637889236983,0,0.0,0.0,0.0,0.5113934585572456,0.1276197176894661,0.3837737408677795,0.6390131762467117,0.1276197176894661,0.47629676279825617,1,0,5,3,2,8,nan,nan,nan,nan,nan,nan,nan,nan,nan,nan,nan,nan,0.0,nan,nan,nan,nan,nan,nan,nan,nan,nan,nan,nan,nan,nan,nan,nan,nan,nan,nan,832.2737237878918,1130.60475420852,nan,1131.0108005874124,nan,nan,nan,nan
1,204,1,1,1.0,1.0,0.4692151613060105,0,0.0,0.0,0.0,0.5108447758506577,0.12751261258312577,0.38333216326753194,0.6383573884337834,0.12751261258312577,0.4540338795112954,4,5,7,6,0,3,nan,nan,nan,nan,nan,nan,nan,nan,nan,nan,nan,nan,0.0,nan,nan,nan,nan,nan,nan,nan,nan,nan,nan,nan,nan,nan,nan,nan,nan,nan,nan,832.2737237878918,1131.6215612043266,nan,1132.0907763656326,nan,nan,nan,nan
1,205,0,0,0.0,1.0,0.5003975667602845,0,0.0,0.0,0.0,0.5106290783659704,0.12721695368851513,0.3834121246774552,0.6378460320544855,0.12721695368851513,0.45855303565288824,1,3,5,8,2,6,nan,nan,nan,nan,nan,nan,nan,nan,nan,nan,nan,nan,0.0,nan,nan,nan,nan,nan,nan,nan,nan,nan,nan,nan,nan,nan,nan,nan,nan,nan,nan,832.2737237878918,1132.6383542304154,nan,1133.1387517971757,nan,nan,nan,nan
1,206,1,1,1.0,1.0,0.4755702424486117,0,0.0,0.0,0.0,0.5105763386154256,0.12689076665000457,0.3836855719654211,0.6374671052654302,0.12689076665000457,0.4817276568383022,3,6,2,5,0,8,nan,nan,nan,nan,nan,nan,nan,nan,nan,nan,nan,nan,0.0,nan,nan,nan,nan,nan,nan,nan,nan,nan,nan,nan,nan,nan,nan,nan,nan,nan,nan,832.2737237878918,1133.6551475416006,nan,1134.1307177840492,nan,nan,nan,nan
1,207,1,1,1.0,1.0,0.4987348852644118,0,0.0,0.0,0.0,0.5103968201735446,0.12658968392303327,0.3838071362505113,0.6369865040965779,0.12658968392303327,0.491567564824436,4,0,5,7,1,3,nan,nan,nan,nan,nan,nan,nan,nan,nan,nan,nan,nan,0.0,nan,nan,nan,nan,nan,nan,nan,nan,nan,nan,nan,nan,nan,nan,nan,nan,nan,nan,832.2737237878918,1134.671957673466,nan,1135.1706925587305,nan,nan,nan,nan
1,208,1,1,1.0,1.0,0.5299677527600579,0,0.0,0.0,0.0,0.5103373205056408,0.12626907173815483,0.384068248767486,0.6366063922437957,0.12626907173815483,0.5014242934910271,3,6,0,1,2,4,nan,nan,nan,nan,nan,nan,nan,nan,nan,nan,nan,nan,0.0,nan,nan,nan,nan,nan,nan,nan,nan,nan,nan,nan,nan,nan,nan,nan,nan,nan,nan,832.2737237878918,1135.6887193389643,nan,1136.2186870917244,nan,nan,nan,nan
1,209,1,1,1.0,1.0,0.4251871728340575,0,0.0,0.0,0.0,0.5104369673698764,0.1259559100076217,0.3844810573622547,0.6363928773774982,0.1259559100076217,0.4846299369528424,2,1,6,8,4,5,nan,nan,nan,nan,nan,nan,nan,nan,nan,nan,nan,nan,0.0,nan,nan,nan,nan,nan,nan,nan,nan,nan,nan,nan,nan,nan,nan,nan,nan,nan,nan,832.2737237878918,1136.705481289559,nan,1137.130668462393,nan,nan,nan,nan
1,210,1,1,1.0,1.0,0.408004705229132,0,0.0,0.0,0.0,0.5100064128520188,0.1257826890290361,0.38422372382298264,0.6357891018810549,0.1257826890290361,0.45438654360774916,8,5,7,2,0,3,nan,nan,nan,nan,nan,nan,nan,nan,nan,nan,nan,nan,0.0,nan,nan,nan,nan,nan,nan,nan,nan,nan,nan,nan,nan,nan,nan,nan,nan,nan,nan,832.2737237878918,1137.7306396106496,nan,1138.1386443158788,nan,nan,nan,nan
1,211,1,1,1.0,1.0,0.3828954206981052,0,0.0,0.0,0.0,0.5094938414569289,0.12567339154928936,0.3838204499076395,0.6351672330062182,0.12567339154928936,0.40536243292043156,1,8,4,5,2,7,nan,nan,nan,nan,nan,nan,nan,nan,nan,nan,nan,nan,0.0,nan,nan,nan,nan,nan,nan,nan,nan,nan,nan,nan,nan,nan,nan,nan,nan,nan,nan,832.2737237878918,1138.7557275129598,nan,1139.1386229336579,nan,nan,nan,nan
1,212,1,1,1.0,1.0,0.4220428459793766,0,0.0,0.0,0.0,0.5088608493531348,0.12567643955202248,0.38318440980111235,0.6345372889051573,0.12567643955202248,0.4043143239688713,2,0,1,8,5,6,nan,nan,nan,nan,nan,nan,nan,nan,nan,nan,nan,nan,0.0,nan,nan,nan,nan,nan,nan,nan,nan,nan,nan,nan,nan,nan,nan,nan,nan,nan,nan,832.2737237878918,1139.772548478484,nan,1140.1945913244633,nan,nan,nan,nan
1,213,1,1,1.0,1.0,0.37320528329019,0,0.0,0.0,0.0,0.5084289189880912,0.12551215195716373,0.3829167670309275,0.6339410709452549,0.12551215195716373,0.3927145166558906,4,5,2,3,8,1,nan,nan,nan,nan,nan,nan,nan,nan,nan,nan,nan,nan,0.0,nan,nan,nan,nan,nan,nan,nan,nan,nan,nan,nan,nan,nan,nan,nan,nan,nan,nan,832.2737237878918,1140.7893617464085,nan,1141.1625670296987,nan,nan,nan,nan
1,214,1,1,1.0,1.0,0.42839764202562947,0,0.0,0.0,0.0,0.5077594950489926,0.12556029413904052,0.38219920090995213,0.6333197891880331,0.12556029413904052,0.4078819237650653,6,7,8,0,3,2,nan,nan,nan,nan,nan,nan,nan,nan,nan,nan,nan,nan,0.0,nan,nan,nan,nan,nan,nan,nan,nan,nan,nan,nan,nan,nan,nan,nan,nan,nan,nan,832.2737237878918,1141.806141943165,nan,1142.2345395851905,nan,nan,nan,nan
1,215,1,1,1.0,1.0,0.42759680657945864,0,0.0,0.0,0.0,0.5073685499602076,0.12537383596940424,0.3819947139908034,0.6327423859296119,0.12537383596940424,0.4097332439650927,7,4,1,6,2,0,nan,nan,nan,nan,nan,nan,nan,nan,nan,nan,nan,nan,0.0,nan,nan,nan,nan,nan,nan,nan,nan,nan,nan,nan,nan,nan,nan,nan,nan,nan,nan,832.2737237878918,1142.822924990884,nan,1143.2505217974635,nan,nan,nan,nan
1,216,1,1,1.0,1.0,0.4507625897804246,0,0.0,0.0,0.0,0.5069775120024589,0.1251902059267443,0.3817873060757146,0.6321677179292031,0.1251902059267443,0.43558567946183757,6,0,3,8,4,7,nan,nan,nan,nan,nan,nan,nan,nan,nan,nan,nan,nan,0.0,nan,nan,nan,nan,nan,nan,nan,nan,nan,nan,nan,nan,nan,nan,nan,nan,nan,nan,832.2737237878918,1143.8397308463054,nan,1144.2904934360859,nan,nan,nan,nan
1,217,1,1,1.0,1.0,0.4819512673527697,0,0.0,0.0,0.0,0.5067032928696684,0.12494589238525453,0.38175740048441387,0.631649185254923,0.12494589238525453,0.45343688790421766,0,5,7,3,1,2,nan,nan,nan,nan,nan,nan,nan,nan,nan,nan,nan,nan,0.0,nan,nan,nan,nan,nan,nan,nan,nan,nan,nan,nan,nan,nan,nan,nan,nan,nan,nan,832.2737237878918,1144.8565215916242,nan,1145.338472858977,nan,nan,nan,nan
1,218,1,1,1.0,1.0,0.529128144220067,0,0.0,0.0,0.0,0.5065831374059941,0.12465412874638808,0.38192900865960605,0.6312372661523822,0.12465412874638808,0.4872806671177538,1,4,0,6,7,5,nan,nan,nan,nan,nan,nan,nan,nan,nan,nan,nan,nan,0.0,nan,nan,nan,nan,nan,nan,nan,nan,nan,nan,nan,nan,nan,nan,nan,nan,nan,nan,832.2737237878918,1145.873307490306,nan,1146.402435634526,nan,nan,nan,nan
1,219,1,1,1.0,1.0,0.4163124107826661,0,0.0,0.0,0.0,0.5066920504823906,0.12436249212171019,0.38232955836068044,0.6310545426041008,0.12436249212171019,0.475797274118501,0,5,6,2,1,7,nan,nan,nan,nan,nan,nan,nan,nan,nan,nan,nan,nan,0.0,nan,nan,nan,nan,nan,nan,nan,nan,nan,nan,nan,nan,nan,nan,nan,nan,nan,nan,832.2737237878918,1146.8901127755348,nan,1147.3064251863175,nan,nan,nan,nan
1,220,1,1,1.0,1.0,0.42349512642181253,0,0.0,0.0,0.0,0.5062575329838344,0.12422059517417824,0.3820369378096561,0.6304781281580126,0.12422059517417824,0.4563118938081819,5,7,2,6,3,0,nan,nan,nan,nan,nan,nan,nan,nan,nan,nan,nan,nan,0.0,nan,nan,nan,nan,nan,nan,nan,nan,nan,nan,nan,nan,nan,nan,nan,nan,nan,nan,832.2737237878918,1147.9069046612385,nan,1148.3303997876603,nan,nan,nan,nan
1,221,1,1,1.0,1.0,0.4306729954239472,0,0.0,0.0,0.0,0.5058615406079394,0.12405459027292597,0.38180695033501344,0.6299161308808654,0.12405459027292597,0.42349351087614195,7,6,4,0,5,1,nan,nan,nan,nan,nan,nan,nan,nan,nan,nan,nan,nan,0.0,nan,nan,nan,nan,nan,nan,nan,nan,nan,nan,nan,nan,nan,nan,nan,nan,nan,nan,832.2737237878918,1148.9236914152093,nan,1149.3543644106333,nan,nan,nan,nan
1,222,1,1,1.0,1.0,0.38159566676472423,0,0.0,0.0,0.0,0.5055034999165872,0.12386706666028525,0.3816364332563019,0.6293705665768724,0.12386706666028525,0.41192126287016134,5,3,8,1,0,2,nan,nan,nan,nan,nan,nan,nan,nan,nan,nan,nan,nan,0.0,nan,nan,nan,nan,nan,nan,nan,nan,nan,nan,nan,nan,nan,nan,nan,nan,nan,nan,832.2737237878918,1149.9487630670315,nan,1150.3303587337962,nan,nan,nan,nan
1,223,1,1,1.0,1.0,0.43639516282860313,0,0.0,0.0,0.0,0.5049162590011754,0.12386586786826363,0.3810503911329118,0.628782126869439,0.12386586786826363,0.4162212750057582,8,4,6,0,1,7,nan,nan,nan,nan,nan,nan,nan,nan,nan,nan,nan,nan,0.0,nan,nan,nan,nan,nan,nan,nan,nan,nan,nan,nan,nan,nan,nan,nan,nan,nan,nan,832.2737237878918,1150.9739399193804,nan,1151.410335082209,nan,nan,nan,nan
1,224,1,1,1.0,1.0,0.5312526816867376,0,0.0,0.0,0.0,0.5045930462833803,0.1236625414931765,0.3809305047902038,0.6282555877765568,0.1236625414931765,0.449747837093355,6,1,3,7,2,8,nan,nan,nan,nan,nan,nan,nan,nan,nan,nan,nan,nan,0.0,nan,nan,nan,nan,nan,nan,nan,nan,nan,nan,nan,nan,nan,nan,nan,nan,nan,nan,832.2737237878918,1151.999056901511,nan,1152.5303095831978,nan,nan,nan,nan
1,225,1,1,1.0,1.0,0.5304287534422656,0,0.0,0.0,0.0,0.5047182088909078,0.12338537139274007,0.3813328374981677,0.6281035802836479,0.12338537139274007,0.49935886598586876,0,3,5,8,6,1,nan,nan,nan,nan,nan,nan,nan,nan,nan,nan,nan,nan,0.0,nan,nan,nan,nan,nan,nan,nan,nan,nan,nan,nan,nan,nan,nan,nan,nan,nan,nan,832.2737237878918,1153.0158653227988,nan,1153.546294076241,nan,nan,nan,nan
1,226,1,1,1.0,1.0,0.5372787617243375,0,0.0,0.0,0.0,0.5048383516224562,0.12310923775988337,0.3817291138625728,0.6279475893823395,0.12310923775988337,0.5329867322844469,8,6,0,3,4,2,nan,nan,nan,nan,nan,nan,nan,nan,nan,nan,nan,nan,0.0,nan,nan,nan,nan,nan,nan,nan,nan,nan,nan,nan,nan,nan,nan,nan,nan,nan,nan,832.2737237878918,1154.0409840155069,nan,1154.5782627772312,nan,nan,nan,nan
1,227,1,1,1.0,1.0,0.4881207508180978,0,0.0,0.0,0.0,0.504989237250837,0.12284243550714434,0.38214680174369264,0.6278316727579814,0.12284243550714434,0.5186094219949003,5,8,6,7,3,0,nan,nan,nan,nan,nan,nan,nan,nan,nan,nan,nan,nan,0.0,nan,nan,nan,nan,nan,nan,nan,nan,nan,nan,nan,nan,nan,nan,nan,nan,nan,nan,832.2737237878918,1155.066117818318,nan,1155.554238569136,nan,nan,nan,nan
1,228,1,1,1.0,1.0,0.48730280959534866,0,0.0,0.0,0.0,0.504911142406241,0.12256309750979047,0.3823480448964506,0.6274742399160315,0.12256309750979047,0.5042341073792613,7,3,4,1,5,6,nan,nan,nan,nan,nan,nan,nan,nan,nan,nan,nan,nan,0.0,nan,nan,nan,nan,nan,nan,nan,nan,nan,nan,nan,nan,nan,nan,nan,nan,nan,nan,832.2737237878918,1156.0829156910434,nan,1156.5702185006387,nan,nan,nan,nan
1,229,1,1,1.0,1.0,0.48614702928261977,0,0.0,0.0,0.0,0.5048299980154074,0.12228618327899676,0.38254381473641064,0.6271161812944042,0.12228618327899676,0.4871901965653554,1,5,2,7,6,0,nan,nan,nan,nan,nan,nan,nan,nan,nan,nan,nan,nan,0.0,nan,nan,nan,nan,nan,nan,nan,nan,nan,nan,nan,nan,nan,nan,nan,nan,nan,nan,832.2737237878918,1157.1080423664473,nan,1157.59418939573,nan,nan,nan,nan
1,230,1,1,1.0,1.0,0.5890260170310739,0,0.0,0.0,0.0,0.5047442963239727,0.12201191957307422,0.38273237675089844,0.6267562158970469,0.12201191957307422,0.5208252853030141,6,3,5,8,7,2,nan,nan,nan,nan,nan,nan,nan,nan,nan,nan,nan,nan,0.0,nan,nan,nan,nan,nan,nan,nan,nan,nan,nan,nan,nan,nan,nan,nan,nan,nan,nan,832.2737237878918,1158.1331488000155,nan,1158.7221748170466,nan,nan,nan,nan
1,231,1,1,1.0,1.0,0.5561946147024628,0,0.0,0.0,0.0,0.505129144363731,0.12186557887143894,0.38326356549229207,0.6269947232351699,0.12186557887143894,0.5437892203387188,1,2,4,0,6,8,nan,nan,nan,nan,nan,nan,nan,nan,nan,nan,nan,nan,0.0,nan,nan,nan,nan,nan,nan,nan,nan,nan,nan,nan,nan,nan,nan,nan,nan,nan,nan,832.2737237878918,1159.1499543703405,nan,1159.706148985043,nan,nan,nan,nan
1,232,1,1,1.0,1.0,0.5713628771004551,0,0.0,0.0,0.0,0.505361260137998,0.12163680773018237,0.3837244524078156,0.6269980678681804,0.12163680773018237,0.5721945029446639,7,6,8,1,0,5,nan,nan,nan,nan,nan,nan,nan,nan,nan,nan,nan,nan,0.0,nan,nan,nan,nan,nan,nan,nan,nan,nan,nan,nan,nan,nan,nan,nan,nan,nan,nan,832.2737237878918,1160.1667493921034,nan,1160.7381122692038,nan,nan,nan,nan
1,233,0,0,0.0,1.0,0.5065450978122499,0,0.0,0.0,0.0,0.5056599099885069,0.12144211441462337,0.38421779557388347,0.6271020244031302,0.12144211441462337,0.544700863205056,3,8,0,7,4,2,nan,nan,nan,nan,nan,nan,nan,nan,nan,nan,nan,nan,0.0,nan,nan,nan,nan,nan,nan,nan,nan,nan,nan,nan,nan,nan,nan,nan,nan,nan,nan,832.2737237878918,1161.183551256177,nan,1161.6900963539892,nan,nan,nan,nan
1,234,1,1,1.0,1.0,0.5297408161222847,0,0.0,0.0,0.0,0.5056638973210462,0.12116830192615426,0.384495595394892,0.6268321992472005,0.12116830192615426,0.5358829303449966,4,7,3,6,5,1,nan,nan,nan,nan,nan,nan,nan,nan,nan,nan,nan,nan,0.0,nan,nan,nan,nan,nan,nan,nan,nan,nan,nan,nan,nan,nan,nan,nan,nan,nan,nan,832.2737237878918,1162.2003260361041,nan,1162.7300668522264,nan,nan,nan,nan
1,235,1,1,1.0,1.0,0.49692537918508606,0,0.0,0.0,0.0,0.5057718655667918,0.12090702130198572,0.38486484426480605,0.6266788868687775,0.12090702130198572,0.5110704310398736,6,5,1,2,4,3,nan,nan,nan,nan,nan,nan,nan,nan,nan,nan,nan,nan,0.0,nan,nan,nan,nan,nan,nan,nan,nan,nan,nan,nan,nan,nan,nan,nan,nan,nan,nan,832.2737237878918,1163.2171187770966,nan,1163.7140441562817,nan,nan,nan,nan
1,236,1,1,1.0,1.0,0.5277787835341314,0,0.0,0.0,0.0,0.5057323723240162,0.12063827925372918,0.3850940930702871,0.6263706515777454,0.12063827925372918,0.5181483262805008,5,6,0,8,1,4,nan,nan,nan,nan,nan,nan,nan,nan,nan,nan,nan,nan,0.0,nan,nan,nan,nan,nan,nan,nan,nan,nan,nan,nan,nan,nan,nan,nan,nan,nan,nan,832.2737237878918,1164.2422394654786,nan,1164.7700182490128,nan,nan,nan,nan
1,237,1,1,1.0,1.0,0.4550481570379361,0,0.0,0.0,0.0,0.505830356373839,0.12037882860041753,0.38545152777342145,0.6262091849742565,0.12037882860041753,0.49325077325238453,3,2,7,4,5,6,nan,nan,nan,nan,nan,nan,nan,nan,nan,nan,nan,nan,0.0,nan,nan,nan,nan,nan,nan,nan,nan,nan,nan,nan,nan,nan,nan,nan,nan,nan,nan,832.2737237878918,1165.2590418997447,nan,1165.7140900567827,nan,nan,nan,nan
1,238,1,1,1.0,1.0,0.44614659593617034,0,0.0,0.0,0.0,0.5056056563767775,0.12015948943025069,0.3854461669465268,0.6257651458070281,0.12015948943025069,0.47632451216941263,4,7,5,3,1,8,nan,nan,nan,nan,nan,nan,nan,nan,nan,nan,nan,nan,0.0,nan,nan,nan,nan,nan,nan,nan,nan,nan,nan,nan,nan,nan,nan,nan,nan,nan,nan,832.2737237878918,1166.2758306493895,nan,1166.7219772453257,nan,nan,nan,nan
1,239,1,1,1.0,1.0,0.41333686092457356,0,0.0,0.0,0.0,0.5053437221898145,0.11995917552519025,0.38538454666462424,0.6253028977150048,0.11995917552519025,0.43817720463289334,6,0,2,7,4,1,nan,nan,nan,nan,nan,nan,nan,nan,nan,nan,nan,nan,0.0,nan,nan,nan,nan,nan,nan,nan,nan,nan,nan,nan,nan,nan,nan,nan,nan,nan,nan,832.2737237878918,1167.2926299475964,nan,1167.705966808521,nan,nan,nan,nan
1,240,1,1,1.0,1.0,0.39618147746591603,0,0.0,0.0,0.0,0.504940183324616,0.11985013293500282,0.3850900503896132,0.6247903162596188,0.11985013293500282,0.41855497810888664,5,8,0,6,2,3,nan,nan,nan,nan,nan,nan,nan,nan,nan,nan,nan,nan,0.0,nan,nan,nan,nan,nan,nan,nan,nan,nan,nan,nan,nan,nan,nan,nan,nan,nan,nan,832.2737237878918,1168.3177512061711,nan,1168.713932683637,nan,nan,nan,nan
1,241,1,1,1.0,1.0,0.41932103180897684,0,0.0,0.0,0.0,0.5044652544780714,0.11980298963558585,0.3846622648424856,0.6242682441136573,0.11980298963558585,0.40961312339982214,6,3,7,4,8,5,nan,nan,nan,nan,nan,nan,nan,nan,nan,nan,nan,nan,0.0,nan,nan,nan,nan,nan,nan,nan,nan,nan,nan,nan,nan,nan,nan,nan,nan,nan,nan,832.2737237878918,1169.3345787289097,nan,1169.7538997607187,nan,nan,nan,nan
1,242,1,1,1.0,1.0,0.5385645459398347,0,0.0,0.0,0.0,0.5040950622055972,0.1196734545678838,0.3844216076377134,0.623768516773481,0.1196734545678838,0.45135568507157586,8,6,0,2,5,7,nan,nan,nan,nan,nan,nan,nan,nan,nan,nan,nan,nan,0.0,nan,nan,nan,nan,nan,nan,nan,nan,nan,nan,nan,nan,nan,nan,nan,nan,nan,nan,832.2737237878918,1170.3513292756531,nan,1170.889893821593,nan,nan,nan,nan
1,243,1,1,1.0,1.0,0.4734257482423345,0,0.0,0.0,0.0,0.5042442807499012,0.11943558134934845,0.3848086994005528,0.6236798620992496,0.11943558134934845,0.477103775330382,7,8,3,1,6,0,nan,nan,nan,nan,nan,nan,nan,nan,nan,nan,nan,nan,0.0,nan,nan,nan,nan,nan,nan,nan,nan,nan,nan,nan,nan,nan,nan,nan,nan,nan,nan,832.2737237878918,1171.3764374197988,nan,1171.849863168041,nan,nan,nan,nan
1,244,1,1,1.0,1.0,0.5045839205129141,0,0.0,0.0,0.0,0.5041114422477134,0.11919499937746084,0.3849164428702526,0.6233064416251742,0.11919499937746084,0.5055247382316944,1,5,8,0,7,4,nan,nan,nan,nan,nan,nan,nan,nan,nan,nan,nan,nan,0.0,nan,nan,nan,nan,nan,nan,nan,nan,nan,nan,nan,nan,nan,nan,nan,nan,nan,nan,832.2737237878918,1172.3932486920496,nan,1172.8978326125625,nan,nan,nan,nan
1,245,1,1,1.0,1.0,0.5114447624534932,0,0.0,0.0,0.0,0.5041134700514267,0.11893894509129425,0.38517452496013244,0.6230524151427209,0.11893894509129425,0.496484810402914,5,0,1,8,3,6,nan,nan,nan,nan,nan,nan,nan,nan,nan,nan,nan,nan,0.0,nan,nan,nan,nan,nan,nan,nan,nan,nan,nan,nan,nan,nan,nan,nan,nan,nan,nan,832.2737237878918,1173.4183728015869,nan,1173.9298175640404,nan,nan,nan,nan
1,246,1,1,1.0,1.0,0.4066057377906418,0,0.0,0.0,0.0,0.5041448003608373,0.11868549346123085,0.38545930689960645,0.6228302938220681,0.11868549346123085,0.47421147358568305,2,3,6,7,4,8,nan,nan,nan,nan,nan,nan,nan,nan,nan,nan,nan,nan,0.0,nan,nan,nan,nan,nan,nan,nan,nan,nan,nan,nan,nan,nan,nan,nan,nan,nan,nan,832.2737237878918,1174.4351800824898,nan,1174.8417858202804,nan,nan,nan,nan
1,247,1,1,1.0,1.0,0.4297948988864846,0,0.0,0.0,0.0,0.503729740520113,0.11860277044561336,0.38512697007449964,0.6223325109657264,0.11860277044561336,0.44928179971020654,4,7,1,0,8,2,nan,nan,nan,nan,nan,nan,nan,nan,nan,nan,nan,nan,0.0,nan,nan,nan,nan,nan,nan,nan,nan,nan,nan,nan,nan,nan,nan,nan,nan,nan,nan,832.2737237878918,1175.4519691172306,nan,1175.8817640161171,nan,nan,nan,nan
1,248,1,1,1.0,1.0,0.43697846981422117,0,0.0,0.0,0.0,0.5034164572928519,0.11844862703636341,0.3849678302564885,0.6218650843292153,0.11844862703636341,0.42445970216378254,8,0,6,1,3,4,nan,nan,nan,nan,nan,nan,nan,nan,nan,nan,nan,nan,0.0,nan,nan,nan,nan,nan,nan,nan,nan,nan,nan,nan,nan,nan,nan,nan,nan,nan,nan,832.2737237878918,1176.468753305335,nan,1176.9057317751492,nan,nan,nan,nan
1,249,1,1,1.0,1.0,0.38017560220191626,0,0.0,0.0,0.0,0.5031361282317607,0.11827689767192727,0.3848592305598334,0.621413025903688,0.11827689767192727,0.4156496569675407,0,2,5,6,7,3,nan,nan,nan,nan,nan,nan,nan,nan,nan,nan,nan,nan,0.0,nan,nan,nan,nan,nan,nan,nan,nan,nan,nan,nan,nan,nan,nan,nan,nan,nan,nan,832.2737237878918,1177.485540344402,nan,1177.8657159466038,nan,nan,nan,nan
1,250,1,1,0.0,0.0,0.5553359047116828,0,0.0,0.0,0.0,0.502619487366089,0.11829583654165077,0.3843236508244382,0.6209153239077397,0.11829583654165077,0.45749665890927343,4,6,8,3,1,7,nan,nan,nan,nan,nan,nan,nan,nan,nan,nan,nan,nan,0.0,nan,nan,nan,nan,nan,nan,nan,nan,nan,nan,nan,nan,nan,nan,nan,nan,nan,nan,832.2737237878918,1178.5023404978979,nan,1179.0576764026096,nan,nan,nan,nan
1,251,1,1,nan,nan,nan,0,0.0,0.0,0.0,0.5028400581499618,0.11809712989563959,0.3847429282543222,0.6209371880456014,0.11809712989563959,0.46775575345679954,0,3,7,1,2,5,nan,nan,nan,nan,nan,nan,nan,nan,nan,nan,nan,nan,0.0,nan,nan,nan,nan,nan,nan,nan,nan,nan,nan,nan,nan,nan,nan,nan,nan,nan,nan,832.2737237878918,1179.5191295326388,nan,nan,nan,nan,nan,nan
1,252,1,1,nan,nan,nan,0,0.0,0.0,0.0,0.5028400581499618,0.11809712989563959,0.3847429282543222,0.6209371880456014,0.11809712989563959,0.5553359047116828,5,1,4,8,0,6,nan,nan,nan,nan,nan,nan,nan,nan,nan,nan,nan,nan,0.0,nan,nan,nan,nan,nan,nan,nan,nan,nan,nan,nan,nan,nan,nan,nan,nan,nan,nan,832.2737237878918,1180.535913720743,nan,nan,nan,nan,nan,nan
1,253,1,1,1.0,1.0,0.16859909675781637,0,0.0,0.0,0.0,0.5028400581499618,0.11809712989563959,0.3847429282543222,0.6209371880456014,0.11809712989563959,0.16859909675781637,0,5,3,1,4,7,nan,nan,nan,nan,nan,nan,nan,nan,nan,nan,nan,nan,0.0,nan,nan,nan,nan,nan,nan,nan,nan,nan,nan,nan,nan,nan,nan,nan,nan,nan,nan,832.2737237878918,1181.5610346942215,nan,1181.7296337909793,nan,nan,nan,nan
1,254,1,1,1.0,1.0,0.09578037551159468,0,0.0,0.0,0.0,0.5014473874774945,0.11980136862913453,0.38164601884835997,0.621248756106629,0.11980136862913453,0.13218973613470553,2,8,7,0,6,3,nan,nan,nan,nan,nan,nan,nan,nan,nan,nan,nan,nan,0.0,nan,nan,nan,nan,nan,nan,nan,nan,nan,nan,nan,nan,nan,nan,nan,nan,nan,nan,832.2737237878918,1182.577831426562,nan,1182.6736118020735,nan,nan,nan,nan
1,255,1,1,1.0,1.0,0.1429384360246786,0,1.0,0.0,0.0,0.4997641218676775,0.12236350141565347,0.37740062045202405,0.6221276232833309,0.12236350141565347,0.1357726360980299,4,2,1,3,0,5,nan,nan,nan,nan,nan,nan,nan,nan,nan,nan,nan,nan,0.0,nan,nan,nan,nan,nan,nan,nan,nan,nan,nan,nan,nan,nan,nan,nan,nan,nan,nan,832.2737237878918,1183.5946418435237,nan,1183.7375802795484,nan,nan,nan,nan
1,256,1,1,1.0,1.0,0.006134701719474833,1,0.0,0.0,1.0,0.49828963556254113,0.12423733646587369,0.37405229909666743,0.6225269720284148,0.12423733646587369,0.08161783775191604,1,6,0,5,2,7,1.0,1.0,1.0,1.0,1.0,1.0,0.0,0.0,0.0,1.0,0.0,0.0,1.0,3.0,3.0,3.0,5.0,5.0,4.0,3.0,4.0,5.0,6.0,1.0,2.0,14.730846020355102,15.737308582794867,17.025539494814893,17.832870859653667,13.003741318461834,13.770057022106585,832.2737237878918,1184.6114274571094,1185.41983192434,1184.6175621588288,1204.3054863642726,1205.3030359617594,1186.4366380648578,1204.2971601274608
1,257,1,1,1.0,1.0,0.47073757543284955,0,0.0,0.0,0.0,0.4962643066166849,0.12792212973622788,0.368342176880457,0.6241864363529128,0.12792212973622788,0.20660357105900098,3,8,4,7,6,1,nan,nan,nan,nan,nan,nan,nan,nan,nan,nan,nan,nan,0.0,nan,nan,nan,nan,nan,nan,nan,nan,nan,nan,nan,nan,nan,nan,nan,nan,nan,nan,832.2737237878918,1205.5223362955787,nan,1205.9930738710116,nan,nan,nan,nan
1,258,1,1,1.0,1.0,0.35798484827319044,0,0.0,0.0,0.0,0.4961596888659315,0.1276701414375844,0.36848954742834705,0.6238298303035159,0.1276701414375844,0.2782857084751716,4,6,5,2,7,3,nan,nan,nan,nan,nan,nan,nan,nan,nan,nan,nan,nan,0.0,nan,nan,nan,nan,nan,nan,nan,nan,nan,nan,nan,nan,nan,nan,nan,nan,nan,nan,832.2737237878918,1206.5390951101142,nan,1206.8970799583874,nan,nan,nan,nan
1,259,1,1,1.0,1.0,0.517111906276341,0,0.0,0.0,0.0,0.4955957099247366,0.12771352864041471,0.36788218128432193,0.6233092385651513,0.12771352864041471,0.44861144332746034,5,0,3,8,1,2,nan,nan,nan,nan,nan,nan,nan,nan,nan,nan,nan,nan,0.0,nan,nan,nan,nan,nan,nan,nan,nan,nan,nan,nan,nan,nan,nan,nan,nan,nan,nan,832.2737237878918,1207.555931185741,nan,1208.0730430920173,nan,nan,nan,nan
1,260,1,1,nan,nan,nan,0,0.0,0.0,0.0,0.49568317413754803,0.12746103640679243,0.3682221377307556,0.6231442105443404,0.12746103640679243,0.4375483772747657,6,8,0,5,2,4,nan,nan,nan,nan,nan,nan,nan,nan,nan,nan,nan,nan,0.0,nan,nan,nan,nan,nan,nan,nan,nan,nan,nan,nan,nan,nan,nan,nan,nan,nan,nan,832.2737237878918,1208.5727213608673,nan,nan,nan,nan,nan,nan
1,261,1,1,1.0,1.0,0.6114166234508502,0,0.0,0.0,0.0,0.49568317413754803,0.12746103640679243,0.3682221377307556,0.6231442105443404,0.12746103640679243,0.5642642648635956,7,5,8,2,6,0,nan,nan,nan,nan,nan,nan,nan,nan,nan,nan,nan,nan,0.0,nan,nan,nan,nan,nan,nan,nan,nan,nan,nan,nan,nan,nan,nan,nan,nan,nan,nan,832.2737237878918,1209.589509255223,nan,1210.2009258786738,nan,nan,nan,nan
1,262,1,1,1.0,1.0,0.6586938542079679,0,0.0,0.0,0.0,0.4961517306125007,0.12741487101537793,0.36873685959712277,0.6235666016278786,0.12741487101537793,0.6350552388294091,1,3,2,5,0,7,nan,nan,nan,nan,nan,nan,nan,nan,nan,nan,nan,nan,0.0,nan,nan,nan,nan,nan,nan,nan,nan,nan,nan,nan,nan,nan,nan,nan,nan,nan,nan,832.2737237878918,1210.6063065577562,nan,1211.2650004119641,nan,nan,nan,nan
1,263,1,1,1.0,1.0,0.23383283151633805,0,0.0,0.0,0.0,0.49680714240119206,0.12757425258512028,0.3692328898160718,0.6243813949863124,0.12757425258512028,0.5013144363917187,3,4,0,7,2,8,nan,nan,nan,nan,nan,nan,nan,nan,nan,nan,nan,nan,0.0,nan,nan,nan,nan,nan,nan,nan,nan,nan,nan,nan,nan,nan,nan,nan,nan,nan,nan,832.2737237878918,1211.6230890352826,nan,1211.856921866799,nan,nan,nan,nan
1,264,1,1,0.0,0.0,0.7689753668262256,0,0.0,0.0,0.0,0.4957510206707308,0.12839955297934794,0.3673514676913828,0.6241505736500788,0.12839955297934794,0.5538340175168438,8,2,4,5,3,6,nan,nan,nan,nan,nan,nan,nan,nan,nan,nan,nan,nan,0.0,nan,nan,nan,nan,nan,nan,nan,nan,nan,nan,nan,nan,nan,nan,nan,nan,nan,nan,832.2737237878918,1212.6398726531943,nan,1213.4088480200205,nan,nan,nan,nan
1,265,1,1,1.0,1.0,0.7361801717249818,0,0.0,0.0,0.0,0.4968439180553528,0.12929776167092094,0.36754615638443183,0.6261416797262738,0.12929776167092094,0.5796627900225152,7,0,6,8,2,3,nan,nan,nan,nan,nan,nan,nan,nan,nan,nan,nan,nan,0.0,nan,nan,nan,nan,nan,nan,nan,nan,nan,nan,nan,nan,nan,nan,nan,nan,nan,nan,832.2737237878918,1213.6566779384232,nan,1214.3928581101482,nan,nan,nan,nan
1,266,1,1,0.0,0.0,0.5913797719058493,0,0.0,1.0,0.0,0.4977974489464668,0.129917709491009,0.3678797394554578,0.6277151584374758,0.129917709491009,0.6988451034856856,0,3,4,7,6,5,nan,nan,nan,nan,nan,nan,nan,nan,nan,nan,nan,nan,0.0,nan,nan,nan,nan,nan,nan,nan,nan,nan,nan,nan,nan,nan,nan,nan,nan,nan,nan,832.2737237878918,1214.6734661178753,nan,1215.264845889781,nan,nan,nan,nan
1,267,1,1,1.0,1.0,0.526536333952663,1,0.0,0.0,1.0,0.49816880737090885,0.12979309419337878,0.36837571317753004,0.6279619015642877,0.12979309419337878,0.6180320925278314,4,6,0,2,8,1,1.0,1.0,1.0,1.0,1.0,1.0,0.0,1.0,0.0,0.0,0.0,0.0,1.0,2.0,6.0,3.0,8.0,5.0,6.0,3.0,5.0,6.0,1.0,2.0,4.0,4.683562517479913,6.858180851964562,7.77758812539787,2.531336499992676,3.363271958756741,5.87364333372193,832.2737237878918,1215.6902534420387,1216.4986687429277,1216.2167897759914,1225.3330782671962,1226.3313779529917,1217.5154663305573,1225.3247449029775
1,268,1,1,1.0,1.0,0.3626664142614118,0,0.0,0.0,0.0,0.49828093198190393,0.12954856027195794,0.368732371709946,0.6278294922538619,0.12954856027195794,0.49352750670664136,2,4,7,1,5,3,nan,nan,nan,nan,nan,nan,nan,nan,nan,nan,nan,nan,0.0,nan,nan,nan,nan,nan,nan,nan,nan,nan,nan,nan,nan,nan,nan,nan,nan,nan,nan,832.2737237878918,1226.5499270581172,nan,1226.9125934723786,nan,nan,nan,nan
1,269,1,1,1.0,1.0,0.3938496750045033,0,0.0,0.0,0.0,0.4977470165578075,0.12957189878146227,0.36817511777634526,0.6273189153392698,0.12957189878146227,0.42768414107285935,3,7,8,2,1,0,nan,nan,nan,nan,nan,nan,nan,nan,nan,nan,nan,nan,0.0,nan,nan,nan,nan,nan,nan,nan,nan,nan,nan,nan,nan,nan,nan,nan,nan,nan,nan,832.2737237878918,1227.5667123866065,nan,1227.960562061611,nan,nan,nan,nan
1,270,1,1,1.0,1.0,0.40901651192098143,0,0.0,0.0,0.0,0.4973395760026965,0.12948051669418184,0.3678590593085147,0.6268200926968783,0.12948051669418184,0.3885108670622988,7,3,6,0,2,8,nan,nan,nan,nan,nan,nan,nan,nan,nan,nan,nan,nan,0.0,nan,nan,nan,nan,nan,nan,nan,nan,nan,nan,nan,nan,nan,nan,nan,nan,nan,nan,832.2737237878918,1228.5835116848136,nan,1228.9925281967346,nan,nan,nan,nan
1,271,0,0,0.0,1.0,0.5122008377838938,0,0.0,0.0,0.0,0.4969945640336273,0.12934476644018905,0.36764979759343824,0.6263393304738163,0.12934476644018905,0.43835567490312616,6,8,1,7,3,0,nan,nan,nan,nan,nan,nan,nan,nan,nan,nan,nan,nan,0.0,nan,nan,nan,nan,nan,nan,nan,nan,nan,nan,nan,nan,nan,nan,nan,nan,nan,nan,832.2737237878918,1229.6003047109025,nan,1230.1125055486864,nan,nan,nan,nan
1,272,1,1,1.0,1.0,0.44739930898367675,0,0.0,0.0,0.0,0.49705373241397854,0.12909634887147997,0.3679573835424986,0.6261500812854586,0.12909634887147997,0.456205552896184,8,0,4,3,7,6,nan,nan,nan,nan,nan,nan,nan,nan,nan,nan,nan,nan,0.0,nan,nan,nan,nan,nan,nan,nan,nan,nan,nan,nan,nan,nan,nan,nan,nan,nan,nan,832.2737237878918,1230.6170946009322,nan,1231.0644939099159,nan,nan,nan,nan
1,273,1,1,1.0,1.0,0.33456761015486336,0,0.0,0.0,0.0,0.4968612734084347,0.12888285497916235,0.36797841842927237,0.6257441283875971,0.12888285497916235,0.431389252307478,0,6,1,5,2,3,nan,nan,nan,nan,nan,nan,nan,nan,nan,nan,nan,nan,0.0,nan,nan,nan,nan,nan,nan,nan,nan,nan,nan,nan,nan,nan,nan,nan,nan,nan,nan,832.2737237878918,1231.633887627021,nan,1231.968455237176,nan,nan,nan,nan
1,274,0,0,0.0,1.0,0.44580619097973795,0,0.0,0.0,0.0,0.49623465694799623,0.1290269708808936,0.36720768606710263,0.6252616278288898,0.1290269708808936,0.40925770337275935,5,8,4,7,3,2,nan,nan,nan,nan,nan,nan,nan,nan,nan,nan,nan,nan,0.0,nan,nan,nan,nan,nan,nan,nan,nan,nan,nan,nan,nan,nan,nan,nan,nan,nan,nan,832.2737237878918,1232.6506384588608,nan,1233.0964446498406,nan,nan,nan,nan
1,275,1,1,1.0,1.0,0.42088592528148183,0,0.0,0.0,0.0,0.4960407013096568,0.12881642701477342,0.36722427429488336,0.6248571283244302,0.12881642701477342,0.40041990880536105,1,4,2,6,0,7,nan,nan,nan,nan,nan,nan,nan,nan,nan,nan,nan,nan,0.0,nan,nan,nan,nan,nan,nan,nan,nan,nan,nan,nan,nan,nan,nan,nan,nan,nan,nan,832.2737237878918,1233.6675244263363,nan,1234.0884103516178,nan,nan,nan,nan
1,276,1,1,1.0,1.0,0.4201059018635078,0,0.0,0.0,0.0,0.4957527519762155,0.12865322551277997,0.3670995264634355,0.6244059774889954,0.12865322551277997,0.42893267270824254,4,8,3,2,7,5,nan,nan,nan,nan,nan,nan,nan,nan,nan,nan,nan,nan,0.0,nan,nan,nan,nan,nan,nan,nan,nan,nan,nan,nan,nan,nan,nan,nan,nan,nan,nan,832.2737237878918,1234.6842698413468,nan,1235.1043757432103,nan,nan,nan,nan
