block,trial,time,setsize,freqtrials,trials_colorind,trials_colordeg,colorrgb0,colorrgb1,colorrgb2,correct_response,actual_response,acc,rts,probe_trials,rt_triggered_fast,rt_triggered_slow,rt_strailingavg,rts_runningavg,rts_runningstd,rts_runningslowthresh,rts_runningfastthresh,wm_respdeg,wm_respind,wm_resprgb0,wm_resprgb1,wm_resprgb2,wm_respcolorminusorigcolor,wm_rts,time_blockstart,time_encarray_onset,time_response,time_encarray_offest,time_memprobe_onset,time_memprobe_offset
0,0,4440,6,1,31,21,1.0,0.0668515730764,-1.0,1,1.0,1.0,0.381985181943,0,nan,nan,nan,nan,nan,nan,nan,nan,nan,0.0,0.0,0.0,nan,nan,275.476420985,276.494438597,276.876423779,276.994468817,nan,nan
0,1,4441,6,1,140,98,1.0,-0.294209249228,-0.0345777392028,1,1.0,1.0,0.260428022593,0,nan,nan,nan,nan,nan,nan,nan,nan,nan,0.0,0.0,0.0,nan,nan,275.476420985,277.527952702,277.788380724,278.027962965,nan,nan
0,2,4442,6,1,363,255,-0.162287729338,0.476365729747,0.00704812682028,1,1.0,1.0,0.244401534088,0,nan,nan,nan,nan,nan,nan,nan,nan,nan,0.0,0.0,0.0,nan,nan,275.476420985,278.528037091,278.772438625,279.028069306,nan,nan
0,3,4443,6,1,137,96,1.0,-0.300190217086,-0.0647316600203,1,1.0,1.0,0.244195979089,0,nan,nan,nan,nan,nan,nan,nan,nan,nan,0.0,0.0,0.0,nan,nan,275.476420985,279.528167095,279.772363074,280.028222119,nan,nan
0,4,4444,6,1,424,298,0.142174562463,0.448819569244,-0.770229420881,1,1.0,1.0,0.212066309527,0,nan,nan,nan,nan,nan,nan,nan,nan,nan,0.0,0.0,0.0,nan,nan,275.476420985,280.528296529,280.740362839,281.028339865,nan,nan
0,5,4445,6,1,191,134,1.0,-0.0691479807067,0.414571651978,1,1.0,1.0,0.201882614754,0,nan,nan,nan,nan,nan,nan,nan,nan,nan,0.0,0.0,0.0,nan,nan,275.476420985,281.634432747,281.836315362,282.136828138,nan,nan
0,6,4446,6,0,379,266,-0.113535935895,0.478614986251,-0.165970515924,0,1.0,0.0,0.239425151609,0,0.0,0.0,nan,nan,nan,nan,nan,nan,nan,0.0,0.0,0.0,nan,nan,275.476420985,282.636920226,282.876345377,283.136960709,nan,nan
0,7,4451,6,1,125,87,1.0,-0.311567427947,-0.187805059354,1,1.0,1.0,0.263273869641,1,nan,nan,nan,nan,nan,nan,nan,1.02303018867,127.0,1.0,-0.31111021432,-0.167036648065,1.08634481133,2.07555748057,275.476420985,283.637024856,283.900298726,284.137039111,285.47054968,287.554141788
0,8,4452,6,0,72,50,1.0,-0.149607777062,-0.853203742106,0,0.0,1.0,0.593121217564,0,nan,nan,nan,nan,nan,nan,nan,nan,nan,0.0,0.0,0.0,nan,nan,275.476420985,288.771022543,289.364143761,289.271070155,nan,nan
0,9,4453,6,1,253,177,0.513865899396,0.244839928328,0.655977188727,1,1.0,1.0,0.417042520829,0,nan,nan,nan,nan,nan,nan,nan,nan,nan,0.0,0.0,0.0,nan,nan,275.476420985,289.771136013,290.188178534,290.271188186,nan,nan
0,10,4454,6,1,106,74,1.0,-0.287630069369,-0.390564445695,1,1.0,1.0,0.32089042943,0,nan,nan,nan,nan,nan,nan,nan,nan,nan,0.0,0.0,0.0,nan,nan,275.476420985,290.771263736,291.092154166,291.271305076,nan,nan
0,11,4455,6,1,27,18,1.0,0.0870912575778,-1.0,1,1.0,1.0,0.336772943847,0,nan,nan,nan,nan,nan,nan,nan,nan,nan,0.0,0.0,0.0,nan,nan,275.476420985,291.771367227,292.108140171,292.271423391,nan,nan
0,12,4456,6,1,203,142,1.0,-0.00249325098487,0.493674673203,1,1.0,1.0,0.272600559518,0,nan,nan,nan,nan,nan,nan,nan,nan,nan,0.0,0.0,0.0,nan,nan,275.476420985,292.771518044,293.044118604,293.27153572,nan,nan
0,13,4457,6,1,15,10,0.965734432428,0.145352784795,-1.0,1,1.0,1.0,0.248474441469,0,nan,nan,nan,nan,nan,nan,nan,nan,nan,0.0,0.0,0.0,nan,nan,275.476420985,293.771649474,294.020123916,294.271679409,nan,nan
0,14,4502,6,1,376,264,-0.124962824795,0.478704673615,-0.132627625282,1,1.0,1.0,0.200400106609,1,nan,nan,nan,nan,nan,nan,nan,-161.158704944,357.0,-0.1717918326,0.473767524415,0.068739031695,-13.2162950562,2.37557475735,275.476420985,294.771766079,294.972166185,295.271804852,296.588647747,298.972263118
0,15,4503,6,1,263,184,0.405698801511,0.284171736334,0.651829885785,1,1.0,1.0,0.447181351483,0,nan,nan,nan,nan,nan,nan,nan,nan,nan,0.0,0.0,0.0,nan,nan,275.476420985,300.180798776,300.627980128,300.680834129,nan,nan
0,16,4504,6,1,473,332,0.522594813828,0.349396171415,-1.0,1,1.0,1.0,0.311055979691,0,nan,nan,nan,nan,nan,nan,nan,nan,nan,0.0,0.0,0.0,nan,nan,275.476420985,301.180907968,301.491963948,301.680966129,nan,nan
0,17,4505,6,1,4,2,0.879126049628,0.195014037372,-1.0,1,1.0,1.0,0.246915240772,0,nan,nan,nan,nan,nan,nan,nan,nan,nan,0.0,0.0,0.0,nan,nan,275.476420985,302.181061637,302.427976877,302.681098699,nan,nan
0,18,4506,6,1,334,234,-0.152796554809,0.454467054946,0.285576400052,1,1.0,1.0,0.302764480002,0,nan,nan,nan,nan,nan,nan,nan,nan,nan,0.0,0.0,0.0,nan,nan,275.476420985,303.181177956,303.483942436,303.681195062,nan,nan
0,19,4507,6,1,488,343,0.647907709101,0.302951493728,-1.0,1,1.0,1.0,0.262634680606,0,nan,nan,nan,nan,nan,nan,nan,nan,nan,0.0,0.0,0.0,nan,nan,275.476420985,304.181312237,304.443946918,304.681345879,nan,nan
0,20,4508,6,1,238,167,0.675741828754,0.178727669763,0.638511091232,1,1.0,1.0,0.294480962679,0,nan,nan,nan,nan,nan,nan,nan,nan,nan,0.0,0.0,0.0,nan,nan,275.476420985,305.181436825,305.475917787,305.681486147,nan,nan
0,21,4509,6,1,35,24,1.0,0.0462653595507,-1.0,1,1.0,1.0,0.318347356282,0,nan,nan,nan,nan,nan,nan,nan,nan,nan,0.0,0.0,0.0,nan,nan,275.476420985,306.181542026,306.499889382,306.681585361,nan,nan
0,22,4510,6,0,152,106,1.0,-0.259184487343,0.0830625546756,0,0.0,1.0,0.47014199011,0,nan,nan,nan,nan,nan,nan,nan,nan,nan,0.0,0.0,0.0,nan,nan,275.476420985,307.181710234,307.651852224,307.681734467,nan,nan
0,23,4511,6,1,269,189,0.34171296506,0.305888347675,0.643262349404,1,1.0,1.0,0.278143716976,0,nan,nan,nan,nan,nan,nan,nan,nan,nan,0.0,0.0,0.0,nan,nan,275.476420985,308.181796904,308.459940621,308.681831686,nan,nan
0,24,4512,6,1,59,41,1.0,-0.0814409933332,-1.0,1,1.0,1.0,0.277959828265,0,nan,nan,nan,nan,nan,nan,nan,nan,nan,0.0,0.0,0.0,nan,nan,275.476420985,309.181928049,309.459887877,309.681963116,nan,nan
0,25,4513,6,1,383,269,-0.0968787136249,0.478131214543,-0.211081409456,1,1.0,1.0,0.261828708462,0,nan,nan,nan,nan,nan,nan,nan,nan,nan,0.0,0.0,0.0,nan,nan,275.476420985,310.182052922,310.44388163,310.682098823,nan,nan
0,26,4514,6,1,327,229,-0.128086156831,0.445480682368,0.344176439252,1,1.0,1.0,0.277618566528,0,nan,nan,nan,nan,nan,nan,nan,nan,nan,0.0,0.0,0.0,nan,nan,275.476420985,311.182204879,311.459823445,311.682245363,nan,nan
0,27,4515,6,1,23,16,1.0,0.106943944166,-1.0,1,1.0,1.0,0.389463297091,0,nan,nan,nan,nan,nan,nan,nan,nan,nan,0.0,0.0,0.0,nan,nan,275.476420985,312.182328897,312.571792194,312.68236938,nan,nan
0,28,4516,6,1,414,291,0.0747837862165,0.460162189034,-0.600089175003,1,1.0,1.0,0.381293819286,0,nan,nan,nan,nan,nan,nan,nan,nan,nan,0.0,0.0,0.0,nan,nan,275.476420985,313.182480283,313.563774102,313.682478572,nan,nan
0,29,4517,6,1,222,156,0.841778467246,0.0997291618919,0.589484691865,1,1.0,1.0,0.355789823458,0,nan,nan,nan,nan,nan,nan,nan,nan,nan,0.0,0.0,0.0,nan,nan,275.476420985,314.215938509,314.571728332,314.715944495,nan,nan
0,30,4518,6,1,164,115,1.0,-0.209685835145,0.194761549991,1,1.0,1.0,0.347697037272,0,nan,nan,nan,nan,nan,nan,nan,nan,nan,0.0,0.0,0.0,nan,nan,275.476420985,315.216031165,315.563728202,315.716076781,nan,nan
0,31,4523,6,1,113,79,1.0,-0.302191989669,-0.314576349441,1,1.0,1.0,0.411533575505,1,nan,nan,nan,nan,nan,nan,nan,19.1481374579,101.0,1.0,-0.273572672894,-0.446152610616,-8.60126245794,1.95056346711,275.476420985,316.216173429,316.627707005,316.716199658,318.041367125,319.999964934
0,32,4524,6,1,30,21,1.0,0.071945658744,-1.0,1,1.0,1.0,0.435110595077,0,nan,nan,nan,nan,nan,nan,nan,nan,nan,0.0,0.0,0.0,nan,nan,275.476420985,321.208480635,321.64359123,321.708515702,nan,nan
0,33,4525,6,1,467,328,0.473005185182,0.365775667588,-1.0,1,1.0,1.0,0.298985222355,0,nan,nan,nan,nan,nan,nan,nan,nan,nan,0.0,0.0,0.0,nan,nan,275.476420985,322.208604937,322.50759016,322.708653118,nan,nan
0,34,4526,6,1,353,248,-0.175041255135,0.471490071959,0.108799216003,1,1.0,1.0,0.210904250853,0,nan,nan,nan,nan,nan,nan,nan,nan,nan,0.0,0.0,0.0,nan,nan,275.476420985,323.208735797,323.419640047,323.708791106,nan,nan
0,35,4527,6,1,403,283,0.00657627305109,0.469456436931,-0.450524507496,1,1.0,1.0,0.21870367229,0,nan,nan,nan,nan,nan,nan,nan,nan,nan,0.0,0.0,0.0,nan,nan,275.476420985,324.208846129,324.427549802,324.708881482,nan,nan
0,36,4528,6,1,28,19,1.0,0.082066132397,-1.0,1,1.0,1.0,0.0803485494107,0,nan,nan,nan,nan,nan,nan,nan,nan,nan,0.0,0.0,0.0,nan,nan,275.476420985,325.251285791,325.331634341,325.750713315,nan,nan
0,37,4529,6,1,366,257,-0.155593376329,0.477302029306,-0.0244766492797,1,1.0,1.0,0.18483376503,0,nan,nan,nan,nan,nan,nan,nan,nan,nan,0.0,0.0,0.0,nan,nan,275.476420985,326.250783164,326.435616929,326.750849592,nan,nan
0,38,4530,6,1,496,348,0.714833717156,0.274923884212,-1.0,1,1.0,1.0,0.240649076179,0,nan,nan,nan,nan,nan,nan,nan,nan,nan,0.0,0.0,0.0,nan,nan,275.476420985,327.250920297,327.491569373,327.750933981,nan,nan
0,39,4531,6,0,316,222,-0.0718215561597,0.428203514031,0.427892255365,0,1.0,0.0,0.21644854825,0,0.0,0.0,nan,nan,nan,nan,nan,nan,nan,0.0,0.0,0.0,nan,nan,275.476420985,328.251059994,328.467508542,328.7510905,nan,nan
0,40,4532,6,1,463,325,0.440238315199,0.376011795327,-1.0,1,1.0,1.0,0.0483118211851,0,nan,nan,nan,nan,nan,nan,nan,nan,nan,0.0,0.0,0.0,nan,nan,275.476420985,329.251178595,329.299490416,329.751233904,nan,nan
0,41,4533,6,1,219,153,0.871627318206,0.0840881726889,0.576959667802,1,1.0,1.0,0.192250585184,0,nan,nan,nan,nan,nan,nan,nan,nan,nan,0.0,0.0,0.0,nan,nan,275.476420985,330.251300331,330.443550916,330.751349083,nan,nan
0,42,4534,6,1,371,260,-0.14179360683,0.478331938097,-0.0779732583494,1,1.0,1.0,0.216061100364,0,nan,nan,nan,nan,nan,nan,nan,nan,nan,0.0,0.0,0.0,nan,nan,275.476420985,331.251426915,331.467488015,331.751454854,nan,nan
0,43,4535,6,1,141,99,1.0,-0.291952736687,-0.024586852943,1,1.0,1.0,0.239918085746,0,nan,nan,nan,nan,nan,nan,nan,nan,nan,0.0,0.0,0.0,nan,nan,275.476420985,332.251548652,332.491466737,332.751570034,nan,nan
0,44,4536,6,1,210,147,0.958022500947,0.0359304984579,0.533421856807,1,1.0,1.0,0.33571494557,0,nan,nan,nan,nan,nan,nan,nan,nan,nan,0.0,0.0,0.0,nan,nan,275.476420985,333.251679797,333.587394742,333.751730544,nan,nan
0,45,4537,6,1,367,258,-0.15309091083,0.477560897992,-0.0350816338538,1,1.0,1.0,0.263626821339,0,nan,nan,nan,nan,nan,nan,nan,nan,nan,0.0,0.0,0.0,nan,nan,275.476420985,334.251809516,334.515436337,334.751829758,nan,nan
0,46,4538,6,1,125,87,1.0,-0.311567427947,-0.187805059354,1,1.0,1.0,0.255422846414,0,nan,nan,nan,nan,nan,nan,nan,nan,nan,0.0,0.0,0.0,nan,nan,275.476420985,335.251931823,335.507354669,335.751952635,nan,nan
0,47,4539,6,1,419,294,0.107894673663,0.454841969249,-0.678098861371,1,1.0,1.0,0.295304039493,0,nan,nan,nan,nan,nan,nan,nan,nan,nan,0.0,0.0,0.0,nan,nan,275.476420985,336.252059547,336.547363587,336.752081784,nan,nan
0,48,4540,6,1,319,224,-0.0891891826932,0.433308674125,0.406137099325,1,1.0,1.0,0.24718266353,0,nan,nan,nan,nan,nan,nan,nan,nan,nan,0.0,0.0,0.0,nan,nan,275.476420985,337.252198675,337.499381338,337.752240584,nan,nan
0,49,4541,6,1,80,56,1.0,-0.189075709245,-0.708965549488,1,1.0,1.0,0.199017667212,0,nan,nan,nan,nan,nan,nan,nan,nan,nan,0.0,0.0,0.0,nan,nan,275.476420985,338.252320982,338.451338649,338.752375721,nan,nan
0,50,4542,6,0,9,6,0.918933560847,0.172916688009,-1.0,0,1.0,0.0,0.222868950106,0,0.0,0.0,nan,nan,nan,nan,nan,nan,nan,0.0,0.0,0.0,nan,nan,275.476420985,339.252462961,339.475331911,339.752497743,nan,nan
0,51,4543,6,1,200,140,1.0,-0.0191209939188,0.47515178387,1,1.0,1.0,0.278679415584,0,nan,nan,nan,nan,nan,nan,nan,nan,nan,0.0,0.0,0.0,nan,nan,275.476420985,340.252575859,340.531255275,340.752595531,nan,nan
0,52,4544,6,1,298,209,0.0600896634305,0.391050340636,0.53969689008,1,1.0,1.0,0.422538921237,0,nan,nan,nan,nan,nan,nan,nan,nan,nan,0.0,0.0,0.0,nan,nan,275.476420985,341.25271014,341.675249062,341.752718979,nan,nan
0,53,4545,6,1,132,92,1.0,-0.307426825298,-0.115555361894,1,1.0,1.0,0.606413046829,0,nan,nan,nan,nan,nan,nan,nan,nan,nan,0.0,0.0,0.0,nan,nan,275.476420985,342.252822184,342.859235231,342.752896024,nan,nan
0,54,4546,6,1,177,124,1.0,-0.145192147526,0.306921212481,1,1.0,1.0,0.446269039065,0,nan,nan,nan,nan,nan,nan,nan,nan,nan,0.0,0.0,0.0,nan,nan,275.476420985,343.252947912,343.699216951,343.752967299,nan,nan
0,55,4547,6,1,294,206,0.0948761993654,0.381212130724,0.559858230992,1,1.0,1.0,0.398109459318,0,nan,nan,nan,nan,nan,nan,nan,nan,nan,0.0,0.0,0.0,nan,nan,275.476420985,344.253083903,344.651193363,344.753106996,nan,nan
0,56,4548,6,1,55,38,1.0,-0.0599996532909,-1.0,1,1.0,1.0,0.55796865467,0,nan,nan,nan,nan,nan,nan,nan,nan,nan,0.0,0.0,0.0,nan,nan,275.476420985,345.253195662,345.811164317,345.753274349,nan,nan
0,57,4549,6,1,409,287,0.0429436170054,0.464793150178,-0.529461854507,1,1.0,1.0,0.413829183206,0,nan,nan,nan,nan,nan,nan,nan,nan,nan,0.0,0.0,0.0,nan,nan,275.476420985,346.253343058,346.667172241,346.753353321,nan,nan
0,58,4550,6,1,245,172,0.600577697281,0.210610106048,0.650172825369,1,1.0,1.0,0.445663206279,0,nan,nan,nan,nan,nan,nan,nan,nan,nan,0.0,0.0,0.0,nan,nan,275.476420985,347.253475058,347.699138264,347.753506418,nan,nan
0,59,4551,6,1,82,57,1.0,-0.198479155091,-0.679872484948,1,1.0,1.0,0.419523157179,0,nan,nan,nan,nan,nan,nan,nan,nan,nan,0.0,0.0,0.0,nan,nan,275.476420985,348.303610365,348.723133522,348.803612646,nan,nan
0,60,4552,6,1,184,129,1.0,-0.107671891867,0.362640045218,1,1.0,1.0,0.347391981632,0,nan,nan,nan,nan,nan,nan,nan,nan,nan,0.0,0.0,0.0,nan,nan,275.476420985,349.303721269,349.65111325,349.803766314,nan,nan
0,61,4553,6,1,257,180,0.470472903111,0.261039853404,0.655841377839,1,1.0,1.0,0.323275557719,0,nan,nan,nan,nan,nan,nan,nan,nan,nan,0.0,0.0,0.0,nan,nan,275.476420985,350.303878072,350.627153629,350.803880353,nan,nan
0,62,4554,6,1,160,112,1.0,-0.227501418013,0.158297521075,1,1.0,1.0,0.43511544168,0,nan,nan,nan,nan,nan,nan,nan,nan,nan,0.0,0.0,0.0,nan,nan,275.476420985,351.303962176,351.739077617,351.804028889,nan,nan
0,63,4555,6,1,239,168,0.665069831863,0.183388857662,0.640549267122,1,1.0,1.0,0.39494031202,0,nan,nan,nan,nan,nan,nan,nan,nan,nan,0.0,0.0,0.0,nan,nan,275.476420985,352.304109002,352.699049314,352.804135515,nan,nan
0,64,4556,6,1,189,132,1.0,-0.0802194643608,0.400143472992,1,1.0,1.0,0.35478741955,0,nan,nan,nan,nan,nan,nan,nan,nan,nan,0.0,0.0,0.0,nan,nan,275.476420985,353.304243567,353.659030987,353.804254401,nan,nan
0,65,4557,6,1,344,241,-0.172543464245,0.464730234515,0.195503824632,1,1.0,1.0,0.426651742309,0,nan,nan,nan,nan,nan,nan,nan,nan,nan,0.0,0.0,0.0,nan,nan,275.476420985,354.304369296,354.731021038,354.804389537,nan,nan
0,66,4558,6,1,25,17,1.0,0.0970682892709,-1.0,1,1.0,1.0,0.410494679585,0,nan,nan,nan,nan,nan,nan,nan,nan,nan,0.0,0.0,0.0,nan,nan,275.476420985,355.304518972,355.715013651,355.804507283,nan,nan
0,67,4559,6,1,164,115,1.0,-0.209685835145,0.194761549991,1,1.0,1.0,0.362380715087,0,nan,nan,nan,nan,nan,nan,nan,nan,nan,0.0,0.0,0.0,nan,nan,275.476420985,356.304621037,356.667001752,356.804642134,nan,nan
0,68,4600,6,1,68,47,1.0,-0.129018143495,-0.972903198114,1,1.0,1.0,0.330235365778,0,nan,nan,nan,nan,nan,nan,nan,nan,nan,0.0,0.0,0.0,nan,nan,275.476420985,357.304746195,357.634981561,357.804787819,nan,nan
0,69,4601,6,1,364,255,-0.160194321586,0.476704516321,-0.00341124574885,1,1.0,1.0,0.402068898082,0,nan,nan,nan,nan,nan,nan,nan,nan,nan,0.0,0.0,0.0,nan,nan,275.476420985,358.304881901,358.7069508,358.804911552,nan,nan
0,70,4602,6,1,458,322,0.399688045963,0.388050214986,-1.0,1,1.0,1.0,0.354058709927,0,nan,nan,nan,nan,nan,nan,nan,nan,nan,0.0,0.0,0.0,nan,nan,275.476420985,359.305004493,359.659063203,359.805040701,nan,nan
0,71,4603,6,1,292,205,0.112881669716,0.376069582356,0.569261850688,1,1.0,1.0,0.289787681773,0,nan,nan,nan,nan,nan,nan,nan,nan,nan,0.0,0.0,0.0,nan,nan,275.476420985,360.305128796,360.594916478,360.805176693,nan,nan
0,72,4604,6,1,25,17,1.0,0.0970682892709,-1.0,1,1.0,1.0,0.209715678357,0,nan,nan,nan,nan,nan,nan,nan,nan,nan,0.0,0.0,0.0,nan,nan,275.476420985,361.305274766,361.514990444,361.805281608,nan,nan
0,73,4605,6,1,261,183,0.427225806086,0.276617811781,0.653674462902,1,1.0,1.0,0.241517200135,0,nan,nan,nan,nan,nan,nan,nan,nan,nan,0.0,0.0,0.0,nan,nan,275.476420985,362.305382533,362.546899733,362.80543043,nan,nan
0,74,4606,6,1,207,145,0.985653507947,0.0195431921708,0.51699622314,1,1.0,1.0,0.297374704853,0,nan,nan,nan,nan,nan,nan,nan,nan,nan,0.0,0.0,0.0,nan,nan,275.476420985,363.305515674,363.602890379,363.805556443,nan,nan
0,75,4607,6,0,87,61,1.0,-0.220959007447,-0.612675615602,0,0.0,1.0,0.38518597465,0,nan,nan,nan,nan,nan,nan,nan,nan,nan,0.0,0.0,0.0,nan,nan,275.476420985,364.305674759,364.690860733,364.805683882,nan,nan
0,76,4608,6,1,337,236,-0.160643365934,0.457858386897,0.259303564052,1,1.0,1.0,0.305070065893,0,nan,nan,nan,nan,nan,nan,nan,nan,nan,0.0,0.0,0.0,nan,nan,275.476420985,365.305773403,365.610843468,365.805809895,nan,nan
0,77,4614,6,1,270,189,0.331159066004,0.309369715406,0.641393874915,1,1.0,1.0,0.336925755255,1,nan,nan,nan,nan,nan,nan,nan,-84.3907255536,248.0,0.568115903494,0.223728204869,0.653295769881,-15.4530244464,2.20892168023,275.476420985,366.305899416,366.642825171,366.805956435,368.131104515,370.348052554
0,78,4615,6,0,13,9,0.950262168777,0.154664060346,-1.0,0,0.0,1.0,0.413810651749,0,nan,nan,nan,nan,nan,nan,nan,nan,nan,0.0,0.0,0.0,nan,nan,275.476420985,371.564910502,371.978721154,372.06494785,nan,nan
0,79,4616,6,1,475,333,0.539218753276,0.343659807328,-1.0,1,1.0,1.0,0.429678911343,0,nan,nan,nan,nan,nan,nan,nan,nan,nan,0.0,0.0,0.0,nan,nan,275.476420985,372.565031384,372.994710295,373.065080421,nan,nan
0,80,4617,6,0,373,262,-0.135407706169,0.478559568072,-0.0996974893599,0,0.0,1.0,0.429504716769,0,0.0,0.0,0.42433142662,0.318911700416,0.100783684526,0.419695384943,0.21812801589,nan,nan,0.0,0.0,0.0,nan,nan,275.476420985,373.565190469,373.994695186,374.065202728,nan,nan
0,81,4618,6,1,13,9,0.950262168777,0.154664060346,-1.0,1,1.0,1.0,0.413357061334,0,0.0,0.0,0.424180229815,0.320277046297,0.10090136382,0.421178410118,0.219375682477,nan,nan,0.0,0.0,0.0,nan,nan,275.476420985,374.565304223,374.978661284,375.065305363,nan,nan
0,82,4619,6,1,141,99,1.0,-0.291952736687,-0.024586852943,1,1.0,1.0,0.38124193158,0,0.0,0.0,0.408034569894,0.321412168432,0.100803245623,0.422215414054,0.220608922809,nan,nan,0.0,0.0,0.0,nan,nan,275.476420985,375.565403722,375.946645654,376.065446487,nan,nan
0,83,4620,6,0,353,248,-0.175041255135,0.471490071959,0.108799216003,0,0.0,1.0,0.357101558708,0,0.0,0.0,0.383900183874,0.322133008952,0.100406559555,0.422539568507,0.221726449397,nan,nan,0.0,0.0,0.0,nan,nan,275.476420985,376.565545131,376.922646689,377.065583903,nan,nan
0,84,4621,6,1,240,168,0.654373017221,0.188015059697,0.642463954019,1,1.0,1.0,0.276979662478,0,0.0,0.0,0.338441050922,0.322549301211,0.0998791442358,0.422428445447,0.222670156975,nan,nan,0.0,0.0,0.0,nan,nan,275.476420985,377.565649761,377.842629423,378.065707921,nan,nan
0,85,4622,6,1,496,348,0.714833717156,0.274923884212,-1.0,1,1.0,1.0,0.308818817139,0,0.0,0.0,0.314300012775,0.322013187814,0.0994113859946,0.421424573808,0.222601801819,nan,nan,0.0,0.0,0.0,nan,nan,275.476420985,378.56579231,378.874611127,379.065813122,nan,nan
0,86,4623,6,1,400,281,-0.0107874812989,0.471427301814,-0.412692688905,1,1.0,1.0,0.324674532749,0,0.0,0.0,0.303491004122,0.321859764899,0.0988418444633,0.420701609362,0.223017920436,nan,nan,0.0,0.0,0.0,nan,nan,275.476420985,379.565926876,379.890601409,380.065962799,nan,nan
0,87,4624,6,1,173,121,1.0,-0.165909522591,0.273535192888,1,1.0,1.0,0.316487378441,0,0.0,0.0,0.316660242776,0.321892118552,0.0982726041094,0.420164722662,0.223619514443,nan,nan,0.0,0.0,0.0,nan,nan,275.476420985,380.566074557,380.882561935,381.066088527,nan,nan
0,88,4625,6,1,253,177,0.513865899396,0.244839928328,0.655977188727,1,1.0,1.0,0.308352111839,0,0.0,0.0,0.316504674343,0.321830701051,0.0977143209574,0.419545022009,0.224116380094,nan,nan,0.0,0.0,0.0,nan,nan,275.476420985,381.566196864,381.874548975,382.066213685,nan,nan
0,89,4626,6,1,505,355,0.789537956352,0.240683140511,-1.0,1,1.0,1.0,0.276278321631,0,0.0,0.0,0.30037260397,0.321679256229,0.0971741990124,0.418853455241,0.224505057216,nan,nan,0.0,0.0,0.0,nan,nan,275.476420985,382.566304916,382.842583237,383.066338843,nan,nan
0,90,4627,6,1,0,0,0.846831709088,0.212097570855,-1.0,1,1.0,1.0,0.26812794432,0,0.0,0.0,0.284252792597,0.3211748014,0.0967499505036,0.417924751903,0.224424850896,nan,nan,0.0,0.0,0.0,nan,nan,275.476420985,383.56643207,383.834560014,384.066453167,nan,nan
0,91,4628,6,1,431,303,0.191957257768,0.43918128748,-0.982298765802,1,1.0,1.0,0.243951079436,0,0.0,0.0,0.262785781796,0.320591868904,0.0963756848484,0.416967553753,0.224216184056,nan,nan,0.0,0.0,0.0,nan,nan,275.476420985,384.566551811,384.81050289,385.066576329,nan,nan
0,92,4629,6,1,147,103,1.0,-0.275801134503,0.0346720467303,1,1.0,1.0,0.25980052352,0,0.0,0.0,0.257293182425,0.319758816845,0.0961793373686,0.415938154214,0.223579479476,nan,nan,0.0,0.0,0.0,nan,nan,275.476420985,385.566680389,385.826480913,386.066702628,nan,nan
0,93,4630,6,0,319,224,-0.0891891826932,0.433308674125,0.406137099325,0,1.0,0.0,0.227637781762,0,0.0,0.0,0.243796461572,0.319114104013,0.0958605121944,0.414974616208,0.223253591819,nan,nan,0.0,0.0,0.0,nan,nan,275.476420985,386.566828641,386.794466423,387.066862282,nan,nan
0,94,4631,6,1,467,328,0.473005185182,0.365775667588,-1.0,1,1.0,1.0,0.131606287323,0,0.0,0.0,0.206348197535,0.318140951649,0.0958099855079,0.413950937157,0.222330966141,nan,nan,0.0,0.0,0.0,nan,nan,275.476420985,387.566940399,387.698546686,388.067010818,nan,nan
0,95,4632,6,1,53,37,1.0,-0.049257555853,-1.0,1,1.0,1.0,0.235394438729,0,0.0,0.0,0.198212835938,0.316177428867,0.0971871189373,0.413364547804,0.218990309929,nan,nan,0.0,0.0,0.0,nan,nan,275.476420985,388.567063847,388.802458285,389.067094067,nan,nan
0,96,4633,6,1,176,123,1.0,-0.150429669724,0.298675466069,1,1.0,1.0,0.243224364705,0,1.0,0.0,0.203408363586,0.315335939386,0.0970268885496,0.412362827936,0.218309050836,nan,nan,0.0,0.0,0.0,nan,nan,275.476420985,389.567192426,389.810416791,390.067226352,nan,nan
0,97,4638,6,1,78,54,1.0,-0.179467652321,-0.739907630878,1,1.0,1.0,0.275091744028,1,0.0,0.0,0.251236849154,0.31459252109,0.0967998951975,0.411392416288,0.217792625893,3.24911156072,123.0,1.0,-0.311441137266,-0.208672863777,31.9071384393,2.75905955397,275.476420985,390.567331553,390.842423297,391.067365195,392.392527244,395.159525632
0,98,4639,6,1,123,86,1.0,-0.311441137266,-0.208672863777,1,1.0,1.0,0.394212742336,0,0.0,0.0,0.30417628369,0.314189451937,0.0963865359034,0.41057598784,0.217802916033,nan,nan,0.0,0.0,0.0,nan,nan,275.476420985,396.368060719,396.762273462,396.868102629,nan,nan
0,99,4640,6,1,31,21,1.0,0.0668515730764,-1.0,1,1.0,1.0,0.298076615669,0,0.0,0.0,0.322460367344,0.314997768001,0.09623176698,0.411229534981,0.218766001021,nan,nan,0.0,0.0,0.0,nan,nan,275.476420985,397.368195856,397.666272472,397.86823577,nan,nan
0,100,4641,6,1,109,76,1.0,-0.294638327523,-0.357773695079,1,1.0,1.0,0.257932562381,0,0.0,0.0,0.316740640129,0.314828556478,0.0957642003452,0.410592756823,0.219064356133,nan,nan,0.0,0.0,0.0,nan,nan,275.476420985,398.368321584,398.626254146,398.868346103,nan,nan
0,101,4642,6,0,326,229,-0.12383419111,0.444071765824,0.352223541474,0,0.0,1.0,0.433733573183,0,0.0,0.0,0.329914250411,0.314265229804,0.0954553085977,0.409720538402,0.218809921206,nan,nan,0.0,0.0,0.0,nan,nan,275.476420985,399.36848523,399.802218803,399.868493498,nan,nan
0,102,4643,6,1,37,26,1.0,0.0358565504353,-1.0,1,1.0,1.0,0.265704328194,0,0.0,0.0,0.31912348792,0.315436488072,0.0957128091226,0.411149297195,0.21972367895,nan,nan,0.0,0.0,0.0,nan,nan,275.476420985,400.368578742,400.63428307,400.868603545,nan,nan
0,103,4644,6,0,406,285,0.0244967455079,0.467245700284,-0.489366101921,0,0.0,1.0,0.489460503682,0,0.0,0.0,0.396299468353,0.314953651569,0.0953717988633,0.410325450432,0.219581852705,nan,nan,0.0,0.0,0.0,nan,nan,275.476420985,401.368720436,401.858180939,401.877073802,nan,nan
0,104,4645,6,1,353,248,-0.175041255135,0.471490071959,0.108799216003,1,1.0,1.0,0.305413608439,0,0.0,0.0,0.353526146772,0.31663160207,0.0964277913116,0.413059393381,0.220203810758,nan,nan,0.0,0.0,0.0,nan,nan,275.476420985,402.368812237,402.674225845,402.868845879,nan,nan
0,105,4646,6,1,128,90,1.0,-0.310663006781,-0.156689791083,1,1.0,1.0,0.305211189203,0,0.0,0.0,0.366695100442,0.316524764035,0.0959736975051,0.41249846154,0.22055106653,nan,nan,0.0,0.0,0.0,nan,nan,275.476420985,403.368951935,403.674163125,403.868977879,nan,nan
0,106,4647,6,1,218,153,0.881467392804,0.0788246127756,0.572559633417,1,1.0,1.0,0.313086160459,0,0.0,0.0,0.3079036527,0.316418032197,0.0955261795492,0.411944211746,0.220891852648,nan,nan,0.0,0.0,0.0,nan,nan,275.476420985,404.369065975,404.682152135,404.869110449,nan,nan
0,107,4648,6,1,174,122,1.0,-0.160790688716,0.281981279739,1,1.0,1.0,0.26498787757,0,0.0,0.0,0.294428409077,0.316386893209,0.0950792881826,0.411466181391,0.221307605026,nan,nan,0.0,0.0,0.0,nan,nan,275.476420985,405.369187711,405.634175588,405.86924359,nan,nan
0,108,4649,6,1,510,358,0.830554458933,0.220436700166,-1.0,1,1.0,1.0,0.288771593943,0,0.0,0.0,0.288948543991,0.315910976397,0.0947660373691,0.410677013766,0.221144939028,nan,nan,0.0,0.0,0.0,nan,nan,275.476420985,406.369335392,406.658106986,406.869365042,nan,nan
0,109,4650,6,1,308,216,-0.0186828559465,0.413097475488,0.481682330771,1,1.0,1.0,0.256672999822,0,0.0,0.0,0.270144157112,0.315661991237,0.0943658111074,0.410027802345,0.22129618013,nan,nan,0.0,0.0,0.0,nan,nan,275.476420985,407.369470813,407.626143813,407.869518424,nan,nan
0,110,4651,6,1,459,322,0.407758158413,0.385709174134,-1.0,1,1.0,1.0,0.240540169179,0,0.0,0.0,0.261994920981,0.315125727679,0.0941025965641,0.409228324243,0.221023131115,nan,nan,0.0,0.0,0.0,nan,nan,275.476420985,408.369597682,408.610137851,408.869615358,nan,nan
0,111,4652,6,1,160,112,1.0,-0.227501418013,0.158297521075,1,1.0,1.0,0.224395934492,0,0.0,0.0,0.240536367831,0.31445378571,0.093942465773,0.408396251483,0.220511319937,nan,nan,0.0,0.0,0.0,nan,nan,275.476420985,409.369722269,409.594118204,409.869747928,nan,nan
0,112,4653,6,1,8,5,0.91102658764,0.177400941622,-1.0,1,1.0,1.0,0.240166406147,0,0.0,0.0,0.23503416994,0.313649697753,0.093905050132,0.407554747885,0.219744647621,nan,nan,0.0,0.0,0.0,nan,nan,275.476420985,410.36985655,410.610022957,410.869874797,nan,nan
0,113,4654,6,1,217,152,0.891250405156,0.0735373331823,0.568048345461,1,1.0,1.0,0.238362592645,0,0.0,0.0,0.234308311095,0.312999403137,0.0937415838662,0.406740987003,0.219257819271,nan,nan,0.0,0.0,0.0,nan,nan,275.476420985,411.411669852,411.650032445,411.911694656,nan,nan
0,114,4655,6,1,135,94,1.0,-0.303502321856,-0.0849788702499,1,1.0,1.0,0.206289942376,0,0.0,0.0,0.228272980389,0.312344694273,0.0935886643012,0.405933358574,0.218756029972,nan,nan,0.0,0.0,0.0,nan,nan,275.476420985,412.411777334,412.618067277,412.911806129,nan,nan
0,115,4656,6,1,335,235,-0.155595990888,0.455627721073,0.276893227044,1,1.0,1.0,0.246116682887,0,0.0,0.0,0.230256405969,0.311422479039,0.0936996750429,0.405122154082,0.217722803996,nan,nan,0.0,0.0,0.0,nan,nan,275.476420985,413.411899071,413.658015754,413.911944401,nan,nan
0,116,4657,6,1,236,165,0.697004556276,0.169301754335,0.634065852989,1,1.0,1.0,0.221980300732,0,0.0,0.0,0.224795641998,0.310859498038,0.0934900616122,0.40434955965,0.217369436426,nan,nan,0.0,0.0,0.0,nan,nan,275.476420985,414.412034778,414.634015079,414.912045612,nan,nan
0,117,4659,6,1,91,63,1.0,-0.237709898716,-0.562722318432,1,1.0,1.0,0.189810433425,0,0.0,0.0,0.219302472348,0.310099846779,0.0934485288406,0.40354837562,0.216651317938,nan,nan,0.0,0.0,0.0,nan,nan,275.476420985,415.412153093,415.601963527,415.912183314,nan,nan
0,118,4700,6,0,184,129,1.0,-0.107671891867,0.362640045218,0,1.0,0.0,0.157672780566,0,0.0,0.0,0.189821171574,0.309080444971,0.0937027549741,0.402783199945,0.215377689997,nan,nan,0.0,0.0,0.0,nan,nan,275.476420985,416.41230277,416.56997555,416.912354372,nan,nan
0,119,4701,6,1,118,82,1.0,-0.308588151016,-0.261285249573,1,1.0,1.0,0.149582275189,0,0.0,0.0,0.165688496393,0.307808111657,0.0943262700789,0.402134381735,0.213481841578,nan,nan,0.0,0.0,0.0,nan,nan,275.476420985,417.41239229,417.561974565,417.912485518,nan,nan
0,120,4702,6,1,275,193,0.279002393219,0.326185254474,0.630178474337,1,1.0,1.0,0.213371201418,0,0.0,0.0,0.173542085725,0.306489563019,0.0950273104989,0.401516873518,0.21146225252,nan,nan,0.0,0.0,0.0,nan,nan,275.476420985,418.412543393,418.625914594,418.912592144,nan,nan
0,121,4703,6,1,353,248,-0.175041255135,0.471490071959,0.108799216003,1,1.0,1.0,0.229274243116,0,1.0,0.0,0.197409239908,0.305719989783,0.0950085745041,0.400728564287,0.210711415279,nan,nan,0.0,0.0,0.0,nan,nan,275.476420985,419.412649734,419.641923977,419.912692498,nan,nan
0,122,4707,6,1,290,203,0.131265381085,0.370776544741,0.578206616232,1,1.0,1.0,0.189151857048,1,0.0,0.0,0.210599100528,0.305093385302,0.094869115519,0.399962500821,0.210224269783,-121.62432426,301.0,0.0351599448551,0.39804275895,0.523414514543,7.71807425972,1.91718335915,275.476420985,420.412802546,420.601954403,420.912854434,422.246340484,424.171557616
0,123,4708,6,1,130,91,1.0,-0.309333154106,-0.136071487739,1,1.0,1.0,0.429638142698,0,0.0,0.0,0.282688080954,0.304150771251,0.0950545986683,0.39920536992,0.209096172583,nan,nan,0.0,0.0,0.0,nan,nan,275.476420985,425.380121212,425.809759355,425.880115511,nan,nan
0,124,4709,6,1,370,260,-0.144805996584,0.478178727438,-0.0671803333712,1,1.0,1.0,0.35752920527,0,0.0,0.0,0.325439735005,0.305162766182,0.0953335158101,0.400496281992,0.209829250372,nan,nan,0.0,0.0,0.0,nan,nan,275.476420985,426.380214725,426.73774393,426.880243234,nan,nan
0,125,4710,6,1,81,56,1.0,-0.193804253699,-0.694219169772,1,1.0,1.0,0.277412155643,0,0.0,0.0,0.354859834537,0.305581697695,0.0950659447475,0.400647642442,0.210515752947,nan,nan,0.0,0.0,0.0,nan,nan,275.476420985,427.380365541,427.657777697,427.880378656,nan,nan
0,126,4711,6,1,401,281,-0.00506340639596,0.470796889516,-0.425203102762,1,1.0,1.0,0.229243167676,0,0.0,0.0,0.28806150953,0.305358129901,0.0947209333327,0.400079063234,0.210637196568,nan,nan,0.0,0.0,0.0,nan,nan,275.476420985,428.380484427,428.609727595,428.880519494,nan,nan
0,127,4712,6,1,8,5,0.91102658764,0.177400941622,-1.0,1,1.0,1.0,0.229080662131,0,0.0,0.0,0.245245328483,0.30475879949,0.0945868274236,0.399345626913,0.210171972066,nan,nan,0.0,0.0,0.0,nan,nan,275.476420985,429.380618993,429.609699655,429.880640375,nan,nan
0,128,4713,6,1,90,63,1.0,-0.233635786423,-0.574971871003,1,1.0,1.0,0.19700316526,0,0.0,0.0,0.218442331689,0.304167564042,0.0944519248985,0.39861948894,0.209715639143,nan,nan,0.0,0.0,0.0,nan,nan,275.476420985,430.380753845,430.57775701,430.880773231,nan,nan
0,129,4714,6,1,499,350,0.739831889234,0.263827757734,-1.0,1,1.0,1.0,0.220872695558,0,0.0,0.0,0.215652174316,0.303336832268,0.094553395213,0.397890227481,0.208783437055,nan,nan,0.0,0.0,0.0,nan,nan,275.476420985,431.38085762,431.601730316,431.880903521,nan,nan
0,130,4715,6,1,32,22,1.0,0.061735800531,-1.0,1,1.0,1.0,0.244697180577,0,0.0,0.0,0.220857680465,0.302702492755,0.0944641759552,0.39716666871,0.2082383168,nan,nan,0.0,0.0,0.0,nan,nan,275.476420985,432.380983634,432.625680814,432.881014709,nan,nan
0,131,4716,6,1,383,269,-0.0968787136249,0.478131214543,-0.211081409456,1,1.0,1.0,0.244537810795,0,0.0,0.0,0.23670256231,0.302259704112,0.0942382639829,0.396497968095,0.208021440129,nan,nan,0.0,0.0,0.0,nan,nan,275.476420985,433.381111072,433.625648883,433.881136161,nan,nan
0,132,4717,6,1,176,123,1.0,-0.150429669724,0.298675466069,1,1.0,1.0,0.204457618296,0,0.0,0.0,0.231230869889,0.301822417042,0.0940139407029,0.395836357745,0.207808476339,nan,nan,0.0,0.0,0.0,nan,nan,275.476420985,434.381240507,434.585698125,434.881296671,nan,nan
0,133,4718,6,1,287,201,0.159501648714,0.36255249221,0.590751920292,1,1.0,1.0,0.188276036642,0,0.0,0.0,0.212423821911,0.301090350886,0.0940367311332,0.395127082019,0.207053619753,nan,nan,0.0,0.0,0.0,nan,nan,275.476420985,435.381371937,435.569647973,435.881435798,nan,nan
0,134,4719,6,1,397,279,-0.0275613476434,0.473159987783,-0.37569455347,1,1.0,1.0,0.244178872555,0,0.0,0.0,0.212304175831,0.300248453018,0.0941869645916,0.39443541761,0.206061488427,nan,nan,0.0,0.0,0.0,nan,nan,275.476420985,436.381500516,436.625679389,436.881561527,nan,nan
0,135,4720,6,0,160,112,1.0,-0.227501418013,0.158297521075,0,0.0,1.0,0.427916722372,0,0.0,0.0,0.286790543857,0.299833122793,0.0939605593587,0.393793682151,0.205872563434,nan,nan,0.0,0.0,0.0,nan,nan,275.476420985,437.381642494,437.809559217,437.881670434,nan,nan
0,136,4721,6,1,235,165,0.707591924495,0.164537776567,0.631659631194,1,1.0,1.0,0.291809311137,0,0.0,0.0,0.321301635355,0.300774913966,0.094251852338,0.395026766304,0.206523061628,nan,nan,0.0,0.0,0.0,nan,nan,275.476420985,438.381729734,438.673539045,438.881784759,nan,nan
0,137,4722,6,1,181,127,1.0,-0.123914391386,0.3392011262,1,1.0,1.0,0.32362052612,0,0.0,0.0,0.347782186543,0.30070947161,0.0939103385984,0.394619810208,0.206799133011,nan,nan,0.0,0.0,0.0,nan,nan,275.476420985,439.381884542,439.705505068,439.881909061,nan,nan
0,138,4723,6,1,113,79,1.0,-0.302191989669,-0.314576349441,1,1.0,1.0,0.315502650104,0,0.0,0.0,0.31031082912,0.300875493744,0.0935896414041,0.394465135148,0.20728585234,nan,nan,0.0,0.0,0.0,nan,nan,275.476420985,440.382004854,440.697507504,440.882037356,nan,nan
0,139,4724,6,1,442,310,0.273907262724,0.421095538958,-1.0,1,1.0,1.0,0.259378007613,0,0.0,0.0,0.299500394613,0.300980725084,0.0932605736653,0.39424129875,0.207720151419,nan,nan,0.0,0.0,0.0,nan,nan,275.476420985,441.382159662,441.64153767,441.882151394,nan,nan
0,140,4726,6,1,128,90,1.0,-0.310663006781,-0.156689791083,1,1.0,1.0,0.273173036054,0,0.0,0.0,0.28268456459,0.300683562817,0.0929929234172,0.393676486234,0.2076906394,nan,nan,0.0,0.0,0.0,nan,nan,275.476420985,442.432278719,442.705451755,442.932296965,nan,nan
0,141,4727,6,1,346,243,-0.174317561957,0.466431294057,0.176670174816,1,1.0,1.0,0.25705303438,0,0.0,0.0,0.263201359349,0.300488452698,0.0926913276906,0.393179780388,0.207797125007,nan,nan,0.0,0.0,0.0,nan,nan,275.476420985,443.432404447,443.689457482,443.932422408,nan,nan
0,142,4728,6,0,89,62,1.0,-0.229484098413,-0.587370487375,0,1.0,0.0,0.216921525076,0,0.0,0.0,0.249049198503,0.30018256947,0.0924357616186,0.392618331089,0.207746807852,nan,nan,0.0,0.0,0.0,nan,nan,275.476420985,444.432542149,444.649463674,444.932583774,nan,nan
0,143,4729,6,1,38,26,1.0,0.0306259494545,-1.0,1,1.0,1.0,0.20079781767,0,0.0,0.0,0.224924125709,0.299600324405,0.0923729316933,0.391973256098,0.207227392711,nan,nan,0.0,0.0,0.0,nan,nan,275.476420985,445.432634236,445.633432054,445.932680137,nan,nan
0,144,4730,6,1,198,139,1.0,-0.0302354974571,0.462326941081,1,1.0,1.0,0.200712858699,0,0.0,0.0,0.206144067148,0.298914195886,0.0924165769084,0.391330772794,0.206497618977,nan,nan,0.0,0.0,0.0,nan,nan,275.476420985,446.432765095,446.633477954,446.932814417,nan,nan
0,145,4731,6,1,396,278,-0.0330153705648,0.473684876347,-0.363523780775,1,1.0,1.0,0.264482684433,0,0.0,0.0,0.221997786934,0.298236945284,0.0924552307953,0.39069217608,0.205781714489,nan,nan,0.0,0.0,0.0,nan,nan,275.476420985,447.432915627,447.697398311,447.932928742,nan,nan
0,146,4732,6,1,317,222,-0.077772836126,0.429938605076,0.420733606481,1,1.0,1.0,0.256376783364,0,0.0,0.0,0.240524108832,0.298005751717,0.0921801078392,0.390185859556,0.205825643878,nan,nan,0.0,0.0,0.0,nan,nan,275.476420985,448.433032517,448.689409301,448.933056465,nan,nan
0,147,4733,6,1,199,139,1.0,-0.0246761787097,0.468786302982,1,1.0,1.0,0.272204844281,0,0.0,0.0,0.264354770693,0.297722561456,0.0919297400729,0.389652301529,0.205792821383,nan,nan,0.0,0.0,0.0,nan,nan,275.476420985,449.43315739,449.705362234,449.933183905,nan,nan
0,148,4734,6,1,53,37,1.0,-0.049257555853,-1.0,1,1.0,1.0,0.240119365044,0,0.0,0.0,0.25623366423,0.297550144448,0.0916424857712,0.389192630219,0.205907658677,nan,nan,0.0,0.0,0.0,nan,nan,275.476420985,450.433276846,450.673396211,450.933314479,nan,nan
0,149,4735,6,1,274,192,0.289344050657,0.322900892411,0.632670269059,1,1.0,1.0,0.279900775291,0,0.0,0.0,0.264074994872,0.297164702976,0.0914547325429,0.388619435518,0.205709970433,nan,nan,0.0,0.0,0.0,nan,nan,275.476420985,451.433399153,451.713299928,451.933450186,nan,nan
0,150,4736,6,1,110,77,1.0,-0.296722754836,-0.346921960777,1,1.0,1.0,0.279786165804,0,0.0,0.0,0.266602102046,0.297049610124,0.0911601997883,0.388209809913,0.205889410336,nan,nan,0.0,0.0,0.0,nan,nan,275.476420985,452.43355111,452.713337276,452.933595016,nan,nan
0,151,4737,6,1,256,180,0.481312611765,0.257047908656,0.656065722404,1,1.0,1.0,0.279633067548,0,0.0,0.0,0.279773336214,0.296935282678,0.0908686322232,0.387803914902,0.206066650455,nan,nan,0.0,0.0,0.0,nan,nan,275.476420985,453.43368026,453.713313327,453.933699646,nan,nan
0,152,4738,6,0,466,327,0.464789014893,0.368385601135,-1.0,0,0.0,1.0,0.53541941382,0,0.0,0.0,0.364946215724,0.296821452316,0.0905800298141,0.38740148213,0.206241422502,nan,nan,0.0,0.0,0.0,nan,nan,275.476420985,454.433823949,454.969243363,454.933871846,nan,nan
0,153,4739,6,1,298,209,0.0600896634305,0.391050340636,0.53969689008,1,1.0,1.0,0.287303909659,0,0.0,0.0,0.367452130343,0.298380916116,0.0923080115388,0.390688927655,0.206072904578,nan,nan,0.0,0.0,0.0,nan,nan,275.476420985,455.433938273,455.721242183,455.933974766,nan,nan
0,154,4740,6,1,433,304,0.206536295144,0.436163724167,-1.0,1,1.0,1.0,0.239163431339,0,0.0,0.0,0.353962251606,0.298308987503,0.0920121236873,0.39032111119,0.206296863816,nan,nan,0.0,0.0,0.0,nan,nan,275.476420985,456.434064002,456.673227433,456.934081107,nan,nan
0,155,4741,6,1,81,56,1.0,-0.193804253699,-0.694219169772,1,1.0,1.0,0.247059500776,0,0.0,0.0,0.257842280592,0.29792740327,0.0918369939952,0.389764397265,0.206090409275,nan,nan,0.0,0.0,0.0,nan,nan,275.476420985,457.434191725,457.681251226,457.93423677,nan,nan
0,156,4742,6,1,494,347,0.698129958021,0.282143999684,-1.0,1,1.0,1.0,0.252863522619,0,0.0,0.0,0.246362151578,0.297601326972,0.0916321430534,0.389233470025,0.205969183918,nan,nan,0.0,0.0,0.0,nan,nan,275.476420985,458.484323326,458.737186849,458.984346705,nan,nan
0,157,4743,6,1,0,0,0.846831709088,0.212097570855,-1.0,1,1.0,1.0,0.316724294797,0,0.0,0.0,0.272215772731,0.297316372804,0.0914091685475,0.388725541351,0.205907204256,nan,nan,0.0,0.0,0.0,nan,nan,275.476420985,459.484445348,459.801169643,459.984479561,nan,nan
0,158,4744,6,1,228,160,0.780729811514,0.1302769546,0.611433142569,1,1.0,1.0,0.340560182929,0,0.0,0.0,0.303382666782,0.297439207753,0.0911324377183,0.388571645471,0.206306770035,nan,nan,0.0,0.0,0.0,nan,nan,275.476420985,460.484570791,460.825130974,460.984599016,nan,nan
0,159,4745,6,1,402,282,0.000724920831492,0.470139955471,-0.437811562499,1,1.0,1.0,0.316439766437,0,0.0,0.0,0.324574748054,0.297710408855,0.0909093429947,0.38861975185,0.20680106586,nan,nan,0.0,0.0,0.0,nan,nan,275.476420985,461.484700796,461.801140563,461.984718187,nan,nan
0,160,4746,6,1,478,336,0.56422249903,0.334793662244,-1.0,1,1.0,1.0,0.348282056861,0,0.0,0.0,0.335094002075,0.29782746734,0.0906368258062,0.388464293146,0.207190641534,nan,nan,0.0,0.0,0.0,nan,nan,275.476420985,462.484822818,462.833104875,462.984859881,nan,nan
0,161,4747,6,1,78,54,1.0,-0.179467652321,-0.739907630878,1,1.0,1.0,0.348107292317,0,0.0,0.0,0.337609705205,0.298140849883,0.0904418183924,0.388582668276,0.207699031491,nan,nan,0.0,0.0,0.0,nan,nan,275.476420985,463.484985609,463.833092901,463.984985324,nan,nan
0,162,4748,6,1,304,213,0.0113092810281,0.404708921832,0.506160370659,1,1.0,1.0,0.300035523251,0,0.0,0.0,0.332141624143,0.298449284713,0.0902471421096,0.388696426823,0.208202142604,nan,nan,0.0,0.0,0.0,nan,nan,275.476420985,464.485099933,464.785135456,464.985113903,nan,nan
0,163,4749,6,1,237,166,0.686387300223,0.174031846447,0.636349816437,1,1.0,1.0,0.283899271861,0,0.0,0.0,0.310680695809,0.298459016238,0.0899699697502,0.388428985988,0.208489046488,nan,nan,0.0,0.0,0.0,nan,nan,275.476420985,465.485209125,465.769108397,465.985238776,nan,nan
0,164,4750,6,0,481,338,0.589289488337,0.325611856148,-1.0,0,0.0,1.0,0.563687432557,0,0.0,0.0,0.382540742556,0.298370237309,0.0897024129235,0.388072650232,0.208667824385,nan,nan,0.0,0.0,0.0,nan,nan,275.476420985,466.485351389,467.049038822,466.985406699,nan,nan
0,165,4751,6,1,345,242,-0.173519535469,0.465595146217,0.186119282857,1,1.0,1.0,0.267570578493,0,0.0,0.0,0.371719094304,0.29997822031,0.0917703438458,0.391748564156,0.208207876465,nan,nan,0.0,0.0,0.0,nan,nan,275.476420985,467.485446897,467.753017476,467.985487951,nan,nan
0,166,4752,6,1,2,1,0.863024578927,0.203622855609,-1.0,1,1.0,1.0,0.219476572238,0,0.0,0.0,0.350244861096,0.299782993552,0.0915278702037,0.391310863756,0.208255123349,nan,nan,0.0,0.0,0.0,nan,nan,275.476420985,468.485589161,468.705065733,468.985625654,nan,nan
0,167,4753,6,0,325,228,-0.119404900653,0.442631039184,0.360186421743,0,1.0,0.0,0.187287601642,0,0.0,0.0,0.224778250791,0.299302116778,0.0914635090941,0.390765625872,0.207838607684,nan,nan,0.0,0.0,0.0,nan,nan,275.476420985,469.485737697,469.673025299,469.985788444,nan,nan
0,168,4754,6,1,434,305,0.213881816697,0.43461034373,-1.0,1,1.0,1.0,0.219158117659,0,0.0,0.0,0.208640763847,0.298635363712,0.0915970516843,0.390232415396,0.207038312028,nan,nan,0.0,0.0,0.0,nan,nan,275.476420985,470.485824937,470.704983055,470.9858945,nan,nan
0,169,4755,6,1,481,338,0.589289488337,0.325611856148,-1.0,1,1.0,1.0,0.338992714882,0,0.0,0.0,0.248479478061,0.298165084149,0.0915288487356,0.389693932885,0.206636235414,nan,nan,0.0,0.0,0.0,nan,nan,275.476420985,471.485956367,471.824949082,471.986037049,nan,nan
0,170,4756,6,1,120,84,1.0,-0.310161497659,-0.240162905937,1,1.0,1.0,0.338840758428,0,0.0,0.0,0.29899719699,0.298405246683,0.0913126396012,0.389717886284,0.207092607082,nan,nan,0.0,0.0,0.0,nan,nan,275.476420985,472.486108324,472.824949082,472.98615394,nan,nan
0,171,4757,6,1,212,149,0.93926288676,0.0467731277665,0.543851001166,1,1.0,1.0,0.362680353224,0,0.0,0.0,0.346837942178,0.298641711664,0.0910974401104,0.389739151774,0.207544271554,nan,nan,0.0,0.0,0.0,nan,nan,275.476420985,473.486228065,473.848908418,473.986257145,nan,nan
0,172,4758,6,1,147,103,1.0,-0.275801134503,0.0346720467303,1,1.0,1.0,0.407500580885,0,0.0,0.0,0.369673897512,0.299014029348,0.0909626252019,0.389976654549,0.208051404146,nan,nan,0.0,0.0,0.0,nan,nan,275.476420985,474.561401519,474.9689021,475.061397812,nan,nan
0,173,4759,6,1,280,196,0.228089347314,0.342018854333,0.61587222022,1,1.0,1.0,0.287395996973,0,0.0,0.0,0.352525643694,0.299641119241,0.0910714500871,0.390712569328,0.208569669154,nan,nan,0.0,0.0,0.0,nan,nan,275.476420985,475.561492465,475.848888461,476.061531523,nan,nan
0,174,4800,6,1,130,91,1.0,-0.309333154106,-0.136071487739,1,1.0,1.0,0.269173398614,0,0.0,0.0,0.321356658824,0.299570744975,0.0908140908197,0.390384835795,0.208756654155,nan,nan,0.0,0.0,0.0,nan,nan,275.476420985,476.611717578,476.880890977,477.111695911,nan,nan
0,175,4801,6,1,432,303,0.199227897075,0.437687328843,-1.0,1,1.0,1.0,0.261089734733,0,0.0,0.0,0.27255304344,0.299397045853,0.0905832327776,0.38998027863,0.208813813075,nan,nan,0.0,0.0,0.0,nan,nan,275.476420985,477.6117669,477.872856635,478.11179541,nan,nan
0,176,4802,6,1,484,340,0.614398947124,0.316112737715,-1.0,1,1.0,1.0,0.252947626635,0,0.0,0.0,0.261070253327,0.299179390676,0.090371407664,0.38955079834,0.208807983012,nan,nan,0.0,0.0,0.0,nan,nan,275.476420985,478.611891203,478.864838829,479.111922278,nan,nan
0,177,4803,6,0,232,163,0.739158239773,0.150046616059,0.623712016981,0,0.0,1.0,0.468776656315,0,0.0,0.0,0.327604672561,0.298918194269,0.0901823567908,0.38910055106,0.208735837478,nan,nan,0.0,0.0,0.0,nan,nan,275.476420985,479.612034037,480.080810693,480.112063972,nan,nan
0,178,4804,6,1,428,300,0.170378320166,0.443486568519,-0.86866140055,1,1.0,1.0,0.228707754053,0,0.0,0.0,0.316810679001,0.299872455292,0.0908204049838,0.390692860276,0.209052050308,nan,nan,0.0,0.0,0.0,nan,nan,275.476420985,480.612139238,480.840846992,481.112181433,nan,nan
0,179,4805,6,1,181,127,1.0,-0.123914391386,0.3392011262,1,1.0,1.0,0.21254612878,0,0.0,0.0,0.303343513049,0.299474887128,0.0907215551868,0.390196442315,0.208753331942,nan,nan,0.0,0.0,0.0,nan,nan,275.476420985,481.612270668,481.824816797,482.112329398,nan,nan
0,180,4806,6,1,376,264,-0.124962824795,0.478704673615,-0.132627625282,1,1.0,1.0,0.244447149336,0,0.0,0.0,0.228567010723,0.298991949582,0.0906996364957,0.389691586078,0.208292313086,nan,nan,0.0,0.0,0.0,nan,nan,275.476420985,482.612400102,482.856847252,483.112452845,nan,nan
0,181,4807,6,0,293,206,0.103830259013,0.378659598285,0.564617056734,0,1.0,0.0,0.252192402259,0,0.0,0.0,0.236395226792,0.298690597095,0.0905390556704,0.389229652765,0.208151541424,nan,nan,0.0,0.0,0.0,nan,nan,275.476420985,483.612554055,483.864746457,484.112574012,nan,nan
0,182,4808,6,1,111,78,1.0,-0.298677811705,-0.336106236365,1,1.0,1.0,0.236161066219,0,0.0,0.0,0.244266872605,0.298435112508,0.090355379908,0.388790492416,0.208079732599,nan,nan,0.0,0.0,0.0,nan,nan,275.476420985,484.612651274,484.84881234,485.112671515,nan,nan
0,183,4809,6,1,364,255,-0.160194321586,0.476704516321,-0.00341124574885,1,1.0,1.0,0.211595612578,0,0.0,0.0,0.233316360352,0.298094817173,0.090225040347,0.38831985752,0.207869776826,nan,nan,0.0,0.0,0.0,nan,nan,275.476420985,485.621130938,485.83272655,486.121130083,nan,nan
0,184,4810,6,1,136,95,1.0,-0.301914900238,-0.074841205769,1,1.0,1.0,0.259529680014,0,0.0,0.0,0.235762119604,0.2976247128,0.0902039821698,0.38782869497,0.20742073063,nan,nan,0.0,0.0,0.0,nan,nan,275.476420985,486.621248398,486.880778078,487.121289738,nan,nan
0,185,4811,6,1,502,352,0.764740937618,0.25241357569,-1.0,1,1.0,1.0,0.259347788058,0,0.0,0.0,0.243491026883,0.297418793704,0.0900032111289,0.387422004833,0.207415582575,nan,nan,0.0,0.0,0.0,nan,nan,275.476420985,487.621377832,487.88072562,488.121411759,nan,nan
0,186,4812,6,1,29,20,1.0,0.0770173926463,-1.0,1,1.0,1.0,0.267192538828,0,0.0,0.0,0.262023335633,0.297214110878,0.0898041040531,0.387018214931,0.207410006825,nan,nan,0.0,0.0,0.0,nan,nan,275.476420985,488.621501565,488.888694104,489.121521807,nan,nan
0,187,4813,6,1,446,313,0.304696255059,0.41359904426,-1.0,1,1.0,1.0,0.243023371324,0,0.0,0.0,0.256521232737,0.297053567712,0.0895904232527,0.386643990964,0.207463144459,nan,nan,0.0,0.0,0.0,nan,nan,275.476420985,489.621633565,489.864656936,490.121655233,nan,nan
0,188,4814,6,1,347,243,-0.174938837379,0.46723881498,0.167157479366,1,1.0,1.0,0.242888235487,0,0.0,0.0,0.251034715213,0.29676617305,0.0894382215956,0.386204394646,0.207327951454,nan,nan,0.0,0.0,0.0,nan,nan,275.476420985,490.621737055,490.864625291,491.121780961,nan,nan
0,189,4815,6,1,58,40,1.0,-0.0760896648475,-1.0,1,1.0,1.0,0.274683769792,0,0.0,0.0,0.253531792201,0.296481104597,0.0892868933989,0.385767997996,0.207194211198,nan,nan,0.0,0.0,0.0,nan,nan,275.476420985,491.621891294,491.896575063,492.121903553,nan,nan
0,190,4816,6,1,379,266,-0.113535935895,0.478614986251,-0.165970515924,1,1.0,1.0,0.250665702857,0,0.0,0.0,0.256079236045,0.296366381782,0.0890655833777,0.38543196516,0.207300798405,nan,nan,0.0,0.0,0.0,nan,nan,275.476420985,492.622005048,492.872670751,493.122042681,nan,nan
0,191,4817,6,1,200,140,1.0,-0.0191209939188,0.47515178387,1,1.0,1.0,0.0568573437631,0,1.0,0.0,0.194068938804,0.296127111212,0.0888933258081,0.38502043702,0.207233785404,nan,nan,0.0,0.0,0.0,nan,nan,275.476420985,493.623714495,493.680571838,494.122203476,nan,nan
0,192,4822,6,1,154,108,1.0,-0.251813147593,0.102138173725,1,1.0,1.0,0.234313348308,1,0.0,0.0,0.180612131643,0.294880914507,0.0903188307673,0.385199745274,0.204562083739,-23.6001898679,162.0,1.0,-0.218739557155,0.176632971453,5.31893986792,2.21726506762,275.476420985,494.622246525,494.856559874,495.122324358,496.45578703,498.681080738
0,193,4823,6,1,397,279,-0.0275613476434,0.473159987783,-0.37569455347,1,1.0,1.0,0.438199060038,0,0.0,0.0,0.243123250703,0.29456709292,0.0901894302186,0.384756523139,0.204377662702,nan,nan,0.0,0.0,0.0,nan,nan,275.476420985,499.906249858,500.344448918,500.406293763,nan,nan
0,194,4824,6,1,178,125,1.0,-0.139919655122,0.315097826042,1,1.0,1.0,0.28568997141,0,0.0,0.0,0.319400793252,0.295307463885,0.0905427942453,0.38585025813,0.204764669639,nan,nan,0.0,0.0,0.0,nan,nan,275.476420985,500.914749194,501.200439165,501.414767725,nan,nan
0,195,4825,6,1,224,157,0.821619416966,0.11002478857,0.597264883709,1,1.0,1.0,0.277585210279,0,0.0,0.0,0.333824747242,0.29525814341,0.090312947484,0.385571090894,0.204945195926,nan,nan,0.0,0.0,0.0,nan,nan,275.476420985,501.914864088,502.192449299,502.414891458,nan,nan
0,196,4826,6,1,3,2,0.871087178923,0.199335109687,-1.0,1,1.0,1.0,0.221502762288,0,0.0,0.0,0.261592647992,0.295167975384,0.0900910620174,0.385259037402,0.205076913367,nan,nan,0.0,0.0,0.0,nan,nan,275.476420985,502.91498554,503.136488303,503.415049402,nan,nan
0,197,4827,6,1,255,179,0.492159363509,0.253017189294,0.656163111527,1,1.0,1.0,0.237349924631,0,0.0,0.0,0.245479299066,0.294794040292,0.0900144746081,0.384808514901,0.204779565684,nan,nan,0.0,0.0,0.0,nan,nan,275.476420985,503.915126379,504.152476303,504.415169143,nan,nan
0,198,4828,6,1,391,274,-0.0591907973189,0.475916278612,-0.303718712187,1,1.0,1.0,0.301138851792,0,0.0,0.0,0.253330512904,0.294503918496,0.0898791689305,0.384383087427,0.204624749566,nan,nan,0.0,0.0,0.0,nan,nan,275.476420985,504.915240703,505.216379555,505.415298862,nan,nan
0,199,4829,6,1,133,93,1.0,-0.306259573676,-0.105336427414,1,1.0,1.0,0.22900910303,0,0.0,0.0,0.255832626484,0.29453725987,0.089654284991,0.384191544861,0.204882974878,nan,nan,0.0,0.0,0.0,nan,nan,275.476420985,505.915375554,506.144384657,506.415388954,nan,nan
0,200,4830,6,1,47,33,1.0,-0.0170755915744,-1.0,1,1.0,1.0,0.196878007613,0,0.0,0.0,0.242341987478,0.294209619085,0.0895492250741,0.383758844159,0.204660394011,nan,nan,0.0,0.0,0.0,nan,nan,275.476420985,506.915516392,507.1123944,507.415514112,nan,nan
0,201,4831,6,1,314,220,-0.0594438881467,0.42463230952,0.441925406839,1,1.0,1.0,0.268713250756,0,0.0,0.0,0.2315334538,0.293725382212,0.0895883080644,0.383313690277,0.204137074148,nan,nan,0.0,0.0,0.0,nan,nan,275.476420985,507.915608194,508.184321444,508.415652384,nan,nan
0,202,4832,6,1,420,295,0.1146601879,0.45369410126,-0.695047497311,1,1.0,1.0,0.284547299147,0,0.0,0.0,0.250046185839,0.293601559779,0.0893835201705,0.38298507995,0.204218039609,nan,nan,0.0,0.0,0.0,nan,nan,275.476420985,508.915762147,509.200309446,509.415784669,nan,nan
0,203,4833,6,1,215,151,0.910639861846,0.0628947364355,0.558695148714,1,1.0,1.0,0.356359449215,0,0.0,0.0,0.303206666373,0.29355695751,0.0891653453515,0.382722302862,0.204391612159,nan,nan,0.0,0.0,0.0,nan,nan,275.476420985,509.91588873,510.27224818,510.415914104,nan,nan
0,204,4834,6,1,143,100,1.0,-0.287057525782,-0.00469998909502,1,1.0,1.0,0.308257459663,0,0.0,0.0,0.316388069342,0.293864812862,0.0890546196588,0.382919432521,0.204810193203,nan,nan,0.0,0.0,0.0,nan,nan,275.476420985,510.916009896,511.224267356,511.416044109,nan,nan
0,205,4835,6,1,365,256,-0.157962026257,0.477016591838,-0.0139196855225,1,1.0,1.0,0.348074221984,0,0.0,0.0,0.337563710287,0.293935020895,0.0888428070698,0.382777827965,0.205092213825,nan,nan,0.0,0.0,0.0,nan,nan,275.476420985,511.916143607,512.264217829,512.416155011,nan,nan
0,206,4836,6,1,318,223,-0.0835627602325,0.431640264478,0.413481556053,1,1.0,1.0,0.27688729018,0,0.0,0.0,0.311072990609,0.294197832551,0.0887067526279,0.382904585179,0.205491079923,nan,nan,0.0,0.0,0.0,nan,nan,275.476420985,512.947336446,513.224223736,513.449631198,nan,nan
0,207,4837,6,1,464,326,0.448404880525,0.373503555275,-1.0,1,1.0,1.0,0.266514291987,0,0.0,0.0,0.297158601383,0.294114206742,0.0885003651129,0.382614571855,0.205613841629,nan,nan,0.0,0.0,0.0,nan,nan,275.476420985,513.949719578,514.21623387,514.449785436,nan,nan
0,208,4838,6,1,97,68,1.0,-0.260369742894,-0.491718830742,1,1.0,1.0,0.250329858623,0,0.0,0.0,0.26457714693,0.293981514844,0.0883080061165,0.382289520961,0.205673508728,nan,nan,0.0,0.0,0.0,nan,nan,275.476420985,514.94984217,515.200172029,515.449879233,nan,nan
0,209,4839,6,0,299,210,0.0516645560415,0.393417669654,0.534378752182,0,1.0,0.0,0.242241918109,0,0.0,0.0,0.253028689573,0.293772655245,0.0881479717877,0.381920627033,0.205624683457,nan,nan,0.0,0.0,0.0,nan,nan,275.476420985,515.95001494,516.192256858,516.450037748,nan,nan
0,210,4840,6,1,377,265,-0.121259861678,0.478700828387,-0.143695900877,1,1.0,1.0,0.170132695697,0,0.0,0.0,0.22090149081,0.293527270783,0.0880093702386,0.381536641021,0.205517900544,nan,nan,0.0,0.0,0.0,nan,nan,275.476420985,516.950118145,517.120250841,517.450174309,nan,nan
0,211,4841,6,1,277,194,0.258470646878,0.33263615818,0.624824240443,1,1.0,1.0,0.225916931406,0,0.0,0.0,0.212763848404,0.29294246237,0.0882086174722,0.381151079842,0.204733844898,nan,nan,0.0,0.0,0.0,nan,nan,275.476420985,517.95021907,518.176136001,518.450310016,nan,nan
0,212,4842,6,1,234,164,0.71814774995,0.15974031316,0.62913160129,1,1.0,1.0,0.2497810442,0,0.0,0.0,0.215276890434,0.292626304205,0.0881200840343,0.380746388239,0.204506220171,nan,nan,0.0,0.0,0.0,nan,nan,275.476420985,518.9503639,519.200144944,519.450418638,nan,nan
0,213,4843,6,0,39,27,1.0,0.0253789930673,-1.0,0,0.0,1.0,0.481567285024,0,0.0,0.0,0.31908842021,0.292425152749,0.0879617589361,0.380386911686,0.204463393813,nan,nan,0.0,0.0,0.0,nan,nan,275.476420985,519.950526405,520.43209369,520.450544937,nan,nan
0,214,4844,6,1,322,226,-0.105067232891,0.43811622051,0.383559350674,1,1.0,1.0,0.217516809702,0,0.0,0.0,0.316288379642,0.293308994489,0.0886989633424,0.382007957831,0.204610031147,nan,nan,0.0,0.0,0.0,nan,nan,275.476420985,520.950649567,521.168166377,521.450658405,nan,nan
0,215,4845,6,1,14,9,0.95801504718,0.150023555696,-1.0,1,1.0,1.0,0.18539882917,0,0.0,0.0,0.294827641298,0.292956472699,0.0886425810286,0.381599053728,0.204313891671,nan,nan,0.0,0.0,0.0,nan,nan,275.476420985,521.950752202,522.136151032,522.450805231,nan,nan
0,216,4846,6,1,200,140,1.0,-0.0191209939188,0.47515178387,1,1.0,1.0,0.169242050499,0,1.0,0.0,0.19071922979,0.292458520646,0.0887380437952,0.381196564441,0.203720476851,nan,nan,0.0,0.0,0.0,nan,nan,275.476420985,522.950866527,523.120108577,523.4509053,nan,nan
0,217,4918,6,1,358,251,-0.170583909915,0.474268316859,0.0585874414746,1,1.0,1.0,0.233032118529,1,0.0,0.0,0.195890999399,0.291890702811,0.0889257823409,0.380816485152,0.20296492047,-148.820684743,340.0,-0.166837174664,0.460980112934,0.232376404312,-12.8980652574,28.8289130814,275.476420985,523.95103616,524.184068278,524.451050985,525.784550721,554.621565998
0,218,4919,6,1,415,291,0.0813077335083,0.459153678902,-0.614968023274,1,1.0,1.0,0.367007567547,0,0.0,0.0,0.256427245525,0.291620709305,0.0888106920142,0.38043140132,0.202810017291,nan,nan,0.0,0.0,0.0,nan,nan,275.476420985,555.888441223,556.25544879,556.388437516,nan,nan
0,219,4920,6,1,479,336,0.572572153349,0.331768222426,-1.0,1,1.0,1.0,0.350895834155,0,0.0,0.0,0.316978506744,0.291964941535,0.0887533428095,0.380718284344,0.203211598725,nan,nan,0.0,0.0,0.0,nan,nan,275.476420985,556.888532739,557.239428573,557.388586623,nan,nan
0,220,4921,6,1,415,291,0.0813077335083,0.459153678902,-0.614968023274,1,1.0,1.0,0.310741231777,0,0.0,0.0,0.342881544493,0.292232809228,0.088640084246,0.380872893474,0.203592724982,nan,nan,0.0,0.0,0.0,nan,nan,275.476420985,557.888677283,558.199418515,558.388707789,nan,nan
0,221,4922,6,1,276,194,0.268710435127,0.329430325417,0.627563005949,1,1.0,1.0,0.278607000597,0,0.0,0.0,0.313414688843,0.292316557747,0.0884480369826,0.380764594729,0.203868520764,nan,nan,0.0,0.0,0.0,nan,nan,275.476420985,558.888785335,559.167392336,559.388830381,nan,nan
0,222,4923,6,1,351,246,-0.175686286722,0.4701852659,0.128489978773,1,1.0,1.0,0.246539482847,0,0.0,0.0,0.278629238407,0.292254802985,0.0882533799651,0.38050818295,0.20400142302,nan,nan,0.0,0.0,0.0,nan,nan,275.476420985,559.888932161,560.135471644,560.388992887,nan,nan
0,223,4924,6,1,463,325,0.440238315199,0.376011795327,-1.0,1,1.0,1.0,0.262393201701,0,0.0,0.0,0.262513228382,0.292049801549,0.0881082404411,0.38015804199,0.203941561108,nan,nan,0.0,0.0,0.0,nan,nan,275.476420985,560.889065302,561.151458504,561.389078416,nan,nan
0,224,4925,6,1,231,162,0.749609680972,0.145151270079,0.620821461523,1,1.0,1.0,0.190258321352,0,0.0,0.0,0.233063668634,0.291917406014,0.0879335793626,0.379850985377,0.203983826652,nan,nan,0.0,0.0,0.0,nan,nan,275.476420985,561.889165941,562.079424262,562.389216973,nan,nan
0,225,4926,6,1,36,25,1.0,0.0410699577143,-1.0,1,1.0,1.0,0.238072932698,0,0.0,0.0,0.23024148525,0.29146558786,0.0879981580385,0.379463745899,0.203467429822,nan,nan,0.0,0.0,0.0,nan,nan,275.476420985,562.889310486,563.127383418,563.389344698,nan,nan
0,226,4927,6,1,325,228,-0.119404900653,0.442631039184,0.360186421743,1,1.0,1.0,0.221961769275,0,0.0,0.0,0.216764341109,0.291229337174,0.0878747404145,0.379104077588,0.203354596759,nan,nan,0.0,0.0,0.0,nan,nan,275.476420985,563.889420249,564.111382018,564.389458736,nan,nan
0,227,4928,6,1,130,91,1.0,-0.309333154106,-0.136071487739,1,1.0,1.0,0.173794207163,0,0.0,0.0,0.211276303045,0.290924193703,0.0878008880791,0.378725081782,0.203123305624,nan,nan,0.0,0.0,0.0,nan,nan,275.476420985,564.889552249,565.063346456,565.389596154,nan,nan
0,228,4929,6,1,494,347,0.698129958021,0.282143999684,-1.0,1,1.0,1.0,0.229646581225,0,0.0,0.0,0.208467519221,0.290410465692,0.0879493808978,0.378359846589,0.202461084794,nan,nan,0.0,0.0,0.0,nan,nan,275.476420985,565.889696223,566.119342804,566.389737277,nan,nan
0,229,4930,6,1,274,192,0.289344050657,0.322900892411,0.632670269059,1,1.0,1.0,0.0934559218585,0,1.0,0.0,0.165632236749,0.290145121218,0.0878485563469,0.377993677565,0.202296564871,nan,nan,0.0,0.0,0.0,nan,nan,275.476420985,566.889817675,566.983273597,567.389888949,nan,nan
0,230,4935,6,1,357,251,-0.1717918326,0.473767524415,0.068739031695,1,1.0,1.0,0.0853243619204,1,0.0,0.0,0.136142288335,0.289289950786,0.0886074858335,0.377897436619,0.200682464952,-160.229177722,356.0,-0.17284377641,0.473239407326,0.0788368070227,-0.786447278337,2.36727128271,275.476420985,567.889935135,567.975259497,568.390020665,569.71514337,572.090464106
0,231,4936,6,1,166,116,1.0,-0.20036215083,0.21267421211,1,1.0,1.0,0.340148787014,0,0.0,0.0,0.172976356931,0.288406982869,0.0894237872779,0.377830770147,0.198983195591,nan,nan,0.0,0.0,0.0,nan,nan,275.476420985,573.298971823,573.63912061,573.79900347,nan,nan
0,232,4937,6,1,473,332,0.522594813828,0.349396171415,-1.0,1,1.0,1.0,0.260062527843,0,0.0,0.0,0.228511892259,0.288630007887,0.08929521569,0.377925223577,0.199334792197,nan,nan,0.0,0.0,0.0,nan,nan,275.476420985,574.299098122,574.55916065,574.799135755,nan,nan
0,233,4938,6,1,321,225,-0.0999433513493,0.43654647086,0.391174984052,1,1.0,1.0,0.243951649405,0,0.0,0.0,0.281387654754,0.288507400676,0.0891229570866,0.377630357763,0.19938444359,nan,nan,0.0,0.0,0.0,nan,nan,275.476420985,575.299228697,575.543180346,575.799259773,nan,nan
0,234,4939,6,1,465,326,0.456588679398,0.37096152752,-1.0,1,1.0,1.0,0.259782276116,0,0.0,0.0,0.254598817788,0.288316991483,0.0889798012216,0.377296792704,0.199337190261,nan,nan,0.0,0.0,0.0,nan,nan,275.476420985,576.299353,576.559135276,576.799382934,nan,nan
0,235,4940,6,1,267,187,0.362924526182,0.298807232282,0.646622522267,1,1.0,1.0,0.267593101598,0,0.0,0.0,0.25710900904,0.288195567162,0.0888097067037,0.377005273866,0.199385860458,nan,nan,0.0,0.0,0.0,nan,nan,275.476420985,577.299475307,577.567068408,577.799506382,nan,nan
0,236,4941,6,1,87,61,1.0,-0.220959007447,-0.612675615602,1,1.0,1.0,0.227441064082,0,0.0,0.0,0.251605480599,0.288108268579,0.0886314547062,0.376739723285,0.199476813873,nan,nan,0.0,0.0,0.0,nan,nan,275.476420985,578.299622702,578.527063766,578.799641519,nan,nan
0,237,4942,6,1,214,150,0.920243657418,0.0575410437433,0.553854850604,1,1.0,1.0,0.203340319917,0,0.0,0.0,0.232791495199,0.287852288813,0.0885316502624,0.376383939076,0.199320638551,nan,nan,0.0,0.0,0.0,nan,nan,275.476420985,579.299724197,579.503064517,579.799769242,nan,nan
0,238,4943,6,0,273,191,0.299732959835,0.319577193062,0.635038033336,0,1.0,0.0,0.171170451678,0,0.0,0.0,0.200650611892,0.287497196507,0.0885144304716,0.376011626979,0.198982766035,nan,nan,0.0,0.0,0.0,nan,nan,275.476420985,580.299881856,580.471052308,580.799923196,nan,nan
0,239,4944,6,1,166,116,1.0,-0.20036215083,0.21267421211,1,1.0,1.0,0.179078780115,0,0.0,0.0,0.18452985057,0.287010473725,0.0886476439118,0.375658117637,0.198362829813,nan,nan,0.0,0.0,0.0,nan,nan,275.476420985,581.299975083,581.479053863,581.800057476,nan,nan
0,240,4945,6,0,213,149,0.929785093221,0.0521668813814,0.548906519778,0,1.0,0.0,0.130886700004,0,0.0,0.0,0.160378643932,0.286560758335,0.0887355493455,0.375296307681,0.19782520899,nan,nan,0.0,0.0,0.0,nan,nan,275.476420985,582.300143005,582.431029705,582.800197174,nan,nan
0,241,4946,6,1,426,299,0.156193047225,0.446210853967,-0.81485970128,1,1.0,1.0,0.218822557479,0,0.0,0.0,0.176262679199,0.285914807886,0.0891149033772,0.375029711263,0.196799904509,nan,nan,0.0,0.0,0.0,nan,nan,275.476420985,583.300239368,583.519061926,583.8002847,nan,nan
0,242,4947,6,1,101,71,1.0,-0.273572672894,-0.446152610616,1,1.0,1.0,0.298562708311,0,0.0,0.0,0.216090655265,0.285637567182,0.0890346779016,0.374672245083,0.19660288928,nan,nan,0.0,0.0,0.0,nan,nan,275.476420985,584.300385053,584.598947762,584.800407576,nan,nan
0,243,4948,6,0,204,143,1.0,0.00303256528985,0.499654420455,0,1.0,0.0,0.274442291819,0,0.0,0.0,0.263942519203,0.285690757063,0.0888551428557,0.374545899918,0.196835614207,nan,nan,0.0,0.0,0.0,nan,nan,275.476420985,585.300501944,585.574944235,585.800562955,nan,nan
0,244,4949,6,1,57,40,1.0,-0.0707313323512,-1.0,1,1.0,1.0,0.202325372025,0,0.0,0.0,0.258443457385,0.285644656795,0.088675787663,0.374320444458,0.196968869132,nan,nan,0.0,0.0,0.0,nan,nan,275.476420985,586.300649339,586.502974711,586.80069353,nan,nan
0,245,4950,6,0,199,139,1.0,-0.0246761787097,0.468786302982,0,0.0,1.0,0.394120370969,0,0.0,0.0,0.290296011604,0.285304578082,0.0886539299083,0.37395850799,0.196650648174,nan,nan,0.0,0.0,0.0,nan,nan,275.476420985,587.30078419,587.694904561,587.800813556,nan,nan
0,246,4951,6,1,246,172,0.589768841079,0.215019897151,0.651339528662,1,1.0,1.0,0.31400560122,0,0.0,0.0,0.303483781405,0.285746918703,0.0887440589731,0.374490977677,0.19700285973,nan,nan,0.0,0.0,0.0,nan,nan,275.476420985,588.300892813,588.614898414,588.800938998,nan,nan
0,247,4952,6,1,20,14,1.0,0.121558187834,-1.0,1,1.0,1.0,0.369836023077,0,0.0,0.0,0.359320665089,0.285861326325,0.088582409511,0.374443735836,0.197278916814,nan,nan,0.0,0.0,0.0,nan,nan,275.476420985,589.30102909,589.670865113,589.801051612,nan,nan
0,248,4953,6,1,289,203,0.140592130943,0.368073254824,0.582505265782,1,1.0,1.0,0.337692668661,0,0.0,0.0,0.340511430986,0.286199933973,0.0885636640905,0.374763598064,0.197636269883,nan,nan,0.0,0.0,0.0,nan,nan,275.476420985,590.301143984,590.638836653,590.80117449,nan,nan
0,249,4954,6,1,365,256,-0.157962026257,0.477016591838,-0.0139196855225,1,1.0,1.0,0.393616602756,0,0.0,0.0,0.367048431498,0.286406732104,0.0884456236466,0.374852355751,0.197961108458,nan,nan,0.0,0.0,0.0,nan,nan,275.476420985,591.301257738,591.694874341,591.801303924,nan,nan
0,250,4955,6,1,78,54,1.0,-0.179467652321,-0.739907630878,1,1.0,1.0,0.369369888678,0,0.0,0.0,0.366893053365,0.286835571587,0.088527564922,0.375363136509,0.198308006665,nan,nan,0.0,0.0,0.0,nan,nan,275.476420985,592.301433928,592.670803817,592.801431078,nan,nan
0,251,4956,6,1,375,263,-0.128556699755,0.478682433309,-0.121605159467,1,1.0,1.0,0.377219201066,0,0.0,1.0,0.380068564167,0.287164393568,0.088503881837,0.375668275405,0.198660511731,nan,nan,0.0,0.0,0.0,nan,nan,275.476420985,593.301559942,593.678779143,593.801563078,nan,nan
0,252,5002,6,1,238,167,0.675741828754,0.178727669763,0.638511091232,1,1.0,1.0,0.401089016348,1,0.0,0.0,0.382559368697,0.287521753915,0.0885093685852,0.3760311225,0.19901238533,-88.7269699799,254.0,0.503011129055,0.248947817922,0.65613358125,11.3832199799,2.15057812072,275.476420985,594.301676547,594.702765564,594.801685099,596.12686397,598.28545277
0,253,5003,6,1,308,216,-0.0186828559465,0.413097475488,0.481682330771,1,1.0,1.0,0.424386640079,0,0.0,0.0,0.400898285831,0.287970636375,0.0886212227376,0.376591859113,0.199349413637,nan,nan,0.0,0.0,0.0,nan,nan,275.476420985,599.502303306,599.926689946,600.002338088,nan,nan
0,254,5004,6,1,3,2,0.871087178923,0.199335109687,-1.0,1,1.0,1.0,0.320225009695,0,0.0,0.0,0.381900222041,0.288507707256,0.0888581880062,0.377365895262,0.199649519249,nan,nan,0.0,0.0,0.0,nan,nan,275.476420985,600.502441294,600.822666303,601.002480351,nan,nan
0,255,5005,6,0,82,57,1.0,-0.198479155091,-0.679872484948,0,0.0,1.0,0.464048024267,0,0.0,0.0,0.402886558014,0.288632088834,0.0887059373406,0.377338026174,0.199926151493,nan,nan,0.0,0.0,0.0,nan,nan,275.476420985,601.502598382,601.966646406,602.002629173,nan,nan
0,256,5006,6,1,400,281,-0.0107874812989,0.471427301814,-0.412692688905,1,1.0,1.0,0.29590987321,0,0.0,0.0,0.360060969057,0.289317307332,0.0892061363375,0.378523443669,0.200111170994,nan,nan,0.0,0.0,0.0,nan,nan,275.476420985,602.502715842,602.798625715,603.002734658,nan,nan
0,257,5007,6,1,348,244,-0.175384772129,0.468017843042,0.157582163916,1,1.0,1.0,0.295803246088,0,0.0,0.0,0.351920381188,0.289342959339,0.0890333604122,0.378376319751,0.200309598927,nan,nan,0.0,0.0,0.0,nan,nan,275.476420985,603.502814772,603.798618018,604.002907143,nan,nan
0,258,5008,6,1,188,132,1.0,-0.0857393506835,0.392804289229,1,1.0,1.0,0.351621693932,0,0.0,0.0,0.314444937743,0.28936799921,0.0888615543036,0.378229553514,0.200506444907,nan,nan,0.0,0.0,0.0,nan,nan,275.476420985,604.50297072,604.854592414,605.00298355,nan,nan
0,259,5009,6,1,465,326,0.456588679398,0.37096152752,-1.0,1,1.0,1.0,0.36747740861,0,0.0,0.0,0.338300782877,0.289608360966,0.0887738335843,0.37838219455,0.200834527381,nan,nan,0.0,0.0,0.0,nan,nan,275.476420985,605.503089606,605.870567014,606.003116975,nan,nan
0,260,5010,6,1,375,263,-0.128556699755,0.478682433309,-0.121605159467,1,1.0,1.0,0.327325372025,0,0.0,0.0,0.348808158189,0.289907857303,0.0887339539376,0.37864181124,0.201173903365,nan,nan,0.0,0.0,0.0,nan,nan,275.476420985,606.503228163,606.830553535,607.003242133,nan,nan
0,261,5011,6,1,62,43,1.0,-0.0974372467467,-1.0,1,1.0,1.0,0.295188575052,0,0.0,0.0,0.329997118562,0.290051219428,0.0885939659024,0.378645185331,0.201457253526,nan,nan,0.0,0.0,0.0,nan,nan,275.476420985,607.503376414,607.798564989,608.003369002,nan,nan
0,262,5012,6,1,137,96,1.0,-0.300190217086,-0.0647316600203,1,1.0,1.0,0.311056263745,0,0.0,0.0,0.311190070274,0.290070827656,0.0884252992408,0.378496126897,0.201645528415,nan,nan,0.0,0.0,0.0,nan,nan,275.476420985,608.503476484,608.814532747,609.003520388,nan,nan
0,263,5013,6,1,280,196,0.228089347314,0.342018854333,0.61587222022,1,1.0,1.0,0.214982574806,0,0.0,0.0,0.273742471201,0.290150620188,0.0882664800165,0.378417100205,0.201884140172,nan,nan,0.0,0.0,0.0,nan,nan,275.476420985,609.503607914,609.718590489,610.003649822,nan,nan
0,264,5014,6,1,336,236,-0.158211608236,0.456758111158,0.268135266647,1,1.0,1.0,0.254760563374,0,0.0,0.0,0.260266467308,0.289865892744,0.088220074669,0.378085967413,0.201645818075,nan,nan,0.0,0.0,0.0,nan,nan,275.476420985,610.503735352,610.758495916,611.003776691,nan,nan
0,265,5015,6,1,22,15,1.0,0.111842423158,-1.0,1,1.0,1.0,0.294618379325,0,0.0,0.0,0.254787172501,0.289733419803,0.088079768078,0.377813187881,0.201653651725,nan,nan,0.0,0.0,0.0,nan,nan,275.476420985,611.503860225,611.798478604,612.003883888,nan,nan
0,266,5016,6,1,171,120,1.0,-0.176011872558,0.256450910142,1,1.0,1.0,0.294508046471,0,0.0,0.0,0.281295663056,0.289751784312,0.0879145570002,0.377666341313,0.201837227312,nan,nan,0.0,0.0,0.0,nan,nan,275.476420985,612.503995362,612.798503408,613.004002774,nan,nan
0,267,5017,6,1,235,165,0.707591924495,0.164537776567,0.631659631194,1,1.0,1.0,0.35833032988,0,0.0,0.0,0.315818918558,0.289769598028,0.0877502495224,0.377519847551,0.202019348506,nan,nan,0.0,0.0,0.0,nan,nan,275.476420985,613.504120519,613.862450849,614.0041362,nan,nan
0,268,5018,6,1,85,59,1.0,-0.212156452387,-0.638781227021,1,1.0,1.0,0.446183224209,0,0.0,0.0,0.36634053352,0.290025421655,0.0876860796288,0.377711501283,0.202339342026,nan,nan,0.0,0.0,0.0,nan,nan,275.476420985,614.50423741,614.950420634,615.004261643,nan,nan
0,269,5019,6,1,495,348,0.706485112283,0.278551693791,-1.0,1,1.0,1.0,0.374019833282,0,0.0,1.0,0.392844462457,0.290605933932,0.0880373784682,0.3786433124,0.202568555463,nan,nan,0.0,0.0,0.0,nan,nan,275.476420985,615.504366559,615.878386392,616.004403907,nan,nan
0,270,5024,6,1,232,163,0.739158239773,0.150046616059,0.623712016981,1,1.0,1.0,0.39786655549,1,0.0,0.0,0.406023204327,0.2909148743,0.0880201603741,0.378935034674,0.202894713926,-32.8423496667,175.0,1.0,-0.155629953633,0.290361762956,-40.2826503333,2.59239079617,275.476420985,616.504498274,616.90236483,617.004534766,618.338024238,620.938354153
0,271,5025,6,1,183,128,1.0,-0.113108999915,0.354902835149,1,1.0,1.0,0.323083401658,0,0.0,0.0,0.364989930143,0.29130952995,0.0880966130117,0.379406142962,0.203212916938,nan,nan,0.0,0.0,0.0,nan,nan,275.476420985,622.155201553,622.478284955,622.655249449,nan,nan
0,272,5026,6,1,429,301,0.177531820842,0.442080780324,-0.901885199234,1,1.0,1.0,0.298953576945,0,0.0,0.0,0.339967844697,0.291426345655,0.0879555463208,0.379381891975,0.203470799334,nan,nan,0.0,0.0,0.0,nan,nan,275.476420985,623.155328422,623.454281999,623.655366625,nan,nan
0,273,5027,6,1,13,9,0.950262168777,0.154664060346,-1.0,1,1.0,1.0,0.266760616563,0,0.0,0.0,0.296265865055,0.29145391793,0.0877954854331,0.379249403364,0.203658432497,nan,nan,0.0,0.0,0.0,nan,nan,275.476420985,624.155481804,624.422242421,624.655519722,nan,nan
0,274,5028,6,1,221,155,0.851781464038,0.0945411604707,0.585422935822,1,1.0,1.0,0.242646757513,0,0.0,0.0,0.26945365034,0.291363796393,0.0876477779495,0.379011574342,0.203716018443,nan,nan,0.0,0.0,0.0,nan,nan,275.476420985,625.155580163,625.398226921,625.655623498,nan,nan
0,275,5029,6,1,437,307,0.23613482661,0.429770237144,-1.0,1,1.0,1.0,0.122530767694,0,0.0,0.0,0.210646047257,0.291186643524,0.0875374030374,0.378724046561,0.203649240487,nan,nan,0.0,0.0,0.0,nan,nan,275.476420985,626.155724708,626.278255476,626.655758919,nan,nan
0,276,5030,6,1,222,156,0.841778467246,0.0997291618919,0.589484691865,1,1.0,1.0,0.178403098136,0,1.0,0.0,0.181193541115,0.29057557151,0.0879643146408,0.378539886151,0.202611256869,nan,nan,0.0,0.0,0.0,nan,nan,275.476420985,627.155869823,627.334272921,627.655918574,nan,nan
0,277,5035,6,1,130,91,1.0,-0.309333154106,-0.136071487739,1,1.0,1.0,0.394198487513,1,0.0,0.0,0.231710784448,0.290170616733,0.0880627471254,0.378233363858,0.202107869607,-10.760469306,143.0,1.0,-0.287057525782,-0.00469998909502,9.35421930603,2.067301617,275.476420985,628.155989849,628.550188337,628.656030618,629.989531779,632.064774796
0,278,5036,6,1,402,282,0.000724920831492,0.470139955471,-0.437811562499,1,1.0,1.0,0.476439515129,0,0.0,0.0,0.349680366926,0.290544817707,0.0881245645743,0.378669382281,0.202420253132,nan,nan,0.0,0.0,0.0,nan,nan,275.476420985,633.281630464,633.758069979,633.781662394,nan,nan
0,279,5037,6,1,185,130,1.0,-0.102214474652,0.370299946716,1,1.0,1.0,0.292357553728,0,0.0,0.0,0.387665185456,0.291211106945,0.0886652111597,0.379876318104,0.202545895785,nan,nan,0.0,0.0,0.0,nan,nan,275.476420985,634.281762749,634.574120303,634.781793539,nan,nan
0,280,5038,6,1,433,304,0.206536295144,0.436163724167,-1.0,1,1.0,1.0,0.220188746229,0,0.0,0.0,0.329661938362,0.291215201397,0.0885067652292,0.379721966627,0.202708436168,nan,nan,0.0,0.0,0.0,nan,nan,275.476420985,635.281896175,635.502084921,635.781932382,nan,nan
0,281,5039,6,1,263,184,0.405698801511,0.284171736334,0.651829885785,1,1.0,1.0,0.196066904813,0,0.0,0.0,0.23620440159,0.290962438212,0.088450321864,0.379412760076,0.202512116348,nan,nan,0.0,0.0,0.0,nan,nan,275.476420985,636.282028745,636.47809565,636.782079493,nan,nan
0,282,5040,6,1,415,291,0.0813077335083,0.459153678902,-0.614968023274,1,1.0,1.0,0.275870631449,0,0.0,0.0,0.23070876083,0.290625929228,0.0884733668122,0.37909929604,0.202152562416,nan,nan,0.0,0.0,0.0,nan,nan,275.476420985,637.282155328,637.55802596,637.7821884,nan,nan
0,283,5041,6,1,71,49,1.0,-0.144504067012,-0.877980773838,1,1.0,1.0,0.241639791988,0,0.0,0.0,0.237859109417,0.290573790367,0.0883212550918,0.378895045458,0.202252535275,nan,nan,0.0,0.0,0.0,nan,nan,275.476420985,638.332348796,638.573988588,638.83234623,nan,nan
0,284,5042,6,1,413,290,0.0683106243366,0.461143133648,-0.585495598612,1,1.0,1.0,0.297601928934,0,0.0,0.0,0.271704117457,0.290401487555,0.088213257629,0.378614745185,0.202188229926,nan,nan,0.0,0.0,0.0,nan,nan,275.476420985,639.332414368,639.630016297,639.83243518,nan,nan
0,285,5043,6,1,481,338,0.589289488337,0.325611856148,-1.0,1,1.0,1.0,0.321381652728,0,0.0,0.0,0.286874457883,0.290426752262,0.0880593908389,0.378486143101,0.202367361423,nan,nan,0.0,0.0,0.0,nan,nan,275.476420985,640.332552926,640.653934578,640.832566611,nan,nan
0,286,5044,6,1,311,218,-0.0397249783266,0.419020224334,0.462250212202,1,1.0,1.0,0.393257379532,0,0.0,0.0,0.337413653731,0.29053498618,0.0879242940652,0.378459280245,0.202610692115,nan,nan,0.0,0.0,0.0,nan,nan,275.476420985,641.332665824,641.725923204,641.832688062,nan,nan
0,287,5045,6,1,389,273,-0.0691208065164,0.476626077068,-0.280234315682,1,1.0,1.0,0.425111074001,0,0.0,1.0,0.379916702087,0.290892903927,0.0879794486054,0.378872352532,0.202913455321,nan,nan,0.0,0.0,0.0,nan,nan,275.476420985,642.332819493,642.757930567,642.832808373,nan,nan
0,288,5052,6,1,141,99,1.0,-0.291952736687,-0.024586852943,1,1.0,1.0,0.360972331837,1,0.0,0.0,0.393113595123,0.291358939239,0.0881807250123,0.379539664252,0.203178214227,-3.30674648024,133.0,1.0,-0.306259573676,-0.105336427414,-5.83387851976,3.83409901056,275.476420985,643.332934102,643.693906434,643.83297145,645.166472896,649.008611665
0,289,5053,6,1,234,164,0.71814774995,0.15974031316,0.62913160129,1,1.0,1.0,0.316658151336,0,0.0,0.0,0.367580519058,0.29159981603,0.0881228941366,0.379722710167,0.203476921894,nan,nan,0.0,0.0,0.0,nan,nan,275.476420985,650.217116818,650.533774969,650.717176688,nan,nan
0,290,5054,6,1,436,306,0.228681708805,0.431413732101,-1.0,1,1.0,1.0,0.308519464917,0,0.0,0.0,0.328716649363,0.291686224083,0.0879830902062,0.379669314289,0.203703133877,nan,nan,0.0,0.0,0.0,nan,nan,275.476420985,651.217275617,651.525795082,651.717295004,nan,nan
0,291,5055,6,1,63,44,1.0,-0.102744642793,-1.0,1,1.0,1.0,0.316398142837,0,0.0,0.0,0.313858586363,0.291744070272,0.0878373103941,0.379581380666,0.203906759878,nan,nan,0.0,0.0,0.0,nan,nan,275.476420985,652.217391937,652.53379008,652.717423297,nan,nan
0,292,5056,6,1,394,277,-0.0437090198531,0.474655926729,-0.339401417396,1,1.0,1.0,0.396229239181,0,0.0,0.0,0.340382282312,0.291828502027,0.0876986030452,0.379527105072,0.204129898982,nan,nan,0.0,0.0,0.0,nan,nan,275.476420985,653.217504551,653.61373379,653.717546745,nan,nan
0,293,5057,6,0,287,201,0.159501648714,0.36255249221,0.590751920292,0,0.0,1.0,0.516045020893,0,0.0,0.0,0.409557467637,0.292184818536,0.0877602895424,0.379945108078,0.204424528994,nan,nan,0.0,0.0,0.0,nan,nan,275.476420985,654.217667341,654.733712362,654.717718089,nan,nan
0,294,5058,6,1,162,113,1.0,-0.218739557155,0.176632971453,1,1.0,1.0,0.331924569793,0,0.0,0.0,0.414732943289,0.292946247796,0.0885750840973,0.381521331893,0.204371163698,nan,nan,0.0,0.0,0.0,nan,nan,275.476420985,655.217784801,655.549709371,655.717814452,nan,nan
0,295,5059,6,1,80,56,1.0,-0.189075709245,-0.708965549488,1,1.0,1.0,0.363785962574,0,0.0,0.0,0.403918517753,0.293078377701,0.0884538478358,0.381532225537,0.204624529865,nan,nan,0.0,0.0,0.0,nan,nan,275.476420985,656.217894279,656.581680242,656.717929062,nan,nan
0,296,5100,6,0,436,306,0.228681708805,0.431413732101,-1.0,0,0.0,1.0,0.475591349415,0,0.0,0.0,0.390433960594,0.293317254677,0.0883995692031,0.38171682388,0.204917685474,nan,nan,0.0,0.0,0.0,nan,nan,275.476420985,657.218058496,657.693649845,657.718088716,nan,nan
0,297,5101,6,1,159,111,1.0,-0.231765974528,0.149055008463,1,1.0,1.0,0.299470744096,0,0.0,0.0,0.379616018695,0.293930972167,0.0888800348379,0.382811007005,0.20505093733,nan,nan,0.0,0.0,0.0,nan,nan,275.476420985,658.218165693,658.517636437,658.718196483,nan,nan
0,298,5102,6,0,228,160,0.780729811514,0.1302769546,0.611433142569,0,0.0,1.0,0.483307236806,0,0.0,0.0,0.419456443439,0.293949562006,0.0887313603103,0.382680922316,0.205218201696,nan,nan,0.0,0.0,0.0,nan,nan,275.476420985,659.218306816,659.701614053,659.718340457,nan,nan
0,299,5103,6,1,502,352,0.764740937618,0.25241357569,-1.0,1,1.0,1.0,0.363179273903,0,0.0,0.0,0.381985751602,0.294582865266,0.0892549276404,0.383837792907,0.205327937626,nan,nan,0.0,0.0,0.0,nan,nan,275.476420985,660.21841943,660.581598704,660.718443378,nan,nan
0,300,5104,6,1,159,111,1.0,-0.231765974528,0.149055008463,1,1.0,1.0,0.419057021849,0,0.0,0.0,0.421847844186,0.294811519962,0.0891937212422,0.384005241204,0.20561779872,nan,nan,0.0,0.0,0.0,nan,nan,275.476420985,661.218526056,661.637583078,661.718567681,nan,nan
0,301,5105,6,1,470,330,0.497741612616,0.357740777197,-1.0,1,1.0,1.0,0.410868727602,0,0.0,1.0,0.397701674451,0.295224295716,0.0893319917902,0.384556287506,0.205892303925,nan,nan,0.0,0.0,0.0,nan,nan,275.476420985,662.218681719,662.629550447,662.718695119,nan,nan
0,302,5110,6,1,401,281,-0.00506340639596,0.470796889516,-0.425203102762,1,1.0,1.0,0.426705340855,1,0.0,0.0,0.418877030102,0.295607224298,0.0894310749248,0.385038299223,0.206176149373,162.969843227,408.0,0.036737934283,0.465637664749,-0.515938449969,5.07703177289,1.69217275269,275.476420985,663.218830256,663.645535597,663.718815145,665.04399145,666.744201681
0,303,5111,6,1,298,209,0.0600896634305,0.391050340636,0.53969689008,1,1.0,1.0,0.444736353122,0,0.0,0.0,0.427436807193,0.296039891349,0.0895994198125,0.385639311162,0.206440471537,nan,nan,0.0,0.0,0.0,nan,nan,275.476420985,667.952720803,668.397457156,668.452763853,nan,nan
0,304,5112,6,1,158,111,1.0,-0.235949227405,0.139764106,1,1.0,1.0,0.340571016073,0,0.0,0.0,0.404004236683,0.296529024447,0.0898562243893,0.386385248837,0.206672800058,nan,nan,0.0,0.0,0.0,nan,nan,275.476420985,668.952875041,669.293446057,669.452910963,nan,nan
0,305,5113,6,1,79,55,1.0,-0.184296021705,-0.724170777997,1,1.0,1.0,0.275073783472,0,0.0,0.0,0.353460384222,0.29667342442,0.0897441211383,0.386417545558,0.206929303282,nan,nan,0.0,0.0,0.0,nan,nan,275.476420985,669.98634524,670.261419023,670.486349802,nan,nan
0,306,5114,6,0,385,270,-0.0879796604702,0.477733444059,-0.233926720364,0,0.0,1.0,0.450934379362,0,0.0,0.0,0.355526392969,0.296602837358,0.0896058405815,0.386208677939,0.206996996776,nan,nan,0.0,0.0,0.0,nan,nan,275.476420985,670.986475245,671.437409624,671.486510882,nan,nan
0,307,5115,6,1,141,99,1.0,-0.291952736687,-0.024586852943,1,1.0,1.0,0.362814919092,0,0.0,0.0,0.362941027309,0.297105545964,0.089890956036,0.386996502,0.207214589928,nan,nan,0.0,0.0,0.0,nan,nan,275.476420985,671.986584722,672.349399641,672.486624351,nan,nan
0,308,5116,6,1,64,45,1.0,-0.108036866323,-1.0,1,1.0,1.0,0.32271762006,0,0.0,0.0,0.378822306171,0.297318888084,0.0898227255559,0.38714161364,0.207496162528,nan,nan,0.0,0.0,0.0,nan,nan,275.476420985,672.986714157,673.309431777,673.486737249,nan,nan
0,309,5117,6,1,6,4,0.895129075663,0.186272780825,-1.0,1,1.0,1.0,0.330504782498,0,0.0,0.0,0.338679107216,0.297401084628,0.0896888651435,0.387089949771,0.207712219484,nan,nan,0.0,0.0,0.0,nan,nan,275.476420985,673.986842451,674.317347233,674.48687096,nan,nan
0,310,5118,6,0,110,77,1.0,-0.296722754836,-0.346921960777,0,0.0,1.0,0.386373692192,0,0.0,0.0,0.346532031583,0.29750787075,0.0895637619654,0.387071632715,0.207944108785,nan,nan,0.0,0.0,0.0,nan,nan,275.476420985,674.986982434,675.373356126,675.487027479,nan,nan
0,311,5119,6,1,263,184,0.405698801511,0.284171736334,0.651829885785,1,1.0,1.0,0.322221265174,0,0.0,0.0,0.346366579955,0.297793612941,0.0895610706746,0.387354683616,0.208232542267,nan,nan,0.0,0.0,0.0,nan,nan,275.476420985,675.987099609,676.309320875,676.487128404,nan,nan
0,312,5120,6,1,14,9,0.95801504718,0.150023555696,-1.0,1,1.0,1.0,0.290095017292,0,0.0,0.0,0.332896658219,0.297871906698,0.0894280876215,0.38729999432,0.208443819077,nan,nan,0.0,0.0,0.0,nan,nan,275.476420985,676.987222201,677.277317218,677.487277796,nan,nan
0,313,5121,6,0,266,187,0.373577590308,0.295207490188,0.648113769863,0,1.0,0.0,0.289917971008,0,0.0,0.0,0.300744751158,0.297847060406,0.0892861955804,0.387133255987,0.208560864826,nan,nan,0.0,0.0,0.0,nan,nan,275.476420985,677.987369597,678.277287568,678.487403808,nan,nan
0,314,5122,6,1,85,59,1.0,-0.212156452387,-0.638781227021,1,1.0,1.0,0.313795484602,0,0.0,0.0,0.297936157634,0.297821808529,0.0891450261887,0.386966834718,0.208676782341,nan,nan,0.0,0.0,0.0,nan,nan,275.476420985,678.987475653,679.301271138,679.487522694,nan,nan
0,315,5123,6,0,349,245,-0.175656888649,0.468768509344,0.147945183432,0,0.0,1.0,0.433622954413,0,0.0,0.0,0.345778803341,0.297872518612,0.089007949641,0.386880468253,0.208864568971,nan,nan,0.0,0.0,0.0,nan,nan,275.476420985,679.98762647,680.421249424,680.487658401,nan,nan
0,316,5124,6,1,480,337,0.580928072941,0.32870764083,-1.0,1,1.0,1.0,0.305523370393,0,0.0,0.0,0.350980603136,0.298302108599,0.0891934787178,0.387495587317,0.209108629881,nan,nan,0.0,0.0,0.0,nan,nan,275.476420985,680.987725969,681.29324934,681.487773011,nan,nan
0,317,5125,6,1,248,174,0.568115903494,0.223728204869,0.653295769881,1,1.0,1.0,0.441363360733,0,0.0,0.0,0.393503228513,0.298324888604,0.0890536045672,0.387378493172,0.209271284037,nan,nan,0.0,0.0,0.0,nan,nan,275.476420985,681.987842289,682.42920565,682.487887049,nan,nan
0,318,5126,6,1,141,99,1.0,-0.291952736687,-0.024586852943,1,1.0,1.0,0.433234081604,0,0.0,1.0,0.393373604243,0.298774695121,0.0892734169738,0.388048112094,0.209501278147,nan,nan,0.0,0.0,0.0,nan,nan,275.476420985,682.98799339,683.421227472,683.488027887,nan,nan
0,319,5131,6,1,462,324,0.432089675478,0.378486360879,-1.0,1,1.0,1.0,0.425059186295,1,0.0,0.0,0.43321887621,0.299196197899,0.0894497445404,0.38864594244,0.209746453359,-13.6646003806,147.0,1.0,-0.275801134503,0.0346720467303,138.820850381,1.60063839145,275.476420985,683.98812083,684.413180016,684.488138505,685.821644798,687.430214611
0,320,5132,6,1,407,286,0.0305886347219,0.46645515455,-0.502577406972,1,1.0,1.0,0.422085900791,0,0.0,0.0,0.42679305623,0.299589519738,0.0895857289461,0.389175248684,0.210003790792,nan,nan,0.0,0.0,0.0,nan,nan,275.476420985,688.64701611,689.069102011,689.147085958,nan,nan
0,321,5133,6,1,324,227,-0.114799643766,0.441158325109,0.368064040095,1,1.0,1.0,0.333915693685,0,0.0,0.0,0.393686926924,0.299971128402,0.0897061926956,0.389677321097,0.210264935706,nan,nan,0.0,0.0,0.0,nan,nan,275.476420985,689.647174339,689.981090032,690.14720798,nan,nan
0,322,5134,6,1,125,87,1.0,-0.311567427947,-0.187805059354,1,1.0,1.0,0.381725457497,0,0.0,0.0,0.379242350658,0.300076546307,0.0895867007567,0.389663247063,0.21048984555,nan,nan,0.0,0.0,0.0,nan,nan,275.476420985,690.64733884,691.029064298,691.147370772,nan,nan
0,323,5135,6,1,469,329,0.489482198204,0.360453357602,-1.0,1,1.0,1.0,0.293619682081,0,0.0,0.0,0.336420277754,0.300329329313,0.0895628544868,0.3898921838,0.210766474827,nan,nan,0.0,0.0,0.0,nan,nan,275.476420985,691.647440335,691.941060017,692.147482244,nan,nan
0,324,5136,6,1,22,15,1.0,0.111842423158,-1.0,1,1.0,1.0,0.373481854796,0,0.0,0.0,0.349608998125,0.300308620526,0.0894253078968,0.389733928422,0.210883312629,nan,nan,0.0,0.0,0.0,nan,nan,275.476420985,692.647546106,693.021027961,693.147586591,nan,nan
0,325,5137,6,1,398,279,-0.0220377755791,0.472608796233,-0.387943383198,1,1.0,1.0,0.197353836149,0,0.0,0.0,0.288151791009,0.300533768939,0.0893795504357,0.389913319374,0.211154218503,nan,nan,0.0,0.0,0.0,nan,nan,275.476420985,693.647710893,693.845064729,694.147713459,nan,nan
0,326,5138,6,1,81,56,1.0,-0.193804253699,-0.694219169772,1,1.0,1.0,0.293258462101,0,0.0,0.0,0.288031384349,0.300217266077,0.0894245792771,0.389641845354,0.2107926868,nan,nan,0.0,0.0,0.0,nan,nan,275.476420985,694.647823222,694.941081684,695.147846314,nan,nan
0,327,5139,6,1,502,352,0.764740937618,0.25241357569,-1.0,1,1.0,1.0,0.301032225601,0,0.0,0.0,0.263881507951,0.300195985331,0.0892885664861,0.389484551817,0.210907418845,nan,nan,0.0,0.0,0.0,nan,nan,275.476420985,695.64793498,695.948967205,696.147982591,nan,nan
0,328,5140,6,1,92,64,1.0,-0.241703663401,-0.55060883727,1,1.0,1.0,0.372878871858,0,0.0,0.0,0.322389853187,0.300198534844,0.0891523638858,0.38935089873,0.211046170959,nan,nan,0.0,0.0,0.0,nan,nan,275.476420985,696.648070117,697.020948988,697.148097485,nan,nan
0,329,5141,6,1,344,241,-0.172543464245,0.464730234515,0.195503824632,1,1.0,1.0,0.276763843372,0,0.0,0.0,0.316891646944,0.300419447723,0.0891066367563,0.389526084479,0.211312810966,nan,nan,0.0,0.0,0.0,nan,nan,275.476420985,697.648181019,697.924944863,698.148262843,nan,nan
0,330,5142,6,1,97,68,1.0,-0.260369742894,-0.491718830742,1,1.0,1.0,0.24459197931,0,0.0,0.0,0.298078231514,0.300347764073,0.0889810244465,0.38932878852,0.211366739627,nan,nan,0.0,0.0,0.0,nan,nan,275.476420985,698.648322143,698.892914122,699.148382584,nan,nan
0,331,5143,6,1,193,135,1.0,-0.0580453890011,0.428658791268,1,1.0,1.0,0.236455287784,0,0.0,0.0,0.252603703489,0.300179317594,0.0888991894939,0.389078507088,0.2112801281,nan,nan,0.0,0.0,0.0,nan,nan,275.476420985,699.648456424,699.884911711,700.148484933,nan,nan
0,332,5144,6,0,488,343,0.647907709101,0.302951493728,-1.0,0,1.0,0.0,0.124337432906,0,0.0,0.0,0.2017949,0.299987377745,0.088833866386,0.388821244131,0.211153511359,nan,nan,0.0,0.0,0.0,nan,nan,275.476420985,700.64859213,700.772929563,701.148653711,nan,nan
0,333,5145,6,1,152,106,1.0,-0.259184487343,0.0830625546756,1,1.0,1.0,0.260181413032,0,0.0,0.0,0.206991377907,0.299459900433,0.0892195655671,0.388679466,0.210240334866,nan,nan,0.0,0.0,0.0,nan,nan,275.476420985,701.648715863,701.908897276,702.148732684,nan,nan
0,334,5146,6,1,51,35,1.0,-0.0385160204876,-1.0,1,1.0,1.0,0.220092953183,0,0.0,0.0,0.201537266374,0.299342300171,0.0891117471682,0.388454047339,0.210230553003,nan,nan,0.0,0.0,0.0,nan,nan,275.476420985,702.648840451,702.868933404,703.148868675,nan,nan
0,335,5147,6,1,386,271,-0.0833946583454,0.477495592553,-0.245424736514,1,1.0,1.0,0.283862208948,0,0.0,0.0,0.254712191721,0.299105734956,0.0890836178518,0.388189352808,0.210022117105,nan,nan,0.0,0.0,0.0,nan,nan,275.476420985,703.648954489,703.932816698,704.148991552,nan,nan
0,336,5148,6,1,262,184,0.416452475899,0.2804144186,0.652815538838,1,1.0,1.0,0.291708671488,0,0.0,0.0,0.265221277873,0.299060367319,0.088954829835,0.388015197154,0.210105537484,nan,nan,0.0,0.0,0.0,nan,nan,275.476420985,704.649099889,704.940808561,705.149141514,nan,nan
0,337,5149,6,1,321,225,-0.0999433513493,0.43654647086,0.391174984052,1,1.0,1.0,0.307543004863,0,0.0,0.0,0.294371295099,0.299038552198,0.0888236514367,0.387862203635,0.210214900762,nan,nan,0.0,0.0,0.0,nan,nan,275.476420985,705.649242723,705.956785728,706.149267242,nan,nan
0,338,5150,6,0,65,45,1.0,-0.113312155659,-1.0,0,0.0,1.0,0.443408082239,0,0.0,0.0,0.347553252863,0.299063713301,0.0886933609103,0.387757074211,0.210370352391,nan,nan,0.0,0.0,0.0,nan,nan,275.476420985,706.649369307,707.092777389,707.149402378,nan,nan
0,339,5151,6,1,510,358,0.830554458933,0.220436700166,-1.0,1,1.0,1.0,0.41127328109,0,0.0,0.0,0.387408122731,0.299489507899,0.0889077441521,0.388397252052,0.210581763747,nan,nan,0.0,0.0,0.0,nan,nan,275.476420985,707.649489048,708.060762329,708.149522975,nan,nan
0,340,5152,6,1,45,31,1.0,-0.0063957592436,-1.0,1,1.0,1.0,0.427121869288,0,0.0,0.0,0.427267744206,0.299818283703,0.0889830427179,0.388801326421,0.210835240985,nan,nan,0.0,0.0,0.0,nan,nan,275.476420985,708.649620478,709.076742347,709.149632737,nan,nan
0,341,5153,6,1,452,317,0.351738073422,0.401406211611,-1.0,1,1.0,1.0,0.315067021176,0,0.0,0.0,0.384487390518,0.300191608001,0.0891187306562,0.389310338657,0.211072877345,nan,nan,0.0,0.0,0.0,nan,nan,275.476420985,709.649739934,709.964806955,710.149779278,nan,nan
0,342,5154,6,1,83,58,1.0,-0.203097876184,-0.665876706514,1,1.0,1.0,0.306844798848,0,0.0,0.0,0.349677896438,0.300235103361,0.0889919694015,0.389227072763,0.21124313396,nan,nan,0.0,0.0,0.0,nan,nan,275.476420985,710.649867659,710.956712457,711.149908997,nan,nan
0,343,5155,6,1,510,358,0.830554458933,0.220436700166,-1.0,1,1.0,1.0,0.370690746233,0,0.0,0.0,0.330867522086,0.30025437361,0.0888628633903,0.389117237001,0.21139151022,nan,nan,0.0,0.0,0.0,nan,nan,275.476420985,711.64999139,712.020682137,712.15003387,nan,nan
0,344,5156,6,1,354,248,-0.174470673547,0.472100788149,0.0988677247603,1,1.0,1.0,0.346533552743,0,0.0,0.0,0.341356365941,0.300459130507,0.0888146026305,0.389273733138,0.211644527877,nan,nan,0.0,0.0,0.0,nan,nan,275.476420985,712.65012225,712.996655803,713.15016359,nan,nan
0,345,5157,6,1,163,114,1.0,-0.214247802105,0.185723682048,1,1.0,1.0,0.46639010217,0,0.0,1.0,0.394538133716,0.300592679557,0.0887203760968,0.389313055654,0.211872303461,nan,nan,0.0,0.0,0.0,nan,nan,275.476420985,713.650253396,714.116643498,714.150286467,nan,nan
0,346,5202,6,1,259,182,0.44882283482,0.268906983076,0.655011783756,1,1.0,1.0,0.650230302475,1,0.0,0.0,0.487717985796,0.30107186286,0.0890380448898,0.39010990775,0.21203381797,-93.7313969992,261.0,0.427225806086,0.276617811781,0.653674462902,1.62202199916,1.80048654787,275.476420985,714.650380549,715.300610851,715.150443556,716.475584793,718.284122788
0,347,5203,6,1,351,246,-0.175686286722,0.4701852659,0.128489978773,1,1.0,1.0,0.343581649475,0,0.0,0.0,0.48673401804,0.302078083147,0.090858376909,0.392936460056,0.211219706238,nan,nan,0.0,0.0,0.0,nan,nan,275.476420985,719.50098872,719.844570369,720.001014379,nan,nan
0,348,5204,6,1,104,73,1.0,-0.282351481576,-0.412644567278,1,nan,nan,nan,0,0.0,0.0,0.496905975975,0.302197346268,0.0907549354489,0.392952281717,0.21144241082,nan,nan,0.0,0.0,0.0,nan,nan,275.476420985,720.50112129,nan,721.001184867,nan,nan
0,349,5205,6,1,6,4,0.895129075663,0.186272780825,-1.0,1,1.0,1.0,0.215353202075,0,0.0,0.0,0.279467425775,0.302197346268,0.0907549354489,0.392952281717,0.21144241082,nan,nan,0.0,0.0,0.0,nan,nan,275.476420985,721.501259278,721.71661248,722.001284936,nan,nan
0,350,5206,6,1,108,75,1.0,-0.292426609412,-0.368663285579,1,1.0,1.0,0.263135312125,0,0.0,0.0,0.2392442571,0.301948509179,0.090743629338,0.392692138517,0.211204879841,nan,nan,0.0,0.0,0.0,nan,nan,275.476420985,722.501391278,722.76452659,723.001417222,nan,nan
0,351,5207,6,1,177,124,1.0,-0.145192147526,0.306921212481,1,1.0,1.0,0.302948081866,0,0.0,0.0,0.260478865355,0.30183761433,0.0906375820305,0.392475196361,0.2112000323,nan,nan,0.0,0.0,0.0,nan,nan,275.476420985,723.501514155,723.804462237,724.001526129,nan,nan
0,352,5208,6,1,499,350,0.739831889234,0.263827757734,-1.0,1,1.0,1.0,0.334806623869,0,0.0,0.0,0.30029667262,0.301840778056,0.0905083959264,0.392349173982,0.211332382129,nan,nan,0.0,0.0,0.0,nan,nan,275.476420985,724.501643875,724.836450499,725.00166041,nan,nan
0,353,5209,6,1,26,18,1.0,0.0920921692153,-1.0,1,1.0,1.0,0.430666775443,0,0.0,0.0,0.356140493726,0.301934431027,0.0903967711735,0.3923312022,0.211537659853,nan,nan,0.0,0.0,0.0,nan,nan,275.476420985,725.501772454,725.932439229,726.001785568,nan,nan
0,354,5210,6,1,104,73,1.0,-0.282351481576,-0.412644567278,1,1.0,1.0,0.446521350183,0,0.0,1.0,0.403998249831,0.302299111889,0.0905275677772,0.392826679666,0.211771544112,nan,nan,0.0,0.0,0.0,nan,nan,275.476420985,726.501900462,726.948421813,727.001928687,nan,nan
0,355,5215,6,1,415,291,0.0813077335083,0.459153678902,-0.614968023274,1,1.0,1.0,0.598367871717,1,0.0,0.0,0.491851999114,0.302706519342,0.0907231027059,0.393429622048,0.211983416636,-173.349799683,375.0,-0.128556699755,0.478682433309,-0.121605159467,-28.4470753167,2.53395572118,275.476420985,727.502021344,728.100389216,728.002083495,729.327213899,731.869193413
0,356,5216,6,1,326,229,-0.12383419111,0.444071765824,0.352223541474,1,1.0,1.0,0.31025770586,0,0.0,0.0,0.451715642586,0.303539368222,0.0919404368902,0.395479805112,0.211598931331,nan,nan,0.0,0.0,0.0,nan,nan,275.476420985,733.086065901,733.396323607,733.586096692,nan,nan
0,357,5217,6,1,381,267,-0.105403061426,0.478425078289,-0.188431136224,1,1.0,1.0,0.446117651649,0,0.0,0.0,0.451581076408,0.303558239957,0.0918119047873,0.395370144744,0.211746335169,nan,nan,0.0,0.0,0.0,nan,nan,275.476420985,734.086169677,734.532287329,734.586220995,nan,nan
0,358,5218,6,1,140,98,1.0,-0.294209249228,-0.0345777392028,1,1.0,1.0,0.293987458572,0,0.0,0.0,0.350120938693,0.30395756604,0.0919922945344,0.395949860574,0.211965271505,nan,nan,0.0,0.0,0.0,nan,nan,275.476420985,735.086320493,735.380307952,735.586349004,nan,nan
0,359,5219,6,1,460,323,0.415848916989,0.383334931935,-1.0,1,1.0,1.0,0.237858824432,0,0.0,0.0,0.325987978218,0.303929716578,0.0918652308674,0.395794947445,0.21206448571,nan,nan,0.0,0.0,0.0,nan,nan,275.476420985,736.086455345,736.32431417,736.586468745,nan,nan
0,360,5220,6,1,4,2,0.879126049628,0.195014037372,-1.0,1,1.0,1.0,0.317705886438,0,0.0,0.0,0.283184056481,0.303745675095,0.0918032623472,0.395548937443,0.211942412748,nan,nan,0.0,0.0,0.0,nan,nan,275.476420985,737.086555129,737.404261015,737.586595898,nan,nan
0,361,5221,6,1,248,174,0.568115903494,0.223728204869,0.653295769881,1,1.0,1.0,0.413528975099,0,0.0,0.0,0.323031228657,0.30378445346,0.0916786134503,0.39546306691,0.21210584001,nan,nan,0.0,0.0,0.0,nan,nan,275.476420985,738.086700814,738.500229789,738.58671963,nan,nan
0,362,5222,6,0,448,315,0.32026743599,0.409662251776,-1.0,0,0.0,1.0,0.461358982138,0,0.0,0.0,0.397531281225,0.304088454905,0.0917330680843,0.395821522989,0.212355386821,nan,nan,0.0,0.0,0.0,nan,nan,275.476420985,739.086853056,739.548212038,739.586879285,nan,nan
0,363,5223,6,1,58,40,1.0,-0.0760896648475,-1.0,1,1.0,1.0,0.333238300867,0,0.0,0.0,0.402708752702,0.304522903875,0.0919774283108,0.396500332186,0.212545475565,nan,nan,0.0,0.0,0.0,nan,nan,275.476420985,740.08693659,740.420174891,740.586976219,nan,nan
0,364,5224,6,1,125,87,1.0,-0.311567427947,-0.187805059354,1,1.0,1.0,0.373083856888,0,0.0,0.0,0.389227046631,0.304602009652,0.0918629808476,0.3964649905,0.212739028805,nan,nan,0.0,0.0,0.0,nan,nan,275.476420985,741.08706745,741.460151307,741.587102802,nan,nan
0,365,5225,6,1,403,283,0.00657627305109,0.469456436931,-0.450524507496,1,1.0,1.0,0.604933104478,0,0.0,1.0,0.437085087411,0.304790146595,0.0918067115395,0.396596858135,0.212983435056,nan,nan,0.0,0.0,0.0,nan,nan,275.476420985,742.087195174,742.692128278,742.587283839,nan,nan
0,366,5230,6,1,12,8,0.942476689623,0.159273951266,-1.0,1,1.0,1.0,0.292784915306,1,0.0,0.0,0.423600625557,0.305612456069,0.0930135193595,0.398625975428,0.212598936709,77.2186660045,18.0,0.988682696815,0.131162580546,-1.0,4.34383399546,2.25058730133,275.476420985,743.087349127,743.380134042,743.587385904,744.912556222,747.171156768
0,367,5231,6,1,416,292,0.087881616042,0.458117504295,-0.630165317015,1,1.0,1.0,0.456018528901,0,0.0,0.0,0.451245516228,0.305577408143,0.0928887781998,0.398466186343,0.212688629943,nan,nan,0.0,0.0,0.0,nan,nan,275.476420985,748.388021559,748.844040087,748.888038949,nan,nan
0,368,5232,6,1,224,157,0.821619416966,0.11002478857,0.597264883709,1,1.0,1.0,0.431888134219,0,0.0,0.0,0.393563859475,0.305987329453,0.0930930484978,0.399080377951,0.212894280955,nan,nan,0.0,0.0,0.0,nan,nan,275.476420985,749.388143865,749.820032,749.888160971,nan,nan
0,369,5233,6,0,172,120,1.0,-0.170984061773,0.265024678188,0,0.0,1.0,0.543696943671,0,0.0,0.0,0.477201202263,0.306329451205,0.0931972224069,0.399526673612,0.213132228798,nan,nan,0.0,0.0,0.0,nan,nan,275.476420985,750.388292116,750.93198906,750.888340298,nan,nan
0,370,5235,6,1,232,163,0.739158239773,0.150046616059,0.623712016981,1,1.0,1.0,0.471563202329,0,0.0,0.0,0.482382760073,0.306972723543,0.0938853655477,0.40085808909,0.213087357995,nan,nan,0.0,0.0,0.0,nan,nan,275.476420985,751.388418415,751.859981617,751.888425542,nan,nan
0,371,5236,6,1,448,315,0.32026743599,0.409662251776,-1.0,1,1.0,1.0,0.670750503428,0,0.0,0.0,0.562003549809,0.307417562674,0.0941469988792,0.401564561554,0.213270563795,nan,nan,0.0,0.0,0.0,nan,nan,275.476420985,752.40519357,753.075944073,752.905265985,nan,nan
0,372,5236,6,1,74,52,1.0,-0.159715158178,-0.810443278181,1,1.0,1.0,0.614602481946,0,0.0,1.0,0.585638729235,0.308396896747,0.0958886404706,0.404285537217,0.212508256276,nan,nan,0.0,0.0,0.0,nan,nan,275.476420985,753.40532329,754.019925772,753.90539656,nan,nan
0,373,5242,6,1,227,159,0.791019951953,0.125257787881,0.608066708266,1,1.0,1.0,0.430464355275,1,0.0,0.0,0.57193911355,0.30922003004,0.0970633045169,0.406283334557,0.212156725523,-46.7788003157,195.0,1.0,-0.0469245268387,0.442396054288,-22.8305746843,2.14220194705,275.476420985,754.405459567,754.835923922,754.90549834,756.239005203,758.389256602
0,374,5243,6,1,3,2,0.871087178923,0.199335109687,-1.0,1,1.0,1.0,0.397643324919,0,0.0,0.0,0.48090338738,0.30954508185,0.0971356370006,0.406680718851,0.21240944485,nan,nan,0.0,0.0,0.0,nan,nan,275.476420985,759.606194663,760.003837988,760.106158741,nan,nan
0,375,5244,6,1,378,265,-0.117450136118,0.478670924818,-0.154810124165,1,1.0,1.0,0.309589151293,0,0.0,0.0,0.379232277162,0.30978063865,0.0971123085316,0.406892947182,0.212668330118,nan,nan,0.0,0.0,0.0,nan,nan,275.476420985,760.606250257,760.915839409,761.106290171,nan,nan
0,376,5245,6,1,233,163,0.728670395113,0.154909781369,0.626482233315,1,1.0,1.0,0.237442295998,0,0.0,0.0,0.314891590737,0.309780128017,0.0969827395189,0.406762867536,0.212797388498,nan,nan,0.0,0.0,0.0,nan,nan,275.476420985,761.606382257,761.843824553,762.106424737,nan,nan
0,377,5246,6,1,169,118,1.0,-0.185917379452,0.239118302078,1,1.0,1.0,0.237350209616,0,0.0,0.0,0.261460552302,0.309587740166,0.0969253147546,0.406513054921,0.212662425411,nan,nan,0.0,0.0,0.0,nan,nan,275.476420985,762.606482612,762.843832822,763.106547044,nan,nan
0,378,5247,6,1,245,172,0.600577697281,0.210610106048,0.650172825369,1,1.0,1.0,0.301167931408,0,0.0,0.0,0.258653479007,0.309396128679,0.0968679633505,0.40626409203,0.212528165329,nan,nan,0.0,0.0,0.0,nan,nan,275.476420985,763.606613472,763.907781404,764.106655381,nan,nan
0,379,5248,6,0,155,108,1.0,-0.2479831371,0.111611878621,0,1.0,0.0,0.244986554608,0,0.0,0.0,0.261168231877,0.309374360961,0.096740669541,0.406115030502,0.21263369142,nan,nan,0.0,0.0,0.0,nan,nan,275.476420985,764.606780539,764.851767094,765.106807623,nan,nan
0,380,5249,6,1,8,5,0.91102658764,0.177400941622,-1.0,1,1.0,1.0,0.124874841422,0,0.0,0.0,0.223676442479,0.30920447229,0.0966694044118,0.405873876702,0.212535067879,nan,nan,0.0,0.0,0.0,nan,nan,275.476420985,765.606902846,765.731777688,766.106948461,nan,nan
0,381,5250,6,1,151,106,1.0,-0.262720288689,0.0734626651272,1,1.0,1.0,0.268731782213,0,0.0,0.0,0.212864392747,0.308719394314,0.0970028899402,0.405722284255,0.211716504374,nan,nan,0.0,0.0,0.0,nan,nan,275.476420985,766.607023442,766.875755224,767.107070198,nan,nan
0,382,5251,6,1,322,226,-0.105067232891,0.43811622051,0.383559350674,1,1.0,1.0,0.316585452296,0,0.0,0.0,0.236730691977,0.308614439952,0.0968971078313,0.405511547783,0.211717332121,nan,nan,0.0,0.0,0.0,nan,nan,275.476420985,767.607150311,767.923735763,768.107200773,nan,nan
0,383,5252,6,1,58,40,1.0,-0.0760896648475,-1.0,1,1.0,1.0,0.282668504864,0,0.0,0.0,0.289328579791,0.308635306476,0.0967710531841,0.40540635966,0.211864253292,nan,nan,0.0,0.0,0.0,nan,nan,275.476420985,768.649005807,768.931674312,769.148970455,nan,nan
0,384,5253,6,1,136,95,1.0,-0.301914900238,-0.074841205769,1,1.0,1.0,0.200566032901,0,0.0,0.0,0.266606663354,0.308567508039,0.0966537215924,0.405221229631,0.211913786446,nan,nan,0.0,0.0,0.0,nan,nan,275.476420985,769.699088942,769.899654975,770.19909664,nan,nan
0,385,5254,6,1,443,311,0.281558783006,0.419268214519,-1.0,1,1.0,1.0,0.23245650623,0,0.0,0.0,0.238563681332,0.308286254197,0.0966845936538,0.404970847851,0.211601660543,nan,nan,0.0,0.0,0.0,nan,nan,275.476420985,770.69920127,770.931657776,771.199236622,nan,nan
0,386,5255,6,0,319,224,-0.0891891826932,0.433308674125,0.406137099325,0,0.0,1.0,0.432265603915,0,0.0,0.0,0.288429381015,0.308089293813,0.0966360544803,0.404725348293,0.211453239333,nan,nan,0.0,0.0,0.0,nan,nan,275.476420985,771.699353512,772.131619116,772.199386869,nan,nan
