block,trial,freq_trials,correct_response,actual_response,acc,rts,probe_trials,fast_rt_trigger,slow_rt_trigger,rt_triggered,rts_runningavg,rts_runningstd,rts_runningfastthresh,rts_runningslowthresh,rts_runningstd,rts_trailingavg,trials_colorind,trials_colorrgb0,trials_colorrgb1,trials_colorrgb2,wm_respdeg,wm_respdeg_in_colorspace,wm_respcolorminusorigcolor,wm_resptexind,wm_resptexrgb0,wm_resptexrgb1,wm_resptexrgb2,wm_rts,time_blockstart,time_encarray_offset,time_encarray_onset,time_response,time_iti_offset,time_iti_onset,time_memprobe_offset,time_memprobe_onset
1,1,1,1,1.0,1.0,0.381985181943,0,nan,nan,nan,nan,nan,nan,nan,nan,nan,31,1.0,0.0668515730764,-1.0,nan,nan,nan,nan,0.0,0.0,0.0,nan,275.476420985,276.494438597,276.994468817,276.876423779,nan,nan,nan,nan
1,2,1,1,1.0,1.0,0.260428022593,0,nan,nan,nan,nan,nan,nan,nan,nan,nan,140,1.0,-0.294209249228,-0.0345777392028,nan,nan,nan,nan,0.0,0.0,0.0,nan,275.476420985,277.527952702,278.027962965,277.788380724,nan,nan,nan,nan
1,3,1,1,1.0,1.0,0.244401534088,0,nan,nan,nan,nan,nan,nan,nan,nan,nan,363,-0.162287729338,0.476365729747,0.00704812682028,nan,nan,nan,nan,0.0,0.0,0.0,nan,275.476420985,278.528037091,279.028069306,278.772438625,nan,nan,nan,nan
1,4,1,1,1.0,1.0,0.244195979089,0,nan,nan,nan,nan,nan,nan,nan,nan,nan,137,1.0,-0.300190217086,-0.0647316600203,nan,nan,nan,nan,0.0,0.0,0.0,nan,275.476420985,279.528167095,280.028222119,279.772363074,nan,nan,nan,nan
1,5,1,1,1.0,1.0,0.212066309527,0,nan,nan,nan,nan,nan,nan,nan,nan,nan,424,0.142174562463,0.448819569244,-0.770229420881,nan,nan,nan,nan,0.0,0.0,0.0,nan,275.476420985,280.528296529,281.028339865,280.740362839,nan,nan,nan,nan
1,6,1,1,1.0,1.0,0.201882614754,0,nan,nan,nan,nan,nan,nan,nan,nan,nan,191,1.0,-0.0691479807067,0.414571651978,nan,nan,nan,nan,0.0,0.0,0.0,nan,275.476420985,281.634432747,282.136828138,281.836315362,nan,nan,nan,nan
1,7,0,0,1.0,0.0,0.239425151609,0,0.0,0.0,0.0,nan,nan,nan,nan,nan,nan,379,-0.113535935895,0.478614986251,-0.165970515924,nan,nan,nan,nan,0.0,0.0,0.0,nan,275.476420985,282.636920226,283.136960709,282.876345377,nan,nan,nan,nan
1,8,1,1,1.0,1.0,0.263273869641,1,nan,nan,nan,nan,nan,nan,nan,nan,nan,125,1.0,-0.311567427947,-0.187805059354,1.02303018867,88.9769698113,1.08634481133,127.0,1.0,-0.31111021432,-0.167036648065,2.07555748057,275.476420985,283.637024856,284.137039111,283.900298726,287.562474342,288.573523878,285.47054968,287.554141788
1,9,0,0,0.0,1.0,0.593121217564,0,nan,nan,nan,nan,nan,nan,nan,nan,nan,72,1.0,-0.149607777062,-0.853203742106,nan,nan,nan,nan,0.0,0.0,0.0,nan,275.476420985,288.771022543,289.271070155,289.364143761,nan,nan,nan,nan
1,10,1,1,1.0,1.0,0.417042520829,0,nan,nan,nan,nan,nan,nan,nan,nan,nan,253,0.513865899396,0.244839928328,0.655977188727,nan,nan,nan,nan,0.0,0.0,0.0,nan,275.476420985,289.771136013,290.271188186,290.188178534,nan,nan,nan,nan
1,11,1,1,1.0,1.0,0.32089042943,0,nan,nan,nan,nan,nan,nan,nan,nan,nan,106,1.0,-0.287630069369,-0.390564445695,nan,nan,nan,nan,0.0,0.0,0.0,nan,275.476420985,290.771263736,291.271305076,291.092154166,nan,nan,nan,nan
1,12,1,1,1.0,1.0,0.336772943847,0,nan,nan,nan,nan,nan,nan,nan,nan,nan,27,1.0,0.0870912575778,-1.0,nan,nan,nan,nan,0.0,0.0,0.0,nan,275.476420985,291.771367227,292.271423391,292.108140171,nan,nan,nan,nan
1,13,1,1,1.0,1.0,0.272600559518,0,nan,nan,nan,nan,nan,nan,nan,nan,nan,203,1.0,-0.00249325098487,0.493674673203,nan,nan,nan,nan,0.0,0.0,0.0,nan,275.476420985,292.771518044,293.27153572,293.044118604,nan,nan,nan,nan
1,14,1,1,1.0,1.0,0.248474441469,0,nan,nan,nan,nan,nan,nan,nan,nan,nan,15,0.965734432428,0.145352784795,-1.0,nan,nan,nan,nan,0.0,0.0,0.0,nan,275.476420985,293.771649474,294.271679409,294.020123916,nan,nan,nan,nan
1,15,1,1,1.0,1.0,0.200400106609,1,nan,nan,nan,nan,nan,nan,nan,nan,nan,376,-0.124962824795,0.478704673615,-0.132627625282,-161.158704944,251.158704944,-13.2162950562,357.0,-0.1717918326,0.473767524415,0.068739031695,2.37557475735,275.476420985,294.771766079,295.271804852,294.972166185,298.980594532,299.976979206,296.588647747,298.972263118
1,16,1,1,1.0,1.0,0.447181351483,0,nan,nan,nan,nan,nan,nan,nan,nan,nan,263,0.405698801511,0.284171736334,0.651829885785,nan,nan,nan,nan,0.0,0.0,0.0,nan,275.476420985,300.180798776,300.680834129,300.627980128,nan,nan,nan,nan
1,17,1,1,1.0,1.0,0.311055979691,0,nan,nan,nan,nan,nan,nan,nan,nan,nan,473,0.522594813828,0.349396171415,-1.0,nan,nan,nan,nan,0.0,0.0,0.0,nan,275.476420985,301.180907968,301.680966129,301.491963948,nan,nan,nan,nan
1,18,1,1,1.0,1.0,0.246915240772,0,nan,nan,nan,nan,nan,nan,nan,nan,nan,4,0.879126049628,0.195014037372,-1.0,nan,nan,nan,nan,0.0,0.0,0.0,nan,275.476420985,302.181061637,302.681098699,302.427976877,nan,nan,nan,nan
1,19,1,1,1.0,1.0,0.302764480002,0,nan,nan,nan,nan,nan,nan,nan,nan,nan,334,-0.152796554809,0.454467054946,0.285576400052,nan,nan,nan,nan,0.0,0.0,0.0,nan,275.476420985,303.181177956,303.681195062,303.483942436,nan,nan,nan,nan
1,20,1,1,1.0,1.0,0.262634680606,0,nan,nan,nan,nan,nan,nan,nan,nan,nan,488,0.647907709101,0.302951493728,-1.0,nan,nan,nan,nan,0.0,0.0,0.0,nan,275.476420985,304.181312237,304.681345879,304.443946918,nan,nan,nan,nan
1,21,1,1,1.0,1.0,0.294480962679,0,nan,nan,nan,nan,nan,nan,nan,nan,nan,238,0.675741828754,0.178727669763,0.638511091232,nan,nan,nan,nan,0.0,0.0,0.0,nan,275.476420985,305.181436825,305.681486147,305.475917787,nan,nan,nan,nan
1,22,1,1,1.0,1.0,0.318347356282,0,nan,nan,nan,nan,nan,nan,nan,nan,nan,35,1.0,0.0462653595507,-1.0,nan,nan,nan,nan,0.0,0.0,0.0,nan,275.476420985,306.181542026,306.681585361,306.499889382,nan,nan,nan,nan
1,23,0,0,0.0,1.0,0.47014199011,0,nan,nan,nan,nan,nan,nan,nan,nan,nan,152,1.0,-0.259184487343,0.0830625546756,nan,nan,nan,nan,0.0,0.0,0.0,nan,275.476420985,307.181710234,307.681734467,307.651852224,nan,nan,nan,nan
1,24,1,1,1.0,1.0,0.278143716976,0,nan,nan,nan,nan,nan,nan,nan,nan,nan,269,0.34171296506,0.305888347675,0.643262349404,nan,nan,nan,nan,0.0,0.0,0.0,nan,275.476420985,308.181796904,308.681831686,308.459940621,nan,nan,nan,nan
1,25,1,1,1.0,1.0,0.277959828265,0,nan,nan,nan,nan,nan,nan,nan,nan,nan,59,1.0,-0.0814409933332,-1.0,nan,nan,nan,nan,0.0,0.0,0.0,nan,275.476420985,309.181928049,309.681963116,309.459887877,nan,nan,nan,nan
1,26,1,1,1.0,1.0,0.261828708462,0,nan,nan,nan,nan,nan,nan,nan,nan,nan,383,-0.0968787136249,0.478131214543,-0.211081409456,nan,nan,nan,nan,0.0,0.0,0.0,nan,275.476420985,310.182052922,310.682098823,310.44388163,nan,nan,nan,nan
1,27,1,1,1.0,1.0,0.277618566528,0,nan,nan,nan,nan,nan,nan,nan,nan,nan,327,-0.128086156831,0.445480682368,0.344176439252,nan,nan,nan,nan,0.0,0.0,0.0,nan,275.476420985,311.182204879,311.682245363,311.459823445,nan,nan,nan,nan
1,28,1,1,1.0,1.0,0.389463297091,0,nan,nan,nan,nan,nan,nan,nan,nan,nan,23,1.0,0.106943944166,-1.0,nan,nan,nan,nan,0.0,0.0,0.0,nan,275.476420985,312.182328897,312.68236938,312.571792194,nan,nan,nan,nan
1,29,1,1,1.0,1.0,0.381293819286,0,nan,nan,nan,nan,nan,nan,nan,nan,nan,414,0.0747837862165,0.460162189034,-0.600089175003,nan,nan,nan,nan,0.0,0.0,0.0,nan,275.476420985,313.182480283,313.682478572,313.563774102,nan,nan,nan,nan
1,30,1,1,1.0,1.0,0.355789823458,0,nan,nan,nan,nan,nan,nan,nan,nan,nan,222,0.841778467246,0.0997291618919,0.589484691865,nan,nan,nan,nan,0.0,0.0,0.0,nan,275.476420985,314.215938509,314.715944495,314.571728332,nan,nan,nan,nan
1,31,1,1,1.0,1.0,0.347697037272,0,nan,nan,nan,nan,nan,nan,nan,nan,nan,164,1.0,-0.209685835145,0.194761549991,nan,nan,nan,nan,0.0,0.0,0.0,nan,275.476420985,315.216031165,315.716076781,315.563728202,nan,nan,nan,nan
1,32,1,1,1.0,1.0,0.411533575505,1,nan,nan,nan,nan,nan,nan,nan,nan,nan,113,1.0,-0.302191989669,-0.314576349441,19.1481374579,70.8518625421,-8.60126245794,101.0,1.0,-0.273572672894,-0.446152610616,1.95056346711,275.476420985,316.216173429,316.716199658,316.627707005,320.008294921,321.005385784,318.041367125,319.999964934
1,33,1,1,1.0,1.0,0.435110595077,0,nan,nan,nan,nan,nan,nan,nan,nan,nan,30,1.0,0.071945658744,-1.0,nan,nan,nan,nan,0.0,0.0,0.0,nan,275.476420985,321.208480635,321.708515702,321.64359123,nan,nan,nan,nan
1,34,1,1,1.0,1.0,0.298985222355,0,nan,nan,nan,nan,nan,nan,nan,nan,nan,467,0.473005185182,0.365775667588,-1.0,nan,nan,nan,nan,0.0,0.0,0.0,nan,275.476420985,322.208604937,322.708653118,322.50759016,nan,nan,nan,nan
1,35,1,1,1.0,1.0,0.210904250853,0,nan,nan,nan,nan,nan,nan,nan,nan,nan,353,-0.175041255135,0.471490071959,0.108799216003,nan,nan,nan,nan,0.0,0.0,0.0,nan,275.476420985,323.208735797,323.708791106,323.419640047,nan,nan,nan,nan
1,36,1,1,1.0,1.0,0.21870367229,0,nan,nan,nan,nan,nan,nan,nan,nan,nan,403,0.00657627305109,0.469456436931,-0.450524507496,nan,nan,nan,nan,0.0,0.0,0.0,nan,275.476420985,324.208846129,324.708881482,324.427549802,nan,nan,nan,nan
1,37,1,1,1.0,1.0,0.0803485494107,0,nan,nan,nan,nan,nan,nan,nan,nan,nan,28,1.0,0.082066132397,-1.0,nan,nan,nan,nan,0.0,0.0,0.0,nan,275.476420985,325.251285791,325.750713315,325.331634341,nan,nan,nan,nan
1,38,1,1,1.0,1.0,0.18483376503,0,nan,nan,nan,nan,nan,nan,nan,nan,nan,366,-0.155593376329,0.477302029306,-0.0244766492797,nan,nan,nan,nan,0.0,0.0,0.0,nan,275.476420985,326.250783164,326.750849592,326.435616929,nan,nan,nan,nan
1,39,1,1,1.0,1.0,0.240649076179,0,nan,nan,nan,nan,nan,nan,nan,nan,nan,496,0.714833717156,0.274923884212,-1.0,nan,nan,nan,nan,0.0,0.0,0.0,nan,275.476420985,327.250920297,327.750933981,327.491569373,nan,nan,nan,nan
1,40,0,0,1.0,0.0,0.21644854825,0,0.0,0.0,0.0,nan,nan,nan,nan,nan,nan,316,-0.0718215561597,0.428203514031,0.427892255365,nan,nan,nan,nan,0.0,0.0,0.0,nan,275.476420985,328.251059994,328.7510905,328.467508542,nan,nan,nan,nan
1,41,1,1,1.0,1.0,0.0483118211851,0,nan,nan,nan,nan,nan,nan,nan,nan,nan,463,0.440238315199,0.376011795327,-1.0,nan,nan,nan,nan,0.0,0.0,0.0,nan,275.476420985,329.251178595,329.751233904,329.299490416,nan,nan,nan,nan
1,42,1,1,1.0,1.0,0.192250585184,0,nan,nan,nan,nan,nan,nan,nan,nan,nan,219,0.871627318206,0.0840881726889,0.576959667802,nan,nan,nan,nan,0.0,0.0,0.0,nan,275.476420985,330.251300331,330.751349083,330.443550916,nan,nan,nan,nan
1,43,1,1,1.0,1.0,0.216061100364,0,nan,nan,nan,nan,nan,nan,nan,nan,nan,371,-0.14179360683,0.478331938097,-0.0779732583494,nan,nan,nan,nan,0.0,0.0,0.0,nan,275.476420985,331.251426915,331.751454854,331.467488015,nan,nan,nan,nan
1,44,1,1,1.0,1.0,0.239918085746,0,nan,nan,nan,nan,nan,nan,nan,nan,nan,141,1.0,-0.291952736687,-0.024586852943,nan,nan,nan,nan,0.0,0.0,0.0,nan,275.476420985,332.251548652,332.751570034,332.491466737,nan,nan,nan,nan
1,45,1,1,1.0,1.0,0.33571494557,0,nan,nan,nan,nan,nan,nan,nan,nan,nan,210,0.958022500947,0.0359304984579,0.533421856807,nan,nan,nan,nan,0.0,0.0,0.0,nan,275.476420985,333.251679797,333.751730544,333.587394742,nan,nan,nan,nan
1,46,1,1,1.0,1.0,0.263626821339,0,nan,nan,nan,nan,nan,nan,nan,nan,nan,367,-0.15309091083,0.477560897992,-0.0350816338538,nan,nan,nan,nan,0.0,0.0,0.0,nan,275.476420985,334.251809516,334.751829758,334.515436337,nan,nan,nan,nan
1,47,1,1,1.0,1.0,0.255422846414,0,nan,nan,nan,nan,nan,nan,nan,nan,nan,125,1.0,-0.311567427947,-0.187805059354,nan,nan,nan,nan,0.0,0.0,0.0,nan,275.476420985,335.251931823,335.751952635,335.507354669,nan,nan,nan,nan
1,48,1,1,1.0,1.0,0.295304039493,0,nan,nan,nan,nan,nan,nan,nan,nan,nan,419,0.107894673663,0.454841969249,-0.678098861371,nan,nan,nan,nan,0.0,0.0,0.0,nan,275.476420985,336.252059547,336.752081784,336.547363587,nan,nan,nan,nan
1,49,1,1,1.0,1.0,0.24718266353,0,nan,nan,nan,nan,nan,nan,nan,nan,nan,319,-0.0891891826932,0.433308674125,0.406137099325,nan,nan,nan,nan,0.0,0.0,0.0,nan,275.476420985,337.252198675,337.752240584,337.499381338,nan,nan,nan,nan
1,50,1,1,1.0,1.0,0.199017667212,0,nan,nan,nan,nan,nan,nan,nan,nan,nan,80,1.0,-0.189075709245,-0.708965549488,nan,nan,nan,nan,0.0,0.0,0.0,nan,275.476420985,338.252320982,338.752375721,338.451338649,nan,nan,nan,nan
1,51,0,0,1.0,0.0,0.222868950106,0,0.0,0.0,0.0,nan,nan,nan,nan,nan,nan,9,0.918933560847,0.172916688009,-1.0,nan,nan,nan,nan,0.0,0.0,0.0,nan,275.476420985,339.252462961,339.752497743,339.475331911,nan,nan,nan,nan
1,52,1,1,1.0,1.0,0.278679415584,0,nan,nan,nan,nan,nan,nan,nan,nan,nan,200,1.0,-0.0191209939188,0.47515178387,nan,nan,nan,nan,0.0,0.0,0.0,nan,275.476420985,340.252575859,340.752595531,340.531255275,nan,nan,nan,nan
1,53,1,1,1.0,1.0,0.422538921237,0,nan,nan,nan,nan,nan,nan,nan,nan,nan,298,0.0600896634305,0.391050340636,0.53969689008,nan,nan,nan,nan,0.0,0.0,0.0,nan,275.476420985,341.25271014,341.752718979,341.675249062,nan,nan,nan,nan
1,54,1,1,1.0,1.0,0.606413046829,0,nan,nan,nan,nan,nan,nan,nan,nan,nan,132,1.0,-0.307426825298,-0.115555361894,nan,nan,nan,nan,0.0,0.0,0.0,nan,275.476420985,342.252822184,342.752896024,342.859235231,nan,nan,nan,nan
1,55,1,1,1.0,1.0,0.446269039065,0,nan,nan,nan,nan,nan,nan,nan,nan,nan,177,1.0,-0.145192147526,0.306921212481,nan,nan,nan,nan,0.0,0.0,0.0,nan,275.476420985,343.252947912,343.752967299,343.699216951,nan,nan,nan,nan
1,56,1,1,1.0,1.0,0.398109459318,0,nan,nan,nan,nan,nan,nan,nan,nan,nan,294,0.0948761993654,0.381212130724,0.559858230992,nan,nan,nan,nan,0.0,0.0,0.0,nan,275.476420985,344.253083903,344.753106996,344.651193363,nan,nan,nan,nan
1,57,1,1,1.0,1.0,0.55796865467,0,nan,nan,nan,nan,nan,nan,nan,nan,nan,55,1.0,-0.0599996532909,-1.0,nan,nan,nan,nan,0.0,0.0,0.0,nan,275.476420985,345.253195662,345.753274349,345.811164317,nan,nan,nan,nan
1,58,1,1,1.0,1.0,0.413829183206,0,nan,nan,nan,nan,nan,nan,nan,nan,nan,409,0.0429436170054,0.464793150178,-0.529461854507,nan,nan,nan,nan,0.0,0.0,0.0,nan,275.476420985,346.253343058,346.753353321,346.667172241,nan,nan,nan,nan
1,59,1,1,1.0,1.0,0.445663206279,0,nan,nan,nan,nan,nan,nan,nan,nan,nan,245,0.600577697281,0.210610106048,0.650172825369,nan,nan,nan,nan,0.0,0.0,0.0,nan,275.476420985,347.253475058,347.753506418,347.699138264,nan,nan,nan,nan
1,60,1,1,1.0,1.0,0.419523157179,0,nan,nan,nan,nan,nan,nan,nan,nan,nan,82,1.0,-0.198479155091,-0.679872484948,nan,nan,nan,nan,0.0,0.0,0.0,nan,275.476420985,348.303610365,348.803612646,348.723133522,nan,nan,nan,nan
1,61,1,1,1.0,1.0,0.347391981632,0,nan,nan,nan,nan,nan,nan,nan,nan,nan,184,1.0,-0.107671891867,0.362640045218,nan,nan,nan,nan,0.0,0.0,0.0,nan,275.476420985,349.303721269,349.803766314,349.65111325,nan,nan,nan,nan
1,62,1,1,1.0,1.0,0.323275557719,0,nan,nan,nan,nan,nan,nan,nan,nan,nan,257,0.470472903111,0.261039853404,0.655841377839,nan,nan,nan,nan,0.0,0.0,0.0,nan,275.476420985,350.303878072,350.803880353,350.627153629,nan,nan,nan,nan
1,63,1,1,1.0,1.0,0.43511544168,0,nan,nan,nan,nan,nan,nan,nan,nan,nan,160,1.0,-0.227501418013,0.158297521075,nan,nan,nan,nan,0.0,0.0,0.0,nan,275.476420985,351.303962176,351.804028889,351.739077617,nan,nan,nan,nan
1,64,1,1,1.0,1.0,0.39494031202,0,nan,nan,nan,nan,nan,nan,nan,nan,nan,239,0.665069831863,0.183388857662,0.640549267122,nan,nan,nan,nan,0.0,0.0,0.0,nan,275.476420985,352.304109002,352.804135515,352.699049314,nan,nan,nan,nan
1,65,1,1,1.0,1.0,0.35478741955,0,nan,nan,nan,nan,nan,nan,nan,nan,nan,189,1.0,-0.0802194643608,0.400143472992,nan,nan,nan,nan,0.0,0.0,0.0,nan,275.476420985,353.304243567,353.804254401,353.659030987,nan,nan,nan,nan
1,66,1,1,1.0,1.0,0.426651742309,0,nan,nan,nan,nan,nan,nan,nan,nan,nan,344,-0.172543464245,0.464730234515,0.195503824632,nan,nan,nan,nan,0.0,0.0,0.0,nan,275.476420985,354.304369296,354.804389537,354.731021038,nan,nan,nan,nan
1,67,1,1,1.0,1.0,0.410494679585,0,nan,nan,nan,nan,nan,nan,nan,nan,nan,25,1.0,0.0970682892709,-1.0,nan,nan,nan,nan,0.0,0.0,0.0,nan,275.476420985,355.304518972,355.804507283,355.715013651,nan,nan,nan,nan
1,68,1,1,1.0,1.0,0.362380715087,0,nan,nan,nan,nan,nan,nan,nan,nan,nan,164,1.0,-0.209685835145,0.194761549991,nan,nan,nan,nan,0.0,0.0,0.0,nan,275.476420985,356.304621037,356.804642134,356.667001752,nan,nan,nan,nan
1,69,1,1,1.0,1.0,0.330235365778,0,nan,nan,nan,nan,nan,nan,nan,nan,nan,68,1.0,-0.129018143495,-0.972903198114,nan,nan,nan,nan,0.0,0.0,0.0,nan,275.476420985,357.304746195,357.804787819,357.634981561,nan,nan,nan,nan
1,70,1,1,1.0,1.0,0.402068898082,0,nan,nan,nan,nan,nan,nan,nan,nan,nan,364,-0.160194321586,0.476704516321,-0.00341124574885,nan,nan,nan,nan,0.0,0.0,0.0,nan,275.476420985,358.304881901,358.804911552,358.7069508,nan,nan,nan,nan
1,71,1,1,1.0,1.0,0.354058709927,0,nan,nan,nan,nan,nan,nan,nan,nan,nan,458,0.399688045963,0.388050214986,-1.0,nan,nan,nan,nan,0.0,0.0,0.0,nan,275.476420985,359.305004493,359.805040701,359.659063203,nan,nan,nan,nan
1,72,1,1,1.0,1.0,0.289787681773,0,nan,nan,nan,nan,nan,nan,nan,nan,nan,292,0.112881669716,0.376069582356,0.569261850688,nan,nan,nan,nan,0.0,0.0,0.0,nan,275.476420985,360.305128796,360.805176693,360.594916478,nan,nan,nan,nan
1,73,1,1,1.0,1.0,0.209715678357,0,nan,nan,nan,nan,nan,nan,nan,nan,nan,25,1.0,0.0970682892709,-1.0,nan,nan,nan,nan,0.0,0.0,0.0,nan,275.476420985,361.305274766,361.805281608,361.514990444,nan,nan,nan,nan
1,74,1,1,1.0,1.0,0.241517200135,0,nan,nan,nan,nan,nan,nan,nan,nan,nan,261,0.427225806086,0.276617811781,0.653674462902,nan,nan,nan,nan,0.0,0.0,0.0,nan,275.476420985,362.305382533,362.80543043,362.546899733,nan,nan,nan,nan
1,75,1,1,1.0,1.0,0.297374704853,0,nan,nan,nan,nan,nan,nan,nan,nan,nan,207,0.985653507947,0.0195431921708,0.51699622314,nan,nan,nan,nan,0.0,0.0,0.0,nan,275.476420985,363.305515674,363.805556443,363.602890379,nan,nan,nan,nan
1,76,0,0,0.0,1.0,0.38518597465,0,nan,nan,nan,nan,nan,nan,nan,nan,nan,87,1.0,-0.220959007447,-0.612675615602,nan,nan,nan,nan,0.0,0.0,0.0,nan,275.476420985,364.305674759,364.805683882,364.690860733,nan,nan,nan,nan
1,77,1,1,1.0,1.0,0.305070065893,0,nan,nan,nan,nan,nan,nan,nan,nan,nan,337,-0.160643365934,0.457858386897,0.259303564052,nan,nan,nan,nan,0.0,0.0,0.0,nan,275.476420985,365.305773403,365.805809895,365.610843468,nan,nan,nan,nan
1,78,1,1,1.0,1.0,0.336925755255,1,nan,nan,nan,nan,nan,nan,nan,nan,nan,270,0.331159066004,0.309369715406,0.641393874915,-84.3907255536,174.390725554,-15.4530244464,248.0,0.568115903494,0.223728204869,0.653295769881,2.20892168023,275.476420985,366.305899416,366.805956435,366.642825171,370.356380261,371.361342389,368.131104515,370.348052554
1,79,0,0,0.0,1.0,0.413810651749,0,nan,nan,nan,nan,nan,nan,nan,nan,nan,13,0.950262168777,0.154664060346,-1.0,nan,nan,nan,nan,0.0,0.0,0.0,nan,275.476420985,371.564910502,372.06494785,371.978721154,nan,nan,nan,nan
1,80,1,1,1.0,1.0,0.429678911343,0,nan,nan,nan,nan,nan,nan,nan,nan,nan,475,0.539218753276,0.343659807328,-1.0,nan,nan,nan,nan,0.0,0.0,0.0,nan,275.476420985,372.565031384,373.065080421,372.994710295,nan,nan,nan,nan
1,81,0,0,0.0,1.0,0.429504716769,0,0.0,0.0,0.0,0.318911700416,0.100783684526,0.21812801589,0.419695384943,0.100783684526,0.42433142662,373,-0.135407706169,0.478559568072,-0.0996974893599,nan,nan,nan,nan,0.0,0.0,0.0,nan,275.476420985,373.565190469,374.065202728,373.994695186,nan,nan,nan,nan
1,82,1,1,1.0,1.0,0.413357061334,0,0.0,0.0,0.0,0.320277046297,0.10090136382,0.219375682477,0.421178410118,0.10090136382,0.424180229815,13,0.950262168777,0.154664060346,-1.0,nan,nan,nan,nan,0.0,0.0,0.0,nan,275.476420985,374.565304223,375.065305363,374.978661284,nan,nan,nan,nan
1,83,1,1,1.0,1.0,0.38124193158,0,0.0,0.0,0.0,0.321412168432,0.100803245623,0.220608922809,0.422215414054,0.100803245623,0.408034569894,141,1.0,-0.291952736687,-0.024586852943,nan,nan,nan,nan,0.0,0.0,0.0,nan,275.476420985,375.565403722,376.065446487,375.946645654,nan,nan,nan,nan
1,84,0,0,0.0,1.0,0.357101558708,0,0.0,0.0,0.0,0.322133008952,0.100406559555,0.221726449397,0.422539568507,0.100406559555,0.383900183874,353,-0.175041255135,0.471490071959,0.108799216003,nan,nan,nan,nan,0.0,0.0,0.0,nan,275.476420985,376.565545131,377.065583903,376.922646689,nan,nan,nan,nan
1,85,1,1,1.0,1.0,0.276979662478,0,0.0,0.0,0.0,0.322549301211,0.0998791442358,0.222670156975,0.422428445447,0.0998791442358,0.338441050922,240,0.654373017221,0.188015059697,0.642463954019,nan,nan,nan,nan,0.0,0.0,0.0,nan,275.476420985,377.565649761,378.065707921,377.842629423,nan,nan,nan,nan
1,86,1,1,1.0,1.0,0.308818817139,0,0.0,0.0,0.0,0.322013187814,0.0994113859946,0.222601801819,0.421424573808,0.0994113859946,0.314300012775,496,0.714833717156,0.274923884212,-1.0,nan,nan,nan,nan,0.0,0.0,0.0,nan,275.476420985,378.56579231,379.065813122,378.874611127,nan,nan,nan,nan
1,87,1,1,1.0,1.0,0.324674532749,0,0.0,0.0,0.0,0.321859764899,0.0988418444633,0.223017920436,0.420701609362,0.0988418444633,0.303491004122,400,-0.0107874812989,0.471427301814,-0.412692688905,nan,nan,nan,nan,0.0,0.0,0.0,nan,275.476420985,379.565926876,380.065962799,379.890601409,nan,nan,nan,nan
1,88,1,1,1.0,1.0,0.316487378441,0,0.0,0.0,0.0,0.321892118552,0.0982726041094,0.223619514443,0.420164722662,0.0982726041094,0.316660242776,173,1.0,-0.165909522591,0.273535192888,nan,nan,nan,nan,0.0,0.0,0.0,nan,275.476420985,380.566074557,381.066088527,380.882561935,nan,nan,nan,nan
1,89,1,1,1.0,1.0,0.308352111839,0,0.0,0.0,0.0,0.321830701051,0.0977143209574,0.224116380094,0.419545022009,0.0977143209574,0.316504674343,253,0.513865899396,0.244839928328,0.655977188727,nan,nan,nan,nan,0.0,0.0,0.0,nan,275.476420985,381.566196864,382.066213685,381.874548975,nan,nan,nan,nan
1,90,1,1,1.0,1.0,0.276278321631,0,0.0,0.0,0.0,0.321679256229,0.0971741990124,0.224505057216,0.418853455241,0.0971741990124,0.30037260397,505,0.789537956352,0.240683140511,-1.0,nan,nan,nan,nan,0.0,0.0,0.0,nan,275.476420985,382.566304916,383.066338843,382.842583237,nan,nan,nan,nan
1,91,1,1,1.0,1.0,0.26812794432,0,0.0,0.0,0.0,0.3211748014,0.0967499505036,0.224424850896,0.417924751903,0.0967499505036,0.284252792597,0,0.846831709088,0.212097570855,-1.0,nan,nan,nan,nan,0.0,0.0,0.0,nan,275.476420985,383.56643207,384.066453167,383.834560014,nan,nan,nan,nan
1,92,1,1,1.0,1.0,0.243951079436,0,0.0,0.0,0.0,0.320591868904,0.0963756848484,0.224216184056,0.416967553753,0.0963756848484,0.262785781796,431,0.191957257768,0.43918128748,-0.982298765802,nan,nan,nan,nan,0.0,0.0,0.0,nan,275.476420985,384.566551811,385.066576329,384.81050289,nan,nan,nan,nan
1,93,1,1,1.0,1.0,0.25980052352,0,0.0,0.0,0.0,0.319758816845,0.0961793373686,0.223579479476,0.415938154214,0.0961793373686,0.257293182425,147,1.0,-0.275801134503,0.0346720467303,nan,nan,nan,nan,0.0,0.0,0.0,nan,275.476420985,385.566680389,386.066702628,385.826480913,nan,nan,nan,nan
1,94,0,0,1.0,0.0,0.227637781762,0,0.0,0.0,0.0,0.319114104013,0.0958605121944,0.223253591819,0.414974616208,0.0958605121944,0.243796461572,319,-0.0891891826932,0.433308674125,0.406137099325,nan,nan,nan,nan,0.0,0.0,0.0,nan,275.476420985,386.566828641,387.066862282,386.794466423,nan,nan,nan,nan
1,95,1,1,1.0,1.0,0.131606287323,0,0.0,0.0,0.0,0.318140951649,0.0958099855079,0.222330966141,0.413950937157,0.0958099855079,0.206348197535,467,0.473005185182,0.365775667588,-1.0,nan,nan,nan,nan,0.0,0.0,0.0,nan,275.476420985,387.566940399,388.067010818,387.698546686,nan,nan,nan,nan
1,96,1,1,1.0,1.0,0.235394438729,0,0.0,0.0,0.0,0.316177428867,0.0971871189373,0.218990309929,0.413364547804,0.0971871189373,0.198212835938,53,1.0,-0.049257555853,-1.0,nan,nan,nan,nan,0.0,0.0,0.0,nan,275.476420985,388.567063847,389.067094067,388.802458285,nan,nan,nan,nan
1,97,1,1,1.0,1.0,0.243224364705,0,1.0,0.0,0.0,0.315335939386,0.0970268885496,0.218309050836,0.412362827936,0.0970268885496,0.203408363586,176,1.0,-0.150429669724,0.298675466069,nan,nan,nan,nan,0.0,0.0,0.0,nan,275.476420985,389.567192426,390.067226352,389.810416791,nan,nan,nan,nan
1,98,1,1,1.0,1.0,0.275091744028,1,0.0,0.0,1.0,0.31459252109,0.0967998951975,0.217792625893,0.411392416288,0.0967998951975,0.251236849154,78,1.0,-0.179467652321,-0.739907630878,3.24911156072,86.7508884393,31.9071384393,123.0,1.0,-0.311441137266,-0.208672863777,2.75905955397,275.476420985,390.567331553,391.067365195,390.842423297,395.167857616,396.164958171,392.392527244,395.159525632
1,99,1,1,1.0,1.0,0.394212742336,0,0.0,0.0,0.0,0.314189451937,0.0963865359034,0.217802916033,0.41057598784,0.0963865359034,0.30417628369,123,1.0,-0.311441137266,-0.208672863777,nan,nan,nan,nan,0.0,0.0,0.0,nan,275.476420985,396.368060719,396.868102629,396.762273462,nan,nan,nan,nan
1,100,1,1,1.0,1.0,0.298076615669,0,0.0,0.0,0.0,0.314997768001,0.09623176698,0.218766001021,0.411229534981,0.09623176698,0.322460367344,31,1.0,0.0668515730764,-1.0,nan,nan,nan,nan,0.0,0.0,0.0,nan,275.476420985,397.368195856,397.86823577,397.666272472,nan,nan,nan,nan
1,101,1,1,1.0,1.0,0.257932562381,0,0.0,0.0,0.0,0.314828556478,0.0957642003452,0.219064356133,0.410592756823,0.0957642003452,0.316740640129,109,1.0,-0.294638327523,-0.357773695079,nan,nan,nan,nan,0.0,0.0,0.0,nan,275.476420985,398.368321584,398.868346103,398.626254146,nan,nan,nan,nan
1,102,0,0,0.0,1.0,0.433733573183,0,0.0,0.0,0.0,0.314265229804,0.0954553085977,0.218809921206,0.409720538402,0.0954553085977,0.329914250411,326,-0.12383419111,0.444071765824,0.352223541474,nan,nan,nan,nan,0.0,0.0,0.0,nan,275.476420985,399.36848523,399.868493498,399.802218803,nan,nan,nan,nan
1,103,1,1,1.0,1.0,0.265704328194,0,0.0,0.0,0.0,0.315436488072,0.0957128091226,0.21972367895,0.411149297195,0.0957128091226,0.31912348792,37,1.0,0.0358565504353,-1.0,nan,nan,nan,nan,0.0,0.0,0.0,nan,275.476420985,400.368578742,400.868603545,400.63428307,nan,nan,nan,nan
1,104,0,0,0.0,1.0,0.489460503682,0,0.0,0.0,0.0,0.314953651569,0.0953717988633,0.219581852705,0.410325450432,0.0953717988633,0.396299468353,406,0.0244967455079,0.467245700284,-0.489366101921,nan,nan,nan,nan,0.0,0.0,0.0,nan,275.476420985,401.368720436,401.877073802,401.858180939,nan,nan,nan,nan
1,105,1,1,1.0,1.0,0.305413608439,0,0.0,0.0,0.0,0.31663160207,0.0964277913116,0.220203810758,0.413059393381,0.0964277913116,0.353526146772,353,-0.175041255135,0.471490071959,0.108799216003,nan,nan,nan,nan,0.0,0.0,0.0,nan,275.476420985,402.368812237,402.868845879,402.674225845,nan,nan,nan,nan
1,106,1,1,1.0,1.0,0.305211189203,0,0.0,0.0,0.0,0.316524764035,0.0959736975051,0.22055106653,0.41249846154,0.0959736975051,0.366695100442,128,1.0,-0.310663006781,-0.156689791083,nan,nan,nan,nan,0.0,0.0,0.0,nan,275.476420985,403.368951935,403.868977879,403.674163125,nan,nan,nan,nan
1,107,1,1,1.0,1.0,0.313086160459,0,0.0,0.0,0.0,0.316418032197,0.0955261795492,0.220891852648,0.411944211746,0.0955261795492,0.3079036527,218,0.881467392804,0.0788246127756,0.572559633417,nan,nan,nan,nan,0.0,0.0,0.0,nan,275.476420985,404.369065975,404.869110449,404.682152135,nan,nan,nan,nan
1,108,1,1,1.0,1.0,0.26498787757,0,0.0,0.0,0.0,0.316386893209,0.0950792881826,0.221307605026,0.411466181391,0.0950792881826,0.294428409077,174,1.0,-0.160790688716,0.281981279739,nan,nan,nan,nan,0.0,0.0,0.0,nan,275.476420985,405.369187711,405.86924359,405.634175588,nan,nan,nan,nan
1,109,1,1,1.0,1.0,0.288771593943,0,0.0,0.0,0.0,0.315910976397,0.0947660373691,0.221144939028,0.410677013766,0.0947660373691,0.288948543991,510,0.830554458933,0.220436700166,-1.0,nan,nan,nan,nan,0.0,0.0,0.0,nan,275.476420985,406.369335392,406.869365042,406.658106986,nan,nan,nan,nan
1,110,1,1,1.0,1.0,0.256672999822,0,0.0,0.0,0.0,0.315661991237,0.0943658111074,0.22129618013,0.410027802345,0.0943658111074,0.270144157112,308,-0.0186828559465,0.413097475488,0.481682330771,nan,nan,nan,nan,0.0,0.0,0.0,nan,275.476420985,407.369470813,407.869518424,407.626143813,nan,nan,nan,nan
1,111,1,1,1.0,1.0,0.240540169179,0,0.0,0.0,0.0,0.315125727679,0.0941025965641,0.221023131115,0.409228324243,0.0941025965641,0.261994920981,459,0.407758158413,0.385709174134,-1.0,nan,nan,nan,nan,0.0,0.0,0.0,nan,275.476420985,408.369597682,408.869615358,408.610137851,nan,nan,nan,nan
1,112,1,1,1.0,1.0,0.224395934492,0,0.0,0.0,0.0,0.31445378571,0.093942465773,0.220511319937,0.408396251483,0.093942465773,0.240536367831,160,1.0,-0.227501418013,0.158297521075,nan,nan,nan,nan,0.0,0.0,0.0,nan,275.476420985,409.369722269,409.869747928,409.594118204,nan,nan,nan,nan
1,113,1,1,1.0,1.0,0.240166406147,0,0.0,0.0,0.0,0.313649697753,0.093905050132,0.219744647621,0.407554747885,0.093905050132,0.23503416994,8,0.91102658764,0.177400941622,-1.0,nan,nan,nan,nan,0.0,0.0,0.0,nan,275.476420985,410.36985655,410.869874797,410.610022957,nan,nan,nan,nan
1,114,1,1,1.0,1.0,0.238362592645,0,0.0,0.0,0.0,0.312999403137,0.0937415838662,0.219257819271,0.406740987003,0.0937415838662,0.234308311095,217,0.891250405156,0.0735373331823,0.568048345461,nan,nan,nan,nan,0.0,0.0,0.0,nan,275.476420985,411.411669852,411.911694656,411.650032445,nan,nan,nan,nan
1,115,1,1,1.0,1.0,0.206289942376,0,0.0,0.0,0.0,0.312344694273,0.0935886643012,0.218756029972,0.405933358574,0.0935886643012,0.228272980389,135,1.0,-0.303502321856,-0.0849788702499,nan,nan,nan,nan,0.0,0.0,0.0,nan,275.476420985,412.411777334,412.911806129,412.618067277,nan,nan,nan,nan
1,116,1,1,1.0,1.0,0.246116682887,0,0.0,0.0,0.0,0.311422479039,0.0936996750429,0.217722803996,0.405122154082,0.0936996750429,0.230256405969,335,-0.155595990888,0.455627721073,0.276893227044,nan,nan,nan,nan,0.0,0.0,0.0,nan,275.476420985,413.411899071,413.911944401,413.658015754,nan,nan,nan,nan
1,117,1,1,1.0,1.0,0.221980300732,0,0.0,0.0,0.0,0.310859498038,0.0934900616122,0.217369436426,0.40434955965,0.0934900616122,0.224795641998,236,0.697004556276,0.169301754335,0.634065852989,nan,nan,nan,nan,0.0,0.0,0.0,nan,275.476420985,414.412034778,414.912045612,414.634015079,nan,nan,nan,nan
1,118,1,1,1.0,1.0,0.189810433425,0,0.0,0.0,0.0,0.310099846779,0.0934485288406,0.216651317938,0.40354837562,0.0934485288406,0.219302472348,91,1.0,-0.237709898716,-0.562722318432,nan,nan,nan,nan,0.0,0.0,0.0,nan,275.476420985,415.412153093,415.912183314,415.601963527,nan,nan,nan,nan
1,119,0,0,1.0,0.0,0.157672780566,0,0.0,0.0,0.0,0.309080444971,0.0937027549741,0.215377689997,0.402783199945,0.0937027549741,0.189821171574,184,1.0,-0.107671891867,0.362640045218,nan,nan,nan,nan,0.0,0.0,0.0,nan,275.476420985,416.41230277,416.912354372,416.56997555,nan,nan,nan,nan
1,120,1,1,1.0,1.0,0.149582275189,0,0.0,0.0,0.0,0.307808111657,0.0943262700789,0.213481841578,0.402134381735,0.0943262700789,0.165688496393,118,1.0,-0.308588151016,-0.261285249573,nan,nan,nan,nan,0.0,0.0,0.0,nan,275.476420985,417.41239229,417.912485518,417.561974565,nan,nan,nan,nan
1,121,1,1,1.0,1.0,0.213371201418,0,0.0,0.0,0.0,0.306489563019,0.0950273104989,0.21146225252,0.401516873518,0.0950273104989,0.173542085725,275,0.279002393219,0.326185254474,0.630178474337,nan,nan,nan,nan,0.0,0.0,0.0,nan,275.476420985,418.412543393,418.912592144,418.625914594,nan,nan,nan,nan
1,122,1,1,1.0,1.0,0.229274243116,0,1.0,0.0,0.0,0.305719989783,0.0950085745041,0.210711415279,0.400728564287,0.0950085745041,0.197409239908,353,-0.175041255135,0.471490071959,0.108799216003,nan,nan,nan,nan,0.0,0.0,0.0,nan,275.476420985,419.412649734,419.912692498,419.641923977,nan,nan,nan,nan
1,123,1,1,1.0,1.0,0.189151857048,1,0.0,0.0,1.0,0.305093385302,0.094869115519,0.210224269783,0.399962500821,0.094869115519,0.210599100528,290,0.131265381085,0.370776544741,0.578206616232,-121.62432426,211.62432426,7.71807425972,301.0,0.0351599448551,0.39804275895,0.523414514543,1.91718335915,275.476420985,420.412802546,420.912854434,420.601954403,424.179889884,425.180383389,422.246340484,424.171557616
1,124,1,1,1.0,1.0,0.429638142698,0,0.0,0.0,0.0,0.304150771251,0.0950545986683,0.209096172583,0.39920536992,0.0950545986683,0.282688080954,130,1.0,-0.309333154106,-0.136071487739,nan,nan,nan,nan,0.0,0.0,0.0,nan,275.476420985,425.380121212,425.880115511,425.809759355,nan,nan,nan,nan
1,125,1,1,1.0,1.0,0.35752920527,0,0.0,0.0,0.0,0.305162766182,0.0953335158101,0.209829250372,0.400496281992,0.0953335158101,0.325439735005,370,-0.144805996584,0.478178727438,-0.0671803333712,nan,nan,nan,nan,0.0,0.0,0.0,nan,275.476420985,426.380214725,426.880243234,426.73774393,nan,nan,nan,nan
1,126,1,1,1.0,1.0,0.277412155643,0,0.0,0.0,0.0,0.305581697695,0.0950659447475,0.210515752947,0.400647642442,0.0950659447475,0.354859834537,81,1.0,-0.193804253699,-0.694219169772,nan,nan,nan,nan,0.0,0.0,0.0,nan,275.476420985,427.380365541,427.880378656,427.657777697,nan,nan,nan,nan
1,127,1,1,1.0,1.0,0.229243167676,0,0.0,0.0,0.0,0.305358129901,0.0947209333327,0.210637196568,0.400079063234,0.0947209333327,0.28806150953,401,-0.00506340639596,0.470796889516,-0.425203102762,nan,nan,nan,nan,0.0,0.0,0.0,nan,275.476420985,428.380484427,428.880519494,428.609727595,nan,nan,nan,nan
1,128,1,1,1.0,1.0,0.229080662131,0,0.0,0.0,0.0,0.30475879949,0.0945868274236,0.210171972066,0.399345626913,0.0945868274236,0.245245328483,8,0.91102658764,0.177400941622,-1.0,nan,nan,nan,nan,0.0,0.0,0.0,nan,275.476420985,429.380618993,429.880640375,429.609699655,nan,nan,nan,nan
1,129,1,1,1.0,1.0,0.19700316526,0,0.0,0.0,0.0,0.304167564042,0.0944519248985,0.209715639143,0.39861948894,0.0944519248985,0.218442331689,90,1.0,-0.233635786423,-0.574971871003,nan,nan,nan,nan,0.0,0.0,0.0,nan,275.476420985,430.380753845,430.880773231,430.57775701,nan,nan,nan,nan
1,130,1,1,1.0,1.0,0.220872695558,0,0.0,0.0,0.0,0.303336832268,0.094553395213,0.208783437055,0.397890227481,0.094553395213,0.215652174316,499,0.739831889234,0.263827757734,-1.0,nan,nan,nan,nan,0.0,0.0,0.0,nan,275.476420985,431.38085762,431.880903521,431.601730316,nan,nan,nan,nan
1,131,1,1,1.0,1.0,0.244697180577,0,0.0,0.0,0.0,0.302702492755,0.0944641759552,0.2082383168,0.39716666871,0.0944641759552,0.220857680465,32,1.0,0.061735800531,-1.0,nan,nan,nan,nan,0.0,0.0,0.0,nan,275.476420985,432.380983634,432.881014709,432.625680814,nan,nan,nan,nan
1,132,1,1,1.0,1.0,0.244537810795,0,0.0,0.0,0.0,0.302259704112,0.0942382639829,0.208021440129,0.396497968095,0.0942382639829,0.23670256231,383,-0.0968787136249,0.478131214543,-0.211081409456,nan,nan,nan,nan,0.0,0.0,0.0,nan,275.476420985,433.381111072,433.881136161,433.625648883,nan,nan,nan,nan
1,133,1,1,1.0,1.0,0.204457618296,0,0.0,0.0,0.0,0.301822417042,0.0940139407029,0.207808476339,0.395836357745,0.0940139407029,0.231230869889,176,1.0,-0.150429669724,0.298675466069,nan,nan,nan,nan,0.0,0.0,0.0,nan,275.476420985,434.381240507,434.881296671,434.585698125,nan,nan,nan,nan
1,134,1,1,1.0,1.0,0.188276036642,0,0.0,0.0,0.0,0.301090350886,0.0940367311332,0.207053619753,0.395127082019,0.0940367311332,0.212423821911,287,0.159501648714,0.36255249221,0.590751920292,nan,nan,nan,nan,0.0,0.0,0.0,nan,275.476420985,435.381371937,435.881435798,435.569647973,nan,nan,nan,nan
1,135,1,1,1.0,1.0,0.244178872555,0,0.0,0.0,0.0,0.300248453018,0.0941869645916,0.206061488427,0.39443541761,0.0941869645916,0.212304175831,397,-0.0275613476434,0.473159987783,-0.37569455347,nan,nan,nan,nan,0.0,0.0,0.0,nan,275.476420985,436.381500516,436.881561527,436.625679389,nan,nan,nan,nan
1,136,0,0,0.0,1.0,0.427916722372,0,0.0,0.0,0.0,0.299833122793,0.0939605593587,0.205872563434,0.393793682151,0.0939605593587,0.286790543857,160,1.0,-0.227501418013,0.158297521075,nan,nan,nan,nan,0.0,0.0,0.0,nan,275.476420985,437.381642494,437.881670434,437.809559217,nan,nan,nan,nan
1,137,1,1,1.0,1.0,0.291809311137,0,0.0,0.0,0.0,0.300774913966,0.094251852338,0.206523061628,0.395026766304,0.094251852338,0.321301635355,235,0.707591924495,0.164537776567,0.631659631194,nan,nan,nan,nan,0.0,0.0,0.0,nan,275.476420985,438.381729734,438.881784759,438.673539045,nan,nan,nan,nan
1,138,1,1,1.0,1.0,0.32362052612,0,0.0,0.0,0.0,0.30070947161,0.0939103385984,0.206799133011,0.394619810208,0.0939103385984,0.347782186543,181,1.0,-0.123914391386,0.3392011262,nan,nan,nan,nan,0.0,0.0,0.0,nan,275.476420985,439.381884542,439.881909061,439.705505068,nan,nan,nan,nan
1,139,1,1,1.0,1.0,0.315502650104,0,0.0,0.0,0.0,0.300875493744,0.0935896414041,0.20728585234,0.394465135148,0.0935896414041,0.31031082912,113,1.0,-0.302191989669,-0.314576349441,nan,nan,nan,nan,0.0,0.0,0.0,nan,275.476420985,440.382004854,440.882037356,440.697507504,nan,nan,nan,nan
1,140,1,1,1.0,1.0,0.259378007613,0,0.0,0.0,0.0,0.300980725084,0.0932605736653,0.207720151419,0.39424129875,0.0932605736653,0.299500394613,442,0.273907262724,0.421095538958,-1.0,nan,nan,nan,nan,0.0,0.0,0.0,nan,275.476420985,441.382159662,441.882151394,441.64153767,nan,nan,nan,nan
1,141,1,1,1.0,1.0,0.273173036054,0,0.0,0.0,0.0,0.300683562817,0.0929929234172,0.2076906394,0.393676486234,0.0929929234172,0.28268456459,128,1.0,-0.310663006781,-0.156689791083,nan,nan,nan,nan,0.0,0.0,0.0,nan,275.476420985,442.432278719,442.932296965,442.705451755,nan,nan,nan,nan
1,142,1,1,1.0,1.0,0.25705303438,0,0.0,0.0,0.0,0.300488452698,0.0926913276906,0.207797125007,0.393179780388,0.0926913276906,0.263201359349,346,-0.174317561957,0.466431294057,0.176670174816,nan,nan,nan,nan,0.0,0.0,0.0,nan,275.476420985,443.432404447,443.932422408,443.689457482,nan,nan,nan,nan
1,143,0,0,1.0,0.0,0.216921525076,0,0.0,0.0,0.0,0.30018256947,0.0924357616186,0.207746807852,0.392618331089,0.0924357616186,0.249049198503,89,1.0,-0.229484098413,-0.587370487375,nan,nan,nan,nan,0.0,0.0,0.0,nan,275.476420985,444.432542149,444.932583774,444.649463674,nan,nan,nan,nan
1,144,1,1,1.0,1.0,0.20079781767,0,0.0,0.0,0.0,0.299600324405,0.0923729316933,0.207227392711,0.391973256098,0.0923729316933,0.224924125709,38,1.0,0.0306259494545,-1.0,nan,nan,nan,nan,0.0,0.0,0.0,nan,275.476420985,445.432634236,445.932680137,445.633432054,nan,nan,nan,nan
1,145,1,1,1.0,1.0,0.200712858699,0,0.0,0.0,0.0,0.298914195886,0.0924165769084,0.206497618977,0.391330772794,0.0924165769084,0.206144067148,198,1.0,-0.0302354974571,0.462326941081,nan,nan,nan,nan,0.0,0.0,0.0,nan,275.476420985,446.432765095,446.932814417,446.633477954,nan,nan,nan,nan
1,146,1,1,1.0,1.0,0.264482684433,0,0.0,0.0,0.0,0.298236945284,0.0924552307953,0.205781714489,0.39069217608,0.0924552307953,0.221997786934,396,-0.0330153705648,0.473684876347,-0.363523780775,nan,nan,nan,nan,0.0,0.0,0.0,nan,275.476420985,447.432915627,447.932928742,447.697398311,nan,nan,nan,nan
1,147,1,1,1.0,1.0,0.256376783364,0,0.0,0.0,0.0,0.298005751717,0.0921801078392,0.205825643878,0.390185859556,0.0921801078392,0.240524108832,317,-0.077772836126,0.429938605076,0.420733606481,nan,nan,nan,nan,0.0,0.0,0.0,nan,275.476420985,448.433032517,448.933056465,448.689409301,nan,nan,nan,nan
1,148,1,1,1.0,1.0,0.272204844281,0,0.0,0.0,0.0,0.297722561456,0.0919297400729,0.205792821383,0.389652301529,0.0919297400729,0.264354770693,199,1.0,-0.0246761787097,0.468786302982,nan,nan,nan,nan,0.0,0.0,0.0,nan,275.476420985,449.43315739,449.933183905,449.705362234,nan,nan,nan,nan
1,149,1,1,1.0,1.0,0.240119365044,0,0.0,0.0,0.0,0.297550144448,0.0916424857712,0.205907658677,0.389192630219,0.0916424857712,0.25623366423,53,1.0,-0.049257555853,-1.0,nan,nan,nan,nan,0.0,0.0,0.0,nan,275.476420985,450.433276846,450.933314479,450.673396211,nan,nan,nan,nan
1,150,1,1,1.0,1.0,0.279900775291,0,0.0,0.0,0.0,0.297164702976,0.0914547325429,0.205709970433,0.388619435518,0.0914547325429,0.264074994872,274,0.289344050657,0.322900892411,0.632670269059,nan,nan,nan,nan,0.0,0.0,0.0,nan,275.476420985,451.433399153,451.933450186,451.713299928,nan,nan,nan,nan
1,151,1,1,1.0,1.0,0.279786165804,0,0.0,0.0,0.0,0.297049610124,0.0911601997883,0.205889410336,0.388209809913,0.0911601997883,0.266602102046,110,1.0,-0.296722754836,-0.346921960777,nan,nan,nan,nan,0.0,0.0,0.0,nan,275.476420985,452.43355111,452.933595016,452.713337276,nan,nan,nan,nan
1,152,1,1,1.0,1.0,0.279633067548,0,0.0,0.0,0.0,0.296935282678,0.0908686322232,0.206066650455,0.387803914902,0.0908686322232,0.279773336214,256,0.481312611765,0.257047908656,0.656065722404,nan,nan,nan,nan,0.0,0.0,0.0,nan,275.476420985,453.43368026,453.933699646,453.713313327,nan,nan,nan,nan
1,153,0,0,0.0,1.0,0.53541941382,0,0.0,0.0,0.0,0.296821452316,0.0905800298141,0.206241422502,0.38740148213,0.0905800298141,0.364946215724,466,0.464789014893,0.368385601135,-1.0,nan,nan,nan,nan,0.0,0.0,0.0,nan,275.476420985,454.433823949,454.933871846,454.969243363,nan,nan,nan,nan
1,154,1,1,1.0,1.0,0.287303909659,0,0.0,0.0,0.0,0.298380916116,0.0923080115388,0.206072904578,0.390688927655,0.0923080115388,0.367452130343,298,0.0600896634305,0.391050340636,0.53969689008,nan,nan,nan,nan,0.0,0.0,0.0,nan,275.476420985,455.433938273,455.933974766,455.721242183,nan,nan,nan,nan
1,155,1,1,1.0,1.0,0.239163431339,0,0.0,0.0,0.0,0.298308987503,0.0920121236873,0.206296863816,0.39032111119,0.0920121236873,0.353962251606,433,0.206536295144,0.436163724167,-1.0,nan,nan,nan,nan,0.0,0.0,0.0,nan,275.476420985,456.434064002,456.934081107,456.673227433,nan,nan,nan,nan
1,156,1,1,1.0,1.0,0.247059500776,0,0.0,0.0,0.0,0.29792740327,0.0918369939952,0.206090409275,0.389764397265,0.0918369939952,0.257842280592,81,1.0,-0.193804253699,-0.694219169772,nan,nan,nan,nan,0.0,0.0,0.0,nan,275.476420985,457.434191725,457.93423677,457.681251226,nan,nan,nan,nan
1,157,1,1,1.0,1.0,0.252863522619,0,0.0,0.0,0.0,0.297601326972,0.0916321430534,0.205969183918,0.389233470025,0.0916321430534,0.246362151578,494,0.698129958021,0.282143999684,-1.0,nan,nan,nan,nan,0.0,0.0,0.0,nan,275.476420985,458.484323326,458.984346705,458.737186849,nan,nan,nan,nan
1,158,1,1,1.0,1.0,0.316724294797,0,0.0,0.0,0.0,0.297316372804,0.0914091685475,0.205907204256,0.388725541351,0.0914091685475,0.272215772731,0,0.846831709088,0.212097570855,-1.0,nan,nan,nan,nan,0.0,0.0,0.0,nan,275.476420985,459.484445348,459.984479561,459.801169643,nan,nan,nan,nan
1,159,1,1,1.0,1.0,0.340560182929,0,0.0,0.0,0.0,0.297439207753,0.0911324377183,0.206306770035,0.388571645471,0.0911324377183,0.303382666782,228,0.780729811514,0.1302769546,0.611433142569,nan,nan,nan,nan,0.0,0.0,0.0,nan,275.476420985,460.484570791,460.984599016,460.825130974,nan,nan,nan,nan
1,160,1,1,1.0,1.0,0.316439766437,0,0.0,0.0,0.0,0.297710408855,0.0909093429947,0.20680106586,0.38861975185,0.0909093429947,0.324574748054,402,0.000724920831492,0.470139955471,-0.437811562499,nan,nan,nan,nan,0.0,0.0,0.0,nan,275.476420985,461.484700796,461.984718187,461.801140563,nan,nan,nan,nan
1,161,1,1,1.0,1.0,0.348282056861,0,0.0,0.0,0.0,0.29782746734,0.0906368258062,0.207190641534,0.388464293146,0.0906368258062,0.335094002075,478,0.56422249903,0.334793662244,-1.0,nan,nan,nan,nan,0.0,0.0,0.0,nan,275.476420985,462.484822818,462.984859881,462.833104875,nan,nan,nan,nan
1,162,1,1,1.0,1.0,0.348107292317,0,0.0,0.0,0.0,0.298140849883,0.0904418183924,0.207699031491,0.388582668276,0.0904418183924,0.337609705205,78,1.0,-0.179467652321,-0.739907630878,nan,nan,nan,nan,0.0,0.0,0.0,nan,275.476420985,463.484985609,463.984985324,463.833092901,nan,nan,nan,nan
1,163,1,1,1.0,1.0,0.300035523251,0,0.0,0.0,0.0,0.298449284713,0.0902471421096,0.208202142604,0.388696426823,0.0902471421096,0.332141624143,304,0.0113092810281,0.404708921832,0.506160370659,nan,nan,nan,nan,0.0,0.0,0.0,nan,275.476420985,464.485099933,464.985113903,464.785135456,nan,nan,nan,nan
1,164,1,1,1.0,1.0,0.283899271861,0,0.0,0.0,0.0,0.298459016238,0.0899699697502,0.208489046488,0.388428985988,0.0899699697502,0.310680695809,237,0.686387300223,0.174031846447,0.636349816437,nan,nan,nan,nan,0.0,0.0,0.0,nan,275.476420985,465.485209125,465.985238776,465.769108397,nan,nan,nan,nan
1,165,0,0,0.0,1.0,0.563687432557,0,0.0,0.0,0.0,0.298370237309,0.0897024129235,0.208667824385,0.388072650232,0.0897024129235,0.382540742556,481,0.589289488337,0.325611856148,-1.0,nan,nan,nan,nan,0.0,0.0,0.0,nan,275.476420985,466.485351389,466.985406699,467.049038822,nan,nan,nan,nan
1,166,1,1,1.0,1.0,0.267570578493,0,0.0,0.0,0.0,0.29997822031,0.0917703438458,0.208207876465,0.391748564156,0.0917703438458,0.371719094304,345,-0.173519535469,0.465595146217,0.186119282857,nan,nan,nan,nan,0.0,0.0,0.0,nan,275.476420985,467.485446897,467.985487951,467.753017476,nan,nan,nan,nan
1,167,1,1,1.0,1.0,0.219476572238,0,0.0,0.0,0.0,0.299782993552,0.0915278702037,0.208255123349,0.391310863756,0.0915278702037,0.350244861096,2,0.863024578927,0.203622855609,-1.0,nan,nan,nan,nan,0.0,0.0,0.0,nan,275.476420985,468.485589161,468.985625654,468.705065733,nan,nan,nan,nan
1,168,0,0,1.0,0.0,0.187287601642,0,0.0,0.0,0.0,0.299302116778,0.0914635090941,0.207838607684,0.390765625872,0.0914635090941,0.224778250791,325,-0.119404900653,0.442631039184,0.360186421743,nan,nan,nan,nan,0.0,0.0,0.0,nan,275.476420985,469.485737697,469.985788444,469.673025299,nan,nan,nan,nan
1,169,1,1,1.0,1.0,0.219158117659,0,0.0,0.0,0.0,0.298635363712,0.0915970516843,0.207038312028,0.390232415396,0.0915970516843,0.208640763847,434,0.213881816697,0.43461034373,-1.0,nan,nan,nan,nan,0.0,0.0,0.0,nan,275.476420985,470.485824937,470.9858945,470.704983055,nan,nan,nan,nan
1,170,1,1,1.0,1.0,0.338992714882,0,0.0,0.0,0.0,0.298165084149,0.0915288487356,0.206636235414,0.389693932885,0.0915288487356,0.248479478061,481,0.589289488337,0.325611856148,-1.0,nan,nan,nan,nan,0.0,0.0,0.0,nan,275.476420985,471.485956367,471.986037049,471.824949082,nan,nan,nan,nan
1,171,1,1,1.0,1.0,0.338840758428,0,0.0,0.0,0.0,0.298405246683,0.0913126396012,0.207092607082,0.389717886284,0.0913126396012,0.29899719699,120,1.0,-0.310161497659,-0.240162905937,nan,nan,nan,nan,0.0,0.0,0.0,nan,275.476420985,472.486108324,472.98615394,472.824949082,nan,nan,nan,nan
1,172,1,1,1.0,1.0,0.362680353224,0,0.0,0.0,0.0,0.298641711664,0.0910974401104,0.207544271554,0.389739151774,0.0910974401104,0.346837942178,212,0.93926288676,0.0467731277665,0.543851001166,nan,nan,nan,nan,0.0,0.0,0.0,nan,275.476420985,473.486228065,473.986257145,473.848908418,nan,nan,nan,nan
1,173,1,1,1.0,1.0,0.407500580885,0,0.0,0.0,0.0,0.299014029348,0.0909626252019,0.208051404146,0.389976654549,0.0909626252019,0.369673897512,147,1.0,-0.275801134503,0.0346720467303,nan,nan,nan,nan,0.0,0.0,0.0,nan,275.476420985,474.561401519,475.061397812,474.9689021,nan,nan,nan,nan
1,174,1,1,1.0,1.0,0.287395996973,0,0.0,0.0,0.0,0.299641119241,0.0910714500871,0.208569669154,0.390712569328,0.0910714500871,0.352525643694,280,0.228089347314,0.342018854333,0.61587222022,nan,nan,nan,nan,0.0,0.0,0.0,nan,275.476420985,475.561492465,476.061531523,475.848888461,nan,nan,nan,nan
1,175,1,1,1.0,1.0,0.269173398614,0,0.0,0.0,0.0,0.299570744975,0.0908140908197,0.208756654155,0.390384835795,0.0908140908197,0.321356658824,130,1.0,-0.309333154106,-0.136071487739,nan,nan,nan,nan,0.0,0.0,0.0,nan,275.476420985,476.611717578,477.111695911,476.880890977,nan,nan,nan,nan
1,176,1,1,1.0,1.0,0.261089734733,0,0.0,0.0,0.0,0.299397045853,0.0905832327776,0.208813813075,0.38998027863,0.0905832327776,0.27255304344,432,0.199227897075,0.437687328843,-1.0,nan,nan,nan,nan,0.0,0.0,0.0,nan,275.476420985,477.6117669,478.11179541,477.872856635,nan,nan,nan,nan
1,177,1,1,1.0,1.0,0.252947626635,0,0.0,0.0,0.0,0.299179390676,0.090371407664,0.208807983012,0.38955079834,0.090371407664,0.261070253327,484,0.614398947124,0.316112737715,-1.0,nan,nan,nan,nan,0.0,0.0,0.0,nan,275.476420985,478.611891203,479.111922278,478.864838829,nan,nan,nan,nan
1,178,0,0,0.0,1.0,0.468776656315,0,0.0,0.0,0.0,0.298918194269,0.0901823567908,0.208735837478,0.38910055106,0.0901823567908,0.327604672561,232,0.739158239773,0.150046616059,0.623712016981,nan,nan,nan,nan,0.0,0.0,0.0,nan,275.476420985,479.612034037,480.112063972,480.080810693,nan,nan,nan,nan
1,179,1,1,1.0,1.0,0.228707754053,0,0.0,0.0,0.0,0.299872455292,0.0908204049838,0.209052050308,0.390692860276,0.0908204049838,0.316810679001,428,0.170378320166,0.443486568519,-0.86866140055,nan,nan,nan,nan,0.0,0.0,0.0,nan,275.476420985,480.612139238,481.112181433,480.840846992,nan,nan,nan,nan
1,180,1,1,1.0,1.0,0.21254612878,0,0.0,0.0,0.0,0.299474887128,0.0907215551868,0.208753331942,0.390196442315,0.0907215551868,0.303343513049,181,1.0,-0.123914391386,0.3392011262,nan,nan,nan,nan,0.0,0.0,0.0,nan,275.476420985,481.612270668,482.112329398,481.824816797,nan,nan,nan,nan
1,181,1,1,1.0,1.0,0.244447149336,0,0.0,0.0,0.0,0.298991949582,0.0906996364957,0.208292313086,0.389691586078,0.0906996364957,0.228567010723,376,-0.124962824795,0.478704673615,-0.132627625282,nan,nan,nan,nan,0.0,0.0,0.0,nan,275.476420985,482.612400102,483.112452845,482.856847252,nan,nan,nan,nan
1,182,0,0,1.0,0.0,0.252192402259,0,0.0,0.0,0.0,0.298690597095,0.0905390556704,0.208151541424,0.389229652765,0.0905390556704,0.236395226792,293,0.103830259013,0.378659598285,0.564617056734,nan,nan,nan,nan,0.0,0.0,0.0,nan,275.476420985,483.612554055,484.112574012,483.864746457,nan,nan,nan,nan
1,183,1,1,1.0,1.0,0.236161066219,0,0.0,0.0,0.0,0.298435112508,0.090355379908,0.208079732599,0.388790492416,0.090355379908,0.244266872605,111,1.0,-0.298677811705,-0.336106236365,nan,nan,nan,nan,0.0,0.0,0.0,nan,275.476420985,484.612651274,485.112671515,484.84881234,nan,nan,nan,nan
1,184,1,1,1.0,1.0,0.211595612578,0,0.0,0.0,0.0,0.298094817173,0.090225040347,0.207869776826,0.38831985752,0.090225040347,0.233316360352,364,-0.160194321586,0.476704516321,-0.00341124574885,nan,nan,nan,nan,0.0,0.0,0.0,nan,275.476420985,485.621130938,486.121130083,485.83272655,nan,nan,nan,nan
1,185,1,1,1.0,1.0,0.259529680014,0,0.0,0.0,0.0,0.2976247128,0.0902039821698,0.20742073063,0.38782869497,0.0902039821698,0.235762119604,136,1.0,-0.301914900238,-0.074841205769,nan,nan,nan,nan,0.0,0.0,0.0,nan,275.476420985,486.621248398,487.121289738,486.880778078,nan,nan,nan,nan
1,186,1,1,1.0,1.0,0.259347788058,0,0.0,0.0,0.0,0.297418793704,0.0900032111289,0.207415582575,0.387422004833,0.0900032111289,0.243491026883,502,0.764740937618,0.25241357569,-1.0,nan,nan,nan,nan,0.0,0.0,0.0,nan,275.476420985,487.621377832,488.121411759,487.88072562,nan,nan,nan,nan
1,187,1,1,1.0,1.0,0.267192538828,0,0.0,0.0,0.0,0.297214110878,0.0898041040531,0.207410006825,0.387018214931,0.0898041040531,0.262023335633,29,1.0,0.0770173926463,-1.0,nan,nan,nan,nan,0.0,0.0,0.0,nan,275.476420985,488.621501565,489.121521807,488.888694104,nan,nan,nan,nan
1,188,1,1,1.0,1.0,0.243023371324,0,0.0,0.0,0.0,0.297053567712,0.0895904232527,0.207463144459,0.386643990964,0.0895904232527,0.256521232737,446,0.304696255059,0.41359904426,-1.0,nan,nan,nan,nan,0.0,0.0,0.0,nan,275.476420985,489.621633565,490.121655233,489.864656936,nan,nan,nan,nan
1,189,1,1,1.0,1.0,0.242888235487,0,0.0,0.0,0.0,0.29676617305,0.0894382215956,0.207327951454,0.386204394646,0.0894382215956,0.251034715213,347,-0.174938837379,0.46723881498,0.167157479366,nan,nan,nan,nan,0.0,0.0,0.0,nan,275.476420985,490.621737055,491.121780961,490.864625291,nan,nan,nan,nan
1,190,1,1,1.0,1.0,0.274683769792,0,0.0,0.0,0.0,0.296481104597,0.0892868933989,0.207194211198,0.385767997996,0.0892868933989,0.253531792201,58,1.0,-0.0760896648475,-1.0,nan,nan,nan,nan,0.0,0.0,0.0,nan,275.476420985,491.621891294,492.121903553,491.896575063,nan,nan,nan,nan
1,191,1,1,1.0,1.0,0.250665702857,0,0.0,0.0,0.0,0.296366381782,0.0890655833777,0.207300798405,0.38543196516,0.0890655833777,0.256079236045,379,-0.113535935895,0.478614986251,-0.165970515924,nan,nan,nan,nan,0.0,0.0,0.0,nan,275.476420985,492.622005048,493.122042681,492.872670751,nan,nan,nan,nan
1,192,1,1,1.0,1.0,0.0568573437631,0,1.0,0.0,0.0,0.296127111212,0.0888933258081,0.207233785404,0.38502043702,0.0888933258081,0.194068938804,200,1.0,-0.0191209939188,0.47515178387,nan,nan,nan,nan,0.0,0.0,0.0,nan,275.476420985,493.623714495,494.122203476,493.680571838,nan,nan,nan,nan
1,193,1,1,1.0,1.0,0.234313348308,1,0.0,0.0,1.0,0.294880914507,0.0903188307673,0.204562083739,0.385199745274,0.0903188307673,0.180612131643,154,1.0,-0.251813147593,0.102138173725,-23.6001898679,113.600189868,5.31893986792,162.0,1.0,-0.218739557155,0.176632971453,2.21726506762,275.476420985,494.622246525,495.122324358,494.856559874,498.68940816,499.700374733,496.45578703,498.681080738
1,194,1,1,1.0,1.0,0.438199060038,0,0.0,0.0,0.0,0.29456709292,0.0901894302186,0.204377662702,0.384756523139,0.0901894302186,0.243123250703,397,-0.0275613476434,0.473159987783,-0.37569455347,nan,nan,nan,nan,0.0,0.0,0.0,nan,275.476420985,499.906249858,500.406293763,500.344448918,nan,nan,nan,nan
1,195,1,1,1.0,1.0,0.28568997141,0,0.0,0.0,0.0,0.295307463885,0.0905427942453,0.204764669639,0.38585025813,0.0905427942453,0.319400793252,178,1.0,-0.139919655122,0.315097826042,nan,nan,nan,nan,0.0,0.0,0.0,nan,275.476420985,500.914749194,501.414767725,501.200439165,nan,nan,nan,nan
1,196,1,1,1.0,1.0,0.277585210279,0,0.0,0.0,0.0,0.29525814341,0.090312947484,0.204945195926,0.385571090894,0.090312947484,0.333824747242,224,0.821619416966,0.11002478857,0.597264883709,nan,nan,nan,nan,0.0,0.0,0.0,nan,275.476420985,501.914864088,502.414891458,502.192449299,nan,nan,nan,nan
1,197,1,1,1.0,1.0,0.221502762288,0,0.0,0.0,0.0,0.295167975384,0.0900910620174,0.205076913367,0.385259037402,0.0900910620174,0.261592647992,3,0.871087178923,0.199335109687,-1.0,nan,nan,nan,nan,0.0,0.0,0.0,nan,275.476420985,502.91498554,503.415049402,503.136488303,nan,nan,nan,nan
1,198,1,1,1.0,1.0,0.237349924631,0,0.0,0.0,0.0,0.294794040292,0.0900144746081,0.204779565684,0.384808514901,0.0900144746081,0.245479299066,255,0.492159363509,0.253017189294,0.656163111527,nan,nan,nan,nan,0.0,0.0,0.0,nan,275.476420985,503.915126379,504.415169143,504.152476303,nan,nan,nan,nan
1,199,1,1,1.0,1.0,0.301138851792,0,0.0,0.0,0.0,0.294503918496,0.0898791689305,0.204624749566,0.384383087427,0.0898791689305,0.253330512904,391,-0.0591907973189,0.475916278612,-0.303718712187,nan,nan,nan,nan,0.0,0.0,0.0,nan,275.476420985,504.915240703,505.415298862,505.216379555,nan,nan,nan,nan
1,200,1,1,1.0,1.0,0.22900910303,0,0.0,0.0,0.0,0.29453725987,0.089654284991,0.204882974878,0.384191544861,0.089654284991,0.255832626484,133,1.0,-0.306259573676,-0.105336427414,nan,nan,nan,nan,0.0,0.0,0.0,nan,275.476420985,505.915375554,506.415388954,506.144384657,nan,nan,nan,nan
1,201,1,1,1.0,1.0,0.196878007613,0,0.0,0.0,0.0,0.294209619085,0.0895492250741,0.204660394011,0.383758844159,0.0895492250741,0.242341987478,47,1.0,-0.0170755915744,-1.0,nan,nan,nan,nan,0.0,0.0,0.0,nan,275.476420985,506.915516392,507.415514112,507.1123944,nan,nan,nan,nan
1,202,1,1,1.0,1.0,0.268713250756,0,0.0,0.0,0.0,0.293725382212,0.0895883080644,0.204137074148,0.383313690277,0.0895883080644,0.2315334538,314,-0.0594438881467,0.42463230952,0.441925406839,nan,nan,nan,nan,0.0,0.0,0.0,nan,275.476420985,507.915608194,508.415652384,508.184321444,nan,nan,nan,nan
1,203,1,1,1.0,1.0,0.284547299147,0,0.0,0.0,0.0,0.293601559779,0.0893835201705,0.204218039609,0.38298507995,0.0893835201705,0.250046185839,420,0.1146601879,0.45369410126,-0.695047497311,nan,nan,nan,nan,0.0,0.0,0.0,nan,275.476420985,508.915762147,509.415784669,509.200309446,nan,nan,nan,nan
1,204,1,1,1.0,1.0,0.356359449215,0,0.0,0.0,0.0,0.29355695751,0.0891653453515,0.204391612159,0.382722302862,0.0891653453515,0.303206666373,215,0.910639861846,0.0628947364355,0.558695148714,nan,nan,nan,nan,0.0,0.0,0.0,nan,275.476420985,509.91588873,510.415914104,510.27224818,nan,nan,nan,nan
1,205,1,1,1.0,1.0,0.308257459663,0,0.0,0.0,0.0,0.293864812862,0.0890546196588,0.204810193203,0.382919432521,0.0890546196588,0.316388069342,143,1.0,-0.287057525782,-0.00469998909502,nan,nan,nan,nan,0.0,0.0,0.0,nan,275.476420985,510.916009896,511.416044109,511.224267356,nan,nan,nan,nan
1,206,1,1,1.0,1.0,0.348074221984,0,0.0,0.0,0.0,0.293935020895,0.0888428070698,0.205092213825,0.382777827965,0.0888428070698,0.337563710287,365,-0.157962026257,0.477016591838,-0.0139196855225,nan,nan,nan,nan,0.0,0.0,0.0,nan,275.476420985,511.916143607,512.416155011,512.264217829,nan,nan,nan,nan
1,207,1,1,1.0,1.0,0.27688729018,0,0.0,0.0,0.0,0.294197832551,0.0887067526279,0.205491079923,0.382904585179,0.0887067526279,0.311072990609,318,-0.0835627602325,0.431640264478,0.413481556053,nan,nan,nan,nan,0.0,0.0,0.0,nan,275.476420985,512.947336446,513.449631198,513.224223736,nan,nan,nan,nan
1,208,1,1,1.0,1.0,0.266514291987,0,0.0,0.0,0.0,0.294114206742,0.0885003651129,0.205613841629,0.382614571855,0.0885003651129,0.297158601383,464,0.448404880525,0.373503555275,-1.0,nan,nan,nan,nan,0.0,0.0,0.0,nan,275.476420985,513.949719578,514.449785436,514.21623387,nan,nan,nan,nan
1,209,1,1,1.0,1.0,0.250329858623,0,0.0,0.0,0.0,0.293981514844,0.0883080061165,0.205673508728,0.382289520961,0.0883080061165,0.26457714693,97,1.0,-0.260369742894,-0.491718830742,nan,nan,nan,nan,0.0,0.0,0.0,nan,275.476420985,514.94984217,515.449879233,515.200172029,nan,nan,nan,nan
1,210,0,0,1.0,0.0,0.242241918109,0,0.0,0.0,0.0,0.293772655245,0.0881479717877,0.205624683457,0.381920627033,0.0881479717877,0.253028689573,299,0.0516645560415,0.393417669654,0.534378752182,nan,nan,nan,nan,0.0,0.0,0.0,nan,275.476420985,515.95001494,516.450037748,516.192256858,nan,nan,nan,nan
1,211,1,1,1.0,1.0,0.170132695697,0,0.0,0.0,0.0,0.293527270783,0.0880093702386,0.205517900544,0.381536641021,0.0880093702386,0.22090149081,377,-0.121259861678,0.478700828387,-0.143695900877,nan,nan,nan,nan,0.0,0.0,0.0,nan,275.476420985,516.950118145,517.450174309,517.120250841,nan,nan,nan,nan
1,212,1,1,1.0,1.0,0.225916931406,0,0.0,0.0,0.0,0.29294246237,0.0882086174722,0.204733844898,0.381151079842,0.0882086174722,0.212763848404,277,0.258470646878,0.33263615818,0.624824240443,nan,nan,nan,nan,0.0,0.0,0.0,nan,275.476420985,517.95021907,518.450310016,518.176136001,nan,nan,nan,nan
1,213,1,1,1.0,1.0,0.2497810442,0,0.0,0.0,0.0,0.292626304205,0.0881200840343,0.204506220171,0.380746388239,0.0881200840343,0.215276890434,234,0.71814774995,0.15974031316,0.62913160129,nan,nan,nan,nan,0.0,0.0,0.0,nan,275.476420985,518.9503639,519.450418638,519.200144944,nan,nan,nan,nan
1,214,0,0,0.0,1.0,0.481567285024,0,0.0,0.0,0.0,0.292425152749,0.0879617589361,0.204463393813,0.380386911686,0.0879617589361,0.31908842021,39,1.0,0.0253789930673,-1.0,nan,nan,nan,nan,0.0,0.0,0.0,nan,275.476420985,519.950526405,520.450544937,520.43209369,nan,nan,nan,nan
1,215,1,1,1.0,1.0,0.217516809702,0,0.0,0.0,0.0,0.293308994489,0.0886989633424,0.204610031147,0.382007957831,0.0886989633424,0.316288379642,322,-0.105067232891,0.43811622051,0.383559350674,nan,nan,nan,nan,0.0,0.0,0.0,nan,275.476420985,520.950649567,521.450658405,521.168166377,nan,nan,nan,nan
1,216,1,1,1.0,1.0,0.18539882917,0,0.0,0.0,0.0,0.292956472699,0.0886425810286,0.204313891671,0.381599053728,0.0886425810286,0.294827641298,14,0.95801504718,0.150023555696,-1.0,nan,nan,nan,nan,0.0,0.0,0.0,nan,275.476420985,521.950752202,522.450805231,522.136151032,nan,nan,nan,nan
1,217,1,1,1.0,1.0,0.169242050499,0,1.0,0.0,0.0,0.292458520646,0.0887380437952,0.203720476851,0.381196564441,0.0887380437952,0.19071922979,200,1.0,-0.0191209939188,0.47515178387,nan,nan,nan,nan,0.0,0.0,0.0,nan,275.476420985,522.950866527,523.4509053,523.120108577,nan,nan,nan,nan
1,218,1,1,1.0,1.0,0.233032118529,1,0.0,0.0,1.0,0.291890702811,0.0889257823409,0.20296492047,0.380816485152,0.0889257823409,0.195890999399,358,-0.170583909915,0.474268316859,0.0585874414746,-148.820684743,238.820684743,-12.8980652574,340.0,-0.166837174664,0.460980112934,0.232376404312,28.8289130814,275.476420985,523.95103616,524.451050985,524.184068278,554.629882015,555.64101366,525.784550721,554.621565998
1,219,1,1,1.0,1.0,0.367007567547,0,0.0,0.0,0.0,0.291620709305,0.0888106920142,0.202810017291,0.38043140132,0.0888106920142,0.256427245525,415,0.0813077335083,0.459153678902,-0.614968023274,nan,nan,nan,nan,0.0,0.0,0.0,nan,275.476420985,555.888441223,556.388437516,556.25544879,nan,nan,nan,nan
1,220,1,1,1.0,1.0,0.350895834155,0,0.0,0.0,0.0,0.291964941535,0.0887533428095,0.203211598725,0.380718284344,0.0887533428095,0.316978506744,479,0.572572153349,0.331768222426,-1.0,nan,nan,nan,nan,0.0,0.0,0.0,nan,275.476420985,556.888532739,557.388586623,557.239428573,nan,nan,nan,nan
1,221,1,1,1.0,1.0,0.310741231777,0,0.0,0.0,0.0,0.292232809228,0.088640084246,0.203592724982,0.380872893474,0.088640084246,0.342881544493,415,0.0813077335083,0.459153678902,-0.614968023274,nan,nan,nan,nan,0.0,0.0,0.0,nan,275.476420985,557.888677283,558.388707789,558.199418515,nan,nan,nan,nan
1,222,1,1,1.0,1.0,0.278607000597,0,0.0,0.0,0.0,0.292316557747,0.0884480369826,0.203868520764,0.380764594729,0.0884480369826,0.313414688843,276,0.268710435127,0.329430325417,0.627563005949,nan,nan,nan,nan,0.0,0.0,0.0,nan,275.476420985,558.888785335,559.388830381,559.167392336,nan,nan,nan,nan
1,223,1,1,1.0,1.0,0.246539482847,0,0.0,0.0,0.0,0.292254802985,0.0882533799651,0.20400142302,0.38050818295,0.0882533799651,0.278629238407,351,-0.175686286722,0.4701852659,0.128489978773,nan,nan,nan,nan,0.0,0.0,0.0,nan,275.476420985,559.888932161,560.388992887,560.135471644,nan,nan,nan,nan
1,224,1,1,1.0,1.0,0.262393201701,0,0.0,0.0,0.0,0.292049801549,0.0881082404411,0.203941561108,0.38015804199,0.0881082404411,0.262513228382,463,0.440238315199,0.376011795327,-1.0,nan,nan,nan,nan,0.0,0.0,0.0,nan,275.476420985,560.889065302,561.389078416,561.151458504,nan,nan,nan,nan
1,225,1,1,1.0,1.0,0.190258321352,0,0.0,0.0,0.0,0.291917406014,0.0879335793626,0.203983826652,0.379850985377,0.0879335793626,0.233063668634,231,0.749609680972,0.145151270079,0.620821461523,nan,nan,nan,nan,0.0,0.0,0.0,nan,275.476420985,561.889165941,562.389216973,562.079424262,nan,nan,nan,nan
1,226,1,1,1.0,1.0,0.238072932698,0,0.0,0.0,0.0,0.29146558786,0.0879981580385,0.203467429822,0.379463745899,0.0879981580385,0.23024148525,36,1.0,0.0410699577143,-1.0,nan,nan,nan,nan,0.0,0.0,0.0,nan,275.476420985,562.889310486,563.389344698,563.127383418,nan,nan,nan,nan
1,227,1,1,1.0,1.0,0.221961769275,0,0.0,0.0,0.0,0.291229337174,0.0878747404145,0.203354596759,0.379104077588,0.0878747404145,0.216764341109,325,-0.119404900653,0.442631039184,0.360186421743,nan,nan,nan,nan,0.0,0.0,0.0,nan,275.476420985,563.889420249,564.389458736,564.111382018,nan,nan,nan,nan
1,228,1,1,1.0,1.0,0.173794207163,0,0.0,0.0,0.0,0.290924193703,0.0878008880791,0.203123305624,0.378725081782,0.0878008880791,0.211276303045,130,1.0,-0.309333154106,-0.136071487739,nan,nan,nan,nan,0.0,0.0,0.0,nan,275.476420985,564.889552249,565.389596154,565.063346456,nan,nan,nan,nan
1,229,1,1,1.0,1.0,0.229646581225,0,0.0,0.0,0.0,0.290410465692,0.0879493808978,0.202461084794,0.378359846589,0.0879493808978,0.208467519221,494,0.698129958021,0.282143999684,-1.0,nan,nan,nan,nan,0.0,0.0,0.0,nan,275.476420985,565.889696223,566.389737277,566.119342804,nan,nan,nan,nan
1,230,1,1,1.0,1.0,0.0934559218585,0,1.0,0.0,0.0,0.290145121218,0.0878485563469,0.202296564871,0.377993677565,0.0878485563469,0.165632236749,274,0.289344050657,0.322900892411,0.632670269059,nan,nan,nan,nan,0.0,0.0,0.0,nan,275.476420985,566.889817675,567.389888949,566.983273597,nan,nan,nan,nan
1,231,1,1,1.0,1.0,0.0853243619204,1,0.0,0.0,1.0,0.289289950786,0.0886074858335,0.200682464952,0.377897436619,0.0886074858335,0.136142288335,357,-0.1717918326,0.473767524415,0.068739031695,-160.229177722,250.229177722,-0.786447278337,356.0,-0.17284377641,0.473239407326,0.0788368070227,2.36727128271,275.476420985,567.889935135,568.390020665,567.975259497,572.098793808,573.097140526,569.71514337,572.090464106
1,232,1,1,1.0,1.0,0.340148787014,0,0.0,0.0,0.0,0.288406982869,0.0894237872779,0.198983195591,0.377830770147,0.0894237872779,0.172976356931,166,1.0,-0.20036215083,0.21267421211,nan,nan,nan,nan,0.0,0.0,0.0,nan,275.476420985,573.298971823,573.79900347,573.63912061,nan,nan,nan,nan
1,233,1,1,1.0,1.0,0.260062527843,0,0.0,0.0,0.0,0.288630007887,0.08929521569,0.199334792197,0.377925223577,0.08929521569,0.228511892259,473,0.522594813828,0.349396171415,-1.0,nan,nan,nan,nan,0.0,0.0,0.0,nan,275.476420985,574.299098122,574.799135755,574.55916065,nan,nan,nan,nan
1,234,1,1,1.0,1.0,0.243951649405,0,0.0,0.0,0.0,0.288507400676,0.0891229570866,0.19938444359,0.377630357763,0.0891229570866,0.281387654754,321,-0.0999433513493,0.43654647086,0.391174984052,nan,nan,nan,nan,0.0,0.0,0.0,nan,275.476420985,575.299228697,575.799259773,575.543180346,nan,nan,nan,nan
1,235,1,1,1.0,1.0,0.259782276116,0,0.0,0.0,0.0,0.288316991483,0.0889798012216,0.199337190261,0.377296792704,0.0889798012216,0.254598817788,465,0.456588679398,0.37096152752,-1.0,nan,nan,nan,nan,0.0,0.0,0.0,nan,275.476420985,576.299353,576.799382934,576.559135276,nan,nan,nan,nan
1,236,1,1,1.0,1.0,0.267593101598,0,0.0,0.0,0.0,0.288195567162,0.0888097067037,0.199385860458,0.377005273866,0.0888097067037,0.25710900904,267,0.362924526182,0.298807232282,0.646622522267,nan,nan,nan,nan,0.0,0.0,0.0,nan,275.476420985,577.299475307,577.799506382,577.567068408,nan,nan,nan,nan
1,237,1,1,1.0,1.0,0.227441064082,0,0.0,0.0,0.0,0.288108268579,0.0886314547062,0.199476813873,0.376739723285,0.0886314547062,0.251605480599,87,1.0,-0.220959007447,-0.612675615602,nan,nan,nan,nan,0.0,0.0,0.0,nan,275.476420985,578.299622702,578.799641519,578.527063766,nan,nan,nan,nan
1,238,1,1,1.0,1.0,0.203340319917,0,0.0,0.0,0.0,0.287852288813,0.0885316502624,0.199320638551,0.376383939076,0.0885316502624,0.232791495199,214,0.920243657418,0.0575410437433,0.553854850604,nan,nan,nan,nan,0.0,0.0,0.0,nan,275.476420985,579.299724197,579.799769242,579.503064517,nan,nan,nan,nan
1,239,0,0,1.0,0.0,0.171170451678,0,0.0,0.0,0.0,0.287497196507,0.0885144304716,0.198982766035,0.376011626979,0.0885144304716,0.200650611892,273,0.299732959835,0.319577193062,0.635038033336,nan,nan,nan,nan,0.0,0.0,0.0,nan,275.476420985,580.299881856,580.799923196,580.471052308,nan,nan,nan,nan
1,240,1,1,1.0,1.0,0.179078780115,0,0.0,0.0,0.0,0.287010473725,0.0886476439118,0.198362829813,0.375658117637,0.0886476439118,0.18452985057,166,1.0,-0.20036215083,0.21267421211,nan,nan,nan,nan,0.0,0.0,0.0,nan,275.476420985,581.299975083,581.800057476,581.479053863,nan,nan,nan,nan
1,241,0,0,1.0,0.0,0.130886700004,0,0.0,0.0,0.0,0.286560758335,0.0887355493455,0.19782520899,0.375296307681,0.0887355493455,0.160378643932,213,0.929785093221,0.0521668813814,0.548906519778,nan,nan,nan,nan,0.0,0.0,0.0,nan,275.476420985,582.300143005,582.800197174,582.431029705,nan,nan,nan,nan
1,242,1,1,1.0,1.0,0.218822557479,0,0.0,0.0,0.0,0.285914807886,0.0891149033772,0.196799904509,0.375029711263,0.0891149033772,0.176262679199,426,0.156193047225,0.446210853967,-0.81485970128,nan,nan,nan,nan,0.0,0.0,0.0,nan,275.476420985,583.300239368,583.8002847,583.519061926,nan,nan,nan,nan
1,243,1,1,1.0,1.0,0.298562708311,0,0.0,0.0,0.0,0.285637567182,0.0890346779016,0.19660288928,0.374672245083,0.0890346779016,0.216090655265,101,1.0,-0.273572672894,-0.446152610616,nan,nan,nan,nan,0.0,0.0,0.0,nan,275.476420985,584.300385053,584.800407576,584.598947762,nan,nan,nan,nan
1,244,0,0,1.0,0.0,0.274442291819,0,0.0,0.0,0.0,0.285690757063,0.0888551428557,0.196835614207,0.374545899918,0.0888551428557,0.263942519203,204,1.0,0.00303256528985,0.499654420455,nan,nan,nan,nan,0.0,0.0,0.0,nan,275.476420985,585.300501944,585.800562955,585.574944235,nan,nan,nan,nan
1,245,1,1,1.0,1.0,0.202325372025,0,0.0,0.0,0.0,0.285644656795,0.088675787663,0.196968869132,0.374320444458,0.088675787663,0.258443457385,57,1.0,-0.0707313323512,-1.0,nan,nan,nan,nan,0.0,0.0,0.0,nan,275.476420985,586.300649339,586.80069353,586.502974711,nan,nan,nan,nan
1,246,0,0,0.0,1.0,0.394120370969,0,0.0,0.0,0.0,0.285304578082,0.0886539299083,0.196650648174,0.37395850799,0.0886539299083,0.290296011604,199,1.0,-0.0246761787097,0.468786302982,nan,nan,nan,nan,0.0,0.0,0.0,nan,275.476420985,587.30078419,587.800813556,587.694904561,nan,nan,nan,nan
1,247,1,1,1.0,1.0,0.31400560122,0,0.0,0.0,0.0,0.285746918703,0.0887440589731,0.19700285973,0.374490977677,0.0887440589731,0.303483781405,246,0.589768841079,0.215019897151,0.651339528662,nan,nan,nan,nan,0.0,0.0,0.0,nan,275.476420985,588.300892813,588.800938998,588.614898414,nan,nan,nan,nan
1,248,1,1,1.0,1.0,0.369836023077,0,0.0,0.0,0.0,0.285861326325,0.088582409511,0.197278916814,0.374443735836,0.088582409511,0.359320665089,20,1.0,0.121558187834,-1.0,nan,nan,nan,nan,0.0,0.0,0.0,nan,275.476420985,589.30102909,589.801051612,589.670865113,nan,nan,nan,nan
1,249,1,1,1.0,1.0,0.337692668661,0,0.0,0.0,0.0,0.286199933973,0.0885636640905,0.197636269883,0.374763598064,0.0885636640905,0.340511430986,289,0.140592130943,0.368073254824,0.582505265782,nan,nan,nan,nan,0.0,0.0,0.0,nan,275.476420985,590.301143984,590.80117449,590.638836653,nan,nan,nan,nan
1,250,1,1,1.0,1.0,0.393616602756,0,0.0,0.0,0.0,0.286406732104,0.0884456236466,0.197961108458,0.374852355751,0.0884456236466,0.367048431498,365,-0.157962026257,0.477016591838,-0.0139196855225,nan,nan,nan,nan,0.0,0.0,0.0,nan,275.476420985,591.301257738,591.801303924,591.694874341,nan,nan,nan,nan
1,251,1,1,1.0,1.0,0.369369888678,0,0.0,0.0,0.0,0.286835571587,0.088527564922,0.198308006665,0.375363136509,0.088527564922,0.366893053365,78,1.0,-0.179467652321,-0.739907630878,nan,nan,nan,nan,0.0,0.0,0.0,nan,275.476420985,592.301433928,592.801431078,592.670803817,nan,nan,nan,nan
1,252,1,1,1.0,1.0,0.377219201066,0,0.0,1.0,0.0,0.287164393568,0.088503881837,0.198660511731,0.375668275405,0.088503881837,0.380068564167,375,-0.128556699755,0.478682433309,-0.121605159467,nan,nan,nan,nan,0.0,0.0,0.0,nan,275.476420985,593.301559942,593.801563078,593.678779143,nan,nan,nan,nan
1,253,1,1,1.0,1.0,0.401089016348,1,0.0,0.0,1.0,0.287521753915,0.0885093685852,0.19901238533,0.3760311225,0.0885093685852,0.382559368697,238,0.675741828754,0.178727669763,0.638511091232,-88.7269699799,178.72696998,11.3832199799,254.0,0.503011129055,0.248947817922,0.65613358125,2.15057812072,275.476420985,594.301676547,594.801685099,594.702765564,598.293785039,599.304692882,596.12686397,598.28545277
1,254,1,1,1.0,1.0,0.424386640079,0,0.0,0.0,0.0,0.287970636375,0.0886212227376,0.199349413637,0.376591859113,0.0886212227376,0.400898285831,308,-0.0186828559465,0.413097475488,0.481682330771,nan,nan,nan,nan,0.0,0.0,0.0,nan,275.476420985,599.502303306,600.002338088,599.926689946,nan,nan,nan,nan
1,255,1,1,1.0,1.0,0.320225009695,0,0.0,0.0,0.0,0.288507707256,0.0888581880062,0.199649519249,0.377365895262,0.0888581880062,0.381900222041,3,0.871087178923,0.199335109687,-1.0,nan,nan,nan,nan,0.0,0.0,0.0,nan,275.476420985,600.502441294,601.002480351,600.822666303,nan,nan,nan,nan
1,256,0,0,0.0,1.0,0.464048024267,0,0.0,0.0,0.0,0.288632088834,0.0887059373406,0.199926151493,0.377338026174,0.0887059373406,0.402886558014,82,1.0,-0.198479155091,-0.679872484948,nan,nan,nan,nan,0.0,0.0,0.0,nan,275.476420985,601.502598382,602.002629173,601.966646406,nan,nan,nan,nan
1,257,1,1,1.0,1.0,0.29590987321,0,0.0,0.0,0.0,0.289317307332,0.0892061363375,0.200111170994,0.378523443669,0.0892061363375,0.360060969057,400,-0.0107874812989,0.471427301814,-0.412692688905,nan,nan,nan,nan,0.0,0.0,0.0,nan,275.476420985,602.502715842,603.002734658,602.798625715,nan,nan,nan,nan
1,258,1,1,1.0,1.0,0.295803246088,0,0.0,0.0,0.0,0.289342959339,0.0890333604122,0.200309598927,0.378376319751,0.0890333604122,0.351920381188,348,-0.175384772129,0.468017843042,0.157582163916,nan,nan,nan,nan,0.0,0.0,0.0,nan,275.476420985,603.502814772,604.002907143,603.798618018,nan,nan,nan,nan
1,259,1,1,1.0,1.0,0.351621693932,0,0.0,0.0,0.0,0.28936799921,0.0888615543036,0.200506444907,0.378229553514,0.0888615543036,0.314444937743,188,1.0,-0.0857393506835,0.392804289229,nan,nan,nan,nan,0.0,0.0,0.0,nan,275.476420985,604.50297072,605.00298355,604.854592414,nan,nan,nan,nan
1,260,1,1,1.0,1.0,0.36747740861,0,0.0,0.0,0.0,0.289608360966,0.0887738335843,0.200834527381,0.37838219455,0.0887738335843,0.338300782877,465,0.456588679398,0.37096152752,-1.0,nan,nan,nan,nan,0.0,0.0,0.0,nan,275.476420985,605.503089606,606.003116975,605.870567014,nan,nan,nan,nan
1,261,1,1,1.0,1.0,0.327325372025,0,0.0,0.0,0.0,0.289907857303,0.0887339539376,0.201173903365,0.37864181124,0.0887339539376,0.348808158189,375,-0.128556699755,0.478682433309,-0.121605159467,nan,nan,nan,nan,0.0,0.0,0.0,nan,275.476420985,606.503228163,607.003242133,606.830553535,nan,nan,nan,nan
1,262,1,1,1.0,1.0,0.295188575052,0,0.0,0.0,0.0,0.290051219428,0.0885939659024,0.201457253526,0.378645185331,0.0885939659024,0.329997118562,62,1.0,-0.0974372467467,-1.0,nan,nan,nan,nan,0.0,0.0,0.0,nan,275.476420985,607.503376414,608.003369002,607.798564989,nan,nan,nan,nan
1,263,1,1,1.0,1.0,0.311056263745,0,0.0,0.0,0.0,0.290070827656,0.0884252992408,0.201645528415,0.378496126897,0.0884252992408,0.311190070274,137,1.0,-0.300190217086,-0.0647316600203,nan,nan,nan,nan,0.0,0.0,0.0,nan,275.476420985,608.503476484,609.003520388,608.814532747,nan,nan,nan,nan
1,264,1,1,1.0,1.0,0.214982574806,0,0.0,0.0,0.0,0.290150620188,0.0882664800165,0.201884140172,0.378417100205,0.0882664800165,0.273742471201,280,0.228089347314,0.342018854333,0.61587222022,nan,nan,nan,nan,0.0,0.0,0.0,nan,275.476420985,609.503607914,610.003649822,609.718590489,nan,nan,nan,nan
1,265,1,1,1.0,1.0,0.254760563374,0,0.0,0.0,0.0,0.289865892744,0.088220074669,0.201645818075,0.378085967413,0.088220074669,0.260266467308,336,-0.158211608236,0.456758111158,0.268135266647,nan,nan,nan,nan,0.0,0.0,0.0,nan,275.476420985,610.503735352,611.003776691,610.758495916,nan,nan,nan,nan
1,266,1,1,1.0,1.0,0.294618379325,0,0.0,0.0,0.0,0.289733419803,0.088079768078,0.201653651725,0.377813187881,0.088079768078,0.254787172501,22,1.0,0.111842423158,-1.0,nan,nan,nan,nan,0.0,0.0,0.0,nan,275.476420985,611.503860225,612.003883888,611.798478604,nan,nan,nan,nan
1,267,1,1,1.0,1.0,0.294508046471,0,0.0,0.0,0.0,0.289751784312,0.0879145570002,0.201837227312,0.377666341313,0.0879145570002,0.281295663056,171,1.0,-0.176011872558,0.256450910142,nan,nan,nan,nan,0.0,0.0,0.0,nan,275.476420985,612.503995362,613.004002774,612.798503408,nan,nan,nan,nan
1,268,1,1,1.0,1.0,0.35833032988,0,0.0,0.0,0.0,0.289769598028,0.0877502495224,0.202019348506,0.377519847551,0.0877502495224,0.315818918558,235,0.707591924495,0.164537776567,0.631659631194,nan,nan,nan,nan,0.0,0.0,0.0,nan,275.476420985,613.504120519,614.0041362,613.862450849,nan,nan,nan,nan
1,269,1,1,1.0,1.0,0.446183224209,0,0.0,0.0,0.0,0.290025421655,0.0876860796288,0.202339342026,0.377711501283,0.0876860796288,0.36634053352,85,1.0,-0.212156452387,-0.638781227021,nan,nan,nan,nan,0.0,0.0,0.0,nan,275.476420985,614.50423741,615.004261643,614.950420634,nan,nan,nan,nan
1,270,1,1,1.0,1.0,0.374019833282,0,0.0,1.0,0.0,0.290605933932,0.0880373784682,0.202568555463,0.3786433124,0.0880373784682,0.392844462457,495,0.706485112283,0.278551693791,-1.0,nan,nan,nan,nan,0.0,0.0,0.0,nan,275.476420985,615.504366559,616.004403907,615.878386392,nan,nan,nan,nan
1,271,1,1,1.0,1.0,0.39786655549,1,0.0,0.0,1.0,0.2909148743,0.0880201603741,0.202894713926,0.378935034674,0.0880201603741,0.406023204327,232,0.739158239773,0.150046616059,0.623712016981,-32.8423496667,122.842349667,-40.2826503333,175.0,1.0,-0.155629953633,0.290361762956,2.59239079617,275.476420985,616.504498274,617.004534766,616.90236483,620.946705239,621.955527021,618.338024238,620.938354153
1,272,1,1,1.0,1.0,0.323083401658,0,0.0,0.0,0.0,0.29130952995,0.0880966130117,0.203212916938,0.379406142962,0.0880966130117,0.364989930143,183,1.0,-0.113108999915,0.354902835149,nan,nan,nan,nan,0.0,0.0,0.0,nan,275.476420985,622.155201553,622.655249449,622.478284955,nan,nan,nan,nan
1,273,1,1,1.0,1.0,0.298953576945,0,0.0,0.0,0.0,0.291426345655,0.0879555463208,0.203470799334,0.379381891975,0.0879555463208,0.339967844697,429,0.177531820842,0.442080780324,-0.901885199234,nan,nan,nan,nan,0.0,0.0,0.0,nan,275.476420985,623.155328422,623.655366625,623.454281999,nan,nan,nan,nan
1,274,1,1,1.0,1.0,0.266760616563,0,0.0,0.0,0.0,0.29145391793,0.0877954854331,0.203658432497,0.379249403364,0.0877954854331,0.296265865055,13,0.950262168777,0.154664060346,-1.0,nan,nan,nan,nan,0.0,0.0,0.0,nan,275.476420985,624.155481804,624.655519722,624.422242421,nan,nan,nan,nan
1,275,1,1,1.0,1.0,0.242646757513,0,0.0,0.0,0.0,0.291363796393,0.0876477779495,0.203716018443,0.379011574342,0.0876477779495,0.26945365034,221,0.851781464038,0.0945411604707,0.585422935822,nan,nan,nan,nan,0.0,0.0,0.0,nan,275.476420985,625.155580163,625.655623498,625.398226921,nan,nan,nan,nan
1,276,1,1,1.0,1.0,0.122530767694,0,0.0,0.0,0.0,0.291186643524,0.0875374030374,0.203649240487,0.378724046561,0.0875374030374,0.210646047257,437,0.23613482661,0.429770237144,-1.0,nan,nan,nan,nan,0.0,0.0,0.0,nan,275.476420985,626.155724708,626.655758919,626.278255476,nan,nan,nan,nan
1,277,1,1,1.0,1.0,0.178403098136,0,1.0,0.0,0.0,0.29057557151,0.0879643146408,0.202611256869,0.378539886151,0.0879643146408,0.181193541115,222,0.841778467246,0.0997291618919,0.589484691865,nan,nan,nan,nan,0.0,0.0,0.0,nan,275.476420985,627.155869823,627.655918574,627.334272921,nan,nan,nan,nan
1,278,1,1,1.0,1.0,0.394198487513,1,0.0,0.0,1.0,0.290170616733,0.0880627471254,0.202107869607,0.378233363858,0.0880627471254,0.231710784448,130,1.0,-0.309333154106,-0.136071487739,-10.760469306,100.760469306,9.35421930603,143.0,1.0,-0.287057525782,-0.00469998909502,2.067301617,275.476420985,628.155989849,628.656030618,628.550188337,632.073122175,633.078101979,629.989531779,632.064774796
1,279,1,1,1.0,1.0,0.476439515129,0,0.0,0.0,0.0,0.290544817707,0.0881245645743,0.202420253132,0.378669382281,0.0881245645743,0.349680366926,402,0.000724920831492,0.470139955471,-0.437811562499,nan,nan,nan,nan,0.0,0.0,0.0,nan,275.476420985,633.281630464,633.781662394,633.758069979,nan,nan,nan,nan
1,280,1,1,1.0,1.0,0.292357553728,0,0.0,0.0,0.0,0.291211106945,0.0886652111597,0.202545895785,0.379876318104,0.0886652111597,0.387665185456,185,1.0,-0.102214474652,0.370299946716,nan,nan,nan,nan,0.0,0.0,0.0,nan,275.476420985,634.281762749,634.781793539,634.574120303,nan,nan,nan,nan
1,281,1,1,1.0,1.0,0.220188746229,0,0.0,0.0,0.0,0.291215201397,0.0885067652292,0.202708436168,0.379721966627,0.0885067652292,0.329661938362,433,0.206536295144,0.436163724167,-1.0,nan,nan,nan,nan,0.0,0.0,0.0,nan,275.476420985,635.281896175,635.781932382,635.502084921,nan,nan,nan,nan
1,282,1,1,1.0,1.0,0.196066904813,0,0.0,0.0,0.0,0.290962438212,0.088450321864,0.202512116348,0.379412760076,0.088450321864,0.23620440159,263,0.405698801511,0.284171736334,0.651829885785,nan,nan,nan,nan,0.0,0.0,0.0,nan,275.476420985,636.282028745,636.782079493,636.47809565,nan,nan,nan,nan
1,283,1,1,1.0,1.0,0.275870631449,0,0.0,0.0,0.0,0.290625929228,0.0884733668122,0.202152562416,0.37909929604,0.0884733668122,0.23070876083,415,0.0813077335083,0.459153678902,-0.614968023274,nan,nan,nan,nan,0.0,0.0,0.0,nan,275.476420985,637.282155328,637.7821884,637.55802596,nan,nan,nan,nan
1,284,1,1,1.0,1.0,0.241639791988,0,0.0,0.0,0.0,0.290573790367,0.0883212550918,0.202252535275,0.378895045458,0.0883212550918,0.237859109417,71,1.0,-0.144504067012,-0.877980773838,nan,nan,nan,nan,0.0,0.0,0.0,nan,275.476420985,638.332348796,638.83234623,638.573988588,nan,nan,nan,nan
1,285,1,1,1.0,1.0,0.297601928934,0,0.0,0.0,0.0,0.290401487555,0.088213257629,0.202188229926,0.378614745185,0.088213257629,0.271704117457,413,0.0683106243366,0.461143133648,-0.585495598612,nan,nan,nan,nan,0.0,0.0,0.0,nan,275.476420985,639.332414368,639.83243518,639.630016297,nan,nan,nan,nan
1,286,1,1,1.0,1.0,0.321381652728,0,0.0,0.0,0.0,0.290426752262,0.0880593908389,0.202367361423,0.378486143101,0.0880593908389,0.286874457883,481,0.589289488337,0.325611856148,-1.0,nan,nan,nan,nan,0.0,0.0,0.0,nan,275.476420985,640.332552926,640.832566611,640.653934578,nan,nan,nan,nan
1,287,1,1,1.0,1.0,0.393257379532,0,0.0,0.0,0.0,0.29053498618,0.0879242940652,0.202610692115,0.378459280245,0.0879242940652,0.337413653731,311,-0.0397249783266,0.419020224334,0.462250212202,nan,nan,nan,nan,0.0,0.0,0.0,nan,275.476420985,641.332665824,641.832688062,641.725923204,nan,nan,nan,nan
1,288,1,1,1.0,1.0,0.425111074001,0,0.0,1.0,0.0,0.290892903927,0.0879794486054,0.202913455321,0.378872352532,0.0879794486054,0.379916702087,389,-0.0691208065164,0.476626077068,-0.280234315682,nan,nan,nan,nan,0.0,0.0,0.0,nan,275.476420985,642.332819493,642.832808373,642.757930567,nan,nan,nan,nan
1,289,1,1,1.0,1.0,0.360972331837,1,0.0,0.0,1.0,0.291358939239,0.0881807250123,0.203178214227,0.379539664252,0.0881807250123,0.393113595123,141,1.0,-0.291952736687,-0.024586852943,-3.30674648024,93.3067464802,-5.83387851976,133.0,1.0,-0.306259573676,-0.105336427414,3.83409901056,275.476420985,643.332934102,643.83297145,643.693906434,649.016941939,650.019463344,645.166472896,649.008611665
1,290,1,1,1.0,1.0,0.316658151336,0,0.0,0.0,0.0,0.29159981603,0.0881228941366,0.203476921894,0.379722710167,0.0881228941366,0.367580519058,234,0.71814774995,0.15974031316,0.62913160129,nan,nan,nan,nan,0.0,0.0,0.0,nan,275.476420985,650.217116818,650.717176688,650.533774969,nan,nan,nan,nan
1,291,1,1,1.0,1.0,0.308519464917,0,0.0,0.0,0.0,0.291686224083,0.0879830902062,0.203703133877,0.379669314289,0.0879830902062,0.328716649363,436,0.228681708805,0.431413732101,-1.0,nan,nan,nan,nan,0.0,0.0,0.0,nan,275.476420985,651.217275617,651.717295004,651.525795082,nan,nan,nan,nan
1,292,1,1,1.0,1.0,0.316398142837,0,0.0,0.0,0.0,0.291744070272,0.0878373103941,0.203906759878,0.379581380666,0.0878373103941,0.313858586363,63,1.0,-0.102744642793,-1.0,nan,nan,nan,nan,0.0,0.0,0.0,nan,275.476420985,652.217391937,652.717423297,652.53379008,nan,nan,nan,nan
1,293,1,1,1.0,1.0,0.396229239181,0,0.0,0.0,0.0,0.291828502027,0.0876986030452,0.204129898982,0.379527105072,0.0876986030452,0.340382282312,394,-0.0437090198531,0.474655926729,-0.339401417396,nan,nan,nan,nan,0.0,0.0,0.0,nan,275.476420985,653.217504551,653.717546745,653.61373379,nan,nan,nan,nan
1,294,0,0,0.0,1.0,0.516045020893,0,0.0,0.0,0.0,0.292184818536,0.0877602895424,0.204424528994,0.379945108078,0.0877602895424,0.409557467637,287,0.159501648714,0.36255249221,0.590751920292,nan,nan,nan,nan,0.0,0.0,0.0,nan,275.476420985,654.217667341,654.717718089,654.733712362,nan,nan,nan,nan
1,295,1,1,1.0,1.0,0.331924569793,0,0.0,0.0,0.0,0.292946247796,0.0885750840973,0.204371163698,0.381521331893,0.0885750840973,0.414732943289,162,1.0,-0.218739557155,0.176632971453,nan,nan,nan,nan,0.0,0.0,0.0,nan,275.476420985,655.217784801,655.717814452,655.549709371,nan,nan,nan,nan
1,296,1,1,1.0,1.0,0.363785962574,0,0.0,0.0,0.0,0.293078377701,0.0884538478358,0.204624529865,0.381532225537,0.0884538478358,0.403918517753,80,1.0,-0.189075709245,-0.708965549488,nan,nan,nan,nan,0.0,0.0,0.0,nan,275.476420985,656.217894279,656.717929062,656.581680242,nan,nan,nan,nan
1,297,0,0,0.0,1.0,0.475591349415,0,0.0,0.0,0.0,0.293317254677,0.0883995692031,0.204917685474,0.38171682388,0.0883995692031,0.390433960594,436,0.228681708805,0.431413732101,-1.0,nan,nan,nan,nan,0.0,0.0,0.0,nan,275.476420985,657.218058496,657.718088716,657.693649845,nan,nan,nan,nan
1,298,1,1,1.0,1.0,0.299470744096,0,0.0,0.0,0.0,0.293930972167,0.0888800348379,0.20505093733,0.382811007005,0.0888800348379,0.379616018695,159,1.0,-0.231765974528,0.149055008463,nan,nan,nan,nan,0.0,0.0,0.0,nan,275.476420985,658.218165693,658.718196483,658.517636437,nan,nan,nan,nan
1,299,0,0,0.0,1.0,0.483307236806,0,0.0,0.0,0.0,0.293949562006,0.0887313603103,0.205218201696,0.382680922316,0.0887313603103,0.419456443439,228,0.780729811514,0.1302769546,0.611433142569,nan,nan,nan,nan,0.0,0.0,0.0,nan,275.476420985,659.218306816,659.718340457,659.701614053,nan,nan,nan,nan
1,300,1,1,1.0,1.0,0.363179273903,0,0.0,0.0,0.0,0.294582865266,0.0892549276404,0.205327937626,0.383837792907,0.0892549276404,0.381985751602,502,0.764740937618,0.25241357569,-1.0,nan,nan,nan,nan,0.0,0.0,0.0,nan,275.476420985,660.21841943,660.718443378,660.581598704,nan,nan,nan,nan
1,301,1,1,1.0,1.0,0.419057021849,0,0.0,0.0,0.0,0.294811519962,0.0891937212422,0.20561779872,0.384005241204,0.0891937212422,0.421847844186,159,1.0,-0.231765974528,0.149055008463,nan,nan,nan,nan,0.0,0.0,0.0,nan,275.476420985,661.218526056,661.718567681,661.637583078,nan,nan,nan,nan
1,302,1,1,1.0,1.0,0.410868727602,0,0.0,1.0,0.0,0.295224295716,0.0893319917902,0.205892303925,0.384556287506,0.0893319917902,0.397701674451,470,0.497741612616,0.357740777197,-1.0,nan,nan,nan,nan,0.0,0.0,0.0,nan,275.476420985,662.218681719,662.718695119,662.629550447,nan,nan,nan,nan
1,303,1,1,1.0,1.0,0.426705340855,1,0.0,0.0,1.0,0.295607224298,0.0894310749248,0.206176149373,0.385038299223,0.0894310749248,0.418877030102,401,-0.00506340639596,0.470796889516,-0.425203102762,162.969843227,287.030156773,5.07703177289,408.0,0.036737934283,0.465637664749,-0.515938449969,1.69217275269,275.476420985,663.218830256,663.718815145,663.645535597,666.752535946,667.756365664,665.04399145,666.744201681
1,304,1,1,1.0,1.0,0.444736353122,0,0.0,0.0,0.0,0.296039891349,0.0895994198125,0.206440471537,0.385639311162,0.0895994198125,0.427436807193,298,0.0600896634305,0.391050340636,0.53969689008,nan,nan,nan,nan,0.0,0.0,0.0,nan,275.476420985,667.952720803,668.452763853,668.397457156,nan,nan,nan,nan
1,305,1,1,1.0,1.0,0.340571016073,0,0.0,0.0,0.0,0.296529024447,0.0898562243893,0.206672800058,0.386385248837,0.0898562243893,0.404004236683,158,1.0,-0.235949227405,0.139764106,nan,nan,nan,nan,0.0,0.0,0.0,nan,275.476420985,668.952875041,669.452910963,669.293446057,nan,nan,nan,nan
1,306,1,1,1.0,1.0,0.275073783472,0,0.0,0.0,0.0,0.29667342442,0.0897441211383,0.206929303282,0.386417545558,0.0897441211383,0.353460384222,79,1.0,-0.184296021705,-0.724170777997,nan,nan,nan,nan,0.0,0.0,0.0,nan,275.476420985,669.98634524,670.486349802,670.261419023,nan,nan,nan,nan
1,307,0,0,0.0,1.0,0.450934379362,0,0.0,0.0,0.0,0.296602837358,0.0896058405815,0.206996996776,0.386208677939,0.0896058405815,0.355526392969,385,-0.0879796604702,0.477733444059,-0.233926720364,nan,nan,nan,nan,0.0,0.0,0.0,nan,275.476420985,670.986475245,671.486510882,671.437409624,nan,nan,nan,nan
1,308,1,1,1.0,1.0,0.362814919092,0,0.0,0.0,0.0,0.297105545964,0.089890956036,0.207214589928,0.386996502,0.089890956036,0.362941027309,141,1.0,-0.291952736687,-0.024586852943,nan,nan,nan,nan,0.0,0.0,0.0,nan,275.476420985,671.986584722,672.486624351,672.349399641,nan,nan,nan,nan
1,309,1,1,1.0,1.0,0.32271762006,0,0.0,0.0,0.0,0.297318888084,0.0898227255559,0.207496162528,0.38714161364,0.0898227255559,0.378822306171,64,1.0,-0.108036866323,-1.0,nan,nan,nan,nan,0.0,0.0,0.0,nan,275.476420985,672.986714157,673.486737249,673.309431777,nan,nan,nan,nan
1,310,1,1,1.0,1.0,0.330504782498,0,0.0,0.0,0.0,0.297401084628,0.0896888651435,0.207712219484,0.387089949771,0.0896888651435,0.338679107216,6,0.895129075663,0.186272780825,-1.0,nan,nan,nan,nan,0.0,0.0,0.0,nan,275.476420985,673.986842451,674.48687096,674.317347233,nan,nan,nan,nan
1,311,0,0,0.0,1.0,0.386373692192,0,0.0,0.0,0.0,0.29750787075,0.0895637619654,0.207944108785,0.387071632715,0.0895637619654,0.346532031583,110,1.0,-0.296722754836,-0.346921960777,nan,nan,nan,nan,0.0,0.0,0.0,nan,275.476420985,674.986982434,675.487027479,675.373356126,nan,nan,nan,nan
1,312,1,1,1.0,1.0,0.322221265174,0,0.0,0.0,0.0,0.297793612941,0.0895610706746,0.208232542267,0.387354683616,0.0895610706746,0.346366579955,263,0.405698801511,0.284171736334,0.651829885785,nan,nan,nan,nan,0.0,0.0,0.0,nan,275.476420985,675.987099609,676.487128404,676.309320875,nan,nan,nan,nan
1,313,1,1,1.0,1.0,0.290095017292,0,0.0,0.0,0.0,0.297871906698,0.0894280876215,0.208443819077,0.38729999432,0.0894280876215,0.332896658219,14,0.95801504718,0.150023555696,-1.0,nan,nan,nan,nan,0.0,0.0,0.0,nan,275.476420985,676.987222201,677.487277796,677.277317218,nan,nan,nan,nan
1,314,0,0,1.0,0.0,0.289917971008,0,0.0,0.0,0.0,0.297847060406,0.0892861955804,0.208560864826,0.387133255987,0.0892861955804,0.300744751158,266,0.373577590308,0.295207490188,0.648113769863,nan,nan,nan,nan,0.0,0.0,0.0,nan,275.476420985,677.987369597,678.487403808,678.277287568,nan,nan,nan,nan
1,315,1,1,1.0,1.0,0.313795484602,0,0.0,0.0,0.0,0.297821808529,0.0891450261887,0.208676782341,0.386966834718,0.0891450261887,0.297936157634,85,1.0,-0.212156452387,-0.638781227021,nan,nan,nan,nan,0.0,0.0,0.0,nan,275.476420985,678.987475653,679.487522694,679.301271138,nan,nan,nan,nan
1,316,0,0,0.0,1.0,0.433622954413,0,0.0,0.0,0.0,0.297872518612,0.089007949641,0.208864568971,0.386880468253,0.089007949641,0.345778803341,349,-0.175656888649,0.468768509344,0.147945183432,nan,nan,nan,nan,0.0,0.0,0.0,nan,275.476420985,679.98762647,680.487658401,680.421249424,nan,nan,nan,nan
1,317,1,1,1.0,1.0,0.305523370393,0,0.0,0.0,0.0,0.298302108599,0.0891934787178,0.209108629881,0.387495587317,0.0891934787178,0.350980603136,480,0.580928072941,0.32870764083,-1.0,nan,nan,nan,nan,0.0,0.0,0.0,nan,275.476420985,680.987725969,681.487773011,681.29324934,nan,nan,nan,nan
1,318,1,1,1.0,1.0,0.441363360733,0,0.0,0.0,0.0,0.298324888604,0.0890536045672,0.209271284037,0.387378493172,0.0890536045672,0.393503228513,248,0.568115903494,0.223728204869,0.653295769881,nan,nan,nan,nan,0.0,0.0,0.0,nan,275.476420985,681.987842289,682.487887049,682.42920565,nan,nan,nan,nan
1,319,1,1,1.0,1.0,0.433234081604,0,0.0,1.0,0.0,0.298774695121,0.0892734169738,0.209501278147,0.388048112094,0.0892734169738,0.393373604243,141,1.0,-0.291952736687,-0.024586852943,nan,nan,nan,nan,0.0,0.0,0.0,nan,275.476420985,682.98799339,683.488027887,683.421227472,nan,nan,nan,nan
1,320,1,1,1.0,1.0,0.425059186295,1,0.0,0.0,1.0,0.299196197899,0.0894497445404,0.209746453359,0.38864594244,0.0894497445404,0.43321887621,462,0.432089675478,0.378486360879,-1.0,-13.6646003806,103.664600381,138.820850381,147.0,1.0,-0.275801134503,0.0346720467303,1.60063839145,275.476420985,683.98812083,684.488138505,684.413180016,687.438546879,688.44159315,685.821644798,687.430214611
1,321,1,1,1.0,1.0,0.422085900791,0,0.0,0.0,0.0,0.299589519738,0.0895857289461,0.210003790792,0.389175248684,0.0895857289461,0.42679305623,407,0.0305886347219,0.46645515455,-0.502577406972,nan,nan,nan,nan,0.0,0.0,0.0,nan,275.476420985,688.64701611,689.147085958,689.069102011,nan,nan,nan,nan
1,322,1,1,1.0,1.0,0.333915693685,0,0.0,0.0,0.0,0.299971128402,0.0897061926956,0.210264935706,0.389677321097,0.0897061926956,0.393686926924,324,-0.114799643766,0.441158325109,0.368064040095,nan,nan,nan,nan,0.0,0.0,0.0,nan,275.476420985,689.647174339,690.14720798,689.981090032,nan,nan,nan,nan
1,323,1,1,1.0,1.0,0.381725457497,0,0.0,0.0,0.0,0.300076546307,0.0895867007567,0.21048984555,0.389663247063,0.0895867007567,0.379242350658,125,1.0,-0.311567427947,-0.187805059354,nan,nan,nan,nan,0.0,0.0,0.0,nan,275.476420985,690.64733884,691.147370772,691.029064298,nan,nan,nan,nan
1,324,1,1,1.0,1.0,0.293619682081,0,0.0,0.0,0.0,0.300329329313,0.0895628544868,0.210766474827,0.3898921838,0.0895628544868,0.336420277754,469,0.489482198204,0.360453357602,-1.0,nan,nan,nan,nan,0.0,0.0,0.0,nan,275.476420985,691.647440335,692.147482244,691.941060017,nan,nan,nan,nan
1,325,1,1,1.0,1.0,0.373481854796,0,0.0,0.0,0.0,0.300308620526,0.0894253078968,0.210883312629,0.389733928422,0.0894253078968,0.349608998125,22,1.0,0.111842423158,-1.0,nan,nan,nan,nan,0.0,0.0,0.0,nan,275.476420985,692.647546106,693.147586591,693.021027961,nan,nan,nan,nan
1,326,1,1,1.0,1.0,0.197353836149,0,0.0,0.0,0.0,0.300533768939,0.0893795504357,0.211154218503,0.389913319374,0.0893795504357,0.288151791009,398,-0.0220377755791,0.472608796233,-0.387943383198,nan,nan,nan,nan,0.0,0.0,0.0,nan,275.476420985,693.647710893,694.147713459,693.845064729,nan,nan,nan,nan
1,327,1,1,1.0,1.0,0.293258462101,0,0.0,0.0,0.0,0.300217266077,0.0894245792771,0.2107926868,0.389641845354,0.0894245792771,0.288031384349,81,1.0,-0.193804253699,-0.694219169772,nan,nan,nan,nan,0.0,0.0,0.0,nan,275.476420985,694.647823222,695.147846314,694.941081684,nan,nan,nan,nan
1,328,1,1,1.0,1.0,0.301032225601,0,0.0,0.0,0.0,0.300195985331,0.0892885664861,0.210907418845,0.389484551817,0.0892885664861,0.263881507951,502,0.764740937618,0.25241357569,-1.0,nan,nan,nan,nan,0.0,0.0,0.0,nan,275.476420985,695.64793498,696.147982591,695.948967205,nan,nan,nan,nan
1,329,1,1,1.0,1.0,0.372878871858,0,0.0,0.0,0.0,0.300198534844,0.0891523638858,0.211046170959,0.38935089873,0.0891523638858,0.322389853187,92,1.0,-0.241703663401,-0.55060883727,nan,nan,nan,nan,0.0,0.0,0.0,nan,275.476420985,696.648070117,697.148097485,697.020948988,nan,nan,nan,nan
1,330,1,1,1.0,1.0,0.276763843372,0,0.0,0.0,0.0,0.300419447723,0.0891066367563,0.211312810966,0.389526084479,0.0891066367563,0.316891646944,344,-0.172543464245,0.464730234515,0.195503824632,nan,nan,nan,nan,0.0,0.0,0.0,nan,275.476420985,697.648181019,698.148262843,697.924944863,nan,nan,nan,nan
1,331,1,1,1.0,1.0,0.24459197931,0,0.0,0.0,0.0,0.300347764073,0.0889810244465,0.211366739627,0.38932878852,0.0889810244465,0.298078231514,97,1.0,-0.260369742894,-0.491718830742,nan,nan,nan,nan,0.0,0.0,0.0,nan,275.476420985,698.648322143,699.148382584,698.892914122,nan,nan,nan,nan
1,332,1,1,1.0,1.0,0.236455287784,0,0.0,0.0,0.0,0.300179317594,0.0888991894939,0.2112801281,0.389078507088,0.0888991894939,0.252603703489,193,1.0,-0.0580453890011,0.428658791268,nan,nan,nan,nan,0.0,0.0,0.0,nan,275.476420985,699.648456424,700.148484933,699.884911711,nan,nan,nan,nan
1,333,0,0,1.0,0.0,0.124337432906,0,0.0,0.0,0.0,0.299987377745,0.088833866386,0.211153511359,0.388821244131,0.088833866386,0.2017949,488,0.647907709101,0.302951493728,-1.0,nan,nan,nan,nan,0.0,0.0,0.0,nan,275.476420985,700.64859213,701.148653711,700.772929563,nan,nan,nan,nan
1,334,1,1,1.0,1.0,0.260181413032,0,0.0,0.0,0.0,0.299459900433,0.0892195655671,0.210240334866,0.388679466,0.0892195655671,0.206991377907,152,1.0,-0.259184487343,0.0830625546756,nan,nan,nan,nan,0.0,0.0,0.0,nan,275.476420985,701.648715863,702.148732684,701.908897276,nan,nan,nan,nan
1,335,1,1,1.0,1.0,0.220092953183,0,0.0,0.0,0.0,0.299342300171,0.0891117471682,0.210230553003,0.388454047339,0.0891117471682,0.201537266374,51,1.0,-0.0385160204876,-1.0,nan,nan,nan,nan,0.0,0.0,0.0,nan,275.476420985,702.648840451,703.148868675,702.868933404,nan,nan,nan,nan
1,336,1,1,1.0,1.0,0.283862208948,0,0.0,0.0,0.0,0.299105734956,0.0890836178518,0.210022117105,0.388189352808,0.0890836178518,0.254712191721,386,-0.0833946583454,0.477495592553,-0.245424736514,nan,nan,nan,nan,0.0,0.0,0.0,nan,275.476420985,703.648954489,704.148991552,703.932816698,nan,nan,nan,nan
1,337,1,1,1.0,1.0,0.291708671488,0,0.0,0.0,0.0,0.299060367319,0.088954829835,0.210105537484,0.388015197154,0.088954829835,0.265221277873,262,0.416452475899,0.2804144186,0.652815538838,nan,nan,nan,nan,0.0,0.0,0.0,nan,275.476420985,704.649099889,705.149141514,704.940808561,nan,nan,nan,nan
1,338,1,1,1.0,1.0,0.307543004863,0,0.0,0.0,0.0,0.299038552198,0.0888236514367,0.210214900762,0.387862203635,0.0888236514367,0.294371295099,321,-0.0999433513493,0.43654647086,0.391174984052,nan,nan,nan,nan,0.0,0.0,0.0,nan,275.476420985,705.649242723,706.149267242,705.956785728,nan,nan,nan,nan
1,339,0,0,0.0,1.0,0.443408082239,0,0.0,0.0,0.0,0.299063713301,0.0886933609103,0.210370352391,0.387757074211,0.0886933609103,0.347553252863,65,1.0,-0.113312155659,-1.0,nan,nan,nan,nan,0.0,0.0,0.0,nan,275.476420985,706.649369307,707.149402378,707.092777389,nan,nan,nan,nan
1,340,1,1,1.0,1.0,0.41127328109,0,0.0,0.0,0.0,0.299489507899,0.0889077441521,0.210581763747,0.388397252052,0.0889077441521,0.387408122731,510,0.830554458933,0.220436700166,-1.0,nan,nan,nan,nan,0.0,0.0,0.0,nan,275.476420985,707.649489048,708.149522975,708.060762329,nan,nan,nan,nan
1,341,1,1,1.0,1.0,0.427121869288,0,0.0,0.0,0.0,0.299818283703,0.0889830427179,0.210835240985,0.388801326421,0.0889830427179,0.427267744206,45,1.0,-0.0063957592436,-1.0,nan,nan,nan,nan,0.0,0.0,0.0,nan,275.476420985,708.649620478,709.149632737,709.076742347,nan,nan,nan,nan
1,342,1,1,1.0,1.0,0.315067021176,0,0.0,0.0,0.0,0.300191608001,0.0891187306562,0.211072877345,0.389310338657,0.0891187306562,0.384487390518,452,0.351738073422,0.401406211611,-1.0,nan,nan,nan,nan,0.0,0.0,0.0,nan,275.476420985,709.649739934,710.149779278,709.964806955,nan,nan,nan,nan
1,343,1,1,1.0,1.0,0.306844798848,0,0.0,0.0,0.0,0.300235103361,0.0889919694015,0.21124313396,0.389227072763,0.0889919694015,0.349677896438,83,1.0,-0.203097876184,-0.665876706514,nan,nan,nan,nan,0.0,0.0,0.0,nan,275.476420985,710.649867659,711.149908997,710.956712457,nan,nan,nan,nan
1,344,1,1,1.0,1.0,0.370690746233,0,0.0,0.0,0.0,0.30025437361,0.0888628633903,0.21139151022,0.389117237001,0.0888628633903,0.330867522086,510,0.830554458933,0.220436700166,-1.0,nan,nan,nan,nan,0.0,0.0,0.0,nan,275.476420985,711.64999139,712.15003387,712.020682137,nan,nan,nan,nan
1,345,1,1,1.0,1.0,0.346533552743,0,0.0,0.0,0.0,0.300459130507,0.0888146026305,0.211644527877,0.389273733138,0.0888146026305,0.341356365941,354,-0.174470673547,0.472100788149,0.0988677247603,nan,nan,nan,nan,0.0,0.0,0.0,nan,275.476420985,712.65012225,713.15016359,712.996655803,nan,nan,nan,nan
1,346,1,1,1.0,1.0,0.46639010217,0,0.0,1.0,0.0,0.300592679557,0.0887203760968,0.211872303461,0.389313055654,0.0887203760968,0.394538133716,163,1.0,-0.214247802105,0.185723682048,nan,nan,nan,nan,0.0,0.0,0.0,nan,275.476420985,713.650253396,714.150286467,714.116643498,nan,nan,nan,nan
1,347,1,1,1.0,1.0,0.650230302475,1,0.0,0.0,1.0,0.30107186286,0.0890380448898,0.21203381797,0.39010990775,0.0890380448898,0.487717985796,259,0.44882283482,0.268906983076,0.655011783756,-93.7313969992,183.731396999,1.62202199916,261.0,0.427225806086,0.276617811781,0.653674462902,1.80048654787,275.476420985,714.650380549,715.150443556,715.300610851,718.292461045,719.297882465,716.475584793,718.284122788
1,348,1,1,1.0,1.0,0.343581649475,0,0.0,0.0,0.0,0.302078083147,0.090858376909,0.21144241082,0.392952281717,0.090858376909,0.48673401804,351,-0.175686286722,0.4701852659,0.128489978773,nan,nan,nan,nan,0.0,0.0,0.0,nan,275.476420985,719.50098872,720.001014379,719.844570369,nan,nan,nan,nan
1,349,1,1,nan,nan,nan,0,0.0,0.0,0.0,0.302197346268,0.0907549354489,0.21144241082,0.392952281717,0.0907549354489,0.496905975975,104,1.0,-0.282351481576,-0.412644567278,nan,nan,nan,nan,0.0,0.0,0.0,nan,275.476420985,720.50112129,721.001184867,nan,nan,nan,nan,nan
1,350,1,1,1.0,1.0,0.215353202075,0,0.0,0.0,0.0,0.302197346268,0.0907549354489,0.21144241082,0.392952281717,0.0907549354489,0.279467425775,6,0.895129075663,0.186272780825,-1.0,nan,nan,nan,nan,0.0,0.0,0.0,nan,275.476420985,721.501259278,722.001284936,721.71661248,nan,nan,nan,nan
1,351,1,1,1.0,1.0,0.263135312125,0,0.0,0.0,0.0,0.301948509179,0.090743629338,0.211204879841,0.392692138517,0.090743629338,0.2392442571,108,1.0,-0.292426609412,-0.368663285579,nan,nan,nan,nan,0.0,0.0,0.0,nan,275.476420985,722.501391278,723.001417222,722.76452659,nan,nan,nan,nan
1,352,1,1,1.0,1.0,0.302948081866,0,0.0,0.0,0.0,0.30183761433,0.0906375820305,0.2112000323,0.392475196361,0.0906375820305,0.260478865355,177,1.0,-0.145192147526,0.306921212481,nan,nan,nan,nan,0.0,0.0,0.0,nan,275.476420985,723.501514155,724.001526129,723.804462237,nan,nan,nan,nan
1,353,1,1,1.0,1.0,0.334806623869,0,0.0,0.0,0.0,0.301840778056,0.0905083959264,0.211332382129,0.392349173982,0.0905083959264,0.30029667262,499,0.739831889234,0.263827757734,-1.0,nan,nan,nan,nan,0.0,0.0,0.0,nan,275.476420985,724.501643875,725.00166041,724.836450499,nan,nan,nan,nan
1,354,1,1,1.0,1.0,0.430666775443,0,0.0,0.0,0.0,0.301934431027,0.0903967711735,0.211537659853,0.3923312022,0.0903967711735,0.356140493726,26,1.0,0.0920921692153,-1.0,nan,nan,nan,nan,0.0,0.0,0.0,nan,275.476420985,725.501772454,726.001785568,725.932439229,nan,nan,nan,nan
1,355,1,1,1.0,1.0,0.446521350183,0,0.0,1.0,0.0,0.302299111889,0.0905275677772,0.211771544112,0.392826679666,0.0905275677772,0.403998249831,104,1.0,-0.282351481576,-0.412644567278,nan,nan,nan,nan,0.0,0.0,0.0,nan,275.476420985,726.501900462,727.001928687,726.948421813,nan,nan,nan,nan
1,356,1,1,1.0,1.0,0.598367871717,1,0.0,0.0,1.0,0.302706519342,0.0907231027059,0.211983416636,0.393429622048,0.0907231027059,0.491851999114,415,0.0813077335083,0.459153678902,-0.614968023274,-173.349799683,263.349799683,-28.4470753167,375.0,-0.128556699755,0.478682433309,-0.121605159467,2.53395572118,275.476420985,727.502021344,728.002083495,728.100389216,731.877525682,732.88522931,729.327213899,731.869193413
1,357,1,1,1.0,1.0,0.31025770586,0,0.0,0.0,0.0,0.303539368222,0.0919404368902,0.211598931331,0.395479805112,0.0919404368902,0.451715642586,326,-0.12383419111,0.444071765824,0.352223541474,nan,nan,nan,nan,0.0,0.0,0.0,nan,275.476420985,733.086065901,733.586096692,733.396323607,nan,nan,nan,nan
1,358,1,1,1.0,1.0,0.446117651649,0,0.0,0.0,0.0,0.303558239957,0.0918119047873,0.211746335169,0.395370144744,0.0918119047873,0.451581076408,381,-0.105403061426,0.478425078289,-0.188431136224,nan,nan,nan,nan,0.0,0.0,0.0,nan,275.476420985,734.086169677,734.586220995,734.532287329,nan,nan,nan,nan
1,359,1,1,1.0,1.0,0.293987458572,0,0.0,0.0,0.0,0.30395756604,0.0919922945344,0.211965271505,0.395949860574,0.0919922945344,0.350120938693,140,1.0,-0.294209249228,-0.0345777392028,nan,nan,nan,nan,0.0,0.0,0.0,nan,275.476420985,735.086320493,735.586349004,735.380307952,nan,nan,nan,nan
1,360,1,1,1.0,1.0,0.237858824432,0,0.0,0.0,0.0,0.303929716578,0.0918652308674,0.21206448571,0.395794947445,0.0918652308674,0.325987978218,460,0.415848916989,0.383334931935,-1.0,nan,nan,nan,nan,0.0,0.0,0.0,nan,275.476420985,736.086455345,736.586468745,736.32431417,nan,nan,nan,nan
