block,trial,freq_trials,correct_response,actual_response,acc,rts,probe_trials,fast_rt_trigger,slow_rt_trigger,rt_triggered,rts_runningavg,rts_runningstd,rts_runningfastthresh,rts_runningslowthresh,rts_runningstd,rts_trailingavg,trials_colorind,trials_colorrgb0,trials_colorrgb1,trials_colorrgb2,wm_respdeg,wm_respdeg_in_colorspace,wm_respcolorminusorigcolor,wm_resptexind,wm_resptexrgb0,wm_resptexrgb1,wm_resptexrgb2,wm_rts,time_blockstart,time_encarray_offset,time_encarray_onset,time_response,time_iti_offset,time_iti_onset,time_memprobe_offset,time_memprobe_onset
1,1,1,1,1.0,1.0,0.598460528767,0,nan,nan,nan,nan,nan,nan,nan,nan,nan,299,0.0516645560415,0.393417669654,0.534378752182,nan,nan,nan,nan,nan,nan,nan,nan,1418.9578862,1419.97540033,nan,1420.57386086,nan,nan,nan,nan
1,2,1,1,1.0,1.0,0.288636456942,0,nan,nan,nan,nan,nan,nan,nan,nan,nan,172,1.0,-0.170984061773,0.265024678188,nan,nan,nan,nan,nan,nan,nan,nan,1418.9578862,1420.9172381,nan,1421.20587455,nan,nan,nan,nan
1,3,1,1,1.0,1.0,0.370845269412,0,nan,nan,nan,nan,nan,nan,nan,nan,nan,460,0.415848916989,0.383334931935,-1.0,nan,nan,nan,nan,nan,nan,nan,nan,1418.9578862,1421.85898919,nan,1422.22983446,nan,nan,nan,nan
1,4,1,1,1.0,1.0,0.317064986331,0,nan,nan,nan,nan,nan,nan,nan,nan,nan,56,1.0,-0.0653675053377,-1.0,nan,nan,nan,nan,nan,nan,nan,nan,1418.9578862,1422.80076708,nan,1423.11783207,nan,nan,nan,nan
1,5,0,0,0.0,1.0,0.375263430411,0,nan,nan,nan,nan,nan,nan,nan,nan,nan,432,0.199227897075,0.437687328843,-1.0,nan,nan,nan,nan,nan,nan,nan,nan,1418.9578862,1423.74255382,nan,1424.11781725,nan,nan,nan,nan
1,6,1,1,1.0,1.0,0.297440277762,0,nan,nan,nan,nan,nan,nan,nan,nan,nan,503,0.773020196022,0.248538461814,-1.0,nan,nan,nan,nan,nan,nan,nan,nan,1418.9578862,1424.68435765,nan,1424.98179793,nan,nan,nan,nan
1,7,1,1,1.0,1.0,0.323637631489,0,nan,nan,nan,nan,nan,nan,nan,nan,nan,363,-0.162287729338,0.476365729747,0.00704812682028,nan,nan,nan,nan,nan,nan,nan,nan,1418.9578862,1425.62614125,nan,1425.94977888,nan,nan,nan,nan
1,8,1,1,1.0,1.0,0.373834520113,0,nan,nan,nan,nan,nan,nan,nan,nan,nan,78,1.0,-0.179467652321,-0.739907630878,nan,nan,nan,nan,nan,nan,nan,nan,1418.9578862,1426.56793054,nan,1426.94176506,nan,nan,nan,nan
1,9,1,1,1.0,1.0,0.376008961175,0,nan,nan,nan,nan,nan,nan,nan,nan,nan,183,1.0,-0.113108999915,0.354902835149,nan,nan,nan,nan,nan,nan,nan,nan,1418.9578862,1427.50971927,nan,1427.88572823,nan,nan,nan,nan
1,10,1,1,1.0,1.0,0.314225697133,0,nan,nan,nan,nan,nan,nan,nan,nan,nan,15,0.965734432428,0.145352784795,-1.0,nan,nan,nan,nan,nan,nan,nan,nan,1418.9578862,1428.4514946,nan,1428.76572029,nan,nan,nan,nan
1,11,1,1,1.0,1.0,0.300432094256,0,nan,nan,nan,nan,nan,nan,nan,nan,nan,100,1.0,-0.270427092546,-0.457439896749,nan,nan,nan,nan,nan,nan,nan,nan,1418.9578862,1429.39328617,nan,1429.69371827,nan,nan,nan,nan
1,12,1,1,1.0,1.0,0.398617788742,0,nan,nan,nan,nan,nan,nan,nan,nan,nan,24,1.0,0.102019060141,-1.0,nan,nan,nan,nan,nan,nan,nan,nan,1418.9578862,1430.33507576,nan,1430.73369354,nan,nan,nan,nan
1,13,0,0,0.0,1.0,0.368809100764,0,nan,nan,nan,nan,nan,nan,nan,nan,nan,342,-0.170052622031,0.462913557708,0.21407524247,nan,nan,nan,nan,nan,nan,nan,nan,1418.9578862,1431.27686334,nan,1431.64567244,nan,nan,nan,nan
1,14,1,1,1.0,1.0,0.235005565104,0,nan,nan,nan,nan,nan,nan,nan,nan,nan,77,1.0,-0.174593022316,-0.756267193339,nan,nan,nan,nan,nan,nan,nan,nan,1418.9578862,1432.21865635,nan,1432.45366191,nan,nan,nan,nan
1,15,1,1,1.0,1.0,0.301184182288,0,nan,nan,nan,nan,nan,nan,nan,nan,nan,319,-0.0891891826932,0.433308674125,0.406137099325,nan,nan,nan,nan,nan,nan,nan,nan,1418.9578862,1433.16044764,nan,1433.46163182,nan,nan,nan,nan
1,16,1,1,1.0,1.0,0.319394520659,0,nan,nan,nan,nan,nan,nan,nan,nan,nan,428,0.170378320166,0.443486568519,-0.86866140055,nan,nan,nan,nan,nan,nan,nan,nan,1418.9578862,1434.10223066,nan,1434.42162518,nan,nan,nan,nan
1,17,1,1,1.0,1.0,0.289590679342,1,nan,nan,nan,nan,nan,nan,nan,nan,nan,295,0.0860222946478,0.38372732295,0.554986075565,-126.238406609,216.238406609,8.81653160948,308.0,-0.0186828559465,0.413097475488,0.481682330771,1.28392122407,1418.9578862,1435.0440154,1435.85243137,1435.33360608,1438.17769263,1439.18772181,1436.87752283,1438.16935438
1,18,1,1,0.0,0.0,0.565629233723,0,0.0,0.0,0.0,nan,nan,nan,nan,nan,nan,414,0.0747837862165,0.460162189034,-0.600089175003,nan,nan,nan,nan,nan,nan,nan,nan,1418.9578862,1439.32789671,nan,1439.89352594,nan,nan,nan,nan
1,19,0,0,0.0,1.0,0.519823421841,0,nan,nan,nan,nan,nan,nan,nan,nan,nan,269,0.34171296506,0.305888347675,0.643262349404,nan,nan,nan,nan,nan,nan,nan,nan,1418.9578862,1440.26969114,nan,1440.78951456,nan,nan,nan,nan
1,20,1,1,1.0,1.0,0.370021051611,0,nan,nan,nan,nan,nan,nan,nan,nan,nan,127,1.0,-0.31111021432,-0.167036648065,nan,nan,nan,nan,nan,nan,nan,nan,1418.9578862,1441.21147074,nan,1441.58149179,nan,nan,nan,nan
1,21,1,1,1.0,1.0,0.32420155505,0,nan,nan,nan,nan,nan,nan,nan,nan,nan,447,0.312467642152,0.411646472288,-1.0,nan,nan,nan,nan,nan,nan,nan,nan,1418.9578862,1442.15326346,nan,1442.47746501,nan,nan,nan,nan
1,22,1,1,1.0,1.0,0.334400644584,1,nan,nan,nan,nan,nan,nan,nan,nan,nan,217,0.891250405156,0.0735373331823,0.568048345461,-44.8044520237,134.804452024,-17.7736729763,192.0,1.0,-0.0635997558896,0.421658406928,1.48382383463,1418.9578862,1443.09505418,1443.9034616,1443.42945482,1446.42875462,1447.43996353,1444.9285599,1446.42042977
1,23,1,1,1.0,1.0,0.570445961435,0,nan,nan,nan,nan,nan,nan,nan,nan,nan,400,-0.0107874812989,0.471427301814,-0.412692688905,nan,nan,nan,nan,nan,nan,nan,nan,1418.9578862,1447.578949,nan,1448.14939497,nan,nan,nan,nan
1,24,1,1,1.0,1.0,0.388624539832,0,nan,nan,nan,nan,nan,nan,nan,nan,nan,182,1.0,-0.118523835432,0.347089474713,nan,nan,nan,nan,nan,nan,nan,nan,1418.9578862,1448.52075113,nan,1448.90937567,nan,nan,nan,nan
1,25,1,1,1.0,1.0,0.350822849374,0,nan,nan,nan,nan,nan,nan,nan,nan,nan,501,0.7564492333,0.256253544744,-1.0,nan,nan,nan,nan,nan,nan,nan,nan,1418.9578862,1449.46253701,nan,1449.81335986,nan,nan,nan,nan
1,26,1,1,1.0,1.0,0.449013105419,1,nan,nan,nan,nan,nan,nan,nan,nan,nan,168,1.0,-0.190790017254,0.230361799274,-22.380135052,112.380135052,-5.74486494804,160.0,1.0,-0.227501418013,0.158297521075,1.34210056654,1418.9578862,1450.40432545,1451.21273771,1450.85333855,1453.58800371,1454.58466065,1452.22952855,1453.57967657
1,27,1,1,1.0,1.0,0.403360105935,0,nan,nan,nan,nan,nan,nan,nan,nan,nan,7,0.9030914636,0.181853060355,-1.0,nan,nan,nan,nan,nan,nan,nan,nan,1418.9578862,1454.72990003,nan,1455.13326014,nan,nan,nan,nan
1,28,1,1,1.0,1.0,0.773550505633,1,nan,nan,nan,nan,nan,nan,nan,nan,nan,89,1.0,-0.229484098413,-0.587370487375,15.0580574697,74.9419425303,12.3638175303,107.0,1.0,-0.290089771429,-0.379592780214,1.47556597617,1418.9578862,1455.67167536,1456.48008392,1456.44522587,1458.99707974,1459.99773062,1457.50518678,1458.98877142
1,29,1,1,1.0,1.0,0.314249645337,0,nan,nan,nan,nan,nan,nan,nan,nan,nan,2,0.863024578927,0.203622855609,-1.0,nan,nan,nan,nan,nan,nan,nan,nan,1418.9578862,1460.13891962,nan,1460.45316926,nan,nan,nan,nan
1,30,1,1,1.0,1.0,0.356454956869,0,nan,nan,nan,nan,nan,nan,nan,nan,nan,335,-0.155595990888,0.455627721073,0.276893227044,nan,nan,nan,nan,nan,nan,nan,nan,1418.9578862,1461.08069722,nan,1461.43715218,nan,nan,nan,nan
1,31,1,1,1.0,1.0,0.334623876144,0,nan,nan,nan,nan,nan,nan,nan,nan,nan,117,1.0,-0.307587969795,-0.271886539361,nan,nan,nan,nan,nan,nan,nan,nan,1418.9578862,1462.02250078,nan,1462.35712465,nan,nan,nan,nan
1,32,1,1,1.0,1.0,0.352815683116,0,nan,nan,nan,nan,nan,nan,nan,nan,nan,38,1.0,0.0306259494545,-1.0,nan,nan,nan,nan,nan,nan,nan,nan,1418.9578862,1462.96428323,nan,1463.31709891,nan,nan,nan,nan
1,33,1,1,1.0,1.0,0.323055746907,0,nan,nan,nan,nan,nan,nan,nan,nan,nan,474,0.530901762182,0.346545376391,-1.0,nan,nan,nan,nan,nan,nan,nan,nan,1418.9578862,1463.90604516,nan,1464.2291009,nan,nan,nan,nan
1,34,1,1,1.0,1.0,0.357210466056,0,nan,nan,nan,nan,nan,nan,nan,nan,nan,194,1.0,-0.0524864644427,0.435571704399,nan,nan,nan,nan,nan,nan,nan,nan,1418.9578862,1464.84786097,nan,1465.20507143,nan,nan,nan,nan
1,35,0,0,0.0,1.0,0.439393904817,0,nan,nan,nan,nan,nan,nan,nan,nan,nan,423,0.135229581944,0.450080889006,-0.750039916123,nan,nan,nan,nan,nan,nan,nan,nan,1418.9578862,1465.78966024,nan,1466.22905415,nan,nan,nan,nan
1,36,1,1,1.0,1.0,0.35360568919,0,nan,nan,nan,nan,nan,nan,nan,nan,nan,135,1.0,-0.303502321856,-0.0849788702499,nan,nan,nan,nan,nan,nan,nan,nan,1418.9578862,1466.73144241,nan,1467.0850481,nan,nan,nan,nan
1,37,1,1,1.0,1.0,0.331804543792,0,nan,nan,nan,nan,nan,nan,nan,nan,nan,307,-0.0113868739462,0.411053355611,0.487957006857,nan,nan,nan,nan,nan,nan,nan,nan,1418.9578862,1467.67322658,nan,1468.00503112,nan,nan,nan,nan
1,38,1,1,1.0,1.0,0.334007779718,0,nan,nan,nan,nan,nan,nan,nan,nan,nan,73,1.0,-0.1546788618,-0.830916872461,nan,nan,nan,nan,nan,nan,nan,nan,1418.9578862,1468.61499877,nan,1468.94900655,nan,nan,nan,nan
1,39,1,1,1.0,1.0,0.288240741123,0,nan,nan,nan,nan,nan,nan,nan,nan,nan,503,0.773020196022,0.248538461814,-1.0,nan,nan,nan,nan,nan,nan,nan,nan,1418.9578862,1469.55680774,nan,1469.84504848,nan,nan,nan,nan
1,40,0,0,0.0,1.0,0.514375772618,0,nan,nan,nan,nan,nan,nan,nan,nan,nan,326,-0.12383419111,0.444071765824,0.352223541474,nan,nan,nan,nan,nan,nan,nan,nan,1418.9578862,1470.49860017,nan,1471.01297594,nan,nan,nan,nan
1,41,1,1,1.0,1.0,0.276575108466,0,nan,nan,nan,nan,nan,nan,nan,nan,nan,506,0.797774742377,0.236703125255,-1.0,nan,nan,nan,nan,nan,nan,nan,nan,1418.9578862,1471.44038747,nan,1471.71696258,nan,nan,nan,nan
1,42,1,1,1.0,1.0,0.382759792556,0,nan,nan,nan,nan,nan,nan,nan,nan,nan,460,0.415848916989,0.383334931935,-1.0,nan,nan,nan,nan,nan,nan,nan,nan,1418.9578862,1472.38217078,nan,1472.76493057,nan,nan,nan,nan
1,43,1,1,0.0,0.0,0.376966889889,0,0.0,0.0,0.0,nan,nan,nan,nan,nan,nan,84,1.0,-0.20765784414,-0.652191087791,nan,nan,nan,nan,nan,nan,nan,nan,1418.9578862,1473.32396549,nan,1473.70093238,nan,nan,nan,nan
1,44,1,1,1.0,1.0,0.467158156331,0,nan,nan,nan,nan,nan,nan,nan,nan,nan,182,1.0,-0.118523835432,0.347089474713,nan,nan,nan,nan,nan,nan,nan,nan,1418.9578862,1474.26575565,nan,1474.7329138,nan,nan,nan,nan
1,45,1,1,1.0,1.0,0.325361332973,0,nan,nan,nan,nan,nan,nan,nan,nan,nan,374,-0.132039125116,0.478634076427,-0.110628443238,nan,nan,nan,nan,nan,nan,nan,nan,1418.9578862,1475.20753496,nan,1475.5328963,nan,nan,nan,nan
1,46,1,1,1.0,1.0,0.343558556808,0,nan,nan,nan,nan,nan,nan,nan,nan,nan,135,1.0,-0.303502321856,-0.0849788702499,nan,nan,nan,nan,nan,nan,nan,nan,1418.9578862,1476.14932113,nan,1476.49287968,nan,nan,nan,nan
1,47,1,1,1.0,1.0,0.321751709445,0,nan,nan,nan,nan,nan,nan,nan,nan,nan,19,0.99625917486,0.126374530333,-1.0,nan,nan,nan,nan,nan,nan,nan,nan,1418.9578862,1477.09111327,nan,1477.41286498,nan,nan,nan,nan
1,48,0,0,1.0,0.0,0.307929311704,0,0.0,0.0,0.0,nan,nan,nan,nan,nan,nan,214,0.920243657418,0.0575410437433,0.553854850604,nan,nan,nan,nan,nan,nan,nan,nan,1418.9578862,1478.03290371,nan,1478.34083302,nan,nan,nan,nan
1,49,1,1,1.0,1.0,0.406060552516,0,nan,nan,nan,nan,nan,nan,nan,nan,nan,465,0.456588679398,0.37096152752,-1.0,nan,nan,nan,nan,nan,nan,nan,nan,1418.9578862,1478.97474632,nan,1479.38080687,nan,nan,nan,nan
1,50,1,1,1.0,1.0,0.35231647687,0,nan,nan,nan,nan,nan,nan,nan,nan,nan,323,-0.11001989341,0.43965344528,0.375855360355,nan,nan,nan,nan,nan,nan,nan,nan,1418.9578862,1479.9164786,nan,1480.26879507,nan,nan,nan,nan
1,51,1,1,1.0,1.0,0.306531477079,0,nan,nan,nan,nan,nan,nan,nan,nan,nan,169,1.0,-0.185917379452,0.239118302078,nan,nan,nan,nan,nan,nan,nan,nan,1418.9578862,1480.85825963,nan,1481.1647911,nan,nan,nan,nan
1,52,1,1,1.0,1.0,0.316716881876,0,nan,nan,nan,nan,nan,nan,nan,nan,nan,42,1.0,0.00954878589686,-1.0,nan,nan,nan,nan,nan,nan,nan,nan,1418.9578862,1481.8000532,nan,1482.11677008,nan,nan,nan,nan
1,53,1,1,1.0,1.0,0.318913560652,0,nan,nan,nan,nan,nan,nan,nan,nan,nan,276,0.268710435127,0.329430325417,0.627563005949,nan,nan,nan,nan,nan,nan,nan,nan,1418.9578862,1482.74184164,nan,1483.0607552,nan,nan,nan,nan
1,54,1,1,1.0,1.0,0.473120692128,0,nan,nan,nan,nan,nan,nan,nan,nan,nan,27,1.0,0.0870912575778,-1.0,nan,nan,nan,nan,nan,nan,nan,nan,1418.9578862,1483.68363265,nan,1484.15675334,nan,nan,nan,nan
1,55,1,1,1.0,1.0,0.371312259696,0,nan,nan,nan,nan,nan,nan,nan,nan,nan,462,0.432089675478,0.378486360879,-1.0,nan,nan,nan,nan,nan,nan,nan,nan,1418.9578862,1484.62541938,nan,1484.99673164,nan,nan,nan,nan
1,56,1,1,1.0,1.0,0.437490021577,0,nan,nan,nan,nan,nan,nan,nan,nan,nan,77,1.0,-0.174593022316,-0.756267193339,nan,nan,nan,nan,nan,nan,nan,nan,1418.9578862,1485.56720697,nan,1486.00469699,nan,nan,nan,nan
1,57,1,1,1.0,1.0,0.407693877933,0,nan,nan,nan,nan,nan,nan,nan,nan,nan,127,1.0,-0.31111021432,-0.167036648065,nan,nan,nan,nan,nan,nan,nan,nan,1418.9578862,1486.50900396,nan,1486.91669784,nan,nan,nan,nan
1,58,1,1,1.0,1.0,0.353891642299,0,nan,nan,nan,nan,nan,nan,nan,nan,nan,35,1.0,0.0462653595507,-1.0,nan,nan,nan,nan,nan,nan,nan,nan,1418.9578862,1487.45078527,nan,1487.80467692,nan,nan,nan,nan
1,59,1,1,1.0,1.0,0.324132846436,0,nan,nan,nan,nan,nan,nan,nan,nan,nan,215,0.910639861846,0.0628947364355,0.558695148714,nan,nan,nan,nan,nan,nan,nan,nan,1418.9578862,1488.39253779,nan,1488.71667064,nan,nan,nan,nan
1,60,1,1,1.0,1.0,0.405952500412,0,nan,nan,nan,nan,nan,nan,nan,nan,nan,148,1.0,-0.272695592461,0.0444264621409,nan,nan,nan,nan,nan,nan,nan,nan,1418.9578862,1489.34269671,nan,1489.74864921,nan,nan,nan,nan
1,61,1,1,1.0,1.0,0.312136215158,0,nan,nan,nan,nan,nan,nan,nan,nan,nan,361,-0.166047812515,0.475607712818,0.0278173107143,nan,nan,nan,nan,nan,nan,nan,nan,1418.9578862,1490.28448771,nan,1490.59662393,nan,nan,nan,nan
1,62,1,1,1.0,1.0,0.274328252475,0,nan,nan,nan,nan,nan,nan,nan,nan,nan,411,0.0555201669072,0.463022710015,-0.557054760163,nan,nan,nan,nan,nan,nan,nan,nan,1418.9578862,1491.22627159,nan,1491.50059985,nan,nan,nan,nan
1,63,0,0,0.0,1.0,0.404519598815,0,nan,nan,nan,nan,nan,nan,nan,nan,nan,509,0.822386376617,0.224555004187,-1.0,nan,nan,nan,nan,nan,nan,nan,nan,1418.9578862,1492.16806659,nan,1492.57258619,nan,nan,nan,nan
1,64,1,1,1.0,1.0,0.342710390745,0,nan,nan,nan,nan,nan,nan,nan,nan,nan,304,0.0113092810281,0.404708921832,0.506160370659,nan,nan,nan,nan,nan,nan,nan,nan,1418.9578862,1493.10984448,nan,1493.45255488,nan,nan,nan,nan
1,65,1,1,1.0,1.0,0.320905254048,0,nan,nan,nan,nan,nan,nan,nan,nan,nan,363,-0.162287729338,0.476365729747,0.00704812682028,nan,nan,nan,nan,nan,nan,nan,nan,1418.9578862,1494.05164091,nan,1494.37254616,nan,nan,nan,nan
1,66,1,1,1.0,1.0,0.331110900792,0,nan,nan,nan,nan,nan,nan,nan,nan,nan,133,1.0,-0.306259573676,-0.105336427414,nan,nan,nan,nan,nan,nan,nan,nan,1418.9578862,1494.99342935,nan,1495.32454025,nan,nan,nan,nan
1,67,0,0,0.0,1.0,0.429294314468,0,nan,nan,nan,nan,nan,nan,nan,nan,nan,59,1.0,-0.0814409933332,-1.0,nan,nan,nan,nan,nan,nan,nan,nan,1418.9578862,1495.93522577,nan,1496.36452009,nan,nan,nan,nan
1,68,1,1,1.0,1.0,0.279503633268,0,nan,nan,nan,nan,nan,nan,nan,nan,nan,432,0.199227897075,0.437687328843,-1.0,nan,nan,nan,nan,nan,nan,nan,nan,1418.9578862,1496.8770088,nan,1497.15651243,nan,nan,nan,nan
1,69,1,1,1.0,1.0,0.305681030266,0,nan,nan,nan,nan,nan,nan,nan,nan,nan,283,0.19826868328,0.351050922538,0.605825948857,nan,nan,nan,nan,nan,nan,nan,nan,1418.9578862,1497.81879753,nan,1498.12447856,nan,nan,nan,nan
1,70,1,1,1.0,1.0,0.315895229985,0,nan,nan,nan,nan,nan,nan,nan,nan,nan,464,0.448404880525,0.373503555275,-1.0,nan,nan,nan,nan,nan,nan,nan,nan,1418.9578862,1498.76058568,nan,1499.07648091,nan,nan,nan,nan
1,71,1,1,1.0,1.0,0.326072081865,0,nan,nan,nan,nan,nan,nan,nan,nan,nan,361,-0.166047812515,0.475607712818,0.0278173107143,nan,nan,nan,nan,nan,nan,nan,nan,1418.9578862,1499.70239978,nan,1500.02847186,nan,nan,nan,nan
1,72,1,1,1.0,1.0,0.5122860056,0,nan,nan,nan,nan,nan,nan,nan,nan,nan,200,1.0,-0.0191209939188,0.47515178387,nan,nan,nan,nan,nan,nan,nan,nan,1418.9578862,1500.64415971,nan,1501.15644572,nan,nan,nan,nan
1,73,1,1,1.0,1.0,0.322521473572,0,nan,nan,nan,nan,nan,nan,nan,nan,nan,286,0.169078956243,0.359734776014,0.594698705761,nan,nan,nan,nan,nan,nan,nan,nan,1418.9578862,1501.58590967,nan,1501.90843114,nan,nan,nan,nan
1,74,1,1,1.0,1.0,0.372664478607,0,nan,nan,nan,nan,nan,nan,nan,nan,nan,86,1.0,-0.21659106269,-0.625617802914,nan,nan,nan,nan,nan,nan,nan,nan,1418.9578862,1502.52773945,nan,1502.90040393,nan,nan,nan,nan
1,75,1,1,1.0,1.0,0.286864574009,0,nan,nan,nan,nan,nan,nan,nan,nan,nan,246,0.589768841079,0.215019897151,0.651339528662,nan,nan,nan,nan,nan,nan,nan,nan,1418.9578862,1503.46952532,nan,1503.7563899,nan,nan,nan,nan
1,76,1,1,1.0,1.0,0.265076257929,0,nan,nan,nan,nan,nan,nan,nan,nan,nan,197,1.0,-0.035797595552,0.455774741445,nan,nan,nan,nan,nan,nan,nan,nan,1418.9578862,1504.41130835,nan,1504.67638461,nan,nan,nan,nan
1,77,1,1,1.0,1.0,0.299246087321,0,nan,nan,nan,nan,nan,nan,nan,nan,nan,438,0.243622561222,0.428096439079,-1.0,nan,nan,nan,nan,nan,nan,nan,nan,1418.9578862,1505.35310705,nan,1505.65235314,nan,nan,nan,nan
1,78,1,1,1.0,1.0,0.285448778188,0,nan,nan,nan,nan,nan,nan,nan,nan,nan,504,0.78128615449,0.244628286196,-1.0,nan,nan,nan,nan,nan,nan,nan,nan,1418.9578862,1506.29489236,nan,1506.58034114,nan,nan,nan,nan
1,79,1,1,1.0,1.0,0.327632137109,0,nan,nan,nan,nan,nan,nan,nan,nan,nan,283,0.19826868328,0.351050922538,0.605825948857,nan,nan,nan,nan,nan,nan,nan,nan,1418.9578862,1507.23667909,nan,1507.56431123,nan,nan,nan,nan
1,80,0,0,0.0,1.0,0.449807102792,0,nan,nan,nan,nan,nan,nan,nan,nan,nan,499,0.739831889234,0.263827757734,-1.0,nan,nan,nan,nan,nan,nan,nan,nan,1418.9578862,1508.17851372,nan,1508.62832082,nan,nan,nan,nan
1,81,1,1,1.0,1.0,0.268040990224,0,0.0,0.0,0.0,0.365476011443,0.0854694663838,0.28000654506,0.450945477827,0.0854694663838,0.348493410042,376,-0.124962824795,0.478704673615,-0.132627625282,nan,nan,nan,nan,nan,nan,nan,nan,1418.9578862,1509.120242,nan,1509.38828299,nan,nan,nan,nan
1,82,0,0,1.0,0.0,0.262217582087,0,0.0,0.0,0.0,0.364273109947,0.0856189341975,0.278654175749,0.449892044144,0.0856189341975,0.326688558368,58,1.0,-0.0760896648475,-1.0,nan,nan,nan,nan,nan,nan,nan,nan,1418.9578862,1510.06204926,nan,1510.32426684,nan,nan,nan,nan
1,83,1,1,1.0,1.0,0.272428360593,0,0.0,0.0,0.0,0.363028530339,0.0858293164339,0.277199213905,0.448857846773,0.0858293164339,0.267562310968,232,0.739158239773,0.150046616059,0.623712016981,nan,nan,nan,nan,nan,nan,nan,nan,1418.9578862,1511.00383599,nan,1511.27626435,nan,nan,nan,nan
1,84,1,1,1.0,1.0,0.37063087587,0,0.0,0.0,0.0,0.361936962029,0.0858814370705,0.276055524958,0.447818399099,0.0858814370705,0.301758939517,25,1.0,0.0970682892709,-1.0,nan,nan,nan,nan,nan,nan,nan,nan,1418.9578862,1511.94562073,nan,1512.3162516,nan,nan,nan,nan
1,85,1,1,1.0,1.0,0.348803786561,0,0.0,0.0,0.0,0.362040461003,0.0853739147383,0.276666546265,0.447414375741,0.0853739147383,0.330621007675,131,1.0,-0.308451667147,-0.125800503078,nan,nan,nan,nan,nan,nan,nan,nan,1418.9578862,1512.88741287,nan,1513.23621666,nan,nan,nan,nan
1,86,1,1,1.0,1.0,0.335013319738,0,0.0,0.0,0.0,0.361884735421,0.0848822294817,0.27700250594,0.446766964903,0.0848822294817,0.351482660723,307,-0.0113868739462,0.411053355611,0.487957006857,nan,nan,nan,nan,nan,nan,nan,nan,1418.9578862,1513.82920303,nan,1514.16421635,nan,nan,nan,nan
1,87,1,1,1.0,1.0,0.28919667413,0,0.0,0.0,0.0,0.361572277099,0.0844364403681,0.277135836731,0.446008717467,0.0844364403681,0.32433792681,378,-0.117450136118,0.478670924818,-0.154810124165,nan,nan,nan,nan,nan,nan,nan,nan,1418.9578862,1514.7709909,nan,1515.06018757,nan,nan,nan,nan
1,88,1,1,1.0,1.0,0.275418181496,0,0.0,0.0,0.0,0.360740373617,0.0843035082051,0.276436865412,0.445043881822,0.0843035082051,0.299876058455,49,1.0,-0.027785429985,-1.0,nan,nan,nan,nan,nan,nan,nan,nan,1418.9578862,1515.71277164,nan,1515.98818982,nan,nan,nan,nan
1,89,1,1,1.0,1.0,0.293594308081,0,0.0,0.0,0.0,0.359770803252,0.0843095783895,0.275461224862,0.444080381641,0.0843095783895,0.286069721236,381,-0.105403061426,0.478425078289,-0.188431136224,nan,nan,nan,nan,nan,nan,nan,nan,1418.9578862,1516.65456521,nan,1516.94815952,nan,nan,nan,nan
1,90,1,1,1.0,1.0,0.359804571141,0,0.0,0.0,0.0,0.359027247126,0.0841242635775,0.274902983549,0.443151510704,0.0841242635775,0.309605686906,448,0.32026743599,0.409662251776,-1.0,nan,nan,nan,nan,nan,nan,nan,nan,1418.9578862,1517.59633427,nan,1517.95613884,nan,nan,nan,nan
1,91,1,1,1.0,1.0,0.385983678687,0,0.0,0.0,0.0,0.35903588406,0.083655640762,0.275380243298,0.442691524822,0.083655640762,0.346460852636,37,1.0,0.0358565504353,-1.0,nan,nan,nan,nan,nan,nan,nan,nan,1418.9578862,1518.53814181,nan,1518.92412549,nan,nan,nan,nan
1,92,1,1,1.0,1.0,0.372162136249,0,0.0,0.0,0.0,0.359332013671,0.0832421440977,0.276089869573,0.442574157769,0.0832421440977,0.372650128692,349,-0.175656888649,0.468768509344,0.147945183432,nan,nan,nan,nan,nan,nan,nan,nan,1418.9578862,1519.47993253,nan,1519.85209467,nan,nan,nan,nan
1,93,1,1,1.0,1.0,0.366368948482,0,0.0,0.0,0.0,0.359471471525,0.0827991931275,0.276672278398,0.442270664653,0.0827991931275,0.374838254473,88,1.0,-0.225257592204,-0.599932847766,nan,nan,nan,nan,nan,nan,nan,nan,1418.9578862,1520.42171527,nan,1520.78808422,nan,nan,nan,nan
1,94,1,1,1.0,1.0,0.288564897433,0,0.0,0.0,0.0,0.359545637944,0.0823559054965,0.277189732448,0.441901543441,0.0823559054965,0.342365327388,464,0.448404880525,0.373503555275,-1.0,nan,nan,nan,nan,nan,nan,nan,nan,1418.9578862,1521.36350657,nan,1521.65207146,nan,nan,nan,nan
1,95,1,1,1.0,1.0,0.306766112626,0,0.0,0.0,0.0,0.358790523683,0.0822397065782,0.276550817105,0.441030230262,0.0822397065782,0.320566652847,396,-0.0330153705648,0.473684876347,-0.363523780775,nan,nan,nan,nan,nan,nan,nan,nan,1418.9578862,1522.30529558,nan,1522.61206169,nan,nan,nan,nan
1,96,1,1,1.0,1.0,0.220946821268,0,1.0,0.0,0.0,0.358242898304,0.0819778382912,0.276265060013,0.440220736595,0.0819778382912,0.272092610442,19,0.99625917486,0.126374530333,-1.0,nan,nan,nan,nan,nan,nan,nan,nan,1418.9578862,1523.24708687,nan,1523.46803369,nan,nan,nan,nan
1,97,1,1,nan,nan,nan,0,0.0,0.0,0.0,0.356812730835,0.0827325399268,0.274080190908,0.439545270762,0.0827325399268,0.263856466947,71,1.0,-0.144504067012,-0.877980773838,nan,nan,nan,nan,nan,nan,nan,nan,1418.9578862,1524.1888679,nan,nan,nan,nan,nan,nan
1,98,1,1,1.0,1.0,0.329349566426,0,0.0,0.0,0.0,0.356812730835,0.0827325399268,0.274080190908,0.439545270762,0.0827325399268,0.275148193847,237,0.686387300223,0.174031846447,0.636349816437,nan,nan,nan,nan,nan,nan,nan,nan,1418.9578862,1525.13066318,nan,1525.46001275,nan,nan,nan,nan
1,99,1,1,1.0,1.0,0.395531034621,0,0.0,0.0,0.0,0.356529605428,0.0823517145023,0.274177890926,0.438881319931,0.0823517145023,0.362440300523,172,1.0,-0.170984061773,0.265024678188,nan,nan,nan,nan,nan,nan,nan,nan,1418.9578862,1526.07244792,nan,1526.46797895,nan,nan,nan,nan
1,100,1,1,1.0,1.0,0.4217226865,0,0.0,0.0,0.0,0.356927579196,0.082024179078,0.274903400118,0.438951758274,0.082024179078,0.382201095849,67,1.0,-0.12380466598,-1.0,nan,nan,nan,nan,nan,nan,nan,nan,1418.9578862,1527.0142355,nan,1527.43595819,nan,nan,nan,nan
1,101,1,1,1.0,1.0,0.359930584382,0,0.0,0.0,0.0,0.357582075229,0.0818656611591,0.27571641407,0.439447736388,0.0818656611591,0.392394768501,219,0.871627318206,0.0840881726889,0.576959667802,nan,nan,nan,nan,nan,nan,nan,nan,1418.9578862,1527.95602737,nan,1528.31595795,nan,nan,nan,nan
1,102,1,1,1.0,1.0,0.306115804473,0,0.0,0.0,0.0,0.357605560321,0.0814556395571,0.276149920764,0.439061199878,0.0814556395571,0.362589691785,44,1.0,-0.00106984144607,-1.0,nan,nan,nan,nan,nan,nan,nan,nan,1418.9578862,1528.8978141,nan,1529.2039299,nan,nan,nan,nan
1,103,1,1,1.0,1.0,0.324307611445,0,0.0,0.0,0.0,0.357095760758,0.0812115601114,0.275884200646,0.438307320869,0.0812115601114,0.3301180001,495,0.706485112283,0.278551693791,-1.0,nan,nan,nan,nan,nan,nan,nan,nan,1418.9578862,1529.83960824,nan,1530.16391585,nan,nan,nan,nan
1,104,1,1,1.0,1.0,0.342496567464,0,0.0,0.0,0.0,0.356774308314,0.0808770302332,0.27589727808,0.437651338547,0.0808770302332,0.324306661127,220,0.861731547614,0.0893272636146,0.581247684387,nan,nan,nan,nan,nan,nan,nan,nan,1418.9578862,1530.78139697,nan,1531.12389354,nan,nan,nan,nan
1,105,1,1,1.0,1.0,0.344707501063,0,0.0,0.0,0.0,0.35663568947,0.0804956408813,0.276140048589,0.437131330352,0.0804956408813,0.337170559991,409,0.0429436170054,0.464793150178,-0.529461854507,nan,nan,nan,nan,nan,nan,nan,nan,1418.9578862,1531.72318626,nan,1532.06789377,nan,nan,nan,nan
1,106,1,1,1.0,1.0,0.306912367756,0,0.0,0.0,0.0,0.356520995351,0.0801161643561,0.276404830995,0.436637159707,0.0801161643561,0.331372145428,319,-0.0891891826932,0.433308674125,0.406137099325,nan,nan,nan,nan,nan,nan,nan,nan,1418.9578862,1532.66497071,nan,1532.97188308,nan,nan,nan,nan
1,107,1,1,1.0,1.0,0.357077040244,0,0.0,0.0,0.0,0.356048532231,0.0798791918768,0.276169340354,0.435927724108,0.0798791918768,0.336232303021,87,1.0,-0.220959007447,-0.612675615602,nan,nan,nan,nan,nan,nan,nan,nan,1418.9578862,1533.60676286,nan,1533.9638399,nan,nan,nan,nan
1,108,0,0,0.0,1.0,0.415296581516,0,0.0,0.0,0.0,0.356058235137,0.0795015725377,0.276556662599,0.435559807675,0.0795015725377,0.359761996505,360,-0.167709501072,0.475188317955,0.0381258551808,nan,nan,nan,nan,nan,nan,nan,nan,1418.9578862,1534.54854674,nan,1534.96384332,nan,nan,nan,nan
1,109,1,1,1.0,1.0,0.313477600459,0,0.0,0.0,0.0,0.356611864542,0.0793342267066,0.277277637836,0.435946091249,0.0793342267066,0.361950407406,94,1.0,-0.249439013202,-0.526745155233,nan,nan,nan,nan,nan,nan,nan,nan,1418.9578862,1535.49034146,nan,1535.80381906,nan,nan,nan,nan
1,110,0,0,0.0,1.0,0.611663123884,0,0.0,0.0,0.0,0.356212473208,0.0790740819252,0.277138391283,0.435286555133,0.0790740819252,0.446812435286,224,0.821619416966,0.11002478857,0.597264883709,nan,nan,nan,nan,nan,nan,nan,nan,1418.9578862,1536.43212591,nan,1537.04378903,nan,nan,nan,nan
1,111,1,1,1.0,1.0,0.493894630112,0,0.0,0.0,0.0,0.358556057159,0.0823924982988,0.276163558861,0.440948555458,0.0823924982988,0.473011784818,504,0.78128615449,0.244628286196,-1.0,nan,nan,nan,nan,nan,nan,nan,nan,1418.9578862,1537.37390636,nan,1537.86780099,nan,nan,nan,nan
1,112,1,1,1.0,1.0,0.368072693062,0,0.0,0.0,0.0,0.359786407823,0.0830169263683,0.276769481454,0.442803334191,0.0830169263683,0.491210149019,125,1.0,-0.311567427947,-0.187805059354,nan,nan,nan,nan,nan,nan,nan,nan,1418.9578862,1538.31570222,nan,1538.68377491,nan,nan,nan,nan
1,113,1,1,1.0,1.0,0.298263355158,0,0.0,0.0,0.0,0.359861059041,0.0826458389345,0.277215220106,0.442506897975,0.0826458389345,0.386743559444,53,1.0,-0.049257555853,-1.0,nan,nan,nan,nan,nan,nan,nan,nan,1418.9578862,1539.25749323,nan,1539.55575658,nan,nan,nan,nan
1,114,1,1,1.0,1.0,0.348454826802,0,0.0,0.0,0.0,0.359311079542,0.0824798433489,0.276831236193,0.441790922891,0.0824798433489,0.338263625007,374,-0.132039125116,0.478634076427,-0.110628443238,nan,nan,nan,nan,nan,nan,nan,nan,1418.9578862,1540.1992791,nan,1540.54773393,nan,nan,nan,nan
1,115,0,0,0.0,1.0,0.470615537604,0,0.0,0.0,0.0,0.359215006509,0.0821203717098,0.277094634799,0.441335378219,0.0821203717098,0.372444573188,109,1.0,-0.294638327523,-0.357773695079,nan,nan,nan,nan,nan,nan,nan,nan,1418.9578862,1541.14108351,nan,1541.61169905,nan,nan,nan,nan
1,116,1,1,1.0,1.0,0.416882010526,0,0.0,0.0,0.0,0.36019220415,0.0824166556054,0.277775548545,0.442608859755,0.0824166556054,0.411984124978,171,1.0,-0.176011872558,0.256450910142,nan,nan,nan,nan,nan,nan,nan,nan,1418.9578862,1542.08284886,nan,1542.49973087,nan,nan,nan,nan
1,117,1,1,1.0,1.0,0.3790315683,0,0.0,0.0,0.0,0.360685158988,0.0822261659638,0.278458993024,0.442911324952,0.0822261659638,0.422176372143,20,1.0,0.121558187834,-1.0,nan,nan,nan,nan,nan,nan,nan,nan,1418.9578862,1543.02464785,nan,1543.40367942,nan,nan,nan,nan
1,118,1,1,1.0,1.0,0.397230787843,0,0.0,0.0,0.0,0.360843317689,0.0818885418671,0.278954775822,0.442731859556,0.0818885418671,0.39771478889,322,-0.105067232891,0.43811622051,0.383559350674,nan,nan,nan,nan,nan,nan,nan,nan,1418.9578862,1543.96643429,nan,1544.36366508,nan,nan,nan,nan
1,119,1,1,1.0,1.0,0.327438555716,0,0.0,0.0,0.0,0.361154321707,0.0816066128161,0.279547708891,0.442760934524,0.0816066128161,0.367900303953,400,-0.0107874812989,0.471427301814,-0.412692688905,nan,nan,nan,nan,nan,nan,nan,nan,1418.9578862,1544.90822559,nan,1545.23566414,nan,nan,nan,nan
1,120,1,1,1.0,1.0,0.401638400159,0,0.0,0.0,0.0,0.360868594877,0.0813188384917,0.279549756385,0.442187433369,0.0813188384917,0.375435914573,465,0.456588679398,0.37096152752,-1.0,nan,nan,nan,nan,nan,nan,nan,nan,1418.9578862,1545.85001602,nan,1546.25165442,nan,nan,nan,nan
1,121,1,1,1.0,1.0,0.37982271472,0,0.0,0.0,0.0,0.361211198283,0.0810619185167,0.280149279766,0.442273116799,0.0810619185167,0.369633223532,79,1.0,-0.184296021705,-0.724170777997,nan,nan,nan,nan,nan,nan,nan,nan,1418.9578862,1546.79179905,nan,1547.17162176,nan,nan,nan,nan
1,122,1,1,1.0,1.0,0.390052879986,0,0.0,0.0,0.0,0.361366294253,0.0807411823551,0.280625111898,0.442107476608,0.0807411823551,0.390504664955,160,1.0,-0.227501418013,0.158297521075,nan,nan,nan,nan,nan,nan,nan,nan,1418.9578862,1547.73358435,nan,1548.12363723,nan,nan,nan,nan
1,123,1,1,1.0,1.0,0.336222134531,0,0.0,0.0,0.0,0.361603373474,0.0804487795869,0.281154593887,0.442052153061,0.0804487795869,0.368699243079,205,1.0,0.00854800403903,0.505535240796,nan,nan,nan,nan,nan,nan,nan,nan,1418.9578862,1548.67536709,nan,1549.01158923,nan,nan,nan,nan
1,124,1,1,1.0,1.0,0.282425885962,0,0.0,0.0,0.0,0.361395330532,0.0801510699376,0.281244260594,0.441546400469,0.0801510699376,0.336233633493,479,0.572572153349,0.331768222426,-1.0,nan,nan,nan,nan,nan,nan,nan,nan,1418.9578862,1549.61716038,nan,1549.89958627,nan,nan,nan,nan
1,125,0,0,0.0,1.0,0.420605388121,0,0.0,0.0,0.0,0.360753302527,0.0801389617321,0.280614340795,0.440892264259,0.0801389617321,0.346417802871,19,0.99625917486,0.126374530333,-1.0,nan,nan,nan,nan,nan,nan,nan,nan,1418.9578862,1550.55895481,nan,1550.9795602,nan,nan,nan,nan
1,126,1,1,1.0,1.0,0.326798796188,0,0.0,0.0,0.0,0.361235980637,0.0799944819126,0.281241498724,0.441230462549,0.0799944819126,0.34327669009,482,0.597655625539,0.322480811492,-1.0,nan,nan,nan,nan,nan,nan,nan,nan,1418.9578862,1551.50074354,nan,1551.82754233,nan,nan,nan,nan
1,127,1,1,1.0,1.0,0.472994393844,0,0.0,0.0,0.0,0.360960483161,0.0797329019784,0.281227581183,0.44069338514,0.0797329019784,0.406799526051,158,1.0,-0.235949227405,0.139764106,nan,nan,nan,nan,nan,nan,nan,nan,1418.9578862,1552.44253169,nan,1552.91552609,nan,nan,nan,nan
1,128,1,1,1.0,1.0,0.283183675958,0,0.0,0.0,0.0,0.361849641183,0.0800356536885,0.281813987494,0.441885294871,0.0800356536885,0.360992288663,242,0.632911854383,0.197161183215,0.645921401967,nan,nan,nan,nan,nan,nan,nan,nan,1418.9578862,1553.38431529,nan,1553.66749896,nan,nan,nan,nan
1,129,1,1,1.0,1.0,0.301380614692,0,0.0,0.0,0.0,0.361230224134,0.0800225630373,0.281207661096,0.441252787171,0.0800225630373,0.352519561498,490,0.664660387652,0.296157848571,-1.0,nan,nan,nan,nan,nan,nan,nan,nan,1418.9578862,1554.32610487,nan,1554.62748548,nan,nan,nan,nan
1,130,1,1,1.0,1.0,0.367565789202,0,0.0,0.0,0.0,0.36076264906,0.0798833396047,0.280879309455,0.440645988664,0.0798833396047,0.317376693284,7,0.9030914636,0.181853060355,-1.0,nan,nan,nan,nan,nan,nan,nan,nan,1418.9578862,1555.26789217,nan,1555.63545796,nan,nan,nan,nan
1,131,1,1,1.0,1.0,0.377762027725,0,0.0,0.0,0.0,0.36081538658,0.079575348773,0.281240037807,0.440390735353,0.079575348773,0.34890281054,393,-0.0489456633786,0.475102171109,-0.327443230616,nan,nan,nan,nan,nan,nan,nan,nan,1418.9578862,1556.2096809,nan,1556.58744292,nan,nan,nan,nan
1,132,0,0,0.0,1.0,0.435963037657,0,0.0,0.0,0.0,0.360945745358,0.0792825250207,0.281663220338,0.440228270379,0.0792825250207,0.393763618194,36,1.0,0.0410699577143,-1.0,nan,nan,nan,nan,nan,nan,nan,nan,1418.9578862,1557.15147989,nan,1557.58744292,nan,nan,nan,nan
1,133,1,1,1.0,1.0,0.28616608429,0,0.0,0.0,0.0,0.361518396445,0.0792487665031,0.282269629941,0.440767162948,0.0792487665031,0.366630383224,467,0.473005185182,0.365775667588,-1.0,nan,nan,nan,nan,nan,nan,nan,nan,1418.9578862,1558.09326434,nan,1558.37943042,nan,nan,nan,nan
1,134,1,1,1.0,1.0,0.296351774246,0,0.0,0.0,0.0,0.360947545595,0.0792179115804,0.281729634014,0.440165457175,0.0792179115804,0.339493632064,347,-0.174938837379,0.46723881498,0.167157479366,nan,nan,nan,nan,nan,nan,nan,nan,1418.9578862,1559.03504765,nan,1559.33139942,nan,nan,nan,nan
1,135,1,1,1.0,1.0,0.21055614599,0,1.0,0.0,0.0,0.360461863104,0.0791165635084,0.281345299595,0.439578426612,0.0791165635084,0.264358001509,216,0.900975005756,0.0682271079607,0.563426584804,nan,nan,nan,nan,nan,nan,nan,nan,1418.9578862,1559.97683979,nan,1560.18739594,nan,nan,nan,nan
1,136,1,1,1.0,1.0,0.29274443147,1,0.0,0.0,1.0,0.359343163722,0.0798696838435,0.279473479879,0.439212847566,0.0798696838435,0.266550783902,418,0.101175887384,0.455961754156,-0.661679309199,-153.060471936,243.060471936,-50.8457780638,346.0,-0.174317561957,0.466431294057,0.176670174816,2.16724436986,1418.9578862,1560.91862995,1561.72703794,1561.21137438,1564.93575349,1565.93556818,1562.75216133,1564.92741894
1,137,1,1,1.0,1.0,0.605665806041,0,0.0,0.0,0.0,0.358849839779,0.0797779712295,0.27907186855,0.438627811009,0.0797779712295,0.369655461167,318,-0.0835627602325,0.431640264478,0.413481556053,nan,nan,nan,nan,nan,nan,nan,nan,1418.9578862,1566.07762644,nan,1566.68329224,nan,nan,nan,nan
1,138,0,0,0.0,1.0,0.439841223357,0,0.0,0.0,0.0,0.360664663061,0.0822335728035,0.278431090257,0.442898235864,0.0822335728035,0.446083820289,172,1.0,-0.170984061773,0.265024678188,nan,nan,nan,nan,nan,nan,nan,nan,1418.9578862,1567.019424,nan,1567.45926522,nan,nan,nan,nan
1,139,1,1,1.0,1.0,0.298044114897,0,0.0,0.0,0.0,0.361242594158,0.0822096392915,0.279032954866,0.443452233449,0.0822096392915,0.447850381432,276,0.268710435127,0.329430325417,0.627563005949,nan,nan,nan,nan,nan,nan,nan,nan,1418.9578862,1567.96120132,nan,1568.25924544,nan,nan,nan,nan
1,140,1,1,1.0,1.0,0.300269873638,0,0.0,0.0,0.0,0.360784634163,0.0820864382685,0.278698195895,0.442871072432,0.0820864382685,0.346051737297,121,1.0,-0.310732805591,-0.229640808446,nan,nan,nan,nan,nan,nan,nan,nan,1418.9578862,1568.90295669,nan,1569.20322657,nan,nan,nan,nan
1,141,1,1,1.0,1.0,0.278424252931,0,0.0,0.0,0.0,0.360349276174,0.0819503706905,0.278398905483,0.442299646864,0.0819503706905,0.292246080489,485,0.622774561467,0.312875618285,-1.0,nan,nan,nan,nan,nan,nan,nan,nan,1418.9578862,1569.84477706,nan,1570.12320132,nan,nan,nan,nan
1,142,1,1,1.0,1.0,0.288619636209,0,0.0,0.0,0.0,0.359764097436,0.0819481003562,0.27781599708,0.441712197793,0.0819481003562,0.289104587592,73,1.0,-0.1546788618,-0.830916872461,nan,nan,nan,nan,nan,nan,nan,nan,1418.9578862,1570.78656579,nan,1571.07518543,nan,nan,nan,nan
1,143,0,0,1.0,0.0,0.234830515052,0,0.0,0.0,0.0,0.359259526789,0.0818749434837,0.277384583306,0.441134470273,0.0818749434837,0.267291468064,459,0.407758158413,0.385709174134,-1.0,nan,nan,nan,nan,nan,nan,nan,nan,1418.9578862,1571.72835936,nan,1571.96318988,nan,nan,nan,nan
1,144,1,1,1.0,1.0,0.33301906049,0,0.0,0.0,0.0,0.358383266143,0.0822469634249,0.276136302718,0.440630229568,0.0822469634249,0.28548973725,494,0.698129958021,0.282143999684,-1.0,nan,nan,nan,nan,nan,nan,nan,nan,1418.9578862,1572.67014695,nan,1573.00316601,nan,nan,nan,nan
1,145,1,1,1.0,1.0,0.359204440261,0,0.0,0.0,0.0,0.358205894076,0.0819861317361,0.27621976234,0.440192025812,0.0819861317361,0.309018005268,33,1.0,0.0565990290419,-1.0,nan,nan,nan,nan,nan,nan,nan,nan,1418.9578862,1573.61193853,nan,1573.97114297,nan,nan,nan,nan
1,146,1,1,1.0,1.0,0.321422706533,0,0.0,0.0,0.0,0.358212828424,0.0817010037996,0.276511824625,0.439913832224,0.0817010037996,0.337882069095,344,-0.172543464245,0.464730234515,0.195503824632,nan,nan,nan,nan,nan,nan,nan,nan,1418.9578862,1574.55372954,nan,1574.87515224,nan,nan,nan,nan
1,147,1,1,1.0,1.0,0.275601214264,0,0.0,0.0,0.0,0.357959103446,0.0814756979906,0.276483405455,0.439434801436,0.0814756979906,0.318742787019,2,0.863024578927,0.203622855609,-1.0,nan,nan,nan,nan,nan,nan,nan,nan,1418.9578862,1575.4955137,nan,1575.77111491,nan,nan,nan,nan
1,148,1,1,1.0,1.0,0.261806756142,0,0.0,0.0,0.0,0.357395008314,0.0814798202545,0.27591518806,0.438874828569,0.0814798202545,0.286276892313,157,1.0,-0.240048375319,0.130425901556,nan,nan,nan,nan,nan,nan,nan,nan,1418.9578862,1576.43730072,nan,1576.69910747,nan,nan,nan,nan
1,149,1,1,1.0,1.0,0.295987989404,0,0.0,0.0,0.0,0.356744748096,0.0815814470783,0.275163301017,0.438326195174,0.0815814470783,0.27779865327,279,0.238157575771,0.338930353633,0.618978422254,nan,nan,nan,nan,nan,nan,nan,nan,1418.9578862,1577.37909629,nan,1577.67508427,nan,nan,nan,nan
1,150,1,1,1.0,1.0,0.322193896223,0,0.0,0.0,0.0,0.356334229456,0.0814575714684,0.274876657987,0.437791800924,0.0814575714684,0.293329547256,400,-0.0107874812989,0.471427301814,-0.412692688905,nan,nan,nan,nan,nan,nan,nan,nan,1418.9578862,1578.32087731,nan,1578.64307121,nan,nan,nan,nan
1,151,1,1,1.0,1.0,0.300361960195,0,0.0,0.0,0.0,0.356105099703,0.0812316044356,0.274873495267,0.437336704138,0.0812316044356,0.306181281941,282,0.208142307666,0.34807905204,0.609295500931,nan,nan,nan,nan,nan,nan,nan,nan,1418.9578862,1579.2626706,nan,1579.56303256,nan,nan,nan,nan
1,152,1,1,1.0,1.0,0.278539147344,0,0.0,0.0,0.0,0.355733478772,0.0810873620487,0.274646116724,0.436820840821,0.0810873620487,0.300365001254,49,1.0,-0.027785429985,-1.0,nan,nan,nan,nan,nan,nan,nan,nan,1418.9578862,1580.20450922,nan,1580.48304837,nan,nan,nan,nan
1,153,1,1,1.0,1.0,0.280749225698,0,0.0,0.0,0.0,0.355222258035,0.0810605833473,0.274161674687,0.436282841382,0.0810605833473,0.286550111079,251,0.535576518695,0.236509187076,0.655284151108,nan,nan,nan,nan,nan,nan,nan,nan,1418.9578862,1581.14624463,nan,1581.42699386,nan,nan,nan,nan
1,154,1,1,1.0,1.0,0.338958503446,0,0.0,0.0,0.0,0.354732303874,0.0810175130612,0.273714790813,0.435749816936,0.0810175130612,0.299415625496,24,1.0,0.102019060141,-1.0,nan,nan,nan,nan,nan,nan,nan,nan,1418.9578862,1582.08803906,nan,1582.42699757,nan,nan,nan,nan
1,155,1,1,1.0,1.0,0.29316808685,0,0.0,0.0,0.0,0.35462920714,0.0807623187063,0.273866888433,0.435391525846,0.0807623187063,0.304291938664,494,0.698129958021,0.282143999684,-1.0,nan,nan,nan,nan,nan,nan,nan,nan,1418.9578862,1583.02981924,nan,1583.32298732,nan,nan,nan,nan
1,156,1,1,1.0,1.0,0.351357122709,0,0.0,0.0,0.0,0.354230108956,0.0806508997493,0.273579209207,0.434881008705,0.0806508997493,0.327827904335,327,-0.128086156831,0.445480682368,0.344176439252,nan,nan,nan,nan,nan,nan,nan,nan,1418.9578862,1583.97161138,nan,1584.32296851,nan,nan,nan,nan
1,157,1,1,1.0,1.0,0.377594105084,0,0.0,0.0,0.0,0.354211573561,0.0803906436489,0.273820929912,0.43460221721,0.0803906436489,0.340706438214,423,0.135229581944,0.450080889006,-0.750039916123,nan,nan,nan,nan,nan,nan,nan,nan,1418.9578862,1584.9133659,nan,1585.29096,nan,nan,nan,nan
1,158,1,1,1.0,1.0,0.275742622791,0,0.0,0.0,0.0,0.354361461583,0.0801542924732,0.27420716911,0.434515754057,0.0801542924732,0.334897950195,321,-0.0999433513493,0.43654647086,0.391174984052,nan,nan,nan,nan,nan,nan,nan,nan,1418.9578862,1585.85518855,nan,1586.13093118,nan,nan,nan,nan
1,159,1,1,1.0,1.0,0.46193915559,0,0.0,0.0,0.0,0.353860704648,0.0801430411797,0.273717663469,0.434003745828,0.0801430411797,0.371758627822,81,1.0,-0.193804253699,-0.694219169772,nan,nan,nan,nan,nan,nan,nan,nan,1418.9578862,1586.79697414,nan,1587.2589133,nan,nan,nan,nan
1,160,1,1,1.0,1.0,0.312121675175,0,0.0,0.0,0.0,0.354544745477,0.0803474822281,0.274197263249,0.434892227705,0.0803474822281,0.349934484519,189,1.0,-0.0802194643608,0.400143472992,nan,nan,nan,nan,nan,nan,nan,nan,1418.9578862,1587.73876686,nan,1588.05088854,nan,nan,nan,nan
1,161,1,1,1.0,1.0,0.298330638208,0,0.0,0.0,0.0,0.354277933714,0.0801646037019,0.274113330012,0.434442537416,0.0801646037019,0.357463822991,271,0.320642857732,0.312811632898,0.639400143054,nan,nan,nan,nan,nan,nan,nan,nan,1418.9578862,1588.68055074,nan,1588.97888138,nan,nan,nan,nan
1,162,1,1,1.0,1.0,0.228523581056,0,0.0,0.0,0.0,0.353928263117,0.0800352407901,0.273893022327,0.433963503907,0.0800352407901,0.27965863148,390,-0.0641960347588,0.476284203309,-0.291947553613,nan,nan,nan,nan,nan,nan,nan,nan,1418.9578862,1589.62234602,nan,1589.85086961,nan,nan,nan,nan
1,163,1,1,1.0,1.0,0.206724146206,0,1.0,0.0,0.0,0.353149352049,0.0803923228821,0.272757029166,0.433541674931,0.0803923228821,0.244526121824,290,0.131265381085,0.370776544741,0.578206616232,nan,nan,nan,nan,nan,nan,nan,nan,1418.9578862,1590.56413047,nan,1590.77085462,nan,nan,nan,nan
1,164,1,1,1.0,1.0,0.392910700524,1,0.0,0.0,1.0,0.352245492753,0.0809602482567,0.271285244496,0.43320574101,0.0809602482567,0.276052809262,145,1.0,-0.281667413287,0.0150551701241,-24.5377284766,114.537728477,12.5846034766,163.0,1.0,-0.214247802105,0.185723682048,1.73386945028,1418.9578862,1591.50591977,1592.31432748,1591.89883047,1595.08134383,1596.08987224,1593.33109579,1595.07300728
1,165,0,0,0.0,1.0,0.507221527805,0,0.0,0.0,0.0,0.352494972556,0.0807739603464,0.271721012209,0.433268932902,0.0807739603464,0.368952124845,245,0.600577697281,0.210610106048,0.650172825369,nan,nan,nan,nan,nan,nan,nan,nan,1418.9578862,1596.23153079,nan,1596.73875232,nan,nan,nan,nan
1,166,1,1,1.0,1.0,0.397412395163,0,0.0,0.0,0.0,0.353438427161,0.08142319644,0.272015230721,0.434861623601,0.08142319644,0.432514874497,386,-0.0833946583454,0.477495592553,-0.245424736514,nan,nan,nan,nan,nan,nan,nan,nan,1418.9578862,1597.17332209,nan,1597.57073448,nan,nan,nan,nan
1,167,1,1,1.0,1.0,0.359600156022,0,0.0,0.0,0.0,0.353704936058,0.0812478007178,0.27245713534,0.434952736775,0.0812478007178,0.421411359663,72,1.0,-0.149607777062,-0.853203742106,nan,nan,nan,nan,nan,nan,nan,nan,1418.9578862,1598.11510169,nan,1598.47470184,nan,nan,nan,nan
1,168,1,1,1.0,1.0,0.305806758406,0,0.0,0.0,0.0,0.353740449431,0.0810039932566,0.272736456174,0.434744442688,0.0810039932566,0.354273103197,117,1.0,-0.307587969795,-0.271886539361,nan,nan,nan,nan,nan,nan,nan,nan,1418.9578862,1599.05689213,nan,1599.36269888,nan,nan,nan,nan
1,169,1,1,1.0,1.0,0.387992763077,0,0.0,0.0,0.0,0.353453421341,0.0808457268829,0.272607694458,0.434299148224,0.0808457268829,0.351133225835,230,0.760023132926,0.140224214653,0.61781109556,nan,nan,nan,nan,nan,nan,nan,nan,1418.9578862,1599.99868912,nan,1600.38668188,nan,nan,nan,nan
1,170,0,0,0.0,1.0,0.470180763397,0,0.0,0.0,0.0,0.353659012661,0.0806485295995,0.273010483061,0.43430754226,0.0806485295995,0.387993428293,506,0.797774742377,0.236703125255,-1.0,nan,nan,nan,nan,nan,nan,nan,nan,1418.9578862,1600.94047015,nan,1601.41065091,nan,nan,nan,nan
1,171,1,1,1.0,1.0,0.35237691761,0,0.0,0.0,0.0,0.354348490476,0.0809046525565,0.273443837919,0.435253143032,0.0809046525565,0.403516814695,167,1.0,-0.195605812978,0.221546716301,nan,nan,nan,nan,nan,nan,nan,nan,1418.9578862,1601.88226144,nan,1602.23463836,nan,nan,nan,nan
1,172,1,1,1.0,1.0,0.306582224497,0,0.0,0.0,0.0,0.354336892988,0.0806664876232,0.273670405365,0.435003380612,0.0806664876232,0.376379968501,322,-0.105067232891,0.43811622051,0.383559350674,nan,nan,nan,nan,nan,nan,nan,nan,1418.9578862,1602.82404874,nan,1603.13063097,nan,nan,nan,nan
1,173,1,1,1.0,1.0,0.420769604505,0,0.0,0.0,0.0,0.354057625921,0.0805126538449,0.273544972076,0.434570279766,0.0805126538449,0.359909582204,370,-0.144805996584,0.478178727438,-0.0671803333712,nan,nan,nan,nan,nan,nan,nan,nan,1418.9578862,1603.76583946,nan,1604.18660907,nan,nan,nan,nan
1,174,1,1,1.0,1.0,0.286958941317,0,0.0,0.0,0.0,0.354445486262,0.0804383254838,0.274007160778,0.434883811746,0.0804383254838,0.338103590106,230,0.760023132926,0.140224214653,0.61781109556,nan,nan,nan,nan,nan,nan,nan,nan,1418.9578862,1604.70762705,nan,1604.99458599,nan,nan,nan,nan
1,175,1,1,1.0,1.0,0.297162877512,0,0.0,0.0,0.0,0.354055390626,0.0803685107533,0.273686879873,0.43442390138,0.0803685107533,0.334963807778,121,1.0,-0.310732805591,-0.229640808446,nan,nan,nan,nan,nan,nan,nan,nan,1418.9578862,1605.64941321,nan,1605.94657609,nan,nan,nan,nan
1,176,1,1,1.0,1.0,0.283355589956,0,0.0,0.0,0.0,0.35372842216,0.0802525477475,0.273475874413,0.433980969908,0.0802525477475,0.289159136262,441,0.266287261384,0.422891888867,-1.0,nan,nan,nan,nan,nan,nan,nan,nan,1418.9578862,1606.59122446,nan,1606.87458005,nan,nan,nan,nan
1,177,1,1,1.0,1.0,0.325545791246,0,0.0,0.0,0.0,0.35332629169,0.0801985416157,0.273127750075,0.433524833306,0.0801985416157,0.302021419571,170,1.0,-0.180990482069,0.247815061387,nan,nan,nan,nan,nan,nan,nan,nan,1418.9578862,1607.53299722,nan,1607.85854301,nan,nan,nan,nan
1,178,1,1,1.0,1.0,0.24778165383,0,0.0,0.0,0.0,0.353168447938,0.0799976361424,0.273170811795,0.43316608408,0.0799976361424,0.285561011677,35,1.0,0.0462653595507,-1.0,nan,nan,nan,nan,nan,nan,nan,nan,1418.9578862,1608.47476856,nan,1608.72255021,nan,nan,nan,nan
1,179,1,1,1.0,1.0,0.193948627624,0,1.0,0.0,0.0,0.352573042321,0.0801614565382,0.272411585783,0.43273449886,0.0801614565382,0.2557586909,311,-0.0397249783266,0.419020224334,0.462250212202,nan,nan,nan,nan,nan,nan,nan,nan,1418.9578862,1609.41657125,nan,1609.61051988,nan,nan,nan,nan
1,180,1,1,1.0,1.0,0.228133567201,1,0.0,0.0,1.0,0.351681893924,0.0808104110228,0.270871482901,0.432492304947,0.0808104110228,0.223287949552,233,0.728670395113,0.154909781369,0.626482233315,-49.6668583714,139.666858371,-24.1612666286,199.0,1.0,-0.0246761787097,0.468786302982,1.34212993167,1418.9578862,1610.35834715,1611.16676541,1610.58648072,1613.55039617,1614.55999542,1612.19186542,1613.5420468
1,181,1,1,1.0,1.0,0.461836805451,0,0.0,0.0,0.0,0.350991679808,0.0811088076873,0.269882872121,0.432100487496,0.0811088076873,0.294639666759,73,1.0,-0.1546788618,-0.830916872461,nan,nan,nan,nan,nan,nan,nan,nan,1418.9578862,1614.70058998,nan,1615.16242679,nan,nan,nan,nan
1,182,1,1,1.0,1.0,0.544015112449,0,0.0,0.0,0.0,0.351607486062,0.0813017256642,0.270305760398,0.432909211726,0.0813017256642,0.411328495034,206,0.994723455659,0.014051917983,0.511316161583,nan,nan,nan,nan,nan,nan,nan,nan,1418.9578862,1615.64237472,nan,1616.18638983,nan,nan,nan,nan
1,183,1,1,1.0,1.0,0.410252915986,0,0.0,1.0,0.0,0.352670511622,0.0823216595003,0.270348852122,0.434992171123,0.0823216595003,0.472034944629,380,-0.109519508899,0.478533032186,-0.177177385375,nan,nan,nan,nan,nan,nan,nan,nan,1418.9578862,1616.58414976,nan,1616.99440267,nan,nan,nan,nan
1,184,1,1,1.0,1.0,0.380419709603,1,0.0,0.0,1.0,0.352986898459,0.0822054643353,0.270781434124,0.435192362795,0.0822054643353,0.44489591268,148,1.0,-0.272695592461,0.0444264621409,-13.7663006855,103.766300685,-0.296199314534,148.0,1.0,-0.272695592461,0.0444264621409,2.17565760663,1418.9578862,1617.5259536,1618.334367,1617.9063733,1621.54307942,1622.54703173,1619.35114102,1621.53474316
1,185,1,1,1.0,1.0,0.36533974536,0,0.0,0.0,0.0,0.353136804531,0.082005491936,0.271131312595,0.435142296467,0.082005491936,0.385337456983,426,0.156193047225,0.446210853967,-0.81485970128,nan,nan,nan,nan,nan,nan,nan,nan,1418.9578862,1622.68496006,nan,1623.05029981,nan,nan,nan,nan
1,186,1,1,1.0,1.0,0.415514396271,0,0.0,0.0,0.0,0.353203124862,0.0817872681958,0.271415856666,0.434990393058,0.0817872681958,0.387091283745,0,0.846831709088,0.212097570855,-1.0,nan,nan,nan,nan,nan,nan,nan,nan,1418.9578862,1623.62673824,nan,1624.04225264,nan,nan,nan,nan
1,187,1,1,1.0,1.0,0.345721308899,0,0.0,0.0,0.0,0.353539942545,0.0816937802049,0.27184616234,0.43523372275,0.0816937802049,0.375525150176,470,0.497741612616,0.357740777197,-1.0,nan,nan,nan,nan,nan,nan,nan,nan,1418.9578862,1624.56853238,nan,1624.91425369,nan,nan,nan,nan
1,188,0,0,0.0,1.0,0.459928075492,0,0.0,0.0,0.0,0.35349790688,0.0814758834079,0.272022023472,0.434973790288,0.0814758834079,0.407054593554,389,-0.0691208065164,0.476626077068,-0.280234315682,nan,nan,nan,nan,nan,nan,nan,nan,1418.9578862,1625.51031227,nan,1625.97024035,nan,nan,nan,nan
1,189,1,1,1.0,1.0,0.326104583044,0,0.0,0.0,0.0,0.354067052167,0.0816276352983,0.272439416869,0.435694687465,0.0816276352983,0.377251322478,230,0.760023132926,0.140224214653,0.61781109556,nan,nan,nan,nan,nan,nan,nan,nan,1418.9578862,1626.45210784,nan,1626.77821243,nan,nan,nan,nan
1,190,1,1,1.0,1.0,0.560307882843,0,0.0,0.0,0.0,0.353918315629,0.0814356549461,0.272482660683,0.435353970575,0.0814356549461,0.44878018046,160,1.0,-0.227501418013,0.158297521075,nan,nan,nan,nan,nan,nan,nan,nan,1418.9578862,1627.39389486,nan,1627.95420274,nan,nan,nan,nan
1,191,1,1,1.0,1.0,0.338487236761,0,0.0,0.0,0.0,0.355010323921,0.082588521144,0.272421802777,0.437598845065,0.082588521144,0.408299900882,504,0.78128615449,0.244628286196,-1.0,nan,nan,nan,nan,nan,nan,nan,nan,1418.9578862,1628.33568301,nan,1628.67417025,nan,nan,nan,nan
1,192,1,1,1.0,1.0,0.332692053285,0,0.0,0.0,0.0,0.354923360305,0.08237957202,0.272543788285,0.437302932325,0.08237957202,0.410495724296,250,0.546428449327,0.232286661223,0.654747725831,nan,nan,nan,nan,nan,nan,nan,nan,1418.9578862,1629.27747146,nan,1629.61016351,nan,nan,nan,nan
1,193,1,1,1.0,1.0,0.382870980713,0,0.0,0.0,0.0,0.354806966027,0.0821792983509,0.272627667676,0.436986264378,0.0821792983509,0.351350090253,52,1.0,-0.0438860552364,-1.0,nan,nan,nan,nan,nan,nan,nan,nan,1418.9578862,1630.21926503,nan,1630.60213601,nan,nan,nan,nan
1,194,1,1,1.0,1.0,0.39305638551,0,0.0,0.0,0.0,0.35495313277,0.0819898992981,0.272963233472,0.436943032068,0.0819898992981,0.369539806503,258,0.459642287315,0.26499291187,0.655490062901,nan,nan,nan,nan,nan,nan,nan,nan,1418.9578862,1631.16105775,nan,1631.55411413,nan,nan,nan,nan
1,195,1,1,1.0,1.0,0.411245056428,0,0.0,0.0,0.0,0.35515055895,0.0818229576199,0.27332760133,0.43697351657,0.0818229576199,0.395724140884,442,0.273907262724,0.421095538958,-1.0,nan,nan,nan,nan,nan,nan,nan,nan,1418.9578862,1632.10284761,nan,1632.51409267,nan,nan,nan,nan
1,196,1,1,1.0,1.0,0.493459285761,0,0.0,0.0,0.0,0.355439705844,0.081710599354,0.27372910649,0.437150305198,0.081710599354,0.432586909233,511,0.838703193994,0.216284169582,-1.0,nan,nan,nan,nan,nan,nan,nan,nan,1418.9578862,1633.04462693,nan,1633.53808622,nan,nan,nan,nan
1,197,1,1,1.0,1.0,0.391665963398,0,0.0,0.0,0.0,0.356147498562,0.0820948916947,0.274052606867,0.438242390257,0.0820948916947,0.432123435196,369,-0.147694689129,0.477999187239,-0.0564338676883,nan,nan,nan,nan,nan,nan,nan,nan,1418.9578862,1633.98641851,nan,1634.37808447,nan,nan,nan,nan
1,198,1,1,1.0,1.0,0.305864633294,0,0.0,0.0,0.0,0.356328715219,0.0819242904931,0.274404424726,0.438253005712,0.0819242904931,0.396996627484,418,0.101175887384,0.455961754156,-0.661679309199,nan,nan,nan,nan,nan,nan,nan,nan,1418.9578862,1634.92819355,nan,1635.23405819,nan,nan,nan,nan
1,199,1,1,1.0,1.0,0.180066074245,0,0.0,0.0,0.0,0.356072552367,0.0817947540798,0.274277798287,0.437867306447,0.0817947540798,0.292532223645,106,1.0,-0.287630069369,-0.390564445695,nan,nan,nan,nan,nan,nan,nan,nan,1418.9578862,1635.86998114,nan,1636.05004721,nan,nan,nan,nan
1,200,1,1,1.0,1.0,0.350249517651,0,0.0,0.0,0.0,0.35518363076,0.0825364026817,0.272647228079,0.437720033442,0.0825364026817,0.27872674173,183,1.0,-0.113108999915,0.354902835149,nan,nan,nan,nan,nan,nan,nan,nan,1418.9578862,1636.81178754,nan,1637.16203706,nan,nan,nan,nan
1,201,1,1,1.0,1.0,0.312427585188,0,0.0,0.0,0.0,0.355158836222,0.0823295028579,0.272829333364,0.43748833908,0.0823295028579,0.280914392361,322,-0.105067232891,0.43811622051,0.383559350674,nan,nan,nan,nan,nan,nan,nan,nan,1418.9578862,1637.75357712,nan,1638.06600471,nan,nan,nan,nan
1,202,1,1,1.0,1.0,0.32263266173,0,0.0,0.0,0.0,0.354945179967,0.0821787104772,0.27276646949,0.437123890444,0.0821787104772,0.328436588189,221,0.851781464038,0.0945411604707,0.585422935822,nan,nan,nan,nan,nan,nan,nan,nan,1418.9578862,1638.69535958,nan,1639.01799224,nan,nan,nan,nan
1,203,1,1,1.0,1.0,0.300833512039,0,0.0,0.0,0.0,0.35478442117,0.0820055511849,0.272778869985,0.436789972354,0.0820055511849,0.311964586319,352,-0.17544712699,0.470851603012,0.118673592819,nan,nan,nan,nan,nan,nan,nan,nan,1418.9578862,1639.63715344,nan,1639.93798695,nan,nan,nan,nan
1,204,1,1,1.0,1.0,0.295027209737,0,0.0,0.0,0.0,0.354517337461,0.0818899069761,0.272627430485,0.436407244437,0.0818899069761,0.306164461169,495,0.706485112283,0.278551693791,-1.0,nan,nan,nan,nan,nan,nan,nan,nan,1418.9578862,1640.57893846,nan,1640.87396567,nan,nan,nan,nan
1,205,1,1,1.0,1.0,0.289211214171,0,0.0,0.0,0.0,0.354224282645,0.0817940742451,0.272430208399,0.43601835689,0.0817940742451,0.295023978649,199,1.0,-0.0246761787097,0.468786302982,nan,nan,nan,nan,nan,nan,nan,nan,1418.9578862,1641.52072747,nan,1641.80993868,nan,nan,nan,nan
1,206,0,0,0.0,1.0,0.411420391523,0,0.0,0.0,0.0,0.353905591132,0.0817195979335,0.272185993199,0.435625189066,0.0817195979335,0.33188627181,28,1.0,0.082066132397,-1.0,nan,nan,nan,nan,nan,nan,nan,nan,1418.9578862,1642.46251505,nan,1642.87393544,nan,nan,nan,nan
1,207,1,1,1.0,1.0,0.285606437246,0,0.0,0.0,0.0,0.354186151134,0.0816184676597,0.272567683475,0.435804618794,0.0816184676597,0.328746014313,387,-0.0787219327085,0.477231755363,-0.256974454483,nan,nan,nan,nan,nan,nan,nan,nan,1418.9578862,1643.40430292,nan,1643.68990936,nan,nan,nan,nan
1,208,1,1,1.0,1.0,0.415801204741,0,0.0,0.0,0.0,0.353853239902,0.0815595282671,0.272293711635,0.435412768169,0.0815595282671,0.370942677837,337,-0.160643365934,0.457858386897,0.259303564052,nan,nan,nan,nan,nan,nan,nan,nan,1418.9578862,1644.34609479,nan,1644.76189599,nan,nan,nan,nan
1,209,1,1,1.0,1.0,0.40199021087,0,0.0,0.0,0.0,0.354152505433,0.0814755848435,0.272676920589,0.435628090276,0.0814755848435,0.367799284286,117,1.0,-0.307587969795,-0.271886539361,nan,nan,nan,nan,nan,nan,nan,nan,1418.9578862,1645.28788494,nan,1645.68987515,nan,nan,nan,nan
1,210,1,1,1.0,1.0,0.300180923077,0,0.0,0.0,0.0,0.354382494401,0.0813468217641,0.273035672637,0.435729316165,0.0813468217641,0.37265744623,85,1.0,-0.212156452387,-0.638781227021,nan,nan,nan,nan,nan,nan,nan,nan,1418.9578862,1646.22966939,nan,1646.52985031,nan,nan,nan,nan
1,211,0,0,0.0,1.0,0.438378956576,0,0.0,0.0,0.0,0.354123156739,0.081238124766,0.272885031973,0.435361281505,0.081238124766,0.380183363508,426,0.156193047225,0.446210853967,-0.81485970128,nan,nan,nan,nan,nan,nan,nan,nan,1418.9578862,1647.17146781,nan,1647.60984677,nan,nan,nan,nan
1,212,1,1,1.0,1.0,0.296593822248,0,0.0,0.0,0.0,0.354524374834,0.0812517696274,0.273272605206,0.435776144461,0.0812517696274,0.345051233967,7,0.9030914636,0.181853060355,-1.0,nan,nan,nan,nan,nan,nan,nan,nan,1418.9578862,1648.11324228,nan,1648.4098361,nan,nan,nan,nan
1,213,1,1,1.0,1.0,0.450770733471,0,0.0,0.0,0.0,0.354249822452,0.0811565848889,0.273093237563,0.435406407341,0.0811565848889,0.395247837432,468,0.481236483515,0.363131620867,-1.0,nan,nan,nan,nan,nan,nan,nan,nan,1418.9578862,1649.055035,nan,1649.50580573,nan,nan,nan,nan
1,214,1,1,1.0,1.0,0.548992635333,0,0.0,0.0,0.0,0.354705109768,0.0812346037564,0.273470506011,0.435939713524,0.0812346037564,0.432119063684,137,1.0,-0.300190217086,-0.0647316600203,nan,nan,nan,nan,nan,nan,nan,nan,1418.9578862,1649.99678609,nan,1650.54577873,nan,nan,nan,nan
1,215,1,1,1.0,1.0,0.431163415778,0,0.0,1.0,0.0,0.355617257775,0.0821246997343,0.273492558041,0.437741957509,0.0821246997343,0.476975594861,11,0.934659501434,0.163852895862,-1.0,nan,nan,nan,nan,nan,nan,nan,nan,1418.9578862,1650.93860989,nan,1651.3697733,nan,nan,nan,nan
1,216,1,1,1.0,1.0,0.297341348778,1,0.0,0.0,1.0,0.355970277205,0.0820944258014,0.273875851404,0.438064703007,0.0820944258014,0.42583246663,424,0.142174562463,0.448819569244,-0.770229420881,143.462891136,306.537108864,8.41210886441,436.0,0.228681708805,0.431413732101,-1.0,2.04220360093,1418.9578862,1651.88040289,1652.68881059,1652.17774424,1655.77251189,1656.77288737,1653.71393398,1655.76419417
1,217,1,1,1.0,1.0,0.335304119566,0,0.0,0.0,0.0,0.355697584515,0.0820003754832,0.273697209032,0.437697959998,0.0820003754832,0.354602961374,229,0.770397026975,0.135265939772,0.614681466938,nan,nan,nan,nan,nan,nan,nan,nan,1418.9578862,1656.91438313,nan,1657.24968725,nan,nan,nan,nan
1,218,0,0,0.0,1.0,0.521509490325,0,0.0,0.0,0.0,0.355603170325,0.0818220519365,0.273781118389,0.437425222262,0.0818220519365,0.384718319556,94,1.0,-0.249439013202,-0.526745155233,nan,nan,nan,nan,nan,nan,nan,nan,1418.9578862,1657.85613793,nan,1658.37764742,nan,nan,nan,nan
1,219,1,1,1.0,1.0,0.467672472761,0,0.0,0.0,0.0,0.356367715579,0.0824030018153,0.273964713763,0.438770717394,0.0824030018153,0.441495360884,483,0.606025706087,0.319314454546,-1.0,nan,nan,nan,nan,nan,nan,nan,nan,1418.9578862,1658.79795745,nan,1659.26562992,nan,nan,nan,nan
1,220,1,1,1.0,1.0,0.469852330745,0,0.0,0.0,0.0,0.356878287859,0.0825571026046,0.274321185255,0.439435390464,0.0825571026046,0.486344764611,322,-0.105067232891,0.43811622051,0.383559350674,nan,nan,nan,nan,nan,nan,nan,nan,1418.9578862,1659.73975444,nan,1660.20960677,nan,nan,nan,nan
1,221,1,1,1.0,1.0,0.384122275049,0,0.0,1.0,0.0,0.357394151069,0.0827198067179,0.274674344351,0.440113957787,0.0827198067179,0.440549026185,376,-0.124962824795,0.478704673615,-0.132627625282,nan,nan,nan,nan,nan,nan,nan,nan,1418.9578862,1660.68154032,nan,1661.06566259,nan,nan,nan,nan
1,222,1,1,1.0,1.0,0.330261024181,1,0.0,0.0,1.0,0.357515642541,0.0825511739939,0.274964468548,0.440066816535,0.0825511739939,0.394745209992,220,0.861731547614,0.0893272636146,0.581247684387,-75.049913621,165.049913621,10.362413621,235.0,0.707591924495,0.164537776567,0.631659631194,1.57549190777,1418.9578862,1661.62332762,1662.43173589,1661.95358864,1665.04038297,1666.03912597,1663.44852673,1665.03205697
1,223,1,1,1.0,1.0,0.347260266892,0,0.0,0.0,0.0,0.357392318476,0.0823845042425,0.275007814234,0.439776822719,0.0823845042425,0.353881188707,14,0.95801504718,0.150023555696,-1.0,nan,nan,nan,nan,nan,nan,nan,nan,1418.9578862,1666.18226047,nan,1666.52952074,nan,nan,nan,nan
1,224,1,1,1.0,1.0,0.309444891755,0,0.0,0.0,0.0,0.357346678604,0.082201544264,0.27514513434,0.439548222868,0.082201544264,0.328988727609,210,0.958022500947,0.0359304984579,0.533421856807,nan,nan,nan,nan,nan,nan,nan,nan,1418.9578862,1667.12405718,nan,1667.43350207,nan,nan,nan,nan
1,225,1,1,1.0,1.0,0.471646736434,0,0.0,0.0,0.0,0.357131872385,0.0820794521789,0.275052420207,0.439211324564,0.0820794521789,0.37611729836,166,1.0,-0.20036215083,0.21267421211,nan,nan,nan,nan,nan,nan,nan,nan,1418.9578862,1668.06582909,nan,1668.53747582,nan,nan,nan,nan
1,226,1,1,1.0,1.0,0.337822958827,0,0.0,0.0,0.0,0.357643099457,0.0822510921496,0.275392007307,0.439894191607,0.0822510921496,0.372971529005,473,0.522594813828,0.349396171415,-1.0,nan,nan,nan,nan,nan,nan,nan,nan,1418.9578862,1669.00762494,nan,1669.3454479,nan,nan,nan,nan
1,227,1,1,1.0,1.0,0.292034822982,0,0.0,0.0,0.0,0.357555009943,0.082078697624,0.275476312319,0.439633707567,0.082078697624,0.367168172748,166,1.0,-0.20036215083,0.21267421211,nan,nan,nan,nan,nan,nan,nan,nan,1418.9578862,1669.94940141,nan,1670.24143623,nan,nan,nan,nan
1,228,1,1,1.0,1.0,0.182239660062,0,1.0,0.0,0.0,0.357265097611,0.0820122815002,0.275252816111,0.439277379112,0.0820122815002,0.27069914729,388,-0.0739633693698,0.476941921698,-0.268577162136,nan,nan,nan,nan,nan,nan,nan,nan,1418.9578862,1670.89119413,nan,1671.07343379,nan,nan,nan,nan
1,229,1,1,1.0,1.0,0.0884259407176,1,0.0,0.0,1.0,0.356494060442,0.0826482965194,0.273845763922,0.439142356961,0.0826482965194,0.18756680792,278,0.248285521772,0.335802812283,0.621962573991,-108.434948823,198.434948823,2.96619882292,282.0,0.208142307666,0.34807905204,0.609295500931,1.29212519899,1418.9578862,1671.8329857,1672.64138942,1671.92141164,1674.97498979,1675.97612391,1673.66649143,1674.96666237
1,230,1,1,1.0,1.0,0.380503528344,0,0.0,0.0,0.0,0.355318323074,0.0843479512171,0.270970371857,0.439666274292,0.0843479512171,0.217056376374,116,1.0,-0.306446923025,-0.282515442494,nan,nan,nan,nan,nan,nan,nan,nan,1418.9578862,1676.11683679,nan,1676.49734032,nan,nan,nan,nan
1,231,1,1,1.0,1.0,0.286644478445,0,0.0,0.0,0.0,0.355428302137,0.0841799655684,0.271248336568,0.439608267705,0.0841799655684,0.251857982502,188,1.0,-0.0857393506835,0.392804289229,nan,nan,nan,nan,nan,nan,nan,nan,1418.9578862,1677.05866458,nan,1677.34530906,nan,nan,nan,nan
1,232,1,1,1.0,1.0,0.184848020086,0,0.0,0.0,0.0,0.355129242034,0.084118593716,0.271010648318,0.43924783575,0.084118593716,0.283998675625,31,1.0,0.0668515730764,-1.0,nan,nan,nan,nan,nan,nan,nan,nan,1418.9578862,1678.00044903,nan,1678.18529705,nan,nan,nan,nan
1,233,1,1,1.0,1.0,0.187048690161,0,1.0,0.0,0.0,0.354392093887,0.0846775362371,0.26971455765,0.439069630124,0.0846775362371,0.219513729564,140,1.0,-0.294209249228,-0.0345777392028,nan,nan,nan,nan,nan,nan,nan,nan,1418.9578862,1678.94223747,nan,1679.12928616,nan,nan,nan,nan
1,234,1,1,1.0,1.0,0.229235185136,1,0.0,0.0,1.0,0.353670786112,0.0852030783185,0.268467707794,0.438873864431,0.0852030783185,0.200377298461,497,0.723174939644,0.271260599794,-1.0,129.91589659,320.08410341,-29.3690215904,455.0,0.375608248681,0.394875365091,-1.0,1.95051984733,1418.9578862,1679.88402962,1680.69243761,1680.1132648,1683.68446029,1684.68077454,1681.71756185,1683.67613001
1,235,1,1,1.0,1.0,0.41486009676,0,0.0,0.0,0.0,0.353136727739,0.0854083033541,0.267728424385,0.438545031093,0.0854083033541,0.277047990685,337,-0.160643365934,0.457858386897,0.259303564052,nan,nan,nan,nan,nan,nan,nan,nan,1418.9578862,1684.82633152,nan,1685.24119162,nan,nan,nan,nan
1,236,1,1,1.0,1.0,0.385038009263,0,0.0,0.0,0.0,0.35340050282,0.0853206679518,0.268079834868,0.438721170772,0.0853206679518,0.343044430386,16,0.973419431522,0.140652110383,-1.0,nan,nan,nan,nan,nan,nan,nan,nan,1418.9578862,1685.76812224,nan,1686.15316025,nan,nan,nan,nan
1,237,1,1,1.0,1.0,0.37123357266,0,0.0,0.0,0.0,0.353535130507,0.0851638447257,0.268371285781,0.438698975233,0.0851638447257,0.390377226227,132,1.0,-0.307426825298,-0.115555361894,nan,nan,nan,nan,nan,nan,nan,nan,1418.9578862,1686.70990441,nan,1687.08113799,nan,nan,nan,nan
1,238,0,0,0.0,1.0,0.557454908907,0,0.0,0.0,0.0,0.353610123906,0.0849909968557,0.26861912705,0.438601120762,0.0849909968557,0.437908830276,248,0.568115903494,0.223728204869,0.653295769881,nan,nan,nan,nan,nan,nan,nan,nan,1418.9578862,1687.65170198,nan,1688.20915689,nan,nan,nan,nan
1,239,1,1,1.0,1.0,0.343614721089,0,0.0,0.0,0.0,0.354470228484,0.08583460156,0.268635626924,0.440304830044,0.08583460156,0.424101067552,171,1.0,-0.176011872558,0.256450910142,nan,nan,nan,nan,nan,nan,nan,nan,1418.9578862,1688.59348586,nan,1688.93710058,nan,nan,nan,nan
1,240,1,1,1.0,1.0,0.297806628398,0,0.0,0.0,0.0,0.354424617108,0.0856569650737,0.268767652035,0.440081582182,0.0856569650737,0.399625419464,323,-0.11001989341,0.43965344528,0.375855360355,nan,nan,nan,nan,nan,nan,nan,nan,1418.9578862,1689.53527202,nan,1689.83307865,nan,nan,nan,nan
1,241,1,1,1.0,1.0,0.332005822798,0,0.0,0.0,0.0,0.354187721758,0.0855556710907,0.268632050668,0.439743392849,0.0855556710907,0.324475724095,258,0.459642287315,0.26499291187,0.655490062901,nan,nan,nan,nan,nan,nan,nan,nan,1418.9578862,1690.47706616,nan,1690.80907198,nan,nan,nan,nan
1,242,1,1,1.0,1.0,0.350212454912,0,0.0,0.0,0.0,0.354095297179,0.0853891996249,0.268706097554,0.439484496804,0.0853891996249,0.326674968703,167,1.0,-0.195605812978,0.221546716301,nan,nan,nan,nan,nan,nan,nan,nan,1418.9578862,1691.41885204,nan,1691.76906449,nan,nan,nan,nan
1,243,1,1,1.0,1.0,0.360394153453,0,0.0,0.0,0.0,0.354079185801,0.0852122250041,0.268866960796,0.439291410805,0.0852122250041,0.347537477054,286,0.169078956243,0.359734776014,0.594698705761,nan,nan,nan,nan,nan,nan,nan,nan,1418.9578862,1692.36064818,nan,1692.72104233,nan,nan,nan,nan
1,244,1,1,1.0,1.0,0.354585285299,0,0.0,0.0,0.0,0.354105280708,0.0850369493574,0.269068331351,0.439142230066,0.0850369493574,0.355063964555,186,1.0,-0.0967386681424,0.377881386018,nan,nan,nan,nan,nan,nan,nan,nan,1418.9578862,1693.30243662,nan,1693.6570219,nan,nan,nan,nan
1,245,0,0,0.0,1.0,0.444783109007,0,0.0,0.0,0.0,0.354107256036,0.0848618013892,0.269245454646,0.438969057425,0.0848618013892,0.38658751592,45,1.0,-0.0063957592436,-1.0,nan,nan,nan,nan,nan,nan,nan,nan,1418.9578862,1694.24421879,nan,1694.6890019,nan,nan,nan,nan
1,246,1,1,1.0,1.0,0.302966613905,0,0.0,0.0,0.0,0.354478878384,0.0848856286845,0.269593249699,0.439364507068,0.0848856286845,0.367445002737,341,-0.168535884224,0.46196150489,0.223260112086,nan,nan,nan,nan,nan,nan,nan,nan,1418.9578862,1695.18601464,nan,1695.48898125,nan,nan,nan,nan
1,247,1,1,1.0,1.0,0.281160336745,0,0.0,0.0,0.0,0.354268624243,0.0847758569856,0.269492767258,0.439044481229,0.0847758569856,0.342970019885,40,1.0,0.0201165467467,-1.0,nan,nan,nan,nan,nan,nan,nan,nan,1418.9578862,1696.12780166,nan,1696.40896199,nan,nan,nan,nan
1,248,0,0,0.0,1.0,0.41136878886,0,0.0,0.0,0.0,0.353971436083,0.0847311589498,0.269240277133,0.438702595032,0.0847311589498,0.33183191317,267,0.362924526182,0.298807232282,0.646622522267,nan,nan,nan,nan,nan,nan,nan,nan,1418.9578862,1697.06958867,nan,1697.48095746,nan,nan,nan,nan
1,249,1,1,1.0,1.0,0.2775652532,0,0.0,0.0,0.0,0.354203814029,0.0846379755428,0.269565838486,0.438841789572,0.0846379755428,0.323364792935,2,0.863024578927,0.203622855609,-1.0,nan,nan,nan,nan,nan,nan,nan,nan,1418.9578862,1698.01137455,nan,1698.2889398,nan,nan,nan,nan
1,250,1,1,1.0,1.0,0.31176672841,0,0.0,0.0,0.0,0.353894787574,0.084606674195,0.269288113379,0.438501461769,0.084606674195,0.33356692349,262,0.416452475899,0.2804144186,0.652815538838,nan,nan,nan,nan,nan,nan,nan,nan,1418.9578862,1698.95316441,nan,1699.26493114,nan,nan,nan,nan
1,251,1,1,1.0,1.0,0.329958535323,0,0.0,0.0,0.0,0.353725598582,0.0844786372253,0.269246961356,0.438204235807,0.0844786372253,0.306430172311,385,-0.0879796604702,0.477733444059,-0.233926720364,nan,nan,nan,nan,nan,nan,nan,nan,1418.9578862,1699.89495115,nan,1700.22490968,nan,nan,nan,nan
1,252,0,0,0.0,1.0,0.420147235913,0,0.0,0.0,0.0,0.353630530328,0.0843228559885,0.26930767434,0.437953386317,0.0843228559885,0.353957499882,63,1.0,-0.102744642793,-1.0,nan,nan,nan,nan,nan,nan,nan,nan,1418.9578862,1700.83674073,nan,1701.25688796,nan,nan,nan,nan
1,253,1,1,1.0,1.0,0.230347351753,0,0.0,0.0,0.0,0.353895537124,0.0842589646775,0.269636572446,0.438154501801,0.0842589646775,0.326817707663,124,1.0,-0.311577186586,-0.198226518473,nan,nan,nan,nan,nan,nan,nan,nan,1418.9578862,1701.77852831,nan,1702.00887567,nan,nan,nan,nan
1,254,1,1,1.0,1.0,0.272535272292,0,0.0,0.0,0.0,0.353405266547,0.0844495819655,0.268955684581,0.437854848512,0.0844495819655,0.307676619986,223,0.83172397378,0.104890589731,0.593432239612,nan,nan,nan,nan,nan,nan,nan,nan,1418.9578862,1702.72032873,nan,1702.992864,nan,nan,nan,nan
1,255,1,1,1.0,1.0,0.306735321996,0,0.0,0.0,0.0,0.353085622301,0.0844351270884,0.268650495212,0.437520749389,0.0844351270884,0.26987264868,458,0.399688045963,0.388050214986,-1.0,nan,nan,nan,nan,nan,nan,nan,nan,1418.9578862,1703.66210548,nan,1703.9688408,nan,nan,nan,nan
1,256,1,1,1.0,1.0,0.284936172306,0,0.0,0.0,0.0,0.352903140803,0.0843187249997,0.268584415804,0.437221865803,0.0843187249997,0.288068922198,262,0.416452475899,0.2804144186,0.652815538838,nan,nan,nan,nan,nan,nan,nan,nan,1418.9578862,1704.60389307,nan,1704.88882924,nan,nan,nan,nan
1,257,1,1,1.0,1.0,0.175128465111,0,1.0,0.0,0.0,0.352636603672,0.0842603767746,0.268376226897,0.436896980447,0.0842603767746,0.255599986471,160,1.0,-0.227501418013,0.158297521075,nan,nan,nan,nan,nan,nan,nan,nan,1418.9578862,1705.54568094,nan,1705.7208094,nan,nan,nan,nan
1,258,1,1,1.0,1.0,0.217317240895,1,0.0,0.0,1.0,0.351943212506,0.0848214550749,0.267121757431,0.436764667581,0.0848214550749,0.225793959437,268,0.35230222188,0.302367520405,0.645005310408,-89.1449026037,179.144902604,-9.29259739627,255.0,0.492159363509,0.253017189294,0.656163111527,1.8338697924,1418.9578862,1706.48747423,1707.29588393,1706.70479147,1710.16290433,1711.16914512,1708.3126511,1710.15455752
1,259,1,1,1.0,1.0,0.375277400191,0,0.0,0.0,0.0,0.35141937604,0.0850701590961,0.266349216944,0.436489535137,0.0850701590961,0.255907702066,109,1.0,-0.294638327523,-0.357773695079,nan,nan,nan,nan,nan,nan,nan,nan,1418.9578862,1711.3214324,nan,1711.6967098,nan,nan,nan,nan
1,260,1,1,1.0,1.0,0.305506835517,0,0.0,0.0,0.0,0.351511849002,0.0849180753175,0.266593773685,0.43642992432,0.0849180753175,0.299367158868,263,0.405698801511,0.284171736334,0.651829885785,nan,nan,nan,nan,nan,nan,nan,nan,1418.9578862,1712.26318292,nan,1712.56868976,nan,nan,nan,nan
1,261,1,1,1.0,1.0,0.339666401327,0,0.0,0.0,0.0,0.351334223468,0.0848019906846,0.266532232783,0.436136214152,0.0848019906846,0.340150212345,334,-0.152796554809,0.454467054946,0.285576400052,nan,nan,nan,nan,nan,nan,nan,nan,1418.9578862,1713.20500529,nan,1713.54467169,nan,nan,nan,nan
1,262,1,1,1.0,1.0,0.277891690203,0,0.0,0.0,0.0,0.351289347229,0.0846418340625,0.266647513166,0.435931181291,0.0846418340625,0.307688309016,73,1.0,-0.1546788618,-0.830916872461,nan,nan,nan,nan,nan,nan,nan,nan,1418.9578862,1714.14676437,nan,1714.42465606,nan,nan,nan,nan
1,263,0,0,1.0,0.0,0.176063015766,0,0.0,0.0,0.0,0.351008130152,0.0846011375177,0.266406992634,0.435609267669,0.0846011375177,0.264540369099,274,0.289344050657,0.322900892411,0.632670269059,nan,nan,nan,nan,nan,nan,nan,nan,1418.9578862,1715.08858132,nan,1715.26464433,nan,nan,nan,nan
1,264,1,1,1.0,1.0,0.362243297917,0,0.0,0.0,0.0,0.350340400708,0.0851258155407,0.265214585167,0.435466216248,0.0851258155407,0.272066001295,66,1.0,-0.118568705386,-1.0,nan,nan,nan,nan,nan,nan,nan,nan,1418.9578862,1716.03037746,nan,1716.39262076,nan,nan,nan,nan
1,265,1,1,1.0,1.0,0.316437771136,0,0.0,0.0,0.0,0.350385658872,0.084966983339,0.265418675533,0.435352642211,0.084966983339,0.28491469494,469,0.489482198204,0.360453357602,-1.0,nan,nan,nan,nan,nan,nan,nan,nan,1418.9578862,1716.97216704,nan,1717.28860481,nan,nan,nan,nan
1,266,1,1,1.0,1.0,0.310630613589,0,0.0,0.0,0.0,0.350257068388,0.0848315444271,0.265425523961,0.435088612815,0.0848315444271,0.329770560881,52,1.0,-0.0438860552364,-1.0,nan,nan,nan,nan,nan,nan,nan,nan,1418.9578862,1717.91395206,nan,1718.22458267,nan,nan,nan,nan
1,267,1,1,1.0,1.0,0.312835845223,0,0.0,0.0,0.0,0.350107534596,0.0847061855556,0.265401349041,0.434813720152,0.0847061855556,0.313301409983,283,0.19826868328,0.351050922538,0.605825948857,nan,nan,nan,nan,nan,nan,nan,nan,1418.9578862,1718.8557405,nan,1719.16857635,nan,nan,nan,nan
1,268,1,1,1.0,1.0,0.347045588307,0,0.0,0.0,0.0,0.349967415463,0.0845775768883,0.265389838575,0.434544992352,0.0845775768883,0.323504015706,53,1.0,-0.049257555853,-1.0,nan,nan,nan,nan,nan,nan,nan,nan,1418.9578862,1719.79751697,nan,1720.14456256,nan,nan,nan,nan
1,269,1,1,1.0,1.0,0.301211266604,0,0.0,0.0,0.0,0.349956472291,0.0844192320015,0.265537240289,0.434375704292,0.0844192320015,0.320364233378,277,0.258470646878,0.33263615818,0.624824240443,nan,nan,nan,nan,nan,nan,nan,nan,1418.9578862,1720.73932936,nan,1721.04054063,nan,nan,nan,nan
1,270,1,1,1.0,1.0,0.311431168229,0,0.0,0.0,0.0,0.349774587195,0.0843139837736,0.265460603421,0.434088570968,0.0843139837736,0.319896007713,172,1.0,-0.170984061773,0.265024678188,nan,nan,nan,nan,nan,nan,nan,nan,1418.9578862,1721.68110754,nan,1721.9925387,nan,nan,nan,nan
1,271,1,1,1.0,1.0,0.27362406085,0,0.0,0.0,0.0,0.349632046604,0.0841894654445,0.265442581159,0.433821512048,0.0841894654445,0.295422165228,403,0.00657627305109,0.469456436931,-0.450524507496,nan,nan,nan,nan,nan,nan,nan,nan,1418.9578862,1722.62288828,nan,1722.89651234,nan,nan,nan,nan
1,272,1,1,1.0,1.0,0.347792259476,0,0.0,0.0,0.0,0.349350535545,0.0841601602659,0.265190375279,0.433510695811,0.0841601602659,0.310949162852,301,0.0351599448551,0.39804275895,0.523414514543,nan,nan,nan,nan,nan,nan,nan,nan,1418.9578862,1723.56468642,nan,1723.91247867,nan,nan,nan,nan
1,273,1,1,1.0,1.0,0.333998656657,0,0.0,0.0,0.0,0.349344785449,0.0840047928429,0.265339992606,0.433349578292,0.0840047928429,0.318471658994,172,1.0,-0.170984061773,0.265024678188,nan,nan,nan,nan,nan,nan,nan,nan,1418.9578862,1724.50646687,nan,1724.84046553,nan,nan,nan,nan
1,274,1,1,1.0,1.0,0.311521259195,0,0.0,0.0,0.0,0.349288365858,0.0838553738462,0.265432992012,0.433143739704,0.0838553738462,0.331104058442,392,-0.0541067903503,0.475522277549,-0.315549842675,nan,nan,nan,nan,nan,nan,nan,nan,1418.9578862,1725.46493525,nan,1725.77645651,nan,nan,nan,nan
1,275,1,1,1.0,1.0,0.345725300256,0,0.0,0.0,0.0,0.349150024808,0.0837327420791,0.265417282729,0.432882766887,0.0837327420791,0.330415072036,45,1.0,-0.0063957592436,-1.0,nan,nan,nan,nan,nan,nan,nan,nan,1418.9578862,1726.40671457,nan,1726.75243987,nan,nan,nan,nan
1,276,1,1,1.0,1.0,0.459922658629,0,0.0,0.0,0.0,0.349137525813,0.0835800605775,0.265557465236,0.432717586391,0.0835800605775,0.37238973936,282,0.208142307666,0.34807905204,0.609295500931,nan,nan,nan,nan,nan,nan,nan,nan,1418.9578862,1727.34850529,nan,1727.80842795,nan,nan,nan,nan
1,277,1,1,1.0,1.0,0.438107258407,0,0.0,0.0,0.0,0.349540380842,0.0836940398327,0.265846341009,0.433234420674,0.0836940398327,0.414585072431,450,0.335949728395,0.405598329481,-1.0,nan,nan,nan,nan,nan,nan,nan,nan,1418.9578862,1728.29029601,nan,1728.72840327,nan,nan,nan,nan
1,278,1,1,1.0,1.0,0.336303387419,0,0.0,0.0,0.0,0.349861275326,0.0837115919857,0.26614968334,0.433572867311,0.0837115919857,0.411444434819,306,-0.00395437407881,0.408974006242,0.494128827808,nan,nan,nan,nan,nan,nan,nan,nan,1418.9578862,1729.23208331,nan,1729.5683867,nan,nan,nan,nan
1,279,0,0,0.0,1.0,0.458471510734,0,0.0,0.0,0.0,0.349812329882,0.0835643077422,0.26624802214,0.433376637624,0.0835643077422,0.410960718854,410,0.0492046846968,0.463921527344,-0.54316189137,nan,nan,nan,nan,nan,nan,nan,nan,1418.9578862,1730.173892,nan,1730.63236351,nan,nan,nan,nan
1,280,1,1,1.0,1.0,0.396676272561,0,0.0,0.0,0.0,0.350203190245,0.0836671538998,0.266536036345,0.433870344144,0.0836671538998,0.397150390238,92,1.0,-0.241703663401,-0.55060883727,nan,nan,nan,nan,nan,nan,nan,nan,1418.9578862,1731.11567103,nan,1731.5123473,nan,nan,nan,nan
1,281,1,1,1.0,1.0,0.454902656202,0,0.0,0.0,0.0,0.350369760432,0.0835632432945,0.266806517138,0.433933003727,0.0835632432945,0.436683479832,224,0.821619416966,0.11002478857,0.597264883709,nan,nan,nan,nan,nan,nan,nan,nan,1418.9578862,1732.05745519,nan,1732.51235785,nan,nan,nan,nan
1,282,1,1,1.0,1.0,0.369078803342,0,0.0,0.0,0.0,0.350743092203,0.0836466561023,0.2670964361,0.434389748305,0.0836466561023,0.406885910702,106,1.0,-0.287630069369,-0.390564445695,nan,nan,nan,nan,nan,nan,nan,nan,1418.9578862,1732.99924763,nan,1733.36832643,nan,nan,nan,nan
1,283,1,1,1.0,1.0,0.379265633645,0,0.0,0.0,0.0,0.350808343844,0.083504824662,0.267303519182,0.434313168506,0.083504824662,0.401082364396,348,-0.175384772129,0.468017843042,0.157582163916,nan,nan,nan,nan,nan,nan,nan,nan,1418.9578862,1733.94102609,nan,1734.32029172,nan,nan,nan,nan
1,284,1,1,1.0,1.0,0.357459926629,0,0.0,0.0,0.0,0.350909256219,0.0833737974619,0.267535458757,0.434283053681,0.0833737974619,0.368601454538,435,0.221263830514,0.433027056876,-1.0,nan,nan,nan,nan,nan,nan,nan,nan,1418.9578862,1734.88281824,nan,1735.24027816,nan,nan,nan,nan
1,285,1,1,1.0,1.0,0.351667023962,0,0.0,0.0,0.0,0.350932403464,0.0832272713009,0.267705132163,0.434159674765,0.0832272713009,0.362797528078,193,1.0,-0.0580453890011,0.428658791268,nan,nan,nan,nan,nan,nan,nan,nan,1418.9578862,1735.82460582,nan,1736.17627285,nan,nan,nan,nan
1,286,1,1,1.0,1.0,0.481838413398,0,0.0,0.0,0.0,0.350934990156,0.0830806265981,0.267854363558,0.434015616754,0.0830806265981,0.396988454663,129,1.0,-0.310070485259,-0.146368003411,nan,nan,nan,nan,nan,nan,nan,nan,1418.9578862,1736.76639512,nan,1737.24823353,nan,nan,nan,nan
1,287,1,1,1.0,1.0,0.324062427273,0,0.0,0.0,0.0,0.351394300413,0.083295173455,0.268099126958,0.434689473868,0.083295173455,0.385855954878,84,1.0,-0.20765784414,-0.652191087791,nan,nan,nan,nan,nan,nan,nan,nan,1418.9578862,1737.70817387,nan,1738.0322363,nan,nan,nan,nan
1,288,1,1,1.0,1.0,0.294242050324,0,0.0,0.0,0.0,0.351298734423,0.0831650752653,0.268133659158,0.434463809688,0.0831650752653,0.366714296998,472,0.51429864939,0.352212277195,-1.0,nan,nan,nan,nan,nan,nan,nan,nan,1418.9578862,1738.64997742,nan,1738.94421947,nan,nan,nan,nan
1,289,1,1,1.0,1.0,0.328451508249,0,0.0,0.0,0.0,0.351099930646,0.0830881113452,0.268011819301,0.434188041991,0.0830881113452,0.315585328615,366,-0.155593376329,0.477302029306,-0.0244766492797,nan,nan,nan,nan,nan,nan,nan,nan,1418.9578862,1739.59175702,nan,1739.92020853,nan,nan,nan,nan
1,290,1,1,1.0,1.0,0.258635613078,0,0.0,0.0,0.0,0.35102129029,0.0829544344225,0.268066855868,0.433975724713,0.0829544344225,0.29377639055,58,1.0,-0.0760896648475,-1.0,nan,nan,nan,nan,nan,nan,nan,nan,1418.9578862,1740.53355858,nan,1740.79219419,nan,nan,nan,nan
1,291,1,1,1.0,1.0,0.364842534764,0,0.0,0.0,0.0,0.350701616667,0.0829883007328,0.267713315934,0.4336899174,0.0829883007328,0.317309885363,212,0.93926288676,0.0467731277665,0.543851001166,nan,nan,nan,nan,nan,nan,nan,nan,1418.9578862,1741.47533676,nan,1741.84017929,nan,nan,nan,nan
1,292,1,1,1.0,1.0,0.311030605808,0,0.0,0.0,0.0,0.350750378453,0.0828492410416,0.267901137412,0.433599619495,0.0828492410416,0.311502917883,321,-0.0999433513493,0.43654647086,0.391174984052,nan,nan,nan,nan,nan,nan,nan,nan,1418.9578862,1742.41712719,nan,1742.7281578,nan,nan,nan,nan
1,293,1,1,1.0,1.0,0.289226324356,0,0.0,0.0,0.0,0.350613884389,0.0827394223213,0.267874462068,0.433353306711,0.0827394223213,0.321699821642,241,0.64365311028,0.192605941253,0.644254782112,nan,nan,nan,nan,nan,nan,nan,nan,1418.9578862,1743.35891592,nan,1743.64814225,nan,nan,nan,nan
1,294,1,1,1.0,1.0,0.531420345942,0,0.0,0.0,0.0,0.350403653019,0.0826754427749,0.267728210244,0.433079095794,0.0826754427749,0.377225758702,33,1.0,0.0565990290419,-1.0,nan,nan,nan,nan,nan,nan,nan,nan,1418.9578862,1744.30070294,nan,1744.83212328,nan,nan,nan,nan
1,295,0,0,0.0,1.0,0.445660354977,0,0.0,0.0,0.0,0.351021457432,0.0832066802686,0.267814777163,0.434228137701,0.0832066802686,0.422102341758,281,0.218083397074,0.345068392493,0.612644422055,nan,nan,nan,nan,nan,nan,nan,nan,1418.9578862,1745.24245261,nan,1745.68811296,nan,nan,nan,nan
1,296,1,1,1.0,1.0,0.311786115053,0,0.0,0.0,0.0,0.351343358444,0.0832476039466,0.268095754497,0.434590962391,0.0832476039466,0.429622271991,74,1.0,-0.159715158178,-0.810443278181,nan,nan,nan,nan,nan,nan,nan,nan,1418.9578862,1746.18428609,nan,1746.49607221,nan,nan,nan,nan
1,297,1,1,1.0,1.0,0.305993212387,0,0.0,0.0,0.0,0.351209266093,0.0831381851255,0.268071080968,0.434347451219,0.0831381851255,0.354479894139,343,-0.171388175652,0.463836419185,0.204822810802,nan,nan,nan,nan,nan,nan,nan,nan,1418.9578862,1747.12606912,nan,1747.43206233,nan,nan,nan,nan
1,298,1,1,1.0,1.0,0.276153733837,0,0.0,0.0,0.0,0.351056509155,0.0830390892793,0.268017419876,0.434095598435,0.0830390892793,0.297977687092,39,1.0,0.0253789930673,-1.0,nan,nan,nan,nan,nan,nan,nan,nan,1418.9578862,1748.06790346,nan,1748.34405719,nan,nan,nan,nan
1,299,1,1,1.0,1.0,0.318389835884,0,0.0,0.0,0.0,0.350804311259,0.0830126492031,0.267791662055,0.433816960462,0.0830126492031,0.300178927369,481,0.589289488337,0.325611856148,-1.0,nan,nan,nan,nan,nan,nan,nan,nan,1418.9578862,1749.00964372,nan,1749.32803355,nan,nan,nan,nan
1,300,1,1,1.0,1.0,0.288592551835,0,0.0,0.0,0.0,0.350695537851,0.0828944475378,0.267801090313,0.433589985389,0.0828944475378,0.294378707185,397,-0.0275613476434,0.473159987783,-0.37569455347,nan,nan,nan,nan,nan,nan,nan,nan,1418.9578862,1749.95143245,nan,1750.240025,nan,nan,nan,nan
1,301,1,1,1.0,1.0,0.242771059624,0,0.0,0.0,0.0,0.350487835557,0.082833348689,0.267654486868,0.433321184246,0.082833348689,0.283251149114,245,0.600577697281,0.210610106048,0.650172825369,nan,nan,nan,nan,nan,nan,nan,nan,1418.9578862,1750.89322374,nan,1751.1359948,nan,nan,nan,nan
1,302,1,1,1.0,1.0,0.260981112835,0,1.0,0.0,0.0,0.350128779637,0.082927919712,0.267200859925,0.433056699349,0.082927919712,0.264114908098,83,1.0,-0.203097876184,-0.665876706514,nan,nan,nan,nan,nan,nan,nan,nan,1418.9578862,1751.83501161,nan,1752.09599272,nan,nan,nan,nan
1,303,1,1,1.0,1.0,0.303167892969,1,0.0,0.0,1.0,0.349832607987,0.0829488267138,0.266883781273,0.4327814347,0.0829488267138,0.268973355143,250,0.546428449327,0.232286661223,0.654747725831,-74.8179936939,164.817993694,-10.9632563061,234.0,0.71814774995,0.15974031316,0.62913160129,1.47549783782,1418.9578862,1752.77680319,1753.58520804,1753.07997108,1756.09383396,1757.09473829,1754.60197636,1756.08550397
1,304,0,0,0.0,1.0,0.460113674169,0,0.0,0.0,0.0,0.349678089063,0.0828547609981,0.266823328065,0.432532850061,0.0828547609981,0.341420893325,365,-0.157962026257,0.477016591838,-0.0139196855225,nan,nan,nan,nan,nan,nan,nan,nan,1418.9578862,1757.23578388,nan,1757.69589756,nan,nan,nan,nan
1,305,1,1,1.0,1.0,0.350385224156,0,0.0,0.0,0.0,0.350042562941,0.0829600686566,0.267082494284,0.433002631598,0.0829600686566,0.371222263765,195,1.0,-0.0469245268387,0.442396054288,nan,nan,nan,nan,nan,nan,nan,nan,1418.9578862,1758.17748793,nan,1758.52787316,nan,nan,nan,nan
1,306,1,1,1.0,1.0,0.368565342156,0,0.0,0.0,0.0,0.350043690116,0.0828235111043,0.267220179012,0.43286720122,0.0828235111043,0.393021413494,369,-0.147694689129,0.477999187239,-0.0564338676883,nan,nan,nan,nan,nan,nan,nan,nan,1418.9578862,1759.11928607,nan,1759.48785141,nan,nan,nan,nan
1,307,1,1,1.0,1.0,0.410770368529,0,0.0,0.0,0.0,0.350104416844,0.0826944020603,0.267410014784,0.432798818904,0.0826944020603,0.376573644947,89,1.0,-0.229484098413,-0.587370487375,nan,nan,nan,nan,nan,nan,nan,nan,1418.9578862,1760.06107508,nan,1760.47184545,nan,nan,nan,nan
1,308,0,0,1.0,0.0,0.300950687204,0,0.0,0.0,0.0,0.350302671588,0.0826317405401,0.267670931048,0.432934412128,0.0826317405401,0.360095465963,250,0.546428449327,0.232286661223,0.654747725831,nan,nan,nan,nan,nan,nan,nan,nan,1418.9578862,1761.00286922,nan,1761.30381991,nan,nan,nan,nan
1,309,1,1,1.0,1.0,0.359155403392,0,0.0,0.0,0.0,0.350141915939,0.0825449650522,0.267596950886,0.432686880991,0.0825449650522,0.356958819708,314,-0.0594438881467,0.42463230952,0.441925406839,nan,nan,nan,nan,nan,nan,nan,nan,1418.9578862,1761.94465453,nan,1762.30380993,nan,nan,nan,nan
1,310,1,1,1.0,1.0,0.273320146604,0,0.0,0.0,0.0,0.350171180508,0.0824124497003,0.267758730808,0.432583630209,0.0824124497003,0.311142079066,372,-0.138660017671,0.478458869494,-0.0888123791441,nan,nan,nan,nan,nan,nan,nan,nan,1418.9578862,1762.88646663,nan,1763.15978678,nan,nan,nan,nan
1,311,1,1,1.0,1.0,0.259546785674,0,0.0,0.0,0.0,0.349922471661,0.0823946816726,0.267527789988,0.432317153333,0.0823946816726,0.297340778556,314,-0.0594438881467,0.42463230952,0.441925406839,nan,nan,nan,nan,nan,nan,nan,nan,1418.9578862,1763.82823141,nan,1764.0877782,nan,nan,nan,nan
1,312,1,1,1.0,1.0,0.373733595479,0,0.0,0.0,0.0,0.34963093719,0.0824211537104,0.267209783479,0.4320520909,0.0824211537104,0.302200175919,177,1.0,-0.145192147526,0.306921212481,nan,nan,nan,nan,nan,nan,nan,nan,1418.9578862,1764.77003867,nan,1765.14377227,nan,nan,nan,nan
1,313,1,1,1.0,1.0,0.311925527931,0,0.0,0.0,0.0,0.349708437699,0.0822998499654,0.267408587733,0.432008287664,0.0822998499654,0.315068636361,332,-0.146647089803,0.45205423783,0.302714191958,nan,nan,nan,nan,nan,nan,nan,nan,1418.9578862,1765.71181172,nan,1766.02373724,nan,nan,nan,nan
1,314,0,0,0.0,1.0,0.522122450639,0,0.0,0.0,0.0,0.349587338629,0.0821956016518,0.267391736977,0.431782940281,0.0821956016518,0.402593858016,166,1.0,-0.20036215083,0.21267421211,nan,nan,nan,nan,nan,nan,nan,nan,1418.9578862,1766.65360187,nan,1767.17572432,nan,nan,nan,nan
1,315,1,1,1.0,1.0,0.308323602017,0,0.0,0.0,0.0,0.350138569019,0.082639788449,0.26749878057,0.432778357468,0.082639788449,0.380790526862,477,0.555879874869,0.337784025865,-1.0,nan,nan,nan,nan,nan,nan,nan,nan,1418.9578862,1767.59539231,nan,1767.90371591,nan,nan,nan,nan
1,316,1,1,1.0,1.0,0.430510541773,0,0.0,0.0,0.0,0.350005400334,0.0825417220064,0.267463678328,0.432547122341,0.0825417220064,0.42031886481,195,1.0,-0.0469245268387,0.442396054288,nan,nan,nan,nan,nan,nan,nan,nan,1418.9578862,1768.53717619,nan,1768.96768673,nan,nan,nan,nan
1,317,1,1,1.0,1.0,0.304712267884,0,0.0,0.0,0.0,0.350260972212,0.082534940493,0.267726031719,0.432795912705,0.082534940493,0.347848803891,447,0.312467642152,0.411646472288,-1.0,nan,nan,nan,nan,nan,nan,nan,nan,1418.9578862,1769.4789652,nan,1769.78367747,nan,nan,nan,nan
1,318,1,1,1.0,1.0,0.346903324476,0,0.0,0.0,0.0,0.350116830742,0.0824439450091,0.267672885733,0.432560775751,0.0824439450091,0.360708711378,66,1.0,-0.118568705386,-1.0,nan,nan,nan,nan,nan,nan,nan,nan,1418.9578862,1770.42075364,nan,1770.76765696,nan,nan,nan,nan
1,319,1,1,1.0,1.0,0.309103344567,0,0.0,0.0,0.0,0.350106693499,0.0823140017785,0.26779269172,0.432420695277,0.0823140017785,0.320239645642,166,1.0,-0.20036215083,0.21267421211,nan,nan,nan,nan,nan,nan,nan,nan,1418.9578862,1771.36254151,nan,1771.67164485,nan,nan,nan,nan
1,320,1,1,1.0,1.0,0.239321946108,0,0.0,0.0,0.0,0.34997775215,0.0822165335432,0.267761218606,0.432194285693,0.0822165335432,0.298442871717,21,1.0,0.116713997928,-1.0,nan,nan,nan,nan,nan,nan,nan,nan,1418.9578862,1772.30431798,nan,1772.54363992,nan,nan,nan,nan
1,321,1,1,1.0,1.0,0.393488023605,0,0.0,0.0,0.0,0.349630868745,0.0823203066339,0.267310562111,0.431951175379,0.0823203066339,0.31397110476,128,1.0,-0.310663006781,-0.156689791083,nan,nan,nan,nan,nan,nan,nan,nan,1418.9578862,1773.24612438,nan,1773.6396124,nan,nan,nan,nan
1,322,1,1,1.0,1.0,0.315676559927,0,0.0,0.0,0.0,0.349767922354,0.0822280238373,0.267539898517,0.431995946191,0.0822280238373,0.316162176547,185,1.0,-0.102214474652,0.370299946716,nan,nan,nan,nan,nan,nan,nan,nan,1418.9578862,1774.18791111,nan,1774.50358767,nan,nan,nan,nan
1,323,1,1,1.0,1.0,0.261875749798,0,0.0,0.0,0.0,0.349661718733,0.0821218214026,0.26753989733,0.431783540135,0.0821218214026,0.32368011111,405,0.018463324075,0.468009379796,-0.476293327428,nan,nan,nan,nan,nan,nan,nan,nan,1418.9578862,1775.12969613,nan,1775.39157188,nan,nan,nan,nan
1,324,1,1,1.0,1.0,0.256085698144,0,0.0,0.0,0.0,0.3493890915,0.0821395641047,0.267249527395,0.431528655605,0.0821395641047,0.277879335956,313,-0.0530221528698,0.42279583272,0.448797959603,nan,nan,nan,nan,nan,nan,nan,nan,1418.9578862,1776.07149056,nan,1776.32757626,nan,nan,nan,nan
1,325,1,1,1.0,1.0,0.362272948143,0,0.0,0.0,0.0,0.349100226505,0.0821759598212,0.266924266684,0.431276186326,0.0821759598212,0.293411465362,62,1.0,-0.0974372467467,-1.0,nan,nan,nan,nan,nan,nan,nan,nan,1418.9578862,1777.01328014,nan,1777.37555309,nan,nan,nan,nan
1,326,0,0,1.0,0.0,0.284444948775,0,0.0,0.0,0.0,0.349140883053,0.0820523005705,0.267088582483,0.431193183624,0.0820523005705,0.300934531687,167,1.0,-0.195605812978,0.221546716301,nan,nan,nan,nan,nan,nan,nan,nan,1418.9578862,1777.95506545,nan,1778.2395104,nan,nan,nan,nan
1,327,1,1,1.0,1.0,0.382626651903,0,0.0,0.0,0.0,0.34894181864,0.0820042890927,0.266937529548,0.430946107733,0.0820042890927,0.343114849607,319,-0.0891891826932,0.433308674125,0.406137099325,nan,nan,nan,nan,nan,nan,nan,nan,1418.9578862,1778.89684762,nan,1779.27947427,nan,nan,nan,nan
1,328,1,1,1.0,1.0,0.624842626043,0,0.0,0.0,0.0,0.34904514635,0.0818996056463,0.267145540703,0.430944751996,0.0818996056463,0.430638075573,428,0.170378320166,0.443486568519,-0.86866140055,nan,nan,nan,nan,nan,nan,nan,nan,1418.9578862,1779.83863777,nan,1780.46348039,nan,nan,nan,nan
1,329,1,1,1.0,1.0,0.49103139271,0,0.0,1.0,0.0,0.349888563719,0.0831801302332,0.266708433486,0.433068693952,0.0831801302332,0.499500223552,395,-0.0383984177995,0.474183508328,-0.351427224487,nan,nan,nan,nan,nan,nan,nan,nan,1418.9578862,1780.78043163,nan,1781.27146302,nan,nan,nan,nan
1,330,1,1,1.0,1.0,0.517234163359,1,0.0,0.0,1.0,0.350318877222,0.0834169661993,0.266901911022,0.433735843421,0.0834169661993,0.544369394037,122,1.0,-0.311159539646,-0.219144224573,-103.700398665,193.700398665,107.919148665,275.0,0.279002393219,0.326185254474,0.630178474337,2.6590041875,1418.9578862,1781.72221807,1782.53062635,1782.23945224,1786.23109858,1787.23343838,1783.55572522,1786.22276375
1,331,1,1,1.0,1.0,0.362436594267,0,0.0,0.0,0.0,0.350826218517,0.0837953802416,0.267030838275,0.434621598759,0.0837953802416,0.456900716779,300,0.0433537089178,0.395748422077,0.528951029102,nan,nan,nan,nan,nan,nan,nan,nan,1418.9578862,1787.37297124,nan,1787.73540784,nan,nan,nan,nan
1,332,1,1,1.0,1.0,0.420637889241,0,0.0,0.0,0.0,0.350861401474,0.0836707548929,0.267190646581,0.434532156367,0.0836707548929,0.433436215622,27,1.0,0.0870912575778,-1.0,nan,nan,nan,nan,nan,nan,nan,nan,1418.9578862,1788.3147326,nan,1788.73537049,nan,nan,nan,nan
1,333,1,1,1.0,1.0,0.31879410462,0,0.0,0.0,0.0,0.351072206573,0.0836319890127,0.26744021756,0.434704195586,0.0836319890127,0.367289529376,493,0.689769084006,0.285700779988,-1.0,nan,nan,nan,nan,nan,nan,nan,nan,1418.9578862,1789.25652646,nan,1789.57532056,nan,nan,nan,nan
1,334,1,1,1.0,1.0,0.369010094728,0,0.0,0.0,0.0,0.350974983374,0.0835246736997,0.267450309675,0.434499657074,0.0835246736997,0.369480696196,352,-0.17544712699,0.470851603012,0.118673592819,nan,nan,nan,nan,nan,nan,nan,nan,1418.9578862,1790.19830378,nan,1790.56731388,nan,nan,nan,nan
1,335,1,1,1.0,1.0,0.339194849541,0,0.0,0.0,0.0,0.351029142868,0.0834050052004,0.267624137667,0.434434148068,0.0834050052004,0.342333016296,238,0.675741828754,0.178727669763,0.638511091232,nan,nan,nan,nan,nan,nan,nan,nan,1418.9578862,1791.14010306,nan,1791.47929791,nan,nan,nan,nan
1,336,1,1,1.0,1.0,0.365371106134,0,0.0,0.0,0.0,0.350993710852,0.0832825637231,0.267711147129,0.434276274575,0.0832825637231,0.357858683468,497,0.723174939644,0.271260599794,-1.0,nan,nan,nan,nan,nan,nan,nan,nan,1418.9578862,1792.08188694,nan,1792.44725804,nan,nan,nan,nan
1,337,0,0,0.0,1.0,0.471554079617,0,0.0,0.0,0.0,0.35103662845,0.0831618673886,0.267874761061,0.434198495838,0.0831618673886,0.392040011764,65,1.0,-0.113312155659,-1.0,nan,nan,nan,nan,nan,nan,nan,nan,1418.9578862,1793.02369277,nan,1793.49524685,nan,nan,nan,nan
1,338,1,1,1.0,1.0,0.281769590802,0,0.0,0.0,0.0,0.35139531134,0.0832971311481,0.268098180192,0.434692442488,0.0832971311481,0.372898258851,507,0.805995650865,0.232688349973,-1.0,nan,nan,nan,nan,nan,nan,nan,nan,1418.9578862,1793.96547323,nan,1794.24724282,nan,nan,nan,nan
1,339,1,1,1.0,1.0,0.339959767007,0,0.0,0.0,0.0,0.351188706828,0.0832596276732,0.267929079155,0.434448334501,0.0832596276732,0.364427812475,294,0.0948761993654,0.381212130724,0.559858230992,nan,nan,nan,nan,nan,nan,nan,nan,1418.9578862,1794.90725597,nan,1795.24721573,nan,nan,nan,nan
1,340,1,1,1.0,1.0,0.318162612966,0,0.0,0.0,0.0,0.351155485113,0.0831386082128,0.2680168769,0.434294093325,0.0831386082128,0.313297323592,53,1.0,-0.049257555853,-1.0,nan,nan,nan,nan,nan,nan,nan,nan,1418.9578862,1795.84904869,nan,1796.1672113,nan,nan,nan,nan
1,341,1,1,1.0,1.0,0.384339234501,0,0.0,0.0,0.0,0.351058161006,0.0830351747257,0.26802298628,0.434093335732,0.0830351747257,0.347487204825,179,1.0,-0.13461441766,0.323204131591,nan,nan,nan,nan,nan,nan,nan,nan,1418.9578862,1796.79083941,nan,1797.17517864,nan,nan,nan,nan
1,342,1,1,1.0,1.0,0.250544251758,0,0.0,0.0,0.0,0.351156046516,0.0829325596683,0.268223486848,0.434088606185,0.0829325596683,0.317682033075,476,0.547545041103,0.340739382997,-1.0,nan,nan,nan,nan,nan,nan,nan,nan,1418.9578862,1797.73262072,nan,1797.98316497,nan,nan,nan,nan
1,343,1,1,1.0,1.0,0.284742590913,0,0.0,0.0,0.0,0.350860997265,0.0829893866987,0.267871610566,0.433850383963,0.0829893866987,0.306542025724,251,0.535576518695,0.236509187076,0.655284151108,nan,nan,nan,nan,nan,nan,nan,nan,1418.9578862,1798.67441772,nan,1798.95916031,nan,nan,nan,nan
1,344,1,1,1.0,1.0,0.374945261225,0,0.0,0.0,0.0,0.350667668591,0.082944833406,0.267722835185,0.433612501997,0.082944833406,0.303410701298,9,0.918933560847,0.172916688009,-1.0,nan,nan,nan,nan,nan,nan,nan,nan,1418.9578862,1799.61620359,nan,1799.99114885,nan,nan,nan,nan
1,345,1,1,1.0,1.0,0.321133902471,0,0.0,0.0,0.0,0.350738448745,0.0828341770791,0.267904271666,0.433572625824,0.0828341770791,0.32694058487,378,-0.117450136118,0.478670924818,-0.154810124165,nan,nan,nan,nan,nan,nan,nan,nan,1418.9578862,1800.55799631,nan,1800.87913021,nan,nan,nan,nan
1,346,1,1,1.0,1.0,0.4353118742,0,0.0,0.0,0.0,0.350652389017,0.0827290458168,0.2679233432,0.433381434834,0.0827290458168,0.377130345965,104,1.0,-0.282351481576,-0.412644567278,nan,nan,nan,nan,nan,nan,nan,nan,1418.9578862,1801.49978646,nan,1801.93509834,nan,nan,nan,nan
1,347,1,1,1.0,1.0,0.317520002427,0,0.0,0.0,0.0,0.350897778829,0.0827343424714,0.268163436358,0.433632121301,0.0827343424714,0.357988593033,171,1.0,-0.176011872558,0.256450910142,nan,nan,nan,nan,nan,nan,nan,nan,1418.9578862,1802.44157262,nan,1802.75909262,nan,nan,nan,nan
1,348,1,1,1.0,1.0,0.311678633152,0,0.0,0.0,0.0,0.350801311267,0.0826341263431,0.268167184924,0.433435437611,0.0826341263431,0.354836836593,281,0.218083397074,0.345068392493,0.612644422055,nan,nan,nan,nan,nan,nan,nan,nan,1418.9578862,1803.38339499,nan,1803.69507362,nan,nan,nan,nan
1,349,1,1,1.0,1.0,0.329922898149,0,0.0,0.0,0.0,0.350688565797,0.0825416176657,0.268146948132,0.433230183463,0.0825416176657,0.319707177909,505,0.789537956352,0.240683140511,-1.0,nan,nan,nan,nan,nan,nan,nan,nan,1418.9578862,1804.32513696,nan,1804.65505986,nan,nan,nan,nan
1,350,1,1,1.0,1.0,0.276103271521,0,0.0,0.0,0.0,0.350628894339,0.0824304329524,0.268198461386,0.433059327291,0.0824304329524,0.30590160094,65,1.0,-0.113312155659,-1.0,nan,nan,nan,nan,nan,nan,nan,nan,1418.9578862,1805.2669388,nan,1805.54304207,nan,nan,nan,nan
1,351,1,1,1.0,1.0,0.206292793155,0,0.0,0.0,0.0,0.350415353872,0.0824085896036,0.268006764268,0.432823943476,0.0824085896036,0.270772987608,245,0.600577697281,0.210610106048,0.650172825369,nan,nan,nan,nan,nan,nan,nan,nan,1418.9578862,1806.20872838,nan,1806.41502118,nan,nan,nan,nan
1,352,0,0,0.0,1.0,0.512482437945,0,0.0,0.0,0.0,0.350003575127,0.0826495573304,0.267354017797,0.432653132458,0.0826495573304,0.33162616754,440,0.258699398066,0.424657399123,-1.0,nan,nan,nan,nan,nan,nan,nan,nan,1418.9578862,1807.15051711,nan,1807.66299955,nan,nan,nan,nan
1,353,1,1,1.0,1.0,0.362693467352,0,0.0,0.0,0.0,0.35046647787,0.0829848514198,0.26748162645,0.43345132929,0.0829848514198,0.360489566151,183,1.0,-0.113108999915,0.354902835149,nan,nan,nan,nan,nan,nan,nan,nan,1418.9578862,1808.09230042,nan,1808.45499389,nan,nan,nan,nan
1,354,1,1,1.0,1.0,0.268888871127,0,0.0,0.0,0.0,0.350501213636,0.0828694466796,0.267631766956,0.433370660315,0.0828694466796,0.381354925475,9,0.918933560847,0.172916688009,-1.0,nan,nan,nan,nan,nan,nan,nan,nan,1418.9578862,1809.03408886,nan,1809.30297773,nan,nan,nan,nan
1,355,1,1,1.0,1.0,0.207067689043,0,0.0,0.0,0.0,0.350270017198,0.0828655898933,0.267404427305,0.433135607091,0.0828655898933,0.279550009174,92,1.0,-0.241703663401,-0.55060883727,nan,nan,nan,nan,nan,nan,nan,nan,1418.9578862,1809.97588443,nan,1810.18295212,nan,nan,nan,nan
1,356,1,1,1.0,1.0,0.425271584187,0,0.0,0.0,0.0,0.349865490847,0.083096774832,0.266768716015,0.432962265679,0.083096774832,0.300409381452,406,0.0244967455079,0.467245700284,-0.489366101921,nan,nan,nan,nan,nan,nan,nan,nan,1418.9578862,1810.91766688,nan,1811.34293847,nan,nan,nan,nan
1,357,1,1,1.0,1.0,0.307469733991,0,0.0,0.0,0.0,0.350077902378,0.083075839327,0.267002063051,0.433153741705,0.083075839327,0.313269669074,300,0.0433537089178,0.395748422077,0.528951029102,nan,nan,nan,nan,nan,nan,nan,nan,1418.9578862,1811.85945647,nan,1812.1669262,nan,nan,nan,nan
1,358,1,1,1.0,1.0,0.293666437792,0,0.0,0.0,0.0,0.349958216512,0.0829897213376,0.266968495174,0.432947937849,0.0829897213376,0.342135918657,3,0.871087178923,0.199335109687,-1.0,nan,nan,nan,nan,nan,nan,nan,nan,1418.9578862,1812.80125061,nan,1813.09491705,nan,nan,nan,nan
1,359,1,1,1.0,1.0,0.263859175378,0,0.0,0.0,0.0,0.349800536459,0.0829267926287,0.266873743831,0.432727329088,0.0829267926287,0.288331782387,100,1.0,-0.270427092546,-0.457439896749,nan,nan,nan,nan,nan,nan,nan,nan,1418.9578862,1813.7430342,nan,1814.00689338,nan,nan,nan,nan
1,360,1,1,1.0,1.0,0.306035977032,0,0.0,0.0,0.0,0.349560476791,0.0829350183892,0.266625458402,0.432495495181,0.0829350183892,0.287853863401,7,0.9030914636,0.181853060355,-1.0,nan,nan,nan,nan,nan,nan,nan,nan,1418.9578862,1814.68482379,nan,1814.99085976,nan,nan,nan,nan
1,361,1,1,1.0,1.0,0.31624533009,0,0.0,0.0,0.0,0.349439238631,0.0828511920689,0.266588046562,0.432290430699,0.0828511920689,0.295380160833,144,1.0,-0.284423189345,0.00519445478499,nan,nan,nan,nan,nan,nan,nan,nan,1418.9578862,1815.62661137,nan,1815.9428567,nan,nan,nan,nan
1,362,1,1,1.0,1.0,0.318436877045,0,0.0,0.0,0.0,0.349347033329,0.0827544840122,0.266592549317,0.432101517341,0.0827544840122,0.313572728056,457,0.391639248186,0.390358177281,-1.0,nan,nan,nan,nan,nan,nan,nan,nan,1418.9578862,1816.5684021,nan,1816.88683897,nan,nan,nan,nan
1,363,1,1,1.0,1.0,0.272633345972,0,0.0,0.0,0.0,0.349261409627,0.0826557533496,0.266605656278,0.431917162977,0.0826557533496,0.302438517703,12,0.942476689623,0.159273951266,-1.0,nan,nan,nan,nan,nan,nan,nan,nan,1418.9578862,1817.51018797,nan,1817.78282132,nan,nan,nan,nan
1,364,0,0,0.0,1.0,0.442831329303,0,0.0,0.0,0.0,0.349049729894,0.0826394367506,0.266410293143,0.431689166644,0.0826394367506,0.344633850773,322,-0.105067232891,0.43811622051,0.383559350674,nan,nan,nan,nan,nan,nan,nan,nan,1418.9578862,1818.45197869,nan,1818.89481002,nan,nan,nan,nan
1,365,1,1,1.0,1.0,0.293020691257,0,0.0,0.0,0.0,0.349308081407,0.0826717905043,0.266636290903,0.431979871911,0.0826717905043,0.336161788844,373,-0.135407706169,0.478559568072,-0.0996974893599,nan,nan,nan,nan,nan,nan,nan,nan,1418.9578862,1819.39376485,nan,1819.68678554,nan,nan,nan,nan
1,366,1,1,1.0,1.0,0.343238391972,0,0.0,0.0,0.0,0.34915344572,0.0826107052996,0.26654274042,0.431764151019,0.0826107052996,0.359696804177,475,0.539218753276,0.343659807328,-1.0,nan,nan,nan,nan,nan,nan,nan,nan,1418.9578862,1820.33554161,nan,1820.67878,nan,nan,nan,nan
1,367,0,0,0.0,1.0,0.433411982318,0,0.0,0.0,0.0,0.349137240093,0.0824980417096,0.266639198384,0.431635281803,0.0824980417096,0.356557021849,92,1.0,-0.241703663401,-0.55060883727,nan,nan,nan,nan,nan,nan,nan,nan,1418.9578862,1821.27734687,nan,1821.71075885,nan,nan,nan,nan
1,368,1,1,1.0,1.0,0.283671478333,0,0.0,0.0,0.0,0.349367498952,0.082502626892,0.26686487206,0.431870125844,0.082502626892,0.353440617541,195,1.0,-0.0469245268387,0.442396054288,nan,nan,nan,nan,nan,nan,nan,nan,1418.9578862,1822.2191316,nan,1822.50280308,nan,nan,nan,nan
1,369,0,0,0.0,1.0,0.429828017601,0,0.0,0.0,0.0,0.349188490721,0.0824612921749,0.266727198546,0.431649782896,0.0824612921749,0.382303826084,478,0.56422249903,0.334793662244,-1.0,nan,nan,nan,nan,nan,nan,nan,nan,1418.9578862,1823.16092347,nan,1823.59075148,nan,nan,nan,nan
1,370,1,1,1.0,1.0,0.239985368738,0,0.0,0.0,0.0,0.34940761987,0.0824561050939,0.266951514776,0.431863724964,0.0824561050939,0.317828288224,101,1.0,-0.273572672894,-0.446152610616,nan,nan,nan,nan,nan,nan,nan,nan,1418.9578862,1824.10270906,nan,1824.34269443,nan,nan,nan,nan
1,371,1,1,1.0,1.0,0.642180279887,0,0.0,0.0,0.0,0.349111082604,0.0825405573565,0.266570525248,0.431651639961,0.0825405573565,0.437331222075,357,-0.1717918326,0.473767524415,0.068739031695,nan,nan,nan,nan,nan,nan,nan,nan,1418.9578862,1825.0444955,nan,1825.68667578,nan,nan,nan,nan
1,372,1,1,1.0,1.0,0.468393485178,0,0.0,1.0,0.0,0.349903161516,0.0838214578101,0.266081703706,0.433724619326,0.0838214578101,0.450186377934,305,0.00361192545304,0.406859252708,0.500196907155,nan,nan,nan,nan,nan,nan,nan,nan,1418.9578862,1825.9862848,nan,1826.45467828,nan,nan,nan,nan
1,373,1,1,1.0,1.0,0.366574218962,1,0.0,0.0,1.0,0.350222542442,0.0839335465116,0.266288995931,0.434156088954,0.0839335465116,0.492382661342,410,0.0492046846968,0.463921527344,-0.54316189137,-171.749612771,261.749612771,-26.5316372289,372.0,-0.138660017671,0.478458869494,-0.0888123791441,1.60899175721,1418.9578862,1826.92807381,1827.73648437,1827.29464803,1830.38681531,1831.39633815,1828.76158466,1830.37849416
1,374,1,1,1.0,1.0,0.381588040502,0,0.0,0.0,0.0,0.350266498562,0.0838249325176,0.266441566044,0.434091431079,0.0838249325176,0.405518581547,312,-0.0464483572634,0.420925197877,0.455573212045,nan,nan,nan,nan,nan,nan,nan,nan,1418.9578862,1831.53700399,nan,1831.91859203,nan,nan,nan,nan
1,375,1,1,1.0,1.0,0.319768569025,0,0.0,0.0,0.0,0.350350470524,0.0837281569733,0.266622313551,0.434078627497,0.0837281569733,0.35597694283,11,0.934659501434,0.163852895862,-1.0,nan,nan,nan,nan,nan,nan,nan,nan,1418.9578862,1832.47879642,nan,1832.79856499,nan,nan,nan,nan
