block,trial,time,setsize,freqtrials,colorind,colordeg,colorrgb,correctresp,actualresp,acc,rts,probe_trials,fast_rt_trigger,slow_rt_trigger,rt_trailingavg,rt_runningavg,rt_runningstd,rt_runningslowthresh,rt_runningfastthresh,wm_mousepos,wm_respdeg,wm_colorind,wm_colorrgb,wm_colorhsv,wm_degdiff,wm_rts,timeBlockStart,timeEncArrayOnset,timeResponse,timeProbeOnset,timeProbeOffset
0,0,15:20:31:812000,6,1,299,210.234375,[ 0.05166456  0.39341767  0.53437875],1,1,1,0.598460529,0,nan,nan,nan,nan,nan,nan,nan,nan,nan,nan,[ nan  nan  nan],nan,nan,nan,1418.957886,1419.9754,1420.573861,nan,nan
0,1,15:20:32:748000,6,1,172,120.9375,[ 1.         -0.17098406  0.26502468],1,1,1,0.288636457,0,nan,nan,nan,nan,nan,nan,nan,nan,nan,nan,[ nan  nan  nan],nan,nan,nan,1418.957886,1420.917238,1421.205875,nan,nan
0,2,15:20:33:684000,6,1,460,323.4375,[ 0.41584892  0.38333493 -1.        ],1,1,1,0.370845269,0,nan,nan,nan,nan,nan,nan,nan,nan,nan,nan,[ nan  nan  nan],nan,nan,nan,1418.957886,1421.858989,1422.229834,nan,nan
0,3,15:20:34:636000,6,1,56,39.375,[ 1.         -0.06536751 -1.        ],1,1,1,0.317064986,0,nan,nan,nan,nan,nan,nan,nan,nan,nan,nan,[ nan  nan  nan],nan,nan,nan,1418.957886,1422.800767,1423.117832,nan,nan
0,4,15:20:35:572000,6,0,432,303.75,[ 0.1992279   0.43768733 -1.        ],0,0,1,0.37526343,0,nan,nan,nan,nan,nan,nan,nan,nan,nan,nan,[ nan  nan  nan],nan,nan,nan,1418.957886,1423.742554,1424.117817,nan,nan
0,5,15:20:36:508000,6,1,503,353.671875,[ 0.7730202   0.24853846 -1.        ],1,1,1,0.297440278,0,nan,nan,nan,nan,nan,nan,nan,nan,nan,nan,[ nan  nan  nan],nan,nan,nan,1418.957886,1424.684358,1424.981798,nan,nan
0,6,15:20:37:459000,6,1,363,255.234375,[-0.16228773  0.47636573  0.00704813],1,1,1,0.323637631,0,nan,nan,nan,nan,nan,nan,nan,nan,nan,nan,[ nan  nan  nan],nan,nan,nan,1418.957886,1425.626141,1425.949779,nan,nan
0,7,15:20:38:395000,6,1,78,54.84375,[ 1.         -0.17946765 -0.73990763],1,1,1,0.37383452,0,nan,nan,nan,nan,nan,nan,nan,nan,nan,nan,[ nan  nan  nan],nan,nan,nan,1418.957886,1426.567931,1426.941765,nan,nan
0,8,15:20:39:347000,6,1,183,128.671875,[ 1.         -0.113109    0.35490284],1,1,1,0.376008961,0,nan,nan,nan,nan,nan,nan,nan,nan,nan,nan,[ nan  nan  nan],nan,nan,nan,1418.957886,1427.509719,1427.885728,nan,nan
0,9,15:20:40:283000,6,1,15,10.546875,[ 0.96573443  0.14535278 -1.        ],1,1,1,0.314225697,0,nan,nan,nan,nan,nan,nan,nan,nan,nan,nan,[ nan  nan  nan],nan,nan,nan,1418.957886,1428.451495,1428.76572,nan,nan
0,10,15:20:41:219000,6,1,100,70.3125,[ 1.         -0.27042709 -0.4574399 ],1,1,1,0.300432094,0,nan,nan,nan,nan,nan,nan,nan,nan,nan,nan,[ nan  nan  nan],nan,nan,nan,1418.957886,1429.393286,1429.693718,nan,nan
0,11,15:20:42:171000,6,1,24,16.875,[ 1.          0.10201906 -1.        ],1,1,1,0.398617789,0,nan,nan,nan,nan,nan,nan,nan,nan,nan,nan,[ nan  nan  nan],nan,nan,nan,1418.957886,1430.335076,1430.733694,nan,nan
0,12,15:20:43:107000,6,0,342,240.46875,[-0.17005262  0.46291356  0.21407524],0,0,1,0.368809101,0,nan,nan,nan,nan,nan,nan,nan,nan,nan,nan,[ nan  nan  nan],nan,nan,nan,1418.957886,1431.276863,1431.645672,nan,nan
0,13,15:20:44:043000,6,1,77,54.140625,[ 1.         -0.17459302 -0.75626719],1,1,1,0.235005565,0,nan,nan,nan,nan,nan,nan,nan,nan,nan,nan,[ nan  nan  nan],nan,nan,nan,1418.957886,1432.218656,1432.453662,nan,nan
0,14,15:20:44:994000,6,1,319,224.296875,[-0.08918918  0.43330867  0.4061371 ],1,1,1,0.301184182,0,nan,nan,nan,nan,nan,nan,nan,nan,nan,nan,[ nan  nan  nan],nan,nan,nan,1418.957886,1433.160448,1433.461632,nan,nan
0,15,15:20:45:930000,6,1,428,300.9375,[ 0.17037832  0.44348657 -0.8686614 ],1,1,1,0.319394521,0,nan,nan,nan,nan,nan,nan,nan,nan,nan,nan,[ nan  nan  nan],nan,nan,nan,1418.957886,1434.102231,1434.421625,nan,nan
0,16,15:20:50:220000,6,1,295,207.421875,[ 0.08602229  0.38372732  0.55498608],1,1,1,0.289590679,1,nan,nan,nan,nan,nan,nan,nan,nan,-126.2384066,308,[-0.01868286  0.41309748  0.48168233],nan,8.816531609,1.283921224,1418.957886,1435.044015,1435.333606,1436.877523,1438.169354
0,17,15:20:51:156000,6,1,414,291.09375,[ 0.07478379  0.46016219 -0.60008918],1,0,0,0.565629234,0,0,0,nan,nan,nan,nan,nan,nan,nan,nan,[ nan  nan  nan],nan,nan,nan,1418.957886,1439.327897,1439.893526,nan,nan
0,18,15:20:52:108000,6,0,269,189.140625,[ 0.34171297  0.30588835  0.64326235],0,0,1,0.519823422,0,nan,nan,nan,nan,nan,nan,nan,nan,nan,nan,[ nan  nan  nan],nan,nan,nan,1418.957886,1440.269691,1440.789515,nan,nan
0,19,15:20:53:044000,6,1,127,89.296875,[ 1.         -0.31111021 -0.16703665],1,1,1,0.370021052,0,nan,nan,nan,nan,nan,nan,nan,nan,nan,nan,[ nan  nan  nan],nan,nan,nan,1418.957886,1441.211471,1441.581492,nan,nan
0,20,15:20:53:980000,6,1,447,314.296875,[ 0.31246764  0.41164647 -1.        ],1,1,1,0.324201555,0,nan,nan,nan,nan,nan,nan,nan,nan,nan,nan,[ nan  nan  nan],nan,nan,nan,1418.957886,1442.153263,1442.477465,nan,nan
0,21,15:20:58:473000,6,1,217,152.578125,[ 0.89125041  0.07353733  0.56804835],1,1,1,0.334400645,1,nan,nan,nan,nan,nan,nan,nan,nan,-44.80445202,192,[ 1.         -0.06359976  0.42165841],nan,-17.77367298,1.483823835,1418.957886,1443.095054,1443.429455,1444.92856,1446.42043
0,22,15:20:59:409000,6,1,400,281.25,[-0.01078748  0.4714273  -0.41269269],1,1,1,0.570445961,0,nan,nan,nan,nan,nan,nan,nan,nan,nan,nan,[ nan  nan  nan],nan,nan,nan,1418.957886,1447.578949,1448.149395,nan,nan
0,23,15:21:00:345000,6,1,182,127.96875,[ 1.         -0.11852384  0.34708947],1,1,1,0.38862454,0,nan,nan,nan,nan,nan,nan,nan,nan,nan,nan,[ nan  nan  nan],nan,nan,nan,1418.957886,1448.520751,1448.909376,nan,nan
0,24,15:21:01:296000,6,1,501,352.265625,[ 0.75644923  0.25625354 -1.        ],1,1,1,0.350822849,0,nan,nan,nan,nan,nan,nan,nan,nan,nan,nan,[ nan  nan  nan],nan,nan,nan,1418.957886,1449.462537,1449.81336,nan,nan
0,25,15:21:05:617000,6,1,168,118.125,[ 1.         -0.19079002  0.2303618 ],1,1,1,0.449013105,1,nan,nan,nan,nan,nan,nan,nan,nan,-22.38013505,160,[ 1.         -0.22750142  0.15829752],nan,-5.744864948,1.342100567,1418.957886,1450.404325,1450.853339,1452.229529,1453.579677
0,26,15:21:06:553000,6,1,7,4.921875,[ 0.90309146  0.18185306 -1.        ],1,1,1,0.403360106,0,nan,nan,nan,nan,nan,nan,nan,nan,nan,nan,[ nan  nan  nan],nan,nan,nan,1418.957886,1454.7299,1455.13326,nan,nan
0,27,15:21:11:031000,6,1,89,62.578125,[ 1.         -0.2294841  -0.58737049],1,1,1,0.773550506,1,nan,nan,nan,nan,nan,nan,nan,nan,15.05805747,107,[ 1.         -0.29008977 -0.37959278],nan,12.36381753,1.475565976,1418.957886,1455.671675,1456.445226,1457.505187,1458.988771
0,28,15:21:11:967000,6,1,2,1.40625,[ 0.86302458  0.20362286 -1.        ],1,1,1,0.314249645,0,nan,nan,nan,nan,nan,nan,nan,nan,nan,nan,[ nan  nan  nan],nan,nan,nan,1418.957886,1460.13892,1460.453169,nan,nan
0,29,15:21:12:918000,6,1,335,235.546875,[-0.15559599  0.45562772  0.27689323],1,1,1,0.356454957,0,nan,nan,nan,nan,nan,nan,nan,nan,nan,nan,[ nan  nan  nan],nan,nan,nan,1418.957886,1461.080697,1461.437152,nan,nan
0,30,15:21:13:854000,6,1,117,82.265625,[ 1.         -0.30758797 -0.27188654],1,1,1,0.334623876,0,nan,nan,nan,nan,nan,nan,nan,nan,nan,nan,[ nan  nan  nan],nan,nan,nan,1418.957886,1462.022501,1462.357125,nan,nan
0,31,15:21:14:790000,6,1,38,26.71875,[ 1.          0.03062595 -1.        ],1,1,1,0.352815683,0,nan,nan,nan,nan,nan,nan,nan,nan,nan,nan,[ nan  nan  nan],nan,nan,nan,1418.957886,1462.964283,1463.317099,nan,nan
0,32,15:21:15:742000,6,1,474,333.28125,[ 0.53090176  0.34654538 -1.        ],1,1,1,0.323055747,0,nan,nan,nan,nan,nan,nan,nan,nan,nan,nan,[ nan  nan  nan],nan,nan,nan,1418.957886,1463.906045,1464.229101,nan,nan
0,33,15:21:16:678000,6,1,194,136.40625,[ 1.         -0.05248646  0.4355717 ],1,1,1,0.357210466,0,nan,nan,nan,nan,nan,nan,nan,nan,nan,nan,[ nan  nan  nan],nan,nan,nan,1418.957886,1464.847861,1465.205071,nan,nan
0,34,15:21:17:614000,6,0,423,297.421875,[ 0.13522958  0.45008089 -0.75003992],0,0,1,0.439393905,0,nan,nan,nan,nan,nan,nan,nan,nan,nan,nan,[ nan  nan  nan],nan,nan,nan,1418.957886,1465.78966,1466.229054,nan,nan
0,35,15:21:18:565000,6,1,135,94.921875,[ 1.         -0.30350232 -0.08497887],1,1,1,0.353605689,0,nan,nan,nan,nan,nan,nan,nan,nan,nan,nan,[ nan  nan  nan],nan,nan,nan,1418.957886,1466.731442,1467.085048,nan,nan
0,36,15:21:19:501000,6,1,307,215.859375,[-0.01138687  0.41105336  0.48795701],1,1,1,0.331804544,0,nan,nan,nan,nan,nan,nan,nan,nan,nan,nan,[ nan  nan  nan],nan,nan,nan,1418.957886,1467.673227,1468.005031,nan,nan
0,37,15:21:20:453000,6,1,73,51.328125,[ 1.         -0.15467886 -0.83091687],1,1,1,0.33400778,0,nan,nan,nan,nan,nan,nan,nan,nan,nan,nan,[ nan  nan  nan],nan,nan,nan,1418.957886,1468.614999,1468.949007,nan,nan
0,38,15:21:21:389000,6,1,503,353.671875,[ 0.7730202   0.24853846 -1.        ],1,1,1,0.288240741,0,nan,nan,nan,nan,nan,nan,nan,nan,nan,nan,[ nan  nan  nan],nan,nan,nan,1418.957886,1469.556808,1469.845048,nan,nan
0,39,15:21:22:325000,6,0,326,229.21875,[-0.12383419  0.44407177  0.35222354],0,0,1,0.514375773,0,nan,nan,nan,nan,nan,nan,nan,nan,nan,nan,[ nan  nan  nan],nan,nan,nan,1418.957886,1470.4986,1471.012976,nan,nan
0,40,15:21:23:277000,6,1,506,355.78125,[ 0.79777474  0.23670313 -1.        ],1,1,1,0.276575108,0,nan,nan,nan,nan,nan,nan,nan,nan,nan,nan,[ nan  nan  nan],nan,nan,nan,1418.957886,1471.440387,1471.716963,nan,nan
0,41,15:21:24:213000,6,1,460,323.4375,[ 0.41584892  0.38333493 -1.        ],1,1,1,0.382759793,0,nan,nan,nan,nan,nan,nan,nan,nan,nan,nan,[ nan  nan  nan],nan,nan,nan,1418.957886,1472.382171,1472.764931,nan,nan
0,42,15:21:25:149000,6,1,84,59.0625,[ 1.         -0.20765784 -0.65219109],1,0,0,0.37696689,0,0,0,nan,nan,nan,nan,nan,nan,nan,nan,[ nan  nan  nan],nan,nan,nan,1418.957886,1473.323965,1473.700932,nan,nan
0,43,15:21:26:100000,6,1,182,127.96875,[ 1.         -0.11852384  0.34708947],1,1,1,0.467158156,0,nan,nan,nan,nan,nan,nan,nan,nan,nan,nan,[ nan  nan  nan],nan,nan,nan,1418.957886,1474.265756,1474.732914,nan,nan
0,44,15:21:27:036000,6,1,374,262.96875,[-0.13203913  0.47863408 -0.11062844],1,1,1,0.325361333,0,nan,nan,nan,nan,nan,nan,nan,nan,nan,nan,[ nan  nan  nan],nan,nan,nan,1418.957886,1475.207535,1475.532896,nan,nan
0,45,15:21:27:988000,6,1,135,94.921875,[ 1.         -0.30350232 -0.08497887],1,1,1,0.343558557,0,nan,nan,nan,nan,nan,nan,nan,nan,nan,nan,[ nan  nan  nan],nan,nan,nan,1418.957886,1476.149321,1476.49288,nan,nan
0,46,15:21:28:924000,6,1,19,13.359375,[ 0.99625917  0.12637453 -1.        ],1,1,1,0.321751709,0,nan,nan,nan,nan,nan,nan,nan,nan,nan,nan,[ nan  nan  nan],nan,nan,nan,1418.957886,1477.091113,1477.412865,nan,nan
0,47,15:21:29:860000,6,0,214,150.46875,[ 0.92024366  0.05754104  0.55385485],0,1,0,0.307929312,0,0,0,nan,nan,nan,nan,nan,nan,nan,nan,[ nan  nan  nan],nan,nan,nan,1418.957886,1478.032904,1478.340833,nan,nan
0,48,15:21:30:812000,6,1,465,326.953125,[ 0.45658868  0.37096153 -1.        ],1,1,1,0.406060553,0,nan,nan,nan,nan,nan,nan,nan,nan,nan,nan,[ nan  nan  nan],nan,nan,nan,1418.957886,1478.974746,1479.380807,nan,nan
0,49,15:21:31:748000,6,1,323,227.109375,[-0.11001989  0.43965345  0.37585536],1,1,1,0.352316477,0,nan,nan,nan,nan,nan,nan,nan,nan,nan,nan,[ nan  nan  nan],nan,nan,nan,1418.957886,1479.916479,1480.268795,nan,nan
0,50,15:21:32:684000,6,1,169,118.828125,[ 1.         -0.18591738  0.2391183 ],1,1,1,0.306531477,0,nan,nan,nan,nan,nan,nan,nan,nan,nan,nan,[ nan  nan  nan],nan,nan,nan,1418.957886,1480.85826,1481.164791,nan,nan
0,51,15:21:33:635000,6,1,42,29.53125,[ 1.          0.00954879 -1.        ],1,1,1,0.316716882,0,nan,nan,nan,nan,nan,nan,nan,nan,nan,nan,[ nan  nan  nan],nan,nan,nan,1418.957886,1481.800053,1482.11677,nan,nan
0,52,15:21:34:571000,6,1,276,194.0625,[ 0.26871044  0.32943033  0.62756301],1,1,1,0.318913561,0,nan,nan,nan,nan,nan,nan,nan,nan,nan,nan,[ nan  nan  nan],nan,nan,nan,1418.957886,1482.741842,1483.060755,nan,nan
0,53,15:21:35:507000,6,1,27,18.984375,[ 1.          0.08709126 -1.        ],1,1,1,0.473120692,0,nan,nan,nan,nan,nan,nan,nan,nan,nan,nan,[ nan  nan  nan],nan,nan,nan,1418.957886,1483.683633,1484.156753,nan,nan
0,54,15:21:36:459000,6,1,462,324.84375,[ 0.43208968  0.37848636 -1.        ],1,1,1,0.37131226,0,nan,nan,nan,nan,nan,nan,nan,nan,nan,nan,[ nan  nan  nan],nan,nan,nan,1418.957886,1484.625419,1484.996732,nan,nan
0,55,15:21:37:395000,6,1,77,54.140625,[ 1.         -0.17459302 -0.75626719],1,1,1,0.437490022,0,nan,nan,nan,nan,nan,nan,nan,nan,nan,nan,[ nan  nan  nan],nan,nan,nan,1418.957886,1485.567207,1486.004697,nan,nan
0,56,15:21:38:346000,6,1,127,89.296875,[ 1.         -0.31111021 -0.16703665],1,1,1,0.407693878,0,nan,nan,nan,nan,nan,nan,nan,nan,nan,nan,[ nan  nan  nan],nan,nan,nan,1418.957886,1486.509004,1486.916698,nan,nan
0,57,15:21:39:282000,6,1,35,24.609375,[ 1.          0.04626536 -1.        ],1,1,1,0.353891642,0,nan,nan,nan,nan,nan,nan,nan,nan,nan,nan,[ nan  nan  nan],nan,nan,nan,1418.957886,1487.450785,1487.804677,nan,nan
0,58,15:21:40:234000,6,1,215,151.171875,[ 0.91063986  0.06289474  0.55869515],1,1,1,0.324132846,0,nan,nan,nan,nan,nan,nan,nan,nan,nan,nan,[ nan  nan  nan],nan,nan,nan,1418.957886,1488.392538,1488.716671,nan,nan
0,59,15:21:41:170000,6,1,148,104.0625,[ 1.         -0.27269559  0.04442646],1,1,1,0.4059525,0,nan,nan,nan,nan,nan,nan,nan,nan,nan,nan,[ nan  nan  nan],nan,nan,nan,1418.957886,1489.342697,1489.748649,nan,nan
0,60,15:21:42:122000,6,1,361,253.828125,[-0.16604781  0.47560771  0.02781731],1,1,1,0.312136215,0,nan,nan,nan,nan,nan,nan,nan,nan,nan,nan,[ nan  nan  nan],nan,nan,nan,1418.957886,1490.284488,1490.596624,nan,nan
0,61,15:21:43:058000,6,1,411,288.984375,[ 0.05552017  0.46302271 -0.55705476],1,1,1,0.274328252,0,nan,nan,nan,nan,nan,nan,nan,nan,nan,nan,[ nan  nan  nan],nan,nan,nan,1418.957886,1491.226272,1491.5006,nan,nan
0,62,15:21:43:994000,6,0,509,357.890625,[ 0.82238638  0.224555   -1.        ],0,0,1,0.404519599,0,nan,nan,nan,nan,nan,nan,nan,nan,nan,nan,[ nan  nan  nan],nan,nan,nan,1418.957886,1492.168067,1492.572586,nan,nan
0,63,15:21:44:945000,6,1,304,213.75,[ 0.01130928  0.40470892  0.50616037],1,1,1,0.342710391,0,nan,nan,nan,nan,nan,nan,nan,nan,nan,nan,[ nan  nan  nan],nan,nan,nan,1418.957886,1493.109844,1493.452555,nan,nan
0,64,15:21:45:881000,6,1,363,255.234375,[-0.16228773  0.47636573  0.00704813],1,1,1,0.320905254,0,nan,nan,nan,nan,nan,nan,nan,nan,nan,nan,[ nan  nan  nan],nan,nan,nan,1418.957886,1494.051641,1494.372546,nan,nan
0,65,15:21:46:817000,6,1,133,93.515625,[ 1.         -0.30625957 -0.10533643],1,1,1,0.331110901,0,nan,nan,nan,nan,nan,nan,nan,nan,nan,nan,[ nan  nan  nan],nan,nan,nan,1418.957886,1494.993429,1495.32454,nan,nan
0,66,15:21:47:769000,6,0,59,41.484375,[ 1.         -0.08144099 -1.        ],0,0,1,0.429294314,0,nan,nan,nan,nan,nan,nan,nan,nan,nan,nan,[ nan  nan  nan],nan,nan,nan,1418.957886,1495.935226,1496.36452,nan,nan
0,67,15:21:48:705000,6,1,432,303.75,[ 0.1992279   0.43768733 -1.        ],1,1,1,0.279503633,0,nan,nan,nan,nan,nan,nan,nan,nan,nan,nan,[ nan  nan  nan],nan,nan,nan,1418.957886,1496.877009,1497.156512,nan,nan
0,68,15:21:49:656000,6,1,283,198.984375,[ 0.19826868  0.35105092  0.60582595],1,1,1,0.30568103,0,nan,nan,nan,nan,nan,nan,nan,nan,nan,nan,[ nan  nan  nan],nan,nan,nan,1418.957886,1497.818798,1498.124479,nan,nan
0,69,15:21:50:592000,6,1,464,326.25,[ 0.44840488  0.37350356 -1.        ],1,1,1,0.31589523,0,nan,nan,nan,nan,nan,nan,nan,nan,nan,nan,[ nan  nan  nan],nan,nan,nan,1418.957886,1498.760586,1499.076481,nan,nan
0,70,15:21:51:528000,6,1,361,253.828125,[-0.16604781  0.47560771  0.02781731],1,1,1,0.326072082,0,nan,nan,nan,nan,nan,nan,nan,nan,nan,nan,[ nan  nan  nan],nan,nan,nan,1418.957886,1499.7024,1500.028472,nan,nan
0,71,15:21:52:480000,6,1,200,140.625,[ 1.         -0.01912099  0.47515178],1,1,1,0.512286006,0,nan,nan,nan,nan,nan,nan,nan,nan,nan,nan,[ nan  nan  nan],nan,nan,nan,1418.957886,1500.64416,1501.156446,nan,nan
0,72,15:21:53:416000,6,1,286,201.09375,[ 0.16907896  0.35973478  0.59469871],1,1,1,0.322521474,0,nan,nan,nan,nan,nan,nan,nan,nan,nan,nan,[ nan  nan  nan],nan,nan,nan,1418.957886,1501.58591,1501.908431,nan,nan
0,73,15:21:54:352000,6,1,86,60.46875,[ 1.         -0.21659106 -0.6256178 ],1,1,1,0.372664479,0,nan,nan,nan,nan,nan,nan,nan,nan,nan,nan,[ nan  nan  nan],nan,nan,nan,1418.957886,1502.527739,1502.900404,nan,nan
0,74,15:21:55:304000,6,1,246,172.96875,[ 0.58976884  0.2150199   0.65133953],1,1,1,0.286864574,0,nan,nan,nan,nan,nan,nan,nan,nan,nan,nan,[ nan  nan  nan],nan,nan,nan,1418.957886,1503.469525,1503.75639,nan,nan
0,75,15:21:56:240000,6,1,197,138.515625,[ 1.         -0.0357976   0.45577474],1,1,1,0.265076258,0,nan,nan,nan,nan,nan,nan,nan,nan,nan,nan,[ nan  nan  nan],nan,nan,nan,1418.957886,1504.411308,1504.676385,nan,nan
0,76,15:21:57:191000,6,1,438,307.96875,[ 0.24362256  0.42809644 -1.        ],1,1,1,0.299246087,0,nan,nan,nan,nan,nan,nan,nan,nan,nan,nan,[ nan  nan  nan],nan,nan,nan,1418.957886,1505.353107,1505.652353,nan,nan
0,77,15:21:58:127000,6,1,504,354.375,[ 0.78128615  0.24462829 -1.        ],1,1,1,0.285448778,0,nan,nan,nan,nan,nan,nan,nan,nan,nan,nan,[ nan  nan  nan],nan,nan,nan,1418.957886,1506.294892,1506.580341,nan,nan
0,78,15:21:59:063000,6,1,283,198.984375,[ 0.19826868  0.35105092  0.60582595],1,1,1,0.327632137,0,nan,nan,nan,nan,nan,nan,nan,nan,nan,nan,[ nan  nan  nan],nan,nan,nan,1418.957886,1507.236679,1507.564311,nan,nan
0,79,15:22:00:015000,6,0,499,350.859375,[ 0.73983189  0.26382776 -1.        ],0,0,1,0.449807103,0,nan,nan,nan,nan,nan,nan,nan,nan,nan,nan,[ nan  nan  nan],nan,nan,nan,1418.957886,1508.178514,1508.628321,nan,nan
0,80,15:22:00:951000,6,1,376,264.375,[-0.12496282  0.47870467 -0.13262763],1,1,1,0.26804099,0,0,0,0.34849341,0.365476011,0.085469466,0.450945478,0.280006545,nan,nan,nan,[ nan  nan  nan],nan,nan,nan,1418.957886,1509.120242,1509.388283,nan,nan
0,81,15:22:01:887000,6,0,58,40.78125,[ 1.         -0.07608966 -1.        ],0,1,0,0.262217582,0,0,0,0.326688558,0.36427311,0.085618934,0.449892044,0.278654176,nan,nan,nan,[ nan  nan  nan],nan,nan,nan,1418.957886,1510.062049,1510.324267,nan,nan
0,82,15:22:02:838000,6,1,232,163.125,[ 0.73915824  0.15004662  0.62371202],1,1,1,0.272428361,0,0,0,0.267562311,0.36302853,0.085829316,0.448857847,0.277199214,nan,nan,nan,[ nan  nan  nan],nan,nan,nan,1418.957886,1511.003836,1511.276264,nan,nan
0,83,15:22:03:774000,6,1,25,17.578125,[ 1.          0.09706829 -1.        ],1,1,1,0.370630876,0,0,0,0.30175894,0.361936962,0.085881437,0.447818399,0.276055525,nan,nan,nan,[ nan  nan  nan],nan,nan,nan,1418.957886,1511.945621,1512.316252,nan,nan
0,84,15:22:04:726000,6,1,131,92.109375,[ 1.         -0.30845167 -0.1258005 ],1,1,1,0.348803787,0,0,0,0.330621008,0.362040461,0.085373915,0.447414376,0.276666546,nan,nan,nan,[ nan  nan  nan],nan,nan,nan,1418.957886,1512.887413,1513.236217,nan,nan
0,85,15:22:05:662000,6,1,307,215.859375,[-0.01138687  0.41105336  0.48795701],1,1,1,0.33501332,0,0,0,0.351482661,0.361884735,0.084882229,0.446766965,0.277002506,nan,nan,nan,[ nan  nan  nan],nan,nan,nan,1418.957886,1513.829203,1514.164216,nan,nan
0,86,15:22:06:598000,6,1,378,265.78125,[-0.11745014  0.47867092 -0.15481012],1,1,1,0.289196674,0,0,0,0.324337927,0.361572277,0.08443644,0.446008717,0.277135837,nan,nan,nan,[ nan  nan  nan],nan,nan,nan,1418.957886,1514.770991,1515.060188,nan,nan
0,87,15:22:07:550000,6,1,49,34.453125,[ 1.         -0.02778543 -1.        ],1,1,1,0.275418181,0,0,0,0.299876058,0.360740374,0.084303508,0.445043882,0.276436865,nan,nan,nan,[ nan  nan  nan],nan,nan,nan,1418.957886,1515.712772,1515.98819,nan,nan
0,88,15:22:08:486000,6,1,381,267.890625,[-0.10540306  0.47842508 -0.18843114],1,1,1,0.293594308,0,0,0,0.286069721,0.359770803,0.084309578,0.444080382,0.275461225,nan,nan,nan,[ nan  nan  nan],nan,nan,nan,1418.957886,1516.654565,1516.94816,nan,nan
0,89,15:22:09:422000,6,1,448,315,[ 0.32026744  0.40966225 -1.        ],1,1,1,0.359804571,0,0,0,0.309605687,0.359027247,0.084124264,0.443151511,0.274902984,nan,nan,nan,[ nan  nan  nan],nan,nan,nan,1418.957886,1517.596334,1517.956139,nan,nan
0,90,15:22:10:373000,6,1,37,26.015625,[ 1.          0.03585655 -1.        ],1,1,1,0.385983679,0,0,0,0.346460853,0.359035884,0.083655641,0.442691525,0.275380243,nan,nan,nan,[ nan  nan  nan],nan,nan,nan,1418.957886,1518.538142,1518.924125,nan,nan
0,91,15:22:11:309000,6,1,349,245.390625,[-0.17565689  0.46876851  0.14794518],1,1,1,0.372162136,0,0,0,0.372650129,0.359332014,0.083242144,0.442574158,0.27608987,nan,nan,nan,[ nan  nan  nan],nan,nan,nan,1418.957886,1519.479933,1519.852095,nan,nan
0,92,15:22:12:261000,6,1,88,61.875,[ 1.         -0.22525759 -0.59993285],1,1,1,0.366368948,0,0,0,0.374838254,0.359471472,0.082799193,0.442270665,0.276672278,nan,nan,nan,[ nan  nan  nan],nan,nan,nan,1418.957886,1520.421715,1520.788084,nan,nan
0,93,15:22:13:197000,6,1,464,326.25,[ 0.44840488  0.37350356 -1.        ],1,1,1,0.288564897,0,0,0,0.342365327,0.359545638,0.082355905,0.441901543,0.277189732,nan,nan,nan,[ nan  nan  nan],nan,nan,nan,1418.957886,1521.363507,1521.652071,nan,nan
0,94,15:22:14:133000,6,1,396,278.4375,[-0.03301537  0.47368488 -0.36352378],1,1,1,0.306766113,0,0,0,0.320566653,0.358790524,0.082239707,0.44103023,0.276550817,nan,nan,nan,[ nan  nan  nan],nan,nan,nan,1418.957886,1522.305296,1522.612062,nan,nan
0,95,15:22:15:084000,6,1,19,13.359375,[ 0.99625917  0.12637453 -1.        ],1,1,1,0.220946821,0,1,0,0.27209261,0.358242898,0.081977838,0.440220737,0.27626506,nan,nan,nan,[ nan  nan  nan],nan,nan,nan,1418.957886,1523.247087,1523.468034,nan,nan
0,96,15:22:16:020000,6,1,71,49.921875,[ 1.         -0.14450407 -0.87798077],1,nan,nan,nan,0,0,0,0.263856467,0.356812731,0.08273254,0.439545271,0.274080191,nan,nan,nan,[ nan  nan  nan],nan,nan,nan,1418.957886,1524.188868,nan,nan,nan
0,97,15:22:16:956000,6,1,237,166.640625,[ 0.6863873   0.17403185  0.63634982],1,1,1,0.329349566,0,0,0,0.275148194,0.356812731,0.08273254,0.439545271,0.274080191,nan,nan,nan,[ nan  nan  nan],nan,nan,nan,1418.957886,1525.130663,1525.460013,nan,nan
0,98,15:22:17:908000,6,1,172,120.9375,[ 1.         -0.17098406  0.26502468],1,1,1,0.395531035,0,0,0,0.362440301,0.356529605,0.082351715,0.43888132,0.274177891,nan,nan,nan,[ nan  nan  nan],nan,nan,nan,1418.957886,1526.072448,1526.467979,nan,nan
0,99,15:22:18:844000,6,1,67,47.109375,[ 1.         -0.12380467 -1.        ],1,1,1,0.421722687,0,0,0,0.382201096,0.356927579,0.082024179,0.438951758,0.2749034,nan,nan,nan,[ nan  nan  nan],nan,nan,nan,1418.957886,1527.014236,1527.435958,nan,nan
0,100,15:22:19:796000,6,1,219,153.984375,[ 0.87162732  0.08408817  0.57695967],1,1,1,0.359930584,0,0,0,0.392394769,0.357582075,0.081865661,0.439447736,0.275716414,nan,nan,nan,[ nan  nan  nan],nan,nan,nan,1418.957886,1527.956027,1528.315958,nan,nan
0,101,15:22:20:732000,6,1,44,30.9375,[ 1.         -0.00106984 -1.        ],1,1,1,0.306115804,0,0,0,0.362589692,0.35760556,0.08145564,0.4390612,0.276149921,nan,nan,nan,[ nan  nan  nan],nan,nan,nan,1418.957886,1528.897814,1529.20393,nan,nan
0,102,15:22:21:668000,6,1,495,348.046875,[ 0.70648511  0.27855169 -1.        ],1,1,1,0.324307611,0,0,0,0.330118,0.357095761,0.08121156,0.438307321,0.275884201,nan,nan,nan,[ nan  nan  nan],nan,nan,nan,1418.957886,1529.839608,1530.163916,nan,nan
0,103,15:22:22:619000,6,1,220,154.6875,[ 0.86173155  0.08932726  0.58124768],1,1,1,0.342496567,0,0,0,0.324306661,0.356774308,0.08087703,0.437651339,0.275897278,nan,nan,nan,[ nan  nan  nan],nan,nan,nan,1418.957886,1530.781397,1531.123894,nan,nan
0,104,15:22:23:555000,6,1,409,287.578125,[ 0.04294362  0.46479315 -0.52946185],1,1,1,0.344707501,0,0,0,0.33717056,0.356635689,0.080495641,0.43713133,0.276140049,nan,nan,nan,[ nan  nan  nan],nan,nan,nan,1418.957886,1531.723186,1532.067894,nan,nan
0,105,15:22:24:491000,6,1,319,224.296875,[-0.08918918  0.43330867  0.4061371 ],1,1,1,0.306912368,0,0,0,0.331372145,0.356520995,0.080116164,0.43663716,0.276404831,nan,nan,nan,[ nan  nan  nan],nan,nan,nan,1418.957886,1532.664971,1532.971883,nan,nan
0,106,15:22:25:443000,6,1,87,61.171875,[ 1.         -0.22095901 -0.61267562],1,1,1,0.35707704,0,0,0,0.336232303,0.356048532,0.079879192,0.435927724,0.27616934,nan,nan,nan,[ nan  nan  nan],nan,nan,nan,1418.957886,1533.606763,1533.96384,nan,nan
0,107,15:22:26:379000,6,0,360,253.125,[-0.1677095   0.47518832  0.03812586],0,0,1,0.415296582,0,0,0,0.359761997,0.356058235,0.079501573,0.435559808,0.276556663,nan,nan,nan,[ nan  nan  nan],nan,nan,nan,1418.957886,1534.548547,1534.963843,nan,nan
0,108,15:22:27:330000,6,1,94,66.09375,[ 1.         -0.24943901 -0.52674516],1,1,1,0.3134776,0,0,0,0.361950407,0.356611865,0.079334227,0.435946091,0.277277638,nan,nan,nan,[ nan  nan  nan],nan,nan,nan,1418.957886,1535.490341,1535.803819,nan,nan
0,109,15:22:28:266000,6,0,224,157.5,[ 0.82161942  0.11002479  0.59726488],0,0,1,0.611663124,0,0,0,0.446812435,0.356212473,0.079074082,0.435286555,0.277138391,nan,nan,nan,[ nan  nan  nan],nan,nan,nan,1418.957886,1536.432126,1537.043789,nan,nan
0,110,15:22:29:202000,6,1,504,354.375,[ 0.78128615  0.24462829 -1.        ],1,1,1,0.49389463,0,0,0,0.473011785,0.358556057,0.082392498,0.440948555,0.276163559,nan,nan,nan,[ nan  nan  nan],nan,nan,nan,1418.957886,1537.373906,1537.867801,nan,nan
0,111,15:22:30:154000,6,1,125,87.890625,[ 1.         -0.31156743 -0.18780506],1,1,1,0.368072693,0,0,0,0.491210149,0.359786408,0.083016926,0.442803334,0.276769481,nan,nan,nan,[ nan  nan  nan],nan,nan,nan,1418.957886,1538.315702,1538.683775,nan,nan
0,112,15:22:31:090000,6,1,53,37.265625,[ 1.         -0.04925756 -1.        ],1,1,1,0.298263355,0,0,0,0.386743559,0.359861059,0.082645839,0.442506898,0.27721522,nan,nan,nan,[ nan  nan  nan],nan,nan,nan,1418.957886,1539.257493,1539.555757,nan,nan
0,113,15:22:32:026000,6,1,374,262.96875,[-0.13203913  0.47863408 -0.11062844],1,1,1,0.348454827,0,0,0,0.338263625,0.35931108,0.082479843,0.441790923,0.276831236,nan,nan,nan,[ nan  nan  nan],nan,nan,nan,1418.957886,1540.199279,1540.547734,nan,nan
0,114,15:22:32:978000,6,0,109,76.640625,[ 1.         -0.29463833 -0.3577737 ],0,0,1,0.470615538,0,0,0,0.372444573,0.359215007,0.082120372,0.441335378,0.277094635,nan,nan,nan,[ nan  nan  nan],nan,nan,nan,1418.957886,1541.141084,1541.611699,nan,nan
0,115,15:22:33:914000,6,1,171,120.234375,[ 1.         -0.17601187  0.25645091],1,1,1,0.416882011,0,0,0,0.411984125,0.360192204,0.082416656,0.44260886,0.277775549,nan,nan,nan,[ nan  nan  nan],nan,nan,nan,1418.957886,1542.082849,1542.499731,nan,nan
0,116,15:22:34:850000,6,1,20,14.0625,[ 1.          0.12155819 -1.        ],1,1,1,0.379031568,0,0,0,0.422176372,0.360685159,0.082226166,0.442911325,0.278458993,nan,nan,nan,[ nan  nan  nan],nan,nan,nan,1418.957886,1543.024648,1543.403679,nan,nan
0,117,15:22:35:801000,6,1,322,226.40625,[-0.10506723  0.43811622  0.38355935],1,1,1,0.397230788,0,0,0,0.397714789,0.360843318,0.081888542,0.44273186,0.278954776,nan,nan,nan,[ nan  nan  nan],nan,nan,nan,1418.957886,1543.966434,1544.363665,nan,nan
0,118,15:22:36:737000,6,1,400,281.25,[-0.01078748  0.4714273  -0.41269269],1,1,1,0.327438556,0,0,0,0.367900304,0.361154322,0.081606613,0.442760935,0.279547709,nan,nan,nan,[ nan  nan  nan],nan,nan,nan,1418.957886,1544.908226,1545.235664,nan,nan
0,119,15:22:37:689000,6,1,465,326.953125,[ 0.45658868  0.37096153 -1.        ],1,1,1,0.4016384,0,0,0,0.375435915,0.360868595,0.081318838,0.442187433,0.279549756,nan,nan,nan,[ nan  nan  nan],nan,nan,nan,1418.957886,1545.850016,1546.251654,nan,nan
0,120,15:22:38:625000,6,1,79,55.546875,[ 1.         -0.18429602 -0.72417078],1,1,1,0.379822715,0,0,0,0.369633224,0.361211198,0.081061919,0.442273117,0.28014928,nan,nan,nan,[ nan  nan  nan],nan,nan,nan,1418.957886,1546.791799,1547.171622,nan,nan
0,121,15:22:39:561000,6,1,160,112.5,[ 1.         -0.22750142  0.15829752],1,1,1,0.39005288,0,0,0,0.390504665,0.361366294,0.080741182,0.442107477,0.280625112,nan,nan,nan,[ nan  nan  nan],nan,nan,nan,1418.957886,1547.733584,1548.123637,nan,nan
0,122,15:22:40:512000,6,1,205,144.140625,[ 1.          0.008548    0.50553524],1,1,1,0.336222135,0,0,0,0.368699243,0.361603373,0.08044878,0.442052153,0.281154594,nan,nan,nan,[ nan  nan  nan],nan,nan,nan,1418.957886,1548.675367,1549.011589,nan,nan
0,123,15:22:41:448000,6,1,479,336.796875,[ 0.57257215  0.33176822 -1.        ],1,1,1,0.282425886,0,0,0,0.336233633,0.361395331,0.08015107,0.4415464,0.281244261,nan,nan,nan,[ nan  nan  nan],nan,nan,nan,1418.957886,1549.61716,1549.899586,nan,nan
0,124,15:22:42:384000,6,0,19,13.359375,[ 0.99625917  0.12637453 -1.        ],0,0,1,0.420605388,0,0,0,0.346417803,0.360753303,0.080138962,0.440892264,0.280614341,nan,nan,nan,[ nan  nan  nan],nan,nan,nan,1418.957886,1550.558955,1550.97956,nan,nan
0,125,15:22:43:336000,6,1,482,338.90625,[ 0.59765563  0.32248081 -1.        ],1,1,1,0.326798796,0,0,0,0.34327669,0.361235981,0.079994482,0.441230463,0.281241499,nan,nan,nan,[ nan  nan  nan],nan,nan,nan,1418.957886,1551.500744,1551.827542,nan,nan
0,126,15:22:44:272000,6,1,158,111.09375,[ 1.         -0.23594923  0.13976411],1,1,1,0.472994394,0,0,0,0.406799526,0.360960483,0.079732902,0.440693385,0.281227581,nan,nan,nan,[ nan  nan  nan],nan,nan,nan,1418.957886,1552.442532,1552.915526,nan,nan
0,127,15:22:45:224000,6,1,242,170.15625,[ 0.63291185  0.19716118  0.6459214 ],1,1,1,0.283183676,0,0,0,0.360992289,0.361849641,0.080035654,0.441885295,0.281813987,nan,nan,nan,[ nan  nan  nan],nan,nan,nan,1418.957886,1553.384315,1553.667499,nan,nan
0,128,15:22:46:160000,6,1,490,344.53125,[ 0.66466039  0.29615785 -1.        ],1,1,1,0.301380615,0,0,0,0.352519561,0.361230224,0.080022563,0.441252787,0.281207661,nan,nan,nan,[ nan  nan  nan],nan,nan,nan,1418.957886,1554.326105,1554.627485,nan,nan
0,129,15:22:47:096000,6,1,7,4.921875,[ 0.90309146  0.18185306 -1.        ],1,1,1,0.367565789,0,0,0,0.317376693,0.360762649,0.07988334,0.440645989,0.280879309,nan,nan,nan,[ nan  nan  nan],nan,nan,nan,1418.957886,1555.267892,1555.635458,nan,nan
0,130,15:22:48:047000,6,1,393,276.328125,[-0.04894566  0.47510217 -0.32744323],1,1,1,0.377762028,0,0,0,0.348902811,0.360815387,0.079575349,0.440390735,0.281240038,nan,nan,nan,[ nan  nan  nan],nan,nan,nan,1418.957886,1556.209681,1556.587443,nan,nan
0,131,15:22:48:983000,6,0,36,25.3125,[ 1.          0.04106996 -1.        ],0,0,1,0.435963038,0,0,0,0.393763618,0.360945745,0.079282525,0.44022827,0.28166322,nan,nan,nan,[ nan  nan  nan],nan,nan,nan,1418.957886,1557.15148,1557.587443,nan,nan
0,132,15:22:49:919000,6,1,467,328.359375,[ 0.47300519  0.36577567 -1.        ],1,1,1,0.286166084,0,0,0,0.366630383,0.361518396,0.079248767,0.440767163,0.28226963,nan,nan,nan,[ nan  nan  nan],nan,nan,nan,1418.957886,1558.093264,1558.37943,nan,nan
0,133,15:22:50:871000,6,1,347,243.984375,[-0.17493884  0.46723881  0.16715748],1,1,1,0.296351774,0,0,0,0.339493632,0.360947546,0.079217912,0.440165457,0.281729634,nan,nan,nan,[ nan  nan  nan],nan,nan,nan,1418.957886,1559.035048,1559.331399,nan,nan
0,134,15:22:51:807000,6,1,216,151.875,[ 0.90097501  0.06822711  0.56342658],1,1,1,0.210556146,0,1,0,0.264358002,0.360461863,0.079116564,0.439578427,0.2813453,nan,nan,nan,[ nan  nan  nan],nan,nan,nan,1418.957886,1559.97684,1560.187396,nan,nan
0,135,15:22:56:970000,6,1,418,293.90625,[ 0.10117589  0.45596175 -0.66167931],1,1,1,0.292744431,1,0,0,0.266550784,0.359343164,0.079869684,0.439212848,0.27947348,nan,-153.0604719,346,[-0.17431756  0.46643129  0.17667017],nan,-50.84577806,2.16724437,1418.957886,1560.91863,1561.211374,1562.752161,1564.927419
0,136,15:22:57:906000,6,1,318,223.59375,[-0.08356276  0.43164026  0.41348156],1,1,1,0.605665806,0,0,0,0.369655461,0.35884984,0.079777971,0.438627811,0.279071869,nan,nan,nan,[ nan  nan  nan],nan,nan,nan,1418.957886,1566.077626,1566.683292,nan,nan
0,137,15:22:58:858000,6,0,172,120.9375,[ 1.         -0.17098406  0.26502468],0,0,1,0.439841223,0,0,0,0.44608382,0.360664663,0.082233573,0.442898236,0.27843109,nan,nan,nan,[ nan  nan  nan],nan,nan,nan,1418.957886,1567.019424,1567.459265,nan,nan
0,138,15:22:59:794000,6,1,276,194.0625,[ 0.26871044  0.32943033  0.62756301],1,1,1,0.298044115,0,0,0,0.447850381,0.361242594,0.082209639,0.443452233,0.279032955,nan,nan,nan,[ nan  nan  nan],nan,nan,nan,1418.957886,1567.961201,1568.259245,nan,nan
0,139,15:23:00:730000,6,1,121,85.078125,[ 1.         -0.31073281 -0.22964081],1,1,1,0.300269874,0,0,0,0.346051737,0.360784634,0.082086438,0.442871072,0.278698196,nan,nan,nan,[ nan  nan  nan],nan,nan,nan,1418.957886,1568.902957,1569.203227,nan,nan
0,140,15:23:01:682000,6,1,485,341.015625,[ 0.62277456  0.31287562 -1.        ],1,1,1,0.278424253,0,0,0,0.29224608,0.360349276,0.081950371,0.442299647,0.278398905,nan,nan,nan,[ nan  nan  nan],nan,nan,nan,1418.957886,1569.844777,1570.123201,nan,nan
0,141,15:23:02:618000,6,1,73,51.328125,[ 1.         -0.15467886 -0.83091687],1,1,1,0.288619636,0,0,0,0.289104588,0.359764097,0.0819481,0.441712198,0.277815997,nan,nan,nan,[ nan  nan  nan],nan,nan,nan,1418.957886,1570.786566,1571.075185,nan,nan
0,142,15:23:03:554000,6,0,459,322.734375,[ 0.40775816  0.38570917 -1.        ],0,1,0,0.234830515,0,0,0,0.267291468,0.359259527,0.081874943,0.44113447,0.277384583,nan,nan,nan,[ nan  nan  nan],nan,nan,nan,1418.957886,1571.728359,1571.96319,nan,nan
0,143,15:23:04:505000,6,1,494,347.34375,[ 0.69812996  0.282144   -1.        ],1,1,1,0.33301906,0,0,0,0.285489737,0.358383266,0.082246963,0.44063023,0.276136303,nan,nan,nan,[ nan  nan  nan],nan,nan,nan,1418.957886,1572.670147,1573.003166,nan,nan
0,144,15:23:05:441000,6,1,33,23.203125,[ 1.          0.05659903 -1.        ],1,1,1,0.35920444,0,0,0,0.309018005,0.358205894,0.081986132,0.440192026,0.276219762,nan,nan,nan,[ nan  nan  nan],nan,nan,nan,1418.957886,1573.611939,1573.971143,nan,nan
0,145,15:23:06:393000,6,1,344,241.875,[-0.17254346  0.46473023  0.19550382],1,1,1,0.321422707,0,0,0,0.337882069,0.358212828,0.081701004,0.439913832,0.276511825,nan,nan,nan,[ nan  nan  nan],nan,nan,nan,1418.957886,1574.55373,1574.875152,nan,nan
0,146,15:23:07:329000,6,1,2,1.40625,[ 0.86302458  0.20362286 -1.        ],1,1,1,0.275601214,0,0,0,0.318742787,0.357959103,0.081475698,0.439434801,0.276483405,nan,nan,nan,[ nan  nan  nan],nan,nan,nan,1418.957886,1575.495514,1575.771115,nan,nan
0,147,15:23:08:265000,6,1,157,110.390625,[ 1.         -0.24004838  0.1304259 ],1,1,1,0.261806756,0,0,0,0.286276892,0.357395008,0.08147982,0.438874829,0.275915188,nan,nan,nan,[ nan  nan  nan],nan,nan,nan,1418.957886,1576.437301,1576.699107,nan,nan
0,148,15:23:09:216000,6,1,279,196.171875,[ 0.23815758  0.33893035  0.61897842],1,1,1,0.295987989,0,0,0,0.277798653,0.356744748,0.081581447,0.438326195,0.275163301,nan,nan,nan,[ nan  nan  nan],nan,nan,nan,1418.957886,1577.379096,1577.675084,nan,nan
0,149,15:23:10:152000,6,1,400,281.25,[-0.01078748  0.4714273  -0.41269269],1,1,1,0.322193896,0,0,0,0.293329547,0.356334229,0.081457571,0.437791801,0.274876658,nan,nan,nan,[ nan  nan  nan],nan,nan,nan,1418.957886,1578.320877,1578.643071,nan,nan
0,150,15:23:11:088000,6,1,282,198.28125,[ 0.20814231  0.34807905  0.6092955 ],1,1,1,0.30036196,0,0,0,0.306181282,0.3561051,0.081231604,0.437336704,0.274873495,nan,nan,nan,[ nan  nan  nan],nan,nan,nan,1418.957886,1579.262671,1579.563033,nan,nan
0,151,15:23:12:040000,6,1,49,34.453125,[ 1.         -0.02778543 -1.        ],1,1,1,0.278539147,0,0,0,0.300365001,0.355733479,0.081087362,0.436820841,0.274646117,nan,nan,nan,[ nan  nan  nan],nan,nan,nan,1418.957886,1580.204509,1580.483048,nan,nan
0,152,15:23:12:976000,6,1,251,176.484375,[ 0.53557652  0.23650919  0.65528415],1,1,1,0.280749226,0,0,0,0.286550111,0.355222258,0.081060583,0.436282841,0.274161675,nan,nan,nan,[ nan  nan  nan],nan,nan,nan,1418.957886,1581.146245,1581.426994,nan,nan
0,153,15:23:13:928000,6,1,24,16.875,[ 1.          0.10201906 -1.        ],1,1,1,0.338958503,0,0,0,0.299415625,0.354732304,0.081017513,0.435749817,0.273714791,nan,nan,nan,[ nan  nan  nan],nan,nan,nan,1418.957886,1582.088039,1582.426998,nan,nan
0,154,15:23:14:864000,6,1,494,347.34375,[ 0.69812996  0.282144   -1.        ],1,1,1,0.293168087,0,0,0,0.304291939,0.354629207,0.080762319,0.435391526,0.273866888,nan,nan,nan,[ nan  nan  nan],nan,nan,nan,1418.957886,1583.029819,1583.322987,nan,nan
0,155,15:23:15:800000,6,1,327,229.921875,[-0.12808616  0.44548068  0.34417644],1,1,1,0.351357123,0,0,0,0.327827904,0.354230109,0.0806509,0.434881009,0.273579209,nan,nan,nan,[ nan  nan  nan],nan,nan,nan,1418.957886,1583.971611,1584.322969,nan,nan
0,156,15:23:16:751000,6,1,423,297.421875,[ 0.13522958  0.45008089 -0.75003992],1,1,1,0.377594105,0,0,0,0.340706438,0.354211574,0.080390644,0.434602217,0.27382093,nan,nan,nan,[ nan  nan  nan],nan,nan,nan,1418.957886,1584.913366,1585.29096,nan,nan
0,157,15:23:17:687000,6,1,321,225.703125,[-0.09994335  0.43654647  0.39117498],1,1,1,0.275742623,0,0,0,0.33489795,0.354361462,0.080154292,0.434515754,0.274207169,nan,nan,nan,[ nan  nan  nan],nan,nan,nan,1418.957886,1585.855189,1586.130931,nan,nan
0,158,15:23:18:623000,6,1,81,56.953125,[ 1.         -0.19380425 -0.69421917],1,1,1,0.461939156,0,0,0,0.371758628,0.353860705,0.080143041,0.434003746,0.273717663,nan,nan,nan,[ nan  nan  nan],nan,nan,nan,1418.957886,1586.796974,1587.258913,nan,nan
0,159,15:23:19:575000,6,1,189,132.890625,[ 1.         -0.08021946  0.40014347],1,1,1,0.312121675,0,0,0,0.349934485,0.354544745,0.080347482,0.434892228,0.274197263,nan,nan,nan,[ nan  nan  nan],nan,nan,nan,1418.957886,1587.738767,1588.050889,nan,nan
0,160,15:23:20:511000,6,1,271,190.546875,[ 0.32064286  0.31281163  0.63940014],1,1,1,0.298330638,0,0,0,0.357463823,0.354277934,0.080164604,0.434442537,0.27411333,nan,nan,nan,[ nan  nan  nan],nan,nan,nan,1418.957886,1588.680551,1588.978881,nan,nan
0,161,15:23:21:462000,6,1,390,274.21875,[-0.06419603  0.4762842  -0.29194755],1,1,1,0.228523581,0,0,0,0.279658631,0.353928263,0.080035241,0.433963504,0.273893022,nan,nan,nan,[ nan  nan  nan],nan,nan,nan,1418.957886,1589.622346,1589.85087,nan,nan
0,162,15:23:22:399000,6,1,290,203.90625,[ 0.13126538  0.37077654  0.57820662],1,1,1,0.206724146,0,1,0,0.244526122,0.353149352,0.080392323,0.433541675,0.272757029,nan,nan,nan,[ nan  nan  nan],nan,nan,nan,1418.957886,1590.56413,1590.770855,nan,nan
0,163,15:23:27:125000,6,1,145,101.953125,[ 1.         -0.28166741  0.01505517],1,1,1,0.392910701,1,0,0,0.276052809,0.352245493,0.080960248,0.433205741,0.271285244,nan,-24.53772848,163,[ 1.         -0.2142478   0.18572368],nan,12.58460348,1.73386945,1418.957886,1591.50592,1591.89883,1593.331096,1595.073007
0,164,15:23:28:061000,6,0,245,172.265625,[ 0.6005777   0.21061011  0.65017283],0,0,1,0.507221528,0,0,0,0.368952125,0.352494973,0.08077396,0.433268933,0.271721012,nan,nan,nan,[ nan  nan  nan],nan,nan,nan,1418.957886,1596.231531,1596.738752,nan,nan
0,165,15:23:29:013000,6,1,386,271.40625,[-0.08339466  0.47749559 -0.24542474],1,1,1,0.397412395,0,0,0,0.432514874,0.353438427,0.081423196,0.434861624,0.272015231,nan,nan,nan,[ nan  nan  nan],nan,nan,nan,1418.957886,1597.173322,1597.570734,nan,nan
0,166,15:23:29:949000,6,1,72,50.625,[ 1.         -0.14960778 -0.85320374],1,1,1,0.359600156,0,0,0,0.42141136,0.353704936,0.081247801,0.434952737,0.272457135,nan,nan,nan,[ nan  nan  nan],nan,nan,nan,1418.957886,1598.115102,1598.474702,nan,nan
0,167,15:23:30:885000,6,1,117,82.265625,[ 1.         -0.30758797 -0.27188654],1,1,1,0.305806758,0,0,0,0.354273103,0.353740449,0.081003993,0.434744443,0.272736456,nan,nan,nan,[ nan  nan  nan],nan,nan,nan,1418.957886,1599.056892,1599.362699,nan,nan
0,168,15:23:31:837000,6,1,230,161.71875,[ 0.76002313  0.14022421  0.6178111 ],1,1,1,0.387992763,0,0,0,0.351133226,0.353453421,0.080845727,0.434299148,0.272607694,nan,nan,nan,[ nan  nan  nan],nan,nan,nan,1418.957886,1599.998689,1600.386682,nan,nan
0,169,15:23:32:773000,6,0,506,355.78125,[ 0.79777474  0.23670313 -1.        ],0,0,1,0.470180763,0,0,0,0.387993428,0.353659013,0.08064853,0.434307542,0.273010483,nan,nan,nan,[ nan  nan  nan],nan,nan,nan,1418.957886,1600.94047,1601.410651,nan,nan
0,170,15:23:33:709000,6,1,167,117.421875,[ 1.         -0.19560581  0.22154672],1,1,1,0.352376918,0,0,0,0.403516815,0.35434849,0.080904653,0.435253143,0.273443838,nan,nan,nan,[ nan  nan  nan],nan,nan,nan,1418.957886,1601.882261,1602.234638,nan,nan
0,171,15:23:34:660000,6,1,322,226.40625,[-0.10506723  0.43811622  0.38355935],1,1,1,0.306582224,0,0,0,0.376379969,0.354336893,0.080666488,0.435003381,0.273670405,nan,nan,nan,[ nan  nan  nan],nan,nan,nan,1418.957886,1602.824049,1603.130631,nan,nan
0,172,15:23:35:596000,6,1,370,260.15625,[-0.144806    0.47817873 -0.06718033],1,1,1,0.420769605,0,0,0,0.359909582,0.354057626,0.080512654,0.43457028,0.273544972,nan,nan,nan,[ nan  nan  nan],nan,nan,nan,1418.957886,1603.765839,1604.186609,nan,nan
0,173,15:23:36:548000,6,1,230,161.71875,[ 0.76002313  0.14022421  0.6178111 ],1,1,1,0.286958941,0,0,0,0.33810359,0.354445486,0.080438325,0.434883812,0.274007161,nan,nan,nan,[ nan  nan  nan],nan,nan,nan,1418.957886,1604.707627,1604.994586,nan,nan
0,174,15:23:37:484000,6,1,121,85.078125,[ 1.         -0.31073281 -0.22964081],1,1,1,0.297162878,0,0,0,0.334963808,0.354055391,0.080368511,0.434423901,0.27368688,nan,nan,nan,[ nan  nan  nan],nan,nan,nan,1418.957886,1605.649413,1605.946576,nan,nan
0,175,15:23:38:420000,6,1,441,310.078125,[ 0.26628726  0.42289189 -1.        ],1,1,1,0.28335559,0,0,0,0.289159136,0.353728422,0.080252548,0.43398097,0.273475874,nan,nan,nan,[ nan  nan  nan],nan,nan,nan,1418.957886,1606.591224,1606.87458,nan,nan
0,176,15:23:39:371000,6,1,170,119.53125,[ 1.         -0.18099048  0.24781506],1,1,1,0.325545791,0,0,0,0.30202142,0.353326292,0.080198542,0.433524833,0.27312775,nan,nan,nan,[ nan  nan  nan],nan,nan,nan,1418.957886,1607.532997,1607.858543,nan,nan
0,177,15:23:40:307000,6,1,35,24.609375,[ 1.          0.04626536 -1.        ],1,1,1,0.247781654,0,0,0,0.285561012,0.353168448,0.079997636,0.433166084,0.273170812,nan,nan,nan,[ nan  nan  nan],nan,nan,nan,1418.957886,1608.474769,1608.72255,nan,nan
0,178,15:23:41:243000,6,1,311,218.671875,[-0.03972498  0.41902022  0.46225021],1,1,1,0.193948628,0,1,0,0.255758691,0.352573042,0.080161457,0.432734499,0.272411586,nan,nan,nan,[ nan  nan  nan],nan,nan,nan,1418.957886,1609.416571,1609.61052,nan,nan
0,179,15:23:45:596000,6,1,233,163.828125,[ 0.7286704   0.15490978  0.62648223],1,1,1,0.228133567,1,0,0,0.22328795,0.351681894,0.080810411,0.432492305,0.270871483,nan,-49.66685837,199,[ 1.         -0.02467618  0.4687863 ],nan,-24.16126663,1.342129932,1418.957886,1610.358347,1610.586481,1612.191865,1613.542047
0,180,15:23:46:532000,6,1,73,51.328125,[ 1.         -0.15467886 -0.83091687],1,1,1,0.461836805,0,0,0,0.294639667,0.35099168,0.081108808,0.432100487,0.269882872,nan,nan,nan,[ nan  nan  nan],nan,nan,nan,1418.957886,1614.70059,1615.162427,nan,nan
0,181,15:23:47:483000,6,1,206,144.84375,[ 0.99472346  0.01405192  0.51131616],1,1,1,0.544015112,0,0,0,0.411328495,0.351607486,0.081301726,0.432909212,0.27030576,nan,nan,nan,[ nan  nan  nan],nan,nan,nan,1418.957886,1615.642375,1616.18639,nan,nan
0,182,15:23:48:419000,6,1,380,267.1875,[-0.10951951  0.47853303 -0.17717739],1,1,1,0.410252916,0,0,1,0.472034945,0.352670512,0.08232166,0.434992171,0.270348852,nan,nan,nan,[ nan  nan  nan],nan,nan,nan,1418.957886,1616.58415,1616.994403,nan,nan
0,183,15:23:53:583000,6,1,148,104.0625,[ 1.         -0.27269559  0.04442646],1,1,1,0.38041971,1,0,0,0.444895913,0.352986898,0.082205464,0.435192363,0.270781434,nan,-13.76630069,148,[ 1.         -0.27269559  0.04442646],nan,-0.296199315,2.175657607,1418.957886,1617.525954,1617.906373,1619.351141,1621.534743
0,184,15:23:54:519000,6,1,426,299.53125,[ 0.15619305  0.44621085 -0.8148597 ],1,1,1,0.365339745,0,0,0,0.385337457,0.353136805,0.082005492,0.435142296,0.271131313,nan,nan,nan,[ nan  nan  nan],nan,nan,nan,1418.957886,1622.68496,1623.0503,nan,nan
0,185,15:23:55:455000,6,1,0,0,[ 0.84683171  0.21209757 -1.        ],1,1,1,0.415514396,0,0,0,0.387091284,0.353203125,0.081787268,0.434990393,0.271415857,nan,nan,nan,[ nan  nan  nan],nan,nan,nan,1418.957886,1623.626738,1624.042253,nan,nan
0,186,15:23:56:407000,6,1,470,330.46875,[ 0.49774161  0.35774078 -1.        ],1,1,1,0.345721309,0,0,0,0.37552515,0.353539943,0.08169378,0.435233723,0.271846162,nan,nan,nan,[ nan  nan  nan],nan,nan,nan,1418.957886,1624.568532,1624.914254,nan,nan
0,187,15:23:57:343000,6,0,389,273.515625,[-0.06912081  0.47662608 -0.28023432],0,0,1,0.459928075,0,0,0,0.407054594,0.353497907,0.081475883,0.43497379,0.272022023,nan,nan,nan,[ nan  nan  nan],nan,nan,nan,1418.957886,1625.510312,1625.97024,nan,nan
0,188,15:23:58:279000,6,1,230,161.71875,[ 0.76002313  0.14022421  0.6178111 ],1,1,1,0.326104583,0,0,0,0.377251322,0.354067052,0.081627635,0.435694687,0.272439417,nan,nan,nan,[ nan  nan  nan],nan,nan,nan,1418.957886,1626.452108,1626.778212,nan,nan
0,189,15:23:59:230000,6,1,160,112.5,[ 1.         -0.22750142  0.15829752],1,1,1,0.560307883,0,0,0,0.44878018,0.353918316,0.081435655,0.435353971,0.272482661,nan,nan,nan,[ nan  nan  nan],nan,nan,nan,1418.957886,1627.393895,1627.954203,nan,nan
0,190,15:24:00:166000,6,1,504,354.375,[ 0.78128615  0.24462829 -1.        ],1,1,1,0.338487237,0,0,0,0.408299901,0.355010324,0.082588521,0.437598845,0.272421803,nan,nan,nan,[ nan  nan  nan],nan,nan,nan,1418.957886,1628.335683,1628.67417,nan,nan
0,191,15:24:01:118000,6,1,250,175.78125,[ 0.54642845  0.23228666  0.65474773],1,1,1,0.332692053,0,0,0,0.410495724,0.35492336,0.082379572,0.437302932,0.272543788,nan,nan,nan,[ nan  nan  nan],nan,nan,nan,1418.957886,1629.277471,1629.610164,nan,nan
0,192,15:24:02:054000,6,1,52,36.5625,[ 1.         -0.04388606 -1.        ],1,1,1,0.382870981,0,0,0,0.35135009,0.354806966,0.082179298,0.436986264,0.272627668,nan,nan,nan,[ nan  nan  nan],nan,nan,nan,1418.957886,1630.219265,1630.602136,nan,nan
0,193,15:24:02:990000,6,1,258,181.40625,[ 0.45964229  0.26499291  0.65549006],1,1,1,0.393056386,0,0,0,0.369539807,0.354953133,0.081989899,0.436943032,0.272963233,nan,nan,nan,[ nan  nan  nan],nan,nan,nan,1418.957886,1631.161058,1631.554114,nan,nan
0,194,15:24:03:941000,6,1,442,310.78125,[ 0.27390726  0.42109554 -1.        ],1,1,1,0.411245056,0,0,0,0.395724141,0.355150559,0.081822958,0.436973517,0.273327601,nan,nan,nan,[ nan  nan  nan],nan,nan,nan,1418.957886,1632.102848,1632.514093,nan,nan
0,195,15:24:04:877000,6,1,511,359.296875,[ 0.83870319  0.21628417 -1.        ],1,1,1,0.493459286,0,0,0,0.432586909,0.355439706,0.081710599,0.437150305,0.273729106,nan,nan,nan,[ nan  nan  nan],nan,nan,nan,1418.957886,1633.044627,1633.538086,nan,nan
0,196,15:24:05:813000,6,1,369,259.453125,[-0.14769469  0.47799919 -0.05643387],1,1,1,0.391665963,0,0,0,0.432123435,0.356147499,0.082094892,0.43824239,0.274052607,nan,nan,nan,[ nan  nan  nan],nan,nan,nan,1418.957886,1633.986419,1634.378084,nan,nan
0,197,15:24:06:765000,6,1,418,293.90625,[ 0.10117589  0.45596175 -0.66167931],1,1,1,0.305864633,0,0,0,0.396996627,0.356328715,0.08192429,0.438253006,0.274404425,nan,nan,nan,[ nan  nan  nan],nan,nan,nan,1418.957886,1634.928194,1635.234058,nan,nan
0,198,15:24:07:701000,6,1,106,74.53125,[ 1.         -0.28763007 -0.39056445],1,1,1,0.180066074,0,0,0,0.292532224,0.356072552,0.081794754,0.437867306,0.274277798,nan,nan,nan,[ nan  nan  nan],nan,nan,nan,1418.957886,1635.869981,1636.050047,nan,nan
0,199,15:24:08:653000,6,1,183,128.671875,[ 1.         -0.113109    0.35490284],1,1,1,0.350249518,0,0,0,0.278726742,0.355183631,0.082536403,0.437720033,0.272647228,nan,nan,nan,[ nan  nan  nan],nan,nan,nan,1418.957886,1636.811788,1637.162037,nan,nan
0,200,15:24:09:589000,6,1,322,226.40625,[-0.10506723  0.43811622  0.38355935],1,1,1,0.312427585,0,0,0,0.280914392,0.355158836,0.082329503,0.437488339,0.272829333,nan,nan,nan,[ nan  nan  nan],nan,nan,nan,1418.957886,1637.753577,1638.066005,nan,nan
0,201,15:24:10:525000,6,1,221,155.390625,[ 0.85178146  0.09454116  0.58542294],1,1,1,0.322632662,0,0,0,0.328436588,0.35494518,0.08217871,0.43712389,0.272766469,nan,nan,nan,[ nan  nan  nan],nan,nan,nan,1418.957886,1638.69536,1639.017992,nan,nan
0,202,15:24:11:476000,6,1,352,247.5,[-0.17544713  0.4708516   0.11867359],1,1,1,0.300833512,0,0,0,0.311964586,0.354784421,0.082005551,0.436789972,0.27277887,nan,nan,nan,[ nan  nan  nan],nan,nan,nan,1418.957886,1639.637153,1639.937987,nan,nan
0,203,15:24:12:412000,6,1,495,348.046875,[ 0.70648511  0.27855169 -1.        ],1,1,1,0.29502721,0,0,0,0.306164461,0.354517337,0.081889907,0.436407244,0.27262743,nan,nan,nan,[ nan  nan  nan],nan,nan,nan,1418.957886,1640.578938,1640.873966,nan,nan
0,204,15:24:13:348000,6,1,199,139.921875,[ 1.         -0.02467618  0.4687863 ],1,1,1,0.289211214,0,0,0,0.295023979,0.354224283,0.081794074,0.436018357,0.272430208,nan,nan,nan,[ nan  nan  nan],nan,nan,nan,1418.957886,1641.520727,1641.809939,nan,nan
0,205,15:24:14:300000,6,0,28,19.6875,[ 1.          0.08206613 -1.        ],0,0,1,0.411420392,0,0,0,0.331886272,0.353905591,0.081719598,0.435625189,0.272185993,nan,nan,nan,[ nan  nan  nan],nan,nan,nan,1418.957886,1642.462515,1642.873935,nan,nan
0,206,15:24:15:236000,6,1,387,272.109375,[-0.07872193  0.47723176 -0.25697445],1,1,1,0.285606437,0,0,0,0.328746014,0.354186151,0.081618468,0.435804619,0.272567683,nan,nan,nan,[ nan  nan  nan],nan,nan,nan,1418.957886,1643.404303,1643.689909,nan,nan
0,207,15:24:16:187000,6,1,337,236.953125,[-0.16064337  0.45785839  0.25930356],1,1,1,0.415801205,0,0,0,0.370942678,0.35385324,0.081559528,0.435412768,0.272293712,nan,nan,nan,[ nan  nan  nan],nan,nan,nan,1418.957886,1644.346095,1644.761896,nan,nan
0,208,15:24:17:123000,6,1,117,82.265625,[ 1.         -0.30758797 -0.27188654],1,1,1,0.401990211,0,0,0,0.367799284,0.354152505,0.081475585,0.43562809,0.272676921,nan,nan,nan,[ nan  nan  nan],nan,nan,nan,1418.957886,1645.287885,1645.689875,nan,nan
0,209,15:24:18:059000,6,1,85,59.765625,[ 1.         -0.21215645 -0.63878123],1,1,1,0.300180923,0,0,0,0.372657446,0.354382494,0.081346822,0.435729316,0.273035673,nan,nan,nan,[ nan  nan  nan],nan,nan,nan,1418.957886,1646.229669,1646.52985,nan,nan
0,210,15:24:19:011000,6,0,426,299.53125,[ 0.15619305  0.44621085 -0.8148597 ],0,0,1,0.438378957,0,0,0,0.380183364,0.354123157,0.081238125,0.435361282,0.272885032,nan,nan,nan,[ nan  nan  nan],nan,nan,nan,1418.957886,1647.171468,1647.609847,nan,nan
0,211,15:24:19:947000,6,1,7,4.921875,[ 0.90309146  0.18185306 -1.        ],1,1,1,0.296593822,0,0,0,0.345051234,0.354524375,0.08125177,0.435776144,0.273272605,nan,nan,nan,[ nan  nan  nan],nan,nan,nan,1418.957886,1648.113242,1648.409836,nan,nan
0,212,15:24:20:883000,6,1,468,329.0625,[ 0.48123648  0.36313162 -1.        ],1,1,1,0.450770733,0,0,0,0.395247837,0.354249822,0.081156585,0.435406407,0.273093238,nan,nan,nan,[ nan  nan  nan],nan,nan,nan,1418.957886,1649.055035,1649.505806,nan,nan
0,213,15:24:21:835000,6,1,137,96.328125,[ 1.         -0.30019022 -0.06473166],1,1,1,0.548992635,0,0,0,0.432119064,0.35470511,0.081234604,0.435939714,0.273470506,nan,nan,nan,[ nan  nan  nan],nan,nan,nan,1418.957886,1649.996786,1650.545779,nan,nan
0,214,15:24:22:771000,6,1,11,7.734375,[ 0.9346595  0.1638529 -1.       ],1,1,1,0.431163416,0,0,1,0.476975595,0.355617258,0.0821247,0.437741958,0.273492558,nan,nan,nan,[ nan  nan  nan],nan,nan,nan,1418.957886,1650.93861,1651.369773,nan,nan
0,215,15:24:27:809000,6,1,424,298.125,[ 0.14217456  0.44881957 -0.77022942],1,1,1,0.297341349,1,0,0,0.425832467,0.355970277,0.082094426,0.438064703,0.273875851,nan,143.4628911,436,[ 0.22868171  0.43141373 -1.        ],nan,8.412108864,2.042203601,1418.957886,1651.880403,1652.177744,1653.713934,1655.764194
0,216,15:24:28:745000,6,1,229,161.015625,[ 0.77039703  0.13526594  0.61468147],1,1,1,0.33530412,0,0,0,0.354602961,0.355697585,0.082000375,0.43769796,0.273697209,nan,nan,nan,[ nan  nan  nan],nan,nan,nan,1418.957886,1656.914383,1657.249687,nan,nan
0,217,15:24:29:697000,6,0,94,66.09375,[ 1.         -0.24943901 -0.52674516],0,0,1,0.52150949,0,0,0,0.38471832,0.35560317,0.081822052,0.437425222,0.273781118,nan,nan,nan,[ nan  nan  nan],nan,nan,nan,1418.957886,1657.856138,1658.377647,nan,nan
0,218,15:24:30:633000,6,1,483,339.609375,[ 0.60602571  0.31931445 -1.        ],1,1,1,0.467672473,0,0,0,0.441495361,0.356367716,0.082403002,0.438770717,0.273964714,nan,nan,nan,[ nan  nan  nan],nan,nan,nan,1418.957886,1658.797957,1659.26563,nan,nan
0,219,15:24:31:569000,6,1,322,226.40625,[-0.10506723  0.43811622  0.38355935],1,1,1,0.469852331,0,0,0,0.486344765,0.356878288,0.082557103,0.43943539,0.274321185,nan,nan,nan,[ nan  nan  nan],nan,nan,nan,1418.957886,1659.739754,1660.209607,nan,nan
0,220,15:24:32:521000,6,1,376,264.375,[-0.12496282  0.47870467 -0.13262763],1,1,1,0.384122275,0,0,1,0.440549026,0.357394151,0.082719807,0.440113958,0.274674344,nan,nan,nan,[ nan  nan  nan],nan,nan,nan,1418.957886,1660.68154,1661.065663,nan,nan
0,221,15:24:37:076000,6,1,220,154.6875,[ 0.86173155  0.08932726  0.58124768],1,1,1,0.330261024,1,0,0,0.39474521,0.357515643,0.082551174,0.440066817,0.274964469,nan,-75.04991362,235,[ 0.70759192  0.16453778  0.63165963],nan,10.36241362,1.575491908,1418.957886,1661.623328,1661.953589,1663.448527,1665.032057
0,222,15:24:38:012000,6,1,14,9.84375,[ 0.95801505  0.15002356 -1.        ],1,1,1,0.347260267,0,0,0,0.353881189,0.357392318,0.082384504,0.439776823,0.275007814,nan,nan,nan,[ nan  nan  nan],nan,nan,nan,1418.957886,1666.18226,1666.529521,nan,nan
0,223,15:24:38:963000,6,1,210,147.65625,[ 0.9580225   0.0359305   0.53342186],1,1,1,0.309444892,0,0,0,0.328988728,0.357346679,0.082201544,0.439548223,0.275145134,nan,nan,nan,[ nan  nan  nan],nan,nan,nan,1418.957886,1667.124057,1667.433502,nan,nan
0,224,15:24:39:899000,6,1,166,116.71875,[ 1.         -0.20036215  0.21267421],1,1,1,0.471646736,0,0,0,0.376117298,0.357131872,0.082079452,0.439211325,0.27505242,nan,nan,nan,[ nan  nan  nan],nan,nan,nan,1418.957886,1668.065829,1668.537476,nan,nan
0,225,15:24:40:835000,6,1,473,332.578125,[ 0.52259481  0.34939617 -1.        ],1,1,1,0.337822959,0,0,0,0.372971529,0.357643099,0.082251092,0.439894192,0.275392007,nan,nan,nan,[ nan  nan  nan],nan,nan,nan,1418.957886,1669.007625,1669.345448,nan,nan
0,226,15:24:41:787000,6,1,166,116.71875,[ 1.         -0.20036215  0.21267421],1,1,1,0.292034823,0,0,0,0.367168173,0.35755501,0.082078698,0.439633708,0.275476312,nan,nan,nan,[ nan  nan  nan],nan,nan,nan,1418.957886,1669.949401,1670.241436,nan,nan
0,227,15:24:42:723000,6,1,388,272.8125,[-0.07396337  0.47694192 -0.26857716],1,1,1,0.18223966,0,1,0,0.270699147,0.357265098,0.082012282,0.439277379,0.275252816,nan,nan,nan,[ nan  nan  nan],nan,nan,nan,1418.957886,1670.891194,1671.073434,nan,nan
0,228,15:24:47:013000,6,1,278,195.46875,[ 0.24828552  0.33580281  0.62196257],1,1,1,0.088425941,1,0,0,0.187566808,0.35649406,0.082648297,0.439142357,0.273845764,nan,-108.4349488,282,[ 0.20814231  0.34807905  0.6092955 ],nan,2.966198823,1.292125199,1418.957886,1671.832986,1671.921412,1673.666491,1674.966662
0,229,15:24:47:949000,6,1,116,81.5625,[ 1.         -0.30644692 -0.28251544],1,1,1,0.380503528,0,0,0,0.217056376,0.355318323,0.084347951,0.439666274,0.270970372,nan,nan,nan,[ nan  nan  nan],nan,nan,nan,1418.957886,1676.116837,1676.49734,nan,nan
0,230,15:24:48:901000,6,1,188,132.1875,[ 1.         -0.08573935  0.39280429],1,1,1,0.286644478,0,0,0,0.251857983,0.355428302,0.084179966,0.439608268,0.271248337,nan,nan,nan,[ nan  nan  nan],nan,nan,nan,1418.957886,1677.058665,1677.345309,nan,nan
0,231,15:24:49:837000,6,1,31,21.796875,[ 1.          0.06685157 -1.        ],1,1,1,0.18484802,0,0,0,0.283998676,0.355129242,0.084118594,0.439247836,0.271010648,nan,nan,nan,[ nan  nan  nan],nan,nan,nan,1418.957886,1678.000449,1678.185297,nan,nan
0,232,15:24:50:773000,6,1,140,98.4375,[ 1.         -0.29420925 -0.03457774],1,1,1,0.18704869,0,1,0,0.21951373,0.354392094,0.084677536,0.43906963,0.269714558,nan,nan,nan,[ nan  nan  nan],nan,nan,nan,1418.957886,1678.942237,1679.129286,nan,nan
0,233,15:24:55:718000,6,1,497,349.453125,[ 0.72317494  0.2712606  -1.        ],1,1,1,0.229235185,1,0,0,0.200377298,0.353670786,0.085203078,0.438873864,0.268467708,nan,129.9158966,455,[ 0.37560825  0.39487537 -1.        ],nan,-29.36902159,1.950519847,1418.957886,1679.88403,1680.113265,1681.717562,1683.67613
0,234,15:24:56:654000,6,1,337,236.953125,[-0.16064337  0.45785839  0.25930356],1,1,1,0.414860097,0,0,0,0.277047991,0.353136728,0.085408303,0.438545031,0.267728424,nan,nan,nan,[ nan  nan  nan],nan,nan,nan,1418.957886,1684.826332,1685.241192,nan,nan
0,235,15:24:57:605000,6,1,16,11.25,[ 0.97341943  0.14065211 -1.        ],1,1,1,0.385038009,0,0,0,0.34304443,0.353400503,0.085320668,0.438721171,0.268079835,nan,nan,nan,[ nan  nan  nan],nan,nan,nan,1418.957886,1685.768122,1686.15316,nan,nan
0,236,15:24:58:541000,6,1,132,92.8125,[ 1.         -0.30742683 -0.11555536],1,1,1,0.371233573,0,0,0,0.390377226,0.353535131,0.085163845,0.438698975,0.268371286,nan,nan,nan,[ nan  nan  nan],nan,nan,nan,1418.957886,1686.709904,1687.081138,nan,nan
0,237,15:24:59:493000,6,0,248,174.375,[ 0.5681159   0.2237282   0.65329577],0,0,1,0.557454909,0,0,0,0.43790883,0.353610124,0.084990997,0.438601121,0.268619127,nan,nan,nan,[ nan  nan  nan],nan,nan,nan,1418.957886,1687.651702,1688.209157,nan,nan
0,238,15:25:00:429000,6,1,171,120.234375,[ 1.         -0.17601187  0.25645091],1,1,1,0.343614721,0,0,0,0.424101068,0.354470228,0.085834602,0.44030483,0.268635627,nan,nan,nan,[ nan  nan  nan],nan,nan,nan,1418.957886,1688.593486,1688.937101,nan,nan
0,239,15:25:01:365000,6,1,323,227.109375,[-0.11001989  0.43965345  0.37585536],1,1,1,0.297806628,0,0,0,0.399625419,0.354424617,0.085656965,0.440081582,0.268767652,nan,nan,nan,[ nan  nan  nan],nan,nan,nan,1418.957886,1689.535272,1689.833079,nan,nan
0,240,15:25:02:317000,6,1,258,181.40625,[ 0.45964229  0.26499291  0.65549006],1,1,1,0.332005823,0,0,0,0.324475724,0.354187722,0.085555671,0.439743393,0.268632051,nan,nan,nan,[ nan  nan  nan],nan,nan,nan,1418.957886,1690.477066,1690.809072,nan,nan
0,241,15:25:03:253000,6,1,167,117.421875,[ 1.         -0.19560581  0.22154672],1,1,1,0.350212455,0,0,0,0.326674969,0.354095297,0.0853892,0.439484497,0.268706098,nan,nan,nan,[ nan  nan  nan],nan,nan,nan,1418.957886,1691.418852,1691.769064,nan,nan
0,242,15:25:04:189000,6,1,286,201.09375,[ 0.16907896  0.35973478  0.59469871],1,1,1,0.360394153,0,0,0,0.347537477,0.354079186,0.085212225,0.439291411,0.268866961,nan,nan,nan,[ nan  nan  nan],nan,nan,nan,1418.957886,1692.360648,1692.721042,nan,nan
0,243,15:25:05:140000,6,1,186,130.78125,[ 1.         -0.09673867  0.37788139],1,1,1,0.354585285,0,0,0,0.355063965,0.354105281,0.085036949,0.43914223,0.269068331,nan,nan,nan,[ nan  nan  nan],nan,nan,nan,1418.957886,1693.302437,1693.657022,nan,nan
0,244,15:25:06:076000,6,0,45,31.640625,[ 1.         -0.00639576 -1.        ],0,0,1,0.444783109,0,0,0,0.386587516,0.354107256,0.084861801,0.438969057,0.269245455,nan,nan,nan,[ nan  nan  nan],nan,nan,nan,1418.957886,1694.244219,1694.689002,nan,nan
0,245,15:25:07:028000,6,1,341,239.765625,[-0.16853588  0.4619615   0.22326011],1,1,1,0.302966614,0,0,0,0.367445003,0.354478878,0.084885629,0.439364507,0.26959325,nan,nan,nan,[ nan  nan  nan],nan,nan,nan,1418.957886,1695.186015,1695.488981,nan,nan
0,246,15:25:07:964000,6,1,40,28.125,[ 1.          0.02011655 -1.        ],1,1,1,0.281160337,0,0,0,0.34297002,0.354268624,0.084775857,0.439044481,0.269492767,nan,nan,nan,[ nan  nan  nan],nan,nan,nan,1418.957886,1696.127802,1696.408962,nan,nan
0,247,15:25:08:900000,6,0,267,187.734375,[ 0.36292453  0.29880723  0.64662252],0,0,1,0.411368789,0,0,0,0.331831913,0.353971436,0.084731159,0.438702595,0.269240277,nan,nan,nan,[ nan  nan  nan],nan,nan,nan,1418.957886,1697.069589,1697.480957,nan,nan
0,248,15:25:09:851000,6,1,2,1.40625,[ 0.86302458  0.20362286 -1.        ],1,1,1,0.277565253,0,0,0,0.323364793,0.354203814,0.084637976,0.43884179,0.269565838,nan,nan,nan,[ nan  nan  nan],nan,nan,nan,1418.957886,1698.011375,1698.28894,nan,nan
0,249,15:25:10:787000,6,1,262,184.21875,[ 0.41645248  0.28041442  0.65281554],1,1,1,0.311766728,0,0,0,0.333566923,0.353894788,0.084606674,0.438501462,0.269288113,nan,nan,nan,[ nan  nan  nan],nan,nan,nan,1418.957886,1698.953164,1699.264931,nan,nan
0,250,15:25:11:723000,6,1,385,270.703125,[-0.08797966  0.47773344 -0.23392672],1,1,1,0.329958535,0,0,0,0.306430172,0.353725599,0.084478637,0.438204236,0.269246961,nan,nan,nan,[ nan  nan  nan],nan,nan,nan,1418.957886,1699.894951,1700.22491,nan,nan
0,251,15:25:12:675000,6,0,63,44.296875,[ 1.         -0.10274464 -1.        ],0,0,1,0.420147236,0,0,0,0.3539575,0.35363053,0.084322856,0.437953386,0.269307674,nan,nan,nan,[ nan  nan  nan],nan,nan,nan,1418.957886,1700.836741,1701.256888,nan,nan
0,252,15:25:13:611000,6,1,124,87.1875,[ 1.         -0.31157719 -0.19822652],1,1,1,0.230347352,0,0,0,0.326817708,0.353895537,0.084258965,0.438154502,0.269636572,nan,nan,nan,[ nan  nan  nan],nan,nan,nan,1418.957886,1701.778528,1702.008876,nan,nan
0,253,15:25:14:563000,6,1,223,156.796875,[ 0.83172397  0.10489059  0.59343224],1,1,1,0.272535272,0,0,0,0.30767662,0.353405267,0.084449582,0.437854849,0.268955685,nan,nan,nan,[ nan  nan  nan],nan,nan,nan,1418.957886,1702.720329,1702.992864,nan,nan
0,254,15:25:15:499000,6,1,458,322.03125,[ 0.39968805  0.38805021 -1.        ],1,1,1,0.306735322,0,0,0,0.269872649,0.353085622,0.084435127,0.437520749,0.268650495,nan,nan,nan,[ nan  nan  nan],nan,nan,nan,1418.957886,1703.662105,1703.968841,nan,nan
0,255,15:25:16:435000,6,1,262,184.21875,[ 0.41645248  0.28041442  0.65281554],1,1,1,0.284936172,0,0,0,0.288068922,0.352903141,0.084318725,0.437221866,0.268584416,nan,nan,nan,[ nan  nan  nan],nan,nan,nan,1418.957886,1704.603893,1704.888829,nan,nan
0,256,15:25:17:386000,6,1,160,112.5,[ 1.         -0.22750142  0.15829752],1,1,1,0.175128465,0,1,0,0.255599986,0.352636604,0.084260377,0.43689698,0.268376227,nan,nan,nan,[ nan  nan  nan],nan,nan,nan,1418.957886,1705.545681,1705.720809,nan,nan
0,257,15:25:22:222000,6,1,268,188.4375,[ 0.35230222  0.30236752  0.64500531],1,1,1,0.217317241,1,0,0,0.225793959,0.351943213,0.084821455,0.436764668,0.267121757,nan,-89.1449026,255,[ 0.49215936  0.25301719  0.65616311],nan,-9.292597396,1.833869792,1418.957886,1706.487474,1706.704791,1708.312651,1710.154558
0,258,15:25:23:158000,6,1,109,76.640625,[ 1.         -0.29463833 -0.3577737 ],1,1,1,0.3752774,0,0,0,0.255907702,0.351419376,0.085070159,0.436489535,0.266349217,nan,nan,nan,[ nan  nan  nan],nan,nan,nan,1418.957886,1711.321432,1711.69671,nan,nan
0,259,15:25:24:094000,6,1,263,184.921875,[ 0.4056988   0.28417174  0.65182989],1,1,1,0.305506836,0,0,0,0.299367159,0.351511849,0.084918075,0.436429924,0.266593774,nan,nan,nan,[ nan  nan  nan],nan,nan,nan,1418.957886,1712.263183,1712.56869,nan,nan
0,260,15:25:25:046000,6,1,334,234.84375,[-0.15279655  0.45446705  0.2855764 ],1,1,1,0.339666401,0,0,0,0.340150212,0.351334223,0.084801991,0.436136214,0.266532233,nan,nan,nan,[ nan  nan  nan],nan,nan,nan,1418.957886,1713.205005,1713.544672,nan,nan
0,261,15:25:25:982000,6,1,73,51.328125,[ 1.         -0.15467886 -0.83091687],1,1,1,0.27789169,0,0,0,0.307688309,0.351289347,0.084641834,0.435931181,0.266647513,nan,nan,nan,[ nan  nan  nan],nan,nan,nan,1418.957886,1714.146764,1714.424656,nan,nan
0,262,15:25:26:918000,6,0,274,192.65625,[ 0.28934405  0.32290089  0.63267027],0,1,0,0.176063016,0,0,0,0.264540369,0.35100813,0.084601138,0.435609268,0.266406993,nan,nan,nan,[ nan  nan  nan],nan,nan,nan,1418.957886,1715.088581,1715.264644,nan,nan
0,263,15:25:27:870000,6,1,66,46.40625,[ 1.         -0.11856871 -1.        ],1,1,1,0.362243298,0,0,0,0.272066001,0.350340401,0.085125816,0.435466216,0.265214585,nan,nan,nan,[ nan  nan  nan],nan,nan,nan,1418.957886,1716.030377,1716.392621,nan,nan
0,264,15:25:28:806000,6,1,469,329.765625,[ 0.4894822   0.36045336 -1.        ],1,1,1,0.316437771,0,0,0,0.284914695,0.350385659,0.084966983,0.435352642,0.265418676,nan,nan,nan,[ nan  nan  nan],nan,nan,nan,1418.957886,1716.972167,1717.288605,nan,nan
0,265,15:25:29:742000,6,1,52,36.5625,[ 1.         -0.04388606 -1.        ],1,1,1,0.310630614,0,0,0,0.329770561,0.350257068,0.084831544,0.435088613,0.265425524,nan,nan,nan,[ nan  nan  nan],nan,nan,nan,1418.957886,1717.913952,1718.224583,nan,nan
0,266,15:25:30:693000,6,1,283,198.984375,[ 0.19826868  0.35105092  0.60582595],1,1,1,0.312835845,0,0,0,0.31330141,0.350107535,0.084706186,0.43481372,0.265401349,nan,nan,nan,[ nan  nan  nan],nan,nan,nan,1418.957886,1718.855741,1719.168576,nan,nan
0,267,15:25:31:629000,6,1,53,37.265625,[ 1.         -0.04925756 -1.        ],1,1,1,0.347045588,0,0,0,0.323504016,0.349967415,0.084577577,0.434544992,0.265389839,nan,nan,nan,[ nan  nan  nan],nan,nan,nan,1418.957886,1719.797517,1720.144563,nan,nan
0,268,15:25:32:581000,6,1,277,194.765625,[ 0.25847065  0.33263616  0.62482424],1,1,1,0.301211267,0,0,0,0.320364233,0.349956472,0.084419232,0.434375704,0.26553724,nan,nan,nan,[ nan  nan  nan],nan,nan,nan,1418.957886,1720.739329,1721.040541,nan,nan
0,269,15:25:33:517000,6,1,172,120.9375,[ 1.         -0.17098406  0.26502468],1,1,1,0.311431168,0,0,0,0.319896008,0.349774587,0.084313984,0.434088571,0.265460603,nan,nan,nan,[ nan  nan  nan],nan,nan,nan,1418.957886,1721.681108,1721.992539,nan,nan
0,270,15:25:34:453000,6,1,403,283.359375,[ 0.00657627  0.46945644 -0.45052451],1,1,1,0.273624061,0,0,0,0.295422165,0.349632047,0.084189465,0.433821512,0.265442581,nan,nan,nan,[ nan  nan  nan],nan,nan,nan,1418.957886,1722.622888,1722.896512,nan,nan
0,271,15:25:35:404000,6,1,301,211.640625,[ 0.03515994  0.39804276  0.52341451],1,1,1,0.347792259,0,0,0,0.310949163,0.349350536,0.08416016,0.433510696,0.265190375,nan,nan,nan,[ nan  nan  nan],nan,nan,nan,1418.957886,1723.564686,1723.912479,nan,nan
0,272,15:25:36:356000,6,1,172,120.9375,[ 1.         -0.17098406  0.26502468],1,1,1,0.333998657,0,0,0,0.318471659,0.349344785,0.084004793,0.433349578,0.265339993,nan,nan,nan,[ nan  nan  nan],nan,nan,nan,1418.957886,1724.506467,1724.840466,nan,nan
0,273,15:25:37:308000,6,1,392,275.625,[-0.05410679  0.47552228 -0.31554984],1,1,1,0.311521259,0,0,0,0.331104058,0.349288366,0.083855374,0.43314374,0.265432992,nan,nan,nan,[ nan  nan  nan],nan,nan,nan,1418.957886,1725.464935,1725.776457,nan,nan
0,274,15:25:38:244000,6,1,45,31.640625,[ 1.         -0.00639576 -1.        ],1,1,1,0.3457253,0,0,0,0.330415072,0.349150025,0.083732742,0.432882767,0.265417283,nan,nan,nan,[ nan  nan  nan],nan,nan,nan,1418.957886,1726.406715,1726.75244,nan,nan
0,275,15:25:39:180000,6,1,282,198.28125,[ 0.20814231  0.34807905  0.6092955 ],1,1,1,0.459922659,0,0,0,0.372389739,0.349137526,0.083580061,0.432717586,0.265557465,nan,nan,nan,[ nan  nan  nan],nan,nan,nan,1418.957886,1727.348505,1727.808428,nan,nan
0,276,15:25:40:131000,6,1,450,316.40625,[ 0.33594973  0.40559833 -1.        ],1,1,1,0.438107258,0,0,0,0.414585072,0.349540381,0.08369404,0.433234421,0.265846341,nan,nan,nan,[ nan  nan  nan],nan,nan,nan,1418.957886,1728.290296,1728.728403,nan,nan
0,277,15:25:41:067000,6,1,306,215.15625,[-0.00395437  0.40897401  0.49412883],1,1,1,0.336303387,0,0,0,0.411444435,0.349861275,0.083711592,0.433572867,0.266149683,nan,nan,nan,[ nan  nan  nan],nan,nan,nan,1418.957886,1729.232083,1729.568387,nan,nan
0,278,15:25:42:003000,6,0,410,288.28125,[ 0.04920468  0.46392153 -0.54316189],0,0,1,0.458471511,0,0,0,0.410960719,0.34981233,0.083564308,0.433376638,0.266248022,nan,nan,nan,[ nan  nan  nan],nan,nan,nan,1418.957886,1730.173892,1730.632364,nan,nan
0,279,15:25:42:955000,6,1,92,64.6875,[ 1.         -0.24170366 -0.55060884],1,1,1,0.396676273,0,0,0,0.39715039,0.35020319,0.083667154,0.433870344,0.266536036,nan,nan,nan,[ nan  nan  nan],nan,nan,nan,1418.957886,1731.115671,1731.512347,nan,nan
0,280,15:25:43:891000,6,1,224,157.5,[ 0.82161942  0.11002479  0.59726488],1,1,1,0.454902656,0,0,0,0.43668348,0.35036976,0.083563243,0.433933004,0.266806517,nan,nan,nan,[ nan  nan  nan],nan,nan,nan,1418.957886,1732.057455,1732.512358,nan,nan
0,281,15:25:44:842000,6,1,106,74.53125,[ 1.         -0.28763007 -0.39056445],1,1,1,0.369078803,0,0,0,0.406885911,0.350743092,0.083646656,0.434389748,0.267096436,nan,nan,nan,[ nan  nan  nan],nan,nan,nan,1418.957886,1732.999248,1733.368326,nan,nan
0,282,15:25:45:778000,6,1,348,244.6875,[-0.17538477  0.46801784  0.15758216],1,1,1,0.379265634,0,0,0,0.401082364,0.350808344,0.083504825,0.434313169,0.267303519,nan,nan,nan,[ nan  nan  nan],nan,nan,nan,1418.957886,1733.941026,1734.320292,nan,nan
0,283,15:25:46:714000,6,1,435,305.859375,[ 0.22126383  0.43302706 -1.        ],1,1,1,0.357459927,0,0,0,0.368601455,0.350909256,0.083373797,0.434283054,0.267535459,nan,nan,nan,[ nan  nan  nan],nan,nan,nan,1418.957886,1734.882818,1735.240278,nan,nan
0,284,15:25:47:666000,6,1,193,135.703125,[ 1.         -0.05804539  0.42865879],1,1,1,0.351667024,0,0,0,0.362797528,0.350932403,0.083227271,0.434159675,0.267705132,nan,nan,nan,[ nan  nan  nan],nan,nan,nan,1418.957886,1735.824606,1736.176273,nan,nan
0,285,15:25:48:602000,6,1,129,90.703125,[ 1.         -0.31007049 -0.146368  ],1,1,1,0.481838413,0,0,0,0.396988455,0.35093499,0.083080627,0.434015617,0.267854364,nan,nan,nan,[ nan  nan  nan],nan,nan,nan,1418.957886,1736.766395,1737.248234,nan,nan
0,286,15:25:49:538000,6,1,84,59.0625,[ 1.         -0.20765784 -0.65219109],1,1,1,0.324062427,0,0,0,0.385855955,0.3513943,0.083295173,0.434689474,0.268099127,nan,nan,nan,[ nan  nan  nan],nan,nan,nan,1418.957886,1737.708174,1738.032236,nan,nan
0,287,15:25:50:490000,6,1,472,331.875,[ 0.51429865  0.35221228 -1.        ],1,1,1,0.29424205,0,0,0,0.366714297,0.351298734,0.083165075,0.43446381,0.268133659,nan,nan,nan,[ nan  nan  nan],nan,nan,nan,1418.957886,1738.649977,1738.944219,nan,nan
0,288,15:25:51:426000,6,1,366,257.34375,[-0.15559338  0.47730203 -0.02447665],1,1,1,0.328451508,0,0,0,0.315585329,0.351099931,0.083088111,0.434188042,0.268011819,nan,nan,nan,[ nan  nan  nan],nan,nan,nan,1418.957886,1739.591757,1739.920209,nan,nan
0,289,15:25:52:362000,6,1,58,40.78125,[ 1.         -0.07608966 -1.        ],1,1,1,0.258635613,0,0,0,0.293776391,0.35102129,0.082954434,0.433975725,0.268066856,nan,nan,nan,[ nan  nan  nan],nan,nan,nan,1418.957886,1740.533559,1740.792194,nan,nan
0,290,15:25:53:313000,6,1,212,149.0625,[ 0.93926289  0.04677313  0.543851  ],1,1,1,0.364842535,0,0,0,0.317309885,0.350701617,0.082988301,0.433689917,0.267713316,nan,nan,nan,[ nan  nan  nan],nan,nan,nan,1418.957886,1741.475337,1741.840179,nan,nan
0,291,15:25:54:249000,6,1,321,225.703125,[-0.09994335  0.43654647  0.39117498],1,1,1,0.311030606,0,0,0,0.311502918,0.350750378,0.082849241,0.433599619,0.267901137,nan,nan,nan,[ nan  nan  nan],nan,nan,nan,1418.957886,1742.417127,1742.728158,nan,nan
0,292,15:25:55:201000,6,1,241,169.453125,[ 0.64365311  0.19260594  0.64425478],1,1,1,0.289226324,0,0,0,0.321699822,0.350613884,0.082739422,0.433353307,0.267874462,nan,nan,nan,[ nan  nan  nan],nan,nan,nan,1418.957886,1743.358916,1743.648142,nan,nan
0,293,15:25:56:137000,6,1,33,23.203125,[ 1.          0.05659903 -1.        ],1,1,1,0.531420346,0,0,0,0.377225759,0.350403653,0.082675443,0.433079096,0.26772821,nan,nan,nan,[ nan  nan  nan],nan,nan,nan,1418.957886,1744.300703,1744.832123,nan,nan
0,294,15:25:57:073000,6,0,281,197.578125,[ 0.2180834   0.34506839  0.61264442],0,0,1,0.445660355,0,0,0,0.422102342,0.351021457,0.08320668,0.434228138,0.267814777,nan,nan,nan,[ nan  nan  nan],nan,nan,nan,1418.957886,1745.242453,1745.688113,nan,nan
0,295,15:25:58:024000,6,1,74,52.03125,[ 1.         -0.15971516 -0.81044328],1,1,1,0.311786115,0,0,0,0.429622272,0.351343358,0.083247604,0.434590962,0.268095754,nan,nan,nan,[ nan  nan  nan],nan,nan,nan,1418.957886,1746.184286,1746.496072,nan,nan
0,296,15:25:58:960000,6,1,343,241.171875,[-0.17138818  0.46383642  0.20482281],1,1,1,0.305993212,0,0,0,0.354479894,0.351209266,0.083138185,0.434347451,0.268071081,nan,nan,nan,[ nan  nan  nan],nan,nan,nan,1418.957886,1747.126069,1747.432062,nan,nan
0,297,15:25:59:896000,6,1,39,27.421875,[ 1.          0.02537899 -1.        ],1,1,1,0.276153734,0,0,0,0.297977687,0.351056509,0.083039089,0.434095598,0.26801742,nan,nan,nan,[ nan  nan  nan],nan,nan,nan,1418.957886,1748.067903,1748.344057,nan,nan
0,298,15:26:00:848000,6,1,481,338.203125,[ 0.58928949  0.32561186 -1.        ],1,1,1,0.318389836,0,0,0,0.300178927,0.350804311,0.083012649,0.43381696,0.267791662,nan,nan,nan,[ nan  nan  nan],nan,nan,nan,1418.957886,1749.009644,1749.328034,nan,nan
0,299,15:26:01:784000,6,1,397,279.140625,[-0.02756135  0.47315999 -0.37569455],1,1,1,0.288592552,0,0,0,0.294378707,0.350695538,0.082894448,0.433589985,0.26780109,nan,nan,nan,[ nan  nan  nan],nan,nan,nan,1418.957886,1749.951432,1750.240025,nan,nan
0,300,15:26:02:736000,6,1,245,172.265625,[ 0.6005777   0.21061011  0.65017283],1,1,1,0.24277106,0,0,0,0.283251149,0.350487836,0.082833349,0.433321184,0.267654487,nan,nan,nan,[ nan  nan  nan],nan,nan,nan,1418.957886,1750.893224,1751.135995,nan,nan
0,301,15:26:03:672000,6,1,83,58.359375,[ 1.         -0.20309788 -0.66587671],1,1,1,0.260981113,0,1,0,0.264114908,0.35012878,0.08292792,0.433056699,0.26720086,nan,nan,nan,[ nan  nan  nan],nan,nan,nan,1418.957886,1751.835012,1752.095993,nan,nan
0,302,15:26:08:133000,6,1,250,175.78125,[ 0.54642845  0.23228666  0.65474773],1,1,1,0.303167893,1,0,0,0.268973355,0.349832608,0.082948827,0.432781435,0.266883781,nan,-74.81799369,234,[ 0.71814775  0.15974031  0.6291316 ],nan,-10.96325631,1.475497838,1418.957886,1752.776803,1753.079971,1754.601976,1756.085504
0,303,15:26:09:069000,6,0,365,256.640625,[-0.15796203  0.47701659 -0.01391969],0,0,1,0.460113674,0,0,0,0.341420893,0.349678089,0.082854761,0.43253285,0.266823328,nan,nan,nan,[ nan  nan  nan],nan,nan,nan,1418.957886,1757.235784,1757.695898,nan,nan
0,304,15:26:10:021000,6,1,195,137.109375,[ 1.         -0.04692453  0.44239605],1,1,1,0.350385224,0,0,0,0.371222264,0.350042563,0.082960069,0.433002632,0.267082494,nan,nan,nan,[ nan  nan  nan],nan,nan,nan,1418.957886,1758.177488,1758.527873,nan,nan
0,305,15:26:10:957000,6,1,369,259.453125,[-0.14769469  0.47799919 -0.05643387],1,1,1,0.368565342,0,0,0,0.393021413,0.35004369,0.082823511,0.432867201,0.267220179,nan,nan,nan,[ nan  nan  nan],nan,nan,nan,1418.957886,1759.119286,1759.487851,nan,nan
0,306,15:26:11:893000,6,1,89,62.578125,[ 1.         -0.2294841  -0.58737049],1,1,1,0.410770369,0,0,0,0.376573645,0.350104417,0.082694402,0.432798819,0.267410015,nan,nan,nan,[ nan  nan  nan],nan,nan,nan,1418.957886,1760.061075,1760.471845,nan,nan
0,307,15:26:12:844000,6,0,250,175.78125,[ 0.54642845  0.23228666  0.65474773],0,1,0,0.300950687,0,0,0,0.360095466,0.350302672,0.082631741,0.432934412,0.267670931,nan,nan,nan,[ nan  nan  nan],nan,nan,nan,1418.957886,1761.002869,1761.30382,nan,nan
0,308,15:26:13:780000,6,1,314,220.78125,[-0.05944389  0.42463231  0.44192541],1,1,1,0.359155403,0,0,0,0.35695882,0.350141916,0.082544965,0.432686881,0.267596951,nan,nan,nan,[ nan  nan  nan],nan,nan,nan,1418.957886,1761.944655,1762.30381,nan,nan
0,309,15:26:14:716000,6,1,372,261.5625,[-0.13866002  0.47845887 -0.08881238],1,1,1,0.273320147,0,0,0,0.311142079,0.350171181,0.08241245,0.43258363,0.267758731,nan,nan,nan,[ nan  nan  nan],nan,nan,nan,1418.957886,1762.886467,1763.159787,nan,nan
0,310,15:26:15:668000,6,1,314,220.78125,[-0.05944389  0.42463231  0.44192541],1,1,1,0.259546786,0,0,0,0.297340779,0.349922472,0.082394682,0.432317153,0.26752779,nan,nan,nan,[ nan  nan  nan],nan,nan,nan,1418.957886,1763.828231,1764.087778,nan,nan
0,311,15:26:16:604000,6,1,177,124.453125,[ 1.         -0.14519215  0.30692121],1,1,1,0.373733595,0,0,0,0.302200176,0.349630937,0.082421154,0.432052091,0.267209783,nan,nan,nan,[ nan  nan  nan],nan,nan,nan,1418.957886,1764.770039,1765.143772,nan,nan
0,312,15:26:17:556000,6,1,332,233.4375,[-0.14664709  0.45205424  0.30271419],1,1,1,0.311925528,0,0,0,0.315068636,0.349708438,0.08229985,0.432008288,0.267408588,nan,nan,nan,[ nan  nan  nan],nan,nan,nan,1418.957886,1765.711812,1766.023737,nan,nan
0,313,15:26:18:492000,6,0,166,116.71875,[ 1.         -0.20036215  0.21267421],0,0,1,0.522122451,0,0,0,0.402593858,0.349587339,0.082195602,0.43178294,0.267391737,nan,nan,nan,[ nan  nan  nan],nan,nan,nan,1418.957886,1766.653602,1767.175724,nan,nan
0,314,15:26:19:428000,6,1,477,335.390625,[ 0.55587987  0.33778403 -1.        ],1,1,1,0.308323602,0,0,0,0.380790527,0.350138569,0.082639788,0.432778357,0.267498781,nan,nan,nan,[ nan  nan  nan],nan,nan,nan,1418.957886,1767.595392,1767.903716,nan,nan
0,315,15:26:20:379000,6,1,195,137.109375,[ 1.         -0.04692453  0.44239605],1,1,1,0.430510542,0,0,0,0.420318865,0.3500054,0.082541722,0.432547122,0.267463678,nan,nan,nan,[ nan  nan  nan],nan,nan,nan,1418.957886,1768.537176,1768.967687,nan,nan
0,316,15:26:21:315000,6,1,447,314.296875,[ 0.31246764  0.41164647 -1.        ],1,1,1,0.304712268,0,0,0,0.347848804,0.350260972,0.08253494,0.432795913,0.267726032,nan,nan,nan,[ nan  nan  nan],nan,nan,nan,1418.957886,1769.478965,1769.783677,nan,nan
0,317,15:26:22:251000,6,1,66,46.40625,[ 1.         -0.11856871 -1.        ],1,1,1,0.346903324,0,0,0,0.360708711,0.350116831,0.082443945,0.432560776,0.267672886,nan,nan,nan,[ nan  nan  nan],nan,nan,nan,1418.957886,1770.420754,1770.767657,nan,nan
0,318,15:26:23:203000,6,1,166,116.71875,[ 1.         -0.20036215  0.21267421],1,1,1,0.309103345,0,0,0,0.320239646,0.350106693,0.082314002,0.432420695,0.267792692,nan,nan,nan,[ nan  nan  nan],nan,nan,nan,1418.957886,1771.362542,1771.671645,nan,nan
0,319,15:26:24:139000,6,1,21,14.765625,[ 1.        0.116714 -1.      ],1,1,1,0.239321946,0,0,0,0.298442872,0.349977752,0.082216534,0.432194286,0.267761219,nan,nan,nan,[ nan  nan  nan],nan,nan,nan,1418.957886,1772.304318,1772.54364,nan,nan
0,320,15:26:25:075000,6,1,128,90,[ 1.         -0.31066301 -0.15668979],1,1,1,0.393488024,0,0,0,0.313971105,0.349630869,0.082320307,0.431951175,0.267310562,nan,nan,nan,[ nan  nan  nan],nan,nan,nan,1418.957886,1773.246124,1773.639612,nan,nan
0,321,15:26:26:026000,6,1,185,130.078125,[ 1.         -0.10221447  0.37029995],1,1,1,0.31567656,0,0,0,0.316162177,0.349767922,0.082228024,0.431995946,0.267539899,nan,nan,nan,[ nan  nan  nan],nan,nan,nan,1418.957886,1774.187911,1774.503588,nan,nan
0,322,15:26:26:962000,6,1,405,284.765625,[ 0.01846332  0.46800938 -0.47629333],1,1,1,0.26187575,0,0,0,0.323680111,0.349661719,0.082121821,0.43178354,0.267539897,nan,nan,nan,[ nan  nan  nan],nan,nan,nan,1418.957886,1775.129696,1775.391572,nan,nan
0,323,15:26:27:914000,6,1,313,220.078125,[-0.05302215  0.42279583  0.44879796],1,1,1,0.256085698,0,0,0,0.277879336,0.349389092,0.082139564,0.431528656,0.267249527,nan,nan,nan,[ nan  nan  nan],nan,nan,nan,1418.957886,1776.071491,1776.327576,nan,nan
0,324,15:26:28:850000,6,1,62,43.59375,[ 1.         -0.09743725 -1.        ],1,1,1,0.362272948,0,0,0,0.293411465,0.349100227,0.08217596,0.431276186,0.266924267,nan,nan,nan,[ nan  nan  nan],nan,nan,nan,1418.957886,1777.01328,1777.375553,nan,nan
0,325,15:26:29:786000,6,0,167,117.421875,[ 1.         -0.19560581  0.22154672],0,1,0,0.284444949,0,0,0,0.300934532,0.349140883,0.082052301,0.431193184,0.267088582,nan,nan,nan,[ nan  nan  nan],nan,nan,nan,1418.957886,1777.955065,1778.23951,nan,nan
0,326,15:26:30:738000,6,1,319,224.296875,[-0.08918918  0.43330867  0.4061371 ],1,1,1,0.382626652,0,0,0,0.34311485,0.348941819,0.082004289,0.430946108,0.26693753,nan,nan,nan,[ nan  nan  nan],nan,nan,nan,1418.957886,1778.896848,1779.279474,nan,nan
0,327,15:26:31:674000,6,1,428,300.9375,[ 0.17037832  0.44348657 -0.8686614 ],1,1,1,0.624842626,0,0,0,0.430638076,0.349045146,0.081899606,0.430944752,0.267145541,nan,nan,nan,[ nan  nan  nan],nan,nan,nan,1418.957886,1779.838638,1780.46348,nan,nan
0,328,15:26:32:610000,6,1,395,277.734375,[-0.03839842  0.47418351 -0.35142722],1,1,1,0.491031393,0,0,1,0.499500224,0.349888564,0.08318013,0.433068694,0.266708433,nan,nan,nan,[ nan  nan  nan],nan,nan,nan,1418.957886,1780.780432,1781.271463,nan,nan
0,329,15:26:38:272000,6,1,122,85.78125,[ 1.         -0.31115954 -0.21914422],1,1,1,0.517234163,1,0,0,0.544369394,0.350318877,0.083416966,0.433735843,0.266901911,nan,-103.7003987,275,[ 0.27900239  0.32618525  0.63017847],nan,107.9191487,2.659004188,1418.957886,1781.722218,1782.239452,1783.555725,1786.222764
0,330,15:26:39:208000,6,1,300,210.9375,[ 0.04335371  0.39574842  0.52895103],1,1,1,0.362436594,0,0,0,0.456900717,0.350826219,0.08379538,0.434621599,0.267030838,nan,nan,nan,[ nan  nan  nan],nan,nan,nan,1418.957886,1787.372971,1787.735408,nan,nan
0,331,15:26:40:144000,6,1,27,18.984375,[ 1.          0.08709126 -1.        ],1,1,1,0.420637889,0,0,0,0.433436216,0.350861401,0.083670755,0.434532156,0.267190647,nan,nan,nan,[ nan  nan  nan],nan,nan,nan,1418.957886,1788.314733,1788.73537,nan,nan
0,332,15:26:41:096000,6,1,493,346.640625,[ 0.68976908  0.28570078 -1.        ],1,1,1,0.318794105,0,0,0,0.367289529,0.351072207,0.083631989,0.434704196,0.267440218,nan,nan,nan,[ nan  nan  nan],nan,nan,nan,1418.957886,1789.256526,1789.575321,nan,nan
0,333,15:26:42:032000,6,1,352,247.5,[-0.17544713  0.4708516   0.11867359],1,1,1,0.369010095,0,0,0,0.369480696,0.350974983,0.083524674,0.434499657,0.26745031,nan,nan,nan,[ nan  nan  nan],nan,nan,nan,1418.957886,1790.198304,1790.567314,nan,nan
0,334,15:26:42:984000,6,1,238,167.34375,[ 0.67574183  0.17872767  0.63851109],1,1,1,0.33919485,0,0,0,0.342333016,0.351029143,0.083405005,0.434434148,0.267624138,nan,nan,nan,[ nan  nan  nan],nan,nan,nan,1418.957886,1791.140103,1791.479298,nan,nan
0,335,15:26:43:920000,6,1,497,349.453125,[ 0.72317494  0.2712606  -1.        ],1,1,1,0.365371106,0,0,0,0.357858683,0.350993711,0.083282564,0.434276275,0.267711147,nan,nan,nan,[ nan  nan  nan],nan,nan,nan,1418.957886,1792.081887,1792.447258,nan,nan
0,336,15:26:44:856000,6,0,65,45.703125,[ 1.         -0.11331216 -1.        ],0,0,1,0.47155408,0,0,0,0.392040012,0.351036628,0.083161867,0.434198496,0.267874761,nan,nan,nan,[ nan  nan  nan],nan,nan,nan,1418.957886,1793.023693,1793.495247,nan,nan
0,337,15:26:45:807000,6,1,507,356.484375,[ 0.80599565  0.23268835 -1.        ],1,1,1,0.281769591,0,0,0,0.372898259,0.351395311,0.083297131,0.434692442,0.26809818,nan,nan,nan,[ nan  nan  nan],nan,nan,nan,1418.957886,1793.965473,1794.247243,nan,nan
0,338,15:26:46:743000,6,1,294,206.71875,[ 0.0948762   0.38121213  0.55985823],1,1,1,0.339959767,0,0,0,0.364427812,0.351188707,0.083259628,0.434448335,0.267929079,nan,nan,nan,[ nan  nan  nan],nan,nan,nan,1418.957886,1794.907256,1795.247216,nan,nan
0,339,15:26:47:679000,6,1,53,37.265625,[ 1.         -0.04925756 -1.        ],1,1,1,0.318162613,0,0,0,0.313297324,0.351155485,0.083138608,0.434294093,0.268016877,nan,nan,nan,[ nan  nan  nan],nan,nan,nan,1418.957886,1795.849049,1796.167211,nan,nan
0,340,15:26:48:631000,6,1,179,125.859375,[ 1.         -0.13461442  0.32320413],1,1,1,0.384339235,0,0,0,0.347487205,0.351058161,0.083035175,0.434093336,0.268022986,nan,nan,nan,[ nan  nan  nan],nan,nan,nan,1418.957886,1796.790839,1797.175179,nan,nan
0,341,15:26:49:567000,6,1,476,334.6875,[ 0.54754504  0.34073938 -1.        ],1,1,1,0.250544252,0,0,0,0.317682033,0.351156047,0.08293256,0.434088606,0.268223487,nan,nan,nan,[ nan  nan  nan],nan,nan,nan,1418.957886,1797.732621,1797.983165,nan,nan
0,342,15:26:50:518000,6,1,251,176.484375,[ 0.53557652  0.23650919  0.65528415],1,1,1,0.284742591,0,0,0,0.306542026,0.350860997,0.082989387,0.433850384,0.267871611,nan,nan,nan,[ nan  nan  nan],nan,nan,nan,1418.957886,1798.674418,1798.95916,nan,nan
0,343,15:26:51:454000,6,1,9,6.328125,[ 0.91893356  0.17291669 -1.        ],1,1,1,0.374945261,0,0,0,0.303410701,0.350667669,0.082944833,0.433612502,0.267722835,nan,nan,nan,[ nan  nan  nan],nan,nan,nan,1418.957886,1799.616204,1799.991149,nan,nan
0,344,15:26:52:390000,6,1,378,265.78125,[-0.11745014  0.47867092 -0.15481012],1,1,1,0.321133902,0,0,0,0.326940585,0.350738449,0.082834177,0.433572626,0.267904272,nan,nan,nan,[ nan  nan  nan],nan,nan,nan,1418.957886,1800.557996,1800.87913,nan,nan
0,345,15:26:53:342000,6,1,104,73.125,[ 1.         -0.28235148 -0.41264457],1,1,1,0.435311874,0,0,0,0.377130346,0.350652389,0.082729046,0.433381435,0.267923343,nan,nan,nan,[ nan  nan  nan],nan,nan,nan,1418.957886,1801.499786,1801.935098,nan,nan
0,346,15:26:54:278000,6,1,171,120.234375,[ 1.         -0.17601187  0.25645091],1,1,1,0.317520002,0,0,0,0.357988593,0.350897779,0.082734342,0.433632121,0.268163436,nan,nan,nan,[ nan  nan  nan],nan,nan,nan,1418.957886,1802.441573,1802.759093,nan,nan
0,347,15:26:55:214000,6,1,281,197.578125,[ 0.2180834   0.34506839  0.61264442],1,1,1,0.311678633,0,0,0,0.354836837,0.350801311,0.082634126,0.433435438,0.268167185,nan,nan,nan,[ nan  nan  nan],nan,nan,nan,1418.957886,1803.383395,1803.695074,nan,nan
0,348,15:26:56:166000,6,1,505,355.078125,[ 0.78953796  0.24068314 -1.        ],1,1,1,0.329922898,0,0,0,0.319707178,0.350688566,0.082541618,0.433230183,0.268146948,nan,nan,nan,[ nan  nan  nan],nan,nan,nan,1418.957886,1804.325137,1804.65506,nan,nan
0,349,15:26:57:102000,6,1,65,45.703125,[ 1.         -0.11331216 -1.        ],1,1,1,0.276103272,0,0,0,0.305901601,0.350628894,0.082430433,0.433059327,0.268198461,nan,nan,nan,[ nan  nan  nan],nan,nan,nan,1418.957886,1805.266939,1805.543042,nan,nan
0,350,15:26:58:038000,6,1,245,172.265625,[ 0.6005777   0.21061011  0.65017283],1,1,1,0.206292793,0,0,0,0.270772988,0.350415354,0.08240859,0.432823943,0.268006764,nan,nan,nan,[ nan  nan  nan],nan,nan,nan,1418.957886,1806.208728,1806.415021,nan,nan
0,351,15:26:58:989000,6,0,440,309.375,[ 0.2586994  0.4246574 -1.       ],0,0,1,0.512482438,0,0,0,0.331626168,0.350003575,0.082649557,0.432653132,0.267354018,nan,nan,nan,[ nan  nan  nan],nan,nan,nan,1418.957886,1807.150517,1807.663,nan,nan
0,352,15:26:59:925000,6,1,183,128.671875,[ 1.         -0.113109    0.35490284],1,1,1,0.362693467,0,0,0,0.360489566,0.350466478,0.082984851,0.433451329,0.267481626,nan,nan,nan,[ nan  nan  nan],nan,nan,nan,1418.957886,1808.0923,1808.454994,nan,nan
0,353,15:27:00:877000,6,1,9,6.328125,[ 0.91893356  0.17291669 -1.        ],1,1,1,0.268888871,0,0,0,0.381354925,0.350501214,0.082869447,0.43337066,0.267631767,nan,nan,nan,[ nan  nan  nan],nan,nan,nan,1418.957886,1809.034089,1809.302978,nan,nan
0,354,15:27:01:813000,6,1,92,64.6875,[ 1.         -0.24170366 -0.55060884],1,1,1,0.207067689,0,0,0,0.279550009,0.350270017,0.08286559,0.433135607,0.267404427,nan,nan,nan,[ nan  nan  nan],nan,nan,nan,1418.957886,1809.975884,1810.182952,nan,nan
0,355,15:27:02:749000,6,1,406,285.46875,[ 0.02449675  0.4672457  -0.4893661 ],1,1,1,0.425271584,0,0,0,0.300409381,0.349865491,0.083096775,0.432962266,0.266768716,nan,nan,nan,[ nan  nan  nan],nan,nan,nan,1418.957886,1810.917667,1811.342938,nan,nan
0,356,15:27:03:700000,6,1,300,210.9375,[ 0.04335371  0.39574842  0.52895103],1,1,1,0.307469734,0,0,0,0.313269669,0.350077902,0.083075839,0.433153742,0.267002063,nan,nan,nan,[ nan  nan  nan],nan,nan,nan,1418.957886,1811.859456,1812.166926,nan,nan
0,357,15:27:04:636000,6,1,3,2.109375,[ 0.87108718  0.19933511 -1.        ],1,1,1,0.293666438,0,0,0,0.342135919,0.349958217,0.082989721,0.432947938,0.266968495,nan,nan,nan,[ nan  nan  nan],nan,nan,nan,1418.957886,1812.801251,1813.094917,nan,nan
0,358,15:27:05:572000,6,1,100,70.3125,[ 1.         -0.27042709 -0.4574399 ],1,1,1,0.263859175,0,0,0,0.288331782,0.349800536,0.082926793,0.432727329,0.266873744,nan,nan,nan,[ nan  nan  nan],nan,nan,nan,1418.957886,1813.743034,1814.006893,nan,nan
0,359,15:27:06:524000,6,1,7,4.921875,[ 0.90309146  0.18185306 -1.        ],1,1,1,0.306035977,0,0,0,0.287853863,0.349560477,0.082935018,0.432495495,0.266625458,nan,nan,nan,[ nan  nan  nan],nan,nan,nan,1418.957886,1814.684824,1814.99086,nan,nan
0,360,15:27:07:460000,6,1,144,101.25,[ 1.         -0.28442319  0.00519445],1,1,1,0.31624533,0,0,0,0.295380161,0.349439239,0.082851192,0.432290431,0.266588047,nan,nan,nan,[ nan  nan  nan],nan,nan,nan,1418.957886,1815.626611,1815.942857,nan,nan
0,361,15:27:08:412000,6,1,457,321.328125,[ 0.39163925  0.39035818 -1.        ],1,1,1,0.318436877,0,0,0,0.313572728,0.349347033,0.082754484,0.432101517,0.266592549,nan,nan,nan,[ nan  nan  nan],nan,nan,nan,1418.957886,1816.568402,1816.886839,nan,nan
0,362,15:27:09:348000,6,1,12,8.4375,[ 0.94247669  0.15927395 -1.        ],1,1,1,0.272633346,0,0,0,0.302438518,0.34926141,0.082655753,0.431917163,0.266605656,nan,nan,nan,[ nan  nan  nan],nan,nan,nan,1418.957886,1817.510188,1817.782821,nan,nan
0,363,15:27:10:284000,6,0,322,226.40625,[-0.10506723  0.43811622  0.38355935],0,0,1,0.442831329,0,0,0,0.344633851,0.34904973,0.082639437,0.431689167,0.266410293,nan,nan,nan,[ nan  nan  nan],nan,nan,nan,1418.957886,1818.451979,1818.89481,nan,nan
0,364,15:27:11:235000,6,1,373,262.265625,[-0.13540771  0.47855957 -0.09969749],1,1,1,0.293020691,0,0,0,0.336161789,0.349308081,0.082671791,0.431979872,0.266636291,nan,nan,nan,[ nan  nan  nan],nan,nan,nan,1418.957886,1819.393765,1819.686786,nan,nan
0,365,15:27:12:171000,6,1,475,333.984375,[ 0.53921875  0.34365981 -1.        ],1,1,1,0.343238392,0,0,0,0.359696804,0.349153446,0.082610705,0.431764151,0.26654274,nan,nan,nan,[ nan  nan  nan],nan,nan,nan,1418.957886,1820.335542,1820.67878,nan,nan
0,366,15:27:13:107000,6,0,92,64.6875,[ 1.         -0.24170366 -0.55060884],0,0,1,0.433411982,0,0,0,0.356557022,0.34913724,0.082498042,0.431635282,0.266639198,nan,nan,nan,[ nan  nan  nan],nan,nan,nan,1418.957886,1821.277347,1821.710759,nan,nan
0,367,15:27:14:059000,6,1,195,137.109375,[ 1.         -0.04692453  0.44239605],1,1,1,0.283671478,0,0,0,0.353440618,0.349367499,0.082502627,0.431870126,0.266864872,nan,nan,nan,[ nan  nan  nan],nan,nan,nan,1418.957886,1822.219132,1822.502803,nan,nan
0,368,15:27:14:995000,6,0,478,336.09375,[ 0.5642225   0.33479366 -1.        ],0,0,1,0.429828018,0,0,0,0.382303826,0.349188491,0.082461292,0.431649783,0.266727199,nan,nan,nan,[ nan  nan  nan],nan,nan,nan,1418.957886,1823.160923,1823.590751,nan,nan
0,369,15:27:15:947000,6,1,101,71.015625,[ 1.         -0.27357267 -0.44615261],1,1,1,0.239985369,0,0,0,0.317828288,0.34940762,0.082456105,0.431863725,0.266951515,nan,nan,nan,[ nan  nan  nan],nan,nan,nan,1418.957886,1824.102709,1824.342694,nan,nan
0,370,15:27:16:883000,6,1,357,251.015625,[-0.17179183  0.47376752  0.06873903],1,1,1,0.64218028,0,0,0,0.437331222,0.349111083,0.082540557,0.43165164,0.266570525,nan,nan,nan,[ nan  nan  nan],nan,nan,nan,1418.957886,1825.044496,1825.686676,nan,nan
0,371,15:27:17:819000,6,1,305,214.453125,[ 0.00361193  0.40685925  0.50019691],1,1,1,0.468393485,0,0,1,0.450186378,0.349903162,0.083821458,0.433724619,0.266081704,nan,nan,nan,[ nan  nan  nan],nan,nan,nan,1418.957886,1825.986285,1826.454678,nan,nan
0,372,15:27:22:436000,6,1,410,288.28125,[ 0.04920468  0.46392153 -0.54316189],1,1,1,0.366574219,1,0,0,0.492382661,0.350222542,0.083933547,0.434156089,0.266288996,nan,-171.7496128,372,[-0.13866002  0.47845887 -0.08881238],nan,-26.53163723,1.608991757,1418.957886,1826.928074,1827.294648,1828.761585,1830.378494
0,373,15:27:23:372000,6,1,312,219.375,[-0.04644836  0.4209252   0.45557321],1,1,1,0.381588041,0,0,0,0.405518582,0.350266499,0.083824933,0.434091431,0.266441566,nan,nan,nan,[ nan  nan  nan],nan,nan,nan,1418.957886,1831.537004,1831.918592,nan,nan
0,374,15:27:24:324000,6,1,11,7.734375,[ 0.9346595  0.1638529 -1.       ],1,1,1,0.319768569,0,0,0,0.355976943,0.350350471,0.083728157,0.434078627,0.266622314,nan,nan,nan,[ nan  nan  nan],nan,nan,nan,1418.957886,1832.478796,1832.798565,nan,nan
0,375,15:27:25:260000,6,1,183,128.671875,[ 1.         -0.113109    0.35490284],1,1,1,0.353981733,0,0,0,0.351779448,0.350268701,0.083631058,0.433899759,0.266637643,nan,nan,nan,[ nan  nan  nan],nan,nan,nan,1418.957886,1833.420568,1833.774549,nan,nan
0,376,15:27:26:196000,6,1,493,346.640625,[ 0.68976908  0.28570078 -1.        ],1,1,1,0.348151483,0,0,0,0.340633928,0.350278602,0.083519695,0.433798297,0.266758907,nan,nan,nan,[ nan  nan  nan],nan,nan,nan,1418.957886,1834.362371,1834.710522,nan,nan
0,377,15:27:27:147000,6,1,173,121.640625,[ 1.         -0.16590952  0.27353519],1,1,1,0.39834495,0,0,0,0.366826055,0.350272945,0.08340863,0.433681574,0.266864315,nan,nan,nan,[ nan  nan  nan],nan,nan,nan,1418.957886,1835.304153,1835.702498,nan,nan
0,378,15:27:28:083000,6,1,79,55.546875,[ 1.         -0.18429602 -0.72417078],1,1,1,0.376542379,0,0,0,0.374346271,0.350400457,0.083334623,0.43373508,0.267065834,nan,nan,nan,[ nan  nan  nan],nan,nan,nan,1418.957886,1836.245945,1836.622487,nan,nan
0,379,15:27:29:019000,6,1,458,322.03125,[ 0.39968805  0.38805021 -1.        ],1,1,1,0.346721432,0,0,0,0.373869587,0.350469615,0.083235151,0.433704767,0.267234464,nan,nan,nan,[ nan  nan  nan],nan,nan,nan,1418.957886,1837.187738,1837.534459,nan,nan
0,380,15:27:29:971000,6,1,242,170.15625,[ 0.63291185  0.19716118  0.6459214 ],1,1,1,0.38891648,0,0,0,0.370726764,0.350459726,0.083125492,0.433585218,0.267334233,nan,nan,nan,[ nan  nan  nan],nan,nan,nan,1418.957886,1838.129527,1838.518444,nan,nan
0,381,15:27:30:907000,6,0,440,309.375,[ 0.2586994  0.4246574 -1.       ],0,0,1,0.487116429,0,0,0,0.40758478,0.350560928,0.08303942,0.433600348,0.267521507,nan,nan,nan,[ nan  nan  nan],nan,nan,nan,1418.957886,1839.071312,1839.558428,nan,nan
0,382,15:27:31:843000,6,1,140,98.4375,[ 1.         -0.29420925 -0.03457774],1,1,1,0.401287445,0,0,0,0.425773451,0.350919341,0.083224165,0.434143506,0.267695176,nan,nan,nan,[ nan  nan  nan],nan,nan,nan,1418.957886,1840.013122,1840.41441,nan,nan
0,383,15:27:32:795000,6,1,412,289.6875,[ 0.06188912  0.46209661 -0.57115894],1,1,1,0.33951815,0,0,0,0.409307342,0.351051195,0.083154999,0.434206194,0.267896195,nan,nan,nan,[ nan  nan  nan],nan,nan,nan,1418.957886,1840.954894,1841.294412,nan,nan
0,384,15:27:33:731000,6,1,147,103.359375,[ 1.         -0.27580113  0.03467205],1,1,1,0.40571815,0,0,0,0.382174582,0.351021082,0.083048456,0.434069539,0.267972626,nan,nan,nan,[ nan  nan  nan],nan,nan,nan,1418.957886,1841.896685,1842.302404,nan,nan
0,385,15:27:34:682000,6,1,489,343.828125,[ 0.65628486  0.29957244 -1.        ],1,1,1,0.351927318,0,0,0,0.365721206,0.351163523,0.082987082,0.434150605,0.26817644,nan,nan,nan,[ nan  nan  nan],nan,nan,nan,1418.957886,1842.838449,1843.190376,nan,nan
0,386,15:27:35:618000,6,1,315,221.484375,[-0.06571114  0.42643481  0.43495652],1,1,1,0.362099609,0,0,0,0.373248359,0.351165507,0.082879246,0.434044752,0.268286261,nan,nan,nan,[ nan  nan  nan],nan,nan,nan,1418.957886,1843.780261,1844.142361,nan,nan
0,387,15:27:36:554000,6,1,356,250.3125,[-0.17284378  0.47323941  0.07883681],1,1,1,0.26028918,0,0,0,0.324772036,0.351193833,0.082773686,0.433967519,0.268420147,nan,nan,nan,[ nan  nan  nan],nan,nan,nan,1418.957886,1844.722047,1844.982336,nan,nan
0,388,15:27:37:506000,6,1,507,356.484375,[ 0.80599565  0.23268835 -1.        ],1,1,1,0.326476351,0,0,0,0.31628838,0.350958938,0.082795392,0.433754329,0.268163546,nan,nan,nan,[ nan  nan  nan],nan,nan,nan,1418.957886,1845.663841,1845.990318,nan,nan
0,389,15:27:38:442000,6,1,254,178.59375,[ 0.50301113  0.24894782  0.65613358],1,1,1,0.336687129,0,0,0,0.307817553,0.350895838,0.082697945,0.433593783,0.268197893,nan,nan,nan,[ nan  nan  nan],nan,nan,nan,1418.957886,1846.605622,1846.942309,nan,nan
0,390,15:27:39:378000,6,1,149,104.765625,[ 1.         -0.26947852  0.05414366],1,1,1,0.402866887,0,0,0,0.355343455,0.350859312,0.082594714,0.433454026,0.268264597,nan,nan,nan,[ nan  nan  nan],nan,nan,nan,1418.957886,1847.547432,1847.950299,nan,nan
0,391,15:27:40:329000,6,1,259,182.109375,[ 0.44882283  0.26890698  0.65501178],1,1,1,0.357058224,0,0,0,0.365537413,0.350992665,0.082530676,0.43352334,0.268461989,nan,nan,nan,[ nan  nan  nan],nan,nan,nan,1418.957886,1848.489202,1848.84626,nan,nan
0,392,15:27:41:265000,6,1,5,3.515625,[ 0.88714031  0.19065985 -1.        ],1,1,1,0.303269673,0,0,0,0.354398261,0.351008178,0.082425639,0.433433817,0.268582538,nan,nan,nan,[ nan  nan  nan],nan,nan,nan,1418.957886,1849.430993,1849.734263,nan,nan
0,393,15:27:42:233000,6,1,266,187.03125,[ 0.37357759  0.29520749  0.64811377],1,1,1,0.313452512,0,0,0,0.324593469,0.350886396,0.082355651,0.433242047,0.268530744,nan,nan,nan,[ nan  nan  nan],nan,nan,nan,1418.957886,1850.372781,1850.686233,nan,nan
0,394,15:27:43:169000,6,1,141,99.140625,[ 1.         -0.29195274 -0.02458685],1,1,1,0.354983282,0,0,0,0.323901822,0.350791144,0.082272424,0.433063568,0.26851872,nan,nan,nan,[ nan  nan  nan],nan,nan,nan,1418.957886,1851.331235,1851.686219,nan,nan
0,395,15:27:44:105000,6,1,428,300.9375,[ 0.17037832  0.44348657 -0.8686614 ],1,1,1,0.389122606,0,0,0,0.352519466,0.350801784,0.082168221,0.432970005,0.268633562,nan,nan,nan,[ nan  nan  nan],nan,nan,nan,1418.957886,1852.273069,1852.662191,nan,nan
0,396,15:27:45:056000,6,1,463,325.546875,[ 0.44023832  0.3760118  -1.        ],1,nan,nan,nan,0,0,0,0.372052944,0.350898799,0.082086736,0.432985534,0.268812063,nan,nan,nan,[ nan  nan  nan],nan,nan,nan,1418.957886,1853.214803,nan,nan,nan
0,397,15:27:45:992000,6,1,42,29.53125,[ 1.          0.00954879 -1.        ],1,1,1,0.64952383,0,0,0,0.519323218,0.350898799,0.082086736,0.432985534,0.268812063,nan,nan,nan,[ nan  nan  nan],nan,nan,nan,1418.957886,1854.156604,1854.806127,nan,nan
0,398,15:27:46:944000,6,1,321,225.703125,[-0.09994335  0.43654647  0.39117498],1,1,1,0.395761109,0,0,0,0.522642469,0.351652902,0.083341718,0.434994621,0.268311184,nan,nan,nan,[ nan  nan  nan],nan,nan,nan,1418.957886,1855.098394,1855.494155,nan,nan
0,399,15:27:47:880000,6,1,262,184.21875,[ 0.41645248  0.28041442  0.65281554],1,1,1,0.469968936,0,0,1,0.505084625,0.351764006,0.083266046,0.435030052,0.26849796,nan,nan,nan,[ nan  nan  nan],nan,nan,nan,1418.957886,1856.040182,1856.510151,nan,nan
0,400,15:27:52:794000,6,1,156,109.6875,[ 1.         -0.24406061  0.12104147],1,1,1,0.424156282,1,0,0,0.429962109,0.352061003,0.083371653,0.435432657,0.26868935,nan,-33.91743054,176,[ 1.         -0.15042967  0.29867547],nan,14.22993054,1.925621969,1418.957886,1856.981971,1857.406128,1858.807168,1860.740731
0,401,15:27:53:730000,6,1,278,195.46875,[ 0.24828552  0.33580281  0.62196257],1,1,1,0.339097346,0,0,0,0.411074188,0.352241693,0.083345103,0.435586796,0.26889659,nan,nan,nan,[ nan  nan  nan],nan,nan,nan,1418.957886,1861.890946,1862.230043,nan,nan
0,402,15:27:54:666000,6,1,391,274.921875,[-0.0591908   0.47591628 -0.30371871],1,1,1,0.301298792,0,0,0,0.354850806,0.352208832,0.083243444,0.435452277,0.268965388,nan,nan,nan,[ nan  nan  nan],nan,nan,nan,1418.957886,1862.832717,1863.134016,nan,nan
0,403,15:27:55:617000,6,0,300,210.9375,[ 0.04335371  0.39574842  0.52895103],0,0,1,0.431477594,0,0,0,0.357291244,0.352081875,0.08317835,0.435260224,0.268903525,nan,nan,nan,[ nan  nan  nan],nan,nan,nan,1418.957886,1863.774514,1864.205992,nan,nan
0,404,15:27:56:553000,6,1,76,53.4375,[ 1.         -0.16967451 -0.77336583],1,1,1,0.345679114,0,0,0,0.359485167,0.352279377,0.083168919,0.435448296,0.269110458,nan,nan,nan,[ nan  nan  nan],nan,nan,nan,1418.957886,1864.716305,1865.061984,nan,nan
0,405,15:27:57:489000,6,1,167,117.421875,[ 1.         -0.19560581  0.22154672],1,1,1,0.379873177,0,0,0,0.385676628,0.352262999,0.083066317,0.435329315,0.269196682,nan,nan,nan,[ nan  nan  nan],nan,nan,nan,1418.957886,1865.658096,1866.037969,nan,nan
0,406,15:27:58:441000,6,1,54,37.96875,[ 1.         -0.05462921 -1.        ],1,1,1,0.342088878,0,0,0,0.35588039,0.352331341,0.082974791,0.435306132,0.269356549,nan,nan,nan,[ nan  nan  nan],nan,nan,nan,1418.957886,1866.599883,1866.941972,nan,nan
0,407,15:27:59:377000,6,1,291,204.609375,[ 0.12202764  0.37344194  0.57379193],1,1,1,0.272265855,0,0,0,0.331409303,0.352306051,0.082873849,0.4351799,0.269432202,nan,nan,nan,[ nan  nan  nan],nan,nan,nan,1418.957886,1867.541671,1867.813937,nan,nan
0,408,15:28:00:329000,6,1,54,37.96875,[ 1.         -0.05462921 -1.        ],1,1,1,0.35445243,0,0,0,0.322935721,0.352108907,0.082866754,0.434975661,0.269242153,nan,nan,nan,[ nan  nan  nan],nan,nan,nan,1418.957886,1868.483467,1868.83792,nan,nan
0,409,15:28:01:265000,6,1,366,257.34375,[-0.15559338  0.47730203 -0.02447665],1,1,1,0.324675388,0,0,0,0.317131224,0.352114665,0.082764971,0.434879636,0.269349694,nan,nan,nan,[ nan  nan  nan],nan,nan,nan,1418.957886,1869.425237,1869.749912,nan,nan
0,410,15:28:02:201000,6,1,269,189.140625,[ 0.34171297  0.30588835  0.64326235],1,1,1,0.366844207,0,0,0,0.348657341,0.352047412,0.082674615,0.434722027,0.269372797,nan,nan,nan,[ nan  nan  nan],nan,nan,nan,1418.957886,1870.367039,1870.733883,nan,nan
0,411,15:28:03:152000,6,1,52,36.5625,[ 1.         -0.04388606 -1.        ],1,1,1,0.417048793,0,0,0,0.369522796,0.35208359,0.082576717,0.434660308,0.269506873,nan,nan,nan,[ nan  nan  nan],nan,nan,nan,1418.957886,1871.308829,1871.725878,nan,nan
0,412,15:28:04:088000,6,1,342,240.46875,[-0.17005262  0.46291356  0.21407524],1,1,1,0.291240255,0,0,0,0.358377752,0.352242042,0.082538182,0.434780224,0.26970386,nan,nan,nan,[ nan  nan  nan],nan,nan,nan,1418.957886,1872.250615,1872.541855,nan,nan
