block,trial,freq_trials,correct_response,actual_response,acc,rts,probe_trials,fast_rt_trigger,slow_rt_trigger,rt_triggered,rts_runningavg,rts_runningstd,rts_runningfastthresh,rts_runningslowthresh,rts_runningstd,rts_trailingavg,trials_colorind,trials_colorrgb0,trials_colorrgb1,trials_colorrgb2,wm_respdeg,wm_respdeg_in_colorspace,wm_respcolorminusorigcolor,wm_resptexind,wm_resptexrgb0,wm_resptexrgb1,wm_resptexrgb2,wm_rts,time_blockstart,time_encarray_offset,time_encarray_onset,time_response,time_iti_offset,time_iti_onset,time_memprobe_offset,time_memprobe_onset
1,1,1,1,1.0,1.0,0.330411556177,0,nan,nan,nan,nan,nan,nan,nan,nan,nan,195,1.0,-0.0469245268387,0.442396054288,nan,nan,nan,nan,0.0,0.0,0.0,nan,85.2543659881,86.275935634,86.7759521701,86.6063471902,nan,nan,nan,nan
1,2,1,1,1.0,1.0,0.241616128478,0,nan,nan,nan,nan,nan,nan,nan,nan,nan,24,1.0,0.102019060141,-1.0,nan,nan,nan,nan,0.0,0.0,0.0,nan,85.2543659881,87.2927207686,87.7927603973,87.5343368971,nan,nan,nan,nan
1,3,1,1,1.0,1.0,0.321460624691,0,nan,nan,nan,nan,nan,nan,nan,nan,nan,419,0.107894673663,0.454841969249,-0.678098861371,nan,nan,nan,nan,0.0,0.0,0.0,nan,85.2543659881,88.2928476371,88.7928784275,88.6143082618,nan,nan,nan,nan
1,4,1,1,1.0,1.0,0.273336682003,0,nan,nan,nan,nan,nan,nan,nan,nan,nan,240,0.654373017221,0.188015059697,0.642463954019,nan,nan,nan,nan,0.0,0.0,0.0,nan,85.2543659881,89.292975361,89.7930044411,89.566312043,nan,nan,nan,nan
1,5,1,1,1.0,1.0,0.241210719571,0,nan,nan,nan,nan,nan,nan,nan,nan,nan,483,0.606025706087,0.319314454546,-1.0,nan,nan,nan,nan,0.0,0.0,0.0,nan,85.2543659881,90.2930828426,90.7931335904,90.5342935622,nan,nan,nan,nan
1,6,1,1,1.0,1.0,0.217047538608,0,nan,nan,nan,nan,nan,nan,nan,nan,nan,400,-0.0107874812989,0.471427301814,-0.412692688905,nan,nan,nan,nan,0.0,0.0,0.0,nan,85.2543659881,91.2932105665,91.7932915343,91.5102581051,nan,nan,nan,nan
1,7,1,1,1.0,1.0,0.328924485482,0,nan,nan,nan,nan,nan,nan,nan,nan,nan,487,0.639529740128,0.306295026098,-1.0,nan,nan,nan,nan,0.0,0.0,0.0,nan,85.2543659881,92.2933388609,92.7933813403,92.6222633463,nan,nan,nan,nan
1,8,1,1,1.0,1.0,0.256779911462,0,nan,nan,nan,nan,nan,nan,nan,nan,nan,239,0.665069831863,0.183388857662,0.640549267122,nan,nan,nan,nan,0.0,0.0,0.0,nan,85.2543659881,93.2934791287,93.7935435609,93.5502590402,nan,nan,nan,nan
1,9,1,1,1.0,1.0,0.240608022548,0,nan,nan,nan,nan,nan,nan,nan,nan,nan,367,-0.15309091083,0.477560897992,-0.0350816338538,nan,nan,nan,nan,0.0,0.0,0.0,nan,85.2543659881,94.2936057122,94.7936595958,94.5342137348,nan,nan,nan,nan
1,10,1,1,1.0,1.0,0.240460626781,0,nan,nan,nan,nan,nan,nan,nan,nan,nan,468,0.481236483515,0.363131620867,-1.0,nan,nan,nan,nan,0.0,0.0,0.0,nan,85.2543659881,95.2937545334,95.793783613,95.5342151602,nan,nan,nan,nan
1,11,1,1,1.0,1.0,0.208360037301,0,nan,nan,nan,nan,nan,nan,nan,nan,nan,392,-0.0541067903503,0.475522277549,-0.315549842675,nan,nan,nan,nan,0.0,0.0,0.0,nan,85.2543659881,96.2938694279,96.7939064903,96.5022294652,nan,nan,nan,nan
1,12,1,1,1.0,1.0,0.232208185364,1,nan,nan,nan,nan,nan,nan,nan,nan,nan,509,0.822386376617,0.224555004187,-1.0,143.691307536,306.308692464,-51.5819325359,436.0,0.228681708805,0.431413732101,-1.0,1.62550661899,85.2543659881,97.2939905943,97.7940279422,97.5261987797,100.761055239,101.771423106,99.119185145,100.752740075
1,13,1,1,1.0,1.0,0.316510185599,0,nan,nan,nan,nan,nan,nan,nan,nan,nan,67,1.0,-0.12380466598,-1.0,nan,nan,nan,nan,0.0,0.0,0.0,nan,85.2543659881,101.969563527,102.469604581,102.286073713,nan,nan,nan,nan
1,14,1,1,1.0,1.0,0.300330599304,0,nan,nan,nan,nan,nan,nan,nan,nan,nan,4,0.879126049628,0.195014037372,-1.0,nan,nan,nan,nan,0.0,0.0,0.0,nan,85.2543659881,102.969725748,103.469757393,103.270056347,nan,nan,nan,nan
1,15,0,0,0.0,1.0,0.404180617537,0,nan,nan,nan,nan,nan,nan,nan,nan,nan,334,-0.152796554809,0.454467054946,0.285576400052,nan,nan,nan,nan,0.0,0.0,0.0,nan,85.2543659881,103.969867726,104.469888253,104.374048344,nan,nan,nan,nan
1,16,1,1,1.0,1.0,0.284086865839,0,nan,nan,nan,nan,nan,nan,nan,nan,nan,127,1.0,-0.31111021432,-0.167036648065,nan,nan,nan,nan,0.0,0.0,0.0,nan,85.2543659881,104.969948409,105.469997446,105.254035275,nan,nan,nan,nan
1,17,1,1,1.0,1.0,0.259941646364,0,nan,nan,nan,nan,nan,nan,nan,nan,nan,319,-0.0891891826932,0.433308674125,0.406137099325,nan,nan,nan,nan,0.0,0.0,0.0,nan,85.2543659881,105.970090102,106.470147407,106.230031749,nan,nan,nan,nan
1,18,1,1,1.0,1.0,0.259772297926,0,nan,nan,nan,nan,nan,nan,nan,nan,nan,469,0.489482198204,0.360453357602,-1.0,nan,nan,nan,nan,0.0,0.0,0.0,nan,85.2543659881,106.970217826,107.47024377,107.229990124,nan,nan,nan,nan
1,19,1,1,1.0,1.0,0.1876511015,0,nan,nan,nan,nan,nan,nan,nan,nan,nan,161,1.0,-0.223158351501,0.167490545043,nan,nan,nan,nan,0.0,0.0,0.0,nan,85.2543659881,107.970353533,108.470378906,108.158004635,nan,nan,nan,nan
1,20,1,1,1.0,1.0,0.179528094828,0,nan,nan,nan,nan,nan,nan,nan,nan,nan,509,0.822386376617,0.224555004187,-1.0,nan,nan,nan,nan,0.0,0.0,0.0,nan,85.2543659881,108.970497222,109.470532289,109.150025317,nan,nan,nan,nan
1,21,1,1,1.0,1.0,0.195335628465,0,nan,nan,nan,nan,nan,nan,nan,nan,nan,197,1.0,-0.035797595552,0.455774741445,nan,nan,nan,nan,0.0,0.0,0.0,nan,85.2543659881,109.970612117,110.470653171,110.165947745,nan,nan,nan,nan
1,22,1,1,1.0,1.0,0.171275938395,0,nan,nan,nan,nan,nan,nan,nan,nan,nan,330,-0.139766326074,0.449518327743,0.319540245599,nan,nan,nan,nan,0.0,0.0,0.0,nan,85.2543659881,110.970727296,111.470790873,111.142003234,nan,nan,nan,nan
1,23,1,1,1.0,1.0,0.275062094443,0,nan,nan,nan,nan,nan,nan,nan,nan,nan,262,0.416452475899,0.2804144186,0.652815538838,nan,nan,nan,nan,0.0,0.0,0.0,nan,85.2543659881,111.970849033,112.470880394,112.245911127,nan,nan,nan,nan
1,24,1,1,1.0,1.0,0.250900053885,1,nan,nan,nan,nan,nan,nan,nan,nan,nan,387,-0.0787219327085,0.477231755363,-0.256974454483,-167.868678933,257.868678933,-14.2406960666,367.0,-0.15309091083,0.477560897992,-0.0350816338538,1.29225748451,85.2543659881,112.970976757,113.471038338,113.221876811,116.104699325,117.10595404,114.796168456,116.096367341
1,25,1,1,1.0,1.0,0.276954003144,0,nan,nan,nan,nan,nan,nan,nan,nan,nan,219,0.871627318206,0.0840881726889,0.576959667802,nan,nan,nan,nan,0.0,0.0,0.0,nan,85.2543659881,117.304851681,117.804895016,117.581805684,nan,nan,nan,nan
1,26,1,1,1.0,1.0,0.244803522248,0,nan,nan,nan,nan,nan,nan,nan,nan,nan,103,1.0,-0.279537473278,-0.423758835275,nan,nan,nan,nan,0.0,0.0,0.0,nan,85.2543659881,118.304983681,118.805019604,118.549787203,nan,nan,nan,nan
1,27,0,0,0.0,1.0,0.380643511191,0,nan,nan,nan,nan,nan,nan,nan,nan,nan,306,-0.00395437407881,0.408974006242,0.494128827808,nan,nan,nan,nan,0.0,0.0,0.0,nan,85.2543659881,119.305142481,119.805178118,119.685785992,nan,nan,nan,nan
1,28,1,1,1.0,1.0,0.220464150421,0,nan,nan,nan,nan,nan,nan,nan,nan,nan,15,0.965734432428,0.145352784795,-1.0,nan,nan,nan,nan,0.0,0.0,0.0,nan,85.2543659881,120.305273056,120.805275906,120.525737206,nan,nan,nan,nan
1,29,1,1,1.0,1.0,0.25236260565,0,nan,nan,nan,nan,nan,nan,nan,nan,nan,376,-0.124962824795,0.478704673615,-0.132627625282,nan,nan,nan,nan,0.0,0.0,0.0,nan,85.2543659881,121.305377686,121.805402775,121.557740292,nan,nan,nan,nan
1,30,1,1,1.0,1.0,0.252236022148,0,nan,nan,nan,nan,nan,nan,nan,nan,nan,208,0.97651257568,0.025020743352,0.522574479073,nan,nan,nan,nan,0.0,0.0,0.0,nan,85.2543659881,122.305497142,122.805546749,122.557733165,nan,nan,nan,nan
1,31,0,0,0.0,1.0,0.420050872955,0,nan,nan,nan,nan,nan,nan,nan,nan,nan,497,0.723174939644,0.271260599794,-1.0,nan,nan,nan,nan,0.0,0.0,0.0,nan,85.2543659881,123.305651095,123.80568046,123.725701968,nan,nan,nan,nan
1,32,1,1,1.0,1.0,0.267973136622,0,nan,nan,nan,nan,nan,nan,nan,nan,nan,167,1.0,-0.195605812978,0.221546716301,nan,nan,nan,nan,0.0,0.0,0.0,nan,85.2543659881,124.305755156,124.805783381,124.573728293,nan,nan,nan,nan
1,33,1,1,1.0,1.0,0.323791584,1,nan,nan,nan,nan,nan,nan,nan,nan,nan,86,1.0,-0.21659106269,-0.625617802914,34.2868769772,55.7131230228,-4.75562697721,79.0,1.0,-0.184296021705,-0.724170777997,1.14209731668,85.2543659881,125.305888867,125.80591196,125.629680451,128.297895864,129.30492267,127.139421673,128.289557038
1,34,1,1,1.0,1.0,0.387190782931,0,nan,nan,nan,nan,nan,nan,nan,nan,nan,161,1.0,-0.223158351501,0.167490545043,nan,nan,nan,nan,0.0,0.0,0.0,nan,85.2543659881,129.506406148,130.00644093,129.893596931,nan,nan,nan,nan
1,35,0,0,0.0,1.0,0.451041291468,0,nan,nan,nan,nan,nan,nan,nan,nan,nan,379,-0.113535935895,0.478614986251,-0.165970515924,nan,nan,nan,nan,0.0,0.0,0.0,nan,85.2543659881,130.506534442,131.006599159,130.957575734,nan,nan,nan,nan
1,36,1,1,1.0,1.0,0.218898393214,0,nan,nan,nan,nan,nan,nan,nan,nan,nan,147,1.0,-0.275801134503,0.0346720467303,nan,nan,nan,nan,0.0,0.0,0.0,nan,85.2543659881,131.506692387,132.006698944,131.72559078,nan,nan,nan,nan
1,37,1,1,1.0,1.0,0.194754884113,0,nan,nan,nan,nan,nan,nan,nan,nan,nan,10,0.926811495151,0.168400576072,-1.0,nan,nan,nan,nan,0.0,0.0,0.0,nan,85.2543659881,132.50678875,133.00683294,132.701543634,nan,nan,nan,nan
1,38,0,0,1.0,0.0,0.210591213312,0,0.0,0.0,0.0,nan,nan,nan,nan,nan,nan,307,-0.0113868739462,0.411053355611,0.487957006857,nan,nan,nan,nan,0.0,0.0,0.0,nan,85.2543659881,133.506948974,134.006982046,133.717540188,nan,nan,nan,nan
1,39,1,1,1.0,1.0,0.186435159296,0,nan,nan,nan,nan,nan,nan,nan,nan,nan,254,0.503011129055,0.248947817922,0.65613358125,nan,nan,nan,nan,0.0,0.0,0.0,nan,85.2543659881,134.507055031,135.00711148,134.69349019,nan,nan,nan,nan
1,40,1,1,1.0,1.0,0.258316018153,0,nan,nan,nan,nan,nan,nan,nan,nan,nan,432,0.199227897075,0.437687328843,-1.0,nan,nan,nan,nan,0.0,0.0,0.0,nan,85.2543659881,135.507182185,136.007225804,135.765498203,nan,nan,nan,nan
1,41,1,1,1.0,1.0,0.306163130794,0,nan,nan,nan,nan,nan,nan,nan,nan,nan,166,1.0,-0.20036215083,0.21267421211,nan,nan,nan,nan,0.0,0.0,0.0,nan,85.2543659881,136.507304206,137.007338988,136.813467337,nan,nan,nan,nan
1,42,1,1,1.0,1.0,0.242038358469,0,nan,nan,nan,nan,nan,nan,nan,nan,nan,405,0.018463324075,0.468009379796,-0.476293327428,nan,nan,nan,nan,0.0,0.0,0.0,nan,85.2543659881,137.507424518,138.007496363,137.749462876,nan,nan,nan,nan
1,43,1,1,0.0,0.0,0.385859376285,0,0.0,0.0,0.0,nan,nan,nan,nan,nan,nan,95,1.0,-0.253175017597,-0.514975443931,nan,nan,nan,nan,0.0,0.0,0.0,nan,85.2543659881,138.507567352,139.007592155,138.893426728,nan,nan,nan,nan
1,44,1,1,1.0,1.0,0.265735689085,0,nan,nan,nan,nan,nan,nan,nan,nan,nan,190,1.0,-0.0746884387243,0.407399635172,nan,nan,nan,nan,0.0,0.0,0.0,nan,85.2543659881,139.507687948,140.007717028,139.773423637,nan,nan,nan,nan
1,45,1,1,1.0,1.0,0.241555687506,0,nan,nan,nan,nan,nan,nan,nan,nan,nan,478,0.56422249903,0.334793662244,-1.0,nan,nan,nan,nan,0.0,0.0,0.0,nan,85.2543659881,140.507828216,141.007848458,140.749383904,nan,nan,nan,nan
1,46,1,1,1.0,1.0,0.233414434362,0,nan,nan,nan,nan,nan,nan,nan,nan,nan,143,1.0,-0.287057525782,-0.00469998909502,nan,nan,nan,nan,0.0,0.0,0.0,nan,85.2543659881,141.507972476,142.007977893,141.74138691,nan,nan,nan,nan
1,47,1,1,1.0,1.0,0.201374855824,0,nan,nan,nan,nan,nan,nan,nan,nan,nan,479,0.572572153349,0.331768222426,-1.0,nan,nan,nan,nan,0.0,0.0,0.0,nan,85.2543659881,142.50805715,143.008119016,142.709432005,nan,nan,nan,nan
1,48,1,1,1.0,1.0,0.209166008979,0,nan,nan,nan,nan,nan,nan,nan,nan,nan,28,1.0,0.082066132397,-1.0,nan,nan,nan,nan,0.0,0.0,0.0,nan,85.2543659881,143.50820198,144.008236191,143.717367989,nan,nan,nan,nan
1,49,1,1,1.0,1.0,0.256984041072,0,nan,nan,nan,nan,nan,nan,nan,nan,nan,458,0.399688045963,0.388050214986,-1.0,nan,nan,nan,nan,0.0,0.0,0.0,nan,85.2543659881,144.50833341,145.008358498,144.765317451,nan,nan,nan,nan
1,50,1,1,1.0,1.0,0.296856397297,1,nan,nan,nan,nan,nan,nan,nan,nan,nan,348,-0.175384772129,0.468017843042,0.157582163916,-138.691385986,228.691385986,-15.9961140135,325.0,-0.119404900653,0.442631039184,0.360186421743,0.875425366219,85.2543659881,145.508441177,146.008482231,145.805297574,148.233787912,149.241381778,147.341984817,148.225457069
1,51,1,1,1.0,1.0,0.314922191203,0,nan,nan,nan,nan,nan,nan,nan,nan,nan,182,1.0,-0.118523835432,0.347089474713,nan,nan,nan,nan,0.0,0.0,0.0,nan,85.2543659881,149.442305894,149.942323,149.757228085,nan,nan,nan,nan
1,52,1,1,1.0,1.0,0.20279150689,0,nan,nan,nan,nan,nan,nan,nan,nan,nan,469,0.489482198204,0.360453357602,-1.0,nan,nan,nan,nan,0.0,0.0,0.0,nan,85.2543659881,150.442451579,150.942447303,150.645243086,nan,nan,nan,nan
1,53,1,1,1.0,1.0,0.338653448503,0,nan,nan,nan,nan,nan,nan,nan,nan,nan,102,1.0,-0.276610342793,-0.434926949461,nan,nan,nan,nan,0.0,0.0,0.0,nan,85.2543659881,151.4425411,151.942573601,151.781194549,nan,nan,nan,nan
1,54,1,1,1.0,1.0,0.266512010712,0,nan,nan,nan,nan,nan,nan,nan,nan,nan,31,1.0,0.0668515730764,-1.0,nan,nan,nan,nan,0.0,0.0,0.0,nan,85.2543659881,152.442679943,152.942703891,152.709191953,nan,nan,nan,nan
1,55,1,1,1.0,1.0,0.210368836764,0,nan,nan,nan,nan,nan,nan,nan,nan,nan,437,0.23613482661,0.429770237144,-1.0,nan,nan,nan,nan,0.0,0.0,0.0,nan,85.2543659881,153.442799399,153.942852427,153.653168235,nan,nan,nan,nan
1,56,1,1,1.0,1.0,0.282211207319,0,nan,nan,nan,nan,nan,nan,nan,nan,nan,77,1.0,-0.174593022316,-0.756267193339,nan,nan,nan,nan,0.0,0.0,0.0,nan,85.2543659881,154.44293311,154.942961904,154.725144317,nan,nan,nan,nan
1,57,1,1,1.0,1.0,0.258083093446,0,nan,nan,nan,nan,nan,nan,nan,nan,nan,200,1.0,-0.0191209939188,0.47515178387,nan,nan,nan,nan,0.0,0.0,0.0,nan,85.2543659881,155.443047719,155.943089628,155.701130812,nan,nan,nan,nan
1,58,1,1,1.0,1.0,0.241922893561,0,nan,nan,nan,nan,nan,nan,nan,nan,nan,461,0.423959648591,0.380927367285,-1.0,nan,nan,nan,nan,0.0,0.0,0.0,nan,85.2543659881,156.443187702,156.943205093,156.685110596,nan,nan,nan,nan
1,59,1,1,1.0,1.0,0.241805148311,0,nan,nan,nan,nan,nan,nan,nan,nan,nan,27,1.0,0.0870912575778,-1.0,nan,nan,nan,nan,0.0,0.0,0.0,nan,85.2543659881,157.443312004,157.943337378,157.685117153,nan,nan,nan,nan
1,60,1,1,1.0,1.0,0.209638416301,0,nan,nan,nan,nan,nan,nan,nan,nan,nan,194,1.0,-0.0524864644427,0.435571704399,nan,nan,nan,nan,0.0,0.0,0.0,nan,85.2543659881,158.443428895,158.943463677,158.653067311,nan,nan,nan,nan
1,61,1,1,1.0,1.0,0.169516314752,0,nan,nan,nan,nan,nan,nan,nan,nan,nan,55,1.0,-0.0599996532909,-1.0,nan,nan,nan,nan,0.0,0.0,0.0,nan,85.2543659881,159.443564031,159.943616774,159.613080346,nan,nan,nan,nan
1,62,1,1,1.0,1.0,0.193398959003,0,nan,nan,nan,nan,nan,nan,nan,nan,nan,364,-0.160194321586,0.476704516321,-0.00341124574885,nan,nan,nan,nan,0.0,0.0,0.0,nan,85.2543659881,160.443679496,160.943749059,160.637078455,nan,nan,nan,nan
1,63,1,1,1.0,1.0,0.209229871165,0,nan,nan,nan,nan,nan,nan,nan,nan,nan,474,0.530901762182,0.346545376391,-1.0,nan,nan,nan,nan,0.0,0.0,0.0,nan,85.2543659881,161.443806934,161.943871937,161.653036805,nan,nan,nan,nan
1,64,1,1,1.0,1.0,0.305061512627,0,nan,nan,nan,nan,nan,nan,nan,nan,nan,115,1.0,-0.305166285737,-0.293172749504,nan,nan,nan,nan,0.0,0.0,0.0,nan,85.2543659881,162.443962598,162.944011349,162.74902411,nan,nan,nan,nan
1,65,1,1,1.0,1.0,0.208876064513,0,nan,nan,nan,nan,nan,nan,nan,nan,nan,10,0.926811495151,0.168400576072,-1.0,nan,nan,nan,nan,0.0,0.0,0.0,nan,85.2543659881,163.444106857,163.944126814,163.652982922,nan,nan,nan,nan
1,66,1,1,1.0,1.0,0.176821375731,0,nan,nan,nan,nan,nan,nan,nan,nan,nan,173,1.0,-0.165909522591,0.273535192888,nan,nan,nan,nan,0.0,0.0,0.0,nan,85.2543659881,164.444220896,164.944223747,164.621042272,nan,nan,nan,nan
1,67,0,0,1.0,0.0,0.144644095097,0,0.0,0.0,0.0,nan,nan,nan,nan,nan,nan,348,-0.175384772129,0.468017843042,0.157582163916,nan,nan,nan,nan,0.0,0.0,0.0,nan,85.2543659881,165.444350046,165.944397087,165.588994141,nan,nan,nan,nan
1,68,1,1,1.0,1.0,0.216502431314,0,nan,nan,nan,nan,nan,nan,nan,nan,nan,90,1.0,-0.233635786423,-0.574971871003,nan,nan,nan,nan,0.0,0.0,0.0,nan,85.2543659881,166.444444698,166.944483472,166.66094713,nan,nan,nan,nan
1,69,1,1,1.0,1.0,0.240340030752,0,nan,nan,nan,nan,nan,nan,nan,nan,nan,150,1.0,-0.266152531622,0.0638227105866,nan,nan,nan,nan,0.0,0.0,0.0,nan,85.2543659881,167.444572137,167.944614616,167.684912167,nan,nan,nan,nan
1,70,1,1,1.0,1.0,0.27218317613,0,nan,nan,nan,nan,nan,nan,nan,nan,nan,421,0.121471671064,0.452518040197,-0.712610339232,nan,nan,nan,nan,0.0,0.0,0.0,nan,85.2543659881,168.444708984,168.944747757,168.71689216,nan,nan,nan,nan
1,71,0,0,0.0,1.0,0.400007355493,0,nan,nan,nan,nan,nan,nan,nan,nan,nan,350,-0.175756816429,0.469490941964,0.138247479403,nan,nan,nan,nan,0.0,0.0,0.0,nan,85.2543659881,169.444864932,169.944889736,169.844872288,nan,nan,nan,nan
1,72,1,1,1.0,1.0,0.191915879957,0,nan,nan,nan,nan,nan,nan,nan,nan,nan,41,1.0,0.0148395037771,-1.0,nan,nan,nan,nan,0.0,0.0,0.0,nan,85.2543659881,170.444965002,170.944991801,170.636880882,nan,nan,nan,nan
1,73,1,1,1.0,1.0,0.199772891123,0,nan,nan,nan,nan,nan,nan,nan,nan,nan,438,0.243622561222,0.428096439079,-1.0,nan,nan,nan,nan,0.0,0.0,0.0,nan,85.2543659881,171.445095291,171.945124086,171.644868182,nan,nan,nan,nan
1,74,1,1,1.0,1.0,0.21561349649,0,nan,nan,nan,nan,nan,nan,nan,nan,nan,240,0.654373017221,0.188015059697,0.642463954019,nan,nan,nan,nan,0.0,0.0,0.0,nan,85.2543659881,172.445212752,172.945246108,172.660826248,nan,nan,nan,nan
1,75,1,1,1.0,1.0,0.191440907307,0,nan,nan,nan,nan,nan,nan,nan,nan,nan,39,1.0,0.0253789930673,-1.0,nan,nan,nan,nan,0.0,0.0,0.0,nan,85.2543659881,173.445372406,173.945401201,173.636813314,nan,nan,nan,nan
1,76,1,1,1.0,1.0,0.191318600439,0,nan,nan,nan,nan,nan,nan,nan,nan,nan,96,1.0,-0.25681952169,-0.503302481145,nan,nan,nan,nan,0.0,0.0,0.0,nan,85.2543659881,174.445478178,174.945536908,174.636796778,nan,nan,nan,nan
1,77,1,1,1.0,1.0,0.175184914377,0,nan,nan,nan,nan,nan,nan,nan,nan,nan,339,-0.164955840019,0.45996923152,0.241423096872,nan,nan,nan,nan,0.0,0.0,0.0,nan,85.2543659881,175.445590506,175.945654653,175.620775421,nan,nan,nan,nan
1,78,1,1,1.0,1.0,0.19107512664,0,nan,nan,nan,nan,nan,nan,nan,nan,nan,246,0.589768841079,0.215019897151,0.651339528662,nan,nan,nan,nan,0.0,0.0,0.0,nan,85.2543659881,176.445756148,176.945787224,176.636831275,nan,nan,nan,nan
1,79,1,1,1.0,1.0,0.174892974086,0,nan,nan,nan,nan,nan,nan,nan,nan,nan,491,0.673033477965,0.292707709811,-1.0,nan,nan,nan,nan,0.0,0.0,0.0,nan,85.2543659881,177.445880736,177.945884157,177.62077371,nan,nan,nan,nan
1,80,1,1,1.0,1.0,0.182795315981,0,nan,nan,nan,nan,nan,nan,nan,nan,nan,317,-0.077772836126,0.429938605076,0.420733606481,nan,nan,nan,nan,0.0,0.0,0.0,nan,85.2543659881,178.446007889,178.946008745,178.628803205,nan,nan,nan,nan
1,81,1,1,1.0,1.0,0.174573665019,0,1.0,0.0,0.0,0.252751935238,0.0643990492712,0.188352885967,0.31715098451,0.0643990492712,0.177420651695,446,0.304696255059,0.41359904426,-1.0,nan,nan,nan,nan,0.0,0.0,0.0,nan,85.2543659881,179.446139319,179.946140745,179.620712984,nan,nan,nan,nan
1,82,1,1,1.0,1.0,0.214457709342,1,0.0,0.0,1.0,0.251786771409,0.0645798759751,0.187206895433,0.316366647384,0.0645798759751,0.190608896781,43,1.0,0.00424534395127,-1.0,59.9558399301,30.0441600699,-0.190214930074,43.0,1.0,0.00424534395127,-1.0,1.24212189205,85.2543659881,180.446240529,180.946275597,180.660698239,183.52159445,184.528080425,182.263095683,183.513283848
1,83,1,1,1.0,1.0,0.354520853143,0,0.0,0.0,0.0,0.251331538944,0.0643155195332,0.187016019411,0.315647058478,0.0643155195332,0.247850742502,159,1.0,-0.231765974528,0.149055008463,nan,nan,nan,nan,0.0,0.0,0.0,nan,85.2543659881,184.730099602,185.230175723,185.084620455,nan,nan,nan,nan
1,84,1,1,1.0,1.0,0.274346213788,0,0.0,0.0,0.0,0.252574783694,0.0649106523387,0.187664131355,0.317485436032,0.0649106523387,0.281108258758,115,1.0,-0.305166285737,-0.293172749504,nan,nan,nan,nan,0.0,0.0,0.0,nan,85.2543659881,185.730231887,186.230269806,186.004578101,nan,nan,nan,nan
1,85,0,0,0.0,1.0,0.386178970337,0,0.0,0.0,0.0,0.252833967385,0.0645663145342,0.188267652851,0.31740028192,0.0645663145342,0.338348679089,445,0.296953900578,0.415520102116,-1.0,nan,nan,nan,nan,0.0,0.0,0.0,nan,85.2543659881,186.730406938,187.23042832,187.116585908,nan,nan,nan,nan
1,86,1,1,1.0,1.0,0.194054113701,0,0.0,0.0,0.0,0.254402732126,0.0657760600617,0.188626672064,0.320178792188,0.0657760600617,0.284859765942,495,0.706485112283,0.278551693791,-1.0,nan,nan,nan,nan,0.0,0.0,0.0,nan,85.2543659881,187.730497884,188.230548061,187.924551997,nan,nan,nan,nan
1,87,1,1,1.0,1.0,0.297903846484,0,0.0,0.0,0.0,0.253701004005,0.065711779411,0.187989224594,0.319412783416,0.065711779411,0.292712310174,306,-0.00395437407881,0.408974006242,0.494128827808,nan,nan,nan,nan,0.0,0.0,0.0,nan,85.2543659881,188.730625608,189.230662385,189.028529454,nan,nan,nan,nan
1,88,0,0,0.0,1.0,0.425742851105,0,0.0,0.0,0.0,0.254209082654,0.0655027152856,0.188706367368,0.31971179794,0.0655027152856,0.30590027043,16,0.973419431522,0.140652110383,-1.0,nan,nan,nan,nan,0.0,0.0,0.0,nan,85.2543659881,189.730777279,190.230805504,190.156520131,nan,nan,nan,nan
1,89,1,1,1.0,1.0,0.225672317669,0,0.0,0.0,0.0,0.256158330023,0.0676196052061,0.188538724817,0.323777935229,0.0676196052061,0.316439671752,176,1.0,-0.150429669724,0.298675466069,nan,nan,nan,nan,0.0,0.0,0.0,nan,85.2543659881,190.73086566,191.230909565,190.956537977,nan,nan,nan,nan
1,90,1,1,1.0,1.0,0.232082456816,0,0.0,0.0,0.0,0.255815790558,0.0673153840716,0.188500406486,0.32313117463,0.0673153840716,0.29449920853,310,-0.032854544558,0.417080732083,0.468828018046,nan,nan,nan,nan,0.0,0.0,0.0,nan,85.2543659881,191.764396585,192.2643963,191.996479042,nan,nan,nan,nan
1,91,1,1,1.0,1.0,0.208026757929,0,0.0,0.0,0.0,0.25555208685,0.0669865770611,0.188565509789,0.322538663911,0.0669865770611,0.221927177471,28,1.0,0.082066132397,-1.0,nan,nan,nan,nan,0.0,0.0,0.0,nan,85.2543659881,192.764458736,193.264506633,192.972485494,nan,nan,nan,nan
1,92,1,1,1.0,1.0,0.207858264912,0,0.0,0.0,0.0,0.255029830488,0.0668014914008,0.188228339087,0.321831321889,0.0668014914008,0.215989159886,181,1.0,-0.123914391386,0.3392011262,nan,nan,nan,nan,0.0,0.0,0.0,nan,85.2543659881,193.764588741,194.264663721,193.972447006,nan,nan,nan,nan
1,93,0,0,0.0,1.0,0.35967513686,0,0.0,0.0,0.0,0.25451709608,0.0666172505217,0.187899845558,0.321134346601,0.0666172505217,0.258520053234,433,0.206536295144,0.436163724167,-1.0,nan,nan,nan,nan,0.0,0.0,0.0,nan,85.2543659881,194.764757234,195.264802279,195.124432371,nan,nan,nan,nan
1,94,1,1,1.0,1.0,0.215583560988,0,0.0,0.0,0.0,0.255647827701,0.0671398996951,0.188507928006,0.322787727396,0.0671398996951,0.261038987587,478,0.56422249903,0.334793662244,-1.0,nan,nan,nan,nan,0.0,0.0,0.0,nan,85.2543659881,195.764855593,196.264889804,195.980439153,nan,nan,nan,nan
1,95,1,1,1.0,1.0,0.239428857807,0,0.0,0.0,0.0,0.255221612098,0.0669081873024,0.188313424795,0.3221297994,0.0669081873024,0.271562518552,431,0.191957257768,0.43918128748,-0.982298765802,nan,nan,nan,nan,0.0,0.0,0.0,nan,85.2543659881,196.764989018,197.265039195,197.004417876,nan,nan,nan,nan
1,96,1,1,1.0,1.0,0.279258734547,0,0.0,0.0,0.0,0.255055372579,0.0665746202115,0.188480752367,0.32162999279,0.0665746202115,0.244757051114,356,-0.17284377641,0.473239407326,0.0788368070227,nan,nan,nan,nan,0.0,0.0,0.0,nan,85.2543659881,197.765137839,198.265136129,198.044396574,nan,nan,nan,nan
1,97,1,1,1.0,1.0,0.303135106806,0,0.0,0.0,0.0,0.255307490933,0.0662725438034,0.189034947129,0.321580034736,0.0662725438034,0.27394089972,247,0.578947625354,0.219392674348,0.6523805853,nan,nan,nan,nan,0.0,0.0,0.0,nan,85.2543659881,198.765244181,199.265266988,199.068379288,nan,nan,nan,nan
1,98,1,1,1.0,1.0,0.22298299009,0,0.0,0.0,0.0,0.255800559137,0.0661068102089,0.189693748929,0.321907369346,0.0661068102089,0.268458943814,434,0.213881816697,0.43461034373,-1.0,nan,nan,nan,nan,0.0,0.0,0.0,nan,85.2543659881,199.765356224,200.265421797,199.988339214,nan,nan,nan,nan
1,99,1,1,1.0,1.0,0.174832533579,0,0.0,0.0,0.0,0.255465685984,0.0658513095997,0.189614376384,0.321316995584,0.0658513095997,0.233650210158,119,1.0,-0.309446327048,-0.250710895617,nan,nan,nan,nan,0.0,0.0,0.0,nan,85.2543659881,200.765495067,201.265522436,200.940327601,nan,nan,nan,nan
1,100,1,1,1.0,1.0,0.182689829729,0,0.0,0.0,0.0,0.254651209697,0.0660121460451,0.188639063652,0.320663355742,0.0660121460451,0.193501784466,249,0.557275547736,0.228026269286,0.654084877906,nan,nan,nan,nan,0.0,0.0,0.0,nan,85.2543659881,201.76562108,202.265641892,201.94831091,nan,nan,nan,nan
1,101,1,1,1.0,1.0,0.214538392145,0,0.0,0.0,0.0,0.253931595897,0.0660703711907,0.187861224707,0.320001967088,0.0660703711907,0.190686918485,133,1.0,-0.306259573676,-0.105336427414,nan,nan,nan,nan,0.0,0.0,0.0,nan,85.2543659881,202.765774178,203.265791568,202.98031257,nan,nan,nan,nan
1,102,1,1,1.0,1.0,0.214404681232,0,0.0,0.0,0.0,0.253541564177,0.0658580723328,0.187683491844,0.31939963651,0.0658580723328,0.203877634369,488,0.647907709101,0.302951493728,-1.0,nan,nan,nan,nan,0.0,0.0,0.0,nan,85.2543659881,203.765871681,204.265921003,203.980276363,nan,nan,nan,nan
1,103,1,1,1.0,1.0,0.238249693066,0,0.0,0.0,0.0,0.253157869246,0.0656477926853,0.187510076561,0.318805661931,0.0656477926853,0.222397588814,50,1.0,-0.033148730948,-1.0,nan,nan,nan,nan,0.0,0.0,0.0,nan,85.2543659881,204.766026774,205.266031336,205.004276467,nan,nan,nan,nan
1,104,1,1,1.0,1.0,0.238164734095,0,0.0,0.0,0.0,0.253013129672,0.0653446894855,0.187668440186,0.318357819157,0.0653446894855,0.230273036131,228,0.780729811514,0.1302769546,0.611433142569,nan,nan,nan,nan,0.0,0.0,0.0,nan,85.2543659881,205.766131975,206.266162481,206.004296709,nan,nan,nan,nan
1,105,1,1,1.0,1.0,0.213972758036,0,0.0,0.0,0.0,0.252870356637,0.0650459145992,0.187824442038,0.317916271236,0.0650459145992,0.230129061732,368,-0.150457169737,0.477793263397,-0.0457341785459,nan,nan,nan,nan,0.0,0.0,0.0,nan,85.2543659881,206.766257704,207.266287354,206.980230462,nan,nan,nan,nan
1,106,1,1,1.0,1.0,0.205816679634,0,0.0,0.0,0.0,0.252499903317,0.0648455746598,0.187654328657,0.317345477977,0.0648455746598,0.219318057255,145,1.0,-0.281667413287,0.0150551701241,nan,nan,nan,nan,0.0,0.0,0.0,nan,85.2543659881,207.766402248,208.266418213,207.972218928,nan,nan,nan,nan
1,107,1,1,1.0,1.0,0.221704896539,0,0.0,0.0,0.0,0.252059495547,0.0646965603603,0.187362935186,0.316756055907,0.0646965603603,0.213831444737,365,-0.157962026257,0.477016591838,-0.0139196855225,nan,nan,nan,nan,0.0,0.0,0.0,nan,85.2543659881,208.76653995,209.266535674,208.988244847,nan,nan,nan,nan
1,108,0,0,1.0,0.0,0.157542490866,0,0.0,0.0,0.0,0.251775807705,0.0644597354748,0.187316072231,0.31623554318,0.0644597354748,0.19502135568,448,0.32026743599,0.409662251776,-1.0,nan,nan,nan,nan,0.0,0.0,0.0,nan,85.2543659881,209.766661972,210.266697609,209.924204463,nan,nan,nan,nan
1,109,1,1,1.0,1.0,0.173396781087,0,0.0,0.0,0.0,0.250903276994,0.0647923212735,0.18611095572,0.315695598267,0.0647923212735,0.184214722831,46,1.0,-0.0117313672748,-1.0,nan,nan,nan,nan,0.0,0.0,0.0,nan,85.2543659881,210.766759761,211.26683075,210.940156542,nan,nan,nan,nan
1,110,1,1,1.0,1.0,0.221275539137,0,0.0,0.0,0.0,0.250192208224,0.0649163889365,0.185275819288,0.315108597161,0.0649163889365,0.184071603697,196,1.0,-0.0413610816081,0.449130757868,nan,nan,nan,nan,0.0,0.0,0.0,nan,85.2543659881,211.766884634,212.266932245,211.988160173,nan,nan,nan,nan
1,111,1,1,1.0,1.0,0.27712734323,0,0.0,0.0,0.0,0.249929329414,0.0646788967551,0.185250432659,0.314608226169,0.0646788967551,0.223933221151,123,1.0,-0.311441137266,-0.208672863777,nan,nan,nan,nan,0.0,0.0,0.0,nan,85.2543659881,212.767006085,213.267053982,213.044133428,nan,nan,nan,nan
1,112,1,1,1.0,1.0,0.252936507575,0,0.0,0.0,0.0,0.250174356566,0.0644381561957,0.18573620037,0.314612512762,0.0644381561957,0.250446463314,259,0.44882283482,0.268906983076,0.655011783756,nan,nan,nan,nan,0.0,0.0,0.0,nan,85.2543659881,213.767155191,214.267177999,214.020091699,nan,nan,nan,nan
1,113,1,1,1.0,1.0,0.209775832947,0,0.0,0.0,0.0,0.250199018628,0.0641503670559,0.186048651572,0.314349385684,0.0641503670559,0.246613227918,186,1.0,-0.0967386681424,0.377881386018,nan,nan,nan,nan,0.0,0.0,0.0,nan,85.2543659881,214.794295649,215.292337027,215.004071482,nan,nan,nan,nan
1,114,1,1,1.0,1.0,0.243690500036,0,0.0,0.0,0.0,0.249841291321,0.0639779945524,0.185863296769,0.313819285874,0.0639779945524,0.235467613519,97,1.0,-0.260369742894,-0.491718830742,nan,nan,nan,nan,0.0,0.0,0.0,nan,85.2543659881,215.792398038,216.29246133,216.036088538,nan,nan,nan,nan
1,115,1,1,1.0,1.0,0.259494327474,0,0.0,0.0,0.0,0.249787337012,0.0636993533455,0.186087983666,0.313486690357,0.0636993533455,0.237653553486,308,-0.0186828559465,0.413097475488,0.481682330771,nan,nan,nan,nan,0.0,0.0,0.0,nan,85.2543659881,216.792541157,217.292590194,217.052035484,nan,nan,nan,nan
1,116,1,1,1.0,1.0,0.21936281817,0,0.0,0.0,0.0,0.249871745625,0.0634281979953,0.186443547629,0.31329994362,0.0634281979953,0.240849215227,145,1.0,-0.281667413287,0.0150551701241,nan,nan,nan,nan,0.0,0.0,0.0,nan,85.2543659881,217.792660328,218.292686271,218.012023146,nan,nan,nan,nan
1,117,1,1,1.0,1.0,0.251204253174,0,0.0,0.0,0.0,0.249608737629,0.0632171575609,0.186391580068,0.31282589519,0.0632171575609,0.243353799606,233,0.728670395113,0.154909781369,0.626482233315,nan,nan,nan,nan,0.0,0.0,0.0,nan,85.2543659881,218.792791758,219.292810574,219.043996011,nan,nan,nan,nan
1,118,1,1,1.0,1.0,0.249038935173,0,0.0,0.0,0.0,0.249622374514,0.0629465903764,0.186675784138,0.312568964891,0.0629465903764,0.239868668839,323,-0.11001989341,0.43965344528,0.375855360355,nan,nan,nan,nan,0.0,0.0,0.0,nan,85.2543659881,219.842938754,220.342968119,220.091977689,nan,nan,nan,nan
1,119,1,1,1.0,1.0,0.248909215908,0,0.0,0.0,0.0,0.249617430113,0.0626793228549,0.186938107258,0.312296752968,0.0626793228549,0.249717468085,464,0.448404880525,0.373503555275,-1.0,nan,nan,nan,nan,0.0,0.0,0.0,nan,85.2543659881,220.843075031,221.343076742,221.091984247,nan,nan,nan,nan
1,120,1,1,1.0,1.0,0.296750911046,0,0.0,0.0,0.0,0.249611478733,0.0624154422251,0.187196036508,0.312026920958,0.0624154422251,0.264899687376,95,1.0,-0.253175017597,-0.514975443931,nan,nan,nan,nan,0.0,0.0,0.0,nan,85.2543659881,221.843193347,222.34320247,222.139944258,nan,nan,nan,nan
1,121,0,0,1.0,0.0,0.232628134545,0,0.0,0.0,0.0,0.250004307336,0.0623023817303,0.187701925606,0.312306689066,0.0623023817303,0.2594294205,374,-0.132039125116,0.478634076427,-0.110628443238,nan,nan,nan,nan,0.0,0.0,0.0,nan,85.2543659881,222.843315369,223.343376379,223.075943503,nan,nan,nan,nan
1,122,1,1,1.0,1.0,0.280510028359,0,0.0,0.0,0.0,0.249860702602,0.0620643393433,0.187796363259,0.311925041945,0.0620643393433,0.26996302465,67,1.0,-0.12380466598,-1.0,nan,nan,nan,nan,0.0,0.0,0.0,nan,85.2543659881,223.843418289,224.34346704,224.123928317,nan,nan,nan,nan
1,123,0,0,1.0,0.0,0.304310850333,0,0.0,0.0,0.0,0.250111926584,0.0618711994836,0.1882407271,0.311983126067,0.0618711994836,0.272483004412,356,-0.17284377641,0.473239407326,0.0788368070227,nan,nan,nan,nan,0.0,0.0,0.0,nan,85.2543659881,224.84359619,225.343593054,225.14790704,nan,nan,nan,nan
1,124,1,1,1.0,1.0,0.40021861298,0,0.0,0.0,0.0,0.25055256824,0.0618110924049,0.188741475835,0.312363660645,0.0618110924049,0.328346497224,94,1.0,-0.249439013202,-0.526745155233,nan,nan,nan,nan,0.0,0.0,0.0,nan,85.2543659881,225.843676303,226.343715646,226.243894916,nan,nan,nan,nan
1,125,1,1,1.0,1.0,0.392084486783,0,0.0,0.0,0.0,0.251759552472,0.0629999008665,0.188759651605,0.314759453338,0.0629999008665,0.365537983365,495,0.706485112283,0.278551693791,-1.0,nan,nan,nan,nan,0.0,0.0,0.0,nan,85.2543659881,226.843812579,227.343844795,227.235897066,nan,nan,nan,nan
1,126,1,1,1.0,1.0,0.343904665671,0,0.0,1.0,0.0,0.252882151946,0.0639804976306,0.188901654316,0.316862649577,0.0639804976306,0.378735921811,20,1.0,0.121558187834,-1.0,nan,nan,nan,nan,0.0,0.0,0.0,nan,85.2543659881,227.843949996,228.343967387,228.187854662,nan,nan,nan,nan
1,127,1,1,1.0,1.0,0.431748436764,1,0.0,0.0,1.0,0.253604552849,0.0642358843052,0.189368668544,0.317840437154,0.0642358843052,0.389245863073,450,0.335949728395,0.405598329481,-1.0,151.348171547,298.651828453,-17.7544215474,425.0,0.149162615564,0.447529597292,-0.791715667876,0.992113339249,85.2543659881,228.844076294,229.344103094,229.275824731,231.677755642,232.684415527,230.669257731,231.669383459
1,128,1,1,1.0,1.0,0.301516321488,0,0.0,0.0,0.0,0.255007260596,0.0658913871554,0.189115873441,0.320898647752,0.0658913871554,0.359056474641,5,0.88714030954,0.190659852496,-1.0,nan,nan,nan,nan,0.0,0.0,0.0,nan,85.2543659881,232.886240837,233.386274479,233.187757159,nan,nan,nan,nan
1,129,1,1,1.0,1.0,0.341368435416,0,0.0,0.0,0.0,0.255370612635,0.0657611032714,0.189609509363,0.321131715906,0.0657611032714,0.358211064556,219,0.871627318206,0.0840881726889,0.576959667802,nan,nan,nan,nan,0.0,0.0,0.0,nan,85.2543659881,233.886375688,234.386434704,234.227744124,nan,nan,nan,nan
1,130,1,1,1.0,1.0,0.429224465508,0,0.0,1.0,0.0,0.256037262424,0.0659384961925,0.190098766231,0.321975758616,0.0659384961925,0.357369740804,504,0.78128615449,0.244628286196,-1.0,nan,nan,nan,nan,0.0,0.0,0.0,nan,85.2543659881,234.886497995,235.386549313,235.315722461,nan,nan,nan,nan
1,131,0,0,0.0,1.0,0.445033994969,1,0.0,0.0,1.0,0.257369471678,0.0674046498541,0.189964821824,0.324774121532,0.0674046498541,0.405208965298,163,1.0,-0.214247802105,0.185723682048,-31.780915093,121.780915093,7.17154009298,173.0,1.0,-0.165909522591,0.273535192888,0.817054152489,85.2543659881,235.886681599,236.386691007,236.331715594,238.545262701,239.548268202,237.711827968,238.536929862
1,132,1,1,1.0,1.0,0.266185858753,0,0.0,0.0,0.0,0.258802025291,0.0691049329701,0.189697092321,0.327906958261,0.0691049329701,0.38014810641,465,0.456588679398,0.37096152752,-1.0,nan,nan,nan,nan,0.0,0.0,0.0,nan,85.2543659881,239.745437295,240.245488897,240.011623153,nan,nan,nan,nan
1,133,1,1,1.0,1.0,0.290031726006,0,0.0,0.0,0.0,0.258857963423,0.0688456512911,0.190012312132,0.327703614714,0.0688456512911,0.333750526576,366,-0.155593376329,0.477302029306,-0.0244766492797,nan,nan,nan,nan,0.0,0.0,0.0,nan,85.2543659881,240.745584405,241.24564171,241.035616131,nan,nan,nan,nan
1,134,1,1,1.0,1.0,0.305897704326,0,0.0,0.0,0.0,0.259092352616,0.0686391909635,0.190453161652,0.327731543579,0.0686391909635,0.287371763028,76,1.0,-0.169674511773,-0.773365826749,nan,nan,nan,nan,0.0,0.0,0.0,nan,85.2543659881,241.745709563,242.245733226,242.051607267,nan,nan,nan,nan
1,135,0,0,0.0,1.0,0.441731706727,0,0.0,0.0,0.0,0.259441646285,0.0685011394088,0.190940506876,0.327942785694,0.0685011394088,0.345887045686,374,-0.132039125116,0.478634076427,-0.110628443238,nan,nan,nan,nan,0.0,0.0,0.0,nan,85.2543659881,242.74586095,243.245888319,243.187592657,nan,nan,nan,nan
1,136,1,1,1.0,1.0,0.241627817508,0,0.0,0.0,0.0,0.260791943029,0.0700140693745,0.190777873655,0.330806012404,0.0700140693745,0.32975240952,485,0.622774561467,0.312875618285,-1.0,nan,nan,nan,nan,0.0,0.0,0.0,nan,85.2543659881,243.745964726,244.245986963,243.987592543,nan,nan,nan,nan
1,137,1,1,1.0,1.0,0.249472854193,0,0.0,0.0,0.0,0.260651030341,0.0697754012961,0.190875629045,0.330426431638,0.0697754012961,0.310944126143,415,0.0813077335083,0.459153678902,-0.614968023274,nan,nan,nan,nan,0.0,0.0,0.0,nan,85.2543659881,244.746092164,245.246148043,244.995565019,nan,nan,nan,nan
1,138,1,1,1.0,1.0,0.273310168181,0,0.0,0.0,0.0,0.260569437815,0.0695267915963,0.191042646219,0.330096229411,0.0695267915963,0.254803613294,278,0.248285521772,0.335802812283,0.621962573991,nan,nan,nan,nan,0.0,0.0,0.0,nan,85.2543659881,245.746214756,246.246247828,246.019524924,nan,nan,nan,nan
1,139,1,1,1.0,1.0,0.225169690326,0,0.0,0.0,0.0,0.260661761948,0.069282852859,0.191378909089,0.329944614807,0.069282852859,0.2493175709,504,0.78128615449,0.244628286196,-1.0,nan,nan,nan,nan,0.0,0.0,0.0,nan,85.2543659881,246.746333357,247.246376407,246.971503047,nan,nan,nan,nan
1,140,1,1,1.0,1.0,0.360960072838,0,0.0,0.0,0.0,0.260406423303,0.0690983198626,0.191308103441,0.329504743166,0.0690983198626,0.286479977115,79,1.0,-0.184296021705,-0.724170777997,nan,nan,nan,nan,0.0,0.0,0.0,nan,85.2543659881,247.746518386,248.246504416,248.107478458,nan,nan,nan,nan
1,141,1,1,1.0,1.0,0.328880865593,0,0.0,0.0,0.0,0.261124663657,0.0693698745873,0.19175478907,0.330494538244,0.0693698745873,0.305003542919,440,0.258699398066,0.424657399123,-1.0,nan,nan,nan,nan,0.0,0.0,0.0,nan,85.2543659881,248.746599353,249.246635561,249.075480219,nan,nan,nan,nan
1,142,1,1,1.0,1.0,0.264725872781,0,0.0,0.0,0.0,0.261605204096,0.0693568975918,0.192248306504,0.330962101688,0.0693568975918,0.31818893707,233,0.728670395113,0.154909781369,0.626482233315,nan,nan,nan,nan,0.0,0.0,0.0,nan,85.2543659881,249.746730783,250.246776399,250.011456656,nan,nan,nan,nan
1,143,1,1,1.0,1.0,0.288602530025,0,0.0,0.0,0.0,0.261627180636,0.0691127443524,0.192514436284,0.330739924989,0.0691127443524,0.294069756133,451,0.343830962376,0.403518361206,-1.0,nan,nan,nan,nan,0.0,0.0,0.0,nan,85.2543659881,250.746840831,251.246886162,251.035443361,nan,nan,nan,nan
1,144,1,1,1.0,1.0,0.360420667566,0,0.0,0.0,0.0,0.261815819443,0.0689073424797,0.192908476963,0.330723161923,0.0689073424797,0.304583023457,300,0.0433537089178,0.395748422077,0.528951029102,nan,nan,nan,nan,0.0,0.0,0.0,nan,85.2543659881,251.746990507,252.247012745,252.107411175,nan,nan,nan,nan
1,145,1,1,1.0,1.0,0.344282990322,0,0.0,0.0,0.0,0.262500575333,0.0691541715638,0.193346403769,0.331654746897,0.0691541715638,0.331102062638,32,1.0,0.061735800531,-1.0,nan,nan,nan,nan,0.0,0.0,0.0,nan,85.2543659881,252.74712935,253.247145886,253.091412341,nan,nan,nan,nan
1,146,1,1,1.0,1.0,0.280143962707,0,0.0,0.0,0.0,0.263064591988,0.0692468526256,0.193817739362,0.332311444614,0.0692468526256,0.328282540198,366,-0.155593376329,0.477302029306,-0.0244766492797,nan,nan,nan,nan,0.0,0.0,0.0,nan,85.2543659881,253.747240824,254.24726192,254.027384786,nan,nan,nan,nan
1,147,1,1,1.0,1.0,0.296007091179,0,0.0,0.0,0.0,0.263181573979,0.0690236739075,0.194157900072,0.332205247887,0.0690236739075,0.306811348069,242,0.632911854383,0.197161183215,0.645921401967,nan,nan,nan,nan,0.0,0.0,0.0,nan,85.2543659881,254.747367407,255.247386794,255.043374498,nan,nan,nan,nan
1,148,1,1,1.0,1.0,0.367854593322,0,0.0,0.0,0.0,0.263404876817,0.0688413955647,0.194563481253,0.332246272382,0.0688413955647,0.31466854907,91,1.0,-0.237709898716,-0.562722318432,nan,nan,nan,nan,0.0,0.0,0.0,nan,85.2543659881,255.747493705,256.247526492,256.115348299,nan,nan,nan,nan
1,149,1,1,1.0,1.0,0.36772829527,0,0.0,1.0,0.0,0.264110618145,0.0691399519316,0.194970666213,0.333250570077,0.0691399519316,0.343863326591,267,0.362924526182,0.298807232282,0.646622522267,nan,nan,nan,nan,0.0,0.0,0.0,nan,85.2543659881,256.747606889,257.247645092,257.115335184,nan,nan,nan,nan
1,150,1,1,1.0,1.0,0.447581059299,1,0.0,0.0,1.0,0.264806038797,0.0694249554865,0.19538108331,0.334230994283,0.0694249554865,0.39438798263,189,1.0,-0.0802194643608,0.400143472992,-36.8698976458,126.869897646,-6.02072735416,180.0,1.0,-0.129278616986,0.331238955499,0.733726331033,85.2543659881,257.747734898,258.247770535,258.195315957,260.331387161,261.341113558,259.58128139,260.323055177
1,151,1,1,1.0,1.0,0.415372987743,0,0.0,0.0,0.0,0.266024538934,0.0707737163516,0.195250822582,0.336798255285,0.0707737163516,0.410227447438,358,-0.170583909915,0.474268316859,0.0585874414746,nan,nan,nan,nan,0.0,0.0,0.0,nan,85.2543659881,261.53988433,262.039925955,261.955257318,nan,nan,nan,nan
1,152,1,1,1.0,1.0,0.343221856281,0,0.0,0.0,0.0,0.267013601509,0.0715715306128,0.195442070896,0.338585132121,0.0715715306128,0.402058634441,215,0.910639861846,0.0628947364355,0.558695148714,nan,nan,nan,nan,0.0,0.0,0.0,nan,85.2543659881,262.540007778,263.040052538,262.883229634,nan,nan,nan,nan
1,153,1,1,1.0,1.0,0.271053333767,0,0.0,1.0,0.0,0.267514971606,0.0716012612305,0.195913710375,0.339116232836,0.0716012612305,0.343216059264,444,0.289241202529,0.417409780569,-1.0,nan,nan,nan,nan,0.0,0.0,0.0,nan,85.2543659881,263.540155458,264.040179121,263.811208792,nan,nan,nan,nan
1,154,1,1,1.0,1.0,0.278934007976,1,0.0,0.0,1.0,0.267538098156,0.0713674561443,0.196170642012,0.3389055543,0.0713674561443,0.297736399341,271,0.320642857732,0.312811632898,0.639400143054,-98.6308017885,188.630801789,-1.91607321145,268.0,0.35230222188,0.302367520405,0.645005310408,1.35046248557,85.2543659881,264.540267217,265.040305135,264.819201224,267.732309965,268.735413826,266.365469465,267.723980547
1,155,0,0,1.0,0.0,0.230611922685,0,0.0,0.0,0.0,0.26761209757,0.0711412548739,0.196470842696,0.338753352444,0.0711412548739,0.260199754809,488,0.647907709101,0.302951493728,-1.0,nan,nan,nan,nan,0.0,0.0,0.0,nan,85.2543659881,268.932527609,269.432560965,269.163139532,nan,nan,nan,nan
1,156,1,1,1.0,1.0,0.286466292571,0,0.0,0.0,0.0,0.267373386764,0.0709732441606,0.196400142604,0.338346630925,0.0709732441606,0.265337407744,334,-0.152796554809,0.454467054946,0.285576400052,nan,nan,nan,nan,0.0,0.0,0.0,nan,85.2543659881,269.932636231,270.432667877,270.219102524,nan,nan,nan,nan
1,157,1,1,1.0,1.0,0.238312984817,0,0.0,0.0,0.0,0.267495777186,0.0707618078032,0.196733969383,0.33825758499,0.0707618078032,0.251797066691,262,0.416452475899,0.2804144186,0.652815538838,nan,nan,nan,nan,0.0,0.0,0.0,nan,85.2543659881,270.932765666,271.432789614,271.171078651,nan,nan,nan,nan
1,158,1,1,1.0,1.0,0.254180674441,0,0.0,0.0,0.0,0.267309899528,0.0705742879209,0.196735611607,0.337884187449,0.0705742879209,0.259653317276,127,1.0,-0.31111021432,-0.167036648065,nan,nan,nan,nan,0.0,0.0,0.0,nan,85.2543659881,271.932885122,272.43291078,272.187065796,nan,nan,nan,nan
1,159,1,1,1.0,1.0,0.262092138641,0,0.0,0.0,0.0,0.267226803167,0.0703583015218,0.196868501645,0.337585104688,0.0703583015218,0.251528599299,255,0.492159363509,0.253017189294,0.656163111527,nan,nan,nan,nan,0.0,0.0,0.0,nan,85.2543659881,272.933020258,273.433042781,273.195112397,nan,nan,nan,nan
1,160,1,1,1.0,1.0,0.253872483503,0,0.0,0.0,0.0,0.267194509679,0.0701378746705,0.197056635009,0.33733238435,0.0701378746705,0.256715098862,423,0.135229581944,0.450080889006,-0.750039916123,nan,nan,nan,nan,0.0,0.0,0.0,nan,85.2543659881,273.933152258,274.433193028,274.187024742,nan,nan,nan,nan
1,161,1,1,1.0,1.0,0.245735506527,0,0.0,0.0,0.0,0.267111247015,0.0699262325516,0.197185014464,0.337037479567,0.0699262325516,0.25390004289,248,0.568115903494,0.223728204869,0.653295769881,nan,nan,nan,nan,0.0,0.0,0.0,nan,85.2543659881,274.933289106,275.433303075,275.179024612,nan,nan,nan,nan
1,162,1,1,1.0,1.0,0.253650962841,0,0.0,0.0,0.0,0.266978478441,0.0697289590282,0.197249519413,0.336707437469,0.0697289590282,0.251086317624,74,1.0,-0.159715158178,-0.810443278181,nan,nan,nan,nan,0.0,0.0,0.0,nan,85.2543659881,275.933403715,276.433422246,276.187054677,nan,nan,nan,nan
1,163,1,1,1.0,1.0,0.269465338904,0,0.0,0.0,0.0,0.266896209826,0.0695212504287,0.197374959397,0.336417460255,0.0695212504287,0.256283936091,354,-0.174470673547,0.472100788149,0.0988677247603,nan,nan,nan,nan,0.0,0.0,0.0,nan,85.2543659881,276.933522315,277.433554532,277.202987654,nan,nan,nan,nan
1,164,1,1,1.0,1.0,0.26132465573,0,0.0,0.0,0.0,0.266911971354,0.0693079573083,0.197604014046,0.336219928663,0.0693079573083,0.261480319158,436,0.228681708805,0.431413732101,-1.0,nan,nan,nan,nan,0.0,0.0,0.0,nan,85.2543659881,277.933642056,278.433690238,278.194966712,nan,nan,nan,nan
1,165,1,1,1.0,1.0,0.28513574088,0,0.0,0.0,0.0,0.266877902357,0.0690976985066,0.19778020385,0.335975600863,0.0690976985066,0.271975245172,95,1.0,-0.253175017597,-0.514975443931,nan,nan,nan,nan,0.0,0.0,0.0,nan,85.2543659881,278.933801141,279.433815396,279.218936882,nan,nan,nan,nan
1,166,1,1,1.0,1.0,0.268998919055,0,0.0,0.0,0.0,0.266988555923,0.0689025665333,0.19808598939,0.335891122457,0.0689025665333,0.271819771888,386,-0.0833946583454,0.477495592553,-0.245424736514,nan,nan,nan,nan,0.0,0.0,0.0,nan,85.2543659881,279.93392972,280.433939414,280.202928639,nan,nan,nan,nan
1,167,1,1,1.0,1.0,0.236874381546,0,0.0,0.0,0.0,0.267000666545,0.0686948913222,0.198305775222,0.335695557867,0.0686948913222,0.263669680494,468,0.481236483515,0.363131620867,-1.0,nan,nan,nan,nan,0.0,0.0,0.0,nan,85.2543659881,280.934026653,281.434083103,281.170901035,nan,nan,nan,nan
1,168,1,1,1.0,1.0,0.188737039454,0,0.0,0.0,0.0,0.266820269628,0.0685283359341,0.198291933694,0.335348605563,0.0685283359341,0.231536780018,129,1.0,-0.310070485259,-0.146368003411,nan,nan,nan,nan,0.0,0.0,0.0,nan,85.2543659881,281.934187449,282.434212822,282.122924488,nan,nan,nan,nan
1,169,1,1,1.0,1.0,0.196608875412,0,0.0,0.0,0.0,0.266355488496,0.068587573546,0.19776791495,0.334943062042,0.068587573546,0.207406765471,458,0.399688045963,0.388050214986,-1.0,nan,nan,nan,nan,0.0,0.0,0.0,nan,85.2543659881,282.934286663,283.434345678,283.130895538,nan,nan,nan,nan
1,170,1,1,1.0,1.0,0.22047897568,0,0.0,0.0,0.0,0.265942786644,0.068593247836,0.197349538808,0.33453603448,0.068593247836,0.201941630182,239,0.665069831863,0.183388857662,0.640549267122,nan,nan,nan,nan,0.0,0.0,0.0,nan,85.2543659881,283.934442326,284.434471976,284.154921302,nan,nan,nan,nan
1,171,1,1,1.0,1.0,0.252255123574,0,0.0,0.0,0.0,0.265675352462,0.0684795154497,0.197195837012,0.334154867911,0.0684795154497,0.223114324889,464,0.448404880525,0.373503555275,-1.0,nan,nan,nan,nan,0.0,0.0,0.0,nan,85.2543659881,284.934566059,285.434601981,285.186821182,nan,nan,nan,nan
1,172,1,1,1.0,1.0,0.244147511665,0,0.0,0.0,0.0,0.265596871591,0.0682866565216,0.19731021507,0.333883528113,0.0682866565216,0.238960536973,203,1.0,-0.00249325098487,0.493674673203,nan,nan,nan,nan,0.0,0.0,0.0,nan,85.2543659881,285.934675251,286.434724003,286.178822763,nan,nan,nan,nan
1,173,1,1,1.0,1.0,0.24402777059,0,0.0,0.0,0.0,0.26547216601,0.0681073850987,0.197364780911,0.333579551109,0.0681073850987,0.246810135276,442,0.273907262724,0.421095538958,-1.0,nan,nan,nan,nan,0.0,0.0,0.0,nan,85.2543659881,286.934791856,287.434820366,287.178819627,nan,nan,nan,nan
1,174,1,1,1.0,1.0,0.290445687715,0,0.0,0.0,0.0,0.265348209967,0.0679297128919,0.197418497075,0.333277922859,0.0679297128919,0.259540323323,292,0.112881669716,0.376069582356,0.569261850688,nan,nan,nan,nan,0.0,0.0,0.0,nan,85.2543659881,287.968308812,288.468288284,288.258754499,nan,nan,nan,nan
1,175,0,0,0.0,1.0,0.450334249064,0,0.0,0.0,0.0,0.265492448345,0.0677607947442,0.197731653601,0.333253243089,0.0677607947442,0.32826923579,197,1.0,-0.035797595552,0.455774741445,nan,nan,nan,nan,0.0,0.0,0.0,nan,85.2543659881,288.968423706,289.468441952,289.418757955,nan,nan,nan,nan
1,176,1,1,1.0,1.0,0.242236501072,0,0.0,0.0,0.0,0.266548687206,0.0689884734538,0.197560213753,0.33553716066,0.0689884734538,0.32767214595,384,-0.0924750057551,0.477945316949,-0.222479273925,nan,nan,nan,nan,0.0,0.0,0.0,nan,85.2543659881,289.968502108,290.468554851,290.210738609,nan,nan,nan,nan
1,177,1,1,1.0,1.0,0.218078166712,0,0.0,0.0,0.0,0.266410549785,0.0688164712186,0.197594078567,0.335227021004,0.0688164712186,0.303549638949,324,-0.114799643766,0.441158325109,0.368064040095,nan,nan,nan,nan,0.0,0.0,0.0,nan,85.2543659881,290.968637529,291.468675732,291.186715696,nan,nan,nan,nan
1,178,1,1,1.0,1.0,0.281915275846,0,0.0,0.0,0.0,0.266137485474,0.0687173529074,0.197420132567,0.334854838381,0.0687173529074,0.24740998121,503,0.773020196022,0.248538461814,-1.0,nan,nan,nan,nan,0.0,0.0,0.0,nan,85.2543659881,291.968790342,292.468807733,292.250705617,nan,nan,nan,nan
1,179,1,1,1.0,1.0,0.377795384265,0,0.0,0.0,0.0,0.266226124746,0.0685342013639,0.197691923382,0.33476032611,0.0685342013639,0.292596275608,457,0.391639248186,0.390358177281,-1.0,nan,nan,nan,nan,0.0,0.0,0.0,nan,85.2543659881,292.968895542,293.46893232,293.346690927,nan,nan,nan,nan
1,180,1,1,1.0,1.0,0.265640751459,0,0.0,0.0,0.0,0.266849416698,0.0688465584848,0.198002858214,0.335695975183,0.0688465584848,0.308450470523,345,-0.173519535469,0.465595146217,0.186119282857,nan,nan,nan,nan,0.0,0.0,0.0,nan,85.2543659881,293.969036666,294.469050351,294.234677418,nan,nan,nan,nan
1,181,1,1,1.0,1.0,0.28154978063,0,0.0,0.0,0.0,0.266842701891,0.0686551104708,0.198187591421,0.335497812362,0.0686551104708,0.308328638785,58,1.0,-0.0760896648475,-1.0,nan,nan,nan,nan,0.0,0.0,0.0,nan,85.2543659881,294.969160398,295.469182921,295.250710179,nan,nan,nan,nan
1,182,1,1,1.0,1.0,0.289324683137,0,0.0,0.0,0.0,0.26692395647,0.0684738712124,0.198450085258,0.335397827682,0.0684738712124,0.278838405075,111,1.0,-0.298677811705,-0.336106236365,nan,nan,nan,nan,0.0,0.0,0.0,nan,85.2543659881,295.969310645,296.469302948,296.258635328,nan,nan,nan,nan
1,183,1,1,1.0,1.0,0.281233036891,0,0.0,0.0,0.0,0.267047037386,0.0683055712447,0.198741466141,0.335352608631,0.0683055712447,0.284035833552,24,1.0,0.102019060141,-1.0,nan,nan,nan,nan,0.0,0.0,0.0,nan,85.2543659881,296.96941385,297.469440935,297.250646887,nan,nan,nan,nan
1,184,1,1,1.0,1.0,0.233090278227,0,0.0,0.0,0.0,0.267124556509,0.0681267156047,0.198997840904,0.335251272114,0.0681267156047,0.267882666085,211,0.948675772315,0.0413606888024,0.538689155053,nan,nan,nan,nan,0.0,0.0,0.0,nan,85.2543659881,297.969518766,298.46955697,298.202609044,nan,nan,nan,nan
1,185,0,0,1.0,0.0,0.240910510998,0,0.0,0.0,0.0,0.266939587605,0.0679873978567,0.198952189748,0.334926985462,0.0679873978567,0.251744608705,376,-0.124962824795,0.478704673615,-0.132627625282,nan,nan,nan,nan,0.0,0.0,0.0,nan,85.2543659881,298.969688115,299.469722896,299.210598626,nan,nan,nan,nan
1,186,1,1,1.0,1.0,0.136817589868,0,0.0,0.0,0.0,0.266798889894,0.067830254104,0.19896863579,0.334629143998,0.067830254104,0.203606126364,214,0.920243657418,0.0575410437433,0.553854850604,nan,nan,nan,nan,0.0,0.0,0.0,nan,85.2543659881,299.969811847,300.469853756,300.106629437,nan,nan,nan,nan
1,187,1,1,1.0,1.0,0.280654002912,0,0.0,0.0,0.0,0.2661000657,0.0683121719685,0.197787893731,0.334412237669,0.0683121719685,0.219460701259,153,1.0,-0.255547855702,0.0926213922694,nan,nan,nan,nan,0.0,0.0,0.0,nan,85.2543659881,300.96990821,301.469956677,301.250562213,nan,nan,nan,nan
1,188,1,1,1.0,1.0,0.296466098633,0,0.0,0.0,0.0,0.266177894241,0.0681375422617,0.19804035198,0.334315436503,0.0681375422617,0.237979230471,393,-0.0489456633786,0.475102171109,-0.327443230616,nan,nan,nan,nan,0.0,0.0,0.0,nan,85.2543659881,301.970059312,302.470074992,302.266525411,nan,nan,nan,nan
1,189,0,0,1.0,0.0,0.232317662798,0,0.0,0.0,0.0,0.266339001711,0.0679917864295,0.198347215282,0.334330788141,0.0679917864295,0.269812588114,288,0.150005133015,0.365331945294,0.586687239957,nan,nan,nan,nan,0.0,0.0,0.0,nan,85.2543659881,302.970205567,303.470230371,303.20252323,nan,nan,nan,nan
1,190,1,1,1.0,1.0,0.23220476415,0,0.0,0.0,0.0,0.266158994627,0.0678565767101,0.198302417917,0.334015571337,0.0678565767101,0.25366284186,484,0.614398947124,0.316112737715,-1.0,nan,nan,nan,nan,0.0,0.0,0.0,nan,85.2543659881,303.970321032,304.470322742,304.202525796,nan,nan,nan,nan
1,191,1,1,0.0,0.0,0.528016278055,0,0.0,0.0,0.0,0.265980288151,0.0677223494734,0.198257938678,0.333702637624,0.0677223494734,0.330846235001,284,0.188465149253,0.353984098999,0.602236276499,nan,nan,nan,nan,0.0,0.0,0.0,nan,85.2543659881,304.970451891,305.470493801,305.498468169,nan,nan,nan,nan
1,192,1,1,1.0,1.0,0.455885388423,0,0.0,1.0,0.0,0.267352204329,0.0701420968388,0.19721010749,0.337494301167,0.0701420968388,0.405368810209,399,-0.0164460389312,0.472031251936,-0.400274523968,nan,nan,nan,nan,0.0,0.0,0.0,nan,85.2543659881,305.970576765,306.470572203,306.426462153,nan,nan,nan,nan
1,193,1,1,1.0,1.0,0.319790806621,1,0.0,0.0,1.0,0.268334147996,0.071263272104,0.197070875892,0.3395974201,0.071263272104,0.4345641577,77,1.0,-0.174593022316,-0.756267193339,37.5041423603,52.4958576397,-1.64476736027,75.0,1.0,-0.164714458691,-0.791355921409,1.20046539372,85.2543659881,306.97068168,307.470713611,307.290472487,310.012713653,311.010673778,308.795875376,310.004377677
1,194,1,1,1.0,1.0,0.365486856084,0,0.0,0.0,0.0,0.268600762807,0.0711743545243,0.197426408283,0.339775117332,0.0711743545243,0.380387683709,368,-0.150457169737,0.477793263397,-0.0457341785459,nan,nan,nan,nan,0.0,0.0,0.0,nan,85.2543659881,311.212878838,311.712933292,311.578365694,nan,nan,nan,nan
1,195,1,1,1.0,1.0,0.333289618604,0,0.0,0.0,0.0,0.269100175659,0.0713289084159,0.197771267243,0.340429084075,0.0713289084159,0.339522427103,188,1.0,-0.0857393506835,0.392804289229,nan,nan,nan,nan,0.0,0.0,0.0,nan,85.2543659881,312.21301654,312.713038493,312.546306159,nan,nan,nan,nan
1,196,1,1,1.0,1.0,0.333203518763,0,0.0,1.0,0.0,0.26942935229,0.0712933596731,0.198135992617,0.340722711963,0.0712933596731,0.34399333115,475,0.539218753276,0.343659807328,-1.0,nan,nan,nan,nan,0.0,0.0,0.0,nan,85.2543659881,313.21313229,313.71317477,313.546335809,nan,nan,nan,nan
1,197,1,1,1.0,1.0,0.293052337132,1,0.0,0.0,1.0,0.26975473069,0.0712562673434,0.198498463347,0.341010998033,0.0712562673434,0.3198484915,385,-0.0879796604702,0.477733444059,-0.233926720364,-158.649019752,248.649019752,-22.0541052477,354.0,-0.174470673547,0.472100788149,0.0988677247603,1.00050718896,85.2543659881,314.213257163,314.713308766,314.5063095,317.046920544,318.046180716,316.030126002,317.038593978
1,198,1,1,1.0,1.0,0.283127226401,0,0.0,0.0,0.0,0.269872992652,0.0710944652135,0.198778527438,0.340967457865,0.0710944652135,0.303127694099,220,0.861731547614,0.0893272636146,0.581247684387,nan,nan,nan,nan,0.0,0.0,0.0,nan,85.2543659881,318.247117946,318.74714446,318.530245173,nan,nan,nan,nan
1,199,0,0,0.0,1.0,0.394950860646,0,0.0,0.0,0.0,0.269939933226,0.0709209303391,0.199019002887,0.340860863565,0.0709209303391,0.323710141393,486,0.631151757674,0.309603058574,-1.0,nan,nan,nan,nan,0.0,0.0,0.0,nan,85.2543659881,319.24727475,319.747302975,319.642225611,nan,nan,nan,nan
1,200,1,1,1.0,1.0,0.290845395066,0,0.0,0.0,0.0,0.270568128841,0.0712926348142,0.199275494027,0.341860763656,0.0712926348142,0.322974494038,158,1.0,-0.235949227405,0.139764106,nan,nan,nan,nan,0.0,0.0,0.0,nan,85.2543659881,320.247371683,320.747407606,320.538217078,nan,nan,nan,nan
1,201,1,1,1.0,1.0,0.306704245973,0,0.0,0.0,0.0,0.270669515172,0.071128560637,0.199540954535,0.341798075809,0.071128560637,0.330833500562,375,-0.128556699755,0.478682433309,-0.121605159467,nan,nan,nan,nan,0.0,0.0,0.0,nan,85.2543659881,321.247500263,321.747532194,321.554204509,nan,nan,nan,nan
1,202,1,1,1.0,1.0,0.338552524336,0,0.0,0.0,0.0,0.27084879244,0.070996687936,0.199852104504,0.341845480376,0.070996687936,0.312034055125,179,1.0,-0.13461441766,0.323204131591,nan,nan,nan,nan,0.0,0.0,0.0,nan,85.2543659881,322.247620859,322.747653075,322.586173383,nan,nan,nan,nan
1,203,1,1,1.0,1.0,0.354372316971,0,0.0,0.0,0.0,0.27118395943,0.0709799711162,0.200203988314,0.342163930546,0.0709799711162,0.33320969576,43,1.0,0.00424534395127,-1.0,nan,nan,nan,nan,0.0,0.0,0.0,nan,85.2543659881,323.247784505,323.747779944,323.602156822,nan,nan,nan,nan
1,204,1,1,1.0,1.0,0.338263434824,0,0.0,1.0,0.0,0.271593754294,0.0710440710096,0.200549683285,0.342637825304,0.0710440710096,0.343729425377,278,0.248285521772,0.335802812283,0.621962573991,nan,nan,nan,nan,0.0,0.0,0.0,nan,85.2543659881,324.247882864,324.747909378,324.586146299,nan,nan,nan,nan
1,205,1,1,1.0,1.0,0.370108006522,1,0.0,0.0,1.0,0.271920566454,0.0710225331214,0.200898033333,0.342943099575,0.0710225331214,0.354247919439,121,1.0,-0.310732805591,-0.229640808446,4.86994171628,85.1300582837,0.0519332837189,121.0,1.0,-0.310732805591,-0.229640808446,1.35877935961,85.2543659881,325.248009162,325.748032825,325.618117169,328.456716734,329.465174446,327.081541399,328.448373631
1,206,1,1,1.0,1.0,0.248815988656,0,0.0,0.0,0.0,0.272399529576,0.071178600109,0.201220929467,0.343578129685,0.071178600109,0.319062476667,241,0.64365311028,0.192605941253,0.644254782112,nan,nan,nan,nan,0.0,0.0,0.0,nan,85.2543659881,329.665225877,330.165266647,329.914041866,nan,nan,nan,nan
1,207,1,1,1.0,1.0,0.31265138695,0,0.0,0.0,0.0,0.272285046368,0.0710245435408,0.201260502827,0.343309589909,0.0710245435408,0.310525127376,125,1.0,-0.311567427947,-0.187805059354,nan,nan,nan,nan,0.0,0.0,0.0,nan,85.2543659881,330.665352176,331.165412331,330.978003563,nan,nan,nan,nan
1,208,1,1,1.0,1.0,0.248476437293,0,0.0,0.0,0.0,0.272480052844,0.0709080387469,0.201572014097,0.343388091591,0.0709080387469,0.269981270966,468,0.481236483515,0.363131620867,-1.0,nan,nan,nan,nan,0.0,0.0,0.0,nan,85.2543659881,331.665516392,332.165538345,331.91399283,nan,nan,nan,nan
1,209,1,1,1.0,1.0,0.296336093452,0,0.0,0.0,0.0,0.272364650846,0.0707568644738,0.201607786372,0.34312151532,0.0707568644738,0.285821305898,28,1.0,0.082066132397,-1.0,nan,nan,nan,nan,0.0,0.0,0.0,nan,85.2543659881,332.665642976,333.165655805,332.961979069,nan,nan,nan,nan
1,210,1,1,1.0,1.0,0.296192119364,0,0.0,0.0,0.0,0.272479346744,0.0706067662029,0.201872580541,0.343086112947,0.0706067662029,0.28033488337,236,0.697004556276,0.169301754335,0.634065852989,nan,nan,nan,nan,0.0,0.0,0.0,nan,85.2543659881,333.665769274,334.165780107,333.961961393,nan,nan,nan,nan
1,211,1,1,1.0,1.0,0.288057423197,0,0.0,0.0,0.0,0.272592264709,0.0704573678467,0.202134896862,0.343049632555,0.0704573678467,0.293528545337,76,1.0,-0.169674511773,-0.773365826749,nan,nan,nan,nan,0.0,0.0,0.0,nan,85.2543659881,334.665890726,335.16593178,334.953948149,nan,nan,nan,nan
1,212,0,0,0.0,1.0,0.423905965872,0,0.0,0.0,0.0,0.272665559299,0.0702982333861,0.202367325913,0.342963792685,0.0702982333861,0.336051836144,231,0.749609680972,0.145151270079,0.620821461523,nan,nan,nan,nan,0.0,0.0,0.0,nan,85.2543659881,335.666028713,336.166053516,336.089934679,nan,nan,nan,nan
1,213,1,1,1.0,1.0,0.287786010187,0,0.0,0.0,0.0,0.273378957443,0.0708937002279,0.202485257215,0.344272657671,0.0708937002279,0.333249799752,186,1.0,-0.0967386681424,0.377881386018,nan,nan,nan,nan,0.0,0.0,0.0,nan,85.2543659881,336.666145603,337.166177819,336.953931613,nan,nan,nan,nan
1,214,1,1,1.0,1.0,0.23163029179,0,0.0,0.0,0.0,0.273446596188,0.0707339436111,0.202712652577,0.344180539799,0.0707339436111,0.31444075595,6,0.895129075663,0.186272780825,-1.0,nan,nan,nan,nan,0.0,0.0,0.0,nan,85.2543659881,337.666267625,338.166310675,337.897897917,nan,nan,nan,nan
1,215,1,1,1.0,1.0,0.247480020393,0,0.0,0.0,0.0,0.273251192897,0.0706260842494,0.202625108647,0.343877277146,0.0706260842494,0.255632107457,388,-0.0739633693698,0.476941921698,-0.268577162136,nan,nan,nan,nan,0.0,0.0,0.0,nan,85.2543659881,338.666409318,339.166405612,338.913889339,nan,nan,nan,nan
1,216,1,1,1.0,1.0,0.239344469272,0,0.0,0.0,0.0,0.273131326978,0.0704834611112,0.202647865867,0.343614788089,0.0704834611112,0.239484927151,201,1.0,-0.0135712615467,0.48142235136,nan,nan,nan,nan,0.0,0.0,0.0,nan,85.2543659881,339.666524213,340.166539609,339.905868682,nan,nan,nan,nan
1,217,1,1,1.0,1.0,0.35117865121,0,0.0,0.0,0.0,0.272974906341,0.0703575096412,0.202617396699,0.343332415982,0.0703575096412,0.279334380291,132,1.0,-0.307426825298,-0.115555361894,nan,nan,nan,nan,0.0,0.0,0.0,nan,85.2543659881,340.666626563,341.166681872,341.017805215,nan,nan,nan,nan
1,218,1,1,1.0,1.0,0.303104315884,0,0.0,0.0,0.0,0.273335292262,0.0703947507132,0.202940541548,0.343730042975,0.0703947507132,0.297875812122,479,0.572572153349,0.331768222426,-1.0,nan,nan,nan,nan,0.0,0.0,0.0,nan,85.2543659881,341.666795626,342.166797907,341.969899942,nan,nan,nan,nan
1,219,1,1,1.0,1.0,0.286958085839,0,0.0,0.0,0.0,0.273471847416,0.0702619107741,0.203209936642,0.34373375819,0.0702619107741,0.313747017644,192,1.0,-0.0635997558896,0.421658406928,nan,nan,nan,nan,0.0,0.0,0.0,nan,85.2543659881,342.666888283,343.166934754,342.953846369,nan,nan,nan,nan
1,220,1,1,1.0,1.0,0.246761003975,0,0.0,0.0,0.0,0.273533428413,0.0701072081559,0.203426220257,0.343640636569,0.0701072081559,0.278941135233,250,0.546428449327,0.232286661223,0.654747725831,nan,nan,nan,nan,0.0,0.0,0.0,nan,85.2543659881,343.667027696,344.167052214,343.9137887,nan,nan,nan,nan
1,221,0,0,0.0,1.0,0.414609496016,0,0.0,0.0,0.0,0.273411735575,0.0699708713373,0.203440864238,0.343382606912,0.0699708713373,0.31610952861,474,0.530901762182,0.346545376391,-1.0,nan,nan,nan,nan,0.0,0.0,0.0,nan,85.2543659881,344.667179083,345.16720132,345.081788579,nan,nan,nan,nan
1,222,1,1,1.0,1.0,0.198453743476,0,0.0,0.0,0.0,0.274050639468,0.0704526290454,0.203598010423,0.344503268514,0.0704526290454,0.286608081156,206,0.994723455659,0.014051917983,0.511316161583,nan,nan,nan,nan,0.0,0.0,0.0,nan,85.2543659881,345.667300534,346.167337312,345.865754278,nan,nan,nan,nan
1,223,1,1,1.0,1.0,0.254330065567,0,0.0,0.0,0.0,0.27371011291,0.0704758206425,0.203234292267,0.344185933552,0.0704758206425,0.289131101687,288,0.150005133015,0.365331945294,0.586687239957,nan,nan,nan,nan,0.0,0.0,0.0,nan,85.2543659881,346.667412293,347.167435956,346.921742358,nan,nan,nan,nan
1,224,1,1,1.0,1.0,0.326157326344,0,0.0,0.0,0.0,0.273623206868,0.0703295468125,0.203293660055,0.34395275368,0.0703295468125,0.259647045129,128,1.0,-0.310663006781,-0.156689791083,nan,nan,nan,nan,0.0,0.0,0.0,nan,85.2543659881,347.667553131,348.167571947,347.993710457,nan,nan,nan,nan
1,225,1,1,1.0,1.0,0.318014932331,0,0.0,0.0,0.0,0.273857734187,0.0702597280554,0.203598006132,0.344117462242,0.0702597280554,0.299500774747,217,0.891250405156,0.0735373331823,0.568048345461,nan,nan,nan,nan,0.0,0.0,0.0,nan,85.2543659881,348.667684846,349.167717347,348.985699778,nan,nan,nan,nan
1,226,1,1,1.0,1.0,0.309917869046,0,0.0,0.0,0.0,0.274053988401,0.0701649287091,0.203889059692,0.34421891711,0.0701649287091,0.318030042574,410,0.0492046846968,0.463921527344,-0.54316189137,nan,nan,nan,nan,0.0,0.0,0.0,nan,85.2543659881,349.667775222,350.167817987,349.977693091,nan,nan,nan,nan
1,227,1,1,1.0,1.0,0.44576983247,0,0.0,1.0,0.0,0.274212678138,0.0700499790407,0.204162699098,0.344262657179,0.0700499790407,0.357900877949,3,0.871087178923,0.199335109687,-1.0,nan,nan,nan,nan,0.0,0.0,0.0,nan,85.2543659881,350.667898955,351.16793003,351.113668787,nan,nan,nan,nan
1,228,1,1,1.0,1.0,0.381296385545,1,0.0,0.0,1.0,0.274968436527,0.0708129042851,0.204155532242,0.345781340812,0.0708129042851,0.378994695687,330,-0.139766326074,0.449518327743,0.319540245599,-134.309722802,224.309722802,-7.72152719787,319.0,-0.0891891826932,0.433308674125,0.406137099325,1.64203174366,85.2543659881,351.676355526,352.176420528,352.057651912,355.160116354,356.156347646,353.501593127,355.151780094
1,229,1,1,1.0,1.0,0.361249161884,0,0.0,0.0,0.0,0.275434787181,0.0710059346868,0.204428852494,0.346440721868,0.0710059346868,0.396105126633,238,0.675741828754,0.178727669763,0.638511091232,nan,nan,nan,nan,0.0,0.0,0.0,nan,85.2543659881,356.360313471,356.860334853,356.721562633,nan,nan,nan,nan
1,230,0,0,0.0,1.0,0.417132896837,0,0.0,0.0,0.0,0.275809522442,0.0710763197253,0.204733202716,0.346885842167,0.0710763197253,0.386559481422,156,1.0,-0.244060613314,0.121041471254,nan,nan,nan,nan,0.0,0.0,0.0,nan,85.2543659881,357.360432357,357.860483389,357.777565253,nan,nan,nan,nan
1,231,1,1,1.0,1.0,0.179312560707,0,0.0,0.0,0.0,0.276423971896,0.0715285761918,0.204895395704,0.347952548087,0.0715285761918,0.319231539809,335,-0.155595990888,0.455627721073,0.276893227044,nan,nan,nan,nan,0.0,0.0,0.0,nan,85.2543659881,358.37422824,358.87728734,358.553540801,nan,nan,nan,nan
1,232,1,1,1.0,1.0,0.240206604358,0,0.0,0.0,0.0,0.276003576176,0.0716577773524,0.204345798824,0.347661353529,0.0716577773524,0.278884020634,502,0.764740937618,0.25241357569,-1.0,nan,nan,nan,nan,0.0,0.0,0.0,nan,85.2543659881,359.377365172,359.877414494,359.617571776,nan,nan,nan,nan
1,233,1,1,1.0,1.0,0.271962510888,0,0.0,0.0,0.0,0.275849278884,0.0715416221854,0.204307656698,0.347390901069,0.0715416221854,0.230493891984,58,1.0,-0.0760896648475,-1.0,nan,nan,nan,nan,0.0,0.0,0.0,nan,85.2543659881,360.377513423,360.877518554,360.649475934,nan,nan,nan,nan
1,234,1,1,1.0,1.0,0.367863716092,0,0.0,0.0,0.0,0.275832597476,0.0713883864778,0.204444210998,0.347220983954,0.0713883864778,0.293344277112,289,0.140592130943,0.368073254824,0.582505265782,nan,nan,nan,nan,0.0,0.0,0.0,nan,85.2543659881,361.377604654,361.877639721,361.74546837,nan,nan,nan,nan
1,235,1,1,1.0,1.0,0.391724123154,0,0.0,0.0,0.0,0.276225892855,0.0714882045453,0.20473768831,0.3477140974,0.0714882045453,0.343850116711,83,1.0,-0.203097876184,-0.665876706514,nan,nan,nan,nan,0.0,0.0,0.0,nan,85.2543659881,362.377731523,362.8777817,362.769455646,nan,nan,nan,nan
1,236,1,1,1.0,1.0,0.295574027579,0,0.0,1.0,0.0,0.276717374686,0.0717310256317,0.204986349054,0.348448400318,0.0717310256317,0.351720622275,354,-0.174470673547,0.472100788149,0.0988677247603,nan,nan,nan,nan,0.0,0.0,0.0,nan,85.2543659881,363.377858676,363.877923964,363.673432704,nan,nan,nan,nan
1,237,1,1,1.0,1.0,0.231476624496,1,0.0,0.0,1.0,0.276797275757,0.0715893709462,0.205207904811,0.348386646704,0.0715893709462,0.30625825841,442,0.273907262724,0.421095538958,-1.0,168.640886611,281.359113389,-29.4221366114,400.0,-0.0107874812989,0.471427301814,-0.412692688905,0.717040125746,85.2543659881,364.377992672,364.87803002,364.609469296,366.93661021,367.934122446,366.203186938,366.928280792
1,238,1,1,1.0,1.0,0.312572414521,0,0.0,0.0,0.0,0.276606049381,0.0714985547813,0.205107494599,0.348104604162,0.0714985547813,0.279874355532,133,1.0,-0.306259573676,-0.105336427414,nan,nan,nan,nan,0.0,0.0,0.0,nan,85.2543659881,368.136793357,368.636849806,368.449365771,nan,nan,nan,nan
1,239,1,1,1.0,1.0,0.232368980534,0,0.0,0.0,0.0,0.276757168562,0.0713861088223,0.20537105974,0.348143277384,0.0713861088223,0.258806006517,373,-0.135407706169,0.478559568072,-0.0996974893599,nan,nan,nan,nan,0.0,0.0,0.0,nan,85.2543659881,369.136960139,369.636985227,369.36932912,nan,nan,nan,nan
1,240,1,1,1.0,1.0,0.296271661762,0,0.0,0.0,0.0,0.276571443926,0.0712942069292,0.205277236997,0.347865650855,0.0712942069292,0.280404352273,118,1.0,-0.308588151016,-0.261285249573,nan,nan,nan,nan,0.0,0.0,0.0,nan,85.2543659881,370.137049945,370.637089573,370.433321606,nan,nan,nan,nan
1,241,1,1,1.0,1.0,0.304070227314,0,0.0,0.0,0.0,0.276653528167,0.0711568386139,0.205496689553,0.347810366781,0.0711568386139,0.27757028987,28,1.0,0.082066132397,-1.0,nan,nan,nan,nan,0.0,0.0,0.0,nan,85.2543659881,371.13722528,371.637247803,371.441295507,nan,nan,nan,nan
1,242,1,1,1.0,1.0,0.351952122059,0,0.0,0.0,0.0,0.276767290404,0.0710309242447,0.205736366159,0.347798214649,0.0710309242447,0.317431337045,248,0.568115903494,0.223728204869,0.653295769881,nan,nan,nan,nan,0.0,0.0,0.0,nan,85.2543659881,372.137334757,372.637348157,372.48928688,nan,nan,nan,nan
1,243,1,1,1.0,1.0,0.383833470754,0,0.0,0.0,0.0,0.277077971527,0.0710479095829,0.206030061944,0.348125881109,0.0710479095829,0.346618606709,403,0.00657627305109,0.469456436931,-0.450524507496,nan,nan,nan,nan,0.0,0.0,0.0,nan,85.2543659881,373.137445661,373.637470464,373.521279132,nan,nan,nan,nan
1,244,1,1,1.0,1.0,0.495692742057,0,0.0,1.0,0.0,0.277517294569,0.0712301884041,0.206287106165,0.348747482973,0.0712301884041,0.41049277829,204,1.0,0.00303256528985,0.499654420455,nan,nan,nan,nan,0.0,0.0,0.0,nan,85.2543659881,374.137569108,374.654259305,374.63326185,nan,nan,nan,nan
1,245,1,1,1.0,1.0,0.335510530509,1,0.0,0.0,1.0,0.278411456239,0.0724377686166,0.205973687622,0.350849224855,0.0724377686166,0.405012247774,424,0.142174562463,0.448819569244,-0.770229420881,176.516728531,273.483271469,-24.641728531,389.0,-0.0691208065164,0.476626077068,-0.280234315682,0.675362245645,85.2543659881,375.137726482,375.637718784,375.473237013,377.654642761,378.651143185,376.96289794,377.646315339
1,246,1,1,1.0,1.0,0.282325816806,0,0.0,0.0,0.0,0.278644513685,0.0723813933561,0.206263120329,0.351025907041,0.0723813933561,0.371176363124,19,0.99625917486,0.126374530333,-1.0,nan,nan,nan,nan,0.0,0.0,0.0,nan,85.2543659881,378.854839878,379.354866392,379.137165694,nan,nan,nan,nan
1,247,1,1,1.0,1.0,0.250169633422,0,0.0,0.0,0.0,0.278659478332,0.0722345066637,0.206424971668,0.350893984995,0.0722345066637,0.289335326913,340,-0.166837174664,0.460980112934,0.232376404312,nan,nan,nan,nan,0.0,0.0,0.0,nan,85.2543659881,379.854960474,380.354993831,380.105130108,nan,nan,nan,nan
1,248,1,1,1.0,1.0,0.197256903164,0,0.0,0.0,0.0,0.27854413483,0.0721108311834,0.206433303646,0.350654966013,0.0721108311834,0.243250784464,455,0.375608248681,0.394875365091,-1.0,nan,nan,nan,nan,0.0,0.0,0.0,nan,85.2543659881,380.915861075,381.421832164,381.113117978,nan,nan,nan,nan
1,249,1,1,1.0,1.0,0.295549224131,0,0.0,0.0,0.0,0.278216363734,0.0721494318489,0.206066931886,0.350365795583,0.0721494318489,0.247658586906,292,0.112881669716,0.376069582356,0.569261850688,nan,nan,nan,nan,0.0,0.0,0.0,nan,85.2543659881,381.913564042,382.413591412,382.209113266,nan,nan,nan,nan
1,250,1,1,1.0,1.0,0.311416058335,0,0.0,0.0,0.0,0.278285973616,0.0720127518133,0.206273221802,0.350298725429,0.0720127518133,0.268074061877,503,0.773020196022,0.248538461814,-1.0,nan,nan,nan,nan,0.0,0.0,0.0,nan,85.2543659881,382.91367466,383.413712008,383.225090718,nan,nan,nan,nan
1,251,0,0,0.0,1.0,0.359221260995,0,0.0,0.0,0.0,0.278418493954,0.0718989980907,0.206519495864,0.350317492045,0.0718989980907,0.322062181154,353,-0.175041255135,0.471490071959,0.108799216003,nan,nan,nan,nan,0.0,0.0,0.0,nan,85.2543659881,383.913859119,384.41387708,384.27308038,nan,nan,nan,nan
1,252,1,1,1.0,1.0,0.263090266846,0,0.0,0.0,0.0,0.278740417329,0.0719359375379,0.206804479791,0.350676354867,0.0719359375379,0.311242528725,32,1.0,0.061735800531,-1.0,nan,nan,nan,nan,0.0,0.0,0.0,nan,85.2543659881,384.91395035,385.414013927,385.177040617,nan,nan,nan,nan
1,253,1,1,1.0,1.0,0.28695523506,0,0.0,0.0,0.0,0.278678313557,0.0717998074386,0.206878506119,0.350478120996,0.0717998074386,0.303088920967,501,0.7564492333,0.256253544744,-1.0,nan,nan,nan,nan,0.0,0.0,0.0,nan,85.2543659881,385.914078644,386.414113711,386.201033879,nan,nan,nan,nan
1,254,1,1,1.0,1.0,0.374801001977,0,0.0,0.0,0.0,0.278711028662,0.071659652001,0.207051376661,0.350370680663,0.071659652001,0.308282167961,112,1.0,-0.300501516081,-0.325324861792,nan,nan,nan,nan,0.0,0.0,0.0,nan,85.2543659881,386.914222333,387.414222904,387.289023335,nan,nan,nan,nan
1,255,1,1,1.0,1.0,0.32664370304,0,0.0,0.0,0.0,0.279089335644,0.0717711443744,0.207318191269,0.350860480018,0.0717711443744,0.329466646692,490,0.664660387652,0.296157848571,-1.0,nan,nan,nan,nan,0.0,0.0,0.0,nan,85.2543659881,387.914355189,388.414366308,388.240998892,nan,nan,nan,nan
1,256,1,1,1.0,1.0,0.430501988623,0,0.0,1.0,0.0,0.279275823359,0.0716919124549,0.207583910904,0.350967735814,0.0716919124549,0.377315564547,221,0.851781464038,0.0945411604707,0.585422935822,nan,nan,nan,nan,0.0,0.0,0.0,nan,85.2543659881,388.914482343,389.414476356,389.344984331,nan,nan,nan,nan
1,257,1,1,1.0,1.0,0.278391466942,1,0.0,0.0,1.0,0.279866550567,0.0721708922743,0.207695658293,0.352037442841,0.0721708922743,0.345179052868,343,-0.171388175652,0.463836419185,0.204822810802,-154.526165048,244.526165048,3.35429004818,348.0,-0.175384772129,0.468017843042,0.157582163916,0.783706260379,85.2543659881,389.914582982,390.414609211,390.192974449,392.539874922,393.548882588,391.739778103,392.531538947
1,258,1,1,1.0,1.0,0.244576869532,0,0.0,0.0,0.0,0.279860810942,0.0720304036669,0.207830407275,0.351891214609,0.0720304036669,0.317823441699,262,0.416452475899,0.2804144186,0.652815538838,nan,nan,nan,nan,0.0,0.0,0.0,nan,85.2543659881,393.748388342,394.248435669,393.992965212,nan,nan,nan,nan
1,259,1,1,1.0,1.0,0.308373494074,0,0.0,0.0,0.0,0.279724051479,0.0719240972541,0.207799954225,0.351648148733,0.0719240972541,0.277113943516,318,-0.0835627602325,0.431640264478,0.413481556053,nan,nan,nan,nan,0.0,0.0,0.0,nan,85.2543659881,394.748524619,395.248559971,395.056898113,nan,nan,nan,nan
1,260,1,1,1.0,1.0,0.316181753296,0,0.0,0.0,0.0,0.279834667088,0.0718070981173,0.20802756897,0.351641765205,0.0718070981173,0.289710705634,128,1.0,-0.310663006781,-0.156689791083,nan,nan,nan,nan,0.0,0.0,0.0,nan,85.2543659881,395.748676576,396.248691116,396.064858329,nan,nan,nan,nan
1,261,1,1,1.0,1.0,0.380069324281,0,0.0,0.0,0.0,0.279974463573,0.0717041785754,0.208270284998,0.351678642149,0.0717041785754,0.334874857217,395,-0.0383984177995,0.474183508328,-0.351427224487,nan,nan,nan,nan,0.0,0.0,0.0,nan,85.2543659881,396.748787194,397.248811428,397.128856518,nan,nan,nan,nan
1,262,1,1,1.0,1.0,0.419916021638,0,0.0,1.0,0.0,0.280357968787,0.0718333478088,0.208524620978,0.352191316595,0.0718333478088,0.372055699738,502,0.764740937618,0.25241357569,-1.0,nan,nan,nan,nan,0.0,0.0,0.0,nan,85.2543659881,397.748912352,398.248947704,398.168828374,nan,nan,nan,nan
1,263,1,1,1.0,1.0,0.451440143399,1,0.0,0.0,1.0,0.28089063311,0.0722107260145,0.208679907096,0.353101359125,0.0722107260145,0.417141829773,340,-0.166837174664,0.460980112934,0.232376404312,-150.543679227,240.543679227,1.4811792267,342.0,-0.170052622031,0.462913557708,0.21407524247,1.68381368509,85.2543659881,398.757372915,399.257399144,399.208813058,402.282780263,403.283156592,400.582591129,402.274448564
1,264,1,1,1.0,1.0,0.277777365874,0,0.0,0.0,0.0,0.281539110336,0.0728336414585,0.208705468877,0.354372751794,0.0728336414585,0.383044510304,181,1.0,-0.123914391386,0.3392011262,nan,nan,nan,nan,0.0,0.0,0.0,nan,85.2543659881,403.482963695,403.983011591,403.760741061,nan,nan,nan,nan
1,265,1,1,1.0,1.0,0.261658505071,0,0.0,0.0,0.0,0.281524861304,0.0726959353521,0.208828925952,0.354220796656,0.0726959353521,0.330292004781,317,-0.077772836126,0.429938605076,0.420733606481,nan,nan,nan,nan,0.0,0.0,0.0,nan,85.2543659881,404.483087712,404.983138175,404.744746218,nan,nan,nan,nan
1,266,1,1,1.0,1.0,0.301466144156,0,0.0,0.0,0.0,0.281449893922,0.0725688670497,0.208881026872,0.354018760971,0.0725688670497,0.2803006717,86,1.0,-0.21659106269,-0.625617802914,nan,nan,nan,nan,0.0,0.0,0.0,nan,85.2543659881,405.48322513,405.983256775,405.784691274,nan,nan,nan,nan
1,267,1,1,1.0,1.0,0.31729163928,0,0.0,0.0,0.0,0.281525142983,0.072442688451,0.209082454532,0.353967831434,0.072442688451,0.293472096169,240,0.654373017221,0.188015059697,0.642463954019,nan,nan,nan,nan,0.0,0.0,0.0,nan,85.2543659881,406.483378227,406.983397614,406.800669866,nan,nan,nan,nan
1,268,1,1,1.0,1.0,0.325176875107,0,0.0,0.0,0.0,0.281659099898,0.0723398998991,0.209319199999,0.353998999797,0.0723398998991,0.314644886181,82,1.0,-0.198479155091,-0.679872484948,nan,nan,nan,nan,0.0,0.0,0.0,nan,85.2543659881,407.483476015,407.983516214,407.80865289,nan,nan,nan,nan
1,269,0,0,0.0,1.0,0.388985188678,0,0.0,0.0,0.0,0.281821479656,0.0722535453012,0.209567934355,0.354075024957,0.0722535453012,0.343817901021,510,0.830554458933,0.220436700166,-1.0,nan,nan,nan,nan,0.0,0.0,0.0,nan,85.2543659881,408.483656197,408.983665606,408.872641386,nan,nan,nan,nan
1,270,1,1,1.0,1.0,0.300884259399,0,0.0,0.0,0.0,0.282219857756,0.0724133995682,0.209806458188,0.354633257325,0.0724133995682,0.338348774395,227,0.791019951953,0.125257787881,0.608066708266,nan,nan,nan,nan,0.0,0.0,0.0,nan,85.2543659881,409.48373574,409.983796465,409.784619999,nan,nan,nan,nan
1,271,1,1,1.0,1.0,0.348748192191,0,0.0,0.0,0.0,0.28228898517,0.072288067947,0.210000917223,0.354577053117,0.072288067947,0.346205880089,325,-0.119404900653,0.442631039184,0.360186421743,nan,nan,nan,nan,0.0,0.0,0.0,nan,85.2543659881,410.483851775,410.983899956,410.832599967,nan,nan,nan,nan
1,272,1,1,1.0,1.0,0.364574827719,0,0.0,0.0,0.0,0.282534222096,0.0722670073491,0.210267214747,0.354801229445,0.0722670073491,0.338069093103,54,1.0,-0.0546292063271,-1.0,nan,nan,nan,nan,0.0,0.0,0.0,nan,85.2543659881,411.484026825,411.98402654,411.848601652,nan,nan,nan,nan
1,273,1,1,1.0,1.0,0.348455966916,0,0.0,0.0,0.0,0.28283584197,0.0723047302137,0.210531111756,0.355140572184,0.0723047302137,0.353926328942,295,0.0860222946478,0.38372732295,0.554986075565,nan,nan,nan,nan,0.0,0.0,0.0,nan,85.2543659881,412.484112354,412.984168233,412.832568321,nan,nan,nan,nan
1,274,1,1,1.0,1.0,0.340285633691,0,0.0,0.0,0.0,0.283076208728,0.0722809729033,0.210795235825,0.355357181631,0.0722809729033,0.351105476109,46,1.0,-0.0117313672748,-1.0,nan,nan,nan,nan,0.0,0.0,0.0,nan,85.2543659881,413.484279136,413.984276855,413.82456477,nan,nan,nan,nan
1,275,0,0,0.0,1.0,0.412124868482,0,0.0,0.0,0.0,0.28328500225,0.0722313833848,0.211053618865,0.355516385634,0.0722313833848,0.366955489696,490,0.664660387652,0.296157848571,-1.0,nan,nan,nan,nan,0.0,0.0,0.0,nan,85.2543659881,414.484398307,414.984431949,414.896523175,nan,nan,nan,nan
1,276,1,1,1.0,1.0,0.275991227943,0,0.0,0.0,0.0,0.283753510854,0.0725158159767,0.211237694877,0.356269326831,0.0725158159767,0.342800576705,26,1.0,0.0920921692153,-1.0,nan,nan,nan,nan,0.0,0.0,0.0,nan,85.2543659881,415.484529452,415.984542281,415.76052068,nan,nan,nan,nan
1,277,1,1,1.0,1.0,0.267873923294,0,0.0,0.0,0.0,0.283725386641,0.0723858300347,0.211339556606,0.356111216675,0.0723858300347,0.318663339907,199,1.0,-0.0246761787097,0.468786302982,nan,nan,nan,nan,0.0,0.0,0.0,nan,85.2543659881,416.484632087,416.984668009,416.75250601,nan,nan,nan,nan
1,278,1,1,1.0,1.0,0.251717429142,0,0.0,0.0,0.0,0.283668161141,0.0722613057466,0.211406855395,0.355929466888,0.0722613057466,0.26519419346,255,0.492159363509,0.253017189294,0.656163111527,nan,nan,nan,nan,0.0,0.0,0.0,nan,85.2543659881,417.484756675,417.984795733,417.736474104,nan,nan,nan,nan
1,279,1,1,1.0,1.0,0.347598107997,0,0.0,0.0,0.0,0.283553230451,0.0721565807019,0.211396649749,0.355709811152,0.0721565807019,0.289063153478,376,-0.124962824795,0.478704673615,-0.132627625282,nan,nan,nan,nan,0.0,0.0,0.0,nan,85.2543659881,418.484878412,418.984927163,418.83247652,nan,nan,nan,nan
1,280,1,1,1.0,1.0,0.347451282199,0,0.0,0.0,0.0,0.283782781983,0.0721287702348,0.211654011748,0.355911552218,0.0721287702348,0.31558893978,27,1.0,0.0870912575778,-1.0,nan,nan,nan,nan,0.0,0.0,0.0,nan,85.2543659881,419.48501868,419.985073419,419.832469962,nan,nan,nan,nan
1,281,1,1,1.0,1.0,0.347291057464,0,0.0,0.0,0.0,0.284010169484,0.0720999628434,0.21191020664,0.356110132327,0.0720999628434,0.347446815887,131,1.0,-0.308451667147,-0.125800503078,nan,nan,nan,nan,0.0,0.0,0.0,nan,85.2543659881,420.485145548,420.985182041,420.832436606,nan,nan,nan,nan
1,282,1,1,1.0,1.0,0.379121944308,0,0.0,1.0,0.0,0.284235368373,0.0720701398121,0.212165228561,0.356305508186,0.0720701398121,0.357954761324,471,0.506014005179,0.354993781952,-1.0,nan,nan,nan,nan,0.0,0.0,0.0,nan,85.2543659881,421.485272702,421.985293799,421.864394646,nan,nan,nan,nan
1,283,1,1,1.0,1.0,0.418997436296,1,0.0,0.0,1.0,0.284571845593,0.0721630112636,0.212408834329,0.356734856857,0.0721630112636,0.381803479356,332,-0.146647089803,0.45205423783,0.302714191958,-146.879312781,236.879312781,3.44181278127,337.0,-0.160643365934,0.457858386897,0.259303564052,1.09208887769,85.2543659881,422.485400426,422.985430646,422.904397862,425.419057877,426.417537165,424.310599253,425.410735302
1,284,1,1,1.0,1.0,0.253108991776,0,0.0,0.0,0.0,0.28504684768,0.072475692084,0.212571155596,0.357522539764,0.072475692084,0.35040945746,107,1.0,-0.290089771429,-0.379592780214,nan,nan,nan,nan,0.0,0.0,0.0,nan,85.2543659881,426.619241879,427.119288065,426.872350871,nan,nan,nan,nan
1,285,1,1,1.0,1.0,0.308959370479,0,0.0,0.0,0.0,0.284934390441,0.0723727118853,0.212561678556,0.357307102327,0.0723727118853,0.32702193285,28,1.0,0.082066132397,-1.0,nan,nan,nan,nan,0.0,0.0,0.0,nan,85.2543659881,427.619368748,428.119426338,427.928328118,nan,nan,nan,nan
1,286,0,0,0.0,1.0,0.356773695908,0,0.0,0.0,0.0,0.285018688617,0.0722595966136,0.212759092003,0.35727828523,0.0722595966136,0.306280686054,325,-0.119404900653,0.442631039184,0.360186421743,nan,nan,nan,nan,0.0,0.0,0.0,nan,85.2543659881,428.619524126,429.119562044,428.976297822,nan,nan,nan,nan
1,287,1,1,1.0,1.0,0.260689742863,0,0.0,0.0,0.0,0.285269580251,0.0722574028831,0.213012177368,0.357526983134,0.0722574028831,0.308807603084,269,0.34171296506,0.305888347675,0.643262349404,nan,nan,nan,nan,0.0,0.0,0.0,nan,85.2543659881,429.619637595,430.119676939,429.880327338,nan,nan,nan,nan
1,288,1,1,1.0,1.0,0.340482066385,0,0.0,0.0,0.0,0.285183936218,0.0721459489813,0.213037987237,0.357329885199,0.0721459489813,0.319315168386,495,0.706485112283,0.278551693791,-1.0,nan,nan,nan,nan,0.0,0.0,0.0,nan,85.2543659881,430.61975363,431.119799246,430.960235696,nan,nan,nan,nan
1,289,1,1,1.0,1.0,0.348343353253,0,0.0,0.0,0.0,0.285375943614,0.0720940059167,0.213281937698,0.357469949531,0.0720940059167,0.316505054167,278,0.248285521772,0.335802812283,0.621962573991,nan,nan,nan,nan,0.0,0.0,0.0,nan,85.2543659881,431.619885345,432.119921552,431.968228699,nan,nan,nan,nan
1,290,0,0,0.0,1.0,0.468148015905,0,0.0,0.0,0.0,0.285593823925,0.0720640894542,0.21352973447,0.357657913379,0.0720640894542,0.385657811848,227,0.791019951953,0.125257787881,0.608066708266,nan,nan,nan,nan,0.0,0.0,0.0,nan,85.2543659881,432.6200584,433.12007351,433.088206416,nan,nan,nan,nan
1,291,1,1,1.0,1.0,0.300051203463,0,0.0,0.0,0.0,0.286223321138,0.0727313300949,0.213491991043,0.358954651233,0.0727313300949,0.37218085754,294,0.0948761993654,0.381212130724,0.559858230992,nan,nan,nan,nan,0.0,0.0,0.0,nan,85.2543659881,433.620149631,434.120178426,433.920200835,nan,nan,nan,nan
1,292,0,0,0.0,1.0,0.395881704986,0,0.0,0.0,0.0,0.286270839634,0.0726107638941,0.21366007574,0.358881603528,0.0726107638941,0.388026974785,133,1.0,-0.306259573676,-0.105336427414,nan,nan,nan,nan,0.0,0.0,0.0,nan,85.2543659881,434.620301303,435.120333804,435.016183008,nan,nan,nan,nan
1,293,1,1,1.0,1.0,0.211751561146,0,0.0,0.0,0.0,0.28664621931,0.0727686190174,0.213877600293,0.359414838327,0.0727686190174,0.302561489865,217,0.891250405156,0.0735373331823,0.568048345461,nan,nan,nan,nan,0.0,0.0,0.0,nan,85.2543659881,435.620412776,436.120465804,435.832164337,nan,nan,nan,nan
1,294,0,0,0.0,1.0,0.39560259413,0,0.0,0.0,0.0,0.286390606142,0.0727755318499,0.213615074292,0.359166137992,0.0727755318499,0.334411953421,100,1.0,-0.270427092546,-0.457439896749,nan,nan,nan,nan,0.0,0.0,0.0,nan,85.2543659881,436.620549908,437.120586116,437.016152503,nan,nan,nan,nan
1,295,1,1,1.0,1.0,0.275470069144,0,0.0,0.0,0.0,0.286762075489,0.0729293795481,0.213832695941,0.359691455037,0.0729293795481,0.294274741473,256,0.481312611765,0.257047908656,0.656065722404,nan,nan,nan,nan,0.0,0.0,0.0,nan,85.2543659881,437.620661097,438.12068761,437.896131166,nan,nan,nan,nan
1,296,1,1,1.0,1.0,0.314941007178,0,0.0,0.0,0.0,0.286723797502,0.0728086237942,0.213915173707,0.359532421296,0.0728086237942,0.328671223484,38,1.0,0.0306259494545,-1.0,nan,nan,nan,nan,0.0,0.0,0.0,nan,85.2543659881,438.629146748,439.129176398,438.944087755,nan,nan,nan,nan
1,297,1,1,1.0,1.0,0.274835156277,0,0.0,0.0,0.0,0.286819125913,0.0727039710467,0.214115154866,0.359523096959,0.0727039710467,0.288415410866,372,-0.138660017671,0.478458869494,-0.0888123791441,nan,nan,nan,nan,0.0,0.0,0.0,nan,85.2543659881,439.629259362,440.129279604,439.904094518,nan,nan,nan,nan
1,298,1,1,1.0,1.0,0.330694943201,0,0.0,0.0,0.0,0.286778775847,0.0725847904072,0.214193985439,0.359363566254,0.0725847904072,0.306823702219,169,1.0,-0.185917379452,0.239118302078,nan,nan,nan,nan,0.0,0.0,0.0,nan,85.2543659881,440.629375396,441.129402196,440.960070339,nan,nan,nan,nan
1,299,1,1,1.0,1.0,0.3785440512,0,0.0,0.0,0.0,0.286926145536,0.0725073947162,0.214418750819,0.359433540252,0.0725073947162,0.328024716893,459,0.407758158413,0.385709174134,-1.0,nan,nan,nan,nan,0.0,0.0,0.0,nan,85.2543659881,441.629513669,442.129528494,442.00805772,nan,nan,nan,nan
1,300,1,1,1.0,1.0,0.314389628358,0,0.0,0.0,0.0,0.287232559936,0.0725790495024,0.214653510433,0.359811609438,0.0725790495024,0.34120954092,243,0.622151010882,0.20168048164,0.647463484622,nan,nan,nan,nan,0.0,0.0,0.0,nan,85.2543659881,442.629639397,443.129672754,442.944029025,nan,nan,nan,nan
1,301,1,1,1.0,1.0,0.298255086876,0,0.0,0.0,0.0,0.287323083497,0.0724748889291,0.214848194568,0.359797972426,0.0724748889291,0.330396255478,73,1.0,-0.1546788618,-0.830916872461,nan,nan,nan,nan,0.0,0.0,0.0,nan,85.2543659881,443.629761704,444.12982186,443.928016791,nan,nan,nan,nan
1,302,1,1,1.0,1.0,0.231605773326,0,0.0,0.0,0.0,0.287359402445,0.0723571331321,0.215002269313,0.359716535578,0.0723571331321,0.28141682952,209,0.967301840512,0.0304835193525,0.52804999659,nan,nan,nan,nan,0.0,0.0,0.0,nan,85.2543659881,444.65641607,445.154916455,444.888021843,nan,nan,nan,nan
1,303,1,1,1.0,1.0,0.313018308021,0,0.0,0.0,0.0,0.287174787779,0.0723082104346,0.214866577345,0.359482998214,0.0723082104346,0.280959722741,463,0.440238315199,0.376011795327,-1.0,nan,nan,nan,nan,0.0,0.0,0.0,nan,85.2543659881,445.655018235,446.155050451,445.968036543,nan,nan,nan,nan
1,304,0,0,1.0,0.0,0.256798157468,0,0.0,0.0,0.0,0.287260079925,0.0722040066074,0.215056073318,0.359464086533,0.0722040066074,0.267140746272,108,1.0,-0.292426609412,-0.368663285579,nan,nan,nan,nan,0.0,0.0,0.0,nan,85.2543659881,446.655173328,447.155200412,446.911971486,nan,nan,nan,nan
1,305,1,1,1.0,1.0,0.336715924088,0,0.0,0.0,0.0,0.287159876233,0.0721062516242,0.215053624609,0.359266127857,0.0721062516242,0.302177463192,224,0.821619416966,0.11002478857,0.597264883709,nan,nan,nan,nan,0.0,0.0,0.0,nan,85.2543659881,447.655256577,448.155307895,447.991972501,nan,nan,nan,nan
1,306,1,1,1.0,1.0,0.408539763186,0,0.0,0.0,0.0,0.287322355079,0.0720436673853,0.215278687693,0.359366022464,0.0720436673853,0.334017948247,111,1.0,-0.298677811705,-0.336106236365,nan,nan,nan,nan,0.0,0.0,0.0,nan,85.2543659881,448.655388292,449.155425925,449.063928055,nan,nan,nan,nan
1,307,1,1,1.0,1.0,0.344364813529,0,0.0,1.0,0.0,0.287718490399,0.0722578013221,0.215460689077,0.359976291721,0.0722578013221,0.363206833601,493,0.689769084006,0.285700779988,-1.0,nan,nan,nan,nan,0.0,0.0,0.0,nan,85.2543659881,449.655545096,450.155556215,449.999909909,nan,nan,nan,nan
1,308,1,1,1.0,1.0,0.336246083025,1,0.0,0.0,1.0,0.28790300611,0.072212192941,0.215690813169,0.360115199051,0.072212192941,0.363050219913,169,1.0,-0.185917379452,0.239118302078,-15.482481714,105.482481714,-13.345643286,150.0,1.0,-0.266152531622,0.0638227105866,0.825392408762,85.2543659881,450.655663126,451.15568679,450.991909209,453.330965216,454.341052547,452.489185669,453.322621258
1,309,1,1,1.0,1.0,0.324320440646,0,0.0,0.0,0.0,0.288059964152,0.0721473040806,0.215912660071,0.360207268232,0.0721473040806,0.3349771124,10,0.926811495151,0.168400576072,-1.0,nan,nan,nan,nan,0.0,0.0,0.0,nan,85.2543659881,454.539484623,455.03950401,454.863805064,nan,nan,nan,nan
1,310,1,1,1.0,1.0,0.332154073752,0,0.0,0.0,0.0,0.288177311972,0.0720599013853,0.216117410587,0.360237213357,0.0720599013853,0.330906865808,79,1.0,-0.184296021705,-0.724170777997,nan,nan,nan,nan,0.0,0.0,0.0,nan,85.2543659881,455.539653971,456.039649125,455.871808045,nan,nan,nan,nan
1,311,1,1,1.0,1.0,0.300066598691,0,0.0,0.0,0.0,0.288319172494,0.0719867863726,0.216332386121,0.360305958866,0.0719867863726,0.318847037697,27,1.0,0.0870912575778,-1.0,nan,nan,nan,nan,0.0,0.0,0.0,nan,85.2543659881,456.539741782,457.039791103,456.83980838,nan,nan,nan,nan
1,312,1,1,1.0,1.0,0.331884941086,0,0.0,0.0,0.0,0.288356945568,0.0718740358489,0.21648290972,0.360230981417,0.0718740358489,0.321368537843,426,0.156193047225,0.446210853967,-0.81485970128,nan,nan,nan,nan,0.0,0.0,0.0,nan,85.2543659881,457.539875492,458.039893168,457.871760434,nan,nan,nan,nan
1,313,1,1,1.0,1.0,0.299772948492,0,0.0,0.0,0.0,0.288496458375,0.0718009260387,0.216695532336,0.360297384413,0.0718009260387,0.310574829423,205,1.0,0.00854800403903,0.505535240796,nan,nan,nan,nan,0.0,0.0,0.0,nan,85.2543659881,458.53998554,459.040031726,458.839758488,nan,nan,nan,nan
1,314,1,1,1.0,1.0,0.315620110836,0,0.0,0.0,0.0,0.2885324855,0.0716889608056,0.216843524694,0.360221446305,0.0716889608056,0.315759333471,144,1.0,-0.284423189345,0.00519445478499,nan,nan,nan,nan,0.0,0.0,0.0,nan,85.2543659881,459.540118966,460.040177126,459.855739077,nan,nan,nan,nan
1,315,1,1,1.0,1.0,0.283460790757,0,0.0,0.0,0.0,0.288618751822,0.0715909853911,0.217027766431,0.360209737213,0.0715909853911,0.299617950028,312,-0.0464483572634,0.420925197877,0.455573212045,nan,nan,nan,nan,0.0,0.0,0.0,nan,85.2543659881,460.540270923,461.040282612,460.823731714,nan,nan,nan,nan
1,316,1,1,1.0,1.0,0.219339439645,0,0.0,0.0,0.0,0.288602377343,0.071477847507,0.217124529836,0.36008022485,0.071477847507,0.272806780413,370,-0.144805996584,0.478178727438,-0.0671803333712,nan,nan,nan,nan,0.0,0.0,0.0,nan,85.2543659881,461.54039323,462.040401783,461.75973267,nan,nan,nan,nan
1,317,1,1,1.0,1.0,0.178828179371,0,0.0,0.0,0.0,0.288383190831,0.0714706104636,0.216912580367,0.359853801295,0.0714706104636,0.227209469924,146,1.0,-0.278792578557,0.0248813210997,nan,nan,nan,nan,0.0,0.0,0.0,nan,85.2543659881,462.56488969,463.065549121,462.74371787,nan,nan,nan,nan
1,318,1,1,1.0,1.0,0.297987950966,0,0.0,0.0,0.0,0.288037591426,0.0716217645084,0.216415826917,0.359659355934,0.0716217645084,0.232051856661,255,0.492159363509,0.253017189294,0.656163111527,nan,nan,nan,nan,0.0,0.0,0.0,nan,85.2543659881,463.565658314,464.06569053,463.863646265,nan,nan,nan,nan
1,319,1,1,1.0,1.0,0.265922143124,0,0.0,0.0,0.0,0.288068881865,0.0715112331253,0.216557648739,0.35958011499,0.0715112331253,0.247579424487,30,1.0,0.071945658744,-1.0,nan,nan,nan,nan,0.0,0.0,0.0,nan,85.2543659881,464.565773779,465.065792025,464.831695922,nan,nan,nan,nan
1,320,1,1,1.0,1.0,0.257752379868,0,0.0,0.0,0.0,0.287999456351,0.0714097913027,0.216589665049,0.359409247654,0.0714097913027,0.273887491319,186,1.0,-0.0967386681424,0.377881386018,nan,nan,nan,nan,0.0,0.0,0.0,nan,85.2543659881,465.565890383,466.065920033,465.823642763,nan,nan,nan,nan
1,321,1,1,1.0,1.0,0.241662599612,0,0.0,0.0,0.0,0.287904934237,0.0713181104798,0.216586823758,0.359223044717,0.0713181104798,0.255112374201,308,-0.0186828559465,0.413097475488,0.481682330771,nan,nan,nan,nan,0.0,0.0,0.0,nan,85.2543659881,466.56601155,467.066043196,466.80767415,nan,nan,nan,nan
1,322,1,1,1.0,1.0,0.241443073843,0,0.0,0.0,0.0,0.28776087712,0.0712535513537,0.216507325766,0.359014428474,0.0712535513537,0.246952684441,77,1.0,-0.174593022316,-0.756267193339,nan,nan,nan,nan,0.0,0.0,0.0,nan,85.2543659881,467.566160086,468.066199715,467.80760316,nan,nan,nan,nan
1,323,1,1,1.0,1.0,0.217346605845,0,0.0,0.0,0.0,0.287617033011,0.0711894875584,0.216427545452,0.358806520569,0.0711894875584,0.2334840931,140,1.0,-0.294209249228,-0.0345777392028,nan,nan,nan,nan,0.0,0.0,0.0,nan,85.2543659881,468.566297503,469.066312328,468.783644109,nan,nan,nan,nan
1,324,1,1,1.0,1.0,0.217164713424,0,0.0,0.0,0.0,0.287399477508,0.0711863280417,0.216213149467,0.35858580555,0.0711863280417,0.225318131037,10,0.926811495151,0.168400576072,-1.0,nan,nan,nan,nan,0.0,0.0,0.0,nan,85.2543659881,469.566407836,470.066437772,469.783572549,nan,nan,nan,nan
1,325,1,1,1.0,1.0,0.281023204327,0,0.0,0.0,0.0,0.287182703545,0.0711830806151,0.21599962293,0.35836578416,0.0711830806151,0.238511507865,118,1.0,-0.308588151016,-0.261285249573,nan,nan,nan,nan,0.0,0.0,0.0,nan,85.2543659881,470.566537556,471.06655124,470.84756076,nan,nan,nan,nan
1,326,1,1,1.0,1.0,0.272871117573,0,0.0,0.0,0.0,0.28716375124,0.0710743025211,0.216089448719,0.358238053761,0.0710743025211,0.257019678441,59,1.0,-0.0814409933332,-1.0,nan,nan,nan,nan,0.0,0.0,0.0,nan,85.2543659881,471.56665359,472.066700917,471.839524708,nan,nan,nan,nan
1,327,1,1,1.0,1.0,0.232726777904,0,0.0,0.0,0.0,0.287119908805,0.0709696104578,0.216150298348,0.358089519263,0.0709696104578,0.262207033268,130,1.0,-0.309333154106,-0.136071487739,nan,nan,nan,nan,0.0,0.0,0.0,nan,85.2543659881,472.566770195,473.066815811,472.799496973,nan,nan,nan,nan
1,328,1,1,1.0,1.0,0.269575386774,0,0.0,0.0,0.0,0.286953568956,0.0709246288431,0.216028940112,0.357878197799,0.0709246288431,0.258391094084,66,1.0,-0.118568705386,-1.0,nan,nan,nan,nan,0.0,0.0,0.0,nan,85.2543659881,473.593921772,474.09193578,473.863497159,nan,nan,nan,nan
1,329,1,1,1.0,1.0,0.255454776343,0,0.0,0.0,0.0,0.286900586693,0.0708229102429,0.21607767645,0.357723496936,0.0708229102429,0.252585647007,281,0.218083397074,0.345068392493,0.612644422055,nan,nan,nan,nan,0.0,0.0,0.0,nan,85.2543659881,474.592020454,475.092070346,474.847475231,nan,nan,nan,nan
1,330,1,1,1.0,1.0,0.279333144426,0,0.0,0.0,0.0,0.286805006722,0.0707363783316,0.216068628391,0.357541385054,0.0707363783316,0.268121102514,33,1.0,0.0565990290419,-1.0,nan,nan,nan,nan,0.0,0.0,0.0,nan,85.2543659881,475.59215274,476.092200636,475.871485884,nan,nan,nan,nan
1,331,1,1,1.0,1.0,0.327145760413,0,0.0,0.0,0.0,0.286782364715,0.0706303146942,0.216152050021,0.357412679409,0.0706303146942,0.287311227061,482,0.597655625539,0.322480811492,-1.0,nan,nan,nan,nan,0.0,0.0,0.0,nan,85.2543659881,476.592288446,477.092349742,476.919434207,nan,nan,nan,nan
1,332,1,1,1.0,1.0,0.342995203566,0,0.0,0.0,0.0,0.286904308509,0.0705583242791,0.21634598423,0.357462632788,0.0705583242791,0.316491369468,8,0.91102658764,0.177400941622,-1.0,nan,nan,nan,nan,0.0,0.0,0.0,nan,85.2543659881,477.592428715,478.092444395,477.935423918,nan,nan,nan,nan
1,333,0,0,0.0,1.0,0.518825293984,0,0.0,0.0,0.0,0.287073256988,0.0705190019773,0.216554255011,0.357592258965,0.0705190019773,0.396322085988,507,0.805995650865,0.232688349973,-1.0,nan,nan,nan,nan,0.0,0.0,0.0,nan,85.2543659881,478.592569553,479.092611177,479.111394847,nan,nan,nan,nan
1,334,1,1,1.0,1.0,0.2306997329,0,0.0,0.0,0.0,0.287769209051,0.0715457886687,0.216223420382,0.35931499772,0.0715457886687,0.36417341015,106,1.0,-0.287630069369,-0.390564445695,nan,nan,nan,nan,0.0,0.0,0.0,nan,85.2543659881,479.592672473,480.092698417,479.823372206,nan,nan,nan,nan
1,335,0,0,0.0,1.0,0.374547264539,0,0.0,0.0,0.0,0.287598342356,0.0715066165151,0.216091725841,0.359104958871,0.0715066165151,0.374690763808,7,0.9030914636,0.181853060355,-1.0,nan,nan,nan,nan,0.0,0.0,0.0,nan,85.2543659881,480.592818443,481.092822719,480.967365708,nan,nan,nan,nan
1,336,1,1,1.0,1.0,0.182428965345,0,0.0,0.0,0.0,0.287857891377,0.0715572014207,0.216300689957,0.359415092798,0.0715572014207,0.262558654261,250,0.546428449327,0.232286661223,0.654747725831,nan,nan,nan,nan,0.0,0.0,0.0,nan,85.2543659881,481.592913095,482.092962988,481.775342061,nan,nan,nan,nan
1,337,1,1,1.0,1.0,0.262349582277,0,0.0,0.0,0.0,0.287544114812,0.0716810739428,0.215863040869,0.359225188755,0.0716810739428,0.273108604054,350,-0.175756816429,0.469490941964,0.138247479403,nan,nan,nan,nan,0.0,0.0,0.0,nan,85.2543659881,482.593042815,483.093088716,482.855392397,nan,nan,nan,nan
1,338,1,1,1.0,1.0,0.342124229763,0,0.0,0.0,0.0,0.287469353588,0.0715877610512,0.215881592536,0.359057114639,0.0715877610512,0.262300925795,474,0.530901762182,0.346545376391,-1.0,nan,nan,nan,nan,0.0,0.0,0.0,nan,85.2543659881,483.593209597,484.093208172,483.935333827,nan,nan,nan,nan
1,339,1,1,1.0,1.0,0.295976300258,0,0.0,0.0,0.0,0.287631054405,0.0715433922235,0.216087662181,0.359174446628,0.0715433922235,0.300150037433,280,0.228089347314,0.342018854333,0.61587222022,nan,nan,nan,nan,0.0,0.0,0.0,nan,85.2543659881,484.60731025,485.110029798,484.903286551,nan,nan,nan,nan
1,340,1,1,1.0,1.0,0.309163215104,0,0.0,0.0,0.0,0.287655671649,0.0714392266802,0.216216444969,0.359094898329,0.0714392266802,0.315754581708,5,0.88714030954,0.190659852496,-1.0,nan,nan,nan,nan,0.0,0.0,0.0,nan,85.2543659881,485.610120745,486.110151535,485.91928396,nan,nan,nan,nan
1,341,1,1,1.0,1.0,0.293007576838,0,0.0,0.0,0.0,0.28771892913,0.0713435991553,0.216375329975,0.359062528285,0.0713435991553,0.299382364067,269,0.34171296506,0.305888347675,0.643262349404,nan,nan,nan,nan,0.0,0.0,0.0,nan,85.2543659881,486.610246473,487.110279829,486.90325405,nan,nan,nan,nan
1,342,1,1,1.0,1.0,0.324861841276,0,0.0,0.0,0.0,0.287734438361,0.0712394869647,0.216494951396,0.358973925325,0.0712394869647,0.30901087774,112,1.0,-0.300501516081,-0.325324861792,nan,nan,nan,nan,0.0,0.0,0.0,nan,85.2543659881,487.610373912,488.110402137,487.935235753,nan,nan,nan,nan
1,343,0,0,0.0,1.0,0.444720387459,0,0.0,0.0,0.0,0.287842998018,0.0711635010806,0.216679496938,0.359006499099,0.0711635010806,0.354196601858,226,0.801265930663,0.120208988367,0.60458276857,nan,nan,nan,nan,0.0,0.0,0.0,nan,85.2543659881,488.610506482,489.1105444,489.055226869,nan,nan,nan,nan
1,344,1,1,1.0,1.0,0.29259190429,0,0.0,0.0,0.0,0.288300366501,0.0715613087793,0.216739057721,0.35986167528,0.0715613087793,0.354058044342,132,1.0,-0.307426825298,-0.115555361894,nan,nan,nan,nan,0.0,0.0,0.0,nan,85.2543659881,489.610615104,490.110683528,489.903207009,nan,nan,nan,nan
1,345,1,1,1.0,1.0,0.252458968665,0,0.0,0.0,0.0,0.288312841901,0.0714575930781,0.216855248823,0.359770434979,0.0714575930781,0.329923753471,305,0.00361192545304,0.406859252708,0.500196907155,nan,nan,nan,nan,0.0,0.0,0.0,nan,85.2543659881,490.610729714,491.110806405,490.863188683,nan,nan,nan,nan
1,346,1,1,1.0,1.0,0.300316344481,0,0.0,0.0,0.0,0.288208917631,0.0713799856548,0.216828931976,0.359588903286,0.0713799856548,0.281789072479,234,0.71814774995,0.15974031316,0.62913160129,nan,nan,nan,nan,0.0,0.0,0.0,nan,85.2543659881,491.610853446,492.110910466,491.911169791,nan,nan,nan,nan
1,347,1,1,1.0,1.0,0.212197739631,0,0.0,0.0,0.0,0.288243910194,0.0712797241027,0.216964186091,0.359523634297,0.0712797241027,0.254991017592,375,-0.128556699755,0.478682433309,-0.121605159467,nan,nan,nan,nan,0.0,0.0,0.0,nan,85.2543659881,492.611021654,493.111058717,492.823219393,nan,nan,nan,nan
1,348,1,1,1.0,1.0,0.300029536244,0,0.0,0.0,0.0,0.288024756965,0.0712935812793,0.216731175685,0.359318338244,0.0712935812793,0.270847873452,244,0.611372359265,0.206163547436,0.648880721676,nan,nan,nan,nan,0.0,0.0,0.0,nan,85.2543659881,493.611111745,494.11117133,493.911141281,nan,nan,nan,nan
1,349,1,1,1.0,1.0,0.299895824865,0,0.0,0.0,0.0,0.288059253457,0.0711939743931,0.216865279064,0.35925322785,0.0711939743931,0.270707700246,45,1.0,-0.0063957592436,-1.0,nan,nan,nan,nan,0.0,0.0,0.0,nan,85.2543659881,494.611236618,495.111319296,494.911132443,nan,nan,nan,nan
1,350,1,1,1.0,1.0,0.227726732846,0,0.0,0.0,0.0,0.288093169134,0.0710947194058,0.216998449729,0.35918788854,0.0710947194058,0.275884031318,218,0.881467392804,0.0788246127756,0.572559633417,nan,nan,nan,nan,0.0,0.0,0.0,nan,85.2543659881,495.611391141,496.111413378,495.839117873,nan,nan,nan,nan
1,351,1,1,1.0,1.0,0.211592476815,0,0.0,0.0,0.0,0.287920693602,0.0710661649522,0.21685452865,0.358986858554,0.0710661649522,0.246405011509,293,0.103830259013,0.378659598285,0.564617056734,nan,nan,nan,nan,0.0,0.0,0.0,nan,85.2543659881,496.611531979,497.111543668,496.823124456,nan,nan,nan,nan
1,352,0,0,1.0,0.0,0.379405901767,0,0.0,0.0,0.0,0.287703234295,0.0710813772389,0.216621857056,0.358784611534,0.0710813772389,0.272908370476,239,0.665069831863,0.183388857662,0.640549267122,nan,nan,nan,nan,0.0,0.0,0.0,nan,85.2543659881,497.611654856,498.111690208,497.991060758,nan,nan,nan,nan
1,353,1,1,1.0,1.0,0.195325935259,0,0.0,0.0,0.0,0.287963753237,0.0711479495985,0.216815803638,0.359111702835,0.0711479495985,0.262108104614,295,0.0860222946478,0.38372732295,0.554986075565,nan,nan,nan,nan,0.0,0.0,0.0,nan,85.2543659881,498.611780869,499.11179541,498.807106805,nan,nan,nan,nan
1,354,0,0,1.0,0.0,0.235120174475,0,0.0,0.0,0.0,0.287701323157,0.0712175033404,0.216483819817,0.358918826498,0.0712175033404,0.269950670501,367,-0.15309091083,0.477560897992,-0.0350816338538,nan,nan,nan,nan,0.0,0.0,0.0,nan,85.2543659881,499.611909734,500.111945941,499.847029908,nan,nan,nan,nan
1,355,1,1,1.0,1.0,0.219087413512,0,0.0,0.0,0.0,0.287552788839,0.0711715767068,0.216381212132,0.358724365546,0.0711715767068,0.216511174416,2,0.863024578927,0.203622855609,-1.0,nan,nan,nan,nan,0.0,0.0,0.0,nan,85.2543659881,500.612006382,501.11204487,500.831093795,nan,nan,nan,nan
1,356,1,1,1.0,1.0,0.306818570476,0,0.0,0.0,0.0,0.287359928627,0.0711638368069,0.21619609182,0.358523765434,0.0711638368069,0.253675386154,509,0.822386376617,0.224555004187,-1.0,nan,nan,nan,nan,0.0,0.0,0.0,nan,85.2543659881,501.612152637,502.112173164,501.918971207,nan,nan,nan,nan
1,357,1,1,0.0,0.0,0.394681728445,0,0.0,0.0,0.0,0.287414587733,0.0710712792557,0.216343308478,0.358485866989,0.0710712792557,0.306862570811,114,1.0,-0.303747463913,-0.303859371662,nan,nan,nan,nan,0.0,0.0,0.0,nan,85.2543659881,502.61227751,503.11229376,503.006959238,nan,nan,nan,nan
1,358,0,0,0.0,1.0,0.442521427758,0,0.0,0.0,0.0,0.287715055915,0.0711977387436,0.216517317171,0.358912794658,0.0711977387436,0.38134057556,233,0.728670395113,0.154909781369,0.626482233315,nan,nan,nan,nan,0.0,0.0,0.0,nan,85.2543659881,503.612420059,504.112457692,504.054941487,nan,nan,nan,nan
1,359,1,1,1.0,1.0,0.418426955584,0,0.0,0.0,0.0,0.288147475948,0.0715661431409,0.216581332807,0.359713619089,0.0715661431409,0.418543370596,509,0.822386376617,0.224555004187,-1.0,nan,nan,nan,nan,0.0,0.0,0.0,nan,85.2543659881,504.612516992,505.112575152,505.030943948,nan,nan,nan,nan
1,360,1,1,1.0,1.0,0.337917896453,0,0.0,0.0,0.0,0.288510371434,0.0717954899452,0.216714881489,0.360305861379,0.0717954899452,0.399622093265,99,1.0,-0.267176270739,-0.468793303331,nan,nan,nan,nan,0.0,0.0,0.0,nan,85.2543659881,505.621000078,506.12102146,505.958917974,nan,nan,nan,nan
