block,trial,freq_trials,correct_response,actual_response,acc,rts,probe_trials,trials_colorind0,trials_colorind1,trials_colorind2,trials_colorind3,trials_colorind4,trials_colorind5,wholereport_resp0,wholereport_resp1,wholereport_resp2,wholereport_resp3,wholereport_resp4,wholereport_resp5,wholereport_respacc0,wholereport_respacc1,wholereport_respacc2,wholereport_respacc3,wholereport_respacc4,wholereport_respacc5,wholereport_respacc_total,wholereport_respcolorind0,wholereport_respcolorind1,wholereport_respcolorind2,wholereport_respcolorind3,wholereport_respcolorind4,wholereport_respcolorind5,wholereport_resporder0,wholereport_resporder1,wholereport_resporder2,wholereport_resporder3,wholereport_resporder4,wholereport_resporder5,wholereport_rts0,wholereport_rts1,wholereport_rts2,wholereport_rts3,wholereport_rts4,wholereport_rts5,time_blockstart,time_encarray_offset,time_encarray_onset,time_response,time_iti_offset,time_iti_onset,time_memprobe_offset,time_memprobe_onset
1,1,1,1,1.0,1.0,0.689899071410764,0.0,8,4,7,1,2,5,nan,nan,nan,nan,nan,nan,nan,nan,nan,nan,nan,nan,0.0,nan,nan,nan,nan,nan,nan,nan,nan,nan,nan,nan,nan,nan,nan,nan,nan,nan,nan,318.1900514579029,319.21214963583043,nan,319.9020487072412,nan,nan,nan,nan
1,2,1,1,1.0,1.0,0.3088117018924095,0.0,7,3,2,0,8,4,nan,nan,nan,nan,nan,nan,nan,nan,nan,nan,nan,nan,0.0,nan,nan,nan,nan,nan,nan,nan,nan,nan,nan,nan,nan,nan,nan,nan,nan,nan,nan,318.1900514579029,320.3132427415694,nan,320.6220544434618,nan,nan,nan,nan
1,3,1,1,1.0,1.0,0.3855691570788622,0.0,2,0,8,6,3,1,nan,nan,nan,nan,nan,nan,nan,nan,nan,nan,nan,nan,0.0,nan,nan,nan,nan,nan,nan,nan,nan,nan,nan,nan,nan,nan,nan,nan,nan,nan,nan,318.1900514579029,321.4124752781936,nan,321.79804443527246,nan,nan,nan,nan
1,4,1,1,1.0,1.0,0.5014213710092008,0.0,3,2,1,8,0,5,nan,nan,nan,nan,nan,nan,nan,nan,nan,nan,nan,nan,0.0,nan,nan,nan,nan,nan,nan,nan,nan,nan,nan,nan,nan,nan,nan,nan,nan,nan,nan,318.1900514579029,322.51263296755496,nan,323.01405433856416,nan,nan,nan,nan
1,5,1,1,1.0,1.0,0.37724791443906724,0.0,4,1,6,3,5,2,nan,nan,nan,nan,nan,nan,nan,nan,nan,nan,nan,nan,0.0,nan,nan,nan,nan,nan,nan,nan,nan,nan,nan,nan,nan,nan,nan,nan,nan,nan,nan,318.1900514579029,323.61279721424216,nan,323.99004512868123,nan,nan,nan,nan
1,6,1,1,1.0,1.0,0.5890349017572589,0.0,6,7,5,8,1,3,nan,nan,nan,nan,nan,nan,nan,nan,nan,nan,nan,nan,0.0,nan,nan,nan,nan,nan,nan,nan,nan,nan,nan,nan,nan,nan,nan,nan,nan,nan,nan,318.1900514579029,324.7129962432664,nan,325.30203114502365,nan,nan,nan,nan
1,7,1,1,1.0,1.0,0.5048947563627735,0.0,3,6,4,0,2,8,nan,nan,nan,nan,nan,nan,nan,nan,nan,nan,nan,nan,0.0,nan,nan,nan,nan,nan,nan,nan,nan,nan,nan,nan,nan,nan,nan,nan,nan,nan,nan,318.1900514579029,325.8131177247851,nan,326.3180124811479,nan,nan,nan,nan
1,8,1,1,1.0,1.0,0.7727380158612505,0.0,7,5,1,2,8,3,nan,nan,nan,nan,nan,nan,nan,nan,nan,nan,nan,nan,0.0,nan,nan,nan,nan,nan,nan,nan,nan,nan,nan,nan,nan,nan,nan,nan,nan,nan,nan,318.1900514579029,326.9132779800566,nan,327.68601599591784,nan,nan,nan,nan
1,9,1,1,1.0,1.0,0.4725751376245171,0.0,2,4,3,1,0,7,nan,nan,nan,nan,nan,nan,nan,nan,nan,nan,nan,nan,0.0,nan,nan,nan,nan,nan,nan,nan,nan,nan,nan,nan,nan,nan,nan,nan,nan,nan,nan,318.1900514579029,328.013433388609,nan,328.4860085262335,nan,nan,nan,nan
1,10,1,1,1.0,1.0,0.3564016149030067,0.0,3,5,8,2,4,0,nan,nan,nan,nan,nan,nan,nan,nan,nan,nan,nan,nan,0.0,nan,nan,nan,nan,nan,nan,nan,nan,nan,nan,nan,nan,nan,nan,nan,nan,nan,nan,318.1900514579029,329.1135939289816,nan,329.4699955438846,nan,nan,nan,nan
1,11,1,1,1.0,1.0,0.3122414668323472,0.0,2,4,0,3,7,6,nan,nan,nan,nan,nan,nan,nan,nan,nan,nan,nan,nan,0.0,nan,nan,nan,nan,nan,nan,nan,nan,nan,nan,nan,nan,nan,nan,nan,nan,nan,nan,318.1900514579029,330.21375560975866,nan,330.525997076591,nan,nan,nan,nan
1,12,1,1,1.0,1.0,0.27609465236309916,0.0,4,1,5,8,0,2,nan,nan,nan,nan,nan,nan,nan,nan,nan,nan,nan,nan,0.0,nan,nan,nan,nan,nan,nan,nan,nan,nan,nan,nan,nan,nan,nan,nan,nan,nan,nan,318.1900514579029,331.31388792512007,nan,331.58998257748317,nan,nan,nan,nan
1,13,1,1,1.0,1.0,0.3279146088170819,0.0,0,5,8,6,1,4,nan,nan,nan,nan,nan,nan,nan,nan,nan,nan,nan,nan,0.0,nan,nan,nan,nan,nan,nan,nan,nan,nan,nan,nan,nan,nan,nan,nan,nan,nan,nan,318.1900514579029,332.4140610099421,nan,332.74197561875917,nan,nan,nan,nan
1,14,1,1,1.0,1.0,0.40376088122138754,0.0,6,8,0,4,2,3,nan,nan,nan,nan,nan,nan,nan,nan,nan,nan,nan,nan,0.0,nan,nan,nan,nan,nan,nan,nan,nan,nan,nan,nan,nan,nan,nan,nan,nan,nan,nan,318.1900514579029,333.5142204099102,nan,333.9179812911316,nan,nan,nan,nan
1,15,1,1,1.0,1.0,0.39158450288232416,0.0,5,7,2,8,4,6,nan,nan,nan,nan,nan,nan,nan,nan,nan,nan,nan,nan,0.0,nan,nan,nan,nan,nan,nan,nan,nan,nan,nan,nan,nan,nan,nan,nan,nan,nan,nan,318.1900514579029,334.61438779270975,nan,335.0059722955921,nan,nan,nan,nan
1,16,1,1,1.0,1.0,0.32341200881637633,0.0,8,3,4,1,6,2,nan,nan,nan,nan,nan,nan,nan,nan,nan,nan,nan,nan,0.0,nan,nan,nan,nan,nan,nan,nan,nan,nan,nan,nan,nan,nan,nan,nan,nan,nan,nan,318.1900514579029,335.7145403502509,nan,336.0379523590673,nan,nan,nan,nan
1,17,1,1,1.0,1.0,0.2712613352923654,0.0,5,1,0,6,3,8,nan,nan,nan,nan,nan,nan,nan,nan,nan,nan,nan,nan,0.0,nan,nan,nan,nan,nan,nan,nan,nan,nan,nan,nan,nan,nan,nan,nan,nan,nan,nan,318.1900514579029,336.8146994650597,nan,337.08596080035204,nan,nan,nan,nan
1,18,1,1,1.0,1.0,0.23508287459844723,0.0,8,2,5,0,1,4,nan,nan,nan,nan,nan,nan,nan,nan,nan,nan,nan,nan,0.0,nan,nan,nan,nan,nan,nan,nan,nan,nan,nan,nan,nan,nan,nan,nan,nan,nan,nan,318.1900514579029,337.91486969887046,nan,338.1499525734689,nan,nan,nan,nan
1,19,1,1,1.0,1.0,0.22292987460969016,0.0,0,7,2,4,6,3,nan,nan,nan,nan,nan,nan,nan,nan,nan,nan,nan,nan,0.0,nan,nan,nan,nan,nan,nan,nan,nan,nan,nan,nan,nan,nan,nan,nan,nan,nan,nan,318.1900514579029,339.01501655438915,nan,339.23794642899884,nan,nan,nan,nan
1,20,0,0,1.0,0.0,0.22674509603530169,0.0,3,0,4,7,5,6,nan,nan,nan,nan,nan,nan,nan,nan,nan,nan,nan,nan,0.0,nan,nan,nan,nan,nan,nan,nan,nan,nan,nan,nan,nan,nan,nan,nan,nan,nan,nan,318.1900514579029,340.11519192002015,nan,340.34193701605545,nan,nan,nan,nan
1,21,1,1,1.0,1.0,0.5105688363546506,0.0,2,8,7,3,6,5,nan,nan,nan,nan,nan,nan,nan,nan,nan,nan,nan,nan,0.0,nan,nan,nan,nan,nan,nan,nan,nan,nan,nan,nan,nan,nan,nan,nan,nan,nan,nan,318.1900514579029,341.2153359245276,nan,341.72590476088226,nan,nan,nan,nan
1,22,1,1,1.0,1.0,0.4104080108809285,0.0,0,5,8,4,2,1,nan,nan,nan,nan,nan,nan,nan,nan,nan,nan,nan,nan,0.0,nan,nan,nan,nan,nan,nan,nan,nan,nan,nan,nan,nan,nan,nan,nan,nan,nan,nan,318.1900514579029,342.3155027371249,nan,342.72591074800584,nan,nan,nan,nan
1,23,1,1,1.0,1.0,0.3822542878333479,0.0,3,2,4,0,1,5,nan,nan,nan,nan,nan,nan,nan,nan,nan,nan,nan,nan,0.0,nan,nan,nan,nan,nan,nan,nan,nan,nan,nan,nan,nan,nan,nan,nan,nan,nan,nan,318.1900514579029,343.41564759693574,nan,343.7979018847691,nan,nan,nan,nan
1,24,1,1,1.0,1.0,0.45008694153511897,0.0,0,6,5,7,4,2,nan,nan,nan,nan,nan,nan,nan,nan,nan,nan,nan,nan,0.0,nan,nan,nan,nan,nan,nan,nan,nan,nan,nan,nan,nan,nan,nan,nan,nan,nan,nan,318.1900514579029,344.51580357569037,nan,344.9658905172255,nan,nan,nan,nan
1,25,1,1,1.0,1.0,0.25394658179720864,0.0,8,4,6,2,7,1,nan,nan,nan,nan,nan,nan,nan,nan,nan,nan,nan,nan,0.0,nan,nan,nan,nan,nan,nan,nan,nan,nan,nan,nan,nan,nan,nan,nan,nan,nan,nan,318.1900514579029,345.61594187817536,nan,345.8698884599726,nan,nan,nan,nan
1,26,1,1,1.0,1.0,0.5297341803670861,0.0,6,2,3,7,5,0,nan,nan,nan,nan,nan,nan,nan,nan,nan,nan,nan,nan,0.0,nan,nan,nan,nan,nan,nan,nan,nan,nan,nan,nan,nan,nan,nan,nan,nan,nan,nan,318.1900514579029,346.71615117084,nan,347.2458853512071,nan,nan,nan,nan
1,27,1,1,1.0,1.0,0.44558177568251267,0.0,4,1,0,6,7,3,nan,nan,nan,nan,nan,nan,nan,nan,nan,nan,nan,nan,0.0,nan,nan,nan,nan,nan,nan,nan,nan,nan,nan,nan,nan,nan,nan,nan,nan,nan,nan,318.1900514579029,347.81629260943737,nan,348.2618743851199,nan,nan,nan,nan
1,28,1,1,1.0,1.0,0.43342934583779424,0.0,2,3,5,4,1,6,nan,nan,nan,nan,nan,nan,nan,nan,nan,nan,nan,nan,0.0,nan,nan,nan,nan,nan,nan,nan,nan,nan,nan,nan,nan,nan,nan,nan,nan,nan,nan,318.1900514579029,348.9164488732931,nan,349.3498782191309,nan,nan,nan,nan
1,29,1,1,1.0,1.0,0.49329485232010484,0.0,6,7,2,0,8,3,nan,nan,nan,nan,nan,nan,nan,nan,nan,nan,nan,nan,0.0,nan,nan,nan,nan,nan,nan,nan,nan,nan,nan,nan,nan,nan,nan,nan,nan,nan,nan,318.1900514579029,350.0165797631489,nan,350.509874615469,nan,nan,nan,nan
1,30,1,1,1.0,1.0,0.47310742118861526,0.0,8,6,1,2,5,4,nan,nan,nan,nan,nan,nan,nan,nan,nan,nan,nan,nan,0.0,nan,nan,nan,nan,nan,nan,nan,nan,nan,nan,nan,nan,nan,nan,nan,nan,nan,nan,318.1900514579029,351.1167585499934,nan,351.589865971182,nan,nan,nan,nan
1,31,1,1,1.0,1.0,0.5009569414542057,0.0,3,4,6,7,8,2,nan,nan,nan,nan,nan,nan,nan,nan,nan,nan,nan,nan,0.0,nan,nan,nan,nan,nan,nan,nan,nan,nan,nan,nan,nan,nan,nan,nan,nan,nan,nan,318.1900514579029,352.21690255450085,nan,352.71785949595505,nan,nan,nan,nan
1,32,0,0,nan,nan,nan,1.0,0,1,5,4,7,3,1.0,1.0,1.0,1.0,1.0,1.0,0.0,1.0,0.0,1.0,1.0,0.0,3.0,8.0,1.0,6.0,4.0,7.0,5.0,4.0,2.0,3.0,1.0,6.0,5.0,8.977294842072297,7.146522238326725,8.009663783246651,2.003025206620805,12.528578095894773,11.425015730434097,318.1900514579029,353.31707934563747,354.1255111504579,nan,367.7108166461694,368.7171795301256,355.14230359892827,367.70247373578604
1,33,1,1,1.0,1.0,0.4344103783951141,0.0,5,4,6,3,8,0,nan,nan,nan,nan,nan,nan,nan,nan,nan,nan,nan,nan,0.0,nan,nan,nan,nan,nan,nan,nan,nan,nan,nan,nan,nan,nan,nan,nan,nan,nan,nan,318.1900514579029,369.01933070260566,nan,369.45374108100077,nan,nan,nan,nan
1,34,0,0,0.0,1.0,0.7022171448916197,1.0,0,6,1,2,7,8,1.0,1.0,1.0,1.0,1.0,1.0,0.0,0.0,0.0,0.0,1.0,0.0,1.0,3.0,4.0,0.0,1.0,7.0,6.0,5.0,4.0,3.0,1.0,2.0,6.0,7.854110400774516,6.999169785878621,5.487178580660839,2.9833991393679753,3.840925050084479,8.669953691016417,318.1900514579029,370.11951576167485,370.9279293200816,370.82173290656647,380.6543312970898,381.66510782949626,371.94475427008,380.6460052076727
1,35,1,1,1.0,1.0,0.5147695143823512,0.0,7,0,5,8,6,1,nan,nan,nan,nan,nan,nan,nan,nan,nan,nan,nan,nan,0.0,nan,nan,nan,nan,nan,nan,nan,nan,nan,nan,nan,nan,nan,nan,nan,nan,nan,nan,318.1900514579029,381.96288441237994,nan,382.4776539267623,nan,nan,nan,nan
1,36,1,1,1.0,1.0,0.36661592818563804,0.0,5,2,7,4,0,6,nan,nan,nan,nan,nan,nan,nan,nan,nan,nan,nan,nan,0.0,nan,nan,nan,nan,nan,nan,nan,nan,nan,nan,nan,nan,nan,nan,nan,nan,nan,nan,318.1900514579029,383.06303639971884,nan,383.4296523279045,nan,nan,nan,nan
1,37,1,1,1.0,1.0,0.3704673575120978,0.0,7,5,6,1,4,3,nan,nan,nan,nan,nan,nan,nan,nan,nan,nan,nan,nan,0.0,nan,nan,nan,nan,nan,nan,nan,nan,nan,nan,nan,nan,nan,nan,nan,nan,nan,nan,318.1900514579029,384.1631841105409,nan,384.533651468053,nan,nan,nan,nan
1,38,0,0,0.0,1.0,0.5902568446472287,1.0,6,0,4,2,8,7,1.0,1.0,1.0,1.0,1.0,1.0,0.0,0.0,0.0,1.0,1.0,0.0,2.0,1.0,3.0,2.0,2.0,8.0,6.0,5.0,6.0,1.0,2.0,3.0,4.0,11.406298850255553,14.61460589489434,1.9612436561728828,6.094912116182968,7.262938667088747,10.630350882362109,318.1900514579029,385.2633631824865,386.07178900018334,385.85362002713373,401.7407217446016,402.7405826153117,387.088612239575,401.73238482134184
1,39,1,1,1.0,1.0,0.4845750384265557,0.0,5,7,8,3,4,2,nan,nan,nan,nan,nan,nan,nan,nan,nan,nan,nan,nan,0.0,nan,nan,nan,nan,nan,nan,nan,nan,nan,nan,nan,nan,nan,nan,nan,nan,nan,nan,318.1900514579029,403.0409330899711,nan,403.52550812839763,nan,nan,nan,nan
1,40,1,1,1.0,1.0,0.4643938795197755,0.0,4,8,1,7,0,6,nan,nan,nan,nan,nan,nan,nan,nan,nan,nan,nan,nan,0.0,nan,nan,nan,nan,nan,nan,nan,nan,nan,nan,nan,nan,nan,nan,nan,nan,nan,nan,318.1900514579029,404.14110817050096,nan,404.60550205002073,nan,nan,nan,nan
1,41,1,1,1.0,1.0,0.35626106010749936,0.0,3,0,7,6,2,5,nan,nan,nan,nan,nan,nan,nan,nan,nan,nan,nan,nan,0.0,nan,nan,nan,nan,nan,nan,nan,nan,nan,nan,nan,nan,nan,nan,nan,nan,nan,nan,318.1900514579029,405.241235068941,nan,405.5974961290485,nan,nan,nan,nan
1,42,1,1,1.0,1.0,0.31208494637394324,0.0,0,5,8,3,4,2,nan,nan,nan,nan,nan,nan,nan,nan,nan,nan,nan,nan,0.0,nan,nan,nan,nan,nan,nan,nan,nan,nan,nan,nan,nan,nan,nan,nan,nan,nan,nan,318.1900514579029,406.34140330704395,nan,406.6534882534179,nan,nan,nan,nan
1,43,1,1,1.0,1.0,0.563924346701242,0.0,4,7,3,2,6,5,nan,nan,nan,nan,nan,nan,nan,nan,nan,nan,nan,nan,0.0,nan,nan,nan,nan,nan,nan,nan,nan,nan,nan,nan,nan,nan,nan,nan,nan,nan,nan,318.1900514579029,407.4415681239334,nan,408.00549247063464,nan,nan,nan,nan
1,44,1,1,1.0,1.0,0.3677489195833914,0.0,7,3,5,0,8,2,nan,nan,nan,nan,nan,nan,nan,nan,nan,nan,nan,nan,0.0,nan,nan,nan,nan,nan,nan,nan,nan,nan,nan,nan,nan,nan,nan,nan,nan,nan,nan,318.1900514579029,408.541736076877,nan,408.9094849964604,nan,nan,nan,nan
1,45,1,1,1.0,1.0,0.31558256543939933,0.0,8,6,3,4,5,0,nan,nan,nan,nan,nan,nan,nan,nan,nan,nan,nan,nan,0.0,nan,nan,nan,nan,nan,nan,nan,nan,nan,nan,nan,nan,nan,nan,nan,nan,nan,nan,318.1900514579029,409.6418835025979,nan,409.9574660680373,nan,nan,nan,nan
1,46,1,1,1.0,1.0,0.2554131412762217,0.0,3,1,4,8,7,5,nan,nan,nan,nan,nan,nan,nan,nan,nan,nan,nan,nan,0.0,nan,nan,nan,nan,nan,nan,nan,nan,nan,nan,nan,nan,nan,nan,nan,nan,nan,nan,318.1900514579029,410.742045183375,nan,410.99745832465123,nan,nan,nan,nan
1,47,1,1,1.0,1.0,0.27526073198532686,0.0,7,0,6,3,4,1,nan,nan,nan,nan,nan,nan,nan,nan,nan,nan,nan,nan,0.0,nan,nan,nan,nan,nan,nan,nan,nan,nan,nan,nan,nan,nan,nan,nan,nan,nan,nan,318.1900514579029,411.8421968856128,nan,412.1174576175981,nan,nan,nan,nan
1,48,1,1,1.0,1.0,0.2550978196086362,0.0,1,3,2,6,7,5,nan,nan,nan,nan,nan,nan,nan,nan,nan,nan,nan,nan,0.0,nan,nan,nan,nan,nan,nan,nan,nan,nan,nan,nan,nan,nan,nan,nan,nan,nan,nan,318.1900514579029,412.9423548600753,nan,413.1974526796839,nan,nan,nan,nan
1,49,1,1,1.0,1.0,0.29894435656024143,0.0,0,4,6,7,5,3,nan,nan,nan,nan,nan,nan,nan,nan,nan,nan,nan,nan,0.0,nan,nan,nan,nan,nan,nan,nan,nan,nan,nan,nan,nan,nan,nan,nan,nan,nan,nan,318.1900514579029,414.04249629867263,nan,414.3414406552329,nan,nan,nan,nan
1,50,1,1,1.0,1.0,0.2787500830600038,0.0,8,7,0,6,3,5,nan,nan,nan,nan,nan,nan,nan,nan,nan,nan,nan,nan,0.0,nan,nan,nan,nan,nan,nan,nan,nan,nan,nan,nan,nan,nan,nan,nan,nan,nan,nan,318.1900514579029,415.14267907693284,nan,415.42142915999284,nan,nan,nan,nan
1,51,1,1,1.0,1.0,0.2825841212179512,0.0,0,3,1,8,7,2,nan,nan,nan,nan,nan,nan,nan,nan,nan,nan,nan,nan,0.0,nan,nan,nan,nan,nan,nan,nan,nan,nan,nan,nan,nan,nan,nan,nan,nan,nan,nan,318.1900514579029,416.2428401875077,nan,416.52542430872563,nan,nan,nan,nan
1,52,1,1,1.0,1.0,0.23841969657223672,0.0,1,7,5,0,6,8,nan,nan,nan,nan,nan,nan,nan,nan,nan,nan,nan,nan,0.0,nan,nan,nan,nan,nan,nan,nan,nan,nan,nan,nan,nan,nan,nan,nan,nan,nan,nan,318.1900514579029,417.34301384253195,nan,417.5814335391042,nan,nan,nan,nan
1,53,1,1,1.0,1.0,0.31424715236062184,0.0,7,1,8,5,3,2,nan,nan,nan,nan,nan,nan,nan,nan,nan,nan,nan,nan,0.0,nan,nan,nan,nan,nan,nan,nan,nan,nan,nan,nan,nan,nan,nan,nan,nan,nan,nan,318.1900514579029,418.4431564215338,nan,418.7574035738944,nan,nan,nan,nan
1,54,1,1,1.0,1.0,0.254090272646863,0.0,4,2,7,1,5,3,nan,nan,nan,nan,nan,nan,nan,nan,nan,nan,nan,nan,0.0,nan,nan,nan,nan,nan,nan,nan,nan,nan,nan,nan,nan,nan,nan,nan,nan,nan,nan,318.1900514579029,419.5433158215019,nan,419.79740609414876,nan,nan,nan,nan
1,55,0,0,0.0,1.0,0.7619238501065411,0.0,2,1,0,4,8,6,nan,nan,nan,nan,nan,nan,nan,nan,nan,nan,nan,nan,0.0,nan,nan,nan,nan,nan,nan,nan,nan,nan,nan,nan,nan,nan,nan,nan,nan,nan,nan,318.1900514579029,420.64347436616663,nan,421.40539821627317,nan,nan,nan,nan
1,56,1,1,nan,nan,nan,0.0,3,2,5,7,0,4,nan,nan,nan,nan,nan,nan,nan,nan,nan,nan,nan,nan,0.0,nan,nan,nan,nan,nan,nan,nan,nan,nan,nan,nan,nan,nan,nan,nan,nan,nan,nan,318.1900514579029,421.7436312002246,nan,nan,nan,nan,nan,nan
1,57,1,1,1.0,1.0,0.5935719989938661,0.0,6,7,1,8,4,3,nan,nan,nan,nan,nan,nan,nan,nan,nan,nan,nan,nan,0.0,nan,nan,nan,nan,nan,nan,nan,nan,nan,nan,nan,nan,nan,nan,nan,nan,nan,nan,318.1900514579029,422.84380086383317,nan,423.43737286282703,nan,nan,nan,nan
1,58,1,1,1.0,1.0,0.485431196691934,0.0,4,1,0,5,7,8,nan,nan,nan,nan,nan,nan,nan,nan,nan,nan,nan,nan,0.0,nan,nan,nan,nan,nan,nan,nan,nan,nan,nan,nan,nan,nan,nan,nan,nan,nan,nan,318.1900514579029,423.94394914485747,nan,424.4293803415494,nan,nan,nan,nan
1,59,1,1,1.0,1.0,0.3132541455561295,0.0,5,6,1,8,3,4,nan,nan,nan,nan,nan,nan,nan,nan,nan,nan,nan,nan,0.0,nan,nan,nan,nan,nan,nan,nan,nan,nan,nan,nan,nan,nan,nan,nan,nan,nan,nan,318.1900514579029,425.0441208041739,nan,425.35737494973,nan,nan,nan,nan
1,60,1,1,1.0,1.0,0.21308590745320544,0.0,7,5,4,6,1,2,nan,nan,nan,nan,nan,nan,nan,nan,nan,nan,nan,nan,0.0,nan,nan,nan,nan,nan,nan,nan,nan,nan,nan,nan,nan,nan,nan,nan,nan,nan,nan,318.1900514579029,426.14427735313075,nan,426.35736326058395,nan,nan,nan,nan
1,61,1,1,1.0,1.0,0.2648975959746167,0.0,1,4,6,2,3,7,nan,nan,nan,nan,nan,nan,nan,nan,nan,nan,nan,nan,0.0,nan,nan,nan,nan,nan,nan,nan,nan,nan,nan,nan,nan,nan,nan,nan,nan,nan,nan,318.1900514579029,427.244434757391,nan,427.5093323533656,nan,nan,nan,nan
1,62,1,1,1.0,1.0,0.16474589373683557,0.0,6,2,0,5,8,1,nan,nan,nan,nan,nan,nan,nan,nan,nan,nan,nan,nan,0.0,nan,nan,nan,nan,nan,nan,nan,nan,nan,nan,nan,nan,nan,nan,nan,nan,nan,nan,318.1900514579029,428.3445944424602,nan,428.50934033619706,nan,nan,nan,nan
1,63,1,1,1.0,1.0,0.2645546195562929,0.0,0,6,3,1,5,8,nan,nan,nan,nan,nan,nan,nan,nan,nan,nan,nan,nan,0.0,nan,nan,nan,nan,nan,nan,nan,nan,nan,nan,nan,nan,nan,nan,nan,nan,nan,nan,318.1900514579029,429.44475669338135,nan,429.70931131293764,nan,nan,nan,nan
1,64,1,1,1.0,1.0,0.2683940745773725,0.0,7,1,6,5,2,3,nan,nan,nan,nan,nan,nan,nan,nan,nan,nan,nan,nan,0.0,nan,nan,nan,nan,nan,nan,nan,nan,nan,nan,nan,nan,nan,nan,nan,nan,nan,nan,318.1900514579029,430.5449155231472,nan,430.8133095977246,nan,nan,nan,nan
1,65,1,1,1.0,1.0,0.2482397152343765,0.0,5,0,7,8,3,2,nan,nan,nan,nan,nan,nan,nan,nan,nan,nan,nan,nan,0.0,nan,nan,nan,nan,nan,nan,nan,nan,nan,nan,nan,nan,nan,nan,nan,nan,nan,nan,318.1900514579029,431.64506437437376,nan,431.89330408960814,nan,nan,nan,nan
1,66,1,1,1.0,1.0,0.21208605833817273,0.0,6,1,4,2,7,3,nan,nan,nan,nan,nan,nan,nan,nan,nan,nan,nan,nan,0.0,nan,nan,nan,nan,nan,nan,nan,nan,nan,nan,nan,nan,nan,nan,nan,nan,nan,nan,318.1900514579029,432.7452220637351,nan,432.9573081220733,nan,nan,nan,nan
1,67,1,1,nan,nan,nan,0.0,7,0,2,8,5,6,nan,nan,nan,nan,nan,nan,nan,nan,nan,nan,nan,nan,0.0,nan,nan,nan,nan,nan,nan,nan,nan,nan,nan,nan,nan,nan,nan,nan,nan,nan,nan,318.1900514579029,433.84538032329874,nan,nan,nan,nan,nan,nan
1,68,0,0,0.0,1.0,0.7077292875037529,1.0,6,3,0,1,4,7,1.0,1.0,1.0,1.0,1.0,1.0,0.0,0.0,0.0,0.0,1.0,0.0,1.0,3.0,6.0,1.0,0.0,4.0,2.0,5.0,6.0,1.0,2.0,3.0,4.0,9.020282939949539,9.907754148298409,3.1101821253541857,4.013578504964244,5.829341681848746,7.6358598888036795,318.1900514579029,434.94554970180616,435.75396867713425,435.6532789893099,446.7222298090928,447.73073266108986,436.77912199730054,446.7138549674419
1,69,1,1,nan,nan,nan,0.0,0,7,4,6,8,1,nan,nan,nan,nan,nan,nan,nan,nan,nan,nan,nan,nan,0.0,nan,nan,nan,nan,nan,nan,nan,nan,nan,nan,nan,nan,nan,nan,nan,nan,nan,nan,318.1900514579029,448.0308091536863,nan,nan,nan,nan,nan,nan
1,70,1,1,1.0,1.0,0.074251702579204,0.0,1,6,8,0,3,5,nan,nan,nan,nan,nan,nan,nan,nan,nan,nan,nan,nan,0.0,nan,nan,nan,nan,nan,nan,nan,nan,nan,nan,nan,nan,nan,nan,nan,nan,nan,nan,318.1900514579029,449.1309887958341,nan,449.20524049841333,nan,nan,nan,nan
1,71,0,0,0.0,1.0,0.7500935844145715,0.0,7,2,0,6,1,4,nan,nan,nan,nan,nan,nan,nan,nan,nan,nan,nan,nan,0.0,nan,nan,nan,nan,nan,nan,nan,nan,nan,nan,nan,nan,nan,nan,nan,nan,nan,nan,318.1900514579029,450.2310883245664,nan,450.98118190898094,nan,nan,nan,nan
1,72,1,1,1.0,1.0,0.489951187861152,0.0,0,8,6,4,2,7,nan,nan,nan,nan,nan,nan,nan,nan,nan,nan,nan,nan,0.0,nan,nan,nan,nan,nan,nan,nan,nan,nan,nan,nan,nan,nan,nan,nan,nan,nan,nan,318.1900514579029,451.33124373311875,nan,451.8211949209799,nan,nan,nan,nan
1,73,1,1,1.0,1.0,0.4297914571943693,0.0,2,4,0,7,1,8,nan,nan,nan,nan,nan,nan,nan,nan,nan,nan,nan,nan,0.0,nan,nan,nan,nan,nan,nan,nan,nan,nan,nan,nan,nan,nan,nan,nan,nan,nan,nan,318.1900514579029,452.43140541389585,nan,452.8611968710902,nan,nan,nan,nan
1,74,1,1,1.0,1.0,0.35360306361690164,0.0,7,8,1,3,4,5,nan,nan,nan,nan,nan,nan,nan,nan,nan,nan,nan,nan,0.0,nan,nan,nan,nan,nan,nan,nan,nan,nan,nan,nan,nan,nan,nan,nan,nan,nan,nan,318.1900514579029,453.5315608224482,nan,453.88516388606513,nan,nan,nan,nan
1,75,1,1,1.0,1.0,0.31743230065330863,0.0,0,3,8,6,7,1,nan,nan,nan,nan,nan,nan,nan,nan,nan,nan,nan,nan,0.0,nan,nan,nan,nan,nan,nan,nan,nan,nan,nan,nan,nan,nan,nan,nan,nan,nan,nan,318.1900514579029,454.6317259244388,nan,454.9491582250921,nan,nan,nan,nan
1,76,1,1,1.0,1.0,0.24925410450669006,0.0,3,1,5,8,2,6,nan,nan,nan,nan,nan,nan,nan,nan,nan,nan,nan,nan,0.0,nan,nan,nan,nan,nan,nan,nan,nan,nan,nan,nan,nan,nan,nan,nan,nan,nan,nan,318.1900514579029,455.7319135494181,nan,455.9811676539248,nan,nan,nan,nan
1,77,1,1,1.0,1.0,0.1731341351987794,0.0,5,4,0,3,6,8,nan,nan,nan,nan,nan,nan,nan,nan,nan,nan,nan,nan,0.0,nan,nan,nan,nan,nan,nan,nan,nan,nan,nan,nan,nan,nan,nan,nan,nan,nan,nan,318.1900514579029,456.83203531603795,nan,457.0051694512367,nan,nan,nan,nan
1,78,0,0,1.0,0.0,0.23296343383844942,1.0,3,8,4,7,1,6,1.0,1.0,1.0,1.0,1.0,1.0,0.0,0.0,1.0,1.0,1.0,0.0,3.0,5.0,3.0,4.0,7.0,1.0,2.0,5.0,6.0,1.0,2.0,3.0,4.0,5.0731777271139435,7.145024032623041,1.0976641961024143,2.107573736400809,3.081851924827788,4.2009386094869114,318.1900514579029,457.93219100969145,458.7406208188622,458.1651544435299,466.9417954919627,467.9482094089617,459.75744377309456,466.9334671217366
1,79,1,1,1.0,1.0,0.4347493634559214,0.0,5,7,6,0,3,8,nan,nan,nan,nan,nan,nan,nan,nan,nan,nan,nan,nan,0.0,nan,nan,nan,nan,nan,nan,nan,nan,nan,nan,nan,nan,nan,nan,nan,nan,nan,nan,318.1900514579029,468.2503534539719,nan,468.68510281742783,nan,nan,nan,nan
1,80,1,1,1.0,1.0,0.3265871786279604,0.0,2,8,3,1,0,4,nan,nan,nan,nan,nan,nan,nan,nan,nan,nan,nan,nan,0.0,nan,nan,nan,nan,nan,nan,nan,nan,nan,nan,nan,nan,nan,nan,nan,nan,nan,nan,318.1900514579029,469.3504840587266,nan,469.67707123735454,nan,nan,nan,nan
1,81,1,1,1.0,1.0,0.2824150563101284,0.0,6,0,4,3,1,8,nan,nan,nan,nan,nan,nan,nan,nan,nan,nan,nan,nan,0.0,nan,nan,nan,nan,nan,nan,nan,nan,nan,nan,nan,nan,nan,nan,nan,nan,nan,nan,318.1900514579029,470.45067510491936,nan,470.7330901612295,nan,nan,nan,nan
1,82,1,1,1.0,1.0,0.21422517107566819,0.0,7,4,0,5,6,1,nan,nan,nan,nan,nan,nan,nan,nan,nan,nan,nan,nan,0.0,nan,nan,nan,nan,nan,nan,nan,nan,nan,nan,nan,nan,nan,nan,nan,nan,nan,nan,318.1900514579029,471.5508336495841,nan,471.76505882065976,nan,nan,nan,nan
1,83,1,1,1.0,1.0,0.24204874713905156,0.0,6,1,8,4,3,2,nan,nan,nan,nan,nan,nan,nan,nan,nan,nan,nan,nan,0.0,nan,nan,nan,nan,nan,nan,nan,nan,nan,nan,nan,nan,nan,nan,nan,nan,nan,nan,318.1900514579029,472.6509944750578,nan,472.89304322219687,nan,nan,nan,nan
1,84,1,1,1.0,1.0,0.1978982925065793,0.0,3,5,2,0,7,1,nan,nan,nan,nan,nan,nan,nan,nan,nan,nan,nan,nan,0.0,nan,nan,nan,nan,nan,nan,nan,nan,nan,nan,nan,nan,nan,nan,nan,nan,nan,nan,318.1900514579029,473.75115187931806,nan,473.94905017182464,nan,nan,nan,nan
1,85,1,1,1.0,1.0,0.313719145313371,0.0,2,0,3,4,5,8,nan,nan,nan,nan,nan,nan,nan,nan,nan,nan,nan,nan,0.0,nan,nan,nan,nan,nan,nan,nan,nan,nan,nan,nan,nan,nan,nan,nan,nan,nan,nan,318.1900514579029,474.85131356009515,nan,475.1650327054085,nan,nan,nan,nan
1,86,1,1,1.0,1.0,0.23757437214953825,0.0,0,7,8,6,3,2,nan,nan,nan,nan,nan,nan,nan,nan,nan,nan,nan,nan,0.0,nan,nan,nan,nan,nan,nan,nan,nan,nan,nan,nan,nan,nan,nan,nan,nan,nan,nan,318.1900514579029,475.95146554743405,nan,476.1890399195836,nan,nan,nan,nan
1,87,1,1,1.0,1.0,0.23341503378469497,0.0,5,4,3,7,6,1,nan,nan,nan,nan,nan,nan,nan,nan,nan,nan,nan,nan,0.0,nan,nan,nan,nan,nan,nan,nan,nan,nan,nan,nan,nan,nan,nan,nan,nan,nan,nan,318.1900514579029,477.0516141135595,nan,477.2850291473442,nan,nan,nan,nan
1,88,1,1,1.0,1.0,0.24523959745420143,0.0,8,2,0,3,7,5,nan,nan,nan,nan,nan,nan,nan,nan,nan,nan,nan,nan,0.0,nan,nan,nan,nan,nan,nan,nan,nan,nan,nan,nan,nan,nan,nan,nan,nan,nan,nan,318.1900514579029,478.1517775049433,nan,478.3970171023975,nan,nan,nan,nan
1,89,1,1,1.0,1.0,0.2250718383002095,0.0,2,6,5,4,1,8,nan,nan,nan,nan,nan,nan,nan,nan,nan,nan,nan,nan,0.0,nan,nan,nan,nan,nan,nan,nan,nan,nan,nan,nan,nan,nan,nan,nan,nan,nan,nan,318.1900514579029,479.2519314879901,nan,479.4770033262903,nan,nan,nan,nan
1,90,1,1,1.0,1.0,0.23690067848656327,0.0,1,5,8,6,2,3,nan,nan,nan,nan,nan,nan,nan,nan,nan,nan,nan,nan,0.0,nan,nan,nan,nan,nan,nan,nan,nan,nan,nan,nan,nan,nan,nan,nan,nan,nan,nan,318.1900514579029,480.3520983005874,nan,480.58899897907395,nan,nan,nan,nan
1,91,0,0,1.0,0.0,0.2727347371401265,1.0,3,7,2,5,0,1,1.0,1.0,1.0,1.0,1.0,1.0,0.0,0.0,1.0,1.0,1.0,1.0,4.0,6.0,3.0,2.0,5.0,0.0,1.0,5.0,6.0,1.0,2.0,3.0,4.0,5.929082268441562,7.048728321271483,1.312999265268445,2.8660507154418156,3.762426483153831,5.216735200199764,318.1900514579029,481.4522625472746,482.2606852288591,481.7249972844147,490.3618393461802,491.3636753965984,483.2774933578912,490.35350384848425
1,92,1,1,0.0,0.0,0.5988688903162256,0.0,2,4,3,8,7,6,nan,nan,nan,nan,nan,nan,nan,nan,nan,nan,nan,nan,0.0,nan,nan,nan,nan,nan,nan,nan,nan,nan,nan,nan,nan,nan,nan,nan,nan,nan,nan,318.1900514579029,491.6620623806957,nan,492.26093127101194,nan,nan,nan,nan
1,93,1,1,1.0,1.0,0.5306724477559328,0.0,3,0,2,4,8,5,nan,nan,nan,nan,nan,nan,nan,nan,nan,nan,nan,nan,0.0,nan,nan,nan,nan,nan,nan,nan,nan,nan,nan,nan,nan,nan,nan,nan,nan,nan,nan,318.1900514579029,492.76220838091103,nan,493.29288082866697,nan,nan,nan,nan
1,94,1,1,1.0,1.0,0.41451089922338724,0.0,5,2,3,1,7,6,nan,nan,nan,nan,nan,nan,nan,nan,nan,nan,nan,nan,0.0,nan,nan,nan,nan,nan,nan,nan,nan,nan,nan,nan,nan,nan,nan,nan,nan,nan,nan,318.1900514579029,493.8623957207892,nan,494.2769066200126,nan,nan,nan,nan
1,95,1,1,1.0,1.0,0.41037037753267214,0.0,7,8,4,3,5,2,nan,nan,nan,nan,nan,nan,nan,nan,nan,nan,nan,nan,0.0,nan,nan,nan,nan,nan,nan,nan,nan,nan,nan,nan,nan,nan,nan,nan,nan,nan,nan,318.1900514579029,494.9625337381731,nan,495.37290411570575,nan,nan,nan,nan
1,96,1,1,1.0,1.0,0.45420608069980517,0.0,0,4,6,7,2,3,nan,nan,nan,nan,nan,nan,nan,nan,nan,nan,nan,nan,0.0,nan,nan,nan,nan,nan,nan,nan,nan,nan,nan,nan,nan,nan,nan,nan,nan,nan,nan,318.1900514579029,496.06268886162434,nan,496.51689494232414,nan,nan,nan,nan
1,97,0,0,0.0,1.0,0.5540364740882069,1.0,3,0,5,6,8,2,1.0,1.0,1.0,1.0,1.0,1.0,0.0,1.0,1.0,1.0,1.0,0.0,4.0,1.0,0.0,5.0,6.0,8.0,4.0,5.0,4.0,1.0,2.0,3.0,6.0,6.466228504432365,5.019311315729283,1.2018643324263394,2.835449970618356,3.7942209458560683,7.409932462440338,318.1900514579029,497.16285567422165,497.9712817770196,497.71689214830985,506.43916614801856,507.44718432833906,498.98809703357983,506.43082751421025
1,98,1,1,1.0,1.0,0.43312970467377454,0.0,1,3,6,8,2,5,nan,nan,nan,nan,nan,nan,nan,nan,nan,nan,nan,nan,0.0,nan,nan,nan,nan,nan,nan,nan,nan,nan,nan,nan,nan,nan,nan,nan,nan,nan,nan,318.1900514579029,507.74771612725453,nan,508.1808458319283,nan,nan,nan,nan
1,99,1,1,1.0,1.0,0.38893334881868213,0.0,2,8,0,4,3,7,nan,nan,nan,nan,nan,nan,nan,nan,nan,nan,nan,nan,0.0,nan,nan,nan,nan,nan,nan,nan,nan,nan,nan,nan,nan,nan,nan,nan,nan,nan,nan,318.1900514579029,508.8478738166159,nan,509.2368071654346,nan,nan,nan,nan
1,100,1,1,1.0,1.0,0.2967795847216621,0.0,7,3,8,5,0,2,nan,nan,nan,nan,nan,nan,nan,nan,nan,nan,nan,nan,0.0,nan,nan,nan,nan,nan,nan,nan,nan,nan,nan,nan,nan,nan,nan,nan,nan,nan,nan,318.1900514579029,509.9480369228986,nan,510.24481650762027,nan,nan,nan,nan
1,101,1,1,1.0,1.0,0.26061537908390164,0.0,5,2,4,1,3,0,nan,nan,nan,nan,nan,nan,nan,nan,nan,nan,nan,nan,0.0,nan,nan,nan,nan,nan,nan,nan,nan,nan,nan,nan,nan,nan,nan,nan,nan,nan,nan,318.1900514579029,511.04816866805777,nan,511.30878404714167,nan,nan,nan,nan
1,102,1,1,1.0,1.0,0.2644300303654745,0.0,0,5,6,8,7,4,nan,nan,nan,nan,nan,nan,nan,nan,nan,nan,nan,nan,0.0,nan,nan,nan,nan,nan,nan,nan,nan,nan,nan,nan,nan,nan,nan,nan,nan,nan,nan,318.1900514579029,512.1483525867225,nan,512.4127826170879,nan,nan,nan,nan
1,103,1,1,1.0,1.0,0.2922721380018629,0.0,3,7,5,4,8,0,nan,nan,nan,nan,nan,nan,nan,nan,nan,nan,nan,nan,0.0,nan,nan,nan,nan,nan,nan,nan,nan,nan,nan,nan,nan,nan,nan,nan,nan,nan,nan,318.1900514579029,513.2485108462861,nan,513.540782984288,nan,nan,nan,nan
1,104,1,1,1.0,1.0,0.23210642026970163,0.0,0,2,3,8,4,6,nan,nan,nan,nan,nan,nan,nan,nan,nan,nan,nan,nan,0.0,nan,nan,nan,nan,nan,nan,nan,nan,nan,nan,nan,nan,nan,nan,nan,nan,nan,nan,318.1900514579029,514.3486759482184,nan,514.5807823684881,nan,nan,nan,nan
1,105,1,1,1.0,1.0,0.17192872817395255,0.0,1,0,5,7,6,3,nan,nan,nan,nan,nan,nan,nan,nan,nan,nan,nan,nan,0.0,nan,nan,nan,nan,nan,nan,nan,nan,nan,nan,nan,nan,nan,nan,nan,nan,nan,nan,318.1900514579029,515.4488384842989,nan,515.6207672124729,nan,nan,nan,nan
1,106,1,1,1.0,1.0,0.1598199188010767,0.0,8,7,1,0,4,5,nan,nan,nan,nan,nan,nan,nan,nan,nan,nan,nan,nan,0.0,nan,nan,nan,nan,nan,nan,nan,nan,nan,nan,nan,nan,nan,nan,nan,nan,nan,nan,318.1900514579029,516.5489702295163,nan,516.7087901483173,nan,nan,nan,nan
1,107,1,1,1.0,1.0,0.19560522522078827,0.0,2,0,7,8,1,6,nan,nan,nan,nan,nan,nan,nan,nan,nan,nan,nan,nan,0.0,nan,nan,nan,nan,nan,nan,nan,nan,nan,nan,nan,nan,nan,nan,nan,nan,nan,nan,318.1900514579029,517.6491367569542,nan,517.844741982175,nan,nan,nan,nan
1,108,1,1,1.0,1.0,0.20745145657565445,0.0,0,1,4,3,2,7,nan,nan,nan,nan,nan,nan,nan,nan,nan,nan,nan,nan,0.0,nan,nan,nan,nan,nan,nan,nan,nan,nan,nan,nan,nan,nan,nan,nan,nan,nan,nan,318.1900514579029,518.7492967271246,nan,518.9567481837003,nan,nan,nan,nan
1,109,1,1,1.0,1.0,0.2672682107659057,0.0,5,6,1,7,3,0,nan,nan,nan,nan,nan,nan,nan,nan,nan,nan,nan,nan,0.0,nan,nan,nan,nan,nan,nan,nan,nan,nan,nan,nan,nan,nan,nan,nan,nan,nan,nan,318.1900514579029,519.8494746586657,nan,520.1167428694316,nan,nan,nan,nan
1,110,1,1,1.0,1.0,0.3670988893136382,0.0,0,4,7,3,6,5,nan,nan,nan,nan,nan,nan,nan,nan,nan,nan,nan,nan,0.0,nan,nan,nan,nan,nan,nan,nan,nan,nan,nan,nan,nan,nan,nan,nan,nan,nan,nan,318.1900514579029,520.9496263609035,nan,521.3167252502171,nan,nan,nan,nan
1,111,1,1,1.0,1.0,0.2909429972060025,0.0,1,6,2,7,8,3,nan,nan,nan,nan,nan,nan,nan,nan,nan,nan,nan,nan,0.0,nan,nan,nan,nan,nan,nan,nan,nan,nan,nan,nan,nan,nan,nan,nan,nan,nan,nan,318.1900514579029,522.0497863310738,nan,522.3407293282798,nan,nan,nan,nan
1,112,1,1,1.0,1.0,0.2467728705960326,0.0,0,2,8,3,7,1,nan,nan,nan,nan,nan,nan,nan,nan,nan,nan,nan,nan,0.0,nan,nan,nan,nan,nan,nan,nan,nan,nan,nan,nan,nan,nan,nan,nan,nan,nan,nan,318.1900514579029,523.1499431651318,nan,523.3967160357279,nan,nan,nan,nan
1,113,1,1,1.0,1.0,0.24260383879300207,0.0,5,3,6,8,4,2,nan,nan,nan,nan,nan,nan,nan,nan,nan,nan,nan,nan,0.0,nan,nan,nan,nan,nan,nan,nan,nan,nan,nan,nan,nan,nan,nan,nan,nan,nan,nan,318.1900514579029,524.2500974332797,nan,524.4927012720727,nan,nan,nan,nan
1,114,1,1,1.0,1.0,0.15844943834235892,0.0,2,8,0,4,1,5,nan,nan,nan,nan,nan,nan,nan,nan,nan,nan,nan,nan,0.0,nan,nan,nan,nan,nan,nan,nan,nan,nan,nan,nan,nan,nan,nan,nan,nan,nan,nan,318.1900514579029,525.3502534120344,nan,525.5087028503767,nan,nan,nan,nan
1,115,1,1,1.0,1.0,0.12228665821021423,0.0,4,5,3,1,8,7,nan,nan,nan,nan,nan,nan,nan,nan,nan,nan,nan,nan,0.0,nan,nan,nan,nan,nan,nan,nan,nan,nan,nan,nan,nan,nan,nan,nan,nan,nan,nan,318.1900514579029,526.4504130971036,nan,526.5726997553138,nan,nan,nan,nan
1,116,1,1,1.0,1.0,0.25411251053446904,0.0,6,3,4,7,5,8,nan,nan,nan,nan,nan,nan,nan,nan,nan,nan,nan,nan,0.0,nan,nan,nan,nan,nan,nan,nan,nan,nan,nan,nan,nan,nan,nan,nan,nan,nan,nan,318.1900514579029,527.5505864670267,nan,527.8046989775612,nan,nan,nan,nan
1,117,0,0,1.0,0.0,0.27394955250201747,0.0,0,6,8,5,7,1,nan,nan,nan,nan,nan,nan,nan,nan,nan,nan,nan,nan,0.0,nan,nan,nan,nan,nan,nan,nan,nan,nan,nan,nan,nan,nan,nan,nan,nan,nan,nan,318.1900514579029,528.6507350331522,nan,528.9246845856542,nan,nan,nan,nan
1,118,1,1,1.0,1.0,0.6857770812348463,0.0,5,4,7,6,3,8,nan,nan,nan,nan,nan,nan,nan,nan,nan,nan,nan,nan,0.0,nan,nan,nan,nan,nan,nan,nan,nan,nan,nan,nan,nan,nan,nan,nan,nan,nan,nan,318.1900514579029,529.7508853098843,nan,530.4366623911192,nan,nan,nan,nan
1,119,1,1,1.0,1.0,0.45759450597688556,0.0,4,7,1,2,8,5,nan,nan,nan,nan,nan,nan,nan,nan,nan,nan,nan,nan,0.0,nan,nan,nan,nan,nan,nan,nan,nan,nan,nan,nan,nan,nan,nan,nan,nan,nan,nan,318.1900514579029,530.8510609606165,nan,531.3086554665933,nan,nan,nan,nan
1,120,1,1,1.0,1.0,0.35745249717729166,0.0,0,4,2,6,1,8,nan,nan,nan,nan,nan,nan,nan,nan,nan,nan,nan,nan,0.0,nan,nan,nan,nan,nan,nan,nan,nan,nan,nan,nan,nan,nan,nan,nan,nan,nan,nan,318.1900514579029,531.9512049651239,nan,532.3086574623012,nan,nan,nan,nan
1,121,1,1,1.0,1.0,0.30528329202206805,0.0,4,2,7,5,0,1,nan,nan,nan,nan,nan,nan,nan,nan,nan,nan,nan,nan,0.0,nan,nan,nan,nan,nan,nan,nan,nan,nan,nan,nan,nan,nan,nan,nan,nan,nan,nan,318.1900514579029,533.0513703522156,nan,533.3566536442377,nan,nan,nan,nan
1,122,1,1,1.0,1.0,0.25311465706909075,0.0,3,6,0,4,2,5,nan,nan,nan,nan,nan,nan,nan,nan,nan,nan,nan,nan,0.0,nan,nan,nan,nan,nan,nan,nan,nan,nan,nan,nan,nan,nan,nan,nan,nan,nan,nan,318.1900514579029,534.1515343138017,nan,534.4046489708708,nan,nan,nan,nan
1,123,1,1,1.0,1.0,0.3609421332948841,0.0,8,0,4,5,1,2,nan,nan,nan,nan,nan,nan,nan,nan,nan,nan,nan,nan,0.0,nan,nan,nan,nan,nan,nan,nan,nan,nan,nan,nan,nan,nan,nan,nan,nan,nan,nan,318.1900514579029,535.2516945690732,nan,535.612636702368,nan,nan,nan,nan
1,124,1,1,1.0,1.0,0.3167990912916139,0.0,7,5,1,4,6,0,nan,nan,nan,nan,nan,nan,nan,nan,nan,nan,nan,nan,0.0,nan,nan,nan,nan,nan,nan,nan,nan,nan,nan,nan,nan,nan,nan,nan,nan,nan,nan,318.1900514579029,536.3518422798952,nan,536.6686413711868,nan,nan,nan,nan
1,125,1,1,1.0,1.0,0.31261551938951015,0.0,8,2,3,6,4,7,nan,nan,nan,nan,nan,nan,nan,nan,nan,nan,nan,nan,0.0,nan,nan,nan,nan,nan,nan,nan,nan,nan,nan,nan,nan,nan,nan,nan,nan,nan,nan,318.1900514579029,537.4520096626366,nan,537.7646251820261,nan,nan,nan,nan
1,126,1,1,1.0,1.0,0.30051697365706787,0.0,2,4,0,5,8,1,nan,nan,nan,nan,nan,nan,nan,nan,nan,nan,nan,nan,0.0,nan,nan,nan,nan,nan,nan,nan,nan,nan,nan,nan,nan,nan,nan,nan,nan,nan,nan,318.1900514579029,538.5521645009867,nan,538.8526814746438,nan,nan,nan,nan
1,127,1,1,1.0,1.0,0.288290417578537,0.0,0,6,4,8,7,2,nan,nan,nan,nan,nan,nan,nan,nan,nan,nan,nan,nan,0.0,nan,nan,nan,nan,nan,nan,nan,nan,nan,nan,nan,nan,nan,nan,nan,nan,nan,nan,318.1900514579029,539.6523176287301,nan,539.9406080463086,nan,nan,nan,nan
1,128,1,1,1.0,1.0,0.5001110468874685,0.0,8,4,6,7,5,3,nan,nan,nan,nan,nan,nan,nan,nan,nan,nan,nan,nan,0.0,nan,nan,nan,nan,nan,nan,nan,nan,nan,nan,nan,nan,nan,nan,nan,nan,nan,nan,318.1900514579029,540.7524804499117,nan,541.2525914967991,nan,nan,nan,nan
1,129,1,1,1.0,1.0,0.3279605100979097,0.0,4,7,3,6,8,0,nan,nan,nan,nan,nan,nan,nan,nan,nan,nan,nan,nan,0.0,nan,nan,nan,nan,nan,nan,nan,nan,nan,nan,nan,nan,nan,nan,nan,nan,nan,nan,318.1900514579029,541.8526375690708,nan,542.1805980791687,nan,nan,nan,nan
1,130,1,1,1.0,1.0,0.26780249003786594,0.0,6,0,8,1,3,7,nan,nan,nan,nan,nan,nan,nan,nan,nan,nan,nan,nan,0.0,nan,nan,nan,nan,nan,nan,nan,nan,nan,nan,nan,nan,nan,nan,nan,nan,nan,nan,318.1900514579029,542.9527944031288,nan,543.2205968931667,nan,nan,nan,nan
1,131,1,1,1.0,1.0,0.2396174058667384,0.0,3,8,2,6,7,1,nan,nan,nan,nan,nan,nan,nan,nan,nan,nan,nan,nan,0.0,nan,nan,nan,nan,nan,nan,nan,nan,nan,nan,nan,nan,nan,nan,nan,nan,nan,nan,318.1900514579029,544.0529523775913,nan,544.292569783458,nan,nan,nan,nan
1,132,0,0,1.0,0.0,0.27543949033133686,0.0,0,4,8,1,6,2,nan,nan,nan,nan,nan,nan,nan,nan,nan,nan,nan,nan,0.0,nan,nan,nan,nan,nan,nan,nan,nan,nan,nan,nan,nan,nan,nan,nan,nan,nan,nan,318.1900514579029,545.1531106371549,nan,545.4285501274862,nan,nan,nan,nan
1,133,1,1,1.0,1.0,0.6152927032089792,0.0,2,8,6,7,5,3,nan,nan,nan,nan,nan,nan,nan,nan,nan,nan,nan,nan,0.0,nan,nan,nan,nan,nan,nan,nan,nan,nan,nan,nan,nan,nan,nan,nan,nan,nan,nan,318.1900514579029,546.2532711775275,nan,546.8685638807365,nan,nan,nan,nan
1,134,1,1,1.0,1.0,0.43514308793237433,0.0,6,2,1,5,0,8,nan,nan,nan,nan,nan,nan,nan,nan,nan,nan,nan,nan,0.0,nan,nan,nan,nan,nan,nan,nan,nan,nan,nan,nan,nan,nan,nan,nan,nan,nan,nan,318.1900514579029,547.3534422666417,nan,547.788585354574,nan,nan,nan,nan
1,135,1,1,1.0,1.0,0.15895891381660476,0.0,4,5,3,0,7,1,nan,nan,nan,nan,nan,nan,nan,nan,nan,nan,nan,nan,0.0,nan,nan,nan,nan,nan,nan,nan,nan,nan,nan,nan,nan,nan,nan,nan,nan,nan,nan,318.1900514579029,548.4535885519581,nan,548.6125474657747,nan,nan,nan,nan
1,136,0,0,0.0,1.0,0.6187926030252129,1.0,2,8,6,1,4,0,1.0,1.0,1.0,1.0,1.0,1.0,0.0,1.0,1.0,1.0,1.0,0.0,4.0,5.0,8.0,6.0,1.0,4.0,3.0,5.0,6.0,1.0,2.0,3.0,4.0,7.355668620264623,8.715442979941145,1.3012103392393328,2.8043964853859507,3.691983729833737,5.83489801507676,318.1900514579029,549.5537465264206,550.3621789014433,550.1725391294458,560.1219063334865,561.1264759322512,551.3706589454086,560.1135711208917
1,137,1,1,1.0,1.0,0.5263448997866362,0.0,1,0,4,8,6,3,nan,nan,nan,nan,nan,nan,nan,nan,nan,nan,nan,nan,0.0,nan,nan,nan,nan,nan,nan,nan,nan,nan,nan,nan,nan,nan,nan,nan,nan,nan,nan,318.1900514579029,561.4221211000695,nan,561.9484659998561,nan,nan,nan,nan
1,138,1,1,1.0,1.0,0.41815078363288194,0.0,2,6,0,5,4,1,nan,nan,nan,nan,nan,nan,nan,nan,nan,nan,nan,nan,0.0,nan,nan,nan,nan,nan,nan,nan,nan,nan,nan,nan,nan,nan,nan,nan,nan,nan,nan,318.1900514579029,562.5222847765544,nan,562.9404355601873,nan,nan,nan,nan
1,139,1,1,1.0,1.0,0.35000223806127906,0.0,6,4,3,1,8,7,nan,nan,nan,nan,nan,nan,nan,nan,nan,nan,nan,nan,0.0,nan,nan,nan,nan,nan,nan,nan,nan,nan,nan,nan,nan,nan,nan,nan,nan,nan,nan,318.1900514579029,563.6224379042978,nan,563.9724401423591,nan,nan,nan,nan
1,140,1,1,1.0,1.0,0.26586551388027146,0.0,5,8,2,0,4,6,nan,nan,nan,nan,nan,nan,nan,nan,nan,nan,nan,nan,0.0,nan,nan,nan,nan,nan,nan,nan,nan,nan,nan,nan,nan,nan,nan,nan,nan,nan,nan,318.1900514579029,564.7225987297716,nan,564.9884642436518,nan,nan,nan,nan
1,141,1,1,1.0,1.0,0.24566382775083184,0.0,4,3,6,5,0,2,nan,nan,nan,nan,nan,nan,nan,nan,nan,nan,nan,nan,0.0,nan,nan,nan,nan,nan,nan,nan,nan,nan,nan,nan,nan,nan,nan,nan,nan,nan,nan,318.1900514579029,565.8227595552453,nan,566.0684233829961,nan,nan,nan,nan
1,142,0,0,0.0,1.0,0.6655038347817026,1.0,3,5,1,7,6,4,1.0,1.0,1.0,1.0,1.0,1.0,0.0,1.0,1.0,1.0,1.0,1.0,5.0,8.0,5.0,1.0,7.0,6.0,4.0,5.0,6.0,1.0,2.0,3.0,4.0,5.78541303583188,7.057754333596677,1.2509641402866691,2.5869331372668967,3.4664762572501786,4.522966453048866,318.1900514579029,566.922922661528,567.731346483517,567.5884264963097,575.8491738771554,576.8511844093446,568.7481614549761,575.8408418006147
1,143,1,1,1.0,1.0,0.5909949711058289,0.0,8,1,4,0,5,3,nan,nan,nan,nan,nan,nan,nan,nan,nan,nan,nan,nan,0.0,nan,nan,nan,nan,nan,nan,nan,nan,nan,nan,nan,nan,nan,nan,nan,nan,nan,nan,318.1900514579029,577.1493726780755,nan,577.7403676491813,nan,nan,nan,nan
1,144,1,1,1.0,1.0,0.45079684304073453,0.0,4,8,2,3,7,6,nan,nan,nan,nan,nan,nan,nan,nan,nan,nan,nan,nan,0.0,nan,nan,nan,nan,nan,nan,nan,nan,nan,nan,nan,nan,nan,nan,nan,nan,nan,nan,318.1900514579029,578.249582255783,nan,578.7003790988238,nan,nan,nan,nan
1,145,1,1,1.0,1.0,0.3986458843573928,0.0,7,5,4,8,0,3,nan,nan,nan,nan,nan,nan,nan,nan,nan,nan,nan,nan,0.0,nan,nan,nan,nan,nan,nan,nan,nan,nan,nan,nan,nan,nan,nan,nan,nan,nan,nan,318.1900514579029,579.3497091542231,nan,579.7483550385805,nan,nan,nan,nan
1,146,1,1,1.0,1.0,0.32245578011497855,0.0,4,1,5,2,8,7,nan,nan,nan,nan,nan,nan,nan,nan,nan,nan,nan,nan,0.0,nan,nan,nan,nan,nan,nan,nan,nan,nan,nan,nan,nan,nan,nan,nan,nan,nan,nan,318.1900514579029,580.449881953944,nan,580.772337734059,nan,nan,nan,nan
1,147,1,1,1.0,1.0,0.2943117505637929,0.0,1,2,6,8,0,4,nan,nan,nan,nan,nan,nan,nan,nan,nan,nan,nan,nan,0.0,nan,nan,nan,nan,nan,nan,nan,nan,nan,nan,nan,nan,nan,nan,nan,nan,nan,nan,318.1900514579029,581.5500259584514,nan,581.8443377090152,nan,nan,nan,nan
1,148,1,1,1.0,1.0,0.29815035028150305,0.0,3,1,8,7,5,2,nan,nan,nan,nan,nan,nan,nan,nan,nan,nan,nan,nan,0.0,nan,nan,nan,nan,nan,nan,nan,nan,nan,nan,nan,nan,nan,nan,nan,nan,nan,nan,318.1900514579029,582.6501833627117,nan,582.9483337129932,nan,nan,nan,nan
1,149,0,0,0.0,1.0,0.5899740244494751,1.0,1,3,6,2,4,5,1.0,1.0,1.0,1.0,1.0,1.0,0.0,0.0,1.0,0.0,0.0,0.0,1.0,3.0,1.0,6.0,4.0,5.0,8.0,5.0,6.0,1.0,2.0,3.0,4.0,8.598894264316186,10.03030138881877,1.912503645697143,4.255457902152557,5.312210961070377,7.7182001916226,318.1900514579029,583.7503447583877,584.5587982308934,584.3403187828371,595.6353575409157,596.6318761726725,585.5672517604544,595.6269872608827
1,150,1,1,nan,nan,nan,0.0,4,2,7,8,5,1,nan,nan,nan,nan,nan,nan,nan,nan,nan,nan,nan,nan,0.0,nan,nan,nan,nan,nan,nan,nan,nan,nan,nan,nan,nan,nan,nan,nan,nan,nan,nan,318.1900514579029,596.9272368097445,nan,nan,nan,nan,nan,nan
1,151,1,1,1.0,1.0,0.600789045507554,0.0,8,1,5,3,0,2,nan,nan,nan,nan,nan,nan,nan,nan,nan,nan,nan,nan,0.0,nan,nan,nan,nan,nan,nan,nan,nan,nan,nan,nan,nan,nan,nan,nan,nan,nan,nan,318.1900514579029,598.027399345825,nan,598.6281883913325,nan,nan,nan,nan
1,152,1,1,1.0,1.0,0.46863988862605765,0.0,3,5,0,6,7,4,nan,nan,nan,nan,nan,nan,nan,nan,nan,nan,nan,nan,0.0,nan,nan,nan,nan,nan,nan,nan,nan,nan,nan,nan,nan,nan,nan,nan,nan,nan,nan,318.1900514579029,599.1275638776133,nan,599.5962037662393,nan,nan,nan,nan
1,153,0,0,1.0,0.0,0.2644836293766275,1.0,2,7,8,1,5,3,1.0,1.0,1.0,1.0,1.0,1.0,0.0,0.0,1.0,1.0,0.0,1.0,3.0,6.0,8.0,8.0,1.0,2.0,3.0,5.0,6.0,1.0,2.0,3.0,4.0,6.840884280623868,7.832425619242713,1.5207124445587397,2.4500897925463505,3.663987667649053,5.824997598014306,318.1900514579029,600.2277272689971,601.0361536568962,600.4922108983737,609.929096808657,610.9369878339348,602.0613061218173,609.9207613109029
1,154,1,1,1.0,1.0,0.5265017053461634,0.0,5,0,4,3,7,6,nan,nan,nan,nan,nan,nan,nan,nan,nan,nan,nan,nan,0.0,nan,nan,nan,nan,nan,nan,nan,nan,nan,nan,nan,nan,nan,nan,nan,nan,nan,nan,318.1900514579029,611.2376636088011,nan,611.7641653141472,nan,nan,nan,nan
1,155,1,1,1.0,1.0,0.5543118816567585,0.0,4,6,2,8,1,3,nan,nan,nan,nan,nan,nan,nan,nan,nan,nan,nan,nan,0.0,nan,nan,nan,nan,nan,nan,nan,nan,nan,nan,nan,nan,nan,nan,nan,nan,nan,nan,318.1900514579029,612.3378033367917,nan,612.8921152184485,nan,nan,nan,nan
1,156,1,1,1.0,1.0,0.4941484446753748,0.0,3,7,0,1,8,2,nan,nan,nan,nan,nan,nan,nan,nan,nan,nan,nan,nan,0.0,nan,nan,nan,nan,nan,nan,nan,nan,nan,nan,nan,nan,nan,nan,nan,nan,nan,nan,318.1900514579029,613.4379536135239,nan,613.9321020581992,nan,nan,nan,nan
1,157,1,1,1.0,1.0,0.5060063651762903,0.0,1,5,8,6,3,7,nan,nan,nan,nan,nan,nan,nan,nan,nan,nan,nan,nan,0.0,nan,nan,nan,nan,nan,nan,nan,nan,nan,nan,nan,nan,nan,nan,nan,nan,nan,nan,318.1900514579029,614.5381113028852,nan,615.0441176680615,nan,nan,nan,nan
1,158,1,1,1.0,1.0,0.5338136904756539,0.0,4,3,6,7,2,8,nan,nan,nan,nan,nan,nan,nan,nan,nan,nan,nan,nan,0.0,nan,nan,nan,nan,nan,nan,nan,nan,nan,nan,nan,nan,nan,nan,nan,nan,nan,nan,318.1900514579029,615.6382786856848,nan,616.1720923761604,nan,nan,nan,nan
1,159,1,1,1.0,1.0,0.3616568815195933,0.0,7,1,8,0,6,2,nan,nan,nan,nan,nan,nan,nan,nan,nan,nan,nan,nan,0.0,nan,nan,nan,nan,nan,nan,nan,nan,nan,nan,nan,nan,nan,nan,nan,nan,nan,nan,318.1900514579029,616.7384343793383,nan,617.1000912608579,nan,nan,nan,nan
1,160,1,1,1.0,1.0,0.4374946008902043,0.0,2,0,1,5,7,3,nan,nan,nan,nan,nan,nan,nan,nan,nan,nan,nan,nan,0.0,nan,nan,nan,nan,nan,nan,nan,nan,nan,nan,nan,nan,nan,nan,nan,nan,nan,nan,318.1900514579029,617.8385966303176,nan,618.2760912312078,nan,nan,nan,nan
1,161,1,1,1.0,1.0,0.3613156155915931,0.0,3,2,4,8,6,7,nan,nan,nan,nan,nan,nan,nan,nan,nan,nan,nan,nan,0.0,nan,nan,nan,nan,nan,nan,nan,nan,nan,nan,nan,nan,nan,nan,nan,nan,nan,nan,318.1900514579029,618.9387554600835,nan,619.3000710756751,nan,nan,nan,nan
1,162,1,1,1.0,1.0,0.5491666640155017,0.0,5,3,8,2,0,6,nan,nan,nan,nan,nan,nan,nan,nan,nan,nan,nan,nan,0.0,nan,nan,nan,nan,nan,nan,nan,nan,nan,nan,nan,nan,nan,nan,nan,nan,nan,nan,318.1900514579029,620.0389236981864,nan,620.5880903622019,nan,nan,nan,nan
1,163,1,1,1.0,1.0,0.42498408420942724,0.0,3,7,5,6,4,1,nan,nan,nan,nan,nan,nan,nan,nan,nan,nan,nan,nan,0.0,nan,nan,nan,nan,nan,nan,nan,nan,nan,nan,nan,nan,nan,nan,nan,nan,nan,nan,318.1900514579029,621.139072549413,nan,621.5640566336224,nan,nan,nan,nan
1,164,1,1,1.0,1.0,0.37283341062720865,0.0,8,4,1,5,2,0,nan,nan,nan,nan,nan,nan,nan,nan,nan,nan,nan,nan,0.0,nan,nan,nan,nan,nan,nan,nan,nan,nan,nan,nan,nan,nan,nan,nan,nan,nan,nan,318.1900514579029,622.239224821853,nan,622.6120582324802,nan,nan,nan,nan
1,165,1,1,1.0,1.0,0.288663899875246,0.0,7,1,6,3,8,4,nan,nan,nan,nan,nan,nan,nan,nan,nan,nan,nan,nan,0.0,nan,nan,nan,nan,nan,nan,nan,nan,nan,nan,nan,nan,nan,nan,nan,nan,nan,nan,318.1900514579029,623.3393876429764,nan,623.6280515428516,nan,nan,nan,nan
1,166,1,1,1.0,1.0,0.25250881747342646,0.0,8,7,4,0,1,3,nan,nan,nan,nan,nan,nan,nan,nan,nan,nan,nan,nan,0.0,nan,nan,nan,nan,nan,nan,nan,nan,nan,nan,nan,nan,nan,nan,nan,nan,nan,nan,318.1900514579029,624.4395501790568,nan,624.6920589965302,nan,nan,nan,nan
1,167,1,1,1.0,1.0,0.2083398312679492,0.0,7,0,2,8,5,4,nan,nan,nan,nan,nan,nan,nan,nan,nan,nan,nan,nan,0.0,nan,nan,nan,nan,nan,nan,nan,nan,nan,nan,nan,nan,nan,nan,nan,nan,nan,nan,318.1900514579029,625.5397033068002,nan,625.7480431380682,nan,nan,nan,nan
1,168,1,1,1.0,1.0,0.23617424117401242,0.0,5,4,7,6,2,1,nan,nan,nan,nan,nan,nan,nan,nan,nan,nan,nan,nan,0.0,nan,nan,nan,nan,nan,nan,nan,nan,nan,nan,nan,nan,nan,nan,nan,nan,nan,nan,318.1900514579029,626.6398607110605,nan,626.8760349522345,nan,nan,nan,nan
1,169,0,0,nan,nan,nan,1.0,4,8,3,2,1,0,1.0,1.0,1.0,1.0,1.0,1.0,1.0,0.0,1.0,1.0,1.0,1.0,5.0,4.0,5.0,3.0,2.0,1.0,0.0,5.0,6.0,1.0,2.0,3.0,4.0,7.696540784148965,8.616431396570988,1.4006011069286615,2.344733571691904,3.3040947059635073,5.945874431810807,318.1900514579029,627.7400166898151,628.5484499201993,nan,638.2164640691481,639.2196532088565,629.5569396575447,638.2081325628678
1,170,1,1,1.0,1.0,0.7512305671698414,0.0,1,3,4,0,8,7,nan,nan,nan,nan,nan,nan,nan,nan,nan,nan,nan,nan,0.0,nan,nan,nan,nan,nan,nan,nan,nan,nan,nan,nan,nan,nan,nan,nan,nan,nan,nan,318.1900514579029,639.5167147584725,nan,640.2679453256424,nan,nan,nan,nan
1,171,1,1,1.0,1.0,0.3870391378295608,0.0,5,4,2,8,6,1,nan,nan,nan,nan,nan,nan,nan,nan,nan,nan,nan,nan,0.0,nan,nan,nan,nan,nan,nan,nan,nan,nan,nan,nan,nan,nan,nan,nan,nan,nan,nan,318.1900514579029,640.6168801455642,nan,641.0039192833938,nan,nan,nan,nan
1,172,1,1,1.0,1.0,0.3588962486246601,0.0,8,7,3,1,0,5,nan,nan,nan,nan,nan,nan,nan,nan,nan,nan,nan,nan,0.0,nan,nan,nan,nan,nan,nan,nan,nan,nan,nan,nan,nan,nan,nan,nan,nan,nan,nan,318.1900514579029,641.7170369796222,nan,642.0759332282469,nan,nan,nan,nan
1,173,1,1,1.0,1.0,0.4907269476680085,0.0,7,2,4,6,8,0,nan,nan,nan,nan,nan,nan,nan,nan,nan,nan,nan,nan,0.0,nan,nan,nan,nan,nan,nan,nan,nan,nan,nan,nan,nan,nan,nan,nan,nan,nan,nan,318.1900514579029,642.8171998008038,nan,643.3079267484718,nan,nan,nan,nan
1,174,1,1,1.0,1.0,0.4705745839746669,0.0,3,0,6,7,5,4,nan,nan,nan,nan,nan,nan,nan,nan,nan,nan,nan,nan,0.0,nan,nan,nan,nan,nan,nan,nan,nan,nan,nan,nan,nan,nan,nan,nan,nan,nan,nan,318.1900514579029,643.9173566348618,nan,644.3879312188365,nan,nan,nan,nan
1,175,1,1,1.0,1.0,0.5063955279765651,0.0,4,1,3,5,2,8,nan,nan,nan,nan,nan,nan,nan,nan,nan,nan,nan,nan,0.0,nan,nan,nan,nan,nan,nan,nan,nan,nan,nan,nan,nan,nan,nan,nan,nan,nan,nan,318.1900514579029,645.017514039122,nan,645.5239095670986,nan,nan,nan,nan
1,176,1,1,1.0,1.0,0.40622985584195703,0.0,0,8,5,4,3,7,nan,nan,nan,nan,nan,nan,nan,nan,nan,nan,nan,nan,0.0,nan,nan,nan,nan,nan,nan,nan,nan,nan,nan,nan,nan,nan,nan,nan,nan,nan,nan,318.1900514579029,646.1176740092924,nan,646.5239038651343,nan,nan,nan,nan
1,177,1,1,1.0,1.0,0.3940779961994849,0.0,7,3,8,0,5,6,nan,nan,nan,nan,nan,nan,nan,nan,nan,nan,nan,nan,0.0,nan,nan,nan,nan,nan,nan,nan,nan,nan,nan,nan,nan,nan,nan,nan,nan,nan,nan,318.1900514579029,647.2178242860246,nan,647.611902282224,nan,nan,nan,nan
1,178,1,1,1.0,1.0,0.3418976721004583,0.0,0,5,2,6,3,8,nan,nan,nan,nan,nan,nan,nan,nan,nan,nan,nan,nan,0.0,nan,nan,nan,nan,nan,nan,nan,nan,nan,nan,nan,nan,nan,nan,nan,nan,nan,nan,318.1900514579029,648.3179902433185,nan,648.659887915419,nan,nan,nan,nan
1,179,1,1,1.0,1.0,0.3297173024038784,0.0,5,1,3,8,4,2,nan,nan,nan,nan,nan,nan,nan,nan,nan,nan,nan,nan,0.0,nan,nan,nan,nan,nan,nan,nan,nan,nan,nan,nan,nan,nan,nan,nan,nan,nan,nan,318.1900514579029,649.4181453667697,nan,649.7478626691736,nan,nan,nan,nan
1,180,1,1,1.0,1.0,0.3175583152915351,0.0,8,4,5,3,2,0,nan,nan,nan,nan,nan,nan,nan,nan,nan,nan,nan,nan,0.0,nan,nan,nan,nan,nan,nan,nan,nan,nan,nan,nan,nan,nan,nan,nan,nan,nan,nan,318.1900514579029,650.5183178813313,nan,650.8358761966228,nan,nan,nan,nan
1,181,1,1,1.0,1.0,0.2893968945136294,0.0,4,0,7,8,6,1,nan,nan,nan,nan,nan,nan,nan,nan,nan,nan,nan,nan,0.0,nan,nan,nan,nan,nan,nan,nan,nan,nan,nan,nan,nan,nan,nan,nan,nan,nan,nan,318.1900514579029,651.6184701537713,nan,651.907867048285,nan,nan,nan,nan
1,182,1,1,1.0,1.0,0.28522102028364316,0.0,0,1,5,2,8,4,nan,nan,nan,nan,nan,nan,nan,nan,nan,nan,nan,nan,0.0,nan,nan,nan,nan,nan,nan,nan,nan,nan,nan,nan,nan,nan,nan,nan,nan,nan,nan,318.1900514579029,652.7186264176271,nan,653.0038474379107,nan,nan,nan,nan
1,183,1,1,1.0,1.0,0.24905168282566592,0.0,4,0,3,1,7,5,nan,nan,nan,nan,nan,nan,nan,nan,nan,nan,nan,nan,0.0,nan,nan,nan,nan,nan,nan,nan,nan,nan,nan,nan,nan,nan,nan,nan,nan,nan,nan,318.1900514579029,653.8187855324941,nan,654.0678372153197,nan,nan,nan,nan
1,184,1,1,1.0,1.0,0.2849017072003335,0.0,7,8,2,4,6,0,nan,nan,nan,nan,nan,nan,nan,nan,nan,nan,nan,nan,0.0,nan,nan,nan,nan,nan,nan,nan,nan,nan,nan,nan,nan,nan,nan,nan,nan,nan,nan,318.1900514579029,654.9189392304397,nan,655.20384093764,nan,nan,nan,nan
1,185,0,0,1.0,0.0,0.2407253083656542,0.0,6,2,5,3,0,1,nan,nan,nan,nan,nan,nan,nan,nan,nan,nan,nan,nan,0.0,nan,nan,nan,nan,nan,nan,nan,nan,nan,nan,nan,nan,nan,nan,nan,nan,nan,nan,318.1900514579029,656.0191006261157,nan,656.2598259344813,nan,nan,nan,nan
1,186,1,1,nan,nan,nan,0.0,5,0,8,1,4,7,nan,nan,nan,nan,nan,nan,nan,nan,nan,nan,nan,nan,0.0,nan,nan,nan,nan,nan,nan,nan,nan,nan,nan,nan,nan,nan,nan,nan,nan,nan,nan,318.1900514579029,657.119255749567,nan,nan,nan,nan,nan,nan
1,187,1,1,1.0,1.0,0.4803814879269339,0.0,3,7,6,4,2,0,nan,nan,nan,nan,nan,nan,nan,nan,nan,nan,nan,nan,0.0,nan,nan,nan,nan,nan,nan,nan,nan,nan,nan,nan,nan,nan,nan,nan,nan,nan,nan,318.1900514579029,658.2194228472654,nan,658.6998043351923,nan,nan,nan,nan
1,188,1,1,1.0,1.0,0.3562262778286822,0.0,0,4,1,8,7,6,nan,nan,nan,nan,nan,nan,nan,nan,nan,nan,nan,nan,0.0,nan,nan,nan,nan,nan,nan,nan,nan,nan,nan,nan,nan,nan,nan,nan,nan,nan,nan,318.1900514579029,659.3195870939526,nan,659.6758133717813,nan,nan,nan,nan
1,189,1,1,1.0,1.0,0.33607106312410906,0.0,4,3,7,6,8,1,nan,nan,nan,nan,nan,nan,nan,nan,nan,nan,nan,nan,0.0,nan,nan,nan,nan,nan,nan,nan,nan,nan,nan,nan,nan,nan,nan,nan,nan,nan,nan,318.1900514579029,660.419735660078,nan,660.7558067232021,nan,nan,nan,nan
1,190,1,1,1.0,1.0,0.41991555877029896,0.0,8,2,1,0,5,3,nan,nan,nan,nan,nan,nan,nan,nan,nan,nan,nan,nan,0.0,nan,nan,nan,nan,nan,nan,nan,nan,nan,nan,nan,nan,nan,nan,nan,nan,nan,nan,318.1900514579029,661.5198950600461,nan,661.9398106188164,nan,nan,nan,nan
1,191,1,1,1.0,1.0,0.3037454572622664,0.0,3,0,5,8,7,1,nan,nan,nan,nan,nan,nan,nan,nan,nan,nan,nan,nan,0.0,nan,nan,nan,nan,nan,nan,nan,nan,nan,nan,nan,nan,nan,nan,nan,nan,nan,nan,318.1900514579029,662.6200553153176,nan,662.9238007725799,nan,nan,nan,nan
1,192,0,0,1.0,0.0,0.2915796277229674,1.0,7,4,0,6,1,5,1.0,1.0,1.0,1.0,1.0,1.0,0.0,0.0,1.0,1.0,1.0,0.0,3.0,2.0,6.0,0.0,6.0,1.0,4.0,5.0,6.0,1.0,2.0,3.0,4.0,6.908287572267,8.31539667956531,1.3175021503702737,2.6443547580274753,3.5164909541490488,5.620829364517704,318.1900514579029,663.7202155705891,664.5286405329825,664.011795198312,673.896652600728,674.8966206694604,665.5454708999023,673.8883205242455
1,193,1,1,1.0,1.0,0.558864374354016,0.0,6,2,8,3,4,1,nan,nan,nan,nan,nan,nan,nan,nan,nan,nan,nan,nan,0.0,nan,nan,nan,nan,nan,nan,nan,nan,nan,nan,nan,nan,nan,nan,nan,nan,nan,nan,318.1900514579029,675.1968599546817,nan,675.7557243290357,nan,nan,nan,nan
1,194,1,1,1.0,1.0,0.4426589203067124,0.0,8,1,2,5,0,7,nan,nan,nan,nan,nan,nan,nan,nan,nan,nan,nan,nan,0.0,nan,nan,nan,nan,nan,nan,nan,nan,nan,nan,nan,nan,nan,nan,nan,nan,nan,nan,318.1900514579029,676.2970529965824,nan,676.7397119168891,nan,nan,nan,nan
1,195,0,0,0.0,1.0,0.6144878631457686,0.0,7,5,3,0,6,1,nan,nan,nan,nan,nan,nan,nan,nan,nan,nan,nan,nan,0.0,nan,nan,nan,nan,nan,nan,nan,nan,nan,nan,nan,nan,nan,nan,nan,nan,nan,nan,318.1900514579029,677.3971864523483,nan,678.011674315494,nan,nan,nan,nan
1,196,1,1,1.0,1.0,0.52234778390266,0.0,1,4,2,5,7,3,nan,nan,nan,nan,nan,nan,nan,nan,nan,nan,nan,nan,0.0,nan,nan,nan,nan,nan,nan,nan,nan,nan,nan,nan,nan,nan,nan,nan,nan,nan,nan,318.1900514579029,678.4973350184737,nan,679.0196828023763,nan,nan,nan,nan
1,197,1,1,1.0,1.0,0.5101927881478332,0.0,0,8,6,7,3,4,nan,nan,nan,nan,nan,nan,nan,nan,nan,nan,nan,nan,0.0,nan,nan,nan,nan,nan,nan,nan,nan,nan,nan,nan,nan,nan,nan,nan,nan,nan,nan,318.1900514579029,679.5974947035429,nan,680.1076874916907,nan,nan,nan,nan
1,198,1,1,1.0,1.0,0.5620244337478653,0.0,7,0,8,3,4,2,nan,nan,nan,nan,nan,nan,nan,nan,nan,nan,nan,nan,0.0,nan,nan,nan,nan,nan,nan,nan,nan,nan,nan,nan,nan,nan,nan,nan,nan,nan,nan,318.1900514579029,680.6976290146122,nan,681.25965344836,nan,nan,nan,nan
1,199,1,1,1.0,1.0,0.44583123904885724,0.0,0,5,3,1,8,6,nan,nan,nan,nan,nan,nan,nan,nan,nan,nan,nan,nan,0.0,nan,nan,nan,nan,nan,nan,nan,nan,nan,nan,nan,nan,nan,nan,nan,nan,nan,nan,318.1900514579029,681.797827188333,nan,682.2436584273819,nan,nan,nan,nan
1,200,1,1,1.0,1.0,0.34570405550766736,0.0,6,1,0,2,4,7,nan,nan,nan,nan,nan,nan,nan,nan,nan,nan,nan,nan,0.0,nan,nan,nan,nan,nan,nan,nan,nan,nan,nan,nan,nan,nan,nan,nan,nan,nan,nan,318.1900514579029,682.8979509506607,nan,683.2436550061684,nan,nan,nan,nan
1,201,1,1,1.0,1.0,0.33351285191019997,0.0,1,7,6,5,8,0,nan,nan,nan,nan,nan,nan,nan,nan,nan,nan,nan,nan,0.0,nan,nan,nan,nan,nan,nan,nan,nan,nan,nan,nan,nan,nan,nan,nan,nan,nan,nan,318.1900514579029,683.9981351544266,nan,684.3316480063368,nan,nan,nan,nan
1,202,0,0,0.0,1.0,0.5853442694060504,1.0,6,3,0,8,2,4,1.0,1.0,1.0,1.0,1.0,1.0,1.0,0.0,1.0,1.0,1.0,1.0,5.0,6.0,1.0,0.0,8.0,2.0,4.0,5.0,6.0,1.0,2.0,3.0,4.0,8.905802631983534,10.21752806607401,1.9322446087026037,3.083710498176515,3.9940020453068428,8.01853070926154,318.1900514579029,685.0982925586868,685.9067257890129,685.6836368280929,697.1833304871107,698.1872876888956,686.9235433263821,697.1750061083003
1,203,1,1,1.0,1.0,0.6000249748467468,0.0,0,1,6,4,3,8,nan,nan,nan,nan,nan,nan,nan,nan,nan,nan,nan,nan,0.0,nan,nan,nan,nan,nan,nan,nan,nan,nan,nan,nan,nan,nan,nan,nan,nan,nan,nan,318.1900514579029,698.4835501004127,nan,699.0835750752594,nan,nan,nan,nan
1,204,1,1,1.0,1.0,0.3078044400899671,0.0,6,2,0,3,8,5,nan,nan,nan,nan,nan,nan,nan,nan,nan,nan,nan,nan,0.0,nan,nan,nan,nan,nan,nan,nan,nan,nan,nan,nan,nan,nan,nan,nan,nan,nan,nan,318.1900514579029,699.5837824862101,nan,699.8915869263001,nan,nan,nan,nan
1,205,1,1,1.0,1.0,0.29566883126972243,0.0,0,7,3,6,4,1,nan,nan,nan,nan,nan,nan,nan,nan,nan,nan,nan,nan,0.0,nan,nan,nan,nan,nan,nan,nan,nan,nan,nan,nan,nan,nan,nan,nan,nan,nan,nan,318.1900514579029,700.6838768831221,nan,700.9795457143919,nan,nan,nan,nan
1,206,1,1,1.0,1.0,0.36349977436475456,0.0,8,3,6,7,5,4,nan,nan,nan,nan,nan,nan,nan,nan,nan,nan,nan,nan,0.0,nan,nan,nan,nan,nan,nan,nan,nan,nan,nan,nan,nan,nan,nan,nan,nan,nan,nan,318.1900514579029,701.7840348575846,nan,702.1475346319494,nan,nan,nan,nan
1,207,1,1,1.0,1.0,0.39133076305733994,0.0,5,8,0,3,7,2,nan,nan,nan,nan,nan,nan,nan,nan,nan,nan,nan,nan,0.0,nan,nan,nan,nan,nan,nan,nan,nan,nan,nan,nan,nan,nan,nan,nan,nan,nan,nan,318.1900514579029,702.8841899810359,nan,703.2755207440932,nan,nan,nan,nan
1,208,0,0,1.0,0.0,0.4431666851742193,0.0,6,1,4,7,8,0,nan,nan,nan,nan,nan,nan,nan,nan,nan,nan,nan,nan,0.0,nan,nan,nan,nan,nan,nan,nan,nan,nan,nan,nan,nan,nan,nan,nan,nan,nan,nan,318.1900514579029,703.984349381004,nan,704.4275160661782,nan,nan,nan,nan
1,209,1,1,1.0,1.0,0.7349997676792555,0.0,1,4,5,6,7,8,nan,nan,nan,nan,nan,nan,nan,nan,nan,nan,nan,nan,0.0,nan,nan,nan,nan,nan,nan,nan,nan,nan,nan,nan,nan,nan,nan,nan,nan,nan,nan,318.1900514579029,705.0845025087474,nan,705.8195022764266,nan,nan,nan,nan
1,210,1,1,1.0,1.0,0.6428374505485408,0.0,0,3,4,2,6,7,nan,nan,nan,nan,nan,nan,nan,nan,nan,nan,nan,nan,0.0,nan,nan,nan,nan,nan,nan,nan,nan,nan,nan,nan,nan,nan,nan,nan,nan,nan,nan,318.1900514579029,706.1846713170526,nan,706.8275087676011,nan,nan,nan,nan
1,211,1,1,1.0,1.0,0.7106718148570508,0.0,8,2,5,1,3,0,nan,nan,nan,nan,nan,nan,nan,nan,nan,nan,nan,nan,0.0,nan,nan,nan,nan,nan,nan,nan,nan,nan,nan,nan,nan,nan,nan,nan,nan,nan,nan,318.1900514579029,707.2848307170207,nan,707.9955025318777,nan,nan,nan,nan
1,212,1,1,1.0,1.0,0.6425132906879298,0.0,4,8,6,5,7,2,nan,nan,nan,nan,nan,nan,nan,nan,nan,nan,nan,nan,0.0,nan,nan,nan,nan,nan,nan,nan,nan,nan,nan,nan,nan,nan,nan,nan,nan,nan,nan,318.1900514579029,708.3849904020899,nan,709.0275036927778,nan,nan,nan,nan
1,213,1,1,1.0,1.0,0.6383385568624362,0.0,2,7,4,1,0,6,nan,nan,nan,nan,nan,nan,nan,nan,nan,nan,nan,nan,0.0,nan,nan,nan,nan,nan,nan,nan,nan,nan,nan,nan,nan,nan,nan,nan,nan,nan,nan,318.1900514579029,709.485147521249,nan,710.1234860781115,nan,nan,nan,nan
1,214,1,1,1.0,1.0,0.5541641993331723,0.0,7,0,8,5,1,3,nan,nan,nan,nan,nan,nan,nan,nan,nan,nan,nan,nan,0.0,nan,nan,nan,nan,nan,nan,nan,nan,nan,nan,nan,nan,nan,nan,nan,nan,nan,nan,318.1900514579029,710.585304355307,nan,711.1394685546402,nan,nan,nan,nan
1,215,1,1,1.0,1.0,0.550028809462674,0.0,1,3,6,4,8,0,nan,nan,nan,nan,nan,nan,nan,nan,nan,nan,nan,nan,0.0,nan,nan,nan,nan,nan,nan,nan,nan,nan,nan,nan,nan,nan,nan,nan,nan,nan,nan,318.1900514579029,711.6854398067808,nan,712.2354686162435,nan,nan,nan,nan
1,216,1,1,1.0,1.0,0.45783940772525966,0.0,0,1,3,2,4,8,nan,nan,nan,nan,nan,nan,nan,nan,nan,nan,nan,nan,0.0,nan,nan,nan,nan,nan,nan,nan,nan,nan,nan,nan,nan,nan,nan,nan,nan,nan,nan,318.1900514579029,712.7856205893331,nan,713.2434599970584,nan,nan,nan,nan
1,217,1,1,1.0,1.0,0.48567381768953055,0.0,1,6,2,3,7,4,nan,nan,nan,nan,nan,nan,nan,nan,nan,nan,nan,nan,0.0,nan,nan,nan,nan,nan,nan,nan,nan,nan,nan,nan,nan,nan,nan,nan,nan,nan,nan,318.1900514579029,713.885779419099,nan,714.3714532367885,nan,nan,nan,nan
1,218,1,1,1.0,1.0,0.5054900472750887,0.0,2,1,8,4,0,6,nan,nan,nan,nan,nan,nan,nan,nan,nan,nan,nan,nan,0.0,nan,nan,nan,nan,nan,nan,nan,nan,nan,nan,nan,nan,nan,nan,nan,nan,nan,nan,318.1900514579029,714.985947942303,nan,715.4914379895781,nan,nan,nan,nan
1,219,1,1,1.0,1.0,0.5013415426947176,0.0,8,4,6,0,7,2,nan,nan,nan,nan,nan,nan,nan,nan,nan,nan,nan,nan,0.0,nan,nan,nan,nan,nan,nan,nan,nan,nan,nan,nan,nan,nan,nan,nan,nan,nan,nan,318.1900514579029,716.0860985041363,nan,716.587440046831,nan,nan,nan,nan
1,220,1,1,1.0,1.0,0.5371656228671782,0.0,0,2,1,5,6,4,nan,nan,nan,nan,nan,nan,nan,nan,nan,nan,nan,nan,0.0,nan,nan,nan,nan,nan,nan,nan,nan,nan,nan,nan,nan,nan,nan,nan,nan,nan,nan,318.1900514579029,717.1862579041044,nan,717.7234235269716,nan,nan,nan,nan
1,221,1,1,1.0,1.0,0.5010002768249251,0.0,6,8,5,3,4,0,nan,nan,nan,nan,nan,nan,nan,nan,nan,nan,nan,nan,0.0,nan,nan,nan,nan,nan,nan,nan,nan,nan,nan,nan,nan,nan,nan,nan,nan,nan,nan,318.1900514579029,718.2864195848815,nan,718.7874198617064,nan,nan,nan,nan
1,222,0,0,0.0,1.0,0.7608453130233102,0.0,5,3,0,4,2,6,nan,nan,nan,nan,nan,nan,nan,nan,nan,nan,nan,nan,0.0,nan,nan,nan,nan,nan,nan,nan,nan,nan,nan,nan,nan,nan,nan,nan,nan,nan,nan,318.1900514579029,719.3865675808047,nan,720.147412893828,nan,nan,nan,nan
1,223,1,1,1.0,1.0,0.6526911110267974,0.0,6,5,8,1,3,2,nan,nan,nan,nan,nan,nan,nan,nan,nan,nan,nan,nan,0.0,nan,nan,nan,nan,nan,nan,nan,nan,nan,nan,nan,nan,nan,nan,nan,nan,nan,nan,318.1900514579029,720.4867380997166,nan,721.1394292107434,nan,nan,nan,nan
1,224,1,1,1.0,1.0,0.5365056140581146,0.0,8,2,7,4,6,0,nan,nan,nan,nan,nan,nan,nan,nan,nan,nan,nan,nan,0.0,nan,nan,nan,nan,nan,nan,nan,nan,nan,nan,nan,nan,nan,nan,nan,nan,nan,nan,318.1900514579029,721.5868986400892,nan,722.1234042541473,nan,nan,nan,nan
1,225,0,0,0.0,1.0,0.6363542539183982,0.0,3,4,2,5,0,6,nan,nan,nan,nan,nan,nan,nan,nan,nan,nan,nan,nan,0.0,nan,nan,nan,nan,nan,nan,nan,nan,nan,nan,nan,nan,nan,nan,nan,nan,nan,nan,318.1900514579029,722.6870551890461,nan,723.3234094429645,nan,nan,nan,nan
1,226,1,1,1.0,1.0,0.5281906435848214,0.0,2,8,6,7,4,0,nan,nan,nan,nan,nan,nan,nan,nan,nan,nan,nan,nan,0.0,nan,nan,nan,nan,nan,nan,nan,nan,nan,nan,nan,nan,nan,nan,nan,nan,nan,nan,318.1900514579029,723.7872043253738,nan,724.3153949689586,nan,nan,nan,nan
1,227,1,1,1.0,1.0,0.3800128238508478,0.0,6,4,0,2,3,7,nan,nan,nan,nan,nan,nan,nan,nan,nan,nan,nan,nan,0.0,nan,nan,nan,nan,nan,nan,nan,nan,nan,nan,nan,nan,nan,nan,nan,nan,nan,nan,318.1900514579029,724.8873762697331,nan,725.2673890935839,nan,nan,nan,nan
1,228,0,0,0.0,1.0,0.5198343335068785,1.0,3,0,2,7,6,5,1.0,1.0,1.0,1.0,1.0,1.0,1.0,1.0,0.0,0.0,0.0,0.0,2.0,3.0,0.0,4.0,1.0,7.0,2.0,2.0,1.0,6.0,5.0,4.0,3.0,2.2316428459598683,1.1453901022323407,9.047691408952232,6.607884353899863,5.672024949744809,3.3847620361484587,318.1900514579029,725.9875379505102,726.7959549301304,726.507372284017,736.8974123949301,737.9046596621629,727.812768761185,736.8890831694007
1,229,1,1,1.0,1.0,0.32539232034469023,0.0,0,5,3,4,1,8,nan,nan,nan,nan,nan,nan,nan,nan,nan,nan,nan,nan,0.0,nan,nan,nan,nan,nan,nan,nan,nan,nan,nan,nan,nan,nan,nan,nan,nan,nan,nan,318.1900514579029,738.2059330086922,nan,738.5313253290369,nan,nan,nan,nan
1,230,1,1,1.0,1.0,0.3611639419104904,0.0,8,2,0,1,5,3,nan,nan,nan,nan,nan,nan,nan,nan,nan,nan,nan,nan,0.0,nan,nan,nan,nan,nan,nan,nan,nan,nan,nan,nan,nan,nan,nan,nan,nan,nan,nan,318.1900514579029,739.3061157869524,nan,739.6672797288629,nan,nan,nan,nan
1,231,1,1,1.0,1.0,0.2369987532729283,0.0,6,8,1,7,3,2,nan,nan,nan,nan,nan,nan,nan,nan,nan,nan,nan,nan,0.0,nan,nan,nan,nan,nan,nan,nan,nan,nan,nan,nan,nan,nan,nan,nan,nan,nan,nan,318.1900514579029,740.4062743316172,nan,740.6432730848901,nan,nan,nan,nan
1,232,1,1,1.0,1.0,0.1848335394752212,0.0,7,4,3,2,0,8,nan,nan,nan,nan,nan,nan,nan,nan,nan,nan,nan,nan,0.0,nan,nan,nan,nan,nan,nan,nan,nan,nan,nan,nan,nan,nan,nan,nan,nan,nan,nan,318.1900514579029,741.5064388634055,nan,741.6912724028807,nan,nan,nan,nan
1,233,1,1,1.0,1.0,0.10867821762803942,0.0,0,3,5,4,1,7,nan,nan,nan,nan,nan,nan,nan,nan,nan,nan,nan,nan,0.0,nan,nan,nan,nan,nan,nan,nan,nan,nan,nan,nan,nan,nan,nan,nan,nan,nan,nan,318.1900514579029,742.6065982633736,nan,742.7152764810016,nan,nan,nan,nan
1,234,1,1,1.0,1.0,0.17651600315002725,0.0,6,2,3,8,5,1,nan,nan,nan,nan,nan,nan,nan,nan,nan,nan,nan,nan,0.0,nan,nan,nan,nan,nan,nan,nan,nan,nan,nan,nan,nan,nan,nan,nan,nan,nan,nan,318.1900514579029,743.7067505358136,nan,743.8832665389637,nan,nan,nan,nan
1,235,1,1,1.0,1.0,0.26034054171759635,0.0,7,8,0,2,4,5,nan,nan,nan,nan,nan,nan,nan,nan,nan,nan,nan,nan,0.0,nan,nan,nan,nan,nan,nan,nan,nan,nan,nan,nan,nan,nan,nan,nan,nan,nan,nan,318.1900514579029,744.8069113612873,nan,745.067251903005,nan,nan,nan,nan
1,236,1,1,1.0,1.0,0.3361685676500201,0.0,2,7,1,4,8,0,nan,nan,nan,nan,nan,nan,nan,nan,nan,nan,nan,nan,0.0,nan,nan,nan,nan,nan,nan,nan,nan,nan,nan,nan,nan,nan,nan,nan,nan,nan,nan,318.1900514579029,745.9070679102442,nan,746.2432364778942,nan,nan,nan,nan
1,237,1,1,1.0,1.0,0.332005808071699,0.0,4,1,2,5,0,6,nan,nan,nan,nan,nan,nan,nan,nan,nan,nan,nan,nan,0.0,nan,nan,nan,nan,nan,nan,nan,nan,nan,nan,nan,nan,nan,nan,nan,nan,nan,nan,318.1900514579029,747.0072275953135,nan,747.3392334033852,nan,nan,nan,nan
1,238,1,1,1.0,1.0,0.38384201523149386,0.0,3,8,1,2,5,0,nan,nan,nan,nan,nan,nan,nan,nan,nan,nan,nan,nan,0.0,nan,nan,nan,nan,nan,nan,nan,nan,nan,nan,nan,nan,nan,nan,nan,nan,nan,nan,318.1900514579029,748.1073907015962,nan,748.4912327168277,nan,nan,nan,nan
1,239,1,1,1.0,1.0,0.2836743473308161,0.0,0,6,5,8,2,1,nan,nan,nan,nan,nan,nan,nan,nan,nan,nan,nan,nan,0.0,nan,nan,nan,nan,nan,nan,nan,nan,nan,nan,nan,nan,nan,nan,nan,nan,nan,nan,318.1900514579029,749.2075421187328,nan,749.4912164660636,nan,nan,nan,nan
1,240,1,1,1.0,1.0,0.27152020699577406,0.0,4,0,6,2,3,8,nan,nan,nan,nan,nan,nan,nan,nan,nan,nan,nan,nan,0.0,nan,nan,nan,nan,nan,nan,nan,nan,nan,nan,nan,nan,nan,nan,nan,nan,nan,nan,318.1900514579029,750.3077009484405,nan,750.5792211554362,nan,nan,nan,nan
1,241,1,1,1.0,1.0,0.2753445517155342,0.0,8,6,0,3,5,2,nan,nan,nan,nan,nan,nan,nan,nan,nan,nan,nan,nan,0.0,nan,nan,nan,nan,nan,nan,nan,nan,nan,nan,nan,nan,nan,nan,nan,nan,nan,nan,318.1900514579029,751.4078626292176,nan,751.6832071809331,nan,nan,nan,nan
1,242,1,1,1.0,1.0,0.23917949077440426,0.0,5,4,8,2,6,0,nan,nan,nan,nan,nan,nan,nan,nan,nan,nan,nan,nan,0.0,nan,nan,nan,nan,nan,nan,nan,nan,nan,nan,nan,nan,nan,nan,nan,nan,nan,nan,318.1900514579029,752.5080197483767,nan,752.7471992391511,nan,nan,nan,nan
1,243,1,1,1.0,1.0,0.2430260733817704,0.0,4,7,5,6,0,3,nan,nan,nan,nan,nan,nan,nan,nan,nan,nan,nan,nan,0.0,nan,nan,nan,nan,nan,nan,nan,nan,nan,nan,nan,nan,nan,nan,nan,nan,nan,nan,318.1900514579029,753.6081794334459,nan,753.8512055068277,nan,nan,nan,nan
1,244,1,1,1.0,1.0,0.25486061559058726,0.0,7,6,1,8,5,2,nan,nan,nan,nan,nan,nan,nan,nan,nan,nan,nan,nan,0.0,nan,nan,nan,nan,nan,nan,nan,nan,nan,nan,nan,nan,nan,nan,nan,nan,nan,nan,318.1900514579029,754.7083331313916,nan,754.9631937469821,nan,nan,nan,nan
1,245,1,1,1.0,1.0,0.36267668777145445,0.0,8,0,2,7,4,1,nan,nan,nan,nan,nan,nan,nan,nan,nan,nan,nan,nan,0.0,nan,nan,nan,nan,nan,nan,nan,nan,nan,nan,nan,nan,nan,nan,nan,nan,nan,nan,318.1900514579029,755.808495667472,nan,756.1711723552435,nan,nan,nan,nan
1,246,0,0,0.0,1.0,0.5345067710150033,1.0,4,7,0,3,8,5,1.0,1.0,1.0,1.0,1.0,1.0,0.0,0.0,1.0,1.0,1.0,0.0,3.0,6.0,2.0,0.0,3.0,8.0,1.0,5.0,4.0,1.0,2.0,3.0,6.0,7.607305884012021,6.407647948188242,2.785212324699387,3.983306481561158,5.016170073009562,8.614853932755068,318.1900514579029,756.9086587737547,757.7170657748356,757.4431655447697,767.3767991654458,768.3869171146071,758.7255652056192,767.3684653783566
1,247,1,1,1.0,1.0,0.6137582896626554,0.0,8,4,1,7,2,6,nan,nan,nan,nan,nan,nan,nan,nan,nan,nan,nan,nan,0.0,nan,nan,nan,nan,nan,nan,nan,nan,nan,nan,nan,nan,nan,nan,nan,nan,nan,nan,318.1900514579029,768.6853511403897,nan,769.2991094300523,nan,nan,nan,nan
1,248,1,1,1.0,1.0,0.5375696109840646,0.0,7,5,4,0,3,2,nan,nan,nan,nan,nan,nan,nan,nan,nan,nan,nan,nan,0.0,nan,nan,nan,nan,nan,nan,nan,nan,nan,nan,nan,nan,nan,nan,nan,nan,nan,nan,318.1900514579029,769.7855085446499,nan,770.323078155634,nan,nan,nan,nan
1,249,1,1,1.0,1.0,0.38138102350058034,0.0,4,3,8,5,6,0,nan,nan,nan,nan,nan,nan,nan,nan,nan,nan,nan,nan,0.0,nan,nan,nan,nan,nan,nan,nan,nan,nan,nan,nan,nan,nan,nan,nan,nan,nan,nan,318.1900514579029,770.8856742168427,nan,771.2670552403433,nan,nan,nan,nan
1,250,1,1,1.0,1.0,0.321262062236201,0.0,0,5,3,7,2,8,nan,nan,nan,nan,nan,nan,nan,nan,nan,nan,nan,nan,0.0,nan,nan,nan,nan,nan,nan,nan,nan,nan,nan,nan,nan,nan,nan,nan,nan,nan,nan,318.1900514579029,771.985827059485,nan,772.3070891217212,nan,nan,nan,nan
1,251,1,1,1.0,1.0,0.30107919278088957,0.0,2,7,1,6,3,0,nan,nan,nan,nan,nan,nan,nan,nan,nan,nan,nan,nan,0.0,nan,nan,nan,nan,nan,nan,nan,nan,nan,nan,nan,nan,nan,nan,nan,nan,nan,nan,318.1900514579029,773.0859881700599,nan,773.3870673628408,nan,nan,nan,nan
1,252,1,1,1.0,1.0,0.2969093056744896,0.0,0,3,2,5,1,4,nan,nan,nan,nan,nan,nan,nan,nan,nan,nan,nan,nan,0.0,nan,nan,nan,nan,nan,nan,nan,nan,nan,nan,nan,nan,nan,nan,nan,nan,nan,nan,318.1900514579029,774.186122196028,nan,774.4830315017025,nan,nan,nan,nan
1,253,1,1,nan,nan,nan,0.0,1,8,4,7,2,0,nan,nan,nan,nan,nan,nan,nan,nan,nan,nan,nan,nan,0.0,nan,nan,nan,nan,nan,nan,nan,nan,nan,nan,nan,nan,nan,nan,nan,nan,nan,nan,318.1900514579029,775.2863269270165,nan,nan,nan,nan,nan,nan
1,254,1,1,1.0,1.0,0.5605729845701717,0.0,6,7,1,0,5,4,nan,nan,nan,nan,nan,nan,nan,nan,nan,nan,nan,nan,0.0,nan,nan,nan,nan,nan,nan,nan,nan,nan,nan,nan,nan,nan,nan,nan,nan,nan,nan,318.1900514579029,776.3864603828406,nan,776.9470333674108,nan,nan,nan,nan
1,255,1,1,1.0,1.0,0.44440231285989285,0.0,4,3,6,8,0,5,nan,nan,nan,nan,nan,nan,nan,nan,nan,nan,nan,nan,0.0,nan,nan,nan,nan,nan,nan,nan,nan,nan,nan,nan,nan,nan,nan,nan,nan,nan,nan,318.1900514579029,777.4866274804808,nan,777.9310297933407,nan,nan,nan,nan
1,256,1,1,1.0,1.0,0.28026054811198264,0.0,7,4,8,5,1,2,nan,nan,nan,nan,nan,nan,nan,nan,nan,nan,nan,nan,0.0,nan,nan,nan,nan,nan,nan,nan,nan,nan,nan,nan,nan,nan,nan,nan,nan,nan,nan,318.1900514579029,778.5867794678197,nan,778.8670400159317,nan,nan,nan,nan
1,257,1,1,1.0,1.0,0.31606980302603915,0.0,1,5,4,0,8,7,nan,nan,nan,nan,nan,nan,nan,nan,nan,nan,nan,nan,0.0,nan,nan,nan,nan,nan,nan,nan,nan,nan,nan,nan,nan,nan,nan,nan,nan,nan,nan,318.1900514579029,779.6869411485968,nan,780.0030109516229,nan,nan,nan,nan
1,258,1,1,1.0,1.0,0.23192195990122855,0.0,7,3,5,8,2,6,nan,nan,nan,nan,nan,nan,nan,nan,nan,nan,nan,nan,0.0,nan,nan,nan,nan,nan,nan,nan,nan,nan,nan,nan,nan,nan,nan,nan,nan,nan,nan,318.1900514579029,780.7870962720481,nan,781.0190182319493,nan,nan,nan,nan
1,259,1,1,1.0,1.0,0.21174963912926614,0.0,5,0,8,7,6,2,nan,nan,nan,nan,nan,nan,nan,nan,nan,nan,nan,nan,0.0,nan,nan,nan,nan,nan,nan,nan,nan,nan,nan,nan,nan,nan,nan,nan,nan,nan,nan,318.1900514579029,781.887259948533,nan,782.0990095876623,nan,nan,nan,nan
1,260,1,1,1.0,1.0,0.2555790700716898,0.0,8,7,2,3,5,4,nan,nan,nan,nan,nan,nan,nan,nan,nan,nan,nan,nan,0.0,nan,nan,nan,nan,nan,nan,nan,nan,nan,nan,nan,nan,nan,nan,nan,nan,nan,nan,318.1900514579029,782.9874127911753,nan,783.242991861247,nan,nan,nan,nan
1,261,1,1,1.0,1.0,0.08340829116059467,0.0,2,6,3,4,7,8,nan,nan,nan,nan,nan,nan,nan,nan,nan,nan,nan,nan,0.0,nan,nan,nan,nan,nan,nan,nan,nan,nan,nan,nan,nan,nan,nan,nan,nan,nan,nan,318.1900514579029,784.0875773229636,nan,784.1709856141242,nan,nan,nan,nan
1,262,1,1,1.0,1.0,0.4632215442834422,0.0,4,8,7,1,3,6,nan,nan,nan,nan,nan,nan,nan,nan,nan,nan,nan,nan,0.0,nan,nan,nan,nan,nan,nan,nan,nan,nan,nan,nan,nan,nan,nan,nan,nan,nan,nan,318.1900514579029,785.1877378633362,nan,785.6509594076197,nan,nan,nan,nan
1,263,1,1,1.0,1.0,0.32309839775552973,0.0,1,5,6,3,7,8,nan,nan,nan,nan,nan,nan,nan,nan,nan,nan,nan,nan,0.0,nan,nan,nan,nan,nan,nan,nan,nan,nan,nan,nan,nan,nan,nan,nan,nan,nan,nan,318.1900514579029,786.2878887102706,nan,786.6109871080262,nan,nan,nan,nan
1,264,1,1,1.0,1.0,0.30292066012043506,0.0,0,6,7,2,8,3,nan,nan,nan,nan,nan,nan,nan,nan,nan,nan,nan,nan,0.0,nan,nan,nan,nan,nan,nan,nan,nan,nan,nan,nan,nan,nan,nan,nan,nan,nan,nan,318.1900514579029,787.3880455443286,nan,787.6909662044491,nan,nan,nan,nan
1,265,1,1,1.0,1.0,0.2987658833153546,0.0,6,5,4,3,0,1,nan,nan,nan,nan,nan,nan,nan,nan,nan,nan,nan,nan,0.0,nan,nan,nan,nan,nan,nan,nan,nan,nan,nan,nan,nan,nan,nan,nan,nan,nan,nan,318.1900514579029,788.4882052293979,nan,788.7869711127132,nan,nan,nan,nan
1,266,1,1,1.0,1.0,0.27058250980917364,0.0,1,2,3,8,6,7,nan,nan,nan,nan,nan,nan,nan,nan,nan,nan,nan,nan,0.0,nan,nan,nan,nan,nan,nan,nan,nan,nan,nan,nan,nan,nan,nan,nan,nan,nan,nan,318.1900514579029,789.5883714717929,nan,789.8589539816021,nan,nan,nan,nan
1,267,1,1,1.0,1.0,0.2504463968798518,0.0,6,8,1,4,7,0,nan,nan,nan,nan,nan,nan,nan,nan,nan,nan,nan,nan,0.0,nan,nan,nan,nan,nan,nan,nan,nan,nan,nan,nan,nan,nan,nan,nan,nan,nan,nan,318.1900514579029,790.6885094891768,nan,790.9389558860566,nan,nan,nan,nan
1,268,1,1,1.0,1.0,0.2862690514884889,0.0,4,1,7,0,3,6,nan,nan,nan,nan,nan,nan,nan,nan,nan,nan,nan,nan,0.0,nan,nan,nan,nan,nan,nan,nan,nan,nan,nan,nan,nan,nan,nan,nan,nan,nan,nan,318.1900514579029,791.7886791527853,nan,792.0749482042738,nan,nan,nan,nan
1,269,1,1,1.0,1.0,0.31409063190221786,0.0,8,2,6,1,7,4,nan,nan,nan,nan,nan,nan,nan,nan,nan,nan,nan,nan,0.0,nan,nan,nan,nan,nan,nan,nan,nan,nan,nan,nan,nan,nan,nan,nan,nan,nan,nan,318.1900514579029,792.8888451100793,nan,793.2029357419815,nan,nan,nan,nan
1,270,1,1,1.0,1.0,0.30191510886652395,0.0,0,1,5,3,4,6,nan,nan,nan,nan,nan,nan,nan,nan,nan,nan,nan,nan,0.0,nan,nan,nan,nan,nan,nan,nan,nan,nan,nan,nan,nan,nan,nan,nan,nan,nan,nan,318.1900514579029,793.9889970974182,nan,794.2909122062847,nan,nan,nan,nan
1,271,1,1,1.0,1.0,0.32974695292068645,0.0,4,5,2,6,8,0,nan,nan,nan,nan,nan,nan,nan,nan,nan,nan,nan,nan,0.0,nan,nan,nan,nan,nan,nan,nan,nan,nan,nan,nan,nan,nan,nan,nan,nan,nan,nan,318.1900514579029,795.0891570675885,nan,795.4189040205092,nan,nan,nan,nan
1,272,0,0,0.0,1.0,0.5175823207828216,0.0,8,0,4,3,2,7,nan,nan,nan,nan,nan,nan,nan,nan,nan,nan,nan,nan,0.0,nan,nan,nan,nan,nan,nan,nan,nan,nan,nan,nan,nan,nan,nan,nan,nan,nan,nan,318.1900514579029,796.1893144718488,nan,796.7068967926316,nan,nan,nan,nan
1,273,1,1,1.0,1.0,0.5134229823597707,0.0,7,3,6,0,8,1,nan,nan,nan,nan,nan,nan,nan,nan,nan,nan,nan,nan,0.0,nan,nan,nan,nan,nan,nan,nan,nan,nan,nan,nan,nan,nan,nan,nan,nan,nan,nan,318.1900514579029,797.2894758675247,nan,797.8028988498845,nan,nan,nan,nan
1,274,1,1,1.0,1.0,0.437269656220451,0.0,2,8,1,4,5,3,nan,nan,nan,nan,nan,nan,nan,nan,nan,nan,nan,nan,0.0,nan,nan,nan,nan,nan,nan,nan,nan,nan,nan,nan,nan,nan,nan,nan,nan,nan,nan,318.1900514579029,798.3896346972906,nan,798.826904353511,nan,nan,nan,nan
1,275,1,1,1.0,1.0,0.47309886815492064,0.0,3,5,0,2,7,1,nan,nan,nan,nan,nan,nan,nan,nan,nan,nan,nan,nan,0.0,nan,nan,nan,nan,nan,nan,nan,nan,nan,nan,nan,nan,nan,nan,nan,nan,nan,nan,318.1900514579029,799.4897929568542,nan,799.9628918250091,nan,nan,nan,nan
1,276,1,1,1.0,1.0,0.33293039054842666,0.0,8,0,2,5,3,7,nan,nan,nan,nan,nan,nan,nan,nan,nan,nan,nan,nan,0.0,nan,nan,nan,nan,nan,nan,nan,nan,nan,nan,nan,nan,nan,nan,nan,nan,nan,nan,318.1900514579029,800.5899509313167,nan,800.9228813218651,nan,nan,nan,nan
1,277,1,1,1.0,1.0,0.3367573012365028,0.0,1,5,0,7,4,3,nan,nan,nan,nan,nan,nan,nan,nan,nan,nan,nan,nan,0.0,nan,nan,nan,nan,nan,nan,nan,nan,nan,nan,nan,nan,nan,nan,nan,nan,nan,nan,318.1900514579029,801.6901126120356,nan,802.0268699132721,nan,nan,nan,nan
1,278,1,1,1.0,1.0,0.3406050242483616,0.0,4,0,7,3,2,5,nan,nan,nan,nan,nan,nan,nan,nan,nan,nan,nan,nan,0.0,nan,nan,nan,nan,nan,nan,nan,nan,nan,nan,nan,nan,nan,nan,nan,nan,nan,nan,318.1900514579029,802.7902688758913,nan,803.1308739001397,nan,nan,nan,nan
1,279,1,1,1.0,1.0,0.32044781383592635,0.0,2,6,5,7,0,8,nan,nan,nan,nan,nan,nan,nan,nan,nan,nan,nan,nan,0.0,nan,nan,nan,nan,nan,nan,nan,nan,nan,nan,nan,nan,nan,nan,nan,nan,nan,nan,318.1900514579029,803.8904171569156,nan,804.2108649707516,nan,nan,nan,nan
1,280,1,1,1.0,1.0,0.24427082430338487,0.0,6,7,8,0,2,3,nan,nan,nan,nan,nan,nan,nan,nan,nan,nan,nan,nan,0.0,nan,nan,nan,nan,nan,nan,nan,nan,nan,nan,nan,nan,nan,nan,nan,nan,nan,nan,318.1900514579029,804.990577127086,nan,805.2348479513894,nan,nan,nan,nan
1,281,1,1,1.0,1.0,0.28010602336144075,0.0,3,8,5,4,1,6,nan,nan,nan,nan,nan,nan,nan,nan,nan,nan,nan,nan,0.0,nan,nan,nan,nan,nan,nan,nan,nan,nan,nan,nan,nan,nan,nan,nan,nan,nan,nan,318.1900514579029,806.0907439396833,nan,806.3708499630447,nan,nan,nan,nan
1,282,1,1,1.0,1.0,0.2999336569919251,0.0,2,0,6,5,3,4,nan,nan,nan,nan,nan,nan,nan,nan,nan,nan,nan,nan,0.0,nan,nan,nan,nan,nan,nan,nan,nan,nan,nan,nan,nan,nan,nan,nan,nan,nan,nan,318.1900514579029,807.190893076011,nan,807.4908267330029,nan,nan,nan,nan
1,283,1,1,1.0,1.0,0.2397776326397434,0.0,6,4,8,1,5,3,nan,nan,nan,nan,nan,nan,nan,nan,nan,nan,nan,nan,0.0,nan,nan,nan,nan,nan,nan,nan,nan,nan,nan,nan,nan,nan,nan,nan,nan,nan,nan,318.1900514579029,808.2910539014847,nan,808.5308315341244,nan,nan,nan,nan
1,284,1,1,1.0,1.0,0.21160509291803464,0.0,8,6,0,4,1,7,nan,nan,nan,nan,nan,nan,nan,nan,nan,nan,nan,nan,0.0,nan,nan,nan,nan,nan,nan,nan,nan,nan,nan,nan,nan,nan,nan,nan,nan,nan,nan,318.1900514579029,809.3912115908461,nan,809.6028166837641,nan,nan,nan,nan
1,285,0,0,1.0,0.0,0.2314412795822136,0.0,4,2,7,5,6,3,nan,nan,nan,nan,nan,nan,nan,nan,nan,nan,nan,nan,0.0,nan,nan,nan,nan,nan,nan,nan,nan,nan,nan,nan,nan,nan,nan,nan,nan,nan,nan,318.1900514579029,810.4913801140501,nan,810.7228213936323,nan,nan,nan,nan
1,286,1,1,1.0,1.0,0.6112645113025792,0.0,6,8,3,7,2,5,nan,nan,nan,nan,nan,nan,nan,nan,nan,nan,nan,nan,0.0,nan,nan,nan,nan,nan,nan,nan,nan,nan,nan,nan,nan,nan,nan,nan,nan,nan,nan,318.1900514579029,811.5915352375014,nan,812.202799748804,nan,nan,nan,nan
1,287,1,1,1.0,1.0,0.527115527773276,0.0,8,7,1,3,6,0,nan,nan,nan,nan,nan,nan,nan,nan,nan,nan,nan,nan,0.0,nan,nan,nan,nan,nan,nan,nan,nan,nan,nan,nan,nan,nan,nan,nan,nan,nan,nan,318.1900514579029,812.6916946374695,nan,813.2188101652428,nan,nan,nan,nan
1,288,1,1,1.0,1.0,0.4349389555864036,0.0,3,8,0,4,1,6,nan,nan,nan,nan,nan,nan,nan,nan,nan,nan,nan,nan,0.0,nan,nan,nan,nan,nan,nan,nan,nan,nan,nan,nan,nan,nan,nan,nan,nan,nan,nan,318.1900514579029,813.7918474801118,nan,814.2267864356982,nan,nan,nan,nan
1,289,1,1,1.0,1.0,0.3587745105032809,0.0,2,5,8,7,0,3,nan,nan,nan,nan,nan,nan,nan,nan,nan,nan,nan,nan,0.0,nan,nan,nan,nan,nan,nan,nan,nan,nan,nan,nan,nan,nan,nan,nan,nan,nan,nan,318.1900514579029,814.8920091608888,nan,815.2507836713921,nan,nan,nan,nan
1,290,0,0,0.0,1.0,0.570601126877591,1.0,7,1,6,2,4,8,1.0,1.0,1.0,1.0,1.0,1.0,0.0,0.0,1.0,1.0,1.0,0.0,3.0,8.0,7.0,6.0,2.0,4.0,1.0,5.0,6.0,1.0,2.0,3.0,4.0,5.074982701509725,5.8027714097406715,1.6600509931449778,2.6583800162770785,3.3153305361047387,4.347307463467587,318.1900514579029,815.9921816755086,816.8006043570931,816.5627828023862,823.6599167106324,824.6557630742318,817.8174201838556,823.651590051013
1,291,1,1,1.0,1.0,0.6025441272649914,0.0,8,2,7,1,5,3,nan,nan,nan,nan,nan,nan,nan,nan,nan,nan,nan,nan,0.0,nan,nan,nan,nan,nan,nan,nan,nan,nan,nan,nan,nan,nan,nan,nan,nan,nan,nan,318.1900514579029,824.9601599872694,nan,825.5627041145344,nan,nan,nan,nan
1,292,0,0,0.0,1.0,0.7340532323578373,1.0,3,1,4,5,6,0,1.0,1.0,1.0,1.0,1.0,1.0,0.0,0.0,1.0,1.0,1.0,0.0,3.0,1.0,3.0,4.0,5.0,6.0,8.0,5.0,6.0,1.0,2.0,3.0,4.0,6.822154856054112,9.37421985680703,1.2874037534929812,2.589848294912372,3.494387644401286,5.5579300983808935,318.1900514579029,826.0686768377782,826.8770496267243,826.802730070136,837.3035515886149,838.3056875652401,827.8938894019229,837.2962059615529
1,293,1,1,1.0,1.0,0.4465348683297634,0.0,2,4,6,8,5,3,nan,nan,nan,nan,nan,nan,nan,nan,nan,nan,nan,nan,0.0,nan,nan,nan,nan,nan,nan,nan,nan,nan,nan,nan,nan,nan,nan,nan,nan,nan,nan,318.1900514579029,838.6121075549163,nan,839.058642423246,nan,nan,nan,nan
1,294,1,1,1.0,1.0,0.39401898032519966,0.0,0,1,8,5,6,4,nan,nan,nan,nan,nan,nan,nan,nan,nan,nan,nan,nan,0.0,nan,nan,nan,nan,nan,nan,nan,nan,nan,nan,nan,nan,nan,nan,nan,nan,nan,nan,318.1900514579029,839.7205984612228,nan,840.114617441548,nan,nan,nan,nan
1,295,1,1,1.0,1.0,0.30955410486785695,0.0,8,7,4,0,1,5,nan,nan,nan,nan,nan,nan,nan,nan,nan,nan,nan,nan,0.0,nan,nan,nan,nan,nan,nan,nan,nan,nan,nan,nan,nan,nan,nan,nan,nan,nan,nan,318.1900514579029,840.8290696955519,nan,841.1386238004197,nan,nan,nan,nan
1,296,1,1,1.0,1.0,0.21705593878868967,0.0,7,2,6,5,4,3,nan,nan,nan,nan,nan,nan,nan,nan,nan,nan,nan,nan,0.0,nan,nan,nan,nan,nan,nan,nan,nan,nan,nan,nan,nan,nan,nan,nan,nan,nan,nan,318.1900514579029,841.9375888268114,nan,842.1546447656001,nan,nan,nan,nan
1,297,1,1,1.0,1.0,0.30052153527503833,0.0,1,8,3,7,6,4,nan,nan,nan,nan,nan,nan,nan,nan,nan,nan,nan,nan,0.0,nan,nan,nan,nan,nan,nan,nan,nan,nan,nan,nan,nan,nan,nan,nan,nan,nan,nan,318.1900514579029,843.0460763118463,nan,843.3465978471213,nan,nan,nan,nan
1,298,1,1,1.0,1.0,0.3203451774897985,0.0,7,4,6,3,1,0,nan,nan,nan,nan,nan,nan,nan,nan,nan,nan,nan,nan,0.0,nan,nan,nan,nan,nan,nan,nan,nan,nan,nan,nan,nan,nan,nan,nan,nan,nan,nan,318.1900514579029,844.1462431244436,nan,844.4665883019334,nan,nan,nan,nan
1,299,1,1,1.0,1.0,0.2921660804422572,0.0,5,1,3,0,8,6,nan,nan,nan,nan,nan,nan,nan,nan,nan,nan,nan,nan,0.0,nan,nan,nan,nan,nan,nan,nan,nan,nan,nan,nan,nan,nan,nan,nan,nan,nan,nan,318.1900514579029,845.2464068009285,nan,845.5385728813708,nan,nan,nan,nan
1,300,1,1,1.0,1.0,0.42406719946302474,0.0,8,2,6,7,0,1,nan,nan,nan,nan,nan,nan,nan,nan,nan,nan,nan,nan,0.0,nan,nan,nan,nan,nan,nan,nan,nan,nan,nan,nan,nan,nan,nan,nan,nan,nan,nan,318.1900514579029,846.3465519458405,nan,846.7706191453035,nan,nan,nan,nan
1,301,1,1,1.0,1.0,0.3398517873720266,0.0,1,8,5,0,2,4,nan,nan,nan,nan,nan,nan,nan,nan,nan,nan,nan,nan,0.0,nan,nan,nan,nan,nan,nan,nan,nan,nan,nan,nan,nan,nan,nan,nan,nan,nan,nan,318.1900514579029,847.4467221796513,nan,847.7865739670233,nan,nan,nan,nan
1,302,1,1,1.0,1.0,0.20769208180718124,0.0,8,1,2,4,6,5,nan,nan,nan,nan,nan,nan,nan,nan,nan,nan,nan,nan,0.0,nan,nan,nan,nan,nan,nan,nan,nan,nan,nan,nan,nan,nan,nan,nan,nan,nan,nan,318.1900514579029,848.5468678947655,nan,848.7545599765726,nan,nan,nan,nan
1,303,0,0,1.0,0.0,0.2755215993965976,0.0,6,7,4,5,2,3,nan,nan,nan,nan,nan,nan,nan,nan,nan,nan,nan,nan,0.0,nan,nan,nan,nan,nan,nan,nan,nan,nan,nan,nan,nan,nan,nan,nan,nan,nan,nan,318.1900514579029,849.6470369881717,nan,849.9225585875683,nan,nan,nan,nan
1,304,1,1,nan,nan,nan,0.0,7,8,5,2,3,4,nan,nan,nan,nan,nan,nan,nan,nan,nan,nan,nan,nan,0.0,nan,nan,nan,nan,nan,nan,nan,nan,nan,nan,nan,nan,nan,nan,nan,nan,nan,nan,318.1900514579029,850.7471923967241,nan,nan,nan,nan,nan,nan
1,305,1,1,1.0,1.0,0.6271779934177175,0.0,8,5,4,3,0,7,nan,nan,nan,nan,nan,nan,nan,nan,nan,nan,nan,nan,0.0,nan,nan,nan,nan,nan,nan,nan,nan,nan,nan,nan,nan,nan,nan,nan,nan,nan,nan,318.1900514579029,851.84735122649,nan,852.4745292199077,nan,nan,nan,nan
1,306,1,1,1.0,1.0,0.5430312906973995,0.0,5,4,3,6,1,2,nan,nan,nan,nan,nan,nan,nan,nan,nan,nan,nan,nan,0.0,nan,nan,nan,nan,nan,nan,nan,nan,nan,nan,nan,nan,nan,nan,nan,nan,nan,nan,318.1900514579029,852.9475114817615,nan,853.4905427724589,nan,nan,nan,nan
1,307,1,1,1.0,1.0,0.6668649069033563,0.0,2,7,4,5,0,8,nan,nan,nan,nan,nan,nan,nan,nan,nan,nan,nan,nan,0.0,nan,nan,nan,nan,nan,nan,nan,nan,nan,nan,nan,nan,nan,nan,nan,nan,nan,nan,318.1900514579029,854.047664894606,nan,854.7145298015093,nan,nan,nan,nan
1,308,1,1,1.0,1.0,0.5906916236272082,0.0,7,4,3,1,8,5,nan,nan,nan,nan,nan,nan,nan,nan,nan,nan,nan,nan,0.0,nan,nan,nan,nan,nan,nan,nan,nan,nan,nan,nan,nan,nan,nan,nan,nan,nan,nan,318.1900514579029,855.1478302816977,nan,855.7385219053249,nan,nan,nan,nan
1,309,1,1,1.0,1.0,0.5865151791949756,0.0,4,8,2,5,0,6,nan,nan,nan,nan,nan,nan,nan,nan,nan,nan,nan,nan,0.0,nan,nan,nan,nan,nan,nan,nan,nan,nan,nan,nan,nan,nan,nan,nan,nan,nan,nan,318.1900514579029,856.247990251868,nan,856.834505431063,nan,nan,nan,nan
1,310,1,1,1.0,1.0,0.4303593783406541,0.0,1,2,5,8,7,3,nan,nan,nan,nan,nan,nan,nan,nan,nan,nan,nan,nan,0.0,nan,nan,nan,nan,nan,nan,nan,nan,nan,nan,nan,nan,nan,nan,nan,nan,nan,nan,318.1900514579029,857.348144805117,nan,857.7785041834577,nan,nan,nan,nan
1,311,1,1,1.0,1.0,0.3541900864802301,0.0,6,8,3,0,2,1,nan,nan,nan,nan,nan,nan,nan,nan,nan,nan,nan,nan,0.0,nan,nan,nan,nan,nan,nan,nan,nan,nan,nan,nan,nan,nan,nan,nan,nan,nan,nan,318.1900514579029,858.4483030646807,nan,858.8024931511609,nan,nan,nan,nan
1,312,0,0,0.0,1.0,0.6220182356191799,0.0,3,0,4,6,7,5,nan,nan,nan,nan,nan,nan,nan,nan,nan,nan,nan,nan,0.0,nan,nan,nan,nan,nan,nan,nan,nan,nan,nan,nan,nan,nan,nan,nan,nan,nan,nan,318.1900514579029,859.548463034851,nan,860.1704812704702,nan,nan,nan,nan
1,313,1,1,1.0,1.0,0.5778626492246985,0.0,5,3,0,2,4,7,nan,nan,nan,nan,nan,nan,nan,nan,nan,nan,nan,nan,0.0,nan,nan,nan,nan,nan,nan,nan,nan,nan,nan,nan,nan,nan,nan,nan,nan,nan,nan,318.1900514579029,860.6486258559744,nan,861.2264885051991,nan,nan,nan,nan
1,314,1,1,1.0,1.0,0.5176935101626441,0.0,0,2,3,4,6,5,nan,nan,nan,nan,nan,nan,nan,nan,nan,nan,nan,nan,0.0,nan,nan,nan,nan,nan,nan,nan,nan,nan,nan,nan,nan,nan,nan,nan,nan,nan,nan,318.1900514579029,861.7487804092234,nan,862.266473919386,nan,nan,nan,nan
1,315,1,1,1.0,1.0,0.4335205781972036,0.0,6,8,1,0,4,3,nan,nan,nan,nan,nan,nan,nan,nan,nan,nan,nan,nan,0.0,nan,nan,nan,nan,nan,nan,nan,nan,nan,nan,nan,nan,nan,nan,nan,nan,nan,nan,318.1900514579029,862.8489406644949,nan,863.2824612426921,nan,nan,nan,nan
1,316,1,1,1.0,1.0,0.42136016552103683,0.0,2,5,4,8,6,7,nan,nan,nan,nan,nan,nan,nan,nan,nan,nan,nan,nan,0.0,nan,nan,nan,nan,nan,nan,nan,nan,nan,nan,nan,nan,nan,nan,nan,nan,nan,nan,318.1900514579029,863.9490983538562,nan,864.3704585193773,nan,nan,nan,nan
1,317,1,1,1.0,1.0,0.46519786439603195,0.0,7,1,8,5,3,0,nan,nan,nan,nan,nan,nan,nan,nan,nan,nan,nan,nan,0.0,nan,nan,nan,nan,nan,nan,nan,nan,nan,nan,nan,nan,nan,nan,nan,nan,nan,nan,318.1900514579029,865.0492534773075,nan,865.5144513417035,nan,nan,nan,nan
1,318,0,0,0.0,1.0,0.6210520283784717,0.0,5,8,0,6,4,2,nan,nan,nan,nan,nan,nan,nan,nan,nan,nan,nan,nan,0.0,nan,nan,nan,nan,nan,nan,nan,nan,nan,nan,nan,nan,nan,nan,nan,nan,nan,nan,318.1900514579029,866.1494180090958,nan,866.7704700374743,nan,nan,nan,nan
1,319,1,1,1.0,1.0,0.5528510242002085,0.0,7,0,4,5,1,3,nan,nan,nan,nan,nan,nan,nan,nan,nan,nan,nan,nan,0.0,nan,nan,nan,nan,nan,nan,nan,nan,nan,nan,nan,nan,nan,nan,nan,nan,nan,nan,318.1900514579029,867.2495825408841,nan,867.8024335650844,nan,nan,nan,nan
1,320,1,1,1.0,1.0,0.5007154609775171,0.0,6,3,0,2,8,1,nan,nan,nan,nan,nan,nan,nan,nan,nan,nan,nan,nan,0.0,nan,nan,nan,nan,nan,nan,nan,nan,nan,nan,nan,nan,nan,nan,nan,nan,nan,nan,318.1900514579029,868.3497242645826,nan,868.8504397255601,nan,nan,nan,nan
1,321,1,1,1.0,1.0,0.40054437186336145,0.0,4,6,2,5,7,0,nan,nan,nan,nan,nan,nan,nan,nan,nan,nan,nan,nan,0.0,nan,nan,nan,nan,nan,nan,nan,nan,nan,nan,nan,nan,nan,nan,nan,nan,nan,nan,318.1900514579029,869.4498822390451,nan,869.8504266109085,nan,nan,nan,nan
1,322,1,1,1.0,1.0,0.3243836330366321,0.0,3,5,0,8,1,4,nan,nan,nan,nan,nan,nan,nan,nan,nan,nan,nan,nan,0.0,nan,nan,nan,nan,nan,nan,nan,nan,nan,nan,nan,nan,nan,nan,nan,nan,nan,nan,318.1900514579029,870.55004334962,nan,870.8744269826566,nan,nan,nan,nan
1,323,0,0,1.0,0.0,0.28821001906180754,0.0,1,7,6,4,0,2,nan,nan,nan,nan,nan,nan,nan,nan,nan,nan,nan,nan,0.0,nan,nan,nan,nan,nan,nan,nan,nan,nan,nan,nan,nan,nan,nan,nan,nan,nan,nan,318.1900514579029,871.6502036048914,nan,871.9384136239532,nan,nan,nan,nan
1,324,1,1,1.0,1.0,0.4920181700726971,0.0,8,2,3,5,6,1,nan,nan,nan,nan,nan,nan,nan,nan,nan,nan,nan,nan,0.0,nan,nan,nan,nan,nan,nan,nan,nan,nan,nan,nan,nan,nan,nan,nan,nan,nan,nan,318.1900514579029,872.7503612942528,nan,873.2423794643255,nan,nan,nan,nan
1,325,1,1,1.0,1.0,0.3598732897080481,0.0,4,7,6,1,8,2,nan,nan,nan,nan,nan,nan,nan,nan,nan,nan,nan,nan,0.0,nan,nan,nan,nan,nan,nan,nan,nan,nan,nan,nan,nan,nan,nan,nan,nan,nan,nan,318.1900514579029,873.8505246856366,nan,874.2103979753447,nan,nan,nan,nan
1,326,1,1,1.0,1.0,0.36370504705701023,0.0,2,5,1,3,0,7,nan,nan,nan,nan,nan,nan,nan,nan,nan,nan,nan,nan,0.0,nan,nan,nan,nan,nan,nan,nan,nan,nan,nan,nan,nan,nan,nan,nan,nan,nan,nan,318.1900514579029,874.9506809494924,nan,875.3143859965494,nan,nan,nan,nan
1,327,1,1,1.0,1.0,0.3675484935520217,0.0,3,0,7,5,4,6,nan,nan,nan,nan,nan,nan,nan,nan,nan,nan,nan,nan,0.0,nan,nan,nan,nan,nan,nan,nan,nan,nan,nan,nan,nan,nan,nan,nan,nan,nan,nan,318.1900514579029,876.0508374984493,nan,876.4183859920013,nan,nan,nan,nan
1,328,1,1,1.0,1.0,0.5150517643778585,0.0,0,5,2,4,6,1,nan,nan,nan,nan,nan,nan,nan,nan,nan,nan,nan,nan,0.0,nan,nan,nan,nan,nan,nan,nan,nan,nan,nan,nan,nan,nan,nan,nan,nan,nan,nan,318.1900514579029,877.1593295451021,nan,877.6743813094799,nan,nan,nan,nan
1,329,1,1,1.0,1.0,0.3588620364898816,0.0,2,6,5,0,3,4,nan,nan,nan,nan,nan,nan,nan,nan,nan,nan,nan,nan,0.0,nan,nan,nan,nan,nan,nan,nan,nan,nan,nan,nan,nan,nan,nan,nan,nan,nan,nan,318.1900514579029,878.2595020597219,nan,878.6183640962117,nan,nan,nan,nan
1,330,1,1,1.0,1.0,0.48270021431380883,0.0,3,0,4,7,8,2,nan,nan,nan,nan,nan,nan,nan,nan,nan,nan,nan,nan,0.0,nan,nan,nan,nan,nan,nan,nan,nan,nan,nan,nan,nan,nan,nan,nan,nan,nan,nan,318.1900514579029,879.3596583235776,nan,879.8423585378914,nan,nan,nan,nan
1,331,0,0,0.0,1.0,0.6382287929882295,0.0,4,5,0,2,1,8,nan,nan,nan,nan,nan,nan,nan,nan,nan,nan,nan,nan,0.0,nan,nan,nan,nan,nan,nan,nan,nan,nan,nan,nan,nan,nan,nan,nan,nan,nan,nan,318.1900514579029,880.4681238558842,nan,881.1063526488724,nan,nan,nan,nan
1,332,1,1,1.0,1.0,0.5697221605223604,0.0,0,1,3,8,7,6,nan,nan,nan,nan,nan,nan,nan,nan,nan,nan,nan,nan,0.0,nan,nan,nan,nan,nan,nan,nan,nan,nan,nan,nan,nan,nan,nan,nan,nan,nan,nan,318.1900514579029,881.576632153301,nan,882.1463543138234,nan,nan,nan,nan
1,333,1,1,1.0,1.0,0.5971953474800102,0.0,3,6,2,0,4,8,nan,nan,nan,nan,nan,nan,nan,nan,nan,nan,nan,nan,0.0,nan,nan,nan,nan,nan,nan,nan,nan,nan,nan,nan,nan,nan,nan,nan,nan,nan,nan,318.1900514579029,882.6851202085963,nan,883.2823155560764,nan,nan,nan,nan
1,334,1,1,1.0,1.0,0.6727049156324938,0.0,8,1,3,5,7,0,nan,nan,nan,nan,nan,nan,nan,nan,nan,nan,nan,nan,0.0,nan,nan,nan,nan,nan,nan,nan,nan,nan,nan,nan,nan,nan,nan,nan,nan,nan,nan,318.1900514579029,883.7936148211593,nan,884.4663197367918,nan,nan,nan,nan
1,335,1,1,1.0,1.0,0.5725289797992446,0.0,1,0,4,6,3,8,nan,nan,nan,nan,nan,nan,nan,nan,nan,nan,nan,nan,0.0,nan,nan,nan,nan,nan,nan,nan,nan,nan,nan,nan,nan,nan,nan,nan,nan,nan,nan,318.1900514579029,884.8937881910824,nan,885.4663171708817,nan,nan,nan,nan
1,336,1,1,1.0,1.0,0.5843891811091453,0.0,7,3,1,2,8,6,nan,nan,nan,nan,nan,nan,nan,nan,nan,nan,nan,nan,0.0,nan,nan,nan,nan,nan,nan,nan,nan,nan,nan,nan,nan,nan,nan,nan,nan,nan,nan,318.1900514579029,885.9939316253876,nan,886.5783208064968,nan,nan,nan,nan
1,337,1,1,1.0,1.0,0.4762078945059329,0.0,2,1,6,7,3,4,nan,nan,nan,nan,nan,nan,nan,nan,nan,nan,nan,nan,0.0,nan,nan,nan,nan,nan,nan,nan,nan,nan,nan,nan,nan,nan,nan,nan,nan,nan,nan,318.1900514579029,887.0940964422771,nan,887.570304336783,nan,nan,nan,nan
1,338,1,1,1.0,1.0,0.3760536263580434,0.0,3,2,8,1,0,7,nan,nan,nan,nan,nan,nan,nan,nan,nan,nan,nan,nan,0.0,nan,nan,nan,nan,nan,nan,nan,nan,nan,nan,nan,nan,nan,nan,nan,nan,nan,nan,318.1900514579029,888.1942515657283,nan,888.5703051920864,nan,nan,nan,nan
1,339,0,0,0.0,1.0,0.5478882712195627,1.0,2,6,7,5,4,1,1.0,1.0,1.0,1.0,1.0,1.0,0.0,0.0,1.0,1.0,1.0,0.0,3.0,1.0,0.0,7.0,5.0,4.0,3.0,5.0,6.0,1.0,2.0,3.0,4.0,5.836509120767005,6.883889769669622,1.7415416950243525,2.7155399142648093,3.54916381300427,5.036874677287415,318.1900514579029,889.2944129614043,890.1028422003146,889.8423012326239,898.053983302787,899.0517635064898,891.1279992268537,898.0456580687314
1,340,1,1,1.0,1.0,0.6240128022036515,0.0,4,5,1,6,8,3,nan,nan,nan,nan,nan,nan,nan,nan,nan,nan,nan,nan,0.0,nan,nan,nan,nan,nan,nan,nan,nan,nan,nan,nan,nan,nan,nan,nan,nan,nan,nan,318.1900514579029,899.3542060522013,nan,899.978218854405,nan,nan,nan,nan
1,341,1,1,1.0,1.0,0.43584728735731915,0.0,0,2,4,3,7,1,nan,nan,nan,nan,nan,nan,nan,nan,nan,nan,nan,nan,0.0,nan,nan,nan,nan,nan,nan,nan,nan,nan,nan,nan,nan,nan,nan,nan,nan,nan,nan,318.1900514579029,900.4543580395402,nan,900.8902053268976,nan,nan,nan,nan
1,342,1,1,1.0,1.0,0.3036724714329466,0.0,7,1,5,8,0,3,nan,nan,nan,nan,nan,nan,nan,nan,nan,nan,nan,nan,0.0,nan,nan,nan,nan,nan,nan,nan,nan,nan,nan,nan,nan,nan,nan,nan,nan,nan,nan,318.1900514579029,901.5545402475982,nan,901.8582127190311,nan,nan,nan,nan
1,343,1,1,1.0,1.0,0.2675142529187724,0.0,2,5,7,1,4,0,nan,nan,nan,nan,nan,nan,nan,nan,nan,nan,nan,nan,0.0,nan,nan,nan,nan,nan,nan,nan,nan,nan,nan,nan,nan,nan,nan,nan,nan,nan,nan,318.1900514579029,902.6546856776113,nan,902.92219993053,nan,nan,nan,nan
1,344,0,0,0.0,1.0,0.6473423313000239,0.0,4,3,5,7,2,6,nan,nan,nan,nan,nan,nan,nan,nan,nan,nan,nan,nan,0.0,nan,nan,nan,nan,nan,nan,nan,nan,nan,nan,nan,nan,nan,nan,nan,nan,nan,nan,318.1900514579029,903.7548430818715,nan,904.4021854131715,nan,nan,nan,nan
1,345,1,1,1.0,1.0,0.49921953602461144,0.0,0,4,2,1,8,7,nan,nan,nan,nan,nan,nan,nan,nan,nan,nan,nan,nan,0.0,nan,nan,nan,nan,nan,nan,nan,nan,nan,nan,nan,nan,nan,nan,nan,nan,nan,nan,318.1900514579029,904.8549679846037,nan,905.3541875206283,nan,nan,nan,nan
1,346,1,1,1.0,1.0,0.5510141184786335,0.0,2,1,5,6,0,3,nan,nan,nan,nan,nan,nan,nan,nan,nan,nan,nan,nan,0.0,nan,nan,nan,nan,nan,nan,nan,nan,nan,nan,nan,nan,nan,nan,nan,nan,nan,nan,318.1900514579029,905.9551607414032,nan,906.5061748598819,nan,nan,nan,nan
1,347,1,1,1.0,1.0,0.37086364784045145,0.0,3,6,1,2,8,0,nan,nan,nan,nan,nan,nan,nan,nan,nan,nan,nan,nan,0.0,nan,nan,nan,nan,nan,nan,nan,nan,nan,nan,nan,nan,nan,nan,nan,nan,nan,nan,318.1900514579029,907.0553167201579,nan,907.4261803679983,nan,nan,nan,nan
1,348,1,1,1.0,1.0,0.5586770629743114,0.0,0,3,2,6,7,8,nan,nan,nan,nan,nan,nan,nan,nan,nan,nan,nan,nan,0.0,nan,nan,nan,nan,nan,nan,nan,nan,nan,nan,nan,nan,nan,nan,nan,nan,nan,nan,318.1900514579029,908.1554815370473,nan,908.7141586000216,nan,nan,nan,nan
1,349,1,1,1.0,1.0,0.4825302941026166,0.0,8,4,7,2,1,6,nan,nan,nan,nan,nan,nan,nan,nan,nan,nan,nan,nan,0.0,nan,nan,nan,nan,nan,nan,nan,nan,nan,nan,nan,nan,nan,nan,nan,nan,nan,nan,318.1900514579029,909.2556360902963,nan,909.7381663843989,nan,nan,nan,nan
1,350,1,1,1.0,1.0,0.5103698358288966,0.0,3,1,6,7,2,4,nan,nan,nan,nan,nan,nan,nan,nan,nan,nan,nan,nan,0.0,nan,nan,nan,nan,nan,nan,nan,nan,nan,nan,nan,nan,nan,nan,nan,nan,nan,nan,318.1900514579029,910.3557923541521,nan,910.866162189981,nan,nan,nan,nan
1,351,1,1,1.0,1.0,0.5701817433000542,0.0,7,0,2,1,4,8,nan,nan,nan,nan,nan,nan,nan,nan,nan,nan,nan,nan,0.0,nan,nan,nan,nan,nan,nan,nan,nan,nan,nan,nan,nan,nan,nan,nan,nan,nan,nan,318.1900514579029,911.4559528945247,nan,912.0261346378247,nan,nan,nan,nan
1,352,0,0,0.0,1.0,0.6460194627288729,0.0,6,8,1,0,2,3,nan,nan,nan,nan,nan,nan,nan,nan,nan,nan,nan,nan,0.0,nan,nan,nan,nan,nan,nan,nan,nan,nan,nan,nan,nan,nan,nan,nan,nan,nan,nan,318.1900514579029,912.5561100136256,nan,913.2021294763545,nan,nan,nan,nan
1,353,1,1,1.0,1.0,0.7618537152884528,0.0,7,1,8,2,4,5,nan,nan,nan,nan,nan,nan,nan,nan,nan,nan,nan,nan,0.0,nan,nan,nan,nan,nan,nan,nan,nan,nan,nan,nan,nan,nan,nan,nan,nan,nan,nan,318.1900514579029,913.6562696986948,nan,914.4181234139833,nan,nan,nan,nan
1,354,1,1,1.0,1.0,0.5816858534817584,0.0,4,2,5,3,0,7,nan,nan,nan,nan,nan,nan,nan,nan,nan,nan,nan,nan,0.0,nan,nan,nan,nan,nan,nan,nan,nan,nan,nan,nan,nan,nan,nan,nan,nan,nan,nan,318.1900514579029,914.7564276731573,nan,915.3381135266391,nan,nan,nan,nan
1,355,1,1,1.0,1.0,0.44951845018658787,0.0,5,4,6,7,2,0,nan,nan,nan,nan,nan,nan,nan,nan,nan,nan,nan,nan,0.0,nan,nan,nan,nan,nan,nan,nan,nan,nan,nan,nan,nan,nan,nan,nan,nan,nan,nan,318.1900514579029,915.856586217822,nan,916.3061046680086,nan,nan,nan,nan
1,356,1,1,1.0,1.0,0.4773622684297152,0.0,3,8,0,6,1,5,nan,nan,nan,nan,nan,nan,nan,nan,nan,nan,nan,nan,0.0,nan,nan,nan,nan,nan,nan,nan,nan,nan,nan,nan,nan,nan,nan,nan,nan,nan,nan,318.1900514579029,916.9567379200598,nan,917.4341001884895,nan,nan,nan,nan
1,357,1,1,1.0,1.0,0.41718600189778954,0.0,0,5,6,7,3,2,nan,nan,nan,nan,nan,nan,nan,nan,nan,nan,nan,nan,0.0,nan,nan,nan,nan,nan,nan,nan,nan,nan,nan,nan,nan,nan,nan,nan,nan,nan,nan,318.1900514579029,918.0569218387245,nan,918.4741078406223,nan,nan,nan,nan
1,358,1,1,1.0,1.0,0.34104778605978936,0.0,3,4,5,2,1,0,nan,nan,nan,nan,nan,nan,nan,nan,nan,nan,nan,nan,0.0,nan,nan,nan,nan,nan,nan,nan,nan,nan,nan,nan,nan,nan,nan,nan,nan,nan,nan,318.1900514579029,919.1570373331197,nan,919.4980851191794,nan,nan,nan,nan
1,359,1,1,1.0,1.0,0.384873510687612,0.0,0,7,4,8,2,6,nan,nan,nan,nan,nan,nan,nan,nan,nan,nan,nan,nan,0.0,nan,nan,nan,nan,nan,nan,nan,nan,nan,nan,nan,nan,nan,nan,nan,nan,nan,nan,318.1900514579029,920.2572209666832,nan,920.6420944773708,nan,nan,nan,nan
1,360,1,1,1.0,1.0,0.39669864455936477,0.0,1,0,5,2,3,4,nan,nan,nan,nan,nan,nan,nan,nan,nan,nan,nan,nan,0.0,nan,nan,nan,nan,nan,nan,nan,nan,nan,nan,nan,nan,nan,nan,nan,nan,nan,nan,318.1900514579029,921.3573803666513,nan,921.7540790112107,nan,nan,nan,nan
1,361,1,1,1.0,1.0,0.336533211870119,0.0,0,2,7,4,1,5,nan,nan,nan,nan,nan,nan,nan,nan,nan,nan,nan,nan,0.0,nan,nan,nan,nan,nan,nan,nan,nan,nan,nan,nan,nan,nan,nan,nan,nan,nan,nan,318.1900514579029,922.4575383411138,nan,922.794071552984,nan,nan,nan,nan
1,362,1,1,1.0,1.0,0.2843722745892592,0.0,2,4,6,8,0,1,nan,nan,nan,nan,nan,nan,nan,nan,nan,nan,nan,nan,0.0,nan,nan,nan,nan,nan,nan,nan,nan,nan,nan,nan,nan,nan,nan,nan,nan,nan,nan,318.1900514579029,923.5577040133066,nan,923.8420762878959,nan,nan,nan,nan
1,363,1,1,1.0,1.0,0.28820688294945285,0.0,1,0,8,7,4,5,nan,nan,nan,nan,nan,nan,nan,nan,nan,nan,nan,nan,0.0,nan,nan,nan,nan,nan,nan,nan,nan,nan,nan,nan,nan,nan,nan,nan,nan,nan,nan,318.1900514579029,924.6578568559489,nan,924.9460637388984,nan,nan,nan,nan
1,364,1,1,1.0,1.0,0.2920329382759519,0.0,7,3,4,1,5,6,nan,nan,nan,nan,nan,nan,nan,nan,nan,nan,nan,nan,0.0,nan,nan,nan,nan,nan,nan,nan,nan,nan,nan,nan,nan,nan,nan,nan,nan,nan,nan,318.1900514579029,925.7580216728384,nan,926.0500546111143,nan,nan,nan,nan
1,365,1,1,1.0,1.0,0.3838420152897015,0.0,0,4,5,2,6,1,nan,nan,nan,nan,nan,nan,nan,nan,nan,nan,nan,nan,0.0,nan,nan,nan,nan,nan,nan,nan,nan,nan,nan,nan,nan,nan,nan,nan,nan,nan,nan,318.1900514579029,926.858182213211,nan,927.2420242285007,nan,nan,nan,nan
1,366,1,1,1.0,1.0,0.3556937091634609,0.0,1,2,3,4,7,0,nan,nan,nan,nan,nan,nan,nan,nan,nan,nan,nan,nan,0.0,nan,nan,nan,nan,nan,nan,nan,nan,nan,nan,nan,nan,nan,nan,nan,nan,nan,nan,318.1900514579029,927.958329924033,nan,928.3140236331965,nan,nan,nan,nan
1,367,1,1,1.0,1.0,0.2955314125283621,0.0,4,1,7,3,0,6,nan,nan,nan,nan,nan,nan,nan,nan,nan,nan,nan,nan,0.0,nan,nan,nan,nan,nan,nan,nan,nan,nan,nan,nan,nan,nan,nan,nan,nan,nan,nan,318.1900514579029,929.0584927452146,nan,929.354024157743,nan,nan,nan,nan
1,368,1,1,1.0,1.0,0.29936145927058533,0.0,7,3,4,5,8,2,nan,nan,nan,nan,nan,nan,nan,nan,nan,nan,nan,nan,0.0,nan,nan,nan,nan,nan,nan,nan,nan,nan,nan,nan,nan,nan,nan,nan,nan,nan,nan,318.1900514579029,930.158643592149,nan,930.4580050514196,nan,nan,nan,nan
1,369,1,1,1.0,1.0,0.3672152104554698,0.0,6,8,5,2,7,4,nan,nan,nan,nan,nan,nan,nan,nan,nan,nan,nan,nan,0.0,nan,nan,nan,nan,nan,nan,nan,nan,nan,nan,nan,nan,nan,nan,nan,nan,nan,nan,318.1900514579029,931.2588038474205,nan,931.626019057876,nan,nan,nan,nan
1,370,1,1,1.0,1.0,0.31503574165981263,0.0,2,6,8,3,4,1,nan,nan,nan,nan,nan,nan,nan,nan,nan,nan,nan,nan,0.0,nan,nan,nan,nan,nan,nan,nan,nan,nan,nan,nan,nan,nan,nan,nan,nan,nan,nan,318.1900514579029,932.3589698047144,nan,932.6740055463742,nan,nan,nan,nan
1,371,1,1,1.0,1.0,0.2869071075110696,0.0,5,8,2,7,0,3,nan,nan,nan,nan,nan,nan,nan,nan,nan,nan,nan,nan,0.0,nan,nan,nan,nan,nan,nan,nan,nan,nan,nan,nan,nan,nan,nan,nan,nan,nan,nan,318.1900514579029,933.4590892905253,nan,933.7459963980364,nan,nan,nan,nan
1,372,1,1,1.0,1.0,0.26671397441532463,0.0,1,7,0,3,6,8,nan,nan,nan,nan,nan,nan,nan,nan,nan,nan,nan,nan,0.0,nan,nan,nan,nan,nan,nan,nan,nan,nan,nan,nan,nan,nan,nan,nan,nan,nan,nan,318.1900514579029,934.5592854685383,nan,934.8259994429536,nan,nan,nan,nan
1,373,1,1,1.0,1.0,0.27055200398899615,0.0,0,4,2,8,3,5,nan,nan,nan,nan,nan,nan,nan,nan,nan,nan,nan,nan,0.0,nan,nan,nan,nan,nan,nan,nan,nan,nan,nan,nan,nan,nan,nan,nan,nan,nan,nan,318.1900514579029,935.6594414472347,nan,935.9299934512237,nan,nan,nan,nan
1,374,1,1,1.0,1.0,0.26638211688259616,0.0,2,3,0,7,8,1,nan,nan,nan,nan,nan,nan,nan,nan,nan,nan,nan,nan,0.0,nan,nan,nan,nan,nan,nan,nan,nan,nan,nan,nan,nan,nan,nan,nan,nan,nan,nan,318.1900514579029,936.7596031280118,nan,937.0259852448944,nan,nan,nan,nan
1,375,1,1,1.0,1.0,0.24622775753960013,0.0,4,1,6,5,7,0,nan,nan,nan,nan,nan,nan,nan,nan,nan,nan,nan,nan,0.0,nan,nan,nan,nan,nan,nan,nan,nan,nan,nan,nan,nan,nan,nan,nan,nan,nan,nan,318.1900514579029,937.8597571110586,nan,938.1059848685982,nan,nan,nan,nan
1,376,1,1,1.0,1.0,0.29804571822751313,0.0,0,8,4,3,1,2,nan,nan,nan,nan,nan,nan,nan,nan,nan,nan,nan,nan,0.0,nan,nan,nan,nan,nan,nan,nan,nan,nan,nan,nan,nan,nan,nan,nan,nan,nan,nan,318.1900514579029,938.9599253491615,nan,939.257971067389,nan,nan,nan,nan
1,377,1,1,1.0,1.0,0.301563864457421,0.0,4,7,0,8,2,5,nan,nan,nan,nan,nan,nan,nan,nan,nan,nan,nan,nan,0.0,nan,nan,nan,nan,nan,nan,nan,nan,nan,nan,nan,nan,nan,nan,nan,nan,nan,nan,318.1900514579029,940.0684042812209,nan,940.3699681456783,nan,nan,nan,nan
1,378,1,1,1.0,1.0,0.2733961714548059,0.0,6,1,5,3,0,2,nan,nan,nan,nan,nan,nan,nan,nan,nan,nan,nan,nan,0.0,nan,nan,nan,nan,nan,nan,nan,nan,nan,nan,nan,nan,nan,nan,nan,nan,nan,nan,318.1900514579029,941.1685653917957,nan,941.4419615632505,nan,nan,nan,nan
1,379,1,1,1.0,1.0,0.26888131216401234,0.0,1,2,8,0,3,7,nan,nan,nan,nan,nan,nan,nan,nan,nan,nan,nan,nan,0.0,nan,nan,nan,nan,nan,nan,nan,nan,nan,nan,nan,nan,nan,nan,nan,nan,nan,nan,318.1900514579029,942.2770622851676,nan,942.5459435973316,nan,nan,nan,nan
1,380,0,0,1.0,0.0,0.2727227629511617,0.0,4,7,3,2,6,0,nan,nan,nan,nan,nan,nan,nan,nan,nan,nan,nan,nan,0.0,nan,nan,nan,nan,nan,nan,nan,nan,nan,nan,nan,nan,nan,nan,nan,nan,nan,nan,318.1900514579029,943.3772219702369,nan,943.649944733188,nan,nan,nan,nan
1,381,1,1,1.0,1.0,0.6445406438433565,0.0,1,4,0,8,2,6,nan,nan,nan,nan,nan,nan,nan,nan,nan,nan,nan,nan,0.0,nan,nan,nan,nan,nan,nan,nan,nan,nan,nan,nan,nan,nan,nan,nan,nan,nan,nan,318.1900514579029,944.4773719618679,nan,945.1219126057113,nan,nan,nan,nan
1,382,1,1,1.0,1.0,0.512373240548186,0.0,6,7,5,3,1,2,nan,nan,nan,nan,nan,nan,nan,nan,nan,nan,nan,nan,0.0,nan,nan,nan,nan,nan,nan,nan,nan,nan,nan,nan,nan,nan,nan,nan,nan,nan,nan,318.1900514579029,945.577535923454,nan,946.0899091640022,nan,nan,nan,nan
