block,trial,freq_trials,correct_response,actual_response,acc,rts,probe_trials,fast_rt_trigger,slow_rt_trigger,rt_triggered,rts_runningavg,rts_runningstd,rts_runningfastthresh,rts_runningslowthresh,rts_runningstd,rts_trailingavg,trials_colorind0,trials_colorind1,trials_colorind2,trials_colorind3,trials_colorind4,trials_colorind5,wholereport_resp0,wholereport_resp1,wholereport_resp2,wholereport_resp3,wholereport_resp4,wholereport_resp5,wholereport_respacc0,wholereport_respacc1,wholereport_respacc2,wholereport_respacc3,wholereport_respacc4,wholereport_respacc5,wholereport_respacc_total,wholereport_respcolorind0,wholereport_respcolorind1,wholereport_respcolorind2,wholereport_respcolorind3,wholereport_respcolorind4,wholereport_respcolorind5,wholereport_resporder0,wholereport_resporder1,wholereport_resporder2,wholereport_resporder3,wholereport_resporder4,wholereport_resporder5,wholereport_rts0,wholereport_rts1,wholereport_rts2,wholereport_rts3,wholereport_rts4,wholereport_rts5,time_blockstart,time_encarray_offset,time_encarray_onset,time_response,time_iti_offset,time_iti_onset,time_memprobe_offset,time_memprobe_onset
1,1,1,1,1.0,1.0,0.4137313941027969,0,nan,nan,nan,nan,nan,nan,nan,nan,nan,5,2,8,1,4,7,nan,nan,nan,nan,nan,nan,nan,nan,nan,nan,nan,nan,0.0,nan,nan,nan,nan,nan,nan,nan,nan,nan,nan,nan,nan,nan,nan,nan,nan,nan,nan,706.2927582559641,707.3109815742355,nan,707.7247129683383,nan,nan,nan,nan
1,2,1,1,1.0,1.0,0.6121411621570587,0,nan,nan,nan,nan,nan,nan,nan,nan,nan,0,4,3,6,7,1,nan,nan,nan,nan,nan,nan,nan,nan,nan,nan,nan,nan,0.0,nan,nan,nan,nan,nan,nan,nan,nan,nan,nan,nan,nan,nan,nan,nan,nan,nan,nan,706.2927582559641,708.3445227551274,nan,708.9566639172845,nan,nan,nan,nan
1,3,1,1,1.0,1.0,0.13926088926382363,0,nan,nan,nan,nan,nan,nan,nan,nan,nan,3,2,1,7,0,8,nan,nan,nan,nan,nan,nan,nan,nan,nan,nan,nan,nan,0.0,nan,nan,nan,nan,nan,nan,nan,nan,nan,nan,nan,nan,nan,nan,nan,nan,nan,nan,706.2927582559641,709.3696033030283,nan,709.5088641922921,nan,nan,nan,nan
1,4,1,1,1.0,1.0,0.7219215524382889,0,nan,nan,nan,nan,nan,nan,nan,nan,nan,0,6,7,4,2,3,nan,nan,nan,nan,nan,nan,nan,nan,nan,nan,nan,nan,0.0,nan,nan,nan,nan,nan,nan,nan,nan,nan,nan,nan,nan,nan,nan,nan,nan,nan,nan,706.2927582559641,710.394766530022,nan,711.1166880824603,nan,nan,nan,nan
1,5,1,1,1.0,1.0,0.7209436588454992,0,nan,nan,nan,nan,nan,nan,nan,nan,nan,3,1,6,0,8,2,nan,nan,nan,nan,nan,nan,nan,nan,nan,nan,nan,nan,0.0,nan,nan,nan,nan,nan,nan,nan,nan,nan,nan,nan,nan,nan,nan,nan,nan,nan,nan,706.2927582559641,711.4199092297349,nan,712.1408528885804,nan,nan,nan,nan
1,6,1,1,1.0,1.0,0.4156361483037472,0,nan,nan,nan,nan,nan,nan,nan,nan,nan,7,5,3,2,6,0,nan,nan,nan,nan,nan,nan,nan,nan,nan,nan,nan,nan,0.0,nan,nan,nan,nan,nan,nan,nan,nan,nan,nan,nan,nan,nan,nan,nan,nan,nan,nan,706.2927582559641,712.4450516444631,nan,712.8606877927668,nan,nan,nan,nan
1,7,1,1,1.0,1.0,0.4145154196303338,0,nan,nan,nan,nan,nan,nan,nan,nan,nan,0,7,6,5,1,4,nan,nan,nan,nan,nan,nan,nan,nan,nan,nan,nan,nan,0.0,nan,nan,nan,nan,nan,nan,nan,nan,nan,nan,nan,nan,nan,nan,nan,nan,nan,nan,706.2927582559641,713.4701769531239,nan,713.8846923727542,nan,nan,nan,nan
1,8,1,1,1.0,1.0,0.26976606668904424,0,nan,nan,nan,nan,nan,nan,nan,nan,nan,7,2,0,3,8,1,nan,nan,nan,nan,nan,nan,nan,nan,nan,nan,nan,nan,0.0,nan,nan,nan,nan,nan,nan,nan,nan,nan,nan,nan,nan,nan,nan,nan,nan,nan,nan,706.2927582559641,714.4952999809757,nan,714.7650660476647,nan,nan,nan,nan
1,9,1,1,1.0,1.0,0.4042398389428854,0,nan,nan,nan,nan,nan,nan,nan,nan,nan,1,5,8,6,7,3,nan,nan,nan,nan,nan,nan,nan,nan,nan,nan,nan,nan,0.0,nan,nan,nan,nan,nan,nan,nan,nan,nan,nan,nan,nan,nan,nan,nan,nan,nan,nan,706.2927582559641,715.5204512337223,nan,715.9246910726652,nan,nan,nan,nan
1,10,1,1,1.0,1.0,0.31504824315197766,0,nan,nan,nan,nan,nan,nan,nan,nan,nan,6,4,3,2,0,7,nan,nan,nan,nan,nan,nan,nan,nan,nan,nan,nan,nan,0.0,nan,nan,nan,nan,nan,nan,nan,nan,nan,nan,nan,nan,nan,nan,nan,nan,nan,nan,706.2927582559641,716.5455816742033,nan,716.8606299173553,nan,nan,nan,nan
1,11,0,0,0.0,1.0,0.4338343779090792,0,nan,nan,nan,nan,nan,nan,nan,nan,nan,5,8,0,7,1,6,nan,nan,nan,nan,nan,nan,nan,nan,nan,nan,nan,nan,0.0,nan,nan,nan,nan,nan,nan,nan,nan,nan,nan,nan,nan,nan,nan,nan,nan,nan,nan,706.2927582559641,717.570778257912,nan,718.0046126358211,nan,nan,nan,nan
1,12,1,1,1.0,1.0,0.3288807338103652,0,nan,nan,nan,nan,nan,nan,nan,nan,nan,7,0,4,3,5,2,nan,nan,nan,nan,nan,nan,nan,nan,nan,nan,nan,nan,0.0,nan,nan,nan,nan,nan,nan,nan,nan,nan,nan,nan,nan,nan,nan,nan,nan,nan,nan,706.2927582559641,718.5958796180785,nan,718.9247603518888,nan,nan,nan,nan
1,13,1,1,1.0,1.0,0.6316106535959989,0,nan,nan,nan,nan,nan,nan,nan,nan,nan,1,7,2,4,8,3,nan,nan,nan,nan,nan,nan,nan,nan,nan,nan,nan,nan,0.0,nan,nan,nan,nan,nan,nan,nan,nan,nan,nan,nan,nan,nan,nan,nan,nan,nan,nan,706.2927582559641,719.6210003651213,nan,720.2526110187173,nan,nan,nan,nan
1,14,1,1,1.0,1.0,0.5025820098817348,0,nan,nan,nan,nan,nan,nan,nan,nan,nan,6,2,7,0,5,8,nan,nan,nan,nan,nan,nan,nan,nan,nan,nan,nan,nan,0.0,nan,nan,nan,nan,nan,nan,nan,nan,nan,nan,nan,nan,nan,nan,nan,nan,nan,nan,706.2927582559641,720.6461547540966,nan,721.1487367639784,nan,nan,nan,nan
1,15,1,1,1.0,1.0,0.3730840911157429,1,nan,nan,nan,nan,nan,nan,nan,nan,nan,8,6,3,2,4,5,1.0,1.0,1.0,1.0,1.0,1.0,1.0,1.0,0.0,0.0,0.0,0.0,2.0,8.0,6.0,2.0,1.0,0.0,4.0,2.0,1.0,3.0,4.0,5.0,6.0,2.6100145999807864,1.6728424117900431,3.7932812720537186,5.720675664488226,6.848461556714028,8.192459442419931,706.2927582559641,721.6796166771092,722.4880553004332,722.0527007682249,731.7309894487262,732.730558377225,723.4965512857307,731.7226437111385
1,16,1,1,1.0,1.0,0.6563753103837371,0,nan,nan,nan,nan,nan,nan,nan,nan,nan,4,5,6,1,2,3,nan,nan,nan,nan,nan,nan,nan,nan,nan,nan,nan,nan,0.0,nan,nan,nan,nan,nan,nan,nan,nan,nan,nan,nan,nan,nan,nan,nan,nan,nan,nan,706.2927582559641,732.9561296396423,nan,733.612504950026,nan,nan,nan,nan
1,17,1,1,1.0,1.0,0.5751140615902841,0,nan,nan,nan,nan,nan,nan,nan,nan,nan,1,8,7,5,3,0,nan,nan,nan,nan,nan,nan,nan,nan,nan,nan,nan,nan,0.0,nan,nan,nan,nan,nan,nan,nan,nan,nan,nan,nan,nan,nan,nan,nan,nan,nan,nan,706.2927582559641,733.9813310699537,nan,734.556445131544,nan,nan,nan,nan
1,18,1,1,1.0,1.0,0.5496608875691891,0,nan,nan,nan,nan,nan,nan,nan,nan,nan,5,1,3,6,8,7,nan,nan,nan,nan,nan,nan,nan,nan,nan,nan,nan,nan,0.0,nan,nan,nan,nan,nan,nan,nan,nan,nan,nan,nan,nan,nan,nan,nan,nan,nan,nan,706.2927582559641,735.0147667638958,nan,735.5644276514649,nan,nan,nan,nan
1,19,1,1,1.0,1.0,0.388539656996727,0,nan,nan,nan,nan,nan,nan,nan,nan,nan,0,5,4,3,1,2,nan,nan,nan,nan,nan,nan,nan,nan,nan,nan,nan,nan,0.0,nan,nan,nan,nan,nan,nan,nan,nan,nan,nan,nan,nan,nan,nan,nan,nan,nan,nan,706.2927582559641,736.0399123146199,nan,736.4284519716166,nan,nan,nan,nan
1,20,1,1,1.0,1.0,0.36336103454232216,0,nan,nan,nan,nan,nan,nan,nan,nan,nan,6,1,0,7,5,3,nan,nan,nan,nan,nan,nan,nan,nan,nan,nan,nan,nan,0.0,nan,nan,nan,nan,nan,nan,nan,nan,nan,nan,nan,nan,nan,nan,nan,nan,nan,nan,706.2927582559641,737.0650778224226,nan,737.4284388569649,nan,nan,nan,nan
1,21,1,1,1.0,1.0,0.31415131804533303,0,nan,nan,nan,nan,nan,nan,nan,nan,nan,5,6,7,1,2,4,nan,nan,nan,nan,nan,nan,nan,nan,nan,nan,nan,nan,0.0,nan,nan,nan,nan,nan,nan,nan,nan,nan,nan,nan,nan,nan,nan,nan,nan,nan,nan,706.2927582559641,738.0902461812366,nan,738.4043974992819,nan,nan,nan,nan
1,22,1,1,1.0,1.0,0.2810665825381875,0,nan,nan,nan,nan,nan,nan,nan,nan,nan,2,5,4,8,1,0,nan,nan,nan,nan,nan,nan,nan,nan,nan,nan,nan,nan,0.0,nan,nan,nan,nan,nan,nan,nan,nan,nan,nan,nan,nan,nan,nan,nan,nan,nan,nan,706.2927582559641,739.1153501074295,nan,739.3964166899677,nan,nan,nan,nan
1,23,1,1,1.0,1.0,0.25608011754229665,0,nan,nan,nan,nan,nan,nan,nan,nan,nan,8,2,3,7,6,5,nan,nan,nan,nan,nan,nan,nan,nan,nan,nan,nan,nan,0.0,nan,nan,nan,nan,nan,nan,nan,nan,nan,nan,nan,nan,nan,nan,nan,nan,nan,nan,706.2927582559641,740.1408813986927,nan,740.396961516235,nan,nan,nan,nan
1,24,1,1,1.0,1.0,0.2947761947289109,0,nan,nan,nan,nan,nan,nan,nan,nan,nan,5,3,4,6,2,0,nan,nan,nan,nan,nan,nan,nan,nan,nan,nan,nan,nan,0.0,nan,nan,nan,nan,nan,nan,nan,nan,nan,nan,nan,nan,nan,nan,nan,nan,nan,nan,706.2927582559641,741.1656278092414,nan,741.4604040039703,nan,nan,nan,nan
1,25,1,1,1.0,1.0,0.2855648931581527,0,nan,nan,nan,nan,nan,nan,nan,nan,nan,6,8,3,7,5,2,nan,nan,nan,nan,nan,nan,nan,nan,nan,nan,nan,nan,0.0,nan,nan,nan,nan,nan,nan,nan,nan,nan,nan,nan,nan,nan,nan,nan,nan,nan,nan,706.2927582559641,742.1908235375304,nan,742.4763884306885,nan,nan,nan,nan
1,26,1,1,1.0,1.0,0.28447295958176255,0,nan,nan,nan,nan,nan,nan,nan,nan,nan,2,4,6,3,0,8,nan,nan,nan,nan,nan,nan,nan,nan,nan,nan,nan,nan,0.0,nan,nan,nan,nan,nan,nan,nan,nan,nan,nan,nan,nan,nan,nan,nan,nan,nan,nan,706.2927582559641,743.2159186254721,nan,743.5003915850539,nan,nan,nan,nan
1,27,1,1,1.0,1.0,0.2513343400787562,0,nan,nan,nan,nan,nan,nan,nan,nan,nan,4,6,8,5,1,0,nan,nan,nan,nan,nan,nan,nan,nan,nan,nan,nan,nan,0.0,nan,nan,nan,nan,nan,nan,nan,nan,nan,nan,nan,nan,nan,nan,nan,nan,nan,nan,706.2927582559641,744.2410436491482,nan,744.492377989227,nan,nan,nan,nan
1,28,1,1,1.0,1.0,0.22670054412446916,0,nan,nan,nan,nan,nan,nan,nan,nan,nan,5,7,6,4,2,3,nan,nan,nan,nan,nan,nan,nan,nan,nan,nan,nan,nan,0.0,nan,nan,nan,nan,nan,nan,nan,nan,nan,nan,nan,nan,nan,nan,nan,nan,nan,nan,706.2927582559641,745.2661883446854,nan,745.4928888888098,nan,nan,nan,nan
1,29,1,1,1.0,1.0,0.23300410923548043,0,nan,nan,nan,nan,nan,nan,nan,nan,nan,4,2,0,6,7,8,nan,nan,nan,nan,nan,nan,nan,nan,nan,nan,nan,nan,0.0,nan,nan,nan,nan,nan,nan,nan,nan,nan,nan,nan,nan,nan,nan,nan,nan,nan,nan,706.2927582559641,746.2913310443982,nan,746.5243351536337,nan,nan,nan,nan
1,30,1,1,1.0,1.0,0.007871330948546529,0,nan,nan,nan,nan,nan,nan,nan,nan,nan,7,6,1,8,2,4,nan,nan,nan,nan,nan,nan,nan,nan,nan,nan,nan,nan,0.0,nan,nan,nan,nan,nan,nan,nan,nan,nan,nan,nan,nan,nan,nan,nan,nan,nan,nan,706.2927582559641,747.3165013988037,nan,747.3243727297522,nan,nan,nan,nan
1,31,0,0,0.0,1.0,0.4787060101516545,0,nan,nan,nan,nan,nan,nan,nan,nan,nan,0,4,7,6,8,3,nan,nan,nan,nan,nan,nan,nan,nan,nan,nan,nan,nan,0.0,nan,nan,nan,nan,nan,nan,nan,nan,nan,nan,nan,nan,nan,nan,nan,nan,nan,nan,706.2927582559641,748.3416329796892,nan,748.8203389898408,nan,nan,nan,nan
1,32,1,1,1.0,1.0,0.341582516906783,1,nan,nan,nan,nan,nan,nan,nan,nan,nan,4,5,2,0,7,1,1.0,1.0,1.0,1.0,1.0,1.0,1.0,1.0,1.0,0.0,0.0,0.0,3.0,4.0,5.0,2.0,6.0,0.0,7.0,3.0,2.0,1.0,4.0,5.0,6.0,2.674653938272968,1.827071345411241,0.9449582740198821,4.225103983189911,5.169580723159015,6.600741146365181,706.2927582559641,749.3667676968034,750.1751783799846,749.7083502137102,757.8262588100042,758.8257744247094,751.1836347365752,757.8178782900795
1,33,1,1,1.0,1.0,0.34480671491473913,0,nan,nan,nan,nan,nan,nan,nan,nan,nan,2,7,3,5,8,4,nan,nan,nan,nan,nan,nan,nan,nan,nan,nan,nan,nan,0.0,nan,nan,nan,nan,nan,nan,nan,nan,nan,nan,nan,nan,nan,nan,nan,nan,nan,nan,706.2927582559641,759.0514141111635,nan,759.3962208260782,nan,nan,nan,nan
1,34,1,1,1.0,1.0,0.31941797374747694,0,nan,nan,nan,nan,nan,nan,nan,nan,nan,7,1,0,6,4,2,nan,nan,nan,nan,nan,nan,nan,nan,nan,nan,nan,nan,0.0,nan,nan,nan,nan,nan,nan,nan,nan,nan,nan,nan,nan,nan,nan,nan,nan,nan,nan,706.2927582559641,760.0848925700411,nan,760.4043105437886,nan,nan,nan,nan
1,35,1,1,1.0,1.0,0.31784222507849336,0,nan,nan,nan,nan,nan,nan,nan,nan,nan,1,5,8,4,3,6,nan,nan,nan,nan,nan,nan,nan,nan,nan,nan,nan,nan,0.0,nan,nan,nan,nan,nan,nan,nan,nan,nan,nan,nan,nan,nan,nan,nan,nan,nan,nan,706.2927582559641,761.1183718841057,nan,761.4362141091842,nan,nan,nan,nan
1,36,1,1,1.0,1.0,0.34871287224814296,0,nan,nan,nan,nan,nan,nan,nan,nan,nan,0,7,3,8,2,1,nan,nan,nan,nan,nan,nan,nan,nan,nan,nan,nan,nan,0.0,nan,nan,nan,nan,nan,nan,nan,nan,nan,nan,nan,nan,nan,nan,nan,nan,nan,nan,706.2927582559641,762.1435014693998,nan,762.4922143416479,nan,nan,nan,nan
1,37,1,1,1.0,1.0,0.29153631650842726,0,nan,nan,nan,nan,nan,nan,nan,nan,nan,6,0,5,2,4,7,nan,nan,nan,nan,nan,nan,nan,nan,nan,nan,nan,nan,0.0,nan,nan,nan,nan,nan,nan,nan,nan,nan,nan,nan,nan,nan,nan,nan,nan,nan,nan,706.2927582559641,763.1686447393149,nan,763.4601810558233,nan,nan,nan,nan
1,38,1,1,1.0,1.0,0.26607373426668346,0,nan,nan,nan,nan,nan,nan,nan,nan,nan,4,3,2,8,1,6,nan,nan,nan,nan,nan,nan,nan,nan,nan,nan,nan,nan,0.0,nan,nan,nan,nan,nan,nan,nan,nan,nan,nan,nan,nan,nan,nan,nan,nan,nan,nan,706.2927582559641,764.2021240533795,nan,764.4681977876462,nan,nan,nan,nan
1,39,1,1,1.0,1.0,0.464561905246228,0,nan,nan,nan,nan,nan,nan,nan,nan,nan,6,8,1,7,5,4,nan,nan,nan,nan,nan,nan,nan,nan,nan,nan,nan,nan,0.0,nan,nan,nan,nan,nan,nan,nan,nan,nan,nan,nan,nan,nan,nan,nan,nan,nan,nan,706.2927582559641,765.2356304519344,nan,765.7001923571806,nan,nan,nan,nan
1,40,1,1,1.0,1.0,0.32714989059604704,0,nan,nan,nan,nan,nan,nan,nan,nan,nan,2,4,5,1,7,0,nan,nan,nan,nan,nan,nan,nan,nan,nan,nan,nan,nan,0.0,nan,nan,nan,nan,nan,nan,nan,nan,nan,nan,nan,nan,nan,nan,nan,nan,nan,nan,706.2927582559641,766.2690590182319,nan,766.596208908828,nan,nan,nan,nan
1,41,1,1,1.0,1.0,0.26960498513653874,0,nan,nan,nan,nan,nan,nan,nan,nan,nan,5,1,6,8,3,4,nan,nan,nan,nan,nan,nan,nan,nan,nan,nan,nan,nan,0.0,nan,nan,nan,nan,nan,nan,nan,nan,nan,nan,nan,nan,nan,nan,nan,nan,nan,nan,706.2927582559641,767.3025671276264,nan,767.5721721127629,nan,nan,nan,nan
1,42,1,1,1.0,1.0,0.28412456694059074,0,nan,nan,nan,nan,nan,nan,nan,nan,nan,7,3,0,2,6,8,nan,nan,nan,nan,nan,nan,nan,nan,nan,nan,nan,nan,0.0,nan,nan,nan,nan,nan,nan,nan,nan,nan,nan,nan,nan,nan,nan,nan,nan,nan,nan,706.2927582559641,768.3360444460995,nan,768.6201690130401,nan,nan,nan,nan
1,43,1,1,1.0,1.0,0.29879496712237597,0,nan,nan,nan,nan,nan,nan,nan,nan,nan,1,0,6,7,3,5,nan,nan,nan,nan,nan,nan,nan,nan,nan,nan,nan,nan,0.0,nan,nan,nan,nan,nan,nan,nan,nan,nan,nan,nan,nan,nan,nan,nan,nan,nan,nan,706.2927582559641,769.3694556211121,nan,769.6682505882345,nan,nan,nan,nan
1,44,1,1,1.0,1.0,0.26517481333576143,0,nan,nan,nan,nan,nan,nan,nan,nan,nan,8,7,3,6,5,4,nan,nan,nan,nan,nan,nan,nan,nan,nan,nan,nan,nan,0.0,nan,nan,nan,nan,nan,nan,nan,nan,nan,nan,nan,nan,nan,nan,nan,nan,nan,nan,706.2927582559641,770.4029694325291,nan,770.6681442458648,nan,nan,nan,nan
1,45,1,1,1.0,1.0,0.23973332857713103,0,nan,nan,nan,nan,nan,nan,nan,nan,nan,0,3,7,1,2,8,nan,nan,nan,nan,nan,nan,nan,nan,nan,nan,nan,nan,0.0,nan,nan,nan,nan,nan,nan,nan,nan,nan,nan,nan,nan,nan,nan,nan,nan,nan,nan,706.2927582559641,771.4364572996274,nan,771.6761906282045,nan,nan,nan,nan
1,46,0,0,0.0,1.0,0.3745172896888107,0,nan,nan,nan,nan,nan,nan,nan,nan,nan,6,7,5,0,8,2,nan,nan,nan,nan,nan,nan,nan,nan,nan,nan,nan,nan,0.0,nan,nan,nan,nan,nan,nan,nan,nan,nan,nan,nan,nan,nan,nan,nan,nan,nan,nan,706.2927582559641,772.4615808976814,nan,772.8360981873702,nan,nan,nan,nan
1,47,1,1,1.0,1.0,0.30903291469439864,0,nan,nan,nan,nan,nan,nan,nan,nan,nan,5,0,6,4,1,7,nan,nan,nan,nan,nan,nan,nan,nan,nan,nan,nan,nan,0.0,nan,nan,nan,nan,nan,nan,nan,nan,nan,nan,nan,nan,nan,nan,nan,nan,nan,nan,706.2927582559641,773.4950650583487,nan,773.8040979730431,nan,nan,nan,nan
1,48,1,1,1.0,1.0,0.24354796926490963,0,nan,nan,nan,nan,nan,nan,nan,nan,nan,0,7,4,6,8,3,nan,nan,nan,nan,nan,nan,nan,nan,nan,nan,nan,nan,0.0,nan,nan,nan,nan,nan,nan,nan,nan,nan,nan,nan,nan,nan,nan,nan,nan,nan,nan,706.2927582559641,774.5285389556084,nan,774.7720869248733,nan,nan,nan,nan
1,49,1,1,1.0,1.0,0.23403645679354668,0,nan,nan,nan,nan,nan,nan,nan,nan,nan,2,3,7,5,0,8,nan,nan,nan,nan,nan,nan,nan,nan,nan,nan,nan,nan,0.0,nan,nan,nan,nan,nan,nan,nan,nan,nan,nan,nan,nan,nan,nan,nan,nan,nan,nan,706.2927582559641,775.5620322397444,nan,775.796068696538,nan,nan,nan,nan
1,50,1,1,1.0,1.0,0.2568196675274521,1,nan,nan,nan,nan,nan,nan,nan,nan,nan,7,0,6,8,3,2,1.0,1.0,1.0,1.0,1.0,1.0,0.0,1.0,0.0,0.0,0.0,0.0,1.0,2.0,0.0,3.0,5.0,6.0,1.0,3.0,2.0,1.0,5.0,4.0,6.0,3.909588460577652,2.7654768771026284,1.7350301735568792,6.14794190437533,5.268207138869911,7.827696570195258,706.2927582559641,776.5955095582176,777.4039151098114,776.852329225745,786.2801046546083,787.280076144496,778.412394274259,786.2718016819563
1,51,0,0,1.0,0.0,0.29840409476310015,0,nan,nan,nan,nan,nan,nan,nan,nan,nan,6,5,8,4,0,7,nan,nan,nan,nan,nan,nan,nan,nan,nan,nan,nan,nan,0.0,nan,nan,nan,nan,nan,nan,nan,nan,nan,nan,nan,nan,nan,nan,nan,nan,nan,nan,706.2927582559641,787.5136510243174,nan,787.8120551190805,nan,nan,nan,nan
1,52,1,1,0.0,0.0,0.000847887946292758,0,nan,nan,nan,nan,nan,nan,nan,nan,nan,4,8,0,3,2,1,nan,nan,nan,nan,nan,nan,nan,nan,nan,nan,nan,nan,0.0,nan,nan,nan,nan,nan,nan,nan,nan,nan,nan,nan,nan,nan,nan,nan,nan,nan,nan,706.2927582559641,788.5471001178958,nan,788.547948005842,nan,nan,nan,nan
1,53,1,1,1.0,1.0,0.6633380269631743,0,nan,nan,nan,nan,nan,nan,nan,nan,nan,7,1,6,5,0,8,nan,nan,nan,nan,nan,nan,nan,nan,nan,nan,nan,nan,0.0,nan,nan,nan,nan,nan,nan,nan,nan,nan,nan,nan,nan,nan,nan,nan,nan,nan,nan,706.2927582559641,789.5805982486345,nan,790.2439362755977,nan,nan,nan,nan
1,54,1,1,1.0,1.0,0.6222496742848307,0,nan,nan,nan,nan,nan,nan,nan,nan,nan,4,0,2,1,3,7,nan,nan,nan,nan,nan,nan,nan,nan,nan,nan,nan,nan,0.0,nan,nan,nan,nan,nan,nan,nan,nan,nan,nan,nan,nan,nan,nan,nan,nan,nan,nan,706.2927582559641,790.6140738562681,nan,791.2363235305529,nan,nan,nan,nan
1,55,0,0,0.0,1.0,0.5163606163114309,0,nan,nan,nan,nan,nan,nan,nan,nan,nan,0,6,8,2,4,5,nan,nan,nan,nan,nan,nan,nan,nan,nan,nan,nan,nan,0.0,nan,nan,nan,nan,nan,nan,nan,nan,nan,nan,nan,nan,nan,nan,nan,nan,nan,nan,706.2927582559641,791.6475591575727,nan,792.1639197738841,nan,nan,nan,nan
1,56,1,1,1.0,1.0,0.5708863108884543,0,nan,nan,nan,nan,nan,nan,nan,nan,nan,4,5,3,8,2,7,nan,nan,nan,nan,nan,nan,nan,nan,nan,nan,nan,nan,0.0,nan,nan,nan,nan,nan,nan,nan,nan,nan,nan,nan,nan,nan,nan,nan,nan,nan,nan,706.2927582559641,792.6810193699785,nan,793.2519056808669,nan,nan,nan,nan
1,57,1,1,1.0,1.0,0.5213809453416616,0,nan,nan,nan,nan,nan,nan,nan,nan,nan,8,1,0,7,4,6,nan,nan,nan,nan,nan,nan,nan,nan,nan,nan,nan,nan,0.0,nan,nan,nan,nan,nan,nan,nan,nan,nan,nan,nan,nan,nan,nan,nan,nan,nan,nan,706.2927582559641,793.7145018202718,nan,794.2358827656135,nan,nan,nan,nan
1,58,1,1,1.0,1.0,0.5439252422656864,0,nan,nan,nan,nan,nan,nan,nan,nan,nan,6,4,2,8,1,0,nan,nan,nan,nan,nan,nan,nan,nan,nan,nan,nan,nan,0.0,nan,nan,nan,nan,nan,nan,nan,nan,nan,nan,nan,nan,nan,nan,nan,nan,nan,nan,706.2927582559641,794.7479569008574,nan,795.2918821431231,nan,nan,nan,nan
1,59,1,1,1.0,1.0,0.4067706731148064,0,nan,nan,nan,nan,nan,nan,nan,nan,nan,8,1,0,2,6,5,nan,nan,nan,nan,nan,nan,nan,nan,nan,nan,nan,nan,0.0,nan,nan,nan,nan,nan,nan,nan,nan,nan,nan,nan,nan,nan,nan,nan,nan,nan,nan,706.2927582559641,795.7731175618246,nan,796.1798882349394,nan,nan,nan,nan
1,60,1,1,1.0,1.0,0.405501977307722,1,nan,nan,nan,nan,nan,nan,nan,nan,nan,0,5,6,3,2,8,1.0,1.0,1.0,1.0,1.0,1.0,1.0,1.0,0.0,0.0,0.0,1.0,3.0,0.0,5.0,1.0,2.0,4.0,8.0,3.0,1.0,2.0,4.0,5.0,6.0,5.353316955268383,2.633521965239197,3.882072587031871,8.009735315805301,8.96086372807622,10.248393246671185,706.2927582559641,796.8065868974663,797.6150406310335,797.212088874774,808.9081777851097,809.9081638152711,798.6234938513953,808.8998568512034
1,61,1,1,1.0,1.0,0.38194842590019107,0,nan,nan,nan,nan,nan,nan,nan,nan,nan,7,3,8,1,4,5,nan,nan,nan,nan,nan,nan,nan,nan,nan,nan,nan,nan,0.0,nan,nan,nan,nan,nan,nan,nan,nan,nan,nan,nan,nan,nan,nan,nan,nan,nan,nan,706.2927582559641,810.1417920086533,nan,810.5237404345535,nan,nan,nan,nan
1,62,1,1,1.0,1.0,0.5244674398563802,0,nan,nan,nan,nan,nan,nan,nan,nan,nan,8,5,6,4,3,2,nan,nan,nan,nan,nan,nan,nan,nan,nan,nan,nan,nan,0.0,nan,nan,nan,nan,nan,nan,nan,nan,nan,nan,nan,nan,nan,nan,nan,nan,nan,nan,706.2927582559641,811.1752510806546,nan,811.6997185205109,nan,nan,nan,nan
1,63,1,1,1.0,1.0,0.618960473453626,0,nan,nan,nan,nan,nan,nan,nan,nan,nan,2,4,5,7,1,3,nan,nan,nan,nan,nan,nan,nan,nan,nan,nan,nan,nan,0.0,nan,nan,nan,nan,nan,nan,nan,nan,nan,nan,nan,nan,nan,nan,nan,nan,nan,nan,706.2927582559641,812.2087700236589,nan,812.8277304971125,nan,nan,nan,nan
1,64,1,1,1.0,1.0,0.5218151530716568,0,nan,nan,nan,nan,nan,nan,nan,nan,nan,1,2,7,5,0,6,nan,nan,nan,nan,nan,nan,nan,nan,nan,nan,nan,nan,0.0,nan,nan,nan,nan,nan,nan,nan,nan,nan,nan,nan,nan,nan,nan,nan,nan,nan,nan,706.2927582559641,813.242187471129,nan,813.7640026242007,nan,nan,nan,nan
1,65,1,1,1.0,1.0,0.448082544375211,0,nan,nan,nan,nan,nan,nan,nan,nan,nan,3,1,0,2,8,5,nan,nan,nan,nan,nan,nan,nan,nan,nan,nan,nan,nan,0.0,nan,nan,nan,nan,nan,nan,nan,nan,nan,nan,nan,nan,nan,nan,nan,nan,nan,nan,706.2927582559641,814.2756308626849,nan,814.7237134070601,nan,nan,nan,nan
1,66,1,1,1.0,1.0,0.43856903654523194,0,nan,nan,nan,nan,nan,nan,nan,nan,nan,7,3,2,0,6,1,nan,nan,nan,nan,nan,nan,nan,nan,nan,nan,nan,nan,0.0,nan,nan,nan,nan,nan,nan,nan,nan,nan,nan,nan,nan,nan,nan,nan,nan,nan,nan,706.2927582559641,815.3091269975994,nan,815.7476960341446,nan,nan,nan,nan
1,67,0,0,0.0,1.0,0.4374223635531962,0,nan,nan,nan,nan,nan,nan,nan,nan,nan,0,6,1,5,2,8,nan,nan,nan,nan,nan,nan,nan,nan,nan,nan,nan,nan,0.0,nan,nan,nan,nan,nan,nan,nan,nan,nan,nan,nan,nan,nan,nan,nan,nan,nan,nan,706.2927582559641,816.3342665613163,nan,816.7716889248695,nan,nan,nan,nan
1,68,1,1,1.0,1.0,0.3962635912466794,0,nan,nan,nan,nan,nan,nan,nan,nan,nan,1,2,5,7,6,4,nan,nan,nan,nan,nan,nan,nan,nan,nan,nan,nan,nan,0.0,nan,nan,nan,nan,nan,nan,nan,nan,nan,nan,nan,nan,nan,nan,nan,nan,nan,nan,706.2927582559641,817.359432924306,nan,817.7556965155527,nan,nan,nan,nan
1,69,1,1,1.0,1.0,0.3631110016722232,0,nan,nan,nan,nan,nan,nan,nan,nan,nan,5,7,0,3,1,6,nan,nan,nan,nan,nan,nan,nan,nan,nan,nan,nan,nan,0.0,nan,nan,nan,nan,nan,nan,nan,nan,nan,nan,nan,nan,nan,nan,nan,nan,nan,nan,706.2927582559641,818.3845793304499,nan,818.7476903321221,nan,nan,nan,nan
1,70,1,1,1.0,1.0,0.3539627071004361,0,nan,nan,nan,nan,nan,nan,nan,nan,nan,7,8,4,0,2,1,nan,nan,nan,nan,nan,nan,nan,nan,nan,nan,nan,nan,0.0,nan,nan,nan,nan,nan,nan,nan,nan,nan,nan,nan,nan,nan,nan,nan,nan,nan,nan,706.2927582559641,819.4096940904856,nan,819.763656797586,nan,nan,nan,nan
1,71,1,1,1.0,1.0,0.3048234102316201,0,nan,nan,nan,nan,nan,nan,nan,nan,nan,2,5,1,8,6,7,nan,nan,nan,nan,nan,nan,nan,nan,nan,nan,nan,nan,0.0,nan,nan,nan,nan,nan,nan,nan,nan,nan,nan,nan,nan,nan,nan,nan,nan,nan,nan,706.2927582559641,820.4348527558614,nan,820.739676166093,nan,nan,nan,nan
1,72,1,1,1.0,1.0,0.29567140946164727,0,nan,nan,nan,nan,nan,nan,nan,nan,nan,3,7,4,2,5,0,nan,nan,nan,nan,nan,nan,nan,nan,nan,nan,nan,nan,0.0,nan,nan,nan,nan,nan,nan,nan,nan,nan,nan,nan,nan,nan,nan,nan,nan,nan,nan,706.2927582559641,821.459990323754,nan,821.7556617332157,nan,nan,nan,nan
1,73,0,0,0.0,1.0,0.510492684552446,0,nan,nan,nan,nan,nan,nan,nan,nan,nan,4,0,7,5,1,8,nan,nan,nan,nan,nan,nan,nan,nan,nan,nan,nan,nan,0.0,nan,nan,nan,nan,nan,nan,nan,nan,nan,nan,nan,nan,nan,nan,nan,nan,nan,nan,706.2927582559641,822.4851370148826,nan,822.9956296994351,nan,nan,nan,nan
1,74,1,1,1.0,1.0,0.5573340738192201,0,nan,nan,nan,nan,nan,nan,nan,nan,nan,2,7,1,6,0,5,nan,nan,nan,nan,nan,nan,nan,nan,nan,nan,nan,nan,0.0,nan,nan,nan,nan,nan,nan,nan,nan,nan,nan,nan,nan,nan,nan,nan,nan,nan,nan,706.2927582559641,823.5102748679928,nan,824.0676089418121,nan,nan,nan,nan
1,75,1,1,1.0,1.0,0.6121172136627138,0,nan,nan,nan,nan,nan,nan,nan,nan,nan,6,5,3,8,4,1,nan,nan,nan,nan,nan,nan,nan,nan,nan,nan,nan,nan,0.0,nan,nan,nan,nan,nan,nan,nan,nan,nan,nan,nan,nan,nan,nan,nan,nan,nan,nan,706.2927582559641,824.5354477884248,nan,825.1475650020875,nan,nan,nan,nan
1,76,1,1,1.0,1.0,0.5155329706612974,0,nan,nan,nan,nan,nan,nan,nan,nan,nan,5,0,6,3,2,7,nan,nan,nan,nan,nan,nan,nan,nan,nan,nan,nan,nan,0.0,nan,nan,nan,nan,nan,nan,nan,nan,nan,nan,nan,nan,nan,nan,nan,nan,nan,nan,706.2927582559641,825.560541735962,nan,826.0760747066233,nan,nan,nan,nan
1,77,1,1,1.0,1.0,0.56186403054744,0,nan,nan,nan,nan,nan,nan,nan,nan,nan,4,3,2,7,6,0,nan,nan,nan,nan,nan,nan,nan,nan,nan,nan,nan,nan,0.0,nan,nan,nan,nan,nan,nan,nan,nan,nan,nan,nan,nan,nan,nan,nan,nan,nan,nan,706.2927582559641,826.5857240646146,nan,827.1475880951621,nan,nan,nan,nan
1,78,1,1,1.0,1.0,0.41641646763309836,0,nan,nan,nan,nan,nan,nan,nan,nan,nan,5,2,0,3,8,1,nan,nan,nan,nan,nan,nan,nan,nan,nan,nan,nan,nan,0.0,nan,nan,nan,nan,nan,nan,nan,nan,nan,nan,nan,nan,nan,nan,nan,nan,nan,nan,706.2927582559641,827.6191617541481,nan,828.0355782217812,nan,nan,nan,nan
1,79,1,1,1.0,1.0,0.287304004188627,0,nan,nan,nan,nan,nan,nan,nan,nan,nan,0,8,7,2,5,4,nan,nan,nan,nan,nan,nan,nan,nan,nan,nan,nan,nan,0.0,nan,nan,nan,nan,nan,nan,nan,nan,nan,nan,nan,nan,nan,nan,nan,nan,nan,nan,706.2927582559641,828.6442691015545,nan,828.9315731057432,nan,nan,nan,nan
1,80,1,1,1.0,1.0,0.3581052126828581,0,nan,nan,nan,nan,nan,nan,nan,nan,nan,2,5,4,6,7,8,nan,nan,nan,nan,nan,nan,nan,nan,nan,nan,nan,nan,0.0,nan,nan,nan,nan,nan,nan,nan,nan,nan,nan,nan,nan,nan,nan,nan,nan,nan,nan,706.2927582559641,829.6694465836044,nan,830.0275517962873,nan,nan,nan,nan
1,81,1,1,1.0,1.0,0.22096375818364322,0,0.0,0.0,0.0,0.392437204538146,0.14528345351433594,0.24715375102381007,0.5377206580524819,0.14528345351433594,0.2887909916850428,5,7,3,0,1,6,nan,nan,nan,nan,nan,nan,nan,nan,nan,nan,nan,nan,0.0,nan,nan,nan,nan,nan,nan,nan,nan,nan,nan,nan,nan,nan,nan,nan,nan,nan,nan,706.2927582559641,830.6945966959465,nan,830.9155604541302,nan,nan,nan,nan
1,82,1,1,1.0,1.0,0.2918502117972821,0,0.0,0.0,0.0,0.39032024841031265,0.1456201167356244,0.24470013167468826,0.535940365145937,0.1456201167356244,0.29030639422126114,2,6,1,8,4,3,nan,nan,nan,nan,nan,nan,nan,nan,nan,nan,nan,nan,0.0,nan,nan,nan,nan,nan,nan,nan,nan,nan,nan,nan,nan,nan,nan,nan,nan,nan,nan,706.2927582559641,831.7197185833938,nan,832.0115687951911,nan,nan,nan,nan
1,83,1,1,1.0,1.0,0.22665977501310408,0,0.0,0.0,0.0,0.3891193943052757,0.14513243700440695,0.24398695730086875,0.5342518313096827,0.14513243700440695,0.24649124833134314,4,7,2,6,0,8,nan,nan,nan,nan,nan,nan,nan,nan,nan,nan,nan,nan,0.0,nan,nan,nan,nan,nan,nan,nan,nan,nan,nan,nan,nan,nan,nan,nan,nan,nan,nan,706.2927582559641,832.7448609978892,nan,832.9715207729023,nan,nan,nan,nan
1,84,1,1,1.0,1.0,0.24951625615358353,0,0.0,0.0,0.0,0.38716204949452665,0.14534031226357536,0.2418217372309513,0.532502361758102,0.14534031226357536,0.2560087476546566,5,8,3,4,1,7,nan,nan,nan,nan,nan,nan,nan,nan,nan,nan,nan,nan,0.0,nan,nan,nan,nan,nan,nan,nan,nan,nan,nan,nan,nan,nan,nan,nan,nan,nan,nan,706.2927582559641,833.7700031276327,nan,834.0195193837862,nan,nan,nan,nan
1,85,1,1,1.0,1.0,0.25636208173818886,0,0.0,0.0,0.0,0.3855234090976107,0.14524186482765042,0.24028154426996026,0.5307652739252611,0.14524186482765042,0.24417937096829215,2,0,6,5,4,1,nan,nan,nan,nan,nan,nan,nan,nan,nan,nan,nan,nan,0.0,nan,nan,nan,nan,nan,nan,nan,nan,nan,nan,nan,nan,nan,nan,nan,nan,nan,nan,706.2927582559641,834.7951432615519,nan,835.05150534329,nan,nan,nan,nan
1,86,1,1,1.0,1.0,0.22321861563250422,0,0.0,0.0,0.0,0.38400386406985276,0.14505508580884677,0.238948778261006,0.5290589498786995,0.14505508580884677,0.24303231784142554,6,4,0,1,3,7,nan,nan,nan,nan,nan,nan,nan,nan,nan,nan,nan,nan,0.0,nan,nan,nan,nan,nan,nan,nan,nan,nan,nan,nan,nan,nan,nan,nan,nan,nan,nan,706.2927582559641,835.82031846256,nan,836.0435370781925,nan,nan,nan,nan
1,87,1,1,1.0,1.0,0.23813420184887946,0,0.0,0.0,0.0,0.38213426815779056,0.14523575124394775,0.2368985169138428,0.5273700194017383,0.14523575124394775,0.23923829973985752,8,5,2,4,0,6,nan,nan,nan,nan,nan,nan,nan,nan,nan,nan,nan,nan,0.0,nan,nan,nan,nan,nan,nan,nan,nan,nan,nan,nan,nan,nan,nan,nan,nan,nan,nan,706.2927582559641,836.8454172569327,nan,837.0835514587816,nan,nan,nan,nan
1,88,1,1,1.0,1.0,0.31687887152656913,0,0.0,0.0,0.0,0.3804790949818261,0.14521217492091193,0.23526692006091415,0.5256912699027381,0.14521217492091193,0.2594105630026509,4,8,7,2,6,3,nan,nan,nan,nan,nan,nan,nan,nan,nan,nan,nan,nan,0.0,nan,nan,nan,nan,nan,nan,nan,nan,nan,nan,nan,nan,nan,nan,nan,nan,nan,nan,706.2927582559641,837.8705730712973,nan,838.1874519428238,nan,nan,nan,nan
1,89,1,1,1.0,1.0,0.30748681630939245,0,0.0,0.0,0.0,0.3797563651698345,0.1445420319682043,0.2352143332016302,0.5242983971380388,0.1445420319682043,0.28749996322828036,1,5,0,4,2,6,nan,nan,nan,nan,nan,nan,nan,nan,nan,nan,nan,nan,0.0,nan,nan,nan,nan,nan,nan,nan,nan,nan,nan,nan,nan,nan,nan,nan,nan,nan,nan,706.2927582559641,838.904006769415,nan,839.2114935857244,nan,nan,nan,nan
1,90,0,0,1.0,0.0,0.2662929764483124,0,0.0,0.0,0.0,0.3789443477669082,0.14392941918999572,0.2350149285769125,0.5228737669569039,0.14392941918999572,0.29688622142809135,2,1,3,6,5,7,nan,nan,nan,nan,nan,nan,nan,nan,nan,nan,nan,nan,0.0,nan,nan,nan,nan,nan,nan,nan,nan,nan,nan,nan,nan,nan,nan,nan,nan,nan,nan,706.2927582559641,839.9291779792402,nan,840.1954709556885,nan,nan,nan,nan
1,91,1,1,0.0,0.0,0.09739877446554601,1,1.0,0.0,1.0,0.37769266586336825,0.14361385896531936,0.23407880689804889,0.5213065248286877,0.14361385896531936,0.22372618907441696,5,3,8,2,4,0,1.0,1.0,1.0,1.0,1.0,1.0,0.0,0.0,1.0,1.0,1.0,1.0,4.0,4.0,5.0,8.0,2.0,4.0,0.0,2.0,1.0,6.0,5.0,4.0,3.0,4.446442648302764,3.316721781156957,8.172526092967018,6.949294647900388,6.3406864469870925,5.366265065036714,706.2927582559641,840.9543226747774,841.7627402003855,841.0517214492429,850.9806590888184,851.9801131221466,842.7712196500506,850.9723241850734
1,92,1,1,1.0,1.0,0.5255399867892265,0,0.0,0.0,0.0,0.3746125132106449,0.14578118336060847,0.22883132985003646,0.5203936965712535,0.14578118336060847,0.29641057923436165,4,8,2,5,3,1,nan,nan,nan,nan,nan,nan,nan,nan,nan,nan,nan,nan,0.0,nan,nan,nan,nan,nan,nan,nan,nan,nan,nan,nan,nan,nan,nan,nan,nan,nan,nan,706.2927582559641,852.2058135347907,nan,852.7313535215799,nan,nan,nan,nan
1,93,0,0,0.0,1.0,0.47636020579375327,0,0.0,0.0,0.0,0.3762530292278034,0.14582887025353067,0.23042415897427274,0.5220818994813341,0.14582887025353067,0.36643298901617527,6,3,8,7,5,2,nan,nan,nan,nan,nan,nan,nan,nan,nan,nan,nan,nan,0.0,nan,nan,nan,nan,nan,nan,nan,nan,nan,nan,nan,nan,nan,nan,nan,nan,nan,nan,706.2927582559641,853.2309995698743,nan,853.707359775668,nan,nan,nan,nan
1,94,1,1,1.0,1.0,0.419167113956064,0,0.0,0.0,0.0,0.37732945048120076,0.14540973455656048,0.23191971592464028,0.5227391850377612,0.14540973455656048,0.47368910217968124,4,2,5,1,8,6,nan,nan,nan,nan,nan,nan,nan,nan,nan,nan,nan,nan,0.0,nan,nan,nan,nan,nan,nan,nan,nan,nan,nan,nan,nan,nan,nan,nan,nan,nan,nan,706.2927582559641,854.2561710646842,nan,854.6753381786402,nan,nan,nan,nan
1,95,0,0,0.0,1.0,0.41806406155228615,0,0.0,0.0,0.0,0.3777745320075291,0.14469788493242366,0.23307664707510542,0.5224724169399527,0.14469788493242366,0.4378637937673678,5,7,1,3,4,0,nan,nan,nan,nan,nan,nan,nan,nan,nan,nan,nan,nan,0.0,nan,nan,nan,nan,nan,nan,nan,nan,nan,nan,nan,nan,nan,nan,nan,nan,nan,nan,706.2927582559641,855.2812758460641,nan,855.6993399076164,nan,nan,nan,nan
1,96,1,1,1.0,1.0,0.40089989034458995,0,0.0,0.0,0.0,0.3781986323185265,0.14399302184689802,0.2342056104716285,0.5221916541654246,0.14399302184689802,0.4127103552843134,2,0,4,1,6,5,nan,nan,nan,nan,nan,nan,nan,nan,nan,nan,nan,nan,0.0,nan,nan,nan,nan,nan,nan,nan,nan,nan,nan,nan,nan,nan,nan,nan,nan,nan,nan,706.2927582559641,856.3064225371927,nan,856.7073224275373,nan,nan,nan,nan
1,97,1,1,1.0,1.0,0.41574591188691556,0,0.0,0.0,0.0,0.378435103756298,0.14325963686585655,0.23517546689044147,0.5216947406221546,0.14325963686585655,0.4115699545945972,7,6,8,3,5,1,nan,nan,nan,nan,nan,nan,nan,nan,nan,nan,nan,nan,0.0,nan,nan,nan,nan,nan,nan,nan,nan,nan,nan,nan,nan,nan,nan,nan,nan,nan,nan,706.2927582559641,857.3315663775429,nan,857.7473122894298,nan,nan,nan,nan
1,98,1,1,1.0,1.0,0.4785899743437767,0,0.0,0.0,0.0,0.3788197512627992,0.1425690936189898,0.2362506576438094,0.521388844881789,0.1425690936189898,0.4317452588584274,6,8,1,0,2,4,nan,nan,nan,nan,nan,nan,nan,nan,nan,nan,nan,nan,0.0,nan,nan,nan,nan,nan,nan,nan,nan,nan,nan,nan,nan,nan,nan,nan,nan,nan,nan,706.2927582559641,858.3567033752333,nan,858.8352933495771,nan,nan,nan,nan
1,99,1,1,1.0,1.0,0.5414317559916526,0,0.0,0.0,0.0,0.3798378147636255,0.14219379314071826,0.23764402162290724,0.5220316079043438,0.14219379314071826,0.478589214074115,3,6,5,1,0,8,nan,nan,nan,nan,nan,nan,nan,nan,nan,nan,nan,nan,0.0,nan,nan,nan,nan,nan,nan,nan,nan,nan,nan,nan,nan,nan,nan,nan,nan,nan,nan,706.2927582559641,859.3818443643395,nan,859.9232761203311,nan,nan,nan,nan
1,100,1,1,1.0,1.0,0.6362492335028946,1,0.0,1.0,1.0,0.38147007679623185,0.14239361328550484,0.239076463510727,0.5238636900817367,0.14239361328550484,0.5520903212794414,1,5,7,6,4,2,1.0,1.0,1.0,1.0,1.0,1.0,0.0,1.0,1.0,0.0,0.0,0.0,2.0,6.0,5.0,7.0,0.0,1.0,8.0,3.0,2.0,1.0,6.0,5.0,4.0,4.561371377436444,3.434114631265402,2.0898593002930284,8.319313912186772,7.215887264581397,5.656412373529747,706.2927582559641,860.4070244121831,861.215415423736,861.043273645686,870.5833488949575,871.5830310084857,862.2238766269293,870.575021118857
1,101,1,1,1.0,1.0,0.5626175503712147,0,0.0,0.0,0.0,0.3840178683632985,0.14392989487423816,0.24008797348906033,0.5279477632375367,0.14392989487423816,0.5800995132885873,3,1,4,2,6,0,nan,nan,nan,nan,nan,nan,nan,nan,nan,nan,nan,nan,0.0,nan,nan,nan,nan,nan,nan,nan,nan,nan,nan,nan,nan,nan,nan,nan,nan,nan,nan,706.2927582559641,871.8085677735507,nan,872.371185323922,nan,nan,nan,nan
1,102,1,1,1.0,1.0,0.45748486346565187,0,0.0,0.0,0.0,0.3857861820465452,0.14430315620635675,0.24148302584018844,0.5300893382529019,0.14430315620635675,0.5521172157799205,1,7,3,5,4,6,nan,nan,nan,nan,nan,nan,nan,nan,nan,nan,nan,nan,0.0,nan,nan,nan,nan,nan,nan,nan,nan,nan,nan,nan,nan,nan,nan,nan,nan,nan,nan,706.2927582559641,872.8336896609981,nan,873.2911745244637,nan,nan,nan,nan
1,103,1,1,1.0,1.0,0.392326072556898,0,0.0,0.0,0.0,0.3864891102957521,0.14376771133486282,0.2427213989608893,0.5302568216306149,0.14376771133486282,0.4708094954645882,2,1,7,4,8,0,nan,nan,nan,nan,nan,nan,nan,nan,nan,nan,nan,nan,0.0,nan,nan,nan,nan,nan,nan,nan,nan,nan,nan,nan,nan,nan,nan,nan,nan,nan,nan,706.2927582559641,873.8588357819244,nan,874.2511618544813,nan,nan,nan,nan
1,104,1,1,1.0,1.0,0.3671540073119104,0,0.0,0.0,0.0,0.38654577983226807,0.14306925240222212,0.24347652743004594,0.5296150322344901,0.14306925240222212,0.40565498111148673,1,3,8,6,0,5,nan,nan,nan,nan,nan,nan,nan,nan,nan,nan,nan,nan,0.0,nan,nan,nan,nan,nan,nan,nan,nan,nan,nan,nan,nan,nan,nan,nan,nan,nan,nan,706.2927582559641,874.883999864338,nan,875.2511538716499,nan,nan,nan,nan
1,105,1,1,1.0,1.0,0.31804692675359547,0,0.0,0.0,0.0,0.38635932048111077,0.14239233302022464,0.24396698746088613,0.5287516535013355,0.14239233302022464,0.3591756688741346,4,7,0,3,2,6,nan,nan,nan,nan,nan,nan,nan,nan,nan,nan,nan,nan,0.0,nan,nan,nan,nan,nan,nan,nan,nan,nan,nan,nan,nan,nan,nan,nan,nan,nan,nan,706.2927582559641,875.9090727146249,nan,876.2271196413785,nan,nan,nan,nan
1,106,1,1,1.0,1.0,0.30885358643718064,0,0.0,0.0,0.0,0.38570872625513447,0.14186788273044032,0.24384084352469415,0.5275766089855748,0.14186788273044032,0.3313515068342288,3,6,5,1,0,4,nan,nan,nan,nan,nan,nan,nan,nan,nan,nan,nan,nan,0.0,nan,nan,nan,nan,nan,nan,nan,nan,nan,nan,nan,nan,nan,nan,nan,nan,nan,nan,706.2927582559641,876.9342613155022,nan,877.2431149019394,nan,nan,nan,nan
1,107,1,1,1.0,1.0,0.3717130443546921,0,0.0,0.0,0.0,0.38498367776628584,0.1413924381036674,0.24359123966261845,0.5263761158699533,0.1413924381036674,0.3328711858484894,2,3,7,4,8,1,nan,nan,nan,nan,nan,nan,nan,nan,nan,nan,nan,nan,0.0,nan,nan,nan,nan,nan,nan,nan,nan,nan,nan,nan,nan,nan,nan,nan,nan,nan,nan,706.2927582559641,877.959395747399,nan,878.3311087917536,nan,nan,nan,nan
1,108,1,1,1.0,1.0,0.38654538127593696,0,0.0,0.0,0.0,0.3848596531549625,0.1407359676919183,0.24412368546304422,0.5255956208468808,0.1407359676919183,0.3557040040226032,7,5,8,6,3,0,nan,nan,nan,nan,nan,nan,nan,nan,nan,nan,nan,nan,0.0,nan,nan,nan,nan,nan,nan,nan,nan,nan,nan,nan,nan,nan,nan,nan,nan,nan,nan,706.2927582559641,878.9845455745235,nan,879.3710909557994,nan,nan,nan,nan
1,109,1,1,1.0,1.0,0.3614214980043471,0,0.0,0.0,0.0,0.38487526174867526,0.14008299007826228,0.24479227167041298,0.5249582518269376,0.14008299007826228,0.3732266412116587,3,8,7,4,5,6,nan,nan,nan,nan,nan,nan,nan,nan,nan,nan,nan,nan,0.0,nan,nan,nan,nan,nan,nan,nan,nan,nan,nan,nan,nan,nan,nan,nan,nan,nan,nan,706.2927582559641,880.0096711684018,nan,880.3710926664062,nan,nan,nan,nan
1,110,1,1,1.0,1.0,0.3928546484094113,0,0.0,0.0,0.0,0.38466008960423187,0.13945685585292888,0.24520323375130298,0.5241169454571608,0.13945685585292888,0.38027384256323177,0,2,6,8,1,7,nan,nan,nan,nan,nan,nan,nan,nan,nan,nan,nan,nan,0.0,nan,nan,nan,nan,nan,nan,nan,nan,nan,nan,nan,nan,nan,nan,nan,nan,nan,nan,706.2927582559641,881.0348227061331,nan,881.4276773545425,nan,nan,nan,nan
1,111,1,1,1.0,1.0,0.5110834122169763,0,0.0,0.0,0.0,0.38473458559336987,0.1388236925210655,0.24591089307230438,0.5235582781144353,0.1388236925210655,0.4217865195435782,2,1,4,3,5,0,nan,nan,nan,nan,nan,nan,nan,nan,nan,nan,nan,nan,0.0,nan,nan,nan,nan,nan,nan,nan,nan,nan,nan,nan,nan,nan,nan,nan,nan,nan,nan,706.2927582559641,882.0599842225201,nan,882.5710676347371,nan,nan,nan,nan
1,112,1,1,1.0,1.0,0.5579655708279461,0,0.0,0.0,0.0,0.38587286331069964,0.13871164407774533,0.2471612192329543,0.524584507388445,0.13871164407774533,0.48730121048477787,8,6,1,2,4,3,nan,nan,nan,nan,nan,nan,nan,nan,nan,nan,nan,nan,0.0,nan,nan,nan,nan,nan,nan,nan,nan,nan,nan,nan,nan,nan,nan,nan,nan,nan,nan,706.2927582559641,883.085091284709,nan,883.643056855537,nan,nan,nan,nan
1,113,1,1,1.0,1.0,0.6128177049104124,1,0.0,1.0,1.0,0.38740940534210366,0.13903666059479958,0.2483727447473041,0.5264460659369032,0.13903666059479958,0.560622229318445,0,8,4,3,6,7,1.0,1.0,1.0,1.0,1.0,1.0,1.0,0.0,0.0,0.0,1.0,0.0,2.0,0.0,4.0,5.0,4.0,6.0,1.0,3.0,2.0,1.0,6.0,5.0,4.0,4.312948195263743,3.440285909920931,2.3357108787167817,7.0236963864881545,6.296455434989184,5.255565511994064,706.2927582559641,884.1102385462727,884.9186577824876,884.7230562511832,892.9947669862304,893.9940508145373,885.9354709954932,892.9864474779461
1,114,1,1,1.0,1.0,0.7109745608177036,0,0.0,0.0,0.0,0.3894041690550975,0.1400206331200469,0.2493835359350506,0.5294248021751444,0.1400206331200469,0.627252612185354,3,5,8,1,2,6,nan,nan,nan,nan,nan,nan,nan,nan,nan,nan,nan,nan,0.0,nan,nan,nan,nan,nan,nan,nan,nan,nan,nan,nan,nan,nan,nan,nan,nan,nan,nan,706.2927582559641,894.2199721799698,nan,894.9309467407875,nan,nan,nan,nan
1,115,1,1,1.0,1.0,0.44583766581490636,0,0.0,0.0,0.0,0.3922249619652958,0.14259356157195754,0.24963140039333828,0.5348185235372533,0.14259356157195754,0.5898766438476741,1,0,2,3,7,4,nan,nan,nan,nan,nan,nan,nan,nan,nan,nan,nan,nan,0.0,nan,nan,nan,nan,nan,nan,nan,nan,nan,nan,nan,nan,nan,nan,nan,nan,nan,nan,706.2927582559641,895.245097203413,nan,895.6909348692279,nan,nan,nan,nan
1,116,1,1,1.0,1.0,0.3727242946624756,0,0.0,0.0,0.0,0.39269115939007504,0.1420594682981321,0.25063169109194294,0.5347506276882071,0.1420594682981321,0.5098455070983618,3,2,6,5,4,7,nan,nan,nan,nan,nan,nan,nan,nan,nan,nan,nan,nan,0.0,nan,nan,nan,nan,nan,nan,nan,nan,nan,nan,nan,nan,nan,nan,nan,nan,nan,nan,706.2927582559641,896.2702099678572,nan,896.6429342625197,nan,nan,nan,nan
1,117,1,1,1.0,1.0,0.29957899264991283,0,0.0,0.0,0.0,0.3925190312458716,0.14145786140377084,0.2510611698421008,0.5339768926496424,0.14145786140377084,0.3727136510424316,0,8,5,4,1,2,nan,nan,nan,nan,nan,nan,nan,nan,nan,nan,nan,nan,0.0,nan,nan,nan,nan,nan,nan,nan,nan,nan,nan,nan,nan,nan,nan,nan,nan,nan,nan,706.2927582559641,897.2953472505324,nan,897.5949262431823,nan,nan,nan,nan
1,118,1,1,1.0,1.0,0.2984152138233185,0,0.0,0.0,0.0,0.39172467194163263,0.14111163984074074,0.2506130321008919,0.5328363117823733,0.14111163984074074,0.3235728337119023,5,7,3,6,2,1,nan,nan,nan,nan,nan,nan,nan,nan,nan,nan,nan,nan,0.0,nan,nan,nan,nan,nan,nan,nan,nan,nan,nan,nan,nan,nan,nan,nan,nan,nan,nan,706.2927582559641,898.3204967926722,nan,898.6189120064955,nan,nan,nan,nan
1,119,1,1,1.0,1.0,0.24123723222874105,0,0.0,0.0,0.0,0.3909339138219859,0.14077252876544738,0.2501613850565385,0.5317064425874333,0.14077252876544738,0.2797438129006575,8,4,5,3,1,2,nan,nan,nan,nan,nan,nan,nan,nan,nan,nan,nan,nan,0.0,nan,nan,nan,nan,nan,nan,nan,nan,nan,nan,nan,nan,nan,nan,nan,nan,nan,nan,706.2927582559641,899.3456634408794,nan,899.5869006731082,nan,nan,nan,nan
1,120,1,1,1.0,1.0,0.2320789590012282,0,0.0,0.0,0.0,0.38967595851447967,0.14084425982752113,0.24883169868695854,0.5305202183420008,0.14084425982752113,0.25724380168442923,5,2,0,4,3,7,nan,nan,nan,nan,nan,nan,nan,nan,nan,nan,nan,nan,0.0,nan,nan,nan,nan,nan,nan,nan,nan,nan,nan,nan,nan,nan,nan,nan,nan,nan,nan,706.2927582559641,900.3708218212705,nan,900.6029007802717,nan,nan,nan,nan
1,121,1,1,1.0,1.0,0.27097546169534326,0,0.0,0.0,0.0,0.38836265018520255,0.14098597443364597,0.24737667575155659,0.5293486246188486,0.14098597443364597,0.24809721764177084,0,6,4,7,2,1,nan,nan,nan,nan,nan,nan,nan,nan,nan,nan,nan,nan,0.0,nan,nan,nan,nan,nan,nan,nan,nan,nan,nan,nan,nan,nan,nan,nan,nan,nan,nan,706.2927582559641,901.3959288834594,nan,901.6669043451548,nan,nan,nan,nan
1,122,1,1,1.0,1.0,0.26179466559551656,0,0.0,0.0,0.0,0.38739250813156734,0.14080381017730417,0.24658869795426316,0.5281963183088715,0.14080381017730417,0.254949695430696,4,2,6,8,7,5,nan,nan,nan,nan,nan,nan,nan,nan,nan,nan,nan,nan,0.0,nan,nan,nan,nan,nan,nan,nan,nan,nan,nan,nan,nan,nan,nan,nan,nan,nan,nan,706.2927582559641,902.4210941062775,nan,902.682888771873,nan,nan,nan,nan
1,123,1,1,1.0,1.0,0.30866656079888344,0,0.0,0.0,0.0,0.3863630176189768,0.1406820850466946,0.24568093257228218,0.5270451026656714,0.1406820850466946,0.28047889602991444,5,7,3,2,0,6,nan,nan,nan,nan,nan,nan,nan,nan,nan,nan,nan,nan,0.0,nan,nan,nan,nan,nan,nan,nan,nan,nan,nan,nan,nan,nan,nan,nan,nan,nan,nan,706.2927582559641,903.4461934706196,nan,903.7548600314185,nan,nan,nan,nan
1,124,1,1,1.0,1.0,0.3154904337134212,0,0.0,0.0,0.0,0.3857313391082443,0.14028265440750443,0.24544868470073988,0.5260139935157487,0.14028265440750443,0.2953172200359404,3,6,1,4,8,5,nan,nan,nan,nan,nan,nan,nan,nan,nan,nan,nan,nan,0.0,nan,nan,nan,nan,nan,nan,nan,nan,nan,nan,nan,nan,nan,nan,nan,nan,nan,nan,706.2927582559641,904.4713612592313,nan,904.7868516929448,nan,nan,nan,nan
1,125,1,1,1.0,1.0,0.3063070715870708,0,0.0,0.0,0.0,0.38516488019376993,0.13985702494553393,0.245307855248236,0.5250219051393039,0.13985702494553393,0.31015468869979185,2,0,3,5,7,6,nan,nan,nan,nan,nan,nan,nan,nan,nan,nan,nan,nan,0.0,nan,nan,nan,nan,nan,nan,nan,nan,nan,nan,nan,nan,nan,nan,nan,nan,nan,nan,706.2927582559641,905.4965039591771,nan,905.8028110307641,nan,nan,nan,nan
1,126,0,0,1.0,0.0,0.2412249727640301,0,0.0,0.0,0.0,0.38453401772491635,0.13947350275795822,0.24506051496695813,0.5240075204828746,0.13947350275795822,0.2876741593548407,7,1,2,4,0,5,nan,nan,nan,nan,nan,nan,nan,nan,nan,nan,nan,nan,0.0,nan,nan,nan,nan,nan,nan,nan,nan,nan,nan,nan,nan,nan,nan,nan,nan,nan,nan,706.2927582559641,906.5216520756949,nan,906.7628770484589,nan,nan,nan,nan
1,127,1,1,1.0,1.0,0.6800517400261015,0,0.0,0.0,0.0,0.3833966443522109,0.13949972216285034,0.24389692218936054,0.5228963665150612,0.13949972216285034,0.4091945947924008,2,4,0,5,1,7,nan,nan,nan,nan,nan,nan,nan,nan,nan,nan,nan,nan,0.0,nan,nan,nan,nan,nan,nan,nan,nan,nan,nan,nan,nan,nan,nan,nan,nan,nan,nan,706.2927582559641,907.5467636995018,nan,908.2268154395279,nan,nan,nan,nan
1,128,1,1,1.0,1.0,0.654948954237625,0,0.0,0.0,0.0,0.3857325112472809,0.14140167368883874,0.24433083755844218,0.5271341849361196,0.14140167368883874,0.5254085556759188,1,6,7,8,2,5,nan,nan,nan,nan,nan,nan,nan,nan,nan,nan,nan,nan,0.0,nan,nan,nan,nan,nan,nan,nan,nan,nan,nan,nan,nan,nan,nan,nan,nan,nan,nan,706.2927582559641,908.571894710185,nan,909.2268436644226,nan,nan,nan,nan
1,129,0,0,0.0,1.0,0.5817931033670902,0,0.0,0.0,0.0,0.38783576470814296,0.14282868602628973,0.24500707868185323,0.5306644507344327,0.14282868602628973,0.6389312658769389,6,8,0,7,4,2,nan,nan,nan,nan,nan,nan,nan,nan,nan,nan,nan,nan,0.0,nan,nan,nan,nan,nan,nan,nan,nan,nan,nan,nan,nan,nan,nan,nan,nan,nan,nan,706.2927582559641,909.5970499543473,nan,910.1788430577144,nan,nan,nan,nan
1,130,1,1,1.0,1.0,0.5245800544507802,1,0.0,1.0,1.0,0.389339309969065,0.14328732234929165,0.24605198761977337,0.5326266323183566,0.14328732234929165,0.5871073706851652,5,4,6,2,7,3,1.0,1.0,1.0,1.0,1.0,1.0,1.0,1.0,1.0,0.0,0.0,0.0,3.0,5.0,4.0,6.0,0.0,0.0,0.0,3.0,2.0,1.0,6.0,5.0,4.0,4.265805740142241,3.3058081462513655,1.9070884170942008,7.7680399275850505,6.840310257393867,5.62424708600156,706.2927582559641,910.6222163175698,911.4306406856049,911.1467963720206,920.2484693683218,921.2483630259521,912.439100463409,920.2402100162581
1,131,1,1,1.0,1.0,0.7129859426058829,0,0.0,0.0,0.0,0.39037962338815513,0.14322337278220937,0.24715625060594576,0.5336029961703646,0.14322337278220937,0.6064530334745845,3,5,2,8,1,4,nan,nan,nan,nan,nan,nan,nan,nan,nan,nan,nan,nan,0.0,nan,nan,nan,nan,nan,nan,nan,nan,nan,nan,nan,nan,nan,nan,nan,nan,nan,nan,706.2927582559641,921.4737084889784,nan,922.1866944315843,nan,nan,nan,nan
1,132,1,1,1.0,1.0,0.471756978193298,0,0.0,0.0,0.0,0.39284226704630576,0.1454123344736655,0.24742993257264026,0.5382546015199713,0.1454123344736655,0.5697743250833204,4,3,8,5,6,7,nan,nan,nan,nan,nan,nan,nan,nan,nan,nan,nan,nan,0.0,nan,nan,nan,nan,nan,nan,nan,nan,nan,nan,nan,nan,nan,nan,nan,nan,nan,nan,706.2927582559641,922.4989139109384,nan,922.9706708891317,nan,nan,nan,nan
1,133,1,1,1.0,1.0,0.40725505840964615,0,0.0,0.0,0.0,0.3934401057671163,0.14502199970524535,0.24841810606187095,0.5384621054723616,0.14502199970524535,0.530665993069609,0,6,1,3,2,8,nan,nan,nan,nan,nan,nan,nan,nan,nan,nan,nan,nan,0.0,nan,nan,nan,nan,nan,nan,nan,nan,nan,nan,nan,nan,nan,nan,nan,nan,nan,nan,706.2927582559641,923.5239904674236,nan,923.9312455258332,nan,nan,nan,nan
1,134,1,1,1.0,1.0,0.4454944049939513,0,0.0,0.0,0.0,0.39354397759149623,0.14448070429576038,0.24906327329573585,0.5380246818872566,0.14448070429576038,0.44150214719896513,3,0,5,4,8,2,nan,nan,nan,nan,nan,nan,nan,nan,nan,nan,nan,nan,0.0,nan,nan,nan,nan,nan,nan,nan,nan,nan,nan,nan,nan,nan,nan,nan,nan,nan,nan,706.2927582559641,924.5491323119495,nan,924.9946267169435,nan,nan,nan,nan
1,135,1,1,1.0,1.0,0.5163782925810665,0,0.0,0.0,0.0,0.39393166734823093,0.14401001045206185,0.24992165689616908,0.5379416778002928,0.14401001045206185,0.45637591866155464,4,3,2,7,1,6,nan,nan,nan,nan,nan,nan,nan,nan,nan,nan,nan,nan,0.0,nan,nan,nan,nan,nan,nan,nan,nan,nan,nan,nan,nan,nan,nan,nan,nan,nan,nan,706.2927582559641,925.5742710202467,nan,926.0906493128277,nan,nan,nan,nan
1,136,1,1,1.0,1.0,0.4273266813252121,0,0.0,0.0,0.0,0.3948386793869927,0.14385930503927466,0.250979374347718,0.5386979844262674,0.14385930503927466,0.46306645963341,1,5,0,8,2,7,nan,nan,nan,nan,nan,nan,nan,nan,nan,nan,nan,nan,0.0,nan,nan,nan,nan,nan,nan,nan,nan,nan,nan,nan,nan,nan,nan,nan,nan,nan,nan,706.2927582559641,926.5994028861169,nan,927.0267295674421,nan,nan,nan,nan
1,137,1,1,1.0,1.0,0.37011249200440943,0,0.0,0.0,0.0,0.3950775617541855,0.14335630645663472,0.2517212552975508,0.5384338682108203,0.14335630645663472,0.4379391553035627,7,1,6,2,8,3,nan,nan,nan,nan,nan,nan,nan,nan,nan,nan,nan,nan,0.0,nan,nan,nan,nan,nan,nan,nan,nan,nan,nan,nan,nan,nan,nan,nan,nan,nan,nan,706.2927582559641,927.6245415946469,nan,927.9946540866513,nan,nan,nan,nan
1,138,1,1,1.0,1.0,0.512953954283148,0,0.0,0.0,0.0,0.39489533496769075,0.14284795824962895,0.25204737671806177,0.5377432932173197,0.14284795824962895,0.43679770920425653,5,2,7,1,4,0,nan,nan,nan,nan,nan,nan,nan,nan,nan,nan,nan,nan,0.0,nan,nan,nan,nan,nan,nan,nan,nan,nan,nan,nan,nan,nan,nan,nan,nan,nan,nan,706.2927582559641,928.6496654776856,nan,929.1626194319688,nan,nan,nan,nan
1,139,1,1,1.0,1.0,0.3757797135040164,0,0.0,0.0,0.0,0.3957508322091071,0.142681252790245,0.2530695794188621,0.5384320849993521,0.142681252790245,0.4196153865971913,2,6,8,7,1,4,nan,nan,nan,nan,nan,nan,nan,nan,nan,nan,nan,nan,0.0,nan,nan,nan,nan,nan,nan,nan,nan,nan,nan,nan,nan,nan,nan,nan,nan,nan,nan,706.2927582559641,929.6748264238704,nan,930.0506061373744,nan,nan,nan,nan
1,140,1,1,1.0,1.0,0.31861798255704343,0,0.0,0.0,0.0,0.3956071550961209,0.1421771031076908,0.25343005198843005,0.5377842582038117,0.1421771031076908,0.40245055011473596,7,4,1,2,8,0,nan,nan,nan,nan,nan,nan,nan,nan,nan,nan,nan,nan,0.0,nan,nan,nan,nan,nan,nan,nan,nan,nan,nan,nan,nan,nan,nan,nan,nan,nan,nan,706.2927582559641,930.6999711194076,nan,931.0185891019646,nan,nan,nan,nan
1,141,0,0,1.0,0.0,0.3094802366103977,0,0.0,0.0,0.0,0.39505723243512747,0.14181669951744094,0.25324053291768656,0.5368739319525684,0.14181669951744094,0.3346259775571525,4,7,0,8,1,5,nan,nan,nan,nan,nan,nan,nan,nan,nan,nan,nan,nan,0.0,nan,nan,nan,nan,nan,nan,nan,nan,nan,nan,nan,nan,nan,nan,nan,nan,nan,nan,706.2927582559641,931.7251223721541,nan,932.0346026087645,nan,nan,nan,nan
1,142,1,1,1.0,1.0,0.6763887729030102,0,0.0,0.0,0.0,0.3944503033867251,0.14149526117249828,0.2529550422142268,0.5359455645592234,0.14149526117249828,0.4348289973568171,3,1,5,4,8,7,nan,nan,nan,nan,nan,nan,nan,nan,nan,nan,nan,nan,0.0,nan,nan,nan,nan,nan,nan,nan,nan,nan,nan,nan,nan,nan,nan,nan,nan,nan,nan,706.2927582559641,932.7502451147884,nan,933.4266338876914,nan,nan,nan,nan
1,143,1,1,1.0,1.0,0.5791764538735151,0,0.0,0.0,0.0,0.3964357855664173,0.14295369280065254,0.2534820927657647,0.5393894783670699,0.14295369280065254,0.5216818211289743,2,7,8,3,5,4,nan,nan,nan,nan,nan,nan,nan,nan,nan,nan,nan,nan,0.0,nan,nan,nan,nan,nan,nan,nan,nan,nan,nan,nan,nan,nan,nan,nan,nan,nan,nan,706.2927582559641,933.7753957975656,nan,934.3545722514391,nan,nan,nan,nan
1,144,1,1,1.0,1.0,0.5140376202762127,1,0.0,1.0,1.0,0.3977136923377956,0.14326459219383567,0.25444910014395994,0.5409782845316312,0.14326459219383567,0.5898676156842461,5,1,2,6,0,7,1.0,1.0,1.0,1.0,1.0,1.0,1.0,0.0,1.0,0.0,0.0,0.0,2.0,5.0,3.0,2.0,1.0,1.0,1.0,3.0,2.0,1.0,6.0,5.0,4.0,5.6057372419163585,3.511232804507017,2.1097299274988472,9.116794424830005,8.093638018006459,6.918404613621533,706.2927582559641,934.800531369634,935.6089517464861,935.3145689899102,945.7853403768968,946.7845666150097,936.6257615382783,945.77700917935
1,145,1,1,nan,nan,nan,0,0.0,0.0,0.0,0.0,0.0,0.0,0.0,0.0,0.0,8,4,0,7,1,3,nan,nan,nan,nan,nan,nan,nan,nan,nan,nan,nan,nan,0.0,nan,nan,nan,nan,nan,nan,nan,nan,nan,nan,nan,nan,nan,nan,nan,nan,nan,nan,706.2927582559641,947.010529889958,nan,nan,nan,nan,nan,nan
1,146,1,1,1.0,1.0,0.566726699238643,0,0.0,0.0,0.0,0.3985214973929235,0.14309271450484676,0.2554287828880767,0.5416142118977703,0.14309271450484676,0.5403821597574279,1,2,8,6,3,5,nan,nan,nan,nan,nan,nan,nan,nan,nan,nan,nan,nan,0.0,nan,nan,nan,nan,nan,nan,nan,nan,nan,nan,nan,nan,nan,nan,nan,nan,nan,nan,706.2927582559641,948.0356797173154,nan,948.602406416554,nan,nan,nan,nan
1,147,0,0,0.0,1.0,0.6061235526576638,0,0.0,0.0,0.0,0.39968153326772154,0.14327628140325865,0.2564052518644629,0.5429578146709801,0.14327628140325865,0.5864251259481534,6,7,5,1,8,2,nan,nan,nan,nan,nan,nan,nan,nan,nan,nan,nan,nan,0.0,nan,nan,nan,nan,nan,nan,nan,nan,nan,nan,nan,nan,nan,nan,nan,nan,nan,nan,706.2927582559641,949.0608272638638,nan,949.6669508165214,nan,nan,nan,nan
1,148,1,1,1.0,1.0,0.47643917868845165,1,0.0,1.0,1.0,0.4010955197018992,0.14379637093661848,0.2572991487652807,0.5448918906385177,0.14379637093661848,0.5497631435282528,2,6,7,5,3,1,1.0,1.0,1.0,1.0,1.0,1.0,1.0,1.0,1.0,0.0,1.0,0.0,4.0,2.0,6.0,7.0,3.0,3.0,3.0,3.0,2.0,1.0,6.0,5.0,4.0,4.7293449910357594,3.3356621267739683,1.690702227409929,8.543720825342461,7.3605393981561065,6.255843199556693,706.2927582559641,950.0859873546287,950.8944128633011,950.5624265333172,960.4873588006012,961.487225658726,951.9028680792544,960.4790395773016
1,149,1,1,1.0,1.0,0.6017059255391359,0,0.0,0.0,0.0,0.4016080615997669,0.14344018899000016,0.25816787260976676,0.5450482505897671,0.14344018899000016,0.5614228856284171,1,4,6,2,0,5,nan,nan,nan,nan,nan,nan,nan,nan,nan,nan,nan,nan,0.0,nan,nan,nan,nan,nan,nan,nan,nan,nan,nan,nan,nan,nan,nan,nan,nan,nan,nan,706.2927582559641,961.7126232951414,nan,962.3143292206805,nan,nan,nan,nan
1,150,1,1,1.0,1.0,0.5606329678557813,0,0.0,0.0,0.0,0.40296007419395186,0.14389153501132715,0.25906853918262474,0.546851609205279,0.14389153501132715,0.546259357361123,2,3,5,6,8,7,nan,nan,nan,nan,nan,nan,nan,nan,nan,nan,nan,nan,0.0,nan,nan,nan,nan,nan,nan,nan,nan,nan,nan,nan,nan,nan,nan,nan,nan,nan,nan,706.2927582559641,962.7377029878553,nan,963.2983359557111,nan,nan,nan,nan
1,151,1,1,1.0,1.0,0.3996229264885187,0,0.0,0.0,0.0,0.40401828153396413,0.14398453543624418,0.26003374609771995,0.5480028169702083,0.14398453543624418,0.5206539399611453,3,0,6,8,7,5,nan,nan,nan,nan,nan,nan,nan,nan,nan,nan,nan,nan,0.0,nan,nan,nan,nan,nan,nan,nan,nan,nan,nan,nan,nan,nan,nan,nan,nan,nan,nan,706.2927582559641,963.7628231646959,nan,964.1624460911844,nan,nan,nan,nan
1,152,1,1,1.0,1.0,0.35029318276792765,0,0.0,0.0,0.0,0.4039889791669945,0.14350423014962627,0.26048474901736823,0.5474932093166207,0.14350423014962627,0.43684969237074256,1,7,0,3,2,6,nan,nan,nan,nan,nan,nan,nan,nan,nan,nan,nan,nan,0.0,nan,nan,nan,nan,nan,nan,nan,nan,nan,nan,nan,nan,nan,nan,nan,nan,nan,nan,706.2927582559641,964.7879846810829,nan,965.1382778638508,nan,nan,nan,nan
1,153,1,1,0.0,0.0,0.3731696212198585,0,0.0,0.0,0.0,0.4036333778663384,0.14309455390346146,0.260538823962877,0.5467279317697998,0.14309455390346146,0.3743619101587683,0,3,6,5,8,4,nan,nan,nan,nan,nan,nan,nan,nan,nan,nan,nan,nan,0.0,nan,nan,nan,nan,nan,nan,nan,nan,nan,nan,nan,nan,nan,nan,nan,nan,nan,nan,706.2927582559641,965.8130911730696,nan,966.1862607942894,nan,nan,nan,nan
1,154,1,1,1.0,1.0,0.45165057317353785,0,0.0,0.0,0.0,0.4034329584147168,0.14264433341035948,0.26078862500435734,0.5460772918250762,0.14264433341035948,0.39170445905377466,6,2,8,4,1,0,nan,nan,nan,nan,nan,nan,nan,nan,nan,nan,nan,nan,0.0,nan,nan,nan,nan,nan,nan,nan,nan,nan,nan,nan,nan,nan,nan,nan,nan,nan,nan,706.2927582559641,966.8465870229993,nan,967.2982375961728,nan,nan,nan,nan
1,155,1,1,1.0,1.0,0.42655177880078554,0,0.0,0.0,0.0,0.403748106223598,0.1422304912135208,0.2615176150100772,0.5459785974371189,0.1422304912135208,0.4171239910647273,5,4,6,7,2,3,nan,nan,nan,nan,nan,nan,nan,nan,nan,nan,nan,nan,0.0,nan,nan,nan,nan,nan,nan,nan,nan,nan,nan,nan,nan,nan,nan,nan,nan,nan,nan,706.2927582559641,967.8716983618215,nan,968.2982501406223,nan,nan,nan,nan
1,156,1,1,1.0,1.0,0.42534295399673283,0,0.0,0.0,0.0,0.4038961820195538,0.1417797831312237,0.2621163988883301,0.5456759651507774,0.1417797831312237,0.4345151019903521,1,2,7,3,5,6,nan,nan,nan,nan,nan,nan,nan,nan,nan,nan,nan,nan,0.0,nan,nan,nan,nan,nan,nan,nan,nan,nan,nan,nan,nan,nan,nan,nan,nan,nan,nan,706.2927582559641,968.8968886733055,nan,969.3222316273022,nan,nan,nan,nan
1,157,1,1,1.0,1.0,0.3842067045625299,0,0.0,0.0,0.0,0.4040345482903743,0.14133211994465608,0.2627024283457182,0.5453666682350303,0.14133211994465608,0.4120338124533494,2,8,1,5,6,7,nan,nan,nan,nan,nan,nan,nan,nan,nan,nan,nan,nan,0.0,nan,nan,nan,nan,nan,nan,nan,nan,nan,nan,nan,nan,nan,nan,nan,nan,nan,nan,706.2927582559641,969.9220251007937,nan,970.3062318053562,nan,nan,nan,nan
1,158,1,1,1.0,1.0,0.4070278333965689,0,0.0,0.0,0.0,0.4039074467280163,0.1408872909020657,0.2630201558259506,0.544794737630082,0.1408872909020657,0.40552583065194386,8,0,6,2,3,4,nan,nan,nan,nan,nan,nan,nan,nan,nan,nan,nan,nan,0.0,nan,nan,nan,nan,nan,nan,nan,nan,nan,nan,nan,nan,nan,nan,nan,nan,nan,nan,706.2927582559641,970.9471854767762,nan,971.3542133101728,nan,nan,nan,nan
1,159,1,1,1.0,1.0,0.3819016693159938,0,0.0,0.0,0.0,0.4039273218023383,0.14043810790558636,0.26348921389675195,0.5443654297079247,0.14043810790558636,0.3910454024250309,6,5,3,1,8,2,nan,nan,nan,nan,nan,nan,nan,nan,nan,nan,nan,nan,0.0,nan,nan,nan,nan,nan,nan,nan,nan,nan,nan,nan,nan,nan,nan,nan,nan,nan,nan,706.2927582559641,971.9723070792388,nan,972.3542087485548,nan,nan,nan,nan
1,160,1,1,1.0,1.0,0.3728905082680285,0,0.0,0.0,0.0,0.4037879189385007,0.14000387464819739,0.26378404429030333,0.543791793586698,0.14000387464819739,0.3872733369935304,0,3,4,2,7,5,nan,nan,nan,nan,nan,nan,nan,nan,nan,nan,nan,nan,0.0,nan,nan,nan,nan,nan,nan,nan,nan,nan,nan,nan,nan,nan,nan,nan,nan,nan,nan,706.2927582559641,972.9974489235319,nan,973.3703394318,nan,nan,nan,nan
1,161,1,1,1.0,1.0,0.2756077693775296,0,0.0,0.0,0.0,0.40359359560095054,0.13958428987277172,0.2640093057281788,0.5431778854737223,0.13958428987277172,0.343466648987184,8,5,0,6,1,2,nan,nan,nan,nan,nan,nan,nan,nan,nan,nan,nan,nan,0.0,nan,nan,nan,nan,nan,nan,nan,nan,nan,nan,nan,nan,nan,nan,nan,nan,nan,nan,706.2927582559641,974.0225867766421,nan,974.2981945460197,nan,nan,nan,nan
1,162,1,1,1.0,1.0,0.3144520986825228,0,0.0,0.0,0.0,0.4027936841870542,0.13951250071896215,0.26328118346809204,0.5423061849060163,0.13951250071896215,0.32098345877602696,1,0,3,7,2,5,nan,nan,nan,nan,nan,nan,nan,nan,nan,nan,nan,nan,0.0,nan,nan,nan,nan,nan,nan,nan,nan,nan,nan,nan,nan,nan,nan,nan,nan,nan,nan,706.2927582559641,975.047730901977,nan,975.3621830006596,nan,nan,nan,nan
1,163,0,0,0.0,1.0,0.465266672661528,0,0.0,0.0,0.0,0.402244978687026,0.13925163378309274,0.2629933449039333,0.5414966124701188,0.13925163378309274,0.3517755135738601,7,1,2,5,3,4,nan,nan,nan,nan,nan,nan,nan,nan,nan,nan,nan,nan,0.0,nan,nan,nan,nan,nan,nan,nan,nan,nan,nan,nan,nan,nan,nan,nan,nan,nan,nan,706.2927582559641,976.0729095244315,nan,976.538176197093,nan,nan,nan,nan
1,164,1,1,1.0,1.0,0.44018127815797925,0,0.0,0.0,0.0,0.40263400148933776,0.13890891047574253,0.2637250910135952,0.5415429119650803,0.13890891047574253,0.40663334983401,6,5,1,2,0,8,nan,nan,nan,nan,nan,nan,nan,nan,nan,nan,nan,nan,0.0,nan,nan,nan,nan,nan,nan,nan,nan,nan,nan,nan,nan,nan,nan,nan,nan,nan,nan,706.2927582559641,977.0979755320586,nan,977.5381568102166,nan,nan,nan,nan
1,165,1,1,1.0,1.0,0.47102484107017517,0,0.0,0.0,0.0,0.40286435287994293,0.1385131870151478,0.2643511658647951,0.5413775398950907,0.1385131870151478,0.45882426396322745,2,1,4,5,7,3,nan,nan,nan,nan,nan,nan,nan,nan,nan,nan,nan,nan,0.0,nan,nan,nan,nan,nan,nan,nan,nan,nan,nan,nan,nan,nan,nan,nan,nan,nan,nan,706.2927582559641,978.1231444610748,nan,978.594169302145,nan,nan,nan,nan
1,166,1,1,0.0,0.0,0.3658351341728121,0,0.0,0.0,0.0,0.4032799656128102,0.13819215388959294,0.26508781172321727,0.5414721195024031,0.13819215388959294,0.4256804178003222,0,7,6,1,5,4,nan,nan,nan,nan,nan,nan,nan,nan,nan,nan,nan,nan,0.0,nan,nan,nan,nan,nan,nan,nan,nan,nan,nan,nan,nan,nan,nan,nan,nan,nan,nan,706.2927582559641,979.1482985648327,nan,979.5141336990055,nan,nan,nan,nan
1,167,1,1,1.0,1.0,0.6447380911558867,0,0.0,0.0,0.0,0.40305302724044656,0.13780340249091885,0.26524962474952773,0.5408564297313654,0.13780340249091885,0.493866022132958,1,5,8,7,3,0,nan,nan,nan,nan,nan,nan,nan,nan,nan,nan,nan,nan,0.0,nan,nan,nan,nan,nan,nan,nan,nan,nan,nan,nan,nan,nan,nan,nan,nan,nan,nan,706.2927582559641,980.1733999252319,nan,980.8181380163878,nan,nan,nan,nan
1,168,0,0,0.0,1.0,0.49967370298691094,0,0.0,0.0,0.0,0.4045089613604191,0.13865474847014986,0.2658542128902692,0.5431637098305689,0.13865474847014986,0.5034156427718699,4,7,1,5,0,6,nan,nan,nan,nan,nan,nan,nan,nan,nan,nan,nan,nan,0.0,nan,nan,nan,nan,nan,nan,nan,nan,nan,nan,nan,nan,nan,nan,nan,nan,nan,nan,706.2927582559641,981.19855317357,nan,981.6982268765569,nan,nan,nan,nan
1,169,1,1,1.0,1.0,0.4825386118609458,0,0.0,0.0,0.0,0.40507881011267355,0.13843382339783702,0.2666449867148365,0.5435126335105106,0.13843382339783702,0.5423168020012478,5,1,2,8,6,4,nan,nan,nan,nan,nan,nan,nan,nan,nan,nan,nan,nan,0.0,nan,nan,nan,nan,nan,nan,nan,nan,nan,nan,nan,nan,nan,nan,nan,nan,nan,nan,706.2927582559641,982.2237326512113,nan,982.7062712630723,nan,nan,nan,nan
1,170,1,1,1.0,1.0,0.37728789332322776,0,0.0,0.0,0.0,0.40553988036117516,0.13814975320944667,0.2673901271517285,0.5436896335706218,0.13814975320944667,0.4531667360570282,1,8,6,0,3,2,nan,nan,nan,nan,nan,nan,nan,nan,nan,nan,nan,nan,0.0,nan,nan,nan,nan,nan,nan,nan,nan,nan,nan,nan,nan,nan,nan,nan,nan,nan,nan,706.2927582559641,983.2488342965953,nan,983.6261221899185,nan,nan,nan,nan
1,171,1,1,1.0,1.0,0.33609975525178015,0,0.0,0.0,0.0,0.40537270884024057,0.137757461513174,0.26761524732706654,0.5431301703534146,0.137757461513174,0.3986420868119846,7,3,5,8,6,4,nan,nan,nan,nan,nan,nan,nan,nan,nan,nan,nan,nan,0.0,nan,nan,nan,nan,nan,nan,nan,nan,nan,nan,nan,nan,nan,nan,nan,nan,nan,nan,706.2927582559641,984.2739966684021,nan,984.6100964236539,nan,nan,nan,nan
1,172,0,0,0.0,1.0,0.4549312212038785,0,0.0,0.0,0.0,0.4049652208779555,0.1374538102190681,0.2675114106588874,0.5424190310970236,0.1374538102190681,0.38943962325962883,4,2,3,1,7,8,nan,nan,nan,nan,nan,nan,nan,nan,nan,nan,nan,nan,0.0,nan,nan,nan,nan,nan,nan,nan,nan,nan,nan,nan,nan,nan,nan,nan,nan,nan,nan,706.2927582559641,985.2991080069914,nan,985.7540392281953,nan,nan,nan,nan
1,173,1,1,1.0,1.0,0.42983071599155664,0,0.0,0.0,0.0,0.40525741971027085,0.13710425221112024,0.26815316749915064,0.5423616719213911,0.13710425221112024,0.4069538974824051,2,8,1,6,4,5,nan,nan,nan,nan,nan,nan,nan,nan,nan,nan,nan,nan,0.0,nan,nan,nan,nan,nan,nan,nan,nan,nan,nan,nan,nan,nan,nan,nan,nan,nan,nan,706.2927582559641,986.3242484261282,nan,986.7540791421197,nan,nan,nan,nan
1,174,1,1,1.0,1.0,0.4526535556651652,0,0.0,0.0,0.0,0.4054002877119062,0.13671787764747062,0.2686824100644356,0.5421181653593768,0.13671787764747062,0.4458051642868668,7,1,2,4,5,6,nan,nan,nan,nan,nan,nan,nan,nan,nan,nan,nan,nan,0.0,nan,nan,nan,nan,nan,nan,nan,nan,nan,nan,nan,nan,nan,nan,nan,nan,nan,nan,706.2927582559641,987.3494085168932,nan,987.8020620725583,nan,nan,nan,nan
1,175,1,1,1.0,1.0,0.37986405845731497,0,0.0,0.0,0.0,0.40567342798909267,0.136369224070504,0.26930420391858867,0.5420426520595967,0.136369224070504,0.42078277670467895,3,5,8,2,7,0,nan,nan,nan,nan,nan,nan,nan,nan,nan,nan,nan,nan,0.0,nan,nan,nan,nan,nan,nan,nan,nan,nan,nan,nan,nan,nan,nan,nan,nan,nan,nan,706.2927582559641,988.3745503614191,nan,988.7544144198764,nan,nan,nan,nan
1,176,1,1,1.0,1.0,0.39434942859224975,0,0.0,0.0,0.0,0.40552509827913996,0.13599078923319768,0.2695343090459423,0.5415158875123376,0.13599078923319768,0.40895568090490997,0,2,6,7,3,5,nan,nan,nan,nan,nan,nan,nan,nan,nan,nan,nan,nan,0.0,nan,nan,nan,nan,nan,nan,nan,nan,nan,nan,nan,nan,nan,nan,nan,nan,nan,nan,706.2927582559641,989.3996993333567,nan,989.7940487619489,nan,nan,nan,nan
1,177,1,1,1.0,1.0,0.3691936139948666,0,0.0,0.0,0.0,0.40546123730950057,0.1356043039665562,0.26985693334294436,0.5410655412760568,0.1356043039665562,0.38113570034814376,1,0,3,6,4,7,nan,nan,nan,nan,nan,nan,nan,nan,nan,nan,nan,nan,0.0,nan,nan,nan,nan,nan,nan,nan,nan,nan,nan,nan,nan,nan,nan,nan,nan,nan,nan,706.2927582559641,990.4248417480849,nan,990.7940353620797,nan,nan,nan,nan
1,178,1,1,1.0,1.0,0.3440588971134275,0,0.0,0.0,0.0,0.40525517126794014,0.13524599087634298,0.27000918039159716,0.5405011621442831,0.13524599087634298,0.369200646566848,0,6,4,8,1,5,nan,nan,nan,nan,nan,nan,nan,nan,nan,nan,nan,nan,0.0,nan,nan,nan,nan,nan,nan,nan,nan,nan,nan,nan,nan,nan,nan,nan,nan,nan,nan,706.2927582559641,991.449982737191,nan,991.7940416343044,nan,nan,nan,nan
1,179,1,1,1.0,1.0,0.44689025543630123,0,0.0,0.0,0.0,0.40490942960605025,0.13494137589511615,0.26996805371093413,0.5398508055011664,0.13494137589511615,0.3867142555148651,6,1,5,0,4,8,nan,nan,nan,nan,nan,nan,nan,nan,nan,nan,nan,nan,0.0,nan,nan,nan,nan,nan,nan,nan,nan,nan,nan,nan,nan,nan,nan,nan,nan,nan,nan,706.2927582559641,992.4751280029304,nan,992.9220182583667,nan,nan,nan,nan
1,180,1,1,1.0,1.0,0.30988336843438447,0,0.0,0.0,0.0,0.4051452769421753,0.13459837159077476,0.2705469053514005,0.5397436485329501,0.13459837159077476,0.36694417366137105,0,2,8,4,1,7,nan,nan,nan,nan,nan,nan,nan,nan,nan,nan,nan,nan,0.0,nan,nan,nan,nan,nan,nan,nan,nan,nan,nan,nan,nan,nan,nan,nan,nan,nan,nan,706.2927582559641,993.5002524561714,nan,993.8101358246058,nan,nan,nan,nan
1,181,1,1,1.0,1.0,0.26859744102694094,0,0.0,0.0,0.0,0.40461308750917085,0.13440954227650997,0.2702035452326609,0.5390226297856808,0.13440954227650997,0.34179035496587556,5,4,3,6,8,2,nan,nan,nan,nan,nan,nan,nan,nan,nan,nan,nan,nan,0.0,nan,nan,nan,nan,nan,nan,nan,nan,nan,nan,nan,nan,nan,nan,nan,nan,nan,nan,706.2927582559641,994.5253994325176,nan,994.7939968735445,nan,nan,nan,nan
1,182,1,1,1.0,1.0,0.29950116015970707,0,0.0,0.0,0.0,0.403857445028714,0.13441639412514372,0.2694410509035703,0.5382738391538577,0.13441639412514372,0.2926606565403442,4,1,7,3,0,5,nan,nan,nan,nan,nan,nan,nan,nan,nan,nan,nan,nan,0.0,nan,nan,nan,nan,nan,nan,nan,nan,nan,nan,nan,nan,nan,nan,nan,nan,nan,nan,706.2927582559641,995.550513622351,nan,995.8500147825107,nan,nan,nan,nan
1,183,0,0,1.0,0.0,0.21830092277377844,0,0.0,0.0,0.0,0.40328089096866426,0.13426756763110967,0.26901332333755457,0.537548458599774,0.13426756763110967,0.26213317465347546,7,3,5,0,6,8,nan,nan,nan,nan,nan,nan,nan,nan,nan,nan,nan,nan,0.0,nan,nan,nan,nan,nan,nan,nan,nan,nan,nan,nan,nan,nan,nan,nan,nan,nan,nan,706.2927582559641,996.5756531858351,nan,996.7939541086089,nan,nan,nan,nan
1,184,1,1,1.0,1.0,0.48917745472863317,0,0.0,0.0,0.0,0.402264517517044,0.13459458271648359,0.26766993480056045,0.5368591002335276,0.13459458271648359,0.3356598458873729,1,5,6,8,7,0,nan,nan,nan,nan,nan,nan,nan,nan,nan,nan,nan,nan,0.0,nan,nan,nan,nan,nan,nan,nan,nan,nan,nan,nan,nan,nan,nan,nan,nan,nan,nan,706.2927582559641,997.6008406463079,nan,998.0900181010365,nan,nan,nan,nan
1,185,1,1,1.0,1.0,0.6320414398796856,0,0.0,0.0,0.0,0.40273945160016744,0.13437916931184365,0.26836028228832376,0.5371186209120111,0.13437916931184365,0.4465066057940324,2,7,4,0,3,6,nan,nan,nan,nan,nan,nan,nan,nan,nan,nan,nan,nan,0.0,nan,nan,nan,nan,nan,nan,nan,nan,nan,nan,nan,nan,nan,nan,nan,nan,nan,nan,706.2927582559641,998.6259636741597,nan,999.2580051140394,nan,nan,nan,nan
1,186,1,1,1.0,1.0,0.6388892612885684,1,0.0,1.0,1.0,0.4039856580582083,0.13506970691764353,0.26891595114056477,0.5390553649758518,0.13506970691764353,0.5867027186322957,3,8,5,6,4,0,1.0,1.0,1.0,1.0,1.0,1.0,0.0,0.0,0.0,0.0,0.0,0.0,0.0,6.0,3.0,8.0,1.0,0.0,2.0,3.0,2.0,1.0,6.0,5.0,4.0,4.195738094393164,2.905983083881438,2.011217266554013,7.1143374314997345,6.4028211801778525,5.131238170200959,706.2927582559641,999.651094684843,1000.4595512694214,1000.2899839461315,1008.6189376653638,1009.6184350338299,1001.4680130428169,1008.6106030468363
1,187,1,1,1.0,1.0,0.39768652617931366,0,0.0,0.0,0.0,0.40525540726485887,0.13580083524563624,0.2694545720192226,0.5410562425104951,0.13580083524563624,0.5562057424491892,2,7,3,4,1,6,nan,nan,nan,nan,nan,nan,nan,nan,nan,nan,nan,nan,0.0,nan,nan,nan,nan,nan,nan,nan,nan,nan,nan,nan,nan,nan,nan,nan,nan,nan,nan,706.2927582559641,1009.8441876198631,nan,1010.2418741460424,nan,nan,nan,nan
1,188,1,1,1.0,1.0,0.37251702696084976,0,0.0,0.0,0.0,0.4052147143557968,0.13543641820240507,0.2697782961533918,0.5406511325582019,0.13543641820240507,0.4696976048095773,3,1,4,0,8,2,nan,nan,nan,nan,nan,nan,nan,nan,nan,nan,nan,nan,0.0,nan,nan,nan,nan,nan,nan,nan,nan,nan,nan,nan,nan,nan,nan,nan,nan,nan,nan,706.2927582559641,1010.8693129285239,nan,1011.2418299554847,nan,nan,nan,nan
1,189,1,1,1.0,1.0,0.3153270713519305,0,0.0,0.0,0.0,0.40503986041250833,0.1350948521857111,0.26994500822679723,0.5401347125982194,0.1350948521857111,0.36184354149736464,0,8,7,6,1,5,nan,nan,nan,nan,nan,nan,nan,nan,nan,nan,nan,nan,0.0,nan,nan,nan,nan,nan,nan,nan,nan,nan,nan,nan,nan,nan,nan,nan,nan,nan,nan,706.2927582559641,1011.8944986783899,nan,1012.2098257497419,nan,nan,nan,nan
1,190,1,1,1.0,1.0,0.3306440783198923,0,0.0,0.0,0.0,0.4045626647260159,0.1348930100717504,0.2696696546542655,0.5394556747977662,0.1348930100717504,0.3394960588775575,1,7,3,5,2,4,nan,nan,nan,nan,nan,nan,nan,nan,nan,nan,nan,nan,0.0,nan,nan,nan,nan,nan,nan,nan,nan,nan,nan,nan,nan,nan,nan,nan,nan,nan,nan,706.2927582559641,1012.9196105874144,nan,1013.2502546657342,nan,nan,nan,nan
1,191,1,1,1.0,1.0,0.2651118063367903,0,0.0,0.0,0.0,0.40417156109423746,0.13464250904720498,0.2695290520470325,0.5388140701414424,0.13464250904720498,0.3036943186695377,4,0,8,6,1,7,nan,nan,nan,nan,nan,nan,nan,nan,nan,nan,nan,nan,0.0,nan,nan,nan,nan,nan,nan,nan,nan,nan,nan,nan,nan,nan,nan,nan,nan,nan,nan,706.2927582559641,1013.9447857886553,nan,1014.2098975949921,nan,nan,nan,nan
1,192,1,1,1.0,1.0,0.28037065314128995,0,0.0,0.0,0.0,0.40343966764814565,0.13466414810865432,0.2687755195394913,0.5381038157568,0.13466414810865432,0.29204217926599085,3,7,6,2,5,8,nan,nan,nan,nan,nan,nan,nan,nan,nan,nan,nan,nan,0.0,nan,nan,nan,nan,nan,nan,nan,nan,nan,nan,nan,nan,nan,nan,nan,nan,nan,nan,706.2927582559641,1014.9698797361925,nan,1015.2502503893338,nan,nan,nan,nan
1,193,1,1,1.0,1.0,0.2627794018480927,0,0.0,0.0,0.0,0.4027953272580574,0.13460449945612907,0.2681908278019283,0.5373998267141864,0.13460449945612907,0.26942062044205767,8,4,3,5,1,0,nan,nan,nan,nan,nan,nan,nan,nan,nan,nan,nan,nan,0.0,nan,nan,nan,nan,nan,nan,nan,nan,nan,nan,nan,nan,nan,nan,nan,nan,nan,nan,706.2927582559641,1015.9950366909616,nan,1016.2578160928097,nan,nan,nan,nan
1,194,1,1,1.0,1.0,0.5176489839795977,0,0.0,0.0,0.0,0.40206607764654717,0.13463127241097592,0.2674348052355713,0.5366973500575231,0.13463127241097592,0.35359967965632677,1,2,0,7,3,6,nan,nan,nan,nan,nan,nan,nan,nan,nan,nan,nan,nan,0.0,nan,nan,nan,nan,nan,nan,nan,nan,nan,nan,nan,nan,nan,nan,nan,nan,nan,nan,706.2927582559641,1017.0201571530197,nan,1017.5378061369993,nan,nan,nan,nan
1,195,0,0,0.0,1.0,0.4684583693742752,0,0.0,0.0,0.0,0.4026649528088946,0.13453819409961995,0.2681267587092746,0.5372031469085146,0.13453819409961995,0.41629558506732184,0,6,3,5,7,2,nan,nan,nan,nan,nan,nan,nan,nan,nan,nan,nan,nan,0.0,nan,nan,nan,nan,nan,nan,nan,nan,nan,nan,nan,nan,nan,nan,nan,nan,nan,nan,706.2927582559641,1018.0453172437847,nan,1018.5137756131589,nan,nan,nan,nan
1,196,1,1,1.0,1.0,0.4032893148250878,0,0.0,0.0,0.0,0.40300409413139654,0.1342736841020487,0.26873041002934783,0.5372777782334452,0.1342736841020487,0.4631322227263202,6,2,1,4,5,8,nan,nan,nan,nan,nan,nan,nan,nan,nan,nan,nan,nan,0.0,nan,nan,nan,nan,nan,nan,nan,nan,nan,nan,nan,nan,nan,nan,nan,nan,nan,nan,706.2927582559641,1019.0705152531154,nan,1019.4738045679405,nan,nan,nan,nan
1,197,1,1,1.0,1.0,0.3941535644698888,0,0.0,0.0,0.0,0.4030055568016206,0.13392895161905605,0.26907660518256454,0.5369345084206767,0.13392895161905605,0.4219670828897506,7,4,6,8,3,1,nan,nan,nan,nan,nan,nan,nan,nan,nan,nan,nan,nan,0.0,nan,nan,nan,nan,nan,nan,nan,nan,nan,nan,nan,nan,nan,nan,nan,nan,nan,nan,706.2927582559641,1020.0956003626343,nan,1020.4897539271042,nan,nan,nan,nan
1,198,0,0,0.0,1.0,0.44903534930199385,0,0.0,0.0,0.0,0.4029603935754383,0.13358834793397242,0.2693720456414659,0.5365487415094107,0.13358834793397242,0.4154927428656568,1,3,7,6,0,2,nan,nan,nan,nan,nan,nan,nan,nan,nan,nan,nan,nan,0.0,nan,nan,nan,nan,nan,nan,nan,nan,nan,nan,nan,nan,nan,nan,nan,nan,nan,nan,706.2927582559641,1021.1207205394749,nan,1021.5697558887769,nan,nan,nan,nan
1,199,1,1,1.0,1.0,0.4162924487609416,0,0.0,0.0,0.0,0.40319427659943097,0.13328908469226267,0.26990519190716833,0.5364833612916936,0.13328908469226267,0.41982712084427476,4,8,1,0,6,7,nan,nan,nan,nan,nan,nan,nan,nan,nan,nan,nan,nan,0.0,nan,nan,nan,nan,nan,nan,nan,nan,nan,nan,nan,nan,nan,nan,nan,nan,nan,nan,706.2927582559641,1022.1459119913634,nan,1022.5622044401243,nan,nan,nan,nan
1,200,1,1,1.0,1.0,0.29475310165435076,0,0.0,0.0,0.0,0.40326042898408504,0.13295531213559555,0.27030511684848946,0.5362157411196806,0.13295531213559555,0.3866936332390954,6,5,3,1,7,0,nan,nan,nan,nan,nan,nan,nan,nan,nan,nan,nan,nan,0.0,nan,nan,nan,nan,nan,nan,nan,nan,nan,nan,nan,nan,nan,nan,nan,nan,nan,nan,706.2927582559641,1023.1710062241182,nan,1023.4657593257725,nan,nan,nan,nan
1,201,1,1,1.0,1.0,0.33351931371726096,0,0.0,0.0,0.0,0.4027151660326793,0.132842587355081,0.2698725786775983,0.5355577533877603,0.132842587355081,0.34818828804418445,8,2,1,5,3,7,nan,nan,nan,nan,nan,nan,nan,nan,nan,nan,nan,nan,0.0,nan,nan,nan,nan,nan,nan,nan,nan,nan,nan,nan,nan,nan,nan,nan,nan,nan,nan,706.2927582559641,1024.1961953951977,nan,1024.529714708915,nan,nan,nan,nan
1,202,1,1,1.0,1.0,0.2924269693903625,0,0.0,0.0,0.0,0.4023691867711022,0.1325999165850236,0.26976927018607866,0.5349691033561258,0.1325999165850236,0.30689979492065805,1,7,8,4,5,2,nan,nan,nan,nan,nan,nan,nan,nan,nan,nan,nan,nan,0.0,nan,nan,nan,nan,nan,nan,nan,nan,nan,nan,nan,nan,nan,nan,nan,nan,nan,nan,706.2927582559641,1025.221279364312,nan,1025.5137063337024,nan,nan,nan,nan
1,203,1,1,1.0,1.0,0.22724394500255585,0,0.0,0.0,0.0,0.40182221056522793,0.13249565337950236,0.26932655718572557,0.5343178639447304,0.13249565337950236,0.2843967427033931,8,4,6,2,7,3,nan,nan,nan,nan,nan,nan,nan,nan,nan,nan,nan,nan,0.0,nan,nan,nan,nan,nan,nan,nan,nan,nan,nan,nan,nan,nan,nan,nan,nan,nan,nan,706.2927582559641,1026.2464539953507,nan,1026.4736979403533,nan,nan,nan,nan
1,204,1,1,1.0,1.0,0.2661279032472521,1,1.0,0.0,1.0,0.4009579617258088,0.1327340343515875,0.2682239273742213,0.5336919960773963,0.1327340343515875,0.26193293921339017,4,7,5,3,0,8,1.0,1.0,1.0,1.0,1.0,1.0,1.0,1.0,0.0,0.0,0.0,1.0,3.0,4.0,7.0,6.0,6.0,6.0,8.0,1.0,2.0,4.0,5.0,6.0,3.0,1.9500390444882214,3.206074401503429,6.197478916030377,7.549563383217901,8.477428761310875,4.4771887068636715,706.2927582559641,1027.271557066124,1028.0799888467882,1027.5376849693712,1037.6062966084573,1038.6059020298999,1029.0884491947945,1037.597965696128
1,205,1,1,1.0,1.0,0.7620781976729631,0,0.0,0.0,0.0,0.4002937742456188,0.13274277906631995,0.2675509951792988,0.5330365533119388,0.13274277906631995,0.4184833486409237,7,6,0,1,4,2,nan,nan,nan,nan,nan,nan,nan,nan,nan,nan,nan,nan,0.0,nan,nan,nan,nan,nan,nan,nan,nan,nan,nan,nan,nan,nan,nan,nan,nan,nan,nan,706.2927582559641,1038.8314858367667,nan,1039.5935640344396,nan,nan,nan,nan
1,206,1,1,1.0,1.0,0.5609437271486968,0,0.0,0.0,0.0,0.4020672273016352,0.13480627669785028,0.2672609506037849,0.5368735039994854,0.13480627669785028,0.529716609356304,1,4,5,2,3,0,nan,nan,nan,nan,nan,nan,nan,nan,nan,nan,nan,nan,0.0,nan,nan,nan,nan,nan,nan,nan,nan,nan,nan,nan,nan,nan,nan,nan,nan,nan,nan,706.2927582559641,1039.856627396075,nan,1040.4175711232238,nan,nan,nan,nan
1,207,1,1,1.0,1.0,0.383799581322819,1,0.0,1.0,1.0,0.40284223461796237,0.13493188865588235,0.26791034596208,0.5377741232738447,0.13493188865588235,0.5689405020481596,6,0,3,5,8,4,1.0,1.0,1.0,1.0,1.0,1.0,0.0,1.0,0.0,0.0,0.0,0.0,1.0,4.0,0.0,5.0,8.0,2.0,6.0,3.0,2.0,1.0,6.0,5.0,4.0,3.803953142138198,2.9239181659650058,1.5809358072001487,7.339191666804254,6.027695201570168,4.618823055177927,706.2927582559641,1040.8817686703987,1041.6901650987566,1041.2655682517216,1050.0829946580343,1051.0824829032645,1042.707002830226,1050.074661464896
1,208,1,1,1.0,1.0,0.4693424648139626,0,0.0,0.0,0.0,0.4027497945534228,0.13461049257402258,0.2681393019794002,0.5373602871274454,0.13461049257402258,0.4713619244284928,8,3,5,2,4,1,nan,nan,nan,nan,nan,nan,nan,nan,nan,nan,nan,nan,0.0,nan,nan,nan,nan,nan,nan,nan,nan,nan,nan,nan,nan,nan,nan,nan,nan,nan,nan,706.2927582559641,1051.3081967157777,nan,1051.7775391805917,nan,nan,nan,nan
1,209,1,1,1.0,1.0,0.3801320525817573,0,0.0,0.0,0.0,0.40307149827448824,0.1343643113684995,0.2687071869059887,0.5374358096429878,0.1343643113684995,0.411091366239513,2,6,3,5,0,8,nan,nan,nan,nan,nan,nan,nan,nan,nan,nan,nan,nan,0.0,nan,nan,nan,nan,nan,nan,nan,nan,nan,nan,nan,nan,nan,nan,nan,nan,nan,nan,706.2927582559641,1052.3333317178767,nan,1052.7134637704585,nan,nan,nan,nan
1,210,1,1,1.0,1.0,0.33092689770273864,0,0.0,0.0,0.0,0.4029612124778886,0.1340503224138697,0.2689108900640189,0.5370115348917582,0.1340503224138697,0.3934671383661528,6,1,2,0,7,3,nan,nan,nan,nan,nan,nan,nan,nan,nan,nan,nan,nan,0.0,nan,nan,nan,nan,nan,nan,nan,nan,nan,nan,nan,nan,nan,nan,nan,nan,nan,nan,706.2927582559641,1053.3585129061248,nan,1053.6894398038276,nan,nan,nan,nan
1,211,1,1,1.0,1.0,0.28180100047029555,0,0.0,0.0,0.0,0.40261655068470603,0.13382159469844349,0.2687949559862626,0.5364381453831495,0.13382159469844349,0.33095331691826385,7,4,8,5,6,1,nan,nan,nan,nan,nan,nan,nan,nan,nan,nan,nan,nan,0.0,nan,nan,nan,nan,nan,nan,nan,nan,nan,nan,nan,nan,nan,nan,nan,nan,nan,nan,706.2927582559641,1054.3836479082238,nan,1054.665448908694,nan,nan,nan,nan
1,212,1,1,1.0,1.0,0.2886559492908418,0,0.0,0.0,0.0,0.40204123854082785,0.13376142060570823,0.2682798179351196,0.5358026591465361,0.13376142060570823,0.30046128248795867,4,0,1,7,8,3,nan,nan,nan,nan,nan,nan,nan,nan,nan,nan,nan,nan,0.0,nan,nan,nan,nan,nan,nan,nan,nan,nan,nan,nan,nan,nan,nan,nan,nan,nan,nan,706.2927582559641,1055.4087635234464,nan,1055.6974194727372,nan,nan,nan,nan
1,213,1,1,1.0,1.0,0.27150660334154963,0,0.0,0.0,0.0,0.4015038675017284,0.13367109664938184,0.2678327708523466,0.5351749641511102,0.13367109664938184,0.28065451770089567,7,2,4,3,5,6,nan,nan,nan,nan,nan,nan,nan,nan,nan,nan,nan,nan,0.0,nan,nan,nan,nan,nan,nan,nan,nan,nan,nan,nan,nan,nan,nan,nan,nan,nan,nan,706.2927582559641,1056.433905652957,nan,1056.7054122562986,nan,nan,nan,nan
1,214,1,1,1.0,1.0,0.2623725635930896,0,0.0,0.0,0.0,0.4008906728594634,0.13365259764656207,0.2672380752129013,0.5345432705060255,0.13365259764656207,0.2741783720751603,0,6,7,2,4,3,nan,nan,nan,nan,nan,nan,nan,nan,nan,nan,nan,nan,0.0,nan,nan,nan,nan,nan,nan,nan,nan,nan,nan,nan,nan,nan,nan,nan,nan,nan,nan,706.2927582559641,1057.4590181321837,nan,1057.7213906957768,nan,nan,nan,nan
1,215,1,1,1.0,1.0,0.2691955813206732,0,0.0,0.0,0.0,0.40024035309764944,0.13367427230696627,0.26656608079068317,0.5339146254046157,0.13367427230696627,0.2676915827517708,5,2,1,3,8,4,nan,nan,nan,nan,nan,nan,nan,nan,nan,nan,nan,nan,0.0,nan,nan,nan,nan,nan,nan,nan,nan,nan,nan,nan,nan,nan,nan,nan,nan,nan,nan,706.2927582559641,1058.4842078734655,nan,1058.7534034547862,nan,nan,nan,nan
1,216,1,1,1.0,1.0,0.30002688500098884,0,0.0,0.0,0.0,0.3996279943510281,0.13366070248422962,0.26596729186679846,0.5332886968352577,0.13366070248422962,0.2771983433049172,0,7,4,8,3,1,nan,nan,nan,nan,nan,nan,nan,nan,nan,nan,nan,nan,0.0,nan,nan,nan,nan,nan,nan,nan,nan,nan,nan,nan,nan,nan,nan,nan,nan,nan,nan,706.2927582559641,1059.5093522837851,nan,1059.809379168786,nan,nan,nan,nan
1,217,1,1,1.0,1.0,0.3388988689985126,0,0.0,0.0,0.0,0.39916473337730696,0.13352159454007143,0.26564313883723556,0.5326863279173784,0.13352159454007143,0.30270711177339155,1,3,8,2,6,0,nan,nan,nan,nan,nan,nan,nan,nan,nan,nan,nan,nan,0.0,nan,nan,nan,nan,nan,nan,nan,nan,nan,nan,nan,nan,nan,nan,nan,nan,nan,nan,706.2927582559641,1060.5344764520414,nan,1060.87337532104,nan,nan,nan,nan
1,218,1,1,1.0,1.0,0.2897367640398443,0,0.0,0.0,0.0,0.39888572474592365,0.13327496369149688,0.26561076105442677,0.5321606884374206,0.13327496369149688,0.3095541726797819,0,6,3,4,8,7,nan,nan,nan,nan,nan,nan,nan,nan,nan,nan,nan,nan,0.0,nan,nan,nan,nan,nan,nan,nan,nan,nan,nan,nan,nan,nan,nan,nan,nan,nan,nan,706.2927582559641,1061.5596131647471,nan,1061.849349928787,nan,nan,nan,nan
1,219,1,1,1.0,1.0,0.3449849025346339,0,0.0,0.0,0.0,0.3983827341435915,0.13317285879338822,0.26520987535020324,0.5315555929369797,0.13317285879338822,0.32454017852433026,7,1,4,6,0,2,nan,nan,nan,nan,nan,nan,nan,nan,nan,nan,nan,nan,0.0,nan,nan,nan,nan,nan,nan,nan,nan,nan,nan,nan,nan,nan,nan,nan,nan,nan,nan,706.2927582559641,1062.5847501624376,nan,1062.9297350649722,nan,nan,nan,nan
1,220,1,1,1.0,1.0,0.3194695769343525,0,0.0,0.0,0.0,0.398137789961899,0.1329160507665429,0.26522173919535613,0.531053840728442,0.1329160507665429,0.3180637478362769,5,3,8,7,2,1,nan,nan,nan,nan,nan,nan,nan,nan,nan,nan,nan,nan,0.0,nan,nan,nan,nan,nan,nan,nan,nan,nan,nan,nan,nan,nan,nan,nan,nan,nan,nan,706.2927582559641,1063.6098860197235,nan,1063.9293555966578,nan,nan,nan,nan
1,221,1,1,1.0,1.0,0.3182655987329781,0,0.0,0.0,0.0,0.39777857437729836,0.1327182602648476,0.2650603141124508,0.5304968346421459,0.1327182602648476,0.32757335940065485,1,5,2,3,7,6,nan,nan,nan,nan,nan,nan,nan,nan,nan,nan,nan,nan,0.0,nan,nan,nan,nan,nan,nan,nan,nan,nan,nan,nan,nan,nan,nan,nan,nan,nan,nan,706.2927582559641,1064.635068348609,nan,1064.953333947342,nan,nan,nan,nan
1,222,1,1,1.0,1.0,0.3256599570158869,0,0.0,0.0,0.0,0.3974171517607333,0.132524260087806,0.2648928916729273,0.5299414118485393,0.132524260087806,0.32113171089440584,8,7,3,2,4,5,nan,nan,nan,nan,nan,nan,nan,nan,nan,nan,nan,nan,0.0,nan,nan,nan,nan,nan,nan,nan,nan,nan,nan,nan,nan,nan,nan,nan,nan,nan,nan,706.2927582559641,1065.6602310054004,nan,1065.9858909624163,nan,nan,nan,nan
1,223,1,1,1.0,1.0,0.2920246929861605,0,0.0,0.0,0.0,0.39709245857184255,0.13231176826147611,0.26478069031036644,0.5294042268333187,0.13231176826147611,0.3119834162450085,6,1,4,0,5,7,nan,nan,nan,nan,nan,nan,nan,nan,nan,nan,nan,nan,0.0,nan,nan,nan,nan,nan,nan,nan,nan,nan,nan,nan,nan,nan,nan,nan,nan,nan,nan,706.2927582559641,1066.6853081320878,nan,1066.977332825074,nan,nan,nan,nan
1,224,1,1,1.0,1.0,0.29085492715239525,0,0.0,0.0,0.0,0.39661918034848365,0.13220078909697405,0.26441839125150957,0.5288199694454577,0.13220078909697405,0.3028465257181476,5,0,8,3,6,4,nan,nan,nan,nan,nan,nan,nan,nan,nan,nan,nan,nan,0.0,nan,nan,nan,nan,nan,nan,nan,nan,nan,nan,nan,nan,nan,nan,nan,nan,nan,nan,706.2927582559641,1067.710466512246,nan,1068.0013214393985,nan,nan,nan,nan
1,225,1,1,1.0,1.0,0.3217426803894341,0,0.0,0.0,0.0,0.39614490118616935,0.13209319839844524,0.2640517027877241,0.5282380995846145,0.13209319839844524,0.3015407668426633,8,1,3,0,2,6,nan,nan,nan,nan,nan,nan,nan,nan,nan,nan,nan,nan,0.0,nan,nan,nan,nan,nan,nan,nan,nan,nan,nan,nan,nan,nan,nan,nan,nan,nan,nan,706.2927582559641,1068.7355966677424,nan,1069.0573393481318,nan,nan,nan,nan
1,226,1,1,1.0,1.0,0.3046144319232553,0,0.0,0.0,0.0,0.39581274841475533,0.13189131907548965,0.26392142933926566,0.527704067490245,0.13189131907548965,0.30573734648836154,2,4,1,8,3,7,nan,nan,nan,nan,nan,nan,nan,nan,nan,nan,nan,nan,0.0,nan,nan,nan,nan,nan,nan,nan,nan,nan,nan,nan,nan,nan,nan,nan,nan,nan,nan,706.2927582559641,1069.7607302442193,nan,1070.0653446761426,nan,nan,nan,nan
1,227,1,1,1.0,1.0,0.31141578196547925,0,0.0,0.0,0.0,0.395407422563682,0.13173764936467905,0.263669773199003,0.527145071928361,0.13173764936467905,0.3125909647593896,0,5,4,7,6,3,nan,nan,nan,nan,nan,nan,nan,nan,nan,nan,nan,nan,0.0,nan,nan,nan,nan,nan,nan,nan,nan,nan,nan,nan,nan,nan,nan,nan,nan,nan,nan,706.2927582559641,1070.785858688876,nan,1071.0972744708415,nan,nan,nan,nan
1,228,1,1,1.0,1.0,0.30246107024140656,0,0.0,0.0,0.0,0.39503577813625634,0.13156402995780273,0.26347174817845365,0.526599808094059,0.13156402995780273,0.3061637613767137,4,6,0,8,1,2,nan,nan,nan,nan,nan,nan,nan,nan,nan,nan,nan,nan,0.0,nan,nan,nan,nan,nan,nan,nan,nan,nan,nan,nan,nan,nan,nan,nan,nan,nan,nan,706.2927582559641,1071.8110090864357,nan,1072.113470156677,nan,nan,nan,nan
1,229,0,0,0.0,1.0,0.3970989347435534,0,0.0,0.0,0.0,0.3946279600398032,0.13141700722876914,0.26321095281103407,0.5260449672685723,0.13141700722876914,0.33699192898347974,6,8,5,4,0,3,nan,nan,nan,nan,nan,nan,nan,nan,nan,nan,nan,nan,0.0,nan,nan,nan,nan,nan,nan,nan,nan,nan,nan,nan,nan,nan,nan,nan,nan,nan,nan,706.2927582559641,1072.8361534967553,nan,1073.2332524314988,nan,nan,nan,nan
1,230,1,1,1.0,1.0,0.3719565200153738,0,0.0,0.0,0.0,0.394638797648153,0.13112859700269153,0.2635102006454615,0.5257673946508445,0.13112859700269153,0.3571721750001113,8,4,1,5,3,0,nan,nan,nan,nan,nan,nan,nan,nan,nan,nan,nan,nan,0.0,nan,nan,nan,nan,nan,nan,nan,nan,nan,nan,nan,nan,nan,nan,nan,nan,nan,nan,706.2927582559641,1073.8612981922925,nan,1074.2332547123078,nan,nan,nan,nan
1,231,1,1,1.0,1.0,0.282805408583954,0,0.0,0.0,0.0,0.3945397484008483,0.13085052441001319,0.26368922399083516,0.5253902728108615,0.13085052441001319,0.3506202877809604,5,0,2,7,1,4,nan,nan,nan,nan,nan,nan,nan,nan,nan,nan,nan,nan,0.0,nan,nan,nan,nan,nan,nan,nan,nan,nan,nan,nan,nan,nan,nan,nan,nan,nan,nan,706.2927582559641,1074.8864411772229,nan,1075.1692465858068,nan,nan,nan,nan
1,232,1,1,1.0,1.0,0.3696432171855122,0,0.0,0.0,0.0,0.3940539469233835,0.13077255665558743,0.26328139026779607,0.524826503578971,0.13077255665558743,0.34146838192828,0,3,8,2,7,6,nan,nan,nan,nan,nan,nan,nan,nan,nan,nan,nan,nan,0.0,nan,nan,nan,nan,nan,nan,nan,nan,nan,nan,nan,nan,nan,nan,nan,nan,nan,nan,706.2927582559641,1075.9115835917182,nan,1076.2812268089037,nan,nan,nan,nan
1,233,1,1,1.0,1.0,0.44049659883603454,0,0.0,0.0,0.0,0.39394827276867417,0.1304990332885863,0.26344923948008786,0.5244473060572605,0.1304990332885863,0.36431507486850023,8,5,6,7,2,0,nan,nan,nan,nan,nan,nan,nan,nan,nan,nan,nan,nan,0.0,nan,nan,nan,nan,nan,nan,nan,nan,nan,nan,nan,nan,nan,nan,nan,nan,nan,nan,706.2927582559641,1076.9367268618662,nan,1077.3772234607022,nan,nan,nan,nan
1,234,1,1,1.0,1.0,0.3913712720386684,0,0.0,0.0,0.0,0.3941489121051714,0.1302531830548326,0.26389572905033876,0.524402095160004,0.1302531830548326,0.4005036960200717,1,6,7,0,5,4,nan,nan,nan,nan,nan,nan,nan,nan,nan,nan,nan,nan,0.0,nan,nan,nan,nan,nan,nan,nan,nan,nan,nan,nan,nan,nan,nan,nan,nan,nan,nan,706.2927582559641,1077.9618373452686,nan,1078.3532086173072,nan,nan,nan,nan
1,235,1,1,1.0,1.0,0.28624029573984444,0,0.0,0.0,0.0,0.3941369909031692,0.12997349607050515,0.2641634948326641,0.5241104869736743,0.12997349607050515,0.3727027222048491,0,4,3,8,6,5,nan,nan,nan,nan,nan,nan,nan,nan,nan,nan,nan,nan,0.0,nan,nan,nan,nan,nan,nan,nan,nan,nan,nan,nan,nan,nan,nan,nan,nan,nan,nan,706.2927582559641,1078.987029652344,nan,1079.273269948084,nan,nan,nan,nan
1,236,1,1,1.0,1.0,0.2770475253928453,0,0.0,0.0,0.0,0.3936758939152918,0.12988631619645505,0.2637895777188367,0.5235622101117469,0.12988631619645505,0.31821969772378605,2,6,8,4,7,3,nan,nan,nan,nan,nan,nan,nan,nan,nan,nan,nan,nan,0.0,nan,nan,nan,nan,nan,nan,nan,nan,nan,nan,nan,nan,nan,nan,nan,nan,nan,nan,706.2927582559641,1080.0121509695891,nan,1080.289198494982,nan,nan,nan,nan
1,237,0,0,1.0,0.0,0.2518777409568429,0,0.0,0.0,0.0,0.39317960298540905,0.12983181913951422,0.26334778384589486,0.5230114221249232,0.12983181913951422,0.2717218540298442,7,1,2,3,4,0,nan,nan,nan,nan,nan,nan,nan,nan,nan,nan,nan,nan,0.0,nan,nan,nan,nan,nan,nan,nan,nan,nan,nan,nan,nan,nan,nan,nan,nan,nan,nan,706.2927582559641,1081.0373045033775,nan,1081.2891822443344,nan,nan,nan,nan
1,238,1,1,1.0,1.0,0.49874228052794933,0,0.0,0.0,0.0,0.39258086628189814,0.1298811779326119,0.26269968834928625,0.52246204421451,0.1298811779326119,0.3425558489592125,5,6,8,2,0,3,nan,nan,nan,nan,nan,nan,nan,nan,nan,nan,nan,nan,0.0,nan,nan,nan,nan,nan,nan,nan,nan,nan,nan,nan,nan,nan,nan,nan,nan,nan,nan,706.2927582559641,1082.0624158419669,nan,1082.5611581224948,nan,nan,nan,nan
1,239,1,1,1.0,1.0,0.6181185727473348,0,0.0,0.0,0.0,0.39302880473863255,0.1297894286497811,0.26323937608885145,0.5228182333884137,0.1297894286497811,0.4562461980773757,2,3,7,5,8,0,nan,nan,nan,nan,nan,nan,nan,nan,nan,nan,nan,nan,0.0,nan,nan,nan,nan,nan,nan,nan,nan,nan,nan,nan,nan,nan,nan,nan,nan,nan,nan,706.2927582559641,1083.0875551204663,nan,1083.7056736932136,nan,nan,nan,nan
1,240,1,1,1.0,1.0,0.656485359184444,1,0.0,1.0,1.0,0.3939745600664002,0.13033227777369863,0.2636422822927016,0.5243068378400988,0.13033227777369863,0.5911154041532427,7,4,5,1,6,2,1.0,1.0,1.0,1.0,1.0,1.0,0.0,1.0,1.0,0.0,0.0,0.0,2.0,6.0,4.0,5.0,3.0,3.0,3.0,3.0,2.0,1.0,6.0,5.0,4.0,3.492945338599384,2.3579398547299206,1.5183035740628839,6.947655036812648,6.067640872905031,4.652436651522294,706.2927582559641,1084.1127140710596,1084.9211398647167,1084.769199430244,1092.9139208430424,1093.9134789379314,1085.929629863007,1092.9055454551708
1,241,1,1,1.0,1.0,0.4139577636960894,0,0.0,0.0,0.0,0.3950729316108272,0.13115852000052,0.26391441161030715,0.5262314516113472,0.13115852000052,0.5628538985426227,3,7,4,6,0,8,nan,nan,nan,nan,nan,nan,nan,nan,nan,nan,nan,nan,0.0,nan,nan,nan,nan,nan,nan,nan,nan,nan,nan,nan,nan,nan,nan,nan,nan,nan,nan,706.2927582559641,1094.139093250269,nan,1094.5530510139652,nan,nan,nan,nan
1,242,1,1,1.0,1.0,0.3568336658645421,0,0.0,0.0,0.0,0.3951516184111824,0.13089064077219806,0.2642609776389844,0.5260422591833804,0.13089064077219806,0.4757589295816918,1,0,5,2,6,4,nan,nan,nan,nan,nan,nan,nan,nan,nan,nan,nan,nan,0.0,nan,nan,nan,nan,nan,nan,nan,nan,nan,nan,nan,nan,nan,nan,nan,nan,nan,nan,706.2927582559641,1095.1642194143496,nan,1095.5210530802142,nan,nan,nan,nan
1,243,1,1,1.0,1.0,0.3236705278977752,0,0.0,0.0,0.0,0.39499262275746194,0.13064202356058444,0.26435059919687753,0.5256346463180464,0.13064202356058444,0.36482065248613554,3,1,8,5,0,7,nan,nan,nan,nan,nan,nan,nan,nan,nan,nan,nan,nan,0.0,nan,nan,nan,nan,nan,nan,nan,nan,nan,nan,nan,nan,nan,nan,nan,nan,nan,nan,706.2927582559641,1096.1893661054783,nan,1096.513036633376,nan,nan,nan,nan
1,244,1,1,1.0,1.0,0.3065134841017425,0,0.0,0.0,0.0,0.3946979033572153,0.13045208037473308,0.2642458229824822,0.5251499837319483,0.13045208037473308,0.32900589262135327,0,6,2,3,5,4,nan,nan,nan,nan,nan,nan,nan,nan,nan,nan,nan,nan,0.0,nan,nan,nan,nan,nan,nan,nan,nan,nan,nan,nan,nan,nan,nan,nan,nan,nan,nan,706.2927582559641,1097.2145068095997,nan,1097.5210202937014,nan,nan,nan,nan
1,245,1,1,1.0,1.0,0.2813707843888551,0,0.0,0.0,0.0,0.39433500451254255,0.130305731757411,0.26402927275513155,0.5246407362699536,0.130305731757411,0.3038515987961243,3,4,5,6,8,1,nan,nan,nan,nan,nan,nan,nan,nan,nan,nan,nan,nan,0.0,nan,nan,nan,nan,nan,nan,nan,nan,nan,nan,nan,nan,nan,nan,nan,nan,nan,nan,706.2927582559641,1098.2396614835598,nan,1098.5210322679486,nan,nan,nan,nan
1,246,0,0,1.0,0.0,0.2642074686009437,0,0.0,0.0,0.0,0.3938720363972815,0.1302385494526722,0.2636334869446093,0.5241105858499537,0.1302385494526722,0.28403057903051376,5,6,0,2,7,3,nan,nan,nan,nan,nan,nan,nan,nan,nan,nan,nan,nan,0.0,nan,nan,nan,nan,nan,nan,nan,nan,nan,nan,nan,nan,nan,nan,nan,nan,nan,nan,706.2927582559641,1099.2648019024637,nan,1099.5290093710646,nan,nan,nan,nan
1,247,1,1,1.0,1.0,0.5190505366772413,0,0.0,0.0,0.0,0.3933427932634189,0.13023513646027401,0.2631076568031449,0.5235779297236929,0.13023513646027401,0.3548762632223467,0,1,6,7,3,4,nan,nan,nan,nan,nan,nan,nan,nan,nan,nan,nan,nan,0.0,nan,nan,nan,nan,nan,nan,nan,nan,nan,nan,nan,nan,nan,nan,nan,nan,nan,nan,706.2927582559641,1100.2899274961092,nan,1100.8089780327864,nan,nan,nan,nan
1,248,1,1,1.0,1.0,0.4462704476900399,0,0.0,0.0,0.0,0.393853800350467,0.13021604839039574,0.2636377519600713,0.5240698487408628,0.13021604839039574,0.40984281765607494,7,5,4,6,0,8,nan,nan,nan,nan,nan,nan,nan,nan,nan,nan,nan,nan,0.0,nan,nan,nan,nan,nan,nan,nan,nan,nan,nan,nan,nan,nan,nan,nan,nan,nan,nan,706.2927582559641,1101.3150699108373,nan,1101.7613403585274,nan,nan,nan,nan
1,249,0,0,0.0,1.0,0.5250727077946067,0,0.0,0.0,0.0,0.3940660134975908,0.1299948039912306,0.2640712095063602,0.5240608174888214,0.1299948039912306,0.49679789738729596,1,2,7,5,6,0,nan,nan,nan,nan,nan,nan,nan,nan,nan,nan,nan,nan,0.0,nan,nan,nan,nan,nan,nan,nan,nan,nan,nan,nan,nan,nan,nan,nan,nan,nan,nan,706.2927582559641,1102.340214321157,nan,1102.8652870289516,nan,nan,nan,nan
1,250,1,1,1.0,1.0,0.7795990293379873,1,0.0,1.0,1.0,0.39459426629717553,0.12999782672319676,0.26459643957397877,0.5245920930203722,0.12999782672319676,0.5836473949408779,7,5,1,8,4,3,1.0,1.0,1.0,1.0,1.0,1.0,1.0,1.0,1.0,0.0,0.0,1.0,4.0,7.0,5.0,1.0,2.0,6.0,3.0,1.0,2.0,3.0,4.0,5.0,6.0,1.904884022893384,2.86362746078521,3.680970332818106,7.37508977111429,8.703352122567594,10.158751763170585,706.2927582559641,1103.3653801141772,1104.173824439291,1104.1449791435152,1115.3836359339766,1116.3835267405957,1105.182245728327,1115.3753087278455
1,251,1,1,1.0,1.0,0.46403161878697574,0,0.0,0.0,0.0,0.3961404701648093,0.1320017834854795,0.2641386866793298,0.5281422536502888,0.1320017834854795,0.5895677853065232,1,4,3,5,7,8,nan,nan,nan,nan,nan,nan,nan,nan,nan,nan,nan,nan,0.0,nan,nan,nan,nan,nan,nan,nan,nan,nan,nan,nan,nan,nan,nan,nan,nan,nan,nan,706.2927582559641,1116.6088314342778,nan,1117.0728630530648,nan,nan,nan,nan
1,252,1,1,1.0,1.0,0.39889164455235004,0,0.0,0.0,0.0,0.396412034759298,0.13180719269027008,0.2646048420690279,0.5282192274495681,0.13180719269027008,0.5475074308924377,6,8,1,0,3,4,nan,nan,nan,nan,nan,nan,nan,nan,nan,nan,nan,nan,0.0,nan,nan,nan,nan,nan,nan,nan,nan,nan,nan,nan,nan,nan,nan,nan,nan,nan,nan,706.2927582559641,1117.6339707127772,nan,1118.0328623573296,nan,nan,nan,nan
1,253,1,1,1.0,1.0,0.277673605363816,0,0.0,0.0,0.0,0.39642191368277624,0.13154445925890804,0.26487745442386823,0.5279663729416842,0.13154445925890804,0.3801989562343806,7,2,3,5,4,1,nan,nan,nan,nan,nan,nan,nan,nan,nan,nan,nan,nan,0.0,nan,nan,nan,nan,nan,nan,nan,nan,nan,nan,nan,nan,nan,nan,nan,nan,nan,nan,706.2927582559641,1118.659162734868,nan,1118.9368363402318,nan,nan,nan,nan
1,254,1,1,1.0,1.0,0.2845239923335612,0,0.0,0.0,0.0,0.3959506902370661,0.13149529744342153,0.26445539279364455,0.5274459876804876,0.13149529744342153,0.3203630807499091,6,0,1,3,2,4,nan,nan,nan,nan,nan,nan,nan,nan,nan,nan,nan,nan,0.0,nan,nan,nan,nan,nan,nan,nan,nan,nan,nan,nan,nan,nan,nan,nan,nan,nan,nan,706.2927582559641,1119.6842797757126,nan,1119.9688037680462,nan,nan,nan,nan
1,255,1,1,1.0,1.0,0.2914279783144593,0,0.0,0.0,0.0,0.39551026850622223,0.1314212695559494,0.2640889989502728,0.5269315380621716,0.1314212695559494,0.28454185867061216,0,4,3,5,8,7,nan,nan,nan,nan,nan,nan,nan,nan,nan,nan,nan,nan,0.0,nan,nan,nan,nan,nan,nan,nan,nan,nan,nan,nan,nan,nan,nan,nan,nan,nan,nan,706.2927582559641,1120.7094028035644,nan,1121.000830781879,nan,nan,nan,nan
1,256,0,0,0.0,1.0,0.4102825371082872,0,0.0,0.0,0.0,0.3951004957101916,0.13132415634724182,0.2637763393629498,0.5264246520574334,0.13132415634724182,0.32874483591876924,1,5,7,4,3,6,nan,nan,nan,nan,nan,nan,nan,nan,nan,nan,nan,nan,0.0,nan,nan,nan,nan,nan,nan,nan,nan,nan,nan,nan,nan,nan,nan,nan,nan,nan,nan,706.2927582559641,1121.7345463586971,nan,1122.1448288958054,nan,nan,nan,nan
1,257,1,1,1.0,1.0,0.32114282972179353,0,0.0,0.0,0.0,0.3951600331274391,0.13106983973860536,0.2640901933888337,0.5262298728660444,0.13106983973860536,0.34095111504818004,3,2,8,0,6,7,nan,nan,nan,nan,nan,nan,nan,nan,nan,nan,nan,nan,0.0,nan,nan,nan,nan,nan,nan,nan,nan,nan,nan,nan,nan,nan,nan,nan,nan,nan,nan,706.2927582559641,1122.7596810755786,nan,1123.0808239053003,nan,nan,nan,nan
1,258,1,1,1.0,1.0,0.35996207036077976,0,0.0,0.0,0.0,0.3948709034266358,0.1308950465567136,0.2639758568699222,0.5257659499833494,0.1308950465567136,0.3637958123969535,5,7,6,1,4,3,nan,nan,nan,nan,nan,nan,nan,nan,nan,nan,nan,nan,0.0,nan,nan,nan,nan,nan,nan,nan,nan,nan,nan,nan,nan,nan,nan,nan,nan,nan,nan,706.2927582559641,1123.7848508597817,nan,1124.1448129301425,nan,nan,nan,nan
1,259,1,1,1.0,1.0,0.3108019612263888,0,0.0,0.0,0.0,0.39473507139136005,0.13065821495030067,0.2640768564410594,0.5253932863416607,0.13065821495030067,0.3306356204363207,6,5,8,4,1,0,nan,nan,nan,nan,nan,nan,nan,nan,nan,nan,nan,nan,0.0,nan,nan,nan,nan,nan,nan,nan,nan,nan,nan,nan,nan,nan,nan,nan,nan,nan,nan,706.2927582559641,1124.8099639092106,nan,1125.120765870437,nan,nan,nan,nan
1,260,1,1,1.0,1.0,0.27765051228925586,0,0.0,0.0,0.0,0.3944097492589377,0.13050900246832187,0.2639007467906158,0.5249187517272595,0.13050900246832187,0.3161381812921415,0,1,2,6,4,7,nan,nan,nan,nan,nan,nan,nan,nan,nan,nan,nan,nan,0.0,nan,nan,nan,nan,nan,nan,nan,nan,nan,nan,nan,nan,nan,nan,nan,nan,nan,nan,706.2927582559641,1125.835112310946,nan,1126.1127628232352,nan,nan,nan,nan
1,261,1,1,1.0,1.0,0.28450260986573994,0,0.0,0.0,0.0,0.3939589413941899,0.1304579225135491,0.2635010188806408,0.524416863907739,0.1304579225135491,0.29098502779379487,2,3,0,5,7,1,nan,nan,nan,nan,nan,nan,nan,nan,nan,nan,nan,nan,0.0,nan,nan,nan,nan,nan,nan,nan,nan,nan,nan,nan,nan,nan,nan,nan,nan,nan,nan,706.2927582559641,1126.8602478832472,nan,1127.144750493113,nan,nan,nan,nan
1,262,1,1,1.0,1.0,0.32335463678464293,0,0.0,0.0,0.0,0.39353795550369586,0.13038294811671006,0.26315500738698583,0.5239209036204059,0.13038294811671006,0.29516925297987956,6,2,5,1,3,8,nan,nan,nan,nan,nan,nan,nan,nan,nan,nan,nan,nan,0.0,nan,nan,nan,nan,nan,nan,nan,nan,nan,nan,nan,nan,nan,nan,nan,nan,nan,nan,706.2927582559641,1127.8853885873687,nan,1128.2087432241533,nan,nan,nan,nan
1,263,1,1,1.0,1.0,0.27420108509249985,0,0.0,0.0,0.0,0.3932690538994083,0.1302051468180816,0.2630639070813267,0.52347420071749,0.1302051468180816,0.29401944391429424,3,6,7,8,4,5,nan,nan,nan,nan,nan,nan,nan,nan,nan,nan,nan,nan,0.0,nan,nan,nan,nan,nan,nan,nan,nan,nan,nan,nan,nan,nan,nan,nan,nan,nan,nan,706.2927582559641,1128.9105295764748,nan,1129.1847306615673,nan,nan,nan,nan
1,264,1,1,1.0,1.0,0.27305555273778737,0,0.0,0.0,0.0,0.39281459600319873,0.13016365677988753,0.2626509392233112,0.5229782527830863,0.13016365677988753,0.29020375820497674,2,0,5,3,1,6,nan,nan,nan,nan,nan,nan,nan,nan,nan,nan,nan,nan,0.0,nan,nan,nan,nan,nan,nan,nan,nan,nan,nan,nan,nan,nan,nan,nan,nan,nan,nan,706.2927582559641,1129.935668284772,nan,1130.2087238375098,nan,nan,nan,nan
1,265,1,1,1.0,1.0,0.2718835056293756,0,0.0,0.0,0.0,0.3923592384242428,0.1301248743970303,0.2622343640272125,0.5224841128212732,0.1301248743970303,0.27304671448655427,0,7,2,1,8,4,nan,nan,nan,nan,nan,nan,nan,nan,nan,nan,nan,nan,0.0,nan,nan,nan,nan,nan,nan,nan,nan,nan,nan,nan,nan,nan,nan,nan,nan,nan,nan,706.2927582559641,1130.9608283757698,nan,1131.2327118813992,nan,nan,nan,nan
1,266,1,1,1.0,1.0,0.24698656238615513,0,0.0,0.0,0.0,0.39190289095153497,0.1300888745706874,0.26181401638084756,0.5219917655222224,0.1300888745706874,0.2639752069177727,1,8,6,3,7,5,nan,nan,nan,nan,nan,nan,nan,nan,nan,nan,nan,nan,0.0,nan,nan,nan,nan,nan,nan,nan,nan,nan,nan,nan,nan,nan,nan,nan,nan,nan,nan,706.2927582559641,1131.9859613820445,nan,1132.2329479444306,nan,nan,nan,nan
1,267,1,1,1.0,1.0,0.21359049738384783,1,1.0,0.0,1.0,0.3913560368814769,0.1301468536284451,0.2612091832530318,0.521502890509922,0.1301468536284451,0.24415352179979286,4,2,7,8,0,3,1.0,1.0,1.0,1.0,1.0,1.0,1.0,0.0,0.0,0.0,0.0,0.0,1.0,4.0,5.0,0.0,6.0,2.0,1.0,1.0,3.0,4.0,5.0,6.0,2.0,2.441979974973947,4.466065523447469,6.016836876049638,7.265144307631999,8.393137752544135,3.442440981976688,706.2927582559641,1133.011099805357,1133.8195207524113,1133.2246903027408,1143.2624609449413,1144.261832013959,1134.8280010572635,1143.254157402087
1,268,1,1,1.0,1.0,0.5049241075757891,0,0.0,0.0,0.0,0.39068774537960616,0.1303567360684594,0.2603310093111467,0.5210444814480656,0.1303567360684594,0.32183372244859737,0,4,1,7,5,8,nan,nan,nan,nan,nan,nan,nan,nan,nan,nan,nan,nan,0.0,nan,nan,nan,nan,nan,nan,nan,nan,nan,nan,nan,nan,nan,nan,nan,nan,nan,nan,706.2927582559641,1144.4876678492874,nan,1144.9925919568632,nan,nan,nan,nan
1,269,1,1,1.0,1.0,0.39976062974892557,0,0.0,0.0,0.0,0.3911155969234121,0.13029937852953888,0.2608162183938732,0.5214149754529509,0.13029937852953888,0.37275841156952083,6,7,8,1,2,3,nan,nan,nan,nan,nan,nan,nan,nan,nan,nan,nan,nan,0.0,nan,nan,nan,nan,nan,nan,nan,nan,nan,nan,nan,nan,nan,nan,nan,nan,nan,nan,706.2927582559641,1145.5127937281504,nan,1145.9125543578994,nan,nan,nan,nan
1,270,1,1,1.0,1.0,0.3666174488607794,0,0.0,0.0,0.0,0.3911478545085819,0.1300571235831947,0.2610907309253872,0.5212049780917767,0.1300571235831947,0.42376739539516467,8,2,3,4,0,5,nan,nan,nan,nan,nan,nan,nan,nan,nan,nan,nan,nan,0.0,nan,nan,nan,nan,nan,nan,nan,nan,nan,nan,nan,nan,nan,nan,nan,nan,nan,nan,706.2927582559641,1146.5379438404925,nan,1146.9045612893533,nan,nan,nan,nan
1,271,1,1,1.0,1.0,0.36600818973965943,0,0.0,0.0,0.0,0.39105666340951944,0.12982374024131008,0.26123292316820934,0.5208804036508295,0.12982374024131008,0.37746208944978815,0,7,4,1,6,3,nan,nan,nan,nan,nan,nan,nan,nan,nan,nan,nan,nan,0.0,nan,nan,nan,nan,nan,nan,nan,nan,nan,nan,nan,nan,nan,nan,nan,nan,nan,nan,706.2927582559641,1147.563097374048,nan,1147.9291055637877,nan,nan,nan,nan
1,272,0,0,0.0,1.0,0.3643169754650444,0,0.0,0.0,0.0,0.39096389128481623,0.12959203581879952,0.2613718554660167,0.5205559271036158,0.12959203581879952,0.36564753802182776,4,0,1,7,3,5,nan,nan,nan,nan,nan,nan,nan,nan,nan,nan,nan,nan,0.0,nan,nan,nan,nan,nan,nan,nan,nan,nan,nan,nan,nan,nan,nan,nan,nan,nan,nan,706.2927582559641,1148.5882340867538,nan,1148.9525510622188,nan,nan,nan,nan
1,273,1,1,1.0,1.0,0.33952380856499076,0,0.0,0.0,0.0,0.39086556318216026,0.1293628052683701,0.2615027579137902,0.5202283684505303,0.1293628052683701,0.35661632458989817,5,8,2,3,0,6,nan,nan,nan,nan,nan,nan,nan,nan,nan,nan,nan,nan,0.0,nan,nan,nan,nan,nan,nan,nan,nan,nan,nan,nan,nan,nan,nan,nan,nan,nan,nan,706.2927582559641,1149.6133317404892,nan,1149.9528555490542,nan,nan,nan,nan
1,274,1,1,1.0,1.0,0.38601566501893103,0,0.0,0.0,0.0,0.39067680673136185,0.12916216970472422,0.26151463702663763,0.519838976436086,0.12916216970472422,0.3632854830163221,6,4,1,7,8,3,nan,nan,nan,nan,nan,nan,nan,nan,nan,nan,nan,nan,0.0,nan,nan,nan,nan,nan,nan,nan,nan,nan,nan,nan,nan,nan,nan,nan,nan,nan,nan,706.2927582559641,1150.6385134991724,nan,1151.0245291641913,nan,nan,nan,nan
