block,trial,freq_trials,correct_response,actual_response,acc,rts,probe_trials,trials_colorind0,trials_colorind1,trials_colorind2,trials_colorind3,trials_colorind4,trials_colorind5,wholereport_resp0,wholereport_resp1,wholereport_resp2,wholereport_resp3,wholereport_resp4,wholereport_resp5,wholereport_respacc0,wholereport_respacc1,wholereport_respacc2,wholereport_respacc3,wholereport_respacc4,wholereport_respacc5,wholereport_respacc_total,wholereport_respcolorind0,wholereport_respcolorind1,wholereport_respcolorind2,wholereport_respcolorind3,wholereport_respcolorind4,wholereport_respcolorind5,wholereport_resporder0,wholereport_resporder1,wholereport_resporder2,wholereport_resporder3,wholereport_resporder4,wholereport_resporder5,wholereport_rts0,wholereport_rts1,wholereport_rts2,wholereport_rts3,wholereport_rts4,wholereport_rts5,time_blockstart,time_encarray_offset,time_encarray_onset,time_response,time_iti_offset,time_iti_onset,time_memprobe_offset,time_memprobe_onset
1,1,1,1,1.0,1.0,0.3734566044877283,0.0,8,2,3,4,7,5,nan,nan,nan,nan,nan,nan,nan,nan,nan,nan,nan,nan,0.0,nan,nan,nan,nan,nan,nan,nan,nan,nan,nan,nan,nan,nan,nan,nan,nan,nan,nan,168.44519525708165,169.47170364297926,nan,169.845160247467,nan,nan,nan,nan
1,2,0,0,0.0,1.0,0.4849653909332119,0.0,6,5,3,7,1,2,nan,nan,nan,nan,nan,nan,nan,nan,nan,nan,nan,nan,0.0,nan,nan,nan,nan,nan,nan,nan,nan,nan,nan,nan,nan,nan,nan,nan,nan,nan,nan,168.44519525708165,170.4802393768914,nan,170.96520476782462,nan,nan,nan,nan
1,3,1,1,1.0,1.0,0.39648113370640203,0.0,8,7,5,1,4,3,nan,nan,nan,nan,nan,nan,nan,nan,nan,nan,nan,nan,0.0,nan,nan,nan,nan,nan,nan,nan,nan,nan,nan,nan,nan,nan,nan,nan,nan,nan,nan,168.44519525708165,171.48864197160583,nan,171.88512310531223,nan,nan,nan,nan
1,4,1,1,1.0,1.0,0.35599826322868466,0.0,3,5,8,7,6,4,nan,nan,nan,nan,nan,nan,nan,nan,nan,nan,nan,nan,0.0,nan,nan,nan,nan,nan,nan,nan,nan,nan,nan,nan,nan,nan,nan,nan,nan,nan,nan,168.44519525708165,172.4970990193542,nan,172.8530972825829,nan,nan,nan,nan
1,5,1,1,1.0,1.0,0.33151747047668323,0.0,5,0,1,2,4,8,nan,nan,nan,nan,nan,nan,nan,nan,nan,nan,nan,nan,0.0,nan,nan,nan,nan,nan,nan,nan,nan,nan,nan,nan,nan,nan,nan,nan,nan,nan,nan,168.44519525708165,173.5055483696051,nan,173.83706584008178,nan,nan,nan,nan
1,6,1,1,1.0,1.0,0.37900996318785474,0.0,4,6,5,7,1,3,nan,nan,nan,nan,nan,nan,nan,nan,nan,nan,nan,nan,0.0,nan,nan,nan,nan,nan,nan,nan,nan,nan,nan,nan,nan,nan,nan,nan,nan,nan,nan,168.44519525708165,174.5140171062667,nan,174.89302706945455,nan,nan,nan,nan
1,7,1,1,1.0,1.0,0.40253226773347706,0.0,0,7,6,4,3,2,nan,nan,nan,nan,nan,nan,nan,nan,nan,nan,nan,nan,0.0,nan,nan,nan,nan,nan,nan,nan,nan,nan,nan,nan,nan,nan,nan,nan,nan,nan,nan,168.44519525708165,175.52247985592112,nan,175.9250121236546,nan,nan,nan,nan
1,8,1,1,1.0,1.0,0.39402675384189934,0.0,3,1,8,5,4,7,nan,nan,nan,nan,nan,nan,nan,nan,nan,nan,nan,nan,0.0,nan,nan,nan,nan,nan,nan,nan,nan,nan,nan,nan,nan,nan,nan,nan,nan,nan,nan,168.44519525708165,176.5309357633232,nan,176.9249625171651,nan,nan,nan,nan
1,9,1,1,1.0,1.0,0.3375361036742106,0.0,6,3,0,8,2,5,nan,nan,nan,nan,nan,nan,nan,nan,nan,nan,nan,nan,0.0,nan,nan,nan,nan,nan,nan,nan,nan,nan,nan,nan,nan,nan,nan,nan,nan,nan,nan,168.44519525708165,177.53941390814725,nan,177.87695001182146,nan,nan,nan,nan
1,10,1,1,1.0,1.0,0.32103282946627587,0.0,8,6,5,2,1,0,nan,nan,nan,nan,nan,nan,nan,nan,nan,nan,nan,nan,0.0,nan,nan,nan,nan,nan,nan,nan,nan,nan,nan,nan,nan,nan,nan,nan,nan,nan,nan,168.44519525708165,178.54788292990997,nan,178.86891575937625,nan,nan,nan,nan
1,11,1,1,1.0,1.0,0.3365428338875063,0.0,6,1,2,0,7,3,nan,nan,nan,nan,nan,nan,nan,nan,nan,nan,nan,nan,0.0,nan,nan,nan,nan,nan,nan,nan,nan,nan,nan,nan,nan,nan,nan,nan,nan,nan,nan,168.44519525708165,179.55632857390447,nan,179.89287140779197,nan,nan,nan,nan
1,12,0,0,0.0,1.0,0.6880585539038293,1.0,2,5,1,6,4,0,1.0,1.0,1.0,1.0,1.0,1.0,0.0,0.0,1.0,1.0,1.0,1.0,4.0,3.0,2.0,1.0,6.0,4.0,0.0,5.0,4.0,3.0,2.0,1.0,6.0,4.911141128395684,3.767125849612057,2.8404422160238028,2.1189092734712176,1.1842404237249866,5.910917899280321,168.44519525708165,180.56479759560898,181.3732134187594,181.2528561495128,188.34075710305478,189.33864911319688,182.39002630568575,188.33242834790144
1,13,1,1,1.0,1.0,0.5116473994567059,0.0,3,6,2,7,0,5,nan,nan,nan,nan,nan,nan,nan,nan,nan,nan,nan,nan,0.0,nan,nan,nan,nan,nan,nan,nan,nan,nan,nan,nan,nan,nan,nan,nan,nan,nan,nan,168.44519525708165,189.5409420154756,nan,190.0525894149323,nan,nan,nan,nan
1,14,1,1,1.0,1.0,0.38317377062048763,0.0,1,0,5,8,6,7,nan,nan,nan,nan,nan,nan,nan,nan,nan,nan,nan,nan,0.0,nan,nan,nan,nan,nan,nan,nan,nan,nan,nan,nan,nan,nan,nan,nan,nan,nan,nan,168.44519525708165,190.54941531363875,nan,190.93258908425923,nan,nan,nan,nan
1,15,1,1,1.0,1.0,0.3426800664747134,0.0,4,1,2,0,7,8,nan,nan,nan,nan,nan,nan,nan,nan,nan,nan,nan,nan,0.0,nan,nan,nan,nan,nan,nan,nan,nan,nan,nan,nan,nan,nan,nan,nan,nan,nan,nan,168.44519525708165,191.55786209803773,nan,191.90054216451244,nan,nan,nan,nan
1,16,1,1,1.0,1.0,0.2626120885252021,0.0,7,6,1,3,4,2,nan,nan,nan,nan,nan,nan,nan,nan,nan,nan,nan,nan,0.0,nan,nan,nan,nan,nan,nan,nan,nan,nan,nan,nan,nan,nan,nan,nan,nan,nan,nan,168.44519525708165,192.55799780308735,nan,192.82060989161255,nan,nan,nan,nan
1,17,1,1,1.0,1.0,0.2780180333647877,0.0,1,3,0,7,8,6,nan,nan,nan,nan,nan,nan,nan,nan,nan,nan,nan,nan,0.0,nan,nan,nan,nan,nan,nan,nan,nan,nan,nan,nan,nan,nan,nan,nan,nan,nan,nan,168.44519525708165,193.56646425899817,nan,193.84448229236295,nan,nan,nan,nan
1,18,1,1,1.0,1.0,0.333545348723419,0.0,2,7,4,6,0,1,nan,nan,nan,nan,nan,nan,nan,nan,nan,nan,nan,nan,0.0,nan,nan,nan,nan,nan,nan,nan,nan,nan,nan,nan,nan,nan,nan,nan,nan,nan,nan,168.44519525708165,194.5749193110969,nan,194.9084646598203,nan,nan,nan,nan
1,19,0,0,0.0,1.0,0.6850433928193524,1.0,7,2,0,8,1,4,1.0,1.0,1.0,1.0,1.0,1.0,1.0,1.0,1.0,0.0,0.0,1.0,4.0,7.0,2.0,0.0,6.0,8.0,4.0,3.0,6.0,5.0,4.0,2.0,1.0,4.828544645977672,9.356027627945878,7.892576334823389,6.5241815859335475,3.6696192019153386,1.6694604041986167,168.44519525708165,195.5833803502028,196.3917973136995,196.26842374302214,206.79311992478324,207.7929340431001,197.4002674758085,206.78478945902316
1,20,1,1,1.0,1.0,0.6583904639119282,0.0,1,3,5,4,2,6,nan,nan,nan,nan,nan,nan,nan,nan,nan,nan,nan,nan,0.0,nan,nan,nan,nan,nan,nan,nan,nan,nan,nan,nan,nan,nan,nan,nan,nan,nan,nan,168.44519525708165,208.0016566850245,nan,208.66004714893643,nan,nan,nan,nan
1,21,1,1,1.0,1.0,0.3379318150691688,0.0,5,6,2,3,8,4,nan,nan,nan,nan,nan,nan,nan,nan,nan,nan,nan,nan,0.0,nan,nan,nan,nan,nan,nan,nan,nan,nan,nan,nan,nan,nan,nan,nan,nan,nan,nan,168.44519525708165,209.01009035506286,nan,209.34802217013203,nan,nan,nan,nan
1,22,1,1,1.0,1.0,0.3454112732433714,0.0,3,1,6,0,7,5,nan,nan,nan,nan,nan,nan,nan,nan,nan,nan,nan,nan,0.0,nan,nan,nan,nan,nan,nan,nan,nan,nan,nan,nan,nan,nan,nan,nan,nan,nan,nan,168.44519525708165,210.01859615405556,nan,210.36400742729893,nan,nan,nan,nan
1,23,1,1,1.0,1.0,0.38495333143509924,0.0,8,5,0,4,2,3,nan,nan,nan,nan,nan,nan,nan,nan,nan,nan,nan,nan,0.0,nan,nan,nan,nan,nan,nan,nan,nan,nan,nan,nan,nan,nan,nan,nan,nan,nan,nan,168.44519525708165,211.02702868368942,nan,211.41198201512452,nan,nan,nan,nan
1,24,1,1,1.0,1.0,0.3524628044106066,0.0,0,7,4,8,1,2,nan,nan,nan,nan,nan,nan,nan,nan,nan,nan,nan,nan,0.0,nan,nan,nan,nan,nan,nan,nan,nan,nan,nan,nan,nan,nan,nan,nan,nan,nan,nan,168.44519525708165,212.03548801218858,nan,212.3879508165992,nan,nan,nan,nan
1,25,1,1,1.0,1.0,0.328319278662093,0.0,4,1,2,5,3,6,nan,nan,nan,nan,nan,nan,nan,nan,nan,nan,nan,nan,0.0,nan,nan,nan,nan,nan,nan,nan,nan,nan,nan,nan,nan,nan,nan,nan,nan,nan,nan,168.44519525708165,213.0356046159286,nan,213.3639238945907,nan,nan,nan,nan
1,26,1,1,1.0,1.0,0.2798206869047135,0.0,3,6,0,1,4,5,nan,nan,nan,nan,nan,nan,nan,nan,nan,nan,nan,nan,0.0,nan,nan,nan,nan,nan,nan,nan,nan,nan,nan,nan,nan,nan,nan,nan,nan,nan,nan,168.44519525708165,214.04407762899064,nan,214.32389831589535,nan,nan,nan,nan
1,27,1,1,1.0,1.0,0.2953130154055543,0.0,1,0,4,8,2,6,nan,nan,nan,nan,nan,nan,nan,nan,nan,nan,nan,nan,0.0,nan,nan,nan,nan,nan,nan,nan,nan,nan,nan,nan,nan,nan,nan,nan,nan,nan,nan,168.44519525708165,215.05254437000258,nan,215.34785738540813,nan,nan,nan,nan
1,28,1,1,1.0,1.0,0.270857596071437,0.0,0,3,7,5,8,4,nan,nan,nan,nan,nan,nan,nan,nan,nan,nan,nan,nan,0.0,nan,nan,nan,nan,nan,nan,nan,nan,nan,nan,nan,nan,nan,nan,nan,nan,nan,nan,168.44519525708165,216.0609865928418,nan,216.33184418891324,nan,nan,nan,nan
1,29,1,1,1.0,1.0,0.2703515531029552,0.0,6,8,2,3,5,0,nan,nan,nan,nan,nan,nan,nan,nan,nan,nan,nan,nan,0.0,nan,nan,nan,nan,nan,nan,nan,nan,nan,nan,nan,nan,nan,nan,nan,nan,nan,nan,168.44519525708165,217.0694501977996,nan,217.33980175090255,nan,nan,nan,nan
1,30,1,1,1.0,1.0,0.3418798058410175,0.0,1,6,3,8,0,7,nan,nan,nan,nan,nan,nan,nan,nan,nan,nan,nan,nan,0.0,nan,nan,nan,nan,nan,nan,nan,nan,nan,nan,nan,nan,nan,nan,nan,nan,nan,nan,168.44519525708165,218.07791693881154,nan,218.41979674465256,nan,nan,nan,nan
1,31,0,0,1.0,0.0,0.3173608103534207,1.0,8,7,0,2,3,4,1.0,1.0,1.0,1.0,1.0,1.0,0.0,1.0,0.0,0.0,0.0,0.0,1.0,3.0,7.0,6.0,8.0,1.0,2.0,6.0,1.0,2.0,3.0,4.0,5.0,5.836144699191209,1.8384841859224252,2.653897942393087,3.5330959255225025,4.332922987057827,5.2531737449462526,168.44519525708165,219.0863890966284,219.89478952460922,219.40374990698183,226.78733991581248,227.79155760607682,220.91159414383583,226.77900488855084
1,32,1,1,1.0,1.0,0.5916110328398645,0.0,2,5,8,4,1,7,nan,nan,nan,nan,nan,nan,nan,nan,nan,nan,nan,nan,0.0,nan,nan,nan,nan,nan,nan,nan,nan,nan,nan,nan,nan,nan,nan,nan,nan,nan,nan,168.44519525708165,227.9958635616931,nan,228.58747459453298,nan,nan,nan,nan
1,33,1,1,1.0,1.0,0.3511342633282766,0.0,6,4,2,0,7,8,nan,nan,nan,nan,nan,nan,nan,nan,nan,nan,nan,nan,0.0,nan,nan,nan,nan,nan,nan,nan,nan,nan,nan,nan,nan,nan,nan,nan,nan,nan,nan,168.44519525708165,229.0043103460921,nan,229.35544460942037,nan,nan,nan,nan
1,34,1,1,1.0,1.0,0.30264622007962316,0.0,0,1,3,2,4,7,nan,nan,nan,nan,nan,nan,nan,nan,nan,nan,nan,nan,0.0,nan,nan,nan,nan,nan,nan,nan,nan,nan,nan,nan,nan,nan,nan,nan,nan,nan,nan,168.44519525708165,230.01277566159843,nan,230.31542188167805,nan,nan,nan,nan
1,35,1,1,1.0,1.0,0.27047442889306694,0.0,7,8,6,5,2,1,nan,nan,nan,nan,nan,nan,nan,nan,nan,nan,nan,nan,0.0,nan,nan,nan,nan,nan,nan,nan,nan,nan,nan,nan,nan,nan,nan,nan,nan,nan,nan,168.44519525708165,231.01293189346325,nan,231.2834063223563,nan,nan,nan,nan
1,36,1,1,1.0,1.0,0.25400878716027364,0.0,8,3,0,2,1,7,nan,nan,nan,nan,nan,nan,nan,nan,nan,nan,nan,nan,0.0,nan,nan,nan,nan,nan,nan,nan,nan,nan,nan,nan,nan,nan,nan,nan,nan,nan,nan,168.44519525708165,232.02137012500316,nan,232.27537891216343,nan,nan,nan,nan
1,37,1,1,1.0,1.0,0.3495009560720064,0.0,6,0,5,7,2,1,nan,nan,nan,nan,nan,nan,nan,nan,nan,nan,nan,nan,0.0,nan,nan,nan,nan,nan,nan,nan,nan,nan,nan,nan,nan,nan,nan,nan,nan,nan,nan,168.44519525708165,233.02983201941242,nan,233.37933297548443,nan,nan,nan,nan
1,38,1,1,1.0,1.0,0.33301393227884546,0.0,8,2,3,6,7,5,nan,nan,nan,nan,nan,nan,nan,nan,nan,nan,nan,nan,0.0,nan,nan,nan,nan,nan,nan,nan,nan,nan,nan,nan,nan,nan,nan,nan,nan,nan,nan,168.44519525708165,234.03829248831607,nan,234.37130642059492,nan,nan,nan,nan
1,39,1,1,1.0,1.0,0.33286824892275035,0.0,4,7,1,0,2,3,nan,nan,nan,nan,nan,nan,nan,nan,nan,nan,nan,nan,0.0,nan,nan,nan,nan,nan,nan,nan,nan,nan,nan,nan,nan,nan,nan,nan,nan,nan,nan,168.44519525708165,235.0384079516516,nan,235.37127620057436,nan,nan,nan,nan
1,40,1,1,1.0,1.0,0.3163712468231097,0.0,5,2,3,4,6,7,nan,nan,nan,nan,nan,nan,nan,nan,nan,nan,nan,nan,0.0,nan,nan,nan,nan,nan,nan,nan,nan,nan,nan,nan,nan,nan,nan,nan,nan,nan,nan,168.44519525708165,236.04688780702418,nan,236.3632590538473,nan,nan,nan,nan
1,41,1,1,1.0,1.0,0.33988699421752244,0.0,4,8,2,0,5,1,nan,nan,nan,nan,nan,nan,nan,nan,nan,nan,nan,nan,0.0,nan,nan,nan,nan,nan,nan,nan,nan,nan,nan,nan,nan,nan,nan,nan,nan,nan,nan,168.44519525708165,237.05534485477256,nan,237.39523184899008,nan,nan,nan,nan
1,42,1,1,1.0,1.0,0.37139394466066733,0.0,7,2,5,1,0,8,nan,nan,nan,nan,nan,nan,nan,nan,nan,nan,nan,nan,0.0,nan,nan,nan,nan,nan,nan,nan,nan,nan,nan,nan,nan,nan,nan,nan,nan,nan,nan,168.44519525708165,238.06380674918182,nan,238.4352006938425,nan,nan,nan,nan
1,43,1,1,1.0,1.0,0.37090814334806055,0.0,8,6,7,5,4,2,nan,nan,nan,nan,nan,nan,nan,nan,nan,nan,nan,nan,0.0,nan,nan,nan,nan,nan,nan,nan,nan,nan,nan,nan,nan,nan,nan,nan,nan,nan,nan,168.44519525708165,239.0722521080752,nan,239.44316025142325,nan,nan,nan,nan
1,44,1,1,1.0,1.0,0.38642299437196925,0.0,3,4,6,2,7,0,nan,nan,nan,nan,nan,nan,nan,nan,nan,nan,nan,nan,0.0,nan,nan,nan,nan,nan,nan,nan,nan,nan,nan,nan,nan,nan,nan,nan,nan,nan,nan,168.44519525708165,240.0807208447368,nan,240.46714383910876,nan,nan,nan,nan
1,45,1,1,1.0,1.0,0.31391857750713825,0.0,5,8,7,1,6,2,nan,nan,nan,nan,nan,nan,nan,nan,nan,nan,nan,nan,0.0,nan,nan,nan,nan,nan,nan,nan,nan,nan,nan,nan,nan,nan,nan,nan,nan,nan,nan,168.44519525708165,241.0891796030919,nan,241.40309818059905,nan,nan,nan,nan
1,46,1,1,1.0,1.0,0.34548910410376266,0.0,1,3,5,0,4,6,nan,nan,nan,nan,nan,nan,nan,nan,nan,nan,nan,nan,0.0,nan,nan,nan,nan,nan,nan,nan,nan,nan,nan,nan,nan,nan,nan,nan,nan,nan,nan,168.44519525708165,242.09765176090878,nan,242.44314086501254,nan,nan,nan,nan
1,47,1,1,1.0,1.0,0.30494151706807315,0.0,3,0,8,4,6,7,nan,nan,nan,nan,nan,nan,nan,nan,nan,nan,nan,nan,0.0,nan,nan,nan,nan,nan,nan,nan,nan,nan,nan,nan,nan,nan,nan,nan,nan,nan,nan,168.44519525708165,243.10610253660707,nan,243.41104405367514,nan,nan,nan,nan
1,48,1,1,1.0,1.0,0.2724532707943581,0.0,8,1,3,6,4,2,nan,nan,nan,nan,nan,nan,nan,nan,nan,nan,nan,nan,0.0,nan,nan,nan,nan,nan,nan,nan,nan,nan,nan,nan,nan,nan,nan,nan,nan,nan,nan,168.44519525708165,244.1145715583698,nan,244.38702482916415,nan,nan,nan,nan
1,49,1,1,1.0,1.0,0.2799592428491451,0.0,5,7,6,1,3,0,nan,nan,nan,nan,nan,nan,nan,nan,nan,nan,nan,nan,0.0,nan,nan,nan,nan,nan,nan,nan,nan,nan,nan,nan,nan,nan,nan,nan,nan,nan,nan,168.44519525708165,245.1230402950314,nan,245.40299953788053,nan,nan,nan,nan
1,50,1,1,1.0,1.0,0.29547979577910155,0.0,2,1,0,8,6,4,nan,nan,nan,nan,nan,nan,nan,nan,nan,nan,nan,nan,0.0,nan,nan,nan,nan,nan,nan,nan,nan,nan,nan,nan,nan,nan,nan,nan,nan,nan,nan,168.44519525708165,246.13148194766836,nan,246.42696174344746,nan,nan,nan,nan
1,51,1,1,1.0,1.0,0.3509988433797844,0.0,8,7,4,3,2,0,nan,nan,nan,nan,nan,nan,nan,nan,nan,nan,nan,nan,0.0,nan,nan,nan,nan,nan,nan,nan,nan,nan,nan,nan,nan,nan,nan,nan,nan,nan,nan,168.44519525708165,247.139956386236,nan,247.4909552296158,nan,nan,nan,nan
1,52,0,0,0.0,1.0,0.6788012454053387,0.0,6,5,0,1,3,2,nan,nan,nan,nan,nan,nan,nan,nan,nan,nan,nan,nan,0.0,nan,nan,nan,nan,nan,nan,nan,nan,nan,nan,nan,nan,nan,nan,nan,nan,nan,nan,168.44519525708165,248.14009066583822,nan,248.81889191124355,nan,nan,nan,nan
1,53,1,1,nan,nan,nan,0.0,1,4,8,7,6,3,nan,nan,nan,nan,nan,nan,nan,nan,nan,nan,nan,nan,0.0,nan,nan,nan,nan,nan,nan,nan,nan,nan,nan,nan,nan,nan,nan,nan,nan,nan,nan,168.44519525708165,249.14022751123412,nan,nan,nan,nan,nan,nan
1,54,1,1,1.0,1.0,0.5581306571257301,0.0,6,5,3,2,1,0,nan,nan,nan,nan,nan,nan,nan,nan,nan,nan,nan,nan,0.0,nan,nan,nan,nan,nan,nan,nan,nan,nan,nan,nan,nan,nan,nan,nan,nan,nan,nan,168.44519525708165,250.14867999753915,nan,250.70681065466488,nan,nan,nan,nan
1,55,1,1,1.0,1.0,0.26969868631567806,0.0,3,1,4,0,5,8,nan,nan,nan,nan,nan,nan,nan,nan,nan,nan,nan,nan,0.0,nan,nan,nan,nan,nan,nan,nan,nan,nan,nan,nan,nan,nan,nan,nan,nan,nan,nan,168.44519525708165,251.15712735208217,nan,251.42682603839785,nan,nan,nan,nan
1,56,1,1,1.0,1.0,0.2932110125548206,0.0,5,3,1,7,8,6,nan,nan,nan,nan,nan,nan,nan,nan,nan,nan,nan,nan,0.0,nan,nan,nan,nan,nan,nan,nan,nan,nan,nan,nan,nan,nan,nan,nan,nan,nan,nan,168.44519525708165,252.16559238248738,nan,252.4588033950422,nan,nan,nan,nan
1,57,1,1,1.0,1.0,0.2126937253633514,0.0,2,5,8,3,7,4,nan,nan,nan,nan,nan,nan,nan,nan,nan,nan,nan,nan,0.0,nan,nan,nan,nan,nan,nan,nan,nan,nan,nan,nan,nan,nan,nan,nan,nan,nan,nan,168.44519525708165,253.17404543899465,nan,253.386739164358,nan,nan,nan,nan
1,58,1,1,1.0,1.0,0.124194358184468,0.0,4,7,5,2,3,6,nan,nan,nan,nan,nan,nan,nan,nan,nan,nan,nan,nan,0.0,nan,nan,nan,nan,nan,nan,nan,nan,nan,nan,nan,nan,nan,nan,nan,nan,nan,nan,168.44519525708165,254.1825327067636,nan,254.30672706494806,nan,nan,nan,nan
1,59,1,1,1.0,1.0,0.060057469352614135,0.0,0,1,3,7,5,8,nan,nan,nan,nan,nan,nan,nan,nan,nan,nan,nan,nan,0.0,nan,nan,nan,nan,nan,nan,nan,nan,nan,nan,nan,nan,nan,nan,nan,nan,nan,nan,168.44519525708165,255.18265757826157,nan,255.24271504761418,nan,nan,nan,nan
1,60,1,1,1.0,1.0,0.1798964365152642,0.0,1,7,6,4,8,3,nan,nan,nan,nan,nan,nan,nan,nan,nan,nan,nan,nan,0.0,nan,nan,nan,nan,nan,nan,nan,nan,nan,nan,nan,nan,nan,nan,nan,nan,nan,nan,168.44519525708165,256.18278416024987,nan,256.36268059676513,nan,nan,nan,nan
1,61,1,1,1.0,1.0,0.1794271707185544,0.0,6,3,8,1,2,4,nan,nan,nan,nan,nan,nan,nan,nan,nan,nan,nan,nan,0.0,nan,nan,nan,nan,nan,nan,nan,nan,nan,nan,nan,nan,nan,nan,nan,nan,nan,nan,168.44519525708165,257.1912286638981,nan,257.3706558346166,nan,nan,nan,nan
1,62,1,1,1.0,1.0,0.13892519881483167,0.0,1,6,0,8,7,3,nan,nan,nan,nan,nan,nan,nan,nan,nan,nan,nan,nan,0.0,nan,nan,nan,nan,nan,nan,nan,nan,nan,nan,nan,nan,nan,nan,nan,nan,nan,nan,168.44519525708165,258.1997031024657,nan,258.33862830128055,nan,nan,nan,nan
1,63,0,0,1.0,0.0,0.2587356565054506,0.0,7,5,4,2,3,8,nan,nan,nan,nan,nan,nan,nan,nan,nan,nan,nan,nan,0.0,nan,nan,nan,nan,nan,nan,nan,nan,nan,nan,nan,nan,nan,nan,nan,nan,nan,nan,168.44519525708165,259.19984165846836,nan,259.4585773149738,nan,nan,nan,nan
1,64,1,1,1.0,1.0,0.7302747999201529,0.0,2,8,3,6,5,4,nan,nan,nan,nan,nan,nan,nan,nan,nan,nan,nan,nan,0.0,nan,nan,nan,nan,nan,nan,nan,nan,nan,nan,nan,nan,nan,nan,nan,nan,nan,nan,168.44519525708165,260.2082778943004,nan,260.93855269422056,nan,nan,nan,nan
1,65,0,0,0.0,1.0,0.6097652901080437,0.0,0,5,4,2,3,1,nan,nan,nan,nan,nan,nan,nan,nan,nan,nan,nan,nan,0.0,nan,nan,nan,nan,nan,nan,nan,nan,nan,nan,nan,nan,nan,nan,nan,nan,nan,nan,168.44519525708165,261.2167551838211,nan,261.8265204739291,nan,nan,nan,nan
1,66,1,1,1.0,1.0,0.4336449322872795,0.0,6,2,3,8,7,5,nan,nan,nan,nan,nan,nan,nan,nan,nan,nan,nan,nan,0.0,nan,nan,nan,nan,nan,nan,nan,nan,nan,nan,nan,nan,nan,nan,nan,nan,nan,nan,168.44519525708165,262.2168794850586,nan,262.6505244173459,nan,nan,nan,nan
1,67,1,1,1.0,1.0,0.35314503591507673,0.0,3,8,2,4,6,0,nan,nan,nan,nan,nan,nan,nan,nan,nan,nan,nan,nan,0.0,nan,nan,nan,nan,nan,nan,nan,nan,nan,nan,nan,nan,nan,nan,nan,nan,nan,nan,168.44519525708165,263.2253325415659,nan,263.57847757748095,nan,nan,nan,nan
1,68,0,0,0.0,1.0,0.5929512627772056,1.0,8,2,0,6,4,3,1.0,1.0,1.0,1.0,1.0,1.0,0.0,1.0,0.0,1.0,1.0,0.0,3.0,3.0,2.0,1.0,6.0,4.0,8.0,4.0,6.0,5.0,1.0,2.0,3.0,3.8893322427175008,5.80797164561227,5.064291695132852,1.194744166044984,2.0584786151885055,3.016760144440923,168.44519525708165,264.2254776547197,265.03388235910097,264.81842891749693,271.90141027775826,272.90552020224277,266.05069809703855,271.893085513846
1,69,1,1,1.0,1.0,0.5402460994082503,0.0,5,6,3,4,2,7,nan,nan,nan,nan,nan,nan,nan,nan,nan,nan,nan,nan,0.0,nan,nan,nan,nan,nan,nan,nan,nan,nan,nan,nan,nan,nan,nan,nan,nan,nan,nan,168.44519525708165,273.1099262260832,nan,273.65017232549144,nan,nan,nan,nan
1,70,1,1,1.0,1.0,0.3397501487634145,0.0,2,1,6,7,8,5,nan,nan,nan,nan,nan,nan,nan,nan,nan,nan,nan,nan,0.0,nan,nan,nan,nan,nan,nan,nan,nan,nan,nan,nan,nan,nan,nan,nan,nan,nan,nan,168.44519525708165,274.11840094969375,nan,274.45815109845717,nan,nan,nan,nan
1,71,1,1,1.0,1.0,0.3712471209000796,0.0,6,5,0,3,7,4,nan,nan,nan,nan,nan,nan,nan,nan,nan,nan,nan,nan,0.0,nan,nan,nan,nan,nan,nan,nan,nan,nan,nan,nan,nan,nan,nan,nan,nan,nan,nan,168.44519525708165,275.1268508701469,nan,275.49809799104696,nan,nan,nan,nan
1,72,1,1,1.0,1.0,0.3150945929810405,0.0,3,8,4,0,6,7,nan,nan,nan,nan,nan,nan,nan,nan,nan,nan,nan,nan,0.0,nan,nan,nan,nan,nan,nan,nan,nan,nan,nan,nan,nan,nan,nan,nan,nan,nan,nan,168.44519525708165,276.126988285745,nan,276.44208287872607,nan,nan,nan,nan
1,73,1,1,1.0,1.0,0.29894141503609717,0.0,5,4,0,2,1,3,nan,nan,nan,nan,nan,nan,nan,nan,nan,nan,nan,nan,0.0,nan,nan,nan,nan,nan,nan,nan,nan,nan,nan,nan,nan,nan,nan,nan,nan,nan,nan,168.44519525708165,277.12711885909084,nan,277.42606027412694,nan,nan,nan,nan
1,74,1,1,1.0,1.0,0.3627649847767316,0.0,8,5,7,6,0,2,nan,nan,nan,nan,nan,nan,nan,nan,nan,nan,nan,nan,0.0,nan,nan,nan,nan,nan,nan,nan,nan,nan,nan,nan,nan,nan,nan,nan,nan,nan,nan,168.44519525708165,278.127261406451,nan,278.49002639122773,nan,nan,nan,nan
1,75,1,1,1.0,1.0,0.39432154170935974,0.0,0,3,6,4,1,5,nan,nan,nan,nan,nan,nan,nan,nan,nan,nan,nan,nan,0.0,nan,nan,nan,nan,nan,nan,nan,nan,nan,nan,nan,nan,nan,nan,nan,nan,nan,nan,168.44519525708165,279.13568880438106,nan,279.5300103460904,nan,nan,nan,nan
1,76,1,1,1.0,1.0,0.2978266949648969,0.0,3,5,8,0,2,7,nan,nan,nan,nan,nan,nan,nan,nan,nan,nan,nan,nan,0.0,nan,nan,nan,nan,nan,nan,nan,nan,nan,nan,nan,nan,nan,nan,nan,nan,nan,nan,168.44519525708165,280.1441492732847,nan,280.4419759682496,nan,nan,nan,nan
1,77,1,1,1.0,1.0,0.3456613012822345,0.0,1,6,7,8,4,5,nan,nan,nan,nan,nan,nan,nan,nan,nan,nan,nan,nan,0.0,nan,nan,nan,nan,nan,nan,nan,nan,nan,nan,nan,nan,nan,nan,nan,nan,nan,nan,168.44519525708165,281.1442935311934,nan,281.48995483247563,nan,nan,nan,nan
1,78,1,1,1.0,1.0,0.41749745624838397,0.0,5,3,0,4,6,1,nan,nan,nan,nan,nan,nan,nan,nan,nan,nan,nan,nan,0.0,nan,nan,nan,nan,nan,nan,nan,nan,nan,nan,nan,nan,nan,nan,nan,nan,nan,nan,168.44519525708165,282.1444164069835,nan,282.5619138632319,nan,nan,nan,nan
1,79,0,0,0.0,1.0,0.6249981825239956,1.0,0,2,3,7,4,6,1.0,1.0,1.0,1.0,1.0,1.0,0.0,0.0,0.0,0.0,0.0,1.0,1.0,4.0,8.0,0.0,3.0,7.0,6.0,6.0,5.0,4.0,3.0,2.0,1.0,5.479676600021776,4.719739127031062,3.7447413578629494,2.8003245517611504,2.0731646960484795,1.3617098495014943,168.44519525708165,283.15287944173906,283.9612841461785,283.77787762426306,290.49544689583126,291.50019030069234,284.97809161629993,290.48711072822334
1,80,1,1,1.0,1.0,0.4176884696353227,0.0,4,0,6,8,3,5,nan,nan,nan,nan,nan,nan,nan,nan,nan,nan,nan,nan,0.0,nan,nan,nan,nan,nan,nan,nan,nan,nan,nan,nan,nan,nan,nan,nan,nan,nan,nan,168.44519525708165,291.7039528659079,nan,292.12164133554325,nan,nan,nan,nan
1,81,1,1,1.0,1.0,0.2891629535588436,0.0,7,4,3,1,6,8,nan,nan,nan,nan,nan,nan,nan,nan,nan,nan,nan,nan,0.0,nan,nan,nan,nan,nan,nan,nan,nan,nan,nan,nan,nan,nan,nan,nan,nan,nan,nan,168.44519525708165,292.71245410334086,nan,293.0016170568997,nan,nan,nan,nan
1,82,1,1,1.0,1.0,0.22470333764795214,0.0,8,0,2,3,5,4,nan,nan,nan,nan,nan,nan,nan,nan,nan,nan,nan,nan,0.0,nan,nan,nan,nan,nan,nan,nan,nan,nan,nan,nan,nan,nan,nan,nan,nan,nan,nan,168.44519525708165,293.7208686720114,nan,293.9455720096594,nan,nan,nan,nan
1,83,1,1,1.0,1.0,0.30421652138466015,0.0,6,8,0,4,3,1,nan,nan,nan,nan,nan,nan,nan,nan,nan,nan,nan,nan,0.0,nan,nan,nan,nan,nan,nan,nan,nan,nan,nan,nan,nan,nan,nan,nan,nan,nan,nan,168.44519525708165,294.72934054472717,nan,295.0335570661118,nan,nan,nan,nan
1,84,1,1,1.0,1.0,0.3917400096543133,0.0,0,4,1,3,8,2,nan,nan,nan,nan,nan,nan,nan,nan,nan,nan,nan,nan,0.0,nan,nan,nan,nan,nan,nan,nan,nan,nan,nan,nan,nan,nan,nan,nan,nan,nan,nan,168.44519525708165,295.7377907502232,nan,296.1295307598775,nan,nan,nan,nan
1,85,1,1,1.0,1.0,0.30324948037741706,0.0,7,3,4,1,2,5,nan,nan,nan,nan,nan,nan,nan,nan,nan,nan,nan,nan,0.0,nan,nan,nan,nan,nan,nan,nan,nan,nan,nan,nan,nan,nan,nan,nan,nan,nan,nan,168.44519525708165,296.7462540700799,nan,297.0495035504573,nan,nan,nan,nan
1,86,1,1,1.0,1.0,0.28674734657397494,0.0,1,6,0,5,3,2,nan,nan,nan,nan,nan,nan,nan,nan,nan,nan,nan,nan,0.0,nan,nan,nan,nan,nan,nan,nan,nan,nan,nan,nan,nan,nan,nan,nan,nan,nan,nan,168.44519525708165,297.75472765334416,nan,298.04147499991814,nan,nan,nan,nan
1,87,1,1,1.0,1.0,0.31059009744785726,0.0,4,1,2,3,5,7,nan,nan,nan,nan,nan,nan,nan,nan,nan,nan,nan,nan,0.0,nan,nan,nan,nan,nan,nan,nan,nan,nan,nan,nan,nan,nan,nan,nan,nan,nan,nan,168.44519525708165,298.75485936709447,nan,299.0654494645423,nan,nan,nan,nan
1,88,1,1,1.0,1.0,0.3184213624917902,0.0,1,5,4,8,2,0,nan,nan,nan,nan,nan,nan,nan,nan,nan,nan,nan,nan,0.0,nan,nan,nan,nan,nan,nan,nan,nan,nan,nan,nan,nan,nan,nan,nan,nan,nan,nan,168.44519525708165,299.7549899404403,nan,300.0734113029321,nan,nan,nan,nan
1,89,1,1,1.0,1.0,0.5822442480130121,0.0,8,3,5,7,6,2,nan,nan,nan,nan,nan,nan,nan,nan,nan,nan,nan,nan,0.0,nan,nan,nan,nan,nan,nan,nan,nan,nan,nan,nan,nan,nan,nan,nan,nan,nan,nan,168.44519525708165,300.75513163249707,nan,301.3373758805101,nan,nan,nan,nan
1,90,1,1,1.0,1.0,0.350094523106236,0.0,2,1,0,8,7,4,nan,nan,nan,nan,nan,nan,nan,nan,nan,nan,nan,nan,0.0,nan,nan,nan,nan,nan,nan,nan,nan,nan,nan,nan,nan,nan,nan,nan,nan,nan,nan,168.44519525708165,301.7552547933883,nan,302.10534931649454,nan,nan,nan,nan
1,91,1,1,1.0,1.0,0.42195034958422184,0.0,4,8,6,2,0,1,nan,nan,nan,nan,nan,nan,nan,nan,nan,nan,nan,nan,0.0,nan,nan,nan,nan,nan,nan,nan,nan,nan,nan,nan,nan,nan,nan,nan,nan,nan,nan,168.44519525708165,302.75537054182496,nan,303.1773208914092,nan,nan,nan,nan
1,92,1,1,1.0,1.0,0.38948690658435225,0.0,3,2,1,8,5,7,nan,nan,nan,nan,nan,nan,nan,nan,nan,nan,nan,nan,0.0,nan,nan,nan,nan,nan,nan,nan,nan,nan,nan,nan,nan,nan,nan,nan,nan,nan,nan,168.44519525708165,303.7638139050687,nan,304.153300811653,nan,nan,nan,nan
1,93,1,1,1.0,1.0,0.36529862094903365,0.0,4,3,8,6,1,0,nan,nan,nan,nan,nan,nan,nan,nan,nan,nan,nan,nan,0.0,nan,nan,nan,nan,nan,nan,nan,nan,nan,nan,nan,nan,nan,nan,nan,nan,nan,nan,168.44519525708165,304.76396215427667,nan,305.1292607752257,nan,nan,nan,nan
1,94,1,1,1.0,1.0,0.3568355861934833,0.0,1,5,6,4,7,2,nan,nan,nan,nan,nan,nan,nan,nan,nan,nan,nan,nan,0.0,nan,nan,nan,nan,nan,nan,nan,nan,nan,nan,nan,nan,nan,nan,nan,nan,nan,nan,168.44519525708165,305.77240266656736,nan,306.12923825276084,nan,nan,nan,nan
1,95,0,0,nan,nan,nan,1.0,7,4,2,5,0,8,1.0,1.0,1.0,1.0,1.0,1.0,1.0,0.0,0.0,0.0,0.0,1.0,2.0,7.0,1.0,3.0,6.0,2.0,8.0,2.0,6.0,5.0,3.0,4.0,1.0,3.3727897680946626,7.699431264656596,5.996033763221931,4.324696295778267,5.083263603912201,1.6540453363559209,168.44519525708165,306.78086370567326,307.5892889368697,nan,316.34872179239755,317.34867560706334,308.6060935560963,316.3403933222871
1,96,1,1,1.0,1.0,0.4916611239896156,0.0,1,2,8,0,6,3,nan,nan,nan,nan,nan,nan,nan,nan,nan,nan,nan,nan,0.0,nan,nan,nan,nan,nan,nan,nan,nan,nan,nan,nan,nan,nan,nan,nan,nan,nan,nan,168.44519525708165,317.5572368854191,nan,318.04889800940873,nan,nan,nan,nan
1,97,1,1,1.0,1.0,0.33916627493454143,0.0,3,7,6,1,2,5,nan,nan,nan,nan,nan,nan,nan,nan,nan,nan,nan,nan,0.0,nan,nan,nan,nan,nan,nan,nan,nan,nan,nan,nan,nan,nan,nan,nan,nan,nan,nan,168.44519525708165,318.5656987798284,nan,318.9048650547629,nan,nan,nan,nan
1,98,1,1,1.0,1.0,0.1787152893957682,0.0,8,2,0,4,3,1,nan,nan,nan,nan,nan,nan,nan,nan,nan,nan,nan,nan,0.0,nan,nan,nan,nan,nan,nan,nan,nan,nan,nan,nan,nan,nan,nan,nan,nan,nan,nan,168.44519525708165,319.57415668288013,nan,319.7528719722759,nan,nan,nan,nan
1,99,1,1,1.0,1.0,0.07418961130315438,0.0,5,1,3,0,7,2,nan,nan,nan,nan,nan,nan,nan,nan,nan,nan,nan,nan,0.0,nan,nan,nan,nan,nan,nan,nan,nan,nan,nan,nan,nan,nan,nan,nan,nan,nan,nan,168.44519525708165,320.5826239940943,nan,320.6568136053975,nan,nan,nan,nan
1,100,1,1,1.0,1.0,0.33001958316890523,0.0,1,8,2,4,5,0,nan,nan,nan,nan,nan,nan,nan,nan,nan,nan,nan,nan,0.0,nan,nan,nan,nan,nan,nan,nan,nan,nan,nan,nan,nan,nan,nan,nan,nan,nan,nan,168.44519525708165,321.58276140969247,nan,321.91278099286137,nan,nan,nan,nan
1,101,1,1,1.0,1.0,0.2975524339126423,0.0,6,7,0,2,3,4,nan,nan,nan,nan,nan,nan,nan,nan,nan,nan,nan,nan,0.0,nan,nan,nan,nan,nan,nan,nan,nan,nan,nan,nan,nan,nan,nan,nan,nan,nan,nan,168.44519525708165,322.5912110450445,nan,322.8887634789571,nan,nan,nan,nan
1,102,0,0,0.0,1.0,0.4173768612090498,0.0,4,1,7,8,0,6,nan,nan,nan,nan,nan,nan,nan,nan,nan,nan,nan,nan,0.0,nan,nan,nan,nan,nan,nan,nan,nan,nan,nan,nan,nan,nan,nan,nan,nan,nan,nan,168.44519525708165,323.5913470351952,nan,324.00872389640426,nan,nan,nan,nan
1,103,1,1,1.0,1.0,0.5288893539109267,0.0,7,2,4,3,6,1,nan,nan,nan,nan,nan,nan,nan,nan,nan,nan,nan,nan,0.0,nan,nan,nan,nan,nan,nan,nan,nan,nan,nan,nan,nan,nan,nan,nan,nan,nan,nan,168.44519525708165,324.5998018021928,nan,325.12869115610374,nan,nan,nan,nan
1,104,1,1,1.0,1.0,0.3367443958413787,0.0,1,3,0,6,8,4,nan,nan,nan,nan,nan,nan,nan,nan,nan,nan,nan,nan,0.0,nan,nan,nan,nan,nan,nan,nan,nan,nan,nan,nan,nan,nan,nan,nan,nan,nan,nan,168.44519525708165,325.599933230842,nan,325.9366776266834,nan,nan,nan,nan
1,105,1,1,1.0,1.0,0.2722497132490389,0.0,6,8,2,5,4,3,nan,nan,nan,nan,nan,nan,nan,nan,nan,nan,nan,nan,0.0,nan,nan,nan,nan,nan,nan,nan,nan,nan,nan,nan,nan,nan,nan,nan,nan,nan,nan,168.44519525708165,326.608380015241,nan,326.88062972849,nan,nan,nan,nan
1,106,1,1,1.0,1.0,0.4477331695961766,0.0,0,3,6,2,8,4,nan,nan,nan,nan,nan,nan,nan,nan,nan,nan,nan,nan,0.0,nan,nan,nan,nan,nan,nan,nan,nan,nan,nan,nan,nan,nan,nan,nan,nan,nan,nan,168.44519525708165,327.6168567345594,nan,328.0645899041556,nan,nan,nan,nan
1,107,0,0,0.0,1.0,0.4472861412214115,1.0,2,0,1,4,6,7,1.0,1.0,1.0,1.0,1.0,1.0,1.0,0.0,1.0,1.0,1.0,1.0,5.0,2.0,3.0,1.0,4.0,6.0,7.0,6.0,5.0,4.0,3.0,2.0,1.0,5.766035932756495,4.83013433375163,4.190783346013632,3.1906795715913177,2.4711479934630916,1.2386692693689838,168.44519525708165,328.62530950590735,329.4337241885951,329.07259564712876,336.2595923659974,337.2693103874335,330.45052681217203,336.25124964112183
1,108,1,1,1.0,1.0,0.3639404300483875,0.0,7,3,4,8,0,1,nan,nan,nan,nan,nan,nan,nan,nan,nan,nan,nan,nan,0.0,nan,nan,nan,nan,nan,nan,nan,nan,nan,nan,nan,nan,nan,nan,nan,nan,nan,nan,168.44519525708165,337.4764376396779,nan,337.8403780697263,nan,nan,nan,nan
1,109,1,1,1.0,1.0,0.2753863246180117,0.0,1,6,3,4,5,7,nan,nan,nan,nan,nan,nan,nan,nan,nan,nan,nan,nan,0.0,nan,nan,nan,nan,nan,nan,nan,nan,nan,nan,nan,nan,nan,nan,nan,nan,nan,nan,168.44519525708165,338.4848998191883,nan,338.7602861438063,nan,nan,nan,nan
1,110,1,1,1.0,1.0,0.562923098274041,0.0,5,7,1,2,3,6,nan,nan,nan,nan,nan,nan,nan,nan,nan,nan,nan,nan,0.0,nan,nan,nan,nan,nan,nan,nan,nan,nan,nan,nan,nan,nan,nan,nan,nan,nan,nan,168.44519525708165,339.4933420420275,nan,340.05626514030155,nan,nan,nan,nan
1,111,1,1,1.0,1.0,0.3144317479454912,0.0,2,0,5,6,7,8,nan,nan,nan,nan,nan,nan,nan,nan,nan,nan,nan,nan,0.0,nan,nan,nan,nan,nan,nan,nan,nan,nan,nan,nan,nan,nan,nan,nan,nan,nan,nan,168.44519525708165,340.5018027960323,nan,340.81623454397777,nan,nan,nan,nan
1,112,1,1,1.0,1.0,0.4099162192433141,0.0,4,2,0,7,5,1,nan,nan,nan,nan,nan,nan,nan,nan,nan,nan,nan,nan,0.0,nan,nan,nan,nan,nan,nan,nan,nan,nan,nan,nan,nan,nan,nan,nan,nan,nan,nan,168.44519525708165,341.5102795153507,nan,341.920195734594,nan,nan,nan,nan
1,113,1,1,1.0,1.0,0.28944491216680035,0.0,2,5,4,0,3,6,nan,nan,nan,nan,nan,nan,nan,nan,nan,nan,nan,nan,0.0,nan,nan,nan,nan,nan,nan,nan,nan,nan,nan,nan,nan,nan,nan,nan,nan,nan,nan,168.44519525708165,342.5187368482584,nan,342.8081817604252,nan,nan,nan,nan
1,114,1,1,1.0,1.0,0.3529571585240774,0.0,5,6,0,7,2,8,nan,nan,nan,nan,nan,nan,nan,nan,nan,nan,nan,nan,0.0,nan,nan,nan,nan,nan,nan,nan,nan,nan,nan,nan,nan,nan,nan,nan,nan,nan,nan,168.44519525708165,343.5271901898086,nan,343.8801473483327,nan,nan,nan,nan
1,115,1,1,1.0,1.0,0.40849302674178034,0.0,6,8,3,0,1,5,nan,nan,nan,nan,nan,nan,nan,nan,nan,nan,nan,nan,0.0,nan,nan,nan,nan,nan,nan,nan,nan,nan,nan,nan,nan,nan,nan,nan,nan,nan,nan,168.44519525708165,344.535647237557,nan,344.94414026429877,nan,nan,nan,nan
1,116,0,0,0.0,1.0,0.592292123939842,1.0,4,5,7,2,3,8,1.0,1.0,1.0,1.0,1.0,1.0,0.0,0.0,1.0,1.0,1.0,1.0,4.0,0.0,4.0,7.0,2.0,3.0,8.0,6.0,5.0,4.0,3.0,2.0,1.0,5.9270342999952845,5.031691121577751,3.8558022606302984,2.9203685019165277,1.856148935679812,1.04983967699809,168.44519525708165,345.5357971973717,346.34420418250374,346.12808932131156,353.32840423687594,354.3352351047215,347.36099996382836,353.3200831792201
1,117,1,1,nan,nan,nan,0.0,8,0,1,7,2,6,nan,nan,nan,nan,nan,nan,nan,nan,nan,nan,nan,nan,0.0,nan,nan,nan,nan,nan,nan,nan,nan,nan,nan,nan,nan,nan,nan,nan,nan,nan,nan,168.44519525708165,354.536929308204,nan,nan,nan,nan,nan,nan
1,118,1,1,1.0,1.0,0.5024151793331839,0.0,3,8,7,1,5,4,nan,nan,nan,nan,nan,nan,nan,nan,nan,nan,nan,nan,0.0,nan,nan,nan,nan,nan,nan,nan,nan,nan,nan,nan,nan,nan,nan,nan,nan,nan,nan,168.44519525708165,355.54537979885936,nan,356.04779497819254,nan,nan,nan,nan
1,119,1,1,1.0,1.0,0.25425653444835916,0.0,6,5,8,2,7,0,nan,nan,nan,nan,nan,nan,nan,nan,nan,nan,nan,nan,0.0,nan,nan,nan,nan,nan,nan,nan,nan,nan,nan,nan,nan,nan,nan,nan,nan,nan,nan,168.44519525708165,356.54551635915413,nan,356.7997728936025,nan,nan,nan,nan
1,120,1,1,1.0,1.0,0.29379659693222493,0.0,3,6,2,8,4,5,nan,nan,nan,nan,nan,nan,nan,nan,nan,nan,nan,nan,0.0,nan,nan,nan,nan,nan,nan,nan,nan,nan,nan,nan,nan,nan,nan,nan,nan,nan,nan,168.44519525708165,357.55397226655623,nan,357.84776886348845,nan,nan,nan,nan
1,121,1,1,1.0,1.0,0.4052888479200192,0.0,4,1,7,0,8,3,nan,nan,nan,nan,nan,nan,nan,nan,nan,nan,nan,nan,0.0,nan,nan,nan,nan,nan,nan,nan,nan,nan,nan,nan,nan,nan,nan,nan,nan,nan,nan,168.44519525708165,358.56243102491135,nan,358.96771987283137,nan,nan,nan,nan
1,122,1,1,1.0,1.0,0.39712459238944575,0.0,1,5,4,8,6,7,nan,nan,nan,nan,nan,nan,nan,nan,nan,nan,nan,nan,0.0,nan,nan,nan,nan,nan,nan,nan,nan,nan,nan,nan,nan,nan,nan,nan,nan,nan,nan,168.44519525708165,359.56256672996096,nan,359.9596913223504,nan,nan,nan,nan
1,123,0,0,0.0,1.0,0.5246363118640147,0.0,8,6,5,4,0,1,nan,nan,nan,nan,nan,nan,nan,nan,nan,nan,nan,nan,0.0,nan,nan,nan,nan,nan,nan,nan,nan,nan,nan,nan,nan,nan,nan,nan,nan,nan,nan,168.44519525708165,360.5710118038114,nan,361.09564811567543,nan,nan,nan,nan
1,124,1,1,1.0,1.0,0.4924747840850614,0.0,5,8,7,2,4,6,nan,nan,nan,nan,nan,nan,nan,nan,nan,nan,nan,nan,0.0,nan,nan,nan,nan,nan,nan,nan,nan,nan,nan,nan,nan,nan,nan,nan,nan,nan,nan,168.44519525708165,361.5711574871675,nan,362.0636322712526,nan,nan,nan,nan
1,125,1,1,1.0,1.0,0.27600583533057943,0.0,3,6,2,4,8,7,nan,nan,nan,nan,nan,nan,nan,nan,nan,nan,nan,nan,0.0,nan,nan,nan,nan,nan,nan,nan,nan,nan,nan,nan,nan,nan,nan,nan,nan,nan,nan,168.44519525708165,362.5795965739526,nan,362.85560240928316,nan,nan,nan,nan
1,126,1,1,1.0,1.0,0.227830825955607,0.0,4,1,8,0,5,3,nan,nan,nan,nan,nan,nan,nan,nan,nan,nan,nan,nan,0.0,nan,nan,nan,nan,nan,nan,nan,nan,nan,nan,nan,nan,nan,nan,nan,nan,nan,nan,168.44519525708165,363.5797488145181,nan,363.8075796404737,nan,nan,nan,nan
1,127,1,1,1.0,1.0,0.21935866819694638,0.0,3,8,0,5,6,4,nan,nan,nan,nan,nan,nan,nan,nan,nan,nan,nan,nan,0.0,nan,nan,nan,nan,nan,nan,nan,nan,nan,nan,nan,nan,nan,nan,nan,nan,nan,nan,168.44519525708165,364.58818391000386,nan,364.8075425782008,nan,nan,nan,nan
1,128,1,1,1.0,1.0,0.2668762492830865,0.0,5,7,4,1,2,8,nan,nan,nan,nan,nan,nan,nan,nan,nan,nan,nan,nan,0.0,nan,nan,nan,nan,nan,nan,nan,nan,nan,nan,nan,nan,nan,nan,nan,nan,nan,nan,168.44519525708165,365.59665264666546,nan,365.86352889594855,nan,nan,nan,nan
1,129,1,1,1.0,1.0,0.33838654099963605,0.0,4,5,6,8,7,2,nan,nan,nan,nan,nan,nan,nan,nan,nan,nan,nan,nan,0.0,nan,nan,nan,nan,nan,nan,nan,nan,nan,nan,nan,nan,nan,nan,nan,nan,nan,nan,168.44519525708165,366.6050988608622,nan,366.94348540186184,nan,nan,nan,nan
1,130,1,1,1.0,1.0,0.34588367509422824,0.0,7,8,1,6,4,3,nan,nan,nan,nan,nan,nan,nan,nan,nan,nan,nan,nan,0.0,nan,nan,nan,nan,nan,nan,nan,nan,nan,nan,nan,nan,nan,nan,nan,nan,nan,nan,168.44519525708165,367.6135815671878,nan,367.959465242282,nan,nan,nan,nan
1,131,1,1,1.0,1.0,0.4177107070572674,0.0,0,7,3,8,5,2,nan,nan,nan,nan,nan,nan,nan,nan,nan,nan,nan,nan,0.0,nan,nan,nan,nan,nan,nan,nan,nan,nan,nan,nan,nan,nan,nan,nan,nan,nan,nan,168.44519525708165,368.61371271067765,nan,369.0314234177349,nan,nan,nan,nan
1,132,1,1,1.0,1.0,0.36923150171060115,0.0,2,1,0,6,3,4,nan,nan,nan,nan,nan,nan,nan,nan,nan,nan,nan,nan,0.0,nan,nan,nan,nan,nan,nan,nan,nan,nan,nan,nan,nan,nan,nan,nan,nan,nan,nan,168.44519525708165,369.62217146903276,nan,369.99140297074337,nan,nan,nan,nan
1,133,1,1,1.0,1.0,0.38473181292647496,0.0,5,7,8,1,4,2,nan,nan,nan,nan,nan,nan,nan,nan,nan,nan,nan,nan,0.0,nan,nan,nan,nan,nan,nan,nan,nan,nan,nan,nan,nan,nan,nan,nan,nan,nan,nan,168.44519525708165,370.63063507399056,nan,371.01536688691704,nan,nan,nan,nan
1,134,1,1,1.0,1.0,0.3205843756441027,0.0,3,0,5,2,8,6,nan,nan,nan,nan,nan,nan,nan,nan,nan,nan,nan,nan,0.0,nan,nan,nan,nan,nan,nan,nan,nan,nan,nan,nan,nan,nan,nan,nan,nan,nan,nan,168.44519525708165,371.63075880508404,nan,371.95134318072814,nan,nan,nan,nan
1,135,1,1,1.0,1.0,0.3364359234110452,0.0,4,3,6,0,7,2,nan,nan,nan,nan,nan,nan,nan,nan,nan,nan,nan,nan,0.0,nan,nan,nan,nan,nan,nan,nan,nan,nan,nan,nan,nan,nan,nan,nan,nan,nan,nan,168.44519525708165,372.6308848169283,nan,372.96732074033935,nan,nan,nan,nan
1,136,1,1,1.0,1.0,0.3682661712518893,0.0,5,1,8,2,6,0,nan,nan,nan,nan,nan,nan,nan,nan,nan,nan,nan,nan,0.0,nan,nan,nan,nan,nan,nan,nan,nan,nan,nan,nan,nan,nan,nan,nan,nan,nan,nan,168.44519525708165,373.6310219474253,nan,373.9992881186772,nan,nan,nan,nan
1,137,1,1,1.0,1.0,0.36810338217765093,0.0,7,6,2,1,0,4,nan,nan,nan,nan,nan,nan,nan,nan,nan,nan,nan,nan,0.0,nan,nan,nan,nan,nan,nan,nan,nan,nan,nan,nan,nan,nan,nan,nan,nan,nan,nan,168.44519525708165,374.63113855116535,nan,374.999241933343,nan,nan,nan,nan
1,138,1,1,1.0,1.0,0.2959681628854014,0.0,1,7,8,3,2,6,nan,nan,nan,nan,nan,nan,nan,nan,nan,nan,nan,nan,0.0,nan,nan,nan,nan,nan,nan,nan,nan,nan,nan,nan,nan,nan,nan,nan,nan,nan,nan,168.44519525708165,375.63125486980425,nan,375.92722303268965,nan,nan,nan,nan
1,139,0,0,0.0,1.0,0.47947788902092725,1.0,3,5,7,8,6,0,1.0,1.0,1.0,1.0,1.0,1.0,0.0,1.0,1.0,1.0,1.0,0.0,4.0,4.0,5.0,7.0,8.0,6.0,3.0,5.0,4.0,3.0,2.0,1.0,6.0,5.367257791396696,4.343874042911921,3.303714469715487,2.358817564207129,0.9028169347438961,6.2065904190531,168.44519525708165,376.6397187598632,377.44813429785427,377.1191966488841,384.70737257623114,385.7059342737193,378.4649357810267,384.6990463869297
1,140,1,1,1.0,1.0,0.7233464296441525,0.0,4,8,6,2,7,1,nan,nan,nan,nan,nan,nan,nan,nan,nan,nan,nan,nan,0.0,nan,nan,nan,nan,nan,nan,nan,nan,nan,nan,nan,nan,nan,nan,nan,nan,nan,nan,168.44519525708165,385.90755748865195,nan,386.6309039182961,nan,nan,nan,nan
1,141,1,1,1.0,1.0,0.3951964972075075,0.0,2,6,4,7,3,5,nan,nan,nan,nan,nan,nan,nan,nan,nan,nan,nan,nan,0.0,nan,nan,nan,nan,nan,nan,nan,nan,nan,nan,nan,nan,nan,nan,nan,nan,nan,nan,168.44519525708165,386.90768948744517,nan,387.3028859846527,nan,nan,nan,nan
1,142,1,1,1.0,1.0,0.2267594402655959,0.0,3,8,7,0,6,1,nan,nan,nan,nan,nan,nan,nan,nan,nan,nan,nan,nan,0.0,nan,nan,nan,nan,nan,nan,nan,nan,nan,nan,nan,nan,nan,nan,nan,nan,nan,nan,168.44519525708165,387.9161123238737,nan,388.1428717641393,nan,nan,nan,nan
1,143,1,1,nan,nan,nan,0.0,6,0,1,2,4,8,nan,nan,nan,nan,nan,nan,nan,nan,nan,nan,nan,nan,0.0,nan,nan,nan,nan,nan,nan,nan,nan,nan,nan,nan,nan,nan,nan,nan,nan,nan,nan,168.44519525708165,388.9162828105036,nan,nan,nan,nan,nan,nan
1,144,1,1,1.0,1.0,0.7940630178782158,0.0,2,7,3,4,0,5,nan,nan,nan,nan,nan,nan,nan,nan,nan,nan,nan,nan,0.0,nan,nan,nan,nan,nan,nan,nan,nan,nan,nan,nan,nan,nan,nan,nan,nan,nan,nan,168.44519525708165,389.92472531844396,nan,390.7187883363222,nan,nan,nan,nan
1,145,1,1,1.0,1.0,0.40957553108455613,0.0,3,6,0,8,4,7,nan,nan,nan,nan,nan,nan,nan,nan,nan,nan,nan,nan,0.0,nan,nan,nan,nan,nan,nan,nan,nan,nan,nan,nan,nan,nan,nan,nan,nan,nan,nan,168.44519525708165,390.9331997570116,nan,391.34277528809616,nan,nan,nan,nan
1,146,1,1,1.0,1.0,0.2571077661123127,0.0,1,4,3,7,0,6,nan,nan,nan,nan,nan,nan,nan,nan,nan,nan,nan,nan,0.0,nan,nan,nan,nan,nan,nan,nan,nan,nan,nan,nan,nan,nan,nan,nan,nan,nan,nan,168.44519525708165,391.94164369039936,nan,392.1987514565117,nan,nan,nan,nan
1,147,1,1,1.0,1.0,0.3529317851061933,0.0,6,1,8,2,4,0,nan,nan,nan,nan,nan,nan,nan,nan,nan,nan,nan,nan,0.0,nan,nan,nan,nan,nan,nan,nan,nan,nan,nan,nan,nan,nan,nan,nan,nan,nan,nan,168.44519525708165,392.94179707136936,nan,393.29472885647556,nan,nan,nan,nan
1,148,1,1,1.0,1.0,0.2644674845505506,0.0,8,3,0,5,1,4,nan,nan,nan,nan,nan,nan,nan,nan,nan,nan,nan,nan,0.0,nan,nan,nan,nan,nan,nan,nan,nan,nan,nan,nan,nan,nan,nan,nan,nan,nan,nan,168.44519525708165,393.95023131155176,nan,394.2146987961023,nan,nan,nan,nan
1,149,0,0,1.0,0.0,0.2482835163245909,0.0,6,4,2,0,7,1,nan,nan,nan,nan,nan,nan,nan,nan,nan,nan,nan,nan,0.0,nan,nan,nan,nan,nan,nan,nan,nan,nan,nan,nan,nan,nan,nan,nan,nan,nan,nan,168.44519525708165,394.9503812713665,nan,395.1986647876911,nan,nan,nan,nan
1,150,1,1,1.0,1.0,0.7197989968699403,0.0,2,0,6,5,8,7,nan,nan,nan,nan,nan,nan,nan,nan,nan,nan,nan,nan,0.0,nan,nan,nan,nan,nan,nan,nan,nan,nan,nan,nan,nan,nan,nan,nan,nan,nan,nan,168.44519525708165,395.95881750719855,nan,396.6786165040685,nan,nan,nan,nan
1,151,1,1,1.0,1.0,0.2953098793514073,0.0,6,4,7,8,3,1,nan,nan,nan,nan,nan,nan,nan,nan,nan,nan,nan,nan,0.0,nan,nan,nan,nan,nan,nan,nan,nan,nan,nan,nan,nan,nan,nan,nan,nan,nan,nan,168.44519525708165,396.9672868140624,nan,397.2625966934138,nan,nan,nan,nan
1,152,1,1,1.0,1.0,0.038856975734233856,0.0,0,5,8,1,6,7,nan,nan,nan,nan,nan,nan,nan,nan,nan,nan,nan,nan,0.0,nan,nan,nan,nan,nan,nan,nan,nan,nan,nan,nan,nan,nan,nan,nan,nan,nan,nan,168.44519525708165,397.9757393003092,nan,398.01459627604345,nan,nan,nan,nan
1,153,1,1,nan,nan,nan,0.0,2,8,1,6,3,5,nan,nan,nan,nan,nan,nan,nan,nan,nan,nan,nan,nan,0.0,nan,nan,nan,nan,nan,nan,nan,nan,nan,nan,nan,nan,nan,nan,nan,nan,nan,nan,168.44519525708165,398.9758846986224,nan,nan,nan,nan,nan,nan
1,154,1,1,nan,nan,nan,0.0,7,5,8,2,6,0,nan,nan,nan,nan,nan,nan,nan,nan,nan,nan,nan,nan,0.0,nan,nan,nan,nan,nan,nan,nan,nan,nan,nan,nan,nan,nan,nan,nan,nan,nan,nan,168.44519525708165,399.9843294873135,nan,nan,nan,nan,nan,nan
1,155,1,1,1.0,1.0,0.006058261380530894,0.0,8,0,1,3,4,5,nan,nan,nan,nan,nan,nan,nan,nan,nan,nan,nan,nan,0.0,nan,nan,nan,nan,nan,nan,nan,nan,nan,nan,nan,nan,nan,nan,nan,nan,nan,nan,168.44519525708165,400.9844674731139,nan,400.99052573449444,nan,nan,nan,nan
1,156,1,1,1.0,1.0,0.27788489416707307,0.0,2,8,4,7,6,0,nan,nan,nan,nan,nan,nan,nan,nan,nan,nan,nan,nan,0.0,nan,nan,nan,nan,nan,nan,nan,nan,nan,nan,nan,nan,nan,nan,nan,nan,nan,nan,168.44519525708165,401.9845914893085,nan,402.2624763834756,nan,nan,nan,nan
1,157,1,1,1.0,1.0,0.26134199189255014,0.0,8,7,0,6,1,4,nan,nan,nan,nan,nan,nan,nan,nan,nan,nan,nan,nan,0.0,nan,nan,nan,nan,nan,nan,nan,nan,nan,nan,nan,nan,nan,nan,nan,nan,nan,nan,168.44519525708165,402.99310013919603,nan,403.2544421310886,nan,nan,nan,nan
1,158,1,1,1.0,1.0,0.25291601940989494,0.0,4,5,6,1,7,3,nan,nan,nan,nan,nan,nan,nan,nan,nan,nan,nan,nan,0.0,nan,nan,nan,nan,nan,nan,nan,nan,nan,nan,nan,nan,nan,nan,nan,nan,nan,nan,168.44519525708165,404.00149503635475,nan,404.25441105576465,nan,nan,nan,nan
1,159,1,1,1.0,1.0,0.30838688602671027,0.0,6,1,8,7,4,5,nan,nan,nan,nan,nan,nan,nan,nan,nan,nan,nan,nan,0.0,nan,nan,nan,nan,nan,nan,nan,nan,nan,nan,nan,nan,nan,nan,nan,nan,nan,nan,168.44519525708165,405.00998658058234,nan,405.31837346660905,nan,nan,nan,nan
1,160,1,1,1.0,1.0,0.31590882333694026,0.0,4,6,5,0,8,2,nan,nan,nan,nan,nan,nan,nan,nan,nan,nan,nan,nan,0.0,nan,nan,nan,nan,nan,nan,nan,nan,nan,nan,nan,nan,nan,nan,nan,nan,nan,nan,168.44519525708165,406.0184359308332,nan,406.33434475417016,nan,nan,nan,nan
1,161,1,1,1.0,1.0,0.2917276650550775,0.0,8,2,7,1,3,0,nan,nan,nan,nan,nan,nan,nan,nan,nan,nan,nan,nan,0.0,nan,nan,nan,nan,nan,nan,nan,nan,nan,nan,nan,nan,nan,nan,nan,nan,nan,nan,168.44519525708165,407.0185696402332,nan,407.31029730528826,nan,nan,nan,nan
1,162,1,1,1.0,1.0,0.27557420200901106,0.0,3,7,1,6,5,4,nan,nan,nan,nan,nan,nan,nan,nan,nan,nan,nan,nan,0.0,nan,nan,nan,nan,nan,nan,nan,nan,nan,nan,nan,nan,nan,nan,nan,nan,nan,nan,168.44519525708165,408.0186979328282,nan,408.29427213483723,nan,nan,nan,nan
1,163,1,1,1.0,1.0,0.2831021262682043,0.0,1,0,3,4,8,2,nan,nan,nan,nan,nan,nan,nan,nan,nan,nan,nan,nan,0.0,nan,nan,nan,nan,nan,nan,nan,nan,nan,nan,nan,nan,nan,nan,nan,nan,nan,nan,168.44519525708165,409.027146997978,nan,409.3102491242462,nan,nan,nan,nan
1,164,0,0,1.0,0.0,0.26661310688359663,0.0,7,8,0,1,2,4,nan,nan,nan,nan,nan,nan,nan,nan,nan,nan,nan,nan,0.0,nan,nan,nan,nan,nan,nan,nan,nan,nan,nan,nan,nan,nan,nan,nan,nan,nan,nan,168.44519525708165,410.0356248576427,nan,410.3022379645263,nan,nan,nan,nan
1,165,1,1,1.0,1.0,0.7221324965939857,0.0,3,6,8,7,5,2,nan,nan,nan,nan,nan,nan,nan,nan,nan,nan,nan,nan,0.0,nan,nan,nan,nan,nan,nan,nan,nan,nan,nan,nan,nan,nan,nan,nan,nan,nan,nan,168.44519525708165,411.04406365938485,nan,411.76619615597883,nan,nan,nan,nan
1,166,1,1,1.0,1.0,0.45766301645198837,0.0,5,8,3,6,0,1,nan,nan,nan,nan,nan,nan,nan,nan,nan,nan,nan,nan,0.0,nan,nan,nan,nan,nan,nan,nan,nan,nan,nan,nan,nan,nan,nan,nan,nan,nan,nan,168.44519525708165,412.0525155754294,nan,412.5101785918814,nan,nan,nan,nan
1,167,1,1,1.0,1.0,0.28915611130651087,0.0,3,4,6,7,5,8,nan,nan,nan,nan,nan,nan,nan,nan,nan,nan,nan,nan,0.0,nan,nan,nan,nan,nan,nan,nan,nan,nan,nan,nan,nan,nan,nan,nan,nan,nan,nan,168.44519525708165,413.0609971413505,nan,413.35015325265704,nan,nan,nan,nan
1,168,1,1,1.0,1.0,0.36099996377015486,0.0,1,0,7,5,2,6,nan,nan,nan,nan,nan,nan,nan,nan,nan,nan,nan,nan,0.0,nan,nan,nan,nan,nan,nan,nan,nan,nan,nan,nan,nan,nan,nan,nan,nan,nan,nan,168.44519525708165,414.0611502372194,nan,414.42215020098956,nan,nan,nan,nan
1,169,1,1,1.0,1.0,0.29651525954250246,0.0,6,4,1,3,0,5,nan,nan,nan,nan,nan,nan,nan,nan,nan,nan,nan,nan,0.0,nan,nan,nan,nan,nan,nan,nan,nan,nan,nan,nan,nan,nan,nan,nan,nan,nan,nan,168.44519525708165,415.06957364379195,nan,415.36608890333446,nan,nan,nan,nan
1,170,1,1,1.0,1.0,0.32804672815836966,0.0,5,2,6,0,7,3,nan,nan,nan,nan,nan,nan,nan,nan,nan,nan,nan,nan,0.0,nan,nan,nan,nan,nan,nan,nan,nan,nan,nan,nan,nan,nan,nan,nan,nan,nan,nan,168.44519525708165,416.0780201430898,nan,416.4060668712482,nan,nan,nan,nan
1,171,1,1,1.0,1.0,0.23154589434852824,0.0,1,4,3,5,0,6,nan,nan,nan,nan,nan,nan,nan,nan,nan,nan,nan,nan,0.0,nan,nan,nan,nan,nan,nan,nan,nan,nan,nan,nan,nan,nan,nan,nan,nan,nan,nan,168.44519525708165,417.0864794716472,nan,417.3180253659957,nan,nan,nan,nan
1,172,1,1,1.0,1.0,0.2313776885275729,0.0,4,3,7,1,6,2,nan,nan,nan,nan,nan,nan,nan,nan,nan,nan,nan,nan,0.0,nan,nan,nan,nan,nan,nan,nan,nan,nan,nan,nan,nan,nan,nan,nan,nan,nan,nan,168.44519525708165,418.0866282910574,nan,418.318005979585,nan,nan,nan,nan
1,173,1,1,1.0,1.0,0.3909229284035973,0.0,1,4,6,8,7,5,nan,nan,nan,nan,nan,nan,nan,nan,nan,nan,nan,nan,0.0,nan,nan,nan,nan,nan,nan,nan,nan,nan,nan,nan,nan,nan,nan,nan,nan,nan,nan,168.44519525708165,419.0950442851754,nan,419.485967213579,nan,nan,nan,nan
1,174,1,1,1.0,1.0,0.4067083342233673,0.0,4,2,0,5,8,7,nan,nan,nan,nan,nan,nan,nan,nan,nan,nan,nan,nan,0.0,nan,nan,nan,nan,nan,nan,nan,nan,nan,nan,nan,nan,nan,nan,nan,nan,nan,nan,168.44519525708165,420.0952210438554,nan,420.5019293780788,nan,nan,nan,nan
1,175,1,1,1.0,1.0,0.3262722990475595,0.0,8,0,2,7,6,5,nan,nan,nan,nan,nan,nan,nan,nan,nan,nan,nan,nan,0.0,nan,nan,nan,nan,nan,nan,nan,nan,nan,nan,nan,nan,nan,nan,nan,nan,nan,nan,168.44519525708165,421.1036515778396,nan,421.4299238768872,nan,nan,nan,nan
1,176,1,1,1.0,1.0,0.5980746987625025,0.0,2,7,1,4,5,6,nan,nan,nan,nan,nan,nan,nan,nan,nan,nan,nan,nan,0.0,nan,nan,nan,nan,nan,nan,nan,nan,nan,nan,nan,nan,nan,nan,nan,nan,nan,nan,168.44519525708165,422.10380381840514,nan,422.70187851716764,nan,nan,nan,nan
1,177,0,0,0.0,1.0,0.6619071064633317,1.0,6,1,3,2,8,7,1.0,1.0,1.0,1.0,1.0,1.0,1.0,1.0,0.0,1.0,1.0,1.0,5.0,6.0,1.0,0.0,2.0,8.0,7.0,1.0,6.0,5.0,4.0,3.0,2.0,1.2463782287668437,6.156550035346299,5.429018986411393,4.405660326243378,2.9900427841348574,2.223192906123586,168.44519525708165,423.1039361022995,423.9123388110311,423.7658432087628,431.12988912384026,432.1302628829144,424.9374653432169,431.12155951338354
1,178,1,1,1.0,1.0,0.6911620942410082,0.0,3,0,8,5,6,1,nan,nan,nan,nan,nan,nan,nan,nan,nan,nan,nan,nan,0.0,nan,nan,nan,nan,nan,nan,nan,nan,nan,nan,nan,nan,nan,nan,nan,nan,nan,nan,168.44519525708165,432.3384119144757,nan,433.02957400871674,nan,nan,nan,nan
1,179,1,1,1.0,1.0,0.3630078854621388,0.0,8,4,7,1,5,2,nan,nan,nan,nan,nan,nan,nan,nan,nan,nan,nan,nan,0.0,nan,nan,nan,nan,nan,nan,nan,nan,nan,nan,nan,nan,nan,nan,nan,nan,nan,nan,168.44519525708165,433.3385470493231,nan,433.70155493478524,nan,nan,nan,nan
1,180,1,1,1.0,1.0,0.2505437468062155,0.0,5,8,2,7,3,0,nan,nan,nan,nan,nan,nan,nan,nan,nan,nan,nan,nan,0.0,nan,nan,nan,nan,nan,nan,nan,nan,nan,nan,nan,nan,nan,nan,nan,nan,nan,nan,168.44519525708165,434.34698699141154,nan,434.59753073821776,nan,nan,nan,nan
1,181,1,1,1.0,1.0,0.2664106896845624,0.0,3,1,5,6,7,2,nan,nan,nan,nan,nan,nan,nan,nan,nan,nan,nan,nan,0.0,nan,nan,nan,nan,nan,nan,nan,nan,nan,nan,nan,nan,nan,nan,nan,nan,nan,nan,168.44519525708165,435.3470973230433,nan,435.61350801272783,nan,nan,nan,nan
1,182,0,0,1.0,0.0,0.27421629620948806,0.0,5,8,0,2,1,3,nan,nan,nan,nan,nan,nan,nan,nan,nan,nan,nan,nan,0.0,nan,nan,nan,nan,nan,nan,nan,nan,nan,nan,nan,nan,nan,nan,nan,nan,nan,nan,168.44519525708165,436.347258971713,nan,436.6214752679225,nan,nan,nan,nan
1,183,1,1,1.0,1.0,0.4340169807546772,0.0,7,2,5,1,0,6,nan,nan,nan,nan,nan,nan,nan,nan,nan,nan,nan,nan,0.0,nan,nan,nan,nan,nan,nan,nan,nan,nan,nan,nan,nan,nan,nan,nan,nan,nan,nan,168.44519525708165,437.3473812773591,nan,437.78139825811377,nan,nan,nan,nan
1,184,1,1,1.0,1.0,0.26591148891020566,0.0,5,8,7,0,6,4,nan,nan,nan,nan,nan,nan,nan,nan,nan,nan,nan,nan,0.0,nan,nan,nan,nan,nan,nan,nan,nan,nan,nan,nan,nan,nan,nan,nan,nan,nan,nan,168.44519525708165,438.3475095699541,nan,438.61342105886433,nan,nan,nan,nan
1,185,1,1,1.0,1.0,0.1697473519598134,0.0,8,4,3,6,7,0,nan,nan,nan,nan,nan,nan,nan,nan,nan,nan,nan,nan,0.0,nan,nan,nan,nan,nan,nan,nan,nan,nan,nan,nan,nan,nan,nan,nan,nan,nan,nan,168.44519525708165,439.34763757744804,nan,439.51738492940785,nan,nan,nan,nan
1,186,1,1,1.0,1.0,0.11358798178844154,0.0,2,8,5,0,1,7,nan,nan,nan,nan,nan,nan,nan,nan,nan,nan,nan,nan,0.0,nan,nan,nan,nan,nan,nan,nan,nan,nan,nan,nan,nan,nan,nan,nan,nan,nan,nan,168.44519525708165,440.34776529984083,nan,440.4613532816293,nan,nan,nan,nan
1,187,1,1,1.0,1.0,0.07346062426222488,0.0,4,2,3,5,7,1,nan,nan,nan,nan,nan,nan,nan,nan,nan,nan,nan,nan,0.0,nan,nan,nan,nan,nan,nan,nan,nan,nan,nan,nan,nan,nan,nan,nan,nan,nan,nan,168.44519525708165,441.34788047807524,nan,441.42134110233746,nan,nan,nan,nan
1,188,1,1,1.0,1.0,0.041288262931630015,0.0,7,8,6,1,4,5,nan,nan,nan,nan,nan,nan,nan,nan,nan,nan,nan,nan,0.0,nan,nan,nan,nan,nan,nan,nan,nan,nan,nan,nan,nan,nan,nan,nan,nan,nan,nan,168.44519525708165,442.3480207446264,nan,442.38930900755804,nan,nan,nan,nan
1,189,1,1,1.0,1.0,0.009138138906564564,0.0,3,1,5,8,7,2,nan,nan,nan,nan,nan,nan,nan,nan,nan,nan,nan,nan,0.0,nan,nan,nan,nan,nan,nan,nan,nan,nan,nan,nan,nan,nan,nan,nan,nan,nan,nan,168.44519525708165,443.3481382036116,nan,443.35727634251816,nan,nan,nan,nan
1,190,1,1,1.0,1.0,0.22495678678387776,0.0,7,4,0,1,6,5,nan,nan,nan,nan,nan,nan,nan,nan,nan,nan,nan,nan,0.0,nan,nan,nan,nan,nan,nan,nan,nan,nan,nan,nan,nan,nan,nan,nan,nan,nan,nan,168.44519525708165,444.3482776149176,nan,444.5732344017015,nan,nan,nan,nan
1,191,1,1,1.0,1.0,0.3848142052302137,0.0,6,7,8,0,3,4,nan,nan,nan,nan,nan,nan,nan,nan,nan,nan,nan,nan,0.0,nan,nan,nan,nan,nan,nan,nan,nan,nan,nan,nan,nan,nan,nan,nan,nan,nan,nan,168.44519525708165,445.34839336335426,nan,445.7332075685845,nan,nan,nan,nan
1,192,0,0,1.0,0.0,0.39234298485098407,1.0,0,8,5,7,2,3,1.0,1.0,1.0,1.0,1.0,1.0,1.0,0.0,0.0,0.0,0.0,1.0,2.0,0.0,3.0,2.0,4.0,7.0,3.0,1.0,6.0,5.0,4.0,3.0,2.0,1.0158618111745454,5.567486038198695,4.888063001330011,4.047441745875403,2.9275651462376118,1.784860732674133,168.44519525708165,446.3568410029984,447.1652554006432,446.7491839878494,453.79108235333115,454.79640535556246,448.1820623006206,453.7827601552708
1,193,1,1,nan,nan,nan,0.0,5,4,1,2,3,0,nan,nan,nan,nan,nan,nan,nan,nan,nan,nan,nan,nan,0.0,nan,nan,nan,nan,nan,nan,nan,nan,nan,nan,nan,nan,nan,nan,nan,nan,nan,nan,168.44519525708165,454.9995963060064,nan,nan,nan,nan,nan,nan
1,194,1,1,1.0,1.0,0.38913082337239757,0.0,1,8,7,4,2,5,nan,nan,nan,nan,nan,nan,nan,nan,nan,nan,nan,nan,0.0,nan,nan,nan,nan,nan,nan,nan,nan,nan,nan,nan,nan,nan,nan,nan,nan,nan,nan,168.44519525708165,455.99973201105604,nan,456.38886283442844,nan,nan,nan,nan
1,195,1,1,1.0,1.0,0.28466216422384605,0.0,4,7,5,6,3,2,nan,nan,nan,nan,nan,nan,nan,nan,nan,nan,nan,nan,0.0,nan,nan,nan,nan,nan,nan,nan,nan,nan,nan,nan,nan,nan,nan,nan,nan,nan,nan,168.44519525708165,457.00820103281876,nan,457.2928631970426,nan,nan,nan,nan
1,196,1,1,1.0,1.0,0.14821643359027803,0.0,2,0,3,8,7,4,nan,nan,nan,nan,nan,nan,nan,nan,nan,nan,nan,nan,0.0,nan,nan,nan,nan,nan,nan,nan,nan,nan,nan,nan,nan,nan,nan,nan,nan,nan,nan,168.44519525708165,458.0166392643587,nan,458.16485569794895,nan,nan,nan,nan
1,197,1,1,1.0,1.0,0.19603592989733443,0.0,1,4,6,0,8,3,nan,nan,nan,nan,nan,nan,nan,nan,nan,nan,nan,nan,0.0,nan,nan,nan,nan,nan,nan,nan,nan,nan,nan,nan,nan,nan,nan,nan,nan,nan,nan,168.44519525708165,459.0167840924114,nan,459.21282002230873,nan,nan,nan,nan
1,198,1,1,1.0,1.0,0.24356120853917673,0.0,8,7,3,2,6,4,nan,nan,nan,nan,nan,nan,nan,nan,nan,nan,nan,nan,0.0,nan,nan,nan,nan,nan,nan,nan,nan,nan,nan,nan,nan,nan,nan,nan,nan,nan,nan,168.44519525708165,460.02522916620364,nan,460.2687903747428,nan,nan,nan,nan
1,199,1,1,1.0,1.0,0.2670681179733947,0.0,3,8,6,5,0,1,nan,nan,nan,nan,nan,nan,nan,nan,nan,nan,nan,nan,0.0,nan,nan,nan,nan,nan,nan,nan,nan,nan,nan,nan,nan,nan,nan,nan,nan,nan,nan,168.44519525708165,461.0336910606129,nan,461.3007591785863,nan,nan,nan,nan
1,200,1,1,1.0,1.0,0.3308985299663618,0.0,6,0,7,8,2,4,nan,nan,nan,nan,nan,nan,nan,nan,nan,nan,nan,nan,0.0,nan,nan,nan,nan,nan,nan,nan,nan,nan,nan,nan,nan,nan,nan,nan,nan,nan,nan,168.44519525708165,462.03383588872384,nan,462.3647344186902,nan,nan,nan,nan
1,201,1,1,1.0,1.0,0.3067461662576534,0.0,0,8,6,7,3,2,nan,nan,nan,nan,nan,nan,nan,nan,nan,nan,nan,nan,0.0,nan,nan,nan,nan,nan,nan,nan,nan,nan,nan,nan,nan,nan,nan,nan,nan,nan,nan,168.44519525708165,463.0339641813189,nan,463.34071034757653,nan,nan,nan,nan
1,202,0,0,1.0,0.0,0.24257364071672782,1.0,8,1,3,2,4,5,1.0,1.0,1.0,1.0,1.0,1.0,0.0,0.0,0.0,0.0,1.0,1.0,2.0,2.0,3.0,1.0,7.0,4.0,5.0,6.0,3.0,4.0,5.0,2.0,1.0,5.409750294114929,2.633652515767608,3.2818514160462655,4.370010950486176,1.6684132515219972,0.9382151421159506,168.44519525708165,464.0340950397076,464.84248434903566,464.27666868042434,471.3016178836697,472.2991409813403,465.8509485241957,471.2932874179096
1,203,1,1,1.0,1.0,0.3506319265579805,0.0,1,7,6,0,8,2,nan,nan,nan,nan,nan,nan,nan,nan,nan,nan,nan,nan,0.0,nan,nan,nan,nan,nan,nan,nan,nan,nan,nan,nan,nan,nan,nan,nan,nan,nan,nan,168.44519525708165,472.5018005152815,nan,472.8524324418395,nan,nan,nan,nan
1,204,1,1,1.0,1.0,0.2624578523100354,0.0,5,0,3,1,2,8,nan,nan,nan,nan,nan,nan,nan,nan,nan,nan,nan,nan,0.0,nan,nan,nan,nan,nan,nan,nan,nan,nan,nan,nan,nan,nan,nan,nan,nan,nan,nan,168.44519525708165,473.50193393958034,nan,473.7643917918904,nan,nan,nan,nan
1,205,1,1,1.0,1.0,0.17395363847026601,0.0,0,3,7,5,6,2,nan,nan,nan,nan,nan,nan,nan,nan,nan,nan,nan,nan,0.0,nan,nan,nan,nan,nan,nan,nan,nan,nan,nan,nan,nan,nan,nan,nan,nan,nan,nan,168.44519525708165,474.51041436515516,nan,474.6843680036254,nan,nan,nan,nan
1,206,1,1,1.0,1.0,0.1734872236265801,0.0,6,7,2,1,3,4,nan,nan,nan,nan,nan,nan,nan,nan,nan,nan,nan,nan,0.0,nan,nan,nan,nan,nan,nan,nan,nan,nan,nan,nan,nan,nan,nan,nan,nan,nan,nan,168.44519525708165,475.51885259669507,nan,475.69233982032165,nan,nan,nan,nan
1,207,1,1,1.0,1.0,0.061334123252891004,0.0,7,4,8,6,5,0,nan,nan,nan,nan,nan,nan,nan,nan,nan,nan,nan,nan,0.0,nan,nan,nan,nan,nan,nan,nan,nan,nan,nan,nan,nan,nan,nan,nan,nan,nan,nan,168.44519525708165,476.5189820296364,nan,476.5803161528893,nan,nan,nan,nan
1,208,1,1,1.0,1.0,0.08486925705801696,0.0,4,7,5,8,1,2,nan,nan,nan,nan,nan,nan,nan,nan,nan,nan,nan,nan,0.0,nan,nan,nan,nan,nan,nan,nan,nan,nan,nan,nan,nan,nan,nan,nan,nan,nan,nan,168.44519525708165,477.52742738852976,nan,477.6122966455878,nan,nan,nan,nan
1,209,1,1,1.0,1.0,0.036684554477687925,0.0,7,6,1,4,5,3,nan,nan,nan,nan,nan,nan,nan,nan,nan,nan,nan,nan,0.0,nan,nan,nan,nan,nan,nan,nan,nan,nan,nan,nan,nan,nan,nan,nan,nan,nan,nan,168.44519525708165,478.52757307188585,nan,478.56425762636354,nan,nan,nan,nan
1,210,1,1,1.0,1.0,0.04454176308354363,0.0,2,0,7,6,8,5,nan,nan,nan,nan,nan,nan,nan,nan,nan,nan,nan,nan,0.0,nan,nan,nan,nan,nan,nan,nan,nan,nan,nan,nan,nan,nan,nan,nan,nan,nan,nan,168.44519525708165,479.5277025048854,nan,479.5722442679689,nan,nan,nan,nan
1,211,1,1,1.0,1.0,0.02838288329076022,0.0,6,5,8,7,1,0,nan,nan,nan,nan,nan,nan,nan,nan,nan,nan,nan,nan,0.0,nan,nan,nan,nan,nan,nan,nan,nan,nan,nan,nan,nan,nan,nan,nan,nan,nan,nan,168.44519525708165,480.52782224462135,nan,480.5562051279121,nan,nan,nan,nan
1,212,1,1,1.0,1.0,0.0922426600009203,0.0,7,6,1,3,8,2,nan,nan,nan,nan,nan,nan,nan,nan,nan,nan,nan,nan,0.0,nan,nan,nan,nan,nan,nan,nan,nan,nan,nan,nan,nan,nan,nan,nan,nan,nan,nan,168.44519525708165,481.52793856326025,nan,481.62018122326117,nan,nan,nan,nan
1,213,0,0,1.0,0.0,0.09175742894876748,1.0,3,2,7,8,1,6,1.0,1.0,1.0,1.0,1.0,1.0,0.0,1.0,1.0,1.0,1.0,1.0,5.0,0.0,2.0,7.0,8.0,1.0,6.0,6.0,5.0,4.0,3.0,2.0,1.0,4.611180785112083,4.05091619445011,3.242978190013673,2.6040089440066367,1.8132498880149797,1.037255028844811,168.44519525708165,482.53639333025785,483.3448197018588,482.6281507592066,489.00385191384703,490.0046387751354,484.3532784602139,488.9955245841411
1,214,1,1,0.0,0.0,0.5115419144858606,0.0,8,6,2,1,4,5,nan,nan,nan,nan,nan,nan,nan,nan,nan,nan,nan,nan,0.0,nan,nan,nan,nan,nan,nan,nan,nan,nan,nan,nan,nan,nan,nan,nan,nan,nan,nan,168.44519525708165,490.21236130502075,nan,490.7239032195066,nan,nan,nan,nan
1,215,1,1,nan,nan,nan,0.0,7,3,5,4,0,2,nan,nan,nan,nan,nan,nan,nan,nan,nan,nan,nan,nan,0.0,nan,nan,nan,nan,nan,nan,nan,nan,nan,nan,nan,nan,nan,nan,nan,nan,nan,nan,168.44519525708165,491.2124964398681,nan,nan,nan,nan,nan,nan
1,216,0,0,1.0,0.0,0.03926836728351191,0.0,4,2,8,7,1,0,nan,nan,nan,nan,nan,nan,nan,nan,nan,nan,nan,nan,0.0,nan,nan,nan,nan,nan,nan,nan,nan,nan,nan,nan,nan,nan,nan,nan,nan,nan,nan,168.44519525708165,492.21262444742024,nan,492.25189281470375,nan,nan,nan,nan
1,217,1,1,0.0,0.0,0.5827545674401335,0.0,7,4,3,2,6,1,nan,nan,nan,nan,nan,nan,nan,nan,nan,nan,nan,nan,0.0,nan,nan,nan,nan,nan,nan,nan,nan,nan,nan,nan,nan,nan,nan,nan,nan,nan,nan,168.44519525708165,493.22107180196326,nan,493.8038263694034,nan,nan,nan,nan
1,218,1,1,1.0,1.0,0.7665528093930334,0.0,1,0,7,6,2,5,nan,nan,nan,nan,nan,nan,nan,nan,nan,nan,nan,nan,0.0,nan,nan,nan,nan,nan,nan,nan,nan,nan,nan,nan,nan,nan,nan,nan,nan,nan,nan,168.44519525708165,494.22120437095873,nan,494.98775718035176,nan,nan,nan,nan
1,219,1,1,1.0,1.0,0.3184236432425678,0.0,2,5,1,8,4,7,nan,nan,nan,nan,nan,nan,nan,nan,nan,nan,nan,nan,0.0,nan,nan,nan,nan,nan,nan,nan,nan,nan,nan,nan,nan,nan,nan,nan,nan,nan,nan,168.44519525708165,495.22133636981016,nan,495.5397600130527,nan,nan,nan,nan
1,220,1,1,1.0,1.0,0.2542784867109731,0.0,5,3,6,4,8,0,nan,nan,nan,nan,nan,nan,nan,nan,nan,nan,nan,nan,0.0,nan,nan,nan,nan,nan,nan,nan,nan,nan,nan,nan,nan,nan,nan,nan,nan,nan,nan,168.44519525708165,496.22145896049915,nan,496.4757374472101,nan,nan,nan,nan
1,221,1,1,1.0,1.0,0.26984123361762613,0.0,4,8,5,2,1,3,nan,nan,nan,nan,nan,nan,nan,nan,nan,nan,nan,nan,0.0,nan,nan,nan,nan,nan,nan,nan,nan,nan,nan,nan,nan,nan,nan,nan,nan,nan,nan,168.44519525708165,497.2298923454364,nan,497.499733579054,nan,nan,nan,nan
1,222,1,1,1.0,1.0,0.18165119411423802,0.0,0,6,3,1,2,7,nan,nan,nan,nan,nan,nan,nan,nan,nan,nan,nan,nan,0.0,nan,nan,nan,nan,nan,nan,nan,nan,nan,nan,nan,nan,nan,nan,nan,nan,nan,nan,168.44519525708165,498.2300445859437,nan,498.4116957800579,nan,nan,nan,nan
1,223,0,0,1.0,0.0,0.18119703832780942,0.0,2,1,4,3,0,5,nan,nan,nan,nan,nan,nan,nan,nan,nan,nan,nan,nan,0.0,nan,nan,nan,nan,nan,nan,nan,nan,nan,nan,nan,nan,nan,nan,nan,nan,nan,nan,168.44519525708165,499.2384560186183,nan,499.4196530569461,nan,nan,nan,nan
1,224,1,1,1.0,1.0,0.6046438498306088,0.0,1,0,2,6,7,3,nan,nan,nan,nan,nan,nan,nan,nan,nan,nan,nan,nan,0.0,nan,nan,nan,nan,nan,nan,nan,nan,nan,nan,nan,nan,nan,nan,nan,nan,nan,nan,168.44519525708165,500.2469564007479,nan,500.8516002505785,nan,nan,nan,nan
1,225,1,1,1.0,1.0,0.3321691968594678,0.0,2,6,1,3,0,4,nan,nan,nan,nan,nan,nan,nan,nan,nan,nan,nan,nan,0.0,nan,nan,nan,nan,nan,nan,nan,nan,nan,nan,nan,nan,nan,nan,nan,nan,nan,nan,168.44519525708165,501.2554148740019,nan,501.58758407086134,nan,nan,nan,nan
1,226,1,1,1.0,1.0,0.2440082369139418,0.0,4,1,7,8,6,3,nan,nan,nan,nan,nan,nan,nan,nan,nan,nan,nan,nan,0.0,nan,nan,nan,nan,nan,nan,nan,nan,nan,nan,nan,nan,nan,nan,nan,nan,nan,nan,168.44519525708165,502.25555257475935,nan,502.4995608116733,nan,nan,nan,nan
1,227,1,1,1.0,1.0,0.25987318420084193,0.0,2,6,1,5,3,4,nan,nan,nan,nan,nan,nan,nan,nan,nan,nan,nan,nan,0.0,nan,nan,nan,nan,nan,nan,nan,nan,nan,nan,nan,nan,nan,nan,nan,nan,nan,nan,168.44519525708165,503.2556888500112,nan,503.51556203421205,nan,nan,nan,nan
1,228,1,1,1.0,1.0,0.2917125550447963,0.0,4,2,0,6,1,8,nan,nan,nan,nan,nan,nan,nan,nan,nan,nan,nan,nan,0.0,nan,nan,nan,nan,nan,nan,nan,nan,nan,nan,nan,nan,nan,nan,nan,nan,nan,nan,168.44519525708165,504.25579433498206,nan,504.54750689002685,nan,nan,nan,nan
1,229,1,1,1.0,1.0,0.5552281084819697,0.0,5,1,4,8,7,3,nan,nan,nan,nan,nan,nan,nan,nan,nan,nan,nan,nan,0.0,nan,nan,nan,nan,nan,nan,nan,nan,nan,nan,nan,nan,nan,nan,nan,nan,nan,nan,168.44519525708165,505.26424482563743,nan,505.8194729341194,nan,nan,nan,nan
1,230,1,1,1.0,1.0,0.46707883750787005,0.0,0,4,6,3,1,7,nan,nan,nan,nan,nan,nan,nan,nan,nan,nan,nan,nan,0.0,nan,nan,nan,nan,nan,nan,nan,nan,nan,nan,nan,nan,nan,nan,nan,nan,nan,nan,168.44519525708165,506.2643788200803,nan,506.7314576575882,nan,nan,nan,nan
1,231,1,1,1.0,1.0,0.36291551479371265,0.0,8,3,4,0,6,2,nan,nan,nan,nan,nan,nan,nan,nan,nan,nan,nan,nan,0.0,nan,nan,nan,nan,nan,nan,nan,nan,nan,nan,nan,nan,nan,nan,nan,nan,nan,nan,168.44519525708165,507.2645145251299,nan,507.62743003992364,nan,nan,nan,nan
1,232,0,0,0.0,1.0,0.4507508965325542,0.0,3,8,1,2,4,7,nan,nan,nan,nan,nan,nan,nan,nan,nan,nan,nan,nan,0.0,nan,nan,nan,nan,nan,nan,nan,nan,nan,nan,nan,nan,nan,nan,nan,nan,nan,nan,168.44519525708165,508.26464110717643,nan,508.715392003709,nan,nan,nan,nan
1,233,1,1,nan,nan,nan,0.0,8,5,2,6,0,3,nan,nan,nan,nan,nan,nan,nan,nan,nan,nan,nan,nan,0.0,nan,nan,nan,nan,nan,nan,nan,nan,nan,nan,nan,nan,nan,nan,nan,nan,nan,nan,168.44519525708165,509.264733762946,nan,nan,nan,nan,nan,nan
1,234,1,1,1.0,1.0,0.5544010489247739,0.0,3,6,0,7,4,1,nan,nan,nan,nan,nan,nan,nan,nan,nan,nan,nan,nan,0.0,nan,nan,nan,nan,nan,nan,nan,nan,nan,nan,nan,nan,nan,nan,nan,nan,nan,nan,168.44519525708165,510.26488828426227,nan,510.81928933318704,nan,nan,nan,nan
1,235,1,1,1.0,1.0,0.32230235601309687,0.0,6,5,8,4,2,0,nan,nan,nan,nan,nan,nan,nan,nan,nan,nan,nan,nan,0.0,nan,nan,nan,nan,nan,nan,nan,nan,nan,nan,nan,nan,nan,nan,nan,nan,nan,nan,168.44519525708165,511.26500317739556,nan,511.58730553340865,nan,nan,nan,nan
1,236,0,0,1.0,0.0,0.2501446142559871,0.0,3,4,0,8,6,7,nan,nan,nan,nan,nan,nan,nan,nan,nan,nan,nan,nan,0.0,nan,nan,nan,nan,nan,nan,nan,nan,nan,nan,nan,nan,nan,nan,nan,nan,nan,nan,168.44519525708165,512.2651414482971,nan,512.5152860625531,nan,nan,nan,nan
1,237,1,1,1.0,1.0,0.4579754801816307,0.0,1,6,7,2,4,0,nan,nan,nan,nan,nan,nan,nan,nan,nan,nan,nan,nan,0.0,nan,nan,nan,nan,nan,nan,nan,nan,nan,nan,nan,nan,nan,nan,nan,nan,nan,nan,168.44519525708165,513.265266604838,nan,513.7232420850196,nan,nan,nan,nan
1,238,1,1,1.0,1.0,0.4418223022366874,0.0,7,2,3,8,1,4,nan,nan,nan,nan,nan,nan,nan,nan,nan,nan,nan,nan,0.0,nan,nan,nan,nan,nan,nan,nan,nan,nan,nan,nan,nan,nan,nan,nan,nan,nan,nan,168.44519525708165,514.2654000291368,nan,514.7072223313735,nan,nan,nan,nan
1,239,1,1,1.0,1.0,0.3776839879574254,0.0,8,3,0,6,4,5,nan,nan,nan,nan,nan,nan,nan,nan,nan,nan,nan,nan,0.0,nan,nan,nan,nan,nan,nan,nan,nan,nan,nan,nan,nan,nan,nan,nan,nan,nan,nan,168.44519525708165,515.2655157775735,nan,515.6431997655309,nan,nan,nan,nan
1,240,1,1,0.0,0.0,0.3455113415257074,0.0,6,0,3,4,7,8,nan,nan,nan,nan,nan,nan,nan,nan,nan,nan,nan,nan,0.0,nan,nan,nan,nan,nan,nan,nan,nan,nan,nan,nan,nan,nan,nan,nan,nan,nan,nan,168.44519525708165,516.2656534782727,nan,516.6111648197984,nan,nan,nan,nan
1,241,1,1,1.0,1.0,0.32936928229173645,0.0,2,5,1,7,4,3,nan,nan,nan,nan,nan,nan,nan,nan,nan,nan,nan,nan,0.0,nan,nan,nan,nan,nan,nan,nan,nan,nan,nan,nan,nan,nan,nan,nan,nan,nan,nan,168.44519525708165,517.265779490117,nan,517.5951487724087,nan,nan,nan,nan
1,242,1,1,1.0,1.0,0.2572052684263326,0.0,6,0,8,4,3,7,nan,nan,nan,nan,nan,nan,nan,nan,nan,nan,nan,nan,0.0,nan,nan,nan,nan,nan,nan,nan,nan,nan,nan,nan,nan,nan,nan,nan,nan,nan,nan,168.44519525708165,518.2658978044055,nan,518.5231030728319,nan,nan,nan,nan
1,243,1,1,1.0,1.0,0.20105587650323287,0.0,2,4,1,8,6,5,nan,nan,nan,nan,nan,nan,nan,nan,nan,nan,nan,nan,0.0,nan,nan,nan,nan,nan,nan,nan,nan,nan,nan,nan,nan,nan,nan,nan,nan,nan,nan,168.44519525708165,519.2660249566543,nan,519.4670808331575,nan,nan,nan,nan
1,244,1,1,1.0,1.0,0.4488963558105752,0.0,4,7,8,1,0,6,nan,nan,nan,nan,nan,nan,nan,nan,nan,nan,nan,nan,0.0,nan,nan,nan,nan,nan,nan,nan,nan,nan,nan,nan,nan,nan,nan,nan,nan,nan,nan,168.44519525708165,520.2661543895956,nan,520.7150507454062,nan,nan,nan,nan
1,245,1,1,1.0,1.0,0.36074993578949943,0.0,7,6,5,3,8,2,nan,nan,nan,nan,nan,nan,nan,nan,nan,nan,nan,nan,0.0,nan,nan,nan,nan,nan,nan,nan,nan,nan,nan,nan,nan,nan,nan,nan,nan,nan,nan,168.44519525708165,521.2662692827289,nan,521.6270192185184,nan,nan,nan,nan
1,246,1,1,1.0,1.0,0.48058035009307787,0.0,2,0,7,8,6,3,nan,nan,nan,nan,nan,nan,nan,nan,nan,nan,nan,nan,0.0,nan,nan,nan,nan,nan,nan,nan,nan,nan,nan,nan,nan,nan,nan,nan,nan,nan,nan,168.44519525708165,522.2664109747857,nan,522.7469913248788,nan,nan,nan,nan
1,247,1,1,1.0,1.0,0.3844484288129024,0.0,0,3,4,2,1,6,nan,nan,nan,nan,nan,nan,nan,nan,nan,nan,nan,nan,0.0,nan,nan,nan,nan,nan,nan,nan,nan,nan,nan,nan,nan,nan,nan,nan,nan,nan,nan,168.44519525708165,523.2665127535583,nan,523.6509611823712,nan,nan,nan,nan
1,248,0,0,0.0,1.0,0.43228617118438706,0.0,7,5,2,1,4,8,nan,nan,nan,nan,nan,nan,nan,nan,nan,nan,nan,nan,0.0,nan,nan,nan,nan,nan,nan,nan,nan,nan,nan,nan,nan,nan,nan,nan,nan,nan,nan,168.44519525708165,524.2666521648644,nan,524.6989383360487,nan,nan,nan,nan
1,249,1,1,1.0,1.0,0.5121246479684487,0.0,5,2,3,7,0,4,nan,nan,nan,nan,nan,nan,nan,nan,nan,nan,nan,nan,0.0,nan,nan,nan,nan,nan,nan,nan,nan,nan,nan,nan,nan,nan,nan,nan,nan,nan,nan,168.44519525708165,525.2667778916075,nan,525.7789025395759,nan,nan,nan,nan
1,250,1,1,1.0,1.0,0.32796975260134786,0.0,3,1,2,0,4,8,nan,nan,nan,nan,nan,nan,nan,nan,nan,nan,nan,nan,0.0,nan,nan,nan,nan,nan,nan,nan,nan,nan,nan,nan,nan,nan,nan,nan,nan,nan,nan,168.44519525708165,526.266905043798,nan,526.5948747963994,nan,nan,nan,nan
1,251,1,1,1.0,1.0,0.2718291986384429,0.0,6,2,7,1,8,5,nan,nan,nan,nan,nan,nan,nan,nan,nan,nan,nan,nan,0.0,nan,nan,nan,nan,nan,nan,nan,nan,nan,nan,nan,nan,nan,nan,nan,nan,nan,nan,168.44519525708165,527.2670287748915,nan,527.53885797353,nan,nan,nan,nan
1,252,1,1,1.0,1.0,0.14335072314133868,0.0,8,7,5,4,0,3,nan,nan,nan,nan,nan,nan,nan,nan,nan,nan,nan,nan,0.0,nan,nan,nan,nan,nan,nan,nan,nan,nan,nan,nan,nan,nan,nan,nan,nan,nan,nan,168.44519525708165,528.2754727083375,nan,528.4188234314788,nan,nan,nan,nan
1,253,1,1,1.0,1.0,0.11918039846932516,0.0,0,8,2,6,3,7,nan,nan,nan,nan,nan,nan,nan,nan,nan,nan,nan,nan,0.0,nan,nan,nan,nan,nan,nan,nan,nan,nan,nan,nan,nan,nan,nan,nan,nan,nan,nan,168.44519525708165,529.2756067028386,nan,529.3947871013079,nan,nan,nan,nan
1,254,1,1,1.0,1.0,0.7347308293101378,0.0,7,4,3,1,5,0,nan,nan,nan,nan,nan,nan,nan,nan,nan,nan,nan,nan,0.0,nan,nan,nan,nan,nan,nan,nan,nan,nan,nan,nan,nan,nan,nan,nan,nan,nan,nan,168.44519525708165,530.2840529169771,nan,531.0187837462872,nan,nan,nan,nan
1,255,1,1,1.0,1.0,0.45451500127092004,0.0,2,7,1,4,0,5,nan,nan,nan,nan,nan,nan,nan,nan,nan,nan,nan,nan,0.0,nan,nan,nan,nan,nan,nan,nan,nan,nan,nan,nan,nan,nan,nan,nan,nan,nan,nan,168.44519525708165,531.284203161893,nan,531.7387181631639,nan,nan,nan,nan
1,256,1,1,1.0,1.0,0.3100655233138241,0.0,7,5,0,8,3,1,nan,nan,nan,nan,nan,nan,nan,nan,nan,nan,nan,nan,0.0,nan,nan,nan,nan,nan,nan,nan,nan,nan,nan,nan,nan,nan,nan,nan,nan,nan,nan,168.44519525708165,532.2926319852704,nan,532.6026975085842,nan,nan,nan,nan
1,257,1,1,1.0,1.0,0.33392423955956474,0.0,8,0,1,3,5,2,nan,nan,nan,nan,nan,nan,nan,nan,nan,nan,nan,nan,0.0,nan,nan,nan,nan,nan,nan,nan,nan,nan,nan,nan,nan,nan,nan,nan,nan,nan,nan,168.44519525708165,533.2927445976529,nan,533.6266688372125,nan,nan,nan,nan
1,258,1,1,1.0,1.0,0.3013923737453297,0.0,7,6,4,2,8,3,nan,nan,nan,nan,nan,nan,nan,nan,nan,nan,nan,nan,0.0,nan,nan,nan,nan,nan,nan,nan,nan,nan,nan,nan,nan,nan,nan,nan,nan,nan,nan,168.44519525708165,534.3012432692922,nan,534.6026356430375,nan,nan,nan,nan
1,259,1,1,1.0,1.0,0.3329041708493605,0.0,2,7,3,6,0,1,nan,nan,nan,nan,nan,nan,nan,nan,nan,nan,nan,nan,0.0,nan,nan,nan,nan,nan,nan,nan,nan,nan,nan,nan,nan,nan,nan,nan,nan,nan,nan,168.44519525708165,535.3097336731153,nan,535.6426378439646,nan,nan,nan,nan
1,260,1,1,1.0,1.0,0.29275828221580014,0.0,8,0,4,3,2,6,nan,nan,nan,nan,nan,nan,nan,nan,nan,nan,nan,nan,0.0,nan,nan,nan,nan,nan,nan,nan,nan,nan,nan,nan,nan,nan,nan,nan,nan,nan,nan,168.44519525708165,536.3098331711954,nan,536.6025914534112,nan,nan,nan,nan
1,261,1,1,1.0,1.0,0.2602822949993424,0.0,5,2,3,0,6,7,nan,nan,nan,nan,nan,nan,nan,nan,nan,nan,nan,nan,0.0,nan,nan,nan,nan,nan,nan,nan,nan,nan,nan,nan,nan,nan,nan,nan,nan,nan,nan,168.44519525708165,537.3182733983849,nan,537.5785556933843,nan,nan,nan,nan
1,262,1,1,1.0,1.0,0.2601018300629221,0.0,3,7,1,6,5,8,nan,nan,nan,nan,nan,nan,nan,nan,nan,nan,nan,nan,0.0,nan,nan,nan,nan,nan,nan,nan,nan,nan,nan,nan,nan,nan,nan,nan,nan,nan,nan,168.44519525708165,538.3184173711925,nan,538.5785192012554,nan,nan,nan,nan
1,263,1,1,1.0,1.0,0.2436370436917059,0.0,5,4,8,0,2,7,nan,nan,nan,nan,nan,nan,nan,nan,nan,nan,nan,nan,0.0,nan,nan,nan,nan,nan,nan,nan,nan,nan,nan,nan,nan,nan,nan,nan,nan,nan,nan,168.44519525708165,539.3268652959378,nan,539.5705023396295,nan,nan,nan,nan
1,264,1,1,1.0,1.0,0.20350626506842673,0.0,4,6,7,1,3,0,nan,nan,nan,nan,nan,nan,nan,nan,nan,nan,nan,nan,0.0,nan,nan,nan,nan,nan,nan,nan,nan,nan,nan,nan,nan,nan,nan,nan,nan,nan,nan,168.44519525708165,540.3269659343641,nan,540.5304721994326,nan,nan,nan,nan
1,265,1,1,1.0,1.0,0.21932189096696675,0.0,0,7,2,4,8,5,nan,nan,nan,nan,nan,nan,nan,nan,nan,nan,nan,nan,0.0,nan,nan,nan,nan,nan,nan,nan,nan,nan,nan,nan,nan,nan,nan,nan,nan,nan,nan,168.44519525708165,541.3271304339287,nan,541.5464523248957,nan,nan,nan,nan
1,266,1,1,1.0,1.0,0.19483482610667124,0.0,2,3,8,6,5,1,nan,nan,nan,nan,nan,nan,nan,nan,nan,nan,nan,nan,0.0,nan,nan,nan,nan,nan,nan,nan,nan,nan,nan,nan,nan,nan,nan,nan,nan,nan,nan,168.44519525708165,542.3355783587322,nan,542.5304131848388,nan,nan,nan,nan
1,267,1,1,1.0,1.0,0.1786830736673437,0.0,4,2,5,8,0,6,nan,nan,nan,nan,nan,nan,nan,nan,nan,nan,nan,nan,0.0,nan,nan,nan,nan,nan,nan,nan,nan,nan,nan,nan,nan,nan,nan,nan,nan,nan,nan,168.44519525708165,543.3357083618757,nan,543.5143914355431,nan,nan,nan,nan
1,268,1,1,1.0,1.0,0.07452573796035722,0.0,7,0,2,4,8,3,nan,nan,nan,nan,nan,nan,nan,nan,nan,nan,nan,nan,0.0,nan,nan,nan,nan,nan,nan,nan,nan,nan,nan,nan,nan,nan,nan,nan,nan,nan,nan,168.44519525708165,544.3358375097159,nan,544.4103632476763,nan,nan,nan,nan
1,269,0,0,1.0,0.0,0.05835516919614747,1.0,2,4,1,7,0,8,1.0,1.0,1.0,1.0,1.0,1.0,1.0,0.0,0.0,0.0,1.0,1.0,3.0,2.0,2.0,4.0,0.0,0.0,8.0,1.0,6.0,5.0,4.0,3.0,2.0,1.1143822554731742,9.289059464179445,8.77757057728013,4.242722174967639,2.938621116860304,2.11342832876835,168.44519525708165,545.3359817676246,546.1443710769527,545.3943369368208,556.4873319616308,557.4883560216404,547.161175125977,556.4790773310815
1,270,1,1,1.0,1.0,0.498115096706897,0.0,4,6,8,3,5,0,nan,nan,nan,nan,nan,nan,nan,nan,nan,nan,nan,nan,0.0,nan,nan,nan,nan,nan,nan,nan,nan,nan,nan,nan,nan,nan,nan,nan,nan,nan,nan,168.44519525708165,557.6958359359996,nan,558.1939510327065,nan,nan,nan,nan
1,271,0,0,1.0,0.0,0.2339438255294226,0.0,7,3,2,6,8,4,nan,nan,nan,nan,nan,nan,nan,nan,nan,nan,nan,nan,0.0,nan,nan,nan,nan,nan,nan,nan,nan,nan,nan,nan,nan,nan,nan,nan,nan,nan,nan,168.44519525708165,558.6959858958144,nan,558.9299297213438,nan,nan,nan,nan
1,272,1,1,1.0,1.0,0.48978520109085366,0.0,4,6,7,3,1,5,nan,nan,nan,nan,nan,nan,nan,nan,nan,nan,nan,nan,0.0,nan,nan,nan,nan,nan,nan,nan,nan,nan,nan,nan,nan,nan,nan,nan,nan,nan,nan,168.44519525708165,559.6961022144533,nan,560.1858874155441,nan,nan,nan,nan
1,273,1,1,1.0,1.0,0.2656429298222065,0.0,2,3,6,5,0,1,nan,nan,nan,nan,nan,nan,nan,nan,nan,nan,nan,nan,0.0,nan,nan,nan,nan,nan,nan,nan,nan,nan,nan,nan,nan,nan,nan,nan,nan,nan,nan,168.44519525708165,560.6962205286836,nan,560.9618634585058,nan,nan,nan,nan
1,274,1,1,1.0,1.0,0.11350473412312567,0.0,3,5,2,8,7,6,nan,nan,nan,nan,nan,nan,nan,nan,nan,nan,nan,nan,0.0,nan,nan,nan,nan,nan,nan,nan,nan,nan,nan,nan,nan,nan,nan,nan,nan,nan,nan,168.44519525708165,561.6963499616832,nan,561.8098546958063,nan,nan,nan,nan
1,275,1,1,1.0,1.0,0.31334753293776885,0.0,5,7,4,2,6,8,nan,nan,nan,nan,nan,nan,nan,nan,nan,nan,nan,nan,0.0,nan,nan,nan,nan,nan,nan,nan,nan,nan,nan,nan,nan,nan,nan,nan,nan,nan,nan,168.44519525708165,562.6964725523721,nan,563.0098200853099,nan,nan,nan,nan
1,276,1,1,1.0,1.0,0.27320306980982423,0.0,1,5,6,7,4,2,nan,nan,nan,nan,nan,nan,nan,nan,nan,nan,nan,nan,0.0,nan,nan,nan,nan,nan,nan,nan,nan,nan,nan,nan,nan,nan,nan,nan,nan,nan,nan,168.44519525708165,563.6965959983645,nan,563.9697990681743,nan,nan,nan,nan
1,277,1,1,1.0,1.0,0.5210538124665618,0.0,0,3,5,2,1,8,nan,nan,nan,nan,nan,nan,nan,nan,nan,nan,nan,nan,0.0,nan,nan,nan,nan,nan,nan,nan,nan,nan,nan,nan,nan,nan,nan,nan,nan,nan,nan,168.44519525708165,564.6967245760607,nan,565.2177783885272,nan,nan,nan,nan
1,278,1,1,1.0,1.0,0.30454780138097703,0.0,6,5,7,1,2,0,nan,nan,nan,nan,nan,nan,nan,nan,nan,nan,nan,nan,0.0,nan,nan,nan,nan,nan,nan,nan,nan,nan,nan,nan,nan,nan,nan,nan,nan,nan,nan,168.44519525708165,565.7051804834628,nan,566.0097282848437,nan,nan,nan,nan
1,279,1,1,1.0,1.0,0.26439507049508393,0.0,8,1,3,0,4,5,nan,nan,nan,nan,nan,nan,nan,nan,nan,nan,nan,nan,0.0,nan,nan,nan,nan,nan,nan,nan,nan,nan,nan,nan,nan,nan,nan,nan,nan,nan,nan,168.44519525708165,566.7053090611589,nan,566.969704131654,nan,nan,nan,nan
1,280,1,1,1.0,1.0,0.2722357436432503,0.0,2,8,7,1,0,6,nan,nan,nan,nan,nan,nan,nan,nan,nan,nan,nan,nan,0.0,nan,nan,nan,nan,nan,nan,nan,nan,nan,nan,nan,nan,nan,nan,nan,nan,nan,nan,168.44519525708165,567.7054399196059,nan,567.9776756632491,nan,nan,nan,nan
1,281,1,1,1.0,1.0,0.2637980823055841,0.0,1,7,5,2,4,0,nan,nan,nan,nan,nan,nan,nan,nan,nan,nan,nan,nan,0.0,nan,nan,nan,nan,nan,nan,nan,nan,nan,nan,nan,nan,nan,nan,nan,nan,nan,nan,168.44519525708165,568.7138658920303,nan,568.9776639743359,nan,nan,nan,nan
1,282,1,1,1.0,1.0,0.27161053102463484,0.0,8,2,4,0,7,1,nan,nan,nan,nan,nan,nan,nan,nan,nan,nan,nan,nan,0.0,nan,nan,nan,nan,nan,nan,nan,nan,nan,nan,nan,nan,nan,nan,nan,nan,nan,nan,168.44519525708165,569.7140195581014,nan,569.9856300891261,nan,nan,nan,nan
1,283,1,1,1.0,1.0,0.25543939211638644,0.0,6,0,1,8,5,7,nan,nan,nan,nan,nan,nan,nan,nan,nan,nan,nan,nan,0.0,nan,nan,nan,nan,nan,nan,nan,nan,nan,nan,nan,nan,nan,nan,nan,nan,nan,nan,168.44519525708165,570.7141475655953,nan,570.9695869577117,nan,nan,nan,nan
1,284,1,1,1.0,1.0,0.25496299896622077,0.0,3,7,6,1,4,5,nan,nan,nan,nan,nan,nan,nan,nan,nan,nan,nan,nan,0.0,nan,nan,nan,nan,nan,nan,nan,nan,nan,nan,nan,nan,nan,nan,nan,nan,nan,nan,168.44519525708165,571.7226034729974,nan,571.9775664719637,nan,nan,nan,nan
1,285,1,1,1.0,1.0,0.23082745587453246,0.0,0,6,8,3,1,7,nan,nan,nan,nan,nan,nan,nan,nan,nan,nan,nan,nan,0.0,nan,nan,nan,nan,nan,nan,nan,nan,nan,nan,nan,nan,nan,nan,nan,nan,nan,nan,168.44519525708165,572.7227009753697,nan,572.9535284312442,nan,nan,nan,nan
1,286,1,1,1.0,1.0,0.2143256071722135,0.0,2,1,5,8,3,6,nan,nan,nan,nan,nan,nan,nan,nan,nan,nan,nan,nan,0.0,nan,nan,nan,nan,nan,nan,nan,nan,nan,nan,nan,nan,nan,nan,nan,nan,nan,nan,168.44519525708165,573.731177979731,nan,573.9455035869032,nan,nan,nan,nan
1,287,1,1,1.0,1.0,0.14186794584384188,0.0,8,7,4,3,5,0,nan,nan,nan,nan,nan,nan,nan,nan,nan,nan,nan,nan,0.0,nan,nan,nan,nan,nan,nan,nan,nan,nan,nan,nan,nan,nan,nan,nan,nan,nan,nan,168.44519525708165,574.7396307511372,nan,574.881498696981,nan,nan,nan,nan
1,288,1,1,1.0,1.0,0.5576371583738364,0.0,6,4,3,1,7,5,nan,nan,nan,nan,nan,nan,nan,nan,nan,nan,nan,nan,0.0,nan,nan,nan,nan,nan,nan,nan,nan,nan,nan,nan,nan,nan,nan,nan,nan,nan,nan,168.44519525708165,575.7397750089876,nan,576.2974121673615,nan,nan,nan,nan
1,289,1,1,1.0,1.0,0.2855108910589479,0.0,5,0,1,8,6,4,nan,nan,nan,nan,nan,nan,nan,nan,nan,nan,nan,nan,0.0,nan,nan,nan,nan,nan,nan,nan,nan,nan,nan,nan,nan,nan,nan,nan,nan,nan,nan,168.44519525708165,576.7399058674346,nan,577.0254167584935,nan,nan,nan,nan
1,290,1,1,1.0,1.0,0.25335363968042657,0.0,8,2,4,7,3,0,nan,nan,nan,nan,nan,nan,nan,nan,nan,nan,nan,nan,0.0,nan,nan,nan,nan,nan,nan,nan,nan,nan,nan,nan,nan,nan,nan,nan,nan,nan,nan,168.44519525708165,577.7400310240337,nan,577.9933846637141,nan,nan,nan,nan
1,291,1,1,1.0,1.0,0.28521353733958676,0.0,5,4,0,3,2,8,nan,nan,nan,nan,nan,nan,nan,nan,nan,nan,nan,nan,0.0,nan,nan,nan,nan,nan,nan,nan,nan,nan,nan,nan,nan,nan,nan,nan,nan,nan,nan,168.44519525708165,578.7401519041159,nan,579.0253654414555,nan,nan,nan,nan
1,292,1,1,1.0,1.0,0.2207114423508756,0.0,3,2,6,5,4,7,nan,nan,nan,nan,nan,nan,nan,nan,nan,nan,nan,nan,0.0,nan,nan,nan,nan,nan,nan,nan,nan,nan,nan,nan,nan,nan,nan,nan,nan,nan,nan,168.44519525708165,579.7486286234343,nan,579.9693400657852,nan,nan,nan,nan
1,293,1,1,1.0,1.0,0.25256307219387963,0.0,0,4,2,7,6,1,nan,nan,nan,nan,nan,nan,nan,nan,nan,nan,nan,nan,0.0,nan,nan,nan,nan,nan,nan,nan,nan,nan,nan,nan,nan,nan,nan,nan,nan,nan,nan,168.44519525708165,580.7487449420732,nan,581.0013080142671,nan,nan,nan,nan
1,294,1,1,1.0,1.0,0.30841197434347123,0.0,7,3,4,0,8,5,nan,nan,nan,nan,nan,nan,nan,nan,nan,nan,nan,nan,0.0,nan,nan,nan,nan,nan,nan,nan,nan,nan,nan,nan,nan,nan,nan,nan,nan,nan,nan,168.44519525708165,581.7488652520115,nan,582.0572772263549,nan,nan,nan,nan
1,295,0,0,0.0,1.0,0.5082504966994748,1.0,3,7,5,8,1,4,1.0,1.0,1.0,1.0,1.0,1.0,0.0,0.0,0.0,0.0,0.0,0.0,0.0,1.0,0.0,8.0,3.0,4.0,2.0,6.0,5.0,4.0,3.0,2.0,1.0,7.3153027120861225,6.387313059880398,5.579568919783924,4.635601422807667,3.571292051812634,2.6439769335556775,168.44519525708165,582.7489955402561,583.557389981288,583.2572460369556,591.9167700372636,592.9149411550607,584.5658612838015,591.9084458435536
1,296,1,1,1.0,1.0,0.16399072075728327,0.0,2,4,3,0,6,1,nan,nan,nan,nan,nan,nan,nan,nan,nan,nan,nan,nan,0.0,nan,nan,nan,nan,nan,nan,nan,nan,nan,nan,nan,nan,nan,nan,nan,nan,nan,nan,168.44519525708165,593.1169498179224,nan,593.2809405386797,nan,nan,nan,nan
1,297,1,1,1.0,1.0,0.37182130152359605,0.0,5,1,6,2,7,8,nan,nan,nan,nan,nan,nan,nan,nan,nan,nan,nan,nan,0.0,nan,nan,nan,nan,nan,nan,nan,nan,nan,nan,nan,nan,nan,nan,nan,nan,nan,nan,168.44519525708165,594.1170866633765,nan,594.4889079649001,nan,nan,nan,nan
1,298,1,1,1.0,1.0,0.37162886263104156,0.0,2,3,8,6,5,0,nan,nan,nan,nan,nan,nan,nan,nan,nan,nan,nan,nan,0.0,nan,nan,nan,nan,nan,nan,nan,nan,nan,nan,nan,nan,nan,nan,nan,nan,nan,nan,168.44519525708165,595.1172514481004,nan,595.4888803107315,nan,nan,nan,nan
1,299,1,1,1.0,1.0,0.32350916165160015,0.0,8,4,7,3,1,2,nan,nan,nan,nan,nan,nan,nan,nan,nan,nan,nan,nan,0.0,nan,nan,nan,nan,nan,nan,nan,nan,nan,nan,nan,nan,nan,nan,nan,nan,nan,nan,168.44519525708165,596.1173389721662,nan,596.4408481338178,nan,nan,nan,nan
1,300,1,1,1.0,1.0,0.2593736983835697,0.0,0,3,4,6,8,1,nan,nan,nan,nan,nan,nan,nan,nan,nan,nan,nan,nan,0.0,nan,nan,nan,nan,nan,nan,nan,nan,nan,nan,nan,nan,nan,nan,nan,nan,nan,nan,168.44519525708165,597.1174686902086,nan,597.3768423885922,nan,nan,nan,nan
1,301,1,1,1.0,1.0,0.283189935493283,0.0,4,2,1,3,6,0,nan,nan,nan,nan,nan,nan,nan,nan,nan,nan,nan,nan,0.0,nan,nan,nan,nan,nan,nan,nan,nan,nan,nan,nan,nan,nan,nan,nan,nan,nan,nan,168.44519525708165,598.1175929914461,nan,598.4007829269394,nan,nan,nan,nan
1,302,1,1,1.0,1.0,0.18706343095982447,0.0,2,8,5,7,3,6,nan,nan,nan,nan,nan,nan,nan,nan,nan,nan,nan,nan,0.0,nan,nan,nan,nan,nan,nan,nan,nan,nan,nan,nan,nan,nan,nan,nan,nan,nan,nan,168.44519525708165,599.1177178629441,nan,599.3047812939039,nan,nan,nan,nan
1,303,1,1,1.0,1.0,0.28291595954215154,0.0,7,6,0,4,8,2,nan,nan,nan,nan,nan,nan,nan,nan,nan,nan,nan,nan,0.0,nan,nan,nan,nan,nan,nan,nan,nan,nan,nan,nan,nan,nan,nan,nan,nan,nan,nan,168.44519525708165,600.117840168532,nan,600.4007561280741,nan,nan,nan,nan
1,304,1,1,1.0,1.0,0.25874791556270793,0.0,6,0,7,3,1,8,nan,nan,nan,nan,nan,nan,nan,nan,nan,nan,nan,nan,0.0,nan,nan,nan,nan,nan,nan,nan,nan,nan,nan,nan,nan,nan,nan,nan,nan,nan,nan,168.44519525708165,601.1179619039758,nan,601.3767098195385,nan,nan,nan,nan
1,305,1,1,1.0,1.0,0.3066087506012991,0.0,5,2,3,0,7,4,nan,nan,nan,nan,nan,nan,nan,nan,nan,nan,nan,nan,0.0,nan,nan,nan,nan,nan,nan,nan,nan,nan,nan,nan,nan,nan,nan,nan,nan,nan,nan,168.44519525708165,602.1180870605167,nan,602.424695811118,nan,nan,nan,nan
1,306,1,1,1.0,1.0,0.25045308662811294,0.0,2,5,0,3,4,6,nan,nan,nan,nan,nan,nan,nan,nan,nan,nan,nan,nan,0.0,nan,nan,nan,nan,nan,nan,nan,nan,nan,nan,nan,nan,nan,nan,nan,nan,nan,nan,168.44519525708165,603.1182133574621,nan,603.3686664440902,nan,nan,nan,nan
1,307,1,1,1.0,1.0,0.2582766541163437,0.0,1,7,6,8,3,4,nan,nan,nan,nan,nan,nan,nan,nan,nan,nan,nan,nan,0.0,nan,nan,nan,nan,nan,nan,nan,nan,nan,nan,nan,nan,nan,nan,nan,nan,nan,nan,168.44519525708165,604.1183362332522,nan,604.3766128873685,nan,nan,nan,nan
1,308,1,1,1.0,1.0,0.22614135505864397,0.0,4,3,1,5,7,6,nan,nan,nan,nan,nan,nan,nan,nan,nan,nan,nan,nan,0.0,nan,nan,nan,nan,nan,nan,nan,nan,nan,nan,nan,nan,nan,nan,nan,nan,nan,nan,168.44519525708165,605.1184582537389,nan,605.3445996087976,nan,nan,nan,nan
1,309,1,1,1.0,1.0,0.25798899366054684,0.0,7,1,3,2,5,8,nan,nan,nan,nan,nan,nan,nan,nan,nan,nan,nan,nan,0.0,nan,nan,nan,nan,nan,nan,nan,nan,nan,nan,nan,nan,nan,nan,nan,nan,nan,nan,168.44519525708165,606.118586546334,nan,606.3765755399945,nan,nan,nan,nan
1,310,1,1,1.0,1.0,0.31351288786390796,0.0,0,7,2,3,4,5,nan,nan,nan,nan,nan,nan,nan,nan,nan,nan,nan,nan,0.0,nan,nan,nan,nan,nan,nan,nan,nan,nan,nan,nan,nan,nan,nan,nan,nan,nan,nan,168.44519525708165,607.1270393176819,nan,607.4405522055458,nan,nan,nan,nan
1,311,1,1,1.0,1.0,0.3053238290012814,0.0,6,1,0,5,3,2,nan,nan,nan,nan,nan,nan,nan,nan,nan,nan,nan,nan,0.0,nan,nan,nan,nan,nan,nan,nan,nan,nan,nan,nan,nan,nan,nan,nan,nan,nan,nan,168.44519525708165,608.1271949794027,nan,608.432518808404,nan,nan,nan,nan
1,312,1,1,1.0,1.0,0.2891948841861449,0.0,4,0,7,3,6,1,nan,nan,nan,nan,nan,nan,nan,nan,nan,nan,nan,nan,0.0,nan,nan,nan,nan,nan,nan,nan,nan,nan,nan,nan,nan,nan,nan,nan,nan,nan,nan,168.44519525708165,609.1272953326697,nan,609.4164902168559,nan,nan,nan,nan
1,313,1,1,1.0,1.0,0.26502427441300824,0.0,0,2,6,7,8,3,nan,nan,nan,nan,nan,nan,nan,nan,nan,nan,nan,nan,0.0,nan,nan,nan,nan,nan,nan,nan,nan,nan,nan,nan,nan,nan,nan,nan,nan,nan,nan,168.44519525708165,610.1274318930227,nan,610.3924561674357,nan,nan,nan,nan
1,314,1,1,1.0,1.0,0.2645592850167304,0.0,1,7,5,3,2,0,nan,nan,nan,nan,nan,nan,nan,nan,nan,nan,nan,nan,0.0,nan,nan,nan,nan,nan,nan,nan,nan,nan,nan,nan,nan,nan,nan,nan,nan,nan,nan,168.44519525708165,611.1358695543604,nan,611.4004288393771,nan,nan,nan,nan
1,315,1,1,1.0,1.0,0.21637429733527824,0.0,5,2,4,6,1,8,nan,nan,nan,nan,nan,nan,nan,nan,nan,nan,nan,nan,0.0,nan,nan,nan,nan,nan,nan,nan,nan,nan,nan,nan,nan,nan,nan,nan,nan,nan,nan,168.44519525708165,612.1360140973702,nan,612.3523883947055,nan,nan,nan,nan
1,316,0,0,1.0,0.0,0.21623175003333017,1.0,2,1,7,0,6,3,1.0,1.0,1.0,1.0,1.0,1.0,1.0,0.0,1.0,1.0,1.0,1.0,5.0,2.0,8.0,7.0,0.0,6.0,3.0,1.0,6.0,5.0,4.0,3.0,2.0,1.0474540049326606,5.679344635806046,4.647447105671745,3.6481079550576396,2.9038332971394993,2.0497809475054964,168.44519525708165,613.1361472365679,613.9445408222964,613.3523789866013,620.6703690008726,621.680535191088,614.9530052825576,620.6620422413689
1,317,1,1,nan,nan,nan,0.0,4,5,3,7,8,2,nan,nan,nan,nan,nan,nan,nan,nan,nan,nan,nan,nan,0.0,nan,nan,nan,nan,nan,nan,nan,nan,nan,nan,nan,nan,nan,nan,nan,nan,nan,nan,168.44519525708165,621.8872236827156,nan,nan,nan,nan,nan,nan
1,318,0,0,1.0,0.0,0.4726843686075881,1.0,5,0,4,8,6,1,1.0,1.0,1.0,1.0,1.0,1.0,0.0,0.0,0.0,0.0,0.0,0.0,0.0,4.0,2.0,0.0,3.0,7.0,8.0,1.0,2.0,3.0,4.0,5.0,6.0,2.0813657288090326,2.6560062173521146,3.767722837801557,4.600232010008767,5.279050931276288,7.599325409042649,168.44519525708165,622.8873531156569,623.6957583902986,623.3600374842645,632.3635013842722,633.3646326398593,624.7208926199819,632.355167212314
1,319,1,1,1.0,1.0,0.3957686821813695,0.0,8,3,7,0,4,5,nan,nan,nan,nan,nan,nan,nan,nan,nan,nan,nan,nan,0.0,nan,nan,nan,nan,nan,nan,nan,nan,nan,nan,nan,nan,nan,nan,nan,nan,nan,nan,168.44519525708165,633.5720187581028,nan,633.9677874402842,nan,nan,nan,nan
1,320,1,1,1.0,1.0,0.26759354741079733,0.0,4,7,3,5,1,2,nan,nan,nan,nan,nan,nan,nan,nan,nan,nan,nan,nan,0.0,nan,nan,nan,nan,nan,nan,nan,nan,nan,nan,nan,nan,nan,nan,nan,nan,nan,nan,168.44519525708165,634.5721567439032,nan,634.839750291314,nan,nan,nan,nan
1,321,1,1,1.0,1.0,0.2831266444409266,0.0,0,2,7,6,8,3,nan,nan,nan,nan,nan,nan,nan,nan,nan,nan,nan,nan,0.0,nan,nan,nan,nan,nan,nan,nan,nan,nan,nan,nan,nan,nan,nan,nan,nan,nan,nan,168.44519525708165,635.5805932648946,nan,635.8637199093355,nan,nan,nan,nan
1,322,1,1,1.0,1.0,0.29094764607725665,0.0,2,7,1,8,0,6,nan,nan,nan,nan,nan,nan,nan,nan,nan,nan,nan,nan,0.0,nan,nan,nan,nan,nan,nan,nan,nan,nan,nan,nan,nan,nan,nan,nan,nan,nan,nan,168.44519525708165,636.5807420843048,nan,636.8716897303821,nan,nan,nan,nan
1,323,1,1,1.0,1.0,0.27446946018608287,0.0,3,2,5,4,6,0,nan,nan,nan,nan,nan,nan,nan,nan,nan,nan,nan,nan,0.0,nan,nan,nan,nan,nan,nan,nan,nan,nan,nan,nan,nan,nan,nan,nan,nan,nan,nan,168.44519525708165,637.5891957109561,nan,637.8636651711422,nan,nan,nan,nan
1,324,1,1,1.0,1.0,0.25000434764660895,0.0,5,4,8,1,2,3,nan,nan,nan,nan,nan,nan,nan,nan,nan,nan,nan,nan,0.0,nan,nan,nan,nan,nan,nan,nan,nan,nan,nan,nan,nan,nan,nan,nan,nan,nan,nan,168.44519525708165,638.5976362232468,nan,638.8476405708934,nan,nan,nan,nan
1,325,1,1,1.0,1.0,0.22583259752718732,0.0,1,0,3,6,7,8,nan,nan,nan,nan,nan,nan,nan,nan,nan,nan,nan,nan,0.0,nan,nan,nan,nan,nan,nan,nan,nan,nan,nan,nan,nan,nan,nan,nan,nan,nan,nan,168.44519525708165,639.5977824768052,nan,639.8236150743323,nan,nan,nan,nan
1,326,1,1,1.0,1.0,0.1933568954700604,0.0,7,8,0,2,4,6,nan,nan,nan,nan,nan,nan,nan,nan,nan,nan,nan,nan,0.0,nan,nan,nan,nan,nan,nan,nan,nan,nan,nan,nan,nan,nan,nan,nan,nan,nan,nan,168.44519525708165,640.6062201381428,nan,640.7995770336129,nan,nan,nan,nan
1,327,1,1,1.0,1.0,0.17721027473453432,0.0,1,4,7,5,0,2,nan,nan,nan,nan,nan,nan,nan,nan,nan,nan,nan,nan,0.0,nan,nan,nan,nan,nan,nan,nan,nan,nan,nan,nan,nan,nan,nan,nan,nan,nan,nan,168.44519525708165,641.6063621152425,nan,641.783572389977,nan,nan,nan,nan
1,328,1,1,1.0,1.0,0.17703494150191545,0.0,7,0,8,4,2,1,nan,nan,nan,nan,nan,nan,nan,nan,nan,nan,nan,nan,0.0,nan,nan,nan,nan,nan,nan,nan,nan,nan,nan,nan,nan,nan,nan,nan,nan,nan,nan,168.44519525708165,642.606485846336,nan,642.7835207878379,nan,nan,nan,nan
1,329,1,1,1.0,1.0,0.21689630567561835,0.0,3,7,4,6,0,8,nan,nan,nan,nan,nan,nan,nan,nan,nan,nan,nan,nan,0.0,nan,nan,nan,nan,nan,nan,nan,nan,nan,nan,nan,nan,nan,nan,nan,nan,nan,nan,168.44519525708165,643.6066081519239,nan,643.8235044575995,nan,nan,nan,nan
1,330,1,1,1.0,1.0,0.23238122172188014,0.0,6,0,2,3,4,1,nan,nan,nan,nan,nan,nan,nan,nan,nan,nan,nan,nan,0.0,nan,nan,nan,nan,nan,nan,nan,nan,nan,nan,nan,nan,nan,nan,nan,nan,nan,nan,168.44519525708165,644.6150788842933,nan,644.8474601060152,nan,nan,nan,nan
1,331,0,0,1.0,0.0,0.22424376505659893,0.0,5,2,4,0,7,6,nan,nan,nan,nan,nan,nan,nan,nan,nan,nan,nan,nan,0.0,nan,nan,nan,nan,nan,nan,nan,nan,nan,nan,nan,nan,nan,nan,nan,nan,nan,nan,168.44519525708165,645.6152003345778,nan,645.8394440996344,nan,nan,nan,nan
1,332,1,1,1.0,1.0,0.535746450535953,0.0,0,7,6,8,1,5,nan,nan,nan,nan,nan,nan,nan,nan,nan,nan,nan,nan,0.0,nan,nan,nan,nan,nan,nan,nan,nan,nan,nan,nan,nan,nan,nan,nan,nan,nan,nan,168.44519525708165,646.6236436978215,nan,647.1593901483575,nan,nan,nan,nan
1,333,1,1,1.0,1.0,0.29560609272448346,0.0,7,2,3,6,4,8,nan,nan,nan,nan,nan,nan,nan,nan,nan,nan,nan,nan,0.0,nan,nan,nan,nan,nan,nan,nan,nan,nan,nan,nan,nan,nan,nan,nan,nan,nan,nan,168.44519525708165,647.6237794028712,nan,647.9193854955956,nan,nan,nan,nan
1,334,1,1,1.0,1.0,0.2554359710193239,0.0,3,5,4,1,8,7,nan,nan,nan,nan,nan,nan,nan,nan,nan,nan,nan,nan,0.0,nan,nan,nan,nan,nan,nan,nan,nan,nan,nan,nan,nan,nan,nan,nan,nan,nan,nan,168.44519525708165,648.6239151079208,nan,648.8793510789401,nan,nan,nan,nan
1,335,1,1,0.0,0.0,0.4632762449909933,0.0,2,6,1,0,5,4,nan,nan,nan,nan,nan,nan,nan,nan,nan,nan,nan,nan,0.0,nan,nan,nan,nan,nan,nan,nan,nan,nan,nan,nan,nan,nan,nan,nan,nan,nan,nan,168.44519525708165,649.6240379837691,nan,650.0873142287601,nan,nan,nan,nan
1,336,0,0,0.0,1.0,0.45480750838760287,1.0,6,7,5,4,3,1,1.0,1.0,1.0,1.0,1.0,1.0,0.0,0.0,0.0,1.0,0.0,1.0,2.0,3.0,0.0,6.0,4.0,5.0,1.0,1.0,6.0,5.0,4.0,3.0,2.0,1.486767759313807,6.213408172538038,5.037757080513984,3.886587636487093,3.207489322463516,2.5112103493884206,168.44519525708165,650.6324864786584,651.4408980253502,651.087293987046,658.7084624930867,659.7123021478765,652.4576986532775,658.7001459969906
1,337,1,1,1.0,1.0,0.6340502228122205,0.0,3,1,8,0,6,7,nan,nan,nan,nan,nan,nan,nan,nan,nan,nan,nan,nan,0.0,nan,nan,nan,nan,nan,nan,nan,nan,nan,nan,nan,nan,nan,nan,nan,nan,nan,nan,168.44519525708165,659.9169627612573,nan,660.5510129840695,nan,nan,nan,nan
1,338,1,1,1.0,1.0,0.28988538339035586,0.0,2,0,5,6,7,4,nan,nan,nan,nan,nan,nan,nan,nan,nan,nan,nan,nan,0.0,nan,nan,nan,nan,nan,nan,nan,nan,nan,nan,nan,nan,nan,nan,nan,nan,nan,nan,168.44519525708165,660.917124409927,nan,661.2070097933174,nan,nan,nan,nan
1,339,1,1,1.0,1.0,0.3214080141042359,0.0,7,8,4,0,2,3,nan,nan,nan,nan,nan,nan,nan,nan,nan,nan,nan,nan,0.0,nan,nan,nan,nan,nan,nan,nan,nan,nan,nan,nan,nan,nan,nan,nan,nan,nan,nan,168.44519525708165,661.9255532333045,nan,662.2469612474088,nan,nan,nan,nan
1,340,1,1,1.0,1.0,0.2409049816778861,0.0,5,0,3,4,8,6,nan,nan,nan,nan,nan,nan,nan,nan,nan,nan,nan,nan,0.0,nan,nan,nan,nan,nan,nan,nan,nan,nan,nan,nan,nan,nan,nan,nan,nan,nan,nan,168.44519525708165,662.9340253911214,nan,663.1749303727993,nan,nan,nan,nan
1,341,1,1,1.0,1.0,0.23274243669584394,0.0,2,1,0,8,7,4,nan,nan,nan,nan,nan,nan,nan,nan,nan,nan,nan,nan,0.0,nan,nan,nan,nan,nan,nan,nan,nan,nan,nan,nan,nan,nan,nan,nan,nan,nan,nan,168.44519525708165,663.9341571048135,nan,664.1668995415093,nan,nan,nan,nan
1,342,1,1,1.0,1.0,0.28859219403238967,0.0,4,0,6,3,1,7,nan,nan,nan,nan,nan,nan,nan,nan,nan,nan,nan,nan,0.0,nan,nan,nan,nan,nan,nan,nan,nan,nan,nan,nan,nan,nan,nan,nan,nan,nan,nan,168.44519525708165,664.9342825465137,nan,665.2228747405461,nan,nan,nan,nan
1,343,1,1,1.0,1.0,0.23244422761490569,0.0,8,5,1,2,0,4,nan,nan,nan,nan,nan,nan,nan,nan,nan,nan,nan,nan,0.0,nan,nan,nan,nan,nan,nan,nan,nan,nan,nan,nan,nan,nan,nan,nan,nan,nan,nan,168.44519525708165,665.9344048521016,nan,666.1668490797165,nan,nan,nan,nan
1,344,1,1,1.0,1.0,0.2642793220584281,0.0,6,4,8,5,7,0,nan,nan,nan,nan,nan,nan,nan,nan,nan,nan,nan,nan,0.0,nan,nan,nan,nan,nan,nan,nan,nan,nan,nan,nan,nan,nan,nan,nan,nan,nan,nan,168.44519525708165,666.9345291533391,nan,667.1988084753975,nan,nan,nan,nan
1,345,1,1,1.0,1.0,0.24781482078833506,0.0,4,2,3,8,6,5,nan,nan,nan,nan,nan,nan,nan,nan,nan,nan,nan,nan,0.0,nan,nan,nan,nan,nan,nan,nan,nan,nan,nan,nan,nan,nan,nan,nan,nan,nan,nan,168.44519525708165,667.9429776482866,nan,668.190792469075,nan,nan,nan,nan
1,346,1,1,1.0,1.0,0.28762828902108595,0.0,3,5,6,0,1,8,nan,nan,nan,nan,nan,nan,nan,nan,nan,nan,nan,nan,0.0,nan,nan,nan,nan,nan,nan,nan,nan,nan,nan,nan,nan,nan,nan,nan,nan,nan,nan,168.44519525708165,668.9431270378991,nan,669.2307553269202,nan,nan,nan,nan
1,347,0,0,0.0,1.0,0.47147414181381464,1.0,6,4,3,8,2,7,1.0,1.0,1.0,1.0,1.0,1.0,1.0,1.0,0.0,0.0,0.0,1.0,3.0,6.0,4.0,1.0,2.0,8.0,7.0,1.0,6.0,5.0,4.0,3.0,2.0,1.3025113702751696,6.574496800778434,4.718859324872028,4.054648368502967,3.0942748147062957,1.9828860530396923,168.44519525708165,669.9432544751908,670.7516466354718,670.4147286170046,678.3859286402585,679.3833508144016,671.7684461229946,678.3775990298018
1,348,1,1,nan,nan,nan,0.0,7,3,5,6,0,4,nan,nan,nan,nan,nan,nan,nan,nan,nan,nan,nan,nan,0.0,nan,nan,nan,nan,nan,nan,nan,nan,nan,nan,nan,nan,nan,nan,nan,nan,nan,nan,168.44519525708165,679.5860944513115,nan,nan,nan,nan,nan,nan
1,349,1,1,1.0,1.0,0.6598250602255575,0.0,0,5,4,8,2,6,nan,nan,nan,nan,nan,nan,nan,nan,nan,nan,nan,nan,0.0,nan,nan,nan,nan,nan,nan,nan,nan,nan,nan,nan,nan,nan,nan,nan,nan,nan,nan,168.44519525708165,680.5945597668178,nan,681.2543848270434,nan,nan,nan,nan
1,350,1,1,1.0,1.0,0.7236965258489363,0.0,2,6,8,7,0,3,nan,nan,nan,nan,nan,nan,nan,nan,nan,nan,nan,nan,0.0,nan,nan,nan,nan,nan,nan,nan,nan,nan,nan,nan,nan,nan,nan,nan,nan,nan,nan,168.44519525708165,681.5946931911167,nan,682.3183897169656,nan,nan,nan,nan
1,351,1,1,1.0,1.0,0.3472256156383082,0.0,6,4,1,8,3,7,nan,nan,nan,nan,nan,nan,nan,nan,nan,nan,nan,nan,0.0,nan,nan,nan,nan,nan,nan,nan,nan,nan,nan,nan,nan,nan,nan,nan,nan,nan,nan,168.44519525708165,682.6031428264687,nan,682.950368442107,nan,nan,nan,nan
1,352,1,1,1.0,1.0,0.06674550485331565,0.0,1,0,8,5,2,3,nan,nan,nan,nan,nan,nan,nan,nan,nan,nan,nan,nan,0.0,nan,nan,nan,nan,nan,nan,nan,nan,nan,nan,nan,nan,nan,nan,nan,nan,nan,nan,168.44519525708165,683.6116018698667,nan,683.67834737472,nan,nan,nan,nan
1,353,0,0,1.0,0.0,0.2582424427382648,0.0,3,5,2,4,8,6,nan,nan,nan,nan,nan,nan,nan,nan,nan,nan,nan,nan,0.0,nan,nan,nan,nan,nan,nan,nan,nan,nan,nan,nan,nan,nan,nan,nan,nan,nan,nan,168.44519525708165,684.6200700363843,nan,684.8783124791225,nan,nan,nan,nan
1,354,1,1,1.0,1.0,0.44203697849297896,0.0,7,2,0,3,5,4,nan,nan,nan,nan,nan,nan,nan,nan,nan,nan,nan,nan,0.0,nan,nan,nan,nan,nan,nan,nan,nan,nan,nan,nan,nan,nan,nan,nan,nan,nan,nan,168.44519525708165,685.6201997544267,nan,686.0622367329197,nan,nan,nan,nan
1,355,1,1,1.0,1.0,0.28192354505881667,0.0,4,7,5,6,1,2,nan,nan,nan,nan,nan,nan,nan,nan,nan,nan,nan,nan,0.0,nan,nan,nan,nan,nan,nan,nan,nan,nan,nan,nan,nan,nan,nan,nan,nan,nan,nan,168.44519525708165,686.6203271917184,nan,686.9022507367772,nan,nan,nan,nan
1,356,0,0,0.0,1.0,0.4977675662958063,0.0,2,6,7,0,5,8,nan,nan,nan,nan,nan,nan,nan,nan,nan,nan,nan,nan,0.0,nan,nan,nan,nan,nan,nan,nan,nan,nan,nan,nan,nan,nan,nan,nan,nan,nan,nan,168.44519525708165,687.6204571949202,nan,688.118224761216,nan,nan,nan,nan
1,357,1,1,1.0,1.0,0.48927744751563296,0.0,0,7,3,5,8,2,nan,nan,nan,nan,nan,nan,nan,nan,nan,nan,nan,nan,0.0,nan,nan,nan,nan,nan,nan,nan,nan,nan,nan,nan,nan,nan,nan,nan,nan,nan,nan,168.44519525708165,688.6289031240158,nan,689.1181805715314,nan,nan,nan,nan
1,358,1,1,1.0,1.0,0.3691362800891511,0.0,6,8,5,7,3,0,nan,nan,nan,nan,nan,nan,nan,nan,nan,nan,nan,nan,0.0,nan,nan,nan,nan,nan,nan,nan,nan,nan,nan,nan,nan,nan,nan,nan,nan,nan,nan,168.44519525708165,689.629032271856,nan,689.9981685519451,nan,nan,nan,nan
1,359,1,1,1.0,1.0,0.5129619709332474,0.0,1,4,2,3,0,8,nan,nan,nan,nan,nan,nan,nan,nan,nan,nan,nan,nan,0.0,nan,nan,nan,nan,nan,nan,nan,nan,nan,nan,nan,nan,nan,nan,nan,nan,nan,nan,168.44519525708165,690.6291725384654,nan,691.1421345093986,nan,nan,nan,nan
1,360,1,1,1.0,1.0,0.32081102585652843,0.0,5,1,6,0,8,3,nan,nan,nan,nan,nan,nan,nan,nan,nan,nan,nan,nan,0.0,nan,nan,nan,nan,nan,nan,nan,nan,nan,nan,nan,nan,nan,nan,nan,nan,nan,nan,168.44519525708165,691.6292931335047,nan,691.9501041593612,nan,nan,nan,nan
1,361,1,1,1.0,1.0,0.3446848521125503,0.0,6,4,3,8,0,2,nan,nan,nan,nan,nan,nan,nan,nan,nan,nan,nan,nan,0.0,nan,nan,nan,nan,nan,nan,nan,nan,nan,nan,nan,nan,nan,nan,nan,nan,nan,nan,168.44519525708165,692.6294174347422,nan,692.9741022868548,nan,nan,nan,nan
1,362,1,1,1.0,1.0,0.34451693133451045,0.0,7,6,1,4,2,3,nan,nan,nan,nan,nan,nan,nan,nan,nan,nan,nan,nan,0.0,nan,nan,nan,nan,nan,nan,nan,nan,nan,nan,nan,nan,nan,nan,nan,nan,nan,nan,168.44519525708165,693.6295354639296,nan,693.9740523952642,nan,nan,nan,nan
1,363,1,1,1.0,1.0,0.2963527556275949,0.0,2,0,7,5,3,4,nan,nan,nan,nan,nan,nan,nan,nan,nan,nan,nan,nan,0.0,nan,nan,nan,nan,nan,nan,nan,nan,nan,nan,nan,nan,nan,nan,nan,nan,nan,nan,168.44519525708165,694.6296611906728,nan,694.9260139463004,nan,nan,nan,nan
1,364,1,1,1.0,1.0,0.32020006806124,0.0,7,4,1,0,5,8,nan,nan,nan,nan,nan,nan,nan,nan,nan,nan,nan,nan,0.0,nan,nan,nan,nan,nan,nan,nan,nan,nan,nan,nan,nan,nan,nan,nan,nan,nan,nan,168.44519525708165,695.6297857770114,nan,695.9499858450727,nan,nan,nan,nan
1,365,1,1,1.0,1.0,0.4237321912078187,0.0,1,7,0,8,4,3,nan,nan,nan,nan,nan,nan,nan,nan,nan,nan,nan,nan,0.0,nan,nan,nan,nan,nan,nan,nan,nan,nan,nan,nan,nan,nan,nan,nan,nan,nan,nan,168.44519525708165,696.63822828501,nan,697.0619604762178,nan,nan,nan,nan
1,366,1,1,1.0,1.0,0.4075470826937817,0.0,6,5,8,0,2,1,nan,nan,nan,nan,nan,nan,nan,nan,nan,nan,nan,nan,0.0,nan,nan,nan,nan,nan,nan,nan,nan,nan,nan,nan,nan,nan,nan,nan,nan,nan,nan,168.44519525708165,697.638382806268,nan,698.0459298889618,nan,nan,nan,nan
1,367,0,0,0.0,1.0,0.5033964751637541,0.0,3,8,5,6,7,0,nan,nan,nan,nan,nan,nan,nan,nan,nan,nan,nan,nan,0.0,nan,nan,nan,nan,nan,nan,nan,nan,nan,nan,nan,nan,nan,nan,nan,nan,nan,nan,168.44519525708165,698.638504826813,nan,699.1419013019768,nan,nan,nan,nan
1,368,1,1,1.0,1.0,0.4312552689225413,0.0,5,4,2,1,3,8,nan,nan,nan,nan,nan,nan,nan,nan,nan,nan,nan,nan,0.0,nan,nan,nan,nan,nan,nan,nan,nan,nan,nan,nan,nan,nan,nan,nan,nan,nan,nan,168.44519525708165,699.638621715596,nan,700.0698769845185,nan,nan,nan,nan
1,369,1,1,1.0,1.0,0.3591137775219977,0.0,7,2,1,5,8,3,nan,nan,nan,nan,nan,nan,nan,nan,nan,nan,nan,nan,0.0,nan,nan,nan,nan,nan,nan,nan,nan,nan,nan,nan,nan,nan,nan,nan,nan,nan,nan,168.44519525708165,700.6387363236863,nan,700.9978501012083,nan,nan,nan,nan
1,370,1,1,1.0,1.0,0.23094291921006516,0.0,4,0,3,1,6,2,nan,nan,nan,nan,nan,nan,nan,nan,nan,nan,nan,nan,0.0,nan,nan,nan,nan,nan,nan,nan,nan,nan,nan,nan,nan,nan,nan,nan,nan,nan,nan,168.44519525708165,701.638872313837,nan,701.8698152330471,nan,nan,nan,nan
1,371,1,1,1.0,1.0,0.15082191361580044,0.0,0,2,7,5,3,4,nan,nan,nan,nan,nan,nan,nan,nan,nan,nan,nan,nan,0.0,nan,nan,nan,nan,nan,nan,nan,nan,nan,nan,nan,nan,nan,nan,nan,nan,nan,nan,168.44519525708165,702.6389837858151,nan,702.7898056994309,nan,nan,nan,nan
1,372,1,1,1.0,1.0,0.398628466646187,0.0,7,3,1,8,2,5,nan,nan,nan,nan,nan,nan,nan,nan,nan,nan,nan,nan,0.0,nan,nan,nan,nan,nan,nan,nan,nan,nan,nan,nan,nan,nan,nan,nan,nan,nan,nan,168.44519525708165,703.6391183505184,nan,704.0377468171646,nan,nan,nan,nan
1,373,0,0,1.0,0.0,0.29450220620492473,0.0,1,6,2,5,3,0,nan,nan,nan,nan,nan,nan,nan,nan,nan,nan,nan,nan,0.0,nan,nan,nan,nan,nan,nan,nan,nan,nan,nan,nan,nan,nan,nan,nan,nan,nan,nan,168.44519525708165,704.6392349542002,nan,704.9337371604051,nan,nan,nan,nan
1,374,1,1,1.0,1.0,0.45429918461013585,0.0,6,0,8,2,4,3,nan,nan,nan,nan,nan,nan,nan,nan,nan,nan,nan,nan,0.0,nan,nan,nan,nan,nan,nan,nan,nan,nan,nan,nan,nan,nan,nan,nan,nan,nan,nan,168.44519525708165,705.639376646257,nan,706.0936758308671,nan,nan,nan,nan
1,375,1,1,1.0,1.0,0.2621627793414518,0.0,5,6,0,4,7,1,nan,nan,nan,nan,nan,nan,nan,nan,nan,nan,nan,nan,0.0,nan,nan,nan,nan,nan,nan,nan,nan,nan,nan,nan,nan,nan,nan,nan,nan,nan,nan,168.44519525708165,706.6395057941554,nan,706.9016685734969,nan,nan,nan,nan
1,376,1,1,1.0,1.0,0.21402483229758218,0.0,1,0,5,2,3,8,nan,nan,nan,nan,nan,nan,nan,nan,nan,nan,nan,nan,0.0,nan,nan,nan,nan,nan,nan,nan,nan,nan,nan,nan,nan,nan,nan,nan,nan,nan,nan,168.44519525708165,707.6396280997433,nan,707.8536529320409,nan,nan,nan,nan
1,377,1,1,1.0,1.0,0.3978589961770922,0.0,7,5,6,0,8,2,nan,nan,nan,nan,nan,nan,nan,nan,nan,nan,nan,nan,0.0,nan,nan,nan,nan,nan,nan,nan,nan,nan,nan,nan,nan,nan,nan,nan,nan,nan,nan,168.44519525708165,708.6397586730891,nan,709.0376176692662,nan,nan,nan,nan
1,378,1,1,1.0,1.0,0.26970809447811916,0.0,2,8,5,1,7,0,nan,nan,nan,nan,nan,nan,nan,nan,nan,nan,nan,nan,0.0,nan,nan,nan,nan,nan,nan,nan,nan,nan,nan,nan,nan,nan,nan,nan,nan,nan,nan,168.44519525708165,709.6398835445289,nan,709.909591639007,nan,nan,nan,nan
1,379,1,1,1.0,1.0,0.38953964912798256,0.0,1,2,7,4,0,6,nan,nan,nan,nan,nan,nan,nan,nan,nan,nan,nan,nan,0.0,nan,nan,nan,nan,nan,nan,nan,nan,nan,nan,nan,nan,nan,nan,nan,nan,nan,nan,168.44519525708165,710.6400089861709,nan,711.0295486352989,nan,nan,nan,nan
