block,trial,freq_trials,correct_response,actual_response,acc,rts,probe_trials,trials_colorind0,trials_colorind1,trials_colorind2,trials_colorind3,trials_colorind4,trials_colorind5,wholereport_resp0,wholereport_resp1,wholereport_resp2,wholereport_resp3,wholereport_resp4,wholereport_resp5,wholereport_respacc0,wholereport_respacc1,wholereport_respacc2,wholereport_respacc3,wholereport_respacc4,wholereport_respacc5,wholereport_respacc_total,wholereport_respcolorind0,wholereport_respcolorind1,wholereport_respcolorind2,wholereport_respcolorind3,wholereport_respcolorind4,wholereport_respcolorind5,wholereport_resporder0,wholereport_resporder1,wholereport_resporder2,wholereport_resporder3,wholereport_resporder4,wholereport_resporder5,wholereport_rts0,wholereport_rts1,wholereport_rts2,wholereport_rts3,wholereport_rts4,wholereport_rts5,time_blockstart,time_encarray_offset,time_encarray_onset,time_response,time_iti_offset,time_iti_onset,time_memprobe_offset,time_memprobe_onset
1,1,1,1,1.0,1.0,0.5046991636045277,0,8,2,7,1,0,6,nan,nan,nan,nan,nan,nan,nan,nan,nan,nan,nan,nan,0.0,nan,nan,nan,nan,nan,nan,nan,nan,nan,nan,nan,nan,nan,nan,nan,nan,nan,nan,833.8504504153971,834.8658264384139,nan,835.3705256020185,nan,nan,nan,nan
1,2,0,0,0.0,1.0,0.600046357139945,0,7,5,8,6,4,3,nan,nan,nan,nan,nan,nan,nan,nan,nan,nan,nan,nan,0.0,nan,nan,nan,nan,nan,nan,nan,nan,nan,nan,nan,nan,nan,nan,nan,nan,nan,nan,833.8504504153971,835.8743888521567,nan,836.4744352092966,nan,nan,nan,nan
1,3,1,1,1.0,1.0,0.455697855213657,0,6,8,3,2,5,4,nan,nan,nan,nan,nan,nan,nan,nan,nan,nan,nan,nan,0.0,nan,nan,nan,nan,nan,nan,nan,nan,nan,nan,nan,nan,nan,nan,nan,nan,nan,nan,833.8504504153971,836.8827465639915,nan,837.3384444192052,nan,nan,nan,nan
1,4,1,1,1.0,1.0,0.6071992358192801,0,3,6,7,0,1,2,nan,nan,nan,nan,nan,nan,nan,nan,nan,nan,nan,nan,0.0,nan,nan,nan,nan,nan,nan,nan,nan,nan,nan,nan,nan,nan,nan,nan,nan,nan,nan,833.8504504153971,837.8912197411992,nan,838.4984189770184,nan,nan,nan,nan
1,5,1,1,1.0,1.0,0.4627244344446808,0,8,5,2,6,4,7,nan,nan,nan,nan,nan,nan,nan,nan,nan,nan,nan,nan,0.0,nan,nan,nan,nan,nan,nan,nan,nan,nan,nan,nan,nan,nan,nan,nan,nan,nan,nan,833.8504504153971,838.8996920632198,nan,839.3624164976645,nan,nan,nan,nan
1,6,1,1,1.0,1.0,0.4941647120285779,1,0,4,1,2,5,6,1.0,1.0,1.0,1.0,1.0,1.0,0.0,0.0,0.0,0.0,0.0,0.0,0.0,8.0,5.0,3.0,7.0,1.0,2.0,3.0,2.0,1.0,6.0,5.0,4.0,6.601793736452237,5.289313105400652,3.683805654058233,10.129115314222872,9.288905982393771,7.794788311701268,833.8504504153971,839.9082074353937,840.7165853322949,840.4023721474223,851.9014477101155,852.9011608993169,841.7333988302853,851.8931227850262
1,7,1,1,1.0,1.0,0.7002559346146882,0,3,1,0,5,6,4,nan,nan,nan,nan,nan,nan,nan,nan,nan,nan,nan,nan,0.0,nan,nan,nan,nan,nan,nan,nan,nan,nan,nan,nan,nan,nan,nan,nan,nan,nan,nan,833.8504504153971,853.1099976364058,nan,853.8102535710204,nan,nan,nan,nan
1,8,1,1,nan,nan,nan,0,0,6,8,2,3,7,nan,nan,nan,nan,nan,nan,nan,nan,nan,nan,nan,nan,0.0,nan,nan,nan,nan,nan,nan,nan,nan,nan,nan,nan,nan,nan,nan,nan,nan,nan,nan,833.8504504153971,854.1267866159324,nan,nan,nan,nan,nan,nan
1,9,0,0,1.0,0.0,0.08303970377892256,0,2,3,1,8,4,6,nan,nan,nan,nan,nan,nan,nan,nan,nan,nan,nan,nan,0.0,nan,nan,nan,nan,nan,nan,nan,nan,nan,nan,nan,nan,nan,nan,nan,nan,nan,nan,833.8504504153971,855.1352558019571,nan,855.218295505736,nan,nan,nan,nan
1,10,1,1,1.0,1.0,0.6426588555332273,0,5,0,4,6,7,1,nan,nan,nan,nan,nan,nan,nan,nan,nan,nan,nan,nan,0.0,nan,nan,nan,nan,nan,nan,nan,nan,nan,nan,nan,nan,nan,nan,nan,nan,nan,nan,833.8504504153971,856.1437298345845,nan,856.7863886901177,nan,nan,nan,nan
1,11,1,1,nan,nan,nan,0,4,8,1,2,5,7,nan,nan,nan,nan,nan,nan,nan,nan,nan,nan,nan,nan,0.0,nan,nan,nan,nan,nan,nan,nan,nan,nan,nan,nan,nan,nan,nan,nan,nan,nan,nan,833.8504504153971,857.1521978799719,nan,nan,nan,nan,nan,nan
1,12,1,1,1.0,1.0,0.5614922600798309,0,5,6,8,0,3,1,nan,nan,nan,nan,nan,nan,nan,nan,nan,nan,nan,nan,0.0,nan,nan,nan,nan,nan,nan,nan,nan,nan,nan,nan,nan,nan,nan,nan,nan,nan,nan,833.8504504153971,858.160685027251,nan,858.7221772873309,nan,nan,nan,nan
1,13,1,1,1.0,1.0,0.6819382479880005,0,0,3,6,4,2,8,nan,nan,nan,nan,nan,nan,nan,nan,nan,nan,nan,nan,0.0,nan,nan,nan,nan,nan,nan,nan,nan,nan,nan,nan,nan,nan,nan,nan,nan,nan,nan,833.8504504153971,859.1691433794331,nan,859.8510816274211,nan,nan,nan,nan
1,14,1,1,1.0,1.0,0.7125448924489319,0,3,1,5,2,6,0,nan,nan,nan,nan,nan,nan,nan,nan,nan,nan,nan,nan,0.0,nan,nan,nan,nan,nan,nan,nan,nan,nan,nan,nan,nan,nan,nan,nan,nan,nan,nan,833.8504504153971,860.1776171270758,nan,860.8901620195247,nan,nan,nan,nan
1,15,1,1,1.0,1.0,0.5041215508244932,0,8,0,2,5,1,6,nan,nan,nan,nan,nan,nan,nan,nan,nan,nan,nan,nan,0.0,nan,nan,nan,nan,nan,nan,nan,nan,nan,nan,nan,nan,nan,nan,nan,nan,nan,nan,833.8504504153971,861.1860626495909,nan,861.6901842004154,nan,nan,nan,nan
1,16,0,0,nan,nan,nan,0,7,5,3,1,6,4,nan,nan,nan,nan,nan,nan,nan,nan,nan,nan,nan,nan,0.0,nan,nan,nan,nan,nan,nan,nan,nan,nan,nan,nan,nan,nan,nan,nan,nan,nan,nan,833.8504504153971,862.1945606307127,nan,nan,nan,nan,nan,nan
1,17,1,1,0.0,0.0,0.1191388035658747,0,8,1,6,4,7,0,nan,nan,nan,nan,nan,nan,nan,nan,nan,nan,nan,nan,0.0,nan,nan,nan,nan,nan,nan,nan,nan,nan,nan,nan,nan,nan,nan,nan,nan,nan,nan,833.8504504153971,863.2030263955239,nan,863.3221651990898,nan,nan,nan,nan
1,18,1,1,1.0,1.0,0.39062687545083463,0,6,0,4,5,2,8,nan,nan,nan,nan,nan,nan,nan,nan,nan,nan,nan,nan,0.0,nan,nan,nan,nan,nan,nan,nan,nan,nan,nan,nan,nan,nan,nan,nan,nan,nan,nan,833.8504504153971,864.2115215254016,nan,864.6021484008525,nan,nan,nan,nan
1,19,1,1,1.0,1.0,0.32621333631686866,0,2,3,0,8,6,5,nan,nan,nan,nan,nan,nan,nan,nan,nan,nan,nan,nan,0.0,nan,nan,nan,nan,nan,nan,nan,nan,nan,nan,nan,nan,nan,nan,nan,nan,nan,nan,833.8504504153971,865.2199468060862,nan,865.5461601424031,nan,nan,nan,nan
1,20,1,1,1.0,1.0,0.48572061490267515,0,7,5,4,1,0,2,nan,nan,nan,nan,nan,nan,nan,nan,nan,nan,nan,nan,0.0,nan,nan,nan,nan,nan,nan,nan,nan,nan,nan,nan,nan,nan,nan,nan,nan,nan,nan,833.8504504153971,866.2284159918781,nan,866.7141366067808,nan,nan,nan,nan
1,21,1,1,1.0,1.0,0.6292152416426688,0,4,7,2,0,1,3,nan,nan,nan,nan,nan,nan,nan,nan,nan,nan,nan,nan,0.0,nan,nan,nan,nan,nan,nan,nan,nan,nan,nan,nan,nan,nan,nan,nan,nan,nan,nan,833.8504504153971,867.2369119774085,nan,867.8661272190511,nan,nan,nan,nan
1,22,1,1,1.0,1.0,0.4527068694587797,1,3,1,7,8,5,6,1.0,1.0,1.0,1.0,1.0,1.0,0.0,0.0,0.0,0.0,0.0,0.0,0.0,8.0,3.0,1.0,0.0,8.0,0.0,3.0,2.0,1.0,6.0,5.0,4.0,6.145510570378974,3.0171507715713233,1.338590390747413,10.159932077862322,9.144045440480113,8.121218324406072,833.8504504153971,868.245396558661,869.0538320457563,868.6981034281198,880.272003532853,881.2715188625734,870.0706238760613,880.2637074028607
1,23,1,1,1.0,1.0,0.4174163138959557,0,1,5,2,4,6,7,nan,nan,nan,nan,nan,nan,nan,nan,nan,nan,nan,nan,0.0,nan,nan,nan,nan,nan,nan,nan,nan,nan,nan,nan,nan,nan,nan,nan,nan,nan,nan,833.8504504153971,881.4805585909635,nan,881.8979749048594,nan,nan,nan,nan
1,24,1,1,1.0,1.0,0.5526398993097246,0,5,3,6,2,8,1,nan,nan,nan,nan,nan,nan,nan,nan,nan,nan,nan,nan,0.0,nan,nan,nan,nan,nan,nan,nan,nan,nan,nan,nan,nan,nan,nan,nan,nan,nan,nan,833.8504504153971,882.4973452896811,nan,883.0499851889908,nan,nan,nan,nan
1,25,1,1,1.0,1.0,0.5361593984998763,0,2,6,0,7,3,4,nan,nan,nan,nan,nan,nan,nan,nan,nan,nan,nan,nan,0.0,nan,nan,nan,nan,nan,nan,nan,nan,nan,nan,nan,nan,nan,nan,nan,nan,nan,nan,833.8504504153971,883.5058207476977,nan,884.0419801461976,nan,nan,nan,nan
1,26,1,1,1.0,1.0,0.5276012611575425,0,6,5,4,2,0,8,nan,nan,nan,nan,nan,nan,nan,nan,nan,nan,nan,nan,0.0,nan,nan,nan,nan,nan,nan,nan,nan,nan,nan,nan,nan,nan,nan,nan,nan,nan,nan,833.8504504153971,884.5143104610033,nan,885.0419117221609,nan,nan,nan,nan
1,27,1,1,1.0,1.0,0.4392356008756906,0,1,7,2,3,6,5,nan,nan,nan,nan,nan,nan,nan,nan,nan,nan,nan,nan,0.0,nan,nan,nan,nan,nan,nan,nan,nan,nan,nan,nan,nan,nan,nan,nan,nan,nan,nan,833.8504504153971,885.5227340308484,nan,885.9619696317241,nan,nan,nan,nan
1,28,1,1,1.0,1.0,0.49470839789137244,0,3,2,6,7,4,8,nan,nan,nan,nan,nan,nan,nan,nan,nan,nan,nan,nan,0.0,nan,nan,nan,nan,nan,nan,nan,nan,nan,nan,nan,nan,nan,nan,nan,nan,nan,nan,833.8504504153971,886.5312576710712,nan,887.0259660689626,nan,nan,nan,nan
1,29,1,1,1.0,1.0,0.4622306409291923,0,2,5,3,0,8,1,nan,nan,nan,nan,nan,nan,nan,nan,nan,nan,nan,nan,0.0,nan,nan,nan,nan,nan,nan,nan,nan,nan,nan,nan,nan,nan,nan,nan,nan,nan,nan,833.8504504153971,887.5397228654474,nan,888.0019535063766,nan,nan,nan,nan
1,30,1,1,1.0,1.0,0.34176127472892404,0,8,3,6,1,7,4,nan,nan,nan,nan,nan,nan,nan,nan,nan,nan,nan,nan,0.0,nan,nan,nan,nan,nan,nan,nan,nan,nan,nan,nan,nan,nan,nan,nan,nan,nan,nan,833.8504504153971,888.54817466042,nan,888.889935935149,nan,nan,nan,nan
1,31,1,1,1.0,1.0,0.325282484292984,0,7,8,3,2,5,0,nan,nan,nan,nan,nan,nan,nan,nan,nan,nan,nan,nan,0.0,nan,nan,nan,nan,nan,nan,nan,nan,nan,nan,nan,nan,nan,nan,nan,nan,nan,nan,833.8504504153971,889.5566418506205,nan,889.8819243349135,nan,nan,nan,nan
1,32,0,0,0.0,1.0,0.4528337388765067,0,0,2,7,1,4,6,nan,nan,nan,nan,nan,nan,nan,nan,nan,nan,nan,nan,0.0,nan,nan,nan,nan,nan,nan,nan,nan,nan,nan,nan,nan,nan,nan,nan,nan,nan,nan,833.8504504153971,890.5650950709824,nan,891.0179288098589,nan,nan,nan,nan
1,33,1,1,nan,nan,nan,0,8,5,1,3,2,4,nan,nan,nan,nan,nan,nan,nan,nan,nan,nan,nan,nan,0.0,nan,nan,nan,nan,nan,nan,nan,nan,nan,nan,nan,nan,nan,nan,nan,nan,nan,nan,833.8504504153971,891.5735913414974,nan,nan,nan,nan,nan,nan
1,34,1,1,nan,nan,nan,0,4,8,5,0,6,3,nan,nan,nan,nan,nan,nan,nan,nan,nan,nan,nan,nan,0.0,nan,nan,nan,nan,nan,nan,nan,nan,nan,nan,nan,nan,nan,nan,nan,nan,nan,nan,833.8504504153971,892.582033442799,nan,nan,nan,nan,nan,nan
1,35,1,1,nan,nan,nan,0,0,6,7,3,1,4,nan,nan,nan,nan,nan,nan,nan,nan,nan,nan,nan,nan,0.0,nan,nan,nan,nan,nan,nan,nan,nan,nan,nan,nan,nan,nan,nan,nan,nan,nan,nan,833.8504504153971,893.5905642104335,nan,nan,nan,nan,nan,nan
1,36,1,1,nan,nan,nan,0,4,2,3,7,6,8,nan,nan,nan,nan,nan,nan,nan,nan,nan,nan,nan,nan,0.0,nan,nan,nan,nan,nan,nan,nan,nan,nan,nan,nan,nan,nan,nan,nan,nan,nan,nan,833.8504504153971,894.5989966185298,nan,nan,nan,nan,nan,nan
1,37,1,1,1.0,1.0,0.24238647101446986,0,5,0,6,2,1,7,nan,nan,nan,nan,nan,nan,nan,nan,nan,nan,nan,nan,0.0,nan,nan,nan,nan,nan,nan,nan,nan,nan,nan,nan,nan,nan,nan,nan,nan,nan,nan,833.8504504153971,895.607486046385,nan,895.8498725173995,nan,nan,nan,nan
1,38,1,1,1.0,1.0,0.6178984751459211,0,7,4,8,3,0,6,nan,nan,nan,nan,nan,nan,nan,nan,nan,nan,nan,nan,0.0,nan,nan,nan,nan,nan,nan,nan,nan,nan,nan,nan,nan,nan,nan,nan,nan,nan,nan,833.8504504153971,896.6159469645936,nan,897.2338454397395,nan,nan,nan,nan
1,39,1,1,1.0,1.0,0.4094517552293837,0,5,8,0,6,2,4,nan,nan,nan,nan,nan,nan,nan,nan,nan,nan,nan,nan,0.0,nan,nan,nan,nan,nan,nan,nan,nan,nan,nan,nan,nan,nan,nan,nan,nan,nan,nan,833.8504504153971,897.6243976189289,nan,898.0338493741583,nan,nan,nan,nan
1,40,1,1,1.0,1.0,0.4249306994024664,0,0,7,2,4,5,1,nan,nan,nan,nan,nan,nan,nan,nan,nan,nan,nan,nan,0.0,nan,nan,nan,nan,nan,nan,nan,nan,nan,nan,nan,nan,nan,nan,nan,nan,nan,nan,833.8504504153971,898.6328975956421,nan,899.0578282950446,nan,nan,nan,nan
1,41,1,1,1.0,1.0,0.32043891749344766,0,4,0,3,7,8,6,nan,nan,nan,nan,nan,nan,nan,nan,nan,nan,nan,nan,0.0,nan,nan,nan,nan,nan,nan,nan,nan,nan,nan,nan,nan,nan,nan,nan,nan,nan,nan,833.8504504153971,899.6413761898875,nan,899.961815107381,nan,nan,nan,nan
1,42,1,1,1.0,1.0,0.2799549768678844,0,6,1,8,4,3,7,nan,nan,nan,nan,nan,nan,nan,nan,nan,nan,nan,nan,0.0,nan,nan,nan,nan,nan,nan,nan,nan,nan,nan,nan,nan,nan,nan,nan,nan,nan,nan,833.8504504153971,900.6498416697141,nan,900.929796646582,nan,nan,nan,nan
1,43,1,1,1.0,1.0,0.39948379760608077,0,5,4,3,0,2,1,nan,nan,nan,nan,nan,nan,nan,nan,nan,nan,nan,nan,0.0,nan,nan,nan,nan,nan,nan,nan,nan,nan,nan,nan,nan,nan,nan,nan,nan,nan,nan,833.8504504153971,901.6583142767195,nan,902.0577980743255,nan,nan,nan,nan
1,44,1,1,1.0,1.0,0.3432834246195853,0,1,3,0,2,8,4,nan,nan,nan,nan,nan,nan,nan,nan,nan,nan,nan,nan,0.0,nan,nan,nan,nan,nan,nan,nan,nan,nan,nan,nan,nan,nan,nan,nan,nan,nan,nan,833.8504504153971,902.6667811819352,nan,903.0100646065548,nan,nan,nan,nan
1,45,1,1,1.0,1.0,0.27857423666864634,0,3,1,6,5,4,2,nan,nan,nan,nan,nan,nan,nan,nan,nan,nan,nan,nan,0.0,nan,nan,nan,nan,nan,nan,nan,nan,nan,nan,nan,nan,nan,nan,nan,nan,nan,nan,833.8504504153971,903.6752321214881,nan,903.9538063581567,nan,nan,nan,nan
1,46,1,1,1.0,1.0,0.26203101384453475,0,7,8,5,0,2,3,nan,nan,nan,nan,nan,nan,nan,nan,nan,nan,nan,nan,0.0,nan,nan,nan,nan,nan,nan,nan,nan,nan,nan,nan,nan,nan,nan,nan,nan,nan,nan,833.8504504153971,904.683731527999,nan,904.9457625418436,nan,nan,nan,nan
1,47,1,1,1.0,1.0,0.2935833358205855,0,8,7,3,2,5,4,nan,nan,nan,nan,nan,nan,nan,nan,nan,nan,nan,nan,0.0,nan,nan,nan,nan,nan,nan,nan,nan,nan,nan,nan,nan,nan,nan,nan,nan,nan,nan,833.8504504153971,905.6921867439523,nan,905.9857700797729,nan,nan,nan,nan
1,48,1,1,1.0,1.0,0.26909722154960036,0,5,1,0,7,4,6,nan,nan,nan,nan,nan,nan,nan,nan,nan,nan,nan,nan,0.0,nan,nan,nan,nan,nan,nan,nan,nan,nan,nan,nan,nan,nan,nan,nan,nan,nan,nan,833.8504504153971,906.7006764572579,nan,906.9697736788075,nan,nan,nan,nan
1,49,0,0,0.0,1.0,0.564575333148241,0,2,8,4,1,6,0,nan,nan,nan,nan,nan,nan,nan,nan,nan,nan,nan,nan,0.0,nan,nan,nan,nan,nan,nan,nan,nan,nan,nan,nan,nan,nan,nan,nan,nan,nan,nan,833.8504504153971,907.7091981016565,nan,908.2737734348048,nan,nan,nan,nan
1,50,1,1,1.0,1.0,0.7881283713504672,1,1,6,7,5,3,8,1.0,1.0,1.0,1.0,1.0,1.0,0.0,0.0,1.0,0.0,0.0,0.0,1.0,4.0,2.0,7.0,7.0,7.0,5.0,3.0,2.0,1.0,6.0,5.0,4.0,10.569100158289075,4.46411429787986,2.0582590815611184,13.582742202095687,12.911124580539763,11.672222033841535,833.8504504153971,908.7176082718652,909.5260257974733,909.5057366432156,924.1613658466376,925.1605279371142,910.5428398656659,924.1530283768661
1,51,1,1,1.0,1.0,0.4796870397403836,0,7,4,2,8,0,5,nan,nan,nan,nan,nan,nan,nan,nan,nan,nan,nan,nan,0.0,nan,nan,nan,nan,nan,nan,nan,nan,nan,nan,nan,nan,nan,nan,nan,nan,nan,nan,833.8504504153971,925.3699134921189,nan,925.8496005318593,nan,nan,nan,nan
1,52,1,1,1.0,1.0,0.42324803792871535,0,6,5,1,0,4,3,nan,nan,nan,nan,nan,nan,nan,nan,nan,nan,nan,nan,0.0,nan,nan,nan,nan,nan,nan,nan,nan,nan,nan,nan,nan,nan,nan,nan,nan,nan,nan,833.8504504153971,926.3783359215595,nan,926.8015839594882,nan,nan,nan,nan
1,53,1,1,1.0,1.0,0.26270556077361107,1,7,6,2,3,8,0,1.0,1.0,1.0,1.0,1.0,1.0,1.0,0.0,0.0,0.0,0.0,0.0,1.0,7.0,5.0,8.0,2.0,1.0,7.0,3.0,2.0,1.0,6.0,5.0,4.0,6.858844334958121,5.9867251655086875,4.765584930079058,10.521858773427084,9.762971987016499,8.962291224859655,833.8504504153971,927.3868464471307,928.1952708151657,927.6495520079043,939.7635159580968,940.7632853121031,929.2037556816358,939.7551807691343
1,54,1,1,nan,nan,nan,0,3,4,0,2,7,1,nan,nan,nan,nan,nan,nan,nan,nan,nan,nan,nan,nan,0.0,nan,nan,nan,nan,nan,nan,nan,nan,nan,nan,nan,nan,nan,nan,nan,nan,nan,nan,833.8504504153971,940.9720071537886,nan,nan,nan,nan,nan,nan
1,55,1,1,1.0,1.0,0.37293042219243944,0,0,7,2,1,6,3,nan,nan,nan,nan,nan,nan,nan,nan,nan,nan,nan,nan,0.0,nan,nan,nan,nan,nan,nan,nan,nan,nan,nan,nan,nan,nan,nan,nan,nan,nan,nan,833.8504504153971,941.9805171089247,nan,942.3534475311171,nan,nan,nan,nan
1,56,1,1,1.0,1.0,0.7084328925702721,0,8,5,4,6,7,1,nan,nan,nan,nan,nan,nan,nan,nan,nan,nan,nan,nan,0.0,nan,nan,nan,nan,nan,nan,nan,nan,nan,nan,nan,nan,nan,nan,nan,nan,nan,nan,833.8504504153971,942.9889814483467,nan,943.697414340917,nan,nan,nan,nan
1,57,1,1,1.0,1.0,0.49993513990193605,0,0,6,2,7,5,3,nan,nan,nan,nan,nan,nan,nan,nan,nan,nan,nan,nan,0.0,nan,nan,nan,nan,nan,nan,nan,nan,nan,nan,nan,nan,nan,nan,nan,nan,nan,nan,833.8504504153971,943.9974657443818,nan,944.4974008842837,nan,nan,nan,nan
1,58,0,0,nan,nan,nan,0,7,4,5,0,6,8,nan,nan,nan,nan,nan,nan,nan,nan,nan,nan,nan,nan,0.0,nan,nan,nan,nan,nan,nan,nan,nan,nan,nan,nan,nan,nan,nan,nan,nan,nan,nan,833.8504504153971,945.0059737041593,nan,nan,nan,nan,nan,nan
1,59,1,1,0.0,0.0,0.34691759664565325,0,6,0,2,4,7,1,nan,nan,nan,nan,nan,nan,nan,nan,nan,nan,nan,nan,0.0,nan,nan,nan,nan,nan,nan,nan,nan,nan,nan,nan,nan,nan,nan,nan,nan,nan,nan,833.8504504153971,946.0144885061309,nan,946.3614061027765,nan,nan,nan,nan
1,60,1,1,1.0,1.0,0.6264757143799216,0,1,2,7,0,6,5,nan,nan,nan,nan,nan,nan,nan,nan,nan,nan,nan,nan,0.0,nan,nan,nan,nan,nan,nan,nan,nan,nan,nan,nan,nan,nan,nan,nan,nan,nan,nan,833.8504504153971,947.0228698810097,nan,947.6493455953896,nan,nan,nan,nan
1,61,1,1,nan,nan,nan,0,7,5,1,8,0,3,nan,nan,nan,nan,nan,nan,nan,nan,nan,nan,nan,nan,0.0,nan,nan,nan,nan,nan,nan,nan,nan,nan,nan,nan,nan,nan,nan,nan,nan,nan,nan,833.8504504153971,948.0313527518883,nan,nan,nan,nan,nan,nan
1,62,1,1,nan,nan,nan,0,0,3,5,4,6,7,nan,nan,nan,nan,nan,nan,nan,nan,nan,nan,nan,nan,0.0,nan,nan,nan,nan,nan,nan,nan,nan,nan,nan,nan,nan,nan,nan,nan,nan,nan,nan,833.8504504153971,949.0397951384075,nan,nan,nan,nan,nan,nan
1,63,1,1,1.0,1.0,0.009067896287888288,1,5,0,4,7,2,8,1.0,1.0,1.0,1.0,1.0,1.0,0.0,1.0,1.0,0.0,0.0,0.0,2.0,8.0,0.0,4.0,8.0,1.0,7.0,3.0,2.0,1.0,6.0,5.0,4.0,3.3562728739343584,2.2614023678470403,1.2550865435041487,6.580345934722573,5.8364833577070385,4.396903926040977,833.8504504153971,950.048290268518,950.8567217641976,950.0573581648059,958.4910462861881,959.4911648880225,951.8735292751808,958.4827190802898
1,64,1,1,1.0,1.0,0.3256445615552366,0,1,6,0,5,4,7,nan,nan,nan,nan,nan,nan,nan,nan,nan,nan,nan,nan,0.0,nan,nan,nan,nan,nan,nan,nan,nan,nan,nan,nan,nan,nan,nan,nan,nan,nan,nan,833.8504504153971,959.6996124633588,nan,960.025257024914,nan,nan,nan,nan
1,65,1,1,1.0,1.0,0.3331905931700021,0,3,4,6,8,2,0,nan,nan,nan,nan,nan,nan,nan,nan,nan,nan,nan,nan,0.0,nan,nan,nan,nan,nan,nan,nan,nan,nan,nan,nan,nan,nan,nan,nan,nan,nan,nan,833.8504504153971,960.7080802237615,nan,961.0412708169315,nan,nan,nan,nan
1,66,1,1,1.0,1.0,0.4367019154597074,0,8,6,4,1,0,5,nan,nan,nan,nan,nan,nan,nan,nan,nan,nan,nan,nan,0.0,nan,nan,nan,nan,nan,nan,nan,nan,nan,nan,nan,nan,nan,nan,nan,nan,nan,nan,833.8504504153971,961.7165545416065,nan,962.1532564570662,nan,nan,nan,nan
1,67,1,1,1.0,1.0,0.5241797738708556,0,6,7,2,4,5,0,nan,nan,nan,nan,nan,nan,nan,nan,nan,nan,nan,nan,0.0,nan,nan,nan,nan,nan,nan,nan,nan,nan,nan,nan,nan,nan,nan,nan,nan,nan,nan,833.8504504153971,962.7250319954474,nan,963.2492117693182,nan,nan,nan,nan
1,68,0,0,0.0,1.0,0.5716848764568567,0,5,1,0,6,2,4,nan,nan,nan,nan,nan,nan,nan,nan,nan,nan,nan,nan,0.0,nan,nan,nan,nan,nan,nan,nan,nan,nan,nan,nan,nan,nan,nan,nan,nan,nan,nan,833.8504504153971,963.7335080236662,nan,964.3051929001231,nan,nan,nan,nan
1,69,1,1,1.0,1.0,0.5872117173857987,0,4,2,1,0,3,8,nan,nan,nan,nan,nan,nan,nan,nan,nan,nan,nan,nan,0.0,nan,nan,nan,nan,nan,nan,nan,nan,nan,nan,nan,nan,nan,nan,nan,nan,nan,nan,833.8504504153971,964.741977209691,nan,965.3291889270768,nan,nan,nan,nan
1,70,1,1,1.0,1.0,0.6987249464727938,0,1,6,2,3,4,7,nan,nan,nan,nan,nan,nan,nan,nan,nan,nan,nan,nan,0.0,nan,nan,nan,nan,nan,nan,nan,nan,nan,nan,nan,nan,nan,nan,nan,nan,nan,nan,833.8504504153971,965.7504640717525,nan,966.4491890182253,nan,nan,nan,nan
1,71,1,1,1.0,1.0,0.5302444249391556,0,6,0,1,2,8,4,nan,nan,nan,nan,nan,nan,nan,nan,nan,nan,nan,nan,0.0,nan,nan,nan,nan,nan,nan,nan,nan,nan,nan,nan,nan,nan,nan,nan,nan,nan,nan,833.8504504153971,966.7589352533687,nan,967.2891796783078,nan,nan,nan,nan
1,72,1,1,1.0,1.0,0.48977644997648895,0,0,4,3,6,7,8,nan,nan,nan,nan,nan,nan,nan,nan,nan,nan,nan,nan,0.0,nan,nan,nan,nan,nan,nan,nan,nan,nan,nan,nan,nan,nan,nan,nan,nan,nan,nan,833.8504504153971,967.7674041544087,nan,968.2571806043852,nan,nan,nan,nan
1,73,1,1,1.0,1.0,0.43329867464490235,0,7,3,1,4,0,2,nan,nan,nan,nan,nan,nan,nan,nan,nan,nan,nan,nan,0.0,nan,nan,nan,nan,nan,nan,nan,nan,nan,nan,nan,nan,nan,nan,nan,nan,nan,nan,833.8504504153971,968.7758659275714,nan,969.2091646022163,nan,nan,nan,nan
1,74,1,1,1.0,1.0,0.41681047598831356,0,0,6,2,8,3,4,nan,nan,nan,nan,nan,nan,nan,nan,nan,nan,nan,nan,0.0,nan,nan,nan,nan,nan,nan,nan,nan,nan,nan,nan,nan,nan,nan,nan,nan,nan,nan,833.8504504153971,969.7843470878433,nan,970.2011575638317,nan,nan,nan,nan
1,75,1,1,1.0,1.0,0.7443278606515378,0,3,8,1,2,0,7,nan,nan,nan,nan,nan,nan,nan,nan,nan,nan,nan,nan,0.0,nan,nan,nan,nan,nan,nan,nan,nan,nan,nan,nan,nan,nan,nan,nan,nan,nan,nan,833.8504504153971,970.7928020188119,nan,971.5371298794635,nan,nan,nan,nan
1,76,1,1,nan,nan,nan,0,1,4,0,6,2,8,nan,nan,nan,nan,nan,nan,nan,nan,nan,nan,nan,nan,0.0,nan,nan,nan,nan,nan,nan,nan,nan,nan,nan,nan,nan,nan,nan,nan,nan,nan,nan,833.8504504153971,971.8012686388101,nan,nan,nan,nan,nan,nan
1,77,1,1,1.0,1.0,0.04737338633276522,0,0,1,2,7,6,5,nan,nan,nan,nan,nan,nan,nan,nan,nan,nan,nan,nan,0.0,nan,nan,nan,nan,nan,nan,nan,nan,nan,nan,nan,nan,nan,nan,nan,nan,nan,nan,833.8504504153971,972.809757496696,nan,972.8571308830287,nan,nan,nan,nan
1,78,0,0,nan,nan,nan,0,3,6,0,5,4,2,nan,nan,nan,nan,nan,nan,nan,nan,nan,nan,nan,nan,0.0,nan,nan,nan,nan,nan,nan,nan,nan,nan,nan,nan,nan,nan,nan,nan,nan,nan,nan,833.8504504153971,973.8181824919302,nan,nan,nan,nan,nan,nan
1,79,1,1,1.0,1.0,0.5745504184160382,0,1,8,6,2,5,4,nan,nan,nan,nan,nan,nan,nan,nan,nan,nan,nan,nan,0.0,nan,nan,nan,nan,nan,nan,nan,nan,nan,nan,nan,nan,nan,nan,nan,nan,nan,nan,833.8504504153971,974.8266904517077,nan,975.4012408701237,nan,nan,nan,nan
1,80,1,1,1.0,1.0,0.7500141838099808,0,2,5,4,3,7,6,nan,nan,nan,nan,nan,nan,nan,nan,nan,nan,nan,nan,0.0,nan,nan,nan,nan,nan,nan,nan,nan,nan,nan,nan,nan,nan,nan,nan,nan,nan,nan,833.8504504153971,975.8351393954363,nan,976.5851535792463,nan,nan,nan,nan
1,81,1,1,nan,nan,nan,0,8,7,3,4,0,2,nan,nan,nan,nan,nan,nan,nan,nan,nan,nan,nan,nan,0.0,nan,nan,nan,nan,nan,nan,nan,nan,nan,nan,nan,nan,nan,nan,nan,nan,nan,nan,833.8504504153971,976.8436413679738,nan,nan,nan,nan,nan,nan
1,82,1,1,1.0,1.0,0.140986600657925,0,6,5,4,2,7,8,nan,nan,nan,nan,nan,nan,nan,nan,nan,nan,nan,nan,0.0,nan,nan,nan,nan,nan,nan,nan,nan,nan,nan,nan,nan,nan,nan,nan,nan,nan,nan,833.8504504153971,977.8521114091855,nan,977.9930980098434,nan,nan,nan,nan
1,83,0,0,nan,nan,nan,0,5,4,0,8,3,1,nan,nan,nan,nan,nan,nan,nan,nan,nan,nan,nan,nan,0.0,nan,nan,nan,nan,nan,nan,nan,nan,nan,nan,nan,nan,nan,nan,nan,nan,nan,nan,833.8504504153971,978.8605546508916,nan,nan,nan,nan,nan,nan
1,84,1,1,0.0,0.0,0.18001795560121536,0,4,8,2,1,7,5,nan,nan,nan,nan,nan,nan,nan,nan,nan,nan,nan,nan,0.0,nan,nan,nan,nan,nan,nan,nan,nan,nan,nan,nan,nan,nan,nan,nan,nan,nan,nan,833.8504504153971,979.8690723038744,nan,980.0490902594756,nan,nan,nan,nan
1,85,1,1,1.0,1.0,0.6518849825952202,0,1,6,0,3,5,4,nan,nan,nan,nan,nan,nan,nan,nan,nan,nan,nan,nan,0.0,nan,nan,nan,nan,nan,nan,nan,nan,nan,nan,nan,nan,nan,nan,nan,nan,nan,nan,833.8504504153971,980.8775223882403,nan,981.5294073708355,nan,nan,nan,nan
1,86,1,1,1.0,1.0,0.6990399821661413,0,6,2,4,8,7,3,nan,nan,nan,nan,nan,nan,nan,nan,nan,nan,nan,nan,0.0,nan,nan,nan,nan,nan,nan,nan,nan,nan,nan,nan,nan,nan,nan,nan,nan,nan,nan,833.8504504153971,981.8860012674704,nan,982.5850412496366,nan,nan,nan,nan
1,87,1,1,1.0,1.0,0.4985538295004517,0,7,3,8,0,2,1,nan,nan,nan,nan,nan,nan,nan,nan,nan,nan,nan,nan,0.0,nan,nan,nan,nan,nan,nan,nan,nan,nan,nan,nan,nan,nan,nan,nan,nan,nan,nan,833.8504504153971,982.8944730192889,nan,983.3930268487893,nan,nan,nan,nan
1,88,1,1,1.0,1.0,0.6180718161631376,1,0,2,6,1,7,5,1.0,1.0,1.0,1.0,1.0,1.0,0.0,1.0,1.0,0.0,0.0,1.0,3.0,1.0,2.0,6.0,7.0,8.0,5.0,3.0,2.0,1.0,6.0,5.0,4.0,4.910426655318588,3.5092502180486917,1.838767865439877,8.693136412883177,7.357995734317228,6.174319943413138,833.8504504153971,983.9029382138979,984.7113674287684,984.521010030061,994.4626873712987,995.4618508873973,985.7281792161521,994.4543593099806
1,89,0,0,1.0,0.0,0.3457136186771095,0,5,6,4,7,8,0,nan,nan,nan,nan,nan,nan,nan,nan,nan,nan,nan,nan,0.0,nan,nan,nan,nan,nan,nan,nan,nan,nan,nan,nan,nan,nan,nan,nan,nan,nan,nan,833.8504504153971,995.671200804878,nan,996.0169144235551,nan,nan,nan,nan
1,90,1,1,1.0,1.0,0.5452118993271142,0,7,1,5,2,0,6,nan,nan,nan,nan,nan,nan,nan,nan,nan,nan,nan,nan,0.0,nan,nan,nan,nan,nan,nan,nan,nan,nan,nan,nan,nan,nan,nan,nan,nan,nan,nan,833.8504504153971,996.6796851011459,nan,997.224897000473,nan,nan,nan,nan
1,91,1,1,1.0,1.0,0.5127358527388424,0,5,7,1,8,3,4,nan,nan,nan,nan,nan,nan,nan,nan,nan,nan,nan,nan,0.0,nan,nan,nan,nan,nan,nan,nan,nan,nan,nan,nan,nan,nan,nan,nan,nan,nan,nan,833.8504504153971,997.6881431681104,nan,998.2008790208492,nan,nan,nan,nan
1,92,1,1,1.0,1.0,0.4322512166108936,0,1,3,4,5,2,0,nan,nan,nan,nan,nan,nan,nan,nan,nan,nan,nan,nan,0.0,nan,nan,nan,nan,nan,nan,nan,nan,nan,nan,nan,nan,nan,nan,nan,nan,nan,nan,833.8504504153971,998.6966371578164,nan,999.1288883744273,nan,nan,nan,nan
1,93,1,1,1.0,1.0,0.8004238868597895,1,6,8,7,1,5,3,1.0,1.0,1.0,1.0,1.0,1.0,0.0,1.0,1.0,0.0,0.0,1.0,3.0,7.0,8.0,7.0,3.0,8.0,3.0,3.0,2.0,1.0,6.0,5.0,4.0,3.9864814046304673,2.58063787734136,1.5395489542279392,7.498534727608785,5.907692544395104,5.098560272483155,833.8504504153971,999.7051154670771,1000.5218718878459,1000.5055393539369,1009.0730338280555,1010.0725329068955,1001.5303430696949,1009.064725153381
1,94,1,1,1.0,1.0,0.3591977166943252,0,0,1,6,4,7,2,nan,nan,nan,nan,nan,nan,nan,nan,nan,nan,nan,nan,0.0,nan,nan,nan,nan,nan,nan,nan,nan,nan,nan,nan,nan,nan,nan,nan,nan,nan,nan,833.8504504153971,1010.2815777671058,nan,1010.6407754838001,nan,nan,nan,nan
1,95,1,1,1.0,1.0,0.526787870330736,0,7,2,3,6,5,8,nan,nan,nan,nan,nan,nan,nan,nan,nan,nan,nan,nan,0.0,nan,nan,nan,nan,nan,nan,nan,nan,nan,nan,nan,nan,nan,nan,nan,nan,nan,nan,833.8504504153971,1011.2900070392061,nan,1011.8167949095368,nan,nan,nan,nan
1,96,1,1,1.0,1.0,0.6622523656114936,0,8,5,2,0,4,6,nan,nan,nan,nan,nan,nan,nan,nan,nan,nan,nan,nan,0.0,nan,nan,nan,nan,nan,nan,nan,nan,nan,nan,nan,nan,nan,nan,nan,nan,nan,nan,833.8504504153971,1012.2985104371328,nan,1012.9607628027443,nan,nan,nan,nan
1,97,1,1,nan,nan,nan,0,3,6,4,7,2,0,nan,nan,nan,nan,nan,nan,nan,nan,nan,nan,nan,nan,0.0,nan,nan,nan,nan,nan,nan,nan,nan,nan,nan,nan,nan,nan,nan,nan,nan,nan,nan,833.8504504153971,1013.3069807633292,nan,nan,nan,nan,nan,nan
1,98,1,1,nan,nan,nan,0,0,1,8,6,3,4,nan,nan,nan,nan,nan,nan,nan,nan,nan,nan,nan,nan,0.0,nan,nan,nan,nan,nan,nan,nan,nan,nan,nan,nan,nan,nan,nan,nan,nan,nan,nan,833.8504504153971,1014.3154502345715,nan,nan,nan,nan,nan,nan
1,99,1,1,nan,nan,nan,0,8,7,2,3,4,5,nan,nan,nan,nan,nan,nan,nan,nan,nan,nan,nan,nan,0.0,nan,nan,nan,nan,nan,nan,nan,nan,nan,nan,nan,nan,nan,nan,nan,nan,nan,nan,833.8504504153971,1015.3238951868843,nan,nan,nan,nan,nan,nan
1,100,1,1,nan,nan,nan,0,1,5,3,0,7,2,nan,nan,nan,nan,nan,nan,nan,nan,nan,nan,nan,nan,0.0,nan,nan,nan,nan,nan,nan,nan,nan,nan,nan,nan,nan,nan,nan,nan,nan,nan,nan,833.8504504153971,1016.3323980146088,nan,nan,nan,nan,nan,nan
1,101,1,1,1.0,1.0,0.01985409134067595,0,5,2,7,1,8,4,nan,nan,nan,nan,nan,nan,nan,nan,nan,nan,nan,nan,0.0,nan,nan,nan,nan,nan,nan,nan,nan,nan,nan,nan,nan,nan,nan,nan,nan,nan,nan,833.8504504153971,1017.3408632092178,nan,1017.3607173005585,nan,nan,nan,nan
1,102,0,0,nan,nan,nan,0,0,7,2,4,1,3,nan,nan,nan,nan,nan,nan,nan,nan,nan,nan,nan,nan,0.0,nan,nan,nan,nan,nan,nan,nan,nan,nan,nan,nan,nan,nan,nan,nan,nan,nan,nan,833.8504504153971,1018.3493361014407,nan,nan,nan,nan,nan,nan
1,103,1,1,0.0,0.0,0.314883170183748,0,6,8,5,2,7,0,nan,nan,nan,nan,nan,nan,nan,nan,nan,nan,nan,nan,0.0,nan,nan,nan,nan,nan,nan,nan,nan,nan,nan,nan,nan,nan,nan,nan,nan,nan,nan,833.8504504153971,1019.3578115596902,nan,1019.6726947298739,nan,nan,nan,nan
1,104,1,1,1.0,1.0,0.6263693717774004,0,8,3,1,4,0,5,nan,nan,nan,nan,nan,nan,nan,nan,nan,nan,nan,nan,0.0,nan,nan,nan,nan,nan,nan,nan,nan,nan,nan,nan,nan,nan,nan,nan,nan,nan,nan,833.8504504153971,1020.3662927197292,nan,1020.9926620915066,nan,nan,nan,nan
1,105,1,1,1.0,1.0,0.7859139984939247,0,3,6,8,1,7,2,nan,nan,nan,nan,nan,nan,nan,nan,nan,nan,nan,nan,0.0,nan,nan,nan,nan,nan,nan,nan,nan,nan,nan,nan,nan,nan,nan,nan,nan,nan,nan,833.8504504153971,1021.3747593397275,nan,1022.1606733382214,nan,nan,nan,nan
1,106,1,1,nan,nan,nan,0,8,7,3,0,6,1,nan,nan,nan,nan,nan,nan,nan,nan,nan,nan,nan,nan,0.0,nan,nan,nan,nan,nan,nan,nan,nan,nan,nan,nan,nan,nan,nan,nan,nan,nan,nan,833.8504504153971,1022.3832319469657,nan,nan,nan,nan,nan,nan
1,107,1,1,nan,nan,nan,0,2,3,8,7,4,0,nan,nan,nan,nan,nan,nan,nan,nan,nan,nan,nan,nan,0.0,nan,nan,nan,nan,nan,nan,nan,nan,nan,nan,nan,nan,nan,nan,nan,nan,nan,nan,833.8504504153971,1023.3917094008066,nan,nan,nan,nan,nan,nan
1,108,1,1,nan,nan,nan,0,7,5,3,1,0,8,nan,nan,nan,nan,nan,nan,nan,nan,nan,nan,nan,nan,0.0,nan,nan,nan,nan,nan,nan,nan,nan,nan,nan,nan,nan,nan,nan,nan,nan,nan,nan,833.8504504153971,1024.4001845738385,nan,nan,nan,nan,nan,nan
1,109,1,1,nan,nan,nan,1,4,1,6,0,7,3,1.0,1.0,1.0,1.0,1.0,1.0,0.0,0.0,1.0,1.0,0.0,0.0,2.0,5.0,7.0,6.0,0.0,2.0,1.0,4.0,3.0,2.0,1.0,6.0,5.0,5.899762483080849,4.763043262064457,3.9013333851471543,3.013436771463603,8.914974573301151,8.026806259294972,833.8504504153971,1025.4086369387805,1026.2170727110934,nan,1036.1850525396876,1037.1848107746337,1027.2338460099418,1036.1767182061449
1,110,1,1,1.0,1.0,0.2788790089543909,0,7,4,2,6,3,0,nan,nan,nan,nan,nan,nan,nan,nan,nan,nan,nan,nan,0.0,nan,nan,nan,nan,nan,nan,nan,nan,nan,nan,nan,nan,nan,nan,nan,nan,nan,nan,833.8504504153971,1037.393623563461,nan,1037.6725025724154,nan,nan,nan,nan
1,111,1,1,1.0,1.0,0.3824134243186563,0,6,8,0,1,2,5,nan,nan,nan,nan,nan,nan,nan,nan,nan,nan,nan,nan,0.0,nan,nan,nan,nan,nan,nan,nan,nan,nan,nan,nan,nan,nan,nan,nan,nan,nan,nan,833.8504504153971,1038.4020961704664,nan,1038.784509594785,nan,nan,nan,nan
1,112,1,1,1.0,1.0,0.34195913444273174,0,2,5,7,6,3,4,nan,nan,nan,nan,nan,nan,nan,nan,nan,nan,nan,nan,0.0,nan,nan,nan,nan,nan,nan,nan,nan,nan,nan,nan,nan,nan,nan,nan,nan,nan,nan,833.8504504153971,1039.4105747647118,nan,1039.7525338991545,nan,nan,nan,nan
1,113,1,1,1.0,1.0,0.3257329426705837,0,0,6,4,5,2,1,nan,nan,nan,nan,nan,nan,nan,nan,nan,nan,nan,nan,0.0,nan,nan,nan,nan,nan,nan,nan,nan,nan,nan,nan,nan,nan,nan,nan,nan,nan,nan,833.8504504153971,1040.4190510781482,nan,1040.7447840208188,nan,nan,nan,nan
1,114,1,1,1.0,1.0,0.36497156554833055,0,3,0,1,8,5,4,nan,nan,nan,nan,nan,nan,nan,nan,nan,nan,nan,nan,0.0,nan,nan,nan,nan,nan,nan,nan,nan,nan,nan,nan,nan,nan,nan,nan,nan,nan,nan,833.8504504153971,1041.4275219747797,nan,1041.792493540328,nan,nan,nan,nan
1,115,1,1,1.0,1.0,0.3884752243757248,0,5,3,2,4,8,0,nan,nan,nan,nan,nan,nan,nan,nan,nan,nan,nan,nan,0.0,nan,nan,nan,nan,nan,nan,nan,nan,nan,nan,nan,nan,nan,nan,nan,nan,nan,nan,833.8504504153971,1042.4359985734336,nan,1042.8244737978093,nan,nan,nan,nan
1,116,1,1,1.0,1.0,0.4280000876169652,0,8,1,6,3,7,5,nan,nan,nan,nan,nan,nan,nan,nan,nan,nan,nan,nan,0.0,nan,nan,nan,nan,nan,nan,nan,nan,nan,nan,nan,nan,nan,nan,nan,nan,nan,nan,833.8504504153971,1043.4444512235932,nan,1043.8724513112102,nan,nan,nan,nan
1,117,1,1,1.0,1.0,0.23552981158718467,0,0,4,8,7,5,2,nan,nan,nan,nan,nan,nan,nan,nan,nan,nan,nan,nan,0.0,nan,nan,nan,nan,nan,nan,nan,nan,nan,nan,nan,nan,nan,nan,nan,nan,nan,nan,833.8504504153971,1044.4529323836323,nan,1044.6884621952195,nan,nan,nan,nan
1,118,1,1,1.0,1.0,0.43507199781015515,0,5,2,0,1,6,7,nan,nan,nan,nan,nan,nan,nan,nan,nan,nan,nan,nan,0.0,nan,nan,nan,nan,nan,nan,nan,nan,nan,nan,nan,nan,nan,nan,nan,nan,nan,nan,833.8504504153971,1045.4613627959043,nan,1045.8964347937144,nan,nan,nan,nan
1,119,1,1,1.0,1.0,0.4425570177845657,0,8,7,5,4,2,3,nan,nan,nan,nan,nan,nan,nan,nan,nan,nan,nan,nan,0.0,nan,nan,nan,nan,nan,nan,nan,nan,nan,nan,nan,nan,nan,nan,nan,nan,nan,nan,833.8504504153971,1046.4698958443478,nan,1046.9124528621323,nan,nan,nan,nan
1,120,0,0,nan,nan,nan,0,1,4,6,2,7,8,nan,nan,nan,nan,nan,nan,nan,nan,nan,nan,nan,nan,0.0,nan,nan,nan,nan,nan,nan,nan,nan,nan,nan,nan,nan,nan,nan,nan,nan,nan,nan,833.8504504153971,1047.4783430774696,nan,nan,nan,nan,nan,nan
1,121,1,1,1.0,1.0,0.4732486226130277,0,7,1,5,6,2,3,nan,nan,nan,nan,nan,nan,nan,nan,nan,nan,nan,nan,0.0,nan,nan,nan,nan,nan,nan,nan,nan,nan,nan,nan,nan,nan,nan,nan,nan,nan,nan,833.8504504153971,1048.4951431758236,nan,1048.9683917984366,nan,nan,nan,nan
1,122,1,1,1.0,1.0,0.4891275621484965,0,4,3,0,5,6,8,nan,nan,nan,nan,nan,nan,nan,nan,nan,nan,nan,nan,0.0,nan,nan,nan,nan,nan,nan,nan,nan,nan,nan,nan,nan,nan,nan,nan,nan,nan,nan,833.8504504153971,1049.5036234806757,nan,1049.9927510428242,nan,nan,nan,nan
1,123,1,1,1.0,1.0,0.7123302121181041,0,1,0,2,8,3,7,nan,nan,nan,nan,nan,nan,nan,nan,nan,nan,nan,nan,0.0,nan,nan,nan,nan,nan,nan,nan,nan,nan,nan,nan,nan,nan,nan,nan,nan,nan,nan,833.8504504153971,1050.5120903858915,nan,1051.2244205980096,nan,nan,nan,nan
1,124,1,1,nan,nan,nan,0,5,6,3,7,4,1,nan,nan,nan,nan,nan,nan,nan,nan,nan,nan,nan,nan,0.0,nan,nan,nan,nan,nan,nan,nan,nan,nan,nan,nan,nan,nan,nan,nan,nan,nan,nan,833.8504504153971,1051.5205849457998,nan,nan,nan,nan,nan,nan
1,125,1,1,nan,nan,nan,0,2,4,8,6,1,3,nan,nan,nan,nan,nan,nan,nan,nan,nan,nan,nan,nan,0.0,nan,nan,nan,nan,nan,nan,nan,nan,nan,nan,nan,nan,nan,nan,nan,nan,nan,nan,833.8504504153971,1052.5290387363639,nan,nan,nan,nan,nan,nan
1,126,0,0,0.0,1.0,0.5588279988151044,0,5,7,1,0,4,2,nan,nan,nan,nan,nan,nan,nan,nan,nan,nan,nan,nan,0.0,nan,nan,nan,nan,nan,nan,nan,nan,nan,nan,nan,nan,nan,nan,nan,nan,nan,nan,833.8504504153971,1053.5375352918636,nan,1054.0963632906787,nan,nan,nan,nan
1,127,1,1,1.0,1.0,0.7188524489756674,0,8,1,4,7,2,5,nan,nan,nan,nan,nan,nan,nan,nan,nan,nan,nan,nan,0.0,nan,nan,nan,nan,nan,nan,nan,nan,nan,nan,nan,nan,nan,nan,nan,nan,nan,nan,833.8504504153971,1054.545963138342,nan,1055.2648155873176,nan,nan,nan,nan
1,128,1,1,0.0,0.0,0.6460467011202127,0,5,8,3,6,1,7,nan,nan,nan,nan,nan,nan,nan,nan,nan,nan,nan,nan,0.0,nan,nan,nan,nan,nan,nan,nan,nan,nan,nan,nan,nan,nan,nan,nan,nan,nan,nan,833.8504504153971,1055.5544494302012,nan,1056.2004961313214,nan,nan,nan,nan
1,129,1,1,0.0,0.0,0.5414163605310023,0,6,1,8,4,0,3,nan,nan,nan,nan,nan,nan,nan,nan,nan,nan,nan,nan,0.0,nan,nan,nan,nan,nan,nan,nan,nan,nan,nan,nan,nan,nan,nan,nan,nan,nan,nan,833.8504504153971,1056.562933726469,nan,1057.104350087,nan,nan,nan,nan
1,130,1,1,nan,nan,nan,0,3,8,6,7,5,2,nan,nan,nan,nan,nan,nan,nan,nan,nan,nan,nan,nan,0.0,nan,nan,nan,nan,nan,nan,nan,nan,nan,nan,nan,nan,nan,nan,nan,nan,nan,nan,833.8504504153971,1057.5713986358605,nan,nan,nan,nan,nan,nan
1,131,1,1,1.0,1.0,0.7650124488864094,0,8,7,3,6,2,0,nan,nan,nan,nan,nan,nan,nan,nan,nan,nan,nan,nan,0.0,nan,nan,nan,nan,nan,nan,nan,nan,nan,nan,nan,nan,nan,nan,nan,nan,nan,nan,833.8504504153971,1058.5798766599037,nan,1059.34488910879,nan,nan,nan,nan
1,132,1,1,1.0,1.0,0.7879498987458646,0,2,1,5,0,6,3,nan,nan,nan,nan,nan,nan,nan,nan,nan,nan,nan,nan,0.0,nan,nan,nan,nan,nan,nan,nan,nan,nan,nan,nan,nan,nan,nan,nan,nan,nan,nan,833.8504504153971,1059.5883461309131,nan,1060.376296029659,nan,nan,nan,nan
1,133,1,1,nan,nan,nan,0,8,3,0,7,2,5,nan,nan,nan,nan,nan,nan,nan,nan,nan,nan,nan,nan,0.0,nan,nan,nan,nan,nan,nan,nan,nan,nan,nan,nan,nan,nan,nan,nan,nan,nan,nan,833.8504504153971,1060.596819023136,nan,nan,nan,nan,nan,nan
1,134,1,1,nan,nan,nan,0,3,6,4,8,0,7,nan,nan,nan,nan,nan,nan,nan,nan,nan,nan,nan,nan,0.0,nan,nan,nan,nan,nan,nan,nan,nan,nan,nan,nan,nan,nan,nan,nan,nan,nan,nan,833.8504504153971,1061.605279656127,nan,nan,nan,nan,nan,nan
1,135,1,1,nan,nan,nan,0,1,2,7,5,8,4,nan,nan,nan,nan,nan,nan,nan,nan,nan,nan,nan,nan,0.0,nan,nan,nan,nan,nan,nan,nan,nan,nan,nan,nan,nan,nan,nan,nan,nan,nan,nan,833.8504504153971,1062.6137551143765,nan,nan,nan,nan,nan,nan
1,136,1,1,nan,nan,nan,0,2,4,0,7,5,8,nan,nan,nan,nan,nan,nan,nan,nan,nan,nan,nan,nan,0.0,nan,nan,nan,nan,nan,nan,nan,nan,nan,nan,nan,nan,nan,nan,nan,nan,nan,nan,833.8504504153971,1063.622240551049,nan,nan,nan,nan,nan,nan
1,137,1,1,nan,nan,nan,0,4,5,2,0,8,6,nan,nan,nan,nan,nan,nan,nan,nan,nan,nan,nan,nan,0.0,nan,nan,nan,nan,nan,nan,nan,nan,nan,nan,nan,nan,nan,nan,nan,nan,nan,nan,833.8504504153971,1064.6306892097928,nan,nan,nan,nan,nan,nan
1,138,1,1,1.0,1.0,0.7690235232003033,1,3,7,4,2,5,0,1.0,1.0,1.0,1.0,1.0,1.0,0.0,0.0,1.0,0.0,0.0,0.0,1.0,5.0,2.0,4.0,1.0,3.0,4.0,4.0,3.0,1.0,2.0,6.0,5.0,5.572192069608718,4.380743022309616,1.453065240290016,3.070508125470951,7.02807124867104,6.396470858948305,833.8504504153971,1065.6391689444426,1066.4475955932867,1066.408192467643,1074.5237247541081,1075.5236206925474,1067.456082455581,1074.515364191262
1,139,1,1,nan,nan,nan,0,7,1,3,0,4,6,nan,nan,nan,nan,nan,nan,nan,nan,nan,nan,nan,nan,0.0,nan,nan,nan,nan,nan,nan,nan,nan,nan,nan,nan,nan,nan,nan,nan,nan,nan,nan,833.8504504153971,1075.732249876717,nan,nan,nan,nan,nan,nan
1,140,1,1,1.0,1.0,0.09946090402081609,0,6,2,8,7,0,3,nan,nan,nan,nan,nan,nan,nan,nan,nan,nan,nan,nan,0.0,nan,nan,nan,nan,nan,nan,nan,nan,nan,nan,nan,nan,nan,nan,nan,nan,nan,nan,833.8504504153971,1076.740698535461,nan,1076.8401594394818,nan,nan,nan,nan
1,141,1,1,1.0,1.0,0.5470901392400265,0,0,8,1,4,3,5,nan,nan,nan,nan,nan,nan,nan,nan,nan,nan,nan,nan,0.0,nan,nan,nan,nan,nan,nan,nan,nan,nan,nan,nan,nan,nan,nan,nan,nan,nan,nan,833.8504504153971,1077.7491491897963,nan,1078.2962393290363,nan,nan,nan,nan
1,142,1,1,1.0,1.0,0.5784768180456012,0,8,6,0,5,2,3,nan,nan,nan,nan,nan,nan,nan,nan,nan,nan,nan,nan,0.0,nan,nan,nan,nan,nan,nan,nan,nan,nan,nan,nan,nan,nan,nan,nan,nan,nan,nan,833.8504504153971,1078.7576437497046,nan,1079.3361205677502,nan,nan,nan,nan
1,143,1,1,1.0,1.0,0.4499944264534861,0,2,1,8,7,4,6,nan,nan,nan,nan,nan,nan,nan,nan,nan,nan,nan,nan,0.0,nan,nan,nan,nan,nan,nan,nan,nan,nan,nan,nan,nan,nan,nan,nan,nan,nan,nan,833.8504504153971,1079.7661123652942,nan,1080.2161067917477,nan,nan,nan,nan
1,144,0,0,0.0,1.0,0.6018176847137511,0,3,7,1,6,0,4,nan,nan,nan,nan,nan,nan,nan,nan,nan,nan,nan,nan,0.0,nan,nan,nan,nan,nan,nan,nan,nan,nan,nan,nan,nan,nan,nan,nan,nan,nan,nan,833.8504504153971,1080.7745872533415,nan,1081.3764049380552,nan,nan,nan,nan
1,145,1,1,1.0,1.0,0.47299345792271197,0,8,1,6,4,3,7,nan,nan,nan,nan,nan,nan,nan,nan,nan,nan,nan,nan,0.0,nan,nan,nan,nan,nan,nan,nan,nan,nan,nan,nan,nan,nan,nan,nan,nan,nan,nan,833.8504504153971,1081.783123437781,nan,1082.2561168957036,nan,nan,nan,nan
1,146,1,1,1.0,1.0,0.5767365666106343,0,6,2,5,7,8,0,nan,nan,nan,nan,nan,nan,nan,nan,nan,nan,nan,nan,0.0,nan,nan,nan,nan,nan,nan,nan,nan,nan,nan,nan,nan,nan,nan,nan,nan,nan,nan,833.8504504153971,1082.7915293315891,nan,1083.3682658981998,nan,nan,nan,nan
1,147,1,1,1.0,1.0,0.4644606944639236,0,0,6,4,3,7,5,nan,nan,nan,nan,nan,nan,nan,nan,nan,nan,nan,nan,0.0,nan,nan,nan,nan,nan,nan,nan,nan,nan,nan,nan,nan,nan,nan,nan,nan,nan,nan,833.8504504153971,1083.800011347048,nan,1084.264472041512,nan,nan,nan,nan
1,148,1,1,1.0,1.0,0.3355686136055738,0,7,0,2,6,5,3,nan,nan,nan,nan,nan,nan,nan,nan,nan,nan,nan,nan,0.0,nan,nan,nan,nan,nan,nan,nan,nan,nan,nan,nan,nan,nan,nan,nan,nan,nan,nan,833.8504504153971,1084.8084956433158,nan,1085.1440642569214,nan,nan,nan,nan
1,149,1,1,1.0,1.0,0.3111483578104526,0,4,6,8,3,2,5,nan,nan,nan,nan,nan,nan,nan,nan,nan,nan,nan,nan,0.0,nan,nan,nan,nan,nan,nan,nan,nan,nan,nan,nan,nan,nan,nan,nan,nan,nan,nan,833.8504504153971,1085.8169386000372,nan,1086.1280869578477,nan,nan,nan,nan
1,150,1,1,1.0,1.0,0.27062963508069515,0,5,7,2,6,8,1,nan,nan,nan,nan,nan,nan,nan,nan,nan,nan,nan,nan,0.0,nan,nan,nan,nan,nan,nan,nan,nan,nan,nan,nan,nan,nan,nan,nan,nan,nan,nan,833.8504504153971,1086.8254097816534,nan,1087.0960394167341,nan,nan,nan,nan
1,151,1,1,1.0,1.0,0.23014312889426947,0,8,0,6,5,2,3,nan,nan,nan,nan,nan,nan,nan,nan,nan,nan,nan,nan,0.0,nan,nan,nan,nan,nan,nan,nan,nan,nan,nan,nan,nan,nan,nan,nan,nan,nan,nan,833.8504504153971,1087.8338789674453,nan,1088.0640220963396,nan,nan,nan,nan
1,152,1,1,1.0,1.0,0.30166250467300415,0,2,1,3,8,4,7,nan,nan,nan,nan,nan,nan,nan,nan,nan,nan,nan,nan,0.0,nan,nan,nan,nan,nan,nan,nan,nan,nan,nan,nan,nan,nan,nan,nan,nan,nan,nan,833.8504504153971,1088.8423521448858,nan,1089.1440146495588,nan,nan,nan,nan
1,153,1,1,1.0,1.0,0.3891608901321888,0,7,4,6,1,5,3,nan,nan,nan,nan,nan,nan,nan,nan,nan,nan,nan,nan,0.0,nan,nan,nan,nan,nan,nan,nan,nan,nan,nan,nan,nan,nan,nan,nan,nan,nan,nan,833.8504504153971,1089.8508321647532,nan,1090.2399930548854,nan,nan,nan,nan
1,154,1,1,1.0,1.0,0.39669580291956663,0,1,6,3,5,2,0,nan,nan,nan,nan,nan,nan,nan,nan,nan,nan,nan,nan,0.0,nan,nan,nan,nan,nan,nan,nan,nan,nan,nan,nan,nan,nan,nan,nan,nan,nan,nan,833.8504504153971,1090.8593042015564,nan,1091.256000004476,nan,nan,nan,nan
1,155,1,1,1.0,1.0,0.27651096670888364,0,2,8,7,6,0,5,nan,nan,nan,nan,nan,nan,nan,nan,nan,nan,nan,nan,0.0,nan,nan,nan,nan,nan,nan,nan,nan,nan,nan,nan,nan,nan,nan,nan,nan,nan,nan,833.8504504153971,1091.867782510817,nan,1092.144293477526,nan,nan,nan,nan
1,156,1,1,1.0,1.0,0.19574265624396503,0,8,6,0,4,7,1,nan,nan,nan,nan,nan,nan,nan,nan,nan,nan,nan,nan,0.0,nan,nan,nan,nan,nan,nan,nan,nan,nan,nan,nan,nan,nan,nan,nan,nan,nan,nan,833.8504504153971,1092.8762477051932,nan,1093.0719903614372,nan,nan,nan,nan
1,157,0,0,1.0,0.0,0.06731813959777355,0,7,5,2,3,6,4,nan,nan,nan,nan,nan,nan,nan,nan,nan,nan,nan,nan,0.0,nan,nan,nan,nan,nan,nan,nan,nan,nan,nan,nan,nan,nan,nan,nan,nan,nan,nan,833.8504504153971,1093.884696363937,nan,1093.9520145035349,nan,nan,nan,nan
1,158,1,1,1.0,1.0,0.6988903044257313,0,1,7,0,2,3,6,nan,nan,nan,nan,nan,nan,nan,nan,nan,nan,nan,nan,0.0,nan,nan,nan,nan,nan,nan,nan,nan,nan,nan,nan,nan,nan,nan,nan,nan,nan,nan,833.8504504153971,1094.8931923494674,nan,1095.5920826538932,nan,nan,nan,nan
1,159,1,1,1.0,1.0,0.5947648764122277,0,4,8,7,5,2,3,nan,nan,nan,nan,nan,nan,nan,nan,nan,nan,nan,nan,0.0,nan,nan,nan,nan,nan,nan,nan,nan,nan,nan,nan,nan,nan,nan,nan,nan,nan,nan,833.8504504153971,1095.9016561184544,nan,1096.4964209948666,nan,nan,nan,nan
1,160,1,1,1.0,1.0,0.46580921835266054,0,0,6,1,3,5,4,nan,nan,nan,nan,nan,nan,nan,nan,nan,nan,nan,nan,0.0,nan,nan,nan,nan,nan,nan,nan,nan,nan,nan,nan,nan,nan,nan,nan,nan,nan,nan,833.8504504153971,1096.9101620824076,nan,1097.3759713007603,nan,nan,nan,nan
1,161,0,0,0.0,1.0,0.4813312126789242,0,3,0,7,1,6,5,nan,nan,nan,nan,nan,nan,nan,nan,nan,nan,nan,nan,0.0,nan,nan,nan,nan,nan,nan,nan,nan,nan,nan,nan,nan,nan,nan,nan,nan,nan,nan,833.8504504153971,1097.9186141621321,nan,1098.399945374811,nan,nan,nan,nan
1,162,1,1,1.0,1.0,0.5288531361147761,0,2,7,4,8,1,6,nan,nan,nan,nan,nan,nan,nan,nan,nan,nan,nan,nan,0.0,nan,nan,nan,nan,nan,nan,nan,nan,nan,nan,nan,nan,nan,nan,nan,nan,nan,nan,833.8504504153971,1098.927078786539,nan,1099.4559319226537,nan,nan,nan,nan
1,163,1,1,1.0,1.0,0.6248725957702845,0,4,6,1,0,2,5,nan,nan,nan,nan,nan,nan,nan,nan,nan,nan,nan,nan,0.0,nan,nan,nan,nan,nan,nan,nan,nan,nan,nan,nan,nan,nan,nan,nan,nan,nan,nan,833.8504504153971,1099.935543981148,nan,1100.5604165769182,nan,nan,nan,nan
1,164,1,1,1.0,1.0,0.7844368943478912,0,7,3,0,1,4,8,nan,nan,nan,nan,nan,nan,nan,nan,nan,nan,nan,nan,0.0,nan,nan,nan,nan,nan,nan,nan,nan,nan,nan,nan,nan,nan,nan,nan,nan,nan,nan,833.8504504153971,1100.943995490903,nan,1101.728432385251,nan,nan,nan,nan
1,165,1,1,1.0,1.0,0.7674346601124853,0,0,4,7,3,5,6,nan,nan,nan,nan,nan,nan,nan,nan,nan,nan,nan,nan,0.0,nan,nan,nan,nan,nan,nan,nan,nan,nan,nan,nan,nan,nan,nan,nan,nan,nan,nan,833.8504504153971,1101.952495752601,nan,1102.7199304127134,nan,nan,nan,nan
1,166,1,1,nan,nan,nan,0,6,5,0,7,1,8,nan,nan,nan,nan,nan,nan,nan,nan,nan,nan,nan,nan,0.0,nan,nan,nan,nan,nan,nan,nan,nan,nan,nan,nan,nan,nan,nan,nan,nan,nan,nan,833.8504504153971,1102.9609726364724,nan,nan,nan,nan,nan,nan
1,167,1,1,1.0,1.0,0.7343963959719986,0,3,1,5,2,0,6,nan,nan,nan,nan,nan,nan,nan,nan,nan,nan,nan,nan,0.0,nan,nan,nan,nan,nan,nan,nan,nan,nan,nan,nan,nan,nan,nan,nan,nan,nan,nan,833.8504504153971,1103.9694643451367,nan,1104.7038607411087,nan,nan,nan,nan
1,168,1,1,1.0,1.0,0.6619561463594437,0,6,2,3,5,1,0,nan,nan,nan,nan,nan,nan,nan,nan,nan,nan,nan,nan,0.0,nan,nan,nan,nan,nan,nan,nan,nan,nan,nan,nan,nan,nan,nan,nan,nan,nan,nan,833.8504504153971,1104.9779053062666,nan,1105.639861452626,nan,nan,nan,nan
1,169,1,1,1.0,1.0,0.5414990396238863,0,4,0,6,2,7,8,nan,nan,nan,nan,nan,nan,nan,nan,nan,nan,nan,nan,0.0,nan,nan,nan,nan,nan,nan,nan,nan,nan,nan,nan,nan,nan,nan,nan,nan,nan,nan,833.8504504153971,1105.9863625180442,nan,1106.527861557668,nan,nan,nan,nan
1,170,0,0,0.0,1.0,0.637037250213325,0,2,7,8,6,5,4,nan,nan,nan,nan,nan,nan,nan,nan,nan,nan,nan,nan,0.0,nan,nan,nan,nan,nan,nan,nan,nan,nan,nan,nan,nan,nan,nan,nan,nan,nan,nan,833.8504504153971,1106.994820300024,nan,1107.6318575502373,nan,nan,nan,nan
1,171,1,1,1.0,1.0,0.5085166550707072,0,1,8,6,0,2,5,nan,nan,nan,nan,nan,nan,nan,nan,nan,nan,nan,nan,0.0,nan,nan,nan,nan,nan,nan,nan,nan,nan,nan,nan,nan,nan,nan,nan,nan,nan,nan,833.8504504153971,1108.0033276893664,nan,1108.5118443444371,nan,nan,nan,nan
1,172,1,1,1.0,1.0,0.3885598990600556,0,8,5,3,1,4,7,nan,nan,nan,nan,nan,nan,nan,nan,nan,nan,nan,nan,0.0,nan,nan,nan,nan,nan,nan,nan,nan,nan,nan,nan,nan,nan,nan,nan,nan,nan,nan,833.8504504153971,1109.0118017219938,nan,1109.400361621054,nan,nan,nan,nan
1,173,1,1,1.0,1.0,0.3475493786390871,0,2,4,5,3,0,1,nan,nan,nan,nan,nan,nan,nan,nan,nan,nan,nan,nan,0.0,nan,nan,nan,nan,nan,nan,nan,nan,nan,nan,nan,nan,nan,nan,nan,nan,nan,nan,833.8504504153971,1110.0202854480594,nan,1110.3678348266985,nan,nan,nan,nan
1,174,1,1,1.0,1.0,0.4830572090577334,0,0,7,8,2,5,6,nan,nan,nan,nan,nan,nan,nan,nan,nan,nan,nan,nan,0.0,nan,nan,nan,nan,nan,nan,nan,nan,nan,nan,nan,nan,nan,nan,nan,nan,nan,nan,833.8504504153971,1111.0287512126379,nan,1111.5118084216956,nan,nan,nan,nan
1,175,0,0,0.0,1.0,0.7306168228387833,0,8,6,0,5,1,2,nan,nan,nan,nan,nan,nan,nan,nan,nan,nan,nan,nan,0.0,nan,nan,nan,nan,nan,nan,nan,nan,nan,nan,nan,nan,nan,nan,nan,nan,nan,nan,833.8504504153971,1112.0371870419476,nan,1112.7678038647864,nan,nan,nan,nan
1,176,1,1,1.0,1.0,0.7141169351525605,0,5,2,4,7,3,8,nan,nan,nan,nan,nan,nan,nan,nan,nan,nan,nan,nan,0.0,nan,nan,nan,nan,nan,nan,nan,nan,nan,nan,nan,nan,nan,nan,nan,nan,nan,nan,833.8504504153971,1113.0456767550204,nan,1113.759793690173,nan,nan,nan,nan
1,177,1,1,1.0,1.0,0.681624352466315,0,0,7,3,6,5,2,nan,nan,nan,nan,nan,nan,nan,nan,nan,nan,nan,nan,0.0,nan,nan,nan,nan,nan,nan,nan,nan,nan,nan,nan,nan,nan,nan,nan,nan,nan,nan,833.8504504153971,1114.0541613365058,nan,1114.735785688972,nan,nan,nan,nan
1,178,1,1,nan,nan,nan,0,5,6,2,7,3,0,nan,nan,nan,nan,nan,nan,nan,nan,nan,nan,nan,nan,0.0,nan,nan,nan,nan,nan,nan,nan,nan,nan,nan,nan,nan,nan,nan,nan,nan,nan,nan,833.8504504153971,1115.0626251054928,nan,nan,nan,nan,nan,nan
1,179,1,1,1.0,1.0,0.06465302314609289,0,8,4,1,0,2,3,nan,nan,nan,nan,nan,nan,nan,nan,nan,nan,nan,nan,0.0,nan,nan,nan,nan,nan,nan,nan,nan,nan,nan,nan,nan,nan,nan,nan,nan,nan,nan,833.8504504153971,1116.0711065507494,nan,1116.1357595738955,nan,nan,nan,nan
1,180,0,0,0.0,1.0,0.6082124817185104,0,7,5,4,2,0,8,nan,nan,nan,nan,nan,nan,nan,nan,nan,nan,nan,nan,0.0,nan,nan,nan,nan,nan,nan,nan,nan,nan,nan,nan,nan,nan,nan,nan,nan,nan,nan,833.8504504153971,1117.0795731707476,nan,1117.6877856524661,nan,nan,nan,nan
1,181,1,1,1.0,1.0,0.6797455423511565,0,4,1,8,7,2,3,nan,nan,nan,nan,nan,nan,nan,nan,nan,nan,nan,nan,0.0,nan,nan,nan,nan,nan,nan,nan,nan,nan,nan,nan,nan,nan,nan,nan,nan,nan,nan,833.8504504153971,1118.0880281017162,nan,1118.7677736440673,nan,nan,nan,nan
1,182,1,1,1.0,1.0,0.7352303138468415,0,3,2,4,0,6,7,nan,nan,nan,nan,nan,nan,nan,nan,nan,nan,nan,nan,0.0,nan,nan,nan,nan,nan,nan,nan,nan,nan,nan,nan,nan,nan,nan,nan,nan,nan,nan,833.8504504153971,1119.0965226616245,nan,1119.8317529754713,nan,nan,nan,nan
1,183,1,1,1.0,1.0,0.6147592372726649,0,7,0,5,3,1,2,nan,nan,nan,nan,nan,nan,nan,nan,nan,nan,nan,nan,0.0,nan,nan,nan,nan,nan,nan,nan,nan,nan,nan,nan,nan,nan,nan,nan,nan,nan,nan,833.8504504153971,1120.104985290207,nan,1120.7197445274796,nan,nan,nan,nan
1,184,1,1,1.0,1.0,0.7427860388997942,0,2,5,7,6,8,0,nan,nan,nan,nan,nan,nan,nan,nan,nan,nan,nan,nan,0.0,nan,nan,nan,nan,nan,nan,nan,nan,nan,nan,nan,nan,nan,nan,nan,nan,nan,nan,833.8504504153971,1121.1134293873329,nan,1121.8562154262327,nan,nan,nan,nan
1,185,1,1,1.0,1.0,0.6777672320604324,0,7,3,5,0,6,1,nan,nan,nan,nan,nan,nan,nan,nan,nan,nan,nan,nan,0.0,nan,nan,nan,nan,nan,nan,nan,nan,nan,nan,nan,nan,nan,nan,nan,nan,nan,nan,833.8504504153971,1122.1219484659377,nan,1122.7997156979982,nan,nan,nan,nan
1,186,0,0,0.0,1.0,0.5574766239151359,0,5,7,2,4,3,0,nan,nan,nan,nan,nan,nan,nan,nan,nan,nan,nan,nan,0.0,nan,nan,nan,nan,nan,nan,nan,nan,nan,nan,nan,nan,nan,nan,nan,nan,nan,nan,833.8504504153971,1123.1303791631944,nan,1123.6878557871096,nan,nan,nan,nan
1,187,1,1,1.0,1.0,0.5328080458566546,0,6,1,8,7,4,2,nan,nan,nan,nan,nan,nan,nan,nan,nan,nan,nan,nan,0.0,nan,nan,nan,nan,nan,nan,nan,nan,nan,nan,nan,nan,nan,nan,nan,nan,nan,nan,833.8504504153971,1124.13886288926,nan,1124.6716709351167,nan,nan,nan,nan
1,188,1,1,1.0,1.0,0.6043308428488672,0,0,8,3,4,2,6,nan,nan,nan,nan,nan,nan,nan,nan,nan,nan,nan,nan,0.0,nan,nan,nan,nan,nan,nan,nan,nan,nan,nan,nan,nan,nan,nan,nan,nan,nan,nan,833.8504504153971,1125.147354598157,nan,1125.751685441006,nan,nan,nan,nan
1,189,1,1,1.0,1.0,0.4523764383047819,0,5,7,0,6,4,8,nan,nan,nan,nan,nan,nan,nan,nan,nan,nan,nan,nan,0.0,nan,nan,nan,nan,nan,nan,nan,nan,nan,nan,nan,nan,nan,nan,nan,nan,nan,nan,833.8504504153971,1126.1558215033729,nan,1126.6081979416776,nan,nan,nan,nan
1,190,1,1,1.0,1.0,0.48334601568058133,0,1,8,5,0,7,2,nan,nan,nan,nan,nan,nan,nan,nan,nan,nan,nan,nan,0.0,nan,nan,nan,nan,nan,nan,nan,nan,nan,nan,nan,nan,nan,nan,nan,nan,nan,nan,833.8504504153971,1127.1642929699738,nan,1127.6476389856543,nan,nan,nan,nan
1,191,1,1,1.0,1.0,0.482887004269287,0,6,4,3,8,5,1,nan,nan,nan,nan,nan,nan,nan,nan,nan,nan,nan,nan,0.0,nan,nan,nan,nan,nan,nan,nan,nan,nan,nan,nan,nan,nan,nan,nan,nan,nan,nan,833.8504504153971,1128.1727741302457,nan,1128.655661134515,nan,nan,nan,nan
1,192,1,1,1.0,1.0,0.434436509385705,1,4,3,5,2,8,7,1.0,1.0,1.0,1.0,1.0,1.0,0.0,0.0,0.0,0.0,0.0,0.0,0.0,7.0,2.0,3.0,1.0,7.0,3.0,2.0,3.0,4.0,1.0,5.0,6.0,4.542984411586076,5.4942163152154535,6.549999586539343,3.4568967015948147,7.973948685918003,8.813776553841308,833.8504504153971,1129.1812105297577,1129.9896095239092,1129.6156470391434,1139.8493214189075,1140.8486463015433,1130.998150555184,1139.8409950679634
1,193,1,1,1.0,1.0,0.4456691714003682,0,0,8,1,6,2,5,nan,nan,nan,nan,nan,nan,nan,nan,nan,nan,nan,nan,0.0,nan,nan,nan,nan,nan,nan,nan,nan,nan,nan,nan,nan,nan,nan,nan,nan,nan,nan,833.8504504153971,1141.057870489778,nan,1141.5035396611784,nan,nan,nan,nan
1,194,1,1,1.0,1.0,0.669176023453474,1,7,1,5,8,6,3,1.0,1.0,1.0,1.0,1.0,1.0,1.0,0.0,0.0,0.0,0.0,1.0,2.0,7.0,0.0,2.0,7.0,5.0,3.0,3.0,2.0,1.0,4.0,5.0,6.0,6.464260554173961,5.370905355550349,3.9854214023798704,7.495950864627957,8.37686195364222,9.792142296908423,833.8504504153971,1142.066337965196,1142.874802532373,1142.7355139886495,1153.7262818745803,1154.7263294863515,1143.891554163769,1153.7179133289028
1,195,1,1,1.0,1.0,0.648665631422773,0,5,7,2,3,4,0,nan,nan,nan,nan,nan,nan,nan,nan,nan,nan,nan,nan,0.0,nan,nan,nan,nan,nan,nan,nan,nan,nan,nan,nan,nan,nan,nan,nan,nan,nan,nan,833.8504504153971,1154.934751972789,nan,1155.5834176042117,nan,nan,nan,nan
1,196,1,1,nan,nan,nan,0,3,5,1,0,8,7,nan,nan,nan,nan,nan,nan,nan,nan,nan,nan,nan,nan,0.0,nan,nan,nan,nan,nan,nan,nan,nan,nan,nan,nan,nan,nan,nan,nan,nan,nan,nan,833.8504504153971,1155.9432590771466,nan,nan,nan,nan,nan,nan
1,197,1,1,1.0,1.0,0.7036472011823207,1,4,0,7,2,1,8,1.0,1.0,1.0,1.0,1.0,1.0,0.0,0.0,1.0,0.0,0.0,1.0,2.0,3.0,2.0,7.0,0.0,3.0,8.0,3.0,2.0,1.0,6.0,5.0,4.0,5.716057041659951,4.381042662542313,3.2840758149977773,8.93912683497183,8.003366462886333,6.61083312262781,833.8504504153971,1156.9516820767894,1157.7601383761503,1157.6553292779718,1167.744820228545,1168.7439877360594,1158.7686263788491,1167.736486750422
1,198,1,1,1.0,1.0,0.24624558701179922,0,3,6,5,1,7,0,nan,nan,nan,nan,nan,nan,nan,nan,nan,nan,nan,nan,0.0,nan,nan,nan,nan,nan,nan,nan,nan,nan,nan,nan,nan,nan,nan,nan,nan,nan,nan,833.8504504153971,1168.9533681592438,nan,1169.1996137462556,nan,nan,nan,nan
1,199,1,1,nan,nan,nan,0,1,8,6,2,5,3,nan,nan,nan,nan,nan,nan,nan,nan,nan,nan,nan,nan,0.0,nan,nan,nan,nan,nan,nan,nan,nan,nan,nan,nan,nan,nan,nan,nan,nan,nan,nan,833.8504504153971,1169.9618487493135,nan,nan,nan,nan,nan,nan
1,200,1,1,nan,nan,nan,0,7,5,2,8,6,0,nan,nan,nan,nan,nan,nan,nan,nan,nan,nan,nan,nan,0.0,nan,nan,nan,nan,nan,nan,nan,nan,nan,nan,nan,nan,nan,nan,nan,nan,nan,nan,833.8504504153971,1170.9703096672893,nan,nan,nan,nan,nan,nan
1,201,1,1,nan,nan,nan,1,8,6,0,7,5,3,1.0,1.0,1.0,1.0,1.0,1.0,1.0,0.0,0.0,1.0,0.0,0.0,2.0,8.0,0.0,6.0,7.0,1.0,5.0,4.0,3.0,2.0,1.0,6.0,5.0,7.0804840659257025,5.919759124517441,4.94450525008142,3.497788905631751,9.559213169151917,8.06422166666016,833.8504504153971,1171.9788159162272,1172.787212344585,nan,1183.4053511593957,1184.404723368818,1173.8040212809574,1183.396947831614
1,202,1,1,1.0,1.0,0.4493007776327431,0,0,8,2,6,3,7,nan,nan,nan,nan,nan,nan,nan,nan,nan,nan,nan,nan,0.0,nan,nan,nan,nan,nan,nan,nan,nan,nan,nan,nan,nan,nan,nan,nan,nan,nan,nan,833.8504504153971,1184.613820687402,nan,1185.0631214650348,nan,nan,nan,nan
1,203,1,1,1.0,1.0,0.5527929982636124,0,2,5,4,0,8,1,nan,nan,nan,nan,nan,nan,nan,nan,nan,nan,nan,nan,0.0,nan,nan,nan,nan,nan,nan,nan,nan,nan,nan,nan,nan,nan,nan,nan,nan,nan,nan,833.8504504153971,1185.6223312127404,nan,1186.175124211004,nan,nan,nan,nan
1,204,1,1,1.0,1.0,0.46433639083988965,0,5,4,1,3,6,2,nan,nan,nan,nan,nan,nan,nan,nan,nan,nan,nan,nan,0.0,nan,nan,nan,nan,nan,nan,nan,nan,nan,nan,nan,nan,nan,nan,nan,nan,nan,nan,833.8504504153971,1186.630795266945,nan,1187.0951316577848,nan,nan,nan,nan
1,205,1,1,1.0,1.0,0.35983890714123845,0,1,3,8,6,0,5,nan,nan,nan,nan,nan,nan,nan,nan,nan,nan,nan,nan,0.0,nan,nan,nan,nan,nan,nan,nan,nan,nan,nan,nan,nan,nan,nan,nan,nan,nan,nan,833.8504504153971,1187.6392584657297,nan,1187.999097372871,nan,nan,nan,nan
1,206,1,1,1.0,1.0,0.31138299545273185,0,6,2,4,5,3,1,nan,nan,nan,nan,nan,nan,nan,nan,nan,nan,nan,nan,0.0,nan,nan,nan,nan,nan,nan,nan,nan,nan,nan,nan,nan,nan,nan,nan,nan,nan,nan,833.8504504153971,1188.6477139669005,nan,1188.9590969623532,nan,nan,nan,nan
1,207,1,1,1.0,1.0,0.28689174936152995,0,4,1,7,3,8,5,nan,nan,nan,nan,nan,nan,nan,nan,nan,nan,nan,nan,0.0,nan,nan,nan,nan,nan,nan,nan,nan,nan,nan,nan,nan,nan,nan,nan,nan,nan,nan,833.8504504153971,1189.6562125182245,nan,1189.943104267586,nan,nan,nan,nan
1,208,1,1,1.0,1.0,0.22257400420494378,0,7,2,8,0,5,1,nan,nan,nan,nan,nan,nan,nan,nan,nan,nan,nan,nan,0.0,nan,nan,nan,nan,nan,nan,nan,nan,nan,nan,nan,nan,nan,nan,nan,nan,nan,nan,833.8504504153971,1190.664681989234,nan,1190.8872559934389,nan,nan,nan,nan
1,209,1,1,1.0,1.0,0.24589833500795066,0,2,6,7,1,3,0,nan,nan,nan,nan,nan,nan,nan,nan,nan,nan,nan,nan,0.0,nan,nan,nan,nan,nan,nan,nan,nan,nan,nan,nan,nan,nan,nan,nan,nan,nan,nan,833.8504504153971,1191.6731905189808,nan,1191.9190888539888,nan,nan,nan,nan
1,210,1,1,1.0,1.0,0.27738821995444596,0,1,3,2,4,0,5,nan,nan,nan,nan,nan,nan,nan,nan,nan,nan,nan,nan,0.0,nan,nan,nan,nan,nan,nan,nan,nan,nan,nan,nan,nan,nan,nan,nan,nan,nan,nan,833.8504504153971,1192.6816383225378,nan,1192.9590265424922,nan,nan,nan,nan
1,211,0,0,1.0,0.0,0.19708319706842303,0,6,7,1,8,5,3,nan,nan,nan,nan,nan,nan,nan,nan,nan,nan,nan,nan,0.0,nan,nan,nan,nan,nan,nan,nan,nan,nan,nan,nan,nan,nan,nan,nan,nan,nan,nan,833.8504504153971,1193.6901114997454,nan,1193.8871946968138,nan,nan,nan,nan
1,212,1,1,1.0,1.0,0.38042627600952983,0,7,5,0,6,8,4,nan,nan,nan,nan,nan,nan,nan,nan,nan,nan,nan,nan,0.0,nan,nan,nan,nan,nan,nan,nan,nan,nan,nan,nan,nan,nan,nan,nan,nan,nan,nan,833.8504504153971,1194.6985650053248,nan,1195.0789912813343,nan,nan,nan,nan
1,213,1,1,1.0,1.0,0.3880606887396425,0,8,4,2,7,0,1,nan,nan,nan,nan,nan,nan,nan,nan,nan,nan,nan,nan,0.0,nan,nan,nan,nan,nan,nan,nan,nan,nan,nan,nan,nan,nan,nan,nan,nan,nan,nan,833.8504504153971,1195.707040748559,nan,1196.0951014372986,nan,nan,nan,nan
1,214,1,1,1.0,1.0,0.7880385648459196,0,7,1,5,2,3,8,nan,nan,nan,nan,nan,nan,nan,nan,nan,nan,nan,nan,0.0,nan,nan,nan,nan,nan,nan,nan,nan,nan,nan,nan,nan,nan,nan,nan,nan,nan,nan,833.8504504153971,1196.7154814244714,nan,1197.5035199893173,nan,nan,nan,nan
1,215,1,1,1.0,1.0,0.6669776157941669,0,0,5,3,6,8,4,nan,nan,nan,nan,nan,nan,nan,nan,nan,nan,nan,nan,0.0,nan,nan,nan,nan,nan,nan,nan,nan,nan,nan,nan,nan,nan,nan,nan,nan,nan,nan,833.8504504153971,1197.724009911297,nan,1198.390987527091,nan,nan,nan,nan
1,216,0,0,0.0,1.0,0.5065143965184689,0,8,0,6,4,5,7,nan,nan,nan,nan,nan,nan,nan,nan,nan,nan,nan,nan,0.0,nan,nan,nan,nan,nan,nan,nan,nan,nan,nan,nan,nan,nan,nan,nan,nan,nan,nan,833.8504504153971,1198.7324605656322,nan,1199.2389749621507,nan,nan,nan,nan
1,217,1,1,1.0,1.0,0.5060362836811692,0,1,5,3,7,0,8,nan,nan,nan,nan,nan,nan,nan,nan,nan,nan,nan,nan,0.0,nan,nan,nan,nan,nan,nan,nan,nan,nan,nan,nan,nan,nan,nan,nan,nan,nan,nan,833.8504504153971,1199.7409323174506,nan,1200.2469686011318,nan,nan,nan,nan
1,218,1,1,1.0,1.0,0.6255497087258846,0,0,7,2,4,6,1,nan,nan,nan,nan,nan,nan,nan,nan,nan,nan,nan,nan,0.0,nan,nan,nan,nan,nan,nan,nan,nan,nan,nan,nan,nan,nan,nan,nan,nan,nan,nan,833.8504504153971,1200.749413192505,nan,1201.374962901231,nan,nan,nan,nan
1,219,1,1,nan,nan,nan,0,4,2,1,6,0,3,nan,nan,nan,nan,nan,nan,nan,nan,nan,nan,nan,nan,0.0,nan,nan,nan,nan,nan,nan,nan,nan,nan,nan,nan,nan,nan,nan,nan,nan,nan,nan,833.8504504153971,1201.7578752508853,nan,nan,nan,nan,nan,nan
1,220,1,1,1.0,1.0,0.25670363171957433,0,3,1,2,0,7,4,nan,nan,nan,nan,nan,nan,nan,nan,nan,nan,nan,nan,0.0,nan,nan,nan,nan,nan,nan,nan,nan,nan,nan,nan,nan,nan,nan,nan,nan,nan,nan,833.8504504153971,1202.766310225008,nan,1203.0230138567276,nan,nan,nan,nan
1,221,1,1,1.0,1.0,0.5761133374180645,0,8,7,6,2,5,1,nan,nan,nan,nan,nan,nan,nan,nan,nan,nan,nan,nan,0.0,nan,nan,nan,nan,nan,nan,nan,nan,nan,nan,nan,nan,nan,nan,nan,nan,nan,nan,833.8504504153971,1203.7748481200542,nan,1204.3509614574723,nan,nan,nan,nan
1,222,1,1,1.0,1.0,0.49559477460570633,0,1,5,0,8,2,7,nan,nan,nan,nan,nan,nan,nan,nan,nan,nan,nan,nan,0.0,nan,nan,nan,nan,nan,nan,nan,nan,nan,nan,nan,nan,nan,nan,nan,nan,nan,nan,833.8504504153971,1204.7832910767756,nan,1205.2788858513813,nan,nan,nan,nan
1,223,1,1,1.0,1.0,0.42317875870503485,0,5,4,3,6,7,1,nan,nan,nan,nan,nan,nan,nan,nan,nan,nan,nan,nan,0.0,nan,nan,nan,nan,nan,nan,nan,nan,nan,nan,nan,nan,nan,nan,nan,nan,nan,nan,833.8504504153971,1205.7917403057218,nan,1206.2149190644268,nan,nan,nan,nan
1,224,1,1,1.0,1.0,0.4306985610164702,1,0,6,7,8,4,5,1.0,1.0,1.0,1.0,1.0,1.0,0.0,0.0,0.0,1.0,0.0,0.0,1.0,1.0,7.0,8.0,8.0,0.0,3.0,2.0,3.0,4.0,1.0,5.0,6.0,3.9939439019653946,5.084085451206192,6.226815154310316,2.9878510260023177,7.978928245604038,9.729916901793331,833.8504504153971,1206.8002211807761,1207.6086546720471,1207.2309197417926,1218.3850945064332,1219.3843578074593,1208.6171392535325,1218.3768220397178
1,225,1,1,1.0,1.0,0.41311557753942907,0,1,8,3,7,5,2,nan,nan,nan,nan,nan,nan,nan,nan,nan,nan,nan,nan,0.0,nan,nan,nan,nan,nan,nan,nan,nan,nan,nan,nan,nan,nan,nan,nan,nan,nan,nan,833.8504504153971,1219.5936598281842,nan,1220.0067754057236,nan,nan,nan,nan
1,226,1,1,1.0,1.0,0.5486291099805385,0,2,4,5,0,1,6,nan,nan,nan,nan,nan,nan,nan,nan,nan,nan,nan,nan,0.0,nan,nan,nan,nan,nan,nan,nan,nan,nan,nan,nan,nan,nan,nan,nan,nan,nan,nan,833.8504504153971,1220.6021227419842,nan,1221.1507518519647,nan,nan,nan,nan
1,227,1,1,1.0,1.0,0.5161718800663948,0,6,2,8,3,5,0,nan,nan,nan,nan,nan,nan,nan,nan,nan,nan,nan,nan,0.0,nan,nan,nan,nan,nan,nan,nan,nan,nan,nan,nan,nan,nan,nan,nan,nan,nan,nan,833.8504504153971,1221.6105984852184,nan,1222.1267703652848,nan,nan,nan,nan
1,228,1,1,1.0,1.0,0.4917003063019365,0,2,6,5,7,4,8,nan,nan,nan,nan,nan,nan,nan,nan,nan,nan,nan,nan,0.0,nan,nan,nan,nan,nan,nan,nan,nan,nan,nan,nan,nan,nan,nan,nan,nan,nan,nan,833.8504504153971,1222.61906253919,nan,1223.110762845492,nan,nan,nan,nan
1,229,1,1,1.0,1.0,0.3391745607368648,0,1,5,4,2,0,7,nan,nan,nan,nan,nan,nan,nan,nan,nan,nan,nan,nan,0.0,nan,nan,nan,nan,nan,nan,nan,nan,nan,nan,nan,nan,nan,nan,nan,nan,nan,nan,833.8504504153971,1223.627569358563,nan,1223.9667439193,nan,nan,nan,nan
1,230,1,1,1.0,1.0,0.5467266365885735,0,7,8,3,5,4,0,nan,nan,nan,nan,nan,nan,nan,nan,nan,nan,nan,nan,0.0,nan,nan,nan,nan,nan,nan,nan,nan,nan,nan,nan,nan,nan,nan,nan,nan,nan,nan,833.8504504153971,1224.6360299913213,nan,1225.1827566279098,nan,nan,nan,nan
1,231,1,1,1.0,1.0,0.5062652190681547,0,4,0,5,2,1,6,nan,nan,nan,nan,nan,nan,nan,nan,nan,nan,nan,nan,0.0,nan,nan,nan,nan,nan,nan,nan,nan,nan,nan,nan,nan,nan,nan,nan,nan,nan,nan,833.8504504153971,1225.6444849222898,nan,1226.150750141358,nan,nan,nan,nan
1,232,1,1,1.0,1.0,0.29802747745998204,0,0,6,2,8,5,1,nan,nan,nan,nan,nan,nan,nan,nan,nan,nan,nan,nan,0.0,nan,nan,nan,nan,nan,nan,nan,nan,nan,nan,nan,nan,nan,nan,nan,nan,nan,nan,833.8504504153971,1226.652940993663,nan,1226.950968471123,nan,nan,nan,nan
1,233,1,1,nan,nan,nan,0,7,8,6,2,0,3,nan,nan,nan,nan,nan,nan,nan,nan,nan,nan,nan,nan,0.0,nan,nan,nan,nan,nan,nan,nan,nan,nan,nan,nan,nan,nan,nan,nan,nan,nan,nan,833.8504504153971,1227.6614041924477,nan,nan,nan,nan,nan,nan
1,234,1,1,1.0,1.0,0.03283270704559982,0,4,3,5,0,1,7,nan,nan,nan,nan,nan,nan,nan,nan,nan,nan,nan,nan,0.0,nan,nan,nan,nan,nan,nan,nan,nan,nan,nan,nan,nan,nan,nan,nan,nan,nan,nan,833.8504504153971,1228.6698816462886,nan,1228.7027143533342,nan,nan,nan,nan
1,235,1,1,1.0,1.0,0.032306127017363906,0,3,6,0,8,7,1,nan,nan,nan,nan,nan,nan,nan,nan,nan,nan,nan,nan,0.0,nan,nan,nan,nan,nan,nan,nan,nan,nan,nan,nan,nan,nan,nan,nan,nan,nan,nan,833.8504504153971,1229.678400439676,nan,1229.7107065666933,nan,nan,nan,nan
1,236,1,1,1.0,1.0,0.631821627728641,0,1,2,7,4,8,5,nan,nan,nan,nan,nan,nan,nan,nan,nan,nan,nan,nan,0.0,nan,nan,nan,nan,nan,nan,nan,nan,nan,nan,nan,nan,nan,nan,nan,nan,nan,nan,833.8504504153971,1230.686851949431,nan,1231.3186735771596,nan,nan,nan,nan
1,237,1,1,nan,nan,nan,0,8,4,6,0,1,3,nan,nan,nan,nan,nan,nan,nan,nan,nan,nan,nan,nan,0.0,nan,nan,nan,nan,nan,nan,nan,nan,nan,nan,nan,nan,nan,nan,nan,nan,nan,nan,833.8504504153971,1231.6953151482157,nan,nan,nan,nan,nan,nan
1,238,1,1,1.0,1.0,0.5989969035144895,0,1,8,4,3,6,7,nan,nan,nan,nan,nan,nan,nan,nan,nan,nan,nan,nan,0.0,nan,nan,nan,nan,nan,nan,nan,nan,nan,nan,nan,nan,nan,nan,nan,nan,nan,nan,833.8504504153971,1232.703787755454,nan,1233.3027846589684,nan,nan,nan,nan
1,239,1,1,1.0,1.0,0.5023944138083607,0,8,2,5,1,3,6,nan,nan,nan,nan,nan,nan,nan,nan,nan,nan,nan,nan,0.0,nan,nan,nan,nan,nan,nan,nan,nan,nan,nan,nan,nan,nan,nan,nan,nan,nan,nan,833.8504504153971,1233.7122640688904,nan,1234.2146584826987,nan,nan,nan,nan
1,240,1,1,1.0,1.0,0.7499186750501394,0,6,8,4,5,0,2,nan,nan,nan,nan,nan,nan,nan,nan,nan,nan,nan,nan,0.0,nan,nan,nan,nan,nan,nan,nan,nan,nan,nan,nan,nan,nan,nan,nan,nan,nan,nan,833.8504504153971,1234.7207286932971,nan,1235.4706473683473,nan,nan,nan,nan
1,241,1,1,1.0,1.0,0.7974061015993357,0,2,5,6,0,7,1,nan,nan,nan,nan,nan,nan,nan,nan,nan,nan,nan,nan,0.0,nan,nan,nan,nan,nan,nan,nan,nan,nan,nan,nan,nan,nan,nan,nan,nan,nan,nan,833.8504504153971,1235.7292454908602,nan,1236.5266515924595,nan,nan,nan,nan
1,242,0,0,nan,nan,nan,0,6,1,7,3,5,0,nan,nan,nan,nan,nan,nan,nan,nan,nan,nan,nan,nan,0.0,nan,nan,nan,nan,nan,nan,nan,nan,nan,nan,nan,nan,nan,nan,nan,nan,nan,nan,833.8504504153971,1236.7459828672,nan,nan,nan,nan,nan,nan
1,243,1,1,1.0,1.0,0.7481251100543886,0,1,5,3,8,7,2,nan,nan,nan,nan,nan,nan,nan,nan,nan,nan,nan,nan,0.0,nan,nan,nan,nan,nan,nan,nan,nan,nan,nan,nan,nan,nan,nan,nan,nan,nan,nan,833.8504504153971,1237.7544788524974,nan,1238.5026039625518,nan,nan,nan,nan
1,244,0,0,0.0,1.0,0.6836514146998525,0,7,1,0,3,2,6,nan,nan,nan,nan,nan,nan,nan,nan,nan,nan,nan,nan,0.0,nan,nan,nan,nan,nan,nan,nan,nan,nan,nan,nan,nan,nan,nan,nan,nan,nan,nan,833.8504504153971,1238.7629520299379,nan,1239.4466034446377,nan,nan,nan,nan
1,245,1,1,1.0,1.0,0.6671558036468923,0,3,0,7,2,8,1,nan,nan,nan,nan,nan,nan,nan,nan,nan,nan,nan,nan,0.0,nan,nan,nan,nan,nan,nan,nan,nan,nan,nan,nan,nan,nan,nan,nan,nan,nan,nan,833.8504504153971,1239.7714314793702,nan,1240.4385872830171,nan,nan,nan,nan
1,246,1,1,1.0,1.0,0.5788748178165406,1,4,6,3,1,7,8,1.0,1.0,1.0,1.0,1.0,1.0,1.0,0.0,0.0,0.0,1.0,0.0,2.0,4.0,4.0,1.0,3.0,7.0,3.0,2.0,3.0,4.0,1.0,5.0,6.0,3.5254792605992407,4.583713253028691,5.542917983373627,2.262317539425567,6.669731113594025,7.229607140645385,833.8504504153971,1240.7798707298934,1241.5883464161307,1241.35874554771,1249.8727823125664,1250.872840187978,1242.6051393868402,1249.864450830035
1,247,1,1,1.0,1.0,0.5012169501278549,0,5,8,0,3,1,2,nan,nan,nan,nan,nan,nan,nan,nan,nan,nan,nan,nan,0.0,nan,nan,nan,nan,nan,nan,nan,nan,nan,nan,nan,nan,nan,nan,nan,nan,nan,nan,833.8504504153971,1251.0813114265911,nan,1251.582528376719,nan,nan,nan,nan
1,248,0,0,1.0,0.0,0.34870146843604743,0,2,7,3,6,4,1,nan,nan,nan,nan,nan,nan,nan,nan,nan,nan,nan,nan,0.0,nan,nan,nan,nan,nan,nan,nan,nan,nan,nan,nan,nan,nan,nan,nan,nan,nan,nan,833.8504504153971,1252.0897863146383,nan,1252.4384877830744,nan,nan,nan,nan
1,249,1,1,1.0,1.0,0.4845351683907211,0,7,1,6,8,5,0,nan,nan,nan,nan,nan,nan,nan,nan,nan,nan,nan,nan,0.0,nan,nan,nan,nan,nan,nan,nan,nan,nan,nan,nan,nan,nan,nan,nan,nan,nan,nan,833.8504504153971,1253.0982363987714,nan,1253.5827715671621,nan,nan,nan,nan
1,250,1,1,1.0,1.0,0.3397099790163338,0,6,3,4,2,7,1,nan,nan,nan,nan,nan,nan,nan,nan,nan,nan,nan,nan,0.0,nan,nan,nan,nan,nan,nan,nan,nan,nan,nan,nan,nan,nan,nan,nan,nan,nan,nan,833.8504504153971,1254.10673010326,nan,1254.4464400822762,nan,nan,nan,nan
1,251,0,0,0.0,1.0,0.5392307827714831,0,4,0,8,5,2,6,nan,nan,nan,nan,nan,nan,nan,nan,nan,nan,nan,nan,0.0,nan,nan,nan,nan,nan,nan,nan,nan,nan,nan,nan,nan,nan,nan,nan,nan,nan,nan,833.8504504153971,1255.1152024252806,nan,1255.654433208052,nan,nan,nan,nan
1,252,1,1,1.0,1.0,0.30675752996467054,0,7,2,0,1,5,4,nan,nan,nan,nan,nan,nan,nan,nan,nan,nan,nan,nan,0.0,nan,nan,nan,nan,nan,nan,nan,nan,nan,nan,nan,nan,nan,nan,nan,nan,nan,nan,833.8504504153971,1256.1236764581408,nan,1256.4304339881055,nan,nan,nan,nan
1,253,0,0,0.0,1.0,0.45832419837825,0,0,5,4,2,7,6,nan,nan,nan,nan,nan,nan,nan,nan,nan,nan,nan,nan,0.0,nan,nan,nan,nan,nan,nan,nan,nan,nan,nan,nan,nan,nan,nan,nan,nan,nan,nan,833.8504504153971,1257.1321479247417,nan,1257.59047212312,nan,nan,nan,nan
1,254,1,1,1.0,1.0,0.2418037261813879,0,5,2,8,3,6,1,nan,nan,nan,nan,nan,nan,nan,nan,nan,nan,nan,nan,0.0,nan,nan,nan,nan,nan,nan,nan,nan,nan,nan,nan,nan,nan,nan,nan,nan,nan,nan,833.8504504153971,1258.1406096981373,nan,1258.3824134243187,nan,nan,nan,nan
1,255,0,0,0.0,1.0,0.4253252779599279,0,8,0,5,7,2,4,nan,nan,nan,nan,nan,nan,nan,nan,nan,nan,nan,nan,0.0,nan,nan,nan,nan,nan,nan,nan,nan,nan,nan,nan,nan,nan,nan,nan,nan,nan,nan,833.8504504153971,1259.1490942793898,nan,1259.5744195573498,nan,nan,nan,nan
1,256,1,1,1.0,1.0,0.23294110200367868,0,1,2,7,4,0,6,nan,nan,nan,nan,nan,nan,nan,nan,nan,nan,nan,nan,0.0,nan,nan,nan,nan,nan,nan,nan,nan,nan,nan,nan,nan,nan,nan,nan,nan,nan,nan,833.8504504153971,1260.157569167437,nan,1260.3905102694407,nan,nan,nan,nan
1,257,1,1,1.0,1.0,0.39236285048536956,0,5,6,8,3,2,0,nan,nan,nan,nan,nan,nan,nan,nan,nan,nan,nan,nan,0.0,nan,nan,nan,nan,nan,nan,nan,nan,nan,nan,nan,nan,nan,nan,nan,nan,nan,nan,833.8504504153971,1261.1660392086487,nan,1261.558402059134,nan,nan,nan,nan
1,258,1,1,1.0,1.0,0.3438923987559974,1,6,3,2,7,5,4,1.0,1.0,1.0,1.0,1.0,1.0,1.0,0.0,0.0,0.0,1.0,0.0,2.0,6.0,7.0,4.0,0.0,5.0,1.0,5.0,3.0,2.0,4.0,1.0,6.0,8.49109817435965,5.3950445025693625,4.716083270730451,6.6446497100405395,2.9422609412577003,10.39523010281846,833.8504504153971,1262.1745075392537,1262.9829607026186,1262.5183999380097,1274.4261862805579,1275.4259978292976,1263.9914039445575,1274.4178254324943
1,259,1,1,nan,nan,nan,0,5,4,6,8,2,0,nan,nan,nan,nan,nan,nan,nan,nan,nan,nan,nan,nan,0.0,nan,nan,nan,nan,nan,nan,nan,nan,nan,nan,nan,nan,nan,nan,nan,nan,nan,nan,833.8504504153971,1275.6346905906685,nan,nan,nan,nan,nan,nan
1,260,1,1,nan,nan,nan,0,8,3,0,2,7,4,nan,nan,nan,nan,nan,nan,nan,nan,nan,nan,nan,nan,0.0,nan,nan,nan,nan,nan,nan,nan,nan,nan,nan,nan,nan,nan,nan,nan,nan,nan,nan,833.8504504153971,1276.6431674743071,nan,nan,nan,nan,nan,nan
1,261,1,1,1.0,1.0,0.7706491646822542,0,4,6,1,0,8,7,nan,nan,nan,nan,nan,nan,nan,nan,nan,nan,nan,nan,0.0,nan,nan,nan,nan,nan,nan,nan,nan,nan,nan,nan,nan,nan,nan,nan,nan,nan,nan,833.8504504153971,1277.6516052992083,nan,1278.4222544638906,nan,nan,nan,nan
1,262,1,1,nan,nan,nan,0,6,5,3,8,0,2,nan,nan,nan,nan,nan,nan,nan,nan,nan,nan,nan,nan,0.0,nan,nan,nan,nan,nan,nan,nan,nan,nan,nan,nan,nan,nan,nan,nan,nan,nan,nan,833.8504504153971,1278.66012010118,nan,nan,nan,nan,nan,nan
1,263,1,1,1.0,1.0,0.7776620588265359,0,8,0,7,5,2,6,nan,nan,nan,nan,nan,nan,nan,nan,nan,nan,nan,nan,0.0,nan,nan,nan,nan,nan,nan,nan,nan,nan,nan,nan,nan,nan,nan,nan,nan,nan,nan,833.8504504153971,1279.6685764577705,nan,1280.446238516597,nan,nan,nan,nan
1,264,1,1,nan,nan,nan,0,2,3,1,6,7,4,nan,nan,nan,nan,nan,nan,nan,nan,nan,nan,nan,nan,0.0,nan,nan,nan,nan,nan,nan,nan,nan,nan,nan,nan,nan,nan,nan,nan,nan,nan,nan,833.8504504153971,1280.6771075103898,nan,nan,nan,nan,nan,nan
1,265,1,1,1.0,1.0,0.400668959133327,0,5,1,7,3,4,2,nan,nan,nan,nan,nan,nan,nan,nan,nan,nan,nan,nan,0.0,nan,nan,nan,nan,nan,nan,nan,nan,nan,nan,nan,nan,nan,nan,nan,nan,nan,nan,833.8504504153971,1281.6854945875239,nan,1282.0861635466572,nan,nan,nan,nan
1,266,1,1,1.0,1.0,0.6561797317117453,0,4,3,8,6,5,0,nan,nan,nan,nan,nan,nan,nan,nan,nan,nan,nan,nan,0.0,nan,nan,nan,nan,nan,nan,nan,nan,nan,nan,nan,nan,nan,nan,nan,nan,nan,nan,833.8504504153971,1282.693994564237,nan,1283.3501742959488,nan,nan,nan,nan
1,267,1,1,1.0,1.0,0.6797195982653648,0,6,7,2,4,8,5,nan,nan,nan,nan,nan,nan,nan,nan,nan,nan,nan,nan,0.0,nan,nan,nan,nan,nan,nan,nan,nan,nan,nan,nan,nan,nan,nan,nan,nan,nan,nan,833.8504504153971,1283.7024549120106,nan,1284.382174510276,nan,nan,nan,nan
1,268,1,1,1.0,1.0,0.7032129934523255,0,8,4,6,0,5,1,nan,nan,nan,nan,nan,nan,nan,nan,nan,nan,nan,nan,0.0,nan,nan,nan,nan,nan,nan,nan,nan,nan,nan,nan,nan,nan,nan,nan,nan,nan,nan,833.8504504153971,1284.7109503273387,nan,1285.414163320791,nan,nan,nan,nan
1,269,1,1,1.0,1.0,0.702723476337269,0,3,6,1,4,2,8,nan,nan,nan,nan,nan,nan,nan,nan,nan,nan,nan,nan,0.0,nan,nan,nan,nan,nan,nan,nan,nan,nan,nan,nan,nan,nan,nan,nan,nan,nan,nan,833.8504504153971,1285.7194300619885,nan,1286.4221535383258,nan,nan,nan,nan
1,270,1,1,1.0,1.0,0.590214962605387,0,4,7,0,5,1,2,nan,nan,nan,nan,nan,nan,nan,nan,nan,nan,nan,nan,0.0,nan,nan,nan,nan,nan,nan,nan,nan,nan,nan,nan,nan,nan,nan,nan,nan,nan,nan,833.8504504153971,1286.7279363109265,nan,1287.3181512735318,nan,nan,nan,nan
1,271,1,1,1.0,1.0,0.40576598001644015,0,6,5,7,1,4,3,nan,nan,nan,nan,nan,nan,nan,nan,nan,nan,nan,nan,0.0,nan,nan,nan,nan,nan,nan,nan,nan,nan,nan,nan,nan,nan,nan,nan,nan,nan,nan,833.8504504153971,1287.7363604509737,nan,1288.1421264309902,nan,nan,nan,nan
1,272,1,1,1.0,1.0,0.3894881852902472,0,5,3,2,4,0,1,nan,nan,nan,nan,nan,nan,nan,nan,nan,nan,nan,nan,0.0,nan,nan,nan,nan,nan,nan,nan,nan,nan,nan,nan,nan,nan,nan,nan,nan,nan,nan,833.8504504153971,1288.744821654167,nan,1289.1343098394573,nan,nan,nan,nan
1,273,1,1,1.0,1.0,0.6767993171233684,0,8,7,4,3,5,0,nan,nan,nan,nan,nan,nan,nan,nan,nan,nan,nan,nan,0.0,nan,nan,nan,nan,nan,nan,nan,nan,nan,nan,nan,nan,nan,nan,nan,nan,nan,nan,833.8504504153971,1289.7533159288578,nan,1290.4301152459811,nan,nan,nan,nan
1,274,1,1,1.0,1.0,0.5963645735755563,0,4,0,6,1,3,5,nan,nan,nan,nan,nan,nan,nan,nan,nan,nan,nan,nan,0.0,nan,nan,nan,nan,nan,nan,nan,nan,nan,nan,nan,nan,nan,nan,nan,nan,nan,nan,833.8504504153971,1290.7617429199163,nan,1291.3581074934918,nan,nan,nan,nan
1,275,0,0,0.0,1.0,0.5883940279018134,0,3,4,0,6,7,2,nan,nan,nan,nan,nan,nan,nan,nan,nan,nan,nan,nan,0.0,nan,nan,nan,nan,nan,nan,nan,nan,nan,nan,nan,nan,nan,nan,nan,nan,nan,nan,833.8504504153971,1291.770261428319,nan,1292.3586554562207,nan,nan,nan,nan
1,276,1,1,1.0,1.0,0.48353560734540224,0,5,7,6,1,4,3,nan,nan,nan,nan,nan,nan,nan,nan,nan,nan,nan,nan,0.0,nan,nan,nan,nan,nan,nan,nan,nan,nan,nan,nan,nan,nan,nan,nan,nan,nan,nan,833.8504504153971,1292.7787063806318,nan,1293.2622419879772,nan,nan,nan,nan
1,277,1,1,1.0,1.0,0.674915375187993,0,6,0,3,8,1,4,nan,nan,nan,nan,nan,nan,nan,nan,nan,nan,nan,nan,0.0,nan,nan,nan,nan,nan,nan,nan,nan,nan,nan,nan,nan,nan,nan,nan,nan,nan,nan,833.8504504153971,1293.7871627372224,nan,1294.4620781124104,nan,nan,nan,nan
1,278,1,1,1.0,1.0,0.5944472749251872,0,5,8,1,4,2,0,nan,nan,nan,nan,nan,nan,nan,nan,nan,nan,nan,nan,0.0,nan,nan,nan,nan,nan,nan,nan,nan,nan,nan,nan,nan,nan,nan,nan,nan,nan,nan,833.8504504153971,1294.7956524502952,nan,1295.3900997252204,nan,nan,nan,nan
1,279,1,1,nan,nan,nan,0,8,0,7,1,5,6,nan,nan,nan,nan,nan,nan,nan,nan,nan,nan,nan,nan,0.0,nan,nan,nan,nan,nan,nan,nan,nan,nan,nan,nan,nan,nan,nan,nan,nan,nan,nan,833.8504504153971,1295.8041347509716,nan,nan,nan,nan,nan,nan
1,280,1,1,1.0,1.0,0.009520350256934762,0,0,7,2,3,8,1,nan,nan,nan,nan,nan,nan,nan,nan,nan,nan,nan,nan,0.0,nan,nan,nan,nan,nan,nan,nan,nan,nan,nan,nan,nan,nan,nan,nan,nan,nan,nan,833.8504504153971,1296.8126030815765,nan,1296.8221234318335,nan,nan,nan,nan
1,281,1,1,1.0,1.0,0.04941441840492189,0,4,2,3,5,1,8,nan,nan,nan,nan,nan,nan,nan,nan,nan,nan,nan,nan,0.0,nan,nan,nan,nan,nan,nan,nan,nan,nan,nan,nan,nan,nan,nan,nan,nan,nan,nan,833.8504504153971,1297.8210736929905,nan,1297.8704881113954,nan,nan,nan,nan
1,282,1,1,1.0,1.0,0.31243501510471106,0,7,1,6,3,0,4,nan,nan,nan,nan,nan,nan,nan,nan,nan,nan,nan,nan,0.0,nan,nan,nan,nan,nan,nan,nan,nan,nan,nan,nan,nan,nan,nan,nan,nan,nan,nan,833.8504504153971,1298.8296070264187,nan,1299.1420420415234,nan,nan,nan,nan
1,283,1,1,1.0,1.0,0.4400124987587333,0,2,5,8,0,6,7,nan,nan,nan,nan,nan,nan,nan,nan,nan,nan,nan,nan,0.0,nan,nan,nan,nan,nan,nan,nan,nan,nan,nan,nan,nan,nan,nan,nan,nan,nan,nan,833.8504504153971,1299.838018907234,nan,1300.2780314059928,nan,nan,nan,nan
1,284,1,1,1.0,1.0,0.5995708100963384,0,0,2,1,7,3,5,nan,nan,nan,nan,nan,nan,nan,nan,nan,nan,nan,nan,0.0,nan,nan,nan,nan,nan,nan,nan,nan,nan,nan,nan,nan,nan,nan,nan,nan,nan,nan,833.8504504153971,1300.846474408405,nan,1301.4460452185012,nan,nan,nan,nan
1,285,1,1,1.0,1.0,0.6070498432964087,0,1,7,4,5,6,2,nan,nan,nan,nan,nan,nan,nan,nan,nan,nan,nan,nan,0.0,nan,nan,nan,nan,nan,nan,nan,nan,nan,nan,nan,nan,nan,nan,nan,nan,nan,nan,833.8504504153971,1301.854966972489,nan,1302.4620168157853,nan,nan,nan,nan
1,286,1,1,1.0,1.0,0.7425642309244722,0,3,1,5,7,0,6,nan,nan,nan,nan,nan,nan,nan,nan,nan,nan,nan,nan,0.0,nan,nan,nan,nan,nan,nan,nan,nan,nan,nan,nan,nan,nan,nan,nan,nan,nan,nan,833.8504504153971,1302.863434447907,nan,1303.6059986788314,nan,nan,nan,nan
1,287,1,1,1.0,1.0,0.6061053064186126,0,8,4,3,5,7,2,nan,nan,nan,nan,nan,nan,nan,nan,nan,nan,nan,nan,0.0,nan,nan,nan,nan,nan,nan,nan,nan,nan,nan,nan,nan,nan,nan,nan,nan,nan,nan,833.8504504153971,1303.8719044891186,nan,1304.4780097955372,nan,nan,nan,nan
1,288,0,0,0.0,1.0,0.6775756448041648,0,2,0,8,4,6,3,nan,nan,nan,nan,nan,nan,nan,nan,nan,nan,nan,nan,0.0,nan,nan,nan,nan,nan,nan,nan,nan,nan,nan,nan,nan,nan,nan,nan,nan,nan,nan,833.8504504153971,1304.8803930620197,nan,1305.5579687068239,nan,nan,nan,nan
1,289,1,1,1.0,1.0,0.5091213525738567,0,1,3,0,6,8,7,nan,nan,nan,nan,nan,nan,nan,nan,nan,nan,nan,nan,0.0,nan,nan,nan,nan,nan,nan,nan,nan,nan,nan,nan,nan,nan,nan,nan,nan,nan,nan,833.8504504153971,1305.888852839591,nan,1306.3979741921648,nan,nan,nan,nan
1,290,1,1,1.0,1.0,0.5006265076808631,0,3,0,5,1,7,6,nan,nan,nan,nan,nan,nan,nan,nan,nan,nan,nan,nan,0.0,nan,nan,nan,nan,nan,nan,nan,nan,nan,nan,nan,nan,nan,nan,nan,nan,nan,nan,833.8504504153971,1306.8973225955851,nan,1307.397949103266,nan,nan,nan,nan
1,291,1,1,1.0,1.0,0.47615892509929836,0,1,5,8,0,2,3,nan,nan,nan,nan,nan,nan,nan,nan,nan,nan,nan,nan,0.0,nan,nan,nan,nan,nan,nan,nan,nan,nan,nan,nan,nan,nan,nan,nan,nan,nan,nan,833.8504504153971,1307.9057920668274,nan,1308.3819509919267,nan,nan,nan,nan
1,292,1,1,1.0,1.0,0.29167630057781935,0,8,4,3,7,1,6,nan,nan,nan,nan,nan,nan,nan,nan,nan,nan,nan,nan,0.0,nan,nan,nan,nan,nan,nan,nan,nan,nan,nan,nan,nan,nan,nan,nan,nan,nan,nan,833.8504504153971,1308.9142615378369,nan,1309.2059378384147,nan,nan,nan,nan
1,293,1,1,1.0,1.0,0.31520020170137286,0,4,8,6,3,0,5,nan,nan,nan,nan,nan,nan,nan,nan,nan,nan,nan,nan,0.0,nan,nan,nan,nan,nan,nan,nan,nan,nan,nan,nan,nan,nan,nan,nan,nan,nan,nan,833.8504504153971,1309.9227338598575,nan,1310.237934061559,nan,nan,nan,nan
1,294,1,1,1.0,1.0,0.2666912612039596,0,8,3,7,6,5,1,nan,nan,nan,nan,nan,nan,nan,nan,nan,nan,nan,nan,0.0,nan,nan,nan,nan,nan,nan,nan,nan,nan,nan,nan,nan,nan,nan,nan,nan,nan,nan,833.8504504153971,1310.931231270777,nan,1311.197922531981,nan,nan,nan,nan
1,295,1,1,1.0,1.0,0.3462410541251302,0,3,0,4,2,8,5,nan,nan,nan,nan,nan,nan,nan,nan,nan,nan,nan,nan,0.0,nan,nan,nan,nan,nan,nan,nan,nan,nan,nan,nan,nan,nan,nan,nan,nan,nan,nan,833.8504504153971,1311.939686771715,nan,1312.2859278258402,nan,nan,nan,nan
1,296,1,1,1.0,1.0,0.250026585534215,0,2,1,5,6,3,7,nan,nan,nan,nan,nan,nan,nan,nan,nan,nan,nan,nan,0.0,nan,nan,nan,nan,nan,nan,nan,nan,nan,nan,nan,nan,nan,nan,nan,nan,nan,nan,833.8504504153971,1312.9481505409349,nan,1313.198177126469,nan,nan,nan,nan
1,297,1,1,1.0,1.0,0.11369567108340561,0,0,5,7,3,1,4,nan,nan,nan,nan,nan,nan,nan,nan,nan,nan,nan,nan,0.0,nan,nan,nan,nan,nan,nan,nan,nan,nan,nan,nan,nan,nan,nan,nan,nan,nan,nan,833.8504504153971,1313.956598344259,nan,1314.0702940153424,nan,nan,nan,nan
1,298,1,1,1.0,1.0,0.0008370541036128998,0,5,1,2,0,4,3,nan,nan,nan,nan,nan,nan,nan,nan,nan,nan,nan,nan,0.0,nan,nan,nan,nan,nan,nan,nan,nan,nan,nan,nan,nan,nan,nan,nan,nan,nan,nan,833.8504504153971,1314.9650906233583,nan,1314.9659276774619,nan,nan,nan,nan
1,299,1,1,nan,nan,nan,0,0,3,7,4,8,6,nan,nan,nan,nan,nan,nan,nan,nan,nan,nan,nan,nan,0.0,nan,nan,nan,nan,nan,nan,nan,nan,nan,nan,nan,nan,nan,nan,nan,nan,nan,nan,833.8504504153971,1315.9735720686149,nan,nan,nan,nan,nan,nan
1,300,1,1,1.0,1.0,0.4877747616264969,0,6,1,8,7,0,3,nan,nan,nan,nan,nan,nan,nan,nan,nan,nan,nan,nan,0.0,nan,nan,nan,nan,nan,nan,nan,nan,nan,nan,nan,nan,nan,nan,nan,nan,nan,nan,833.8504504153971,1316.9820586456917,nan,1317.4698334073182,nan,nan,nan,nan
1,301,1,1,1.0,1.0,0.3113547705579549,0,0,3,7,8,5,2,nan,nan,nan,nan,nan,nan,nan,nan,nan,nan,nan,nan,0.0,nan,nan,nan,nan,nan,nan,nan,nan,nan,nan,nan,nan,nan,nan,nan,nan,nan,nan,833.8504504153971,1317.990509300027,nan,1318.301864070585,nan,nan,nan,nan
1,302,1,1,1.0,1.0,0.35927554895170033,0,7,2,3,0,4,6,nan,nan,nan,nan,nan,nan,nan,nan,nan,nan,nan,nan,0.0,nan,nan,nan,nan,nan,nan,nan,nan,nan,nan,nan,nan,nan,nan,nan,nan,nan,nan,833.8504504153971,1318.9990058557596,nan,1319.3582814047113,nan,nan,nan,nan
1,303,1,1,1.0,1.0,0.27035223273560405,0,8,0,1,4,3,2,nan,nan,nan,nan,nan,nan,nan,nan,nan,nan,nan,nan,0.0,nan,nan,nan,nan,nan,nan,nan,nan,nan,nan,nan,nan,nan,nan,nan,nan,nan,nan,833.8504504153971,1320.0074642077088,nan,1320.2778164404444,nan,nan,nan,nan
1,304,1,1,1.0,1.0,0.24588892655447125,0,4,2,7,6,8,1,nan,nan,nan,nan,nan,nan,nan,nan,nan,nan,nan,nan,0.0,nan,nan,nan,nan,nan,nan,nan,nan,nan,nan,nan,nan,nan,nan,nan,nan,nan,nan,833.8504504153971,1321.0159251259174,nan,1321.261814052472,nan,nan,nan,nan
1,305,1,1,1.0,1.0,0.26142831216566265,0,7,0,8,1,3,4,nan,nan,nan,nan,nan,nan,nan,nan,nan,nan,nan,nan,0.0,nan,nan,nan,nan,nan,nan,nan,nan,nan,nan,nan,nan,nan,nan,nan,nan,nan,nan,833.8504504153971,1322.0243965925183,nan,1322.285824904684,nan,nan,nan,nan
1,306,1,1,1.0,1.0,0.26087493263185024,1,3,6,2,4,0,1,1.0,1.0,1.0,1.0,1.0,1.0,0.0,1.0,0.0,1.0,1.0,0.0,3.0,6.0,6.0,5.0,4.0,0.0,8.0,4.0,1.0,3.0,2.0,6.0,5.0,7.927682628622279,3.290173252345994,6.377369146794081,5.434278278844431,10.280048774788156,9.208621486322954,833.8504504153971,1323.0328979948536,1323.8413032612298,1323.2937729274854,1335.1761733796448,1336.1758415231016,1324.8581064958125,1335.1678364803083
1,307,1,1,1.0,1.0,0.3809636898804456,0,4,5,1,8,7,2,nan,nan,nan,nan,nan,nan,nan,nan,nan,nan,nan,nan,0.0,nan,nan,nan,nan,nan,nan,nan,nan,nan,nan,nan,nan,nan,nan,nan,nan,nan,nan,833.8504504153971,1336.3847352801822,nan,1336.7656989700627,nan,nan,nan,nan
1,308,1,1,1.0,1.0,0.3484508653637022,0,2,1,5,7,3,6,nan,nan,nan,nan,nan,nan,nan,nan,nan,nan,nan,nan,0.0,nan,nan,nan,nan,nan,nan,nan,nan,nan,nan,nan,nan,nan,nan,nan,nan,nan,nan,833.8504504153971,1337.3932369675022,nan,1337.7416878328659,nan,nan,nan,nan
1,309,1,1,1.0,1.0,0.1885242045391351,0,4,0,7,6,2,1,nan,nan,nan,nan,nan,nan,nan,nan,nan,nan,nan,nan,0.0,nan,nan,nan,nan,nan,nan,nan,nan,nan,nan,nan,nan,nan,nan,nan,nan,nan,nan,833.8504504153971,1338.4016129258089,nan,1338.590137130348,nan,nan,nan,nan
1,310,1,1,1.0,1.0,0.03554030321538448,0,0,2,1,7,8,5,nan,nan,nan,nan,nan,nan,nan,nan,nan,nan,nan,nan,0.0,nan,nan,nan,nan,nan,nan,nan,nan,nan,nan,nan,nan,nan,nan,nan,nan,nan,nan,833.8504504153971,1339.4101191747468,nan,1339.4456594779622,nan,nan,nan,nan
1,311,1,1,1.0,1.0,0.17105868249200284,0,8,5,2,0,3,6,nan,nan,nan,nan,nan,nan,nan,nan,nan,nan,nan,nan,0.0,nan,nan,nan,nan,nan,nan,nan,nan,nan,nan,nan,nan,nan,nan,nan,nan,nan,nan,833.8504504153971,1340.4185875053518,nan,1340.5896461878438,nan,nan,nan,nan
1,312,1,1,1.0,1.0,0.17858789302408695,0,5,2,8,1,7,0,nan,nan,nan,nan,nan,nan,nan,nan,nan,nan,nan,nan,0.0,nan,nan,nan,nan,nan,nan,nan,nan,nan,nan,nan,nan,nan,nan,nan,nan,nan,nan,833.8504504153971,1341.4270544105675,nan,1341.6056423035916,nan,nan,nan,nan
1,313,1,1,1.0,1.0,0.23464143951423466,0,6,5,1,4,0,3,nan,nan,nan,nan,nan,nan,nan,nan,nan,nan,nan,nan,0.0,nan,nan,nan,nan,nan,nan,nan,nan,nan,nan,nan,nan,nan,nan,nan,nan,nan,nan,833.8504504153971,1342.4355543872807,nan,1342.670195826795,nan,nan,nan,nan
1,314,1,1,1.0,1.0,0.20161201362498105,0,1,7,5,2,4,8,nan,nan,nan,nan,nan,nan,nan,nan,nan,nan,nan,nan,0.0,nan,nan,nan,nan,nan,nan,nan,nan,nan,nan,nan,nan,nan,nan,nan,nan,nan,nan,833.8504504153971,1343.4440061820205,nan,1343.6456181956455,nan,nan,nan,nan
1,315,0,0,1.0,0.0,0.1611662763170898,0,3,1,0,7,6,4,nan,nan,nan,nan,nan,nan,nan,nan,nan,nan,nan,nan,0.0,nan,nan,nan,nan,nan,nan,nan,nan,nan,nan,nan,nan,nan,nan,nan,nan,nan,nan,833.8504504153971,1344.4524377349298,nan,1344.613604011247,nan,nan,nan,nan
1,316,1,1,1.0,1.0,0.41669900179840624,0,8,6,4,3,7,1,nan,nan,nan,nan,nan,nan,nan,nan,nan,nan,nan,nan,0.0,nan,nan,nan,nan,nan,nan,nan,nan,nan,nan,nan,nan,nan,nan,nan,nan,nan,nan,833.8504504153971,1345.4609220309649,nan,1345.8776210327633,nan,nan,nan,nan
1,317,1,1,1.0,1.0,0.36023690667934716,0,3,4,5,1,0,7,nan,nan,nan,nan,nan,nan,nan,nan,nan,nan,nan,nan,0.0,nan,nan,nan,nan,nan,nan,nan,nan,nan,nan,nan,nan,nan,nan,nan,nan,nan,nan,833.8504504153971,1346.4694271397311,nan,1346.8296640464105,nan,nan,nan,nan
1,318,1,1,1.0,1.0,0.3356675433460623,0,2,1,4,7,5,3,nan,nan,nan,nan,nan,nan,nan,nan,nan,nan,nan,nan,0.0,nan,nan,nan,nan,nan,nan,nan,nan,nan,nan,nan,nan,nan,nan,nan,nan,nan,nan,833.8504504153971,1347.477911435999,nan,1347.813578979345,nan,nan,nan,nan
1,319,1,1,1.0,1.0,0.255232515046373,0,0,4,1,2,3,5,nan,nan,nan,nan,nan,nan,nan,nan,nan,nan,nan,nan,0.0,nan,nan,nan,nan,nan,nan,nan,nan,nan,nan,nan,nan,nan,nan,nan,nan,nan,nan,833.8504504153971,1348.486364656128,nan,1348.7415971711744,nan,nan,nan,nan
1,320,1,1,1.0,1.0,0.19075682386755943,0,3,2,6,1,8,7,nan,nan,nan,nan,nan,nan,nan,nan,nan,nan,nan,nan,0.0,nan,nan,nan,nan,nan,nan,nan,nan,nan,nan,nan,nan,nan,nan,nan,nan,nan,nan,833.8504504153971,1349.4948415399995,nan,1349.685598363867,nan,nan,nan,nan
1,321,1,1,1.0,1.0,0.13427591254003346,0,2,0,7,8,5,1,nan,nan,nan,nan,nan,nan,nan,nan,nan,nan,nan,nan,0.0,nan,nan,nan,nan,nan,nan,nan,nan,nan,nan,nan,nan,nan,nan,nan,nan,nan,nan,833.8504504153971,1350.503305023769,nan,1350.637580936309,nan,nan,nan,nan
1,322,1,1,1.0,1.0,0.10982828703708947,0,5,7,8,3,4,6,nan,nan,nan,nan,nan,nan,nan,nan,nan,nan,nan,nan,0.0,nan,nan,nan,nan,nan,nan,nan,nan,nan,nan,nan,nan,nan,nan,nan,nan,nan,nan,833.8504504153971,1351.5117471253034,nan,1351.6215754123405,nan,nan,nan,nan
1,323,1,1,1.0,1.0,0.013293936382979155,0,6,5,7,8,2,3,nan,nan,nan,nan,nan,nan,nan,nan,nan,nan,nan,nan,0.0,nan,nan,nan,nan,nan,nan,nan,nan,nan,nan,nan,nan,nan,nan,nan,nan,nan,nan,833.8504504153971,1352.5202565102372,nan,1352.5335504466202,nan,nan,nan,nan
1,324,1,1,1.0,1.0,0.22049106215126812,0,3,2,5,7,0,1,nan,nan,nan,nan,nan,nan,nan,nan,nan,nan,nan,nan,0.0,nan,nan,nan,nan,nan,nan,nan,nan,nan,nan,nan,nan,nan,nan,nan,nan,nan,nan,833.8504504153971,1353.5370432089549,nan,1353.7575342711061,nan,nan,nan,nan
1,325,1,1,1.0,1.0,0.26799958595074713,0,1,5,6,8,4,3,nan,nan,nan,nan,nan,nan,nan,nan,nan,nan,nan,nan,0.0,nan,nan,nan,nan,nan,nan,nan,nan,nan,nan,nan,nan,nan,nan,nan,nan,nan,nan,833.8504504153971,1354.5455101141706,nan,1354.8135097001214,nan,nan,nan,nan
1,326,1,1,1.0,1.0,0.23553323280066252,0,5,6,3,0,7,1,nan,nan,nan,nan,nan,nan,nan,nan,nan,nan,nan,nan,0.0,nan,nan,nan,nan,nan,nan,nan,nan,nan,nan,nan,nan,nan,nan,nan,nan,nan,nan,833.8504504153971,1355.55397958518,nan,1355.7895128179807,nan,nan,nan,nan
1,327,1,1,1.0,1.0,0.23501663142815232,0,7,4,8,2,6,0,nan,nan,nan,nan,nan,nan,nan,nan,nan,nan,nan,nan,0.0,nan,nan,nan,nan,nan,nan,nan,nan,nan,nan,nan,nan,nan,nan,nan,nan,nan,nan,833.8504504153971,1356.56247528526,nan,1356.7974919166882,nan,nan,nan,nan
1,328,1,1,1.0,1.0,0.19452983979135752,0,1,5,4,6,7,3,nan,nan,nan,nan,nan,nan,nan,nan,nan,nan,nan,nan,0.0,nan,nan,nan,nan,nan,nan,nan,nan,nan,nan,nan,nan,nan,nan,nan,nan,nan,nan,833.8504504153971,1357.5709467520937,nan,1357.765476591885,nan,nan,nan,nan
1,329,1,1,1.0,1.0,0.2020476465113461,0,2,7,1,8,6,4,nan,nan,nan,nan,nan,nan,nan,nan,nan,nan,nan,nan,0.0,nan,nan,nan,nan,nan,nan,nan,nan,nan,nan,nan,nan,nan,nan,nan,nan,nan,nan,833.8504504153971,1358.5794207847212,nan,1358.7814684312325,nan,nan,nan,nan
1,330,1,1,1.0,1.0,0.11360500892624259,0,5,1,3,7,2,8,nan,nan,nan,nan,nan,nan,nan,nan,nan,nan,nan,nan,0.0,nan,nan,nan,nan,nan,nan,nan,nan,nan,nan,nan,nan,nan,nan,nan,nan,nan,nan,833.8504504153971,1359.5878623160534,nan,1359.7014673249796,nan,nan,nan,nan
1,331,1,1,1.0,1.0,0.017163886222988367,0,2,8,7,6,4,1,nan,nan,nan,nan,nan,nan,nan,nan,nan,nan,nan,nan,0.0,nan,nan,nan,nan,nan,nan,nan,nan,nan,nan,nan,nan,nan,nan,nan,nan,nan,nan,833.8504504153971,1360.5963389144745,nan,1360.6135028006975,nan,nan,nan,nan
1,332,1,1,1.0,1.0,0.06458402890712023,0,7,5,3,4,8,2,nan,nan,nan,nan,nan,nan,nan,nan,nan,nan,nan,nan,0.0,nan,nan,nan,nan,nan,nan,nan,nan,nan,nan,nan,nan,nan,nan,nan,nan,nan,nan,833.8504504153971,1361.6048480144236,nan,1361.6694320433307,nan,nan,nan,nan
1,333,1,1,1.0,1.0,0.26377212069928646,0,8,2,7,6,5,1,nan,nan,nan,nan,nan,nan,nan,nan,nan,nan,nan,nan,0.0,nan,nan,nan,nan,nan,nan,nan,nan,nan,nan,nan,nan,nan,nan,nan,nan,nan,nan,833.8504504153971,1362.621668354841,nan,1362.8854404755402,nan,nan,nan,nan
1,334,1,1,1.0,1.0,0.1752664758823812,0,4,6,2,5,8,0,nan,nan,nan,nan,nan,nan,nan,nan,nan,nan,nan,nan,0.0,nan,nan,nan,nan,nan,nan,nan,nan,nan,nan,nan,nan,nan,nan,nan,nan,nan,nan,833.8504504153971,1363.6301489449106,nan,1363.805415420793,nan,nan,nan,nan
1,335,1,1,nan,nan,nan,0,6,8,4,0,1,5,nan,nan,nan,nan,nan,nan,nan,nan,nan,nan,nan,nan,0.0,nan,nan,nan,nan,nan,nan,nan,nan,nan,nan,nan,nan,nan,nan,nan,nan,nan,nan,833.8504504153971,1364.6385870547965,nan,nan,nan,nan,nan,nan
1,336,1,1,1.0,1.0,0.5023120199330151,0,5,2,7,3,6,0,nan,nan,nan,nan,nan,nan,nan,nan,nan,nan,nan,nan,0.0,nan,nan,nan,nan,nan,nan,nan,nan,nan,nan,nan,nan,nan,nan,nan,nan,nan,nan,833.8504504153971,1365.6470619428437,nan,1366.1493739627767,nan,nan,nan,nan
1,337,1,1,1.0,1.0,0.318450913997367,0,0,3,8,5,2,6,nan,nan,nan,nan,nan,nan,nan,nan,nan,nan,nan,nan,0.0,nan,nan,nan,nan,nan,nan,nan,nan,nan,nan,nan,nan,nan,nan,nan,nan,nan,nan,833.8504504153971,1366.6555336946622,nan,1366.9739846086595,nan,nan,nan,nan
1,338,1,1,1.0,1.0,0.35740101523697376,0,8,7,4,6,3,1,nan,nan,nan,nan,nan,nan,nan,nan,nan,nan,nan,nan,0.0,nan,nan,nan,nan,nan,nan,nan,nan,nan,nan,nan,nan,nan,nan,nan,nan,nan,nan,833.8504504153971,1367.6640063019004,nan,1368.0214073171373,nan,nan,nan,nan
1,339,1,1,1.0,1.0,0.3169515719637275,0,4,0,6,2,1,7,nan,nan,nan,nan,nan,nan,nan,nan,nan,nan,nan,nan,0.0,nan,nan,nan,nan,nan,nan,nan,nan,nan,nan,nan,nan,nan,nan,nan,nan,nan,nan,833.8504504153971,1368.6724689304829,nan,1368.9894205024466,nan,nan,nan,nan
1,340,1,1,1.0,1.0,0.38867051783017814,0,0,2,3,7,5,8,nan,nan,nan,nan,nan,nan,nan,nan,nan,nan,nan,nan,0.0,nan,nan,nan,nan,nan,nan,nan,nan,nan,nan,nan,nan,nan,nan,nan,nan,nan,nan,833.8504504153971,1369.6809686222114,nan,1370.0696391400415,nan,nan,nan,nan
1,341,1,1,1.0,1.0,0.29986494802869856,1,1,4,8,2,3,6,1.0,1.0,1.0,1.0,1.0,1.0,0.0,1.0,1.0,0.0,0.0,0.0,2.0,5.0,4.0,8.0,7.0,1.0,3.0,3.0,2.0,1.0,6.0,5.0,4.0,5.967588671017438,2.9138336023315787,2.0891191801056266,9.0234147075098,8.439369312720373,7.039816235657781,833.8504504153971,1370.6894420846365,1371.4978248281404,1370.9893070326652,1381.5658845133148,1382.5660170849878,1372.5063376345206,1381.557541911956
1,342,1,1,1.0,1.0,0.4308285666629672,0,7,1,4,6,8,3,nan,nan,nan,nan,nan,nan,nan,nan,nan,nan,nan,nan,0.0,nan,nan,nan,nan,nan,nan,nan,nan,nan,nan,nan,nan,nan,nan,nan,nan,nan,nan,833.8504504153971,1382.7744256015867,nan,1383.2052541682497,nan,nan,nan,nan
1,343,1,1,1.0,1.0,0.4303561558481306,0,4,2,3,8,6,0,nan,nan,nan,nan,nan,nan,nan,nan,nan,nan,nan,nan,0.0,nan,nan,nan,nan,nan,nan,nan,nan,nan,nan,nan,nan,nan,nan,nan,nan,nan,nan,833.8504504153971,1383.7828890853561,nan,1384.2132452412043,nan,nan,nan,nan
1,344,0,0,1.0,0.0,0.21387616777792573,0,6,5,8,7,0,1,nan,nan,nan,nan,nan,nan,nan,nan,nan,nan,nan,nan,0.0,nan,nan,nan,nan,nan,nan,nan,nan,nan,nan,nan,nan,nan,nan,nan,nan,nan,nan,833.8504504153971,1384.7913691052236,nan,1385.0052452730015,nan,nan,nan,nan
1,345,1,1,1.0,1.0,0.40540304756723344,0,0,2,4,5,3,8,nan,nan,nan,nan,nan,nan,nan,nan,nan,nan,nan,nan,0.0,nan,nan,nan,nan,nan,nan,nan,nan,nan,nan,nan,nan,nan,nan,nan,nan,nan,nan,833.8504504153971,1385.7998220403679,nan,1386.205225087935,nan,nan,nan,nan
1,346,1,1,1.0,1.0,0.40491039445623755,0,8,3,6,2,4,7,nan,nan,nan,nan,nan,nan,nan,nan,nan,nan,nan,nan,0.0,nan,nan,nan,nan,nan,nan,nan,nan,nan,nan,nan,nan,nan,nan,nan,nan,nan,nan,833.8504504153971,1386.8082997794263,nan,1387.2132101738825,nan,nan,nan,nan
1,347,1,1,1.0,1.0,0.3404609328135848,0,6,2,7,0,3,4,nan,nan,nan,nan,nan,nan,nan,nan,nan,nan,nan,nan,0.0,nan,nan,nan,nan,nan,nan,nan,nan,nan,nan,nan,nan,nan,nan,nan,nan,nan,nan,833.8504504153971,1387.8167817948852,nan,1388.1572427276988,nan,nan,nan,nan
1,348,1,1,1.0,1.0,0.37194254994392395,0,3,6,1,2,0,8,nan,nan,nan,nan,nan,nan,nan,nan,nan,nan,nan,nan,0.0,nan,nan,nan,nan,nan,nan,nan,nan,nan,nan,nan,nan,nan,nan,nan,nan,nan,nan,833.8504504153971,1388.8252452788875,nan,1389.1971878288314,nan,nan,nan,nan
1,349,0,0,0.0,1.0,0.41149421292357147,0,6,2,8,3,7,4,nan,nan,nan,nan,nan,nan,nan,nan,nan,nan,nan,nan,0.0,nan,nan,nan,nan,nan,nan,nan,nan,nan,nan,nan,nan,nan,nan,nan,nan,nan,nan,833.8504504153971,1389.8337181711104,nan,1390.245212384034,nan,nan,nan,nan
1,350,1,1,1.0,1.0,0.22699391236528754,0,8,4,7,1,2,0,nan,nan,nan,nan,nan,nan,nan,nan,nan,nan,nan,nan,0.0,nan,nan,nan,nan,nan,nan,nan,nan,nan,nan,nan,nan,nan,nan,nan,nan,nan,nan,833.8504504153971,1390.8421873569023,nan,1391.0691812692676,nan,nan,nan,nan
1,351,1,1,1.0,1.0,0.16248343931511045,0,5,0,3,7,4,2,nan,nan,nan,nan,nan,nan,nan,nan,nan,nan,nan,nan,0.0,nan,nan,nan,nan,nan,nan,nan,nan,nan,nan,nan,nan,nan,nan,nan,nan,nan,nan,833.8504504153971,1391.850661959732,nan,1392.013145399047,nan,nan,nan,nan
1,352,1,1,1.0,1.0,0.12999114184640348,0,6,5,8,0,1,4,nan,nan,nan,nan,nan,nan,nan,nan,nan,nan,nan,nan,0.0,nan,nan,nan,nan,nan,nan,nan,nan,nan,nan,nan,nan,nan,nan,nan,nan,nan,nan,833.8504504153971,1392.8591448306106,nan,1392.989135972457,nan,nan,nan,nan
1,353,1,1,1.0,1.0,0.14552853163331747,0,2,7,0,4,8,3,nan,nan,nan,nan,nan,nan,nan,nan,nan,nan,nan,nan,0.0,nan,nan,nan,nan,nan,nan,nan,nan,nan,nan,nan,nan,nan,nan,nan,nan,nan,nan,833.8504504153971,1393.8675989061594,nan,1394.0131274377927,nan,nan,nan,nan
1,354,1,1,1.0,1.0,0.21697463653981686,0,4,0,3,5,7,2,nan,nan,nan,nan,nan,nan,nan,nan,nan,nan,nan,nan,0.0,nan,nan,nan,nan,nan,nan,nan,nan,nan,nan,nan,nan,nan,nan,nan,nan,nan,nan,833.8504504153971,1394.8761214059778,nan,1395.0930960425176,nan,nan,nan,nan
1,355,1,1,1.0,1.0,0.16050085239112377,0,3,2,7,6,8,5,nan,nan,nan,nan,nan,nan,nan,nan,nan,nan,nan,nan,0.0,nan,nan,nan,nan,nan,nan,nan,nan,nan,nan,nan,nan,nan,nan,nan,nan,nan,nan,833.8504504153971,1395.8846074128523,nan,1396.0451082652435,nan,nan,nan,nan
1,356,1,1,1.0,1.0,0.04809953644871712,0,7,1,2,3,6,4,nan,nan,nan,nan,nan,nan,nan,nan,nan,nan,nan,nan,0.0,nan,nan,nan,nan,nan,nan,nan,nan,nan,nan,nan,nan,nan,nan,nan,nan,nan,nan,833.8504504153971,1396.8929967705626,nan,1396.9410963070113,nan,nan,nan,nan
1,357,1,1,1.0,1.0,0.047615436371415854,0,8,4,6,1,2,0,nan,nan,nan,nan,nan,nan,nan,nan,nan,nan,nan,nan,0.0,nan,nan,nan,nan,nan,nan,nan,nan,nan,nan,nan,nan,nan,nan,nan,nan,nan,nan,833.8504504153971,1397.9014622503892,nan,1397.9490776867606,nan,nan,nan,nan
1,358,1,1,1.0,1.0,0.2231328005436808,0,4,6,3,8,0,2,nan,nan,nan,nan,nan,nan,nan,nan,nan,nan,nan,nan,0.0,nan,nan,nan,nan,nan,nan,nan,nan,nan,nan,nan,nan,nan,nan,nan,nan,nan,nan,833.8504504153971,1398.9099556696601,nan,1399.1330884702038,nan,nan,nan,nan
1,359,1,1,1.0,1.0,0.19080899748951197,0,5,3,7,2,6,4,nan,nan,nan,nan,nan,nan,nan,nan,nan,nan,nan,nan,0.0,nan,nan,nan,nan,nan,nan,nan,nan,nan,nan,nan,nan,nan,nan,nan,nan,nan,nan,833.8504504153971,1399.9184316981118,nan,1400.1092406956013,nan,nan,nan,nan
1,360,1,1,1.0,1.0,0.32616458437405527,0,7,5,2,4,8,1,nan,nan,nan,nan,nan,nan,nan,nan,nan,nan,nan,nan,0.0,nan,nan,nan,nan,nan,nan,nan,nan,nan,nan,nan,nan,nan,nan,nan,nan,nan,nan,833.8504504153971,1400.9269159943797,nan,1401.2530805787537,nan,nan,nan,nan
1,361,1,1,1.0,1.0,0.27772663393989205,0,5,8,6,3,2,7,nan,nan,nan,nan,nan,nan,nan,nan,nan,nan,nan,nan,0.0,nan,nan,nan,nan,nan,nan,nan,nan,nan,nan,nan,nan,nan,nan,nan,nan,nan,nan,833.8504504153971,1401.935392307816,nan,1402.213118941756,nan,nan,nan,nan
1,362,1,1,1.0,1.0,0.2612381500657648,0,2,0,4,5,6,3,nan,nan,nan,nan,nan,nan,nan,nan,nan,nan,nan,nan,0.0,nan,nan,nan,nan,nan,nan,nan,nan,nan,nan,nan,nan,nan,nan,nan,nan,nan,nan,833.8504504153971,1402.9438421069644,nan,1403.2050802570302,nan,nan,nan,nan
1,363,1,1,1.0,1.0,0.19674050668254495,0,1,4,3,2,0,8,nan,nan,nan,nan,nan,nan,nan,nan,nan,nan,nan,nan,0.0,nan,nan,nan,nan,nan,nan,nan,nan,nan,nan,nan,nan,nan,nan,nan,nan,nan,nan,833.8504504153971,1403.952301599551,nan,1404.1490421062335,nan,nan,nan,nan
1,364,1,1,1.0,1.0,0.15624972386285663,0,3,7,5,1,8,2,nan,nan,nan,nan,nan,nan,nan,nan,nan,nan,nan,nan,0.0,nan,nan,nan,nan,nan,nan,nan,nan,nan,nan,nan,nan,nan,nan,nan,nan,nan,nan,833.8504504153971,1404.9607930232305,nan,1405.1170427470934,nan,nan,nan,nan
1,365,0,0,1.0,0.0,0.17174577387049794,0,1,3,8,6,5,0,nan,nan,nan,nan,nan,nan,nan,nan,nan,nan,nan,nan,0.0,nan,nan,nan,nan,nan,nan,nan,nan,nan,nan,nan,nan,nan,nan,nan,nan,nan,nan,833.8504504153971,1405.9692721876781,nan,1406.1410179615486,nan,nan,nan,nan
1,366,1,1,1.0,1.0,0.4352698572911322,0,8,2,7,1,0,6,nan,nan,nan,nan,nan,nan,nan,nan,nan,nan,nan,nan,0.0,nan,nan,nan,nan,nan,nan,nan,nan,nan,nan,nan,nan,nan,nan,nan,nan,nan,nan,833.8504504153971,1406.9777388076764,nan,1407.4130086649675,nan,nan,nan,nan
1,367,1,1,1.0,1.0,0.36278000054880977,0,2,6,3,0,5,8,nan,nan,nan,nan,nan,nan,nan,nan,nan,nan,nan,nan,0.0,nan,nan,nan,nan,nan,nan,nan,nan,nan,nan,nan,nan,nan,nan,nan,nan,nan,nan,833.8504504153971,1407.9862327973824,nan,1408.3490127979312,nan,nan,nan,nan
1,368,1,1,1.0,1.0,0.23432383802719414,0,6,5,4,7,3,2,nan,nan,nan,nan,nan,nan,nan,nan,nan,nan,nan,nan,0.0,nan,nan,nan,nan,nan,nan,nan,nan,nan,nan,nan,nan,nan,nan,nan,nan,nan,nan,833.8504504153971,1408.9946614990477,nan,1409.2289853370748,nan,nan,nan,nan
1,369,1,1,1.0,1.0,0.20184465521015227,0,7,8,0,3,5,1,nan,nan,nan,nan,nan,nan,nan,nan,nan,nan,nan,nan,0.0,nan,nan,nan,nan,nan,nan,nan,nan,nan,nan,nan,nan,nan,nan,nan,nan,nan,nan,833.8504504153971,1410.0031303998549,nan,1410.204975055065,nan,nan,nan,nan
1,370,0,0,1.0,0.0,0.2813271642662585,0,4,0,3,5,7,6,nan,nan,nan,nan,nan,nan,nan,nan,nan,nan,nan,nan,0.0,nan,nan,nan,nan,nan,nan,nan,nan,nan,nan,nan,nan,nan,nan,nan,nan,nan,nan,833.8504504153971,1411.0116118451115,nan,1411.2929390093777,nan,nan,nan,nan
1,371,1,1,1.0,1.0,0.5049109931569546,0,7,4,1,8,0,3,nan,nan,nan,nan,nan,nan,nan,nan,nan,nan,nan,nan,0.0,nan,nan,nan,nan,nan,nan,nan,nan,nan,nan,nan,nan,nan,nan,nan,nan,nan,nan,833.8504504153971,1412.0200884437654,nan,1412.5249994369224,nan,nan,nan,nan
1,372,0,0,0.0,1.0,0.6563832932151854,0,1,5,4,6,3,2,nan,nan,nan,nan,nan,nan,nan,nan,nan,nan,nan,nan,0.0,nan,nan,nan,nan,nan,nan,nan,nan,nan,nan,nan,nan,nan,nan,nan,nan,nan,nan,833.8504504153971,1413.0285807228647,nan,1413.68496401608,nan,nan,nan,nan
1,373,1,1,1.0,1.0,0.43992354767397046,0,5,0,6,8,1,4,nan,nan,nan,nan,nan,nan,nan,nan,nan,nan,nan,nan,0.0,nan,nan,nan,nan,nan,nan,nan,nan,nan,nan,nan,nan,nan,nan,nan,nan,nan,nan,833.8504504153971,1414.0370416408405,nan,1414.4769651885144,nan,nan,nan,nan
1,374,1,1,0.0,0.0,0.35941553325392306,0,7,5,4,0,8,6,nan,nan,nan,nan,nan,nan,nan,nan,nan,nan,nan,nan,0.0,nan,nan,nan,nan,nan,nan,nan,nan,nan,nan,nan,nan,nan,nan,nan,nan,nan,nan,833.8504504153971,1415.0455219456926,nan,1415.4049374789465,nan,nan,nan,nan
1,375,1,1,1.0,1.0,0.7509418996050954,0,0,1,7,6,4,2,nan,nan,nan,nan,nan,nan,nan,nan,nan,nan,nan,nan,0.0,nan,nan,nan,nan,nan,nan,nan,nan,nan,nan,nan,nan,nan,nan,nan,nan,nan,nan,833.8504504153971,1416.053988280706,nan,1416.8049301803112,nan,nan,nan,nan
1,376,1,1,1.0,1.0,0.41500522173009813,0,2,0,8,3,5,4,nan,nan,nan,nan,nan,nan,nan,nan,nan,nan,nan,nan,0.0,nan,nan,nan,nan,nan,nan,nan,nan,nan,nan,nan,nan,nan,nan,nan,nan,nan,nan,833.8504504153971,1417.062459747307,nan,1417.477464969037,nan,nan,nan,nan
1,377,1,1,1.0,1.0,0.2620161883533001,0,4,7,3,6,8,5,nan,nan,nan,nan,nan,nan,nan,nan,nan,nan,nan,nan,0.0,nan,nan,nan,nan,nan,nan,nan,nan,nan,nan,nan,nan,nan,nan,nan,nan,nan,nan,833.8504504153971,1418.0709326397628,nan,1418.332948828116,nan,nan,nan,nan
1,378,1,1,1.0,1.0,0.4855563973542303,0,6,4,2,0,5,8,nan,nan,nan,nan,nan,nan,nan,nan,nan,nan,nan,nan,0.0,nan,nan,nan,nan,nan,nan,nan,nan,nan,nan,nan,nan,nan,nan,nan,nan,nan,nan,833.8504504153971,1419.0793938427232,nan,1419.5649502400775,nan,nan,nan,nan
1,379,1,1,1.0,1.0,0.3649798333644867,0,0,5,4,8,2,6,nan,nan,nan,nan,nan,nan,nan,nan,nan,nan,nan,nan,0.0,nan,nan,nan,nan,nan,nan,nan,nan,nan,nan,nan,nan,nan,nan,nan,nan,nan,nan,833.8504504153971,1420.087893249467,nan,1420.4528730828315,nan,nan,nan,nan
1,380,1,1,1.0,1.0,0.25250325072556734,0,8,0,6,3,7,2,nan,nan,nan,nan,nan,nan,nan,nan,nan,nan,nan,nan,0.0,nan,nan,nan,nan,nan,nan,nan,nan,nan,nan,nan,nan,nan,nan,nan,nan,nan,nan,833.8504504153971,1421.0963484654203,nan,1421.3488517161459,nan,nan,nan,nan
1,381,1,1,1.0,1.0,0.31608344218693674,0,4,7,1,5,8,0,nan,nan,nan,nan,nan,nan,nan,nan,nan,nan,nan,nan,0.0,nan,nan,nan,nan,nan,nan,nan,nan,nan,nan,nan,nan,nan,nan,nan,nan,nan,nan,833.8504504153971,1422.1048244936392,nan,1422.420907935826,nan,nan,nan,nan
1,382,1,1,1.0,1.0,0.2515809517353773,0,3,0,2,6,4,1,nan,nan,nan,nan,nan,nan,nan,nan,nan,nan,nan,nan,0.0,nan,nan,nan,nan,nan,nan,nan,nan,nan,nan,nan,nan,nan,nan,nan,nan,nan,nan,833.8504504153971,1423.113283701241,nan,1423.3648646529764,nan,nan,nan,nan
1,383,0,0,1.0,0.0,0.26707814214751124,0,6,8,0,1,2,3,nan,nan,nan,nan,nan,nan,nan,nan,nan,nan,nan,nan,0.0,nan,nan,nan,nan,nan,nan,nan,nan,nan,nan,nan,nan,nan,nan,nan,nan,nan,nan,833.8504504153971,1424.1217594444752,nan,1424.3888375866227,nan,nan,nan,nan
1,384,1,1,1.0,1.0,0.538567069452256,0,4,3,6,5,7,0,nan,nan,nan,nan,nan,nan,nan,nan,nan,nan,nan,nan,0.0,nan,nan,nan,nan,nan,nan,nan,nan,nan,nan,nan,nan,nan,nan,nan,nan,nan,nan,833.8504504153971,1425.130246876739,nan,1425.6688139461912,nan,nan,nan,nan
1,385,1,1,1.0,1.0,0.49809538829140365,0,1,7,0,6,2,8,nan,nan,nan,nan,nan,nan,nan,nan,nan,nan,nan,nan,0.0,nan,nan,nan,nan,nan,nan,nan,nan,nan,nan,nan,nan,nan,nan,nan,nan,nan,nan,833.8504504153971,1426.138715207344,nan,1426.6368105956353,nan,nan,nan,nan
1,386,1,1,1.0,1.0,0.48207218782044947,0,8,5,4,1,0,2,nan,nan,nan,nan,nan,nan,nan,nan,nan,nan,nan,nan,0.0,nan,nan,nan,nan,nan,nan,nan,nan,nan,nan,nan,nan,nan,nan,nan,nan,nan,nan,833.8504504153971,1427.1471806871705,nan,1427.629252874991,nan,nan,nan,nan
1,387,0,0,0.0,1.0,0.5051792724989355,0,6,1,7,2,5,4,nan,nan,nan,nan,nan,nan,nan,nan,nan,nan,nan,nan,0.0,nan,nan,nan,nan,nan,nan,nan,nan,nan,nan,nan,nan,nan,nan,nan,nan,nan,nan,833.8504504153971,1428.1556404647417,nan,1428.6608197372407,nan,nan,nan,nan
1,388,1,1,1.0,1.0,0.4006458658259362,0,4,5,6,1,2,3,nan,nan,nan,nan,nan,nan,nan,nan,nan,nan,nan,nan,0.0,nan,nan,nan,nan,nan,nan,nan,nan,nan,nan,nan,nan,nan,nan,nan,nan,nan,nan,833.8504504153971,1429.1641609687358,nan,1429.5648068345618,nan,nan,nan,nan
1,389,1,1,1.0,1.0,0.3601958523504436,0,0,6,8,5,1,2,nan,nan,nan,nan,nan,nan,nan,nan,nan,nan,nan,nan,0.0,nan,nan,nan,nan,nan,nan,nan,nan,nan,nan,nan,nan,nan,nan,nan,nan,nan,nan,833.8504504153971,1430.1725879597943,nan,1430.5327838121448,nan,nan,nan,nan
