block,trial,freq_trials,correct_response,actual_response,acc,rts,probe_trials,fast_rt_trigger,slow_rt_trigger,rt_triggered,rts_runningavg,rts_runningstd,rts_runningfastthresh,rts_runningslowthresh,rts_runningstd,rts_trailingavg,trials_colorind0,trials_colorind1,trials_colorind2,trials_colorind3,trials_colorind4,trials_colorind5,wholereport_resp0,wholereport_resp1,wholereport_resp2,wholereport_resp3,wholereport_resp4,wholereport_resp5,wholereport_respacc0,wholereport_respacc1,wholereport_respacc2,wholereport_respacc3,wholereport_respacc4,wholereport_respacc5,wholereport_respacc_total,wholereport_respcolorind0,wholereport_respcolorind1,wholereport_respcolorind2,wholereport_respcolorind3,wholereport_respcolorind4,wholereport_respcolorind5,wholereport_resporder0,wholereport_resporder1,wholereport_resporder2,wholereport_resporder3,wholereport_resporder4,wholereport_resporder5,wholereport_rts0,wholereport_rts1,wholereport_rts2,wholereport_rts3,wholereport_rts4,wholereport_rts5,time_blockstart,time_encarray_offset,time_encarray_onset,time_response,time_iti_offset,time_iti_onset,time_memprobe_offset,time_memprobe_onset
1,1,1,1,1.0,1.0,0.45914388789083205,0,nan,nan,nan,nan,nan,nan,nan,nan,nan,5,7,1,8,0,3,nan,nan,nan,nan,nan,nan,nan,nan,nan,nan,nan,nan,0.0,nan,nan,nan,nan,nan,nan,nan,nan,nan,nan,nan,nan,nan,nan,nan,nan,nan,nan,908.1454844339884,909.1583063869142,nan,909.617450274805,nan,nan,nan,nan
1,2,1,1,1.0,1.0,0.35400068081162317,0,nan,nan,nan,nan,nan,nan,nan,nan,nan,7,4,8,0,2,6,nan,nan,nan,nan,nan,nan,nan,nan,nan,nan,nan,nan,0.0,nan,nan,nan,nan,nan,nan,nan,nan,nan,nan,nan,nan,nan,nan,nan,nan,nan,nan,908.1454844339884,910.1834667682373,nan,910.5374674490489,nan,nan,nan,nan
1,3,1,1,1.0,1.0,0.2648554073496143,0,nan,nan,nan,nan,nan,nan,nan,nan,nan,6,5,2,8,0,1,nan,nan,nan,nan,nan,nan,nan,nan,nan,nan,nan,nan,0.0,nan,nan,nan,nan,nan,nan,nan,nan,nan,nan,nan,nan,nan,nan,nan,nan,nan,nan,908.1454844339884,911.2085769724864,nan,911.473432379836,nan,nan,nan,nan
1,4,0,0,1.0,0.0,0.20769602272548582,0,nan,nan,0.0,nan,nan,nan,nan,nan,nan,3,1,4,0,5,7,nan,nan,nan,nan,nan,nan,nan,nan,nan,nan,nan,nan,0.0,nan,nan,nan,nan,nan,nan,nan,nan,nan,nan,nan,nan,nan,nan,nan,nan,nan,nan,908.1454844339884,912.2337091292055,nan,912.441405151931,nan,nan,nan,nan
1,5,1,1,1.0,1.0,0.36657944598800896,0,nan,nan,nan,nan,nan,nan,nan,nan,nan,1,5,3,4,2,6,nan,nan,nan,nan,nan,nan,nan,nan,nan,nan,nan,nan,0.0,nan,nan,nan,nan,nan,nan,nan,nan,nan,nan,nan,nan,nan,nan,nan,nan,nan,nan,908.1454844339884,913.2588541152899,nan,913.6254335612779,nan,nan,nan,nan
1,6,1,1,1.0,1.0,0.3413996780684556,0,nan,nan,nan,nan,nan,nan,nan,nan,nan,5,1,4,6,3,8,nan,nan,nan,nan,nan,nan,nan,nan,nan,nan,nan,nan,0.0,nan,nan,nan,nan,nan,nan,nan,nan,nan,nan,nan,nan,nan,nan,nan,nan,nan,nan,908.1454844339884,914.2839777190985,nan,914.625377397167,nan,nan,nan,nan
1,7,1,1,1.0,1.0,0.37224860003107096,0,nan,nan,nan,nan,nan,nan,nan,nan,nan,3,0,7,8,2,6,nan,nan,nan,nan,nan,nan,nan,nan,nan,nan,nan,nan,0.0,nan,nan,nan,nan,nan,nan,nan,nan,nan,nan,nan,nan,nan,nan,nan,nan,nan,nan,908.1454844339884,915.3091144373697,nan,915.6813630374007,nan,nan,nan,nan
1,8,1,1,1.0,1.0,0.3870702233850807,0,nan,nan,nan,nan,nan,nan,nan,nan,nan,7,5,1,3,6,0,nan,nan,nan,nan,nan,nan,nan,nan,nan,nan,nan,nan,0.0,nan,nan,nan,nan,nan,nan,nan,nan,nan,nan,nan,nan,nan,nan,nan,nan,nan,nan,908.1454844339884,916.3342460238945,nan,916.7213162472796,nan,nan,nan,nan
1,9,1,1,1.0,1.0,0.3459224570344759,1,nan,nan,nan,nan,nan,nan,nan,nan,nan,0,4,8,2,7,3,1.0,1.0,1.0,1.0,1.0,1.0,0.0,0.0,0.0,0.0,0.0,0.0,0.0,6.0,8.0,4.0,0.0,3.0,2.0,3.0,2.0,1.0,6.0,5.0,4.0,8.07749250337406,4.062864175793038,1.4873998525479237,13.98116307035798,12.261716774366732,11.221003780956607,908.1454844339884,917.3593838825537,918.1677978365698,917.7053063395882,933.1947406443991,934.202067922652,919.1762298657364,933.186407828992
1,10,1,1,1.0,1.0,0.5486609278539163,0,nan,nan,nan,nan,nan,nan,nan,nan,nan,2,3,7,6,1,0,nan,nan,nan,nan,nan,nan,nan,nan,nan,nan,nan,nan,0.0,nan,nan,nan,nan,nan,nan,nan,nan,nan,nan,nan,nan,nan,nan,nan,nan,nan,nan,908.1454844339884,934.4282687370031,nan,934.976929664857,nan,nan,nan,nan
1,11,1,1,1.0,1.0,0.40352231653878334,0,nan,nan,nan,nan,nan,nan,nan,nan,nan,0,1,2,3,5,4,nan,nan,nan,nan,nan,nan,nan,nan,nan,nan,nan,nan,0.0,nan,nan,nan,nan,nan,nan,nan,nan,nan,nan,nan,nan,nan,nan,nan,nan,nan,nan,908.1454844339884,935.4534017490131,nan,935.8569240655519,nan,nan,nan,nan
1,12,1,1,1.0,1.0,0.40237252029737647,0,nan,nan,nan,nan,nan,nan,nan,nan,nan,2,3,1,5,6,7,nan,nan,nan,nan,nan,nan,nan,nan,nan,nan,nan,nan,0.0,nan,nan,nan,nan,nan,nan,nan,nan,nan,nan,nan,nan,nan,nan,nan,nan,nan,nan,908.1454844339884,936.4785398927694,nan,936.8809124130668,nan,nan,nan,nan
1,13,1,1,1.0,1.0,0.32120283568906416,0,nan,nan,nan,nan,nan,nan,nan,nan,nan,6,1,2,3,7,0,nan,nan,nan,nan,nan,nan,nan,nan,nan,nan,nan,nan,0.0,nan,nan,nan,nan,nan,nan,nan,nan,nan,nan,nan,nan,nan,nan,nan,nan,nan,nan,908.1454844339884,937.5036746153613,nan,937.8248774510504,nan,nan,nan,nan
1,14,1,1,1.0,1.0,0.3040605226740354,0,nan,nan,nan,nan,nan,nan,nan,nan,nan,5,2,4,1,0,7,nan,nan,nan,nan,nan,nan,nan,nan,nan,nan,nan,nan,0.0,nan,nan,nan,nan,nan,nan,nan,nan,nan,nan,nan,nan,nan,nan,nan,nan,nan,nan,908.1454844339884,938.5288087677594,nan,938.8328692904335,nan,nan,nan,nan
1,15,0,0,0.0,1.0,0.39090135700485007,0,nan,nan,nan,nan,nan,nan,nan,nan,nan,7,3,6,4,2,5,nan,nan,nan,nan,nan,nan,nan,nan,nan,nan,nan,nan,0.0,nan,nan,nan,nan,nan,nan,nan,nan,nan,nan,nan,nan,nan,nan,nan,nan,nan,nan,908.1454844339884,939.5539412095753,nan,939.9448425665802,nan,nan,nan,nan
1,16,1,1,1.0,1.0,0.3417523430698566,1,nan,nan,nan,nan,nan,nan,nan,nan,nan,3,1,8,7,4,0,1.0,1.0,1.0,1.0,1.0,1.0,1.0,1.0,0.0,0.0,0.0,0.0,2.0,3.0,1.0,1.0,4.0,7.0,2.0,3.0,2.0,1.0,6.0,5.0,4.0,4.369934467601297,3.3931313858165595,1.0418069106374332,9.456665254486097,7.937061128790219,5.6572478217162825,908.1454844339884,940.5790722259063,941.3874881756016,940.9208245689762,951.8971860354924,952.9061052954488,942.4042858063314,951.8888549306672
1,17,1,1,1.0,1.0,0.317869481448497,0,nan,nan,nan,nan,nan,nan,nan,nan,nan,8,5,4,0,7,1,nan,nan,nan,nan,nan,nan,nan,nan,nan,nan,nan,nan,0.0,nan,nan,nan,nan,nan,nan,nan,nan,nan,nan,nan,nan,nan,nan,nan,nan,nan,nan,908.1454844339884,953.13070614538,nan,953.4485756268285,nan,nan,nan,nan
1,18,1,1,1.0,1.0,0.3807085687046765,0,nan,nan,nan,nan,nan,nan,nan,nan,nan,3,2,8,4,5,7,nan,nan,nan,nan,nan,nan,nan,nan,nan,nan,nan,nan,0.0,nan,nan,nan,nan,nan,nan,nan,nan,nan,nan,nan,nan,nan,nan,nan,nan,nan,nan,908.1454844339884,954.1558405828752,nan,954.5365491515798,nan,nan,nan,nan
1,19,1,1,1.0,1.0,0.2915618697575155,0,nan,nan,nan,nan,nan,nan,nan,nan,nan,7,4,1,0,2,5,nan,nan,nan,nan,nan,nan,nan,nan,nan,nan,nan,nan,0.0,nan,nan,nan,nan,nan,nan,nan,nan,nan,nan,nan,nan,nan,nan,nan,nan,nan,nan,908.1454844339884,955.1809664674598,nan,955.4725283372173,nan,nan,nan,nan
1,20,1,1,1.0,1.0,0.3065750783018757,0,nan,nan,nan,nan,nan,nan,nan,nan,nan,8,0,7,5,3,2,nan,nan,nan,nan,nan,nan,nan,nan,nan,nan,nan,nan,0.0,nan,nan,nan,nan,nan,nan,nan,nan,nan,nan,nan,nan,nan,nan,nan,nan,nan,nan,908.1454844339884,956.2060823736493,nan,956.5126574519512,nan,nan,nan,nan
1,21,1,1,1.0,1.0,0.2812436387728212,0,nan,nan,nan,nan,nan,nan,nan,nan,nan,2,5,6,7,4,0,nan,nan,nan,nan,nan,nan,nan,nan,nan,nan,nan,nan,0.0,nan,nan,nan,nan,nan,nan,nan,nan,nan,nan,nan,nan,nan,nan,nan,nan,nan,nan,908.1454844339884,957.2312387636142,nan,957.512482402387,nan,nan,nan,nan
1,22,1,1,1.0,1.0,0.3281215699266795,0,nan,nan,nan,nan,nan,nan,nan,nan,nan,6,0,7,8,1,2,nan,nan,nan,nan,nan,nan,nan,nan,nan,nan,nan,nan,0.0,nan,nan,nan,nan,nan,nan,nan,nan,nan,nan,nan,nan,nan,nan,nan,nan,nan,nan,908.1454844339884,958.2563426957291,nan,958.5844642656558,nan,nan,nan,nan
1,23,1,1,1.0,1.0,0.35093902402172716,0,nan,nan,nan,nan,nan,nan,nan,nan,nan,4,5,0,6,7,1,nan,nan,nan,nan,nan,nan,nan,nan,nan,nan,nan,nan,0.0,nan,nan,nan,nan,nan,nan,nan,nan,nan,nan,nan,nan,nan,nan,nan,nan,nan,nan,908.1454844339884,959.2815047876342,nan,959.6324438116559,nan,nan,nan,nan
1,24,1,1,1.0,1.0,0.32577265566146707,0,nan,nan,nan,nan,nan,nan,nan,nan,nan,6,1,8,7,0,4,nan,nan,nan,nan,nan,nan,nan,nan,nan,nan,nan,nan,0.0,nan,nan,nan,nan,nan,nan,nan,nan,nan,nan,nan,nan,nan,nan,nan,nan,nan,nan,908.1454844339884,960.3066449270694,nan,960.6324175827309,nan,nan,nan,nan
1,25,1,1,1.0,1.0,0.3406581407455178,0,nan,nan,nan,nan,nan,nan,nan,nan,nan,2,7,0,5,6,1,nan,nan,nan,nan,nan,nan,nan,nan,nan,nan,nan,nan,0.0,nan,nan,nan,nan,nan,nan,nan,nan,nan,nan,nan,nan,nan,nan,nan,nan,nan,nan,908.1454844339884,961.3317434423412,nan,961.6724015830868,nan,nan,nan,nan
1,26,1,1,1.0,1.0,0.3954620538731888,0,nan,nan,nan,nan,nan,nan,nan,nan,nan,1,0,5,4,8,3,nan,nan,nan,nan,nan,nan,nan,nan,nan,nan,nan,nan,0.0,nan,nan,nan,nan,nan,nan,nan,nan,nan,nan,nan,nan,nan,nan,nan,nan,nan,nan,908.1454844339884,962.3569126616713,nan,962.7523747155445,nan,nan,nan,nan
1,27,1,1,1.0,1.0,0.31432743619666326,0,nan,nan,nan,nan,nan,nan,nan,nan,nan,6,8,2,7,3,5,nan,nan,nan,nan,nan,nan,nan,nan,nan,nan,nan,nan,0.0,nan,nan,nan,nan,nan,nan,nan,nan,nan,nan,nan,nan,nan,nan,nan,nan,nan,nan,908.1454844339884,963.3820451034875,nan,963.6963725396841,nan,nan,nan,nan
1,28,1,1,1.0,1.0,0.28915650628437106,0,nan,nan,nan,nan,nan,nan,nan,nan,nan,7,6,8,1,5,3,nan,nan,nan,nan,nan,nan,nan,nan,nan,nan,nan,nan,0.0,nan,nan,nan,nan,nan,nan,nan,nan,nan,nan,nan,nan,nan,nan,nan,nan,nan,nan,908.1454844339884,964.4071741241393,nan,964.6963306304236,nan,nan,nan,nan
1,29,1,1,1.0,1.0,0.29602991009755897,0,nan,nan,nan,nan,nan,nan,nan,nan,nan,0,5,4,3,2,6,nan,nan,nan,nan,nan,nan,nan,nan,nan,nan,nan,nan,0.0,nan,nan,nan,nan,nan,nan,nan,nan,nan,nan,nan,nan,nan,nan,nan,nan,nan,nan,908.1454844339884,965.4323017193061,nan,965.7283316294037,nan,nan,nan,nan
1,30,1,1,1.0,1.0,0.3188559171030647,0,nan,nan,nan,nan,nan,nan,nan,nan,nan,6,1,3,8,0,7,nan,nan,nan,nan,nan,nan,nan,nan,nan,nan,nan,nan,0.0,nan,nan,nan,nan,nan,nan,nan,nan,nan,nan,nan,nan,nan,nan,nan,nan,nan,nan,908.1454844339884,966.4574424289352,nan,966.7762983460383,nan,nan,nan,nan
1,31,1,1,1.0,1.0,0.34971595784895726,0,nan,nan,nan,nan,nan,nan,nan,nan,nan,2,6,0,3,5,1,nan,nan,nan,nan,nan,nan,nan,nan,nan,nan,nan,nan,0.0,nan,nan,nan,nan,nan,nan,nan,nan,nan,nan,nan,nan,nan,nan,nan,nan,nan,nan,908.1454844339884,967.4825497822145,nan,967.8322657400635,nan,nan,nan,nan
1,32,1,1,1.0,1.0,0.32456070827220174,0,nan,nan,nan,nan,nan,nan,nan,nan,nan,6,2,3,8,7,0,nan,nan,nan,nan,nan,nan,nan,nan,nan,nan,nan,nan,0.0,nan,nan,nan,nan,nan,nan,nan,nan,nan,nan,nan,nan,nan,nan,nan,nan,nan,nan,908.1454844339884,968.5077036063061,nan,968.8322643145783,nan,nan,nan,nan
1,33,1,1,1.0,1.0,0.4113821560060842,0,nan,nan,nan,nan,nan,nan,nan,nan,nan,1,5,7,3,6,8,nan,nan,nan,nan,nan,nan,nan,nan,nan,nan,nan,nan,0.0,nan,nan,nan,nan,nan,nan,nan,nan,nan,nan,nan,nan,nan,nan,nan,nan,nan,nan,908.1454844339884,969.5328388990923,nan,969.9442210550984,nan,nan,nan,nan
1,34,1,1,1.0,1.0,0.5222455494929363,0,nan,nan,nan,nan,nan,nan,nan,nan,nan,5,2,1,8,7,4,nan,nan,nan,nan,nan,nan,nan,nan,nan,nan,nan,nan,0.0,nan,nan,nan,nan,nan,nan,nan,nan,nan,nan,nan,nan,nan,nan,nan,nan,nan,nan,908.1454844339884,970.5579687750352,nan,971.0802143245281,nan,nan,nan,nan
1,35,1,1,1.0,1.0,0.6410708471771613,0,nan,nan,nan,nan,nan,nan,nan,nan,nan,2,5,3,6,4,0,nan,nan,nan,nan,nan,nan,nan,nan,nan,nan,nan,nan,0.0,nan,nan,nan,nan,nan,nan,nan,nan,nan,nan,nan,nan,nan,nan,nan,nan,nan,nan,908.1454844339884,971.5831009317541,nan,972.2241717789312,nan,nan,nan,nan
1,36,1,1,1.0,1.0,0.7679398719001256,0,nan,nan,nan,nan,nan,nan,nan,nan,nan,8,1,7,0,6,5,nan,nan,nan,nan,nan,nan,nan,nan,nan,nan,nan,nan,0.0,nan,nan,nan,nan,nan,nan,nan,nan,nan,nan,nan,nan,nan,nan,nan,nan,nan,nan,908.1454844339884,972.6082442072565,nan,973.3761840791566,nan,nan,nan,nan
1,37,1,1,1.0,1.0,0.5987550383770213,0,nan,nan,nan,nan,nan,nan,nan,nan,nan,4,3,5,2,8,1,nan,nan,nan,nan,nan,nan,nan,nan,nan,nan,nan,nan,0.0,nan,nan,nan,nan,nan,nan,nan,nan,nan,nan,nan,nan,nan,nan,nan,nan,nan,nan,908.1454844339884,973.6333763639753,nan,974.2321314023524,nan,nan,nan,nan
1,38,1,1,1.0,1.0,0.46959326349974617,0,nan,nan,nan,nan,nan,nan,nan,nan,nan,3,8,0,1,7,4,nan,nan,nan,nan,nan,nan,nan,nan,nan,nan,nan,nan,0.0,nan,nan,nan,nan,nan,nan,nan,nan,nan,nan,nan,nan,nan,nan,nan,nan,nan,nan,908.1454844339884,974.6585093759853,nan,975.1281026394851,nan,nan,nan,nan
1,39,1,1,1.0,1.0,0.7404499629089969,0,nan,nan,nan,nan,nan,nan,nan,nan,nan,5,3,1,4,8,2,nan,nan,nan,nan,nan,nan,nan,nan,nan,nan,nan,nan,0.0,nan,nan,nan,nan,nan,nan,nan,nan,nan,nan,nan,nan,nan,nan,nan,nan,nan,nan,908.1454844339884,975.6836401072193,nan,976.4240900701283,nan,nan,nan,nan
1,40,1,1,1.0,1.0,0.5632952424721225,0,nan,nan,nan,nan,nan,nan,nan,nan,nan,0,2,8,7,1,4,nan,nan,nan,nan,nan,nan,nan,nan,nan,nan,nan,nan,0.0,nan,nan,nan,nan,nan,nan,nan,nan,nan,nan,nan,nan,nan,nan,nan,nan,nan,nan,908.1454844339884,976.7087722639384,nan,977.2720675064105,nan,nan,nan,nan
1,41,1,1,1.0,1.0,0.4101479710500371,0,nan,nan,nan,nan,nan,nan,nan,nan,nan,1,7,3,8,4,2,nan,nan,nan,nan,nan,nan,nan,nan,nan,nan,nan,nan,0.0,nan,nan,nan,nan,nan,nan,nan,nan,nan,nan,nan,nan,nan,nan,nan,nan,nan,nan,908.1454844339884,977.7339044206573,nan,978.1440523917073,nan,nan,nan,nan
1,42,1,1,1.0,1.0,0.3530062624408856,0,nan,nan,nan,nan,nan,nan,nan,nan,nan,2,8,4,5,0,3,nan,nan,nan,nan,nan,nan,nan,nan,nan,nan,nan,nan,0.0,nan,nan,nan,nan,nan,nan,nan,nan,nan,nan,nan,nan,nan,nan,nan,nan,nan,nan,908.1454844339884,978.7590314456301,nan,979.1120377080709,nan,nan,nan,nan
1,43,1,1,1.0,1.0,0.28783109028495346,0,nan,nan,nan,nan,nan,nan,nan,nan,nan,0,5,8,1,3,6,nan,nan,nan,nan,nan,nan,nan,nan,nan,nan,nan,nan,0.0,nan,nan,nan,nan,nan,nan,nan,nan,nan,nan,nan,nan,nan,nan,nan,nan,nan,nan,908.1454844339884,979.7841752913265,nan,980.0720063816115,nan,nan,nan,nan
1,44,1,1,1.0,1.0,0.2786934460189059,0,nan,nan,nan,nan,nan,nan,nan,nan,nan,4,3,1,5,2,7,nan,nan,nan,nan,nan,nan,nan,nan,nan,nan,nan,nan,0.0,nan,nan,nan,nan,nan,nan,nan,nan,nan,nan,nan,nan,nan,nan,nan,nan,nan,nan,908.1454844339884,980.8093068778513,nan,981.0880003238702,nan,nan,nan,nan
1,45,1,1,1.0,1.0,0.27753652235242043,0,nan,nan,nan,nan,nan,nan,nan,nan,nan,3,6,4,2,5,8,nan,nan,nan,nan,nan,nan,nan,nan,nan,nan,nan,nan,0.0,nan,nan,nan,nan,nan,nan,nan,nan,nan,nan,nan,nan,nan,nan,nan,nan,nan,nan,908.1454844339884,981.8344324773392,nan,982.1119689996916,nan,nan,nan,nan
1,46,1,1,1.0,1.0,0.2443817357732314,0,nan,nan,nan,nan,nan,nan,nan,nan,nan,8,2,3,0,7,1,nan,nan,nan,nan,nan,nan,nan,nan,nan,nan,nan,nan,0.0,nan,nan,nan,nan,nan,nan,nan,nan,nan,nan,nan,nan,nan,nan,nan,nan,nan,nan,908.1454844339884,982.8595726167742,nan,983.1039543525475,nan,nan,nan,nan
1,47,1,1,1.0,1.0,0.3552134834919798,0,nan,nan,nan,nan,nan,nan,nan,nan,nan,7,1,2,3,8,0,nan,nan,nan,nan,nan,nan,nan,nan,nan,nan,nan,nan,0.0,nan,nan,nan,nan,nan,nan,nan,nan,nan,nan,nan,nan,nan,nan,nan,nan,nan,nan,908.1454844339884,983.8847110456276,nan,984.2399245291195,nan,nan,nan,nan
1,48,1,1,1.0,1.0,0.2660545253731925,0,nan,nan,nan,nan,nan,nan,nan,nan,nan,0,2,8,6,5,4,nan,nan,nan,nan,nan,nan,nan,nan,nan,nan,nan,nan,0.0,nan,nan,nan,nan,nan,nan,nan,nan,nan,nan,nan,nan,nan,nan,nan,nan,nan,nan,908.1454844339884,984.9098420619586,nan,985.1758965873317,nan,nan,nan,nan
1,49,0,0,1.0,0.0,0.2889084718858612,0,nan,nan,0.0,nan,nan,nan,nan,nan,nan,3,6,0,2,8,5,nan,nan,nan,nan,nan,nan,nan,nan,nan,nan,nan,nan,0.0,nan,nan,nan,nan,nan,nan,nan,nan,nan,nan,nan,nan,nan,nan,nan,nan,nan,nan,908.1454844339884,985.9349824864906,nan,986.2238909583765,nan,nan,nan,nan
1,50,1,1,1.0,1.0,0.423694640575377,0,nan,nan,nan,nan,nan,nan,nan,nan,nan,4,7,6,1,0,8,nan,nan,nan,nan,nan,nan,nan,nan,nan,nan,nan,nan,0.0,nan,nan,nan,nan,nan,nan,nan,nan,nan,nan,nan,nan,nan,nan,nan,nan,nan,nan,908.1454844339884,986.9601491399479,nan,987.3838437805233,nan,nan,nan,nan
1,51,1,1,1.0,1.0,0.35062712789272155,0,nan,nan,nan,nan,nan,nan,nan,nan,nan,2,6,1,0,3,4,nan,nan,nan,nan,nan,nan,nan,nan,nan,nan,nan,nan,0.0,nan,nan,nan,nan,nan,nan,nan,nan,nan,nan,nan,nan,nan,nan,nan,nan,nan,nan,908.1454844339884,987.9852419532796,nan,988.3358690811723,nan,nan,nan,nan
1,52,1,1,1.0,1.0,0.3414344599036667,0,nan,nan,nan,nan,nan,nan,nan,nan,nan,4,0,3,5,6,7,nan,nan,nan,nan,nan,nan,nan,nan,nan,nan,nan,nan,0.0,nan,nan,nan,nan,nan,nan,nan,nan,nan,nan,nan,nan,nan,nan,nan,nan,nan,nan,908.1454844339884,989.0103766758715,nan,989.3518111357752,nan,nan,nan,nan
1,53,1,1,1.0,1.0,0.32429727863518565,0,nan,nan,nan,nan,nan,nan,nan,nan,nan,8,2,0,4,3,5,nan,nan,nan,nan,nan,nan,nan,nan,nan,nan,nan,nan,0.0,nan,nan,nan,nan,nan,nan,nan,nan,nan,nan,nan,nan,nan,nan,nan,nan,nan,nan,908.1454844339884,990.0355028455532,nan,990.3598001241884,nan,nan,nan,nan
1,54,1,1,1.0,1.0,0.29913832279726194,0,nan,nan,nan,nan,nan,nan,nan,nan,nan,0,1,6,7,2,8,nan,nan,nan,nan,nan,nan,nan,nan,nan,nan,nan,nan,0.0,nan,nan,nan,nan,nan,nan,nan,nan,nan,nan,nan,nan,nan,nan,nan,nan,nan,nan,908.1454844339884,991.0606398489214,nan,991.3597781717186,nan,nan,nan,nan
1,55,1,1,1.0,1.0,0.37002598374147055,1,nan,nan,nan,nan,nan,nan,nan,nan,nan,1,6,2,5,8,7,1.0,1.0,1.0,1.0,1.0,1.0,0.0,1.0,1.0,0.0,0.0,0.0,2.0,5.0,6.0,2.0,7.0,1.0,8.0,3.0,2.0,1.0,6.0,5.0,4.0,5.6298582668725885,2.0783403818818442,1.1186756217539369,16.164852784457025,11.828582856888715,6.6379544517612885,908.1454844339884,992.0857457767155,992.8941905212088,992.455771760457,1010.1130825886124,1011.124176568561,993.9109890072294,1010.1047543347576
1,56,0,0,0.0,1.0,0.5804173135991277,0,nan,nan,nan,nan,nan,nan,nan,nan,nan,6,7,8,0,3,2,nan,nan,nan,nan,nan,nan,nan,nan,nan,nan,nan,nan,0.0,nan,nan,nan,nan,nan,nan,nan,nan,nan,nan,nan,nan,nan,nan,nan,nan,nan,nan,908.1454844339884,1011.3549383648775,nan,1011.9353556784766,nan,nan,nan,nan
1,57,1,1,1.0,1.0,0.3873008668658713,1,nan,nan,nan,nan,nan,nan,nan,nan,nan,2,1,0,4,5,6,1.0,1.0,1.0,1.0,1.0,1.0,1.0,1.0,1.0,0.0,0.0,1.0,4.0,2.0,1.0,0.0,5.0,8.0,6.0,3.0,2.0,1.0,6.0,5.0,4.0,3.094764535528384,2.190901528063023,1.2559509724374038,8.637778261809217,5.1901437402104875,4.3829944765304845,908.1454844339884,1012.3800485691266,1013.1884887520677,1012.7673494359925,1022.8897087962122,1023.9003386382284,1014.2136323126671,1022.8813722745439
1,58,1,1,1.0,1.0,0.3318249800861395,0,nan,nan,nan,nan,nan,nan,nan,nan,nan,8,5,2,1,4,0,nan,nan,nan,nan,nan,nan,nan,nan,nan,nan,nan,nan,0.0,nan,nan,nan,nan,nan,nan,nan,nan,nan,nan,nan,nan,nan,nan,nan,nan,nan,nan,908.1454844339884,1024.123266538905,nan,1024.4550915189911,nan,nan,nan,nan
1,59,1,1,1.0,1.0,0.31467183338486393,0,nan,nan,nan,nan,nan,nan,nan,nan,nan,0,8,6,4,5,3,nan,nan,nan,nan,nan,nan,nan,nan,nan,nan,nan,nan,0.0,nan,nan,nan,nan,nan,nan,nan,nan,nan,nan,nan,nan,nan,nan,nan,nan,nan,nan,908.1454844339884,1025.148402972079,nan,1025.463074805464,nan,nan,nan,nan
1,60,1,1,1.0,1.0,0.30555243532717213,0,nan,nan,nan,nan,nan,nan,nan,nan,nan,6,3,7,0,8,5,nan,nan,nan,nan,nan,nan,nan,nan,nan,nan,nan,nan,0.0,nan,nan,nan,nan,nan,nan,nan,nan,nan,nan,nan,nan,nan,nan,nan,nan,nan,nan,908.1454844339884,1026.1735117508433,nan,1026.4790641861705,nan,nan,nan,nan
1,61,1,1,1.0,1.0,0.3363491845370845,0,nan,nan,nan,nan,nan,nan,nan,nan,nan,5,6,1,4,0,3,nan,nan,nan,nan,nan,nan,nan,nan,nan,nan,nan,nan,0.0,nan,nan,nan,nan,nan,nan,nan,nan,nan,nan,nan,nan,nan,nan,nan,nan,nan,nan,908.1454844339884,1027.1986744129424,nan,1027.5350235974795,nan,nan,nan,nan
1,62,0,0,0.0,1.0,0.44721827996431784,0,nan,nan,nan,nan,nan,nan,nan,nan,nan,7,0,6,2,8,4,nan,nan,nan,nan,nan,nan,nan,nan,nan,nan,nan,nan,0.0,nan,nan,nan,nan,nan,nan,nan,nan,nan,nan,nan,nan,nan,nan,nan,nan,nan,nan,908.1454844339884,1028.223796876363,nan,1028.6710151563273,nan,nan,nan,nan
1,63,1,1,1.0,1.0,0.5740493867849636,0,nan,nan,nan,nan,nan,nan,nan,nan,nan,5,3,2,4,1,6,nan,nan,nan,nan,nan,nan,nan,nan,nan,nan,nan,nan,0.0,nan,nan,nan,nan,nan,nan,nan,nan,nan,nan,nan,nan,nan,nan,nan,nan,nan,nan,908.1454844339884,1029.2489398667683,nan,1029.8229892535533,nan,nan,nan,nan
1,64,1,1,1.0,1.0,0.572912705006047,0,nan,nan,nan,nan,nan,nan,nan,nan,nan,8,2,0,7,3,1,nan,nan,nan,nan,nan,nan,nan,nan,nan,nan,nan,nan,0.0,nan,nan,nan,nan,nan,nan,nan,nan,nan,nan,nan,nan,nan,nan,nan,nan,nan,nan,908.1454844339884,1030.274062045092,nan,1030.846974750098,nan,nan,nan,nan
1,65,0,0,0.0,1.0,0.49966900237131995,0,nan,nan,nan,nan,nan,nan,nan,nan,nan,4,7,5,3,0,6,nan,nan,nan,nan,nan,nan,nan,nan,nan,nan,nan,nan,0.0,nan,nan,nan,nan,nan,nan,nan,nan,nan,nan,nan,nan,nan,nan,nan,nan,nan,nan,908.1454844339884,1031.2992914198915,nan,1031.7989604222628,nan,nan,nan,nan
1,66,1,1,1.0,1.0,0.5146294679689163,0,nan,nan,nan,nan,nan,nan,nan,nan,nan,7,4,3,5,1,8,nan,nan,nan,nan,nan,nan,nan,nan,nan,nan,nan,nan,0.0,nan,nan,nan,nan,nan,nan,nan,nan,nan,nan,nan,nan,nan,nan,nan,nan,nan,nan,908.1454844339884,1032.3243166652317,nan,1032.8389461332006,nan,nan,nan,nan
1,67,0,0,0.0,1.0,0.48941235234110536,0,nan,nan,nan,nan,nan,nan,nan,nan,nan,5,6,4,0,7,2,nan,nan,nan,nan,nan,nan,nan,nan,nan,nan,nan,nan,0.0,nan,nan,nan,nan,nan,nan,nan,nan,nan,nan,nan,nan,nan,nan,nan,nan,nan,nan,908.1454844339884,1033.3494773316515,nan,1033.8388896839926,nan,nan,nan,nan
1,68,1,1,1.0,1.0,0.496270360915787,0,nan,nan,nan,nan,nan,nan,nan,nan,nan,8,5,7,6,3,4,nan,nan,nan,nan,nan,nan,nan,nan,nan,nan,nan,nan,0.0,nan,nan,nan,nan,nan,nan,nan,nan,nan,nan,nan,nan,nan,nan,nan,nan,nan,nan,908.1454844339884,1034.3746174710868,nan,1034.8708878320026,nan,nan,nan,nan
1,69,1,1,1.0,1.0,0.6471111975270105,0,nan,nan,nan,nan,nan,nan,nan,nan,nan,7,3,6,8,5,0,nan,nan,nan,nan,nan,nan,nan,nan,nan,nan,nan,nan,0.0,nan,nan,nan,nan,nan,nan,nan,nan,nan,nan,nan,nan,nan,nan,nan,nan,nan,nan,908.1454844339884,1035.3997419301866,nan,1036.0468531277136,nan,nan,nan,nan
1,70,1,1,1.0,1.0,0.6139735167685103,0,nan,nan,nan,nan,nan,nan,nan,nan,nan,5,0,4,3,7,8,nan,nan,nan,nan,nan,nan,nan,nan,nan,nan,nan,nan,0.0,nan,nan,nan,nan,nan,nan,nan,nan,nan,nan,nan,nan,nan,nan,nan,nan,nan,nan,908.1454844339884,1036.4248632532192,nan,1037.0388367699877,nan,nan,nan,nan
1,71,1,1,1.0,1.0,0.5408076456176332,0,nan,nan,nan,nan,nan,nan,nan,nan,nan,3,2,6,7,8,0,nan,nan,nan,nan,nan,nan,nan,nan,nan,nan,nan,nan,0.0,nan,nan,nan,nan,nan,nan,nan,nan,nan,nan,nan,nan,nan,nan,nan,nan,nan,nan,908.1454844339884,1037.4500048181394,nan,1037.990812463757,nan,nan,nan,nan
1,72,0,0,0.0,1.0,0.5716636950053271,0,nan,nan,nan,nan,nan,nan,nan,nan,nan,8,0,3,5,7,1,nan,nan,nan,nan,nan,nan,nan,nan,nan,nan,nan,nan,0.0,nan,nan,nan,nan,nan,nan,nan,nan,nan,nan,nan,nan,nan,nan,nan,nan,nan,nan,908.1454844339884,1038.4751392556345,nan,1039.0468029506399,nan,nan,nan,nan
1,73,1,1,1.0,1.0,0.5065064839614024,0,nan,nan,nan,nan,nan,nan,nan,nan,nan,2,8,1,7,6,4,nan,nan,nan,nan,nan,nan,nan,nan,nan,nan,nan,nan,0.0,nan,nan,nan,nan,nan,nan,nan,nan,nan,nan,nan,nan,nan,nan,nan,nan,nan,nan,908.1454844339884,1039.5002671358982,nan,1040.0067736198596,nan,nan,nan,nan
1,74,1,1,1.0,1.0,0.5613568679013952,0,nan,nan,nan,nan,nan,nan,nan,nan,nan,7,1,0,3,2,8,nan,nan,nan,nan,nan,nan,nan,nan,nan,nan,nan,nan,0.0,nan,nan,nan,nan,nan,nan,nan,nan,nan,nan,nan,nan,nan,nan,nan,nan,nan,nan,908.1454844339884,1040.5254055647515,nan,1041.086762432653,nan,nan,nan,nan
1,75,1,1,1.0,1.0,0.5281906774418985,0,nan,nan,nan,nan,nan,nan,nan,nan,nan,2,4,7,1,8,6,nan,nan,nan,nan,nan,nan,nan,nan,nan,nan,nan,nan,0.0,nan,nan,nan,nan,nan,nan,nan,nan,nan,nan,nan,nan,nan,nan,nan,nan,nan,nan,908.1454844339884,1041.5505434234105,nan,1042.0787341008524,nan,nan,nan,nan
1,76,1,1,1.0,1.0,0.7350502255403626,0,nan,nan,nan,nan,nan,nan,nan,nan,nan,7,2,5,6,1,0,nan,nan,nan,nan,nan,nan,nan,nan,nan,nan,nan,nan,0.0,nan,nan,nan,nan,nan,nan,nan,nan,nan,nan,nan,nan,nan,nan,nan,nan,nan,nan,908.1454844339884,1042.5756770056146,nan,1043.310727231155,nan,nan,nan,nan
1,77,1,1,1.0,1.0,0.5979177084586809,0,nan,nan,nan,nan,nan,nan,nan,nan,nan,8,7,4,1,6,5,nan,nan,nan,nan,nan,nan,nan,nan,nan,nan,nan,nan,0.0,nan,nan,nan,nan,nan,nan,nan,nan,nan,nan,nan,nan,nan,nan,nan,nan,nan,nan,908.1454844339884,1043.6007849290877,nan,1044.1987026375464,nan,nan,nan,nan
1,78,1,1,1.0,1.0,0.452744030211079,0,nan,nan,nan,nan,nan,nan,nan,nan,nan,7,1,8,6,2,4,nan,nan,nan,nan,nan,nan,nan,nan,nan,nan,nan,nan,0.0,nan,nan,nan,nan,nan,nan,nan,nan,nan,nan,nan,nan,nan,nan,nan,nan,nan,nan,908.1454844339884,1044.6259384680825,nan,1045.0786824982936,nan,nan,nan,nan
1,79,1,1,1.0,1.0,0.45958208199499495,0,nan,nan,nan,nan,nan,nan,nan,nan,nan,3,2,4,5,7,0,nan,nan,nan,nan,nan,nan,nan,nan,nan,nan,nan,nan,0.0,nan,nan,nan,nan,nan,nan,nan,nan,nan,nan,nan,nan,nan,nan,nan,nan,nan,nan,908.1454844339884,1045.6510743310625,nan,1046.1106564130575,nan,nan,nan,nan
1,80,1,1,1.0,1.0,0.3864338868586401,0,nan,nan,nan,nan,nan,nan,nan,nan,nan,0,4,7,8,6,1,nan,nan,nan,nan,nan,nan,nan,nan,nan,nan,nan,nan,0.0,nan,nan,nan,nan,nan,nan,nan,nan,nan,nan,nan,nan,nan,nan,nan,nan,nan,nan,908.1454844339884,1046.6762047771995,nan,1047.062638664058,nan,nan,nan,nan
1,81,0,0,0.0,1.0,0.49728245530104687,0,0.0,0.0,0.0,0.41325358979900384,0.1248949940312841,0.2883585957677197,0.538148583830288,0.1248949940312841,0.44776614138489396,8,0,6,7,1,4,nan,nan,nan,nan,nan,nan,nan,nan,nan,nan,nan,nan,0.0,nan,nan,nan,nan,nan,nan,nan,nan,nan,nan,nan,nan,nan,nan,nan,nan,nan,nan,908.1454844339884,1047.7013309468812,nan,1048.1986134021822,nan,nan,nan,nan
1,82,1,1,1.0,1.0,0.5601047218337953,0,0.0,0.0,0.0,0.41429098320026364,0.12446797604763335,0.2898230071526303,0.538758959247897,0.12446797604763335,0.48127368799782744,0,8,3,1,5,7,nan,nan,nan,nan,nan,nan,nan,nan,nan,nan,nan,nan,0.0,nan,nan,nan,nan,nan,nan,nan,nan,nan,nan,nan,nan,nan,nan,nan,nan,nan,nan,908.1454844339884,1048.7264765031596,nan,1049.2865812249934,nan,nan,nan,nan
1,83,1,1,1.0,1.0,0.45495951907560084,0,0.0,0.0,0.0,0.4160691995250628,0.12473761730307664,0.2913315822219862,0.5408068168281395,0.12473761730307664,0.504115565403481,4,0,1,5,6,8,nan,nan,nan,nan,nan,nan,nan,nan,nan,nan,nan,nan,0.0,nan,nan,nan,nan,nan,nan,nan,nan,nan,nan,nan,nan,nan,nan,nan,nan,nan,nan,908.1454844339884,1049.7516080896846,nan,1050.2065676087602,nan,nan,nan,nan
1,84,1,1,1.0,1.0,0.40581050514060735,0,0.0,0.0,0.0,0.4165377575919368,0.12405648900626441,0.29248126858567236,0.5405942465982012,0.12405648900626441,0.4736249153500012,8,7,2,3,0,4,nan,nan,nan,nan,nan,nan,nan,nan,nan,nan,nan,nan,0.0,nan,nan,nan,nan,nan,nan,nan,nan,nan,nan,nan,nan,nan,nan,nan,nan,nan,nan,908.1454844339884,1050.7767373954334,nan,1051.182547900574,nan,nan,nan,nan
1,85,1,1,1.0,1.0,0.47667108186897167,0,0.0,0.0,0.0,0.41641005220561145,0.12332133493322352,0.29308871727238794,0.539731387138835,0.12332133493322352,0.44581370202839327,5,1,7,0,3,8,nan,nan,nan,nan,nan,nan,nan,nan,nan,nan,nan,nan,0.0,nan,nan,nan,nan,nan,nan,nan,nan,nan,nan,nan,nan,nan,nan,nan,nan,nan,nan,908.1454844339884,1051.8018675564733,nan,1052.2785386383423,nan,nan,nan,nan
1,86,1,1,1.0,1.0,0.4035009342628655,0,0.0,0.0,0.0,0.4171190054957686,0.12276584158070876,0.29435316391505983,0.5398848470764773,0.12276584158070876,0.42866084042414815,7,2,4,8,0,6,nan,nan,nan,nan,nan,nan,nan,nan,nan,nan,nan,nan,0.0,nan,nan,nan,nan,nan,nan,nan,nan,nan,nan,nan,nan,nan,nan,nan,nan,nan,nan,908.1454844339884,1052.8270088362967,nan,1053.2305097705596,nan,nan,nan,nan
1,87,1,1,1.0,1.0,0.370352990011952,0,0.0,0.0,0.0,0.4169606558302697,0.12205873078648011,0.2949019250437896,0.5390193866167499,0.12205873078648011,0.4168416687145964,2,7,8,3,6,4,nan,nan,nan,nan,nan,nan,nan,nan,nan,nan,nan,nan,0.0,nan,nan,nan,nan,nan,nan,nan,nan,nan,nan,nan,nan,nan,nan,nan,nan,nan,nan,908.1454844339884,1053.8521364314634,nan,1054.2224894214753,nan,nan,nan,nan
1,88,1,1,1.0,1.0,0.40120647352659944,0,0.0,0.0,0.0,0.41642493553350746,0.12145686568443796,0.2949680698490695,0.5378818012179454,0.12145686568443796,0.39168679926713895,6,3,4,2,8,5,nan,nan,nan,nan,nan,nan,nan,nan,nan,nan,nan,nan,0.0,nan,nan,nan,nan,nan,nan,nan,nan,nan,nan,nan,nan,nan,nan,nan,nan,nan,nan,908.1454844339884,1054.8772628862423,nan,1055.278469359769,nan,nan,nan,nan
1,89,1,1,1.0,1.0,0.3760532196290569,0,0.0,0.0,0.0,0.41625199846524713,0.1207755703705823,0.29547642809466484,0.5370275688358295,0.1207755703705823,0.38253756105586945,8,4,0,5,7,1,nan,nan,nan,nan,nan,nan,nan,nan,nan,nan,nan,nan,0.0,nan,nan,nan,nan,nan,nan,nan,nan,nan,nan,nan,nan,nan,nan,nan,nan,nan,nan,908.1454844339884,1055.9023976088342,nan,1056.2784508284633,nan,nan,nan,nan
1,90,1,1,1.0,1.0,0.4468798698133014,0,0.0,0.0,0.0,0.4158003267929304,0.12016985938096933,0.2956304674119611,0.5359701861738997,0.12016985938096933,0.4080465209896526,3,6,8,4,1,5,nan,nan,nan,nan,nan,nan,nan,nan,nan,nan,nan,nan,0.0,nan,nan,nan,nan,nan,nan,nan,nan,nan,nan,nan,nan,nan,nan,nan,nan,nan,nan,908.1454844339884,1056.9275425949186,nan,1057.3744224647319,nan,nan,nan,nan
1,91,1,1,1.0,1.0,0.5417393426459967,0,0.0,0.0,0.0,0.4161456550487123,0.11954478331357697,0.29660087173513533,0.5356904383622892,0.11954478331357697,0.4548908106961183,5,4,1,6,8,3,nan,nan,nan,nan,nan,nan,nan,nan,nan,nan,nan,nan,0.0,nan,nan,nan,nan,nan,nan,nan,nan,nan,nan,nan,nan,nan,nan,nan,nan,nan,nan,908.1454844339884,1057.9526724708617,nan,1058.4944118135077,nan,nan,nan,nan
1,92,1,1,1.0,1.0,0.46059560186540693,0,0.0,0.0,0.0,0.41752580546186924,0.11960495440501606,0.2979208510568532,0.5371307598668853,0.11960495440501606,0.4830716047749017,0,6,8,4,5,1,nan,nan,nan,nan,nan,nan,nan,nan,nan,nan,nan,nan,0.0,nan,nan,nan,nan,nan,nan,nan,nan,nan,nan,nan,nan,nan,nan,nan,nan,nan,nan,908.1454844339884,1058.977788947245,nan,1059.4383845491104,nan,nan,nan,nan
1,93,1,1,1.0,1.0,0.31541337070780173,0,0.0,0.0,0.0,0.4179939554227773,0.11903695306762038,0.2989570023551569,0.5370309084903977,0.11903695306762038,0.4392494384064018,1,5,7,6,3,8,nan,nan,nan,nan,nan,nan,nan,nan,nan,nan,nan,nan,0.0,nan,nan,nan,nan,nan,nan,nan,nan,nan,nan,nan,nan,nan,nan,nan,nan,nan,nan,908.1454844339884,1060.0029430564337,nan,1060.3183564271415,nan,nan,nan,nan
1,94,1,1,1.0,1.0,0.4182940479156514,0,0.0,0.0,0.0,0.4168909383828313,0.11886700249433294,0.2980239358884984,0.5357579408771642,0.11886700249433294,0.39810100682962,6,2,4,0,1,7,nan,nan,nan,nan,nan,nan,nan,nan,nan,nan,nan,nan,0.0,nan,nan,nan,nan,nan,nan,nan,nan,nan,nan,nan,nan,nan,nan,nan,nan,nan,nan,908.1454844339884,1061.0280469885488,nan,1061.4463410364644,nan,nan,nan,nan
1,95,0,0,0.0,1.0,0.4651200914133824,0,0.0,0.0,0.0,0.41690586507998895,0.11823312825512967,0.2986727368248593,0.5351389933351186,0.11823312825512967,0.3996091700122785,3,1,2,4,5,0,nan,nan,nan,nan,nan,nan,nan,nan,nan,nan,nan,nan,0.0,nan,nan,nan,nan,nan,nan,nan,nan,nan,nan,nan,nan,nan,nan,nan,nan,nan,nan,908.1454844339884,1062.0531959659913,nan,1062.5183160574047,nan,nan,nan,nan
1,96,1,1,1.0,1.0,0.4799856197068948,0,0.0,0.0,0.0,0.4174133832519194,0.11771209158577726,0.2997012916661421,0.5351254748376967,0.11771209158577726,0.4544665863453095,0,4,7,5,8,3,nan,nan,nan,nan,nan,nan,nan,nan,nan,nan,nan,nan,0.0,nan,nan,nan,nan,nan,nan,nan,nan,nan,nan,nan,nan,nan,nan,nan,nan,nan,nan,908.1454844339884,1063.0783152933448,nan,1063.5583009130517,nan,nan,nan,nan
1,97,1,1,1.0,1.0,0.42280171674019584,0,0.0,0.0,0.0,0.41806517738165877,0.11726960872728813,0.3007955686543706,0.5353347861089469,0.11726960872728813,0.4559691426201577,2,5,0,4,7,6,nan,nan,nan,nan,nan,nan,nan,nan,nan,nan,nan,nan,0.0,nan,nan,nan,nan,nan,nan,nan,nan,nan,nan,nan,nan,nan,nan,nan,nan,nan,nan,908.1454844339884,1064.1034705429215,nan,1064.5262722596617,nan,nan,nan,nan
1,98,1,1,1.0,1.0,0.39765502007367104,0,0.0,0.0,0.0,0.4181140076843241,0.11666454121232428,0.3014494664719998,0.5347785488966483,0.11666454121232428,0.43348078550692054,6,1,3,0,8,5,nan,nan,nan,nan,nan,nan,nan,nan,nan,nan,nan,nan,0.0,nan,nan,nan,nan,nan,nan,nan,nan,nan,nan,nan,nan,nan,nan,nan,nan,nan,nan,908.1454844339884,1065.1286069760956,nan,1065.5262619961693,nan,nan,nan,nan
1,99,1,1,1.0,1.0,0.37249064739262394,0,0.0,0.0,0.0,0.4179052425046235,0.11608599781746926,0.30181924468715426,0.5339912403220928,0.11608599781746926,0.3976491280688303,7,0,8,6,5,1,nan,nan,nan,nan,nan,nan,nan,nan,nan,nan,nan,nan,0.0,nan,nan,nan,nan,nan,nan,nan,nan,nan,nan,nan,nan,nan,nan,nan,nan,nan,nan,908.1454844339884,1066.1537462602398,nan,1066.5262369076324,nan,nan,nan,nan
1,100,1,1,1.0,1.0,0.32335104165895245,0,0.0,0.0,0.0,0.41744650922066395,0.11558745971144835,0.3018590495092156,0.5330339689321123,0.11558745971144835,0.36449890304174914,2,8,3,4,7,0,nan,nan,nan,nan,nan,nan,nan,nan,nan,nan,nan,nan,0.0,nan,nan,nan,nan,nan,nan,nan,nan,nan,nan,nan,nan,nan,nan,nan,nan,nan,nan,908.1454844339884,1067.1788641621083,nan,1067.5022152037673,nan,nan,nan,nan
1,101,1,1,1.0,1.0,0.3462203834099,0,0.0,0.0,0.0,0.41650555454504684,0.11538851939675474,0.30111703514829213,0.5318940739418015,0.11538851939675474,0.3473540241538255,4,6,8,0,2,3,nan,nan,nan,nan,nan,nan,nan,nan,nan,nan,nan,nan,0.0,nan,nan,nan,nan,nan,nan,nan,nan,nan,nan,nan,nan,nan,nan,nan,nan,nan,nan,908.1454844339884,1068.2039698048054,nan,1068.5501901882153,nan,nan,nan,nan
1,102,1,1,1.0,1.0,0.3690344163408099,0,0.0,0.0,0.0,0.4158096617615305,0.11502656323415815,0.30078309852737234,0.5308362249956886,0.11502656323415815,0.3462019471365541,7,2,1,5,4,8,nan,nan,nan,nan,nan,nan,nan,nan,nan,nan,nan,nan,0.0,nan,nan,nan,nan,nan,nan,nan,nan,nan,nan,nan,nan,nan,nan,nan,nan,nan,nan,908.1454844339884,1069.2291321818075,nan,1069.5981665981483,nan,nan,nan,nan
1,103,1,1,1.0,1.0,0.351868440274302,0,0.0,0.0,0.0,0.41535108092407247,0.1145540632939009,0.3007970176301716,0.5299051442179734,0.1145540632939009,0.355707746675004,0,7,8,6,2,3,nan,nan,nan,nan,nan,nan,nan,nan,nan,nan,nan,nan,0.0,nan,nan,nan,nan,nan,nan,nan,nan,nan,nan,nan,nan,nan,nan,nan,nan,nan,nan,908.1454844339884,1070.2542700404665,nan,1070.6061384807408,nan,nan,nan,nan
1,104,1,1,1.0,1.0,0.3890487966341425,0,0.0,0.0,0.0,0.4147347446070844,0.11416643988355223,0.3005683047235322,0.5289011844906366,0.11416643988355223,0.3699838844164181,4,3,2,0,1,8,nan,nan,nan,nan,nan,nan,nan,nan,nan,nan,nan,nan,0.0,nan,nan,nan,nan,nan,nan,nan,nan,nan,nan,nan,nan,nan,nan,nan,nan,nan,nan,908.1454844339884,1071.28107514644,nan,1071.670123943074,nan,nan,nan,nan
1,105,1,1,1.0,1.0,0.4215455793143974,0,0.0,0.0,0.0,0.41448776433811385,0.11364388336599734,0.3008438809721165,0.5281316477041111,0.11364388336599734,0.38748760540761396,1,8,4,2,0,7,nan,nan,nan,nan,nan,nan,nan,nan,nan,nan,nan,nan,0.0,nan,nan,nan,nan,nan,nan,nan,nan,nan,nan,nan,nan,nan,nan,nan,nan,nan,nan,908.1454844339884,1072.3045554510832,nan,1072.7261010303976,nan,nan,nan,nan
1,106,1,1,1.0,1.0,0.4204185908340605,0,0.0,0.0,0.0,0.4145549816236022,0.11310350463609423,0.30145147698750796,0.5276584862596965,0.11310350463609423,0.41033765559420016,5,0,7,1,6,3,nan,nan,nan,nan,nan,nan,nan,nan,nan,nan,nan,nan,0.0,nan,nan,nan,nan,nan,nan,nan,nan,nan,nan,nan,nan,nan,nan,nan,nan,nan,nan,908.1454844339884,1073.3296702168846,nan,1073.7500888077186,nan,nan,nan,nan
1,107,1,1,1.0,1.0,0.4192898917715411,0,0.0,0.0,0.0,0.4146102986916254,0.11257016040560547,0.30204013828601994,0.5271804590972309,0.11257016040560547,0.42041802063999967,2,1,0,8,3,6,nan,nan,nan,nan,nan,nan,nan,nan,nan,nan,nan,nan,0.0,nan,nan,nan,nan,nan,nan,nan,nan,nan,nan,nan,nan,nan,nan,nan,nan,nan,nan,908.1454844339884,1074.3547807062307,nan,1074.7740705980023,nan,nan,nan,nan
1,108,1,1,1.0,1.0,0.3540976137951475,0,0.0,0.0,0.0,0.414654033206391,0.11204380157295868,0.3026102316334323,0.5266978347793496,0.11204380157295868,0.3979353654669164,3,5,6,7,2,4,nan,nan,nan,nan,nan,nan,nan,nan,nan,nan,nan,nan,0.0,nan,nan,nan,nan,nan,nan,nan,nan,nan,nan,nan,nan,nan,nan,nan,nan,nan,nan,908.1454844339884,1075.3799427981357,nan,1075.734040411931,nan,nan,nan,nan
1,109,1,1,1.0,1.0,0.4409789319013271,0,0.0,0.0,0.0,0.41409332561924983,0.11167459204365428,0.30241873357559557,0.5257679176629041,0.11167459204365428,0.40478881248933857,8,4,2,1,6,0,nan,nan,nan,nan,nan,nan,nan,nan,nan,nan,nan,nan,0.0,nan,nan,nan,nan,nan,nan,nan,nan,nan,nan,nan,nan,nan,nan,nan,nan,nan,nan,908.1454844339884,1076.405051291803,nan,1076.8460302237042,nan,nan,nan,nan
1,110,1,1,1.0,1.0,0.4077924995538069,0,0.0,0.0,0.0,0.41433998255761756,0.11119069375537682,0.30314928880224074,0.5255306763129943,0.11119069375537682,0.4009563484167605,1,5,4,6,2,7,nan,nan,nan,nan,nan,nan,nan,nan,nan,nan,nan,nan,0.0,nan,nan,nan,nan,nan,nan,nan,nan,nan,nan,nan,nan,nan,nan,nan,nan,nan,nan,908.1454844339884,1077.430209107253,nan,1077.8380016068068,nan,nan,nan,nan
1,111,1,1,1.0,1.0,0.3426449818080073,0,0.0,0.0,0.0,0.41428045998485563,0.11068587209638361,0.30359458788847205,0.5249663320812392,0.11068587209638361,0.3971388044210471,7,8,6,0,3,5,nan,nan,nan,nan,nan,nan,nan,nan,nan,nan,nan,nan,0.0,nan,nan,nan,nan,nan,nan,nan,nan,nan,nan,nan,nan,nan,nan,nan,nan,nan,nan,908.1454844339884,1078.4553335663525,nan,1078.7979785481605,nan,nan,nan,nan
1,112,1,1,1.0,1.0,0.2934854192835701,0,0.0,0.0,0.0,0.4136350953165957,0.11039385924779692,0.30324123606879877,0.5240289545643926,0.11039385924779692,0.3479743002151281,5,1,0,3,4,2,nan,nan,nan,nan,nan,nan,nan,nan,nan,nan,nan,nan,0.0,nan,nan,nan,nan,nan,nan,nan,nan,nan,nan,nan,nan,nan,nan,nan,nan,nan,nan,908.1454844339884,1079.4804742759818,nan,1079.7739596952654,nan,nan,nan,nan
1,113,1,1,1.0,1.0,0.39632504252222134,0,0.0,0.0,0.0,0.4125623303520151,0.11047956800459487,0.30208276234742026,0.52304189835661,0.11047956800459487,0.3441518145379329,4,6,2,5,8,1,nan,nan,nan,nan,nan,nan,nan,nan,nan,nan,nan,nan,0.0,nan,nan,nan,nan,nan,nan,nan,nan,nan,nan,nan,nan,nan,nan,nan,nan,nan,nan,908.1454844339884,1080.5056072879918,nan,1080.901932330514,nan,nan,nan,nan
1,114,0,0,0.0,1.0,0.5631752166309525,0,0.0,0.0,0.0,0.4124186375393621,0.11000014603129817,0.30241849150806394,0.5224187835706603,0.11000014603129817,0.41766189281224797,1,3,4,2,5,0,nan,nan,nan,nan,nan,nan,nan,nan,nan,nan,nan,nan,0.0,nan,nan,nan,nan,nan,nan,nan,nan,nan,nan,nan,nan,nan,nan,nan,nan,nan,nan,908.1454844339884,1081.5307371639346,nan,1082.0939123805656,nan,nan,nan,nan
1,115,1,1,1.0,1.0,0.3940231692638463,0,0.0,0.0,0.0,0.41374106367174446,0.11041515803166899,0.30332590564007544,0.5241562217034135,0.11041515803166899,0.4511744761390067,0,8,6,3,4,5,nan,nan,nan,nan,nan,nan,nan,nan,nan,nan,nan,nan,0.0,nan,nan,nan,nan,nan,nan,nan,nan,nan,nan,nan,nan,nan,nan,nan,nan,nan,nan,908.1454844339884,1082.5558764480788,nan,1082.9498996173427,nan,nan,nan,nan
1,116,1,1,1.0,1.0,0.3448473562100389,0,0.0,0.0,0.0,0.41356960372037144,0.10994928580232388,0.30362031791804756,0.5235188895226953,0.10994928580232388,0.43401524736827923,7,4,2,6,8,1,nan,nan,nan,nan,nan,nan,nan,nan,nan,nan,nan,nan,0.0,nan,nan,nan,nan,nan,nan,nan,nan,nan,nan,nan,nan,nan,nan,nan,nan,nan,nan,908.1454844339884,1083.5810254255214,nan,1083.9258727817314,nan,nan,nan,nan
1,117,1,1,1.0,1.0,0.4157079329381759,0,0.0,0.0,0.0,0.4129771705521789,0.10965853193117181,0.3033186386210071,0.5226357024833508,0.10965853193117181,0.3848594861373537,6,1,0,5,7,4,nan,nan,nan,nan,nan,nan,nan,nan,nan,nan,nan,nan,0.0,nan,nan,nan,nan,nan,nan,nan,nan,nan,nan,nan,nan,nan,nan,nan,nan,nan,nan,908.1454844339884,1084.6061390509349,nan,1085.021846983873,nan,nan,nan,nan
1,118,1,1,1.0,1.0,0.3825959109105952,0,0.0,0.0,0.0,0.4130005104016319,0.10918918945042624,0.30381132095120567,0.5221896998520581,0.10918918945042624,0.38105040001960333,3,8,1,2,0,7,nan,nan,nan,nan,nan,nan,nan,nan,nan,nan,nan,nan,0.0,nan,nan,nan,nan,nan,nan,nan,nan,nan,nan,nan,nan,nan,nan,nan,nan,nan,nan,908.1454844339884,1085.6312358556245,nan,1086.013831766535,nan,nan,nan,nan
1,119,1,1,1.0,1.0,0.46141867693313543,0,0.0,0.0,0.0,0.41274284430425023,0.10876125538084777,0.30398158892340243,0.521504099685098,0.10876125538084777,0.41990750692730217,7,5,8,4,6,3,nan,nan,nan,nan,nan,nan,nan,nan,nan,nan,nan,nan,0.0,nan,nan,nan,nan,nan,nan,nan,nan,nan,nan,nan,nan,nan,nan,nan,nan,nan,nan,908.1454844339884,1086.6564010835966,nan,1087.1178197605298,nan,nan,nan,nan
1,120,1,1,1.0,1.0,0.4842589387890257,0,0.0,0.0,0.0,0.413151884914577,0.10839442005499367,0.3047574648595833,0.5215463049695707,0.10839442005499367,0.4427578422109188,5,1,7,3,0,4,nan,nan,nan,nan,nan,nan,nan,nan,nan,nan,nan,nan,0.0,nan,nan,nan,nan,nan,nan,nan,nan,nan,nan,nan,nan,nan,nan,nan,nan,nan,nan,908.1454844339884,1087.6815375167707,nan,1088.1657964555598,nan,nan,nan,nan
1,121,1,1,1.0,1.0,0.5070923583168678,0,0.0,0.0,0.0,0.4137444436968641,0.10813520717098414,0.30560923652587996,0.5218796508678483,0.10813520717098414,0.48425665801300966,1,2,0,8,7,3,nan,nan,nan,nan,nan,nan,nan,nan,nan,nan,nan,nan,0.0,nan,nan,nan,nan,nan,nan,nan,nan,nan,nan,nan,nan,nan,nan,nan,nan,nan,nan,908.1454844339884,1088.706682217758,nan,1089.213774576075,nan,nan,nan,nan
1,122,1,1,1.0,1.0,0.4659502939066442,0,0.0,0.0,0.0,0.41451591406562444,0.10801853918026257,0.3064973748853619,0.522534453245887,0.10801853918026257,0.48576719700417925,6,3,5,1,4,8,nan,nan,nan,nan,nan,nan,nan,nan,nan,nan,nan,nan,0.0,nan,nan,nan,nan,nan,nan,nan,nan,nan,nan,nan,nan,nan,nan,nan,nan,nan,nan,908.1454844339884,1089.7318032556936,nan,1090.1977535496003,nan,nan,nan,nan
1,123,1,1,1.0,1.0,0.4647805408744716,0,0.0,0.0,0.0,0.4149375073430098,0.10767484418773438,0.30726266315527545,0.5226123515307441,0.10767484418773438,0.4792743976993279,5,2,8,4,7,1,nan,nan,nan,nan,nan,nan,nan,nan,nan,nan,nan,nan,0.0,nan,nan,nan,nan,nan,nan,nan,nan,nan,nan,nan,nan,nan,nan,nan,nan,nan,nan,908.1454844339884,1090.7569354124128,nan,1091.2217159532872,nan,nan,nan,nan
1,124,1,1,1.0,1.0,0.46362561288719917,0,0.0,0.0,0.0,0.4153427352578998,0.10732961626323069,0.3080131189946691,0.5226723515211305,0.10732961626323069,0.464785482556105,6,1,4,7,3,8,nan,nan,nan,nan,nan,nan,nan,nan,nan,nan,nan,nan,0.0,nan,nan,nan,nan,nan,nan,nan,nan,nan,nan,nan,nan,nan,nan,nan,nan,nan,nan,908.1454844339884,1091.78207441146,nan,1092.2457000243471,nan,nan,nan,nan
1,125,0,0,0.0,1.0,0.6064700485633239,0,0.0,0.0,0.0,0.41573211330329735,0.1069831520812886,0.30874896122200873,0.5227152653845859,0.1069831520812886,0.5116254007749982,1,4,6,2,8,3,nan,nan,nan,nan,nan,nan,nan,nan,nan,nan,nan,nan,0.0,nan,nan,nan,nan,nan,nan,nan,nan,nan,nan,nan,nan,nan,nan,nan,nan,nan,nan,908.1454844339884,1092.8072045724998,nan,1093.4136746210631,nan,nan,nan,nan
1,126,1,1,1.0,1.0,0.41332309645008536,0,0.0,0.0,0.0,0.41725801678537755,0.10790065323600029,0.30935736354937726,0.5251586700213778,0.10790065323600029,0.4944729193002028,2,3,8,1,6,7,nan,nan,nan,nan,nan,nan,nan,nan,nan,nan,nan,nan,0.0,nan,nan,nan,nan,nan,nan,nan,nan,nan,nan,nan,nan,nan,nan,nan,nan,nan,nan,908.1454844339884,1093.8323372994128,nan,1094.2456603958628,nan,nan,nan,nan
1,127,1,1,1.0,1.0,0.38818694837300427,0,0.0,0.0,0.0,0.417226787258907,0.10747219026802377,0.30975459699088326,0.5246989775269307,0.10747219026802377,0.46932669779547115,7,5,2,4,1,0,nan,nan,nan,nan,nan,nan,nan,nan,nan,nan,nan,nan,0.0,nan,nan,nan,nan,nan,nan,nan,nan,nan,nan,nan,nan,nan,nan,nan,nan,nan,nan,908.1454844339884,1094.8574674604527,nan,1095.2456544088257,nan,nan,nan,nan
1,128,1,1,1.0,1.0,0.3230163377693316,0,0.0,0.0,0.0,0.41699812711019907,0.10707900180852693,0.30991912530167215,0.524077128918726,0.10707900180852693,0.3748421275308071,1,3,0,7,8,5,nan,nan,nan,nan,nan,nan,nan,nan,nan,nan,nan,nan,0.0,nan,nan,nan,nan,nan,nan,nan,nan,nan,nan,nan,nan,nan,nan,nan,nan,nan,nan,908.1454844339884,1095.8826064594998,nan,1096.2056227972691,nan,nan,nan,nan
1,129,1,1,1.0,1.0,0.3218616948788622,0,0.0,0.0,0.0,0.41626389438097355,0.10698037480718796,0.3092835195737856,0.5232442691881615,0.10698037480718796,0.3443549936737327,4,5,7,8,3,6,nan,nan,nan,nan,nan,nan,nan,nan,nan,nan,nan,nan,0.0,nan,nan,nan,nan,nan,nan,nan,nan,nan,nan,nan,nan,nan,nan,nan,nan,nan,nan,908.1454844339884,1096.907740896995,nan,1097.2296025918738,nan,nan,nan,nan
1,130,0,0,0.0,1.0,0.4646941564806184,0,0.0,0.0,0.0,0.41553209438483313,0.10688605712362405,0.3086460372612091,0.5224181515084572,0.10688605712362405,0.36985739637627074,5,7,1,6,0,3,nan,nan,nan,nan,nan,nan,nan,nan,nan,nan,nan,nan,0.0,nan,nan,nan,nan,nan,nan,nan,nan,nan,nan,nan,nan,nan,nan,nan,nan,nan,nan,908.1454844339884,1097.93287248352,nan,1098.3975666400006,nan,nan,nan,nan
1,131,1,1,1.0,1.0,0.3755474575334574,0,0.0,0.0,0.0,0.41591026409326226,0.10656076217192084,0.3093495019213414,0.522471026265183,0.10656076217192084,0.38736776963097935,7,1,5,2,3,4,nan,nan,nan,nan,nan,nan,nan,nan,nan,nan,nan,nan,0.0,nan,nan,nan,nan,nan,nan,nan,nan,nan,nan,nan,nan,nan,nan,nan,nan,nan,nan,908.1454844339884,1098.9580063508208,nan,1099.3335538083543,nan,nan,nan,nan
1,132,1,1,1.0,1.0,0.4464086044556552,0,0.0,0.0,0.0,0.41560215106608817,0.10621137661181486,0.3093907744542733,0.521813527677903,0.10621137661181486,0.428883406156577,8,6,4,1,7,2,nan,nan,nan,nan,nan,nan,nan,nan,nan,nan,nan,nan,0.0,nan,nan,nan,nan,nan,nan,nan,nan,nan,nan,nan,nan,nan,nan,nan,nan,nan,nan,908.1454844339884,1099.9831453498682,nan,1100.4295539543239,nan,nan,nan,nan
1,133,1,1,1.0,1.0,0.5172392459983257,0,0.0,0.0,0.0,0.4158355332887364,0.10584200819534278,0.3099935250933936,0.5216775414840792,0.10584200819534278,0.4463984359958128,2,7,6,4,5,0,nan,nan,nan,nan,nan,nan,nan,nan,nan,nan,nan,nan,0.0,nan,nan,nan,nan,nan,nan,nan,nan,nan,nan,nan,nan,nan,nan,nan,nan,nan,nan,908.1454844339884,1101.0082672430947,nan,1101.525506489093,nan,nan,nan,nan
1,134,1,1,1.0,1.0,0.40410248895409495,0,0.0,0.0,0.0,0.4165979672188837,0.10580658519398203,0.31079138202490164,0.5224045524128658,0.10580658519398203,0.45591677980269196,6,2,1,0,3,4,nan,nan,nan,nan,nan,nan,nan,nan,nan,nan,nan,nan,0.0,nan,nan,nan,nan,nan,nan,nan,nan,nan,nan,nan,nan,nan,nan,nan,nan,nan,nan,908.1454844339884,1102.0334002551047,nan,1102.4375027440587,nan,nan,nan,nan
1,135,1,1,nan,nan,nan,0,0.0,0.0,0.0,0.4165047173810868,0.10541653072598207,0.31108818665510474,0.5219212481070689,0.10541653072598207,0.46067086747621033,2,3,0,4,7,1,nan,nan,nan,nan,nan,nan,nan,nan,nan,nan,nan,nan,0.0,nan,nan,nan,nan,nan,nan,nan,nan,nan,nan,nan,nan,nan,nan,nan,nan,nan,nan,908.1454844339884,1103.0585455262863,nan,nan,nan,nan,nan,nan
1,136,1,1,1.0,1.0,0.529773536041148,0,0.0,0.0,0.0,0.4165047173810868,0.10541653072598207,0.31108818665510474,0.5219212481070689,0.10541653072598207,0.46693801249762146,1,5,8,0,6,3,nan,nan,nan,nan,nan,nan,nan,nan,nan,nan,nan,nan,0.0,nan,nan,nan,nan,nan,nan,nan,nan,nan,nan,nan,nan,nan,nan,nan,nan,nan,nan,908.1454844339884,1104.0836645685426,nan,1104.6134381045838,nan,nan,nan,nan
1,137,1,1,1.0,1.0,0.5766457652543977,0,0.0,0.0,0.0,0.41734374566745763,0.10547350774547813,0.3118702379219795,0.5228172534129357,0.10547350774547813,0.5532096506477728,3,4,7,5,1,6,nan,nan,nan,nan,nan,nan,nan,nan,nan,nan,nan,nan,0.0,nan,nan,nan,nan,nan,nan,nan,nan,nan,nan,nan,nan,nan,nan,nan,nan,nan,nan,908.1454844339884,1105.108808414239,nan,1105.6854541794935,nan,nan,nan,nan
1,138,1,1,1.0,1.0,0.45550034810344187,0,0.0,0.0,0.0,0.41851508404677334,0.10596266510070883,0.3125524189460645,0.5244777491474821,0.10596266510070883,0.5206398831329958,6,1,5,2,0,4,nan,nan,nan,nan,nan,nan,nan,nan,nan,nan,nan,nan,0.0,nan,nan,nan,nan,nan,nan,nan,nan,nan,nan,nan,nan,nan,nan,nan,nan,nan,nan,908.1454844339884,1106.1339166228092,nan,1106.5894169709127,nan,nan,nan,nan
1,139,1,1,1.0,1.0,0.4943131699424157,0,0.0,0.0,0.0,0.4187850494778439,0.10562216349641554,0.3131628859814284,0.5244072129742594,0.10562216349641554,0.5088197611000851,8,3,7,4,6,1,nan,nan,nan,nan,nan,nan,nan,nan,nan,nan,nan,nan,0.0,nan,nan,nan,nan,nan,nan,nan,nan,nan,nan,nan,nan,nan,nan,nan,nan,nan,nan,908.1454844339884,1107.159076148841,nan,1107.6533893187834,nan,nan,nan,nan
1,140,1,1,1.0,1.0,0.46883576074424127,0,0.0,0.0,0.0,0.4193323546986017,0.10543357118790969,0.313898783510692,0.5247659258865114,0.10543357118790969,0.47288309293003294,1,6,5,0,4,3,nan,nan,nan,nan,nan,nan,nan,nan,nan,nan,nan,nan,0.0,nan,nan,nan,nan,nan,nan,nan,nan,nan,nan,nan,nan,nan,nan,nan,nan,nan,nan,908.1454844339884,1108.192539410385,nan,1108.6613751711293,nan,nan,nan,nan
1,141,1,1,1.0,1.0,0.43567356164271587,0,0.0,0.0,0.0,0.4196884943104408,0.1051369025939693,0.3145515917164715,0.5248253969044101,0.1051369025939693,0.46627416410979095,7,8,6,5,0,2,nan,nan,nan,nan,nan,nan,nan,nan,nan,nan,nan,nan,0.0,nan,nan,nan,nan,nan,nan,nan,nan,nan,nan,nan,nan,nan,nan,nan,nan,nan,nan,908.1454844339884,1109.217667575746,nan,1109.6533411373887,nan,nan,nan,nan
1,142,1,1,1.0,1.0,0.46655127840358546,0,0.0,0.0,0.0,0.4198026733628142,0.10476938924262773,0.31503328412018644,0.5245720626054419,0.10476938924262773,0.4570202002635142,3,4,2,1,7,8,nan,nan,nan,nan,nan,nan,nan,nan,nan,nan,nan,nan,0.0,nan,nan,nan,nan,nan,nan,nan,nan,nan,nan,nan,nan,nan,nan,nan,nan,nan,nan,908.1454844339884,1110.242775214122,nan,1110.7093264925256,nan,nan,nan,nan
1,143,1,1,1.0,1.0,0.36132995474372365,0,0.0,0.0,0.0,0.4201342237531743,0.10447088642850641,0.3156633373246679,0.5246051101816807,0.10447088642850641,0.42118493159667497,8,1,7,2,5,0,nan,nan,nan,nan,nan,nan,nan,nan,nan,nan,nan,nan,0.0,nan,nan,nan,nan,nan,nan,nan,nan,nan,nan,nan,nan,nan,nan,nan,nan,nan,nan,908.1454844339884,1111.2679749388324,nan,1111.629304893576,nan,nan,nan,nan
1,144,1,1,1.0,1.0,0.3362214610765477,0,0.0,0.0,0.0,0.4197201091826852,0.10421845326120371,0.3155016559214815,0.5239385624438889,0.10421845326120371,0.3880342314079523,0,4,3,6,7,8,nan,nan,nan,nan,nan,nan,nan,nan,nan,nan,nan,nan,0.0,nan,nan,nan,nan,nan,nan,nan,nan,nan,nan,nan,nan,nan,nan,nan,nan,nan,nan,908.1454844339884,1112.2930774454624,nan,1112.629298906539,nan,nan,nan,nan
1,145,1,1,1.0,1.0,0.3670595493529163,0,0.0,0.0,0.0,0.41913620255257233,0.10408624318269008,0.3150499593698822,0.5232224457352624,0.10408624318269008,0.35487032172439587,4,7,1,8,2,5,nan,nan,nan,nan,nan,nan,nan,nan,nan,nan,nan,nan,0.0,nan,nan,nan,nan,nan,nan,nan,nan,nan,nan,nan,nan,nan,nan,nan,nan,nan,nan,908.1454844339884,1113.318203330047,nan,1113.6852628794,nan,nan,nan,nan
1,146,1,1,1.0,1.0,0.36591117859688893,0,0.0,0.0,0.0,0.4187745591275747,0.10381431826533168,0.31496024086224306,0.5225888773929064,0.10381431826533168,0.35639739634211764,0,8,2,7,4,3,nan,nan,nan,nan,nan,nan,nan,nan,nan,nan,nan,nan,0.0,nan,nan,nan,nan,nan,nan,nan,nan,nan,nan,nan,nan,nan,nan,nan,nan,nan,nan,908.1454844339884,1114.343341473803,nan,1114.7092526524,nan,nan,nan,nan
1,147,1,1,1.0,1.0,0.42874855527088584,0,0.0,0.0,0.0,0.4184099840894321,0.10354817935112079,0.31486180473831127,0.5219581634405529,0.10354817935112079,0.38723976107356367,3,0,4,1,5,2,nan,nan,nan,nan,nan,nan,nan,nan,nan,nan,nan,nan,0.0,nan,nan,nan,nan,nan,nan,nan,nan,nan,nan,nan,nan,nan,nan,nan,nan,nan,nan,908.1454844339884,1115.3684733454252,nan,1115.797221900696,nan,nan,nan,nan
1,148,1,1,1.0,1.0,0.4116632616580773,0,0.0,0.0,0.0,0.4184807962208119,0.1031964758531669,0.31528432036764503,0.5216772720739788,0.1031964758531669,0.402107665175284,4,6,5,0,1,8,nan,nan,nan,nan,nan,nan,nan,nan,nan,nan,nan,nan,0.0,nan,nan,nan,nan,nan,nan,nan,nan,nan,nan,nan,nan,nan,nan,nan,nan,nan,nan,908.1454844339884,1116.393605502144,nan,1116.8052687638021,nan,nan,nan,nan
1,149,1,1,1.0,1.0,0.36245352205992276,0,0.0,0.0,0.0,0.41843441843467083,0.102846395151384,0.31558802328328683,0.5212808135860548,0.102846395151384,0.4009551129962953,0,5,3,4,8,6,nan,nan,nan,nan,nan,nan,nan,nan,nan,nan,nan,nan,0.0,nan,nan,nan,nan,nan,nan,nan,nan,nan,nan,nan,nan,nan,nan,nan,nan,nan,nan,908.1454844339884,1117.418731386729,nan,1117.7811849087889,nan,nan,nan,nan
1,150,1,1,1.0,1.0,0.33728800899075395,0,0.0,0.0,0.0,0.41805616913484145,0.10260089603628385,0.3154552730985576,0.5206570651711253,0.10260089603628385,0.37046826423625134,7,2,1,8,0,5,nan,nan,nan,nan,nan,nan,nan,nan,nan,nan,nan,nan,0.0,nan,nan,nan,nan,nan,nan,nan,nan,nan,nan,nan,nan,nan,nan,nan,nan,nan,nan,908.1454844339884,1118.4438854959176,nan,1118.7811735049083,nan,nan,nan,nan
1,151,1,1,1.0,1.0,0.2881224594291325,0,0.0,0.0,0.0,0.417514100945955,0.10246844026251717,0.3150456606834378,0.5199825412084722,0.10246844026251717,0.3292879968266031,0,5,6,2,1,7,nan,nan,nan,nan,nan,nan,nan,nan,nan,nan,nan,nan,0.0,nan,nan,nan,nan,nan,nan,nan,nan,nan,nan,nan,nan,nan,nan,nan,nan,nan,nan,908.1454844339884,1119.4690108103084,nan,1119.7571332697376,nan,nan,nan,nan
1,152,1,1,1.0,1.0,0.33496960010575094,0,0.0,0.0,0.0,0.4166514900025095,0.10266768360341304,0.31398380639909645,0.5193191736059225,0.10266768360341304,0.3201266895085458,2,7,5,4,6,8,nan,nan,nan,nan,nan,nan,nan,nan,nan,nan,nan,nan,0.0,nan,nan,nan,nan,nan,nan,nan,nan,nan,nan,nan,nan,nan,nan,nan,nan,nan,nan,908.1454844339884,1120.4941461030944,nan,1120.8291157032002,nan,nan,nan,nan
1,153,1,1,1.0,1.0,0.43781349979963124,0,0.0,0.0,0.0,0.41611055033431904,0.10254140609762767,0.31356914423669136,0.5186519564319467,0.10254140609762767,0.3536351864448382,1,4,7,8,5,0,nan,nan,nan,nan,nan,nan,nan,nan,nan,nan,nan,nan,0.0,nan,nan,nan,nan,nan,nan,nan,nan,nan,nan,nan,nan,nan,nan,nan,nan,nan,nan,908.1454844339884,1121.5192734131642,nan,1121.9570869129639,nan,nan,nan,nan
1,154,1,1,1.0,1.0,0.4926687303889139,0,0.0,0.0,0.0,0.41625333289659083,0.1022186013381766,0.3140347315584142,0.5184719342347675,0.1022186013381766,0.4218172767647654,3,0,2,7,6,8,nan,nan,nan,nan,nan,nan,nan,nan,nan,nan,nan,nan,0.0,nan,nan,nan,nan,nan,nan,nan,nan,nan,nan,nan,nan,nan,nan,nan,nan,nan,nan,908.1454844339884,1122.5444098463383,nan,1123.0370785767273,nan,nan,nan,nan
1,155,0,0,0.0,1.0,0.5235128057024667,0,0.0,0.0,0.0,0.4167527799390243,0.10206991072631318,0.31468286921271116,0.5188226906653375,0.10206991072631318,0.4846650119636706,5,8,3,1,2,4,nan,nan,nan,nan,nan,nan,nan,nan,nan,nan,nan,nan,0.0,nan,nan,nan,nan,nan,nan,nan,nan,nan,nan,nan,nan,nan,nan,nan,nan,nan,nan,908.1454844339884,1123.5695368713111,nan,1124.0930496770136,nan,nan,nan,nan
1,156,1,1,1.0,1.0,0.34635580448957626,0,0.0,0.0,0.0,0.41744602685956617,0.10209870744124325,0.31534731941832295,0.5195447343008094,0.10209870744124325,0.45417911352698564,7,3,4,6,0,2,nan,nan,nan,nan,nan,nan,nan,nan,nan,nan,nan,nan,0.0,nan,nan,nan,nan,nan,nan,nan,nan,nan,nan,nan,nan,nan,nan,nan,nan,nan,nan,908.1454844339884,1124.5946721640971,nan,1124.9410279685867,nan,nan,nan,nan
1,157,1,1,1.0,1.0,0.3452017317931677,0,0.0,0.0,0.0,0.41698738026363075,0.10192785898729323,0.3150595212763375,0.518915239250924,0.10192785898729323,0.40502344732840356,3,7,6,5,4,1,nan,nan,nan,nan,nan,nan,nan,nan,nan,nan,nan,nan,0.0,nan,nan,nan,nan,nan,nan,nan,nan,nan,nan,nan,nan,nan,nan,nan,nan,nan,nan,908.1454844339884,1125.6198077419804,nan,1125.9650094737735,nan,nan,nan,nan
1,158,1,1,1.0,1.0,0.36003276334827206,0,0.0,0.0,0.0,0.4165272158503585,0.10176203557540543,0.3147651802749531,0.518289251425764,0.10176203557540543,0.35053009987700534,4,3,8,2,7,0,nan,nan,nan,nan,nan,nan,nan,nan,nan,nan,nan,nan,0.0,nan,nan,nan,nan,nan,nan,nan,nan,nan,nan,nan,nan,nan,nan,nan,nan,nan,nan,908.1454844339884,1126.6449433198634,nan,1127.0049760832117,nan,nan,nan,nan
1,159,1,1,1.0,1.0,0.36688649546772467,0,0.0,0.0,0.0,0.4161673785732752,0.1015369515847286,0.3146304269885466,0.5177043301580038,0.1015369515847286,0.35737366353638816,2,8,0,5,1,6,nan,nan,nan,nan,nan,nan,nan,nan,nan,nan,nan,nan,0.0,nan,nan,nan,nan,nan,nan,nan,nan,nan,nan,nan,nan,nan,nan,nan,nan,nan,nan,908.1454844339884,1127.6700709150302,nan,1128.036957410498,nan,nan,nan,nan
1,160,1,1,1.0,1.0,0.31772978391359175,0,0.0,0.0,0.0,0.41585547424982233,0.1012905453385484,0.31456492891127397,0.5171460195883707,0.1012905453385484,0.3482163475765295,8,1,5,7,0,2,nan,nan,nan,nan,nan,nan,nan,nan,nan,nan,nan,nan,0.0,nan,nan,nan,nan,nan,nan,nan,nan,nan,nan,nan,nan,nan,nan,nan,nan,nan,nan,908.1454844339884,1128.6952099140774,nan,1129.012939697991,nan,nan,nan,nan
1,161,1,1,1.0,1.0,0.4205714028312286,0,0.0,0.0,0.0,0.41523833154330514,0.1012690692158959,0.31396926232740924,0.516507400759201,0.1012690692158959,0.36839589407084833,4,5,0,6,7,3,nan,nan,nan,nan,nan,nan,nan,nan,nan,nan,nan,nan,0.0,nan,nan,nan,nan,nan,nan,nan,nan,nan,nan,nan,nan,nan,nan,nan,nan,nan,nan,908.1454844339884,1129.7203437813785,nan,1130.1409151842097,nan,nan,nan,nan
1,162,1,1,1.0,1.0,0.4114152272593401,0,0.0,0.0,0.0,0.41527166323885467,0.10095298225801162,0.31431868098084303,0.5162246454968663,0.10095298225801162,0.3832388046680535,1,3,7,0,8,5,nan,nan,nan,nan,nan,nan,nan,nan,nan,nan,nan,nan,0.0,nan,nan,nan,nan,nan,nan,nan,nan,nan,nan,nan,nan,nan,nan,nan,nan,nan,nan,908.1454844339884,1130.7454793592615,nan,1131.1568945865208,nan,nan,nan,nan
1,163,0,0,0.0,1.0,0.4742708501423749,0,0.0,0.0,0.0,0.41524771022034834,0.10063943141407285,0.3146082788062755,0.5158871416344212,0.10063943141407285,0.43541916007764786,3,7,5,8,4,2,nan,nan,nan,nan,nan,nan,nan,nan,nan,nan,nan,nan,0.0,nan,nan,nan,nan,nan,nan,nan,nan,nan,nan,nan,nan,nan,nan,nan,nan,nan,nan,908.1454844339884,1131.7706115159804,nan,1132.2448823661227,nan,nan,nan,nan
1,164,1,1,1.0,1.0,0.36111841276215273,0,0.0,0.0,0.0,0.4156120505902374,0.10043478771625317,0.3151772628739843,0.5160468383064906,0.10043478771625317,0.41560149672128927,0,6,4,3,8,7,nan,nan,nan,nan,nan,nan,nan,nan,nan,nan,nan,nan,0.0,nan,nan,nan,nan,nan,nan,nan,nan,nan,nan,nan,nan,nan,nan,nan,nan,nan,nan,908.1454844339884,1132.7957470938636,nan,1133.1568655066258,nan,nan,nan,nan
1,165,1,1,1.0,1.0,0.4639614571651691,0,0.0,0.0,0.0,0.4152777337937461,0.1002166085010239,0.31506112529272223,0.51549434229477,0.1002166085010239,0.43311690668989894,6,8,7,5,2,0,nan,nan,nan,nan,nan,nan,nan,nan,nan,nan,nan,nan,0.0,nan,nan,nan,nan,nan,nan,nan,nan,nan,nan,nan,nan,nan,nan,nan,nan,nan,nan,908.1454844339884,1133.82086613612,nan,1134.2848275932852,nan,nan,nan,nan
1,166,1,1,1.0,1.0,0.5348180425353348,0,0.0,0.0,0.0,0.4155745857655231,0.09998245998710471,0.3155921257784184,0.5155570457526278,0.09998245998710471,0.4532993041542189,0,5,1,2,8,4,nan,nan,nan,nan,nan,nan,nan,nan,nan,nan,nan,nan,0.0,nan,nan,nan,nan,nan,nan,nan,nan,nan,nan,nan,nan,nan,nan,nan,nan,nan,nan,908.1454844339884,1134.846000003421,nan,1135.3808180459564,nan,nan,nan,nan
1,167,1,1,1.0,1.0,0.4056559825612567,0,0.0,0.0,0.0,0.4162972733823098,0.10010774693011024,0.31618952645219955,0.5164050203124201,0.10010774693011024,0.4681451607539202,6,7,5,0,4,1,nan,nan,nan,nan,nan,nan,nan,nan,nan,nan,nan,nan,0.0,nan,nan,nan,nan,nan,nan,nan,nan,nan,nan,nan,nan,nan,nan,nan,nan,nan,nan,908.1454844339884,1135.8711418534383,nan,1136.2767978359996,nan,nan,nan,nan
1,168,0,0,0.0,1.0,0.5164994192573431,0,0.0,0.0,0.0,0.4162331692207372,0.0998091588369303,0.3164240103838069,0.5160423280576675,0.0998091588369303,0.48565781478464487,4,1,6,5,8,7,nan,nan,nan,nan,nan,nan,nan,nan,nan,nan,nan,nan,0.0,nan,nan,nan,nan,nan,nan,nan,nan,nan,nan,nan,nan,nan,nan,nan,nan,nan,nan,908.1454844339884,1136.8962777164186,nan,1137.412777135676,nan,nan,nan,nan
1,169,1,1,1.0,1.0,0.45133935724311414,0,0.0,0.0,0.0,0.4168335659275432,0.09981009634571057,0.31702346958183264,0.5166436622732538,0.09981009634571057,0.45783158635390464,1,3,4,7,2,5,nan,nan,nan,nan,nan,nan,nan,nan,nan,nan,nan,nan,0.0,nan,nan,nan,nan,nan,nan,nan,nan,nan,nan,nan,nan,nan,nan,nan,nan,nan,nan,908.1454844339884,1137.9214135793986,nan,1138.3727529366417,nan,nan,nan,nan
1,170,0,0,0.0,1.0,0.5862073487746784,0,0.0,0.0,0.0,0.41703895754251685,0.09954799042984643,0.31749096711267044,0.5165869479723633,0.09954799042984643,0.5180153750917119,5,8,7,4,1,2,nan,nan,nan,nan,nan,nan,nan,nan,nan,nan,nan,nan,0.0,nan,nan,nan,nan,nan,nan,nan,nan,nan,nan,nan,nan,nan,nan,nan,nan,nan,nan,908.1454844339884,1138.9465163711254,nan,1139.5327237199,nan,nan,nan,nan
1,171,1,1,1.0,1.0,0.4090603259571708,0,0.0,0.0,0.0,0.4180399539403403,0.10009744987294038,0.31794250406739993,0.5181374038132807,0.10009744987294038,0.48220234399165446,0,7,3,5,6,8,nan,nan,nan,nan,nan,nan,nan,nan,nan,nan,nan,nan,0.0,nan,nan,nan,nan,nan,nan,nan,nan,nan,nan,nan,nan,nan,nan,nan,nan,nan,nan,908.1454844339884,1139.9716721908962,nan,1140.3807325168534,nan,nan,nan,nan
1,172,1,1,1.0,1.0,0.4238956339672768,0,0.0,0.0,0.0,0.41798713259926285,0.09980497364751642,0.3181821589517464,0.5177921062467793,0.09980497364751642,0.473054436233042,3,0,4,1,5,6,nan,nan,nan,nan,nan,nan,nan,nan,nan,nan,nan,nan,0.0,nan,nan,nan,nan,nan,nan,nan,nan,nan,nan,nan,nan,nan,nan,nan,nan,nan,nan,908.1454844339884,1140.9968077687795,nan,1141.4207034027468,nan,nan,nan,nan
1,173,1,1,1.0,1.0,0.5107293408727855,0,0.0,0.0,0.0,0.41802168523884187,0.09951373810494485,0.318507947133897,0.5175354233437868,0.09951373810494485,0.44789510026574436,7,5,6,4,8,1,nan,nan,nan,nan,nan,nan,nan,nan,nan,nan,nan,nan,0.0,nan,nan,nan,nan,nan,nan,nan,nan,nan,nan,nan,nan,nan,nan,nan,nan,nan,nan,908.1454844339884,1142.0219439168566,nan,1142.5326732577294,nan,nan,nan,nan
1,174,1,1,1.0,1.0,0.477567711965321,0,0.0,0.0,0.0,0.41856068323671364,0.09947405342481747,0.31908662981189617,0.5180347366615311,0.09947405342481747,0.47073089560179443,0,2,7,3,6,5,nan,nan,nan,nan,nan,nan,nan,nan,nan,nan,nan,nan,0.0,nan,nan,nan,nan,nan,nan,nan,nan,nan,nan,nan,nan,nan,nan,nan,nan,nan,nan,908.1454844339884,1143.0470763586725,nan,1143.5246440706378,nan,nan,nan,nan
1,175,1,1,1.0,1.0,0.5084200550920741,0,0.0,0.0,0.0,0.41890176432763043,0.09928695842727608,0.31961480590035435,0.5181887227549065,0.09928695842727608,0.49890570264339357,5,6,0,1,7,2,nan,nan,nan,nan,nan,nan,nan,nan,nan,nan,nan,nan,0.0,nan,nan,nan,nan,nan,nan,nan,nan,nan,nan,nan,nan,nan,nan,nan,nan,nan,nan,908.1454844339884,1144.0722133620407,nan,1144.5806334171327,nan,nan,nan,nan
1,176,1,1,1.0,1.0,0.49766334490641384,0,0.0,0.0,0.0,0.41941623726305827,0.09923223050404341,0.32018400675901487,0.5186484677671017,0.09923223050404341,0.494550370654603,1,4,2,8,6,0,nan,nan,nan,nan,nan,nan,nan,nan,nan,nan,nan,nan,0.0,nan,nan,nan,nan,nan,nan,nan,nan,nan,nan,nan,nan,nan,nan,nan,nan,nan,nan,908.1454844339884,1145.0989460533735,nan,1145.59660939828,nan,nan,nan,nan
1,177,1,1,1.0,1.0,0.5301139418709226,0,0.0,0.0,0.0,0.41986336359244886,0.0991239285752378,0.320739435017211,0.5189872921676867,0.0991239285752378,0.5120657806231369,2,0,1,6,4,5,nan,nan,nan,nan,nan,nan,nan,nan,nan,nan,nan,nan,0.0,nan,nan,nan,nan,nan,nan,nan,nan,nan,nan,nan,nan,nan,nan,nan,nan,nan,nan,908.1454844339884,1146.1224765350905,nan,1146.6525904769614,nan,nan,nan,nan
1,178,1,1,1.0,1.0,0.6889500390298053,0,0.0,1.0,0.0,0.42048978733266745,0.09918869583870349,0.32130109149396396,0.519678483171371,0.09918869583870349,0.5722424419357139,5,3,7,4,2,8,nan,nan,nan,nan,nan,nan,nan,nan,nan,nan,nan,nan,0.0,nan,nan,nan,nan,nan,nan,nan,nan,nan,nan,nan,nan,nan,nan,nan,nan,nan,nan,908.1454844339884,1147.1476052706453,nan,1147.836555309675,nan,nan,nan,nan
1,179,0,0,0.0,1.0,0.5918300320049639,1,0.0,0.0,1.0,0.422006511918527,0.10093410239749269,0.32107240952103433,0.5229406143160197,0.10093410239749269,0.6036313376352306,4,2,1,7,0,3,1.0,1.0,1.0,1.0,1.0,1.0,1.0,0.0,1.0,0.0,0.0,1.0,3.0,4.0,0.0,1.0,2.0,8.0,3.0,5.0,6.0,1.0,2.0,3.0,4.0,8.915031682830659,9.787151704110329,2.132171544011271,3.132579232735452,4.595350409883849,6.219566892026251,908.1454844339884,1148.1727220321259,1148.981165636231,1148.7645520641308,1159.8158572667521,1160.8188168588124,1149.9896310217478,1159.8075158984348
1,180,1,1,1.0,1.0,0.37916704917188326,0,0.0,0.0,0.0,0.42296057663811376,0.10144738136532312,0.32151319527279065,0.5244079580034369,0.10144738136532312,0.5533157067355509,3,7,8,0,1,6,nan,nan,nan,nan,nan,nan,nan,nan,nan,nan,nan,nan,0.0,nan,nan,nan,nan,nan,nan,nan,nan,nan,nan,nan,nan,nan,nan,nan,nan,nan,nan,908.1454844339884,1161.0410995849556,nan,1161.4202666341275,nan,nan,nan,nan
1,181,1,1,1.0,1.0,0.5060608773346758,0,0.0,0.0,0.0,0.4227159200600901,0.10121625804442337,0.32149966201566677,0.5239321781045135,0.10121625804442337,0.4923526528371743,8,5,0,6,4,7,nan,nan,nan,nan,nan,nan,nan,nan,nan,nan,nan,nan,0.0,nan,nan,nan,nan,nan,nan,nan,nan,nan,nan,nan,nan,nan,nan,nan,nan,nan,nan,908.1454844339884,1162.06621406566,nan,1162.5722749429947,nan,nan,nan,nan
1,182,1,1,1.0,1.0,0.5048817161016359,0,0.0,0.0,0.0,0.42317894760050445,0.10112463763574049,0.322054309964764,0.524303585236245,0.10112463763574049,0.4633698808693983,2,7,1,4,3,6,nan,nan,nan,nan,nan,nan,nan,nan,nan,nan,nan,nan,0.0,nan,nan,nan,nan,nan,nan,nan,nan,nan,nan,nan,nan,nan,nan,nan,nan,nan,nan,908.1454844339884,1163.0913562007743,nan,1163.596237916876,nan,nan,nan,nan
1,183,1,1,1.0,1.0,0.43974417675099176,0,0.0,0.0,0.0,0.4236303441115604,0.10102658374205502,0.3226037603695054,0.5246569278536154,0.10102658374205502,0.48356225672910114,6,2,3,8,5,0,nan,nan,nan,nan,nan,nan,nan,nan,nan,nan,nan,nan,0.0,nan,nan,nan,nan,nan,nan,nan,nan,nan,nan,nan,nan,nan,nan,nan,nan,nan,nan,908.1454844339884,1164.116479234389,nan,1164.55622341114,nan,nan,nan,nan
1,184,1,1,1.0,1.0,0.4945737486093549,0,0.0,0.0,0.0,0.42371888165353533,0.10075569712608327,0.32296318452745204,0.5244745787796186,0.10075569712608327,0.47973321382066086,2,6,8,5,4,7,nan,nan,nan,nan,nan,nan,nan,nan,nan,nan,nan,nan,0.0,nan,nan,nan,nan,nan,nan,nan,nan,nan,nan,nan,nan,nan,nan,nan,nan,nan,nan,908.1454844339884,1165.1416176632422,nan,1165.6361914118515,nan,nan,nan,nan
1,185,1,1,1.0,1.0,0.4374269082538831,0,0.0,0.0,0.0,0.4241060667188677,0.10061570806535321,0.3234903586535145,0.5247217747842209,0.10061570806535321,0.4572482778714099,8,3,2,7,5,1,nan,nan,nan,nan,nan,nan,nan,nan,nan,nan,nan,nan,0.0,nan,nan,nan,nan,nan,nan,nan,nan,nan,nan,nan,nan,nan,nan,nan,nan,nan,nan,908.1454844339884,1166.1667555219015,nan,1166.6041824301553,nan,nan,nan,nan
1,186,1,1,1.0,1.0,0.38027835731668347,0,0.0,0.0,0.0,0.4241784625967754,0.10034670252706823,0.32383176006970715,0.5245251651238436,0.10034670252706823,0.43742633805997383,0,7,1,8,4,5,nan,nan,nan,nan,nan,nan,nan,nan,nan,nan,nan,nan,0.0,nan,nan,nan,nan,nan,nan,nan,nan,nan,nan,nan,nan,nan,nan,nan,nan,nan,nan,908.1454844339884,1167.1918891041053,nan,1167.572167461422,nan,nan,nan,nan
1,187,1,1,1.0,1.0,0.3471463784981097,0,0.0,0.0,0.0,0.4239411647303965,0.10012688091493945,0.32381428381545707,0.5240680456453359,0.10012688091493945,0.38828388135622544,8,2,6,5,3,4,nan,nan,nan,nan,nan,nan,nan,nan,nan,nan,nan,nan,0.0,nan,nan,nan,nan,nan,nan,nan,nan,nan,nan,nan,nan,nan,nan,nan,nan,nan,nan,908.1454844339884,1168.2169896150563,nan,1168.5641359935544,nan,nan,nan,nan
1,188,1,1,1.0,1.0,0.297922384049798,0,0.0,0.0,0.0,0.4235282895355993,0.10001514145192716,0.32351314808367215,0.5235434309875264,0.10001514145192716,0.34178237328819705,4,0,3,6,5,1,nan,nan,nan,nan,nan,nan,nan,nan,nan,nan,nan,nan,0.0,nan,nan,nan,nan,nan,nan,nan,nan,nan,nan,nan,nan,nan,nan,nan,nan,nan,nan,908.1454844339884,1169.2421973224828,nan,1169.5401197065326,nan,nan,nan,nan
1,189,1,1,1.0,1.0,0.28883719763325644,0,1.0,0.0,0.0,0.4228566002014506,0.10016712718745194,0.32268947301399864,0.5230237273889026,0.10016712718745194,0.3113019867270547,3,7,1,5,8,0,nan,nan,nan,nan,nan,nan,nan,nan,nan,nan,nan,nan,0.0,nan,nan,nan,nan,nan,nan,nan,nan,nan,nan,nan,nan,nan,nan,nan,nan,nan,nan,908.1454844339884,1170.2672616261134,nan,1170.5560988237467,nan,nan,nan,nan
1,190,1,1,1.0,1.0,0.2876543301390484,1,0.0,0.0,1.0,0.42214373103885383,0.10037486763633084,0.321768863402523,0.5225185986751847,0.10037486763633084,0.2914713039407009,0,4,5,8,1,3,1.0,1.0,1.0,1.0,1.0,1.0,1.0,0.0,1.0,0.0,0.0,0.0,2.0,0.0,2.0,5.0,5.0,3.0,8.0,3.0,2.0,1.0,6.0,5.0,4.0,4.251214370713797,3.0661299620421687,1.0532447175799007,15.929944252130554,8.65878192872674,7.666911184868923,908.1454844339884,1171.2924228627273,1172.1008419484897,1171.5800771928664,1189.0947103670965,1190.09944411785,1173.1259766710818,1189.0863841089206
1,191,1,1,1.0,1.0,0.5474595290538673,0,0.0,0.0,0.0,0.42143214690710884,0.10058330250514055,0.32084884440196826,0.5220154494122494,0.10058330250514055,0.37465035227539073,1,5,8,0,2,4,nan,nan,nan,nan,nan,nan,nan,nan,nan,nan,nan,nan,0.0,nan,nan,nan,nan,nan,nan,nan,nan,nan,nan,nan,nan,nan,nan,nan,nan,nan,nan,908.1454844339884,1190.3282048182534,nan,1190.8756643473073,nan,nan,nan,nan
1,192,1,1,1.0,1.0,0.4102813964507277,0,0.0,0.0,0.0,0.42209544891840756,0.10073185998981822,0.32136358892858935,0.5228273089082258,0.10073185998981822,0.4151317518812145,2,6,7,8,4,1,nan,nan,nan,nan,nan,nan,nan,nan,nan,nan,nan,nan,0.0,nan,nan,nan,nan,nan,nan,nan,nan,nan,nan,nan,nan,nan,nan,nan,nan,nan,nan,908.1454844339884,1191.3533726120986,nan,1191.7636540085493,nan,nan,nan,nan
1,193,0,0,1.0,0.0,0.37712261851356743,0,0.0,0.0,0.0,0.4220335952405663,0.10047143555735896,0.32156215968320734,0.5225050307979252,0.10047143555735896,0.4449545146727208,7,0,4,6,1,8,nan,nan,nan,nan,nan,nan,nan,nan,nan,nan,nan,nan,0.0,nan,nan,nan,nan,nan,nan,nan,nan,nan,nan,nan,nan,nan,nan,nan,nan,nan,nan,908.1454844339884,1192.3785053390116,nan,1192.7556279575251,nan,nan,nan,nan
1,194,1,1,1.0,1.0,0.3119702541182505,0,0.0,0.0,0.0,0.4217996839034465,0.10026157920889606,0.32153810469455046,0.5220612631123426,0.10026157920889606,0.36645808969418187,8,2,3,1,4,7,nan,nan,nan,nan,nan,nan,nan,nan,nan,nan,nan,nan,0.0,nan,nan,nan,nan,nan,nan,nan,nan,nan,nan,nan,nan,nan,nan,nan,nan,nan,nan,908.1454844339884,1193.4036403467007,nan,1193.715610600819,nan,nan,nan,nan
1,195,1,1,1.0,1.0,0.3188248415287944,0,0.0,0.0,0.0,0.4212306195004144,0.10031189140623284,0.32091872809418154,0.5215425109066473,0.10031189140623284,0.3359725713868708,7,1,2,4,6,3,nan,nan,nan,nan,nan,nan,nan,nan,nan,nan,nan,nan,0.0,nan,nan,nan,nan,nan,nan,nan,nan,nan,nan,nan,nan,nan,nan,nan,nan,nan,nan,908.1454844339884,1194.4287739289048,nan,1194.7475987704336,nan,nan,nan,nan
1,196,1,1,1.0,1.0,0.3336909400161403,0,0.0,0.0,0.0,0.42070275466550916,0.10032140795755168,0.3203813467079575,0.5210241626230608,0.10032140795755168,0.32149534522106177,6,5,3,7,4,8,nan,nan,nan,nan,nan,nan,nan,nan,nan,nan,nan,nan,0.0,nan,nan,nan,nan,nan,nan,nan,nan,nan,nan,nan,nan,nan,nan,nan,nan,nan,nan,908.1454844339884,1195.4538941115493,nan,1195.7875850515654,nan,nan,nan,nan
1,197,0,0,0.0,1.0,0.42050383483979203,0,0.0,0.0,0.0,0.4202565402314098,0.1002566680309564,0.3199998722004534,0.5205132082623662,0.1002566680309564,0.3576732054615756,2,4,0,1,5,7,nan,nan,nan,nan,nan,nan,nan,nan,nan,nan,nan,nan,0.0,nan,nan,nan,nan,nan,nan,nan,nan,nan,nan,nan,nan,nan,nan,nan,nan,nan,nan,908.1454844339884,1196.4790362466636,nan,1196.8995400815033,nan,nan,nan,nan
1,198,1,1,1.0,1.0,0.41939537766506874,0,0.0,0.0,0.0,0.4202578019385954,0.10000058572157909,0.3202572162170163,0.5202583876601745,0.10000058572157909,0.39119671750700036,1,5,6,0,7,2,nan,nan,nan,nan,nan,nan,nan,nan,nan,nan,nan,nan,0.0,nan,nan,nan,nan,nan,nan,nan,nan,nan,nan,nan,nan,nan,nan,nan,nan,nan,nan,908.1454844339884,1197.5041427446517,nan,1197.9235381223168,nan,nan,nan,nan
1,199,1,1,1.0,1.0,0.29019910604984034,0,0.0,0.0,0.0,0.42025342415040495,0.09974647304562664,0.32050695110477834,0.5199998971960316,0.09974647304562664,0.3766994395182337,5,2,3,8,1,4,nan,nan,nan,nan,nan,nan,nan,nan,nan,nan,nan,nan,0.0,nan,nan,nan,nan,nan,nan,nan,nan,nan,nan,nan,nan,nan,nan,nan,nan,nan,nan,908.1454844339884,1198.5293059769447,nan,1198.8195050829945,nan,nan,nan,nan
1,200,1,1,1.0,1.0,0.31304991649494696,0,0.0,0.0,0.0,0.41959658415999807,0.09992048356580488,0.31967610059419316,0.519517067725803,0.09992048356580488,0.3408814667366187,7,1,8,2,3,6,nan,nan,nan,nan,nan,nan,nan,nan,nan,nan,nan,nan,0.0,nan,nan,nan,nan,nan,nan,nan,nan,nan,nan,nan,nan,nan,nan,nan,nan,nan,nan,908.1454844339884,1199.5544372783727,nan,1199.8674871948676,nan,nan,nan,nan
1,201,1,1,1.0,1.0,0.28790065395560305,0,1.0,0.0,0.0,0.4190611737697214,0.09995344512629449,0.3191077286434269,0.5190146188960159,0.09995344512629449,0.2970498921667968,6,3,1,7,0,5,nan,nan,nan,nan,nan,nan,nan,nan,nan,nan,nan,nan,0.0,nan,nan,nan,nan,nan,nan,nan,nan,nan,nan,nan,nan,nan,nan,nan,nan,nan,nan,908.1454844339884,1200.5795665841215,nan,1200.867467238077,nan,nan,nan,nan
1,202,1,1,1.0,1.0,0.26279244538545754,1,0.0,0.0,1.0,0.4184053711706508,0.10013152884777446,0.31827384232287637,0.5185369000184252,0.10013152884777446,0.2879143386120025,8,5,4,1,2,0,1.0,1.0,1.0,1.0,1.0,1.0,0.0,1.0,1.0,0.0,0.0,0.0,2.0,6.0,5.0,4.0,8.0,6.0,3.0,3.0,2.0,1.0,6.0,5.0,4.0,2.746365155671583,1.7870054493444059,1.011657901834269,11.121520319719366,9.497985789624636,4.073505421690015,908.1454844339884,1201.6046747926916,1202.4131201073787,1201.867467238077,1214.5980251900314,1215.6049573238286,1203.4382536895828,1214.589690093848
1,203,1,1,1.0,1.0,0.44362235137737116,0,0.0,0.0,0.0,0.417631177510028,0.1004804261032818,0.3171507514067462,0.5181116036133098,0.1004804261032818,0.3314384835728106,2,7,0,5,6,4,nan,nan,nan,nan,nan,nan,nan,nan,nan,nan,nan,nan,0.0,nan,nan,nan,nan,nan,nan,nan,nan,nan,nan,nan,nan,nan,nan,nan,nan,nan,nan,908.1454844339884,1215.8315464403072,nan,1216.2751687916846,nan,nan,nan,nan
1,204,1,1,1.0,1.0,0.4104550205299802,0,0.0,0.0,0.0,0.4177598466875891,0.10024800234708389,0.31751184434050517,0.518007849034673,0.10024800234708389,0.37228993909760294,5,0,4,3,1,2,nan,nan,nan,nan,nan,nan,nan,nan,nan,nan,nan,nan,0.0,nan,nan,nan,nan,nan,nan,nan,nan,nan,nan,nan,nan,nan,nan,nan,nan,nan,nan,908.1454844339884,1216.8566817330932,nan,1217.2671367536232,nan,nan,nan,nan
1,205,1,1,1.0,1.0,0.5613064057306474,0,0.0,0.0,0.0,0.41772386232228065,0.10000208905431247,0.3177217732679682,0.5177259513765932,0.10000208905431247,0.4717945925459996,1,8,7,4,3,6,nan,nan,nan,nan,nan,nan,nan,nan,nan,nan,nan,nan,0.0,nan,nan,nan,nan,nan,nan,nan,nan,nan,nan,nan,nan,nan,nan,nan,nan,nan,nan,908.1454844339884,1217.881811609036,nan,1218.4431180147667,nan,nan,nan,nan
1,206,1,1,1.0,1.0,0.3841268818541721,0,0.0,0.0,0.0,0.4184276983193805,0.10025946008614248,0.31816823823323803,0.5186871584055229,0.10025946008614248,0.4519627693715999,4,0,5,1,2,7,nan,nan,nan,nan,nan,nan,nan,nan,nan,nan,nan,nan,0.0,nan,nan,nan,nan,nan,nan,nan,nan,nan,nan,nan,nan,nan,nan,nan,nan,nan,nan,908.1454844339884,1218.9069488975013,nan,1219.2910757793554,nan,nan,nan,nan
1,207,0,0,0.0,1.0,0.4789974734703719,0,0.0,0.0,0.0,0.41826037726345267,0.10004317388645248,0.3182172033770002,0.5183035511499051,0.10004317388645248,0.4748102536850638,7,4,2,8,3,6,nan,nan,nan,nan,nan,nan,nan,nan,nan,nan,nan,nan,0.0,nan,nan,nan,nan,nan,nan,nan,nan,nan,nan,nan,nan,nan,nan,nan,nan,nan,nan,908.1454844339884,1219.9320796287352,nan,1220.4110771022056,nan,nan,nan,nan
1,208,1,1,1.0,1.0,0.4138351306798995,0,0.0,0.0,0.0,0.41855521753630176,0.0998892979139543,0.31866591962234747,0.518444515450256,0.0998892979139543,0.4256531620014812,1,2,0,6,4,8,nan,nan,nan,nan,nan,nan,nan,nan,nan,nan,nan,nan,0.0,nan,nan,nan,nan,nan,nan,nan,nan,nan,nan,nan,nan,nan,nan,nan,nan,nan,nan,908.1454844339884,1220.9572169172004,nan,1221.3710520478803,nan,nan,nan,nan
1,209,1,1,1.0,1.0,0.46066687611778434,0,0.0,0.0,0.0,0.4185324151843385,0.09964826474890505,0.31888415043543344,0.5181806799332436,0.09964826474890505,0.4511664934226853,2,0,6,4,8,7,nan,nan,nan,nan,nan,nan,nan,nan,nan,nan,nan,nan,0.0,nan,nan,nan,nan,nan,nan,nan,nan,nan,nan,nan,nan,nan,nan,nan,nan,nan,nan,908.1454844339884,1221.9823530652775,nan,1222.4430199413953,nan,nan,nan,nan
1,210,1,1,1.0,1.0,0.40352602279972416,0,0.0,0.0,0.0,0.418734984708057,0.09945115122429739,0.3192838334837596,0.5181861359323544,0.09945115122429739,0.426009343199136,6,4,3,1,0,5,nan,nan,nan,nan,nan,nan,nan,nan,nan,nan,nan,nan,0.0,nan,nan,nan,nan,nan,nan,nan,nan,nan,nan,nan,nan,nan,nan,nan,nan,nan,nan,908.1454844339884,1223.0074869325786,nan,1223.4110129553783,nan,nan,nan,nan
1,211,1,1,1.0,1.0,0.3303792531482941,0,0.0,0.0,0.0,0.4186622145553855,0.09921849538112629,0.3194437191742592,0.5178807099365118,0.09921849538112629,0.3981907173552675,0,1,7,8,6,2,nan,nan,nan,nan,nan,nan,nan,nan,nan,nan,nan,nan,0.0,nan,nan,nan,nan,nan,nan,nan,nan,nan,nan,nan,nan,nan,nan,nan,nan,nan,nan,908.1454844339884,1224.0326168085214,nan,1224.3629960616697,nan,nan,nan,nan
1,212,1,1,1.0,1.0,0.3852193735963283,0,0.0,0.0,0.0,0.41824181950106604,0.09916838784719886,0.31907343165386715,0.5174102073482649,0.09916838784719886,0.3730415498481155,5,8,4,3,1,0,nan,nan,nan,nan,nan,nan,nan,nan,nan,nan,nan,nan,0.0,nan,nan,nan,nan,nan,nan,nan,nan,nan,nan,nan,nan,nan,nan,nan,nan,nan,nan,908.1454844339884,1225.0577452589791,nan,1225.4429646325755,nan,nan,nan,nan
1,213,1,1,1.0,1.0,0.31207944627317374,0,0.0,0.0,0.0,0.4180853150181052,0.09895910484029762,0.31912621017780757,0.5170444198584028,0.09895910484029762,0.3425593576725987,0,3,2,6,5,4,nan,nan,nan,nan,nan,nan,nan,nan,nan,nan,nan,nan,0.0,nan,nan,nan,nan,nan,nan,nan,nan,nan,nan,nan,nan,nan,nan,nan,nan,nan,nan,908.1454844339884,1226.0828822623473,nan,1226.3949617086205,nan,nan,nan,nan
1,214,1,1,1.0,1.0,0.3268534584262852,0,0.0,0.0,0.0,0.41758528733534606,0.09899225892254714,0.3185930284127989,0.5165775462578932,0.09899225892254714,0.34138409276526244,8,5,7,2,6,1,nan,nan,nan,nan,nan,nan,nan,nan,nan,nan,nan,nan,0.0,nan,nan,nan,nan,nan,nan,nan,nan,nan,nan,nan,nan,nan,nan,nan,nan,nan,nan,908.1454844339884,1227.1080737192444,nan,1227.4349271776707,nan,nan,nan,nan
1,215,1,1,1.0,1.0,0.33378530712639076,0,0.0,0.0,0.0,0.417159316307604,0.09895417180101214,0.3182051445065919,0.5161134881086161,0.09895417180101214,0.3242394039419499,6,2,4,1,3,7,nan,nan,nan,nan,nan,nan,nan,nan,nan,nan,nan,nan,0.0,nan,nan,nan,nan,nan,nan,nan,nan,nan,nan,nan,nan,nan,nan,nan,nan,nan,nan,908.1454844339884,1228.1331266189945,nan,1228.466911926121,nan,nan,nan,nan
1,216,0,0,0.0,1.0,0.4525900778257892,0,0.0,0.0,0.0,0.41676971813386005,0.09888630854854909,0.31788340958531097,0.5156560266824092,0.09888630854854909,0.37107628112615504,2,0,5,7,1,3,nan,nan,nan,nan,nan,nan,nan,nan,nan,nan,nan,nan,0.0,nan,nan,nan,nan,nan,nan,nan,nan,nan,nan,nan,nan,nan,nan,nan,nan,nan,nan,908.1454844339884,1229.1582881407055,nan,1229.6108782185313,nan,nan,nan,nan
1,217,1,1,1.0,1.0,0.3474448750675947,0,0.0,0.0,0.0,0.41693632445800854,0.09868617306600252,0.318250151392006,0.5156224975240111,0.09868617306600252,0.37794008667325824,0,8,6,5,2,7,nan,nan,nan,nan,nan,nan,nan,nan,nan,nan,nan,nan,0.0,nan,nan,nan,nan,nan,nan,nan,nan,nan,nan,nan,nan,nan,nan,nan,nan,nan,nan,908.1454844339884,1230.1834359777602,nan,1230.5308808528277,nan,nan,nan,nan
1,218,1,1,1.0,1.0,0.3622878806972949,0,0.0,0.0,0.0,0.41661460478490475,0.09857041257890675,0.318044192205998,0.5151850173638115,0.09857041257890675,0.38744094453022626,2,7,4,0,1,6,nan,nan,nan,nan,nan,nan,nan,nan,nan,nan,nan,nan,0.0,nan,nan,nan,nan,nan,nan,nan,nan,nan,nan,nan,nan,nan,nan,nan,nan,nan,nan,908.1454844339884,1231.2085515988524,nan,1231.5708394795497,nan,nan,nan,nan
1,219,1,1,1.0,1.0,0.38513783585131023,0,0.0,0.0,0.0,0.4163642512176808,0.09841183705712038,0.3179524141605604,0.5147760882748011,0.09841183705712038,0.3649568638720666,8,0,6,2,5,3,nan,nan,nan,nan,nan,nan,nan,nan,nan,nan,nan,nan,0.0,nan,nan,nan,nan,nan,nan,nan,nan,nan,nan,nan,nan,nan,nan,nan,nan,nan,nan,908.1454844339884,1232.2336857512505,nan,1232.6188235871018,nan,nan,nan,nan
1,220,0,0,0.0,1.0,0.5279725782293099,0,0.0,0.0,0.0,0.41622101078022034,0.09820853293433546,0.3180124778458849,0.5144295437145558,0.09820853293433546,0.4251327649259717,3,5,8,1,4,6,nan,nan,nan,nan,nan,nan,nan,nan,nan,nan,nan,nan,0.0,nan,nan,nan,nan,nan,nan,nan,nan,nan,nan,nan,nan,nan,nan,nan,nan,nan,nan,908.1454844339884,1233.258811065641,nan,1233.7867836438704,nan,nan,nan,nan
1,221,1,1,1.0,1.0,0.4548152599884361,0,0.0,0.0,0.0,0.41673129191012487,0.0982732901572424,0.31845800175288247,0.5150045820673672,0.0982732901572424,0.4559752246896854,6,1,2,7,3,4,nan,nan,nan,nan,nan,nan,nan,nan,nan,nan,nan,nan,0.0,nan,nan,nan,nan,nan,nan,nan,nan,nan,nan,nan,nan,nan,nan,nan,nan,nan,nan,908.1454844339884,1234.2839586175987,nan,1234.7387738775872,nan,nan,nan,nan
1,222,1,1,1.0,1.0,0.405659118628364,0,0.0,0.0,0.0,0.4169044008559354,0.098083147918284,0.3188212529376514,0.5149875487742194,0.098083147918284,0.46281565228203664,5,4,7,0,2,1,nan,nan,nan,nan,nan,nan,nan,nan,nan,nan,nan,nan,0.0,nan,nan,nan,nan,nan,nan,nan,nan,nan,nan,nan,nan,nan,nan,nan,nan,nan,nan,908.1454844339884,1235.3090856425715,nan,1235.7147447611999,nan,nan,nan,nan
1,223,1,1,1.0,1.0,0.34849488735540035,0,0.0,0.0,0.0,0.4168535172259464,0.09786389901436168,0.31898961821158467,0.5147174162403081,0.09786389901436168,0.40298975532406683,0,2,8,6,5,4,nan,nan,nan,nan,nan,nan,nan,nan,nan,nan,nan,nan,0.0,nan,nan,nan,nan,nan,nan,nan,nan,nan,nan,nan,nan,nan,nan,nan,nan,nan,nan,908.1454844339884,1236.3342237863276,nan,1236.682718673683,nan,nan,nan,nan
1,224,1,1,1.0,1.0,0.3393552474099124,0,0.0,0.0,0.0,0.4165455954697727,0.09775047744320654,0.3187951180265662,0.5142960729129793,0.09775047744320654,0.3645030844645589,6,7,4,8,2,0,nan,nan,nan,nan,nan,nan,nan,nan,nan,nan,nan,nan,0.0,nan,nan,nan,nan,nan,nan,nan,nan,nan,nan,nan,nan,nan,nan,nan,nan,nan,nan,908.1454844339884,1237.3593559430467,nan,1237.6987111904566,nan,nan,nan,nan
1,225,1,1,1.0,1.0,0.44219658123074623,0,0.0,0.0,0.0,0.4161994504112083,0.09766732743888819,0.31853212297232014,0.5138667778500965,0.09766732743888819,0.376682238665353,7,5,2,4,3,6,nan,nan,nan,nan,nan,nan,nan,nan,nan,nan,nan,nan,0.0,nan,nan,nan,nan,nan,nan,nan,nan,nan,nan,nan,nan,nan,nan,nan,nan,nan,nan,908.1454844339884,1238.3844861040866,nan,1238.8266826853173,nan,nan,nan,nan
1,226,1,1,1.0,1.0,0.553082782478441,0,0.0,0.0,0.0,0.4163155090309384,0.0974644866861541,0.3188510223447843,0.5137799957170925,0.0974644866861541,0.44487820370636655,1,3,0,5,7,8,nan,nan,nan,nan,nan,nan,nan,nan,nan,nan,nan,nan,0.0,nan,nan,nan,nan,nan,nan,nan,nan,nan,nan,nan,nan,nan,nan,nan,nan,nan,nan,908.1454844339884,1239.4095906063956,nan,1239.962673388874,nan,nan,nan,nan
1,227,1,1,1.0,1.0,0.631883025837169,0,0.0,1.0,0.0,0.416923363579594,0.09767226863196886,0.3192510949476251,0.5145956322115628,0.09767226863196886,0.5423874631821187,6,4,2,8,3,5,nan,nan,nan,nan,nan,nan,nan,nan,nan,nan,nan,nan,0.0,nan,nan,nan,nan,nan,nan,nan,nan,nan,nan,nan,nan,nan,nan,nan,nan,nan,nan,908.1454844339884,1240.4347518430095,nan,1241.0666348688467,nan,nan,nan,nan
1,228,1,1,nan,nan,nan,0,0.0,0.0,0.0,0.41787451252763635,0.09849474203605432,0.31937977049158206,0.5163692545636906,0.09849474203605432,0.592482904157805,8,6,7,0,4,1,nan,nan,nan,nan,nan,nan,nan,nan,nan,nan,nan,nan,0.0,nan,nan,nan,nan,nan,nan,nan,nan,nan,nan,nan,nan,nan,nan,nan,nan,nan,nan,908.1454844339884,1241.4598822891464,nan,nan,nan,nan,nan,nan
1,229,1,1,1.0,1.0,0.0376148442030626,0,0.0,0.0,0.0,0.41787451252763635,0.09849474203605432,0.31937977049158206,0.5163692545636906,0.09849474203605432,0.3347489350201158,5,8,0,4,1,2,nan,nan,nan,nan,nan,nan,nan,nan,nan,nan,nan,nan,0.0,nan,nan,nan,nan,nan,nan,nan,nan,nan,nan,nan,nan,nan,nan,nan,nan,nan,nan,908.1454844339884,1242.4850184372235,nan,1242.5226332814266,nan,nan,nan,nan
1,230,1,1,1.0,1.0,0.4364128181896376,0,0.0,0.0,0.0,0.41619935980373957,0.10145276962612826,0.3147465901776113,0.5176521294298678,0.10145276962612826,0.2370138311963501,3,5,7,2,6,0,nan,nan,nan,nan,nan,nan,nan,nan,nan,nan,nan,nan,0.0,nan,nan,nan,nan,nan,nan,nan,nan,nan,nan,nan,nan,nan,nan,nan,nan,nan,nan,908.1454844339884,1243.5101491684575,nan,1243.946561986647,nan,nan,nan,nan
1,231,1,1,1.0,1.0,0.31527167749368346,0,1.0,0.0,0.0,0.41628801532297594,0.10123885308745541,0.31504916223552054,0.5175268684104314,0.10123885308745541,0.2630997799621279,6,3,5,0,4,2,nan,nan,nan,nan,nan,nan,nan,nan,nan,nan,nan,nan,0.0,nan,nan,nan,nan,nan,nan,nan,nan,nan,nan,nan,nan,nan,nan,nan,nan,nan,nan,908.1454844339884,1244.5352864569227,nan,1244.8505581344164,nan,nan,nan,nan
1,232,1,1,1.0,1.0,0.24211521454412832,1,0.0,0.0,1.0,0.41584689594380875,0.10123692142868372,0.314609974515125,0.5170838173724924,0.10123692142868372,0.33126657007581645,5,0,1,2,8,6,1.0,1.0,1.0,1.0,1.0,1.0,0.0,1.0,0.0,0.0,0.0,0.0,1.0,2.0,0.0,5.0,6.0,3.0,8.0,3.0,2.0,1.0,6.0,5.0,4.0,2.4222312376232367,1.7194135098350216,1.192328153500739,7.309522696287786,4.381142201256807,3.6302149232319607,908.1454844339884,1245.5604300175219,1246.3688351335309,1245.802545232066,1254.7282429642335,1255.7273657207338,1247.3773059358907,1254.7199141401843
1,233,1,1,1.0,1.0,0.3209325637233178,0,0.0,0.0,0.0,0.4150915408072884,0.10166126263288597,0.3134302781744024,0.5167528034401744,0.10166126263288597,0.2927731519203765,8,3,0,6,5,2,nan,nan,nan,nan,nan,nan,nan,nan,nan,nan,nan,nan,0.0,nan,nan,nan,nan,nan,nan,nan,nan,nan,nan,nan,nan,nan,nan,nan,nan,nan,nan,908.1454844339884,1255.9534040297892,nan,1256.2743365935125,nan,nan,nan,nan
1,234,1,1,1.0,1.0,0.32774096541834297,0,0.0,0.0,0.0,0.41468392618787725,0.10162916133162175,0.3130547648562555,0.516313087519499,0.10162916133162175,0.29692958122859636,3,7,2,8,6,0,nan,nan,nan,nan,nan,nan,nan,nan,nan,nan,nan,nan,0.0,nan,nan,nan,nan,nan,nan,nan,nan,nan,nan,nan,nan,nan,nan,nan,nan,nan,nan,908.1454844339884,1256.9785703981493,nan,1257.3063113635676,nan,nan,nan,nan
1,235,1,1,1.0,1.0,0.35059434173649606,0,0.0,0.0,0.0,0.41430917204662926,0.10156972427268877,0.31273944777394047,0.515878896319318,0.10156972427268877,0.33308929029271894,4,5,0,1,7,8,nan,nan,nan,nan,nan,nan,nan,nan,nan,nan,nan,nan,0.0,nan,nan,nan,nan,nan,nan,nan,nan,nan,nan,nan,nan,nan,nan,nan,nan,nan,nan,908.1454844339884,1258.0037019846743,nan,1258.3542963264108,nan,nan,nan,nan
1,236,1,1,1.0,1.0,0.49342965430855656,0,0.0,0.0,0.0,0.4140357178392896,0.10143707787118811,0.3125986399681015,0.5154727957104777,0.10143707787118811,0.3905883204877985,8,2,1,7,4,3,nan,nan,nan,nan,nan,nan,nan,nan,nan,nan,nan,nan,0.0,nan,nan,nan,nan,nan,nan,nan,nan,nan,nan,nan,nan,nan,nan,nan,nan,nan,nan,908.1454844339884,1259.0288398433333,nan,1259.522269497642,nan,nan,nan,nan
1,237,0,0,0.0,1.0,0.4842740489307289,0,0.0,0.0,0.0,0.41437500816608136,0.1013525091141776,0.31302249905190377,0.515727517280259,0.1013525091141776,0.4427660149919272,3,1,4,8,5,7,nan,nan,nan,nan,nan,nan,nan,nan,nan,nan,nan,nan,0.0,nan,nan,nan,nan,nan,nan,nan,nan,nan,nan,nan,nan,nan,nan,nan,nan,nan,nan,908.1454844339884,1260.0539671534032,nan,1260.538241202334,nan,nan,nan,nan
1,238,1,1,1.0,1.0,0.31511972078737926,0,0.0,0.0,0.0,0.41467245089273946,0.10123893295363044,0.313433517939109,0.5159113838463699,0.10123893295363044,0.43094114134222156,5,7,0,6,4,3,nan,nan,nan,nan,nan,nan,nan,nan,nan,nan,nan,nan,0.0,nan,nan,nan,nan,nan,nan,nan,nan,nan,nan,nan,nan,nan,nan,nan,nan,nan,nan,908.1454844339884,1261.0791035865773,nan,1261.3942233073647,nan,nan,nan,nan
1,239,1,1,1.0,1.0,0.34596550668311465,0,0.0,0.0,0.0,0.4142506172905981,0.10123096838498645,0.3130196489056116,0.5154815856755846,0.10123096838498645,0.38178642546707425,3,2,1,8,5,7,nan,nan,nan,nan,nan,nan,nan,nan,nan,nan,nan,nan,0.0,nan,nan,nan,nan,nan,nan,nan,nan,nan,nan,nan,nan,nan,nan,nan,nan,nan,nan,908.1454844339884,1262.1042391644603,nan,1262.4502046711434,nan,nan,nan,nan
1,240,1,1,1.0,1.0,0.37682412194385506,0,0.0,0.0,0.0,0.4139624944610306,0.1011140997406882,0.3128483947203424,0.5150765942017188,0.1011140997406882,0.3459697831381163,1,3,5,4,0,2,nan,nan,nan,nan,nan,nan,nan,nan,nan,nan,nan,nan,0.0,nan,nan,nan,nan,nan,nan,nan,nan,nan,nan,nan,nan,nan,nan,nan,nan,nan,nan,908.1454844339884,1263.1293653341422,nan,1263.506189456086,nan,nan,nan,nan
1,241,1,1,1.0,1.0,0.36764114725338004,0,0.0,0.0,0.0,0.4138064508790257,0.10093004399708215,0.3128764068819435,0.5147364948761078,0.10093004399708215,0.36347692529344994,6,0,1,2,4,8,nan,nan,nan,nan,nan,nan,nan,nan,nan,nan,nan,nan,0.0,nan,nan,nan,nan,nan,nan,nan,nan,nan,nan,nan,nan,nan,nan,nan,nan,nan,nan,908.1454844339884,1264.1545091798384,nan,1264.5221503270918,nan,nan,nan,nan
1,242,1,1,1.0,1.0,0.43052071828469707,0,0.0,0.0,0.0,0.4136132906128096,0.10076274544618333,0.31285054516662625,0.514376036058993,0.10076274544618333,0.3916619958273107,4,5,3,8,6,1,nan,nan,nan,nan,nan,nan,nan,nan,nan,nan,nan,nan,0.0,nan,nan,nan,nan,nan,nan,nan,nan,nan,nan,nan,nan,nan,nan,nan,nan,nan,nan,908.1454844339884,1265.1796122566625,nan,1265.6101329749472,nan,nan,nan,nan
1,243,1,1,1.0,1.0,0.37333909609424154,0,0.0,0.0,0.0,0.41368373822810917,0.10055850179367458,0.3131252364344346,0.5142422400217838,0.10055850179367458,0.3905003205441062,7,4,8,5,3,2,nan,nan,nan,nan,nan,nan,nan,nan,nan,nan,nan,nan,0.0,nan,nan,nan,nan,nan,nan,nan,nan,nan,nan,nan,nan,nan,nan,nan,nan,nan,nan,908.1454844339884,1266.2047712125004,nan,1266.5781103085947,nan,nan,nan,nan
1,244,1,1,1.0,1.0,0.32420234133064696,0,0.0,0.0,0.0,0.4135163330740267,0.10038316393870457,0.31313316913532213,0.5138994970127313,0.10038316393870457,0.37602071856986186,1,3,6,2,0,4,nan,nan,nan,nan,nan,nan,nan,nan,nan,nan,nan,nan,0.0,nan,nan,nan,nan,nan,nan,nan,nan,nan,nan,nan,nan,nan,nan,nan,nan,nan,nan,908.1454844339884,1267.2299033692193,nan,1267.55410571055,nan,nan,nan,nan
1,245,1,1,1.0,1.0,0.3870394329078408,0,0.0,0.0,0.0,0.4131472669924425,0.10033925738414641,0.3128080096082961,0.5134865243765889,0.10033925738414641,0.36152695677757646,3,5,1,4,8,0,nan,nan,nan,nan,nan,nan,nan,nan,nan,nan,nan,nan,0.0,nan,nan,nan,nan,nan,nan,nan,nan,nan,nan,nan,nan,nan,nan,nan,nan,nan,nan,908.1454844339884,1268.2550463596247,nan,1268.6420857925325,nan,nan,nan,nan
1,246,1,1,1.0,1.0,0.41788350822139364,0,0.0,0.0,0.0,0.4130398273460038,0.10014653306223027,0.31289329428377355,0.5131863604082341,0.10014653306223027,0.3763750941532938,7,8,2,0,1,4,nan,nan,nan,nan,nan,nan,nan,nan,nan,nan,nan,nan,0.0,nan,nan,nan,nan,nan,nan,nan,nan,nan,nan,nan,nan,nan,nan,nan,nan,nan,nan,908.1454844339884,1269.2801685379484,nan,1269.6980520461698,nan,nan,nan,nan
1,247,1,1,1.0,1.0,0.4167097638314772,0,0.0,0.0,0.0,0.41305967849713243,0.0999415831340125,0.31311809536311996,0.5130012616311449,0.0999415831340125,0.40721090165357055,0,3,6,7,4,5,nan,nan,nan,nan,nan,nan,nan,nan,nan,nan,nan,nan,0.0,nan,nan,nan,nan,nan,nan,nan,nan,nan,nan,nan,nan,nan,nan,nan,nan,nan,nan,908.1454844339884,1270.3053155197117,nan,1270.7220252835432,nan,nan,nan,nan
1,248,1,1,1.0,1.0,0.43156246275930243,0,0.0,0.0,0.0,0.41307457680461956,0.0997376836719455,0.31333689313267404,0.512812260476565,0.0997376836719455,0.42205191160405775,5,0,7,2,3,8,nan,nan,nan,nan,nan,nan,nan,nan,nan,nan,nan,nan,0.0,nan,nan,nan,nan,nan,nan,nan,nan,nan,nan,nan,nan,nan,nan,nan,nan,nan,nan,908.1454844339884,1271.330455088953,nan,1271.7620175517122,nan,nan,nan,nan
1,249,1,1,1.0,1.0,0.5104134533858087,0,0.0,0.0,0.0,0.41314973081256545,0.09954170941839671,0.31360802139416877,0.5126914402309621,0.09954170941839671,0.4528952266588628,0,4,6,8,7,1,nan,nan,nan,nan,nan,nan,nan,nan,nan,nan,nan,nan,0.0,nan,nan,nan,nan,nan,nan,nan,nan,nan,nan,nan,nan,nan,nan,nan,nan,nan,nan,908.1454844339884,1272.3555704249484,nan,1272.8659838783342,nan,nan,nan,nan
1,250,1,1,1.0,1.0,0.43725100339884193,0,0.0,0.0,0.0,0.4135435110658984,0.09953181295229353,0.31401169811360485,0.5130753240181919,0.09953181295229353,0.45974230651465103,2,5,4,3,6,8,nan,nan,nan,nan,nan,nan,nan,nan,nan,nan,nan,nan,0.0,nan,nan,nan,nan,nan,nan,nan,nan,nan,nan,nan,nan,nan,nan,nan,nan,nan,nan,908.1454844339884,1273.3807105643837,nan,1273.8179615677825,nan,nan,nan,nan
1,251,1,1,1.0,1.0,0.33178791747468495,0,0.0,0.0,0.0,0.41363910579304736,0.09934230251089744,0.31429680328214993,0.5129814083039448,0.09934230251089744,0.42648412475311187,5,6,0,4,1,2,nan,nan,nan,nan,nan,nan,nan,nan,nan,nan,nan,nan,0.0,nan,nan,nan,nan,nan,nan,nan,nan,nan,nan,nan,nan,nan,nan,nan,nan,nan,nan,908.1454844339884,1274.414159571077,nan,1274.7459474885518,nan,nan,nan,nan
1,252,0,0,0.0,1.0,0.46661970168611333,0,0.0,0.0,0.0,0.4133103861612467,0.09927767621851999,0.3140327099427267,0.5125880623797667,0.09927767621851999,0.4118862075198801,8,0,6,2,3,7,nan,nan,nan,nan,nan,nan,nan,nan,nan,nan,nan,nan,0.0,nan,nan,nan,nan,nan,nan,nan,nan,nan,nan,nan,nan,nan,nan,nan,nan,nan,nan,908.1454844339884,1275.4393048422585,nan,1275.9059245439446,nan,nan,nan,nan
1,253,1,1,1.0,1.0,0.40145422282830623,0,0.0,0.0,0.0,0.4135236234233462,0.09913604203176997,0.31438758139157624,0.5126596654551162,0.09913604203176997,0.3999539473297015,1,5,0,7,4,2,nan,nan,nan,nan,nan,nan,nan,nan,nan,nan,nan,nan,0.0,nan,nan,nan,nan,nan,nan,nan,nan,nan,nan,nan,nan,nan,nan,nan,nan,nan,nan,908.1454844339884,1276.46444726247,nan,1276.8659014852983,nan,nan,nan,nan
1,254,0,0,0.0,1.0,0.5363279163000243,0,0.0,0.0,0.0,0.4134755381620114,0.09894128399858915,0.31453425416342223,0.5124168221606005,0.09894128399858915,0.46813394693814797,7,2,1,3,8,6,nan,nan,nan,nan,nan,nan,nan,nan,nan,nan,nan,nan,0.0,nan,nan,nan,nan,nan,nan,nan,nan,nan,nan,nan,nan,nan,nan,nan,nan,nan,nan,908.1454844339884,1277.4895725768606,nan,1278.0259004931606,nan,nan,nan,nan
1,255,1,1,1.0,1.0,0.4231860275097006,0,0.0,0.0,0.0,0.413963047599067,0.09904637787785418,0.3149166697212128,0.5130094254769212,0.09904637787785418,0.45365605554601035,3,8,2,1,6,4,nan,nan,nan,nan,nan,nan,nan,nan,nan,nan,nan,nan,0.0,nan,nan,nan,nan,nan,nan,nan,nan,nan,nan,nan,nan,nan,nan,nan,nan,nan,nan,908.1454844339884,1278.5146956104752,nan,1278.937881637985,nan,nan,nan,nan
1,256,1,1,1.0,1.0,0.3899995951621804,0,0.0,0.0,0.0,0.4139995020651169,0.09885213414962639,0.3151473679154905,0.5128516362147433,0.09885213414962639,0.44983784632396845,2,1,6,0,4,5,nan,nan,nan,nan,nan,nan,nan,nan,nan,nan,nan,nan,0.0,nan,nan,nan,nan,nan,nan,nan,nan,nan,nan,nan,nan,nan,nan,nan,nan,nan,nan,908.1454844339884,1279.5398374604927,nan,1279.9298370556548,nan,nan,nan,nan
1,257,0,0,0.0,1.0,0.5808594990617166,0,0.0,0.0,0.0,0.4139050142426644,0.09866879832136237,0.315236215921302,0.5125738125640268,0.09866879832136237,0.46468170724453256,5,3,4,1,0,8,nan,nan,nan,nan,nan,nan,nan,nan,nan,nan,nan,nan,0.0,nan,nan,nan,nan,nan,nan,nan,nan,nan,nan,nan,nan,nan,nan,nan,nan,nan,nan,908.1454844339884,1280.5649644854655,nan,1281.1458239845272,nan,nan,nan,nan
1,258,1,1,1.0,1.0,0.5796971585521078,0,0.0,0.0,0.0,0.414559737712543,0.09902642860894298,0.3155333091036,0.513586166321486,0.09902642860894298,0.5168520842586682,2,0,1,8,6,4,nan,nan,nan,nan,nan,nan,nan,nan,nan,nan,nan,nan,0.0,nan,nan,nan,nan,nan,nan,nan,nan,nan,nan,nan,nan,nan,nan,nan,nan,nan,nan,908.1454844339884,1281.5901023441245,nan,1282.1697995026766,nan,nan,nan,nan
1,259,1,1,1.0,1.0,0.6745349640123095,0,0.0,0.0,0.0,0.4152048057626976,0.09936818768834241,0.31583661807435515,0.51457299345104,0.09936818768834241,0.6116972072087113,4,1,3,7,8,2,nan,nan,nan,nan,nan,nan,nan,nan,nan,nan,nan,nan,0.0,nan,nan,nan,nan,nan,nan,nan,nan,nan,nan,nan,nan,nan,nan,nan,nan,nan,nan,908.1454844339884,1282.6152353561345,nan,1283.2897703201468,nan,nan,nan,nan
1,260,1,1,1.0,1.0,0.5933826703212617,0,0.0,1.0,0.0,0.41621387252631475,0.10048024470444765,0.3157336278218671,0.5166941172307624,0.10048024470444765,0.6158715976285597,3,6,0,2,4,1,nan,nan,nan,nan,nan,nan,nan,nan,nan,nan,nan,nan,0.0,nan,nan,nan,nan,nan,nan,nan,nan,nan,nan,nan,nan,nan,nan,nan,nan,nan,nan,908.1454844339884,1283.6403985884276,nan,1284.2337812587489,nan,nan,nan,nan
1,261,1,1,1.0,1.0,0.5602452746595645,1,0.0,0.0,1.0,0.4169005732929618,0.1008877450467666,0.3160128282461952,0.5177883183397284,0.1008877450467666,0.6093876363310452,6,4,1,0,5,7,1.0,1.0,1.0,1.0,1.0,1.0,1.0,0.0,1.0,1.0,0.0,0.0,3.0,6.0,3.0,1.0,0.0,4.0,6.0,2.0,4.0,3.0,1.0,5.0,6.0,2.013628777463964,4.411621637494591,2.699310179274562,0.8519884661152446,7.739391967904794,10.659379777156573,908.1454844339884,1284.6654928272442,1285.473925597663,1285.2257381019037,1297.1920938037586,1298.189699559069,1286.4907209476169,1297.1837541460231
1,262,1,1,1.0,1.0,0.37614673144844346,0,0.0,0.0,0.0,0.41745402773839274,0.10108445455239111,0.3163695731860016,0.5185384822907838,0.10108445455239111,0.5099248921430899,1,7,3,6,4,8,nan,nan,nan,nan,nan,nan,nan,nan,nan,nan,nan,nan,0.0,nan,nan,nan,nan,nan,nan,nan,nan,nan,nan,nan,nan,nan,nan,nan,nan,nan,nan,908.1454844339884,1298.417304761291,nan,1298.7934514927395,nan,nan,nan,nan
1,263,1,1,1.0,1.0,0.3509954732296592,0,0.0,0.0,0.0,0.41729515352189295,0.10092226770125243,0.3163728858206405,0.5182174212231454,0.10092226770125243,0.4291291597792224,0,2,4,8,3,7,nan,nan,nan,nan,nan,nan,nan,nan,nan,nan,nan,nan,0.0,nan,nan,nan,nan,nan,nan,nan,nan,nan,nan,nan,nan,nan,nan,nan,nan,nan,nan,908.1454844339884,1299.4424272247118,nan,1299.7934226979414,nan,nan,nan,nan
1,264,1,1,1.0,1.0,0.45386218068415474,0,0.0,0.0,0.0,0.41704113175832114,0.10081198836899458,0.31622914338932656,0.5178531201273158,0.10081198836899458,0.3936681284540858,4,8,7,2,5,1,nan,nan,nan,nan,nan,nan,nan,nan,nan,nan,nan,nan,0.0,nan,nan,nan,nan,nan,nan,nan,nan,nan,nan,nan,nan,nan,nan,nan,nan,nan,nan,908.1454844339884,1300.4675508285204,nan,1300.9214130092046,nan,nan,nan,nan
1,265,1,1,1.0,1.0,0.5407266780669033,0,0.0,0.0,0.0,0.4171816701129999,0.10064502831052201,0.31653664180247787,0.5178266984235219,0.10064502831052201,0.44852811066023907,6,2,1,3,7,5,nan,nan,nan,nan,nan,nan,nan,nan,nan,nan,nan,nan,0.0,nan,nan,nan,nan,nan,nan,nan,nan,nan,nan,nan,nan,nan,nan,nan,nan,nan,nan,908.1454844339884,1301.492675572717,nan,1302.0334022507839,nan,nan,nan,nan
1,266,1,1,nan,nan,nan,0,0.0,0.0,0.0,0.4176514229949539,0.10074086443889774,0.31691055855605615,0.5183922874338516,0.10074086443889774,0.49729442937552903,8,3,6,1,0,4,nan,nan,nan,nan,nan,nan,nan,nan,nan,nan,nan,nan,0.0,nan,nan,nan,nan,nan,nan,nan,nan,nan,nan,nan,nan,nan,nan,nan,nan,nan,nan,908.1454844339884,1302.5178216991894,nan,nan,nan,nan,nan,nan
1,267,0,0,0.0,1.0,0.5143560599365173,0,0.0,0.0,0.0,0.4176514229949539,0.10074086443889774,0.31691055855605615,0.5183922874338516,0.10074086443889774,0.5275413690017103,2,7,5,0,3,6,nan,nan,nan,nan,nan,nan,nan,nan,nan,nan,nan,nan,0.0,nan,nan,nan,nan,nan,nan,nan,nan,nan,nan,nan,nan,nan,nan,nan,nan,nan,nan,908.1454844339884,1303.5429495794533,nan,1304.0573056393898,nan,nan,nan,nan
1,268,1,1,1.0,1.0,0.47321599120527935,0,0.0,0.0,0.0,0.41801772843791435,0.10072521479342371,0.3172925136444906,0.5187429432313381,0.10072521479342371,0.49378602557089835,1,0,8,5,7,3,nan,nan,nan,nan,nan,nan,nan,nan,nan,nan,nan,nan,0.0,nan,nan,nan,nan,nan,nan,nan,nan,nan,nan,nan,nan,nan,nan,nan,nan,nan,nan,908.1454844339884,1304.5680939953438,nan,1305.041309986549,nan,nan,nan,nan
1,269,1,1,1.0,1.0,0.5840759635282211,0,0.0,0.0,0.0,0.418226023769112,0.10059193746528003,0.31763408630383194,0.518817961234392,0.10059193746528003,0.5238826715566726,7,6,1,2,4,5,nan,nan,nan,nan,nan,nan,nan,nan,nan,nan,nan,nan,0.0,nan,nan,nan,nan,nan,nan,nan,nan,nan,nan,nan,nan,nan,nan,nan,nan,nan,nan,908.1454844339884,1305.5932315689058,nan,1306.177307532434,nan,nan,nan,nan
1,270,1,1,1.0,1.0,0.534906422608401,0,0.0,1.0,0.0,0.418849519783244,0.10091439711033175,0.31793512267291224,0.5197639168935757,0.10091439711033175,0.5307327924473005,6,3,4,5,0,8,nan,nan,nan,nan,nan,nan,nan,nan,nan,nan,nan,nan,0.0,nan,nan,nan,nan,nan,nan,nan,nan,nan,nan,nan,nan,nan,nan,nan,nan,nan,nan,908.1454844339884,1306.6183648660128,nan,1307.1532712886212,nan,nan,nan,nan
1,271,1,1,1.0,1.0,0.46975947505666227,1,0.0,0.0,1.0,0.41928418983127824,0.10097441165412732,0.3183097781771509,0.5202586014854056,0.10097441165412732,0.5295806203977614,4,2,5,7,1,6,1.0,1.0,1.0,1.0,1.0,1.0,0.0,1.0,1.0,0.0,0.0,0.0,2.0,1.0,2.0,5.0,4.0,8.0,3.0,3.0,2.0,1.0,6.0,5.0,4.0,4.08139690692542,3.401220443280181,1.1051973755108975,10.48067327369472,7.5606053521830745,5.6250432634710705,908.1454844339884,1307.6434881847244,1308.451908410875,1308.113247659781,1319.9867290192833,1320.9964608057182,1309.4687163050971,1319.978389646645
1,272,1,1,1.0,1.0,0.3167459141322979,0,0.0,0.0,0.0,0.41947253044779087,0.10083282567947145,0.31863970476831943,0.5203053561272624,0.10083282567947145,0.44047060393245374,2,5,7,6,8,3,nan,nan,nan,nan,nan,nan,nan,nan,nan,nan,nan,nan,0.0,nan,nan,nan,nan,nan,nan,nan,nan,nan,nan,nan,nan,nan,nan,nan,nan,nan,nan,908.1454844339884,1321.2202602479545,nan,1321.5370061620868,nan,nan,nan,nan
1,273,1,1,1.0,1.0,0.5235735313656278,0,0.0,0.0,0.0,0.41909064711576305,0.10083920855144654,0.3182514385643165,0.5199298556672096,0.10083920855144654,0.43669297351819597,3,1,2,0,7,5,nan,nan,nan,nan,nan,nan,nan,nan,nan,nan,nan,nan,0.0,nan,nan,nan,nan,nan,nan,nan,nan,nan,nan,nan,nan,nan,nan,nan,nan,nan,nan,908.1454844339884,1322.2453869878302,nan,1322.7689605191958,nan,nan,nan,nan
1,274,1,1,1.0,1.0,0.37041485606323477,0,0.0,0.0,0.0,0.41947762076113293,0.10085220411009713,0.31862541665103583,0.52032982487123,0.10085220411009713,0.40357810052038684,7,8,4,1,2,0,nan,nan,nan,nan,nan,nan,nan,nan,nan,nan,nan,nan,0.0,nan,nan,nan,nan,nan,nan,nan,nan,nan,nan,nan,nan,nan,nan,nan,nan,nan,nan,908.1454844339884,1323.2705228508103,nan,1323.6409377068735,nan,nan,nan,nan
1,275,1,1,1.0,1.0,0.3612774968937629,0,0.0,0.0,0.0,0.41929657734896353,0.10070990420835774,0.3185866731406058,0.5200064815573213,0.10070990420835774,0.4184219614408751,2,3,8,7,4,6,nan,nan,nan,nan,nan,nan,nan,nan,nan,nan,nan,nan,0.0,nan,nan,nan,nan,nan,nan,nan,nan,nan,nan,nan,nan,nan,nan,nan,nan,nan,nan,908.1454844339884,1324.2956484502981,nan,1324.656925947192,nan,nan,nan,nan
