block,trial,time,setsize,freqtrials,trials_colorind,trials_colordeg,colorrgb0,colorrgb1,colorrgb2,correct_response,actual_response,acc,rts,probe_trials,rt_triggered_fast,rt_triggered_slow,rt_strailingavg,rts_runningavg,rts_runningstd,rts_runningslowthresh,rts_runningfastthresh,wm_respdeg,wm_respind,wm_resprgb0,wm_resprgb1,wm_resprgb2,wm_respcolorminusorigcolor,wm_rts,time_blockstart,time_encarray_onset,time_response,time_encarray_offest,time_memprobe_onset,time_memprobe_offset
0,0,1612,6,1,13,9,0.950262168777,0.154664060346,-1.0,1,1.0,1.0,0.458934912458,0,nan,nan,nan,nan,nan,nan,nan,nan,nan,0.0,0.0,0.0,nan,nan,735.190090426,736.20313675,736.662071663,736.703184363,nan,nan
0,1,1613,6,1,258,181,0.459642287315,0.26499291187,0.655490062901,1,1.0,1.0,0.274340013973,0,nan,nan,nan,nan,nan,nan,nan,nan,nan,0.0,0.0,0.0,nan,nan,735.190090426,737.211695934,737.486035948,737.711644331,nan,nan
0,2,1614,6,1,392,275,-0.0541067903503,0.475522277549,-0.315549842675,1,1.0,1.0,0.257989985868,0,nan,nan,nan,nan,nan,nan,nan,nan,nan,0.0,0.0,0.0,nan,nan,735.190090426,738.220061535,738.478051521,738.720115704,nan,nan
0,3,1615,6,1,60,42,1.0,-0.0867837676833,-1.0,1,1.0,1.0,0.321502473205,0,nan,nan,nan,nan,nan,nan,nan,nan,nan,0.0,0.0,0.0,nan,nan,735.190090426,739.228524354,739.550026827,739.728573106,nan,nan
0,4,1616,6,0,483,339,0.606025706087,0.319314454546,-1.0,0,0.0,1.0,0.384980177507,0,nan,nan,nan,nan,nan,nan,nan,nan,nan,0.0,0.0,0.0,nan,nan,735.190090426,740.237035926,740.622016103,740.737065576,nan,nan
0,5,1617,6,1,367,258,-0.15309091083,0.477560897992,-0.0350816338538,1,1.0,1.0,0.296542800032,0,nan,nan,nan,nan,nan,nan,nan,nan,nan,0.0,0.0,0.0,nan,nan,735.190090426,741.245473942,741.542016742,741.745507583,nan,nan
0,6,1622,6,1,71,49,1.0,-0.144504067012,-0.877980773838,1,1.0,1.0,0.219971444458,1,nan,nan,nan,nan,nan,nan,nan,66.1169046645,34.0,1.0,0.0514419701458,-1.0,-26.0387796645,1.55050807074,735.190090426,742.305995191,742.525966635,742.812336318,744.129129559,745.687669097
0,7,1623,6,1,310,217,-0.032854544558,0.417080732083,0.468828018046,1,1.0,1.0,0.733331090771,0,nan,nan,nan,nan,nan,nan,nan,nan,nan,0.0,0.0,0.0,nan,nan,735.190090426,746.904506186,747.637837277,747.404627637,nan,nan
0,8,1624,6,1,218,153,0.881467392804,0.0788246127756,0.572559633417,1,1.0,1.0,0.373149791732,0,nan,nan,nan,nan,nan,nan,nan,nan,nan,0.0,0.0,0.0,nan,nan,735.190090426,747.904671542,748.277821334,748.404689789,nan,nan
0,9,1625,6,1,163,114,1.0,-0.214247802105,0.185723682048,1,1.0,1.0,0.331336039118,0,nan,nan,nan,nan,nan,nan,nan,nan,nan,0.0,0.0,0.0,nan,nan,735.190090426,748.946480163,749.277816202,749.446481874,nan,nan
0,10,1626,6,1,327,229,-0.128086156831,0.445480682368,0.344176439252,1,1.0,1.0,0.299177096225,0,nan,nan,nan,nan,nan,nan,nan,nan,nan,0.0,0.0,0.0,nan,nan,735.190090426,749.946608457,750.245785553,750.446615014,nan,nan
0,11,1627,6,1,89,62,1.0,-0.229484098413,-0.587370487375,1,1.0,1.0,0.282760069706,0,nan,nan,nan,nan,nan,nan,nan,nan,nan,0.0,0.0,0.0,nan,nan,735.190090426,750.955042482,751.237802552,751.455087528,nan,nan
0,12,1632,6,1,12,8,0.942476689623,0.159273951266,-1.0,1,1.0,1.0,0.240414041094,1,nan,nan,nan,nan,nan,nan,nan,85.1516952316,7.0,0.9030914636,0.181853060355,-1.0,-3.58919523161,1.96724092774,735.190090426,751.997365703,752.237779744,752.49691525,753.82205271,755.797307715
0,13,1633,6,1,329,231,-0.136053278316,0.448203788942,0.3278337444,1,1.0,1.0,0.359499916434,0,nan,nan,nan,nan,nan,nan,nan,nan,nan,0.0,0.0,0.0,nan,nan,735.190090426,757.01415079,757.373650706,757.514194694,nan,nan
0,14,1634,6,1,87,61,1.0,-0.220959007447,-0.612675615602,1,1.0,1.0,0.359356513247,0,nan,nan,nan,nan,nan,nan,nan,nan,nan,0.0,0.0,0.0,nan,nan,735.190090426,758.014293623,758.373650136,758.514351498,nan,nan
0,15,1635,6,1,497,349,0.723174939644,0.271260599794,-1.0,1,1.0,1.0,0.294854740612,0,nan,nan,nan,nan,nan,nan,nan,nan,nan,0.0,0.0,0.0,nan,nan,735.190090426,759.022770127,759.317624868,759.522794646,nan,nan
0,16,1636,6,1,56,39,1.0,-0.0653675053377,-1.0,1,1.0,1.0,0.310363447294,0,nan,nan,nan,nan,nan,nan,nan,nan,nan,0.0,0.0,0.0,nan,nan,735.190090426,760.031236368,760.341599816,760.531262312,nan,nan
0,17,1637,6,0,467,328,0.473005185182,0.365775667588,-1.0,0,0.0,1.0,0.342176851816,0,nan,nan,nan,nan,nan,nan,nan,nan,nan,0.0,0.0,0.0,nan,nan,735.190090426,761.03138633,761.373563182,761.531417405,nan,nan
0,18,1638,6,1,211,148,0.948675772315,0.0413606888024,0.538689155053,1,1.0,1.0,0.285728785209,0,nan,nan,nan,nan,nan,nan,nan,nan,nan,0.0,0.0,0.0,nan,nan,735.190090426,762.039828907,762.325557692,762.539853426,nan,nan
0,19,1639,6,1,385,270,-0.0879796604702,0.477733444059,-0.233926720364,1,1.0,1.0,0.549240814522,0,nan,nan,nan,nan,nan,nan,nan,nan,nan,0.0,0.0,0.0,nan,nan,735.190090426,763.048281749,763.597522563,763.54836072,nan,nan
0,20,1640,6,0,256,180,0.481312611765,0.257047908656,0.656065722404,0,0.0,1.0,0.325080724433,0,nan,nan,nan,nan,nan,nan,nan,nan,nan,0.0,0.0,0.0,nan,nan,735.190090426,764.048437697,764.373518421,764.548469057,nan,nan
0,21,1641,6,1,126,88,1.0,-0.311411754845,-0.177408431044,1,1.0,1.0,0.292934326455,0,nan,nan,nan,nan,nan,nan,nan,nan,nan,0.0,0.0,0.0,nan,nan,735.190090426,765.048551165,765.341485492,765.548584237,nan,nan
0,22,1642,6,1,281,197,0.218083397074,0.345068392493,0.612644422055,1,1.0,1.0,0.283783853054,0,nan,nan,nan,nan,nan,nan,nan,nan,nan,0.0,0.0,0.0,nan,nan,735.190090426,766.07369216,766.357476013,766.57370727,nan,nan
0,23,1643,6,1,415,291,0.0813077335083,0.459153678902,-0.614968023274,1,1.0,1.0,0.4436203558,0,nan,nan,nan,nan,nan,nan,nan,nan,nan,0.0,0.0,0.0,nan,nan,735.190090426,767.073817887,767.517438243,767.5738387,nan,nan
0,24,1644,6,1,140,98,1.0,-0.294209249228,-0.0345777392028,1,1.0,1.0,0.315481508151,0,nan,nan,nan,nan,nan,nan,nan,nan,nan,0.0,0.0,0.0,nan,nan,735.190090426,768.073937058,768.389418567,768.573967278,nan,nan
0,25,1645,6,1,0,0,0.846831709088,0.212097570855,-1.0,1,1.0,1.0,0.243366505019,0,nan,nan,nan,nan,nan,nan,nan,nan,nan,0.0,0.0,0.0,nan,nan,735.190090426,769.074091581,769.317458086,769.574101844,nan,nan
0,26,1646,6,1,142,99,1.0,-0.289568116499,-0.0146273521697,1,1.0,1.0,0.37117634993,0,nan,nan,nan,nan,nan,nan,nan,nan,nan,0.0,0.0,0.0,nan,nan,735.190090426,770.074205049,770.445381399,770.574225006,nan,nan
0,27,1647,6,1,442,310,0.273907262724,0.421095538958,-1.0,1,1.0,1.0,0.273331912234,0,nan,nan,nan,nan,nan,nan,nan,nan,nan,0.0,0.0,0.0,nan,nan,735.190090426,771.11601424,771.389346153,771.6160265,nan,nan
0,28,1648,6,1,65,45,1.0,-0.113312155659,-1.0,1,1.0,1.0,0.248883132823,0,nan,nan,nan,nan,nan,nan,nan,nan,nan,0.0,0.0,0.0,nan,nan,735.190090426,772.124458244,772.373341377,772.624501579,nan,nan
0,29,1649,6,1,290,203,0.131265381085,0.370776544741,0.578206616232,1,1.0,1.0,0.22440384794,0,nan,nan,nan,nan,nan,nan,nan,nan,nan,0.0,0.0,0.0,nan,nan,735.190090426,773.132937884,773.357341732,773.632960977,nan,nan
0,30,1650,6,1,339,238,-0.164955840019,0.45996923152,0.241423096872,1,1.0,1.0,0.223958810791,0,nan,nan,nan,nan,nan,nan,nan,nan,nan,0.0,0.0,0.0,nan,nan,735.190090426,774.141379037,774.365337848,774.641427218,nan,nan
0,31,1651,6,1,295,207,0.0860222946478,0.38372732295,0.554986075565,1,1.0,1.0,0.207441716455,0,nan,nan,nan,nan,nan,nan,nan,nan,nan,0.0,0.0,0.0,nan,nan,735.190090426,775.149864949,775.357306666,775.649886332,nan,nan
0,32,1652,6,1,356,250,-0.17284377641,0.473239407326,0.0788368070227,1,1.0,1.0,0.206965318881,0,nan,nan,nan,nan,nan,nan,nan,nan,nan,0.0,0.0,0.0,nan,nan,735.190090426,776.158321497,776.365286816,776.658344304,nan,nan
0,33,1653,6,1,152,106,1.0,-0.259184487343,0.0830625546756,1,1.0,1.0,0.246448119171,0,nan,nan,nan,nan,nan,nan,nan,nan,nan,0.0,0.0,0.0,nan,nan,735.190090426,777.166774623,777.413222742,777.66681083,nan,nan
0,34,1654,6,1,427,300,0.163265173604,0.444863218481,-0.840208708629,1,1.0,1.0,0.214267509058,0,nan,nan,nan,nan,nan,nan,nan,nan,nan,0.0,0.0,0.0,nan,nan,735.190090426,778.166933137,778.381200646,778.66694169,nan,nan
0,35,1655,6,1,248,174,0.568115903494,0.223728204869,0.653295769881,1,1.0,1.0,0.197863027453,0,nan,nan,nan,nan,nan,nan,nan,nan,nan,0.0,0.0,0.0,nan,nan,735.190090426,779.175365166,779.373228193,779.675401088,nan,nan
0,36,1656,6,0,478,336,0.56422249903,0.334793662244,-1.0,0,1.0,0.0,0.197661748156,0,0.0,0.0,nan,nan,nan,nan,nan,nan,nan,0.0,0.0,0.0,nan,nan,735.190090426,780.175529097,780.373190845,780.675567015,nan,nan
0,37,1657,6,1,188,132,1.0,-0.0857393506835,0.392804289229,1,1.0,1.0,0.413180832751,0,nan,nan,nan,nan,nan,nan,nan,nan,nan,0.0,0.0,0.0,nan,nan,735.190090426,781.183972815,781.597153648,781.683997333,nan,nan
0,38,1658,6,1,493,346,0.689769084006,0.285700779988,-1.0,1,1.0,1.0,0.26902124472,0,nan,nan,nan,nan,nan,nan,nan,nan,nan,0.0,0.0,0.0,nan,nan,735.190090426,782.184107951,782.453129196,782.684129903,nan,nan
0,39,1659,6,0,64,45,1.0,-0.108036866323,-1.0,0,0.0,1.0,0.332854465581,0,nan,nan,nan,nan,nan,nan,nan,nan,nan,0.0,0.0,0.0,nan,nan,735.190090426,783.184258767,783.517113233,783.684291269,nan,nan
0,40,1700,6,1,444,312,0.289241202529,0.417409780569,-1.0,1,1.0,1.0,0.260403903201,0,nan,nan,nan,nan,nan,nan,nan,nan,nan,0.0,0.0,0.0,nan,nan,735.190090426,784.192676541,784.453080445,784.692722443,nan,nan
0,41,1701,6,1,33,23,1.0,0.0565990290419,-1.0,1,1.0,1.0,0.275914605707,0,nan,nan,nan,nan,nan,nan,nan,nan,nan,0.0,0.0,0.0,nan,nan,735.190090426,785.201149625,785.47706423,785.701187258,nan,nan
0,42,1702,6,0,271,190,0.320642857732,0.312811632898,0.639400143054,0,1.0,0.0,0.34773567412,0,0.0,0.0,nan,nan,nan,nan,nan,nan,nan,0.0,0.0,0.0,nan,nan,735.190090426,786.20131327,786.549048944,786.701350903,nan,nan
0,43,1703,6,1,67,47,1.0,-0.12380466598,-1.0,1,1.0,1.0,0.283627904952,0,nan,nan,nan,nan,nan,nan,nan,nan,nan,0.0,0.0,0.0,nan,nan,735.190090426,787.201424173,787.485052078,787.701468648,nan,nan
0,44,1708,6,1,146,102,1.0,-0.278792578557,0.0248813210997,1,1.0,1.0,0.243413831107,1,nan,nan,nan,nan,nan,nan,nan,-102.059180689,273.0,0.299732959835,0.319577193062,0.635038033336,89.4029306895,1.80887238961,735.190090426,788.20157727,788.444991102,788.701604069,790.026743525,791.843644246
0,45,1709,6,1,208,146,0.97651257568,0.025020743352,0.522574479073,1,1.0,1.0,0.480740842409,0,nan,nan,nan,nan,nan,nan,nan,nan,nan,0.0,0.0,0.0,nan,nan,735.190090426,793.052187292,793.532928134,793.552197841,nan,nan
0,46,1710,6,1,443,311,0.281558783006,0.419268214519,-1.0,1,1.0,1.0,0.296605805866,0,nan,nan,nan,nan,nan,nan,nan,nan,nan,0.0,0.0,0.0,nan,nan,735.190090426,794.052315586,794.348921392,794.552329271,nan,nan
0,47,1711,6,1,492,345,0.681403316433,0.289222019555,-1.0,1,1.0,1.0,0.28045192454,0,nan,nan,nan,nan,nan,nan,nan,nan,nan,0.0,0.0,0.0,nan,nan,735.190090426,795.052439318,795.332891243,795.552464122,nan,nan
0,48,1712,6,1,158,111,1.0,-0.235949227405,0.139764106,1,1.0,1.0,0.327941959724,0,nan,nan,nan,nan,nan,nan,nan,nan,nan,0.0,0.0,0.0,nan,nan,735.190090426,796.060885602,796.388827561,796.560926371,nan,nan
0,49,1713,6,1,469,329,0.489482198204,0.360453357602,-1.0,1,1.0,1.0,0.263485801406,0,nan,nan,nan,nan,nan,nan,nan,nan,nan,0.0,0.0,0.0,nan,nan,735.190090426,797.069342149,797.332827951,797.569394322,nan,nan
0,50,1714,6,0,168,118,1.0,-0.190790017254,0.230361799274,0,1.0,0.0,0.231297208928,0,0.0,0.0,nan,nan,nan,nan,nan,nan,nan,0.0,0.0,0.0,nan,nan,735.190090426,798.069516914,798.300814123,798.56953459,nan,nan
0,51,1715,6,1,463,325,0.440238315199,0.376011795327,-1.0,1,1.0,1.0,0.27887277212,0,nan,nan,nan,nan,nan,nan,nan,nan,nan,0.0,0.0,0.0,nan,nan,735.190090426,799.077940105,799.356812878,799.57798344,nan,nan
0,52,1716,6,1,72,50,1.0,-0.149607777062,-0.853203742106,1,1.0,1.0,0.286682719365,0,nan,nan,nan,nan,nan,nan,nan,nan,nan,0.0,0.0,0.0,nan,nan,735.190090426,800.078092062,800.364774781,800.578117721,nan,nan
0,53,1717,6,1,299,210,0.0516645560415,0.393417669654,0.534378752182,1,1.0,1.0,0.318491563201,0,nan,nan,nan,nan,nan,nan,nan,nan,nan,0.0,0.0,0.0,nan,nan,735.190090426,801.078271958,801.396763521,801.578263691,nan,nan
0,54,1718,6,1,235,165,0.707591924495,0.164537776567,0.631659631194,1,1.0,1.0,0.302382441238,0,nan,nan,nan,nan,nan,nan,nan,nan,nan,0.0,0.0,0.0,nan,nan,735.190090426,802.078356062,802.380738503,802.578368891,nan,nan
0,55,1719,6,1,476,334,0.547545041103,0.340739382997,-1.0,1,1.0,1.0,0.302204541862,0,nan,nan,nan,nan,nan,nan,nan,nan,nan,0.0,0.0,0.0,nan,nan,735.190090426,803.07848293,803.380687471,803.578523128,nan,nan
0,56,1720,6,1,304,213,0.0113092810281,0.404708921832,0.506160370659,1,1.0,1.0,0.334087794647,0,nan,nan,nan,nan,nan,nan,nan,nan,nan,0.0,0.0,0.0,nan,nan,735.190090426,804.078592123,804.412679917,804.578635172,nan,nan
0,57,1721,6,1,172,120,1.0,-0.170984061773,0.265024678188,1,1.0,1.0,0.285590227693,0,nan,nan,nan,nan,nan,nan,nan,nan,nan,0.0,0.0,0.0,nan,nan,735.190090426,805.087058933,805.372649161,805.58709343,nan,nan
0,58,1722,6,1,84,59,1.0,-0.20765784414,-0.652191087791,1,1.0,1.0,0.309439733624,0,nan,nan,nan,nan,nan,nan,nan,nan,nan,0.0,0.0,0.0,nan,nan,735.190090426,806.087185516,806.39662525,806.587233127,nan,nan
0,59,1723,6,1,35,24,1.0,0.0462653595507,-1.0,1,1.0,1.0,0.301329863258,0,nan,nan,nan,nan,nan,nan,nan,nan,nan,0.0,0.0,0.0,nan,nan,735.190090426,807.087335763,807.388665626,807.587367693,nan,nan
0,60,1727,6,1,468,329,0.481236483515,0.363131620867,-1.0,1,1.0,1.0,0.325128336437,1,nan,nan,nan,nan,nan,nan,nan,130.467738291,454.0,0.367627362238,0.397084843583,-1.0,-9.5302382913,1.44215381704,735.190090426,808.087457499,808.412585835,808.58749114,809.912652262,811.362839828
0,61,1728,6,1,113,79,1.0,-0.302191989669,-0.314576349441,1,1.0,1.0,0.310044993646,0,nan,nan,nan,nan,nan,nan,nan,nan,nan,0.0,0.0,0.0,nan,nan,735.190090426,812.654498631,812.964543625,813.154761205,nan,nan
0,62,1729,6,1,23,16,1.0,0.106943944166,-1.0,1,1.0,1.0,0.301640334539,0,nan,nan,nan,nan,nan,nan,nan,nan,nan,0.0,0.0,0.0,nan,nan,735.190090426,813.654827918,813.956468252,814.154897481,nan,nan
0,63,1730,6,1,177,124,1.0,-0.145192147526,0.306921212481,1,1.0,1.0,0.237497213297,0,nan,nan,nan,nan,nan,nan,nan,nan,nan,0.0,0.0,0.0,nan,nan,735.190090426,814.6549813,814.892478514,815.155004678,nan,nan
0,64,1731,6,1,249,175,0.557275547736,0.228026269286,0.654084877906,1,1.0,1.0,0.173412537202,0,nan,nan,nan,nan,nan,nan,nan,nan,nan,0.0,0.0,0.0,nan,nan,735.190090426,815.6550999,815.828512438,816.155156065,nan,nan
0,65,1732,6,1,348,244,-0.175384772129,0.468017843042,0.157582163916,1,1.0,1.0,0.173209547997,0,nan,nan,nan,nan,nan,nan,nan,nan,nan,0.0,0.0,0.0,nan,nan,735.190090426,816.65522905,816.828438598,817.155291486,nan,nan
0,66,1733,6,1,179,125,1.0,-0.13461441766,0.323204131591,1,1.0,1.0,0.181028903462,0,nan,nan,nan,nan,nan,nan,nan,nan,nan,0.0,0.0,0.0,nan,nan,735.190090426,817.655371883,817.836400786,818.155428617,nan,nan
0,67,1734,6,1,112,78,1.0,-0.300501516081,-0.325324861792,1,1.0,1.0,0.228898687288,0,nan,nan,nan,nan,nan,nan,nan,nan,nan,0.0,0.0,0.0,nan,nan,735.190090426,818.655493905,818.884392592,819.155531823,nan,nan
0,68,1735,6,1,419,294,0.107894673663,0.454841969249,-0.678098861371,1,1.0,1.0,0.252736789174,0,nan,nan,nan,nan,nan,nan,nan,nan,nan,0.0,0.0,0.0,nan,nan,735.190090426,819.655625619,819.908362408,820.155645861,nan,nan
0,69,1736,6,1,74,52,1.0,-0.159715158178,-0.810443278181,1,1.0,1.0,0.260620290413,0,nan,nan,nan,nan,nan,nan,nan,nan,nan,0.0,0.0,0.0,nan,nan,735.190090426,820.655734812,820.916355102,821.155781282,nan,nan
0,70,1737,6,1,426,299,0.156193047225,0.446210853967,-0.81485970128,1,1.0,1.0,0.236488539726,0,nan,nan,nan,nan,nan,nan,nan,nan,nan,0.0,0.0,0.0,nan,nan,735.190090426,821.655865956,821.892354496,822.155905585,nan,nan
0,71,1738,6,1,502,352,0.764740937618,0.25241357569,-1.0,1,1.0,1.0,0.27628209535,0,nan,nan,nan,nan,nan,nan,nan,nan,nan,0.0,0.0,0.0,nan,nan,735.190090426,822.656007079,822.932289175,823.156045567,nan,nan
0,72,1739,6,1,422,296,0.128328379107,0.451313674078,-0.730894888444,1,1.0,1.0,0.284131101333,0,nan,nan,nan,nan,nan,nan,nan,nan,nan,0.0,0.0,0.0,nan,nan,735.190090426,823.656139649,823.940270751,824.156175287,nan,nan
0,73,1740,6,1,185,130,1.0,-0.102214474652,0.370299946716,1,1.0,1.0,0.259989086539,0,nan,nan,nan,nan,nan,nan,nan,nan,nan,0.0,0.0,0.0,nan,nan,735.190090426,824.656272504,824.916261591,825.156316695,nan,nan
0,74,1741,6,1,285,200,0.178734351563,0.356878681702,0.598527012995,1,1.0,1.0,0.275851028971,0,nan,nan,nan,nan,nan,nan,nan,nan,nan,0.0,0.0,0.0,nan,nan,735.190090426,825.656411347,825.932262376,826.156427027,nan,nan
0,75,1742,6,1,176,123,1.0,-0.150429669724,0.298675466069,1,1.0,1.0,0.283702599816,0,nan,nan,nan,nan,nan,nan,nan,nan,nan,0.0,0.0,0.0,nan,nan,735.190090426,826.656517688,826.940220288,827.156550189,nan,nan
0,76,1743,6,1,495,348,0.706485112283,0.278551693791,-1.0,1,1.0,1.0,0.243243343197,0,nan,nan,nan,nan,nan,nan,nan,nan,nan,0.0,0.0,0.0,nan,nan,735.190090426,827.664988776,827.908232119,828.165030114,nan,nan
0,77,1744,6,1,449,315,0.328095008353,0.407646248688,-1.0,1,1.0,1.0,0.33110425435,0,nan,nan,nan,nan,nan,nan,nan,nan,nan,0.0,0.0,0.0,nan,nan,735.190090426,828.665121631,828.996225885,829.165156127,nan,nan
0,78,1745,6,1,162,113,1.0,-0.218739557155,0.176632971453,1,1.0,1.0,0.26657112129,0,nan,nan,nan,nan,nan,nan,nan,nan,nan,0.0,0.0,0.0,nan,nan,735.190090426,829.673578178,829.940149299,830.173618376,nan,nan
0,79,1746,6,1,65,45,1.0,-0.113312155659,-1.0,1,1.0,1.0,0.250472548418,0,nan,nan,nan,nan,nan,nan,nan,nan,nan,0.0,0.0,0.0,nan,nan,735.190090426,830.673711888,830.924184437,831.173752087,nan,nan
0,80,1747,6,0,262,184,0.416452475899,0.2804144186,0.652815538838,0,0.0,1.0,0.378296363167,0,0.0,0.0,0.298446677625,0.295876634819,0.0823711513795,0.378247786199,0.21350548344,nan,nan,0.0,0.0,0.0,nan,nan,735.190090426,831.673837046,832.052133409,832.173904044,nan,nan
0,81,1748,6,1,459,322,0.407758158413,0.385709174134,-1.0,1,1.0,1.0,0.250161508098,0,0.0,0.0,0.292976806561,0.29689416233,0.0823654663376,0.379259628668,0.214528695992,nan,nan,0.0,0.0,0.0,nan,nan,735.190090426,832.673974748,832.924136256,833.17402464,nan,nan
0,82,1749,6,1,51,35,1.0,-0.0385160204876,-1.0,1,1.0,1.0,0.265939916484,0,0.0,0.0,0.298132595917,0.296324251912,0.0820222293777,0.37834648129,0.214302022535,nan,nan,0.0,0.0,0.0,nan,nan,735.190090426,833.674118152,833.940058068,834.174138679,nan,nan
0,83,1750,6,1,143,100,1.0,-0.287057525782,-0.00469998909502,1,1.0,1.0,0.281857453287,0,0.0,0.0,0.265986292623,0.295958175582,0.0815939894169,0.377552164999,0.214364186165,nan,nan,0.0,0.0,0.0,nan,nan,735.190090426,834.674256423,834.956113877,835.174264407,nan,nan
0,84,1751,6,1,433,304,0.206536295144,0.436163724167,-1.0,1,1.0,1.0,0.233692878857,0,0.0,0.0,0.260496749543,0.29579030984,0.0811212738073,0.376911583648,0.214669036033,nan,nan,0.0,0.0,0.0,nan,nan,735.190090426,835.674369037,835.908061916,836.174411802,nan,nan
0,85,1752,6,1,100,70,1.0,-0.270427092546,-0.457439896749,1,1.0,1.0,0.249541136436,0,0.0,0.0,0.255030489527,0.295059751829,0.0809201679613,0.37597991979,0.214139583868,nan,nan,0.0,0.0,0.0,nan,nan,735.190090426,836.674497901,836.924039037,837.174519284,nan,nan
0,86,1753,6,1,7,4,0.9030914636,0.181853060355,-1.0,1,1.0,1.0,0.273388646543,0,0.0,0.0,0.252207553945,0.294530465603,0.0805961874074,0.375126653011,0.213934278196,nan,nan,0.0,0.0,0.0,nan,nan,735.190090426,837.674620207,837.948008854,838.174652424,nan,nan
0,87,1754,6,1,224,157,0.821619416966,0.11002478857,0.597264883709,1,1.0,1.0,0.272937337868,0,0.0,0.0,0.265289040282,0.294287456189,0.0801633350827,0.374450791272,0.214124121106,nan,nan,0.0,0.0,0.0,nan,nan,735.190090426,838.683070198,838.956007536,839.183125792,nan,nan
0,88,1755,6,1,494,347,0.698129958021,0.282143999684,-1.0,1,1.0,1.0,0.26474593021,0,0.0,0.0,0.270357304874,0.294044841208,0.0797386778128,0.373783519021,0.214306163395,nan,nan,0.0,0.0,0.0,nan,nan,735.190090426,839.683239831,839.947985761,840.183245532,nan,nan
0,89,1756,6,1,83,58,1.0,-0.203097876184,-0.665876706514,1,1.0,1.0,0.272581251338,0,0.0,0.0,0.270088173139,0.293715639961,0.0793495590218,0.373065198983,0.214366080939,nan,nan,0.0,0.0,0.0,nan,nan,735.190090426,840.683346742,840.955927993,841.183368124,nan,nan
0,90,1757,6,1,437,307,0.23613482661,0.429770237144,-1.0,1,1.0,1.0,0.280416572466,0,0.0,0.0,0.272581251338,0.29348081342,0.0789385888929,0.372419402313,0.214542224528,nan,nan,0.0,0.0,0.0,nan,nan,735.190090426,841.683481593,841.963898165,842.183511813,nan,nan
0,91,1758,6,1,227,159,0.791019951953,0.125257787881,0.608066708266,1,1.0,1.0,0.279976382852,0,0.0,0.0,0.277658068885,0.293337250333,0.0785154756444,0.371852725977,0.214821774689,nan,nan,0.0,0.0,0.0,nan,nan,735.190090426,842.691940991,842.971917374,843.191987462,nan,nan
0,92,1759,6,1,175,123,1.0,-0.155629953633,0.290361762956,1,1.0,1.0,0.255839213729,0,0.0,0.0,0.272077389682,0.293192023513,0.0780998834234,0.371291906936,0.215092140089,nan,nan,0.0,0.0,0.0,nan,nan,735.190090426,843.692069856,843.947909069,844.192093804,nan,nan
0,93,1800,6,0,414,291,0.0747837862165,0.460162189034,-0.600089175003,0,1.0,0.0,0.23163134139,0,0.0,0.0,0.25581564599,0.292790380397,0.0777743271521,0.370564707549,0.215016053245,nan,nan,0.0,0.0,0.0,nan,nan,735.190090426,844.692220957,844.923852298,845.192320171,nan,nan
0,94,1801,6,1,332,233,-0.146647089803,0.45205423783,0.302714191958,1,1.0,1.0,0.415171951056,0,0.0,0.0,0.300880835392,0.292139752322,0.0776135620218,0.369753314344,0.2145261903,nan,nan,0.0,0.0,0.0,nan,nan,735.190090426,845.700658972,846.115830923,846.200703733,nan,nan
0,95,1802,6,1,290,203,0.131265381085,0.370776544741,0.578206616232,1,1.0,1.0,0.303051278926,0,0.0,0.0,0.316618190457,0.293434828098,0.0782183782966,0.371653206395,0.215216449802,nan,nan,0.0,0.0,0.0,nan,nan,735.190090426,846.700784416,847.003835695,847.200825755,nan,nan
0,96,1803,6,0,338,237,-0.162891363375,0.458928707883,0.250399161362,0,0.0,1.0,0.390868856572,0,0.0,0.0,0.369697362185,0.293534999461,0.0778160497618,0.371351049223,0.215718949699,nan,nan,0.0,0.0,0.0,nan,nan,735.190090426,847.700944925,848.091813781,848.200975715,nan,nan
0,97,1804,6,1,7,4,0.9030914636,0.181853060355,-1.0,1,1.0,1.0,0.29440827854,0,0.0,0.0,0.329442804679,0.294538441287,0.0780357187928,0.37257416008,0.216502722494,nan,nan,0.0,0.0,0.0,nan,nan,735.190090426,848.709389213,849.003797492,849.20943825,nan,nan
0,98,1805,6,1,433,304,0.206536295144,0.436163724167,-1.0,1,1.0,1.0,0.293886265717,0,0.0,0.0,0.326387800276,0.294537113096,0.0776365575903,0.372173670686,0.216900555505,nan,nan,0.0,0.0,0.0,nan,nan,735.190090426,849.717845476,850.011731742,850.217876837,nan,nan
0,99,1806,6,1,354,248,-0.174470673547,0.472100788149,0.0988677247603,1,1.0,1.0,0.277764029801,0,0.0,0.0,0.288686191353,0.29453053888,0.0772434859874,0.371774024867,0.217287052892,nan,nan,0.0,0.0,0.0,nan,nan,735.190090426,850.717983178,850.995747208,851.218012542,nan,nan
0,100,1807,6,1,270,189,0.331159066004,0.309369715406,0.641393874915,1,1.0,1.0,0.285614175722,0,0.0,0.0,0.285754823747,0.294362873789,0.076874401545,0.371237275334,0.217488472244,nan,nan,0.0,0.0,0.0,nan,nan,735.190090426,851.718122875,852.003737051,852.218146823,nan,nan
0,101,1808,6,1,144,101,1.0,-0.284423189345,0.00519445478499,1,1.0,1.0,0.293157557026,0,0.0,0.0,0.285511920849,0.294276253016,0.0764977928361,0.370774045852,0.21777846018,nan,nan,0.0,0.0,0.0,nan,nan,735.190090426,852.726551198,853.019708755,853.22660223,nan,nan
0,102,1809,6,1,359,252,-0.169222339917,0.474741883077,0.0483828026834,1,1.0,1.0,0.256715317257,0,0.0,0.0,0.278495683335,0.294265285408,0.0761219598318,0.37038724524,0.218143325576,nan,nan,0.0,0.0,0.0,nan,nan,735.190090426,853.755001029,854.011716346,854.260066632,nan,nan
0,103,1810,6,1,118,82,1.0,-0.308588151016,-0.261285249573,1,1.0,1.0,0.275470709428,0,0.0,0.0,0.275114527903,0.293900722611,0.0758409611632,0.369741683774,0.218059761447,nan,nan,0.0,0.0,0.0,nan,nan,735.190090426,854.760165276,855.035635985,855.260192646,nan,nan
0,104,1811,6,1,233,163,0.728670395113,0.154909781369,0.626482233315,1,1.0,1.0,0.25900920853,0,0.0,0.0,0.263731745072,0.293723510945,0.0754968856056,0.369220396551,0.21822662534,nan,nan,0.0,0.0,0.0,nan,nan,735.190090426,855.768643776,856.027652984,856.268650903,nan,nan
0,105,1812,6,1,367,258,-0.15309091083,0.477560897992,-0.0350816338538,1,1.0,1.0,0.47483904846,0,0.0,0.0,0.336439655473,0.293392898541,0.0752121253125,0.368605023854,0.218180773229,nan,nan,0.0,0.0,0.0,nan,nan,735.190090426,856.768754679,857.243593727,857.268780908,nan,nan
0,106,1813,6,1,66,46,1.0,-0.118568705386,-1.0,1,1.0,1.0,0.290350207128,0,0.0,0.0,0.341399488039,0.295104654673,0.0768840594989,0.371988714172,0.218220595174,nan,nan,0.0,0.0,0.0,nan,nan,735.190090426,857.777234605,858.067584812,858.277284496,nan,nan
0,107,1815,6,1,204,143,1.0,0.00303256528985,0.499654420455,1,1.0,1.0,0.329769430682,0,0.0,0.0,0.364986228757,0.295060220584,0.0765253122649,0.371585532848,0.218534908319,nan,nan,0.0,0.0,0.0,nan,nan,735.190090426,858.785802624,859.115572055,859.285718806,nan,nan
0,108,1816,6,1,146,102,1.0,-0.278792578557,0.0248813210997,1,1.0,1.0,0.3137230305,0,0.0,0.0,0.311280889437,0.295381602159,0.0762427154996,0.371624317658,0.219138886659,nan,nan,0.0,0.0,0.0,nan,nan,735.190090426,859.785826858,860.099549889,860.285869623,nan,nan
0,109,1817,6,1,407,286,0.0305886347219,0.46645515455,-0.502577406972,1,0.0,0.0,0.353242892772,0,0.0,0.0,0.332245117985,0.295549872143,0.0759123167347,0.371462188878,0.219637555409,nan,nan,0.0,0.0,0.0,nan,nan,735.190090426,860.794282265,861.147525158,861.294319328,nan,nan
0,110,1818,6,1,334,234,-0.152796554809,0.454467054946,0.285576400052,1,1.0,1.0,0.441091829911,0,0.0,0.0,0.369352584394,0.296074354149,0.0757646071947,0.371838961344,0.220309746954,nan,nan,0.0,0.0,0.0,nan,nan,735.190090426,861.794406568,862.235498398,862.294439353,nan,nan
0,111,1819,6,1,77,54,1.0,-0.174593022316,-0.756267193339,1,1.0,1.0,0.320956796408,0,0.0,0.0,0.371763839697,0.297380817895,0.0766571244887,0.374037942383,0.220723693406,nan,nan,0.0,0.0,0.0,nan,nan,735.190090426,862.794536572,863.115493368,863.294584753,nan,nan
0,112,1820,6,1,338,237,-0.162891363375,0.458928707883,0.250399161362,1,1.0,1.0,0.352802132256,0,0.0,0.0,0.371616919525,0.297591317703,0.0763463559564,0.373937673659,0.221244961746,nan,nan,0.0,0.0,0.0,nan,nan,735.190090426,863.794671423,864.147473555,864.294715612,nan,nan
0,113,1821,6,1,498,350,0.731507943485,0.267561876527,-1.0,1,1.0,1.0,0.312624837272,0,0.0,0.0,0.328794588645,0.298079908982,0.0761834684711,0.374263377453,0.221896440511,nan,nan,0.0,0.0,0.0,nan,nan,735.190090426,864.79481226,865.107437097,865.294823664,nan,nan
0,114,1822,6,1,297,208,0.0686262056446,0.388646276542,0.544904663634,1,1.0,1.0,0.368507557549,0,0.0,0.0,0.344644842359,0.298207496072,0.075860719403,0.374068215475,0.222346776669,nan,nan,0.0,0.0,0.0,nan,nan,735.190090426,865.794923163,866.163430721,866.294963362,nan,nan
0,115,1823,6,1,148,104,1.0,-0.272695592461,0.0444264621409,1,1.0,1.0,0.368328801356,0,0.0,0.0,0.349820398726,0.298818800955,0.075811659146,0.374630460101,0.223007141809,nan,nan,0.0,0.0,0.0,nan,nan,735.190090426,866.795067137,867.163395938,867.295085099,nan,nan
0,116,1824,6,1,321,225,-0.0999433513493,0.43654647086,0.391174984052,1,1.0,1.0,0.335849409923,0,0.0,0.0,0.357561922943,0.299418025096,0.0757572045777,0.375175229674,0.223660820518,nan,nan,0.0,0.0,0.0,nan,nan,735.190090426,867.803529671,868.139379081,868.303558181,nan,nan
0,117,1825,6,1,499,350,0.739831889234,0.263827757734,-1.0,1,1.0,1.0,0.30028384272,0,0.0,0.0,0.334820684666,0.299729404454,0.0755072742909,0.375236678744,0.224222130163,nan,nan,0.0,0.0,0.0,nan,nan,735.190090426,868.887055398,869.187339241,869.387022327,nan,nan
0,118,1826,6,1,436,306,0.228681708805,0.431413732101,-1.0,1,1.0,1.0,0.316181992181,0,0.0,0.0,0.317438414941,0.299734103083,0.0751866646514,0.374920767734,0.224547438432,nan,nan,0.0,0.0,0.0,nan,nan,735.190090426,869.887138646,870.203320638,870.387157748,nan,nan
0,119,1827,6,1,112,78,1.0,-0.300501516081,-0.325324861792,1,1.0,1.0,0.323694868945,0,0.0,0.0,0.313386901282,0.299872320638,0.0748851409318,0.37475746157,0.224987179707,nan,nan,0.0,0.0,0.0,nan,nan,735.190090426,870.895593768,871.219288637,871.395640239,nan,nan
0,120,1828,6,1,325,228,-0.119404900653,0.442631039184,0.360186421743,1,1.0,1.0,0.315546225756,0,0.0,0.0,0.318474362294,0.300070841874,0.0746039051748,0.374674747049,0.2254669367,nan,nan,0.0,0.0,0.0,nan,nan,735.190090426,871.895725198,872.211271424,872.395765967,nan,nan
0,121,1829,6,0,115,80,1.0,-0.305166285737,-0.293172749504,0,0.0,1.0,0.451396946795,0,0.0,0.0,0.363546013832,0.300198737609,0.0743081938437,0.374506931453,0.225890543765,nan,nan,0.0,0.0,0.0,nan,nan,735.190090426,872.895872023,873.34726897,873.395902528,nan,nan
0,122,1830,6,1,330,232,-0.139766326074,0.449518327743,0.319540245599,1,1.0,1.0,0.251241454855,0,0.0,0.0,0.339394875802,0.301438067192,0.0752482308707,0.376686298063,0.226189836322,nan,nan,0.0,0.0,0.0,nan,nan,735.190090426,873.895988057,874.147229512,874.396012861,nan,nan
0,123,1831,6,1,40,28,1.0,0.0201165467467,-1.0,1,1.0,1.0,0.266827709042,0,0.0,0.0,0.32315537023,0.301029964653,0.0750771612249,0.376107125878,0.225952803428,nan,nan,0.0,0.0,0.0,nan,nan,735.190090426,874.904436052,875.171263761,875.404466272,nan,nan
0,124,1832,6,1,467,328,0.473005185182,0.365775667588,-1.0,1,1.0,1.0,0.258634305559,0,0.0,0.0,0.258901156485,0.300754140011,0.0748363654371,0.375590505448,0.225917774574,nan,nan,0.0,0.0,0.0,nan,nan,735.190090426,875.904559214,876.163193519,876.404605115,nan,nan
0,125,1833,6,1,55,38,1.0,-0.0599996532909,-1.0,1,1.0,1.0,0.234173552133,0,0.0,0.0,0.253211855578,0.300417181335,0.0746308035705,0.375047984906,0.225786377765,nan,nan,0.0,0.0,0.0,nan,nan,735.190090426,876.913018897,877.147192449,877.413064228,nan,nan
0,126,1834,6,1,313,220,-0.0530221528698,0.42279583272,0.448797959603,1,1.0,1.0,0.329961300828,0,0.0,0.0,0.274256386173,0.299891438246,0.0745660991782,0.374457537425,0.225325339068,nan,nan,0.0,0.0,0.0,nan,nan,735.190090426,877.913184253,878.243145554,878.413193092,nan,nan
0,127,1835,6,1,133,93,1.0,-0.306259573676,-0.105336427414,1,1.0,1.0,0.337547162548,0,0.0,0.0,0.300560671836,0.300128208818,0.0743194887304,0.374447697548,0.225808720088,nan,nan,0.0,0.0,0.0,nan,nan,735.190090426,878.921619989,879.259167152,879.421653916,nan,nan
0,128,1836,6,1,203,142,1.0,-0.00249325098487,0.493674673203,1,1.0,1.0,0.257022366859,0,0.0,0.0,0.308176943411,0.300420544394,0.0741018783849,0.374522422779,0.226318666009,nan,nan,0.0,0.0,0.0,nan,nan,735.190090426,879.930090507,880.187112873,880.430123578,nan,nan
0,129,1837,6,0,346,243,-0.174317561957,0.466431294057,0.176670174816,0,0.0,1.0,0.384868703783,0,0.0,0.0,0.326479411063,0.300084124413,0.0739121684111,0.373996292824,0.226171956002,nan,nan,0.0,0.0,0.0,nan,nan,735.190090426,880.93024617,881.315114873,881.430282947,nan,nan
0,130,1838,6,1,496,348,0.714833717156,0.274923884212,-1.0,1,1.0,1.0,0.272387670353,0,0.0,0.0,0.304759580332,0.300736313485,0.0739990251382,0.374735338623,0.226737288347,nan,nan,0.0,0.0,0.0,nan,nan,735.190090426,881.938687892,882.211075562,882.438721533,nan,nan
0,131,1839,6,1,178,125,1.0,-0.139919655122,0.315097826042,1,1.0,1.0,0.2399410652,0,0.0,0.0,0.299065813112,0.300519911629,0.0737573261804,0.37427723781,0.226762585449,nan,nan,0.0,0.0,0.0,nan,nan,735.190090426,882.947147005,883.18708807,883.447198038,nan,nan
0,132,1840,6,1,351,246,-0.175686286722,0.4701852659,0.128489978773,1,1.0,1.0,0.287786900066,0,0.0,0.0,0.266705211873,0.300060980974,0.0736649226688,0.373725903643,0.226396058306,nan,nan,0.0,0.0,0.0,nan,nan,735.190090426,883.947295541,884.235082441,884.447309226,nan,nan
0,133,1841,6,1,78,54,1.0,-0.179467652321,-0.739907630878,1,1.0,1.0,0.327653725632,0,0.0,0.0,0.285127230299,0.299968694652,0.0733951233823,0.373363818034,0.226573571269,nan,nan,0.0,0.0,0.0,nan,nan,735.190090426,884.947402167,885.275055893,885.44743923,nan,nan
0,134,1842,6,1,158,111,1.0,-0.235949227405,0.139764106,1,1.0,1.0,0.326088828035,0,0.0,0.0,0.313843151244,0.300175299361,0.0731595583584,0.373334857719,0.227015741002,nan,nan,0.0,0.0,0.0,nan,nan,735.190090426,885.980915891,886.307004719,886.480905057,nan,nan
0,135,1843,6,1,98,68,1.0,-0.263822910468,-0.480217789416,1,1.0,1.0,0.325640370138,0,0.0,0.0,0.326460974601,0.300367251425,0.0729219546286,0.373289206053,0.227445296796,nan,nan,0.0,0.0,0.0,nan,nan,735.190090426,886.989329959,887.314970329,887.489368732,nan,nan
0,136,1844,6,1,410,288,0.0492046846968,0.463921527344,-0.54316189137,1,1.0,1.0,0.365165079944,0,0.0,0.0,0.338964759372,0.30055308318,0.0726854414385,0.373238524619,0.227867641742,nan,nan,0.0,0.0,0.0,nan,nan,735.190090426,887.997795914,888.362960994,888.497835543,nan,nan
0,137,1845,6,1,302,212,0.027086081288,0.400300843718,0.517770016443,1,1.0,1.0,0.299115515314,0,0.0,0.0,0.329973655132,0.301024703594,0.0726282314152,0.37365293501,0.228396472179,nan,nan,0.0,0.0,0.0,nan,nan,735.190090426,889.079813193,889.378928708,889.581301399,nan,nan
0,138,1846,6,1,490,344,0.664660387652,0.296157848571,-1.0,1,1.0,1.0,0.32150104735,0,0.0,0.0,0.328593880869,0.301010868897,0.0723647883779,0.373375657275,0.228646080519,nan,nan,0.0,0.0,0.0,nan,nan,735.190090426,890.081398902,890.40289995,890.58143739,nan,nan
0,139,1847,6,1,39,27,1.0,0.0253789930673,-1.0,1,1.0,1.0,0.287962520495,0,0.0,0.0,0.302859694387,0.301158280253,0.0721248051659,0.373283085418,0.229033475087,nan,nan,0.0,0.0,0.0,nan,nan,735.190090426,891.114909775,891.402872295,891.614923459,nan,nan
0,140,1848,6,0,474,333,0.530901762182,0.346545376391,-1.0,0,0.0,1.0,0.407831273042,0,0.0,0.0,0.339098280296,0.301064024826,0.0718753459427,0.372939370768,0.229188678883,nan,nan,0.0,0.0,0.0,nan,nan,735.190090426,892.115029516,892.522860789,892.61505774,nan,nan
0,141,1849,6,1,234,164,0.71814774995,0.15974031316,0.62913160129,1,1.0,1.0,0.223719899543,0,0.0,0.0,0.30650456436,0.301821239352,0.072178244163,0.373999483515,0.229642995189,nan,nan,0.0,0.0,0.0,nan,nan,735.190090426,893.115139564,893.338859463,893.61518917,nan,nan
0,142,1850,6,1,88,61,1.0,-0.225257592204,-0.599932847766,1,1.0,1.0,0.295229642652,0,0.0,0.0,0.308926938412,0.301271229917,0.0722195601845,0.373490790101,0.229051669732,nan,nan,0.0,0.0,0.0,nan,nan,735.190090426,894.123587273,894.418816916,894.623625191,nan,nan
0,143,1851,6,1,203,142,1.0,-0.00249325098487,0.493674673203,1,1.0,1.0,0.295107906684,0,0.0,0.0,0.27135248296,0.301228981055,0.0719683621985,0.373197343253,0.229260618856,nan,nan,0.0,0.0,0.0,nan,nan,735.190090426,895.123723264,895.418831171,895.623760897,nan,nan
0,144,1852,6,1,1,0,0.854939129564,0.207877072944,-1.0,1,1.0,1.0,0.358925730921,0,0.0,0.0,0.316421093419,0.301186473594,0.0717198380703,0.372906311664,0.229466635524,nan,nan,0.0,0.0,0.0,nan,nan,735.190090426,896.123859256,896.482784986,896.62388919,nan,nan
0,145,1853,6,1,44,30,1.0,-0.00106984144607,-1.0,1,1.0,1.0,0.286768818274,0,0.0,0.0,0.313600818627,0.301584675369,0.0716316581355,0.373216333504,0.229953017233,nan,nan,0.0,0.0,0.0,nan,nan,735.190090426,897.123987264,897.410756082,897.624034019,nan,nan
0,146,1854,6,0,275,193,0.279002393219,0.326185254474,0.630178474337,0,0.0,1.0,0.350600044243,0,0.0,0.0,0.332098197813,0.301483196895,0.0713963805623,0.372879577458,0.230086816333,nan,nan,0.0,0.0,0.0,nan,nan,735.190090426,898.124144922,898.474744966,898.624176568,nan,nan
0,147,1855,6,1,54,37,1.0,-0.0546292063271,-1.0,1,1.0,1.0,0.238192850724,0,0.0,0.0,0.291853904414,0.301817325109,0.0712675687541,0.373084893863,0.230549756355,nan,nan,0.0,0.0,0.0,nan,nan,735.190090426,899.132573815,899.370766666,899.632608312,nan,nan
0,148,1856,6,1,326,229,-0.12383419111,0.444071765824,0.352223541474,1,1.0,1.0,0.310012208298,0,0.0,0.0,0.299601701088,0.301387430011,0.071217381165,0.372604811176,0.230170048846,nan,nan,0.0,0.0,0.0,nan,nan,735.190090426,900.132715508,900.442727717,900.632736321,nan,nan
0,149,1857,6,1,478,336,0.56422249903,0.334793662244,-1.0,1,1.0,1.0,0.333855725825,0,0.0,0.0,0.294020261616,0.301445314429,0.07098148751,0.372426801939,0.230463826919,nan,nan,0.0,0.0,0.0,nan,nan,735.190090426,901.132836675,901.466692401,901.632888277,nan,nan
0,150,1858,6,1,36,25,1.0,0.0410699577143,-1.0,1,1.0,1.0,0.32570138108,0,0.0,0.0,0.323189771734,0.301661383839,0.0707936341615,0.372455018,0.230867749677,nan,nan,0.0,0.0,0.0,nan,nan,735.190090426,902.132972381,902.458673762,902.632995474,nan,nan
0,151,1859,6,0,178,125,1.0,-0.139919655122,0.315097826042,0,0.0,1.0,0.389517781325,0,0.0,0.0,0.34969162941,0.301820589118,0.0705857653061,0.372406354425,0.231234823812,nan,nan,0.0,0.0,0.0,nan,nan,735.190090426,903.133121772,903.522639553,903.633126903,nan,nan
0,152,1900,6,1,223,156,0.83172397378,0.104890589731,0.593432239612,1,1.0,1.0,0.317059805617,0,0.0,0.0,0.34409298934,0.30239754433,0.0707095192919,0.373107063622,0.231688025038,nan,nan,0.0,0.0,0.0,nan,nan,735.190090426,904.141565775,904.458625581,904.641594855,nan,nan
0,153,1901,6,1,275,193,0.279002393219,0.326185254474,0.630178474337,1,1.0,1.0,0.252889885567,0,0.0,0.0,0.319822490836,0.302493376103,0.0704879661915,0.372981342295,0.232005409912,nan,nan,0.0,0.0,0.0,nan,nan,735.190090426,905.141698061,905.394587946,905.641718017,nan,nan
0,154,1902,6,1,186,130,1.0,-0.0967386681424,0.377881386018,1,1.0,1.0,0.308784864843,0,0.0,0.0,0.292911518676,0.302171275516,0.0703716108162,0.372542886332,0.231799664699,nan,nan,0.0,0.0,0.0,nan,nan,735.190090426,906.141830631,906.450615495,906.641872254,nan,nan
0,155,1903,6,1,365,256,-0.157962026257,0.477016591838,-0.0139196855225,1,1.0,1.0,0.308589858934,0,0.0,0.0,0.290088203115,0.302213943834,0.0701462367941,0.372360180628,0.23206770704,nan,nan,0.0,0.0,0.0,nan,nan,735.190090426,907.141961775,907.450551634,907.641994276,nan,nan
0,156,1904,6,1,142,99,1.0,-0.289568116499,-0.0146273521697,1,1.0,1.0,0.332455899566,0,0.0,0.0,0.316610207781,0.302254815084,0.0699228991526,0.372177714237,0.232331915932,nan,nan,0.0,0.0,0.0,nan,nan,735.190090426,908.142084082,908.474539981,908.642101757,nan,nan
0,157,1905,6,1,222,156,0.841778467246,0.0997291618919,0.589484691865,1,1.0,1.0,0.300257898867,0,0.0,0.0,0.313767885789,0.30244717868,0.0697412570488,0.372188435729,0.232705921631,nan,nan,0.0,0.0,0.0,nan,nan,735.190090426,909.142246301,909.4425042,909.642234613,nan,nan
0,158,1906,6,1,326,229,-0.12383419111,0.444071765824,0.352223541474,1,1.0,1.0,0.276176324114,0,0.0,0.0,0.302963374183,0.302433322479,0.0695204233432,0.371953745822,0.232912899135,nan,nan,0.0,0.0,0.0,nan,nan,735.190090426,910.142339814,910.418516138,910.642367183,nan,nan
0,159,1907,6,1,423,297,0.135229581944,0.450080889006,-0.750039916123,1,1.0,1.0,0.300038089044,0,0.0,0.0,0.292157437342,0.302268184124,0.069332540995,0.371600725119,0.232935643129,nan,nan,0.0,0.0,0.0,nan,nan,735.190090426,911.142474664,911.442512753,911.642494622,nan,nan
0,160,1908,6,1,291,204,0.122027637739,0.373441943191,0.573791926984,1,1.0,1.0,0.251846430823,0,0.0,0.0,0.276020281327,0.30225424603,0.0691157606634,0.371370006693,0.233138485366,nan,nan,0.0,0.0,0.0,nan,nan,735.190090426,912.14259469,912.394441121,912.642624911,nan,nan
0,161,1909,6,1,98,68,1.0,-0.263822910468,-0.480217789416,1,1.0,1.0,0.297657242976,0,0.0,0.0,0.283180587615,0.30194115401,0.0690145049603,0.37095565897,0.23292664905,nan,nan,0.0,0.0,0.0,nan,nan,735.190090426,913.192762356,913.490419599,913.692786304,nan,nan
0,162,1910,6,1,424,298,0.142174562463,0.448819569244,-0.770229420881,1,1.0,1.0,0.321244744584,0,0.0,0.0,0.290249472794,0.301914710115,0.0688019856739,0.370716695788,0.233112724441,nan,nan,0.0,0.0,0.0,nan,nan,735.190090426,914.201177279,914.522422024,914.701225745,nan,nan
0,163,1911,6,1,39,27,1.0,0.0253789930673,-1.0,1,1.0,1.0,0.36106823571,0,0.0,0.0,0.32665674109,0.302033299283,0.0686072176707,0.370640516954,0.233426081612,nan,nan,0.0,0.0,0.0,nan,nan,735.190090426,915.201330662,915.562398897,915.701358601,nan,nan
0,164,1912,6,0,415,291,0.0813077335083,0.459153678902,-0.614968023274,0,0.0,1.0,0.392901882529,0,0.0,0.0,0.358404954274,0.302393268408,0.0685519553081,0.370945223716,0.2338413131,nan,nan,0.0,0.0,0.0,nan,nan,735.190090426,916.201479482,916.594381365,916.701513979,nan,nan
0,165,1913,6,1,503,353,0.773020196022,0.248538461814,-1.0,1,1.0,1.0,0.256494937465,0,0.0,0.0,0.336821685235,0.302941805463,0.068703973528,0.371645778991,0.234237831935,nan,nan,0.0,0.0,0.0,nan,nan,735.190090426,917.209900677,917.466395615,917.709953991,nan,nan
0,166,1914,6,1,32,22,1.0,0.061735800531,-1.0,1,1.0,1.0,0.264308306389,0,0.0,0.0,0.304568375461,0.302662005053,0.0685909497416,0.371252954795,0.234071055312,nan,nan,0.0,0.0,0.0,nan,nan,735.190090426,918.21005577,918.474364077,918.710087131,nan,nan
0,167,1915,6,1,289,203,0.140592130943,0.368073254824,0.582505265782,1,1.0,1.0,0.271839428693,0,0.0,0.0,0.264214224182,0.302432342187,0.0684492665805,0.370881608768,0.233983075607,nan,nan,0.0,0.0,0.0,nan,nan,735.190090426,919.218493502,919.49033293,919.718545674,nan,nan
0,168,1916,6,1,142,99,1.0,-0.289568116499,-0.0146273521697,1,1.0,1.0,0.311322513968,0,0.0,0.0,0.282490083016,0.302250241512,0.0682858054212,0.370536046933,0.23396443609,nan,nan,0.0,0.0,0.0,nan,nan,735.190090426,920.226973142,920.538295656,920.727001936,nan,nan
0,169,1917,6,0,243,170,0.622151010882,0.20168048164,0.647463484622,0,0.0,1.0,0.399160617031,0,0.0,0.0,0.327440853231,0.302303923597,0.0680870320355,0.370390955633,0.234216891561,nan,nan,0.0,0.0,0.0,nan,nan,735.190090426,921.227135647,921.626296264,921.72717328,nan,nan
0,170,1918,6,1,341,239,-0.168535884224,0.46196150489,0.223260112086,1,1.0,1.0,0.382710520178,0,0.0,0.0,0.364397883726,0.302873668853,0.0682893351345,0.371163003987,0.234584333718,nan,nan,0.0,0.0,0.0,nan,nan,735.190090426,922.235589343,922.618299863,922.735673447,nan,nan
0,171,1919,6,1,277,194,0.258470646878,0.33263615818,0.624824240443,1,1.0,1.0,0.35823152028,0,0.0,0.0,0.380034219163,0.303340551024,0.0683609404334,0.371701491457,0.234979610591,nan,nan,0.0,0.0,0.0,nan,nan,735.190090426,923.244006833,923.602238353,923.744068984,nan,nan
0,172,1920,6,1,156,109,1.0,-0.244060613314,0.121041471254,1,1.0,1.0,0.341720127501,0,0.0,0.0,0.36088738932,0.303659684566,0.0682895600151,0.371949244581,0.235370124551,nan,nan,0.0,0.0,0.0,nan,nan,735.190090426,924.252498732,924.594218859,924.752529522,nan,nan
0,173,1921,6,1,469,329,0.489482198204,0.360453357602,-1.0,1,1.0,1.0,0.34955145698,0,0.0,0.0,0.349834368254,0.303879687127,0.068153008455,0.372032695582,0.235726678672,nan,nan,0.0,0.0,0.0,nan,nan,735.190090426,925.252638429,925.602189886,925.752679769,nan,nan
0,174,1922,6,1,391,274,-0.0591907973189,0.475916278612,-0.303718712187,1,1.0,1.0,0.301079548895,0,0.0,0.0,0.330783711125,0.304142168562,0.0680445237818,0.372186692344,0.236097644781,nan,nan,0.0,0.0,0.0,nan,nan,735.190090426,926.261090416,926.562169964,926.761128904,nan,nan
0,175,1923,6,1,49,34,1.0,-0.027785429985,-1.0,1,1.0,1.0,0.292923778296,0,0.0,0.0,0.31451826139,0.304124667879,0.0678502250442,0.371974892923,0.236274442834,nan,nan,0.0,0.0,0.0,nan,nan,735.190090426,927.261225266,927.554149045,927.761271168,nan,nan
0,176,1924,6,1,416,292,0.087881616042,0.458117504295,-0.630165317015,1,1.0,1.0,0.316748480313,0,0.0,0.0,0.303583935834,0.304061026461,0.0676624320378,0.371723458498,0.236398594423,nan,nan,0.0,0.0,0.0,nan,nan,735.190090426,928.261356981,928.578105462,928.761380645,nan,nan
0,177,1925,6,1,466,327,0.464789014893,0.368385601135,-1.0,1,1.0,1.0,0.252624460496,0,0.0,0.0,0.287432239701,0.304132706991,0.0674777255935,0.371610432584,0.236654981397,nan,nan,0.0,0.0,0.0,nan,nan,735.190090426,929.26146988,929.514094341,929.761506657,nan,nan
0,178,1926,6,0,21,14,1.0,0.116713997928,-1.0,0,0.0,1.0,0.420431420207,0,0.0,0.0,0.329934787005,0.303843334819,0.0673979580459,0.371241292865,0.236445376774,nan,nan,0.0,0.0,0.0,nan,nan,735.190090426,930.261653197,930.682084617,930.761688834,nan,nan
0,179,1927,6,1,338,237,-0.162891363375,0.458928707883,0.250399161362,1,1.0,1.0,0.388366844505,0,0.0,0.0,0.353807575069,0.304494664905,0.0677688780768,0.372263542982,0.236725786829,nan,nan,0.0,0.0,0.0,nan,nan,735.190090426,931.261741863,931.650108707,931.761770657,nan,nan
0,180,1928,6,1,385,270,-0.0879796604702,0.477733444059,-0.233926720364,1,1.0,1.0,0.41214222461,0,0.0,0.0,0.406980163107,0.304960621459,0.0678672966295,0.372827918088,0.237093324829,nan,nan,0.0,0.0,0.0,nan,nan,735.190090426,932.261883841,932.674026066,932.761917482,nan,nan
0,181,1929,6,1,488,343,0.647907709101,0.302951493728,-1.0,1,1.0,1.0,0.38001863379,0,0.0,1.0,0.393509234302,0.305552785012,0.0681442659752,0.373697050987,0.237408519037,nan,nan,0.0,0.0,0.0,nan,nan,735.190090426,933.262018122,933.642036756,933.762020403,nan,nan
0,182,1934,6,1,166,116,1.0,-0.20036215083,0.21267421211,1,1.0,1.0,0.29990951065,1,0.0,0.0,0.36402345635,0.305961938027,0.0681793736753,0.374141311703,0.237782564352,105.873641675,489.0,0.656284860842,0.299572439858,-1.0,-132.592391675,1.84236302134,735.190090426,934.262123892,934.562033403,934.762166942,936.087327494,937.937596256
0,183,1935,6,0,241,169,0.64365311028,0.192605941253,0.644254782112,0,0.0,1.0,0.519767201506,0,0.0,0.0,0.399898448649,0.305928864654,0.0679943000162,0.37392316467,0.237934564637,nan,nan,0.0,0.0,0.0,nan,nan,735.190090426,939.1461202,939.665887401,939.646167241,nan,nan
0,184,1936,6,1,295,207,0.0860222946478,0.38372732295,0.554986075565,1,1.0,1.0,0.319680417888,0,0.0,0.0,0.379785710014,0.307091029528,0.0696079261968,0.376698955725,0.237483103331,nan,nan,0.0,0.0,0.0,nan,nan,735.190090426,940.146220554,940.465900972,940.646251344,nan,nan
0,185,1937,6,1,244,171,0.611372359265,0.206163547436,0.648880721676,1,1.0,1.0,0.391190160066,0,0.0,0.0,0.410212593153,0.307159080276,0.0694256786996,0.376584758975,0.237733401576,nan,nan,0.0,0.0,0.0,nan,nan,735.190090426,941.154671115,941.545861275,941.654720151,nan,nan
0,186,1938,6,1,70,49,1.0,-0.13936984996,-0.906436913284,1,0.0,0.0,0.519030510448,0,0.0,0.0,0.409967029467,0.307610860275,0.0695109397457,0.37712180002,0.238099920529,nan,nan,0.0,0.0,0.0,nan,nan,735.190090426,942.154805966,942.673836476,942.654880661,nan,nan
0,187,1942,6,1,205,144,1.0,0.00854800403903,0.505535240796,1,1.0,1.0,0.350856631063,1,0.0,0.0,0.420359100526,0.308741446639,0.0710188872502,0.379760333889,0.237722559389,-40.7373888772,186.0,1.0,-0.0967386681424,0.377881386018,-13.4032361228,1.10042399634,735.190090426,943.154949369,943.505806,943.654973317,944.980142708,946.088622975
0,188,1943,6,0,488,343,0.647907709101,0.302951493728,-1.0,0,0.0,1.0,0.600540030748,0,0.0,0.0,0.490142390753,0.308965463578,0.0708959701236,0.379861433701,0.238069493454,nan,nan,0.0,0.0,0.0,nan,nan,735.190090426,947.297171153,947.897711184,947.797219049,nan,nan
0,189,1944,6,1,361,253,-0.166047812515,0.475607712818,0.0278173107143,1,1.0,1.0,0.312499678694,0,0.0,0.0,0.421298780168,0.310508186155,0.073804358948,0.384312545103,0.236703827207,nan,nan,0.0,0.0,0.0,nan,nan,735.190090426,948.29726552,948.609765199,948.797314842,nan,nan
0,190,1945,6,1,277,194,0.258470646878,0.33263615818,0.624824240443,1,1.0,1.0,0.288350822404,0,0.0,0.0,0.400463510615,0.310518667695,0.0736100217618,0.384128689457,0.236908645933,nan,nan,0.0,0.0,0.0,nan,nan,735.190090426,949.297405788,949.58575661,949.79745739,nan,nan
0,191,1946,6,1,492,345,0.681403316433,0.289222019555,-1.0,1,1.0,1.0,0.31215613801,0,0.0,0.0,0.304335546369,0.310402605678,0.0734345007949,0.383837106473,0.236968104883,nan,nan,0.0,0.0,0.0,nan,nan,735.190090426,950.297534081,950.609690219,950.797576276,nan,nan
0,192,1947,6,1,85,59,1.0,-0.212156452387,-0.638781227021,1,1.0,1.0,0.26398272533,0,0.0,0.0,0.288163228581,0.310411738659,0.0732431242186,0.383654862877,0.23716861444,nan,nan,0.0,0.0,0.0,nan,nan,735.190090426,951.297667792,951.561650517,951.797692595,nan,nan
0,193,1948,6,1,330,232,-0.139766326074,0.449518327743,0.319540245599,1,1.0,1.0,0.26350832358,0,0.0,0.0,0.27988239564,0.310171173823,0.0731291387806,0.383300312603,0.237042035042,nan,nan,0.0,0.0,0.0,nan,nan,735.190090426,952.30612434,952.569632663,952.806167674,nan,nan
0,194,1949,6,1,269,189,0.34171296506,0.305888347675,0.643262349404,1,1.0,1.0,0.303349775262,0,0.0,0.0,0.276946941391,0.309930643667,0.0730169196943,0.382947563361,0.236913723973,nan,nan,0.0,0.0,0.0,nan,nan,735.190090426,953.306250067,953.609599843,953.806291977,nan,nan
0,195,1950,6,1,37,26,1.0,0.0358565504353,-1.0,1,1.0,1.0,0.295230783522,0,0.0,0.0,0.287362960788,0.309896895624,0.0728309730778,0.382727868702,0.237065922546,nan,nan,0.0,0.0,0.0,nan,nan,735.190090426,954.306385203,954.601615987,954.806422551,nan,nan
0,196,1951,6,1,188,132,1.0,-0.0857393506835,0.392804289229,1,1.0,1.0,0.311057088897,0,0.0,0.0,0.303212549227,0.309822068521,0.072652456597,0.382474525118,0.237169611924,nan,nan,0.0,0.0,0.0,nan,nan,735.190090426,955.30650922,955.617566309,955.806547424,nan,nan
0,197,1952,6,1,141,99,1.0,-0.291952736687,-0.024586852943,1,1.0,1.0,0.286895971745,0,0.0,0.0,0.297727948055,0.30982833766,0.0724678780459,0.382296215706,0.237360459614,nan,nan,0.0,0.0,0.0,nan,nan,735.190090426,956.30664065,956.593536622,956.806676572,nan,nan
0,198,1953,6,1,438,307,0.243622561222,0.428096439079,-1.0,1,1.0,1.0,0.302745655179,0,0.0,0.0,0.300232905274,0.30971251763,0.0723029236115,0.382015441242,0.237409594019,nan,nan,0.0,0.0,0.0,nan,nan,735.190090426,957.306771509,957.609517165,957.806808002,nan,nan
0,199,1954,6,1,356,250,-0.17284377641,0.473239407326,0.0788368070227,1,1.0,1.0,0.286591202952,0,0.0,0.0,0.292077609959,0.309677508271,0.0721227116041,0.381800219875,0.237554796667,nan,nan,0.0,0.0,0.0,nan,nan,735.190090426,958.306911778,958.593502981,958.806929738,nan,nan
0,200,1955,6,1,282,198,0.208142307666,0.34807905204,0.609295500931,1,1.0,1.0,0.28613533359,0,0.0,0.0,0.291824063907,0.309562076745,0.0719606049482,0.381522681693,0.237601471796,nan,nan,0.0,0.0,0.0,nan,nan,735.190090426,959.315368325,959.601503658,959.815424489,nan,nan
0,201,1956,6,1,476,334,0.547545041103,0.340739382997,-1.0,1,1.0,1.0,0.268579344265,0,0.0,0.0,0.280435293602,0.309445525784,0.071800297079,0.381245822863,0.237645228705,nan,nan,0.0,0.0,0.0,nan,nan,735.190090426,960.348906852,960.617486197,960.848881478,nan,nan
0,202,1957,6,1,49,34,1.0,-0.027785429985,-1.0,1,1.0,1.0,0.244191290811,0,0.0,0.0,0.266301989555,0.309243217954,0.0716797605978,0.380922978552,0.237563457357,nan,nan,0.0,0.0,0.0,nan,nan,735.190090426,961.357282432,961.601473723,961.857332324,nan,nan
0,203,1958,6,1,259,182,0.44882283482,0.268906983076,0.655011783756,1,1.0,1.0,0.292003199458,0,0.0,0.0,0.268257944845,0.308922765111,0.0716478972352,0.380570662347,0.237274867876,nan,nan,0.0,0.0,0.0,nan,nan,735.190090426,962.357446363,962.649449563,962.857459762,nan,nan
0,204,1959,6,1,34,23,1.0,0.0514419701458,-1.0,1,1.0,1.0,0.283538955264,0,0.0,0.0,0.273244481844,0.308839826064,0.0714818421887,0.380321668253,0.237357983875,nan,nan,0.0,0.0,0.0,nan,nan,735.190090426,963.365878962,963.649417917,963.865930565,nan,nan
0,205,2000,6,1,385,270,-0.0879796604702,0.477733444059,-0.233926720364,1,1.0,1.0,0.2673331853,0,0.0,0.0,0.280958446674,0.308716407182,0.0713290683758,0.380045475558,0.237387338806,nan,nan,0.0,0.0,0.0,nan,nan,735.190090426,964.366050591,964.633383776,964.866055152,nan,nan
0,206,2001,6,1,306,215,-0.00395437407881,0.408974006242,0.494128827808,1,1.0,1.0,0.283239603043,0,0.0,0.0,0.278037247869,0.308515517755,0.0712138389467,0.379729356702,0.237301678809,nan,nan,0.0,0.0,0.0,nan,nan,735.190090426,965.366160638,965.649400241,965.86618031,nan,nan
0,207,2002,6,1,49,34,1.0,-0.027785429985,-1.0,1,1.0,1.0,0.219071108848,0,0.0,0.0,0.25654796573,0.308393411887,0.0710632304066,0.379456642294,0.237330181481,nan,nan,0.0,0.0,0.0,nan,nan,735.190090426,966.366290927,966.585362036,966.866310314,nan,nan
0,208,2003,6,1,378,265,-0.117450136118,0.478670924818,-0.154810124165,1,1.0,1.0,0.258899160661,0,0.0,0.0,0.253736624184,0.307963977738,0.071160927385,0.379124905123,0.236803050353,nan,nan,0.0,0.0,0.0,nan,nan,735.190090426,967.366408957,967.625308118,967.866476526,nan,nan
0,209,2004,6,1,50,35,1.0,-0.033148730948,-1.0,1,1.0,1.0,0.242479283363,0,0.0,0.0,0.240149850957,0.307729217848,0.071071174507,0.378800392355,0.236658043341,nan,nan,0.0,0.0,0.0,nan,nan,735.190090426,968.374884891,968.617364175,968.874910835,nan,nan
0,210,2005,6,1,132,92,1.0,-0.307426825298,-0.115555361894,1,1.0,1.0,0.288936696947,0,0.0,0.0,0.263438380323,0.307418503874,0.0710439051257,0.378462409,0.236374598748,nan,nan,0.0,0.0,0.0,nan,nan,735.190090426,969.408362978,969.697299675,969.908372101,nan,nan
0,211,2006,6,1,246,172,0.589768841079,0.215019897151,0.651339528662,1,1.0,1.0,0.296830747277,0,0.0,0.0,0.276082242529,0.307330912372,0.0708867200578,0.37821763243,0.236444192314,nan,nan,0.0,0.0,0.0,nan,nan,735.190090426,970.40847046,970.705301207,970.908510944,nan,nan
0,212,2007,6,1,203,142,1.0,-0.00249325098487,0.493674673203,1,1.0,1.0,0.264310587198,0,0.0,0.0,0.283359343807,0.307281383291,0.0707229962934,0.378004379585,0.236558386998,nan,nan,0.0,0.0,0.0,nan,nan,735.190090426,971.416930999,971.681241586,971.916969487,nan,nan
0,213,2008,6,1,28,19,1.0,0.082066132397,-1.0,1,1.0,1.0,0.264180867933,0,0.0,0.0,0.275107400802,0.307079642465,0.0706179022027,0.377697544667,0.236461740262,nan,nan,0.0,0.0,0.0,nan,nan,735.190090426,972.417075543,972.681256411,972.917102627,nan,nan
0,214,2009,6,1,139,97,1.0,-0.296335611021,-0.0445992895203,1,1.0,1.0,0.252959449776,0,0.0,0.0,0.260483634969,0.306879180901,0.0705134332351,0.377392614136,0.236365747666,nan,nan,0.0,0.0,0.0,nan,nan,735.190090426,973.492228255,973.745187704,973.992256194,nan,nan
0,215,2010,6,1,223,156,0.83172397378,0.104890589731,0.593432239612,1,1.0,1.0,0.236527027562,0,0.0,0.0,0.251222448424,0.306628391454,0.0704448551593,0.377073246613,0.236183536295,nan,nan,0.0,0.0,0.0,nan,nan,735.190090426,974.500674254,974.737201282,975.000706755,nan,nan
0,216,2011,6,1,7,4,0.9030914636,0.181853060355,-1.0,1,1.0,1.0,0.284349771217,0,0.0,0.0,0.257945416185,0.306303848103,0.0704425211657,0.376746369269,0.235861326937,nan,nan,0.0,0.0,0.0,nan,nan,735.190090426,975.500824785,975.785174556,976.000855005,nan,nan
0,217,2012,6,1,239,168,0.665069831863,0.183388857662,0.640549267122,1,1.0,1.0,0.260237690993,0,0.0,0.0,0.26037149659,0.306202677242,0.0702957510835,0.376498428325,0.235906926158,nan,nan,0.0,0.0,0.0,nan,nan,735.190090426,976.500921718,976.761159409,977.000956785,nan,nan
0,218,2013,6,1,90,63,1.0,-0.233635786423,-0.574971871003,1,1.0,1.0,0.323739058338,0,0.0,0.0,0.289442173516,0.305991828681,0.0702030798265,0.376194908507,0.235788748854,nan,nan,0.0,0.0,0.0,nan,nan,735.190090426,977.509372849,977.833111907,978.009420745,nan,nan
0,219,2014,6,1,166,116,1.0,-0.20036215083,0.21267421211,1,1.0,1.0,0.259240707383,0,0.0,0.0,0.281072485571,0.306072866259,0.070052834363,0.376125700622,0.236020031896,nan,nan,0.0,0.0,0.0,nan,nan,735.190090426,978.517852774,978.777093481,979.01789896,nan,nan
0,220,2015,6,1,300,210,0.0433537089178,0.395748422077,0.528951029102,1,1.0,1.0,0.250793282874,0,0.0,0.0,0.277924349532,0.30585999281,0.0699643998657,0.375824392675,0.235895592944,nan,nan,0.0,0.0,0.0,nan,nan,735.190090426,979.526323291,979.777116574,980.026359499,nan,nan
0,221,2016,6,1,456,320,0.383612429175,0.392633185378,-1.0,1,1.0,1.0,0.22610245645,0,0.0,0.0,0.245378815569,0.305610822177,0.0699036963989,0.375514518575,0.235707125778,nan,nan,0.0,0.0,0.0,nan,nan,735.190090426,980.534938923,980.76104138,981.034810915,nan,nan
0,222,2017,6,1,272,191,0.310166696092,0.316214117232,0.637281430288,1,1.0,1.0,0.313761234283,0,0.0,0.0,0.263552324536,0.305252676385,0.0699490007545,0.375201677139,0.235303675631,nan,nan,0.0,0.0,0.0,nan,nan,735.190090426,981.543252352,981.857013586,982.043277726,nan,nan
0,223,2018,6,1,182,127,1.0,-0.118523835432,0.347089474713,1,1.0,1.0,0.241623422131,0,0.0,0.0,0.260495704288,0.305290831353,0.0697943035364,0.37508513489,0.235496527817,nan,nan,0.0,0.0,0.0,nan,nan,735.190090426,982.543411152,982.785034574,983.043404879,nan,nan
0,224,2019,6,1,336,236,-0.158211608236,0.456758111158,0.268135266647,1,1.0,1.0,0.201156468131,0,0.0,0.0,0.252180374848,0.305006601848,0.0697675680195,0.374774169867,0.235239033828,nan,nan,0.0,0.0,0.0,nan,nan,735.190090426,983.551841754,983.752998223,984.051875682,nan,nan
0,225,2020,6,0,381,267,-0.105403061426,0.478425078289,-0.188431136224,0,1.0,0.0,0.20897781942,0,0.0,0.0,0.217252569894,0.304545045698,0.0699542692594,0.374499314957,0.234590776438,nan,nan,0.0,0.0,0.0,nan,nan,735.190090426,984.551995422,984.760973241,985.052026497,nan,nan
0,226,2021,6,1,65,45,1.0,-0.113312155659,-1.0,1,1.0,1.0,0.29682333488,0,0.0,0.0,0.23565254081,0.304122181865,0.0700869445832,0.374209126448,0.234035237282,nan,nan,0.0,0.0,0.0,nan,nan,735.190090426,985.552102619,985.848925954,986.052131413,nan,nan
0,227,2022,6,1,11,7,0.934659501434,0.163852895862,-1.0,1,1.0,1.0,0.264346508309,0,0.0,0.0,0.256715887537,0.304090028354,0.0699340681794,0.374024096533,0.234155960174,nan,nan,0.0,0.0,0.0,nan,nan,735.190090426,986.560561732,986.824908241,987.060592237,nan,nan
0,228,2023,6,1,93,65,1.0,-0.245614297951,-0.538619881923,1,1.0,1.0,0.328245872632,0,0.0,0.0,0.296471905274,0.303915714669,0.0698299404524,0.373745655122,0.234085774217,nan,nan,0.0,0.0,0.0,nan,nan,735.190090426,987.560697723,987.888943596,988.060721671,nan,nan
0,229,2024,6,1,278,195,0.248285521772,0.335802812283,0.621962573991,1,1.0,1.0,0.3280525757,0,0.0,0.0,0.306881652214,0.304021959901,0.0696957726059,0.373717732507,0.234326187295,nan,nan,0.0,0.0,0.0,nan,nan,735.190090426,988.560859659,988.888912234,989.06085196,nan,nan
0,230,2025,6,1,483,339,0.606025706087,0.319314454546,-1.0,1,1.0,1.0,0.255873996764,0,0.0,0.0,0.304057481699,0.304126440839,0.0695620656379,0.373688506477,0.234564375201,nan,nan,0.0,0.0,0.0,nan,nan,735.190090426,989.560970276,989.816844272,990.060982821,nan,nan
0,231,2026,6,1,269,189,0.34171296506,0.305888347675,0.643262349404,1,1.0,1.0,0.271720543504,0,0.0,0.0,0.285215705323,0.3039175558,0.069483588133,0.373401143933,0.234433967667,nan,nan,0.0,0.0,0.0,nan,nan,735.190090426,990.561111969,990.832832512,991.061126794,nan,nan
0,232,2027,6,1,37,26,1.0,0.0358565504353,-1.0,1,1.0,1.0,0.287610425614,0,0.0,0.0,0.271734988627,0.303778775574,0.0693657542107,0.373144529785,0.234413021364,nan,nan,0.0,0.0,0.0,nan,nan,735.190090426,991.561216599,991.848827025,992.061238267,nan,nan
0,233,2028,6,1,353,248,-0.175041255135,0.471490071959,0.108799216003,1,1.0,1.0,0.239459536038,0,0.0,0.0,0.266263501719,0.303709383514,0.0692248100002,0.372934193515,0.234484573514,nan,nan,0.0,0.0,0.0,nan,nan,735.190090426,992.561340047,992.800799583,993.061371122,nan,nan
0,234,2029,6,1,41,28,1.0,0.0148395037771,-1.0,1,1.0,1.0,0.247287729755,0,0.0,0.0,0.258119230469,0.303434811517,0.0692037657117,0.372638577228,0.234231045805,nan,nan,0.0,0.0,0.0,nan,nan,735.190090426,993.561485731,993.808773461,994.061501127,nan,nan
0,235,2030,6,1,431,303,0.191957257768,0.43918128748,-0.982298765802,1,1.0,1.0,0.367155057378,0,0.0,0.0,0.284634107724,0.303195887764,0.0691530155977,0.372348903362,0.234042872167,nan,nan,0.0,0.0,0.0,nan,nan,735.190090426,994.561605757,994.928760814,995.061633127,nan,nan
0,236,2031,6,1,237,166,0.686387300223,0.174031846447,0.636349816437,1,1.0,1.0,0.246668783948,0,0.0,0.0,0.28703719036,0.303466901195,0.0691312997759,0.372598200971,0.234335601419,nan,nan,0.0,0.0,0.0,nan,nan,735.190090426,995.570053752,995.816722536,996.070091954,nan,nan
0,237,2032,6,1,114,80,1.0,-0.303747463913,-0.303859371662,1,1.0,1.0,0.334540529177,0,0.0,0.0,0.316121456834,0.303227246692,0.0690834710015,0.372310717693,0.23414377569,nan,nan,0.0,0.0,0.0,nan,nan,735.190090426,996.570185182,996.904725711,997.070219964,nan,nan
0,238,2033,6,0,450,316,0.335949728395,0.405598329481,-1.0,0,1.0,0.0,0.270354928449,0,0.0,0.0,0.283854747191,0.303358815106,0.0689679335936,0.372326748699,0.234390881512,nan,nan,0.0,0.0,0.0,nan,nan,735.190090426,997.570346831,997.84070176,998.0703876,nan,nan
0,239,2034,6,1,196,137,1.0,-0.0413610816081,0.449130757868,1,1.0,1.0,0.302216514945,0,0.0,0.0,0.302370657523,0.30322072353,0.0688564620246,0.372077185554,0.234364261505,nan,nan,0.0,0.0,0.0,nan,nan,735.190090426,998.570454028,998.872670543,999.070481397,nan,nan
0,240,2035,6,1,352,247,-0.17544712699,0.470851603012,0.118673592819,1,1.0,1.0,0.318084159866,0,0.0,0.0,0.296885201087,0.303216539327,0.0687128917696,0.371929431097,0.234503647558,nan,nan,0.0,0.0,0.0,nan,nan,735.190090426,999.570595436,999.888679596,1000.07061311,nan,nan
0,241,2036,6,1,213,149,0.929785093221,0.0521668813814,0.548906519778,1,1.0,1.0,0.2698682677,0,0.0,0.0,0.296722980837,0.303278230699,0.0685768457052,0.371855076404,0.234701384993,nan,nan,0.0,0.0,0.0,nan,nan,735.190090426,1000.57075965,1000.84062792,1001.07076393,nan,nan
0,242,2037,6,1,430,302,0.184725017221,0.440645728776,-0.941904167281,1,1.0,1.0,0.309766453691,0,0.0,0.0,0.299239627086,0.303140173,0.0684685637265,0.371608736727,0.234671609274,nan,nan,0.0,0.0,0.0,nan,nan,735.190090426,1001.57085602,1001.88062247,1002.07088395,nan,nan
0,243,2038,6,1,179,125,1.0,-0.13461441766,0.323204131591,1,1.0,1.0,0.277617489919,0,0.0,0.0,0.285750737103,0.303167441645,0.0683288534469,0.371496295092,0.234838588198,nan,nan,0.0,0.0,0.0,nan,nan,735.190090426,1002.57098402,1002.84860151,1003.07100598,nan,nan
0,244,2039,6,0,116,81,1.0,-0.306446923025,-0.282515442494,0,0.0,1.0,0.445411620662,0,0.0,0.0,0.344265188091,0.303062728728,0.0682082260457,0.371270954774,0.234854502683,nan,nan,0.0,0.0,0.0,nan,nan,735.190090426,1003.57116934,1004.01658096,1004.07115907,nan,nan
0,245,2040,6,1,276,194,0.268710435127,0.329430325417,0.627563005949,1,1.0,1.0,0.237354380079,0,0.0,0.0,0.32012783022,0.303643744614,0.0686712622227,0.372315006836,0.234972482391,nan,nan,0.0,0.0,0.0,nan,nan,735.190090426,1004.57123348,1004.80858786,1005.07125487,nan,nan
0,246,2041,6,1,330,232,-0.139766326074,0.449518327743,0.319540245599,1,1.0,1.0,0.341171884909,0,0.0,0.0,0.34131262855,0.303374275652,0.0686612181948,0.372035493847,0.234713057457,nan,nan,0.0,0.0,0.0,nan,nan,735.190090426,1005.57135265,1005.91252454,1006.07138173,nan,nan
0,247,2042,6,0,28,19,1.0,0.082066132397,-1.0,0,0.0,1.0,0.364994877018,0,0.0,0.0,0.314507047335,0.30352730241,0.0685641088545,0.372091411265,0.234963193556,nan,nan,0.0,0.0,0.0,nan,nan,735.190090426,1006.571522,1006.93651688,1007.07154681,nan,nan
0,248,2043,6,1,198,139,1.0,-0.0302354974571,0.462326941081,1,1.0,1.0,0.308894057758,0,0.0,0.0,0.338353606562,0.303775155534,0.0685365211238,0.372311676658,0.23523863441,nan,nan,0.0,0.0,0.0,nan,nan,735.190090426,1007.57161209,1007.88050615,1008.07164516,nan,nan
0,249,2044,6,1,479,336,0.572572153349,0.331768222426,-1.0,1,1.0,1.0,0.324756569229,0,0.0,0.0,0.332881834668,0.303795713374,0.0683995253045,0.372195238679,0.23539618807,nan,nan,0.0,0.0,0.0,nan,nan,735.190090426,1008.57174039,1008.89649696,1009.07178372,nan,nan
0,250,2045,6,1,18,12,0.988682696815,0.131162580546,-1.0,1,1.0,1.0,0.284565303475,0,0.0,0.0,0.306071976821,0.303879556797,0.0682754090565,0.372154965854,0.235604147741,nan,nan,0.0,0.0,0.0,nan,nan,735.190090426,1009.57190118,1009.85646648,1010.07190802,nan,nan
0,251,2046,6,1,232,163,0.739158239773,0.150046616059,0.623712016981,1,1.0,1.0,0.340403264388,0,0.0,0.0,0.316575045697,0.303802607581,0.0681501279436,0.371952735525,0.235652479637,nan,nan,0.0,0.0,0.0,nan,nan,735.190090426,1010.57203204,1010.9124353,1011.07205456,nan,nan
0,252,2047,6,1,362,254,-0.164239727892,0.476000155386,0.0174578511848,1,1.0,1.0,0.316287763417,0,0.0,0.0,0.313752110427,0.303947848283,0.0680536878628,0.372001536145,0.23589416042,nan,nan,0.0,0.0,0.0,nan,nan,735.190090426,1011.57214095,1011.88842871,1012.07217088,nan,nan
0,253,2048,6,1,6,4,0.895129075663,0.186272780825,-1.0,1,1.0,1.0,0.500219809823,0,0.0,1.0,0.385636945876,0.303996622651,0.0679234743902,0.371920097041,0.236073148261,nan,nan,0.0,0.0,0.0,nan,nan,735.190090426,1012.57229005,1013.07250986,1013.07234251,nan,nan
0,254,2053,6,1,109,76,1.0,-0.294638327523,-0.357773695079,1,1.0,1.0,0.332000030205,1,0.0,0.0,0.382835867815,0.304769154884,0.0688943142139,0.373663469098,0.23587484067,-14.6763931375,149.0,1.0,-0.269478519393,0.0541436597792,28.0357681375,1.30880111642,735.190090426,1013.57239183,1013.90439186,1014.0724212,1015.39759857,1016.71442887
0,255,2054,6,1,307,215,-0.0113868739462,0.411053355611,0.487957006857,1,1.0,1.0,0.452995486557,0,0.0,0.0,0.428405108862,0.30487594263,0.0687801542148,0.373656096845,0.236095788415,nan,nan,0.0,0.0,0.0,nan,nan,735.190090426,1017.93127394,1018.38426943,1018.43131728,nan,nan
0,256,2055,6,1,412,289,0.0618891196837,0.462096609288,-0.571158935758,1,1.0,1.0,0.284836146981,0,0.0,0.0,0.356610554581,0.305454534599,0.069264682842,0.374719217441,0.236189851756,nan,nan,0.0,0.0,0.0,nan,nan,735.190090426,1018.93142048,1019.21625663,1019.43145384,nan,nan
0,257,2056,6,1,109,76,1.0,-0.294638327523,-0.357773695079,1,1.0,1.0,0.259713112377,0,0.0,0.0,0.332514915305,0.305374307409,0.0691417118551,0.374516019264,0.236232595554,nan,nan,0.0,0.0,0.0,nan,nan,735.190090426,1019.95656091,1020.21627402,1020.45658144,nan,nan
0,258,2057,6,0,168,118,1.0,-0.190790017254,0.230361799274,0,0.0,1.0,0.38750955835,0,0.0,0.0,0.310686272569,0.305197326033,0.0690658874655,0.374263213499,0.236131438568,nan,nan,0.0,0.0,0.0,nan,nan,735.190090426,1020.95671087,1021.34422043,1021.4567448,nan,nan
0,259,2058,6,1,93,65,1.0,-0.245614297951,-0.538619881923,1,1.0,1.0,0.243093097582,0,0.0,0.0,0.29677192277,0.30551513388,0.0691211828652,0.374636316745,0.236393951015,nan,nan,0.0,0.0,0.0,nan,nan,735.190090426,1021.96513007,1022.20822317,1022.46517312,nan,nan
0,260,2059,6,1,211,148,0.948675772315,0.0413606888024,0.538689155053,1,1.0,1.0,0.290576289408,0,0.0,0.0,0.307059648447,0.305275049125,0.0690962440673,0.374371293192,0.236178805058,nan,nan,0.0,0.0,0.0,nan,nan,735.190090426,1022.97360885,1023.26418514,1023.47364592,nan,nan
0,261,2100,6,1,24,16,1.0,0.102019060141,-1.0,1,1.0,1.0,0.282427932136,0,0.0,0.0,0.272032439709,0.305218732038,0.0689697271377,0.374188459176,0.2362490049,nan,nan,0.0,0.0,0.0,nan,nan,735.190090426,1023.97374798,1024.25617591,1024.47376936,nan,nan
0,262,2101,6,1,106,74,1.0,-0.287630069369,-0.390564445695,1,1.0,1.0,0.354256982915,0,0.0,0.0,0.309087068153,0.305131744252,0.0688523231403,0.373984067392,0.236279421112,nan,nan,0.0,0.0,0.0,nan,nan,735.190090426,1024.97387599,1025.32813297,1025.4739199,nan,nan
0,263,2102,6,1,382,268,-0.1011887567,0.478291136399,-0.199732273247,1,1.0,1.0,0.289780013263,0,0.0,0.0,0.308821642771,0.305318532232,0.0687877769656,0.374106309197,0.236530755266,nan,nan,0.0,0.0,0.0,nan,nan,735.190090426,1025.98232969,1026.2721097,1026.48236276,nan,nan
0,264,2103,6,1,131,92,1.0,-0.308451667147,-0.125800503078,1,1.0,1.0,0.297611913644,0,0.0,0.0,0.313882969941,0.305259674205,0.0686640082971,0.373923682503,0.236595665908,nan,nan,0.0,0.0,0.0,nan,nan,735.190090426,1026.98246767,1027.28007959,1027.48249704,nan,nan
0,265,2104,6,1,252,177,0.524721685615,0.240693665738,0.655694012224,1,1.0,1.0,0.313457320444,0,0.0,0.0,0.30028308245,0.305230814732,0.0685359352342,0.373766749966,0.236694879497,nan,nan,0.0,0.0,0.0,nan,nan,735.190090426,1027.98261963,1028.29607695,1028.48264643,nan,nan
0,266,2105,6,1,88,61,1.0,-0.225257592204,-0.599932847766,1,1.0,1.0,0.457318411209,0,0.0,0.0,0.356129215099,0.305261741445,0.0684088395626,0.373670581007,0.236852901882,nan,nan,0.0,0.0,0.0,nan,nan,735.190090426,1028.98272911,1029.44004752,1029.48274108,nan,nan
0,267,2106,6,1,350,246,-0.175756816429,0.469490941964,0.138247479403,1,1.0,1.0,0.593163145706,0,0.0,1.0,0.454646292453,0.305831242081,0.0689094633812,0.374740705462,0.236921778699,nan,nan,0.0,0.0,0.0,nan,nan,735.190090426,1029.98285284,1030.57601599,1030.48292668,nan,nan
0,268,2110,6,1,80,56,1.0,-0.189075709245,-0.708965549488,1,1.0,1.0,0.249017983675,1,0.0,0.0,0.43316651353,0.306903376049,0.0709767893756,0.377880165425,0.235926586674,-144.88140612,334.0,-0.152796554809,0.454467054946,0.285576400052,178.63140612,1.63384335209,735.190090426,1030.98298598,1031.23200396,1031.48300565,1032.80817618,1034.45005072
0,269,2111,6,0,167,117,1.0,-0.195605812978,0.221546716301,0,0.0,1.0,0.437286355533,0,0.0,0.0,0.426489161638,0.306688188717,0.0709322705201,0.377620459237,0.235755918197,nan,nan,0.0,0.0,0.0,nan,nan,735.190090426,1035.6586083,1036.09589466,1036.15864195,nan,nan
0,270,2112,6,1,508,357,0.814199817736,0.228638933499,-1.0,1,1.0,1.0,0.324846375734,0,0.0,0.0,0.337050238314,0.307171885631,0.0712438643115,0.378415749943,0.23592802132,nan,nan,0.0,0.0,0.0,nan,nan,735.190090426,1036.6670543,1036.99190068,1037.1670774,nan,nan
0,271,2113,6,1,265,186,0.384259149088,0.291568309415,0.649478858709,1,1.0,1.0,0.308366058394,0,0.0,0.0,0.356832929887,0.307237105152,0.0711203711567,0.378357476309,0.236116733995,nan,nan,0.0,0.0,0.0,nan,nan,735.190090426,1037.67550486,1037.98387092,1038.17554136,nan,nan
0,272,2114,6,1,159,111,1.0,-0.231765974528,0.149055008463,1,1.0,1.0,0.307869989425,0,0.0,0.0,0.313694141184,0.307241255715,0.0709895476792,0.378230803395,0.236251708036,nan,nan,0.0,0.0,0.0,nan,nan,735.190090426,1038.68396455,1038.99183454,1039.1840113,nan,nan
0,273,2115,6,1,48,33,1.0,-0.0224273256894,-1.0,1,1.0,1.0,0.299767532386,0,0.0,0.0,0.305334526735,0.307243558769,0.0708594210905,0.37810297986,0.236384137679,nan,nan,0.0,0.0,0.0,nan,nan,735.190090426,1039.68409626,1039.98386379,1040.18413931,nan,nan
0,274,2116,6,1,475,333,0.539218753276,0.343659807328,-1.0,1,1.0,1.0,0.355608343147,0,0.0,0.0,0.321081954986,0.307216274001,0.0707314340791,0.37794770808,0.236484839922,nan,nan,0.0,0.0,0.0,nan,nan,735.190090426,1040.68423567,1041.03984402,1041.18429326,nan,nan
0,275,2117,6,1,306,215,-0.00395437407881,0.408974006242,0.494128827808,1,1.0,1.0,0.347441738471,0,0.0,0.0,0.334272538001,0.307392245162,0.0706627760274,0.378055021189,0.236729469135,nan,nan,0.0,0.0,0.0,nan,nan,735.190090426,1041.68437936,1042.0318211,1042.18439761,nan,nan
0,276,2118,6,1,159,111,1.0,-0.231765974528,0.149055008463,1,1.0,1.0,0.3152927747,0,0.0,0.0,0.339447618773,0.307537352022,0.0705756821477,0.378113034169,0.236961669874,nan,nan,0.0,0.0,0.0,nan,nan,735.190090426,1042.68450024,1042.99979302,1043.18452505,nan,nan
0,277,2119,6,0,46,32,1.0,-0.0117313672748,-1.0,0,0.0,1.0,0.427128634416,0,0.0,0.0,0.363287715862,0.307565349938,0.070449709558,0.378015059496,0.23711564038,nan,nan,0.0,0.0,0.0,nan,nan,735.190090426,1043.68466446,1044.11179309,1044.18468385,nan,nan
0,278,2120,6,1,292,205,0.112881669716,0.376069582356,0.569261850688,1,1.0,1.0,0.202682021074,0,0.0,0.0,0.31503447673,0.307995433695,0.0706862485366,0.378681682231,0.237309185158,nan,nan,0.0,0.0,0.0,nan,nan,735.190090426,1044.69306998,1044.895752,1045.19311502,nan,nan
0,279,2121,6,0,58,40,1.0,-0.0760896648475,-1.0,0,0.0,1.0,0.522486170754,0,0.0,0.0,0.384098942081,0.307617966266,0.0708395854556,0.378457551722,0.23677838081,nan,nan,0.0,0.0,0.0,nan,nan,735.190090426,1045.69321224,1046.21569841,1046.1933049,nan,nan
0,280,2122,6,1,264,185,0.394966959701,0.287889713878,0.650717615019,1,1.0,1.0,0.234029578045,0,0.0,0.0,0.319732589958,0.308385352711,0.0718653088968,0.380250661607,0.236520043814,nan,nan,0.0,0.0,0.0,nan,nan,735.190090426,1046.70167962,1046.9357092,1047.20171412,nan,nan
0,281,2123,6,1,494,347,0.698129958021,0.282143999684,-1.0,1,1.0,1.0,0.273867608979,0,0.0,0.0,0.343461119259,0.308120741413,0.0718738376725,0.379994579085,0.23624690374,nan,nan,0.0,0.0,0.0,nan,nan,735.190090426,1047.70183243,1047.97570004,1048.20184127,nan,nan
0,282,2124,6,1,337,236,-0.160643365934,0.457858386897,0.259303564052,1,1.0,1.0,0.225394560024,0,0.0,0.0,0.244430582349,0.307999276404,0.0717751749089,0.379774451313,0.236224101495,nan,nan,0.0,0.0,0.0,nan,nan,735.190090426,1048.71027016,1048.93566472,1049.21030181,nan,nan
0,283,2125,6,1,456,320,0.383612429175,0.392633185378,-1.0,1,1.0,1.0,0.248883701861,0,0.0,0.0,0.249381956955,0.307707386947,0.0718157237546,0.379523110702,0.235891663192,nan,nan,0.0,0.0,0.0,nan,nan,735.190090426,1049.71874382,1049.96762752,1050.21878943,nan,nan
0,284,2126,6,1,10,7,0.926811495151,0.168400576072,-1.0,1,1.0,1.0,0.25676349923,0,0.0,0.0,0.243680587038,0.307500261295,0.071773804181,0.379274065476,0.235726457114,nan,nan,0.0,0.0,0.0,nan,nan,735.190090426,1050.71887097,1050.97563447,1051.21890632,nan,nan
0,285,2127,6,0,491,345,0.673033477965,0.292707709811,-1.0,0,1.0,0.0,0.280576512218,0,0.0,0.0,0.262074571103,0.307322237569,0.0717105588936,0.379032796462,0.235611678675,nan,nan,0.0,0.0,0.0,nan,nan,735.190090426,1051.71902179,1051.9995983,1052.21905942,nan,nan
0,286,2128,6,1,187,131,1.0,-0.0912463489427,0.385383214542,1,1.0,1.0,0.248115366325,0,0.0,0.0,0.261818459257,0.307228721047,0.0716024876959,0.378831208742,0.235626233351,nan,nan,0.0,0.0,0.0,nan,nan,735.190090426,1052.72743614,1052.97555151,1053.22749002,nan,nan
0,287,2129,6,1,508,357,0.814199817736,0.228638933499,-1.0,1,1.0,1.0,0.503923790529,0,0.0,0.0,0.344205223024,0.307022751169,0.0715624592324,0.378585210402,0.235460291937,nan,nan,0.0,0.0,0.0,nan,nan,735.190090426,1053.72760691,1054.2315307,1054.22768161,nan,nan
0,288,2130,6,1,27,18,1.0,0.0870912575778,-1.0,1,1.0,1.0,0.279836970381,0,0.0,0.0,0.343958709079,0.307706435334,0.0723709498044,0.380077385138,0.23533548553,nan,nan,0.0,0.0,0.0,nan,nan,735.190090426,1054.72773007,1055.00756704,1055.22777483,nan,nan
0,289,2131,6,1,291,204,0.122027637739,0.373441943191,0.573791926984,1,1.0,1.0,0.271356188692,0,0.0,0.0,0.351705649868,0.307610001199,0.0722641655197,0.379874166719,0.235345835679,nan,nan,0.0,0.0,0.0,nan,nan,735.190090426,1055.73618092,1056.00753711,1056.2362348,nan,nan
0,290,2132,6,0,70,49,1.0,-0.13936984996,-0.906436913284,0,0.0,1.0,0.383115072735,0,0.0,0.0,0.311436077269,0.307484988053,0.0721707622144,0.379655750267,0.235314225838,nan,nan,0.0,0.0,0.0,nan,nan,735.190090426,1056.73635768,1057.11947275,1057.23636823,nan,nan
0,291,2133,6,1,363,255,-0.162287729338,0.476365729747,0.00704812682028,1,1.0,1.0,0.2630056981,0,0.0,0.0,0.305825653176,0.307744885251,0.0721824659116,0.379927351162,0.235562419339,nan,nan,0.0,0.0,0.0,nan,nan,735.190090426,1057.73644121,1057.99944691,1058.23648227,nan,nan
0,292,2134,6,1,39,27,1.0,0.0253789930673,-1.0,1,1.0,1.0,0.302872807719,0,0.0,0.0,0.316331192851,0.307591668856,0.0721061451257,0.379697813982,0.235485523731,nan,nan,0.0,0.0,0.0,nan,nan,735.190090426,1058.73658718,1059.03945999,1059.23661484,nan,nan
0,293,2135,6,1,127,89,1.0,-0.31111021432,-0.167036648065,1,1.0,1.0,0.486725312658,0,0.0,0.0,0.350867939492,0.307575563528,0.0719835180177,0.379559081546,0.235592045511,nan,nan,0.0,0.0,0.0,nan,nan,735.190090426,1059.73672945,1060.22345476,1060.2367266,nan,nan
0,294,2136,6,1,235,165,0.707591924495,0.164537776567,0.631659631194,1,1.0,1.0,0.310243706219,0,0.0,0.0,0.366613942198,0.308184916416,0.072614023378,0.380798939794,0.235570893038,nan,nan,0.0,0.0,0.0,nan,nan,735.190090426,1060.74515121,1061.05539492,1061.24519882,nan,nan
0,295,2137,6,1,352,247,-0.17544712699,0.470851603012,0.118673592819,1,1.0,1.0,0.318088720553,0,0.0,0.0,0.371685913143,0.308191895365,0.0724909430519,0.380682838417,0.235700952313,nan,nan,0.0,0.0,0.0,nan,nan,735.190090426,1061.74530032,1062.06338904,1062.24532769,nan,nan
0,296,2138,6,1,498,350,0.731507943485,0.267561876527,-1.0,1,1.0,1.0,0.261601310223,0,0.0,0.0,0.296644578998,0.308225330585,0.0723706670152,0.3805959976,0.23585466357,nan,nan,0.0,0.0,0.0,nan,nan,735.190090426,1062.75374461,1063.01534592,1063.25378823,nan,nan
0,297,2139,6,1,95,66,1.0,-0.253175017597,-0.514975443931,1,1.0,1.0,0.269120173529,0,0.0,0.0,0.282936734768,0.308068347352,0.0722991926965,0.380367540048,0.235769154655,nan,nan,0.0,0.0,0.0,nan,nan,735.190090426,1063.76220258,1064.03132275,1064.26225247,nan,nan
0,298,2140,6,1,2,1,0.863024578927,0.203622855609,-1.0,1,1.0,1.0,0.428629955277,0,0.0,0.0,0.31978381301,0.307937648782,0.0722129199187,0.3801505687,0.235724728863,nan,nan,0.0,0.0,0.0,nan,nan,735.190090426,1064.77067994,1065.19930989,1065.27071729,nan,nan
0,299,2141,6,1,85,59,1.0,-0.212156452387,-0.638781227021,1,1.0,1.0,0.308483517729,0,0.0,0.0,0.335411215511,0.308341301981,0.0724280347328,0.380769336714,0.235913267248,nan,nan,0.0,0.0,0.0,nan,nan,735.190090426,1065.77081108,1066.0792946,1066.27084472,nan,nan
0,300,2143,6,1,197,138,1.0,-0.035797595552,0.455774741445,1,1.0,1.0,0.236036946066,0,0.0,0.0,0.324383473024,0.308341776033,0.0723072210437,0.380648997077,0.23603455499,nan,nan,0.0,0.0,0.0,nan,nan,735.190090426,1066.77927048,1067.01530743,1067.27931068,nan,nan
0,301,2144,6,1,129,90,1.0,-0.310070485259,-0.146368003411,1,1.0,1.0,0.219857690856,0,0.0,0.0,0.254792718217,0.308101560651,0.0723068140832,0.380408374734,0.235794746568,nan,nan,0.0,0.0,0.0,nan,nan,735.190090426,1067.77943213,1067.99928982,1068.27943584,nan,nan
0,302,2145,6,0,173,121,1.0,-0.165909522591,0.273535192888,0,1.0,0.0,0.21167569235,0,0.0,0.0,0.22252344309,0.307809362407,0.0723647878239,0.380174150231,0.235444574583,nan,nan,0.0,0.0,0.0,nan,nan,735.190090426,1068.77957497,1068.99125066,1069.27961203,nan,nan
0,303,2146,6,1,253,177,0.513865899396,0.244839928328,0.655977188727,1,1.0,1.0,0.291545048356,0,0.0,0.0,0.241026143854,0.307492089568,0.0724553637942,0.379947453363,0.235036725774,nan,nan,0.0,0.0,0.0,nan,nan,735.190090426,1069.77967019,1070.07121524,1070.27969756,nan,nan
0,304,2147,6,1,346,243,-0.174317561957,0.466431294057,0.176670174816,1,1.0,1.0,0.307410412468,0,0.0,0.0,0.270210384391,0.307439632196,0.0723418586873,0.379781490883,0.235097773509,nan,nan,0.0,0.0,0.0,nan,nan,735.190090426,1070.77979563,1071.08720604,1071.27985037,nan,nan
0,305,2148,6,1,389,273,-0.0691208065164,0.476626077068,-0.280234315682,1,1.0,1.0,0.275230088271,0,0.0,0.0,0.291395183032,0.307439536394,0.0722231681284,0.379662704522,0.235216368265,nan,nan,0.0,0.0,0.0,nan,nan,735.190090426,1071.77993875,1072.05516884,1072.27995757,nan,nan
0,306,2149,6,1,123,86,1.0,-0.311441137266,-0.208672863777,1,1.0,1.0,0.282753797248,0,0.0,0.0,0.288464765996,0.307334276759,0.0721284890326,0.379462765792,0.235205787727,nan,nan,0.0,0.0,0.0,nan,nan,735.190090426,1072.78838076,1073.07113455,1073.2884469,nan,nan
0,307,2150,6,1,213,149,0.929785093221,0.0521668813814,0.548906519778,1,1.0,1.0,0.266624149866,0,0.0,0.0,0.274869345129,0.307254210051,0.0720245394418,0.379278749493,0.235229670609,nan,nan,0.0,0.0,0.0,nan,nan,735.190090426,1073.78854013,1074.05516428,1074.28854554,nan,nan
0,308,2151,6,1,389,273,-0.0691208065164,0.476626077068,-0.280234315682,1,1.0,1.0,0.210126760416,0,0.0,0.0,0.253168235843,0.307122294271,0.0719446591647,0.379066953436,0.235177635106,nan,nan,0.0,0.0,0.0,nan,nan,735.190090426,1074.79697871,1075.00710547,1075.29705369,nan,nan
0,309,2152,6,1,96,67,1.0,-0.25681952169,-0.503302481145,1,1.0,1.0,0.209987631999,0,1.0,0.0,0.228912847427,0.306808392867,0.0720390974643,0.378847490331,0.234769295403,nan,nan,0.0,0.0,0.0,nan,nan,735.190090426,1075.79711841,1076.00710604,1076.29718113,nan,nan
0,310,2157,6,1,394,277,-0.0437090198531,0.474655926729,-0.339401417396,1,1.0,1.0,0.24948098138,1,0.0,0.0,0.223198457931,0.306496067832,0.072132051247,0.378628119079,0.234364016585,168.73882988,400.0,-0.0107874812989,0.471427301814,-0.412692688905,4.22992012025,2.35062798299,735.190090426,1076.80556983,1077.05505081,1077.30564053,1078.63077827,1080.98943744
0,311,2158,6,1,33,23,1.0,0.0565990290419,-1.0,1,1.0,1.0,0.696996047162,0,0.0,0.0,0.38548822018,0.30631273958,0.072088290831,0.378401030411,0.234224448749,nan,nan,0.0,0.0,0.0,nan,nan,735.190090426,1082.19795112,1082.89494717,1082.69801441,nan,nan
0,312,2159,6,1,322,226,-0.105067232891,0.43811622051,0.383559350674,1,1.0,1.0,0.288875685073,0,0.0,0.0,0.411784237872,0.307564929668,0.0752841769641,0.382849106632,0.232280752704,nan,nan,0.0,0.0,0.0,nan,nan,735.190090426,1083.19807314,1083.48694883,1083.69809823,nan,nan
0,313,2200,6,1,397,279,-0.0275613476434,0.473159987783,-0.37569455347,1,1.0,1.0,0.240720519796,0,0.0,1.0,0.40886408401,0.307505219621,0.0751712177664,0.382676437388,0.232334001855,nan,nan,0.0,0.0,0.0,nan,nan,735.190090426,1084.19820058,1084.4389211,1084.69828126,nan,nan
0,314,2205,6,1,205,144,1.0,0.00854800403903,0.505535240796,1,1.0,1.0,0.456556632183,1,0.0,0.0,0.328717612351,0.307292529495,0.0751456937665,0.382438223261,0.232146835728,-29.1305595732,169.0,1.0,-0.185917379452,0.239118302078,-25.0100654268,2.11723502725,735.190090426,1085.19832859,1085.65488522,1085.69835852,1087.02352906,1089.14881665
0,315,2206,6,1,491,345,0.673033477965,0.292707709811,-1.0,1,1.0,1.0,0.40147532057,0,0.0,0.0,0.366250824183,0.307766383789,0.0754947256539,0.383261109443,0.232271658135,nan,nan,0.0,0.0,0.0,nan,nan,735.190090426,1090.35731807,1090.75879339,1090.85736283,nan,nan
0,316,2207,6,1,379,266,-0.113535935895,0.478614986251,-0.165970515924,1,1.0,1.0,0.241317228414,0,0.0,0.0,0.366449727056,0.308062931057,0.0755587092592,0.383621640316,0.232504221798,nan,nan,0.0,0.0,0.0,nan,nan,735.190090426,1091.35746147,1091.5987787,1091.85750595,nan,nan
0,317,2208,6,1,270,189,0.331159066004,0.309369715406,0.641393874915,1,1.0,1.0,0.225176175125,0,0.0,0.0,0.289322908036,0.30785237679,0.0755322313098,0.3833846081,0.23232014548,nan,nan,0.0,0.0,0.0,nan,nan,735.190090426,1092.35760032,1092.58277649,1092.85765733,nan,nan
0,318,2209,6,1,440,309,0.258699398066,0.424657399123,-1.0,1,1.0,1.0,0.241028994322,0,0.0,0.0,0.235840799287,0.307592388735,0.0755553080546,0.383147696789,0.23203708068,nan,nan,0.0,0.0,0.0,nan,nan,735.190090426,1093.35771606,1093.59874506,1093.85775113,nan,nan
0,319,2210,6,1,52,36,1.0,-0.0438860552364,-1.0,1,1.0,1.0,0.240884166211,0,0.0,0.0,0.235696445219,0.307383726056,0.0755285046795,0.382912230736,0.231855221377,nan,nan,0.0,0.0,0.0,nan,nan,735.190090426,1094.35785975,1094.59874392,1094.85788228,nan,nan
0,320,2211,6,1,98,68,1.0,-0.263822910468,-0.480217789416,1,1.0,1.0,0.248702095821,0,0.0,0.0,0.243538418785,0.307175914932,0.0755016850642,0.382677599996,0.231674229867,nan,nan,0.0,0.0,0.0,nan,nan,735.190090426,1095.35800487,1095.60670696,1095.85803281,nan,nan
0,321,2212,6,0,33,23,1.0,0.0565990290419,-1.0,0,1.0,0.0,0.248553560115,0,0.0,0.0,0.246046607383,0.306993753501,0.0754543859457,0.382448139447,0.231539367556,nan,nan,0.0,0.0,0.0,nan,nan,735.190090426,1096.35811834,1096.6066719,1096.85814143,nan,nan
0,322,2213,6,1,160,112,1.0,-0.227501418013,0.158297521075,1,1.0,1.0,0.23899283167,0,0.0,0.0,0.245416162536,0.306812262218,0.0754072711965,0.382219533414,0.231404991021,nan,nan,0.0,0.0,0.0,nan,nan,735.190090426,1097.39163263,1097.63062546,1097.89160412,nan,nan
0,323,2214,6,1,476,334,0.547545041103,0.340739382997,-1.0,1,1.0,1.0,0.206618356518,0,0.0,0.0,0.231388249435,0.30660229494,0.0753846656475,0.381986960588,0.231217629293,nan,nan,0.0,0.0,0.0,nan,nan,735.190090426,1098.40003872,1098.60665707,1098.90009944,nan,nan
0,324,2215,6,1,222,156,0.841778467246,0.0997291618919,0.589484691865,1,1.0,1.0,0.294434792362,0,0.0,0.0,0.246681993517,0.306293702538,0.0754722943572,0.381765996895,0.230821408181,nan,nan,0.0,0.0,0.0,nan,nan,735.190090426,1099.40017813,1099.69461292,1099.90020664,nan,nan
0,325,2216,6,1,456,320,0.383612429175,0.392633185378,-1.0,1,1.0,1.0,0.301968196407,0,0.0,0.0,0.267673781763,0.306257213583,0.0753589559552,0.381616169539,0.230898257628,nan,nan,0.0,0.0,0.0,nan,nan,735.190090426,1100.40862156,1100.71058976,1100.90868058,nan,nan
0,326,2217,6,1,177,124,1.0,-0.145192147526,0.306921212481,1,1.0,1.0,0.253781953827,0,0.0,0.0,0.283394980865,0.306244057089,0.0752436597844,0.381487716873,0.231000397305,nan,nan,0.0,0.0,0.0,nan,nan,735.190090426,1101.40877808,1101.66256003,1101.90881343,nan,nan
0,327,2218,6,1,460,323,0.415848916989,0.383334931935,-1.0,1,1.0,1.0,0.301001716405,0,0.0,0.0,0.285583955546,0.306083622522,0.075184343758,0.38126796628,0.230899278764,nan,nan,0.0,0.0,0.0,nan,nan,735.190090426,1102.41755166,1102.71855337,1102.91729592,nan,nan
0,328,2219,6,1,64,45,1.0,-0.108036866323,-1.0,1,1.0,1.0,0.316844273359,0,0.0,0.0,0.290542647863,0.306068128906,0.0750701688154,0.381138297722,0.230997960091,nan,nan,0.0,0.0,0.0,nan,nan,735.190090426,1103.42568006,1103.74252433,1103.92571598,nan,nan
0,329,2220,6,1,329,231,-0.136053278316,0.448203788942,0.3278337444,1,1.0,1.0,0.404682091437,0,0.0,0.0,0.340842693734,0.306100883145,0.074958340872,0.381059224017,0.231142542273,nan,nan,0.0,0.0,0.0,nan,nan,735.190090426,1104.42581719,1104.83049928,1104.92587706,nan,nan
0,330,2221,6,0,455,319,0.375608248681,0.394875365091,-1.0,0,0.0,1.0,0.524491828866,0,0.0,0.0,0.415339397887,0.306399614079,0.0750405647548,0.381440178834,0.231359049324,nan,nan,0.0,0.0,0.0,nan,nan,735.190090426,1105.42598397,1105.9504758,1105.92602502,nan,nan
0,331,2222,6,1,120,84,1.0,-0.310161497659,-0.240162905937,1,1.0,1.0,0.292036556639,0,0.0,0.0,0.407070158981,0.307058502945,0.0758771270599,0.382935630005,0.231181375885,nan,nan,0.0,0.0,0.0,nan,nan,735.190090426,1106.43441571,1106.72645227,1106.93446332,nan,nan
0,332,2223,6,1,232,163,0.739158239773,0.150046616059,0.623712016981,1,1.0,1.0,0.235902951099,0,0.0,0.0,0.350810445535,0.307013256119,0.0757672401387,0.382780496258,0.23124601598,nan,nan,0.0,0.0,0.0,nan,nan,735.190090426,1107.43453374,1107.67043669,1107.9345919,nan,nan
0,333,2224,6,0,422,296,0.128328379107,0.451313674078,-0.730894888444,0,0.0,1.0,0.419720103033,0,0.0,0.0,0.315886536924,0.30679971166,0.07575338293,0.38255309459,0.23104632873,nan,nan,0.0,0.0,0.0,nan,nan,735.190090426,1108.43470053,1108.85442063,1108.93472847,nan,nan
0,334,2225,6,1,39,27,1.0,0.0253789930673,-1.0,1,1.0,1.0,0.219580006786,0,0.0,0.0,0.291734353639,0.307137796664,0.0758910801907,0.383028876854,0.231246716473,nan,nan,0.0,0.0,0.0,nan,nan,735.190090426,1109.43480145,1109.65438146,1109.93485875,nan,nan
0,335,2226,6,1,478,336,0.56422249903,0.334793662244,-1.0,1,1.0,1.0,0.34711416252,0,0.0,0.0,0.328804757446,0.306876430127,0.0759281239742,0.382804554101,0.230948306153,nan,nan,0.0,0.0,0.0,nan,nan,735.190090426,1110.44326512,1110.79037929,1110.9432942,nan,nan
0,336,2227,6,1,367,258,-0.15309091083,0.477560897992,-0.0350816338538,1,1.0,1.0,0.289239753969,0,0.0,0.0,0.285311307758,0.306996185283,0.0758467294525,0.382842914735,0.23114945583,nan,nan,0.0,0.0,0.0,nan,nan,735.190090426,1111.48509342,1111.77433317,1111.98509741,nan,nan
0,337,2228,6,1,61,42,1.0,-0.0921163965413,-1.0,1,1.0,1.0,0.35282750614,0,0.0,0.0,0.329727140876,0.306943495575,0.0757402717776,0.382683767353,0.231203223798,nan,nan,0.0,0.0,0.0,nan,nan,735.190090426,1112.49352716,1112.84635466,1112.99355652,nan,nan
0,338,2229,6,1,2,1,0.863024578927,0.203622855609,-1.0,1,1.0,1.0,0.256335282698,0,0.0,0.0,0.299467514269,0.307079247086,0.0756691945781,0.382748441664,0.231410052508,nan,nan,0.0,0.0,0.0,nan,nan,735.190090426,1113.50200053,1113.75833581,1114.00202761,nan,nan
0,339,2230,6,1,127,89,1.0,-0.31111021432,-0.167036648065,1,1.0,1.0,0.248221422546,0,0.0,0.0,0.285794737128,0.306929559875,0.0756076052997,0.382537165175,0.231321954576,nan,nan,0.0,0.0,0.0,nan,nan,735.190090426,1114.50213338,1114.7503548,1115.00215505,nan,nan
0,340,2231,6,1,391,274,-0.0591907973189,0.475916278612,-0.303718712187,1,1.0,1.0,0.263989567757,0,0.0,0.0,0.256182091,0.306756888883,0.0755632456394,0.382320134523,0.231193643244,nan,nan,0.0,0.0,0.0,nan,nan,735.190090426,1115.50227507,1115.76626464,1116.00228135,nan,nan
0,341,2232,6,1,280,196,0.228089347314,0.342018854333,0.61587222022,1,1.0,1.0,0.231897337362,0,0.0,0.0,0.248036109221,0.306631471519,0.0754877992341,0.382119270753,0.231143672285,nan,nan,0.0,0.0,0.0,nan,nan,735.190090426,1116.50238427,1116.7342816,1117.00240878,nan,nan
0,342,2233,6,1,93,65,1.0,-0.245614297951,-0.538619881923,1,1.0,1.0,0.207752756774,0,0.0,0.0,0.234546553964,0.306412950659,0.0754852902088,0.381898240868,0.23092766045,nan,nan,0.0,0.0,0.0,nan,nan,735.190090426,1117.50250372,1117.71025648,1118.00253622,nan,nan
0,343,2234,6,1,471,331,0.506014005179,0.354993781952,-1.0,1,1.0,1.0,0.223235520534,0,1.0,0.0,0.220961871557,0.30612531161,0.0755626395548,0.381687951165,0.230562672055,nan,nan,0.0,0.0,0.0,nan,nan,735.190090426,1118.51095742,1118.73419294,1119.01100218,nan,nan
0,344,2239,6,1,140,98,1.0,-0.294209249228,-0.0345777392028,1,1.0,1.0,0.22311349865,1,0.0,0.0,0.21803392532,0.305884352915,0.0755845847368,0.381468937652,0.230299768178,-10.6038582599,143.0,1.0,-0.287057525782,-0.00469998909502,2.16635825987,1.75887378678,735.190090426,1119.51110396,1119.73421746,1120.01114016,1121.33630328,1123.10319941
0,345,2240,6,1,304,213,0.0113092810281,0.404708921832,0.506160370659,1,1.0,1.0,0.44636042323,0,0.0,0.0,0.297569814138,0.305644437395,0.075606020906,0.381250458301,0.230038416489,nan,nan,0.0,0.0,0.0,nan,nan,735.190090426,1124.31172079,1124.75808122,1124.81175329,nan,nan
0,346,2241,6,1,2,1,0.863024578927,0.203622855609,-1.0,1,1.0,1.0,0.240608762018,0,0.0,0.0,0.303360894633,0.306051130996,0.0758736599605,0.381924790957,0.230177471036,nan,nan,0.0,0.0,0.0,nan,nan,735.190090426,1125.34144786,1125.58205662,1125.84522939,nan,nan
0,347,2242,6,1,357,251,-0.1717918326,0.473767524415,0.068739031695,1,1.0,1.0,0.220795375295,0,0.0,0.0,0.302588186848,0.305862536273,0.0758454254137,0.381707961687,0.230017110859,nan,nan,0.0,0.0,0.0,nan,nan,735.190090426,1126.34531834,1126.56611371,1126.84535483,nan,nan
0,348,2243,6,1,468,329,0.481236483515,0.363131620867,-1.0,1,1.0,1.0,0.0926032150164,0,1.0,0.0,0.184669117443,0.305618090408,0.0758731366406,0.381491227048,0.229744953767,nan,nan,0.0,0.0,0.0,nan,nan,735.190090426,1127.3454492,1127.43805241,1127.84556352,nan,nan
0,349,2248,6,1,95,66,1.0,-0.253175017597,-0.514975443931,1,1.0,1.0,0.228133771569,1,0.0,0.0,0.180510787293,0.305007732599,0.0766151465646,0.381622879163,0.228392586034,15.7700727654,106.0,1.0,-0.287630069369,-0.390564445695,7.43305223459,1.65885747969,735.190090426,1128.35391202,1128.58204579,1128.85396533,1130.17912246,1131.84602395
0,350,2249,6,0,184,129,1.0,-0.107671891867,0.362640045218,0,0.0,1.0,0.415349281393,0,0.0,0.0,0.245362089326,0.30478809271,0.0766155724511,0.381403665161,0.228172520259,nan,nan,0.0,0.0,0.0,nan,nan,735.190090426,1133.05454818,1133.46989746,1133.55457641,nan,nan
0,351,2250,6,1,503,353,0.773020196022,0.248538461814,-1.0,1,1.0,1.0,0.335228183307,0,0.0,0.0,0.326237078756,0.305103081852,0.0767329707821,0.381836052634,0.22837011107,nan,nan,0.0,0.0,0.0,nan,nan,735.190090426,1134.05465224,1134.38988042,1134.55467933,nan,nan
0,352,2251,6,1,394,277,-0.0437090198531,0.474655926729,-0.339401417396,1,1.0,1.0,0.271088483743,0,0.0,0.0,0.340555316148,0.305188664526,0.0766406715792,0.381829336105,0.228547992947,nan,nan,0.0,0.0,0.0,nan,nan,735.190090426,1135.05478966,1135.32587814,1135.55481617,nan,nan
0,353,2252,6,1,458,322,0.399688045963,0.388050214986,-1.0,1,1.0,1.0,0.230937415734,0,0.0,0.0,0.279084694261,0.305092063448,0.076553495568,0.381645559015,0.22853856788,nan,nan,0.0,0.0,0.0,nan,nan,735.190090426,1136.05490712,1136.28584453,1136.5549362,nan,nan
0,354,2253,6,1,347,243,-0.174938837379,0.46723881498,0.167157479366,1,1.0,1.0,0.214775836095,0,0.0,0.0,0.238933911858,0.304882587042,0.0765465384174,0.381429125459,0.228336048624,nan,nan,0.0,0.0,0.0,nan,nan,735.190090426,1137.0550605,1137.26983634,1137.55507247,nan,nan
0,355,2254,6,1,480,337,0.580928072941,0.32870764083,-1.0,1,1.0,1.0,0.254628122784,0,0.0,0.0,0.233447124871,0.304628765208,0.0765876876798,0.381216452888,0.228041077528,nan,nan,0.0,0.0,0.0,nan,nan,735.190090426,1138.05518965,1138.30981777,1138.55520961,nan,nan
0,356,2255,6,0,221,155,0.851781464038,0.0945411604707,0.585422935822,0,1.0,0.0,0.230461589061,0,0.0,0.0,0.23328851598,0.304488313965,0.0765258140621,0.381014128027,0.227962499903,nan,nan,0.0,0.0,0.0,nan,nan,735.190090426,1139.05532621,1139.2857878,1139.55536014,nan,nan
0,357,2256,6,1,381,267,-0.105403061426,0.478425078289,-0.188431136224,1,1.0,1.0,0.222000764683,0,0.0,0.0,0.235696825509,0.304280956192,0.0765186468467,0.380799603039,0.227762309346,nan,nan,0.0,0.0,0.0,nan,nan,735.190090426,1140.06376565,1140.28576642,1140.563805,nan,nan
0,358,2257,6,1,45,31,1.0,-0.0063957592436,-1.0,1,1.0,1.0,0.229844354093,0,0.0,0.0,0.227435569279,0.304051123255,0.0765349995294,0.380586122784,0.227516123726,nan,nan,0.0,0.0,0.0,nan,nan,735.190090426,1141.06389908,1141.29374343,1141.56392303,nan,nan
0,359,2258,6,0,409,287,0.0429436170054,0.464793150178,-0.529461854507,0,1.0,0.0,0.2536918642,0,0.0,0.0,0.235178994325,0.303844419163,0.07652833343,0.380372752593,0.227316085733,nan,nan,0.0,0.0,0.0,nan,nan,735.190090426,1142.06404847,1142.31774033,1142.56408724,nan,nan
0,360,2259,6,1,233,163,0.728670395113,0.154909781369,0.626482233315,1,1.0,1.0,0.237563925795,0,0.0,0.0,0.240366714696,0.30370510651,0.076467542141,0.380172648651,0.227237564369,nan,nan,0.0,0.0,0.0,nan,nan,735.190090426,1143.0641608,1143.30172472,1143.56420242,nan,nan
0,361,2300,6,1,100,70,1.0,-0.270427092546,-0.457439896749,1,1.0,1.0,0.277376297861,0,0.0,0.0,0.256210695952,0.303521889943,0.0764406444732,0.379962534416,0.22708124547,nan,nan,0.0,0.0,0.0,nan,nan,735.190090426,1144.06430049,1144.34167679,1144.56430677,nan,nan
0,362,2301,6,1,510,358,0.830554458933,0.220436700166,-1.0,1,1.0,1.0,0.324905675836,0,0.0,0.0,0.279948633164,0.30344966455,0.0763473242959,0.379796988846,0.227102340255,nan,nan,0.0,0.0,0.0,nan,nan,735.190090426,1145.07275391,1145.39765958,1145.57277415,nan,nan
0,363,2302,6,1,90,63,1.0,-0.233635786423,-0.574971871003,1,1.0,1.0,0.29278579168,0,0.0,0.0,0.298355921792,0.30350877202,0.0762503838013,0.379759155821,0.227258388218,nan,nan,0.0,0.0,0.0,nan,nan,735.190090426,1146.07287194,1146.36565773,1146.57292639,nan,nan
0,364,2303,6,1,454,319,0.367627362238,0.397084843583,-1.0,1,1.0,1.0,0.308326999657,0,0.0,0.0,0.308672822391,0.303479313282,0.076147640722,0.379626954004,0.22733167256,nan,nan,0.0,0.0,0.0,nan,nan,735.190090426,1147.08131908,1147.38964607,1147.58137666,nan,nan
0,365,2304,6,1,280,196,0.228089347314,0.342018854333,0.61587222022,1,1.0,1.0,0.324168699794,0,0.0,0.0,0.30842716371,0.303492594615,0.0760436795161,0.379536274131,0.227448915099,nan,nan,0.0,0.0,0.0,nan,nan,735.190090426,1148.08145906,1148.40562776,1148.58149584,nan,nan
0,366,2305,6,0,9,6,0.918933560847,0.172916688009,-1.0,0,0.0,1.0,0.411949784495,0,0.0,0.0,0.348148494648,0.303549086706,0.0759473928012,0.379496479507,0.227601693904,nan,nan,0.0,0.0,0.0,nan,nan,735.190090426,1149.08162527,1149.49357505,1149.58165121,nan,nan
0,367,2306,6,1,280,196,0.228089347314,0.342018854333,0.61587222022,1,1.0,1.0,0.28352527041,0,0.0,0.0,0.339881251566,0.303844456454,0.0760540654928,0.379898521947,0.227790390962,nan,nan,0.0,0.0,0.0,nan,nan,735.190090426,1150.09005815,1150.37358342,1150.59009265,nan,nan
0,368,2307,6,1,199,139,1.0,-0.0246761787097,0.468786302982,1,1.0,1.0,0.275363798253,0,0.0,0.0,0.323612951053,0.303789241275,0.0759580263386,0.379747267613,0.227831214936,nan,nan,0.0,0.0,0.0,nan,nan,735.190090426,1151.09019072,1151.36555452,1151.59024318,nan,nan
0,369,2308,6,1,295,207,0.0860222946478,0.38372732295,0.554986075565,1,1.0,1.0,0.22720777709,0,0.0,0.0,0.262032281918,0.303712207554,0.0758694254451,0.379581632999,0.227842782109,nan,nan,0.0,0.0,0.0,nan,nan,735.190090426,1152.09033641,1152.31754419,1152.59035465,nan,nan
0,370,2309,6,1,56,39,1.0,-0.0653675053377,-1.0,1,1.0,1.0,0.227075492032,0,0.0,0.0,0.243215689125,0.303505438823,0.0758708670875,0.37937630591,0.227634571735,nan,nan,0.0,0.0,0.0,nan,nan,735.190090426,1153.09044817,1153.31752366,1153.59048637,nan,nan
0,371,2310,6,1,267,187,0.362924526182,0.298807232282,0.646622522267,1,1.0,1.0,0.234930200502,0,0.0,0.0,0.229737823208,0.303299428185,0.0758720998948,0.37917152808,0.22742732829,nan,nan,0.0,0.0,0.0,nan,nan,735.190090426,1154.09058843,1154.32551863,1154.59060982,nan,nan
0,372,2311,6,0,490,344,0.664660387652,0.296157848571,-1.0,0,1.0,0.0,0.202738471329,0,0.0,0.0,0.221581387954,0.303115639938,0.0758527030459,0.378968342984,0.227262936892,nan,nan,0.0,0.0,0.0,nan,nan,735.190090426,1155.09073269,1155.29347116,1155.59076291,nan,nan
0,373,2312,6,1,273,191,0.299732959835,0.319577193062,0.635038033336,1,1.0,1.0,0.194594674744,0,0.0,0.0,0.210754448858,0.302846532248,0.075928565903,0.378775098151,0.226917966345,nan,nan,0.0,0.0,0.0,nan,nan,735.190090426,1156.09086669,1156.28546136,1156.59089035,nan,nan
0,374,2313,6,1,419,294,0.107894673663,0.454841969249,-0.678098861371,1,1.0,1.0,0.314144688658,0,0.0,0.0,0.237159278244,0.302557088778,0.0760327646734,0.378589853452,0.226524324105,nan,nan,0.0,0.0,0.0,nan,nan,735.190090426,1157.09929501,1157.4134397,1157.5993278,nan,nan
0,375,2314,6,1,152,106,1.0,-0.259184487343,0.0830625546756,1,1.0,1.0,0.289963045157,0,0.0,0.0,0.266234136187,0.302587989045,0.0759336714432,0.378521660488,0.226654317602,nan,nan,0.0,0.0,0.0,nan,nan,735.190090426,1158.09943813,1158.38940118,1158.59947462,nan,nan
0,376,2315,6,1,469,329,0.489482198204,0.360453357602,-1.0,1,1.0,1.0,0.25781493634,0,0.0,0.0,0.287307556719,0.302554412066,0.0758354161242,0.37838982819,0.226718995942,nan,nan,0.0,0.0,0.0,nan,nan,735.190090426,1159.09955645,1159.35737138,1159.59959066,nan,nan
0,377,2316,6,1,361,253,-0.166047812515,0.475607712818,0.0278173107143,1,1.0,1.0,0.281350550242,0,0.0,0.0,0.276376177246,0.302435739717,0.0757697230097,0.378205462727,0.226666016707,nan,nan,0.0,0.0,0.0,nan,nan,735.190090426,1160.10802753,1160.38937808,1160.60806032,nan,nan
0,378,2317,6,0,15,10,0.965734432428,0.145352784795,-1.0,0,0.0,1.0,0.401136054657,0,0.0,0.0,0.31343384708,0.302379958792,0.0756771828189,0.378057141611,0.226702775973,nan,nan,0.0,0.0,0.0,nan,nan,735.190090426,1161.10819945,1161.5093355,1161.60821399,nan,nan
0,379,2318,6,1,387,272,-0.0787219327085,0.477231755363,-0.256974454483,1,1.0,1.0,0.249033663422,0,0.0,0.0,0.310506756107,0.302640528966,0.07574688167,0.378387410636,0.226893647296,nan,nan,0.0,0.0,0.0,nan,nan,735.190090426,1162.10829752,1162.35733118,1162.60831434,nan,nan
0,380,2319,6,1,439,308,0.251144291643,0.426392204401,-1.0,1,1.0,1.0,0.24889881257,0,0.0,0.0,0.299689510216,0.302499458267,0.0756969855311,0.378196443798,0.226802472736,nan,nan,0.0,0.0,0.0,nan,nan,735.190090426,1163.10841127,1163.35731009,1163.60844178,nan,nan
0,381,2320,6,1,345,242,-0.173519535469,0.465595146217,0.186119282857,1,1.0,1.0,0.120839793235,0,1.0,0.0,0.206257423076,0.302358774158,0.0756473074688,0.378006081627,0.226711466689,nan,nan,0.0,0.0,0.0,nan,nan,735.190090426,1164.10853871,1164.22937851,1164.60862025,nan,nan
0,382,2325,6,1,106,74,1.0,-0.287630069369,-0.390564445695,1,1.0,1.0,0.224622517824,1,0.0,0.0,0.198120374543,0.30188359358,0.0761154597893,0.377999053369,0.22576813379,-0.76389846093,129.0,1.0,-0.310070485259,-0.146368003411,16.2326484609,2.35059576668,735.190090426,1165.10867071,1165.33329323,1165.60870122,1166.93387032,1169.29250868
0,383,2326,6,1,51,35,1.0,-0.0385160204876,-1.0,1,1.0,1.0,0.500126583502,0,0.0,0.0,0.281862964854,0.301681867533,0.0761182061006,0.377800073634,0.225563661433,nan,nan,0.0,0.0,0.0,nan,nan,735.190090426,1170.50102122,1171.0011478,1171.00110504,nan,nan
0,384,2327,6,1,261,183,0.427225806086,0.276617811781,0.653674462902,1,1.0,1.0,0.34364367649,0,0.0,0.0,0.356130925938,0.302198650648,0.076688842869,0.378887493517,0.225509807779,nan,nan,0.0,0.0,0.0,nan,nan,735.190090426,1171.50950827,1171.85315195,1172.00953621,nan,nan
0,385,2328,6,1,360,253,-0.167709501072,0.475188317955,0.0381258551808,1,1.0,1.0,0.295463993214,0,0.0,1.0,0.379744751068,0.302306300065,0.0766182274427,0.378924527508,0.225688072623,nan,nan,0.0,0.0,0.0,nan,nan,735.190090426,1172.50963884,1172.80510284,1173.0096779,nan,nan
0,386,2333,6,1,85,59,1.0,-0.212156452387,-0.638781227021,1,1.0,1.0,0.263007692993,1,0.0,0.0,0.300705120899,0.302288573882,0.0765197071506,0.378808281033,0.225768866731,22.9958940261,95.0,1.0,-0.253175017597,-0.514975443931,7.23848097392,1.84218911175,735.190090426,1173.51809226,1173.78109995,1174.01812134,1175.3433007,1177.19352984
0,387,2334,6,1,407,286,0.0305886347219,0.46645515455,-0.502577406972,1,1.0,1.0,0.56292176526,0,0.0,0.0,0.373797817156,0.302187072898,0.0764467948498,0.378633867748,0.225740278048,nan,nan,0.0,0.0,0.0,nan,nan,735.190090426,1178.40205407,1178.96497583,1178.90217295,nan,nan
0,388,2335,6,1,175,123,1.0,-0.155629953633,0.290361762956,1,1.0,1.0,0.31475451123,0,0.0,0.0,0.380227989828,0.302859069527,0.077484266483,0.380343336011,0.225374803044,nan,nan,0.0,0.0,0.0,nan,nan,735.190090426,1179.4021989,1179.71695341,1179.90223881,nan,nan
0,389,2336,6,1,4,2,0.879126049628,0.195014037372,-1.0,1,1.0,1.0,0.258270806633,0,0.0,0.0,0.378649027708,0.302889649069,0.0773869524636,0.380276601533,0.225502696606,nan,nan,0.0,0.0,0.0,nan,nan,735.190090426,1180.4106563,1180.66892711,1180.91067968,nan,nan
