block,trial,freq_trials,correct_response,actual_response,acc,rts,probe_trials,fast_rt_trigger,slow_rt_trigger,rt_triggered,rts_runningavg,rts_runningstd,rts_runningfastthresh,rts_runningslowthresh,rts_runningstd,rts_trailingavg,trials_colorind,trials_colorrgb0,trials_colorrgb1,trials_colorrgb2,wm_respdeg,wm_respdeg_in_colorspace,wm_respcolorminusorigcolor,wm_resptexind,wm_resptexrgb0,wm_resptexrgb1,wm_resptexrgb2,wm_rts,time_blockstart,time_encarray_offset,time_encarray_onset,time_response,time_iti_offset,time_iti_onset,time_memprobe_offset,time_memprobe_onset
1,1,1,1,1.0,1.0,0.458934912458,0,nan,nan,nan,nan,nan,nan,nan,nan,nan,13,0.950262168777,0.154664060346,-1.0,nan,nan,nan,nan,0.0,0.0,0.0,nan,735.190090426,736.20313675,736.703184363,736.662071663,nan,nan,nan,nan
1,2,1,1,1.0,1.0,0.274340013973,0,nan,nan,nan,nan,nan,nan,nan,nan,nan,258,0.459642287315,0.26499291187,0.655490062901,nan,nan,nan,nan,0.0,0.0,0.0,nan,735.190090426,737.211695934,737.711644331,737.486035948,nan,nan,nan,nan
1,3,1,1,1.0,1.0,0.257989985868,0,nan,nan,nan,nan,nan,nan,nan,nan,nan,392,-0.0541067903503,0.475522277549,-0.315549842675,nan,nan,nan,nan,0.0,0.0,0.0,nan,735.190090426,738.220061535,738.720115704,738.478051521,nan,nan,nan,nan
1,4,1,1,1.0,1.0,0.321502473205,0,nan,nan,nan,nan,nan,nan,nan,nan,nan,60,1.0,-0.0867837676833,-1.0,nan,nan,nan,nan,0.0,0.0,0.0,nan,735.190090426,739.228524354,739.728573106,739.550026827,nan,nan,nan,nan
1,5,0,0,0.0,1.0,0.384980177507,0,nan,nan,nan,nan,nan,nan,nan,nan,nan,483,0.606025706087,0.319314454546,-1.0,nan,nan,nan,nan,0.0,0.0,0.0,nan,735.190090426,740.237035926,740.737065576,740.622016103,nan,nan,nan,nan
1,6,1,1,1.0,1.0,0.296542800032,0,nan,nan,nan,nan,nan,nan,nan,nan,nan,367,-0.15309091083,0.477560897992,-0.0350816338538,nan,nan,nan,nan,0.0,0.0,0.0,nan,735.190090426,741.245473942,741.745507583,741.542016742,nan,nan,nan,nan
1,7,1,1,1.0,1.0,0.219971444458,1,nan,nan,nan,nan,nan,nan,nan,nan,nan,71,1.0,-0.144504067012,-0.877980773838,66.1169046645,23.8830953355,-26.0387796645,34.0,1.0,0.0514419701458,-1.0,1.55050807074,735.190090426,742.305995191,742.812336318,742.525966635,745.696000203,746.696159857,744.129129559,745.687669097
1,8,1,1,1.0,1.0,0.733331090771,0,nan,nan,nan,nan,nan,nan,nan,nan,nan,310,-0.032854544558,0.417080732083,0.468828018046,nan,nan,nan,nan,0.0,0.0,0.0,nan,735.190090426,746.904506186,747.404627637,747.637837277,nan,nan,nan,nan
1,9,1,1,1.0,1.0,0.373149791732,0,nan,nan,nan,nan,nan,nan,nan,nan,nan,218,0.881467392804,0.0788246127756,0.572559633417,nan,nan,nan,nan,0.0,0.0,0.0,nan,735.190090426,747.904671542,748.404689789,748.277821334,nan,nan,nan,nan
1,10,1,1,1.0,1.0,0.331336039118,0,nan,nan,nan,nan,nan,nan,nan,nan,nan,163,1.0,-0.214247802105,0.185723682048,nan,nan,nan,nan,0.0,0.0,0.0,nan,735.190090426,748.946480163,749.446481874,749.277816202,nan,nan,nan,nan
1,11,1,1,1.0,1.0,0.299177096225,0,nan,nan,nan,nan,nan,nan,nan,nan,nan,327,-0.128086156831,0.445480682368,0.344176439252,nan,nan,nan,nan,0.0,0.0,0.0,nan,735.190090426,749.946608457,750.446615014,750.245785553,nan,nan,nan,nan
1,12,1,1,1.0,1.0,0.282760069706,0,nan,nan,nan,nan,nan,nan,nan,nan,nan,89,1.0,-0.229484098413,-0.587370487375,nan,nan,nan,nan,0.0,0.0,0.0,nan,735.190090426,750.955042482,751.455087528,751.237802552,nan,nan,nan,nan
1,13,1,1,1.0,1.0,0.240414041094,1,nan,nan,nan,nan,nan,nan,nan,nan,nan,12,0.942476689623,0.159273951266,-1.0,85.1516952316,4.84830476839,-3.58919523161,7.0,0.9030914636,0.181853060355,-1.0,1.96724092774,735.190090426,751.997365703,752.49691525,752.237779744,755.805637109,756.805535899,753.82205271,755.797307715
1,14,1,1,1.0,1.0,0.359499916434,0,nan,nan,nan,nan,nan,nan,nan,nan,nan,329,-0.136053278316,0.448203788942,0.3278337444,nan,nan,nan,nan,0.0,0.0,0.0,nan,735.190090426,757.01415079,757.514194694,757.373650706,nan,nan,nan,nan
1,15,1,1,1.0,1.0,0.359356513247,0,nan,nan,nan,nan,nan,nan,nan,nan,nan,87,1.0,-0.220959007447,-0.612675615602,nan,nan,nan,nan,0.0,0.0,0.0,nan,735.190090426,758.014293623,758.514351498,758.373650136,nan,nan,nan,nan
1,16,1,1,1.0,1.0,0.294854740612,0,nan,nan,nan,nan,nan,nan,nan,nan,nan,497,0.723174939644,0.271260599794,-1.0,nan,nan,nan,nan,0.0,0.0,0.0,nan,735.190090426,759.022770127,759.522794646,759.317624868,nan,nan,nan,nan
1,17,1,1,1.0,1.0,0.310363447294,0,nan,nan,nan,nan,nan,nan,nan,nan,nan,56,1.0,-0.0653675053377,-1.0,nan,nan,nan,nan,0.0,0.0,0.0,nan,735.190090426,760.031236368,760.531262312,760.341599816,nan,nan,nan,nan
1,18,0,0,0.0,1.0,0.342176851816,0,nan,nan,nan,nan,nan,nan,nan,nan,nan,467,0.473005185182,0.365775667588,-1.0,nan,nan,nan,nan,0.0,0.0,0.0,nan,735.190090426,761.03138633,761.531417405,761.373563182,nan,nan,nan,nan
1,19,1,1,1.0,1.0,0.285728785209,0,nan,nan,nan,nan,nan,nan,nan,nan,nan,211,0.948675772315,0.0413606888024,0.538689155053,nan,nan,nan,nan,0.0,0.0,0.0,nan,735.190090426,762.039828907,762.539853426,762.325557692,nan,nan,nan,nan
1,20,1,1,1.0,1.0,0.549240814522,0,nan,nan,nan,nan,nan,nan,nan,nan,nan,385,-0.0879796604702,0.477733444059,-0.233926720364,nan,nan,nan,nan,0.0,0.0,0.0,nan,735.190090426,763.048281749,763.54836072,763.597522563,nan,nan,nan,nan
1,21,0,0,0.0,1.0,0.325080724433,0,nan,nan,nan,nan,nan,nan,nan,nan,nan,256,0.481312611765,0.257047908656,0.656065722404,nan,nan,nan,nan,0.0,0.0,0.0,nan,735.190090426,764.048437697,764.548469057,764.373518421,nan,nan,nan,nan
1,22,1,1,1.0,1.0,0.292934326455,0,nan,nan,nan,nan,nan,nan,nan,nan,nan,126,1.0,-0.311411754845,-0.177408431044,nan,nan,nan,nan,0.0,0.0,0.0,nan,735.190090426,765.048551165,765.548584237,765.341485492,nan,nan,nan,nan
1,23,1,1,1.0,1.0,0.283783853054,0,nan,nan,nan,nan,nan,nan,nan,nan,nan,281,0.218083397074,0.345068392493,0.612644422055,nan,nan,nan,nan,0.0,0.0,0.0,nan,735.190090426,766.07369216,766.57370727,766.357476013,nan,nan,nan,nan
1,24,1,1,1.0,1.0,0.4436203558,0,nan,nan,nan,nan,nan,nan,nan,nan,nan,415,0.0813077335083,0.459153678902,-0.614968023274,nan,nan,nan,nan,0.0,0.0,0.0,nan,735.190090426,767.073817887,767.5738387,767.517438243,nan,nan,nan,nan
1,25,1,1,1.0,1.0,0.315481508151,0,nan,nan,nan,nan,nan,nan,nan,nan,nan,140,1.0,-0.294209249228,-0.0345777392028,nan,nan,nan,nan,0.0,0.0,0.0,nan,735.190090426,768.073937058,768.573967278,768.389418567,nan,nan,nan,nan
1,26,1,1,1.0,1.0,0.243366505019,0,nan,nan,nan,nan,nan,nan,nan,nan,nan,0,0.846831709088,0.212097570855,-1.0,nan,nan,nan,nan,0.0,0.0,0.0,nan,735.190090426,769.074091581,769.574101844,769.317458086,nan,nan,nan,nan
1,27,1,1,1.0,1.0,0.37117634993,0,nan,nan,nan,nan,nan,nan,nan,nan,nan,142,1.0,-0.289568116499,-0.0146273521697,nan,nan,nan,nan,0.0,0.0,0.0,nan,735.190090426,770.074205049,770.574225006,770.445381399,nan,nan,nan,nan
1,28,1,1,1.0,1.0,0.273331912234,0,nan,nan,nan,nan,nan,nan,nan,nan,nan,442,0.273907262724,0.421095538958,-1.0,nan,nan,nan,nan,0.0,0.0,0.0,nan,735.190090426,771.11601424,771.6160265,771.389346153,nan,nan,nan,nan
1,29,1,1,1.0,1.0,0.248883132823,0,nan,nan,nan,nan,nan,nan,nan,nan,nan,65,1.0,-0.113312155659,-1.0,nan,nan,nan,nan,0.0,0.0,0.0,nan,735.190090426,772.124458244,772.624501579,772.373341377,nan,nan,nan,nan
1,30,1,1,1.0,1.0,0.22440384794,0,nan,nan,nan,nan,nan,nan,nan,nan,nan,290,0.131265381085,0.370776544741,0.578206616232,nan,nan,nan,nan,0.0,0.0,0.0,nan,735.190090426,773.132937884,773.632960977,773.357341732,nan,nan,nan,nan
1,31,1,1,1.0,1.0,0.223958810791,0,nan,nan,nan,nan,nan,nan,nan,nan,nan,339,-0.164955840019,0.45996923152,0.241423096872,nan,nan,nan,nan,0.0,0.0,0.0,nan,735.190090426,774.141379037,774.641427218,774.365337848,nan,nan,nan,nan
1,32,1,1,1.0,1.0,0.207441716455,0,nan,nan,nan,nan,nan,nan,nan,nan,nan,295,0.0860222946478,0.38372732295,0.554986075565,nan,nan,nan,nan,0.0,0.0,0.0,nan,735.190090426,775.149864949,775.649886332,775.357306666,nan,nan,nan,nan
1,33,1,1,1.0,1.0,0.206965318881,0,nan,nan,nan,nan,nan,nan,nan,nan,nan,356,-0.17284377641,0.473239407326,0.0788368070227,nan,nan,nan,nan,0.0,0.0,0.0,nan,735.190090426,776.158321497,776.658344304,776.365286816,nan,nan,nan,nan
1,34,1,1,1.0,1.0,0.246448119171,0,nan,nan,nan,nan,nan,nan,nan,nan,nan,152,1.0,-0.259184487343,0.0830625546756,nan,nan,nan,nan,0.0,0.0,0.0,nan,735.190090426,777.166774623,777.66681083,777.413222742,nan,nan,nan,nan
1,35,1,1,1.0,1.0,0.214267509058,0,nan,nan,nan,nan,nan,nan,nan,nan,nan,427,0.163265173604,0.444863218481,-0.840208708629,nan,nan,nan,nan,0.0,0.0,0.0,nan,735.190090426,778.166933137,778.66694169,778.381200646,nan,nan,nan,nan
1,36,1,1,1.0,1.0,0.197863027453,0,nan,nan,nan,nan,nan,nan,nan,nan,nan,248,0.568115903494,0.223728204869,0.653295769881,nan,nan,nan,nan,0.0,0.0,0.0,nan,735.190090426,779.175365166,779.675401088,779.373228193,nan,nan,nan,nan
1,37,0,0,1.0,0.0,0.197661748156,0,0.0,0.0,0.0,nan,nan,nan,nan,nan,nan,478,0.56422249903,0.334793662244,-1.0,nan,nan,nan,nan,0.0,0.0,0.0,nan,735.190090426,780.175529097,780.675567015,780.373190845,nan,nan,nan,nan
1,38,1,1,1.0,1.0,0.413180832751,0,nan,nan,nan,nan,nan,nan,nan,nan,nan,188,1.0,-0.0857393506835,0.392804289229,nan,nan,nan,nan,0.0,0.0,0.0,nan,735.190090426,781.183972815,781.683997333,781.597153648,nan,nan,nan,nan
1,39,1,1,1.0,1.0,0.26902124472,0,nan,nan,nan,nan,nan,nan,nan,nan,nan,493,0.689769084006,0.285700779988,-1.0,nan,nan,nan,nan,0.0,0.0,0.0,nan,735.190090426,782.184107951,782.684129903,782.453129196,nan,nan,nan,nan
1,40,0,0,0.0,1.0,0.332854465581,0,nan,nan,nan,nan,nan,nan,nan,nan,nan,64,1.0,-0.108036866323,-1.0,nan,nan,nan,nan,0.0,0.0,0.0,nan,735.190090426,783.184258767,783.684291269,783.517113233,nan,nan,nan,nan
1,41,1,1,1.0,1.0,0.260403903201,0,nan,nan,nan,nan,nan,nan,nan,nan,nan,444,0.289241202529,0.417409780569,-1.0,nan,nan,nan,nan,0.0,0.0,0.0,nan,735.190090426,784.192676541,784.692722443,784.453080445,nan,nan,nan,nan
1,42,1,1,1.0,1.0,0.275914605707,0,nan,nan,nan,nan,nan,nan,nan,nan,nan,33,1.0,0.0565990290419,-1.0,nan,nan,nan,nan,0.0,0.0,0.0,nan,735.190090426,785.201149625,785.701187258,785.47706423,nan,nan,nan,nan
1,43,0,0,1.0,0.0,0.34773567412,0,0.0,0.0,0.0,nan,nan,nan,nan,nan,nan,271,0.320642857732,0.312811632898,0.639400143054,nan,nan,nan,nan,0.0,0.0,0.0,nan,735.190090426,786.20131327,786.701350903,786.549048944,nan,nan,nan,nan
1,44,1,1,1.0,1.0,0.283627904952,0,nan,nan,nan,nan,nan,nan,nan,nan,nan,67,1.0,-0.12380466598,-1.0,nan,nan,nan,nan,0.0,0.0,0.0,nan,735.190090426,787.201424173,787.701468648,787.485052078,nan,nan,nan,nan
1,45,1,1,1.0,1.0,0.243413831107,1,nan,nan,nan,nan,nan,nan,nan,nan,nan,146,1.0,-0.278792578557,0.0248813210997,-102.059180689,192.059180689,89.4029306895,273.0,0.299732959835,0.319577193062,0.635038033336,1.80887238961,735.190090426,788.20157727,788.701604069,788.444991102,791.851975067,792.851803723,790.026743525,791.843644246
1,46,1,1,1.0,1.0,0.480740842409,0,nan,nan,nan,nan,nan,nan,nan,nan,nan,208,0.97651257568,0.025020743352,0.522574479073,nan,nan,nan,nan,0.0,0.0,0.0,nan,735.190090426,793.052187292,793.552197841,793.532928134,nan,nan,nan,nan
1,47,1,1,1.0,1.0,0.296605805866,0,nan,nan,nan,nan,nan,nan,nan,nan,nan,443,0.281558783006,0.419268214519,-1.0,nan,nan,nan,nan,0.0,0.0,0.0,nan,735.190090426,794.052315586,794.552329271,794.348921392,nan,nan,nan,nan
1,48,1,1,1.0,1.0,0.28045192454,0,nan,nan,nan,nan,nan,nan,nan,nan,nan,492,0.681403316433,0.289222019555,-1.0,nan,nan,nan,nan,0.0,0.0,0.0,nan,735.190090426,795.052439318,795.552464122,795.332891243,nan,nan,nan,nan
1,49,1,1,1.0,1.0,0.327941959724,0,nan,nan,nan,nan,nan,nan,nan,nan,nan,158,1.0,-0.235949227405,0.139764106,nan,nan,nan,nan,0.0,0.0,0.0,nan,735.190090426,796.060885602,796.560926371,796.388827561,nan,nan,nan,nan
1,50,1,1,1.0,1.0,0.263485801406,0,nan,nan,nan,nan,nan,nan,nan,nan,nan,469,0.489482198204,0.360453357602,-1.0,nan,nan,nan,nan,0.0,0.0,0.0,nan,735.190090426,797.069342149,797.569394322,797.332827951,nan,nan,nan,nan
1,51,0,0,1.0,0.0,0.231297208928,0,0.0,0.0,0.0,nan,nan,nan,nan,nan,nan,168,1.0,-0.190790017254,0.230361799274,nan,nan,nan,nan,0.0,0.0,0.0,nan,735.190090426,798.069516914,798.56953459,798.300814123,nan,nan,nan,nan
1,52,1,1,1.0,1.0,0.27887277212,0,nan,nan,nan,nan,nan,nan,nan,nan,nan,463,0.440238315199,0.376011795327,-1.0,nan,nan,nan,nan,0.0,0.0,0.0,nan,735.190090426,799.077940105,799.57798344,799.356812878,nan,nan,nan,nan
1,53,1,1,1.0,1.0,0.286682719365,0,nan,nan,nan,nan,nan,nan,nan,nan,nan,72,1.0,-0.149607777062,-0.853203742106,nan,nan,nan,nan,0.0,0.0,0.0,nan,735.190090426,800.078092062,800.578117721,800.364774781,nan,nan,nan,nan
1,54,1,1,1.0,1.0,0.318491563201,0,nan,nan,nan,nan,nan,nan,nan,nan,nan,299,0.0516645560415,0.393417669654,0.534378752182,nan,nan,nan,nan,0.0,0.0,0.0,nan,735.190090426,801.078271958,801.578263691,801.396763521,nan,nan,nan,nan
1,55,1,1,1.0,1.0,0.302382441238,0,nan,nan,nan,nan,nan,nan,nan,nan,nan,235,0.707591924495,0.164537776567,0.631659631194,nan,nan,nan,nan,0.0,0.0,0.0,nan,735.190090426,802.078356062,802.578368891,802.380738503,nan,nan,nan,nan
1,56,1,1,1.0,1.0,0.302204541862,0,nan,nan,nan,nan,nan,nan,nan,nan,nan,476,0.547545041103,0.340739382997,-1.0,nan,nan,nan,nan,0.0,0.0,0.0,nan,735.190090426,803.07848293,803.578523128,803.380687471,nan,nan,nan,nan
1,57,1,1,1.0,1.0,0.334087794647,0,nan,nan,nan,nan,nan,nan,nan,nan,nan,304,0.0113092810281,0.404708921832,0.506160370659,nan,nan,nan,nan,0.0,0.0,0.0,nan,735.190090426,804.078592123,804.578635172,804.412679917,nan,nan,nan,nan
1,58,1,1,1.0,1.0,0.285590227693,0,nan,nan,nan,nan,nan,nan,nan,nan,nan,172,1.0,-0.170984061773,0.265024678188,nan,nan,nan,nan,0.0,0.0,0.0,nan,735.190090426,805.087058933,805.58709343,805.372649161,nan,nan,nan,nan
1,59,1,1,1.0,1.0,0.309439733624,0,nan,nan,nan,nan,nan,nan,nan,nan,nan,84,1.0,-0.20765784414,-0.652191087791,nan,nan,nan,nan,0.0,0.0,0.0,nan,735.190090426,806.087185516,806.587233127,806.39662525,nan,nan,nan,nan
1,60,1,1,1.0,1.0,0.301329863258,0,nan,nan,nan,nan,nan,nan,nan,nan,nan,35,1.0,0.0462653595507,-1.0,nan,nan,nan,nan,0.0,0.0,0.0,nan,735.190090426,807.087335763,807.587367693,807.388665626,nan,nan,nan,nan
1,61,1,1,1.0,1.0,0.325128336437,1,nan,nan,nan,nan,nan,nan,nan,nan,nan,468,0.481236483515,0.363131620867,-1.0,130.467738291,319.532261709,-9.5302382913,454.0,0.367627362238,0.397084843583,-1.0,1.44215381704,735.190090426,808.087457499,808.58749114,808.412585835,811.371217119,812.370524903,809.912652262,811.362839828
1,62,1,1,1.0,1.0,0.310044993646,0,nan,nan,nan,nan,nan,nan,nan,nan,nan,113,1.0,-0.302191989669,-0.314576349441,nan,nan,nan,nan,0.0,0.0,0.0,nan,735.190090426,812.654498631,813.154761205,812.964543625,nan,nan,nan,nan
1,63,1,1,1.0,1.0,0.301640334539,0,nan,nan,nan,nan,nan,nan,nan,nan,nan,23,1.0,0.106943944166,-1.0,nan,nan,nan,nan,0.0,0.0,0.0,nan,735.190090426,813.654827918,814.154897481,813.956468252,nan,nan,nan,nan
1,64,1,1,1.0,1.0,0.237497213297,0,nan,nan,nan,nan,nan,nan,nan,nan,nan,177,1.0,-0.145192147526,0.306921212481,nan,nan,nan,nan,0.0,0.0,0.0,nan,735.190090426,814.6549813,815.155004678,814.892478514,nan,nan,nan,nan
1,65,1,1,1.0,1.0,0.173412537202,0,nan,nan,nan,nan,nan,nan,nan,nan,nan,249,0.557275547736,0.228026269286,0.654084877906,nan,nan,nan,nan,0.0,0.0,0.0,nan,735.190090426,815.6550999,816.155156065,815.828512438,nan,nan,nan,nan
1,66,1,1,1.0,1.0,0.173209547997,0,nan,nan,nan,nan,nan,nan,nan,nan,nan,348,-0.175384772129,0.468017843042,0.157582163916,nan,nan,nan,nan,0.0,0.0,0.0,nan,735.190090426,816.65522905,817.155291486,816.828438598,nan,nan,nan,nan
1,67,1,1,1.0,1.0,0.181028903462,0,nan,nan,nan,nan,nan,nan,nan,nan,nan,179,1.0,-0.13461441766,0.323204131591,nan,nan,nan,nan,0.0,0.0,0.0,nan,735.190090426,817.655371883,818.155428617,817.836400786,nan,nan,nan,nan
1,68,1,1,1.0,1.0,0.228898687288,0,nan,nan,nan,nan,nan,nan,nan,nan,nan,112,1.0,-0.300501516081,-0.325324861792,nan,nan,nan,nan,0.0,0.0,0.0,nan,735.190090426,818.655493905,819.155531823,818.884392592,nan,nan,nan,nan
1,69,1,1,1.0,1.0,0.252736789174,0,nan,nan,nan,nan,nan,nan,nan,nan,nan,419,0.107894673663,0.454841969249,-0.678098861371,nan,nan,nan,nan,0.0,0.0,0.0,nan,735.190090426,819.655625619,820.155645861,819.908362408,nan,nan,nan,nan
1,70,1,1,1.0,1.0,0.260620290413,0,nan,nan,nan,nan,nan,nan,nan,nan,nan,74,1.0,-0.159715158178,-0.810443278181,nan,nan,nan,nan,0.0,0.0,0.0,nan,735.190090426,820.655734812,821.155781282,820.916355102,nan,nan,nan,nan
1,71,1,1,1.0,1.0,0.236488539726,0,nan,nan,nan,nan,nan,nan,nan,nan,nan,426,0.156193047225,0.446210853967,-0.81485970128,nan,nan,nan,nan,0.0,0.0,0.0,nan,735.190090426,821.655865956,822.155905585,821.892354496,nan,nan,nan,nan
1,72,1,1,1.0,1.0,0.27628209535,0,nan,nan,nan,nan,nan,nan,nan,nan,nan,502,0.764740937618,0.25241357569,-1.0,nan,nan,nan,nan,0.0,0.0,0.0,nan,735.190090426,822.656007079,823.156045567,822.932289175,nan,nan,nan,nan
1,73,1,1,1.0,1.0,0.284131101333,0,nan,nan,nan,nan,nan,nan,nan,nan,nan,422,0.128328379107,0.451313674078,-0.730894888444,nan,nan,nan,nan,0.0,0.0,0.0,nan,735.190090426,823.656139649,824.156175287,823.940270751,nan,nan,nan,nan
1,74,1,1,1.0,1.0,0.259989086539,0,nan,nan,nan,nan,nan,nan,nan,nan,nan,185,1.0,-0.102214474652,0.370299946716,nan,nan,nan,nan,0.0,0.0,0.0,nan,735.190090426,824.656272504,825.156316695,824.916261591,nan,nan,nan,nan
1,75,1,1,1.0,1.0,0.275851028971,0,nan,nan,nan,nan,nan,nan,nan,nan,nan,285,0.178734351563,0.356878681702,0.598527012995,nan,nan,nan,nan,0.0,0.0,0.0,nan,735.190090426,825.656411347,826.156427027,825.932262376,nan,nan,nan,nan
1,76,1,1,1.0,1.0,0.283702599816,0,nan,nan,nan,nan,nan,nan,nan,nan,nan,176,1.0,-0.150429669724,0.298675466069,nan,nan,nan,nan,0.0,0.0,0.0,nan,735.190090426,826.656517688,827.156550189,826.940220288,nan,nan,nan,nan
1,77,1,1,1.0,1.0,0.243243343197,0,nan,nan,nan,nan,nan,nan,nan,nan,nan,495,0.706485112283,0.278551693791,-1.0,nan,nan,nan,nan,0.0,0.0,0.0,nan,735.190090426,827.664988776,828.165030114,827.908232119,nan,nan,nan,nan
1,78,1,1,1.0,1.0,0.33110425435,0,nan,nan,nan,nan,nan,nan,nan,nan,nan,449,0.328095008353,0.407646248688,-1.0,nan,nan,nan,nan,0.0,0.0,0.0,nan,735.190090426,828.665121631,829.165156127,828.996225885,nan,nan,nan,nan
1,79,1,1,1.0,1.0,0.26657112129,0,nan,nan,nan,nan,nan,nan,nan,nan,nan,162,1.0,-0.218739557155,0.176632971453,nan,nan,nan,nan,0.0,0.0,0.0,nan,735.190090426,829.673578178,830.173618376,829.940149299,nan,nan,nan,nan
1,80,1,1,1.0,1.0,0.250472548418,0,nan,nan,nan,nan,nan,nan,nan,nan,nan,65,1.0,-0.113312155659,-1.0,nan,nan,nan,nan,0.0,0.0,0.0,nan,735.190090426,830.673711888,831.173752087,830.924184437,nan,nan,nan,nan
1,81,0,0,0.0,1.0,0.378296363167,0,0.0,0.0,0.0,0.295876634819,0.0823711513795,0.21350548344,0.378247786199,0.0823711513795,0.298446677625,262,0.416452475899,0.2804144186,0.652815538838,nan,nan,nan,nan,0.0,0.0,0.0,nan,735.190090426,831.673837046,832.173904044,832.052133409,nan,nan,nan,nan
1,82,1,1,1.0,1.0,0.250161508098,0,0.0,0.0,0.0,0.29689416233,0.0823654663376,0.214528695992,0.379259628668,0.0823654663376,0.292976806561,459,0.407758158413,0.385709174134,-1.0,nan,nan,nan,nan,0.0,0.0,0.0,nan,735.190090426,832.673974748,833.17402464,832.924136256,nan,nan,nan,nan
1,83,1,1,1.0,1.0,0.265939916484,0,0.0,0.0,0.0,0.296324251912,0.0820222293777,0.214302022535,0.37834648129,0.0820222293777,0.298132595917,51,1.0,-0.0385160204876,-1.0,nan,nan,nan,nan,0.0,0.0,0.0,nan,735.190090426,833.674118152,834.174138679,833.940058068,nan,nan,nan,nan
1,84,1,1,1.0,1.0,0.281857453287,0,0.0,0.0,0.0,0.295958175582,0.0815939894169,0.214364186165,0.377552164999,0.0815939894169,0.265986292623,143,1.0,-0.287057525782,-0.00469998909502,nan,nan,nan,nan,0.0,0.0,0.0,nan,735.190090426,834.674256423,835.174264407,834.956113877,nan,nan,nan,nan
1,85,1,1,1.0,1.0,0.233692878857,0,0.0,0.0,0.0,0.29579030984,0.0811212738073,0.214669036033,0.376911583648,0.0811212738073,0.260496749543,433,0.206536295144,0.436163724167,-1.0,nan,nan,nan,nan,0.0,0.0,0.0,nan,735.190090426,835.674369037,836.174411802,835.908061916,nan,nan,nan,nan
1,86,1,1,1.0,1.0,0.249541136436,0,0.0,0.0,0.0,0.295059751829,0.0809201679613,0.214139583868,0.37597991979,0.0809201679613,0.255030489527,100,1.0,-0.270427092546,-0.457439896749,nan,nan,nan,nan,0.0,0.0,0.0,nan,735.190090426,836.674497901,837.174519284,836.924039037,nan,nan,nan,nan
1,87,1,1,1.0,1.0,0.273388646543,0,0.0,0.0,0.0,0.294530465603,0.0805961874074,0.213934278196,0.375126653011,0.0805961874074,0.252207553945,7,0.9030914636,0.181853060355,-1.0,nan,nan,nan,nan,0.0,0.0,0.0,nan,735.190090426,837.674620207,838.174652424,837.948008854,nan,nan,nan,nan
1,88,1,1,1.0,1.0,0.272937337868,0,0.0,0.0,0.0,0.294287456189,0.0801633350827,0.214124121106,0.374450791272,0.0801633350827,0.265289040282,224,0.821619416966,0.11002478857,0.597264883709,nan,nan,nan,nan,0.0,0.0,0.0,nan,735.190090426,838.683070198,839.183125792,838.956007536,nan,nan,nan,nan
1,89,1,1,1.0,1.0,0.26474593021,0,0.0,0.0,0.0,0.294044841208,0.0797386778128,0.214306163395,0.373783519021,0.0797386778128,0.270357304874,494,0.698129958021,0.282143999684,-1.0,nan,nan,nan,nan,0.0,0.0,0.0,nan,735.190090426,839.683239831,840.183245532,839.947985761,nan,nan,nan,nan
1,90,1,1,1.0,1.0,0.272581251338,0,0.0,0.0,0.0,0.293715639961,0.0793495590218,0.214366080939,0.373065198983,0.0793495590218,0.270088173139,83,1.0,-0.203097876184,-0.665876706514,nan,nan,nan,nan,0.0,0.0,0.0,nan,735.190090426,840.683346742,841.183368124,840.955927993,nan,nan,nan,nan
1,91,1,1,1.0,1.0,0.280416572466,0,0.0,0.0,0.0,0.29348081342,0.0789385888929,0.214542224528,0.372419402313,0.0789385888929,0.272581251338,437,0.23613482661,0.429770237144,-1.0,nan,nan,nan,nan,0.0,0.0,0.0,nan,735.190090426,841.683481593,842.183511813,841.963898165,nan,nan,nan,nan
1,92,1,1,1.0,1.0,0.279976382852,0,0.0,0.0,0.0,0.293337250333,0.0785154756444,0.214821774689,0.371852725977,0.0785154756444,0.277658068885,227,0.791019951953,0.125257787881,0.608066708266,nan,nan,nan,nan,0.0,0.0,0.0,nan,735.190090426,842.691940991,843.191987462,842.971917374,nan,nan,nan,nan
1,93,1,1,1.0,1.0,0.255839213729,0,0.0,0.0,0.0,0.293192023513,0.0780998834234,0.215092140089,0.371291906936,0.0780998834234,0.272077389682,175,1.0,-0.155629953633,0.290361762956,nan,nan,nan,nan,0.0,0.0,0.0,nan,735.190090426,843.692069856,844.192093804,843.947909069,nan,nan,nan,nan
1,94,0,0,1.0,0.0,0.23163134139,0,0.0,0.0,0.0,0.292790380397,0.0777743271521,0.215016053245,0.370564707549,0.0777743271521,0.25581564599,414,0.0747837862165,0.460162189034,-0.600089175003,nan,nan,nan,nan,0.0,0.0,0.0,nan,735.190090426,844.692220957,845.192320171,844.923852298,nan,nan,nan,nan
1,95,1,1,1.0,1.0,0.415171951056,0,0.0,0.0,0.0,0.292139752322,0.0776135620218,0.2145261903,0.369753314344,0.0776135620218,0.300880835392,332,-0.146647089803,0.45205423783,0.302714191958,nan,nan,nan,nan,0.0,0.0,0.0,nan,735.190090426,845.700658972,846.200703733,846.115830923,nan,nan,nan,nan
1,96,1,1,1.0,1.0,0.303051278926,0,0.0,0.0,0.0,0.293434828098,0.0782183782966,0.215216449802,0.371653206395,0.0782183782966,0.316618190457,290,0.131265381085,0.370776544741,0.578206616232,nan,nan,nan,nan,0.0,0.0,0.0,nan,735.190090426,846.700784416,847.200825755,847.003835695,nan,nan,nan,nan
1,97,0,0,0.0,1.0,0.390868856572,0,0.0,0.0,0.0,0.293534999461,0.0778160497618,0.215718949699,0.371351049223,0.0778160497618,0.369697362185,338,-0.162891363375,0.458928707883,0.250399161362,nan,nan,nan,nan,0.0,0.0,0.0,nan,735.190090426,847.700944925,848.200975715,848.091813781,nan,nan,nan,nan
1,98,1,1,1.0,1.0,0.29440827854,0,0.0,0.0,0.0,0.294538441287,0.0780357187928,0.216502722494,0.37257416008,0.0780357187928,0.329442804679,7,0.9030914636,0.181853060355,-1.0,nan,nan,nan,nan,0.0,0.0,0.0,nan,735.190090426,848.709389213,849.20943825,849.003797492,nan,nan,nan,nan
1,99,1,1,1.0,1.0,0.293886265717,0,0.0,0.0,0.0,0.294537113096,0.0776365575903,0.216900555505,0.372173670686,0.0776365575903,0.326387800276,433,0.206536295144,0.436163724167,-1.0,nan,nan,nan,nan,0.0,0.0,0.0,nan,735.190090426,849.717845476,850.217876837,850.011731742,nan,nan,nan,nan
1,100,1,1,1.0,1.0,0.277764029801,0,0.0,0.0,0.0,0.29453053888,0.0772434859874,0.217287052892,0.371774024867,0.0772434859874,0.288686191353,354,-0.174470673547,0.472100788149,0.0988677247603,nan,nan,nan,nan,0.0,0.0,0.0,nan,735.190090426,850.717983178,851.218012542,850.995747208,nan,nan,nan,nan
1,101,1,1,1.0,1.0,0.285614175722,0,0.0,0.0,0.0,0.294362873789,0.076874401545,0.217488472244,0.371237275334,0.076874401545,0.285754823747,270,0.331159066004,0.309369715406,0.641393874915,nan,nan,nan,nan,0.0,0.0,0.0,nan,735.190090426,851.718122875,852.218146823,852.003737051,nan,nan,nan,nan
1,102,1,1,1.0,1.0,0.293157557026,0,0.0,0.0,0.0,0.294276253016,0.0764977928361,0.21777846018,0.370774045852,0.0764977928361,0.285511920849,144,1.0,-0.284423189345,0.00519445478499,nan,nan,nan,nan,0.0,0.0,0.0,nan,735.190090426,852.726551198,853.22660223,853.019708755,nan,nan,nan,nan
1,103,1,1,1.0,1.0,0.256715317257,0,0.0,0.0,0.0,0.294265285408,0.0761219598318,0.218143325576,0.37038724524,0.0761219598318,0.278495683335,359,-0.169222339917,0.474741883077,0.0483828026834,nan,nan,nan,nan,0.0,0.0,0.0,nan,735.190090426,853.755001029,854.260066632,854.011716346,nan,nan,nan,nan
1,104,1,1,1.0,1.0,0.275470709428,0,0.0,0.0,0.0,0.293900722611,0.0758409611632,0.218059761447,0.369741683774,0.0758409611632,0.275114527903,118,1.0,-0.308588151016,-0.261285249573,nan,nan,nan,nan,0.0,0.0,0.0,nan,735.190090426,854.760165276,855.260192646,855.035635985,nan,nan,nan,nan
1,105,1,1,1.0,1.0,0.25900920853,0,0.0,0.0,0.0,0.293723510945,0.0754968856056,0.21822662534,0.369220396551,0.0754968856056,0.263731745072,233,0.728670395113,0.154909781369,0.626482233315,nan,nan,nan,nan,0.0,0.0,0.0,nan,735.190090426,855.768643776,856.268650903,856.027652984,nan,nan,nan,nan
1,106,1,1,1.0,1.0,0.47483904846,0,0.0,0.0,0.0,0.293392898541,0.0752121253125,0.218180773229,0.368605023854,0.0752121253125,0.336439655473,367,-0.15309091083,0.477560897992,-0.0350816338538,nan,nan,nan,nan,0.0,0.0,0.0,nan,735.190090426,856.768754679,857.268780908,857.243593727,nan,nan,nan,nan
1,107,1,1,1.0,1.0,0.290350207128,0,0.0,0.0,0.0,0.295104654673,0.0768840594989,0.218220595174,0.371988714172,0.0768840594989,0.341399488039,66,1.0,-0.118568705386,-1.0,nan,nan,nan,nan,0.0,0.0,0.0,nan,735.190090426,857.777234605,858.277284496,858.067584812,nan,nan,nan,nan
1,108,1,1,1.0,1.0,0.329769430682,0,0.0,0.0,0.0,0.295060220584,0.0765253122649,0.218534908319,0.371585532848,0.0765253122649,0.364986228757,204,1.0,0.00303256528985,0.499654420455,nan,nan,nan,nan,0.0,0.0,0.0,nan,735.190090426,858.785802624,859.285718806,859.115572055,nan,nan,nan,nan
1,109,1,1,1.0,1.0,0.3137230305,0,0.0,0.0,0.0,0.295381602159,0.0762427154996,0.219138886659,0.371624317658,0.0762427154996,0.311280889437,146,1.0,-0.278792578557,0.0248813210997,nan,nan,nan,nan,0.0,0.0,0.0,nan,735.190090426,859.785826858,860.285869623,860.099549889,nan,nan,nan,nan
1,110,1,1,0.0,0.0,0.353242892772,0,0.0,0.0,0.0,0.295549872143,0.0759123167347,0.219637555409,0.371462188878,0.0759123167347,0.332245117985,407,0.0305886347219,0.46645515455,-0.502577406972,nan,nan,nan,nan,0.0,0.0,0.0,nan,735.190090426,860.794282265,861.294319328,861.147525158,nan,nan,nan,nan
1,111,1,1,1.0,1.0,0.441091829911,0,0.0,0.0,0.0,0.296074354149,0.0757646071947,0.220309746954,0.371838961344,0.0757646071947,0.369352584394,334,-0.152796554809,0.454467054946,0.285576400052,nan,nan,nan,nan,0.0,0.0,0.0,nan,735.190090426,861.794406568,862.294439353,862.235498398,nan,nan,nan,nan
1,112,1,1,1.0,1.0,0.320956796408,0,0.0,0.0,0.0,0.297380817895,0.0766571244887,0.220723693406,0.374037942383,0.0766571244887,0.371763839697,77,1.0,-0.174593022316,-0.756267193339,nan,nan,nan,nan,0.0,0.0,0.0,nan,735.190090426,862.794536572,863.294584753,863.115493368,nan,nan,nan,nan
1,113,1,1,1.0,1.0,0.352802132256,0,0.0,0.0,0.0,0.297591317703,0.0763463559564,0.221244961746,0.373937673659,0.0763463559564,0.371616919525,338,-0.162891363375,0.458928707883,0.250399161362,nan,nan,nan,nan,0.0,0.0,0.0,nan,735.190090426,863.794671423,864.294715612,864.147473555,nan,nan,nan,nan
1,114,1,1,1.0,1.0,0.312624837272,0,0.0,0.0,0.0,0.298079908982,0.0761834684711,0.221896440511,0.374263377453,0.0761834684711,0.328794588645,498,0.731507943485,0.267561876527,-1.0,nan,nan,nan,nan,0.0,0.0,0.0,nan,735.190090426,864.79481226,865.294823664,865.107437097,nan,nan,nan,nan
1,115,1,1,1.0,1.0,0.368507557549,0,0.0,0.0,0.0,0.298207496072,0.075860719403,0.222346776669,0.374068215475,0.075860719403,0.344644842359,297,0.0686262056446,0.388646276542,0.544904663634,nan,nan,nan,nan,0.0,0.0,0.0,nan,735.190090426,865.794923163,866.294963362,866.163430721,nan,nan,nan,nan
1,116,1,1,1.0,1.0,0.368328801356,0,0.0,0.0,0.0,0.298818800955,0.075811659146,0.223007141809,0.374630460101,0.075811659146,0.349820398726,148,1.0,-0.272695592461,0.0444264621409,nan,nan,nan,nan,0.0,0.0,0.0,nan,735.190090426,866.795067137,867.295085099,867.163395938,nan,nan,nan,nan
1,117,1,1,1.0,1.0,0.335849409923,0,0.0,0.0,0.0,0.299418025096,0.0757572045777,0.223660820518,0.375175229674,0.0757572045777,0.357561922943,321,-0.0999433513493,0.43654647086,0.391174984052,nan,nan,nan,nan,0.0,0.0,0.0,nan,735.190090426,867.803529671,868.303558181,868.139379081,nan,nan,nan,nan
1,118,1,1,1.0,1.0,0.30028384272,0,0.0,0.0,0.0,0.299729404454,0.0755072742909,0.224222130163,0.375236678744,0.0755072742909,0.334820684666,499,0.739831889234,0.263827757734,-1.0,nan,nan,nan,nan,0.0,0.0,0.0,nan,735.190090426,868.887055398,869.387022327,869.187339241,nan,nan,nan,nan
1,119,1,1,1.0,1.0,0.316181992181,0,0.0,0.0,0.0,0.299734103083,0.0751866646514,0.224547438432,0.374920767734,0.0751866646514,0.317438414941,436,0.228681708805,0.431413732101,-1.0,nan,nan,nan,nan,0.0,0.0,0.0,nan,735.190090426,869.887138646,870.387157748,870.203320638,nan,nan,nan,nan
1,120,1,1,1.0,1.0,0.323694868945,0,0.0,0.0,0.0,0.299872320638,0.0748851409318,0.224987179707,0.37475746157,0.0748851409318,0.313386901282,112,1.0,-0.300501516081,-0.325324861792,nan,nan,nan,nan,0.0,0.0,0.0,nan,735.190090426,870.895593768,871.395640239,871.219288637,nan,nan,nan,nan
1,121,1,1,1.0,1.0,0.315546225756,0,0.0,0.0,0.0,0.300070841874,0.0746039051748,0.2254669367,0.374674747049,0.0746039051748,0.318474362294,325,-0.119404900653,0.442631039184,0.360186421743,nan,nan,nan,nan,0.0,0.0,0.0,nan,735.190090426,871.895725198,872.395765967,872.211271424,nan,nan,nan,nan
1,122,0,0,0.0,1.0,0.451396946795,0,0.0,0.0,0.0,0.300198737609,0.0743081938437,0.225890543765,0.374506931453,0.0743081938437,0.363546013832,115,1.0,-0.305166285737,-0.293172749504,nan,nan,nan,nan,0.0,0.0,0.0,nan,735.190090426,872.895872023,873.395902528,873.34726897,nan,nan,nan,nan
1,123,1,1,1.0,1.0,0.251241454855,0,0.0,0.0,0.0,0.301438067192,0.0752482308707,0.226189836322,0.376686298063,0.0752482308707,0.339394875802,330,-0.139766326074,0.449518327743,0.319540245599,nan,nan,nan,nan,0.0,0.0,0.0,nan,735.190090426,873.895988057,874.396012861,874.147229512,nan,nan,nan,nan
1,124,1,1,1.0,1.0,0.266827709042,0,0.0,0.0,0.0,0.301029964653,0.0750771612249,0.225952803428,0.376107125878,0.0750771612249,0.32315537023,40,1.0,0.0201165467467,-1.0,nan,nan,nan,nan,0.0,0.0,0.0,nan,735.190090426,874.904436052,875.404466272,875.171263761,nan,nan,nan,nan
1,125,1,1,1.0,1.0,0.258634305559,0,0.0,0.0,0.0,0.300754140011,0.0748363654371,0.225917774574,0.375590505448,0.0748363654371,0.258901156485,467,0.473005185182,0.365775667588,-1.0,nan,nan,nan,nan,0.0,0.0,0.0,nan,735.190090426,875.904559214,876.404605115,876.163193519,nan,nan,nan,nan
1,126,1,1,1.0,1.0,0.234173552133,0,0.0,0.0,0.0,0.300417181335,0.0746308035705,0.225786377765,0.375047984906,0.0746308035705,0.253211855578,55,1.0,-0.0599996532909,-1.0,nan,nan,nan,nan,0.0,0.0,0.0,nan,735.190090426,876.913018897,877.413064228,877.147192449,nan,nan,nan,nan
1,127,1,1,1.0,1.0,0.329961300828,0,0.0,0.0,0.0,0.299891438246,0.0745660991782,0.225325339068,0.374457537425,0.0745660991782,0.274256386173,313,-0.0530221528698,0.42279583272,0.448797959603,nan,nan,nan,nan,0.0,0.0,0.0,nan,735.190090426,877.913184253,878.413193092,878.243145554,nan,nan,nan,nan
1,128,1,1,1.0,1.0,0.337547162548,0,0.0,0.0,0.0,0.300128208818,0.0743194887304,0.225808720088,0.374447697548,0.0743194887304,0.300560671836,133,1.0,-0.306259573676,-0.105336427414,nan,nan,nan,nan,0.0,0.0,0.0,nan,735.190090426,878.921619989,879.421653916,879.259167152,nan,nan,nan,nan
1,129,1,1,1.0,1.0,0.257022366859,0,0.0,0.0,0.0,0.300420544394,0.0741018783849,0.226318666009,0.374522422779,0.0741018783849,0.308176943411,203,1.0,-0.00249325098487,0.493674673203,nan,nan,nan,nan,0.0,0.0,0.0,nan,735.190090426,879.930090507,880.430123578,880.187112873,nan,nan,nan,nan
1,130,0,0,0.0,1.0,0.384868703783,0,0.0,0.0,0.0,0.300084124413,0.0739121684111,0.226171956002,0.373996292824,0.0739121684111,0.326479411063,346,-0.174317561957,0.466431294057,0.176670174816,nan,nan,nan,nan,0.0,0.0,0.0,nan,735.190090426,880.93024617,881.430282947,881.315114873,nan,nan,nan,nan
1,131,1,1,1.0,1.0,0.272387670353,0,0.0,0.0,0.0,0.300736313485,0.0739990251382,0.226737288347,0.374735338623,0.0739990251382,0.304759580332,496,0.714833717156,0.274923884212,-1.0,nan,nan,nan,nan,0.0,0.0,0.0,nan,735.190090426,881.938687892,882.438721533,882.211075562,nan,nan,nan,nan
1,132,1,1,1.0,1.0,0.2399410652,0,0.0,0.0,0.0,0.300519911629,0.0737573261804,0.226762585449,0.37427723781,0.0737573261804,0.299065813112,178,1.0,-0.139919655122,0.315097826042,nan,nan,nan,nan,0.0,0.0,0.0,nan,735.190090426,882.947147005,883.447198038,883.18708807,nan,nan,nan,nan
1,133,1,1,1.0,1.0,0.287786900066,0,0.0,0.0,0.0,0.300060980974,0.0736649226688,0.226396058306,0.373725903643,0.0736649226688,0.266705211873,351,-0.175686286722,0.4701852659,0.128489978773,nan,nan,nan,nan,0.0,0.0,0.0,nan,735.190090426,883.947295541,884.447309226,884.235082441,nan,nan,nan,nan
1,134,1,1,1.0,1.0,0.327653725632,0,0.0,0.0,0.0,0.299968694652,0.0733951233823,0.226573571269,0.373363818034,0.0733951233823,0.285127230299,78,1.0,-0.179467652321,-0.739907630878,nan,nan,nan,nan,0.0,0.0,0.0,nan,735.190090426,884.947402167,885.44743923,885.275055893,nan,nan,nan,nan
1,135,1,1,1.0,1.0,0.326088828035,0,0.0,0.0,0.0,0.300175299361,0.0731595583584,0.227015741002,0.373334857719,0.0731595583584,0.313843151244,158,1.0,-0.235949227405,0.139764106,nan,nan,nan,nan,0.0,0.0,0.0,nan,735.190090426,885.980915891,886.480905057,886.307004719,nan,nan,nan,nan
1,136,1,1,1.0,1.0,0.325640370138,0,0.0,0.0,0.0,0.300367251425,0.0729219546286,0.227445296796,0.373289206053,0.0729219546286,0.326460974601,98,1.0,-0.263822910468,-0.480217789416,nan,nan,nan,nan,0.0,0.0,0.0,nan,735.190090426,886.989329959,887.489368732,887.314970329,nan,nan,nan,nan
1,137,1,1,1.0,1.0,0.365165079944,0,0.0,0.0,0.0,0.30055308318,0.0726854414385,0.227867641742,0.373238524619,0.0726854414385,0.338964759372,410,0.0492046846968,0.463921527344,-0.54316189137,nan,nan,nan,nan,0.0,0.0,0.0,nan,735.190090426,887.997795914,888.497835543,888.362960994,nan,nan,nan,nan
1,138,1,1,1.0,1.0,0.299115515314,0,0.0,0.0,0.0,0.301024703594,0.0726282314152,0.228396472179,0.37365293501,0.0726282314152,0.329973655132,302,0.027086081288,0.400300843718,0.517770016443,nan,nan,nan,nan,0.0,0.0,0.0,nan,735.190090426,889.079813193,889.581301399,889.378928708,nan,nan,nan,nan
1,139,1,1,1.0,1.0,0.32150104735,0,0.0,0.0,0.0,0.301010868897,0.0723647883779,0.228646080519,0.373375657275,0.0723647883779,0.328593880869,490,0.664660387652,0.296157848571,-1.0,nan,nan,nan,nan,0.0,0.0,0.0,nan,735.190090426,890.081398902,890.58143739,890.40289995,nan,nan,nan,nan
1,140,1,1,1.0,1.0,0.287962520495,0,0.0,0.0,0.0,0.301158280253,0.0721248051659,0.229033475087,0.373283085418,0.0721248051659,0.302859694387,39,1.0,0.0253789930673,-1.0,nan,nan,nan,nan,0.0,0.0,0.0,nan,735.190090426,891.114909775,891.614923459,891.402872295,nan,nan,nan,nan
1,141,0,0,0.0,1.0,0.407831273042,0,0.0,0.0,0.0,0.301064024826,0.0718753459427,0.229188678883,0.372939370768,0.0718753459427,0.339098280296,474,0.530901762182,0.346545376391,-1.0,nan,nan,nan,nan,0.0,0.0,0.0,nan,735.190090426,892.115029516,892.61505774,892.522860789,nan,nan,nan,nan
1,142,1,1,1.0,1.0,0.223719899543,0,0.0,0.0,0.0,0.301821239352,0.072178244163,0.229642995189,0.373999483515,0.072178244163,0.30650456436,234,0.71814774995,0.15974031316,0.62913160129,nan,nan,nan,nan,0.0,0.0,0.0,nan,735.190090426,893.115139564,893.61518917,893.338859463,nan,nan,nan,nan
1,143,1,1,1.0,1.0,0.295229642652,0,0.0,0.0,0.0,0.301271229917,0.0722195601845,0.229051669732,0.373490790101,0.0722195601845,0.308926938412,88,1.0,-0.225257592204,-0.599932847766,nan,nan,nan,nan,0.0,0.0,0.0,nan,735.190090426,894.123587273,894.623625191,894.418816916,nan,nan,nan,nan
1,144,1,1,1.0,1.0,0.295107906684,0,0.0,0.0,0.0,0.301228981055,0.0719683621985,0.229260618856,0.373197343253,0.0719683621985,0.27135248296,203,1.0,-0.00249325098487,0.493674673203,nan,nan,nan,nan,0.0,0.0,0.0,nan,735.190090426,895.123723264,895.623760897,895.418831171,nan,nan,nan,nan
1,145,1,1,1.0,1.0,0.358925730921,0,0.0,0.0,0.0,0.301186473594,0.0717198380703,0.229466635524,0.372906311664,0.0717198380703,0.316421093419,1,0.854939129564,0.207877072944,-1.0,nan,nan,nan,nan,0.0,0.0,0.0,nan,735.190090426,896.123859256,896.62388919,896.482784986,nan,nan,nan,nan
1,146,1,1,1.0,1.0,0.286768818274,0,0.0,0.0,0.0,0.301584675369,0.0716316581355,0.229953017233,0.373216333504,0.0716316581355,0.313600818627,44,1.0,-0.00106984144607,-1.0,nan,nan,nan,nan,0.0,0.0,0.0,nan,735.190090426,897.123987264,897.624034019,897.410756082,nan,nan,nan,nan
1,147,0,0,0.0,1.0,0.350600044243,0,0.0,0.0,0.0,0.301483196895,0.0713963805623,0.230086816333,0.372879577458,0.0713963805623,0.332098197813,275,0.279002393219,0.326185254474,0.630178474337,nan,nan,nan,nan,0.0,0.0,0.0,nan,735.190090426,898.124144922,898.624176568,898.474744966,nan,nan,nan,nan
1,148,1,1,1.0,1.0,0.238192850724,0,0.0,0.0,0.0,0.301817325109,0.0712675687541,0.230549756355,0.373084893863,0.0712675687541,0.291853904414,54,1.0,-0.0546292063271,-1.0,nan,nan,nan,nan,0.0,0.0,0.0,nan,735.190090426,899.132573815,899.632608312,899.370766666,nan,nan,nan,nan
1,149,1,1,1.0,1.0,0.310012208298,0,0.0,0.0,0.0,0.301387430011,0.071217381165,0.230170048846,0.372604811176,0.071217381165,0.299601701088,326,-0.12383419111,0.444071765824,0.352223541474,nan,nan,nan,nan,0.0,0.0,0.0,nan,735.190090426,900.132715508,900.632736321,900.442727717,nan,nan,nan,nan
1,150,1,1,1.0,1.0,0.333855725825,0,0.0,0.0,0.0,0.301445314429,0.07098148751,0.230463826919,0.372426801939,0.07098148751,0.294020261616,478,0.56422249903,0.334793662244,-1.0,nan,nan,nan,nan,0.0,0.0,0.0,nan,735.190090426,901.132836675,901.632888277,901.466692401,nan,nan,nan,nan
1,151,1,1,1.0,1.0,0.32570138108,0,0.0,0.0,0.0,0.301661383839,0.0707936341615,0.230867749677,0.372455018,0.0707936341615,0.323189771734,36,1.0,0.0410699577143,-1.0,nan,nan,nan,nan,0.0,0.0,0.0,nan,735.190090426,902.132972381,902.632995474,902.458673762,nan,nan,nan,nan
1,152,0,0,0.0,1.0,0.389517781325,0,0.0,0.0,0.0,0.301820589118,0.0705857653061,0.231234823812,0.372406354425,0.0705857653061,0.34969162941,178,1.0,-0.139919655122,0.315097826042,nan,nan,nan,nan,0.0,0.0,0.0,nan,735.190090426,903.133121772,903.633126903,903.522639553,nan,nan,nan,nan
1,153,1,1,1.0,1.0,0.317059805617,0,0.0,0.0,0.0,0.30239754433,0.0707095192919,0.231688025038,0.373107063622,0.0707095192919,0.34409298934,223,0.83172397378,0.104890589731,0.593432239612,nan,nan,nan,nan,0.0,0.0,0.0,nan,735.190090426,904.141565775,904.641594855,904.458625581,nan,nan,nan,nan
1,154,1,1,1.0,1.0,0.252889885567,0,0.0,0.0,0.0,0.302493376103,0.0704879661915,0.232005409912,0.372981342295,0.0704879661915,0.319822490836,275,0.279002393219,0.326185254474,0.630178474337,nan,nan,nan,nan,0.0,0.0,0.0,nan,735.190090426,905.141698061,905.641718017,905.394587946,nan,nan,nan,nan
1,155,1,1,1.0,1.0,0.308784864843,0,0.0,0.0,0.0,0.302171275516,0.0703716108162,0.231799664699,0.372542886332,0.0703716108162,0.292911518676,186,1.0,-0.0967386681424,0.377881386018,nan,nan,nan,nan,0.0,0.0,0.0,nan,735.190090426,906.141830631,906.641872254,906.450615495,nan,nan,nan,nan
1,156,1,1,1.0,1.0,0.308589858934,0,0.0,0.0,0.0,0.302213943834,0.0701462367941,0.23206770704,0.372360180628,0.0701462367941,0.290088203115,365,-0.157962026257,0.477016591838,-0.0139196855225,nan,nan,nan,nan,0.0,0.0,0.0,nan,735.190090426,907.141961775,907.641994276,907.450551634,nan,nan,nan,nan
1,157,1,1,1.0,1.0,0.332455899566,0,0.0,0.0,0.0,0.302254815084,0.0699228991526,0.232331915932,0.372177714237,0.0699228991526,0.316610207781,142,1.0,-0.289568116499,-0.0146273521697,nan,nan,nan,nan,0.0,0.0,0.0,nan,735.190090426,908.142084082,908.642101757,908.474539981,nan,nan,nan,nan
1,158,1,1,1.0,1.0,0.300257898867,0,0.0,0.0,0.0,0.30244717868,0.0697412570488,0.232705921631,0.372188435729,0.0697412570488,0.313767885789,222,0.841778467246,0.0997291618919,0.589484691865,nan,nan,nan,nan,0.0,0.0,0.0,nan,735.190090426,909.142246301,909.642234613,909.4425042,nan,nan,nan,nan
1,159,1,1,1.0,1.0,0.276176324114,0,0.0,0.0,0.0,0.302433322479,0.0695204233432,0.232912899135,0.371953745822,0.0695204233432,0.302963374183,326,-0.12383419111,0.444071765824,0.352223541474,nan,nan,nan,nan,0.0,0.0,0.0,nan,735.190090426,910.142339814,910.642367183,910.418516138,nan,nan,nan,nan
1,160,1,1,1.0,1.0,0.300038089044,0,0.0,0.0,0.0,0.302268184124,0.069332540995,0.232935643129,0.371600725119,0.069332540995,0.292157437342,423,0.135229581944,0.450080889006,-0.750039916123,nan,nan,nan,nan,0.0,0.0,0.0,nan,735.190090426,911.142474664,911.642494622,911.442512753,nan,nan,nan,nan
1,161,1,1,1.0,1.0,0.251846430823,0,0.0,0.0,0.0,0.30225424603,0.0691157606634,0.233138485366,0.371370006693,0.0691157606634,0.276020281327,291,0.122027637739,0.373441943191,0.573791926984,nan,nan,nan,nan,0.0,0.0,0.0,nan,735.190090426,912.14259469,912.642624911,912.394441121,nan,nan,nan,nan
1,162,1,1,1.0,1.0,0.297657242976,0,0.0,0.0,0.0,0.30194115401,0.0690145049603,0.23292664905,0.37095565897,0.0690145049603,0.283180587615,98,1.0,-0.263822910468,-0.480217789416,nan,nan,nan,nan,0.0,0.0,0.0,nan,735.190090426,913.192762356,913.692786304,913.490419599,nan,nan,nan,nan
1,163,1,1,1.0,1.0,0.321244744584,0,0.0,0.0,0.0,0.301914710115,0.0688019856739,0.233112724441,0.370716695788,0.0688019856739,0.290249472794,424,0.142174562463,0.448819569244,-0.770229420881,nan,nan,nan,nan,0.0,0.0,0.0,nan,735.190090426,914.201177279,914.701225745,914.522422024,nan,nan,nan,nan
1,164,1,1,1.0,1.0,0.36106823571,0,0.0,0.0,0.0,0.302033299283,0.0686072176707,0.233426081612,0.370640516954,0.0686072176707,0.32665674109,39,1.0,0.0253789930673,-1.0,nan,nan,nan,nan,0.0,0.0,0.0,nan,735.190090426,915.201330662,915.701358601,915.562398897,nan,nan,nan,nan
1,165,0,0,0.0,1.0,0.392901882529,0,0.0,0.0,0.0,0.302393268408,0.0685519553081,0.2338413131,0.370945223716,0.0685519553081,0.358404954274,415,0.0813077335083,0.459153678902,-0.614968023274,nan,nan,nan,nan,0.0,0.0,0.0,nan,735.190090426,916.201479482,916.701513979,916.594381365,nan,nan,nan,nan
1,166,1,1,1.0,1.0,0.256494937465,0,0.0,0.0,0.0,0.302941805463,0.068703973528,0.234237831935,0.371645778991,0.068703973528,0.336821685235,503,0.773020196022,0.248538461814,-1.0,nan,nan,nan,nan,0.0,0.0,0.0,nan,735.190090426,917.209900677,917.709953991,917.466395615,nan,nan,nan,nan
1,167,1,1,1.0,1.0,0.264308306389,0,0.0,0.0,0.0,0.302662005053,0.0685909497416,0.234071055312,0.371252954795,0.0685909497416,0.304568375461,32,1.0,0.061735800531,-1.0,nan,nan,nan,nan,0.0,0.0,0.0,nan,735.190090426,918.21005577,918.710087131,918.474364077,nan,nan,nan,nan
1,168,1,1,1.0,1.0,0.271839428693,0,0.0,0.0,0.0,0.302432342187,0.0684492665805,0.233983075607,0.370881608768,0.0684492665805,0.264214224182,289,0.140592130943,0.368073254824,0.582505265782,nan,nan,nan,nan,0.0,0.0,0.0,nan,735.190090426,919.218493502,919.718545674,919.49033293,nan,nan,nan,nan
1,169,1,1,1.0,1.0,0.311322513968,0,0.0,0.0,0.0,0.302250241512,0.0682858054212,0.23396443609,0.370536046933,0.0682858054212,0.282490083016,142,1.0,-0.289568116499,-0.0146273521697,nan,nan,nan,nan,0.0,0.0,0.0,nan,735.190090426,920.226973142,920.727001936,920.538295656,nan,nan,nan,nan
1,170,0,0,0.0,1.0,0.399160617031,0,0.0,0.0,0.0,0.302303923597,0.0680870320355,0.234216891561,0.370390955633,0.0680870320355,0.327440853231,243,0.622151010882,0.20168048164,0.647463484622,nan,nan,nan,nan,0.0,0.0,0.0,nan,735.190090426,921.227135647,921.72717328,921.626296264,nan,nan,nan,nan
1,171,1,1,1.0,1.0,0.382710520178,0,0.0,0.0,0.0,0.302873668853,0.0682893351345,0.234584333718,0.371163003987,0.0682893351345,0.364397883726,341,-0.168535884224,0.46196150489,0.223260112086,nan,nan,nan,nan,0.0,0.0,0.0,nan,735.190090426,922.235589343,922.735673447,922.618299863,nan,nan,nan,nan
1,172,1,1,1.0,1.0,0.35823152028,0,0.0,0.0,0.0,0.303340551024,0.0683609404334,0.234979610591,0.371701491457,0.0683609404334,0.380034219163,277,0.258470646878,0.33263615818,0.624824240443,nan,nan,nan,nan,0.0,0.0,0.0,nan,735.190090426,923.244006833,923.744068984,923.602238353,nan,nan,nan,nan
1,173,1,1,1.0,1.0,0.341720127501,0,0.0,0.0,0.0,0.303659684566,0.0682895600151,0.235370124551,0.371949244581,0.0682895600151,0.36088738932,156,1.0,-0.244060613314,0.121041471254,nan,nan,nan,nan,0.0,0.0,0.0,nan,735.190090426,924.252498732,924.752529522,924.594218859,nan,nan,nan,nan
1,174,1,1,1.0,1.0,0.34955145698,0,0.0,0.0,0.0,0.303879687127,0.068153008455,0.235726678672,0.372032695582,0.068153008455,0.349834368254,469,0.489482198204,0.360453357602,-1.0,nan,nan,nan,nan,0.0,0.0,0.0,nan,735.190090426,925.252638429,925.752679769,925.602189886,nan,nan,nan,nan
1,175,1,1,1.0,1.0,0.301079548895,0,0.0,0.0,0.0,0.304142168562,0.0680445237818,0.236097644781,0.372186692344,0.0680445237818,0.330783711125,391,-0.0591907973189,0.475916278612,-0.303718712187,nan,nan,nan,nan,0.0,0.0,0.0,nan,735.190090426,926.261090416,926.761128904,926.562169964,nan,nan,nan,nan
1,176,1,1,1.0,1.0,0.292923778296,0,0.0,0.0,0.0,0.304124667879,0.0678502250442,0.236274442834,0.371974892923,0.0678502250442,0.31451826139,49,1.0,-0.027785429985,-1.0,nan,nan,nan,nan,0.0,0.0,0.0,nan,735.190090426,927.261225266,927.761271168,927.554149045,nan,nan,nan,nan
1,177,1,1,1.0,1.0,0.316748480313,0,0.0,0.0,0.0,0.304061026461,0.0676624320378,0.236398594423,0.371723458498,0.0676624320378,0.303583935834,416,0.087881616042,0.458117504295,-0.630165317015,nan,nan,nan,nan,0.0,0.0,0.0,nan,735.190090426,928.261356981,928.761380645,928.578105462,nan,nan,nan,nan
1,178,1,1,1.0,1.0,0.252624460496,0,0.0,0.0,0.0,0.304132706991,0.0674777255935,0.236654981397,0.371610432584,0.0674777255935,0.287432239701,466,0.464789014893,0.368385601135,-1.0,nan,nan,nan,nan,0.0,0.0,0.0,nan,735.190090426,929.26146988,929.761506657,929.514094341,nan,nan,nan,nan
1,179,0,0,0.0,1.0,0.420431420207,0,0.0,0.0,0.0,0.303843334819,0.0673979580459,0.236445376774,0.371241292865,0.0673979580459,0.329934787005,21,1.0,0.116713997928,-1.0,nan,nan,nan,nan,0.0,0.0,0.0,nan,735.190090426,930.261653197,930.761688834,930.682084617,nan,nan,nan,nan
1,180,1,1,1.0,1.0,0.388366844505,0,0.0,0.0,0.0,0.304494664905,0.0677688780768,0.236725786829,0.372263542982,0.0677688780768,0.353807575069,338,-0.162891363375,0.458928707883,0.250399161362,nan,nan,nan,nan,0.0,0.0,0.0,nan,735.190090426,931.261741863,931.761770657,931.650108707,nan,nan,nan,nan
1,181,1,1,1.0,1.0,0.41214222461,0,0.0,0.0,0.0,0.304960621459,0.0678672966295,0.237093324829,0.372827918088,0.0678672966295,0.406980163107,385,-0.0879796604702,0.477733444059,-0.233926720364,nan,nan,nan,nan,0.0,0.0,0.0,nan,735.190090426,932.261883841,932.761917482,932.674026066,nan,nan,nan,nan
1,182,1,1,1.0,1.0,0.38001863379,0,0.0,1.0,0.0,0.305552785012,0.0681442659752,0.237408519037,0.373697050987,0.0681442659752,0.393509234302,488,0.647907709101,0.302951493728,-1.0,nan,nan,nan,nan,0.0,0.0,0.0,nan,735.190090426,933.262018122,933.762020403,933.642036756,nan,nan,nan,nan
1,183,1,1,1.0,1.0,0.29990951065,1,0.0,0.0,1.0,0.305961938027,0.0681793736753,0.237782564352,0.374141311703,0.0681793736753,0.36402345635,166,1.0,-0.20036215083,0.21267421211,105.873641675,344.126358325,-132.592391675,489.0,0.656284860842,0.299572439858,-1.0,1.84236302134,735.190090426,934.262123892,934.762166942,934.562033403,937.94592793,938.946036838,936.087327494,937.937596256
1,184,0,0,0.0,1.0,0.519767201506,0,0.0,0.0,0.0,0.305928864654,0.0679943000162,0.237934564637,0.37392316467,0.0679943000162,0.399898448649,241,0.64365311028,0.192605941253,0.644254782112,nan,nan,nan,nan,0.0,0.0,0.0,nan,735.190090426,939.1461202,939.646167241,939.665887401,nan,nan,nan,nan
1,185,1,1,1.0,1.0,0.319680417888,0,0.0,0.0,0.0,0.307091029528,0.0696079261968,0.237483103331,0.376698955725,0.0696079261968,0.379785710014,295,0.0860222946478,0.38372732295,0.554986075565,nan,nan,nan,nan,0.0,0.0,0.0,nan,735.190090426,940.146220554,940.646251344,940.465900972,nan,nan,nan,nan
1,186,1,1,1.0,1.0,0.391190160066,0,0.0,0.0,0.0,0.307159080276,0.0694256786996,0.237733401576,0.376584758975,0.0694256786996,0.410212593153,244,0.611372359265,0.206163547436,0.648880721676,nan,nan,nan,nan,0.0,0.0,0.0,nan,735.190090426,941.154671115,941.654720151,941.545861275,nan,nan,nan,nan
1,187,1,1,0.0,0.0,0.519030510448,0,0.0,0.0,0.0,0.307610860275,0.0695109397457,0.238099920529,0.37712180002,0.0695109397457,0.409967029467,70,1.0,-0.13936984996,-0.906436913284,nan,nan,nan,nan,0.0,0.0,0.0,nan,735.190090426,942.154805966,942.654880661,942.673836476,nan,nan,nan,nan
1,188,1,1,1.0,1.0,0.350856631063,1,0.0,0.0,1.0,0.308741446639,0.0710188872502,0.237722559389,0.379760333889,0.0710188872502,0.420359100526,205,1.0,0.00854800403903,0.505535240796,-40.7373888772,130.737388877,-13.4032361228,186.0,1.0,-0.0967386681424,0.377881386018,1.10042399634,735.190090426,943.154949369,943.654973317,943.505806,946.096953795,947.096344543,944.980142708,946.088622975
1,189,0,0,0.0,1.0,0.600540030748,0,0.0,0.0,0.0,0.308965463578,0.0708959701236,0.238069493454,0.379861433701,0.0708959701236,0.490142390753,488,0.647907709101,0.302951493728,-1.0,nan,nan,nan,nan,0.0,0.0,0.0,nan,735.190090426,947.297171153,947.797219049,947.897711184,nan,nan,nan,nan
1,190,1,1,1.0,1.0,0.312499678694,0,0.0,0.0,0.0,0.310508186155,0.073804358948,0.236703827207,0.384312545103,0.073804358948,0.421298780168,361,-0.166047812515,0.475607712818,0.0278173107143,nan,nan,nan,nan,0.0,0.0,0.0,nan,735.190090426,948.29726552,948.797314842,948.609765199,nan,nan,nan,nan
1,191,1,1,1.0,1.0,0.288350822404,0,0.0,0.0,0.0,0.310518667695,0.0736100217618,0.236908645933,0.384128689457,0.0736100217618,0.400463510615,277,0.258470646878,0.33263615818,0.624824240443,nan,nan,nan,nan,0.0,0.0,0.0,nan,735.190090426,949.297405788,949.79745739,949.58575661,nan,nan,nan,nan
1,192,1,1,1.0,1.0,0.31215613801,0,0.0,0.0,0.0,0.310402605678,0.0734345007949,0.236968104883,0.383837106473,0.0734345007949,0.304335546369,492,0.681403316433,0.289222019555,-1.0,nan,nan,nan,nan,0.0,0.0,0.0,nan,735.190090426,950.297534081,950.797576276,950.609690219,nan,nan,nan,nan
1,193,1,1,1.0,1.0,0.26398272533,0,0.0,0.0,0.0,0.310411738659,0.0732431242186,0.23716861444,0.383654862877,0.0732431242186,0.288163228581,85,1.0,-0.212156452387,-0.638781227021,nan,nan,nan,nan,0.0,0.0,0.0,nan,735.190090426,951.297667792,951.797692595,951.561650517,nan,nan,nan,nan
1,194,1,1,1.0,1.0,0.26350832358,0,0.0,0.0,0.0,0.310171173823,0.0731291387806,0.237042035042,0.383300312603,0.0731291387806,0.27988239564,330,-0.139766326074,0.449518327743,0.319540245599,nan,nan,nan,nan,0.0,0.0,0.0,nan,735.190090426,952.30612434,952.806167674,952.569632663,nan,nan,nan,nan
1,195,1,1,1.0,1.0,0.303349775262,0,0.0,0.0,0.0,0.309930643667,0.0730169196943,0.236913723973,0.382947563361,0.0730169196943,0.276946941391,269,0.34171296506,0.305888347675,0.643262349404,nan,nan,nan,nan,0.0,0.0,0.0,nan,735.190090426,953.306250067,953.806291977,953.609599843,nan,nan,nan,nan
1,196,1,1,1.0,1.0,0.295230783522,0,0.0,0.0,0.0,0.309896895624,0.0728309730778,0.237065922546,0.382727868702,0.0728309730778,0.287362960788,37,1.0,0.0358565504353,-1.0,nan,nan,nan,nan,0.0,0.0,0.0,nan,735.190090426,954.306385203,954.806422551,954.601615987,nan,nan,nan,nan
1,197,1,1,1.0,1.0,0.311057088897,0,0.0,0.0,0.0,0.309822068521,0.072652456597,0.237169611924,0.382474525118,0.072652456597,0.303212549227,188,1.0,-0.0857393506835,0.392804289229,nan,nan,nan,nan,0.0,0.0,0.0,nan,735.190090426,955.30650922,955.806547424,955.617566309,nan,nan,nan,nan
1,198,1,1,1.0,1.0,0.286895971745,0,0.0,0.0,0.0,0.30982833766,0.0724678780459,0.237360459614,0.382296215706,0.0724678780459,0.297727948055,141,1.0,-0.291952736687,-0.024586852943,nan,nan,nan,nan,0.0,0.0,0.0,nan,735.190090426,956.30664065,956.806676572,956.593536622,nan,nan,nan,nan
1,199,1,1,1.0,1.0,0.302745655179,0,0.0,0.0,0.0,0.30971251763,0.0723029236115,0.237409594019,0.382015441242,0.0723029236115,0.300232905274,438,0.243622561222,0.428096439079,-1.0,nan,nan,nan,nan,0.0,0.0,0.0,nan,735.190090426,957.306771509,957.806808002,957.609517165,nan,nan,nan,nan
1,200,1,1,1.0,1.0,0.286591202952,0,0.0,0.0,0.0,0.309677508271,0.0721227116041,0.237554796667,0.381800219875,0.0721227116041,0.292077609959,356,-0.17284377641,0.473239407326,0.0788368070227,nan,nan,nan,nan,0.0,0.0,0.0,nan,735.190090426,958.306911778,958.806929738,958.593502981,nan,nan,nan,nan
1,201,1,1,1.0,1.0,0.28613533359,0,0.0,0.0,0.0,0.309562076745,0.0719606049482,0.237601471796,0.381522681693,0.0719606049482,0.291824063907,282,0.208142307666,0.34807905204,0.609295500931,nan,nan,nan,nan,0.0,0.0,0.0,nan,735.190090426,959.315368325,959.815424489,959.601503658,nan,nan,nan,nan
1,202,1,1,1.0,1.0,0.268579344265,0,0.0,0.0,0.0,0.309445525784,0.071800297079,0.237645228705,0.381245822863,0.071800297079,0.280435293602,476,0.547545041103,0.340739382997,-1.0,nan,nan,nan,nan,0.0,0.0,0.0,nan,735.190090426,960.348906852,960.848881478,960.617486197,nan,nan,nan,nan
1,203,1,1,1.0,1.0,0.244191290811,0,0.0,0.0,0.0,0.309243217954,0.0716797605978,0.237563457357,0.380922978552,0.0716797605978,0.266301989555,49,1.0,-0.027785429985,-1.0,nan,nan,nan,nan,0.0,0.0,0.0,nan,735.190090426,961.357282432,961.857332324,961.601473723,nan,nan,nan,nan
1,204,1,1,1.0,1.0,0.292003199458,0,0.0,0.0,0.0,0.308922765111,0.0716478972352,0.237274867876,0.380570662347,0.0716478972352,0.268257944845,259,0.44882283482,0.268906983076,0.655011783756,nan,nan,nan,nan,0.0,0.0,0.0,nan,735.190090426,962.357446363,962.857459762,962.649449563,nan,nan,nan,nan
1,205,1,1,1.0,1.0,0.283538955264,0,0.0,0.0,0.0,0.308839826064,0.0714818421887,0.237357983875,0.380321668253,0.0714818421887,0.273244481844,34,1.0,0.0514419701458,-1.0,nan,nan,nan,nan,0.0,0.0,0.0,nan,735.190090426,963.365878962,963.865930565,963.649417917,nan,nan,nan,nan
1,206,1,1,1.0,1.0,0.2673331853,0,0.0,0.0,0.0,0.308716407182,0.0713290683758,0.237387338806,0.380045475558,0.0713290683758,0.280958446674,385,-0.0879796604702,0.477733444059,-0.233926720364,nan,nan,nan,nan,0.0,0.0,0.0,nan,735.190090426,964.366050591,964.866055152,964.633383776,nan,nan,nan,nan
1,207,1,1,1.0,1.0,0.283239603043,0,0.0,0.0,0.0,0.308515517755,0.0712138389467,0.237301678809,0.379729356702,0.0712138389467,0.278037247869,306,-0.00395437407881,0.408974006242,0.494128827808,nan,nan,nan,nan,0.0,0.0,0.0,nan,735.190090426,965.366160638,965.86618031,965.649400241,nan,nan,nan,nan
1,208,1,1,1.0,1.0,0.219071108848,0,0.0,0.0,0.0,0.308393411887,0.0710632304066,0.237330181481,0.379456642294,0.0710632304066,0.25654796573,49,1.0,-0.027785429985,-1.0,nan,nan,nan,nan,0.0,0.0,0.0,nan,735.190090426,966.366290927,966.866310314,966.585362036,nan,nan,nan,nan
1,209,1,1,1.0,1.0,0.258899160661,0,0.0,0.0,0.0,0.307963977738,0.071160927385,0.236803050353,0.379124905123,0.071160927385,0.253736624184,378,-0.117450136118,0.478670924818,-0.154810124165,nan,nan,nan,nan,0.0,0.0,0.0,nan,735.190090426,967.366408957,967.866476526,967.625308118,nan,nan,nan,nan
1,210,1,1,1.0,1.0,0.242479283363,0,0.0,0.0,0.0,0.307729217848,0.071071174507,0.236658043341,0.378800392355,0.071071174507,0.240149850957,50,1.0,-0.033148730948,-1.0,nan,nan,nan,nan,0.0,0.0,0.0,nan,735.190090426,968.374884891,968.874910835,968.617364175,nan,nan,nan,nan
1,211,1,1,1.0,1.0,0.288936696947,0,0.0,0.0,0.0,0.307418503874,0.0710439051257,0.236374598748,0.378462409,0.0710439051257,0.263438380323,132,1.0,-0.307426825298,-0.115555361894,nan,nan,nan,nan,0.0,0.0,0.0,nan,735.190090426,969.408362978,969.908372101,969.697299675,nan,nan,nan,nan
1,212,1,1,1.0,1.0,0.296830747277,0,0.0,0.0,0.0,0.307330912372,0.0708867200578,0.236444192314,0.37821763243,0.0708867200578,0.276082242529,246,0.589768841079,0.215019897151,0.651339528662,nan,nan,nan,nan,0.0,0.0,0.0,nan,735.190090426,970.40847046,970.908510944,970.705301207,nan,nan,nan,nan
1,213,1,1,1.0,1.0,0.264310587198,0,0.0,0.0,0.0,0.307281383291,0.0707229962934,0.236558386998,0.378004379585,0.0707229962934,0.283359343807,203,1.0,-0.00249325098487,0.493674673203,nan,nan,nan,nan,0.0,0.0,0.0,nan,735.190090426,971.416930999,971.916969487,971.681241586,nan,nan,nan,nan
1,214,1,1,1.0,1.0,0.264180867933,0,0.0,0.0,0.0,0.307079642465,0.0706179022027,0.236461740262,0.377697544667,0.0706179022027,0.275107400802,28,1.0,0.082066132397,-1.0,nan,nan,nan,nan,0.0,0.0,0.0,nan,735.190090426,972.417075543,972.917102627,972.681256411,nan,nan,nan,nan
1,215,1,1,1.0,1.0,0.252959449776,0,0.0,0.0,0.0,0.306879180901,0.0705134332351,0.236365747666,0.377392614136,0.0705134332351,0.260483634969,139,1.0,-0.296335611021,-0.0445992895203,nan,nan,nan,nan,0.0,0.0,0.0,nan,735.190090426,973.492228255,973.992256194,973.745187704,nan,nan,nan,nan
1,216,1,1,1.0,1.0,0.236527027562,0,0.0,0.0,0.0,0.306628391454,0.0704448551593,0.236183536295,0.377073246613,0.0704448551593,0.251222448424,223,0.83172397378,0.104890589731,0.593432239612,nan,nan,nan,nan,0.0,0.0,0.0,nan,735.190090426,974.500674254,975.000706755,974.737201282,nan,nan,nan,nan
1,217,1,1,1.0,1.0,0.284349771217,0,0.0,0.0,0.0,0.306303848103,0.0704425211657,0.235861326937,0.376746369269,0.0704425211657,0.257945416185,7,0.9030914636,0.181853060355,-1.0,nan,nan,nan,nan,0.0,0.0,0.0,nan,735.190090426,975.500824785,976.000855005,975.785174556,nan,nan,nan,nan
1,218,1,1,1.0,1.0,0.260237690993,0,0.0,0.0,0.0,0.306202677242,0.0702957510835,0.235906926158,0.376498428325,0.0702957510835,0.26037149659,239,0.665069831863,0.183388857662,0.640549267122,nan,nan,nan,nan,0.0,0.0,0.0,nan,735.190090426,976.500921718,977.000956785,976.761159409,nan,nan,nan,nan
1,219,1,1,1.0,1.0,0.323739058338,0,0.0,0.0,0.0,0.305991828681,0.0702030798265,0.235788748854,0.376194908507,0.0702030798265,0.289442173516,90,1.0,-0.233635786423,-0.574971871003,nan,nan,nan,nan,0.0,0.0,0.0,nan,735.190090426,977.509372849,978.009420745,977.833111907,nan,nan,nan,nan
1,220,1,1,1.0,1.0,0.259240707383,0,0.0,0.0,0.0,0.306072866259,0.070052834363,0.236020031896,0.376125700622,0.070052834363,0.281072485571,166,1.0,-0.20036215083,0.21267421211,nan,nan,nan,nan,0.0,0.0,0.0,nan,735.190090426,978.517852774,979.01789896,978.777093481,nan,nan,nan,nan
1,221,1,1,1.0,1.0,0.250793282874,0,0.0,0.0,0.0,0.30585999281,0.0699643998657,0.235895592944,0.375824392675,0.0699643998657,0.277924349532,300,0.0433537089178,0.395748422077,0.528951029102,nan,nan,nan,nan,0.0,0.0,0.0,nan,735.190090426,979.526323291,980.026359499,979.777116574,nan,nan,nan,nan
1,222,1,1,1.0,1.0,0.22610245645,0,0.0,0.0,0.0,0.305610822177,0.0699036963989,0.235707125778,0.375514518575,0.0699036963989,0.245378815569,456,0.383612429175,0.392633185378,-1.0,nan,nan,nan,nan,0.0,0.0,0.0,nan,735.190090426,980.534938923,981.034810915,980.76104138,nan,nan,nan,nan
1,223,1,1,1.0,1.0,0.313761234283,0,0.0,0.0,0.0,0.305252676385,0.0699490007545,0.235303675631,0.375201677139,0.0699490007545,0.263552324536,272,0.310166696092,0.316214117232,0.637281430288,nan,nan,nan,nan,0.0,0.0,0.0,nan,735.190090426,981.543252352,982.043277726,981.857013586,nan,nan,nan,nan
1,224,1,1,1.0,1.0,0.241623422131,0,0.0,0.0,0.0,0.305290831353,0.0697943035364,0.235496527817,0.37508513489,0.0697943035364,0.260495704288,182,1.0,-0.118523835432,0.347089474713,nan,nan,nan,nan,0.0,0.0,0.0,nan,735.190090426,982.543411152,983.043404879,982.785034574,nan,nan,nan,nan
1,225,1,1,1.0,1.0,0.201156468131,0,0.0,0.0,0.0,0.305006601848,0.0697675680195,0.235239033828,0.374774169867,0.0697675680195,0.252180374848,336,-0.158211608236,0.456758111158,0.268135266647,nan,nan,nan,nan,0.0,0.0,0.0,nan,735.190090426,983.551841754,984.051875682,983.752998223,nan,nan,nan,nan
1,226,0,0,1.0,0.0,0.20897781942,0,0.0,0.0,0.0,0.304545045698,0.0699542692594,0.234590776438,0.374499314957,0.0699542692594,0.217252569894,381,-0.105403061426,0.478425078289,-0.188431136224,nan,nan,nan,nan,0.0,0.0,0.0,nan,735.190090426,984.551995422,985.052026497,984.760973241,nan,nan,nan,nan
1,227,1,1,1.0,1.0,0.29682333488,0,0.0,0.0,0.0,0.304122181865,0.0700869445832,0.234035237282,0.374209126448,0.0700869445832,0.23565254081,65,1.0,-0.113312155659,-1.0,nan,nan,nan,nan,0.0,0.0,0.0,nan,735.190090426,985.552102619,986.052131413,985.848925954,nan,nan,nan,nan
1,228,1,1,1.0,1.0,0.264346508309,0,0.0,0.0,0.0,0.304090028354,0.0699340681794,0.234155960174,0.374024096533,0.0699340681794,0.256715887537,11,0.934659501434,0.163852895862,-1.0,nan,nan,nan,nan,0.0,0.0,0.0,nan,735.190090426,986.560561732,987.060592237,986.824908241,nan,nan,nan,nan
1,229,1,1,1.0,1.0,0.328245872632,0,0.0,0.0,0.0,0.303915714669,0.0698299404524,0.234085774217,0.373745655122,0.0698299404524,0.296471905274,93,1.0,-0.245614297951,-0.538619881923,nan,nan,nan,nan,0.0,0.0,0.0,nan,735.190090426,987.560697723,988.060721671,987.888943596,nan,nan,nan,nan
1,230,1,1,1.0,1.0,0.3280525757,0,0.0,0.0,0.0,0.304021959901,0.0696957726059,0.234326187295,0.373717732507,0.0696957726059,0.306881652214,278,0.248285521772,0.335802812283,0.621962573991,nan,nan,nan,nan,0.0,0.0,0.0,nan,735.190090426,988.560859659,989.06085196,988.888912234,nan,nan,nan,nan
1,231,1,1,1.0,1.0,0.255873996764,0,0.0,0.0,0.0,0.304126440839,0.0695620656379,0.234564375201,0.373688506477,0.0695620656379,0.304057481699,483,0.606025706087,0.319314454546,-1.0,nan,nan,nan,nan,0.0,0.0,0.0,nan,735.190090426,989.560970276,990.060982821,989.816844272,nan,nan,nan,nan
1,232,1,1,1.0,1.0,0.271720543504,0,0.0,0.0,0.0,0.3039175558,0.069483588133,0.234433967667,0.373401143933,0.069483588133,0.285215705323,269,0.34171296506,0.305888347675,0.643262349404,nan,nan,nan,nan,0.0,0.0,0.0,nan,735.190090426,990.561111969,991.061126794,990.832832512,nan,nan,nan,nan
1,233,1,1,1.0,1.0,0.287610425614,0,0.0,0.0,0.0,0.303778775574,0.0693657542107,0.234413021364,0.373144529785,0.0693657542107,0.271734988627,37,1.0,0.0358565504353,-1.0,nan,nan,nan,nan,0.0,0.0,0.0,nan,735.190090426,991.561216599,992.061238267,991.848827025,nan,nan,nan,nan
1,234,1,1,1.0,1.0,0.239459536038,0,0.0,0.0,0.0,0.303709383514,0.0692248100002,0.234484573514,0.372934193515,0.0692248100002,0.266263501719,353,-0.175041255135,0.471490071959,0.108799216003,nan,nan,nan,nan,0.0,0.0,0.0,nan,735.190090426,992.561340047,993.061371122,992.800799583,nan,nan,nan,nan
1,235,1,1,1.0,1.0,0.247287729755,0,0.0,0.0,0.0,0.303434811517,0.0692037657117,0.234231045805,0.372638577228,0.0692037657117,0.258119230469,41,1.0,0.0148395037771,-1.0,nan,nan,nan,nan,0.0,0.0,0.0,nan,735.190090426,993.561485731,994.061501127,993.808773461,nan,nan,nan,nan
1,236,1,1,1.0,1.0,0.367155057378,0,0.0,0.0,0.0,0.303195887764,0.0691530155977,0.234042872167,0.372348903362,0.0691530155977,0.284634107724,431,0.191957257768,0.43918128748,-0.982298765802,nan,nan,nan,nan,0.0,0.0,0.0,nan,735.190090426,994.561605757,995.061633127,994.928760814,nan,nan,nan,nan
1,237,1,1,1.0,1.0,0.246668783948,0,0.0,0.0,0.0,0.303466901195,0.0691312997759,0.234335601419,0.372598200971,0.0691312997759,0.28703719036,237,0.686387300223,0.174031846447,0.636349816437,nan,nan,nan,nan,0.0,0.0,0.0,nan,735.190090426,995.570053752,996.070091954,995.816722536,nan,nan,nan,nan
1,238,1,1,1.0,1.0,0.334540529177,0,0.0,0.0,0.0,0.303227246692,0.0690834710015,0.23414377569,0.372310717693,0.0690834710015,0.316121456834,114,1.0,-0.303747463913,-0.303859371662,nan,nan,nan,nan,0.0,0.0,0.0,nan,735.190090426,996.570185182,997.070219964,996.904725711,nan,nan,nan,nan
1,239,0,0,1.0,0.0,0.270354928449,0,0.0,0.0,0.0,0.303358815106,0.0689679335936,0.234390881512,0.372326748699,0.0689679335936,0.283854747191,450,0.335949728395,0.405598329481,-1.0,nan,nan,nan,nan,0.0,0.0,0.0,nan,735.190090426,997.570346831,998.0703876,997.84070176,nan,nan,nan,nan
1,240,1,1,1.0,1.0,0.302216514945,0,0.0,0.0,0.0,0.30322072353,0.0688564620246,0.234364261505,0.372077185554,0.0688564620246,0.302370657523,196,1.0,-0.0413610816081,0.449130757868,nan,nan,nan,nan,0.0,0.0,0.0,nan,735.190090426,998.570454028,999.070481397,998.872670543,nan,nan,nan,nan
1,241,1,1,1.0,1.0,0.318084159866,0,0.0,0.0,0.0,0.303216539327,0.0687128917696,0.234503647558,0.371929431097,0.0687128917696,0.296885201087,352,-0.17544712699,0.470851603012,0.118673592819,nan,nan,nan,nan,0.0,0.0,0.0,nan,735.190090426,999.570595436,1000.07061311,999.888679596,nan,nan,nan,nan
1,242,1,1,1.0,1.0,0.2698682677,0,0.0,0.0,0.0,0.303278230699,0.0685768457052,0.234701384993,0.371855076404,0.0685768457052,0.296722980837,213,0.929785093221,0.0521668813814,0.548906519778,nan,nan,nan,nan,0.0,0.0,0.0,nan,735.190090426,1000.57075965,1001.07076393,1000.84062792,nan,nan,nan,nan
1,243,1,1,1.0,1.0,0.309766453691,0,0.0,0.0,0.0,0.303140173,0.0684685637265,0.234671609274,0.371608736727,0.0684685637265,0.299239627086,430,0.184725017221,0.440645728776,-0.941904167281,nan,nan,nan,nan,0.0,0.0,0.0,nan,735.190090426,1001.57085602,1002.07088395,1001.88062247,nan,nan,nan,nan
1,244,1,1,1.0,1.0,0.277617489919,0,0.0,0.0,0.0,0.303167441645,0.0683288534469,0.234838588198,0.371496295092,0.0683288534469,0.285750737103,179,1.0,-0.13461441766,0.323204131591,nan,nan,nan,nan,0.0,0.0,0.0,nan,735.190090426,1002.57098402,1003.07100598,1002.84860151,nan,nan,nan,nan
1,245,0,0,0.0,1.0,0.445411620662,0,0.0,0.0,0.0,0.303062728728,0.0682082260457,0.234854502683,0.371270954774,0.0682082260457,0.344265188091,116,1.0,-0.306446923025,-0.282515442494,nan,nan,nan,nan,0.0,0.0,0.0,nan,735.190090426,1003.57116934,1004.07115907,1004.01658096,nan,nan,nan,nan
1,246,1,1,1.0,1.0,0.237354380079,0,0.0,0.0,0.0,0.303643744614,0.0686712622227,0.234972482391,0.372315006836,0.0686712622227,0.32012783022,276,0.268710435127,0.329430325417,0.627563005949,nan,nan,nan,nan,0.0,0.0,0.0,nan,735.190090426,1004.57123348,1005.07125487,1004.80858786,nan,nan,nan,nan
1,247,1,1,1.0,1.0,0.341171884909,0,0.0,0.0,0.0,0.303374275652,0.0686612181948,0.234713057457,0.372035493847,0.0686612181948,0.34131262855,330,-0.139766326074,0.449518327743,0.319540245599,nan,nan,nan,nan,0.0,0.0,0.0,nan,735.190090426,1005.57135265,1006.07138173,1005.91252454,nan,nan,nan,nan
1,248,0,0,0.0,1.0,0.364994877018,0,0.0,0.0,0.0,0.30352730241,0.0685641088545,0.234963193556,0.372091411265,0.0685641088545,0.314507047335,28,1.0,0.082066132397,-1.0,nan,nan,nan,nan,0.0,0.0,0.0,nan,735.190090426,1006.571522,1007.07154681,1006.93651688,nan,nan,nan,nan
1,249,1,1,1.0,1.0,0.308894057758,0,0.0,0.0,0.0,0.303775155534,0.0685365211238,0.23523863441,0.372311676658,0.0685365211238,0.338353606562,198,1.0,-0.0302354974571,0.462326941081,nan,nan,nan,nan,0.0,0.0,0.0,nan,735.190090426,1007.57161209,1008.07164516,1007.88050615,nan,nan,nan,nan
1,250,1,1,1.0,1.0,0.324756569229,0,0.0,0.0,0.0,0.303795713374,0.0683995253045,0.23539618807,0.372195238679,0.0683995253045,0.332881834668,479,0.572572153349,0.331768222426,-1.0,nan,nan,nan,nan,0.0,0.0,0.0,nan,735.190090426,1008.57174039,1009.07178372,1008.89649696,nan,nan,nan,nan
1,251,1,1,1.0,1.0,0.284565303475,0,0.0,0.0,0.0,0.303879556797,0.0682754090565,0.235604147741,0.372154965854,0.0682754090565,0.306071976821,18,0.988682696815,0.131162580546,-1.0,nan,nan,nan,nan,0.0,0.0,0.0,nan,735.190090426,1009.57190118,1010.07190802,1009.85646648,nan,nan,nan,nan
1,252,1,1,1.0,1.0,0.340403264388,0,0.0,0.0,0.0,0.303802607581,0.0681501279436,0.235652479637,0.371952735525,0.0681501279436,0.316575045697,232,0.739158239773,0.150046616059,0.623712016981,nan,nan,nan,nan,0.0,0.0,0.0,nan,735.190090426,1010.57203204,1011.07205456,1010.9124353,nan,nan,nan,nan
1,253,1,1,1.0,1.0,0.316287763417,0,0.0,0.0,0.0,0.303947848283,0.0680536878628,0.23589416042,0.372001536145,0.0680536878628,0.313752110427,362,-0.164239727892,0.476000155386,0.0174578511848,nan,nan,nan,nan,0.0,0.0,0.0,nan,735.190090426,1011.57214095,1012.07217088,1011.88842871,nan,nan,nan,nan
1,254,1,1,1.0,1.0,0.500219809823,0,0.0,1.0,0.0,0.303996622651,0.0679234743902,0.236073148261,0.371920097041,0.0679234743902,0.385636945876,6,0.895129075663,0.186272780825,-1.0,nan,nan,nan,nan,0.0,0.0,0.0,nan,735.190090426,1012.57229005,1013.07234251,1013.07250986,nan,nan,nan,nan
1,255,1,1,1.0,1.0,0.332000030205,1,0.0,0.0,1.0,0.304769154884,0.0688943142139,0.23587484067,0.373663469098,0.0688943142139,0.382835867815,109,1.0,-0.294638327523,-0.357773695079,-14.6763931375,104.676393137,28.0357681375,149.0,1.0,-0.269478519393,0.0541436597792,1.30880111642,735.190090426,1013.57239183,1014.0724212,1013.90439186,1016.7227634,1017.7228934,1015.39759857,1016.71442887
1,256,1,1,1.0,1.0,0.452995486557,0,0.0,0.0,0.0,0.30487594263,0.0687801542148,0.236095788415,0.373656096845,0.0687801542148,0.428405108862,307,-0.0113868739462,0.411053355611,0.487957006857,nan,nan,nan,nan,0.0,0.0,0.0,nan,735.190090426,1017.93127394,1018.43131728,1018.38426943,nan,nan,nan,nan
1,257,1,1,1.0,1.0,0.284836146981,0,0.0,0.0,0.0,0.305454534599,0.069264682842,0.236189851756,0.374719217441,0.069264682842,0.356610554581,412,0.0618891196837,0.462096609288,-0.571158935758,nan,nan,nan,nan,0.0,0.0,0.0,nan,735.190090426,1018.93142048,1019.43145384,1019.21625663,nan,nan,nan,nan
1,258,1,1,1.0,1.0,0.259713112377,0,0.0,0.0,0.0,0.305374307409,0.0691417118551,0.236232595554,0.374516019264,0.0691417118551,0.332514915305,109,1.0,-0.294638327523,-0.357773695079,nan,nan,nan,nan,0.0,0.0,0.0,nan,735.190090426,1019.95656091,1020.45658144,1020.21627402,nan,nan,nan,nan
1,259,0,0,0.0,1.0,0.38750955835,0,0.0,0.0,0.0,0.305197326033,0.0690658874655,0.236131438568,0.374263213499,0.0690658874655,0.310686272569,168,1.0,-0.190790017254,0.230361799274,nan,nan,nan,nan,0.0,0.0,0.0,nan,735.190090426,1020.95671087,1021.4567448,1021.34422043,nan,nan,nan,nan
1,260,1,1,1.0,1.0,0.243093097582,0,0.0,0.0,0.0,0.30551513388,0.0691211828652,0.236393951015,0.374636316745,0.0691211828652,0.29677192277,93,1.0,-0.245614297951,-0.538619881923,nan,nan,nan,nan,0.0,0.0,0.0,nan,735.190090426,1021.96513007,1022.46517312,1022.20822317,nan,nan,nan,nan
1,261,1,1,1.0,1.0,0.290576289408,0,0.0,0.0,0.0,0.305275049125,0.0690962440673,0.236178805058,0.374371293192,0.0690962440673,0.307059648447,211,0.948675772315,0.0413606888024,0.538689155053,nan,nan,nan,nan,0.0,0.0,0.0,nan,735.190090426,1022.97360885,1023.47364592,1023.26418514,nan,nan,nan,nan
1,262,1,1,1.0,1.0,0.282427932136,0,0.0,0.0,0.0,0.305218732038,0.0689697271377,0.2362490049,0.374188459176,0.0689697271377,0.272032439709,24,1.0,0.102019060141,-1.0,nan,nan,nan,nan,0.0,0.0,0.0,nan,735.190090426,1023.97374798,1024.47376936,1024.25617591,nan,nan,nan,nan
1,263,1,1,1.0,1.0,0.354256982915,0,0.0,0.0,0.0,0.305131744252,0.0688523231403,0.236279421112,0.373984067392,0.0688523231403,0.309087068153,106,1.0,-0.287630069369,-0.390564445695,nan,nan,nan,nan,0.0,0.0,0.0,nan,735.190090426,1024.97387599,1025.4739199,1025.32813297,nan,nan,nan,nan
1,264,1,1,1.0,1.0,0.289780013263,0,0.0,0.0,0.0,0.305318532232,0.0687877769656,0.236530755266,0.374106309197,0.0687877769656,0.308821642771,382,-0.1011887567,0.478291136399,-0.199732273247,nan,nan,nan,nan,0.0,0.0,0.0,nan,735.190090426,1025.98232969,1026.48236276,1026.2721097,nan,nan,nan,nan
1,265,1,1,1.0,1.0,0.297611913644,0,0.0,0.0,0.0,0.305259674205,0.0686640082971,0.236595665908,0.373923682503,0.0686640082971,0.313882969941,131,1.0,-0.308451667147,-0.125800503078,nan,nan,nan,nan,0.0,0.0,0.0,nan,735.190090426,1026.98246767,1027.48249704,1027.28007959,nan,nan,nan,nan
1,266,1,1,1.0,1.0,0.313457320444,0,0.0,0.0,0.0,0.305230814732,0.0685359352342,0.236694879497,0.373766749966,0.0685359352342,0.30028308245,252,0.524721685615,0.240693665738,0.655694012224,nan,nan,nan,nan,0.0,0.0,0.0,nan,735.190090426,1027.98261963,1028.48264643,1028.29607695,nan,nan,nan,nan
1,267,1,1,1.0,1.0,0.457318411209,0,0.0,0.0,0.0,0.305261741445,0.0684088395626,0.236852901882,0.373670581007,0.0684088395626,0.356129215099,88,1.0,-0.225257592204,-0.599932847766,nan,nan,nan,nan,0.0,0.0,0.0,nan,735.190090426,1028.98272911,1029.48274108,1029.44004752,nan,nan,nan,nan
1,268,1,1,1.0,1.0,0.593163145706,0,0.0,1.0,0.0,0.305831242081,0.0689094633812,0.236921778699,0.374740705462,0.0689094633812,0.454646292453,350,-0.175756816429,0.469490941964,0.138247479403,nan,nan,nan,nan,0.0,0.0,0.0,nan,735.190090426,1029.98285284,1030.48292668,1030.57601599,nan,nan,nan,nan
1,269,1,1,1.0,1.0,0.249017983675,1,0.0,0.0,1.0,0.306903376049,0.0709767893756,0.235926586674,0.377880165425,0.0709767893756,0.43316651353,80,1.0,-0.189075709245,-0.708965549488,-144.88140612,234.88140612,178.63140612,334.0,-0.152796554809,0.454467054946,0.285576400052,1.63384335209,735.190090426,1030.98298598,1031.48300565,1031.23200396,1034.45838467,1035.45848389,1032.80817618,1034.45005072
1,270,0,0,0.0,1.0,0.437286355533,0,0.0,0.0,0.0,0.306688188717,0.0709322705201,0.235755918197,0.377620459237,0.0709322705201,0.426489161638,167,1.0,-0.195605812978,0.221546716301,nan,nan,nan,nan,0.0,0.0,0.0,nan,735.190090426,1035.6586083,1036.15864195,1036.09589466,nan,nan,nan,nan
1,271,1,1,1.0,1.0,0.324846375734,0,0.0,0.0,0.0,0.307171885631,0.0712438643115,0.23592802132,0.378415749943,0.0712438643115,0.337050238314,508,0.814199817736,0.228638933499,-1.0,nan,nan,nan,nan,0.0,0.0,0.0,nan,735.190090426,1036.6670543,1037.1670774,1036.99190068,nan,nan,nan,nan
1,272,1,1,1.0,1.0,0.308366058394,0,0.0,0.0,0.0,0.307237105152,0.0711203711567,0.236116733995,0.378357476309,0.0711203711567,0.356832929887,265,0.384259149088,0.291568309415,0.649478858709,nan,nan,nan,nan,0.0,0.0,0.0,nan,735.190090426,1037.67550486,1038.17554136,1037.98387092,nan,nan,nan,nan
1,273,1,1,1.0,1.0,0.307869989425,0,0.0,0.0,0.0,0.307241255715,0.0709895476792,0.236251708036,0.378230803395,0.0709895476792,0.313694141184,159,1.0,-0.231765974528,0.149055008463,nan,nan,nan,nan,0.0,0.0,0.0,nan,735.190090426,1038.68396455,1039.1840113,1038.99183454,nan,nan,nan,nan
1,274,1,1,1.0,1.0,0.299767532386,0,0.0,0.0,0.0,0.307243558769,0.0708594210905,0.236384137679,0.37810297986,0.0708594210905,0.305334526735,48,1.0,-0.0224273256894,-1.0,nan,nan,nan,nan,0.0,0.0,0.0,nan,735.190090426,1039.68409626,1040.18413931,1039.98386379,nan,nan,nan,nan
1,275,1,1,1.0,1.0,0.355608343147,0,0.0,0.0,0.0,0.307216274001,0.0707314340791,0.236484839922,0.37794770808,0.0707314340791,0.321081954986,475,0.539218753276,0.343659807328,-1.0,nan,nan,nan,nan,0.0,0.0,0.0,nan,735.190090426,1040.68423567,1041.18429326,1041.03984402,nan,nan,nan,nan
1,276,1,1,1.0,1.0,0.347441738471,0,0.0,0.0,0.0,0.307392245162,0.0706627760274,0.236729469135,0.378055021189,0.0706627760274,0.334272538001,306,-0.00395437407881,0.408974006242,0.494128827808,nan,nan,nan,nan,0.0,0.0,0.0,nan,735.190090426,1041.68437936,1042.18439761,1042.0318211,nan,nan,nan,nan
1,277,1,1,1.0,1.0,0.3152927747,0,0.0,0.0,0.0,0.307537352022,0.0705756821477,0.236961669874,0.378113034169,0.0705756821477,0.339447618773,159,1.0,-0.231765974528,0.149055008463,nan,nan,nan,nan,0.0,0.0,0.0,nan,735.190090426,1042.68450024,1043.18452505,1042.99979302,nan,nan,nan,nan
1,278,0,0,0.0,1.0,0.427128634416,0,0.0,0.0,0.0,0.307565349938,0.070449709558,0.23711564038,0.378015059496,0.070449709558,0.363287715862,46,1.0,-0.0117313672748,-1.0,nan,nan,nan,nan,0.0,0.0,0.0,nan,735.190090426,1043.68466446,1044.18468385,1044.11179309,nan,nan,nan,nan
1,279,1,1,1.0,1.0,0.202682021074,0,0.0,0.0,0.0,0.307995433695,0.0706862485366,0.237309185158,0.378681682231,0.0706862485366,0.31503447673,292,0.112881669716,0.376069582356,0.569261850688,nan,nan,nan,nan,0.0,0.0,0.0,nan,735.190090426,1044.69306998,1045.19311502,1044.895752,nan,nan,nan,nan
1,280,0,0,0.0,1.0,0.522486170754,0,0.0,0.0,0.0,0.307617966266,0.0708395854556,0.23677838081,0.378457551722,0.0708395854556,0.384098942081,58,1.0,-0.0760896648475,-1.0,nan,nan,nan,nan,0.0,0.0,0.0,nan,735.190090426,1045.69321224,1046.1933049,1046.21569841,nan,nan,nan,nan
1,281,1,1,1.0,1.0,0.234029578045,0,0.0,0.0,0.0,0.308385352711,0.0718653088968,0.236520043814,0.380250661607,0.0718653088968,0.319732589958,264,0.394966959701,0.287889713878,0.650717615019,nan,nan,nan,nan,0.0,0.0,0.0,nan,735.190090426,1046.70167962,1047.20171412,1046.9357092,nan,nan,nan,nan
1,282,1,1,1.0,1.0,0.273867608979,0,0.0,0.0,0.0,0.308120741413,0.0718738376725,0.23624690374,0.379994579085,0.0718738376725,0.343461119259,494,0.698129958021,0.282143999684,-1.0,nan,nan,nan,nan,0.0,0.0,0.0,nan,735.190090426,1047.70183243,1048.20184127,1047.97570004,nan,nan,nan,nan
1,283,1,1,1.0,1.0,0.225394560024,0,0.0,0.0,0.0,0.307999276404,0.0717751749089,0.236224101495,0.379774451313,0.0717751749089,0.244430582349,337,-0.160643365934,0.457858386897,0.259303564052,nan,nan,nan,nan,0.0,0.0,0.0,nan,735.190090426,1048.71027016,1049.21030181,1048.93566472,nan,nan,nan,nan
1,284,1,1,1.0,1.0,0.248883701861,0,0.0,0.0,0.0,0.307707386947,0.0718157237546,0.235891663192,0.379523110702,0.0718157237546,0.249381956955,456,0.383612429175,0.392633185378,-1.0,nan,nan,nan,nan,0.0,0.0,0.0,nan,735.190090426,1049.71874382,1050.21878943,1049.96762752,nan,nan,nan,nan
1,285,1,1,1.0,1.0,0.25676349923,0,0.0,0.0,0.0,0.307500261295,0.071773804181,0.235726457114,0.379274065476,0.071773804181,0.243680587038,10,0.926811495151,0.168400576072,-1.0,nan,nan,nan,nan,0.0,0.0,0.0,nan,735.190090426,1050.71887097,1051.21890632,1050.97563447,nan,nan,nan,nan
1,286,0,0,1.0,0.0,0.280576512218,0,0.0,0.0,0.0,0.307322237569,0.0717105588936,0.235611678675,0.379032796462,0.0717105588936,0.262074571103,491,0.673033477965,0.292707709811,-1.0,nan,nan,nan,nan,0.0,0.0,0.0,nan,735.190090426,1051.71902179,1052.21905942,1051.9995983,nan,nan,nan,nan
1,287,1,1,1.0,1.0,0.248115366325,0,0.0,0.0,0.0,0.307228721047,0.0716024876959,0.235626233351,0.378831208742,0.0716024876959,0.261818459257,187,1.0,-0.0912463489427,0.385383214542,nan,nan,nan,nan,0.0,0.0,0.0,nan,735.190090426,1052.72743614,1053.22749002,1052.97555151,nan,nan,nan,nan
1,288,1,1,1.0,1.0,0.503923790529,0,0.0,0.0,0.0,0.307022751169,0.0715624592324,0.235460291937,0.378585210402,0.0715624592324,0.344205223024,508,0.814199817736,0.228638933499,-1.0,nan,nan,nan,nan,0.0,0.0,0.0,nan,735.190090426,1053.72760691,1054.22768161,1054.2315307,nan,nan,nan,nan
1,289,1,1,1.0,1.0,0.279836970381,0,0.0,0.0,0.0,0.307706435334,0.0723709498044,0.23533548553,0.380077385138,0.0723709498044,0.343958709079,27,1.0,0.0870912575778,-1.0,nan,nan,nan,nan,0.0,0.0,0.0,nan,735.190090426,1054.72773007,1055.22777483,1055.00756704,nan,nan,nan,nan
1,290,1,1,1.0,1.0,0.271356188692,0,0.0,0.0,0.0,0.307610001199,0.0722641655197,0.235345835679,0.379874166719,0.0722641655197,0.351705649868,291,0.122027637739,0.373441943191,0.573791926984,nan,nan,nan,nan,0.0,0.0,0.0,nan,735.190090426,1055.73618092,1056.2362348,1056.00753711,nan,nan,nan,nan
1,291,0,0,0.0,1.0,0.383115072735,0,0.0,0.0,0.0,0.307484988053,0.0721707622144,0.235314225838,0.379655750267,0.0721707622144,0.311436077269,70,1.0,-0.13936984996,-0.906436913284,nan,nan,nan,nan,0.0,0.0,0.0,nan,735.190090426,1056.73635768,1057.23636823,1057.11947275,nan,nan,nan,nan
1,292,1,1,1.0,1.0,0.2630056981,0,0.0,0.0,0.0,0.307744885251,0.0721824659116,0.235562419339,0.379927351162,0.0721824659116,0.305825653176,363,-0.162287729338,0.476365729747,0.00704812682028,nan,nan,nan,nan,0.0,0.0,0.0,nan,735.190090426,1057.73644121,1058.23648227,1057.99944691,nan,nan,nan,nan
1,293,1,1,1.0,1.0,0.302872807719,0,0.0,0.0,0.0,0.307591668856,0.0721061451257,0.235485523731,0.379697813982,0.0721061451257,0.316331192851,39,1.0,0.0253789930673,-1.0,nan,nan,nan,nan,0.0,0.0,0.0,nan,735.190090426,1058.73658718,1059.23661484,1059.03945999,nan,nan,nan,nan
1,294,1,1,1.0,1.0,0.486725312658,0,0.0,0.0,0.0,0.307575563528,0.0719835180177,0.235592045511,0.379559081546,0.0719835180177,0.350867939492,127,1.0,-0.31111021432,-0.167036648065,nan,nan,nan,nan,0.0,0.0,0.0,nan,735.190090426,1059.73672945,1060.2367266,1060.22345476,nan,nan,nan,nan
1,295,1,1,1.0,1.0,0.310243706219,0,0.0,0.0,0.0,0.308184916416,0.072614023378,0.235570893038,0.380798939794,0.072614023378,0.366613942198,235,0.707591924495,0.164537776567,0.631659631194,nan,nan,nan,nan,0.0,0.0,0.0,nan,735.190090426,1060.74515121,1061.24519882,1061.05539492,nan,nan,nan,nan
1,296,1,1,1.0,1.0,0.318088720553,0,0.0,0.0,0.0,0.308191895365,0.0724909430519,0.235700952313,0.380682838417,0.0724909430519,0.371685913143,352,-0.17544712699,0.470851603012,0.118673592819,nan,nan,nan,nan,0.0,0.0,0.0,nan,735.190090426,1061.74530032,1062.24532769,1062.06338904,nan,nan,nan,nan
1,297,1,1,1.0,1.0,0.261601310223,0,0.0,0.0,0.0,0.308225330585,0.0723706670152,0.23585466357,0.3805959976,0.0723706670152,0.296644578998,498,0.731507943485,0.267561876527,-1.0,nan,nan,nan,nan,0.0,0.0,0.0,nan,735.190090426,1062.75374461,1063.25378823,1063.01534592,nan,nan,nan,nan
1,298,1,1,1.0,1.0,0.269120173529,0,0.0,0.0,0.0,0.308068347352,0.0722991926965,0.235769154655,0.380367540048,0.0722991926965,0.282936734768,95,1.0,-0.253175017597,-0.514975443931,nan,nan,nan,nan,0.0,0.0,0.0,nan,735.190090426,1063.76220258,1064.26225247,1064.03132275,nan,nan,nan,nan
1,299,1,1,1.0,1.0,0.428629955277,0,0.0,0.0,0.0,0.307937648782,0.0722129199187,0.235724728863,0.3801505687,0.0722129199187,0.31978381301,2,0.863024578927,0.203622855609,-1.0,nan,nan,nan,nan,0.0,0.0,0.0,nan,735.190090426,1064.77067994,1065.27071729,1065.19930989,nan,nan,nan,nan
1,300,1,1,1.0,1.0,0.308483517729,0,0.0,0.0,0.0,0.308341301981,0.0724280347328,0.235913267248,0.380769336714,0.0724280347328,0.335411215511,85,1.0,-0.212156452387,-0.638781227021,nan,nan,nan,nan,0.0,0.0,0.0,nan,735.190090426,1065.77081108,1066.27084472,1066.0792946,nan,nan,nan,nan
1,301,1,1,1.0,1.0,0.236036946066,0,0.0,0.0,0.0,0.308341776033,0.0723072210437,0.23603455499,0.380648997077,0.0723072210437,0.324383473024,197,1.0,-0.035797595552,0.455774741445,nan,nan,nan,nan,0.0,0.0,0.0,nan,735.190090426,1066.77927048,1067.27931068,1067.01530743,nan,nan,nan,nan
1,302,1,1,1.0,1.0,0.219857690856,0,0.0,0.0,0.0,0.308101560651,0.0723068140832,0.235794746568,0.380408374734,0.0723068140832,0.254792718217,129,1.0,-0.310070485259,-0.146368003411,nan,nan,nan,nan,0.0,0.0,0.0,nan,735.190090426,1067.77943213,1068.27943584,1067.99928982,nan,nan,nan,nan
1,303,0,0,1.0,0.0,0.21167569235,0,0.0,0.0,0.0,0.307809362407,0.0723647878239,0.235444574583,0.380174150231,0.0723647878239,0.22252344309,173,1.0,-0.165909522591,0.273535192888,nan,nan,nan,nan,0.0,0.0,0.0,nan,735.190090426,1068.77957497,1069.27961203,1068.99125066,nan,nan,nan,nan
1,304,1,1,1.0,1.0,0.291545048356,0,0.0,0.0,0.0,0.307492089568,0.0724553637942,0.235036725774,0.379947453363,0.0724553637942,0.241026143854,253,0.513865899396,0.244839928328,0.655977188727,nan,nan,nan,nan,0.0,0.0,0.0,nan,735.190090426,1069.77967019,1070.27969756,1070.07121524,nan,nan,nan,nan
1,305,1,1,1.0,1.0,0.307410412468,0,0.0,0.0,0.0,0.307439632196,0.0723418586873,0.235097773509,0.379781490883,0.0723418586873,0.270210384391,346,-0.174317561957,0.466431294057,0.176670174816,nan,nan,nan,nan,0.0,0.0,0.0,nan,735.190090426,1070.77979563,1071.27985037,1071.08720604,nan,nan,nan,nan
1,306,1,1,1.0,1.0,0.275230088271,0,0.0,0.0,0.0,0.307439536394,0.0722231681284,0.235216368265,0.379662704522,0.0722231681284,0.291395183032,389,-0.0691208065164,0.476626077068,-0.280234315682,nan,nan,nan,nan,0.0,0.0,0.0,nan,735.190090426,1071.77993875,1072.27995757,1072.05516884,nan,nan,nan,nan
1,307,1,1,1.0,1.0,0.282753797248,0,0.0,0.0,0.0,0.307334276759,0.0721284890326,0.235205787727,0.379462765792,0.0721284890326,0.288464765996,123,1.0,-0.311441137266,-0.208672863777,nan,nan,nan,nan,0.0,0.0,0.0,nan,735.190090426,1072.78838076,1073.2884469,1073.07113455,nan,nan,nan,nan
1,308,1,1,1.0,1.0,0.266624149866,0,0.0,0.0,0.0,0.307254210051,0.0720245394418,0.235229670609,0.379278749493,0.0720245394418,0.274869345129,213,0.929785093221,0.0521668813814,0.548906519778,nan,nan,nan,nan,0.0,0.0,0.0,nan,735.190090426,1073.78854013,1074.28854554,1074.05516428,nan,nan,nan,nan
1,309,1,1,1.0,1.0,0.210126760416,0,0.0,0.0,0.0,0.307122294271,0.0719446591647,0.235177635106,0.379066953436,0.0719446591647,0.253168235843,389,-0.0691208065164,0.476626077068,-0.280234315682,nan,nan,nan,nan,0.0,0.0,0.0,nan,735.190090426,1074.79697871,1075.29705369,1075.00710547,nan,nan,nan,nan
1,310,1,1,1.0,1.0,0.209987631999,0,1.0,0.0,0.0,0.306808392867,0.0720390974643,0.234769295403,0.378847490331,0.0720390974643,0.228912847427,96,1.0,-0.25681952169,-0.503302481145,nan,nan,nan,nan,0.0,0.0,0.0,nan,735.190090426,1075.79711841,1076.29718113,1076.00710604,nan,nan,nan,nan
1,311,1,1,1.0,1.0,0.24948098138,1,0.0,0.0,1.0,0.306496067832,0.072132051247,0.234364016585,0.378628119079,0.072132051247,0.223198457931,394,-0.0437090198531,0.474655926729,-0.339401417396,168.73882988,281.26117012,4.22992012025,400.0,-0.0107874812989,0.471427301814,-0.412692688905,2.35062798299,735.190090426,1076.80556983,1077.30564053,1077.05505081,1080.99777111,1081.99715986,1078.63077827,1080.98943744
1,312,1,1,1.0,1.0,0.696996047162,0,0.0,0.0,0.0,0.30631273958,0.072088290831,0.234224448749,0.378401030411,0.072088290831,0.38548822018,33,1.0,0.0565990290419,-1.0,nan,nan,nan,nan,0.0,0.0,0.0,nan,735.190090426,1082.19795112,1082.69801441,1082.89494717,nan,nan,nan,nan
1,313,1,1,1.0,1.0,0.288875685073,0,0.0,0.0,0.0,0.307564929668,0.0752841769641,0.232280752704,0.382849106632,0.0752841769641,0.411784237872,322,-0.105067232891,0.43811622051,0.383559350674,nan,nan,nan,nan,0.0,0.0,0.0,nan,735.190090426,1083.19807314,1083.69809823,1083.48694883,nan,nan,nan,nan
1,314,1,1,1.0,1.0,0.240720519796,0,0.0,1.0,0.0,0.307505219621,0.0751712177664,0.232334001855,0.382676437388,0.0751712177664,0.40886408401,397,-0.0275613476434,0.473159987783,-0.37569455347,nan,nan,nan,nan,0.0,0.0,0.0,nan,735.190090426,1084.19820058,1084.69828126,1084.4389211,nan,nan,nan,nan
1,315,1,1,1.0,1.0,0.456556632183,1,0.0,0.0,1.0,0.307292529495,0.0751456937665,0.232146835728,0.382438223261,0.0751456937665,0.328717612351,205,1.0,0.00854800403903,0.505535240796,-29.1305595732,119.130559573,-25.0100654268,169.0,1.0,-0.185917379452,0.239118302078,2.11723502725,735.190090426,1085.19832859,1085.69835852,1085.65488522,1089.15714462,1090.15646238,1087.02352906,1089.14881665
1,316,1,1,1.0,1.0,0.40147532057,0,0.0,0.0,0.0,0.307766383789,0.0754947256539,0.232271658135,0.383261109443,0.0754947256539,0.366250824183,491,0.673033477965,0.292707709811,-1.0,nan,nan,nan,nan,0.0,0.0,0.0,nan,735.190090426,1090.35731807,1090.85736283,1090.75879339,nan,nan,nan,nan
1,317,1,1,1.0,1.0,0.241317228414,0,0.0,0.0,0.0,0.308062931057,0.0755587092592,0.232504221798,0.383621640316,0.0755587092592,0.366449727056,379,-0.113535935895,0.478614986251,-0.165970515924,nan,nan,nan,nan,0.0,0.0,0.0,nan,735.190090426,1091.35746147,1091.85750595,1091.5987787,nan,nan,nan,nan
1,318,1,1,1.0,1.0,0.225176175125,0,0.0,0.0,0.0,0.30785237679,0.0755322313098,0.23232014548,0.3833846081,0.0755322313098,0.289322908036,270,0.331159066004,0.309369715406,0.641393874915,nan,nan,nan,nan,0.0,0.0,0.0,nan,735.190090426,1092.35760032,1092.85765733,1092.58277649,nan,nan,nan,nan
1,319,1,1,1.0,1.0,0.241028994322,0,0.0,0.0,0.0,0.307592388735,0.0755553080546,0.23203708068,0.383147696789,0.0755553080546,0.235840799287,440,0.258699398066,0.424657399123,-1.0,nan,nan,nan,nan,0.0,0.0,0.0,nan,735.190090426,1093.35771606,1093.85775113,1093.59874506,nan,nan,nan,nan
1,320,1,1,1.0,1.0,0.240884166211,0,0.0,0.0,0.0,0.307383726056,0.0755285046795,0.231855221377,0.382912230736,0.0755285046795,0.235696445219,52,1.0,-0.0438860552364,-1.0,nan,nan,nan,nan,0.0,0.0,0.0,nan,735.190090426,1094.35785975,1094.85788228,1094.59874392,nan,nan,nan,nan
1,321,1,1,1.0,1.0,0.248702095821,0,0.0,0.0,0.0,0.307175914932,0.0755016850642,0.231674229867,0.382677599996,0.0755016850642,0.243538418785,98,1.0,-0.263822910468,-0.480217789416,nan,nan,nan,nan,0.0,0.0,0.0,nan,735.190090426,1095.35800487,1095.85803281,1095.60670696,nan,nan,nan,nan
1,322,0,0,1.0,0.0,0.248553560115,0,0.0,0.0,0.0,0.306993753501,0.0754543859457,0.231539367556,0.382448139447,0.0754543859457,0.246046607383,33,1.0,0.0565990290419,-1.0,nan,nan,nan,nan,0.0,0.0,0.0,nan,735.190090426,1096.35811834,1096.85814143,1096.6066719,nan,nan,nan,nan
1,323,1,1,1.0,1.0,0.23899283167,0,0.0,0.0,0.0,0.306812262218,0.0754072711965,0.231404991021,0.382219533414,0.0754072711965,0.245416162536,160,1.0,-0.227501418013,0.158297521075,nan,nan,nan,nan,0.0,0.0,0.0,nan,735.190090426,1097.39163263,1097.89160412,1097.63062546,nan,nan,nan,nan
1,324,1,1,1.0,1.0,0.206618356518,0,0.0,0.0,0.0,0.30660229494,0.0753846656475,0.231217629293,0.381986960588,0.0753846656475,0.231388249435,476,0.547545041103,0.340739382997,-1.0,nan,nan,nan,nan,0.0,0.0,0.0,nan,735.190090426,1098.40003872,1098.90009944,1098.60665707,nan,nan,nan,nan
1,325,1,1,1.0,1.0,0.294434792362,0,0.0,0.0,0.0,0.306293702538,0.0754722943572,0.230821408181,0.381765996895,0.0754722943572,0.246681993517,222,0.841778467246,0.0997291618919,0.589484691865,nan,nan,nan,nan,0.0,0.0,0.0,nan,735.190090426,1099.40017813,1099.90020664,1099.69461292,nan,nan,nan,nan
1,326,1,1,1.0,1.0,0.301968196407,0,0.0,0.0,0.0,0.306257213583,0.0753589559552,0.230898257628,0.381616169539,0.0753589559552,0.267673781763,456,0.383612429175,0.392633185378,-1.0,nan,nan,nan,nan,0.0,0.0,0.0,nan,735.190090426,1100.40862156,1100.90868058,1100.71058976,nan,nan,nan,nan
1,327,1,1,1.0,1.0,0.253781953827,0,0.0,0.0,0.0,0.306244057089,0.0752436597844,0.231000397305,0.381487716873,0.0752436597844,0.283394980865,177,1.0,-0.145192147526,0.306921212481,nan,nan,nan,nan,0.0,0.0,0.0,nan,735.190090426,1101.40877808,1101.90881343,1101.66256003,nan,nan,nan,nan
1,328,1,1,1.0,1.0,0.301001716405,0,0.0,0.0,0.0,0.306083622522,0.075184343758,0.230899278764,0.38126796628,0.075184343758,0.285583955546,460,0.415848916989,0.383334931935,-1.0,nan,nan,nan,nan,0.0,0.0,0.0,nan,735.190090426,1102.41755166,1102.91729592,1102.71855337,nan,nan,nan,nan
1,329,1,1,1.0,1.0,0.316844273359,0,0.0,0.0,0.0,0.306068128906,0.0750701688154,0.230997960091,0.381138297722,0.0750701688154,0.290542647863,64,1.0,-0.108036866323,-1.0,nan,nan,nan,nan,0.0,0.0,0.0,nan,735.190090426,1103.42568006,1103.92571598,1103.74252433,nan,nan,nan,nan
1,330,1,1,1.0,1.0,0.404682091437,0,0.0,0.0,0.0,0.306100883145,0.074958340872,0.231142542273,0.381059224017,0.074958340872,0.340842693734,329,-0.136053278316,0.448203788942,0.3278337444,nan,nan,nan,nan,0.0,0.0,0.0,nan,735.190090426,1104.42581719,1104.92587706,1104.83049928,nan,nan,nan,nan
1,331,0,0,0.0,1.0,0.524491828866,0,0.0,0.0,0.0,0.306399614079,0.0750405647548,0.231359049324,0.381440178834,0.0750405647548,0.415339397887,455,0.375608248681,0.394875365091,-1.0,nan,nan,nan,nan,0.0,0.0,0.0,nan,735.190090426,1105.42598397,1105.92602502,1105.9504758,nan,nan,nan,nan
1,332,1,1,1.0,1.0,0.292036556639,0,0.0,0.0,0.0,0.307058502945,0.0758771270599,0.231181375885,0.382935630005,0.0758771270599,0.407070158981,120,1.0,-0.310161497659,-0.240162905937,nan,nan,nan,nan,0.0,0.0,0.0,nan,735.190090426,1106.43441571,1106.93446332,1106.72645227,nan,nan,nan,nan
1,333,1,1,1.0,1.0,0.235902951099,0,0.0,0.0,0.0,0.307013256119,0.0757672401387,0.23124601598,0.382780496258,0.0757672401387,0.350810445535,232,0.739158239773,0.150046616059,0.623712016981,nan,nan,nan,nan,0.0,0.0,0.0,nan,735.190090426,1107.43453374,1107.9345919,1107.67043669,nan,nan,nan,nan
1,334,0,0,0.0,1.0,0.419720103033,0,0.0,0.0,0.0,0.30679971166,0.07575338293,0.23104632873,0.38255309459,0.07575338293,0.315886536924,422,0.128328379107,0.451313674078,-0.730894888444,nan,nan,nan,nan,0.0,0.0,0.0,nan,735.190090426,1108.43470053,1108.93472847,1108.85442063,nan,nan,nan,nan
1,335,1,1,1.0,1.0,0.219580006786,0,0.0,0.0,0.0,0.307137796664,0.0758910801907,0.231246716473,0.383028876854,0.0758910801907,0.291734353639,39,1.0,0.0253789930673,-1.0,nan,nan,nan,nan,0.0,0.0,0.0,nan,735.190090426,1109.43480145,1109.93485875,1109.65438146,nan,nan,nan,nan
1,336,1,1,1.0,1.0,0.34711416252,0,0.0,0.0,0.0,0.306876430127,0.0759281239742,0.230948306153,0.382804554101,0.0759281239742,0.328804757446,478,0.56422249903,0.334793662244,-1.0,nan,nan,nan,nan,0.0,0.0,0.0,nan,735.190090426,1110.44326512,1110.9432942,1110.79037929,nan,nan,nan,nan
1,337,1,1,1.0,1.0,0.289239753969,0,0.0,0.0,0.0,0.306996185283,0.0758467294525,0.23114945583,0.382842914735,0.0758467294525,0.285311307758,367,-0.15309091083,0.477560897992,-0.0350816338538,nan,nan,nan,nan,0.0,0.0,0.0,nan,735.190090426,1111.48509342,1111.98509741,1111.77433317,nan,nan,nan,nan
1,338,1,1,1.0,1.0,0.35282750614,0,0.0,0.0,0.0,0.306943495575,0.0757402717776,0.231203223798,0.382683767353,0.0757402717776,0.329727140876,61,1.0,-0.0921163965413,-1.0,nan,nan,nan,nan,0.0,0.0,0.0,nan,735.190090426,1112.49352716,1112.99355652,1112.84635466,nan,nan,nan,nan
1,339,1,1,1.0,1.0,0.256335282698,0,0.0,0.0,0.0,0.307079247086,0.0756691945781,0.231410052508,0.382748441664,0.0756691945781,0.299467514269,2,0.863024578927,0.203622855609,-1.0,nan,nan,nan,nan,0.0,0.0,0.0,nan,735.190090426,1113.50200053,1114.00202761,1113.75833581,nan,nan,nan,nan
1,340,1,1,1.0,1.0,0.248221422546,0,0.0,0.0,0.0,0.306929559875,0.0756076052997,0.231321954576,0.382537165175,0.0756076052997,0.285794737128,127,1.0,-0.31111021432,-0.167036648065,nan,nan,nan,nan,0.0,0.0,0.0,nan,735.190090426,1114.50213338,1115.00215505,1114.7503548,nan,nan,nan,nan
1,341,1,1,1.0,1.0,0.263989567757,0,0.0,0.0,0.0,0.306756888883,0.0755632456394,0.231193643244,0.382320134523,0.0755632456394,0.256182091,391,-0.0591907973189,0.475916278612,-0.303718712187,nan,nan,nan,nan,0.0,0.0,0.0,nan,735.190090426,1115.50227507,1116.00228135,1115.76626464,nan,nan,nan,nan
1,342,1,1,1.0,1.0,0.231897337362,0,0.0,0.0,0.0,0.306631471519,0.0754877992341,0.231143672285,0.382119270753,0.0754877992341,0.248036109221,280,0.228089347314,0.342018854333,0.61587222022,nan,nan,nan,nan,0.0,0.0,0.0,nan,735.190090426,1116.50238427,1117.00240878,1116.7342816,nan,nan,nan,nan
1,343,1,1,1.0,1.0,0.207752756774,0,0.0,0.0,0.0,0.306412950659,0.0754852902088,0.23092766045,0.381898240868,0.0754852902088,0.234546553964,93,1.0,-0.245614297951,-0.538619881923,nan,nan,nan,nan,0.0,0.0,0.0,nan,735.190090426,1117.50250372,1118.00253622,1117.71025648,nan,nan,nan,nan
1,344,1,1,1.0,1.0,0.223235520534,0,1.0,0.0,0.0,0.30612531161,0.0755626395548,0.230562672055,0.381687951165,0.0755626395548,0.220961871557,471,0.506014005179,0.354993781952,-1.0,nan,nan,nan,nan,0.0,0.0,0.0,nan,735.190090426,1118.51095742,1119.01100218,1118.73419294,nan,nan,nan,nan
1,345,1,1,1.0,1.0,0.22311349865,1,0.0,0.0,1.0,0.305884352915,0.0755845847368,0.230299768178,0.381468937652,0.0755845847368,0.21803392532,140,1.0,-0.294209249228,-0.0345777392028,-10.6038582599,100.60385826,2.16635825987,143.0,1.0,-0.287057525782,-0.00469998909502,1.75887378678,735.190090426,1119.51110396,1120.01114016,1119.73421746,1123.11152852,1124.11169303,1121.33630328,1123.10319941
1,346,1,1,1.0,1.0,0.44636042323,0,0.0,0.0,0.0,0.305644437395,0.075606020906,0.230038416489,0.381250458301,0.075606020906,0.297569814138,304,0.0113092810281,0.404708921832,0.506160370659,nan,nan,nan,nan,0.0,0.0,0.0,nan,735.190090426,1124.31172079,1124.81175329,1124.75808122,nan,nan,nan,nan
1,347,1,1,1.0,1.0,0.240608762018,0,0.0,0.0,0.0,0.306051130996,0.0758736599605,0.230177471036,0.381924790957,0.0758736599605,0.303360894633,2,0.863024578927,0.203622855609,-1.0,nan,nan,nan,nan,0.0,0.0,0.0,nan,735.190090426,1125.34144786,1125.84522939,1125.58205662,nan,nan,nan,nan
1,348,1,1,1.0,1.0,0.220795375295,0,0.0,0.0,0.0,0.305862536273,0.0758454254137,0.230017110859,0.381707961687,0.0758454254137,0.302588186848,357,-0.1717918326,0.473767524415,0.068739031695,nan,nan,nan,nan,0.0,0.0,0.0,nan,735.190090426,1126.34531834,1126.84535483,1126.56611371,nan,nan,nan,nan
1,349,1,1,1.0,1.0,0.0926032150164,0,1.0,0.0,0.0,0.305618090408,0.0758731366406,0.229744953767,0.381491227048,0.0758731366406,0.184669117443,468,0.481236483515,0.363131620867,-1.0,nan,nan,nan,nan,0.0,0.0,0.0,nan,735.190090426,1127.3454492,1127.84556352,1127.43805241,nan,nan,nan,nan
1,350,1,1,1.0,1.0,0.228133771569,1,0.0,0.0,1.0,0.305007732599,0.0766151465646,0.228392586034,0.381622879163,0.0766151465646,0.180510787293,95,1.0,-0.253175017597,-0.514975443931,15.7700727654,74.2299272346,7.43305223459,106.0,1.0,-0.287630069369,-0.390564445695,1.65885747969,735.190090426,1128.35391202,1128.85396533,1128.58204579,1131.85435249,1132.85398557,1130.17912246,1131.84602395
1,351,0,0,0.0,1.0,0.415349281393,0,0.0,0.0,0.0,0.30478809271,0.0766155724511,0.228172520259,0.381403665161,0.0766155724511,0.245362089326,184,1.0,-0.107671891867,0.362640045218,nan,nan,nan,nan,0.0,0.0,0.0,nan,735.190090426,1133.05454818,1133.55457641,1133.46989746,nan,nan,nan,nan
1,352,1,1,1.0,1.0,0.335228183307,0,0.0,0.0,0.0,0.305103081852,0.0767329707821,0.22837011107,0.381836052634,0.0767329707821,0.326237078756,503,0.773020196022,0.248538461814,-1.0,nan,nan,nan,nan,0.0,0.0,0.0,nan,735.190090426,1134.05465224,1134.55467933,1134.38988042,nan,nan,nan,nan
1,353,1,1,1.0,1.0,0.271088483743,0,0.0,0.0,0.0,0.305188664526,0.0766406715792,0.228547992947,0.381829336105,0.0766406715792,0.340555316148,394,-0.0437090198531,0.474655926729,-0.339401417396,nan,nan,nan,nan,0.0,0.0,0.0,nan,735.190090426,1135.05478966,1135.55481617,1135.32587814,nan,nan,nan,nan
1,354,1,1,1.0,1.0,0.230937415734,0,0.0,0.0,0.0,0.305092063448,0.076553495568,0.22853856788,0.381645559015,0.076553495568,0.279084694261,458,0.399688045963,0.388050214986,-1.0,nan,nan,nan,nan,0.0,0.0,0.0,nan,735.190090426,1136.05490712,1136.5549362,1136.28584453,nan,nan,nan,nan
1,355,1,1,1.0,1.0,0.214775836095,0,0.0,0.0,0.0,0.304882587042,0.0765465384174,0.228336048624,0.381429125459,0.0765465384174,0.238933911858,347,-0.174938837379,0.46723881498,0.167157479366,nan,nan,nan,nan,0.0,0.0,0.0,nan,735.190090426,1137.0550605,1137.55507247,1137.26983634,nan,nan,nan,nan
1,356,1,1,1.0,1.0,0.254628122784,0,0.0,0.0,0.0,0.304628765208,0.0765876876798,0.228041077528,0.381216452888,0.0765876876798,0.233447124871,480,0.580928072941,0.32870764083,-1.0,nan,nan,nan,nan,0.0,0.0,0.0,nan,735.190090426,1138.05518965,1138.55520961,1138.30981777,nan,nan,nan,nan
1,357,0,0,1.0,0.0,0.230461589061,0,0.0,0.0,0.0,0.304488313965,0.0765258140621,0.227962499903,0.381014128027,0.0765258140621,0.23328851598,221,0.851781464038,0.0945411604707,0.585422935822,nan,nan,nan,nan,0.0,0.0,0.0,nan,735.190090426,1139.05532621,1139.55536014,1139.2857878,nan,nan,nan,nan
1,358,1,1,1.0,1.0,0.222000764683,0,0.0,0.0,0.0,0.304280956192,0.0765186468467,0.227762309346,0.380799603039,0.0765186468467,0.235696825509,381,-0.105403061426,0.478425078289,-0.188431136224,nan,nan,nan,nan,0.0,0.0,0.0,nan,735.190090426,1140.06376565,1140.563805,1140.28576642,nan,nan,nan,nan
1,359,1,1,1.0,1.0,0.229844354093,0,0.0,0.0,0.0,0.304051123255,0.0765349995294,0.227516123726,0.380586122784,0.0765349995294,0.227435569279,45,1.0,-0.0063957592436,-1.0,nan,nan,nan,nan,0.0,0.0,0.0,nan,735.190090426,1141.06389908,1141.56392303,1141.29374343,nan,nan,nan,nan
1,360,0,0,1.0,0.0,0.2536918642,0,0.0,0.0,0.0,0.303844419163,0.07652833343,0.227316085733,0.380372752593,0.07652833343,0.235178994325,409,0.0429436170054,0.464793150178,-0.529461854507,nan,nan,nan,nan,0.0,0.0,0.0,nan,735.190090426,1142.06404847,1142.56408724,1142.31774033,nan,nan,nan,nan
1,361,1,1,1.0,1.0,0.237563925795,0,0.0,0.0,0.0,0.30370510651,0.076467542141,0.227237564369,0.380172648651,0.076467542141,0.240366714696,233,0.728670395113,0.154909781369,0.626482233315,nan,nan,nan,nan,0.0,0.0,0.0,nan,735.190090426,1143.0641608,1143.56420242,1143.30172472,nan,nan,nan,nan
1,362,1,1,1.0,1.0,0.277376297861,0,0.0,0.0,0.0,0.303521889943,0.0764406444732,0.22708124547,0.379962534416,0.0764406444732,0.256210695952,100,1.0,-0.270427092546,-0.457439896749,nan,nan,nan,nan,0.0,0.0,0.0,nan,735.190090426,1144.06430049,1144.56430677,1144.34167679,nan,nan,nan,nan
1,363,1,1,1.0,1.0,0.324905675836,0,0.0,0.0,0.0,0.30344966455,0.0763473242959,0.227102340255,0.379796988846,0.0763473242959,0.279948633164,510,0.830554458933,0.220436700166,-1.0,nan,nan,nan,nan,0.0,0.0,0.0,nan,735.190090426,1145.07275391,1145.57277415,1145.39765958,nan,nan,nan,nan
