block,trial,freq_trials,correct_response,actual_response,acc,rts,probe_trials,fast_rt_trigger,slow_rt_trigger,rt_triggered,rts_runningavg,rts_runningstd,rts_runningfastthresh,rts_runningslowthresh,rts_runningstd,rts_trailingavg,trials_colorind0,trials_colorind1,trials_colorind2,trials_colorind3,trials_colorind4,trials_colorind5,wholereport_resp0,wholereport_resp1,wholereport_resp2,wholereport_resp3,wholereport_resp4,wholereport_resp5,wholereport_respacc0,wholereport_respacc1,wholereport_respacc2,wholereport_respacc3,wholereport_respacc4,wholereport_respacc5,wholereport_respacc_total,wholereport_respcolorind0,wholereport_respcolorind1,wholereport_respcolorind2,wholereport_respcolorind3,wholereport_respcolorind4,wholereport_respcolorind5,wholereport_resporder0,wholereport_resporder1,wholereport_resporder2,wholereport_resporder3,wholereport_resporder4,wholereport_resporder5,wholereport_rts0,wholereport_rts1,wholereport_rts2,wholereport_rts3,wholereport_rts4,wholereport_rts5,time_blockstart,time_encarray_offset,time_encarray_onset,time_response,time_iti_offset,time_iti_onset,time_memprobe_offset,time_memprobe_onset
1,1,1,1,1.0,1.0,0.45035377686144784,0,nan,nan,nan,nan,nan,nan,nan,nan,nan,4,1,7,6,8,2,nan,nan,nan,nan,nan,nan,nan,nan,nan,nan,nan,nan,0.0,nan,nan,nan,nan,nan,nan,nan,nan,nan,nan,nan,nan,nan,nan,nan,nan,nan,nan,273.37119744735537,274.39284970995504,nan,274.8432034868165,nan,nan,nan,nan
1,2,1,1,1.0,1.0,0.29710643645375967,0,nan,nan,nan,nan,nan,nan,nan,nan,nan,6,4,7,2,3,1,nan,nan,nan,nan,nan,nan,nan,nan,nan,nan,nan,nan,0.0,nan,nan,nan,nan,nan,nan,nan,nan,nan,nan,nan,nan,nan,nan,nan,nan,nan,nan,273.37119744735537,275.41807566356147,nan,275.7151821000152,nan,nan,nan,nan
1,3,1,1,1.0,1.0,0.2241070619202219,0,nan,nan,nan,nan,nan,nan,nan,nan,nan,2,1,0,7,4,5,nan,nan,nan,nan,nan,nan,nan,nan,nan,nan,nan,nan,0.0,nan,nan,nan,nan,nan,nan,nan,nan,nan,nan,nan,nan,nan,nan,nan,nan,nan,nan,273.37119744735537,276.44306270591915,nan,276.66716976783937,nan,nan,nan,nan
1,4,1,1,1.0,1.0,0.22296553349588066,0,nan,nan,nan,nan,nan,nan,nan,nan,nan,0,6,5,2,1,8,nan,nan,nan,nan,nan,nan,nan,nan,nan,nan,nan,nan,0.0,nan,nan,nan,nan,nan,nan,nan,nan,nan,nan,nan,nan,nan,nan,nan,nan,nan,nan,273.37119744735537,277.46819486265304,nan,277.6911603961489,nan,nan,nan,nan
1,5,1,1,1.0,1.0,0.38110970018897206,0,nan,nan,nan,nan,nan,nan,nan,nan,nan,6,2,8,5,3,7,nan,nan,nan,nan,nan,nan,nan,nan,nan,nan,nan,nan,0.0,nan,nan,nan,nan,nan,nan,nan,nan,nan,nan,nan,nan,nan,nan,nan,nan,nan,nan,273.37119744735537,278.51000975602074,nan,278.8911194562097,nan,nan,nan,nan
1,6,1,1,1.0,1.0,0.4439738759538159,0,nan,nan,nan,nan,nan,nan,nan,nan,nan,1,7,3,8,2,5,nan,nan,nan,nan,nan,nan,nan,nan,nan,nan,nan,nan,0.0,nan,nan,nan,nan,nan,nan,nan,nan,nan,nan,nan,nan,nan,nan,nan,nan,nan,nan,273.37119744735537,279.535132504534,nan,279.9791063804878,nan,nan,nan,nan
1,7,1,1,1.0,1.0,0.5228006333927624,0,nan,nan,nan,nan,nan,nan,nan,nan,nan,3,1,2,7,8,6,nan,nan,nan,nan,nan,nan,nan,nan,nan,nan,nan,nan,0.0,nan,nan,nan,nan,nan,nan,nan,nan,nan,nan,nan,nan,nan,nan,nan,nan,nan,nan,273.37119744735537,280.5602666569175,nan,281.0830672903103,nan,nan,nan,nan
1,8,1,1,1.0,1.0,0.36964423884637654,0,nan,nan,nan,nan,nan,nan,nan,nan,nan,2,6,0,4,5,1,nan,nan,nan,nan,nan,nan,nan,nan,nan,nan,nan,nan,0.0,nan,nan,nan,nan,nan,nan,nan,nan,nan,nan,nan,nan,nan,nan,nan,nan,nan,nan,273.37119744735537,281.5854062261642,nan,281.9550504650106,nan,nan,nan,nan
1,9,1,1,1.0,1.0,0.32051632209913805,0,nan,nan,nan,nan,nan,nan,nan,nan,nan,4,0,5,3,2,8,nan,nan,nan,nan,nan,nan,nan,nan,nan,nan,nan,nan,0.0,nan,nan,nan,nan,nan,nan,nan,nan,nan,nan,nan,nan,nan,nan,nan,nan,nan,nan,273.37119744735537,282.61053695739247,nan,282.9310532794916,nan,nan,nan,nan
1,10,1,1,1.0,1.0,0.36734008480561897,0,nan,nan,nan,nan,nan,nan,nan,nan,nan,7,8,2,1,4,3,nan,nan,nan,nan,nan,nan,nan,nan,nan,nan,nan,nan,0.0,nan,nan,nan,nan,nan,nan,nan,nan,nan,nan,nan,nan,nan,nan,nan,nan,nan,nan,273.37119744735537,283.6356722501805,nan,284.0030123349861,nan,nan,nan,nan
1,11,1,1,1.0,1.0,0.31809442298254,0,nan,nan,nan,nan,nan,nan,nan,nan,nan,3,5,0,7,8,4,nan,nan,nan,nan,nan,nan,nan,nan,nan,nan,nan,nan,0.0,nan,nan,nan,nan,nan,nan,nan,nan,nan,nan,nan,nan,nan,nan,nan,nan,nan,nan,273.37119744735537,284.6608990590903,nan,284.97899348207284,nan,nan,nan,nan
1,12,1,1,1.0,1.0,0.3330397784593515,0,nan,nan,nan,nan,nan,nan,nan,nan,nan,4,6,7,3,0,5,nan,nan,nan,nan,nan,nan,nan,nan,nan,nan,nan,nan,0.0,nan,nan,nan,nan,nan,nan,nan,nan,nan,nan,nan,nan,nan,nan,nan,nan,nan,nan,273.37119744735537,285.6859405549476,nan,286.01898033340694,nan,nan,nan,nan
1,13,1,1,1.0,1.0,0.3318905523628928,0,nan,nan,nan,nan,nan,nan,nan,nan,nan,3,8,1,7,2,4,nan,nan,nan,nan,nan,nan,nan,nan,nan,nan,nan,nan,0.0,nan,nan,nan,nan,nan,nan,nan,nan,nan,nan,nan,nan,nan,nan,nan,nan,nan,nan,273.37119744735537,286.7110744222882,nan,287.0429649746511,nan,nan,nan,nan
1,14,0,0,0.0,1.0,0.3787371228681877,0,nan,nan,nan,nan,nan,nan,nan,nan,nan,4,1,7,3,8,0,nan,nan,nan,nan,nan,nan,nan,nan,nan,nan,nan,nan,0.0,nan,nan,nan,nan,nan,nan,nan,nan,nan,nan,nan,nan,nan,nan,nan,nan,nan,nan,273.37119744735537,287.73619973665336,nan,288.11493685952155,nan,nan,nan,nan
1,15,1,1,1.0,1.0,0.2896120913210325,0,nan,nan,nan,nan,nan,nan,nan,nan,nan,7,3,5,4,6,2,nan,nan,nan,nan,nan,nan,nan,nan,nan,nan,nan,nan,0.0,nan,nan,nan,nan,nan,nan,nan,nan,nan,nan,nan,nan,nan,nan,nan,nan,nan,nan,273.37119744735537,288.76130794524215,nan,289.0509200365632,nan,nan,nan,nan
1,16,1,1,1.0,1.0,0.2724027804797515,0,nan,nan,nan,nan,nan,nan,nan,nan,nan,1,7,6,2,3,8,nan,nan,nan,nan,nan,nan,nan,nan,nan,nan,nan,nan,0.0,nan,nan,nan,nan,nan,nan,nan,nan,nan,nan,nan,nan,nan,nan,nan,nan,nan,nan,273.37119744735537,289.7864862876595,nan,290.05888906813925,nan,nan,nan,nan
1,17,1,1,1.0,1.0,0.3432670634938404,0,nan,nan,nan,nan,nan,nan,nan,nan,nan,2,0,4,3,6,1,nan,nan,nan,nan,nan,nan,nan,nan,nan,nan,nan,nan,0.0,nan,nan,nan,nan,nan,nan,nan,nan,nan,nan,nan,nan,nan,nan,nan,nan,nan,nan,273.37119744735537,290.81160532991635,nan,291.1548723934102,nan,nan,nan,nan
1,18,1,1,1.0,1.0,0.366106184956152,0,nan,nan,nan,nan,nan,nan,nan,nan,nan,4,5,3,0,7,6,nan,nan,nan,nan,nan,nan,nan,nan,nan,nan,nan,nan,0.0,nan,nan,nan,nan,nan,nan,nan,nan,nan,nan,nan,nan,nan,nan,nan,nan,nan,nan,273.37119744735537,291.8367372015491,nan,292.20284338650526,nan,nan,nan,nan
1,19,1,1,1.0,1.0,0.412955891515594,0,nan,nan,nan,nan,nan,nan,nan,nan,nan,5,6,2,8,3,1,nan,nan,nan,nan,nan,nan,nan,nan,nan,nan,nan,nan,0.0,nan,nan,nan,nan,nan,nan,nan,nan,nan,nan,nan,nan,nan,nan,nan,nan,nan,nan,273.37119744735537,292.8618753452902,nan,293.27483123680577,nan,nan,nan,nan
1,20,1,1,1.0,1.0,0.39581186790019274,0,nan,nan,nan,nan,nan,nan,nan,nan,nan,0,8,7,4,1,6,nan,nan,nan,nan,nan,nan,nan,nan,nan,nan,nan,nan,0.0,nan,nan,nan,nan,nan,nan,nan,nan,nan,nan,nan,nan,nan,nan,nan,nan,nan,nan,273.37119744735537,293.8870000895113,nan,294.28281195741147,nan,nan,nan,nan
1,21,1,1,1.0,1.0,0.4426689869724214,0,nan,nan,nan,nan,nan,nan,nan,nan,nan,7,5,0,6,2,4,nan,nan,nan,nan,nan,nan,nan,nan,nan,nan,nan,nan,0.0,nan,nan,nan,nan,nan,nan,nan,nan,nan,nan,nan,nan,nan,nan,nan,nan,nan,nan,273.37119744735537,294.9121091533452,nan,295.35477814031765,nan,nan,nan,nan
1,22,1,1,1.0,1.0,0.4734856929862872,1,nan,nan,nan,nan,nan,nan,nan,nan,nan,8,4,1,5,0,3,1.0,1.0,1.0,1.0,1.0,1.0,0.0,0.0,0.0,0.0,0.0,0.0,0.0,6.0,1.0,5.0,0.0,4.0,2.0,2.0,1.0,6.0,5.0,4.0,3.0,3.61390138725983,1.8057502926676534,8.492344860220328,6.884448186203372,5.700712856603786,4.556863168836571,273.37119744735537,295.9372738111415,296.7456863396801,296.4107595041278,306.29691200022353,307.2987571480917,297.76250421226723,306.2885826060083
1,23,1,1,1.0,1.0,0.4323826868785545,0,nan,nan,nan,nan,nan,nan,nan,nan,nan,4,1,5,0,6,7,nan,nan,nan,nan,nan,nan,nan,nan,nan,nan,nan,nan,0.0,nan,nan,nan,nan,nan,nan,nan,nan,nan,nan,nan,nan,nan,nan,nan,nan,nan,nan,273.37119744735537,307.52211098367115,nan,307.9544936705497,nan,nan,nan,nan
1,24,1,1,1.0,1.0,0.5512410557712428,0,nan,nan,nan,nan,nan,nan,nan,nan,nan,0,7,2,4,1,8,nan,nan,nan,nan,nan,nan,nan,nan,nan,nan,nan,nan,0.0,nan,nan,nan,nan,nan,nan,nan,nan,nan,nan,nan,nan,nan,nan,nan,nan,nan,nan,273.37119744735537,308.54724342550617,nan,309.0984844812774,nan,nan,nan,nan
1,25,0,0,0.0,1.0,0.6941063035628758,0,nan,nan,nan,nan,nan,nan,nan,nan,nan,4,1,7,3,5,0,nan,nan,nan,nan,nan,nan,nan,nan,nan,nan,nan,nan,0.0,nan,nan,nan,nan,nan,nan,nan,nan,nan,nan,nan,nan,nan,nan,nan,nan,nan,nan,273.37119744735537,309.57237330143107,nan,310.26647960499395,nan,nan,nan,nan
1,26,1,1,1.0,1.0,0.36496551177697256,0,nan,nan,nan,nan,nan,nan,nan,nan,nan,5,4,1,2,8,7,nan,nan,nan,nan,nan,nan,nan,nan,nan,nan,nan,nan,0.0,nan,nan,nan,nan,nan,nan,nan,nan,nan,nan,nan,nan,nan,nan,nan,nan,nan,nan,273.37119744735537,310.5974943393958,nan,310.96245985117275,nan,nan,nan,nan
1,27,1,1,1.0,1.0,0.3877818254986778,0,nan,nan,nan,nan,nan,nan,nan,nan,nan,6,8,0,3,7,1,nan,nan,nan,nan,nan,nan,nan,nan,nan,nan,nan,nan,0.0,nan,nan,nan,nan,nan,nan,nan,nan,nan,nan,nan,nan,nan,nan,nan,nan,nan,nan,273.37119744735537,311.6226621332462,nan,312.0104439587449,nan,nan,nan,nan
1,28,1,1,1.0,1.0,0.48266467632493004,0,nan,nan,nan,nan,nan,nan,nan,nan,nan,7,0,1,4,3,6,nan,nan,nan,nan,nan,nan,nan,nan,nan,nan,nan,nan,0.0,nan,nan,nan,nan,nan,nan,nan,nan,nan,nan,nan,nan,nan,nan,nan,nan,nan,nan,273.37119744735537,312.64775608695345,nan,313.1304207632784,nan,nan,nan,nan
1,29,1,1,0.0,0.0,0.5134440346155316,0,0.0,0.0,0.0,nan,nan,nan,nan,nan,nan,2,3,4,1,5,8,nan,nan,nan,nan,nan,nan,nan,nan,nan,nan,nan,nan,0.0,nan,nan,nan,nan,nan,nan,nan,nan,nan,nan,nan,nan,nan,nan,nan,nan,nan,nan,273.37119744735537,313.6729196043452,nan,314.18636363896076,nan,nan,nan,nan
1,30,1,1,1.0,1.0,0.3443259138148278,0,nan,nan,nan,nan,nan,nan,nan,nan,nan,0,6,5,4,2,7,nan,nan,nan,nan,nan,nan,nan,nan,nan,nan,nan,nan,0.0,nan,nan,nan,nan,nan,nan,nan,nan,nan,nan,nan,nan,nan,nan,nan,nan,nan,nan,273.37119744735537,314.6980454889126,nan,315.04237140272744,nan,nan,nan,nan
1,31,0,0,0.0,1.0,0.4471849236288108,0,nan,nan,nan,nan,nan,nan,nan,nan,nan,8,0,4,3,7,1,nan,nan,nan,nan,nan,nan,nan,nan,nan,nan,nan,nan,0.0,nan,nan,nan,nan,nan,nan,nan,nan,nan,nan,nan,nan,nan,nan,nan,nan,nan,nan,273.37119744735537,315.7231725138845,nan,316.1703574375133,nan,nan,nan,nan
1,32,1,1,1.0,1.0,0.3020101049914956,0,nan,nan,nan,nan,nan,nan,nan,nan,nan,5,7,6,8,4,2,nan,nan,nan,nan,nan,nan,nan,nan,nan,nan,nan,nan,0.0,nan,nan,nan,nan,nan,nan,nan,nan,nan,nan,nan,nan,nan,nan,nan,nan,nan,nan,273.37119744735537,316.748303815315,nan,317.0503139203065,nan,nan,nan,nan
1,33,1,1,1.0,1.0,0.29288671555696055,1,nan,nan,nan,nan,nan,nan,nan,nan,nan,2,4,8,0,1,5,1.0,1.0,1.0,1.0,1.0,1.0,1.0,1.0,0.0,1.0,0.0,1.0,4.0,2.0,4.0,6.0,0.0,6.0,5.0,3.0,1.0,6.0,2.0,5.0,4.0,3.791237429366447,1.1286736887996085,7.143733368138783,2.625538762076758,5.848185557115357,4.752601937856525,273.37119744735537,317.7734385379008,318.58185904915445,318.06632525345776,326.79124883323675,327.79675348626915,319.60699149098946,326.78291630290914
1,34,1,1,1.0,1.0,0.3296419922844507,0,nan,nan,nan,nan,nan,nan,nan,nan,nan,0,1,5,7,2,6,nan,nan,nan,nan,nan,nan,nan,nan,nan,nan,nan,nan,0.0,nan,nan,nan,nan,nan,nan,nan,nan,nan,nan,nan,nan,nan,nan,nan,nan,nan,nan,273.37119744735537,328.01643869356485,nan,328.3460806858493,nan,nan,nan,nan
1,35,1,1,1.0,1.0,0.46450884343357757,0,nan,nan,nan,nan,nan,nan,nan,nan,nan,8,3,1,4,5,0,nan,nan,nan,nan,nan,nan,nan,nan,nan,nan,nan,nan,0.0,nan,nan,nan,nan,nan,nan,nan,nan,nan,nan,nan,nan,nan,nan,nan,nan,nan,nan,273.37119744735537,329.041574271454,nan,329.5060831148876,nan,nan,nan,nan
1,36,1,1,1.0,1.0,0.47934614709811285,0,nan,nan,nan,nan,nan,nan,nan,nan,nan,3,0,6,2,7,1,nan,nan,nan,nan,nan,nan,nan,nan,nan,nan,nan,nan,0.0,nan,nan,nan,nan,nan,nan,nan,nan,nan,nan,nan,nan,nan,nan,nan,nan,nan,nan,273.37119744735537,330.06671184505103,nan,330.54605799214914,nan,nan,nan,nan
1,37,1,1,1.0,1.0,0.3582261035917327,0,nan,nan,nan,nan,nan,nan,nan,nan,nan,1,2,4,7,6,8,nan,nan,nan,nan,nan,nan,nan,nan,nan,nan,nan,nan,0.0,nan,nan,nan,nan,nan,nan,nan,nan,nan,nan,nan,nan,nan,nan,nan,nan,nan,nan,273.37119744735537,331.09181919827824,nan,331.45004530187,nan,nan,nan,nan
1,38,0,0,0.0,1.0,0.6290354768862016,0,nan,nan,nan,nan,nan,nan,nan,nan,nan,3,1,8,0,4,5,nan,nan,nan,nan,nan,nan,nan,nan,nan,nan,nan,nan,0.0,nan,nan,nan,nan,nan,nan,nan,nan,nan,nan,nan,nan,nan,nan,nan,nan,nan,nan,273.37119744735537,332.1169795796159,nan,332.7460150565021,nan,nan,nan,nan
1,39,1,1,1.0,1.0,0.4117804365232587,0,nan,nan,nan,nan,nan,nan,nan,nan,nan,7,4,5,2,1,3,nan,nan,nan,nan,nan,nan,nan,nan,nan,nan,nan,nan,0.0,nan,nan,nan,nan,nan,nan,nan,nan,nan,nan,nan,nan,nan,nan,nan,nan,nan,nan,273.37119744735537,333.1422166520497,nan,333.55399708857294,nan,nan,nan,nan
1,40,1,1,1.0,1.0,0.4426963562727906,0,nan,nan,nan,nan,nan,nan,nan,nan,nan,2,3,4,8,6,5,nan,nan,nan,nan,nan,nan,nan,nan,nan,nan,nan,nan,0.0,nan,nan,nan,nan,nan,nan,nan,nan,nan,nan,nan,nan,nan,nan,nan,nan,nan,nan,273.37119744735537,334.1672444632859,nan,334.6099408195587,nan,nan,nan,nan
1,41,1,1,1.0,1.0,0.4895777085912414,0,nan,nan,nan,nan,nan,nan,nan,nan,nan,3,5,2,6,4,8,nan,nan,nan,nan,nan,nan,nan,nan,nan,nan,nan,nan,0.0,nan,nan,nan,nan,nan,nan,nan,nan,nan,nan,nan,nan,nan,nan,nan,nan,nan,nan,273.37119744735537,335.19237890077056,nan,335.6819566093618,nan,nan,nan,nan
1,42,1,1,1.0,1.0,0.4404178609838709,0,nan,nan,nan,nan,nan,nan,nan,nan,nan,7,3,6,1,5,4,nan,nan,nan,nan,nan,nan,nan,nan,nan,nan,nan,nan,0.0,nan,nan,nan,nan,nan,nan,nan,nan,nan,nan,nan,nan,nan,nan,nan,nan,nan,nan,273.37119744735537,336.21751875511836,nan,336.65793661610223,nan,nan,nan,nan
1,43,0,0,0.0,1.0,0.5592688173637725,0,nan,nan,nan,nan,nan,nan,nan,nan,nan,0,1,7,5,3,8,nan,nan,nan,nan,nan,nan,nan,nan,nan,nan,nan,nan,0.0,nan,nan,nan,nan,nan,nan,nan,nan,nan,nan,nan,nan,nan,nan,nan,nan,nan,nan,273.37119744735537,337.24261327902786,nan,337.80188209639164,nan,nan,nan,nan
1,44,1,1,1.0,1.0,0.39806413429323584,0,nan,nan,nan,nan,nan,nan,nan,nan,nan,1,7,4,3,5,6,nan,nan,nan,nan,nan,nan,nan,nan,nan,nan,nan,nan,0.0,nan,nan,nan,nan,nan,nan,nan,nan,nan,nan,nan,nan,nan,nan,nan,nan,nan,nan,273.37119744735537,338.26782868406735,nan,338.6658928183606,nan,nan,nan,nan
1,45,1,1,1.0,1.0,0.4449537544278428,0,nan,nan,nan,nan,nan,nan,nan,nan,nan,4,0,6,8,2,1,nan,nan,nan,nan,nan,nan,nan,nan,nan,nan,nan,nan,0.0,nan,nan,nan,nan,nan,nan,nan,nan,nan,nan,nan,nan,nan,nan,nan,nan,nan,nan,273.37119744735537,339.2929172209115,nan,339.7378709753393,nan,nan,nan,nan
1,46,1,1,1.0,1.0,0.44380310288397595,1,nan,nan,nan,nan,nan,nan,nan,nan,nan,1,6,8,7,4,5,1.0,1.0,1.0,1.0,1.0,1.0,0.0,0.0,1.0,1.0,0.0,0.0,2.0,2.0,5.0,8.0,7.0,3.0,4.0,4.0,3.0,1.0,2.0,6.0,5.0,5.311687152774539,4.0718909173156135,1.5360858688945882,2.5427015450550243,7.566494886181317,6.239265954995062,273.37119744735537,340.3180470968946,341.12646162108285,340.76185019977856,349.75258084066445,350.7594981494476,342.14328262978233,349.7442172347801
1,47,1,1,1.0,1.0,0.45579656393965706,0,nan,nan,nan,nan,nan,nan,nan,nan,nan,5,8,3,6,0,2,nan,nan,nan,nan,nan,nan,nan,nan,nan,nan,nan,nan,0.0,nan,nan,nan,nan,nan,nan,nan,nan,nan,nan,nan,nan,nan,nan,nan,nan,nan,nan,273.37119744735537,350.97780348715605,nan,351.4336000510957,nan,nan,nan,nan
1,48,0,0,0.0,1.0,0.526702185976319,0,nan,nan,nan,nan,nan,nan,nan,nan,nan,4,3,2,7,8,6,nan,nan,nan,nan,nan,nan,nan,nan,nan,nan,nan,nan,0.0,nan,nan,nan,nan,nan,nan,nan,nan,nan,nan,nan,nan,nan,nan,nan,nan,nan,nan,273.37119744735537,352.00290314282756,nan,352.5296053288039,nan,nan,nan,nan
1,49,1,1,1.0,1.0,0.5175639715162106,0,nan,nan,nan,nan,nan,nan,nan,nan,nan,8,0,1,5,3,2,nan,nan,nan,nan,nan,nan,nan,nan,nan,nan,nan,nan,0.0,nan,nan,nan,nan,nan,nan,nan,nan,nan,nan,nan,nan,nan,nan,nan,nan,nan,nan,273.37119744735537,353.0280310231028,nan,353.545594994619,nan,nan,nan,nan
1,50,1,1,1.0,1.0,0.6363735888735391,0,nan,nan,nan,nan,nan,nan,nan,nan,nan,3,1,0,7,6,5,nan,nan,nan,nan,nan,nan,nan,nan,nan,nan,nan,nan,0.0,nan,nan,nan,nan,nan,nan,nan,nan,nan,nan,nan,nan,nan,nan,nan,nan,nan,nan,273.37119744735537,354.0531654605875,nan,354.689539049461,nan,nan,nan,nan
1,51,1,1,1.0,1.0,0.5552318437257782,0,nan,nan,nan,nan,nan,nan,nan,nan,nan,7,0,5,1,3,2,nan,nan,nan,nan,nan,nan,nan,nan,nan,nan,nan,nan,0.0,nan,nan,nan,nan,nan,nan,nan,nan,nan,nan,nan,nan,nan,nan,nan,nan,nan,nan,273.37119744735537,355.0782893495052,nan,355.633521193231,nan,nan,nan,nan
1,52,1,1,1.0,1.0,0.5861232451861724,0,nan,nan,nan,nan,nan,nan,nan,nan,nan,4,2,1,8,7,6,nan,nan,nan,nan,nan,nan,nan,nan,nan,nan,nan,nan,0.0,nan,nan,nan,nan,nan,nan,nan,nan,nan,nan,nan,nan,nan,nan,nan,nan,nan,nan,273.37119744735537,356.1034035451012,nan,356.68952679028735,nan,nan,nan,nan
1,53,1,1,1.0,1.0,0.42488891194807366,0,nan,nan,nan,nan,nan,nan,nan,nan,nan,8,6,7,5,2,3,nan,nan,nan,nan,nan,nan,nan,nan,nan,nan,nan,nan,0.0,nan,nan,nan,nan,nan,nan,nan,nan,nan,nan,nan,nan,nan,nan,nan,nan,nan,nan,273.37119744735537,357.12857447500573,nan,357.5534633869538,nan,nan,nan,nan
1,54,0,0,1.0,0.0,0.5277889757417142,0,0.0,0.0,0.0,nan,nan,nan,nan,nan,nan,7,1,8,4,0,2,nan,nan,nan,nan,nan,nan,nan,nan,nan,nan,nan,nan,0.0,nan,nan,nan,nan,nan,nan,nan,nan,nan,nan,nan,nan,nan,nan,nan,nan,nan,nan,273.37119744735537,358.1536960831727,nan,358.6814850589144,nan,nan,nan,nan
1,55,1,1,1.0,1.0,0.4789407391799614,0,nan,nan,nan,nan,nan,nan,nan,nan,nan,1,5,3,7,4,0,nan,nan,nan,nan,nan,nan,nan,nan,nan,nan,nan,nan,0.0,nan,nan,nan,nan,nan,nan,nan,nan,nan,nan,nan,nan,nan,nan,nan,nan,nan,nan,273.37119744735537,359.1705136706587,nan,359.64945440983865,nan,nan,nan,nan
1,56,1,1,1.0,1.0,0.581834815966431,0,nan,nan,nan,nan,nan,nan,nan,nan,nan,2,0,7,6,5,8,nan,nan,nan,nan,nan,nan,nan,nan,nan,nan,nan,nan,0.0,nan,nan,nan,nan,nan,nan,nan,nan,nan,nan,nan,nan,nan,nan,nan,nan,nan,nan,273.37119744735537,360.1956047734129,nan,360.77743958937936,nan,nan,nan,nan
1,57,1,1,1.0,1.0,0.4285843393881805,0,nan,nan,nan,nan,nan,nan,nan,nan,nan,3,1,6,2,4,5,nan,nan,nan,nan,nan,nan,nan,nan,nan,nan,nan,nan,0.0,nan,nan,nan,nan,nan,nan,nan,nan,nan,nan,nan,nan,nan,nan,nan,nan,nan,nan,273.37119744735537,361.2208315823227,nan,361.6494159217109,nan,nan,nan,nan
1,58,1,1,1.0,1.0,0.39549255929887295,0,nan,nan,nan,nan,nan,nan,nan,nan,nan,0,6,8,7,2,4,nan,nan,nan,nan,nan,nan,nan,nan,nan,nan,nan,nan,0.0,nan,nan,nan,nan,nan,nan,nan,nan,nan,nan,nan,nan,nan,nan,nan,nan,nan,nan,273.37119744735537,362.2458978816285,nan,362.64139044092735,nan,nan,nan,nan
1,59,1,1,1.0,1.0,0.5463390978402458,0,nan,nan,nan,nan,nan,nan,nan,nan,nan,2,5,7,1,6,3,nan,nan,nan,nan,nan,nan,nan,nan,nan,nan,nan,nan,0.0,nan,nan,nan,nan,nan,nan,nan,nan,nan,nan,nan,nan,nan,nan,nan,nan,nan,nan,273.37119744735537,363.27103345951764,nan,363.8173725573579,nan,nan,nan,nan
1,60,1,1,1.0,1.0,0.5131837410735898,0,nan,nan,nan,nan,nan,nan,nan,nan,nan,1,3,6,8,7,5,nan,nan,nan,nan,nan,nan,nan,nan,nan,nan,nan,nan,0.0,nan,nan,nan,nan,nan,nan,nan,nan,nan,nan,nan,nan,nan,nan,nan,nan,nan,nan,273.37119744735537,364.2961687523057,nan,364.80935249337927,nan,nan,nan,nan
1,61,1,1,1.0,1.0,0.456029488123022,0,nan,nan,nan,nan,nan,nan,nan,nan,nan,8,5,0,6,2,3,nan,nan,nan,nan,nan,nan,nan,nan,nan,nan,nan,nan,0.0,nan,nan,nan,nan,nan,nan,nan,nan,nan,nan,nan,nan,nan,nan,nan,nan,nan,nan,273.37119744735537,365.32130718120607,nan,365.7773366693291,nan,nan,nan,nan
1,62,1,1,1.0,1.0,0.446881010197103,0,nan,nan,nan,nan,nan,nan,nan,nan,nan,2,8,6,7,4,1,nan,nan,nan,nan,nan,nan,nan,nan,nan,nan,nan,nan,0.0,nan,nan,nan,nan,nan,nan,nan,nan,nan,nan,nan,nan,nan,nan,nan,nan,nan,nan,273.37119744735537,366.34643705713097,nan,366.7933180673281,nan,nan,nan,nan
1,63,1,1,1.0,1.0,0.4457275077002123,0,nan,nan,nan,nan,nan,nan,nan,nan,nan,4,0,3,6,2,7,nan,nan,nan,nan,nan,nan,nan,nan,nan,nan,nan,nan,0.0,nan,nan,nan,nan,nan,nan,nan,nan,nan,nan,nan,nan,nan,nan,nan,nan,nan,nan,273.37119744735537,367.3715623714961,nan,367.8172898791963,nan,nan,nan,nan
1,64,1,1,1.0,1.0,0.44456231623189524,1,nan,nan,nan,nan,nan,nan,nan,nan,nan,5,8,0,4,3,6,1.0,1.0,1.0,1.0,1.0,1.0,0.0,0.0,0.0,0.0,0.0,0.0,0.0,2.0,5.0,3.0,8.0,1.0,3.0,4.0,5.0,6.0,1.0,2.0,3.0,5.9281729444046505,7.0635122013045475,9.78312299825484,2.4003201069426723,3.344077879388351,4.696465481305495,273.37119744735537,368.3967030811473,369.2051375621231,368.8412653973792,380.03985257062595,381.0385069127078,370.22194659675006,380.0315220360062
1,65,0,0,0.0,1.0,0.5039160925080068,0,nan,nan,nan,nan,nan,nan,nan,nan,nan,6,3,2,5,0,8,nan,nan,nan,nan,nan,nan,nan,nan,nan,nan,nan,nan,0.0,nan,nan,nan,nan,nan,nan,nan,nan,nan,nan,nan,nan,nan,nan,nan,nan,nan,nan,273.37119744735537,381.2650806339807,nan,381.7689967264887,nan,nan,nan,nan
1,66,1,1,1.0,1.0,0.5988077812944539,0,nan,nan,nan,nan,nan,nan,nan,nan,nan,1,8,7,4,2,6,nan,nan,nan,nan,nan,nan,nan,nan,nan,nan,nan,nan,0.0,nan,nan,nan,nan,nan,nan,nan,nan,nan,nan,nan,nan,nan,nan,nan,nan,nan,nan,273.37119744735537,382.29017202183604,nan,382.8889798031305,nan,nan,nan,nan
1,67,0,0,0.0,1.0,0.6136456552194431,0,nan,nan,nan,nan,nan,nan,nan,nan,nan,7,5,4,6,1,8,nan,nan,nan,nan,nan,nan,nan,nan,nan,nan,nan,nan,0.0,nan,nan,nan,nan,nan,nan,nan,nan,nan,nan,nan,nan,nan,nan,nan,nan,nan,nan,273.37119744735537,383.31531073577935,nan,383.9289563909988,nan,nan,nan,nan
1,68,1,1,1.0,1.0,0.7644936192082241,0,nan,nan,nan,nan,nan,nan,nan,nan,nan,5,7,2,4,0,6,nan,nan,nan,nan,nan,nan,nan,nan,nan,nan,nan,nan,0.0,nan,nan,nan,nan,nan,nan,nan,nan,nan,nan,nan,nan,nan,nan,nan,nan,nan,nan,273.37119744735537,384.34044574346626,nan,385.1049393626745,nan,nan,nan,nan
1,69,1,1,1.0,1.0,0.7393728664028458,0,nan,nan,nan,nan,nan,nan,nan,nan,nan,1,6,8,0,4,7,nan,nan,nan,nan,nan,nan,nan,nan,nan,nan,nan,nan,0.0,nan,nan,nan,nan,nan,nan,nan,nan,nan,nan,nan,nan,nan,nan,nan,nan,nan,nan,273.37119744735537,385.3655422630254,nan,386.10491512942826,nan,nan,nan,nan
1,70,1,1,1.0,1.0,0.5701848968164995,0,nan,nan,nan,nan,nan,nan,nan,nan,nan,4,5,1,2,7,0,nan,nan,nan,nan,nan,nan,nan,nan,nan,nan,nan,nan,0.0,nan,nan,nan,nan,nan,nan,nan,nan,nan,nan,nan,nan,nan,nan,nan,nan,nan,nan,273.37119744735537,386.39071005687583,nan,386.96089495369233,nan,nan,nan,nan
1,71,1,1,1.0,1.0,0.37699147389503196,0,nan,nan,nan,nan,nan,nan,nan,nan,nan,3,7,4,5,2,8,nan,nan,nan,nan,nan,nan,nan,nan,nan,nan,nan,nan,0.0,nan,nan,nan,nan,nan,nan,nan,nan,nan,nan,nan,nan,nan,nan,nan,nan,nan,nan,273.37119744735537,387.41589296085294,nan,387.792884434748,nan,nan,nan,nan
1,72,1,1,1.0,1.0,0.3598688325146213,0,nan,nan,nan,nan,nan,nan,nan,nan,nan,0,6,2,3,5,7,nan,nan,nan,nan,nan,nan,nan,nan,nan,nan,nan,nan,0.0,nan,nan,nan,nan,nan,nan,nan,nan,nan,nan,nan,nan,nan,nan,nan,nan,nan,nan,273.37119744735537,388.4409795021056,nan,388.80084833462024,nan,nan,nan,nan
1,73,1,1,1.0,1.0,0.510723638930358,0,nan,nan,nan,nan,nan,nan,nan,nan,nan,3,5,7,2,6,4,nan,nan,nan,nan,nan,nan,nan,nan,nan,nan,nan,nan,0.0,nan,nan,nan,nan,nan,nan,nan,nan,nan,nan,nan,nan,nan,nan,nan,nan,nan,nan,273.37119744735537,389.4661179309478,nan,389.97684156987816,nan,nan,nan,nan
1,74,1,1,1.0,1.0,0.42959529341896996,0,nan,nan,nan,nan,nan,nan,nan,nan,nan,2,6,8,1,4,3,nan,nan,nan,nan,nan,nan,nan,nan,nan,nan,nan,nan,0.0,nan,nan,nan,nan,nan,nan,nan,nan,nan,nan,nan,nan,nan,nan,nan,nan,nan,nan,273.37119744735537,390.49121815676335,nan,390.9208134501823,nan,nan,nan,nan
1,75,1,1,1.0,1.0,0.3884215832222253,0,nan,nan,nan,nan,nan,nan,nan,nan,nan,7,3,0,2,5,6,nan,nan,nan,nan,nan,nan,nan,nan,nan,nan,nan,nan,0.0,nan,nan,nan,nan,nan,nan,nan,nan,nan,nan,nan,nan,nan,nan,nan,nan,nan,nan,273.37119744735537,391.5163776827976,nan,391.90479926601984,nan,nan,nan,nan
1,76,1,1,1.0,1.0,0.5152315928135067,0,nan,nan,nan,nan,nan,nan,nan,nan,nan,0,7,6,5,4,8,nan,nan,nan,nan,nan,nan,nan,nan,nan,nan,nan,nan,0.0,nan,nan,nan,nan,nan,nan,nan,nan,nan,nan,nan,nan,nan,nan,nan,nan,nan,nan,273.37119744735537,392.5415323622292,nan,393.0567639550427,nan,nan,nan,nan
1,77,1,1,1.0,1.0,0.4181150069925934,0,nan,nan,nan,nan,nan,nan,nan,nan,nan,8,5,4,0,3,6,nan,nan,nan,nan,nan,nan,nan,nan,nan,nan,nan,nan,0.0,nan,nan,nan,nan,nan,nan,nan,nan,nan,nan,nan,nan,nan,nan,nan,nan,nan,nan,273.37119744735537,393.56663287314586,nan,393.98474788013846,nan,nan,nan,nan
1,78,1,1,1.0,1.0,0.40098295744974166,0,nan,nan,nan,nan,nan,nan,nan,nan,nan,3,1,8,4,7,2,nan,nan,nan,nan,nan,nan,nan,nan,nan,nan,nan,nan,0.0,nan,nan,nan,nan,nan,nan,nan,nan,nan,nan,nan,nan,nan,nan,nan,nan,nan,nan,273.37119744735537,394.5917479240452,nan,394.99273088149494,nan,nan,nan,nan
1,79,1,1,1.0,1.0,0.599791080923751,0,nan,nan,nan,nan,nan,nan,nan,nan,nan,5,2,4,7,1,8,nan,nan,nan,nan,nan,nan,nan,nan,nan,nan,nan,nan,0.0,nan,nan,nan,nan,nan,nan,nan,nan,nan,nan,nan,nan,nan,nan,nan,nan,nan,nan,273.37119744735537,395.61693510448094,nan,396.2167261854047,nan,nan,nan,nan
1,80,0,0,0.0,1.0,0.6785730780684389,0,nan,nan,nan,nan,nan,nan,nan,nan,nan,8,6,5,1,0,2,nan,nan,nan,nan,nan,nan,nan,nan,nan,nan,nan,nan,0.0,nan,nan,nan,nan,nan,nan,nan,nan,nan,nan,nan,nan,nan,nan,nan,nan,nan,nan,273.37119744735537,396.6421160128084,nan,397.32068909087684,nan,nan,nan,nan
1,81,1,1,1.0,1.0,0.5814989716163836,0,0.0,0.0,0.0,0.4512383117369609,0.11089586879205313,0.3403424429449078,0.562134180529014,0.11089586879205313,0.6199543768695245,0,5,8,4,3,1,nan,nan,nan,nan,nan,nan,nan,nan,nan,nan,nan,nan,0.0,nan,nan,nan,nan,nan,nan,nan,nan,nan,nan,nan,nan,nan,nan,nan,nan,nan,nan,273.37119744735537,397.667171193345,nan,398.24867016496137,nan,nan,nan,nan
1,82,1,1,1.0,1.0,0.5000313607160933,0,0.0,0.0,0.0,0.4528464680317686,0.1111438761259095,0.3417025919058591,0.5639903441576781,0.1111438761259095,0.5867011368003053,1,6,5,0,4,7,nan,nan,nan,nan,nan,nan,nan,nan,nan,nan,nan,nan,0.0,nan,nan,nan,nan,nan,nan,nan,nan,nan,nan,nan,nan,nan,nan,nan,nan,nan,nan,273.37119744735537,398.7006144980551,nan,399.20064585877117,nan,nan,nan,nan
1,83,1,1,1.0,1.0,0.5068483153008856,0,0.0,0.0,0.0,0.4534218935523091,0.11058542222598834,0.3428364713263208,0.5640073157782974,0.11058542222598834,0.5294595492111208,0,5,8,4,7,1,nan,nan,nan,nan,nan,nan,nan,nan,nan,nan,nan,nan,0.0,nan,nan,nan,nan,nan,nan,nan,nan,nan,nan,nan,nan,nan,nan,nan,nan,nan,nan,273.37119744735537,399.72578172170324,nan,400.2326300370041,nan,nan,nan,nan
1,84,1,1,1.0,1.0,0.39368532929802313,0,0.0,0.0,0.0,0.4540655853806052,0.1100716695502762,0.343993915830329,0.5641372549308814,0.1100716695502762,0.46685500177166733,6,2,3,8,0,4,nan,nan,nan,nan,nan,nan,nan,nan,nan,nan,nan,nan,0.0,nan,nan,nan,nan,nan,nan,nan,nan,nan,nan,nan,nan,nan,nan,nan,nan,nan,nan,273.37119744735537,400.7509150188416,nan,401.14460034813965,nan,nan,nan,nan
1,85,1,1,1.0,1.0,0.600530052324757,0,0.0,0.0,0.0,0.4533467728081935,0.1096103208968335,0.34373645191136004,0.562957093705027,0.1096103208968335,0.5003545656412219,5,8,7,4,3,1,nan,nan,nan,nan,nan,nan,nan,nan,nan,nan,nan,nan,0.0,nan,nan,nan,nan,nan,nan,nan,nan,nan,nan,nan,nan,nan,nan,nan,nan,nan,nan,273.37119744735537,401.77604375442024,nan,402.376573806745,nan,nan,nan,nan
1,86,1,1,1.0,1.0,0.7594103395240381,0,0.0,1.0,0.0,0.45507834080250603,0.11011328634211298,0.34496505446039305,0.565191627144619,0.11011328634211298,0.5845419070489394,0,4,6,3,2,7,nan,nan,nan,nan,nan,nan,nan,nan,nan,nan,nan,nan,0.0,nan,nan,nan,nan,nan,nan,nan,nan,nan,nan,nan,nan,nan,nan,nan,nan,nan,nan,273.37119744735537,402.8011627966771,nan,403.5605731362011,nan,nan,nan,nan
1,87,1,1,1.0,1.0,0.5662237589713186,1,0.0,0.0,1.0,0.45861708497368664,0.11422949960238539,0.34438758537130126,0.5728465845760721,0.11422949960238539,0.6420547169400379,4,8,7,6,1,5,1.0,1.0,1.0,1.0,1.0,1.0,0.0,0.0,1.0,0.0,1.0,0.0,2.0,0.0,5.0,7.0,4.0,1.0,3.0,2.0,6.0,1.0,4.0,5.0,3.0,3.1388433842221275,7.936973033822142,1.9065335111808963,5.217346556484699,6.873191415856127,4.169116695353296,273.37119744735537,403.8263080678298,404.6347203112673,404.39253182680113,413.62754983635386,414.62463585980004,405.65152820548974,413.6192175911274
1,88,1,1,1.0,1.0,0.5239102309569716,0,0.0,0.0,0.0,0.4598539432954985,0.11414885723535675,0.3457050860601417,0.5740028005308553,0.11414885723535675,0.6165147764841095,3,2,1,5,8,4,nan,nan,nan,nan,nan,nan,nan,nan,nan,nan,nan,nan,0.0,nan,nan,nan,nan,nan,nan,nan,nan,nan,nan,nan,nan,nan,nan,nan,nan,nan,nan,273.37119744735537,414.84441315341974,nan,415.3683233843767,nan,nan,nan,nan
1,89,1,1,1.0,1.0,0.4987669554539025,0,0.0,0.0,0.0,0.460581855655288,0.11370132527678961,0.34688053037849836,0.5742831809320776,0.11370132527678961,0.5296336484607309,5,8,7,1,4,6,nan,nan,nan,nan,nan,nan,nan,nan,nan,nan,nan,nan,0.0,nan,nan,nan,nan,nan,nan,nan,nan,nan,nan,nan,nan,nan,nan,nan,nan,nan,nan,273.37119744735537,415.869512238889,nan,416.3682791943429,nan,nan,nan,nan
1,90,1,1,nan,nan,nan,0,0.0,0.0,0.0,0.46101090172044096,0.11313236551045748,0.3478785362099835,0.5741432672308985,0.11313236551045748,0.5113385932054371,4,0,5,7,2,8,nan,nan,nan,nan,nan,nan,nan,nan,nan,nan,nan,nan,0.0,nan,nan,nan,nan,nan,nan,nan,nan,nan,nan,nan,nan,nan,nan,nan,nan,nan,nan,273.37119744735537,416.89467946253717,nan,nan,nan,nan,nan,nan
1,91,1,1,1.0,1.0,0.664446521201171,0,0.0,0.0,0.0,0.46101090172044096,0.11313236551045748,0.3478785362099835,0.5741432672308985,0.11313236551045748,0.5816067383275367,7,2,8,3,5,0,nan,nan,nan,nan,nan,nan,nan,nan,nan,nan,nan,nan,0.0,nan,nan,nan,nan,nan,nan,nan,nan,nan,nan,nan,nan,nan,nan,nan,nan,nan,nan,273.37119744735537,417.9197882413282,nan,418.5842347625294,nan,nan,nan,nan
1,92,1,1,1.0,1.0,0.42326585471164435,0,0.0,0.0,0.0,0.46327129749244905,0.11450527234210775,0.3487660251503413,0.5777765698345568,0.11450527234210775,0.5438561879564077,8,0,4,5,6,7,nan,nan,nan,nan,nan,nan,nan,nan,nan,nan,nan,nan,0.0,nan,nan,nan,nan,nan,nan,nan,nan,nan,nan,nan,nan,nan,nan,nan,nan,nan,nan,273.37119744735537,418.9449548947741,nan,419.3682207494858,nan,nan,nan,nan
1,93,1,1,1.0,1.0,0.34214435145258904,0,0.0,0.0,0.0,0.46283167724211055,0.11395073225547875,0.3488809449866318,0.5767824094975893,0.11395073225547875,0.47661890912180144,0,6,8,3,2,5,nan,nan,nan,nan,nan,nan,nan,nan,nan,nan,nan,nan,0.0,nan,nan,nan,nan,nan,nan,nan,nan,nan,nan,nan,nan,nan,nan,nan,nan,nan,nan,273.37119744735537,419.97007621783996,nan,420.31222056929255,nan,nan,nan,nan
1,94,1,1,1.0,1.0,0.30098746198927984,0,0.0,0.0,0.0,0.4615198584835288,0.11401854942671631,0.3475013090568125,0.5755384079102451,0.11401854942671631,0.3554658893845044,3,1,7,2,8,4,nan,nan,nan,nan,nan,nan,nan,nan,nan,nan,nan,nan,0.0,nan,nan,nan,nan,nan,nan,nan,nan,nan,nan,nan,nan,nan,nan,nan,nan,nan,nan,273.37119744735537,420.99520609376486,nan,421.29619355575414,nan,nan,nan,nan
1,95,1,1,1.0,1.0,0.31582362530753016,0,1.0,0.0,0.0,0.4597937036825154,0.11460613576377433,0.34518756791874106,0.5743998394462897,0.11460613576377433,0.3196518129164663,5,3,4,8,1,6,nan,nan,nan,nan,nan,nan,nan,nan,nan,nan,nan,nan,0.0,nan,nan,nan,nan,nan,nan,nan,nan,nan,nan,nan,nan,nan,nan,nan,nan,nan,nan,273.37119744735537,422.02035193511983,nan,422.33617556042736,nan,nan,nan,nan
1,96,1,1,1.0,1.0,0.46666816814104095,1,0.0,0.0,1.0,0.45826210710405807,0.11494779344015053,0.3433143136639075,0.5732099005442086,0.11494779344015053,0.361159751812617,4,1,3,6,7,8,1.0,1.0,1.0,1.0,1.0,1.0,0.0,1.0,0.0,0.0,0.0,0.0,1.0,8.0,1.0,7.0,3.0,4.0,5.0,5.0,1.0,6.0,2.0,3.0,4.0,5.494207113864832,1.4389798316988163,6.421308378630783,2.5271363887004554,3.567252103879582,4.405997528810985,273.37119744735537,423.04548209620407,423.8538912035292,423.5121502643451,431.3298518236843,432.33029115817044,424.87069168523885,431.32152157410746
1,97,1,1,1.0,1.0,0.7809306022245437,0,0.0,0.0,0.0,0.45835059195707895,0.11434442284645643,0.34400616911062254,0.5726950148035354,0.11434442284645643,0.5211407985577049,7,4,1,5,0,2,nan,nan,nan,nan,nan,nan,nan,nan,nan,nan,nan,nan,0.0,nan,nan,nan,nan,nan,nan,nan,nan,nan,nan,nan,nan,nan,nan,nan,nan,nan,nan,273.37119744735537,432.5550151700154,nan,433.33594577223994,nan,nan,nan,nan
1,98,1,1,1.0,1.0,0.42773617582861334,0,0.0,0.0,0.0,0.46171080039736506,0.1183684834258516,0.34334231697151346,0.5800792838232167,0.1183684834258516,0.5584449820647327,3,0,2,6,4,8,nan,nan,nan,nan,nan,nan,nan,nan,nan,nan,nan,nan,0.0,nan,nan,nan,nan,nan,nan,nan,nan,nan,nan,nan,nan,nan,nan,nan,nan,nan,nan,273.37119744735537,433.58018353400985,nan,434.00791970983846,nan,nan,nan,nan
1,99,1,1,1.0,1.0,0.32261264038970694,0,0.0,0.0,0.0,0.46136054653583153,0.11780675119149533,0.34355379534433617,0.5791672977273269,0.11780675119149533,0.510426472814288,7,2,1,5,6,4,nan,nan,nan,nan,nan,nan,nan,nan,nan,nan,nan,nan,0.0,nan,nan,nan,nan,nan,nan,nan,nan,nan,nan,nan,nan,nan,nan,nan,nan,nan,nan,273.37119744735537,434.6052886065445,nan,434.9279012469342,nan,nan,nan,nan
1,100,1,1,1.0,1.0,0.38542977516772225,0,0.0,0.0,0.0,0.4599447515751568,0.11803070828477752,0.3419140432903793,0.5779754598599343,0.11803070828477752,0.3785928637953475,6,1,2,3,4,0,nan,nan,nan,nan,nan,nan,nan,nan,nan,nan,nan,nan,0.0,nan,nan,nan,nan,nan,nan,nan,nan,nan,nan,nan,nan,nan,nan,nan,nan,nan,nan,273.37119744735537,435.6304472772754,nan,436.0158770524431,nan,nan,nan,nan
1,101,1,1,1.0,1.0,0.38427142600994557,0,0.0,0.0,0.0,0.45919207504578874,0.11766922950507076,0.341522845540718,0.5768613045508595,0.11766922950507076,0.36410461385579157,2,3,5,0,1,8,nan,nan,nan,nan,nan,nan,nan,nan,nan,nan,nan,nan,0.0,nan,nan,nan,nan,nan,nan,nan,nan,nan,nan,nan,nan,nan,nan,nan,nan,nan,nan,273.37119744735537,436.6555991056957,nan,437.0398705317057,nan,nan,nan,nan
1,102,1,1,1.0,1.0,0.4471353167318739,0,0.0,0.0,0.0,0.4584428685554303,0.11731648146253011,0.3411263870929002,0.5757593500179604,0.11731648146253011,0.4056121726365139,8,2,6,7,3,1,nan,nan,nan,nan,nan,nan,nan,nan,nan,nan,nan,nan,0.0,nan,nan,nan,nan,nan,nan,nan,nan,nan,nan,nan,nan,nan,nan,nan,nan,nan,nan,273.37119744735537,437.6807124459883,nan,438.1278477627202,nan,nan,nan,nan
1,103,1,1,1.0,1.0,0.4459715507691726,0,0.0,0.0,0.0,0.45833091259678127,0.11673963061866661,0.34159128197811467,0.5750705432154479,0.11673963061866661,0.42579276450366405,6,5,0,3,4,8,nan,nan,nan,nan,nan,nan,nan,nan,nan,nan,nan,nan,0.0,nan,nan,nan,nan,nan,nan,nan,nan,nan,nan,nan,nan,nan,nan,nan,nan,nan,nan,273.37119744735537,438.70584773877636,nan,439.15181928954553,nan,nan,nan,nan
1,104,1,1,1.0,1.0,0.4208479469525628,0,0.0,0.0,0.0,0.4582097423827851,0.11617235054990255,0.34203739183288256,0.5743820929326877,0.11617235054990255,0.4379849381512031,5,1,4,6,0,2,nan,nan,nan,nan,nan,nan,nan,nan,nan,nan,nan,nan,0.0,nan,nan,nan,nan,nan,nan,nan,nan,nan,nan,nan,nan,nan,nan,nan,nan,nan,nan,273.37119744735537,439.7309582281159,nan,440.1518061750685,nan,nan,nan,nan
1,105,1,1,1.0,1.0,0.4356578813167289,0,0.0,0.0,0.0,0.45784700650482174,0.1156650623415809,0.3421819441632408,0.5735120688464026,0.1156650623415809,0.4341591263461548,4,5,7,1,3,8,nan,nan,nan,nan,nan,nan,nan,nan,nan,nan,nan,nan,0.0,nan,nan,nan,nan,nan,nan,nan,nan,nan,nan,nan,nan,nan,nan,nan,nan,nan,nan,273.37119744735537,440.75611233734526,nan,441.191770218662,nan,nan,nan,nan
1,106,1,1,1.0,1.0,0.49849782389355823,0,0.0,0.0,0.0,0.4576336495318593,0.11512800182587972,0.3425056477059796,0.572761651357739,0.11512800182587972,0.4516678840542833,0,8,2,7,1,3,nan,nan,nan,nan,nan,nan,nan,nan,nan,nan,nan,nan,0.0,nan,nan,nan,nan,nan,nan,nan,nan,nan,nan,nan,nan,nan,nan,nan,nan,nan,nan,273.37119744735537,441.781260459451,nan,442.27975828334456,nan,nan,nan,nan
1,107,1,1,1.0,1.0,0.6733404075494036,0,0.0,0.0,0.0,0.4580228321448279,0.11464718071335885,0.3433756514314691,0.5726700128581867,0.11464718071335885,0.5358320375865636,4,2,8,1,7,6,nan,nan,nan,nan,nan,nan,nan,nan,nan,nan,nan,nan,0.0,nan,nan,nan,nan,nan,nan,nan,nan,nan,nan,nan,nan,nan,nan,nan,nan,nan,nan,273.37119744735537,442.80639233108377,nan,443.4797327386332,nan,nan,nan,nan
1,108,1,1,1.0,1.0,0.7761697673122399,0,0.0,1.0,0.0,0.46005413002600315,0.11598803487913847,0.3440660951468647,0.5760421649051416,0.11598803487913847,0.6493359995850673,1,5,6,2,3,4,nan,nan,nan,nan,nan,nan,nan,nan,nan,nan,nan,nan,0.0,nan,nan,nan,nan,nan,nan,nan,nan,nan,nan,nan,nan,nan,nan,nan,nan,nan,nan,273.37119744735537,443.8315398830455,nan,444.6077096503577,nan,nan,nan,nan
1,109,1,1,1.0,1.0,0.7908998744678684,1,0.0,0.0,1.0,0.4630084817763418,0.11938459598946402,0.34362388578687775,0.5823930777658058,0.11938459598946402,0.746803349776504,6,0,8,3,1,7,1.0,1.0,1.0,1.0,1.0,1.0,0.0,1.0,0.0,1.0,0.0,0.0,2.0,2.0,0.0,1.0,3.0,7.0,5.0,6.0,1.0,2.0,3.0,4.0,5.0,10.105773841612972,1.691093968518544,5.850363983307034,6.922570217924658,7.954667864833027,8.954545558197424,273.37119744735537,444.85677410452627,445.6650549182086,445.64767397899413,456.82480931282043,457.83578725828556,446.6818733610562,456.8165089985123
1,110,1,1,1.0,1.0,0.31703984912019223,0,0.0,0.0,0.0,0.4660445131901522,0.12291046971596796,0.34313404347418425,0.5889549829061201,0.12291046971596796,0.6280364969667668,7,5,4,6,3,1,nan,nan,nan,nan,nan,nan,nan,nan,nan,nan,nan,nan,0.0,nan,nan,nan,nan,nan,nan,nan,nan,nan,nan,nan,nan,nan,nan,nan,nan,nan,nan,273.37119744735537,458.0583955652546,nan,458.3754354143748,nan,nan,nan,nan
1,111,1,1,1.0,1.0,0.5718974745250307,0,0.0,0.0,0.0,0.46467749792345536,0.12316740764565284,0.34151009027780255,0.5878449055691082,0.12316740764565284,0.5599457327043638,8,2,7,0,5,6,nan,nan,nan,nan,nan,nan,nan,nan,nan,nan,nan,nan,0.0,nan,nan,nan,nan,nan,nan,nan,nan,nan,nan,nan,nan,nan,nan,nan,nan,nan,nan,273.37119744735537,459.08349949738476,nan,459.6553969719098,nan,nan,nan,nan
1,112,1,1,1.0,1.0,0.5147141417837702,0,0.0,0.0,0.0,0.46565222498346964,0.12302788067382682,0.34262434430964284,0.5886801056572964,0.12302788067382682,0.46788382180966437,0,7,5,2,6,3,nan,nan,nan,nan,nan,nan,nan,nan,nan,nan,nan,nan,0.0,nan,nan,nan,nan,nan,nan,nan,nan,nan,nan,nan,nan,nan,nan,nan,nan,nan,nan,273.37119744735537,460.1086521810503,nan,460.62336632283404,nan,nan,nan,nan
1,113,1,1,1.0,1.0,0.46558308898238465,0,0.0,0.0,0.0,0.4660942242339228,0.12256014970742224,0.3435340745265006,0.588654373941345,0.12256014970742224,0.5173982350970618,4,5,3,0,1,2,nan,nan,nan,nan,nan,nan,nan,nan,nan,nan,nan,nan,0.0,nan,nan,nan,nan,nan,nan,nan,nan,nan,nan,nan,nan,nan,nan,nan,nan,nan,nan,273.37119744735537,461.13377036800375,nan,461.59935345698614,nan,nan,nan,nan
1,114,1,1,1.0,1.0,0.43242687691235915,0,0.0,0.0,0.0,0.4660896605263198,0.12201178887042724,0.34407787165589254,0.588101449396747,0.12201178887042724,0.470908035892838,7,2,0,3,5,6,nan,nan,nan,nan,nan,nan,nan,nan,nan,nan,nan,nan,0.0,nan,nan,nan,nan,nan,nan,nan,nan,nan,nan,nan,nan,nan,nan,nan,nan,nan,nan,273.37119744735537,462.1589133584057,nan,462.59134023531806,nan,nan,nan,nan
1,115,1,1,1.0,1.0,0.4552956484258175,0,0.0,0.0,0.0,0.46579175978637327,0.12151161992029778,0.3442801398660755,0.587303379706671,0.12151161992029778,0.4511018714401871,8,3,1,6,2,7,nan,nan,nan,nan,nan,nan,nan,nan,nan,nan,nan,nan,0.0,nan,nan,nan,nan,nan,nan,nan,nan,nan,nan,nan,nan,nan,nan,nan,nan,nan,nan,273.37119744735537,463.18401871604146,nan,463.6393143644673,nan,nan,nan,nan
1,116,1,1,1.0,1.0,0.5021100029698573,0,0.0,0.0,0.0,0.46569968863408767,0.12098145930931234,0.34471822932477536,0.5866811479434,0.12098145930931234,0.4632775094360113,2,8,5,4,0,1,nan,nan,nan,nan,nan,nan,nan,nan,nan,nan,nan,nan,0.0,nan,nan,nan,nan,nan,nan,nan,nan,nan,nan,nan,nan,nan,nan,nan,nan,nan,nan,273.37119744735537,464.20918479928514,nan,464.711294802255,nan,nan,nan,nan
1,117,1,1,1.0,1.0,0.47694021341158077,0,0.0,0.0,0.0,0.46601630006309436,0.12050173087993775,0.3455145691831566,0.5865180309430321,0.12050173087993775,0.47811528826908517,1,5,0,6,2,4,nan,nan,nan,nan,nan,nan,nan,nan,nan,nan,nan,nan,0.0,nan,nan,nan,nan,nan,nan,nan,nan,nan,nan,nan,nan,nan,nan,nan,nan,nan,nan,273.37119744735537,465.23433349165134,nan,465.7112737050629,nan,nan,nan,nan
1,118,1,1,1.0,1.0,0.37180185300530866,0,0.0,0.0,0.0,0.4661104717298917,0.11998545259673132,0.34612501913316035,0.586095924326623,0.11998545259673132,0.4502840231289156,8,4,7,5,3,0,nan,nan,nan,nan,nan,nan,nan,nan,nan,nan,nan,nan,0.0,nan,nan,nan,nan,nan,nan,nan,nan,nan,nan,nan,nan,nan,nan,nan,nan,nan,nan,273.37119744735537,466.2594528190093,nan,466.6312546720146,nan,nan,nan,nan
1,119,1,1,1.0,1.0,0.4509695863816887,0,0.0,0.0,0.0,0.4653044151595961,0.11978660236164941,0.3455178127979467,0.5850910175212455,0.11978660236164941,0.43323721759952605,0,6,3,2,4,1,nan,nan,nan,nan,nan,nan,nan,nan,nan,nan,nan,nan,0.0,nan,nan,nan,nan,nan,nan,nan,nan,nan,nan,nan,nan,nan,nan,nan,nan,nan,nan,273.37119744735537,467.2762615685351,nan,467.7272311549168,nan,nan,nan,nan
1,120,1,1,1.0,1.0,0.40182085760170594,0,0.0,0.0,0.0,0.4651829335597833,0.11928518981990904,0.34589774373987425,0.5844681233796923,0.11928518981990904,0.4081974323295678,6,7,8,4,5,2,nan,nan,nan,nan,nan,nan,nan,nan,nan,nan,nan,nan,0.0,nan,nan,nan,nan,nan,nan,nan,nan,nan,nan,nan,nan,nan,nan,nan,nan,nan,nan,273.37119744735537,468.3013789001852,nan,468.70319975778693,nan,nan,nan,nan
1,121,0,0,0.0,1.0,0.6086920946836472,0,0.0,0.0,0.0,0.46465047913996754,0.11892367029713961,0.3457268088428279,0.5835741494371072,0.11892367029713961,0.4871608462223473,0,2,7,5,6,1,nan,nan,nan,nan,nan,nan,nan,nan,nan,nan,nan,nan,0.0,nan,nan,nan,nan,nan,nan,nan,nan,nan,nan,nan,nan,nan,nan,nan,nan,nan,nan,273.37119744735537,469.32649765734095,nan,469.9351897520246,nan,nan,nan,nan
1,122,1,1,1.0,1.0,0.47984392649959773,0,0.0,0.0,0.0,0.46585082593616484,0.11914882047929545,0.34670200545686936,0.5849996464154603,0.11914882047929545,0.4967856262616503,6,5,0,8,1,2,nan,nan,nan,nan,nan,nan,nan,nan,nan,nan,nan,nan,0.0,nan,nan,nan,nan,nan,nan,nan,nan,nan,nan,nan,nan,nan,nan,nan,nan,nan,nan,273.37119744735537,470.34331895114155,nan,470.82316287764115,nan,nan,nan,nan
1,123,1,1,1.0,1.0,0.4947037528036162,0,0.0,0.0,0.0,0.4659664713953668,0.11866221101982474,0.3473042603755421,0.5846286824151915,0.11866221101982474,0.5277465913289537,1,7,4,2,5,3,nan,nan,nan,nan,nan,nan,nan,nan,nan,nan,nan,nan,0.0,nan,nan,nan,nan,nan,nan,nan,nan,nan,nan,nan,nan,nan,nan,nan,nan,nan,nan,273.37119744735537,471.36843457224313,nan,471.86313832504675,nan,nan,nan,nan
1,124,1,1,1.0,1.0,0.5175425892230123,0,0.0,0.0,0.0,0.46620202288231966,0.11820329186877801,0.3479987310135416,0.5844053147510977,0.11820329186877801,0.4973634228420754,2,8,5,7,6,0,nan,nan,nan,nan,nan,nan,nan,nan,nan,nan,nan,nan,0.0,nan,nan,nan,nan,nan,nan,nan,nan,nan,nan,nan,nan,nan,nan,nan,nan,nan,nan,273.37119744735537,472.3935792731936,nan,472.9111218624166,nan,nan,nan,nan
1,125,0,0,0.0,1.0,0.7887151761096902,0,0.0,0.0,0.0,0.46661942586069927,0.11781205390238716,0.34880737195831213,0.5844314797630864,0.11781205390238716,0.6003205060454396,8,6,4,1,3,5,nan,nan,nan,nan,nan,nan,nan,nan,nan,nan,nan,nan,0.0,nan,nan,nan,nan,nan,nan,nan,nan,nan,nan,nan,nan,nan,nan,nan,nan,nan,nan,273.37119744735537,473.4103714870871,nan,474.1990866631968,nan,nan,nan,nan
1,126,1,1,1.0,1.0,0.5715952717582695,0,0.0,0.0,0.0,0.469216972233675,0.1208207703243242,0.3483962019093508,0.5900377425579992,0.1208207703243242,0.6259510123636574,5,3,0,6,4,8,nan,nan,nan,nan,nan,nan,nan,nan,nan,nan,nan,nan,0.0,nan,nan,nan,nan,nan,nan,nan,nan,nan,nan,nan,nan,nan,nan,nan,nan,nan,nan,273.37119744735537,474.43549708655337,nan,475.00709235831164,nan,nan,nan,nan
1,127,0,0,0.0,1.0,0.5544116196688265,0,0.0,0.0,0.0,0.4700359986298718,0.1206816348865879,0.3493543637432839,0.5907176335164597,0.1206816348865879,0.6382406891789287,6,5,1,7,3,0,nan,nan,nan,nan,nan,nan,nan,nan,nan,nan,nan,nan,0.0,nan,nan,nan,nan,nan,nan,nan,nan,nan,nan,nan,nan,nan,nan,nan,nan,nan,nan,273.37119744735537,475.46064805967035,nan,476.0150596793392,nan,nan,nan,nan
1,128,1,1,1.0,1.0,0.5132886567153037,0,0.0,0.0,0.0,0.4707056464158952,0.12043472408157854,0.35027092233431667,0.5911403704974737,0.12043472408157854,0.5464318493807999,8,3,4,5,2,1,nan,nan,nan,nan,nan,nan,nan,nan,nan,nan,nan,nan,0.0,nan,nan,nan,nan,nan,nan,nan,nan,nan,nan,nan,nan,nan,nan,nan,nan,nan,nan,273.37119744735537,476.48574486438883,nan,476.99903352110414,nan,nan,nan,nan
1,129,1,1,1.0,1.0,0.41611932788509876,0,0.0,0.0,0.0,0.4710409457095913,0.12001866334699889,0.3510222823625924,0.5910596090565902,0.12001866334699889,0.49460653475640964,7,1,5,6,0,8,nan,nan,nan,nan,nan,nan,nan,nan,nan,nan,nan,nan,0.0,nan,nan,nan,nan,nan,nan,nan,nan,nan,nan,nan,nan,nan,nan,nan,nan,nan,nan,273.37119744735537,477.5109098072862,nan,477.9270291351713,nan,nan,nan,nan
1,130,1,1,1.0,1.0,0.38297480484470725,0,0.0,0.0,0.0,0.4706118705703375,0.11964667128860855,0.3509651992817289,0.590258541858946,0.11964667128860855,0.43746092981503654,0,2,8,1,5,6,nan,nan,nan,nan,nan,nan,nan,nan,nan,nan,nan,nan,0.0,nan,nan,nan,nan,nan,nan,nan,nan,nan,nan,nan,nan,nan,nan,nan,nan,nan,nan,273.37119744735537,478.53603740240214,nan,478.91901220724685,nan,nan,nan,nan
1,131,1,1,1.0,1.0,0.7257919852272607,0,0.0,0.0,0.0,0.4699325134716892,0.11942960172455815,0.35050291174713105,0.5893621151962474,0.11942960172455815,0.5082953726523556,8,6,4,7,0,3,nan,nan,nan,nan,nan,nan,nan,nan,nan,nan,nan,nan,0.0,nan,nan,nan,nan,nan,nan,nan,nan,nan,nan,nan,nan,nan,nan,nan,nan,nan,nan,273.37119744735537,479.56118381401757,nan,480.28697579924483,nan,nan,nan,nan
1,132,1,1,1.0,1.0,0.40468750800937414,0,0.0,0.0,0.0,0.47190066325442437,0.12105125867888372,0.35084940457554065,0.5929519219333081,0.12105125867888372,0.504484766027114,7,1,5,3,2,6,nan,nan,nan,nan,nan,nan,nan,nan,nan,nan,nan,nan,0.0,nan,nan,nan,nan,nan,nan,nan,nan,nan,nan,nan,nan,nan,nan,nan,nan,nan,nan,273.37119744735537,480.5862800484756,nan,480.990967556485,nan,nan,nan,nan
1,133,1,1,1.0,1.0,0.39549797610379755,0,0.0,0.0,0.0,0.4713875857334698,0.12073015972749891,0.3506574260059709,0.5921177454609687,0.12073015972749891,0.5086591564468108,3,4,2,5,8,0,nan,nan,nan,nan,nan,nan,nan,nan,nan,nan,nan,nan,0.0,nan,nan,nan,nan,nan,nan,nan,nan,nan,nan,nan,nan,nan,nan,nan,nan,nan,nan,273.37119744735537,481.6114415702177,nan,482.0069395463215,nan,nan,nan,nan
1,134,1,1,1.0,1.0,0.5462626917869784,0,0.0,0.0,0.0,0.4708126644483965,0.12045185334446068,0.3503608111039358,0.5912645177928572,0.12045185334446068,0.44881605863338336,0,1,8,6,3,4,nan,nan,nan,nan,nan,nan,nan,nan,nan,nan,nan,nan,0.0,nan,nan,nan,nan,nan,nan,nan,nan,nan,nan,nan,nan,nan,nan,nan,nan,nan,nan,273.37119744735537,482.63664500118466,nan,483.18290769297164,nan,nan,nan,nan
1,135,1,1,1.0,1.0,0.6331770811229944,0,0.0,0.0,0.0,0.47137995788703246,0.12017504679197126,0.3512049110950612,0.5915550046790037,0.12017504679197126,0.5249792496712568,3,8,5,0,6,1,nan,nan,nan,nan,nan,nan,nan,nan,nan,nan,nan,nan,0.0,nan,nan,nan,nan,nan,nan,nan,nan,nan,nan,nan,nan,nan,nan,nan,nan,nan,nan,273.37119744735537,483.6617207087111,nan,484.29489778983407,nan,nan,nan,nan
1,136,1,1,nan,nan,nan,0,0.0,0.0,0.0,0.47258739910521125,0.12053285046350838,0.3520545486417029,0.5931202495687197,0.12053285046350838,0.5897198864549864,2,5,6,3,0,4,nan,nan,nan,nan,nan,nan,nan,nan,nan,nan,nan,nan,0.0,nan,nan,nan,nan,nan,nan,nan,nan,nan,nan,nan,nan,nan,nan,nan,nan,nan,nan,273.37119744735537,484.68681751337135,nan,nan,nan,nan,nan,nan
1,137,1,1,1.0,1.0,0.023192641732748598,0,0.0,0.0,0.0,0.47258739910521125,0.12053285046350838,0.3520545486417029,0.5931202495687197,0.12053285046350838,0.3281848614278715,6,4,2,5,3,7,nan,nan,nan,nan,nan,nan,nan,nan,nan,nan,nan,nan,0.0,nan,nan,nan,nan,nan,nan,nan,nan,nan,nan,nan,nan,nan,nan,nan,nan,nan,nan,273.37119744735537,485.70366275531705,nan,485.7268553970498,nan,nan,nan,nan
1,138,1,1,1.0,1.0,0.5503777820267715,0,0.0,0.0,0.0,0.46925854905060044,0.12611676534557814,0.3431417837050223,0.5953753143961786,0.12611676534557814,0.28678521187976,8,6,5,4,1,2,nan,nan,nan,nan,nan,nan,nan,nan,nan,nan,nan,nan,0.0,nan,nan,nan,nan,nan,nan,nan,nan,nan,nan,nan,nan,nan,nan,nan,nan,nan,nan,273.37119744735537,486.7204552543117,nan,487.27083303633844,nan,nan,nan,nan
1,139,0,0,0.0,1.0,0.5732397112878971,0,0.0,0.0,0.0,0.46985501399895463,0.12584321895207204,0.3440117950468826,0.5956982329510266,0.12584321895207204,0.3822700450158057,4,7,2,0,6,3,nan,nan,nan,nan,nan,nan,nan,nan,nan,nan,nan,nan,0.0,nan,nan,nan,nan,nan,nan,nan,nan,nan,nan,nan,nan,nan,nan,nan,nan,nan,nan,273.37119744735537,487.7455700201099,nan,488.3188097313978,nan,nan,nan,nan
1,140,1,1,1.0,1.0,0.44406396662816405,0,0.0,0.0,0.0,0.47060964682588124,0.12569156203330406,0.3449180847925772,0.5963012088591852,0.12569156203330406,0.5225604866476109,1,2,6,3,8,5,nan,nan,nan,nan,nan,nan,nan,nan,nan,nan,nan,nan,0.0,nan,nan,nan,nan,nan,nan,nan,nan,nan,nan,nan,nan,nan,nan,nan,nan,nan,nan,273.37119744735537,488.7707141509163,nan,489.2147781175445,nan,nan,nan,nan
1,141,1,1,1.0,1.0,0.5632379379821941,0,0.0,0.0,0.0,0.4704172868244485,0.1252555673732429,0.3451617194512056,0.5956728541976914,0.1252555673732429,0.5268472052994184,0,4,3,8,7,6,nan,nan,nan,nan,nan,nan,nan,nan,nan,nan,nan,nan,0.0,nan,nan,nan,nan,nan,nan,nan,nan,nan,nan,nan,nan,nan,nan,nan,nan,nan,nan,273.37119744735537,489.7875186239253,nan,490.3507565619075,nan,nan,nan,nan
1,142,1,1,1.0,1.0,0.7541006928076968,0,0.0,0.0,0.0,0.47108506129320926,0.1250504870077982,0.34603457428541107,0.5961355483010075,0.1250504870077982,0.5871341991393516,8,6,5,7,3,2,nan,nan,nan,nan,nan,nan,nan,nan,nan,nan,nan,nan,0.0,nan,nan,nan,nan,nan,nan,nan,nan,nan,nan,nan,nan,nan,nan,nan,nan,nan,nan,273.37119744735537,490.81263681093697,nan,491.56673750374466,nan,nan,nan,nan
1,143,1,1,1.0,1.0,0.6809459404903464,0,0.0,1.0,0.0,0.47310660151831274,0.12686200314913243,0.3462445983691803,0.5999686046674452,0.12686200314913243,0.6660948570934124,4,2,7,0,5,1,nan,nan,nan,nan,nan,nan,nan,nan,nan,nan,nan,nan,0.0,nan,nan,nan,nan,nan,nan,nan,nan,nan,nan,nan,nan,nan,nan,nan,nan,nan,nan,273.37119744735537,491.83777666522656,nan,492.5187226057169,nan,nan,nan,nan
1,144,1,1,nan,nan,nan,0,0.0,0.0,0.0,0.47458063938336265,0.12760884175858161,0.34697179762478103,0.6021894811419443,0.12760884175858161,0.7175233166490216,2,8,5,6,7,3,nan,nan,nan,nan,nan,nan,nan,nan,nan,nan,nan,nan,0.0,nan,nan,nan,nan,nan,nan,nan,nan,nan,nan,nan,nan,nan,nan,nan,nan,nan,nan,273.37119744735537,492.8545822786982,nan,nan,nan,nan,nan,nan
1,145,0,0,0.0,1.0,0.5189116250840016,0,0.0,0.0,0.0,0.47458063938336265,0.12760884175858161,0.34697179762478103,0.6021894811419443,0.12760884175858161,0.599928782787174,5,0,6,7,1,4,nan,nan,nan,nan,nan,nan,nan,nan,nan,nan,nan,nan,0.0,nan,nan,nan,nan,nan,nan,nan,nan,nan,nan,nan,nan,nan,nan,nan,nan,nan,nan,273.37119744735537,493.8797295455588,nan,494.3986411706428,nan,nan,nan,nan
1,146,1,1,1.0,1.0,0.46981849014991894,0,0.0,0.0,0.0,0.47489282942350797,0.1272127452421783,0.3476800841813297,0.6021055746656863,0.1272127452421783,0.49436505761696026,0,5,1,4,8,6,nan,nan,nan,nan,nan,nan,nan,nan,nan,nan,nan,nan,0.0,nan,nan,nan,nan,nan,nan,nan,nan,nan,nan,nan,nan,nan,nan,nan,nan,nan,nan,273.37119744735537,494.9048465921078,nan,495.3746650822577,nan,nan,nan,nan
1,147,0,0,0.0,1.0,0.6129748219391331,0,0.0,0.0,0.0,0.4748573445334829,0.12676787032126913,0.34808947421221376,0.6016252148547521,0.12676787032126913,0.5339016457243512,2,8,7,3,5,1,nan,nan,nan,nan,nan,nan,nan,nan,nan,nan,nan,nan,0.0,nan,nan,nan,nan,nan,nan,nan,nan,nan,nan,nan,nan,nan,nan,nan,nan,nan,nan,273.37119744735537,495.9216593329911,nan,496.53463415493025,nan,nan,nan,nan
1,148,1,1,1.0,1.0,0.5078421634389088,0,0.0,0.0,0.0,0.4758164936821332,0.1268465623179793,0.3489699313641539,0.6026630560001125,0.1268465623179793,0.530211825175987,7,4,3,6,1,8,nan,nan,nan,nan,nan,nan,nan,nan,nan,nan,nan,nan,0.0,nan,nan,nan,nan,nan,nan,nan,nan,nan,nan,nan,nan,nan,nan,nan,nan,nan,nan,273.37119744735537,496.94677837524796,nan,497.45462053868687,nan,nan,nan,nan
1,149,1,1,1.0,1.0,0.5386802517459728,0,0.0,0.0,0.0,0.47603736037011096,0.1264361859942433,0.3496011743758677,0.6024735463643542,0.1264361859942433,0.5531657457080049,5,7,6,1,0,3,nan,nan,nan,nan,nan,nan,nan,nan,nan,nan,nan,nan,0.0,nan,nan,nan,nan,nan,nan,nan,nan,nan,nan,nan,nan,nan,nan,nan,nan,nan,nan,273.37119744735537,497.9719099617796,nan,498.5105902135256,nan,nan,nan,nan
1,150,1,1,1.0,1.0,0.4975364767597057,0,0.0,0.0,0.0,0.47646642126994565,0.1261083215046288,0.35035809976531684,0.6025747427745745,0.1261083215046288,0.5146862973148624,4,1,5,8,6,7,nan,nan,nan,nan,nan,nan,nan,nan,nan,nan,nan,nan,0.0,nan,nan,nan,nan,nan,nan,nan,nan,nan,nan,nan,nan,nan,nan,nan,nan,nan,nan,273.37119744735537,498.99704439926427,nan,499.494580876024,nan,nan,nan,nan
1,151,1,1,1.0,1.0,0.5443716433364898,0,0.0,0.0,0.0,0.47660975498076036,0.12569058231854363,0.3509191726622167,0.602300337299304,0.12569058231854363,0.526862790614056,1,8,2,5,3,0,nan,nan,nan,nan,nan,nan,nan,nan,nan,nan,nan,nan,0.0,nan,nan,nan,nan,nan,nan,nan,nan,nan,nan,nan,nan,nan,nan,nan,nan,nan,nan,273.37119744735537,500.0221822579624,nan,500.5665539012989,nan,nan,nan,nan
1,152,1,1,1.0,1.0,0.43955401703715324,0,0.0,0.0,0.0,0.4770676055777585,0.125388171717303,0.3516794338604555,0.6024557772950615,0.125388171717303,0.4938207123777829,2,6,5,7,1,4,nan,nan,nan,nan,nan,nan,nan,nan,nan,nan,nan,nan,0.0,nan,nan,nan,nan,nan,nan,nan,nan,nan,nan,nan,nan,nan,nan,nan,nan,nan,nan,273.37119744735537,501.03899015218485,nan,501.478544169222,nan,nan,nan,nan
1,153,1,1,1.0,1.0,0.4466988332569599,0,0.0,0.0,0.0,0.4768158365271504,0.12500422753502413,0.35181160899212627,0.6018200640621746,0.12500422753502413,0.47687483121020097,1,2,3,0,7,6,nan,nan,nan,nan,nan,nan,nan,nan,nan,nan,nan,nan,0.0,nan,nan,nan,nan,nan,nan,nan,nan,nan,nan,nan,nan,nan,nan,nan,nan,nan,nan,273.37119744735537,502.055810875725,nan,502.50250970898196,nan,nan,nan,nan
1,154,0,0,1.0,0.0,0.5335727388155647,0,0.0,0.0,0.0,0.47661505650534913,0.12461095364736836,0.3520041028579808,0.6012260101527175,0.12461095364736836,0.4732751963698926,5,7,8,3,4,0,nan,nan,nan,nan,nan,nan,nan,nan,nan,nan,nan,nan,0.0,nan,nan,nan,nan,nan,nan,nan,nan,nan,nan,nan,nan,nan,nan,nan,nan,nan,nan,273.37119744735537,503.08091366745066,nan,503.6144864062662,nan,nan,nan,nan
1,155,1,1,1.0,1.0,0.3564262862200849,0,0.0,0.0,0.0,0.4769922596994565,0.1242835403393163,0.35270871936014025,0.6012758000387728,0.1242835403393163,0.44556595276420313,2,6,0,1,5,4,nan,nan,nan,nan,nan,nan,nan,nan,nan,nan,nan,nan,0.0,nan,nan,nan,nan,nan,nan,nan,nan,nan,nan,nan,nan,nan,nan,nan,nan,nan,nan,273.37119744735537,504.1060492453398,nan,504.4624755315599,nan,nan,nan,nan
1,156,1,1,1.0,1.0,0.34721822291612625,0,0.0,0.0,0.0,0.4761990625055133,0.12425691444436547,0.3519421480611478,0.6004559769498787,0.12425691444436547,0.4124057493172586,1,5,3,6,7,2,nan,nan,nan,nan,nan,nan,nan,nan,nan,nan,nan,nan,0.0,nan,nan,nan,nan,nan,nan,nan,nan,nan,nan,nan,nan,nan,nan,nan,nan,nan,nan,273.37119744735537,505.13124269794207,nan,505.4784609208582,nan,nan,nan,nan
1,157,1,1,1.0,1.0,0.31408995034871623,0,1.0,0.0,0.0,0.47535605048205326,0.12428551370379384,0.3510705367782594,0.5996415641858471,0.12428551370379384,0.3392448198283091,5,0,6,7,8,1,nan,nan,nan,nan,nan,nan,nan,nan,nan,nan,nan,nan,0.0,nan,nan,nan,nan,nan,nan,nan,nan,nan,nan,nan,nan,nan,nan,nan,nan,nan,nan,273.37119744735537,506.1563500512275,nan,506.4704400015762,nan,nan,nan,nan
1,158,1,1,1.0,1.0,0.5049698110669851,1,0.0,0.0,1.0,0.47430886801365496,0.12455666535684021,0.3497522026568147,0.5988655333704952,0.12455666535684021,0.3887593281106092,0,1,3,2,7,8,1.0,1.0,1.0,1.0,1.0,1.0,0.0,0.0,0.0,0.0,0.0,1.0,1.0,5.0,3.0,0.0,4.0,5.0,8.0,5.0,6.0,1.0,2.0,3.0,4.0,5.900293877988588,7.091925824643113,2.254621850210242,3.110469674516935,4.198022396070883,5.205349959433079,273.37119744735537,507.18144029867835,507.9898331555305,507.68641010974534,516.1325703947223,517.1302231910522,508.9983273358084,516.1242367239902
1,159,1,1,1.0,1.0,0.3287447920301929,0,0.0,0.0,0.0,0.4745066805494829,0.12417848529491651,0.3503281952545664,0.5986851658443995,0.12417848529491651,0.3826015178152981,3,6,2,5,1,4,nan,nan,nan,nan,nan,nan,nan,nan,nan,nan,nan,nan,0.0,nan,nan,nan,nan,nan,nan,nan,nan,nan,nan,nan,nan,nan,nan,nan,nan,nan,nan,273.37119744735537,517.3494565195288,nan,517.678201311559,nan,nan,nan,nan
1,160,1,1,1.0,1.0,0.4719302037265152,0,0.0,0.0,0.0,0.47357230946923107,0.12432526212089967,0.3492470473483314,0.5978975715901307,0.12432526212089967,0.43521493560789776,1,2,5,7,8,6,nan,nan,nan,nan,nan,nan,nan,nan,nan,nan,nan,nan,0.0,nan,nan,nan,nan,nan,nan,nan,nan,nan,nan,nan,nan,nan,nan,nan,nan,nan,nan,273.37119744735537,518.3662487334223,nan,518.8381789371488,nan,nan,nan,nan
1,161,1,1,1.0,1.0,0.6951078493730165,0,0.0,0.0,0.0,0.47356185019698444,0.12392875815495445,0.34963309204202997,0.5974906083519389,0.12392875815495445,0.4985942817099082,0,7,4,3,1,8,nan,nan,nan,nan,nan,nan,nan,nan,nan,nan,nan,nan,0.0,nan,nan,nan,nan,nan,nan,nan,nan,nan,nan,nan,nan,nan,nan,nan,nan,nan,nan,273.37119744735537,519.3830378112616,nan,520.0781456606346,nan,nan,nan,nan
1,162,1,1,1.0,1.0,0.5259332793066278,0,0.0,0.0,0.0,0.47496404006518717,0.12477906816294168,0.3501849719022455,0.5997431082281288,0.12477906816294168,0.5643237774687199,3,8,7,1,6,0,nan,nan,nan,nan,nan,nan,nan,nan,nan,nan,nan,nan,0.0,nan,nan,nan,nan,nan,nan,nan,nan,nan,nan,nan,nan,nan,nan,nan,nan,nan,nan,273.37119744735537,520.4081967670936,nan,520.9341300464002,nan,nan,nan,nan
1,163,1,1,nan,nan,nan,0,0.0,0.0,0.0,0.475284601318278,0.12445130969644097,0.350833291621837,0.5997359110147189,0.12445130969644097,0.6105205643398222,5,4,2,0,8,6,nan,nan,nan,nan,nan,nan,nan,nan,nan,nan,nan,nan,0.0,nan,nan,nan,nan,nan,nan,nan,nan,nan,nan,nan,nan,nan,nan,nan,nan,nan,nan,273.37119744735537,521.4333052607835,nan,nan,nan,nan,nan,nan
1,164,1,1,1.0,1.0,0.4676412043045275,0,0.0,0.0,0.0,0.475284601318278,0.12445130969644097,0.350833291621837,0.5997359110147189,0.12445130969644097,0.49678724180557765,6,3,0,4,1,5,nan,nan,nan,nan,nan,nan,nan,nan,nan,nan,nan,nan,0.0,nan,nan,nan,nan,nan,nan,nan,nan,nan,nan,nan,nan,nan,nan,nan,nan,nan,nan,273.37119744735537,522.4584536679904,nan,522.9260948722949,nan,nan,nan,nan
1,165,1,1,1.0,1.0,0.498468458885327,0,0.0,0.0,0.0,0.47523683008694206,0.1240632521519713,0.3511735779349708,0.5993000822389134,0.1240632521519713,0.48305483159492724,8,6,5,2,7,3,nan,nan,nan,nan,nan,nan,nan,nan,nan,nan,nan,nan,0.0,nan,nan,nan,nan,nan,nan,nan,nan,nan,nan,nan,nan,nan,nan,nan,nan,nan,nan,273.37119744735537,523.4836103430716,nan,523.982078801957,nan,nan,nan,nan
1,166,1,1,1.0,1.0,0.45735889550996944,0,0.0,0.0,0.0,0.4753811259179879,0.12369082980599058,0.3516902961119973,0.5990719557239785,0.12369082980599058,0.47448951956660795,1,5,8,3,6,0,nan,nan,nan,nan,nan,nan,nan,nan,nan,nan,nan,nan,0.0,nan,nan,nan,nan,nan,nan,nan,nan,nan,nan,nan,nan,nan,nan,nan,nan,nan,nan,273.37119744735537,524.5087023011292,nan,524.9660611966392,nan,nan,nan,nan
1,167,1,1,1.0,1.0,0.37620061478810385,0,0.0,0.0,0.0,0.47526987758213596,0.12331655635939257,0.35195332122274336,0.5985864339415286,0.12331655635939257,0.44400932306113344,0,4,1,8,2,6,nan,nan,nan,nan,nan,nan,nan,nan,nan,nan,nan,nan,0.0,nan,nan,nan,nan,nan,nan,nan,nan,nan,nan,nan,nan,nan,nan,nan,nan,nan,nan,273.37119744735537,525.5338404448703,nan,525.9100410596584,nan,nan,nan,nan
1,168,1,1,1.0,1.0,0.3830486449878663,0,0.0,0.0,0.0,0.47466209069382903,0.12318085221766757,0.3514812384761615,0.5978429429114966,0.12318085221766757,0.4055360517619799,2,3,0,6,5,4,nan,nan,nan,nan,nan,nan,nan,nan,nan,nan,nan,nan,0.0,nan,nan,nan,nan,nan,nan,nan,nan,nan,nan,nan,nan,nan,nan,nan,nan,nan,nan,273.37119744735537,526.558967184741,nan,526.9420158297289,nan,nan,nan,nan
1,169,1,1,1.0,1.0,0.4778950033360161,0,0.0,0.0,0.0,0.4741034721224512,0.12301164901243788,0.3510918231100133,0.5971151211348891,0.12301164901243788,0.4123814210373287,1,0,6,2,3,8,nan,nan,nan,nan,nan,nan,nan,nan,nan,nan,nan,nan,0.0,nan,nan,nan,nan,nan,nan,nan,nan,nan,nan,nan,nan,nan,nan,nan,nan,nan,nan,273.37119744735537,527.5840953501174,nan,528.0619903534534,nan,nan,nan,nan
1,170,1,1,1.0,1.0,0.4526493779849261,0,0.0,0.0,0.0,0.47412645109950313,0.12263867298981466,0.35148777810968845,0.5967651240893178,0.12263867298981466,0.4378643421029362,6,2,7,5,1,0,nan,nan,nan,nan,nan,nan,nan,nan,nan,nan,nan,nan,0.0,nan,nan,nan,nan,nan,nan,nan,nan,nan,nan,nan,nan,nan,nan,nan,nan,nan,nan,273.37119744735537,528.6093121806625,nan,529.0619615586475,nan,nan,nan,nan
1,171,0,0,1.0,0.0,0.47558201127685606,0,0.0,0.0,0.0,0.47399707114098155,0.12228001552240969,0.35171705561857186,0.5962770866633913,0.12228001552240969,0.4687087975325994,4,3,0,6,7,1,nan,nan,nan,nan,nan,nan,nan,nan,nan,nan,nan,nan,0.0,nan,nan,nan,nan,nan,nan,nan,nan,nan,nan,nan,nan,nan,nan,nan,nan,nan,nan,273.37119744735537,529.634364795289,nan,530.1099468065659,nan,nan,nan,nan
1,172,1,1,1.0,1.0,0.4987566919880919,0,0.0,0.0,0.0,0.4740065618004778,0.12191341930125374,0.3520931424992241,0.5959199811017315,0.12191341930125374,0.475662693749958,6,1,7,4,5,3,nan,nan,nan,nan,nan,nan,nan,nan,nan,nan,nan,nan,0.0,nan,nan,nan,nan,nan,nan,nan,nan,nan,nan,nan,nan,nan,nan,nan,nan,nan,nan,273.37119744735537,530.6511749702622,nan,531.1499316622503,nan,nan,nan,nan
1,173,1,1,1.0,1.0,0.5775985594373196,0,0.0,0.0,0.0,0.4741538840039755,0.12156494894109025,0.35258893506288524,0.5957188329450658,0.12156494894109025,0.5173124209007559,1,7,8,0,2,6,nan,nan,nan,nan,nan,nan,nan,nan,nan,nan,nan,nan,0.0,nan,nan,nan,nan,nan,nan,nan,nan,nan,nan,nan,nan,nan,nan,nan,nan,nan,nan,273.37119744735537,531.6762997144833,nan,532.2538982739206,nan,nan,nan,nan
1,174,1,1,1.0,1.0,0.5524378930567764,0,0.0,0.0,0.0,0.4747659826751787,0.12146413664058736,0.35330184603459136,0.5962301193157661,0.12146413664058736,0.5429310481607293,6,1,0,8,5,4,nan,nan,nan,nan,nan,nan,nan,nan,nan,nan,nan,nan,0.0,nan,nan,nan,nan,nan,nan,nan,nan,nan,nan,nan,nan,nan,nan,nan,nan,nan,nan,273.37119744735537,532.7014512578025,nan,533.2538891508593,nan,nan,nan,nan
1,175,1,1,1.0,1.0,0.6153032092261128,0,0.0,0.0,0.0,0.47522287626565873,0.12125192793246695,0.35397094833319176,0.5964748041981257,0.12125192793246695,0.5817798872400696,7,3,2,5,1,6,nan,nan,nan,nan,nan,nan,nan,nan,nan,nan,nan,nan,0.0,nan,nan,nan,nan,nan,nan,nan,nan,nan,nan,nan,nan,nan,nan,nan,nan,nan,nan,273.37119744735537,533.7265714404639,nan,534.34187464969,nan,nan,nan,nan
1,176,1,1,1.0,1.0,0.6701396233984269,0,0.0,1.0,0.0,0.4760420594993456,0.12136776195726222,0.35467429754208335,0.5974098214566078,0.12136776195726222,0.6126269085604387,4,5,0,3,7,8,nan,nan,nan,nan,nan,nan,nan,nan,nan,nan,nan,nan,0.0,nan,nan,nan,nan,nan,nan,nan,nan,nan,nan,nan,nan,nan,nan,nan,nan,nan,nan,273.37119744735537,534.7517055928474,nan,535.4218452162459,nan,nan,nan,nan
1,177,1,1,1.0,1.0,0.6769876535981894,1,0.0,0.0,1.0,0.4771705337080612,0.12191084435535048,0.3552596893527107,0.5990813780634117,0.12191084435535048,0.6541434954075763,3,1,7,0,6,4,1.0,1.0,1.0,1.0,1.0,1.0,0.0,1.0,1.0,1.0,0.0,0.0,3.0,5.0,1.0,7.0,0.0,3.0,8.0,5.0,6.0,1.0,2.0,3.0,4.0,6.4569925458636135,7.287936576176435,1.6644810179714113,2.6908447937457822,3.7930837175808847,4.785646677017212,273.37119744735537,535.7768357538735,536.585247997311,536.4538234074716,544.9196573817753,545.9272808758542,537.5937293482712,544.9113262769533
1,178,1,1,1.0,1.0,0.6684267605887726,0,0.0,0.0,0.0,0.47832554596176136,0.1224981720582255,0.35582737390353586,0.6008237180199869,0.1224981720582255,0.6718513458617963,4,0,8,3,1,6,nan,nan,nan,nan,nan,nan,nan,nan,nan,nan,nan,nan,0.0,nan,nan,nan,nan,nan,nan,nan,nan,nan,nan,nan,nan,nan,nan,nan,nan,nan,nan,273.37119744735537,546.1531737854239,nan,546.8216005460126,nan,nan,nan,nan
1,179,1,1,1.0,1.0,0.44328337104525417,0,0.0,0.0,0.0,0.47941808167800853,0.12298805083304733,0.3564300308449612,0.6024061325110559,0.12298805083304733,0.5962325950774053,5,1,4,2,8,0,nan,nan,nan,nan,nan,nan,nan,nan,nan,nan,nan,nan,0.0,nan,nan,nan,nan,nan,nan,nan,nan,nan,nan,nan,nan,nan,nan,nan,nan,nan,nan,273.37119744735537,547.1782916872762,nan,547.6215750583215,nan,nan,nan,nan
1,180,1,1,1.0,1.0,0.7304222458042204,0,0.0,1.0,0.0,0.47921159761724996,0.12266639564916722,0.35654520196808276,0.6018779932664172,0.12266639564916722,0.614044125812749,4,5,7,6,2,8,nan,nan,nan,nan,nan,nan,nan,nan,nan,nan,nan,nan,0.0,nan,nan,nan,nan,nan,nan,nan,nan,nan,nan,nan,nan,nan,nan,nan,nan,nan,nan,273.37119744735537,548.1951272359001,nan,548.9255494817044,nan,nan,nan,nan
1,181,0,0,0.0,1.0,0.6812869164859876,1,0.0,0.0,1.0,0.480638930845585,0.12376620732319778,0.35687272352238725,0.6044051381687828,0.12376620732319778,0.6183308444451541,8,4,5,2,3,7,1.0,1.0,1.0,1.0,1.0,1.0,0.0,0.0,0.0,0.0,0.0,1.0,1.0,5.0,3.0,2.0,4.0,1.0,7.0,5.0,6.0,2.0,3.0,4.0,1.0,5.772385674703401,6.596743964066263,2.821813798567746,3.8859038915252313,4.741366264701355,1.6377206722390838,273.37119744735537,549.2202516950201,550.028670495667,549.9015386115061,557.6713130826829,558.6722048661322,551.0371487105731,557.6629911009804
1,182,1,1,1.0,1.0,0.42884007142856717,0,0.0,0.0,0.0,0.48177253528423136,0.12432900575444063,0.35744352952979075,0.606101541038672,0.12432900575444063,0.6135164112395918,5,6,0,3,7,2,nan,nan,nan,nan,nan,nan,nan,nan,nan,nan,nan,nan,0.0,nan,nan,nan,nan,nan,nan,nan,nan,nan,nan,nan,nan,nan,nan,nan,nan,nan,nan,273.37119744735537,558.8965092151775,nan,559.3253492866061,nan,nan,nan,nan
1,183,1,1,1.0,1.0,0.403685677156318,0,0.0,0.0,0.0,0.4814751618917838,0.12404238358993261,0.35743277830185116,0.6055175454817164,0.12404238358993261,0.504604221690291,7,0,4,6,2,3,nan,nan,nan,nan,nan,nan,nan,nan,nan,nan,nan,nan,0.0,nan,nan,nan,nan,nan,nan,nan,nan,nan,nan,nan,nan,nan,nan,nan,nan,nan,nan,273.37119744735537,559.9216465036152,nan,560.3253321807715,nan,nan,nan,nan
1,184,1,1,1.0,1.0,0.40284407074796036,0,0.0,0.0,0.0,0.48104058376477,0.12383122184783005,0.35720936191693997,0.6048718056126,0.12383122184783005,0.4117899397776152,4,8,6,2,5,7,nan,nan,nan,nan,nan,nan,nan,nan,nan,nan,nan,nan,0.0,nan,nan,nan,nan,nan,nan,nan,nan,nan,nan,nan,nan,nan,nan,nan,nan,nan,nan,273.37119744735537,560.9384732142789,nan,561.3413172850269,nan,nan,nan,nan
1,185,1,1,1.0,1.0,0.3217066021170467,0,0.0,0.0,0.0,0.4806061586924544,0.12362347456415589,0.3569826841282985,0.6042296332566103,0.12362347456415589,0.3760787833404417,5,6,4,3,2,0,nan,nan,nan,nan,nan,nan,nan,nan,nan,nan,nan,nan,0.0,nan,nan,nan,nan,nan,nan,nan,nan,nan,nan,nan,nan,nan,nan,nan,nan,nan,nan,273.37119744735537,561.9635782867554,nan,562.2852848888724,nan,nan,nan,nan
1,186,1,1,1.0,1.0,0.36858367797685787,0,0.0,0.0,0.0,0.4797282605898278,0.123842865035519,0.3558853955543088,0.6035711256253469,0.123842865035519,0.36437811694728833,3,1,2,7,6,5,nan,nan,nan,nan,nan,nan,nan,nan,nan,nan,nan,nan,0.0,nan,nan,nan,nan,nan,nan,nan,nan,nan,nan,nan,nan,nan,nan,nan,nan,nan,nan,273.37119744735537,562.988701890572,nan,563.3572855685488,nan,nan,nan,nan
1,187,0,0,0.0,1.0,0.5117083640070632,0,0.0,0.0,0.0,0.47911757606997635,0.12377514704702688,0.35534242902294944,0.6028927231170033,0.12377514704702688,0.4006662147003226,6,3,8,2,5,7,nan,nan,nan,nan,nan,nan,nan,nan,nan,nan,nan,nan,0.0,nan,nan,nan,nan,nan,nan,nan,nan,nan,nan,nan,nan,nan,nan,nan,nan,nan,nan,273.37119744735537,564.0055251800222,nan,564.5172335440293,nan,nan,nan,nan
1,188,1,1,1.0,1.0,0.38260360853746533,0,0.0,0.0,0.0,0.4792956678073375,0.12345988030306229,0.35583578750427525,0.6027555481103998,0.12345988030306229,0.4209652168404621,7,0,3,1,6,4,nan,nan,nan,nan,nan,nan,nan,nan,nan,nan,nan,nan,0.0,nan,nan,nan,nan,nan,nan,nan,nan,nan,nan,nan,nan,nan,nan,nan,nan,nan,nan,273.37119744735537,565.0306208443362,nan,565.4132244528737,nan,nan,nan,nan
1,189,1,1,1.0,1.0,0.4773883859743364,0,0.0,0.0,0.0,0.4787701674852186,0.12332898599555431,0.3554411814896643,0.6020991534807729,0.12332898599555431,0.45723345283962163,3,5,6,7,1,0,nan,nan,nan,nan,nan,nan,nan,nan,nan,nan,nan,nan,0.0,nan,nan,nan,nan,nan,nan,nan,nan,nan,nan,nan,nan,nan,nan,nan,nan,nan,nan,273.37119744735537,566.0558037483133,nan,566.5331921342877,nan,nan,nan,nan
1,190,1,1,1.0,1.0,0.3162960310583003,0,0.0,0.0,0.0,0.47876269839597063,0.12299525448438957,0.35576744391158105,0.6017579528803602,0.12299525448438957,0.39209600852336735,5,6,0,1,4,8,nan,nan,nan,nan,nan,nan,nan,nan,nan,nan,nan,nan,0.0,nan,nan,nan,nan,nan,nan,nan,nan,nan,nan,nan,nan,nan,nan,nan,nan,nan,nan,273.37119744735537,567.0808865832514,nan,567.3971826143097,nan,nan,nan,nan
1,191,1,1,1.0,1.0,0.2914407035568729,0,0.0,0.0,0.0,0.4778892216898541,0.12323817622835896,0.3546510454614951,0.601127397918213,0.12323817622835896,0.36170837352983654,6,2,7,8,5,0,nan,nan,nan,nan,nan,nan,nan,nan,nan,nan,nan,nan,0.0,nan,nan,nan,nan,nan,nan,nan,nan,nan,nan,nan,nan,nan,nan,nan,nan,nan,nan,273.37119744735537,568.0977181405178,nan,568.3891588440747,nan,nan,nan,nan
1,192,1,1,1.0,1.0,0.3146008442272432,0,1.0,0.0,0.0,0.47689217079074725,0.12365813868414009,0.35323403210660714,0.6005503094748873,0.12365813868414009,0.3074458596141388,0,3,6,7,1,4,nan,nan,nan,nan,nan,nan,nan,nan,nan,nan,nan,nan,0.0,nan,nan,nan,nan,nan,nan,nan,nan,nan,nan,nan,nan,nan,nan,nan,nan,nan,nan,273.37119744735537,569.1145562550519,nan,569.4291570992791,nan,nan,nan,nan
1,193,1,1,1.0,1.0,0.28947724046884105,1,0.0,0.0,1.0,0.4760289190537073,0.1238924995273366,0.3521364195263707,0.5999214185810439,0.1238924995273366,0.29850626275098574,7,8,3,4,5,2,1.0,1.0,1.0,1.0,1.0,1.0,0.0,1.0,0.0,1.0,0.0,0.0,2.0,3.0,8.0,5.0,4.0,6.0,5.0,4.0,5.0,6.0,1.0,3.0,2.0,5.221280325087719,5.892596828925889,6.948934849060606,1.262528445571661,3.693308031943161,2.525053469988052,273.37119744735537,570.1396365240798,570.9480607415899,570.4291137645487,578.9407545605209,579.9501892758999,571.956520995358,578.9324223153526
1,194,1,1,1.0,1.0,0.33463204524014145,0,0.0,0.0,0.0,0.4750418731352689,0.1243032531864435,0.3507386199488254,0.5993451263217124,0.1243032531864435,0.31290337664540857,8,5,0,2,6,7,nan,nan,nan,nan,nan,nan,nan,nan,nan,nan,nan,nan,0.0,nan,nan,nan,nan,nan,nan,nan,nan,nan,nan,nan,nan,nan,nan,nan,nan,nan,nan,273.37119744735537,580.1742741002236,nan,580.5089061454637,nan,nan,nan,nan
1,195,1,1,1.0,1.0,0.34179795859381557,0,0.0,0.0,0.0,0.474302874041084,0.12439128885772767,0.34991158518335636,0.5986941628988117,0.12439128885772767,0.321969081434266,3,2,4,0,5,1,nan,nan,nan,nan,nan,nan,nan,nan,nan,nan,nan,nan,0.0,nan,nan,nan,nan,nan,nan,nan,nan,nan,nan,nan,nan,nan,nan,nan,nan,nan,nan,273.37119744735537,581.1910896920599,nan,581.5328876506537,nan,nan,nan,nan
1,196,1,1,1.0,1.0,0.3729775930987671,0,0.0,0.0,0.0,0.47360913102827107,0.12443321238013702,0.349175918648134,0.5980423434084081,0.12443321238013702,0.349802532310908,8,5,7,4,2,6,nan,nan,nan,nan,nan,nan,nan,nan,nan,nan,nan,nan,0.0,nan,nan,nan,nan,nan,nan,nan,nan,nan,nan,nan,nan,nan,nan,nan,nan,nan,nan,273.37119744735537,582.2078901737696,nan,582.5808677668683,nan,nan,nan,nan
1,197,1,1,1.0,1.0,0.40380883897887543,0,0.0,0.0,0.0,0.47308500843488827,0.1243199462057292,0.34876506222915904,0.5974049546406175,0.1243199462057292,0.3728614635571527,0,8,6,3,1,4,nan,nan,nan,nan,nan,nan,nan,nan,nan,nan,nan,nan,0.0,nan,nan,nan,nan,nan,nan,nan,nan,nan,nan,nan,nan,nan,nan,nan,nan,nan,nan,273.37119744735537,583.2330274622655,nan,583.6368363012443,nan,nan,nan,nan
1,198,1,1,1.0,1.0,0.41900536499451846,0,0.0,0.0,0.0,0.47272606455169647,0.12409716513442905,0.34862889941726743,0.5968232296861256,0.12409716513442905,0.39859726569072035,7,5,3,1,6,8,nan,nan,nan,nan,nan,nan,nan,nan,nan,nan,nan,nan,0.0,nan,nan,nan,nan,nan,nan,nan,nan,nan,nan,nan,nan,nan,nan,nan,nan,nan,nan,273.37119744735537,584.2498285141191,nan,584.6688338791137,nan,nan,nan,nan
1,199,1,1,1.0,1.0,0.585837863094639,0,0.0,0.0,0.0,0.4724491537292368,0.12383668102049537,0.3486124727087414,0.5962858347497322,0.12383668102049537,0.46955068902267766,3,6,5,4,8,0,nan,nan,nan,nan,nan,nan,nan,nan,nan,nan,nan,nan,0.0,nan,nan,nan,nan,nan,nan,nan,nan,nan,nan,nan,nan,nan,nan,nan,nan,nan,nan,273.37119744735537,585.2749589602463,nan,585.8607968233409,nan,nan,nan,nan
1,200,1,1,1.0,1.0,0.624663514259737,0,0.0,0.0,0.0,0.473030634290085,0.12378398549993927,0.3492466487901458,0.5968146197900243,0.12378398549993927,0.5431689141162982,6,4,7,5,2,1,nan,nan,nan,nan,nan,nan,nan,nan,nan,nan,nan,nan,0.0,nan,nan,nan,nan,nan,nan,nan,nan,nan,nan,nan,nan,nan,nan,nan,nan,nan,nan,273.37119744735537,586.300087980926,nan,586.9247514951858,nan,nan,nan,nan
1,201,1,1,1.0,1.0,0.7355049552279525,0,0.0,1.0,0.0,0.4738042714327873,0.12393953964181446,0.3498647317909728,0.5977438110746017,0.12393953964181446,0.6486687775274428,5,3,2,8,7,6,nan,nan,nan,nan,nan,nan,nan,nan,nan,nan,nan,nan,0.0,nan,nan,nan,nan,nan,nan,nan,nan,nan,nan,nan,nan,nan,nan,nan,nan,nan,nan,273.37119744735537,587.325264897896,nan,588.0607698531239,nan,nan,nan,nan
1,202,1,1,1.0,1.0,0.6463753621792421,1,0.0,0.0,1.0,0.47513270129976787,0.1250156834074483,0.3501170178923195,0.6001483847072162,0.1250156834074483,0.6688479438889772,3,4,7,5,0,2,1.0,1.0,1.0,1.0,1.0,1.0,0.0,0.0,1.0,1.0,1.0,0.0,3.0,8.0,3.0,7.0,5.0,0.0,4.0,5.0,6.0,1.0,3.0,2.0,4.0,6.47336823301157,10.96882065065438,1.3300776205142029,4.161485788819846,3.1632556710392237,5.442177764838561,273.37119744735537,588.3503642684082,589.158769384434,588.9967396305874,601.1936167919775,602.1953487563296,590.1839234936051,601.18528682756
1,203,1,1,1.0,1.0,0.3695299149258062,0,0.0,0.0,0.0,0.47599756322340153,0.12528902754767565,0.3507085356757259,0.6012865907710772,0.12528902754767565,0.583803410777667,4,3,2,7,1,5,nan,nan,nan,nan,nan,nan,nan,nan,nan,nan,nan,nan,0.0,nan,nan,nan,nan,nan,nan,nan,nan,nan,nan,nan,nan,nan,nan,nan,nan,nan,nan,273.37119744735537,602.4189161295653,nan,602.7884460444911,nan,nan,nan,nan
1,204,1,1,1.0,1.0,0.33644953870680183,0,0.0,0.0,0.0,0.47546254991537346,0.1252003781370433,0.3502621717783302,0.6006629280524167,0.1252003781370433,0.45078493860395,7,1,6,2,3,4,nan,nan,nan,nan,nan,nan,nan,nan,nan,nan,nan,nan,0.0,nan,nan,nan,nan,nan,nan,nan,nan,nan,nan,nan,nan,nan,nan,nan,nan,nan,nan,273.37119744735537,603.4439775822102,nan,603.780427120917,nan,nan,nan,nan
1,205,1,1,1.0,1.0,0.4476137095480226,0,0.0,0.0,0.0,0.47476748485933057,0.12527130151485047,0.34949618334448007,0.6000387863741811,0.12527130151485047,0.38453105439354357,6,5,2,0,4,7,nan,nan,nan,nan,nan,nan,nan,nan,nan,nan,nan,nan,0.0,nan,nan,nan,nan,nan,nan,nan,nan,nan,nan,nan,nan,nan,nan,nan,nan,nan,nan,273.37119744735537,604.4607991611119,nan,604.90841287066,nan,nan,nan,nan
1,206,1,1,1.0,1.0,0.39040300744818524,0,0.0,0.0,0.0,0.4746323914498216,0.12497389689366528,0.34965849455615633,0.599606288343487,0.12497389689366528,0.39148875190100324,7,3,0,4,8,2,nan,nan,nan,nan,nan,nan,nan,nan,nan,nan,nan,nan,0.0,nan,nan,nan,nan,nan,nan,nan,nan,nan,nan,nan,nan,nan,nan,nan,nan,nan,nan,273.37119744735537,605.4859749376774,nan,605.8763779451256,nan,nan,nan,nan
1,207,1,1,1.0,1.0,0.36531504074810073,0,0.0,0.0,0.0,0.47421541430129865,0.1248042610671285,0.34941115323417016,0.5990196753684272,0.1248042610671285,0.4011105859147695,5,7,8,2,1,0,nan,nan,nan,nan,nan,nan,nan,nan,nan,nan,nan,nan,0.0,nan,nan,nan,nan,nan,nan,nan,nan,nan,nan,nan,nan,nan,nan,nan,nan,nan,nan,273.37119744735537,606.5110440879362,nan,606.8763591286843,nan,nan,nan,nan
1,208,1,1,1.0,1.0,0.38016802474157885,0,0.0,0.0,0.0,0.47367895925916464,0.12472973333048694,0.3489492259286777,0.5984086925896516,0.12472973333048694,0.37862869097928825,1,3,0,6,5,8,nan,nan,nan,nan,nan,nan,nan,nan,nan,nan,nan,nan,0.0,nan,nan,nan,nan,nan,nan,nan,nan,nan,nan,nan,nan,nan,nan,nan,nan,nan,nan,273.37119744735537,607.5361904995516,nan,607.9163585242932,nan,nan,nan,nan
1,209,1,1,1.0,1.0,0.38702090160222724,0,0.0,0.0,0.0,0.47322057232525494,0.12459493634379162,0.34862563598146334,0.5978155086690465,0.12459493634379162,0.37750132236396894,3,2,6,8,4,5,nan,nan,nan,nan,nan,nan,nan,nan,nan,nan,nan,nan,0.0,nan,nan,nan,nan,nan,nan,nan,nan,nan,nan,nan,nan,nan,nan,nan,nan,nan,nan,273.37119744735537,608.5613092567073,nan,608.9483301583095,nan,nan,nan,nan
1,210,0,0,1.0,0.0,0.6498760682879947,0,0.0,0.0,0.0,0.472800086126606,0.1244356893870777,0.3483643967395283,0.5972357755136837,0.1244356893870777,0.4723549982106003,0,3,7,5,6,4,nan,nan,nan,nan,nan,nan,nan,nan,nan,nan,nan,nan,0.0,nan,nan,nan,nan,nan,nan,nan,nan,nan,nan,nan,nan,nan,nan,nan,nan,nan,nan,273.37119744735537,609.5864197460469,nan,610.2362958143349,nan,nan,nan,nan
1,211,1,1,1.0,1.0,0.5046747356536798,0,0.0,0.0,0.0,0.4736596782730205,0.12474192879990581,0.3489177494731147,0.5984016070729263,0.12474192879990581,0.5138572351813006,1,8,2,0,4,6,nan,nan,nan,nan,nan,nan,nan,nan,nan,nan,nan,nan,0.0,nan,nan,nan,nan,nan,nan,nan,nan,nan,nan,nan,nan,nan,nan,nan,nan,nan,nan,273.37119744735537,610.6116080668871,nan,611.1162828025408,nan,nan,nan,nan
1,212,1,1,1.0,1.0,0.487536414002534,0,0.0,0.0,0.0,0.47380950946809613,0.12445883512675836,0.34935067434133776,0.5982683445948545,0.12445883512675836,0.5473624059814028,0,5,1,3,7,8,nan,nan,nan,nan,nan,nan,nan,nan,nan,nan,nan,nan,0.0,nan,nan,nan,nan,nan,nan,nan,nan,nan,nan,nan,nan,nan,nan,nan,nan,nan,nan,273.37119744735537,611.6367145648692,nan,612.1242509788717,nan,nan,nan,nan
1,213,1,1,1.0,1.0,0.40640806849114597,0,0.0,0.0,0.0,0.4738755042014348,0.12416292533390555,0.34971257886752927,0.5980384295353404,0.12416292533390555,0.46620640604911995,2,3,7,0,8,5,nan,nan,nan,nan,nan,nan,nan,nan,nan,nan,nan,nan,0.0,nan,nan,nan,nan,nan,nan,nan,nan,nan,nan,nan,nan,nan,nan,nan,nan,nan,nan,273.37119744735537,612.6618358878768,nan,613.068243956368,nan,nan,nan,nan
1,214,1,1,1.0,1.0,0.42928710352862254,0,0.0,0.0,0.0,0.4735526935042564,0.12395299188812643,0.34959970161612997,0.5975056853923828,0.12395299188812643,0.4410771953407675,3,0,6,7,4,1,nan,nan,nan,nan,nan,nan,nan,nan,nan,nan,nan,nan,0.0,nan,nan,nan,nan,nan,nan,nan,nan,nan,nan,nan,nan,nan,nan,nan,nan,nan,nan,273.37119744735537,613.686955785437,nan,614.1162428889656,nan,nan,nan,nan
1,215,1,1,1.0,1.0,0.43605872767511755,0,0.0,0.0,0.0,0.4733419049805629,0.12369505608866312,0.3496468488918998,0.597036961069226,0.12369505608866312,0.423917966564962,2,6,1,0,5,8,nan,nan,nan,nan,nan,nan,nan,nan,nan,nan,nan,nan,0.0,nan,nan,nan,nan,nan,nan,nan,nan,nan,nan,nan,nan,nan,nan,nan,nan,nan,nan,273.37119744735537,614.7121284259483,nan,615.1481871536234,nan,nan,nan,nan
1,216,1,1,1.0,1.0,0.37889962818007916,0,0.0,0.0,0.0,0.4731652074577883,0.12342815506476988,0.3497370523930184,0.5965933625225581,0.12342815506476988,0.4147484864612731,4,0,2,5,6,3,nan,nan,nan,nan,nan,nan,nan,nan,nan,nan,nan,nan,0.0,nan,nan,nan,nan,nan,nan,nan,nan,nan,nan,nan,nan,nan,nan,nan,nan,nan,nan,273.37119744735537,615.7372711312491,nan,616.1161707594292,nan,nan,nan,nan
1,217,1,1,1.0,1.0,0.4337685434729792,0,0.0,0.0,0.0,0.47272055849893113,0.12330598504527755,0.34941457345365357,0.5960265435442087,0.12330598504527755,0.41624229977605864,0,8,6,4,5,2,nan,nan,nan,nan,nan,nan,nan,nan,nan,nan,nan,nan,0.0,nan,nan,nan,nan,nan,nan,nan,nan,nan,nan,nan,nan,nan,nan,nan,nan,nan,nan,273.37119744735537,616.7623830460361,nan,617.1961515895091,nan,nan,nan,nan
1,218,1,1,1.0,1.0,0.36062205891357735,0,0.0,0.0,0.0,0.4725376851889502,0.12304500717014538,0.3494926780188048,0.5955826923590956,0.12304500717014538,0.3910967435222119,1,0,2,6,4,7,nan,nan,nan,nan,nan,nan,nan,nan,nan,nan,nan,nan,0.0,nan,nan,nan,nan,nan,nan,nan,nan,nan,nan,nan,nan,nan,nan,nan,nan,nan,nan,273.37119744735537,617.7875143474666,nan,618.1481364063802,nan,nan,nan,nan
1,219,1,1,1.0,1.0,0.39947051781928167,0,0.0,0.0,0.0,0.4720147149727101,0.12299423085074264,0.34902048412196746,0.5950089458234528,0.12299423085074264,0.3979537067352794,5,2,8,7,1,6,nan,nan,nan,nan,nan,nan,nan,nan,nan,nan,nan,nan,0.0,nan,nan,nan,nan,nan,nan,nan,nan,nan,nan,nan,nan,nan,nan,nan,nan,nan,nan,273.37119744735537,618.8126470744028,nan,619.2121175922221,nan,nan,nan,nan
1,220,1,1,1.0,1.0,0.6303095754701644,0,0.0,0.0,0.0,0.471677300102229,0.12280709923950829,0.34887020086272075,0.5944843993417374,0.12280709923950829,0.46346738406767446,8,1,0,4,2,3,nan,nan,nan,nan,nan,nan,nan,nan,nan,nan,nan,nan,0.0,nan,nan,nan,nan,nan,nan,nan,nan,nan,nan,nan,nan,nan,nan,nan,nan,nan,nan,273.37119744735537,619.8377769503277,nan,620.4680865257978,nan,nan,nan,nan
1,221,1,1,1.0,1.0,0.5331852919189259,0,0.0,0.0,0.0,0.472411708784488,0.12299480900192863,0.3494168997825594,0.5954065177864166,0.12299480900192863,0.520988461736124,7,3,5,1,8,2,nan,nan,nan,nan,nan,nan,nan,nan,nan,nan,nan,nan,0.0,nan,nan,nan,nan,nan,nan,nan,nan,nan,nan,nan,nan,nan,nan,nan,nan,nan,nan,273.37119744735537,620.8628820228623,nan,621.3960673147812,nan,nan,nan,nan
1,222,1,1,1.0,1.0,0.5639811859000474,0,0.0,0.0,0.0,0.4726917713795776,0.12278009612458281,0.3499116752549948,0.5954718675041604,0.12278009612458281,0.5758253510963792,8,4,1,6,0,3,nan,nan,nan,nan,nan,nan,nan,nan,nan,nan,nan,nan,0.0,nan,nan,nan,nan,nan,nan,nan,nan,nan,nan,nan,nan,nan,nan,nan,nan,nan,nan,273.37119744735537,621.8880569441244,nan,622.4520381300244,nan,nan,nan,nan
1,223,0,0,1.0,0.0,0.5148515584878623,0,0.0,0.0,0.0,0.47311053016178156,0.12265338859368508,0.3504571415680965,0.5957639187554666,0.12265338859368508,0.5373393454356119,4,3,7,8,5,6,nan,nan,nan,nan,nan,nan,nan,nan,nan,nan,nan,nan,0.0,nan,nan,nan,nan,nan,nan,nan,nan,nan,nan,nan,nan,nan,nan,nan,nan,nan,nan,273.37119744735537,622.9131814032444,nan,623.4280329617322,nan,nan,nan,nan
1,224,1,1,1.0,1.0,0.6339391454821452,0,0.0,0.0,0.0,0.4733011284646404,0.12240539113501314,0.35089573732962726,0.5957065195996536,0.12240539113501314,0.5709239632900184,7,5,0,1,4,8,nan,nan,nan,nan,nan,nan,nan,nan,nan,nan,nan,nan,0.0,nan,nan,nan,nan,nan,nan,nan,nan,nan,nan,nan,nan,nan,nan,nan,nan,nan,nan,273.37119744735537,623.9300044075935,nan,624.5639435530757,nan,nan,nan,nan
1,225,1,1,1.0,1.0,0.4328582286834717,0,0.0,0.0,0.0,0.4740313012692654,0.12260397721901208,0.35142732405025334,0.5966352784882775,0.12260397721901208,0.5272163108844931,0,3,7,5,8,2,nan,nan,nan,nan,nan,nan,nan,nan,nan,nan,nan,nan,0.0,nan,nan,nan,nan,nan,nan,nan,nan,nan,nan,nan,nan,nan,nan,nan,nan,nan,nan,273.37119744735537,624.9551265859045,nan,625.387984814588,nan,nan,nan,nan
1,226,1,1,1.0,1.0,0.4717152405064553,0,0.0,0.0,0.0,0.47384499777340205,0.12235748569986546,0.35148751207353657,0.5962024834732675,0.12235748569986546,0.5128375382240241,7,5,6,4,1,3,nan,nan,nan,nan,nan,nan,nan,nan,nan,nan,nan,nan,0.0,nan,nan,nan,nan,nan,nan,nan,nan,nan,nan,nan,nan,nan,nan,nan,nan,nan,nan,273.37119744735537,625.9802553214831,nan,626.4519705619896,nan,nan,nan,nan
1,227,0,0,0.0,1.0,0.6388889997033402,0,0.0,0.0,0.0,0.4738354042721996,0.12208167804250127,0.35175372622969836,0.5959170823147009,0.12208167804250127,0.514487489631089,1,2,3,5,0,7,nan,nan,nan,nan,nan,nan,nan,nan,nan,nan,nan,nan,0.0,nan,nan,nan,nan,nan,nan,nan,nan,nan,nan,nan,nan,nan,nan,nan,nan,nan,nan,273.37119744735537,626.9970435440191,nan,627.6359325437224,nan,nan,nan,nan
1,228,1,1,1.0,1.0,0.6220540213398635,0,0.0,0.0,0.0,0.4745755549243572,0.12230584214481596,0.3522697127795412,0.5968813970691732,0.12230584214481596,0.5775527538498864,4,7,2,6,8,1,nan,nan,nan,nan,nan,nan,nan,nan,nan,nan,nan,nan,0.0,nan,nan,nan,nan,nan,nan,nan,nan,nan,nan,nan,nan,nan,nan,nan,nan,nan,nan,273.37119744735537,628.0138648377615,nan,628.6359188591014,nan,nan,nan,nan
1,229,1,1,1.0,1.0,0.5409316628356464,0,0.0,0.0,0.0,0.4752339409351407,0.12242795152315476,0.35280598941198593,0.5976618924582955,0.12242795152315476,0.6006248946262834,2,0,6,1,4,3,nan,nan,nan,nan,nan,nan,nan,nan,nan,nan,nan,nan,0.0,nan,nan,nan,nan,nan,nan,nan,nan,nan,nan,nan,nan,nan,nan,nan,nan,nan,nan,273.37119744735537,629.0389841651195,nan,629.5799158279551,nan,nan,nan,nan
1,230,1,1,1.0,1.0,0.4917675387696363,0,0.0,0.0,0.0,0.47552593081025407,0.12223373147765776,0.3532921993325963,0.5977596622879118,0.12223373147765776,0.5515844076483821,3,5,7,6,2,8,nan,nan,nan,nan,nan,nan,nan,nan,nan,nan,nan,nan,0.0,nan,nan,nan,nan,nan,nan,nan,nan,nan,nan,nan,nan,nan,nan,nan,nan,nan,nan,273.37119744735537,630.0641151814489,nan,630.5558827202185,nan,nan,nan,nan
1,231,1,1,1.0,1.0,0.41061182389967144,0,0.0,0.0,0.0,0.47559779633219823,0.12196776689710258,0.35363002943509564,0.5975655632293008,0.12196776689710258,0.48110367516831803,5,1,3,8,6,2,nan,nan,nan,nan,nan,nan,nan,nan,nan,nan,nan,nan,0.0,nan,nan,nan,nan,nan,nan,nan,nan,nan,nan,nan,nan,nan,nan,nan,nan,nan,nan,273.37119744735537,631.0892547506955,nan,631.4998665745952,nan,nan,nan,nan
1,232,1,1,1.0,1.0,0.4494568617083132,0,0.0,0.0,0.0,0.47531151451531484,0.12177489424083934,0.3535366202744755,0.5970864087561542,0.12177489424083934,0.45061207479254034,6,8,5,7,0,4,nan,nan,nan,nan,nan,nan,nan,nan,nan,nan,nan,nan,0.0,nan,nan,nan,nan,nan,nan,nan,nan,nan,nan,nan,nan,nan,nan,nan,nan,nan,nan,273.37119744735537,632.1143840564182,nan,632.5638409181265,nan,nan,nan,nan
1,233,1,1,1.0,1.0,0.4643049990409054,0,0.0,0.0,0.0,0.47519811691528413,0.12151956156348553,0.3536785553517986,0.5967176784787697,0.12151956156348553,0.44145789488296333,3,4,2,5,1,6,nan,nan,nan,nan,nan,nan,nan,nan,nan,nan,nan,nan,0.0,nan,nan,nan,nan,nan,nan,nan,nan,nan,nan,nan,nan,nan,nan,nan,nan,nan,nan,273.37119744735537,633.1395184939611,nan,633.603823493002,nan,nan,nan,nan
1,234,0,0,1.0,0.0,0.5031451901886612,0,0.0,0.0,0.0,0.4751505487149594,0.1212560720662031,0.3538944766487563,0.5964066207811625,0.1212560720662031,0.47230235031262663,4,8,6,1,7,5,nan,nan,nan,nan,nan,nan,nan,nan,nan,nan,nan,nan,0.0,nan,nan,nan,nan,nan,nan,nan,nan,nan,nan,nan,nan,nan,nan,nan,nan,nan,nan,273.37119744735537,634.1646492251894,nan,634.667794415378,nan,nan,nan,nan
1,235,1,1,1.0,1.0,0.45395740307867527,0,0.0,0.0,0.0,0.4752722645474537,0.12100620376693952,0.35426606078051415,0.5962784683143932,0.12100620376693952,0.473802530769414,0,5,3,2,1,8,nan,nan,nan,nan,nan,nan,nan,nan,nan,nan,nan,nan,0.0,nan,nan,nan,nan,nan,nan,nan,nan,nan,nan,nan,nan,nan,nan,nan,nan,nan,nan,273.37119744735537,635.1897944963421,nan,635.6437518994207,nan,nan,nan,nan
1,236,1,1,1.0,1.0,0.4368444550782442,0,0.0,0.0,0.0,0.47517999241988323,0.12075211034108338,0.3544278820787998,0.5959321027609666,0.12075211034108338,0.46464901611519355,6,2,7,1,8,4,nan,nan,nan,nan,nan,nan,nan,nan,nan,nan,nan,nan,0.0,nan,nan,nan,nan,nan,nan,nan,nan,nan,nan,nan,nan,nan,nan,nan,nan,nan,nan,273.37119744735537,636.2148981433711,nan,636.6517425984493,nan,nan,nan,nan
1,237,1,1,1.0,1.0,0.46801126014906913,0,0.0,0.0,0.0,0.47501475303478996,0.1205177577764292,0.35449699525836076,0.5955325108112192,0.1205177577764292,0.4529377061019962,8,7,3,6,5,0,nan,nan,nan,nan,nan,nan,nan,nan,nan,nan,nan,nan,0.0,nan,nan,nan,nan,nan,nan,nan,nan,nan,nan,nan,nan,nan,nan,nan,nan,nan,nan,273.37119744735537,637.2317194371717,nan,637.6997306973208,nan,nan,nan,nan
1,238,0,0,0.0,1.0,0.50688908417942,0,0.0,0.0,0.0,0.4749846951254092,0.12025972936926094,0.35472496575614826,0.5952444244946702,0.12025972936926094,0.47058159980224445,7,3,4,5,8,1,nan,nan,nan,nan,nan,nan,nan,nan,nan,nan,nan,nan,0.0,nan,nan,nan,nan,nan,nan,nan,nan,nan,nan,nan,nan,nan,nan,nan,nan,nan,nan,273.37119744735537,638.2568250798504,nan,638.7637141640298,nan,nan,nan,nan
1,239,1,1,1.0,1.0,0.41768878698349,0,0.0,0.0,0.0,0.4751210386683751,0.12002053464688041,0.3551005040214947,0.5951415733152555,0.12002053464688041,0.46419637710399303,3,2,5,1,6,0,nan,nan,nan,nan,nan,nan,nan,nan,nan,nan,nan,nan,0.0,nan,nan,nan,nan,nan,nan,nan,nan,nan,nan,nan,nan,nan,nan,nan,nan,nan,nan,273.37119744735537,639.2819997160113,nan,639.6996885029948,nan,nan,nan,nan
1,240,1,1,1.0,1.0,0.3845436936826445,0,0.0,0.0,0.0,0.47487664610801383,0.11982323420415068,0.35505341190386314,0.5946998803121645,0.11982323420415068,0.43637385494851816,1,3,2,5,8,4,nan,nan,nan,nan,nan,nan,nan,nan,nan,nan,nan,nan,0.0,nan,nan,nan,nan,nan,nan,nan,nan,nan,nan,nan,nan,nan,nan,nan,nan,nan,nan,273.37119744735537,640.3071227496257,nan,640.6916664433083,nan,nan,nan,nan
1,241,0,0,1.0,0.0,0.43941175361396745,0,0.0,0.0,0.0,0.47449387936044873,0.11971299042055687,0.35478088893989185,0.5942068697810056,0.11971299042055687,0.41388141142670065,6,8,4,2,1,3,nan,nan,nan,nan,nan,nan,nan,nan,nan,nan,nan,nan,0.0,nan,nan,nan,nan,nan,nan,nan,nan,nan,nan,nan,nan,nan,nan,nan,nan,nan,nan,273.37119744735537,641.3322315284167,nan,641.7716432820307,nan,nan,nan,nan
1,242,1,1,1.0,1.0,0.4142425343161449,0,0.0,0.0,0.0,0.4743458535134171,0.11948180625739521,0.35486404725602194,0.5938276597708123,0.11948180625739521,0.4127326605375856,5,7,8,3,6,4,nan,nan,nan,nan,nan,nan,nan,nan,nan,nan,nan,nan,0.0,nan,nan,nan,nan,nan,nan,nan,nan,nan,nan,nan,nan,nan,nan,nan,nan,nan,nan,273.37119744735537,642.3573924798984,nan,642.7716350142146,nan,nan,nan,nan
1,243,1,1,1.0,1.0,0.38907388516236097,0,0.0,0.0,0.0,0.47409331855880676,0.11929389615561967,0.35479942240318707,0.5933872147144265,0.11929389615561967,0.41424272436415777,2,8,6,7,4,0,nan,nan,nan,nan,nan,nan,nan,nan,nan,nan,nan,nan,0.0,nan,nan,nan,nan,nan,nan,nan,nan,nan,nan,nan,nan,nan,nan,nan,nan,nan,nan,273.37119744735537,643.3825306236977,nan,643.77160450886,nan,nan,nan,nan
1,244,1,1,1.0,1.0,0.4599247685982846,0,0.0,0.0,0.0,0.4737375887119597,0.11917049547767185,0.35456709323428787,0.5929080841896316,0.11917049547767185,0.4210803960255968,4,6,8,3,0,2,nan,nan,nan,nan,nan,nan,nan,nan,nan,nan,nan,nan,0.0,nan,nan,nan,nan,nan,nan,nan,nan,nan,nan,nan,nan,nan,nan,nan,nan,nan,nan,273.37119744735537,644.4076465298422,nan,644.8675712984405,nan,nan,nan,nan
1,245,1,1,1.0,1.0,0.47475608525564894,0,0.0,0.0,0.0,0.4736800352948194,0.11892529290494754,0.35475474238987187,0.592605328199767,0.11892529290494754,0.44125157967209816,8,1,7,2,4,0,nan,nan,nan,nan,nan,nan,nan,nan,nan,nan,nan,nan,0.0,nan,nan,nan,nan,nan,nan,nan,nan,nan,nan,nan,nan,nan,nan,nan,nan,nan,nan,273.37119744735537,645.4327957924106,nan,645.9075518776663,nan,nan,nan,nan
1,246,0,0,0.0,1.0,0.4015802356880158,0,0.0,0.0,0.0,0.4736845002324162,0.11867832361034239,0.3550061766220738,0.5923628238427586,0.11867832361034239,0.44542036318064976,1,0,2,5,3,8,nan,nan,nan,nan,nan,nan,nan,nan,nan,nan,nan,nan,0.0,nan,nan,nan,nan,nan,nan,nan,nan,nan,nan,nan,nan,nan,nan,nan,nan,nan,nan,273.37119744735537,646.4579593098024,nan,646.8595395454904,nan,nan,nan,nan
1,247,1,1,1.0,1.0,0.3848245142144151,0,0.0,0.0,0.0,0.47338654872603436,0.11852315679651777,0.3548633919295166,0.5919097055225522,0.11852315679651777,0.4203869450526933,8,3,5,4,0,6,nan,nan,nan,nan,nan,nan,nan,nan,nan,nan,nan,nan,0.0,nan,nan,nan,nan,nan,nan,nan,nan,nan,nan,nan,nan,nan,nan,nan,nan,nan,nan,273.37119744735537,647.474683385517,nan,647.8595078997314,nan,nan,nan,nan
1,248,1,1,1.0,1.0,0.4079430307610892,0,0.0,0.0,0.0,0.47302209590911415,0.11841483407849958,0.3546072618306146,0.5914369299876138,0.11841483407849958,0.39811592688784003,1,8,4,2,7,3,nan,nan,nan,nan,nan,nan,nan,nan,nan,nan,nan,nan,0.0,nan,nan,nan,nan,nan,nan,nan,nan,nan,nan,nan,nan,nan,nan,nan,nan,nan,nan,273.37119744735537,648.4915520054055,nan,648.8994950361666,nan,nan,nan,nan
1,249,1,1,1.0,1.0,0.5511324338149279,0,0.0,0.0,0.0,0.4727553784289993,0.11824505065279207,0.3545103277762072,0.5910004290817914,0.11824505065279207,0.44796665959681076,7,5,0,1,4,8,nan,nan,nan,nan,nan,nan,nan,nan,nan,nan,nan,nan,0.0,nan,nan,nan,nan,nan,nan,nan,nan,nan,nan,nan,nan,nan,nan,nan,nan,nan,nan,273.37119744735537,649.5083462149487,nan,650.0594786487636,nan,nan,nan,nan
1,250,1,1,1.0,1.0,0.6860123994410969,0,0.0,0.0,0.0,0.47307528477751326,0.11810924618526153,0.35496603859225173,0.5911845309627748,0.11810924618526153,0.548362621339038,4,6,1,0,7,2,nan,nan,nan,nan,nan,nan,nan,nan,nan,nan,nan,nan,0.0,nan,nan,nan,nan,nan,nan,nan,nan,nan,nan,nan,nan,nan,nan,nan,nan,nan,nan,273.37119744735537,650.5334507172811,nan,651.2194631167222,nan,nan,nan,nan
1,251,1,1,1.0,1.0,0.6128382604802027,0,0.0,1.0,0.0,0.473940882804601,0.11864508519545987,0.35529579760914115,0.5925859680000609,0.11864508519545987,0.6166610312454092,0,7,5,4,1,6,nan,nan,nan,nan,nan,nan,nan,nan,nan,nan,nan,nan,0.0,nan,nan,nan,nan,nan,nan,nan,nan,nan,nan,nan,nan,nan,nan,nan,nan,nan,nan,273.37119744735537,651.5586025456432,nan,652.1714408061234,nan,nan,nan,nan
1,252,1,1,1.0,1.0,0.7156864366261289,1,0.0,0.0,1.0,0.4745032203660407,0.11873271124277451,0.3557705091232662,0.5932359316088152,0.11873271124277451,0.6715123655158095,2,6,1,7,4,3,1.0,1.0,1.0,1.0,1.0,1.0,0.0,1.0,0.0,0.0,0.0,0.0,1.0,5.0,6.0,7.0,8.0,0.0,4.0,2.0,1.0,6.0,5.0,3.0,4.0,2.512042782851495,1.752483622636646,7.142793973558582,6.239729807886761,3.479620410478674,4.407468914461788,273.37119744735537,652.5837255792576,653.3921324058902,653.2994120158837,661.5848656822345,662.5817638267763,654.4006103356369,661.5765322966035
1,253,1,1,1.0,1.0,0.3135109183494933,0,0.0,0.0,0.0,0.47547573333483134,0.11947476787886466,0.3560009654559667,0.594950501213696,0.11947476787886466,0.5473452051519416,4,0,7,5,2,1,nan,nan,nan,nan,nan,nan,nan,nan,nan,nan,nan,nan,0.0,nan,nan,nan,nan,nan,nan,nan,nan,nan,nan,nan,nan,nan,nan,nan,nan,nan,nan,273.37119744735537,662.801706761762,nan,663.1152176801115,nan,nan,nan,nan
1,254,1,1,1.0,1.0,0.34434644074644893,0,0.0,0.0,0.0,0.4748252722304726,0.11967381788470935,0.35515145434576323,0.594499090115182,0.11967381788470935,0.457847931907357,0,3,5,7,4,6,nan,nan,nan,nan,nan,nan,nan,nan,nan,nan,nan,nan,0.0,nan,nan,nan,nan,nan,nan,nan,nan,nan,nan,nan,nan,nan,nan,nan,nan,nan,nan,273.37119744735537,663.8268466161098,nan,664.1711930568563,nan,nan,nan,nan
1,255,1,1,1.0,1.0,0.36718869826290756,0,1.0,0.0,0.0,0.4743033569045365,0.11971784287485498,0.3545855140296815,0.5940211997793915,0.11971784287485498,0.3416820191196166,8,4,0,2,1,7,nan,nan,nan,nan,nan,nan,nan,nan,nan,nan,nan,nan,0.0,nan,nan,nan,nan,nan,nan,nan,nan,nan,nan,nan,nan,nan,nan,nan,nan,nan,nan,273.37119744735537,664.8519844747498,nan,665.2191731730127,nan,nan,nan,nan
1,256,1,1,1.0,1.0,0.3663556448300369,1,0.0,0.0,1.0,0.4738766052764822,0.11966950362219911,0.35420710165428304,0.5935461088986813,0.11966950362219911,0.35929692794646445,5,2,8,7,4,0,1.0,1.0,1.0,1.0,1.0,1.0,0.0,1.0,0.0,0.0,0.0,1.0,2.0,1.0,2.0,5.0,4.0,8.0,0.0,3.0,4.0,5.0,6.0,2.0,1.0,4.803025050321594,6.034711131127551,6.769200570881367,8.368967133457772,2.834761194186285,1.778042284422554,273.37119744735537,665.868784101156,666.6771989104454,666.2351397459861,676.1034120980185,677.1050676563755,667.6939925498446,676.0950761465356
1,257,1,1,1.0,1.0,0.5702678600791842,0,0.0,0.0,0.0,0.4734499347985201,0.11962297244651511,0.353826962352005,0.5930729072450353,0.11962297244651511,0.43460406772404286,4,5,1,8,6,3,nan,nan,nan,nan,nan,nan,nan,nan,nan,nan,nan,nan,0.0,nan,nan,nan,nan,nan,nan,nan,nan,nan,nan,nan,nan,nan,nan,nan,nan,nan,nan,273.37119744735537,677.3286381656653,nan,677.8989060257445,nan,nan,nan,nan
1,258,1,1,1.0,1.0,0.4494796694489196,0,0.0,0.0,0.0,0.473832614345084,0.11954078563294601,0.354291828712138,0.59337339997803,0.11954078563294601,0.4620343914527136,1,3,2,0,7,4,nan,nan,nan,nan,nan,nan,nan,nan,nan,nan,nan,nan,0.0,nan,nan,nan,nan,nan,nan,nan,nan,nan,nan,nan,nan,nan,nan,nan,nan,nan,nan,273.37119744735537,678.3453995891032,nan,678.7948792585521,nan,nan,nan,nan
1,259,1,1,1.0,1.0,0.38464661373291165,0,0.0,0.0,0.0,0.47373673660927235,0.11931498356092642,0.35442175304834594,0.5930517201701988,0.11931498356092642,0.46813138108700514,6,1,7,5,4,3,nan,nan,nan,nan,nan,nan,nan,nan,nan,nan,nan,nan,0.0,nan,nan,nan,nan,nan,nan,nan,nan,nan,nan,nan,nan,nan,nan,nan,nan,nan,nan,273.37119744735537,679.3622106193798,nan,679.7468572331127,nan,nan,nan,nan
1,260,1,1,1.0,1.0,0.43142618640558794,0,0.0,0.0,0.0,0.4733873635783846,0.11921091065759741,0.3541764529207872,0.592598274235982,0.11921091065759741,0.4218508231958064,2,8,6,4,7,5,nan,nan,nan,nan,nan,nan,nan,nan,nan,nan,nan,nan,0.0,nan,nan,nan,nan,nan,nan,nan,nan,nan,nan,nan,nan,nan,nan,nan,nan,nan,nan,273.37119744735537,680.3874217479606,nan,680.8188479343662,nan,nan,nan,nan
1,261,1,1,1.0,1.0,0.7186836614855565,0,0.0,0.0,0.0,0.4732234527300534,0.11900663672325146,0.35421681600680194,0.5922300894533048,0.11900663672325146,0.5115854872080187,4,5,1,2,0,7,nan,nan,nan,nan,nan,nan,nan,nan,nan,nan,nan,nan,0.0,nan,nan,nan,nan,nan,nan,nan,nan,nan,nan,nan,nan,nan,nan,nan,nan,nan,nan,273.37119744735537,681.4041409770143,nan,682.1228246384999,nan,nan,nan,nan
1,262,1,1,1.0,1.0,0.7015476205851883,0,0.0,1.0,0.0,0.4741785508185962,0.11975390863959216,0.35442464217900405,0.5939324594581884,0.11975390863959216,0.6172191561587775,2,6,3,5,8,4,nan,nan,nan,nan,nan,nan,nan,nan,nan,nan,nan,nan,0.0,nan,nan,nan,nan,nan,nan,nan,nan,nan,nan,nan,nan,nan,nan,nan,nan,nan,nan,273.37119744735537,682.4292497558054,nan,683.1307973763905,nan,nan,nan,nan
1,263,1,1,1.0,1.0,0.4602874119882472,1,0.0,0.0,1.0,0.4750598262828078,0.12035369335627735,0.3547061329265304,0.5954135196390852,0.12035369335627735,0.6268395646863306,1,4,5,7,2,0,1.0,1.0,1.0,1.0,1.0,1.0,1.0,1.0,0.0,0.0,0.0,1.0,3.0,1.0,4.0,8.0,3.0,6.0,0.0,2.0,6.0,5.0,4.0,3.0,1.0,2.6257659844122827,6.703297546075191,5.695425162324682,4.672462023678236,3.663534781022463,1.6406144069042057,273.37119744735537,683.4544931003475,684.2628104065079,683.9147805123357,692.0221605905681,693.0323633572552,685.2796194410766,692.0138266347931
1,264,1,1,1.0,1.0,0.45889841933967546,0,0.0,0.0,0.0,0.47500278993418016,0.12012461916933599,0.3548781707648442,0.5951274091035161,0.12012461916933599,0.540244483971037,5,6,0,4,1,7,nan,nan,nan,nan,nan,nan,nan,nan,nan,nan,nan,nan,0.0,nan,nan,nan,nan,nan,nan,nan,nan,nan,nan,nan,nan,nan,nan,nan,nan,nan,nan,273.37119744735537,693.2556809855741,nan,693.7145794049138,nan,nan,nan,nan
1,265,1,1,1.0,1.0,0.37775981036247686,0,0.0,0.0,0.0,0.4749408500472782,0.11989753162065989,0.3550433184266183,0.5948383816679381,0.11989753162065989,0.43231521389679983,7,2,3,1,4,5,nan,nan,nan,nan,nan,nan,nan,nan,nan,nan,nan,nan,0.0,nan,nan,nan,nan,nan,nan,nan,nan,nan,nan,nan,nan,nan,nan,nan,nan,nan,nan,273.37119744735537,694.2808174187085,nan,694.6585772290709,nan,nan,nan,nan
1,266,1,1,1.0,1.0,0.360582715482451,0,0.0,0.0,0.0,0.4745685088990606,0.11981813602486349,0.3547503728741971,0.5943866449239241,0.11981813602486349,0.39908031506153446,8,0,7,5,2,6,nan,nan,nan,nan,nan,nan,nan,nan,nan,nan,nan,nan,0.0,nan,nan,nan,nan,nan,nan,nan,nan,nan,nan,nan,nan,nan,nan,nan,nan,nan,nan,273.37119744735537,695.3059529965976,nan,695.6665357120801,nan,nan,nan,nan
1,267,1,1,1.0,1.0,0.3674353071837686,0,0.0,0.0,0.0,0.47413344861884454,0.1197956249990142,0.35433782361983035,0.5939290736178587,0.1197956249990142,0.3685926110095655,7,4,0,1,8,5,nan,nan,nan,nan,nan,nan,nan,nan,nan,nan,nan,nan,0.0,nan,nan,nan,nan,nan,nan,nan,nan,nan,nan,nan,nan,nan,nan,nan,nan,nan,nan,273.37119744735537,696.3310894297902,nan,696.6985247369739,nan,nan,nan,nan
1,268,1,1,1.0,1.0,0.45460742426803336,0,0.0,0.0,0.0,0.47372775226357805,0.11974785057711332,0.35397990168646476,0.5934756028406913,0.11974785057711332,0.39420848231141764,5,2,8,6,4,1,nan,nan,nan,nan,nan,nan,nan,nan,nan,nan,nan,nan,0.0,nan,nan,nan,nan,nan,nan,nan,nan,nan,nan,nan,nan,nan,nan,nan,nan,nan,nan,273.37119744735537,697.3478907668032,nan,697.8024981910712,nan,nan,nan,nan
1,269,1,1,1.0,1.0,0.5174678937764838,0,0.0,0.0,0.0,0.47365532677874644,0.11952661127458122,0.35412871550416525,0.5931819380533276,0.11952661127458122,0.4465035417427619,6,8,2,1,0,7,nan,nan,nan,nan,nan,nan,nan,nan,nan,nan,nan,nan,0.0,nan,nan,nan,nan,nan,nan,nan,nan,nan,nan,nan,nan,nan,nan,nan,nan,nan,nan,273.37119744735537,698.3730041070958,nan,698.8904720008723,nan,nan,nan,nan
1,270,1,1,1.0,1.0,0.5886360902222805,0,0.0,0.0,0.0,0.47382065722024735,0.11933111614661346,0.3544895410736339,0.5931517733668608,0.11933111614661346,0.5202371360889325,2,0,5,4,6,1,nan,nan,nan,nan,nan,nan,nan,nan,nan,nan,nan,nan,0.0,nan,nan,nan,nan,nan,nan,nan,nan,nan,nan,nan,nan,nan,nan,nan,nan,nan,nan,273.37119744735537,699.3898219796829,nan,699.9784580699052,nan,nan,nan,nan
1,271,1,1,1.0,1.0,0.5634859724086709,0,0.0,0.0,0.0,0.4742522941864204,0.11931367917973029,0.3549386150066901,0.5935659733661507,0.11931367917973029,0.5565299854691451,3,1,0,6,4,8,nan,nan,nan,nan,nan,nan,nan,nan,nan,nan,nan,nan,0.0,nan,nan,nan,nan,nan,nan,nan,nan,nan,nan,nan,nan,nan,nan,nan,nan,nan,nan,273.37119744735537,700.4149410219397,nan,700.9784269943484,nan,nan,nan,nan
1,272,1,1,1.0,1.0,0.5303260540822521,0,0.0,0.0,0.0,0.47458650271908803,0.1192147120529354,0.35537179066615265,0.5938012147720234,0.1192147120529354,0.5608160389044011,6,4,7,0,2,3,nan,nan,nan,nan,nan,nan,nan,nan,nan,nan,nan,nan,0.0,nan,nan,nan,nan,nan,nan,nan,nan,nan,nan,nan,nan,nan,nan,nan,nan,nan,nan,273.37119744735537,701.4400805911864,nan,701.9704066452687,nan,nan,nan,nan
1,273,1,1,1.0,1.0,0.5131823155097663,0,0.0,0.0,0.0,0.4747944861196968,0.11904060993136,0.3557538761883368,0.5938350960510568,0.11904060993136,0.5356647806668965,2,7,6,4,5,1,nan,nan,nan,nan,nan,nan,nan,nan,nan,nan,nan,nan,0.0,nan,nan,nan,nan,nan,nan,nan,nan,nan,nan,nan,nan,nan,nan,nan,nan,nan,nan,273.37119744735537,702.4652110373718,nan,702.9783933528815,nan,nan,nan,nan
1,274,0,0,0.0,1.0,0.6960027688764967,0,0.0,0.0,0.0,0.4749371918051618,0.11884210344251066,0.35609508836265114,0.5937792952476725,0.11884210344251066,0.5798370461561717,6,3,1,5,2,4,nan,nan,nan,nan,nan,nan,nan,nan,nan,nan,nan,nan,0.0,nan,nan,nan,nan,nan,nan,nan,nan,nan,nan,nan,nan,nan,nan,nan,nan,nan,nan,273.37119744735537,703.4903645763407,nan,704.1863673452171,nan,nan,nan,nan
