block,trial,freq_trials,correct_response,actual_response,acc,rts,probe_trials,fast_rt_trigger,slow_rt_trigger,rt_triggered,rts_runningavg,rts_runningstd,rts_runningfastthresh,rts_runningslowthresh,rts_runningstd,rts_trailingavg,trials_colorind,trials_colorrgb0,trials_colorrgb1,trials_colorrgb2,wm_respdeg,wm_respdeg_in_colorspace,wm_respcolorminusorigcolor,wm_resptexind,wm_resptexrgb0,wm_resptexrgb1,wm_resptexrgb2,wm_rts,time_blockstart,time_encarray_offset,time_encarray_onset,time_response,time_iti_offset,time_iti_onset,time_memprobe_offset,time_memprobe_onset
1,1,1,1,1.0,1.0,0.583443546842,0,nan,nan,nan,nan,nan,nan,nan,nan,nan,298,0.0600896634305,0.391050340636,0.53969689008,nan,nan,nan,nan,nan,nan,nan,nan,916.681722791,917.706256751,nan,918.289700298,nan,nan,nan,nan
1,2,1,1,1.0,1.0,0.368806532817,0,nan,nan,nan,nan,nan,nan,nan,nan,nan,150,1.0,-0.266152531622,0.0638227105866,nan,nan,nan,nan,nan,nan,nan,nan,916.681722791,918.648884261,nan,919.017690794,nan,nan,nan,nan
1,3,1,1,1.0,1.0,0.427797229262,0,nan,nan,nan,nan,nan,nan,nan,nan,nan,260,0.438016636947,0.272781976488,0.654406567654,nan,nan,nan,nan,nan,nan,nan,nan,916.681722791,919.589857643,nan,920.017654872,nan,nan,nan,nan
1,4,1,1,1.0,1.0,0.413975191477,0,nan,nan,nan,nan,nan,nan,nan,nan,nan,107,1.0,-0.290089771429,-0.379592780214,nan,nan,nan,nan,nan,nan,nan,nan,916.681722791,920.531642123,nan,920.945617315,nan,nan,nan,nan
1,5,1,1,1.0,1.0,0.376218750956,0,nan,nan,nan,nan,nan,nan,nan,nan,nan,435,0.221263830514,0.433027056876,-1.0,nan,nan,nan,nan,nan,nan,nan,nan,916.681722791,921.473402085,nan,921.849620836,nan,nan,nan,nan
1,6,1,1,1.0,1.0,0.410353043291,0,nan,nan,nan,nan,nan,nan,nan,nan,nan,257,0.470472903111,0.261039853404,0.655841377839,nan,nan,nan,nan,nan,nan,nan,nan,916.681722791,922.415237598,nan,922.825590641,nan,nan,nan,nan
1,7,1,1,1.0,1.0,0.30854487716,0,nan,nan,nan,nan,nan,nan,nan,nan,nan,128,1.0,-0.310663006781,-0.156689791083,nan,nan,nan,nan,nan,nan,nan,nan,916.681722791,923.357021223,nan,923.6655661,nan,nan,nan,nan
1,8,1,1,1.0,1.0,0.270733983256,0,nan,nan,nan,nan,nan,nan,nan,nan,nan,10,0.926811495151,0.168400576072,-1.0,nan,nan,nan,nan,nan,nan,nan,nan,916.681722791,924.298813401,nan,924.569547384,nan,nan,nan,nan
1,9,1,1,1.0,1.0,0.304908759252,0,nan,nan,nan,nan,nan,nan,nan,nan,nan,379,-0.113535935895,0.478614986251,-0.165970515924,nan,nan,nan,nan,nan,nan,nan,nan,916.681722791,925.240616697,nan,925.545525457,nan,nan,nan,nan
1,10,1,1,1.0,1.0,0.267088457127,0,nan,nan,nan,nan,nan,nan,nan,nan,nan,285,0.178734351563,0.356878681702,0.598527012995,nan,nan,nan,nan,nan,nan,nan,nan,916.681722791,926.182406024,nan,926.449494482,nan,nan,nan,nan
1,11,1,1,1.0,1.0,0.325261212303,0,nan,nan,nan,nan,nan,nan,nan,nan,nan,465,0.456588679398,0.37096152752,-1.0,nan,nan,nan,nan,nan,nan,nan,nan,916.681722791,927.124198487,nan,927.4494597,nan,nan,nan,nan
1,12,1,1,1.0,1.0,0.663452966372,0,nan,nan,nan,nan,nan,nan,nan,nan,nan,382,-0.1011887567,0.478291136399,-0.199732273247,nan,nan,nan,nan,nan,nan,nan,nan,916.681722791,928.065998078,nan,928.729451044,nan,nan,nan,nan
1,13,1,1,1.0,1.0,0.609637622663,0,nan,nan,nan,nan,nan,nan,nan,nan,nan,444,0.289241202529,0.417409780569,-1.0,nan,nan,nan,nan,nan,nan,nan,nan,916.681722791,929.007777997,nan,929.617415619,nan,nan,nan,nan
1,14,1,1,1.0,1.0,0.403848286544,0,nan,nan,nan,nan,nan,nan,nan,nan,nan,2,0.863024578927,0.203622855609,-1.0,nan,nan,nan,nan,nan,nan,nan,nan,916.681722791,929.949560481,nan,930.353408768,nan,nan,nan,nan
1,15,1,1,1.0,1.0,0.390019691549,0,nan,nan,nan,nan,nan,nan,nan,nan,nan,451,0.343830962376,0.403518361206,-1.0,nan,nan,nan,nan,nan,nan,nan,nan,916.681722791,930.891361212,nan,931.281380904,nan,nan,nan,nan
1,16,1,1,1.0,1.0,0.352210793353,0,nan,nan,nan,nan,nan,nan,nan,nan,nan,318,-0.0835627602325,0.431640264478,0.413481556053,nan,nan,nan,nan,nan,nan,nan,nan,916.681722791,931.833155386,nan,932.185366179,nan,nan,nan,nan
1,17,1,1,1.0,1.0,0.338394457474,0,nan,nan,nan,nan,nan,nan,nan,nan,nan,54,1.0,-0.0546292063271,-1.0,nan,nan,nan,nan,nan,nan,nan,nan,916.681722791,932.774953266,nan,933.113347723,nan,nan,nan,nan
1,18,1,1,1.0,1.0,0.36457684444,0,nan,nan,nan,nan,nan,nan,nan,nan,nan,313,-0.0530221528698,0.42279583272,0.448797959603,nan,nan,nan,nan,nan,nan,nan,nan,916.681722791,933.716745444,nan,934.081322288,nan,nan,nan,nan
1,19,0,0,0.0,1.0,0.486762552173,0,nan,nan,nan,nan,nan,nan,nan,nan,nan,256,0.481312611765,0.257047908656,0.656065722404,nan,nan,nan,nan,nan,nan,nan,nan,916.681722791,934.658546174,nan,935.145308727,nan,nan,nan,nan
1,20,1,1,1.0,1.0,0.432954050775,0,nan,nan,nan,nan,nan,nan,nan,nan,nan,13,0.950262168777,0.154664060346,-1.0,nan,nan,nan,nan,nan,nan,nan,nan,916.681722791,935.600335501,nan,936.033289552,nan,nan,nan,nan
1,21,1,1,1.0,1.0,0.419128306734,0,nan,nan,nan,nan,nan,nan,nan,nan,nan,315,-0.0657111424032,0.426434809442,0.434956515233,nan,nan,nan,nan,nan,nan,nan,nan,916.681722791,936.542132241,nan,936.961260548,nan,nan,nan,nan
1,22,1,1,1.0,1.0,0.325302551268,0,nan,nan,nan,nan,nan,nan,nan,nan,nan,484,0.614398947124,0.316112737715,-1.0,nan,nan,nan,nan,nan,nan,nan,nan,916.681722791,937.483930976,nan,937.809233527,nan,nan,nan,nan
1,23,1,1,1.0,1.0,0.303504945128,1,nan,nan,nan,nan,nan,nan,nan,nan,nan,430,0.184725017221,0.440645728776,-0.941904167281,168.584160476,281.415839524,-20.9279104756,400.0,-0.0107874812989,0.471427301814,-0.412692688905,1.95056972216,916.681722791,938.425707188,939.234141876,938.729212134,942.217803578,943.215805053,940.250879023,942.209475916
1,24,0,0,0.0,1.0,0.601406037807,0,nan,nan,nan,nan,nan,nan,nan,nan,nan,166,1.0,-0.20036215083,0.21267421211,nan,nan,nan,nan,nan,nan,nan,nan,916.681722791,943.359695426,nan,943.961101464,nan,nan,nan,nan
1,25,1,1,1.0,1.0,0.403591129754,0,nan,nan,nan,nan,nan,nan,nan,nan,nan,90,1.0,-0.233635786423,-0.574971871003,nan,nan,nan,nan,nan,nan,nan,nan,916.681722791,944.301482187,nan,944.705073317,nan,nan,nan,nan
1,26,0,0,0.0,1.0,0.533833943366,0,nan,nan,nan,nan,nan,nan,nan,nan,nan,151,1.0,-0.262720288689,0.0734626651272,nan,nan,nan,nan,nan,nan,nan,nan,916.681722791,945.24327579,nan,945.777109734,nan,nan,nan,nan
1,27,1,1,1.0,1.0,0.37593964173,0,nan,nan,nan,nan,nan,nan,nan,nan,nan,223,0.83172397378,0.104890589731,0.593432239612,nan,nan,nan,nan,nan,nan,nan,nan,916.681722791,946.18510275,nan,946.561042392,nan,nan,nan,nan
1,28,1,1,1.0,1.0,0.402142840612,0,nan,nan,nan,nan,nan,nan,nan,nan,nan,495,0.706485112283,0.278551693791,-1.0,nan,nan,nan,nan,nan,nan,nan,nan,916.681722791,947.126862997,nan,947.529005838,nan,nan,nan,nan
1,29,1,1,1.0,1.0,0.444335094129,0,nan,nan,nan,nan,nan,nan,nan,nan,nan,30,1.0,0.071945658744,-1.0,nan,nan,nan,nan,nan,nan,nan,nan,916.681722791,948.068656886,nan,948.51299198,nan,nan,nan,nan
1,30,1,1,1.0,1.0,0.366514073627,0,nan,nan,nan,nan,nan,nan,nan,nan,nan,163,1.0,-0.214247802105,0.185723682048,nan,nan,nan,nan,nan,nan,nan,nan,916.681722791,949.010455336,nan,949.376969409,nan,nan,nan,nan
1,31,1,1,1.0,1.0,0.336708968331,0,nan,nan,nan,nan,nan,nan,nan,nan,nan,76,1.0,-0.169674511773,-0.773365826749,nan,nan,nan,nan,nan,nan,nan,nan,916.681722791,949.952240671,nan,950.28894964,nan,nan,nan,nan
1,32,1,1,1.0,1.0,0.298880113289,0,nan,nan,nan,nan,nan,nan,nan,nan,nan,371,-0.14179360683,0.478331938097,-0.0779732583494,nan,nan,nan,nan,nan,nan,nan,nan,916.681722791,950.894032849,nan,951.192912963,nan,nan,nan,nan
1,33,0,0,0.0,1.0,0.43706684967,0,nan,nan,nan,nan,nan,nan,nan,nan,nan,48,1.0,-0.0224273256894,-1.0,nan,nan,nan,nan,nan,nan,nan,nan,916.681722791,951.835824457,nan,952.272891307,nan,nan,nan,nan
1,34,1,1,1.0,1.0,0.311261274444,0,nan,nan,nan,nan,nan,nan,nan,nan,nan,492,0.681403316433,0.289222019555,-1.0,nan,nan,nan,nan,nan,nan,nan,nan,916.681722791,952.777616065,nan,953.088877339,nan,nan,nan,nan
1,35,1,1,1.0,1.0,0.329426754091,0,nan,nan,nan,nan,nan,nan,nan,nan,nan,62,1.0,-0.0974372467467,-1.0,nan,nan,nan,nan,nan,nan,nan,nan,916.681722791,953.719423638,nan,954.048850392,nan,nan,nan,nan
1,36,1,1,1.0,1.0,0.291640378418,0,nan,nan,nan,nan,nan,nan,nan,nan,nan,128,1.0,-0.310663006781,-0.156689791083,nan,nan,nan,nan,nan,nan,nan,nan,916.681722791,954.661204127,nan,954.952844505,nan,nan,nan,nan
1,37,1,1,1.0,1.0,0.317810791254,0,nan,nan,nan,nan,nan,nan,nan,nan,nan,494,0.698129958021,0.282143999684,-1.0,nan,nan,nan,nan,nan,nan,nan,nan,916.681722791,955.602999156,nan,955.920809947,nan,nan,nan,nan
1,38,1,1,1.0,1.0,0.327989298617,0,nan,nan,nan,nan,nan,nan,nan,nan,nan,44,1.0,-0.00106984144607,-1.0,nan,nan,nan,nan,nan,nan,nan,nan,916.681722791,956.544795895,nan,956.872785194,nan,nan,nan,nan
1,39,1,1,1.0,1.0,0.322190440318,1,nan,nan,nan,nan,nan,nan,nan,nan,nan,473,0.522594813828,0.349396171415,-1.0,149.432062936,300.567937064,-32.0101879361,427.0,0.163265173604,0.444863218481,-0.840208708629,2.16734210728,916.681722791,957.486584082,958.294998242,957.808774522,961.495387285,962.496957025,959.31176561,961.487065324
1,40,1,1,1.0,1.0,0.555380664824,0,nan,nan,nan,nan,nan,nan,nan,nan,nan,301,0.0351599448551,0.39804275895,0.523414514543,nan,nan,nan,nan,nan,nan,nan,nan,916.681722791,962.637275141,nan,963.192655806,nan,nan,nan,nan
1,41,0,0,0.0,1.0,0.525567291712,0,nan,nan,nan,nan,nan,nan,nan,nan,nan,249,0.557275547736,0.228026269286,0.654084877906,nan,nan,nan,nan,nan,nan,nan,nan,916.681722791,963.579066749,nan,964.10463404,nan,nan,nan,nan
1,42,1,1,1.0,1.0,0.343747710285,0,nan,nan,nan,nan,nan,nan,nan,nan,nan,94,1.0,-0.249439013202,-0.526745155233,nan,nan,nan,nan,nan,nan,nan,nan,916.681722791,964.520866339,nan,964.864614049,nan,nan,nan,nan
1,43,1,1,1.0,1.0,0.417945727415,0,nan,nan,nan,nan,nan,nan,nan,nan,nan,237,0.686387300223,0.174031846447,0.636349816437,nan,nan,nan,nan,nan,nan,nan,nan,916.681722791,965.4626531,nan,965.880598828,nan,nan,nan,nan
1,44,1,1,1.0,1.0,0.316121595795,0,nan,nan,nan,nan,nan,nan,nan,nan,nan,14,0.95801504718,0.150023555696,-1.0,nan,nan,nan,nan,nan,nan,nan,nan,916.681722791,966.404445848,nan,966.720567444,nan,nan,nan,nan
1,45,0,0,nan,nan,nan,0,nan,nan,nan,nan,nan,nan,nan,nan,nan,430,0.184725017221,0.440645728776,-0.941904167281,nan,nan,nan,nan,nan,nan,nan,nan,916.681722791,967.346239737,nan,nan,nan,nan,nan,nan
1,46,1,1,1.0,1.0,0.464448351529,0,nan,nan,nan,nan,nan,nan,nan,nan,nan,105,1.0,-0.285049837405,-0.401580786678,nan,nan,nan,nan,nan,nan,nan,nan,916.681722791,968.288027638,nan,968.75247599,nan,nan,nan,nan
1,47,1,1,1.0,1.0,0.330688875285,0,nan,nan,nan,nan,nan,nan,nan,nan,nan,307,-0.0113868739462,0.411053355611,0.487957006857,nan,nan,nan,nan,nan,nan,nan,nan,916.681722791,969.229797579,nan,969.560486454,nan,nan,nan,nan
1,48,1,1,1.0,1.0,0.316860850493,0,nan,nan,nan,nan,nan,nan,nan,nan,nan,502,0.764740937618,0.25241357569,-1.0,nan,nan,nan,nan,nan,nan,nan,nan,916.681722791,970.171613135,nan,970.488473985,nan,nan,nan,nan
1,49,1,1,1.0,1.0,0.407037658675,0,nan,nan,nan,nan,nan,nan,nan,nan,nan,157,1.0,-0.240048375319,0.130425901556,nan,nan,nan,nan,nan,nan,nan,nan,916.681722791,971.113405883,nan,971.520443541,nan,nan,nan,nan
1,50,1,1,1.0,1.0,0.369229615666,0,nan,nan,nan,nan,nan,nan,nan,nan,nan,411,0.0555201669072,0.463022710015,-0.557054760163,nan,nan,nan,nan,nan,nan,nan,nan,916.681722791,972.055198346,nan,972.424427961,nan,nan,nan,nan
1,51,1,1,1.0,1.0,0.395413428079,0,nan,nan,nan,nan,nan,nan,nan,nan,nan,335,-0.155595990888,0.455627721073,0.276893227044,nan,nan,nan,nan,nan,nan,nan,nan,916.681722791,972.996990524,nan,973.392403952,nan,nan,nan,nan
1,52,1,1,1.0,1.0,0.341592667566,0,nan,nan,nan,nan,nan,nan,nan,nan,nan,80,1.0,-0.189075709245,-0.708965549488,nan,nan,nan,nan,nan,nan,nan,nan,916.681722791,973.93879325,nan,974.280385918,nan,nan,nan,nan
1,53,1,1,1.0,1.0,0.311804953089,0,nan,nan,nan,nan,nan,nan,nan,nan,nan,423,0.135229581944,0.450080889006,-0.750039916123,nan,nan,nan,nan,nan,nan,nan,nan,916.681722791,974.880568037,nan,975.19237299,nan,nan,nan,nan
1,54,1,1,1.0,1.0,0.36997257662,0,nan,nan,nan,nan,nan,nan,nan,nan,nan,483,0.606025706087,0.319314454546,-1.0,nan,nan,nan,nan,nan,nan,nan,nan,916.681722791,975.822369338,nan,976.192341915,nan,nan,nan,nan
1,55,1,1,1.0,1.0,0.308155720704,0,nan,nan,nan,nan,nan,nan,nan,nan,nan,308,-0.0186828559465,0.413097475488,0.481682330771,nan,nan,nan,nan,nan,nan,nan,nan,916.681722791,976.764171209,nan,977.07232693,nan,nan,nan,nan
1,56,1,1,1.0,1.0,0.270343971497,0,nan,nan,nan,nan,nan,nan,nan,nan,nan,154,1.0,-0.251813147593,0.102138173725,nan,nan,nan,nan,nan,nan,nan,nan,916.681722791,977.705957685,nan,977.976301657,nan,nan,nan,nan
1,57,1,1,1.0,1.0,0.264562789176,0,nan,nan,nan,nan,nan,nan,nan,nan,nan,52,1.0,-0.0438860552364,-1.0,nan,nan,nan,nan,nan,nan,nan,nan,916.681722791,978.647731617,nan,978.912294406,nan,nan,nan,nan
1,58,1,1,1.0,1.0,0.266754894459,0,nan,nan,nan,nan,nan,nan,nan,nan,nan,493,0.689769084006,0.285700779988,-1.0,nan,nan,nan,nan,nan,nan,nan,nan,916.681722791,979.589507545,nan,979.856262439,nan,nan,nan,nan
1,59,1,1,1.0,1.0,0.308899251802,1,nan,nan,nan,nan,nan,nan,nan,nan,nan,416,0.087881616042,0.458117504295,-0.630165317015,-179.714948722,269.714948722,-22.7850512776,384.0,-0.0924750057551,0.477945316949,-0.222479273925,1.49227973534,916.681722791,980.531337926,981.339756648,980.840237177,983.865092156,984.866848634,982.356544257,983.856756226
1,60,1,1,1.0,1.0,0.385216959694,0,nan,nan,nan,nan,nan,nan,nan,nan,nan,203,1.0,-0.00249325098487,0.493674673203,nan,nan,nan,nan,nan,nan,nan,nan,916.681722791,985.006932686,nan,985.392149646,nan,nan,nan,nan
1,61,1,1,1.0,1.0,0.339384026651,0,nan,nan,nan,nan,nan,nan,nan,nan,nan,23,1.0,0.106943944166,-1.0,nan,nan,nan,nan,nan,nan,nan,nan,916.681722791,985.948728856,nan,986.288112882,nan,nan,nan,nan
1,62,1,1,1.0,1.0,0.293573616247,0,nan,nan,nan,nan,nan,nan,nan,nan,nan,116,1.0,-0.306446923025,-0.282515442494,nan,nan,nan,nan,nan,nan,nan,nan,916.681722791,986.890517327,nan,987.184090943,nan,nan,nan,nan
1,63,1,1,1.0,1.0,0.263756251836,0,nan,nan,nan,nan,nan,nan,nan,nan,nan,443,0.281558783006,0.419268214519,-1.0,nan,nan,nan,nan,nan,nan,nan,nan,916.681722791,987.832313496,nan,988.096069748,nan,nan,nan,nan
1,64,1,1,1.0,1.0,0.249921099632,0,nan,nan,nan,nan,nan,nan,nan,nan,nan,266,0.373577590308,0.295207490188,0.648113769863,nan,nan,nan,nan,nan,nan,nan,nan,916.681722791,988.774120499,nan,989.024041599,nan,nan,nan,nan
1,65,0,0,1.0,0.0,0.276117741363,0,0.0,0.0,0.0,nan,nan,nan,nan,nan,nan,344,-0.172543464245,0.464730234515,0.195503824632,nan,nan,nan,nan,nan,nan,nan,nan,916.681722791,989.715900703,nan,989.992018445,nan,nan,nan,nan
1,66,1,1,1.0,1.0,0.262311383849,0,nan,nan,nan,nan,nan,nan,nan,nan,nan,184,1.0,-0.107671891867,0.362640045218,nan,nan,nan,nan,nan,nan,nan,nan,916.681722791,990.657694592,nan,990.920005976,nan,nan,nan,nan
1,67,1,1,1.0,1.0,0.272490176314,0,nan,nan,nan,nan,nan,nan,nan,nan,nan,67,1.0,-0.12380466598,-1.0,nan,nan,nan,nan,nan,nan,nan,nan,916.681722791,991.599486485,nan,991.871976661,nan,nan,nan,nan
1,68,1,1,1.0,1.0,0.258686669811,0,nan,nan,nan,nan,nan,nan,nan,nan,nan,449,0.328095008353,0.407646248688,-1.0,nan,nan,nan,nan,nan,nan,nan,nan,916.681722791,992.541282369,nan,992.799969039,nan,nan,nan,nan
1,69,1,1,1.0,1.0,0.308865895553,0,nan,nan,nan,nan,nan,nan,nan,nan,nan,290,0.131265381085,0.370776544741,0.578206616232,nan,nan,nan,nan,nan,nan,nan,nan,916.681722791,993.483073691,nan,993.791939587,nan,nan,nan,nan
1,70,1,1,1.0,1.0,0.287051183637,0,nan,nan,nan,nan,nan,nan,nan,nan,nan,146,1.0,-0.278792578557,0.0248813210997,nan,nan,nan,nan,nan,nan,nan,nan,916.681722791,994.424866154,nan,994.711917338,nan,nan,nan,nan
1,71,1,1,1.0,1.0,0.273245111224,0,nan,nan,nan,nan,nan,nan,nan,nan,nan,330,-0.139766326074,0.449518327743,0.319540245599,nan,nan,nan,nan,nan,nan,nan,nan,916.681722791,995.366659473,nan,995.639904584,nan,nan,nan,nan
1,72,1,1,1.0,1.0,0.275415264128,1,nan,nan,nan,nan,nan,nan,nan,nan,nan,473,0.522594813828,0.349396171415,-1.0,134.204276447,315.795723553,-16.7824014473,449.0,0.328095008353,0.407646248688,-1.0,2.3006402977,916.681722791,996.308453646,997.116870088,996.583868911,1000.45901613,1001.46489424,998.141968539,1000.45061092
1,73,1,1,1.0,1.0,0.438592114777,0,nan,nan,nan,nan,nan,nan,nan,nan,nan,407,0.0305886347219,0.46645515455,-0.502577406972,nan,nan,nan,nan,nan,nan,nan,nan,916.681722791,1001.60916265,nan,1002.04775477,nan,nan,nan,nan
1,74,1,1,1.0,1.0,0.424784616858,0,nan,nan,nan,nan,nan,nan,nan,nan,nan,303,0.0191349273956,0.402522842081,0.512018356663,nan,nan,nan,nan,nan,nan,nan,nan,916.681722791,1002.5509534,nan,1002.97573802,nan,nan,nan,nan
1,75,1,1,1.0,1.0,0.466970598267,0,nan,nan,nan,nan,nan,nan,nan,nan,nan,419,0.107894673663,0.454841969249,-0.678098861371,nan,nan,nan,nan,nan,nan,nan,nan,916.681722791,1003.49274102,nan,1003.95971162,nan,nan,nan,nan
1,76,1,1,1.0,1.0,0.389148722461,0,nan,nan,nan,nan,nan,nan,nan,nan,nan,226,0.801265930663,0.120208988367,0.60458276857,nan,nan,nan,nan,nan,nan,nan,nan,916.681722791,1004.43454204,nan,1004.82369076,nan,nan,nan,nan
1,77,1,1,1.0,1.0,0.415299178625,0,nan,nan,nan,nan,nan,nan,nan,nan,nan,449,0.328095008353,0.407646248688,-1.0,nan,nan,nan,nan,nan,nan,nan,nan,916.681722791,1005.37633279,nan,1005.79163197,nan,nan,nan,nan
1,78,0,0,0.0,1.0,0.537479754596,0,nan,nan,nan,nan,nan,nan,nan,nan,nan,262,0.416452475899,0.2804144186,0.652815538838,nan,nan,nan,nan,nan,nan,nan,nan,916.681722791,1006.31812696,nan,1006.85560672,nan,nan,nan,nan
1,79,1,1,1.0,1.0,0.363701028691,0,nan,nan,nan,nan,nan,nan,nan,nan,nan,323,-0.11001989341,0.43965344528,0.375855360355,nan,nan,nan,nan,nan,nan,nan,nan,916.681722791,1007.25991543,nan,1007.62361646,nan,nan,nan,nan
1,80,1,1,1.0,1.0,0.389882845397,0,nan,nan,nan,nan,nan,nan,nan,nan,nan,25,1.0,0.0970682892709,-1.0,nan,nan,nan,nan,nan,nan,nan,nan,916.681722791,1008.20170932,nan,1008.59159217,nan,nan,nan,nan
1,81,1,1,1.0,1.0,0.38406403031,0,0.0,0.0,0.0,0.370937786278,0.0905498807173,0.280387905561,0.461487666995,0.0905498807173,0.379215968132,183,1.0,-0.113108999915,0.354902835149,nan,nan,nan,nan,nan,nan,nan,nan,916.681722791,1009.14350293,nan,1009.52756696,nan,nan,nan,nan
1,82,1,1,1.0,1.0,0.298251476022,0,0.0,0.0,0.0,0.371101864328,0.08999398143,0.281107882898,0.461095845758,0.08999398143,0.357399450576,20,1.0,0.121558187834,-1.0,nan,nan,nan,nan,nan,nan,nan,nan,916.681722791,1010.08529453,nan,1010.38354601,nan,nan,nan,nan
1,83,1,1,1.0,1.0,0.332453051058,0,0.0,0.0,0.0,0.370202476818,0.0897977833758,0.280404693443,0.460000260194,0.0897977833758,0.338256185797,67,1.0,-0.12380466598,-1.0,nan,nan,nan,nan,nan,nan,nan,nan,916.681722791,1011.02710382,nan,1011.35955687,nan,nan,nan,nan
1,84,1,1,1.0,1.0,0.254627468938,0,0.0,0.0,0.0,0.369742117968,0.0893446761417,0.280397441826,0.459086794109,0.0893446761417,0.295110665339,473,0.522594813828,0.349396171415,-1.0,nan,nan,nan,nan,nan,nan,nan,nan,916.681722791,1011.96887975,nan,1012.22350721,nan,nan,nan,nan
1,85,1,1,1.0,1.0,0.296795774426,0,0.0,0.0,0.0,0.368355194485,0.0896885079414,0.278666686544,0.458043702427,0.0896885079414,0.294625431474,118,1.0,-0.308588151016,-0.261285249573,nan,nan,nan,nan,nan,nan,nan,nan,916.681722791,1012.91067534,nan,1013.20747112,nan,nan,nan,nan
1,86,1,1,1.0,1.0,0.259013105067,0,1.0,0.0,0.0,0.367503296628,0.0894902329862,0.278013063641,0.456993529614,0.0894902329862,0.270145449477,374,-0.132039125116,0.478634076427,-0.110628443238,nan,nan,nan,nan,nan,nan,nan,nan,916.681722791,1013.85246695,nan,1014.11148006,nan,nan,nan,nan
1,87,1,1,1.0,1.0,0.301184261392,1,0.0,0.0,1.0,0.366226941433,0.089728072913,0.27649886852,0.455955014346,0.089728072913,0.285664380295,109,1.0,-0.294638327523,-0.357773695079,-6.80905017961,96.8090501796,20.1684251796,138.0,1.0,-0.29832987918,-0.0546508148191,2.06725164625,916.681722791,1014.79425942,1015.602677,1015.09544368,1018.71138791,1019.71651109,1016.6277897,1018.70305911
1,88,1,1,1.0,1.0,0.369741078408,0,0.0,0.0,0.0,0.3654706312,0.0894769788907,0.275993652309,0.45494761009,0.0894769788907,0.309979481623,390,-0.0641960347588,0.476284203309,-0.291947553613,nan,nan,nan,nan,nan,nan,nan,nan,916.681722791,1019.86160771,nan,1020.23134879,nan,nan,nan,nan
1,89,1,1,1.0,1.0,0.435939864081,0,0.0,0.0,0.0,0.3655197168,0.0889624217272,0.276557295073,0.454482138527,0.0889624217272,0.36895506796,214,0.920243657418,0.0575410437433,0.553854850604,nan,nan,nan,nan,nan,nan,nan,nan,916.681722791,1020.80336739,nan,1021.23930725,nan,nan,nan,nan
1,90,1,1,1.0,1.0,0.358099171834,0,0.0,0.0,0.0,0.366319945746,0.0887698652944,0.277550080452,0.455089811041,0.0887698652944,0.387926704774,335,-0.155595990888,0.455627721073,0.276893227044,nan,nan,nan,nan,nan,nan,nan,nan,916.681722791,1021.74519178,nan,1022.10329095,nan,nan,nan,nan
1,91,1,1,1.0,1.0,0.288275101921,0,0.0,0.0,0.0,0.3662275775,0.088274002205,0.277953575295,0.454501579705,0.088274002205,0.360771379278,119,1.0,-0.309446327048,-0.250710895617,nan,nan,nan,nan,nan,nan,nan,nan,916.681722791,1022.68698681,nan,1022.97526191,nan,nan,nan,nan
1,92,1,1,1.0,1.0,0.282465695054,0,0.0,0.0,0.0,0.365361438882,0.088161702646,0.277199736236,0.453523141528,0.088161702646,0.309613322936,406,0.0244967455079,0.467245700284,-0.489366101921,nan,nan,nan,nan,nan,nan,nan,nan,916.681722791,1023.62876416,nan,1023.91122986,nan,nan,nan,nan
1,93,1,1,1.0,1.0,0.30064371886,0,0.0,0.0,0.0,0.364450496643,0.0881008359791,0.276349660663,0.452551332622,0.0881008359791,0.290461505278,57,1.0,-0.0707313323512,-1.0,nan,nan,nan,nan,nan,nan,nan,nan,916.681722791,1024.57056831,nan,1024.87121203,nan,nan,nan,nan
1,94,0,0,1.0,0.0,0.254833023413,0,0.0,0.0,0.0,0.36375694471,0.0878701466529,0.275886798057,0.451627091363,0.0878701466529,0.279314145776,473,0.522594813828,0.349396171415,-1.0,nan,nan,nan,nan,nan,nan,nan,nan,916.681722791,1025.51236306,nan,1025.76719608,nan,nan,nan,nan
1,95,1,1,1.0,1.0,0.337014306395,0,0.0,0.0,0.0,0.36258571975,0.0881155041166,0.274470215633,0.450701223867,0.0881155041166,0.297497016223,109,1.0,-0.294638327523,-0.357773695079,nan,nan,nan,nan,nan,nan,nan,nan,916.681722791,1026.45415723,nan,1026.79117154,nan,nan,nan,nan
1,96,1,1,1.0,1.0,0.331213452446,0,0.0,0.0,0.0,0.362313683438,0.0876848050194,0.274628878418,0.449998488457,0.0876848050194,0.307686927418,228,0.780729811514,0.1302769546,0.611433142569,nan,nan,nan,nan,nan,nan,nan,nan,916.681722791,1027.39594599,nan,1027.72715944,nan,nan,nan,nan
1,97,0,0,0.0,1.0,0.389387633186,0,0.0,0.0,0.0,0.361986312585,0.0872798159581,0.274706496627,0.449266128543,0.0872798159581,0.352538464009,362,-0.164239727892,0.476000155386,0.0174578511848,nan,nan,nan,nan,nan,nan,nan,nan,916.681722791,1028.3377413,nan,1028.72712894,nan,nan,nan,nan
1,98,1,1,1.0,1.0,0.343576937681,0,0.0,0.0,0.0,0.362271743008,0.0868686033136,0.275403139694,0.449140346322,0.0868686033136,0.354726007771,290,0.131265381085,0.370776544741,0.578206616232,nan,nan,nan,nan,nan,nan,nan,nan,916.681722791,1029.27953804,nan,1029.62311498,nan,nan,nan,nan
1,99,1,1,1.0,1.0,0.361764939851,0,0.0,0.0,0.0,0.362079013056,0.0864402958186,0.275638717238,0.448519308875,0.0864402958186,0.364909836906,235,0.707591924495,0.164537776567,0.631659631194,nan,nan,nan,nan,nan,nan,nan,nan,916.681722791,1030.22132509,nan,1030.58309003,nan,nan,nan,nan
1,100,1,1,1.0,1.0,0.347940051113,0,0.0,0.0,0.0,0.362075808228,0.0859981488607,0.276077659367,0.448073957088,0.0859981488607,0.351093976215,92,1.0,-0.241703663401,-0.55060883727,nan,nan,nan,nan,nan,nan,nan,nan,916.681722791,1031.16311841,nan,1031.51105846,nan,nan,nan,nan
1,101,1,1,1.0,1.0,0.334122289787,0,0.0,0.0,0.0,0.361933022802,0.0855743872036,0.276358635599,0.447507410006,0.0855743872036,0.347942426917,169,1.0,-0.185917379452,0.239118302078,nan,nan,nan,nan,nan,nan,nan,nan,916.681722791,1032.10491286,nan,1032.43903515,nan,nan,nan,nan
1,102,1,1,1.0,1.0,0.312315560528,0,0.0,0.0,0.0,0.361654915472,0.0851903927261,0.276464522746,0.446845308198,0.0851903927261,0.331459300476,342,-0.170052622031,0.462913557708,0.21407524247,nan,nan,nan,nan,nan,nan,nan,nan,916.681722791,1033.04670761,nan,1033.35902317,nan,nan,nan,nan
1,103,1,1,1.0,1.0,0.298511768924,0,0.0,0.0,0.0,0.361166407007,0.0849082539538,0.276258153053,0.446074660961,0.0849082539538,0.314983206413,218,0.881467392804,0.0788246127756,0.572559633417,nan,nan,nan,nan,nan,nan,nan,nan,916.681722791,1033.98849465,nan,1034.28700642,nan,nan,nan,nan
1,104,1,1,1.0,1.0,0.332678847306,0,0.0,0.0,0.0,0.36055214585,0.084716232668,0.275835913182,0.445268378518,0.084716232668,0.314502058919,55,1.0,-0.0599996532909,-1.0,nan,nan,nan,nan,nan,nan,nan,nan,916.681722791,1034.93029253,nan,1035.26297138,nan,nan,nan,nan
1,105,1,1,1.0,1.0,0.318902139843,0,0.0,0.0,0.0,0.360281531301,0.0843482762499,0.275933255051,0.44462980755,0.0843482762499,0.316697585358,511,0.838703193994,0.216284169582,-1.0,nan,nan,nan,nan,nan,nan,nan,nan,916.681722791,1035.8720448,nan,1036.19094694,nan,nan,nan,nan
1,106,1,1,1.0,1.0,0.321058322967,0,0.0,0.0,0.0,0.359883652537,0.084038844945,0.275844807592,0.443922497482,0.084038844945,0.324213103372,151,1.0,-0.262720288689,0.0734626651272,nan,nan,nan,nan,nan,nan,nan,nan,916.681722791,1036.81387318,nan,1037.13493151,nan,nan,nan,nan
1,107,1,1,1.0,1.0,0.307235144835,0,0.0,0.0,0.0,0.359513887493,0.0837226660881,0.275791221405,0.443236553581,0.0837226660881,0.315731869215,433,0.206536295144,0.436163724167,-1.0,nan,nan,nan,nan,nan,nan,nan,nan,916.681722791,1037.75566878,nan,1038.06290393,nan,nan,nan,nan
1,108,1,1,1.0,1.0,0.349419130594,0,0.0,0.0,0.0,0.359020691808,0.0834799257905,0.275540766017,0.442500617598,0.0834799257905,0.325904199465,70,1.0,-0.13936984996,-0.906436913284,nan,nan,nan,nan,nan,nan,nan,nan,916.681722791,1038.69746552,nan,1039.04688465,nan,nan,nan,nan
1,109,1,1,1.0,1.0,0.34364365018,0,0.0,0.0,0.0,0.358930957591,0.0830940530868,0.275836904504,0.442025010677,0.0830940530868,0.33343264187,309,-0.0258396312562,0.415106541901,0.475305697888,nan,nan,nan,nan,nan,nan,nan,nan,916.681722791,1039.63924459,nan,1039.98288824,nan,nan,nan,nan
1,110,1,1,1.0,1.0,0.321799003112,0,0.0,0.0,0.0,0.358789408448,0.0827214231349,0.276067985313,0.441510831583,0.0827214231349,0.338287261295,239,0.665069831863,0.183388857662,0.640549267122,nan,nan,nan,nan,nan,nan,nan,nan,916.681722791,1040.58104845,nan,1040.90284746,nan,nan,nan,nan
1,111,1,1,1.0,1.0,0.291983064089,0,0.0,0.0,0.0,0.358450046931,0.082416585146,0.276033461785,0.440866632077,0.082416585146,0.319141905794,90,1.0,-0.233635786423,-0.574971871003,nan,nan,nan,nan,nan,nan,nan,nan,916.681722791,1041.52283949,nan,1041.81482255,nan,nan,nan,nan
1,112,1,1,1.0,1.0,0.302183238789,0,0.0,0.0,0.0,0.357845801633,0.0822832960914,0.275562505541,0.440129097724,0.0822832960914,0.305321768664,205,1.0,0.00854800403903,0.505535240796,nan,nan,nan,nan,nan,nan,nan,nan,916.681722791,1042.46463737,nan,1042.76682061,nan,nan,nan,nan
1,113,1,1,1.0,1.0,0.336405910959,0,0.0,0.0,0.0,0.357344337102,0.0820804866378,0.275263850465,0.43942482374,0.0820804866378,0.310190737946,287,0.159501648714,0.36255249221,0.590751920292,nan,nan,nan,nan,nan,nan,nan,nan,916.681722791,1043.40642328,nan,1043.74282919,nan,nan,nan,nan
1,114,1,1,1.0,1.0,0.274537737772,0,0.0,0.0,0.0,0.357157386869,0.0817369693126,0.275420417556,0.438894356182,0.0817369693126,0.304375629174,370,-0.144805996584,0.478178727438,-0.0671803333712,nan,nan,nan,nan,nan,nan,nan,nan,916.681722791,1044.34822087,nan,1044.62275861,nan,nan,nan,nan
1,115,0,0,0.0,1.0,0.460718722024,0,0.0,0.0,0.0,0.356426239532,0.0817415525851,0.274684686947,0.438167792117,0.0817415525851,0.357220790252,278,0.248285521772,0.335802812283,0.621962573991,nan,nan,nan,nan,nan,nan,nan,nan,916.681722791,1045.29000991,nan,1045.75072863,nan,nan,nan,nan
1,116,1,1,1.0,1.0,0.326946131361,0,0.0,0.0,0.0,0.35734108587,0.0819612398048,0.275379846065,0.439302325674,0.0819612398048,0.354067530386,331,-0.143297839787,0.450801753776,0.311166711333,nan,nan,nan,nan,nan,nan,nan,nan,916.681722791,1046.23176674,nan,1046.55871287,nan,nan,nan,nan
1,117,1,1,1.0,1.0,0.289095894143,0,0.0,0.0,0.0,0.357076781917,0.0816528883598,0.275423893557,0.438729670277,0.0816528883598,0.358920249176,35,1.0,0.0462653595507,-1.0,nan,nan,nan,nan,nan,nan,nan,nan,916.681722791,1047.17359997,nan,1047.46269586,nan,nan,nan,nan
1,118,1,1,1.0,1.0,0.291283722967,0,0.0,0.0,0.0,0.356490739781,0.0815427163204,0.274948023461,0.438033456102,0.0815427163204,0.302441916157,305,0.00361192545304,0.406859252708,0.500196907155,nan,nan,nan,nan,nan,nan,nan,nan,916.681722791,1048.11538702,nan,1048.40667074,nan,nan,nan,nan
1,119,1,1,1.0,1.0,0.309457185271,0,0.0,0.0,0.0,0.355933414851,0.0814150758523,0.274518338999,0.437348490704,0.0814150758523,0.29661226746,348,-0.175384772129,0.468017843042,0.157582163916,nan,nan,nan,nan,nan,nan,nan,nan,916.681722791,1049.05718262,nan,1049.3666398,nan,nan,nan,nan
1,120,1,1,1.0,1.0,0.327657161455,0,0.0,0.0,0.0,0.355539548499,0.0811812285166,0.274358319982,0.436720777015,0.0811812285166,0.309466023231,196,1.0,-0.0413610816081,0.449130757868,nan,nan,nan,nan,nan,nan,nan,nan,916.681722791,1049.99897251,nan,1050.32662967,nan,nan,nan,nan
1,121,0,0,0.0,1.0,0.473830584961,0,0.0,0.0,0.0,0.355305242725,0.0808794691149,0.274425773611,0.43618471184,0.0808794691149,0.370314977229,355,-0.173737462994,0.472683863687,0.0888799762457,nan,nan,nan,nan,nan,nan,nan,nan,916.681722791,1050.94076669,nan,1051.41459727,nan,nan,nan,nan
1,122,1,1,1.0,1.0,0.348020733334,0,0.0,0.0,0.0,0.356292953911,0.0812592724113,0.275033681499,0.437552226322,0.0812592724113,0.38316949325,114,1.0,-0.303747463913,-0.303859371662,nan,nan,nan,nan,nan,nan,nan,nan,916.681722791,1051.88255829,nan,1052.23057903,nan,nan,nan,nan
1,123,1,1,1.0,1.0,0.334222643636,0,0.0,0.0,0.0,0.356224588451,0.0809262589772,0.275298329474,0.437150847429,0.0809262589772,0.38535798731,225,0.81146624694,0.115131125244,0.600981946568,nan,nan,nan,nan,nan,nan,nan,nan,916.681722791,1052.82434962,nan,1053.15857226,nan,nan,nan,nan
1,124,1,1,1.0,1.0,0.296405192523,0,0.0,0.0,0.0,0.356044244641,0.0806183227809,0.27542592186,0.436662567422,0.0806183227809,0.326216189831,64,1.0,-0.108036866323,-1.0,nan,nan,nan,nan,nan,nan,nan,nan,916.681722791,1053.76614949,nan,1054.06255469,nan,nan,nan,nan
1,125,1,1,1.0,1.0,0.458588197478,0,0.0,0.0,0.0,0.355559374299,0.0804683548075,0.275091019491,0.436027729107,0.0804683548075,0.363072011212,115,1.0,-0.305166285737,-0.293172749504,nan,nan,nan,nan,nan,nan,nan,nan,916.681722791,1054.70794139,nan,1055.16652958,nan,nan,nan,nan
1,126,1,1,1.0,1.0,0.348772817291,0,0.0,0.0,0.0,0.356390251905,0.0806712532988,0.275718998606,0.437061505204,0.0806712532988,0.367922069097,336,-0.158211608236,0.456758111158,0.268135266647,nan,nan,nan,nan,nan,nan,nan,nan,916.681722791,1055.64973356,nan,1055.99850638,nan,nan,nan,nan
1,127,1,1,1.0,1.0,0.310974752705,0,0.0,0.0,0.0,0.356329312428,0.0803507858629,0.275978526565,0.436680098291,0.0803507858629,0.372778589158,469,0.489482198204,0.360453357602,-1.0,nan,nan,nan,nan,nan,nan,nan,nan,916.681722791,1056.59151975,nan,1056.90249451,nan,nan,nan,nan
1,128,0,0,1.0,0.0,0.289143505215,0,0.0,0.0,0.0,0.355969355605,0.0801324206134,0.275836934992,0.436101776219,0.0801324206134,0.316297025071,380,-0.109519508899,0.478533032186,-0.177177385375,nan,nan,nan,nan,nan,nan,nan,nan,916.681722791,1057.53331963,nan,1057.82246313,nan,nan,nan,nan
1,129,1,1,1.0,1.0,0.331332622678,0,0.0,0.0,0.0,0.355443167807,0.0800345565295,0.275408611277,0.435477724336,0.0800345565295,0.310483626866,510,0.830554458933,0.220436700166,-1.0,nan,nan,nan,nan,nan,nan,nan,nan,916.681722791,1058.4751081,nan,1058.80644072,nan,nan,nan,nan
1,130,1,1,1.0,1.0,0.373510336329,0,0.0,0.0,0.0,0.355254804173,0.0797495649074,0.275505239266,0.43500436908,0.0797495649074,0.331328821407,249,0.557275547736,0.228026269286,0.654084877906,nan,nan,nan,nan,nan,nan,nan,nan,916.681722791,1059.416898,nan,1059.79040833,nan,nan,nan,nan
1,131,1,1,1.0,1.0,0.303690257715,0,0.0,0.0,0.0,0.355396319926,0.079455989387,0.275940330539,0.434852309313,0.079455989387,0.336177738907,24,1.0,0.102019060141,-1.0,nan,nan,nan,nan,nan,nan,nan,nan,916.681722791,1060.35869217,nan,1060.66238243,nan,nan,nan,nan
1,132,1,1,1.0,1.0,0.329927668208,0,0.0,0.0,0.0,0.354998580986,0.0792786104404,0.275719970546,0.434277191426,0.0792786104404,0.335709420751,332,-0.146647089803,0.45205423783,0.302714191958,nan,nan,nan,nan,nan,nan,nan,nan,916.681722791,1061.30045128,nan,1061.63037895,nan,nan,nan,nan
1,133,1,1,1.0,1.0,0.340089354897,0,0.0,0.0,0.0,0.354807199972,0.0790055801541,0.275801619818,0.433812780127,0.0790055801541,0.324569093607,167,1.0,-0.195605812978,0.221546716301,nan,nan,nan,nan,nan,nan,nan,nan,916.681722791,1062.24225144,nan,1062.58234079,nan,nan,nan,nan
1,134,1,1,1.0,1.0,0.342252380389,0,0.0,0.0,0.0,0.354695701146,0.0787160930395,0.275979608107,0.433411794186,0.0787160930395,0.337423134498,34,1.0,0.0514419701458,-1.0,nan,nan,nan,nan,nan,nan,nan,nan,916.681722791,1063.18407412,nan,1063.5263265,nan,nan,nan,nan
1,135,1,1,1.0,1.0,0.392438163341,0,0.0,0.0,0.0,0.354602142343,0.0784269761447,0.276175166199,0.433029118488,0.0784269761447,0.358259966209,142,1.0,-0.289568116499,-0.0146273521697,nan,nan,nan,nan,nan,nan,nan,nan,916.681722791,1064.12586288,nan,1064.51830104,nan,nan,nan,nan
1,136,1,1,1.0,1.0,0.338628521538,0,0.0,0.0,0.0,0.354884500709,0.0782016160685,0.276682884641,0.433086116778,0.0782016160685,0.357773021756,211,0.948675772315,0.0413606888024,0.538689155053,nan,nan,nan,nan,nan,nan,nan,nan,916.681722791,1065.06765905,nan,1065.40628757,nan,nan,nan,nan
1,137,1,1,1.0,1.0,0.36480720219,0,0.0,0.0,0.0,0.354764086049,0.0779239101169,0.276840175932,0.432687996165,0.0779239101169,0.36529129569,3,0.871087178923,0.199335109687,-1.0,nan,nan,nan,nan,nan,nan,nan,nan,916.681722791,1066.00945237,nan,1066.37425957,nan,nan,nan,nan
1,138,1,1,1.0,1.0,0.359011479944,0,0.0,0.0,0.0,0.354837932491,0.0776416377074,0.277196294783,0.432479570198,0.0776416377074,0.354149067891,155,1.0,-0.2479831371,0.111611878621,nan,nan,nan,nan,nan,nan,nan,nan,916.681722791,1066.95123913,nan,1067.31025061,nan,nan,nan,nan
1,139,1,1,1.0,1.0,0.313198218646,0,0.0,0.0,0.0,0.354868396341,0.077358570862,0.277509825479,0.432226967203,0.077358570862,0.34567230026,326,-0.12383419111,0.444071765824,0.352223541474,nan,nan,nan,nan,nan,nan,nan,nan,916.681722791,1067.89302674,nan,1068.20622496,nan,nan,nan,nan
1,140,1,1,1.0,1.0,0.283370590652,0,0.0,0.0,0.0,0.354566438531,0.0771587655342,0.277407672997,0.431725204066,0.0771587655342,0.318526763081,480,0.580928072941,0.32870764083,-1.0,nan,nan,nan,nan,nan,nan,nan,nan,916.681722791,1068.83482605,nan,1069.11819664,nan,nan,nan,nan
1,141,1,1,1.0,1.0,0.301551465469,0,0.0,0.0,0.0,0.354054238187,0.0771158124594,0.276938425728,0.431170050646,0.0771158124594,0.299373424922,355,-0.173737462994,0.472683863687,0.0888799762457,nan,nan,nan,nan,nan,nan,nan,nan,916.681722791,1069.77662079,nan,1070.07817226,nan,nan,nan,nan
1,142,1,1,1.0,1.0,0.327737843676,0,0.0,0.0,0.0,0.353679218382,0.076967005798,0.276712212584,0.43064622418,0.076967005798,0.304219966599,233,0.728670395113,0.154909781369,0.626482233315,nan,nan,nan,nan,nan,nan,nan,nan,916.681722791,1070.71841126,nan,1071.0461491,nan,nan,nan,nan
1,143,1,1,1.0,1.0,0.289922388212,0,0.0,0.0,0.0,0.353495237001,0.076724476182,0.276770760819,0.430219713183,0.076724476182,0.306403899119,88,1.0,-0.225257592204,-0.599932847766,nan,nan,nan,nan,nan,nan,nan,nan,916.681722791,1071.66020458,nan,1071.95012697,nan,nan,nan,nan
1,144,1,1,1.0,1.0,0.284088463115,0,0.0,0.0,0.0,0.353047540883,0.0766384425926,0.27640909829,0.429685983475,0.0766384425926,0.300582898334,308,-0.0186828559465,0.413097475488,0.481682330771,nan,nan,nan,nan,nan,nan,nan,nan,916.681722791,1072.60202384,nan,1072.8861123,nan,nan,nan,nan
1,145,0,0,0.0,1.0,0.454287805245,0,0.0,0.0,0.0,0.35256530957,0.0765858960873,0.275979413482,0.429151205657,0.0765858960873,0.342766218858,244,0.611372359265,0.206163547436,0.648880721676,nan,nan,nan,nan,nan,nan,nan,nan,916.681722791,1073.54379236,nan,1073.99808016,nan,nan,nan,nan
1,146,1,1,1.0,1.0,0.352462248295,0,0.0,0.0,0.0,0.35327171579,0.0767855841456,0.276486131644,0.430057299935,0.0767855841456,0.363612838885,380,-0.109519508899,0.478533032186,-0.177177385375,nan,nan,nan,nan,nan,nan,nan,nan,916.681722791,1074.48559337,nan,1074.83805562,nan,nan,nan,nan
1,147,1,1,1.0,1.0,0.370665930735,0,0.0,0.0,0.0,0.353266133255,0.0765203774983,0.276745755757,0.429786510753,0.0765203774983,0.392471994758,210,0.958022500947,0.0359304984579,0.533421856807,nan,nan,nan,nan,nan,nan,nan,nan,916.681722791,1075.42737529,nan,1075.79804122,nan,nan,nan,nan
1,148,1,1,1.0,1.0,0.396850313351,0,0.0,0.0,0.0,0.35338530995,0.0762713731245,0.277113936826,0.429656683075,0.0762713731245,0.373326164127,78,1.0,-0.179467652321,-0.739907630878,nan,nan,nan,nan,nan,nan,nan,nan,916.681722791,1076.36917459,nan,1076.76602491,nan,nan,nan,nan
1,149,1,1,1.0,1.0,0.343039531203,0,0.0,0.0,0.0,0.353680990246,0.076095420723,0.277585569523,0.429776410969,0.076095420723,0.37018525843,258,0.459642287315,0.26499291187,0.655490062901,nan,nan,nan,nan,nan,nan,nan,nan,916.681722791,1077.31095964,nan,1077.65399917,nan,nan,nan,nan
1,150,0,0,0.0,1.0,0.489222077769,0,0.0,0.0,0.0,0.353609088495,0.0758429161918,0.277766172303,0.429452004687,0.0758429161918,0.409703974108,15,0.965734432428,0.145352784795,-1.0,nan,nan,nan,nan,nan,nan,nan,nan,916.681722791,1078.25275325,nan,1078.74197532,nan,nan,nan,nan
1,151,1,1,1.0,1.0,0.363414221792,0,0.0,0.0,0.0,0.354519242786,0.0763946547866,0.278124587999,0.430913897572,0.0763946547866,0.398558610255,287,0.159501648714,0.36255249221,0.590751920292,nan,nan,nan,nan,nan,nan,nan,nan,916.681722791,1079.19453915,nan,1079.55795337,nan,nan,nan,nan
1,152,1,1,1.0,1.0,0.365595208306,0,0.0,0.0,0.0,0.354578542646,0.0761430207743,0.278435521871,0.43072156342,0.0761430207743,0.406077169289,105,1.0,-0.285049837405,-0.401580786678,nan,nan,nan,nan,nan,nan,nan,nan,916.681722791,1080.13633732,nan,1080.50193253,nan,nan,nan,nan
1,153,1,1,1.0,1.0,0.351771459973,0,0.0,0.0,0.0,0.354651500696,0.075895732984,0.278755767712,0.43054723368,0.075895732984,0.360260296691,506,0.797774742377,0.236703125255,-1.0,nan,nan,nan,nan,nan,nan,nan,nan,916.681722791,1081.07813235,nan,1081.42990381,nan,nan,nan,nan
1,154,1,1,1.0,1.0,0.353962995054,0,0.0,0.0,0.0,0.35463255306,0.075646022312,0.278986530748,0.430278575372,0.075646022312,0.357109887778,262,0.416452475899,0.2804144186,0.652815538838,nan,nan,nan,nan,nan,nan,nan,nan,916.681722791,1082.01992452,nan,1082.37388752,nan,nan,nan,nan
1,155,1,1,1.0,1.0,0.308110105281,0,0.0,0.0,0.0,0.354628176864,0.0753984271305,0.279229749733,0.430026603994,0.0753984271305,0.337948186769,106,1.0,-0.287630069369,-0.390564445695,nan,nan,nan,nan,nan,nan,nan,nan,916.681722791,1082.96174464,nan,1083.26985475,nan,nan,nan,nan
1,156,0,0,0.0,1.0,0.478338242217,0,0.0,0.0,0.0,0.354326111464,0.0752460496434,0.279080061821,0.429572161108,0.0752460496434,0.380137114184,349,-0.175656888649,0.468768509344,0.147945183432,nan,nan,nan,nan,nan,nan,nan,nan,916.681722791,1083.90349919,nan,1084.38183743,nan,nan,nan,nan
1,157,1,1,1.0,1.0,0.352505582909,0,0.0,0.0,0.0,0.355126189727,0.0756572431836,0.279468946543,0.430783432911,0.0756572431836,0.379651310136,72,1.0,-0.149607777062,-0.853203742106,nan,nan,nan,nan,nan,nan,nan,nan,916.681722791,1084.84530163,nan,1085.19780721,nan,nan,nan,nan
1,158,1,1,1.0,1.0,0.370748038462,0,0.0,0.0,0.0,0.355109390965,0.0754146521636,0.279694738802,0.430524043129,0.0754146521636,0.400530621196,377,-0.121259861678,0.478700828387,-0.143695900877,nan,nan,nan,nan,nan,nan,nan,nan,916.681722791,1085.78706159,nan,1086.15780963,nan,nan,nan,nan
1,159,1,1,1.0,1.0,0.348880583711,0,0.0,0.0,0.0,0.355209000185,0.0751843887209,0.280024611464,0.430393388906,0.0751843887209,0.357378068361,66,1.0,-0.118568705386,-1.0,nan,nan,nan,nan,nan,nan,nan,nan,916.681722791,1086.72888883,nan,1087.07776942,nan,nan,nan,nan
1,160,1,1,1.0,1.0,0.319072342303,0,0.0,0.0,0.0,0.355168946916,0.0749477660991,0.280221180817,0.430116713015,0.0749477660991,0.346233654825,290,0.131265381085,0.370776544741,0.578206616232,nan,nan,nan,nan,nan,nan,nan,nan,916.681722791,1087.67068358,nan,1087.98975592,nan,nan,nan,nan
1,161,1,1,1.0,1.0,0.289273794158,0,0.0,0.0,0.0,0.354941924246,0.0747661872315,0.280175737014,0.429708111477,0.0747661872315,0.319075573391,58,1.0,-0.0760896648475,-1.0,nan,nan,nan,nan,nan,nan,nan,nan,916.681722791,1088.61247348,nan,1088.90174727,nan,nan,nan,nan
1,162,1,1,1.0,1.0,0.299447169818,0,0.0,0.0,0.0,0.354531498433,0.0747116376963,0.279819860736,0.429243136129,0.0747116376963,0.30259776876,442,0.273907262724,0.421095538958,-1.0,nan,nan,nan,nan,nan,nan,nan,nan,916.681722791,1089.55426964,nan,1089.85371681,nan,nan,nan,nan
1,163,1,1,1.0,1.0,0.325627275975,0,0.0,0.0,0.0,0.354189359746,0.0746048824415,0.279584477304,0.428794242187,0.0746048824415,0.304782746651,298,0.0600896634305,0.391050340636,0.53969689008,nan,nan,nan,nan,nan,nan,nan,nan,916.681722791,1090.49606097,nan,1090.82168824,nan,nan,nan,nan
1,164,0,0,0.0,1.0,0.47180925234,0,0.0,0.0,0.0,0.354013050587,0.0744079015955,0.279605148991,0.428420952182,0.0744079015955,0.365627899378,179,1.0,-0.13461441766,0.323204131591,nan,nan,nan,nan,nan,nan,nan,nan,916.681722791,1091.43785913,nan,1091.90966838,nan,nan,nan,nan
1,165,1,1,1.0,1.0,0.354007755173,0,0.0,0.0,0.0,0.354735726671,0.0747474118584,0.279988314813,0.429483138529,0.0747474118584,0.383814761163,314,-0.0594438881467,0.42463230952,0.441925406839,nan,nan,nan,nan,nan,nan,nan,nan,916.681722791,1092.37964304,nan,1092.7336508,nan,nan,nan,nan
1,166,1,1,1.0,1.0,0.308187366405,0,0.0,0.0,0.0,0.35473128782,0.0745191965027,0.280212091318,0.429250484323,0.0745191965027,0.378001457973,190,1.0,-0.0746884387243,0.407399635172,nan,nan,nan,nan,nan,nan,nan,nan,916.681722791,1093.32143322,nan,1093.62962059,nan,nan,nan,nan
1,167,1,1,1.0,1.0,0.302371117286,0,0.0,0.0,0.0,0.354449203448,0.0743808118578,0.28006839159,0.428830015306,0.0743808118578,0.321522079622,469,0.489482198204,0.360453357602,-1.0,nan,nan,nan,nan,nan,nan,nan,nan,916.681722791,1094.26323025,nan,1094.56560137,nan,nan,nan,nan
1,168,1,1,1.0,1.0,0.336566420156,0,0.0,0.0,0.0,0.354135480038,0.0742658502991,0.279869629738,0.428401330337,0.0742658502991,0.315708301282,193,1.0,-0.0580453890011,0.428658791268,nan,nan,nan,nan,nan,nan,nan,nan,916.681722791,1095.20501673,nan,1095.54158315,nan,nan,nan,nan
1,169,1,1,1.0,1.0,0.306745919632,0,0.0,0.0,0.0,0.354030276086,0.0740555692778,0.279974706808,0.428085845364,0.0740555692778,0.315227819025,112,1.0,-0.300501516081,-0.325324861792,nan,nan,nan,nan,nan,nan,nan,nan,916.681722791,1096.14681575,nan,1096.45356167,nan,nan,nan,nan
1,170,1,1,1.0,1.0,0.236927266524,0,0.0,0.0,0.0,0.353748821583,0.0739243688447,0.279824452739,0.427673190428,0.0739243688447,0.293413202104,239,0.665069831863,0.183388857662,0.640549267122,nan,nan,nan,nan,nan,nan,nan,nan,916.681722791,1097.08860108,nan,1097.32552835,nan,nan,nan,nan
1,171,1,1,1.0,1.0,0.215125098825,0,1.0,0.0,0.0,0.353057569778,0.0742479051781,0.2788096646,0.427305474956,0.0742479051781,0.25293276166,456,0.383612429175,0.392633185378,-1.0,nan,nan,nan,nan,nan,nan,nan,nan,916.681722791,1098.0304021,nan,1098.2455272,nan,nan,nan,nan
1,172,1,1,1.0,1.0,0.273307262221,1,0.0,0.0,1.0,0.352246202302,0.0747768619123,0.27746934039,0.427023064214,0.0747768619123,0.241786542523,313,-0.0530221528698,0.42279583272,0.448797959603,-133.631419193,223.631419193,3.55329419305,318.0,-0.0835627602325,0.431640264478,0.413481556053,1.7005354393,916.681722791,1098.97219199,1099.78061243,1099.24549926,1102.52261569,1103.5334368,1100.80570632,1102.51426893
1,173,1,1,1.0,1.0,0.412566530809,0,0.0,0.0,0.0,0.351784571074,0.0748004502733,0.2769841208,0.426585021347,0.0748004502733,0.300332963952,74,1.0,-0.159715158178,-0.810443278181,nan,nan,nan,nan,nan,nan,nan,nan,916.681722791,1103.67282665,nan,1104.08539318,nan,nan,nan,nan
1,174,1,1,1.0,1.0,0.310746960749,0,0.0,0.0,0.0,0.35213795456,0.0747257126304,0.27741224193,0.426863667191,0.0747257126304,0.332206917927,265,0.384259149088,0.291568309415,0.649478858709,nan,nan,nan,nan,nan,nan,nan,nan,916.681722791,1104.61462481,nan,1104.92537177,nan,nan,nan,nan
1,175,1,1,1.0,1.0,0.256939599756,0,0.0,0.0,0.0,0.351898700261,0.0745754704605,0.2773232298,0.426474170721,0.0745754704605,0.326751030438,403,0.00657627305109,0.469456436931,-0.450524507496,nan,nan,nan,nan,nan,nan,nan,nan,916.681722791,1105.55640787,nan,1105.81334747,nan,nan,nan,nan
1,176,1,1,1.0,1.0,0.203121119994,0,1.0,0.0,0.0,0.351352958304,0.0747065156275,0.276646442676,0.426059473932,0.0747065156275,0.2569358935,7,0.9030914636,0.181853060355,-1.0,nan,nan,nan,nan,nan,nan,nan,nan,916.681722791,1106.49819748,nan,1106.7013186,nan,nan,nan,nan
1,177,1,1,1.0,1.0,0.18929936731,1,0.0,0.0,1.0,0.350505919228,0.0753260404514,0.275179878777,0.425831959679,0.0753260404514,0.216453362353,37,1.0,0.0358565504353,-1.0,66.7638384888,23.2361615112,-2.77946348878,33.0,1.0,0.0565990290419,-1.0,1.4254893749,916.681722791,1107.43999023,1108.24840952,1107.62928959,1110.71539523,1111.72324051,1109.2735342,1110.70705816
1,178,1,1,1.0,1.0,0.371619862912,0,0.0,0.0,0.0,0.34958997291,0.0760827920978,0.273507180812,0.425672765008,0.0760827920978,0.254680116739,310,-0.032854544558,0.417080732083,0.468828018046,nan,nan,nan,nan,nan,nan,nan,nan,916.681722791,1111.86558651,nan,1112.23720638,nan,nan,nan,nan
1,179,1,1,1.0,1.0,0.333802981942,0,0.0,0.0,0.0,0.349714435566,0.075885530608,0.273828904958,0.425599966174,0.075885530608,0.298240737388,266,0.373577590308,0.295207490188,0.648113769863,nan,nan,nan,nan,nan,nan,nan,nan,916.681722791,1112.80738126,nan,1113.14118424,nan,nan,nan,nan
1,180,1,1,1.0,1.0,0.239986634697,0,0.0,0.0,0.0,0.349625045377,0.0756814133736,0.273943632003,0.42530645875,0.0756814133736,0.315136493184,460,0.415848916989,0.383334931935,-1.0,nan,nan,nan,nan,nan,nan,nan,nan,916.681722791,1113.74916802,nan,1113.98915465,nan,nan,nan,nan
1,181,1,1,1.0,1.0,0.186253968917,0,1.0,0.0,0.0,0.349012540289,0.0759108494242,0.273101690865,0.424923389713,0.0759108494242,0.253347861852,179,1.0,-0.13461441766,0.323204131591,nan,nan,nan,nan,nan,nan,nan,nan,916.681722791,1114.69091886,nan,1114.87717283,nan,nan,nan,nan
1,182,0,0,1.0,0.0,0.220361462154,0,0.0,0.0,0.0,0.348108326004,0.0766602532724,0.271448072731,0.424768579276,0.0766602532724,0.215534021923,436,0.228681708805,0.431413732101,-1.0,nan,nan,nan,nan,nan,nan,nan,nan,916.681722791,1115.63275095,nan,1115.85311241,nan,nan,nan,nan
1,183,1,1,1.0,1.0,0.278542485205,0,0.0,0.0,0.0,0.347402542226,0.0770323924576,0.270370149768,0.424434934683,0.0770323924576,0.228385972092,161,1.0,-0.223158351501,0.167490545043,nan,nan,nan,nan,nan,nan,nan,nan,916.681722791,1116.57454683,nan,1116.85308932,nan,nan,nan,nan
1,184,1,1,1.0,1.0,0.264701916196,0,0.0,0.0,0.0,0.347024190264,0.0769889299662,0.270035260298,0.42401312023,0.0769889299662,0.254535287851,324,-0.114799643766,0.441158325109,0.368064040095,nan,nan,nan,nan,nan,nan,nan,nan,916.681722791,1117.51637322,nan,1117.78107514,nan,nan,nan,nan
1,185,1,1,1.0,1.0,0.298909478239,0,0.0,0.0,0.0,0.346574341772,0.0770177637467,0.269556578025,0.423592105518,0.0770177637467,0.28071795988,239,0.665069831863,0.183388857662,0.640549267122,nan,nan,nan,nan,nan,nan,nan,nan,916.681722791,1118.45813062,nan,1118.7570401,nan,nan,nan,nan
1,186,1,1,1.0,1.0,0.317138534272,0,0.0,0.0,0.0,0.3463152936,0.0768880915814,0.269427202019,0.423203385182,0.0768880915814,0.293583309569,472,0.51429864939,0.352212277195,-1.0,nan,nan,nan,nan,nan,nan,nan,nan,916.681722791,1119.39988887,nan,1119.7170274,nan,nan,nan,nan
1,187,1,1,1.0,1.0,0.311297766864,0,0.0,0.0,0.0,0.346157581388,0.0767098411223,0.269447740265,0.42286742251,0.0767098411223,0.309115259792,320,-0.0946500390753,0.43494401576,0.398701238857,nan,nan,nan,nan,nan,nan,nan,nan,916.681722791,1120.34171469,nan,1120.65301246,nan,nan,nan,nan
1,188,1,1,1.0,1.0,0.297479720379,0,0.0,0.0,0.0,0.34597016303,0.0765458124975,0.269424350533,0.422515975528,0.0765458124975,0.308638673838,221,0.851781464038,0.0945411604707,0.585422935822,nan,nan,nan,nan,nan,nan,nan,nan,916.681722791,1121.28351,nan,1121.58098972,nan,nan,nan,nan
1,189,1,1,1.0,1.0,0.25964744424,0,0.0,0.0,0.0,0.34571085585,0.0764227396912,0.269288116159,0.422133595541,0.0764227396912,0.289474977161,451,0.343830962376,0.403518361206,-1.0,nan,nan,nan,nan,nan,nan,nan,nan,916.681722791,1122.22530247,nan,1122.48494991,nan,nan,nan,nan
1,190,0,0,0.0,1.0,0.469833820243,0,0.0,0.0,0.0,0.345253071746,0.0764758647747,0.268777206971,0.421728936521,0.0764758647747,0.342320328287,233,0.728670395113,0.154909781369,0.626482233315,nan,nan,nan,nan,nan,nan,nan,nan,916.681722791,1123.16709806,nan,1123.63693189,nan,nan,nan,nan
1,191,1,1,1.0,1.0,0.328029782278,0,0.0,0.0,0.0,0.345912229145,0.076806881046,0.269105348099,0.422719110191,0.076806881046,0.352503682254,431,0.191957257768,0.43918128748,-0.982298765802,nan,nan,nan,nan,nan,nan,nan,nan,916.681722791,1124.10888682,nan,1124.4369166,nan,nan,nan,nan
1,192,1,1,1.0,1.0,0.330189956818,0,0.0,0.0,0.0,0.345818111004,0.0766154178282,0.269202693176,0.422433528832,0.0766154178282,0.376017853113,495,0.706485112283,0.278551693791,-1.0,nan,nan,nan,nan,nan,nan,nan,nan,916.681722791,1125.05070266,nan,1125.38089262,nan,nan,nan,nan
1,193,0,0,0.0,1.0,0.484397108317,0,0.0,0.0,0.0,0.345736288207,0.076422913554,0.269313374653,0.422159201761,0.076422913554,0.380872282471,27,1.0,0.0870912575778,-1.0,nan,nan,nan,nan,nan,nan,nan,nan,916.681722791,1125.99247118,nan,1126.47686829,nan,nan,nan,nan
1,194,1,1,1.0,1.0,0.302567263483,0,0.0,0.0,0.0,0.346458479979,0.0768743181238,0.269584161855,0.423332798102,0.0768743181238,0.372384776206,389,-0.0691208065164,0.476626077068,-0.280234315682,nan,nan,nan,nan,nan,nan,nan,nan,916.681722791,1126.93426849,nan,1127.23683575,nan,nan,nan,nan
1,195,1,1,1.0,1.0,0.312790530908,0,0.0,0.0,0.0,0.346231064349,0.0767396287043,0.269491435645,0.422970693053,0.0767396287043,0.36658496757,33,1.0,0.0565990290419,-1.0,nan,nan,nan,nan,nan,nan,nan,nan,916.681722791,1127.87604555,nan,1128.18883609,nan,nan,nan,nan
1,196,1,1,1.0,1.0,0.282954920258,0,0.0,0.0,0.0,0.346058690465,0.0765790418908,0.269479648574,0.422637732356,0.0765790418908,0.29943757155,437,0.23613482661,0.429770237144,-1.0,nan,nan,nan,nan,nan,nan,nan,nan,916.681722791,1128.81785598,nan,1129.1008109,nan,nan,nan,nan
1,197,1,1,1.0,1.0,0.317141385225,0,0.0,0.0,0.0,0.345735081387,0.0765153076122,0.269219773775,0.422250389,0.0765153076122,0.30429561213,158,1.0,-0.235949227405,0.139764106,nan,nan,nan,nan,nan,nan,nan,nan,916.681722791,1129.75964531,nan,1130.07678669,nan,nan,nan,nan
1,198,1,1,1.0,1.0,0.303311364783,0,0.0,0.0,0.0,0.345589195182,0.0763470501929,0.26924214499,0.421936245375,0.0763470501929,0.301135890089,213,0.929785093221,0.0521668813814,0.548906519778,nan,nan,nan,nan,nan,nan,nan,nan,916.681722791,1130.70143748,nan,1131.00474885,nan,nan,nan,nan
1,199,1,1,1.0,1.0,0.289515555836,0,0.0,0.0,0.0,0.345374586906,0.076212275951,0.269162310955,0.421586862857,0.076212275951,0.303322768615,73,1.0,-0.1546788618,-0.830916872461,nan,nan,nan,nan,nan,nan,nan,nan,916.681722791,1131.64322881,nan,1131.93274436,nan,nan,nan,nan
1,200,1,1,1.0,1.0,0.267686589097,0,0.0,0.0,0.0,0.345092470588,0.0761226330085,0.268969837579,0.421215103596,0.0761226330085,0.286837836572,450,0.335949728395,0.405598329481,-1.0,nan,nan,nan,nan,nan,nan,nan,nan,916.681722791,1132.58503838,nan,1132.85272496,nan,nan,nan,nan
1,201,1,1,1.0,1.0,0.30988482968,0,0.0,0.0,0.0,0.344703496309,0.0761281418495,0.268575354459,0.420831638158,0.0761281418495,0.289028991538,139,1.0,-0.296335611021,-0.0445992895203,nan,nan,nan,nan,nan,nan,nan,nan,916.681722791,1133.52681003,nan,1133.83669486,nan,nan,nan,nan
1,202,1,1,1.0,1.0,0.304069150647,0,0.0,0.0,0.0,0.344529402976,0.0759772854266,0.268552117549,0.420506688402,0.0759772854266,0.293880189808,493,0.689769084006,0.285700779988,-1.0,nan,nan,nan,nan,nan,nan,nan,nan,916.681722791,1134.46860962,nan,1134.77267877,nan,nan,nan,nan
1,203,1,1,1.0,1.0,0.314250508964,0,0.0,0.0,0.0,0.344328108188,0.0758414970535,0.268486611135,0.420169605242,0.0758414970535,0.30940149643,238,0.675741828754,0.178727669763,0.638511091232,nan,nan,nan,nan,nan,nan,nan,nan,916.681722791,1135.41040179,nan,1135.7246523,nan,nan,nan,nan
1,204,1,1,1.0,1.0,0.33244022174,0,0.0,0.0,0.0,0.344179209182,0.0756829843148,0.268496224867,0.419862193497,0.0756829843148,0.31691996045,31,1.0,0.0668515730764,-1.0,nan,nan,nan,nan,nan,nan,nan,nan,916.681722791,1136.35219283,nan,1136.68463305,nan,nan,nan,nan
1,205,1,1,1.0,1.0,0.31058160495,0,0.0,0.0,0.0,0.344121381658,0.0755008164305,0.268620565227,0.419622198088,0.0755008164305,0.319090778551,483,0.606025706087,0.319314454546,-1.0,nan,nan,nan,nan,nan,nan,nan,nan,916.681722791,1137.29402464,nan,1137.60460624,nan,nan,nan,nan
1,206,1,1,1.0,1.0,0.376807474764,0,0.0,0.0,0.0,0.343956970988,0.0753519577827,0.268605013205,0.41930892877,0.0753519577827,0.339943100485,201,1.0,-0.0135712615467,0.48142235136,nan,nan,nan,nan,nan,nan,nan,nan,916.681722791,1138.23577491,nan,1138.61258238,nan,nan,nan,nan
1,207,0,0,0.0,1.0,0.490993380896,0,0.0,0.0,0.0,0.344117217347,0.0752027850395,0.268914432308,0.419320002387,0.0752027850395,0.392794153537,23,1.0,0.106943944166,-1.0,nan,nan,nan,nan,nan,nan,nan,nan,916.681722791,1139.17757079,nan,1139.66856417,nan,nan,nan,nan
1,208,1,1,1.0,1.0,0.389166968642,0,0.0,0.0,0.0,0.344830208433,0.0757114141512,0.269118794281,0.420541622584,0.0757114141512,0.418989274767,261,0.427225806086,0.276617811781,0.653674462902,nan,nan,nan,nan,nan,nan,nan,nan,916.681722791,1140.11938635,nan,1140.50855332,nan,nan,nan,nan
1,209,1,1,1.0,1.0,0.303364677762,0,0.0,0.0,0.0,0.34504439568,0.075590851627,0.269453544053,0.420635247307,0.075590851627,0.394508342433,356,-0.17284377641,0.473239407326,0.0788368070227,nan,nan,nan,nan,nan,nan,nan,nan,916.681722791,1141.06115857,nan,1141.36452325,nan,nan,nan,nan
1,210,1,1,1.0,1.0,0.425554661895,0,0.0,0.0,0.0,0.344844012421,0.0754640150762,0.269379997345,0.420308027497,0.0754640150762,0.3726954361,19,0.99625917486,0.126374530333,-1.0,nan,nan,nan,nan,nan,nan,nan,nan,916.681722791,1142.00294447,nan,1142.42849914,nan,nan,nan,nan
1,211,1,1,1.0,1.0,0.35573258769,0,0.0,0.0,0.0,0.345230187777,0.0754889990189,0.269741188758,0.420719186796,0.0754889990189,0.361550642449,191,1.0,-0.0691479807067,0.414571651978,nan,nan,nan,nan,nan,nan,nan,nan,916.681722791,1142.94473523,nan,1143.30046781,nan,nan,nan,nan
1,212,1,1,1.0,1.0,0.301919524733,0,0.0,0.0,0.0,0.345280199205,0.0753125193695,0.269967679836,0.420592718575,0.0753125193695,0.361068924773,56,1.0,-0.0653675053377,-1.0,nan,nan,nan,nan,nan,nan,nan,nan,916.681722791,1143.88653339,nan,1144.18845292,nan,nan,nan,nan
1,213,1,1,1.0,1.0,0.336103708891,0,0.0,0.0,0.0,0.345074698378,0.0751928360739,0.269881862304,0.420267534452,0.0751928360739,0.331251940438,450,0.335949728395,0.405598329481,-1.0,nan,nan,nan,nan,nan,nan,nan,nan,916.681722791,1144.82832357,nan,1145.16442728,nan,nan,nan,nan
1,214,1,1,1.0,1.0,0.330303710245,0,0.0,0.0,0.0,0.34503238239,0.0750178031375,0.270014579253,0.420050185528,0.0750178031375,0.322775647956,2,0.863024578927,0.203622855609,-1.0,nan,nan,nan,nan,nan,nan,nan,nan,916.681722791,1145.77011946,nan,1146.10042317,nan,nan,nan,nan
1,215,1,1,1.0,1.0,0.316491080623,0,0.0,0.0,0.0,0.344963233695,0.0748482697522,0.270114963943,0.419811503447,0.0748482697522,0.327632833253,324,-0.114799643766,0.441158325109,0.368064040095,nan,nan,nan,nan,nan,nan,nan,nan,916.681722791,1146.71190821,nan,1147.0283993,nan,nan,nan,nan
1,216,0,0,0.0,1.0,0.438660822925,0,0.0,0.0,0.0,0.34483018625,0.0746984278893,0.270131758361,0.41952861414,0.0746984278893,0.361818537931,132,1.0,-0.307426825298,-0.115555361894,nan,nan,nan,nan,nan,nan,nan,nan,916.681722791,1147.65371379,nan,1148.09237462,nan,nan,nan,nan
1,217,1,1,1.0,1.0,0.312884327606,0,0.0,0.0,0.0,0.345266607816,0.0747974703061,0.27046913751,0.420064078122,0.0747974703061,0.356012077051,506,0.797774742377,0.236703125255,-1.0,nan,nan,nan,nan,nan,nan,nan,nan,916.681722791,1148.59545893,nan,1148.90834326,nan,nan,nan,nan
1,218,1,1,1.0,1.0,0.32304002723,0,0.0,0.0,0.0,0.345116689852,0.0746564971276,0.270460192725,0.41977318698,0.0746564971276,0.358195059254,225,0.81146624694,0.115131125244,0.600981946568,nan,nan,nan,nan,nan,nan,nan,nan,916.681722791,1149.53728903,nan,1149.86032905,nan,nan,nan,nan
1,219,1,1,1.0,1.0,0.309208581282,0,0.0,0.0,0.0,0.34501495408,0.0744992848366,0.270515669243,0.419514238917,0.0744992848366,0.315044312039,161,1.0,-0.223158351501,0.167490545043,nan,nan,nan,nan,nan,nan,nan,nan,916.681722791,1150.47908348,nan,1150.78829207,nan,nan,nan,nan
1,220,1,1,1.0,1.0,0.279407182243,0,0.0,0.0,0.0,0.344850704663,0.0743675888109,0.270483115853,0.419218293474,0.0743675888109,0.303885263585,481,0.589289488337,0.325611856148,-1.0,nan,nan,nan,nan,nan,nan,nan,nan,916.681722791,1151.42086825,nan,1151.70027543,nan,nan,nan,nan
1,221,1,1,1.0,1.0,0.209584822878,0,1.0,0.0,0.0,0.344551875794,0.0743286740181,0.270223201776,0.418880549812,0.0743286740181,0.266066862134,384,-0.0924750057551,0.477945316949,-0.222479273925,nan,nan,nan,nan,nan,nan,nan,nan,916.681722791,1152.36266527,nan,1152.5722501,nan,nan,nan,nan
1,222,1,1,1.0,1.0,0.259774026985,1,0.0,0.0,1.0,0.34393838919,0.0747132075764,0.269225181613,0.418651596766,0.0747132075764,0.249588677369,135,1.0,-0.303502321856,-0.0849788702499,-5.99409294911,95.9940929491,1.07221794911,137.0,1.0,-0.300190217086,-0.0647316600203,1.54228989902,916.681722791,1153.30446144,1154.11287617,1153.56423547,1156.69654666,1157.69546101,1155.13800199,1156.68821272
1,223,1,1,1.0,1.0,0.397743234877,0,0.0,0.0,0.0,0.343557554972,0.0747576940211,0.268799860951,0.418315248993,0.0747576940211,0.289034028247,191,1.0,-0.0691479807067,0.414571651978,nan,nan,nan,nan,nan,nan,nan,nan,916.681722791,1157.83839489,nan,1158.23613812,nan,nan,nan,nan
1,224,1,1,1.0,1.0,0.311911579105,0,0.0,0.0,0.0,0.343801634611,0.0746773357829,0.269124298828,0.418478970394,0.0746773357829,0.323142946989,419,0.107894673663,0.454841969249,-0.678098861371,nan,nan,nan,nan,nan,nan,nan,nan,916.681722791,1158.78019676,nan,1159.09210834,nan,nan,nan,nan
1,225,1,1,1.0,1.0,0.242101763957,0,0.0,0.0,0.0,0.343658629878,0.0745401691355,0.269118460742,0.418198799013,0.0745401691355,0.317252192646,130,1.0,-0.309333154106,-0.136071487739,nan,nan,nan,nan,nan,nan,nan,nan,916.681722791,1159.72198523,nan,1159.96408699,nan,nan,nan,nan
1,226,1,1,1.0,1.0,0.252296236693,0,0.0,0.0,0.0,0.343205251012,0.0746811245925,0.268524126419,0.417886375604,0.0746811245925,0.268769859918,185,1.0,-0.102214474652,0.370299946716,nan,nan,nan,nan,nan,nan,nan,nan,916.681722791,1160.66378311,nan,1160.91607934,nan,nan,nan,nan
1,227,1,1,1.0,1.0,0.278484895767,0,1.0,0.0,0.0,0.342801210948,0.0747599500912,0.268041260857,0.41756116104,0.0747599500912,0.257627632139,297,0.0686262056446,0.388646276542,0.544904663634,nan,nan,nan,nan,nan,nan,nan,nan,916.681722791,1161.60556502,nan,1161.88404992,nan,nan,nan,nan
1,228,1,1,1.0,1.0,0.272661234078,1,0.0,0.0,1.0,0.342516625483,0.074716412701,0.267800212782,0.417233038184,0.074716412701,0.267814122179,169,1.0,-0.185917379452,0.239118302078,-30.4933584025,120.493358402,1.66523340248,171.0,1.0,-0.176011872558,0.256450910142,1.26712067297,916.681722791,1162.54736034,1163.35577421,1162.82002157,1165.65605842,1166.66521914,1164.37256895,1165.64772306
1,229,1,1,1.0,1.0,0.437672394153,0,0.0,0.0,0.0,0.342208892481,0.0746950583313,0.26751383415,0.416903950812,0.0746950583313,0.329606174666,421,0.121471671064,0.452518040197,-0.712610339232,nan,nan,nan,nan,nan,nan,nan,nan,916.681722791,1166.80626026,nan,1167.24393265,nan,nan,nan,nan
1,230,1,1,1.0,1.0,0.33583030157,0,0.0,0.0,0.0,0.34262759205,0.0747975675795,0.26783002447,0.417425159629,0.0747975675795,0.348721309934,323,-0.11001989341,0.43965344528,0.375855360355,nan,nan,nan,nan,nan,nan,nan,nan,916.681722791,1167.74805899,nan,1168.08388929,nan,nan,nan,nan
1,231,1,1,1.0,1.0,0.28204802901,0,0.0,0.0,0.0,0.342597909559,0.0746354211832,0.267962488375,0.417233330742,0.0746354211832,0.351850241578,89,1.0,-0.229484098413,-0.587370487375,nan,nan,nan,nan,nan,nan,nan,nan,916.681722791,1168.68984176,nan,1168.97188979,nan,nan,nan,nan
1,232,1,1,1.0,1.0,0.276214388956,0,0.0,0.0,0.0,0.342334649208,0.0745794733227,0.267755175886,0.416914122531,0.0745794733227,0.298030906512,252,0.524721685615,0.240693665738,0.655694012224,nan,nan,nan,nan,nan,nan,nan,nan,916.681722791,1169.63163822,nan,1169.90785261,nan,nan,nan,nan
1,233,0,0,1.0,0.0,0.278412766347,0,0.0,0.0,0.0,0.342048414316,0.0745443726291,0.267504041687,0.416592786945,0.0745443726291,0.278891728104,348,-0.175384772129,0.468017843042,0.157582163916,nan,nan,nan,nan,nan,nan,nan,nan,916.681722791,1170.57343752,nan,1170.85185029,nan,nan,nan,nan
1,234,1,1,1.0,1.0,0.296618444496,0,0.0,0.0,0.0,0.34177412273,0.0745002750317,0.267273847698,0.416274397761,0.0745002750317,0.283748533266,115,1.0,-0.305166285737,-0.293172749504,nan,nan,nan,nan,nan,nan,nan,nan,916.681722791,1171.51519691,nan,1171.81181536,nan,nan,nan,nan
1,235,0,0,0.0,1.0,0.586765773769,0,0.0,0.0,0.0,0.341580321535,0.0743988148691,0.267181506666,0.415979136404,0.0743988148691,0.387265661537,235,0.707591924495,0.164537776567,0.631659631194,nan,nan,nan,nan,nan,nan,nan,nan,916.681722791,1172.45702558,nan,1173.04379136,nan,nan,nan,nan
1,236,1,1,1.0,1.0,0.532966110273,0,0.0,0.0,0.0,0.342628122613,0.0759429833294,0.266685139284,0.418571105943,0.0759429833294,0.472116776179,188,1.0,-0.0857393506835,0.392804289229,nan,nan,nan,nan,nan,nan,nan,nan,916.681722791,1173.39881833,nan,1173.93178444,nan,nan,nan,nan
1,237,1,1,1.0,1.0,0.447153270885,0,0.0,0.0,0.0,0.343438071497,0.0767873875192,0.266650683978,0.420225459016,0.0767873875192,0.522295051642,275,0.279002393219,0.326185254474,0.630178474337,nan,nan,nan,nan,nan,nan,nan,nan,916.681722791,1174.34060338,nan,1174.78775665,nan,nan,nan,nan
1,238,1,1,1.0,1.0,0.321335436602,0,0.0,1.0,0.0,0.343877542681,0.0769201225579,0.266957420123,0.420797665239,0.0769201225579,0.433818272587,385,-0.0879796604702,0.477733444059,-0.233926720364,nan,nan,nan,nan,nan,nan,nan,nan,916.681722791,1175.28239186,nan,1175.60372729,nan,nan,nan,nan
1,239,1,1,1.0,1.0,0.291518927435,1,0.0,0.0,1.0,0.343782428309,0.0767715786262,0.267010849683,0.420554006935,0.0767715786262,0.353335878307,17,0.981069150956,0.135921910835,-1.0,76.7113458652,13.2886541348,1.33552913476,19.0,0.99625917486,0.126374530333,-1.0,1.63395234389,916.681722791,1176.22418888,1177.03260076,1176.51570781,1179.69962199,1180.70491765,1178.04938751,1179.69129034
1,240,1,1,1.0,1.0,0.353773120965,0,0.0,0.0,0.0,0.343562833768,0.0766846768307,0.266878156937,0.420247510598,0.0766846768307,0.322209161667,248,0.568115903494,0.223728204869,0.653295769881,nan,nan,nan,nan,nan,nan,nan,nan,916.681722791,1180.84982354,nan,1181.20359666,nan,nan,nan,nan
1,241,1,1,1.0,1.0,0.315977052029,0,0.0,0.0,0.0,0.343605554635,0.0765269185282,0.267078636106,0.420132473163,0.0765269185282,0.320423033476,192,1.0,-0.0635997558896,0.421658406928,nan,nan,nan,nan,nan,nan,nan,nan,916.681722791,1181.79159662,nan,1182.10757367,nan,nan,nan,nan
1,242,1,1,1.0,1.0,0.262175677984,0,0.0,0.0,0.0,0.343490435874,0.076388055529,0.267102380345,0.419878491403,0.076388055529,0.310641950326,68,1.0,-0.129018143495,-0.972903198114,nan,nan,nan,nan,nan,nan,nan,nan,916.681722791,1182.73339165,nan,1182.99556732,nan,nan,nan,nan
1,243,0,0,1.0,0.0,0.256351446151,0,0.0,0.0,0.0,0.343153030239,0.076408409641,0.266744620598,0.41956143988,0.076408409641,0.278168058721,133,1.0,-0.306259573676,-0.105336427414,nan,nan,nan,nan,nan,nan,nan,nan,916.681722791,1183.67519494,nan,1183.93154639,nan,nan,nan,nan
1,244,1,1,1.0,1.0,0.330532642547,0,0.0,0.0,0.0,0.342794346008,0.0764534223524,0.266340923655,0.41924776836,0.0764534223524,0.283019922227,188,1.0,-0.0857393506835,0.392804289229,nan,nan,nan,nan,nan,nan,nan,nan,916.681722791,1184.61697543,nan,1184.94750807,nan,nan,nan,nan
1,245,1,1,1.0,1.0,0.340723408968,0,0.0,0.0,0.0,0.342743886323,0.0762999865617,0.266443899761,0.419043872884,0.0762999865617,0.309202499222,474,0.530901762182,0.346545376391,-1.0,nan,nan,nan,nan,nan,nan,nan,nan,916.681722791,1185.55877103,nan,1185.89949444,nan,nan,nan,nan
1,246,1,1,1.0,1.0,0.342902114789,0,0.0,0.0,0.0,0.342735605678,0.0761435830176,0.26659202266,0.418879188695,0.0761435830176,0.338052722102,117,1.0,-0.307587969795,-0.271886539361,nan,nan,nan,nan,nan,nan,nan,nan,916.681722791,1186.5005652,nan,1186.84346732,nan,nan,nan,nan
1,247,1,1,1.0,1.0,0.265101621102,0,0.0,0.0,0.0,0.342736285307,0.075988029801,0.266748255506,0.418724315108,0.075988029801,0.31624238162,6,0.895129075663,0.186272780825,-1.0,nan,nan,nan,nan,nan,nan,nan,nan,916.681722791,1187.44235082,nan,1187.70745245,nan,nan,nan,nan
1,248,1,1,1.0,1.0,0.299264137982,0,0.0,0.0,0.0,0.342420697241,0.0759941403766,0.266426556864,0.418414837617,0.0759941403766,0.302422624625,470,0.497741612616,0.357740777197,-1.0,nan,nan,nan,nan,nan,nan,nan,nan,916.681722791,1188.38416125,nan,1188.68342539,nan,nan,nan,nan
1,249,1,1,1.0,1.0,0.381460246048,0,0.0,0.0,0.0,0.342245974329,0.0758896453647,0.266356328964,0.418135619694,0.0758896453647,0.315275335044,27,1.0,0.0870912575778,-1.0,nan,nan,nan,nan,nan,nan,nan,nan,916.681722791,1189.32593775,nan,1189.70739799,nan,nan,nan,nan
1,250,1,1,1.0,1.0,0.343648781942,0,0.0,0.0,0.0,0.342404096392,0.0757772470969,0.266626849295,0.418181343489,0.0757772470969,0.341457721991,470,0.497741612616,0.357740777197,-1.0,nan,nan,nan,nan,nan,nan,nan,nan,916.681722791,1190.26773163,nan,1190.61138042,nan,nan,nan,nan
1,251,1,1,1.0,1.0,0.321841482481,0,0.0,0.0,0.0,0.342409095129,0.0756249718393,0.26678412329,0.418034066969,0.0756249718393,0.34898350349,206,0.994723455659,0.014051917983,0.511316161583,nan,nan,nan,nan,nan,nan,nan,nan,916.681722791,1191.20952495,nan,1191.53136644,nan,nan,nan,nan
1,252,1,1,1.0,1.0,0.316028084257,0,0.0,0.0,0.0,0.342326824679,0.0754847346062,0.266842090073,0.417811559285,0.0754847346062,0.327172782893,278,0.248285521772,0.335802812283,0.621962573991,nan,nan,nan,nan,nan,nan,nan,nan,916.681722791,1192.15131542,nan,1192.4673435,nan,nan,nan,nan
1,253,0,0,1.0,0.0,0.270213397394,0,0.0,0.0,0.0,0.342222048821,0.0753524298013,0.266869619019,0.417574478622,0.0753524298013,0.302694321377,494,0.698129958021,0.282143999684,-1.0,nan,nan,nan,nan,nan,nan,nan,nan,916.681722791,1193.09310703,nan,1193.36332043,nan,nan,nan,nan
1,254,1,1,1.0,1.0,0.304392164748,0,0.0,0.0,0.0,0.341936300204,0.0753389122309,0.266597387973,0.417275212435,0.0753389122309,0.296877882133,392,-0.0541067903503,0.475522277549,-0.315549842675,nan,nan,nan,nan,nan,nan,nan,nan,916.681722791,1194.03490092,nan,1194.33929308,nan,nan,nan,nan
1,255,1,1,1.0,1.0,0.330583389674,0,0.0,0.0,0.0,0.341787904411,0.0752267670106,0.266561137401,0.417014671422,0.0752267670106,0.301729650605,148,1.0,-0.272695592461,0.0444264621409,nan,nan,nan,nan,nan,nan,nan,nan,916.681722791,1194.97669252,nan,1195.30727591,nan,nan,nan,nan
1,256,1,1,1.0,1.0,0.300748064124,0,0.0,0.0,0.0,0.341743792149,0.0750818153497,0.266661976799,0.416825607498,0.0750818153497,0.311907872849,439,0.251144291643,0.426392204401,-1.0,nan,nan,nan,nan,nan,nan,nan,nan,916.681722791,1195.91849126,nan,1196.21923932,nan,nan,nan,nan
1,257,1,1,1.0,1.0,0.334950209362,0,0.0,0.0,0.0,0.341583024588,0.0749782432225,0.266604781365,0.41656126781,0.0749782432225,0.32209388772,271,0.320642857732,0.312811632898,0.639400143054,nan,nan,nan,nan,nan,nan,nan,nan,916.681722791,1196.86028002,nan,1197.19523023,nan,nan,nan,nan
1,258,1,1,1.0,1.0,0.34518317011,0,0.0,0.0,0.0,0.341557115153,0.0748328018181,0.266724313335,0.416389916971,0.0748328018181,0.326960481199,138,1.0,-0.29832987918,-0.0546508148191,nan,nan,nan,nan,nan,nan,nan,nan,916.681722791,1197.80203028,nan,1198.14721345,nan,nan,nan,nan
1,259,1,1,1.0,1.0,0.35530009662,0,0.0,0.0,0.0,0.341571224317,0.0746874119759,0.266883812341,0.416258636292,0.0746874119759,0.345144492031,29,1.0,0.0770173926463,-1.0,nan,nan,nan,nan,nan,nan,nan,nan,916.681722791,1198.74388319,nan,1199.09918328,nan,nan,nan,nan
1,260,1,1,1.0,1.0,0.389510794717,0,0.0,0.0,0.0,0.341624437,0.0745474094729,0.267077027527,0.416171846473,0.0745474094729,0.363331353816,120,1.0,-0.310161497659,-0.240162905937,nan,nan,nan,nan,nan,nan,nan,nan,916.681722791,1199.6856614,nan,1200.07517219,nan,nan,nan,nan
1,261,1,1,1.0,1.0,0.32769393886,0,0.0,0.0,0.0,0.341809326412,0.0744626009216,0.26734672549,0.416271927334,0.0744626009216,0.357501610066,451,0.343830962376,0.403518361206,-1.0,nan,nan,nan,nan,nan,nan,nan,nan,916.681722791,1200.62745129,nan,1200.95514523,nan,nan,nan,nan
1,262,1,1,1.0,1.0,0.553867658891,0,0.0,1.0,0.0,0.34175503646,0.0743244012698,0.26743063519,0.41607943773,0.0743244012698,0.423690797489,82,1.0,-0.198479155091,-0.679872484948,nan,nan,nan,nan,nan,nan,nan,nan,916.681722791,1201.56924376,nan,1202.12311142,nan,nan,nan,nan
1,263,1,1,1.0,1.0,0.43606502132,1,0.0,0.0,1.0,0.3425677285,0.0753304267729,0.267237301727,0.417898155273,0.0753304267729,0.439208873024,235,0.707591924495,0.164537776567,0.631659631194,-75.7627195342,165.762719534,0.528344534239,236.0,0.697004556276,0.169301754335,0.634065852989,1.40048842691,916.681722791,1202.51103365,1203.31944696,1202.94709867,1205.75309579,1206.75634731,1204.33623058,1205.74474532
1,264,0,0,0.0,1.0,0.524045732862,0,0.0,0.0,0.0,0.342924588396,0.0754072425236,0.267517345872,0.41833183092,0.0754072425236,0.504659471024,93,1.0,-0.245614297951,-0.538619881923,nan,nan,nan,nan,nan,nan,nan,nan,916.681722791,1206.89495286,nan,1207.41899859,nan,nan,nan,nan
1,265,1,1,1.0,1.0,0.390220969566,0,0.0,0.0,0.0,0.343613261949,0.0760847590846,0.267528502865,0.419698021034,0.0760847590846,0.450110574583,466,0.464789014893,0.368385601135,-1.0,nan,nan,nan,nan,nan,nan,nan,nan,916.681722791,1207.83675045,nan,1208.22697142,nan,nan,nan,nan
1,266,1,1,1.0,1.0,0.464412144327,0,0.0,0.0,0.0,0.343789806296,0.0759944741977,0.267795332099,0.419784280494,0.0759944741977,0.459559615585,503,0.773020196022,0.248538461814,-1.0,nan,nan,nan,nan,nan,nan,nan,nan,916.681722791,1208.77854263,nan,1209.24295477,nan,nan,nan,nan
1,267,1,1,1.0,1.0,0.386597395875,0,0.0,0.0,0.0,0.34424498493,0.0762106591957,0.268034325735,0.420455644126,0.0762106591957,0.413743503256,138,1.0,-0.29832987918,-0.0546508148191,nan,nan,nan,nan,nan,nan,nan,nan,916.681722791,1209.72033509,nan,1210.10693249,nan,nan,nan,nan
1,268,0,0,1.0,0.0,0.292763657751,0,0.0,0.0,0.0,0.34440420452,0.0761114165447,0.268292787976,0.420515621065,0.0761114165447,0.381257732651,93,1.0,-0.245614297951,-0.538619881923,nan,nan,nan,nan,nan,nan,nan,nan,916.681722791,1210.66214238,nan,1210.95490604,nan,nan,nan,nan
1,269,1,1,1.0,1.0,0.318963720638,0,0.0,0.0,0.0,0.344210794233,0.0760342140123,0.268176580221,0.420245008245,0.0760342140123,0.332774924755,22,1.0,0.111842423158,-1.0,nan,nan,nan,nan,nan,nan,nan,nan,916.681722791,1211.60391945,nan,1211.92288317,nan,nan,nan,nan
1,270,1,1,1.0,1.0,0.393152044388,0,0.0,0.0,0.0,0.344116588734,0.0759078361621,0.268208752572,0.420024424896,0.0759078361621,0.334959807592,318,-0.0835627602325,0.431640264478,0.413481556053,nan,nan,nan,nan,nan,nan,nan,nan,916.681722791,1212.54571248,nan,1212.93886452,nan,nan,nan,nan
1,271,1,1,1.0,1.0,0.347343914793,0,0.0,0.0,0.0,0.344298876674,0.0758253576401,0.268473519033,0.420124234314,0.0758253576401,0.353153226606,391,-0.0591907973189,0.475916278612,-0.303718712187,nan,nan,nan,nan,nan,nan,nan,nan,916.681722791,1213.48750238,nan,1213.83484629,nan,nan,nan,nan
1,272,1,1,1.0,1.0,0.293533132586,0,0.0,0.0,0.0,0.344310154593,0.0756850360862,0.268625118506,0.419995190679,0.0756850360862,0.344676363922,267,0.362924526182,0.298807232282,0.646622522267,nan,nan,nan,nan,nan,nan,nan,nan,916.681722791,1214.42929227,nan,1214.72282541,nan,nan,nan,nan
1,273,1,1,1.0,1.0,0.295708417194,0,0.0,0.0,0.0,0.344122785508,0.0756079775148,0.268514807993,0.419730763022,0.0756079775148,0.312195154858,26,1.0,0.0920921692153,-1.0,nan,nan,nan,nan,nan,nan,nan,nan,916.681722791,1215.37109215,nan,1215.66680057,nan,nan,nan,nan
1,274,1,1,1.0,1.0,0.401899653545,0,0.0,0.0,0.0,0.343944791506,0.0755257258251,0.268419065681,0.419470517332,0.0755257258251,0.330380401108,258,0.459642287315,0.26499291187,0.655490062901,nan,nan,nan,nan,nan,nan,nan,nan,916.681722791,1216.31288091,nan,1216.71478056,nan,nan,nan,nan
1,275,1,1,1.0,1.0,0.404086627066,0,0.0,0.0,0.0,0.344157080378,0.0754685305195,0.268688549859,0.419625610898,0.0754685305195,0.367231565935,97,1.0,-0.260369742894,-0.491718830742,nan,nan,nan,nan,nan,nan,nan,nan,916.681722791,1217.25467109,nan,1217.65875772,nan,nan,nan,nan
1,276,1,1,1.0,1.0,0.374225927982,0,0.0,0.0,0.0,0.344375801352,0.0754173230473,0.268958478304,0.419793124399,0.0754173230473,0.393404069531,214,0.920243657418,0.0575410437433,0.553854850604,nan,nan,nan,nan,nan,nan,nan,nan,916.681722791,1218.19649121,nan,1218.57071713,nan,nan,nan,nan
1,277,1,1,1.0,1.0,0.336474048963,0,0.0,0.0,0.0,0.344484347267,0.0753015148135,0.269182832453,0.41978586208,0.0753015148135,0.371595534671,441,0.266287261384,0.422891888867,-1.0,nan,nan,nan,nan,nan,nan,nan,nan,916.681722791,1219.13825345,nan,1219.4747275,nan,nan,nan,nan
1,278,1,1,1.0,1.0,0.362634198391,0,0.0,0.0,0.0,0.344455324447,0.075166516092,0.269288808355,0.419621840539,0.075166516092,0.357778058446,102,1.0,-0.276610342793,-0.434926949461,nan,nan,nan,nan,nan,nan,nan,nan,916.681722791,1220.0800499,nan,1220.4426841,nan,nan,nan,nan
1,279,1,1,1.0,1.0,0.324832712649,0,0.0,0.0,0.0,0.344520952151,0.0750386349936,0.269482317157,0.419559587144,0.0750386349936,0.341313653335,457,0.391639248186,0.390358177281,-1.0,nan,nan,nan,nan,nan,nan,nan,nan,916.681722791,1221.02184721,nan,1221.34667993,nan,nan,nan,nan
1,280,1,1,1.0,1.0,0.303011728567,0,0.0,0.0,0.0,0.344450131145,0.0749128253536,0.269537305792,0.419362956499,0.0749128253536,0.330159546536,271,0.320642857732,0.312811632898,0.639400143054,nan,nan,nan,nan,nan,nan,nan,nan,916.681722791,1221.96363854,nan,1222.26665026,nan,nan,nan,nan
1,281,1,1,1.0,1.0,0.265201689908,0,0.0,0.0,0.0,0.344301606405,0.0748194461445,0.26948216026,0.419121052549,0.0748194461445,0.297682043708,142,1.0,-0.289568116499,-0.0146273521697,nan,nan,nan,nan,nan,nan,nan,nan,916.681722791,1222.90542815,nan,1223.17062984,nan,nan,nan,nan
1,282,1,1,1.0,1.0,0.299388725078,0,0.0,0.0,0.0,0.344019106703,0.0748346359733,0.26918447073,0.418853742676,0.0748346359733,0.289200714518,288,0.150005133015,0.365331945294,0.586687239957,nan,nan,nan,nan,nan,nan,nan,nan,916.681722791,1223.84722061,nan,1224.14660934,nan,nan,nan,nan
1,283,1,1,1.0,1.0,0.341578697844,0,0.0,0.0,0.0,0.343860279722,0.0747486214302,0.269111658292,0.418608901152,0.0747486214302,0.302056370943,511,0.838703193994,0.216284169582,-1.0,nan,nan,nan,nan,nan,nan,nan,nan,916.681722791,1224.78900965,nan,1225.13058835,nan,nan,nan,nan
1,284,0,0,0.0,1.0,0.503748303337,0,0.0,0.0,0.0,0.343852189006,0.0746160939697,0.269236095036,0.418468282976,0.0746160939697,0.381571908753,239,0.665069831863,0.183388857662,0.640549267122,nan,nan,nan,nan,nan,nan,nan,nan,916.681722791,1225.73082464,nan,1226.23457294,nan,nan,nan,nan
1,285,1,1,1.0,1.0,0.353960144101,0,0.0,0.0,0.0,0.344417192944,0.0750860228134,0.26933117013,0.419503215757,0.0750860228134,0.399762381761,402,0.000724920831492,0.470139955471,-0.437811562499,nan,nan,nan,nan,nan,nan,nan,nan,916.681722791,1226.67259429,nan,1227.02655444,nan,nan,nan,nan
1,286,1,1,1.0,1.0,0.356135143607,0,0.0,0.0,0.0,0.344450794884,0.0749558440407,0.269494950844,0.419406638925,0.0749558440407,0.404614530349,481,0.589289488337,0.325611856148,-1.0,nan,nan,nan,nan,nan,nan,nan,nan,916.681722791,1227.61439132,nan,1227.97052646,nan,nan,nan,nan
1,287,1,1,1.0,1.0,0.478310872975,0,0.0,0.0,0.0,0.344491792599,0.0748274167513,0.269664375848,0.419319209351,0.0748274167513,0.396135386894,9,0.918933560847,0.172916688009,-1.0,nan,nan,nan,nan,nan,nan,nan,nan,916.681722791,1228.55618891,nan,1229.03449979,nan,nan,nan,nan
1,288,1,1,1.0,1.0,0.448533136863,0,0.0,1.0,0.0,0.344959691482,0.0751129798759,0.269846711606,0.420072671358,0.0751129798759,0.427659717815,252,0.524721685615,0.240693665738,0.655694012224,nan,nan,nan,nan,nan,nan,nan,nan,916.681722791,1229.49795116,nan,1229.94648429,nan,nan,nan,nan
1,289,1,1,1.0,1.0,0.394673318136,1,0.0,0.0,1.0,0.345320574567,0.0752299741951,0.270090600372,0.420550548762,0.0752299741951,0.440505775992,194,1.0,-0.0524864644427,0.435571704399,-64.0510087313,154.051008731,17.6447587313,219.0,0.871627318206,0.0840881726889,0.576959667802,1.62554856087,916.681722791,1230.43976757,1231.24818258,1230.83444088,1233.90685562,1234.91370791,1232.26495081,1233.89851741
1,290,1,1,1.0,1.0,0.473302301543,0,0.0,0.0,0.0,0.34549193826,0.0751553438447,0.270336594415,0.420647282104,0.0751553438447,0.438836252181,45,1.0,-0.0063957592436,-1.0,nan,nan,nan,nan,nan,nan,nan,nan,916.681722791,1235.05705062,nan,1235.53035292,nan,nan,nan,nan
1,291,1,1,1.0,1.0,0.4514682031,0,0.0,0.0,0.0,0.345934188652,0.0753996679479,0.270534520704,0.421333856599,0.0753996679479,0.439814607593,491,0.673033477965,0.292707709811,-1.0,nan,nan,nan,nan,nan,nan,nan,nan,916.681722791,1235.99884679,nan,1236.45031499,nan,nan,nan,nan
1,292,1,1,1.0,1.0,0.413659019687,0,0.0,1.0,0.0,0.346298099046,0.0755233645529,0.270774734493,0.421821463599,0.0755233645529,0.446143174777,308,-0.0186828559465,0.413097475488,0.481682330771,nan,nan,nan,nan,nan,nan,nan,nan,916.681722791,1236.94063383,nan,1237.35429285,nan,nan,nan,nan
1,293,0,0,0.0,1.0,0.503840959631,1,0.0,0.0,1.0,0.346529579873,0.0754964711619,0.271033108711,0.422026051035,0.0754964711619,0.456322727473,138,1.0,-0.29832987918,-0.0546508148191,-11.4819913547,101.481991355,4.45074135475,144.0,1.0,-0.284423189345,0.00519445478499,1.81721422734,916.681722791,1237.88242915,1238.69083732,1238.38627011,1241.53285293,1242.54194408,1239.69927588,1241.52451785
1,294,1,1,1.0,1.0,0.447094256,0,0.0,0.0,0.0,0.347068317475,0.0759253376409,0.271142979834,0.422993655116,0.0759253376409,0.454864745106,507,0.805995650865,0.232688349973,-1.0,nan,nan,nan,nan,nan,nan,nan,nan,916.681722791,1242.68307728,nan,1243.13017154,nan,nan,nan,nan
1,295,1,1,1.0,1.0,0.385275974637,0,0.0,0.0,0.0,0.347409702931,0.0760198208071,0.271389882124,0.423429523738,0.0760198208071,0.445403730089,461,0.423959648591,0.380927367285,-1.0,nan,nan,nan,nan,nan,nan,nan,nan,916.681722791,1243.6248669,nan,1244.01014287,nan,nan,nan,nan
1,296,1,1,1.0,1.0,0.435467459552,0,0.0,0.0,0.0,0.347538499773,0.0759224414506,0.271616058323,0.423460941224,0.0759224414506,0.422612563396,135,1.0,-0.303502321856,-0.0849788702499,nan,nan,nan,nan,nan,nan,nan,nan,916.681722791,1244.56665508,nan,1245.00212254,nan,nan,nan,nan
1,297,1,1,1.0,1.0,0.373675407027,0,0.0,0.0,0.0,0.347836564044,0.0759657622598,0.271870801784,0.423802326304,0.0759657622598,0.398139613739,319,-0.0891891826932,0.433308674125,0.406137099325,nan,nan,nan,nan,nan,nan,nan,nan,916.681722791,1245.50841733,nan,1245.88209273,nan,nan,nan,nan
1,298,1,1,1.0,1.0,0.35185613361,0,0.0,0.0,0.0,0.347923857432,0.0758521525061,0.272071704926,0.423776009938,0.0758521525061,0.38699966673,266,0.373577590308,0.295207490188,0.648113769863,nan,nan,nan,nan,nan,nan,nan,nan,916.681722791,1246.45023972,nan,1246.80209586,nan,nan,nan,nan
1,299,1,1,1.0,1.0,0.33002460096,0,0.0,0.0,0.0,0.347937097419,0.0757246902193,0.2722124072,0.423661787639,0.0757246902193,0.351852047199,137,1.0,-0.300190217086,-0.0647316600203,nan,nan,nan,nan,nan,nan,nan,nan,916.681722791,1247.39202477,nan,1247.72204937,nan,nan,nan,nan
1,300,1,1,1.0,1.0,0.284188246762,0,0.0,0.0,0.0,0.347876988371,0.0756046256562,0.272272362715,0.423481614027,0.0756046256562,0.322022993777,238,0.675741828754,0.178727669763,0.638511091232,nan,nan,nan,nan,nan,nan,nan,nan,916.681722791,1248.33384974,nan,1248.61803798,nan,nan,nan,nan
1,301,1,1,1.0,1.0,0.31040256453,0,0.0,0.0,0.0,0.347663982546,0.0755676046099,0.272096377936,0.423231587156,0.0755676046099,0.308205137417,194,1.0,-0.0524864644427,0.435571704399,nan,nan,nan,nan,nan,nan,nan,nan,916.681722791,1249.27561711,nan,1249.58601968,nan,nan,nan,nan
1,302,1,1,1.0,1.0,0.288595835271,0,0.0,0.0,0.0,0.347539777819,0.0754721180813,0.272067659738,0.423011895901,0.0754721180813,0.294395548854,329,-0.136053278316,0.448203788942,0.3278337444,nan,nan,nan,nan,nan,nan,nan,nan,916.681722791,1250.21740387,nan,1250.50599971,nan,nan,nan,nan
1,303,1,1,1.0,1.0,0.282765331271,0,0.0,0.0,0.0,0.347343950768,0.0754229497897,0.271921000978,0.422766900557,0.0754229497897,0.29392124369,511,0.838703193994,0.216284169582,-1.0,nan,nan,nan,nan,nan,nan,nan,nan,916.681722791,1251.15920746,nan,1251.44197279,nan,nan,nan,nan
1,304,1,1,1.0,1.0,0.260954325553,0,0.0,0.0,0.0,0.347130114279,0.0753893122373,0.271740802042,0.422519426517,0.0753893122373,0.277438497365,307,-0.0113868739462,0.411053355611,0.487957006857,nan,nan,nan,nan,nan,nan,nan,nan,916.681722791,1252.1009945,nan,1252.36194883,nan,nan,nan,nan
1,305,0,0,0.0,1.0,0.495087933668,0,0.0,0.0,0.0,0.346845705736,0.0754269120174,0.271418793718,0.422272617753,0.0754269120174,0.346269196831,61,1.0,-0.0921163965413,-1.0,nan,nan,nan,nan,nan,nan,nan,nan,916.681722791,1253.04284113,nan,1253.53792907,nan,nan,nan,nan
1,306,1,1,1.0,1.0,0.345328854281,0,0.0,0.0,0.0,0.347333344643,0.0757796503456,0.271553694298,0.423112994989,0.0757796503456,0.367123704501,356,-0.17284377641,0.473239407326,0.0788368070227,nan,nan,nan,nan,nan,nan,nan,nan,916.681722791,1253.98457857,nan,1254.32990743,nan,nan,nan,nan
1,307,1,1,1.0,1.0,0.371500977722,0,0.0,0.0,0.0,0.347326772544,0.0756554061949,0.271671366349,0.422982178739,0.0756554061949,0.403972588557,135,1.0,-0.303502321856,-0.0849788702499,nan,nan,nan,nan,nan,nan,nan,nan,916.681722791,1254.9263736,nan,1255.29787458,nan,nan,nan,nan
1,308,1,1,1.0,1.0,0.341692736372,0,0.0,0.0,0.0,0.347405773214,0.0755442849563,0.271861488258,0.422950058171,0.0755442849563,0.352840856125,45,1.0,-0.0063957592436,-1.0,nan,nan,nan,nan,nan,nan,nan,nan,916.681722791,1255.86817006,nan,1256.20986279,nan,nan,nan,nan
1,309,1,1,1.0,1.0,0.287886230624,0,0.0,0.0,0.0,0.347387163974,0.0754218508173,0.271965313156,0.422809014791,0.0754218508173,0.333693314906,281,0.218083397074,0.345068392493,0.612644422055,nan,nan,nan,nan,nan,nan,nan,nan,916.681722791,1256.80995767,nan,1257.0978439,nan,nan,nan,nan
1,310,1,1,1.0,1.0,0.330070216325,0,0.0,0.0,0.0,0.347193979125,0.0753753535812,0.271818625544,0.422569332706,0.0753753535812,0.319883061107,414,0.0747837862165,0.460162189034,-0.600089175003,nan,nan,nan,nan,nan,nan,nan,nan,916.681722791,1257.75174757,nan,1258.08181779,nan,nan,nan,nan
1,311,1,1,1.0,1.0,0.324238286878,0,0.0,0.0,0.0,0.347138562417,0.075259572475,0.271878989942,0.422398134892,0.075259572475,0.314064911276,213,0.929785093221,0.0521668813814,0.548906519778,nan,nan,nan,nan,nan,nan,nan,nan,916.681722791,1258.69355315,nan,1259.01779143,nan,nan,nan,nan
1,312,1,1,1.0,1.0,0.334437606274,0,0.0,0.0,0.0,0.347064690561,0.0751493080455,0.271915382515,0.422213998606,0.0751493080455,0.329582036492,267,0.362924526182,0.298807232282,0.646622522267,nan,nan,nan,nan,nan,nan,nan,nan,916.681722791,1259.63533307,nan,1259.96977067,nan,nan,nan,nan
1,313,1,1,1.0,1.0,0.344630083302,0,0.0,0.0,0.0,0.347024089003,0.0750317974501,0.271992291553,0.422055886453,0.0750317974501,0.334435325485,42,1.0,0.00954878589686,-1.0,nan,nan,nan,nan,nan,nan,nan,nan,916.681722791,1260.57712866,nan,1260.92175875,nan,nan,nan,nan
1,314,0,0,0.0,1.0,0.482813968731,0,0.0,0.0,0.0,0.347016415908,0.074911579896,0.272104836012,0.421927995804,0.074911579896,0.387293886102,194,1.0,-0.0524864644427,0.435571704399,nan,nan,nan,nan,nan,nan,nan,nan,916.681722791,1261.51892113,nan,1262.0017351,nan,nan,nan,nan
1,315,1,1,1.0,1.0,0.317010526021,0,0.0,0.0,0.0,0.347450273904,0.075183405927,0.272266867977,0.422633679831,0.075183405927,0.381484859351,82,1.0,-0.198479155091,-0.679872484948,nan,nan,nan,nan,nan,nan,nan,nan,916.681722791,1262.46071302,nan,1262.77772355,nan,nan,nan,nan
1,316,1,1,1.0,1.0,0.335183703166,0,0.0,0.0,0.0,0.347353332032,0.0750831824115,0.272270149621,0.422436514444,0.0750831824115,0.378336065973,353,-0.175041255135,0.471490071959,0.108799216003,nan,nan,nan,nan,nan,nan,nan,nan,916.681722791,1263.40250691,nan,1263.73769061,nan,nan,nan,nan
1,317,1,1,1.0,1.0,0.377355714911,0,0.0,0.0,0.0,0.34731469829,0.0749670338968,0.272347664393,0.422281732187,0.0749670338968,0.343183314699,405,0.018463324075,0.468009379796,-0.476293327428,nan,nan,nan,nan,nan,nan,nan,nan,916.681722791,1264.34430023,nan,1264.72165594,nan,nan,nan,nan
1,318,1,1,1.0,1.0,0.323558047181,0,0.0,0.0,0.0,0.347409764798,0.074867336271,0.272542428527,0.422277101069,0.074867336271,0.345365821753,72,1.0,-0.149607777062,-0.853203742106,nan,nan,nan,nan,nan,nan,nan,nan,916.681722791,1265.28608385,nan,1265.6096419,nan,nan,nan,nan
1,319,1,1,1.0,1.0,0.317712718155,0,0.0,0.0,0.0,0.347334522787,0.0747611213786,0.272573401408,0.422095644165,0.0747611213786,0.339542160082,436,0.228681708805,0.431413732101,-1.0,nan,nan,nan,nan,nan,nan,nan,nan,916.681722791,1266.22789713,nan,1266.54560985,nan,nan,nan,nan
1,320,1,1,1.0,1.0,0.351913723047,0,0.0,0.0,0.0,0.347241372458,0.0746619025579,0.2725794699,0.421903275015,0.0746619025579,0.331061496128,393,-0.0489456633786,0.475102171109,-0.327443230616,nan,nan,nan,nan,nan,nan,nan,nan,916.681722791,1267.16967733,nan,1267.52159105,nan,nan,nan,nan
1,321,1,1,1.0,1.0,0.322106336942,0,0.0,0.0,0.0,0.347256019325,0.0745452433569,0.272710775968,0.421801262682,0.0745452433569,0.330577592715,253,0.513865899396,0.244839928328,0.655977188727,nan,nan,nan,nan,nan,nan,nan,nan,916.681722791,1268.11146552,nan,1268.43357185,nan,nan,nan,nan
1,322,1,1,1.0,1.0,0.268302111945,0,0.0,0.0,0.0,0.347177426567,0.0744419109717,0.272735515596,0.421619337539,0.0744419109717,0.314107390644,469,0.489482198204,0.360453357602,-1.0,nan,nan,nan,nan,nan,nan,nan,nan,916.681722791,1269.05325627,nan,1269.32155838,nan,nan,nan,nan
1,323,1,1,1.0,1.0,0.302471756237,0,0.0,0.0,0.0,0.346931709076,0.0744557266497,0.272475982426,0.421387435726,0.0744557266497,0.297626735041,292,0.112881669716,0.376069582356,0.569261850688,nan,nan,nan,nan,nan,nan,nan,nan,916.681722791,1269.99505158,nan,1270.29752334,nan,nan,nan,nan
1,324,1,1,1.0,1.0,0.24067314656,0,1.0,0.0,0.0,0.346793634688,0.0743811711831,0.272412463505,0.421174805872,0.0743811711831,0.270482338247,208,0.97651257568,0.025020743352,0.522574479073,nan,nan,nan,nan,nan,nan,nan,nan,916.681722791,1270.93684034,nan,1271.17751349,nan,nan,nan,nan
1,325,1,1,1.0,1.0,0.314851206844,1,0.0,0.0,1.0,0.346465088286,0.0744995806968,0.271965507589,0.420964668982,0.0744995806968,0.285998703213,291,0.122027637739,0.373441943191,0.573791926984,-112.011283198,202.011283198,-2.59809180208,287.0,0.159501648714,0.36255249221,0.590751920292,1.35046486376,916.681722791,1271.87863737,1272.68704839,1272.19348857,1275.07901842,1276.08123932,1273.71217649,1275.07067993
1,326,1,1,1.0,1.0,0.476521608711,0,0.0,0.0,0.0,0.346367514577,0.0744051912074,0.27196232337,0.420772705785,0.0744051912074,0.344015320705,155,1.0,-0.2479831371,0.111611878621,nan,nan,nan,nan,nan,nan,nan,nan,916.681722791,1276.22088034,nan,1276.69740195,nan,nan,nan,nan
1,327,0,0,0.0,1.0,0.4466457995,0,0.0,0.0,0.0,0.346767988713,0.0746395417568,0.272128446956,0.42140753047,0.0746395417568,0.412672871685,278,0.248285521772,0.335802812283,0.621962573991,nan,nan,nan,nan,nan,nan,nan,nan,916.681722791,1277.16271186,nan,1277.60935766,nan,nan,nan,nan
1,328,1,1,1.0,1.0,0.32089581812,0,0.0,0.0,0.0,0.347074362366,0.0747293658062,0.27234499656,0.421803728172,0.0747293658062,0.41468774211,39,1.0,0.0253789930673,-1.0,nan,nan,nan,nan,nan,nan,nan,nan,916.681722791,1278.10446441,nan,1278.42536023,nan,nan,nan,nan
1,329,1,1,1.0,1.0,0.339079258789,0,0.0,0.0,0.0,0.346994305656,0.0746290128444,0.272365292811,0.4216233185,0.0746290128444,0.36887362547,301,0.0351599448551,0.39804275895,0.523414514543,nan,nan,nan,nan,nan,nan,nan,nan,916.681722791,1279.04625687,nan,1279.38533613,nan,nan,nan,nan
1,330,1,1,1.0,1.0,0.285263629979,0,0.0,0.0,0.0,0.346970174415,0.0745164399621,0.272453734453,0.421486614377,0.0745164399621,0.315079568963,34,1.0,0.0514419701458,-1.0,nan,nan,nan,nan,nan,nan,nan,nan,916.681722791,1279.98804534,nan,1280.27330897,nan,nan,nan,nan
1,331,1,1,1.0,1.0,0.295448409393,0,0.0,0.0,0.0,0.346782616529,0.0744806061241,0.272302010405,0.421263222654,0.0744806061241,0.306597099387,187,1.0,-0.0912463489427,0.385383214542,nan,nan,nan,nan,nan,nan,nan,nan,916.681722791,1280.92985121,nan,1281.22529961,nan,nan,nan,nan
1,332,1,1,1.0,1.0,0.289650406397,0,0.0,0.0,0.0,0.346627058326,0.0744211781913,0.272205880135,0.421048236517,0.0744211781913,0.290120815257,448,0.32026743599,0.409662251776,-1.0,nan,nan,nan,nan,nan,nan,nan,nan,916.681722791,1281.87162314,nan,1282.16127355,nan,nan,nan,nan
1,333,1,1,1.0,1.0,0.363818488317,0,0.0,0.0,0.0,0.346454923426,0.0743744387496,0.272080484676,0.420829362175,0.0743744387496,0.316305768036,204,1.0,0.00303256528985,0.499654420455,nan,nan,nan,nan,nan,nan,nan,nan,916.681722791,1282.81342473,nan,1283.17724322,nan,nan,nan,nan
1,334,1,1,1.0,1.0,0.357992830977,0,0.0,0.0,0.0,0.34650722332,0.0742684401341,0.272238783186,0.420775663454,0.0742684401341,0.337153908564,391,-0.0591907973189,0.475916278612,-0.303718712187,nan,nan,nan,nan,nan,nan,nan,nan,916.681722791,1283.75522261,nan,1284.11321544,nan,nan,nan,nan
1,335,1,1,1.0,1.0,0.328173755901,0,0.0,0.0,0.0,0.346541714634,0.0741595050984,0.272382209536,0.420701219733,0.0741595050984,0.349995025065,82,1.0,-0.198479155091,-0.679872484948,nan,nan,nan,nan,nan,nan,nan,nan,916.681722791,1284.69702077,nan,1285.02519453,nan,nan,nan,nan
1,336,1,1,1.0,1.0,0.282380451332,0,0.0,0.0,0.0,0.346486720746,0.0740552046309,0.272431516115,0.420541925377,0.0740552046309,0.322849012737,121,1.0,-0.310732805591,-0.229640808446,nan,nan,nan,nan,nan,nan,nan,nan,916.681722791,1285.63880525,nan,1285.9211857,nan,nan,nan,nan
1,337,0,0,1.0,0.0,0.260553765344,0,0.0,0.0,0.0,0.346295358748,0.0740272487039,0.272268110044,0.420322607452,0.0740272487039,0.290369324192,438,0.243622561222,0.428096439079,-1.0,nan,nan,nan,nan,nan,nan,nan,nan,916.681722791,1286.58059515,nan,1286.84114892,nan,nan,nan,nan
1,338,1,1,1.0,1.0,0.334716145298,0,0.0,0.0,0.0,0.346040175434,0.0740644221769,0.271975753257,0.420104597611,0.0740644221769,0.292550120658,291,0.122027637739,0.373441943191,0.573791926984,nan,nan,nan,nan,nan,nan,nan,nan,916.681722791,1287.52239417,nan,1287.85711032,nan,nan,nan,nan
1,339,1,1,1.0,1.0,0.360917063488,0,0.0,0.0,0.0,0.346006572971,0.0739570176243,0.272049555347,0.419963590595,0.0739570176243,0.318728991377,90,1.0,-0.233635786423,-0.574971871003,nan,nan,nan,nan,nan,nan,nan,nan,916.681722791,1288.46418008,nan,1288.82509714,nan,nan,nan,nan
1,340,1,1,1.0,1.0,0.395124625589,0,0.0,0.0,0.0,0.346050686848,0.0738519728997,0.272198713948,0.419902659748,0.0738519728997,0.363585944792,137,1.0,-0.300190217086,-0.0647316600203,nan,nan,nan,nan,nan,nan,nan,nan,916.681722791,1289.40597453,nan,1289.80109916,nan,nan,nan,nan
1,341,1,1,1.0,1.0,0.30130742304,0,0.0,0.0,0.0,0.346195447729,0.073790975739,0.27240447199,0.419986423468,0.073790975739,0.352449704039,343,-0.171388175652,0.463836419185,0.204822810802,nan,nan,nan,nan,nan,nan,nan,nan,916.681722791,1290.34777127,nan,1290.6490787,nan,nan,nan,nan
1,342,1,1,1.0,1.0,0.327476695529,0,0.0,0.0,0.0,0.346063424127,0.0737224655391,0.272340958588,0.419785889666,0.0737224655391,0.34130291472,55,1.0,-0.0599996532909,-1.0,nan,nan,nan,nan,nan,nan,nan,nan,916.681722791,1291.28956744,nan,1291.61704414,nan,nan,nan,nan
1,343,1,1,1.0,1.0,0.313638407271,0,0.0,0.0,0.0,0.346008917592,0.0736211493412,0.272387768251,0.419630066933,0.0736211493412,0.314140841947,194,1.0,-0.0524864644427,0.435571704399,nan,nan,nan,nan,nan,nan,nan,nan,916.681722791,1292.23137473,nan,1292.54501314,nan,nan,nan,nan
1,344,1,1,1.0,1.0,0.315867004858,0,0.0,0.0,0.0,0.345914266977,0.0735342123897,0.272380054587,0.419448479367,0.0735342123897,0.318994035886,130,1.0,-0.309333154106,-0.136071487739,nan,nan,nan,nan,nan,nan,nan,nan,916.681722791,1293.1731441,nan,1293.48901111,nan,nan,nan,nan
1,345,1,1,1.0,1.0,0.302041260817,0,0.0,0.0,0.0,0.34582666563,0.073444810794,0.272381854836,0.419271476424,0.073444810794,0.310515557649,73,1.0,-0.1546788618,-0.830916872461,nan,nan,nan,nan,nan,nan,nan,nan,916.681722791,1294.11493656,nan,1294.41697783,nan,nan,nan,nan
1,346,1,1,1.0,1.0,0.224229648418,0,0.0,0.0,0.0,0.345699382476,0.0733758579899,0.272323524486,0.419075240466,0.0733758579899,0.280712638031,404,0.0124894593597,0.468746268022,-0.463349101315,nan,nan,nan,nan,nan,nan,nan,nan,916.681722791,1295.0567333,nan,1295.28096295,nan,nan,nan,nan
1,347,1,1,1.0,1.0,0.266418765939,0,1.0,0.0,0.0,0.34534729629,0.0735598704552,0.271787425835,0.418907166745,0.0735598704552,0.264229891725,189,1.0,-0.0802194643608,0.400143472992,nan,nan,nan,nan,nan,nan,nan,nan,916.681722791,1295.99851921,nan,1296.26493798,nan,nan,nan,nan
1,348,1,1,1.0,1.0,0.268600892858,1,0.0,0.0,1.0,0.345119179151,0.0735755976434,0.271543581507,0.418694776794,0.0735755976434,0.253083102405,49,1.0,-0.027785429985,-1.0,63.3112000315,26.6887999685,-7.76432503152,38.0,1.0,0.0306259494545,-1.0,1.45046238339,916.681722791,1296.94030768,1297.74873439,1297.20890857,1300.23236059,1301.24343801,1298.765522,1300.22403778
1,349,1,1,1.0,1.0,0.450258824683,0,0.0,0.0,0.0,0.344898665357,0.0735839166804,0.271314748677,0.418482582038,0.0735839166804,0.32842616116,157,1.0,-0.240048375319,0.130425901556,nan,nan,nan,nan,nan,nan,nan,nan,916.681722791,1301.38256328,nan,1301.83282211,nan,nan,nan,nan
1,350,1,1,1.0,1.0,0.396412120317,0,0.0,0.0,0.0,0.345201424436,0.0736942379092,0.271507186527,0.418895662345,0.0736942379092,0.371757279286,227,0.791019951953,0.125257787881,0.608066708266,nan,nan,nan,nan,nan,nan,nan,nan,916.681722791,1302.32436458,nan,1302.7207767,nan,nan,nan,nan
1,351,1,1,1.0,1.0,0.350609692628,0,0.0,0.0,0.0,0.345348159954,0.0736394761631,0.271708683791,0.418987636117,0.0736394761631,0.399093545876,382,-0.1011887567,0.478291136399,-0.199732273247,nan,nan,nan,nan,nan,nan,nan,nan,916.681722791,1303.2661599,nan,1303.61676959,nan,nan,nan,nan
1,352,1,1,1.0,1.0,0.264782313316,0,0.0,0.0,0.0,0.345363192905,0.0735347379432,0.271828454961,0.418897930848,0.0735347379432,0.337268042087,33,1.0,0.0565990290419,-1.0,nan,nan,nan,nan,nan,nan,nan,nan,916.681722791,1304.20795037,nan,1304.47273268,nan,nan,nan,nan
1,353,1,1,1.0,1.0,0.234997164749,0,0.0,0.0,0.0,0.345133617749,0.0735554129221,0.271578204827,0.418689030671,0.0735554129221,0.283463056898,102,1.0,-0.276610342793,-0.434926949461,nan,nan,nan,nan,nan,nan,nan,nan,916.681722791,1305.14974539,nan,1305.38474256,nan,nan,nan,nan
1,354,1,1,1.0,1.0,0.253162644338,0,1.0,0.0,0.0,0.344820730098,0.0736843996815,0.271136330417,0.41850512978,0.0736843996815,0.250980707468,483,0.606025706087,0.319314454546,-1.0,nan,nan,nan,nan,nan,nan,nan,nan,916.681722791,1306.09153501,nan,1306.34469765,nan,nan,nan,nan
1,355,1,1,1.0,1.0,0.207355940132,1,0.0,0.0,1.0,0.344561075465,0.073741047404,0.270820028061,0.418302122869,0.073741047404,0.231838583073,246,0.589768841079,0.215019897151,0.651339528662,-74.4009141972,164.400914197,-8.56783580284,234.0,0.71814774995,0.15974031316,0.62913160129,1.47548556881,916.681722791,1307.0333269,1307.84174049,1307.24068284,1310.35039017,1311.35195877,1308.85851213,1310.34204911
1,356,0,0,0.0,1.0,0.452354567416,0,0.0,0.0,0.0,0.344173490337,0.0739960111536,0.270177479183,0.41816950149,0.0739960111536,0.304291050629,290,0.131265381085,0.370776544741,0.578206616232,nan,nan,nan,nan,nan,nan,nan,nan,916.681722791,1311.49225892,nan,1311.94461349,nan,nan,nan,nan
1,357,1,1,1.0,1.0,0.326475437381,0,0.0,0.0,0.0,0.344478225765,0.074113829483,0.270364396282,0.418592055248,0.074113829483,0.32872864831,237,0.686387300223,0.174031846447,0.636349816437,nan,nan,nan,nan,nan,nan,nan,nan,916.681722791,1312.43407819,nan,1312.76055362,nan,nan,nan,nan
1,358,1,1,1.0,1.0,0.320692829555,0,0.0,0.0,0.0,0.344427656135,0.0740157968035,0.270411859331,0.418443452938,0.0740157968035,0.366507611451,366,-0.155593376329,0.477302029306,-0.0244766492797,nan,nan,nan,nan,nan,nan,nan,nan,916.681722791,1313.37584071,nan,1313.69653354,nan,nan,nan,nan
1,359,1,1,1.0,1.0,0.338881687028,0,0.0,0.0,0.0,0.344361172027,0.0739227046313,0.270438467395,0.418283876658,0.0739227046313,0.328683317988,94,1.0,-0.249439013202,-0.526745155233,nan,nan,nan,nan,nan,nan,nan,nan,916.681722791,1314.31763403,nan,1314.65651572,nan,nan,nan,nan
1,360,0,0,0.0,1.0,0.469043818419,0,0.0,0.0,0.0,0.344345866203,0.0738199549052,0.270525911297,0.418165821108,0.0738199549052,0.376206111667,429,0.177531820842,0.442080780324,-0.901885199234,nan,nan,nan,nan,nan,nan,nan,nan,916.681722791,1315.25943676,nan,1315.72848058,nan,nan,nan,nan
1,361,1,1,1.0,1.0,0.359244688705,0,0.0,0.0,0.0,0.344693214259,0.0740094543649,0.270683759894,0.418702668624,0.0740094543649,0.389056731384,35,1.0,0.0462653595507,-1.0,nan,nan,nan,nan,nan,nan,nan,nan,916.681722791,1316.20121696,nan,1316.56046165,nan,nan,nan,nan
1,362,1,1,1.0,1.0,0.353422452521,0,0.0,0.0,0.0,0.344733635021,0.0739105600377,0.270823074983,0.418644195059,0.0739105600377,0.393903653215,167,1.0,-0.195605812978,0.221546716301,nan,nan,nan,nan,nan,nan,nan,nan,916.681722791,1317.1430157,nan,1317.49643815,nan,nan,nan,nan
1,363,1,1,1.0,1.0,0.275638494466,0,0.0,0.0,0.0,0.344757703768,0.0738095326188,0.270948171149,0.418567236387,0.0738095326188,0.329435211897,320,-0.0946500390753,0.43494401576,0.398701238857,nan,nan,nan,nan,nan,nan,nan,nan,916.681722791,1318.08481358,nan,1318.36045207,nan,nan,nan,nan
1,364,1,1,1.0,1.0,0.293837900565,0,0.0,0.0,0.0,0.344566766725,0.0737967395245,0.270770027201,0.41836350625,0.0737967395245,0.307632949184,491,0.673033477965,0.292707709811,-1.0,nan,nan,nan,nan,nan,nan,nan,nan,916.681722791,1319.02655672,nan,1319.32039462,nan,nan,nan,nan
1,365,1,1,1.0,1.0,0.247952509788,0,0.0,0.0,0.0,0.344427017783,0.0737429718608,0.270684045922,0.418169989644,0.0737429718608,0.272476301606,89,1.0,-0.229484098413,-0.587370487375,nan,nan,nan,nan,nan,nan,nan,nan,916.681722791,1319.96842074,nan,1320.21637325,nan,nan,nan,nan
1,366,1,1,1.0,1.0,0.274176520761,0,0.0,0.0,0.0,0.344161977926,0.0738145352282,0.270347442697,0.417976513154,0.0738145352282,0.271988977038,510,0.830554458933,0.220436700166,-1.0,nan,nan,nan,nan,nan,nan,nan,nan,916.681722791,1320.91018583,nan,1321.18436236,nan,nan,nan,nan
1,367,1,1,1.0,1.0,0.284363580984,0,1.0,0.0,0.0,0.343970236947,0.0738040669244,0.270166170023,0.417774303872,0.0738040669244,0.268830870511,14,0.95801504718,0.150023555696,-1.0,nan,nan,nan,nan,nan,nan,nan,nan,916.681722791,1321.85197288,nan,1322.13633646,nan,nan,nan,nan
1,368,1,1,1.0,1.0,0.302537328389,1,0.0,0.0,1.0,0.343807377231,0.0737688190945,0.270038558137,0.417576196326,0.0737688190945,0.287025810045,225,0.81146624694,0.115131125244,0.600981946568,-76.9641632299,166.96416323,8.76103822993,237.0,0.686387300223,0.174031846447,0.636349816437,1.10875710286,916.681722791,1322.79377133,1323.60217836,1323.09630866,1325.75247285,1326.74885128,1324.62730589,1325.74416201
1,369,1,1,1.0,1.0,0.409928249777,0,0.0,0.0,0.0,0.343694924782,0.073699654306,0.269995270476,0.417394579088,0.073699654306,0.332276386383,383,-0.0968787136249,0.478131214543,-0.211081409456,nan,nan,nan,nan,nan,nan,nan,nan,916.681722791,1326.89429998,nan,1327.30422823,nan,nan,nan,nan
1,370,1,1,1.0,1.0,0.324074071425,0,0.0,0.0,0.0,0.343874906644,0.0736801707365,0.270194735907,0.41755507738,0.0736801707365,0.34551321653,14,0.95801504718,0.150023555696,-1.0,nan,nan,nan,nan,nan,nan,nan,nan,916.681722791,1327.83611155,nan,1328.16018562,nan,nan,nan,nan
1,371,1,1,1.0,1.0,0.206284263229,0,0.0,0.0,0.0,0.343821245844,0.0735874656564,0.270233780187,0.4174087115,0.0735874656564,0.313428861477,113,1.0,-0.302191989669,-0.314576349441,nan,nan,nan,nan,nan,nan,nan,nan,916.681722791,1328.77790002,nan,1328.98418428,nan,nan,nan,nan
1,372,1,1,1.0,1.0,0.248464542732,0,1.0,0.0,0.0,0.343449524269,0.0738340500198,0.269615474249,0.417283574289,0.0738340500198,0.259607625795,440,0.258699398066,0.424657399123,-1.0,nan,nan,nan,nan,nan,nan,nan,nan,916.681722791,1329.71969077,nan,1329.96815532,nan,nan,nan,nan
1,373,1,1,1.0,1.0,0.242639455537,1,0.0,0.0,1.0,0.34319350006,0.073898754169,0.269294745891,0.417092254229,0.073898754169,0.232462753833,497,0.723174939644,0.271260599794,-1.0,102.86710414,347.13289586,-2.32022914002,494.0,0.698129958021,0.282143999684,-1.0,1.04222275881,916.681722791,1330.66148552,1331.46989569,1330.90412497,1333.54518648,1334.54871597,1332.48666647,1333.53683572
