block,trial,time,setsize,freqtrials,colorind,colordeg,colorrgb,correctresp,actualresp,acc,rts,probe_trials,fast_rt_trigger,slow_rt_trigger,rt_trailingavg,rt_runningavg,rt_runningstd,rt_runningslowthresh,rt_runningfastthresh,wm_mousepos,wm_respdeg,wm_colorind,wm_colorrgb,wm_colorhsv,wm_degdiff,wm_rts,timeBlockStart,timeEncArrayOnset,timeResponse,timeProbeOnset,timeProbeOffset
0,0,17:35:52:591000,6,1,465,326.953125,[ 0.45658868  0.37096153 -1.        ],1,1,1,0.593995815,0,nan,nan,nan,nan,nan,nan,nan,nan,nan,nan,[ nan  nan  nan],nan,nan,nan,709.3085779,710.3305674,710.9245632,nan,nan
0,1,17:35:53:527000,6,1,14,9.84375,[ 0.95801505  0.15002356 -1.        ],1,1,1,0.457700978,0,nan,nan,nan,nan,nan,nan,nan,nan,nan,nan,[ nan  nan  nan],nan,nan,nan,709.3085779,711.2748602,711.7325612,nan,nan
0,2,17:35:54:463000,6,1,398,279.84375,[-0.02203778  0.4726088  -0.38794338],1,1,1,0.366374091,0,nan,nan,nan,nan,nan,nan,nan,nan,nan,nan,[ nan  nan  nan],nan,nan,nan,709.3085779,712.2141677,712.5805418,nan,nan
0,3,17:35:55:415000,6,1,288,202.5,[ 0.15000513  0.36533195  0.58668724],1,1,1,0.416554172,0,nan,nan,nan,nan,nan,nan,nan,nan,nan,nan,[ nan  nan  nan],nan,nan,nan,709.3085779,713.1559385,713.5724927,nan,nan
0,4,17:35:56:351000,6,1,167,117.421875,[ 1.         -0.19560581  0.22154672],1,1,1,0.386746216,0,nan,nan,nan,nan,nan,nan,nan,nan,nan,nan,[ nan  nan  nan],nan,nan,nan,709.3085779,714.0977507,714.4844969,nan,nan
0,5,17:35:57:302000,6,1,344,241.875,[-0.17254346  0.46473023  0.19550382],1,1,1,0.372944135,0,nan,nan,nan,nan,nan,nan,nan,nan,nan,nan,[ nan  nan  nan],nan,nan,nan,709.3085779,715.039544,715.4124881,nan,nan
0,6,17:35:58:238000,6,1,219,153.984375,[ 0.87162732  0.08408817  0.57695967],1,1,1,0.367132447,0,nan,nan,nan,nan,nan,nan,nan,nan,nan,nan,[ nan  nan  nan],nan,nan,nan,709.3085779,715.9813296,716.3484621,nan,nan
0,7,17:35:59:174000,6,1,434,305.15625,[ 0.21388182  0.43461034 -1.        ],1,1,1,0.369307162,0,nan,nan,nan,nan,nan,nan,nan,nan,nan,nan,[ nan  nan  nan],nan,nan,nan,709.3085779,716.9231266,717.2924338,nan,nan
0,8,17:36:00:126000,6,1,243,170.859375,[ 0.62215101  0.20168048  0.64746348],1,1,1,0.363472381,0,nan,nan,nan,nan,nan,nan,nan,nan,nan,nan,[ nan  nan  nan],nan,nan,nan,709.3085779,717.8649125,718.2283849,nan,nan
0,9,17:36:01:062000,6,1,149,104.765625,[ 1.         -0.26947852  0.05414366],1,1,1,0.269659455,0,nan,nan,nan,nan,nan,nan,nan,nan,nan,nan,[ nan  nan  nan],nan,nan,nan,709.3085779,718.8067116,719.076371,nan,nan
0,10,17:36:01:998000,6,1,388,272.8125,[-0.07396337  0.47694192 -0.26857716],1,1,1,0.351833041,0,nan,nan,nan,nan,nan,nan,nan,nan,nan,nan,[ nan  nan  nan],nan,nan,nan,709.3085779,719.7485149,720.1003479,nan,nan
0,11,17:36:02:949000,6,1,81,56.953125,[ 1.         -0.19380425 -0.69421917],1,1,1,0.31367604,0,nan,nan,nan,nan,nan,nan,nan,nan,nan,nan,[ nan  nan  nan],nan,nan,nan,709.3085779,720.6986381,721.0123142,nan,nan
0,12,17:36:03:901000,6,1,462,324.84375,[ 0.43208968  0.37848636 -1.        ],1,1,1,0.331891982,0,nan,nan,nan,nan,nan,nan,nan,nan,nan,nan,[ nan  nan  nan],nan,nan,nan,709.3085779,721.6404277,721.9723197,nan,nan
0,13,17:36:04:837000,6,1,285,200.390625,[ 0.17873435  0.35687868  0.59852701],1,1,1,0.374072546,0,nan,nan,nan,nan,nan,nan,nan,nan,nan,nan,[ nan  nan  nan],nan,nan,nan,709.3085779,722.5822185,722.956291,nan,nan
0,14,17:36:05:773000,6,1,56,39.375,[ 1.         -0.06536751 -1.        ],1,1,1,0.344247199,0,nan,nan,nan,nan,nan,nan,nan,nan,nan,nan,[ nan  nan  nan],nan,nan,nan,709.3085779,723.5240189,723.8682661,nan,nan
0,15,17:36:06:725000,6,1,165,116.015625,[ 1.         -0.20505638  0.20374544],1,1,1,0.362455158,0,nan,nan,nan,nan,nan,nan,nan,nan,nan,nan,[ nan  nan  nan],nan,nan,nan,709.3085779,724.4658048,724.82826,nan,nan
0,16,17:36:07:661000,6,1,2,1.40625,[ 0.86302458  0.20362286 -1.        ],1,1,1,0.428643395,0,nan,nan,nan,nan,nan,nan,nan,nan,nan,nan,[ nan  nan  nan],nan,nan,nan,709.3085779,725.4075964,725.8362398,nan,nan
0,17,17:36:08:597000,6,1,244,171.5625,[ 0.61137236  0.20616355  0.64888072],1,1,1,0.406826687,0,nan,nan,nan,nan,nan,nan,nan,nan,nan,nan,[ nan  nan  nan],nan,nan,nan,709.3085779,726.3493915,726.7562182,nan,nan
0,18,17:36:09:548000,6,0,30,21.09375,[ 1.          0.07194566 -1.        ],0,1,0,0.368999543,0,0,0,nan,nan,nan,nan,nan,nan,nan,nan,[ nan  nan  nan],nan,nan,nan,709.3085779,727.2911842,727.6601838,nan,nan
0,19,17:36:10:484000,6,1,125,87.890625,[ 1.         -0.31156743 -0.18780506],1,1,1,0.443182165,0,nan,nan,nan,nan,nan,nan,nan,nan,nan,nan,[ nan  nan  nan],nan,nan,nan,709.3085779,728.2329761,728.6761583,nan,nan
0,20,17:36:11:436000,6,0,73,51.328125,[ 1.         -0.15467886 -0.83091687],0,0,1,0.41336252,0,nan,nan,nan,nan,nan,nan,nan,nan,nan,nan,[ nan  nan  nan],nan,nan,nan,709.3085779,729.1747757,729.5881382,nan,nan
0,21,17:36:12:372000,6,1,190,133.59375,[ 1.         -0.07468844  0.40739964],1,1,1,0.407561666,0,nan,nan,nan,nan,nan,nan,nan,nan,nan,nan,[ nan  nan  nan],nan,nan,nan,709.3085779,730.116565,730.5241267,nan,nan
0,22,17:36:17:067000,6,1,405,284.765625,[ 0.01846332  0.46800938 -0.47629333],1,1,1,0.449784424,1,nan,nan,nan,nan,nan,nan,nan,nan,167.7842809,401,[-0.00506341  0.47079689 -0.4252031 ],nan,-2.549905866,1.699817282,709.3085779,731.0583219,731.5081063,732.8842734,734.5921213
0,23,17:36:18:003000,6,1,452,317.8125,[ 0.35173807  0.40140621 -1.        ],1,nan,nan,nan,0,nan,nan,nan,nan,nan,nan,nan,nan,nan,nan,[ nan  nan  nan],nan,nan,nan,709.3085779,735.7506462,nan,nan,nan
0,24,17:36:18:955000,6,1,496,348.75,[ 0.71483372  0.27492388 -1.        ],1,1,1,0.615484377,0,nan,nan,nan,nan,nan,nan,nan,nan,nan,nan,[ nan  nan  nan],nan,nan,nan,709.3085779,736.6924384,737.3079228,nan,nan
0,25,17:36:19:891000,6,1,407,286.171875,[ 0.03058863  0.46645515 -0.50257741],1,1,1,0.321712334,0,nan,nan,nan,nan,nan,nan,nan,nan,nan,nan,[ nan  nan  nan],nan,nan,nan,709.3085779,737.6342357,737.9559481,nan,nan
0,26,17:36:24:087000,6,1,509,357.890625,[ 0.82238638  0.224555   -1.        ],1,1,1,0.235900065,1,nan,nan,nan,nan,nan,nan,nan,nan,81.51105612,12,[ 0.94247669  0.15927395 -1.        ],nan,10.59831888,1.208789689,709.3085779,738.5760251,738.8119251,740.401206,741.618042
0,27,17:36:25:023000,6,0,212,149.0625,[ 0.93926289  0.04677313  0.543851  ],0,0,1,0.611574567,0,nan,nan,nan,nan,nan,nan,nan,nan,nan,nan,[ nan  nan  nan],nan,nan,nan,709.3085779,742.7682569,743.3798315,nan,nan
0,28,17:36:25:959000,6,1,134,94.21875,[ 1.         -0.304951   -0.09514411],1,1,1,0.469764257,0,nan,nan,nan,nan,nan,nan,nan,nan,nan,nan,[ nan  nan  nan],nan,nan,nan,709.3085779,743.7100488,744.1798131,nan,nan
0,29,17:36:26:911000,6,1,339,238.359375,[-0.16495584  0.45996923  0.2414231 ],1,1,1,0.383948566,0,nan,nan,nan,nan,nan,nan,nan,nan,nan,nan,[ nan  nan  nan],nan,nan,nan,709.3085779,744.6518421,745.0357907,nan,nan
0,30,17:36:27:847000,6,1,37,26.015625,[ 1.          0.03585655 -1.        ],1,1,1,0.370142209,0,nan,nan,nan,nan,nan,nan,nan,nan,nan,nan,[ nan  nan  nan],nan,nan,nan,709.3085779,745.5936312,745.9637734,nan,nan
0,31,17:36:28:783000,6,1,457,321.328125,[ 0.39163925  0.39035818 -1.        ],1,1,1,0.364318832,0,nan,nan,nan,nan,nan,nan,nan,nan,nan,nan,[ nan  nan  nan],nan,nan,nan,709.3085779,746.5354282,746.899747,nan,nan
0,32,17:36:29:735000,6,1,171,120.234375,[ 1.         -0.17601187  0.25645091],1,1,1,0.406494265,0,nan,nan,nan,nan,nan,nan,nan,nan,nan,nan,[ nan  nan  nan],nan,nan,nan,709.3085779,747.4772192,747.8837135,nan,nan
0,33,17:36:30:671000,6,1,75,52.734375,[ 1.         -0.16471446 -0.79135592],1,1,1,0.448695072,0,nan,nan,nan,nan,nan,nan,nan,nan,nan,nan,[ nan  nan  nan],nan,nan,nan,709.3085779,748.4190097,748.8677048,nan,nan
0,34,17:36:31:622000,6,1,461,324.140625,[ 0.42395965  0.38092737 -1.        ],1,1,1,0.386862821,0,nan,nan,nan,nan,nan,nan,nan,nan,nan,nan,[ nan  nan  nan],nan,nan,nan,709.3085779,749.3608084,749.7476713,nan,nan
0,35,17:36:32:558000,6,1,56,39.375,[ 1.         -0.06536751 -1.        ],1,1,1,0.365051815,0,nan,nan,nan,nan,nan,nan,nan,nan,nan,nan,[ nan  nan  nan],nan,nan,nan,709.3085779,750.3026003,750.6676522,nan,nan
0,36,17:36:33:494000,6,1,201,141.328125,[ 1.         -0.01357126  0.48142235],1,1,1,0.359240983,0,nan,nan,nan,nan,nan,nan,nan,nan,nan,nan,[ nan  nan  nan],nan,nan,nan,709.3085779,751.2443988,751.6036398,nan,nan
0,37,17:36:34:446000,6,1,95,66.796875,[ 1.         -0.25317502 -0.51497544],1,1,1,0.489423926,0,nan,nan,nan,nan,nan,nan,nan,nan,nan,nan,[ nan  nan  nan],nan,nan,nan,709.3085779,752.1861855,752.6756095,nan,nan
0,38,17:36:35:382000,6,1,452,317.8125,[ 0.35173807  0.40140621 -1.        ],1,1,1,0.33961524,0,nan,nan,nan,nan,nan,nan,nan,nan,nan,nan,[ nan  nan  nan],nan,nan,nan,709.3085779,753.1279791,753.4675944,nan,nan
0,39,17:36:36:318000,6,1,216,151.875,[ 0.90097501  0.06822711  0.56342658],1,1,1,0.397795978,0,nan,nan,nan,nan,nan,nan,nan,nan,nan,nan,[ nan  nan  nan],nan,nan,nan,709.3085779,754.0697702,754.4675662,nan,nan
0,40,17:36:37:269000,6,1,161,113.203125,[ 1.         -0.22315835  0.16749055],1,nan,nan,nan,0,nan,nan,nan,nan,nan,nan,nan,nan,nan,nan,[ nan  nan  nan],nan,nan,nan,709.3085779,755.0115712,nan,nan,nan
0,41,17:36:38:205000,6,1,280,196.875,[ 0.22808935  0.34201885  0.61587222],1,1,1,0.554173567,0,nan,nan,nan,nan,nan,nan,nan,nan,nan,nan,[ nan  nan  nan],nan,nan,nan,709.3085779,755.9533602,756.5075338,nan,nan
0,42,17:36:39:157000,6,1,345,242.578125,[-0.17351954  0.46559515  0.18611928],1,1,1,0.532346881,0,nan,nan,nan,nan,nan,nan,nan,nan,nan,nan,[ nan  nan  nan],nan,nan,nan,709.3085779,756.8951556,757.4275024,nan,nan
0,43,17:36:40:093000,6,1,263,184.921875,[ 0.4056988   0.28417174  0.65182989],1,1,1,0.494537698,0,nan,nan,nan,nan,nan,nan,nan,nan,nan,nan,[ nan  nan  nan],nan,nan,nan,709.3085779,757.8369429,758.3314806,nan,nan
0,44,17:36:41:029000,6,1,125,87.890625,[ 1.         -0.31156743 -0.18780506],1,1,1,0.67271603,0,nan,nan,nan,nan,nan,nan,nan,nan,nan,nan,[ nan  nan  nan],nan,nan,nan,709.3085779,758.7787376,759.4514537,nan,nan
0,45,17:36:41:981000,6,1,389,273.515625,[-0.06912081  0.47662608 -0.28023432],1,1,1,0.52291333,0,nan,nan,nan,nan,nan,nan,nan,nan,nan,nan,[ nan  nan  nan],nan,nan,nan,709.3085779,759.720527,760.2434403,nan,nan
0,46,17:36:42:917000,6,1,188,132.1875,[ 1.         -0.08573935  0.39280429],1,1,1,0.541089073,0,nan,nan,nan,nan,nan,nan,nan,nan,nan,nan,[ nan  nan  nan],nan,nan,nan,709.3085779,760.6623231,761.2034122,nan,nan
0,47,17:36:43:853000,6,1,10,7.03125,[ 0.9268115   0.16840058 -1.        ],1,1,1,0.487272019,0,nan,nan,nan,nan,nan,nan,nan,nan,nan,nan,[ nan  nan  nan],nan,nan,nan,709.3085779,761.6041182,762.0913902,nan,nan
0,48,17:36:44:804000,6,1,194,136.40625,[ 1.         -0.05248646  0.4355717 ],1,1,1,0.513468376,0,nan,nan,nan,nan,nan,nan,nan,nan,nan,nan,[ nan  nan  nan],nan,nan,nan,709.3085779,762.5459072,763.0593756,nan,nan
0,49,17:36:45:740000,6,1,26,18.28125,[ 1.          0.09209217 -1.        ],1,1,1,0.475647504,0,nan,nan,nan,nan,nan,nan,nan,nan,nan,nan,[ nan  nan  nan],nan,nan,nan,709.3085779,763.4877045,763.963352,nan,nan
0,50,17:36:51:637000,6,1,391,274.921875,[-0.0591908   0.47591628 -0.30371871],1,1,1,0.46185426,1,nan,nan,nan,nan,nan,nan,nan,nan,-168.1850248,367,[-0.15309091  0.4775609  -0.03508163],nan,-16.73685024,2.900672172,709.3085779,764.4294702,764.8913244,766.2630284,769.1717682
0,51,17:36:52:573000,6,1,84,59.0625,[ 1.         -0.20765784 -0.65219109],1,1,1,0.6252207,0,nan,nan,nan,nan,nan,nan,nan,nan,nan,nan,[ nan  nan  nan],nan,nan,nan,709.3085779,770.3219507,770.9471714,nan,nan
0,52,17:36:53:525000,6,1,449,315.703125,[ 0.32809501  0.40764625 -1.        ],1,1,1,0.435400747,0,nan,nan,nan,nan,nan,nan,nan,nan,nan,nan,[ nan  nan  nan],nan,nan,nan,709.3085779,771.2637403,771.699141,nan,nan
0,53,17:36:54:461000,6,1,216,151.875,[ 0.90097501  0.06822711  0.56342658],1,1,1,0.309595457,0,nan,nan,nan,nan,nan,nan,nan,nan,nan,nan,[ nan  nan  nan],nan,nan,nan,709.3085779,772.2055396,772.515135,nan,nan
0,54,17:36:55:397000,6,1,377,265.078125,[-0.12125986  0.47870083 -0.1436959 ],1,1,1,0.335767865,0,nan,nan,nan,nan,nan,nan,nan,nan,nan,nan,[ nan  nan  nan],nan,nan,nan,709.3085779,773.1473366,773.4831045,nan,nan
0,55,17:36:56:348000,6,1,176,123.75,[ 1.         -0.15042967  0.29867547],1,1,1,0.24195608,0,nan,nan,nan,nan,nan,nan,nan,nan,nan,nan,[ nan  nan  nan],nan,nan,nan,709.3085779,774.0891433,774.3310994,nan,nan
0,56,17:36:57:284000,6,1,358,251.71875,[-0.17058391  0.47426832  0.05858744],1,1,1,0.348133346,0,nan,nan,nan,nan,nan,nan,nan,nan,nan,nan,[ nan  nan  nan],nan,nan,nan,709.3085779,775.0309201,775.3790535,nan,nan
0,57,17:37:01:574000,6,1,237,166.640625,[ 0.6863873   0.17403185  0.63634982],1,1,1,0.310332146,1,nan,nan,nan,nan,nan,nan,nan,nan,-45.9644843,193,[ 1.         -0.05804539  0.42865879],nan,-30.6761407,1.292137301,709.3085779,775.9727166,776.2830487,777.8062292,779.106431
0,58,17:37:02:510000,6,1,509,357.890625,[ 0.82238638  0.224555   -1.        ],1,1,1,0.650327134,0,nan,nan,nan,nan,nan,nan,nan,nan,nan,nan,[ nan  nan  nan],nan,nan,nan,709.3085779,780.25662,780.9069471,nan,nan
0,59,17:37:03:462000,6,1,70,49.21875,[ 1.         -0.13936985 -0.90643691],1,1,1,0.452532182,0,nan,nan,nan,nan,nan,nan,nan,nan,nan,nan,[ nan  nan  nan],nan,nan,nan,709.3085779,781.1984142,781.6509464,nan,nan
0,60,17:37:04:398000,6,1,479,336.796875,[ 0.57257215  0.33176822 -1.        ],1,1,1,0.430723172,0,nan,nan,nan,nan,nan,nan,nan,nan,nan,nan,[ nan  nan  nan],nan,nan,nan,709.3085779,782.1402081,782.5709312,nan,nan
0,61,17:37:05:334000,6,1,116,81.5625,[ 1.         -0.30644692 -0.28251544],1,1,1,0.264910036,0,nan,nan,nan,nan,nan,nan,nan,nan,nan,nan,[ nan  nan  nan],nan,nan,nan,709.3085779,783.0820014,783.3469114,nan,nan
0,62,17:37:06:285000,6,1,217,152.578125,[ 0.89125041  0.07353733  0.56804835],1,1,1,0.291029702,0,nan,nan,nan,nan,nan,nan,nan,nan,nan,nan,[ nan  nan  nan],nan,nan,nan,709.3085779,784.0238435,784.3148732,nan,nan
0,63,17:37:07:221000,6,0,298,209.53125,[ 0.06008966  0.39105034  0.53969689],0,1,0,0.285270757,0,0,0,nan,nan,nan,nan,nan,nan,nan,nan,[ nan  nan  nan],nan,nan,nan,709.3085779,784.965582,785.2508528,nan,nan
0,64,17:37:08:157000,6,1,19,13.359375,[ 0.99625917  0.12637453 -1.        ],1,1,1,0.335433448,0,nan,nan,nan,nan,nan,nan,nan,nan,nan,nan,[ nan  nan  nan],nan,nan,nan,709.3085779,785.9073816,786.2428151,nan,nan
0,65,17:37:09:109000,6,1,82,57.65625,[ 1.         -0.19847916 -0.67987248],1,1,1,0.385623222,0,nan,nan,nan,nan,nan,nan,nan,nan,nan,nan,[ nan  nan  nan],nan,nan,nan,709.3085779,786.8491772,787.2348004,nan,nan
0,66,17:37:10:045000,6,1,256,180,[ 0.48131261  0.25704791  0.65606572],1,1,1,0.387829297,0,nan,nan,nan,nan,nan,nan,nan,nan,nan,nan,[ nan  nan  nan],nan,nan,nan,709.3085779,787.7909574,788.1787867,nan,nan
0,67,17:37:10:997000,6,1,350,246.09375,[-0.17575682  0.46949094  0.13824748],1,1,1,0.366006317,0,nan,nan,nan,nan,nan,nan,nan,nan,nan,nan,[ nan  nan  nan],nan,nan,nan,709.3085779,788.7327616,789.0987679,nan,nan
0,68,17:37:11:933000,6,1,254,178.59375,[ 0.50301113  0.24894782  0.65613358],1,1,1,0.344193886,0,nan,nan,nan,nan,nan,nan,nan,nan,nan,nan,[ nan  nan  nan],nan,nan,nan,709.3085779,789.6745506,790.0187445,nan,nan
0,69,17:37:12:869000,6,0,73,51.328125,[ 1.         -0.15467886 -0.83091687],0,0,1,0.434383809,0,nan,nan,nan,nan,nan,nan,nan,nan,nan,nan,[ nan  nan  nan],nan,nan,nan,709.3085779,790.6163431,791.0507269,nan,nan
0,70,17:37:13:820000,6,1,455,319.921875,[ 0.37560825  0.39487537 -1.        ],1,1,1,0.324534787,0,nan,nan,nan,nan,nan,nan,nan,nan,nan,nan,[ nan  nan  nan],nan,nan,nan,709.3085779,791.5581706,791.8827054,nan,nan
0,71,17:37:14:756000,6,0,308,216.5625,[-0.01868286  0.41309748  0.48168233],0,0,1,0.47874764,0,nan,nan,nan,nan,nan,nan,nan,nan,nan,nan,[ nan  nan  nan],nan,nan,nan,709.3085779,792.4999369,792.9786845,nan,nan
0,72,17:37:15:692000,6,1,204,143.4375,[ 1.          0.00303257  0.49965442],1,1,1,0.408928132,0,nan,nan,nan,nan,nan,nan,nan,nan,nan,nan,[ nan  nan  nan],nan,nan,nan,709.3085779,793.441727,793.8506552,nan,nan
0,73,17:37:16:644000,6,1,278,195.46875,[ 0.24828552  0.33580281  0.62196257],1,1,1,0.363116581,0,nan,nan,nan,nan,nan,nan,nan,nan,nan,nan,[ nan  nan  nan],nan,nan,nan,709.3085779,794.3835166,794.7466332,nan,nan
0,74,17:37:17:580000,6,1,77,54.140625,[ 1.         -0.17459302 -0.75626719],1,0,0,0.485301149,0,0,0,nan,nan,nan,nan,nan,nan,nan,nan,[ nan  nan  nan],nan,nan,nan,709.3085779,795.3253074,795.8106085,nan,nan
0,75,17:37:18:531000,6,1,148,104.0625,[ 1.         -0.27269559  0.04442646],1,1,1,0.487482705,0,nan,nan,nan,nan,nan,nan,nan,nan,nan,nan,[ nan  nan  nan],nan,nan,nan,709.3085779,796.2671096,796.7545923,nan,nan
0,76,17:37:19:467000,6,0,260,182.8125,[ 0.43801664  0.27278198  0.65440657],0,0,1,0.529670112,0,nan,nan,nan,nan,nan,nan,nan,nan,nan,nan,[ nan  nan  nan],nan,nan,nan,709.3085779,797.2088972,797.7385673,nan,nan
0,77,17:37:20:403000,6,1,435,305.859375,[ 0.22126383  0.43302706 -1.        ],1,1,1,0.539855177,0,nan,nan,nan,nan,nan,nan,nan,nan,nan,nan,[ nan  nan  nan],nan,nan,nan,709.3085779,798.1506962,798.6905514,nan,nan
0,78,17:37:21:355000,6,1,272,191.25,[ 0.3101667   0.31621412  0.63728143],1,1,1,0.590015586,0,nan,nan,nan,nan,nan,nan,nan,nan,nan,nan,[ nan  nan  nan],nan,nan,nan,709.3085779,799.0925157,799.6825313,nan,nan
0,79,17:37:22:291000,6,1,449,315.703125,[ 0.32809501  0.40764625 -1.        ],1,1,1,0.440230278,0,nan,nan,nan,nan,nan,nan,nan,nan,nan,nan,[ nan  nan  nan],nan,nan,nan,709.3085779,800.034278,800.4745083,nan,nan
0,80,17:37:23:227000,6,0,396,278.4375,[-0.03301537  0.47368488 -0.36352378],0,0,1,0.586399425,0,0,0,0.538881763,0.418782291,0.096237048,0.515019339,0.322545243,nan,nan,nan,[ nan  nan  nan],nan,nan,nan,709.3085779,800.9760696,801.562469,nan,nan
0,81,17:37:24:179000,6,1,476,334.6875,[ 0.54754504  0.34073938 -1.        ],1,1,1,0.508607199,0,0,0,0.511745634,0.420904027,0.097444712,0.518348739,0.323459315,nan,nan,nan,[ nan  nan  nan],nan,nan,nan,709.3085779,801.9178638,802.426471,nan,nan
0,82,17:37:25:115000,6,0,286,201.09375,[ 0.16907896  0.35973478  0.59469871],0,0,1,0.502786103,0,0,0,0.532597576,0.422000317,0.097322786,0.519323103,0.324677531,nan,nan,nan,[ nan  nan  nan],nan,nan,nan,709.3085779,802.8596551,803.3624412,nan,nan
0,83,17:37:26:051000,6,1,505,355.078125,[ 0.78953796  0.24068314 -1.        ],1,1,1,0.368979301,0,0,0,0.460124201,0.422997672,0.097130671,0.520128343,0.325867001,nan,nan,nan,[ nan  nan  nan],nan,nan,nan,709.3085779,803.8014418,804.1704211,nan,nan
0,84,17:37:27:002000,6,0,111,78.046875,[ 1.         -0.29867781 -0.33610624],0,0,1,0.515155005,0,0,0,0.462306803,0.422338912,0.096718484,0.519057396,0.325620427,nan,nan,nan,[ nan  nan  nan],nan,nan,nan,709.3085779,804.7432366,805.2583916,nan,nan
0,85,17:37:27:938000,6,1,64,45,[ 1.         -0.10803687 -1.        ],1,1,1,0.397336117,0,0,0,0.427156808,0.423457178,0.096665937,0.520123114,0.326791241,nan,nan,nan,[ nan  nan  nan],nan,nan,nan,709.3085779,805.6850308,806.0823669,nan,nan
0,86,17:37:28:890000,6,1,189,132.890625,[ 1.         -0.08021946  0.40014347],1,1,1,0.415536664,0,0,0,0.442675929,0.423146213,0.096130576,0.519276789,0.327015637,nan,nan,nan,[ nan  nan  nan],nan,nan,nan,709.3085779,806.6268326,807.0423693,nan,nan
0,87,17:37:29:826000,6,1,467,328.359375,[ 0.47300519  0.36577567 -1.        ],1,1,1,0.489752072,0,0,0,0.434208284,0.423056689,0.095566951,0.51862364,0.327489737,nan,nan,nan,[ nan  nan  nan],nan,nan,nan,709.3085779,807.5685826,808.0583347,nan,nan
0,88,17:37:30:762000,6,1,173,121.640625,[ 1.         -0.16590952  0.27353519],1,1,1,0.411888572,0,0,0,0.439059102,0.423832216,0.095278364,0.519110581,0.328553852,nan,nan,nan,[ nan  nan  nan],nan,nan,nan,709.3085779,808.5104121,808.9223007,nan,nan
0,89,17:37:31:713000,6,1,374,262.96875,[-0.13203913  0.47863408 -0.11062844],1,1,1,0.518079808,0,0,0,0.473240151,0.423694933,0.09473776,0.518432693,0.328957173,nan,nan,nan,[ nan  nan  nan],nan,nan,nan,709.3085779,809.4522092,809.970289,nan,nan
0,90,17:37:32:649000,6,1,441,310.078125,[ 0.26628726  0.42289189 -1.        ],1,1,1,0.496275075,0,0,0,0.475414485,0.424767488,0.094727685,0.519495174,0.330039803,nan,nan,nan,[ nan  nan  nan],nan,nan,nan,709.3085779,810.3940005,810.8902756,nan,nan
0,91,17:37:33:585000,6,1,397,279.140625,[-0.02756135  0.47315999 -0.37569455],1,1,1,0.426445018,0,0,0,0.480266633,0.425570944,0.094495069,0.520066013,0.331075876,nan,nan,nan,[ nan  nan  nan],nan,nan,nan,709.3085779,811.3357898,811.7622348,nan,nan
0,92,17:37:34:537000,6,1,312,219.375,[-0.04644836  0.4209252   0.45557321],1,1,1,0.492630404,0,0,0,0.471783499,0.425580656,0.093968674,0.519549331,0.331611982,nan,nan,nan,[ nan  nan  nan],nan,nan,nan,709.3085779,812.2775831,812.7702135,nan,nan
0,93,17:37:35:473000,6,1,509,357.890625,[ 0.82238638  0.224555   -1.        ],1,1,1,0.534816385,0,0,0,0.484630602,0.426317467,0.093711993,0.52002946,0.332605474,nan,nan,nan,[ nan  nan  nan],nan,nan,nan,709.3085779,813.2193767,813.7541931,nan,nan
0,94,17:37:36:425000,6,1,155,108.984375,[ 1.         -0.24798314  0.11161188],1,1,1,0.544953554,0,0,1,0.524133448,0.427496803,0.093877834,0.521374636,0.333618969,nan,nan,nan,[ nan  nan  nan],nan,nan,nan,709.3085779,814.1612171,814.7061707,nan,nan
0,95,17:37:42:103000,6,1,278,195.46875,[ 0.24828552  0.33580281  0.62196257],1,1,1,0.515185226,1,0,0,0.531651721,0.428759779,0.094154307,0.522914086,0.334605471,nan,-119.8499468,298,[ 0.06008966  0.39105034  0.53969689],nan,14.38119679,2.692317254,709.3085779,815.1029631,815.6181483,816.9281478,819.6285073
0,96,17:37:43:039000,6,1,394,277.03125,[-0.04370902  0.47465593 -0.33940142],1,1,1,0.470939994,0,0,0,0.510359591,0.429679198,0.094070934,0.523750133,0.335608264,nan,nan,nan,[ nan  nan  nan],nan,nan,nan,709.3085779,820.7870587,821.2579987,nan,nan
0,97,17:37:43:991000,6,1,188,132.1875,[ 1.         -0.08573935  0.39280429],1,1,1,0.54513687,0,0,0,0.510420697,0.430113522,0.093669214,0.523782736,0.336444309,nan,nan,nan,[ nan  nan  nan],nan,nan,nan,709.3085779,821.7288509,822.2739878,nan,nan
0,98,17:37:44:927000,6,1,424,298.125,[ 0.14217456  0.44881957 -0.77022942],1,1,1,0.603339561,0,0,1,0.539805475,0.431311682,0.093909038,0.52522072,0.337402645,nan,nan,nan,[ nan  nan  nan],nan,nan,nan,709.3085779,822.6706437,823.2739832,nan,nan
0,99,17:37:50:262000,6,1,354,248.90625,[-0.17447067  0.47210079  0.09886772],1,1,1,0.597506776,1,0,0,0.581994402,0.433085166,0.095025966,0.528111131,0.3380592,nan,-103.6351127,275,[ 0.27900239  0.32618525  0.63017847],nan,-55.27113729,2.358957882,709.3085779,823.6124395,824.2099463,825.429298,827.7962939
0,100,17:37:51:198000,6,1,272,191.25,[ 0.3101667   0.31621412  0.63728143],1,1,1,0.607332334,0,0,0,0.602726224,0.434762937,0.095973116,0.530736053,0.338789822,nan,nan,nan,[ nan  nan  nan],nan,nan,nan,709.3085779,828.9464926,829.5538249,nan,nan
0,101,17:37:52:150000,6,1,195,137.109375,[ 1.         -0.04692453  0.44239605],1,1,1,0.489507174,0,0,0,0.564782095,0.436506062,0.097033869,0.533539931,0.339472193,nan,nan,nan,[ nan  nan  nan],nan,nan,nan,709.3085779,829.8883004,830.3778076,nan,nan
0,102,17:37:53:086000,6,1,480,337.5,[ 0.58092807  0.32870764 -1.        ],1,1,1,0.547707298,0,0,1,0.548182269,0.437036074,0.096691397,0.533727471,0.340344676,nan,nan,nan,[ nan  nan  nan],nan,nan,nan,709.3085779,830.8300712,831.3777785,nan,nan
0,103,17:37:57:859000,6,1,160,112.5,[ 1.         -0.22750142  0.15829752],1,1,1,0.541909866,1,0,0,0.526374779,0.438131828,0.096833504,0.534965332,0.341298324,nan,-126.5288554,308,[-0.01868286  0.41309748  0.48168233],nan,104.0288554,1.775566793,709.3085779,831.7718489,832.3137587,833.6053843,835.3889862
0,104,17:37:58:795000,6,1,436,306.5625,[ 0.22868171  0.43141373 -1.        ],1,1,1,0.638433772,0,0,0,0.576016979,0.43914926,0.096898662,0.536047922,0.342250598,nan,nan,nan,[ nan  nan  nan],nan,nan,nan,709.3085779,836.5392086,837.1776424,nan,nan
0,105,17:37:59:731000,6,0,113,79.453125,[ 1.         -0.30219199 -0.31457635],0,0,1,0.58466718,0,0,0,0.588336939,0.441084061,0.098387115,0.539471176,0.342696946,nan,nan,nan,[ nan  nan  nan],nan,nan,nan,709.3085779,837.4809677,838.0656349,nan,nan
0,106,17:38:00:683000,6,1,442,310.78125,[ 0.27390726  0.42109554 -1.        ],1,1,1,0.410843409,0,0,0,0.54464812,0.442464668,0.098910429,0.541375097,0.343554239,nan,nan,nan,[ nan  nan  nan],nan,nan,nan,709.3085779,838.4227593,838.8336027,nan,nan
0,107,17:38:01:619000,6,1,213,149.765625,[ 0.92978509  0.05216688  0.54890652],1,1,1,0.477045045,0,0,0,0.490851878,0.442163513,0.098486198,0.540649711,0.343677315,nan,nan,nan,[ nan  nan  nan],nan,nan,nan,709.3085779,839.3645446,839.8415897,nan,nan
0,108,17:38:02:570000,6,1,353,248.203125,[-0.17504126  0.47149007  0.10879922],1,1,1,0.383218435,0,0,0,0.423702296,0.442492584,0.098078522,0.540571106,0.344414063,nan,nan,nan,[ nan  nan  nan],nan,nan,nan,709.3085779,840.3063439,840.6895624,nan,nan
0,109,17:38:03:506000,6,1,31,21.796875,[ 1.          0.06685157 -1.        ],1,1,1,0.393426022,0,0,0,0.417896501,0.44193862,0.097785604,0.539724224,0.344153016,nan,nan,nan,[ nan  nan  nan],nan,nan,nan,709.3085779,841.2481333,841.6415593,nan,nan
0,110,17:38:04:442000,6,1,447,314.296875,[ 0.31246764  0.41164647 -1.        ],1,1,1,0.371598196,0,0,0,0.382747551,0.441489429,0.097442684,0.538932114,0.344046745,nan,nan,nan,[ nan  nan  nan],nan,nan,nan,709.3085779,842.1899286,842.5615268,nan,nan
0,111,17:38:05:394000,6,0,129,90.703125,[ 1.         -0.31007049 -0.146368  ],0,0,1,0.525775412,0,0,0,0.430266543,0.440848225,0.097223296,0.538071522,0.343624929,nan,nan,nan,[ nan  nan  nan],nan,nan,nan,709.3085779,843.1317199,843.6574953,nan,nan
0,112,17:38:06:330000,6,1,395,277.734375,[-0.03839842  0.47418351 -0.35142722],1,1,1,0.439977398,0,0,0,0.445783668,0.441620291,0.097115457,0.538735748,0.344504834,nan,nan,nan,[ nan  nan  nan],nan,nan,nan,709.3085779,844.0735161,844.5134935,nan,nan
0,113,17:38:07:266000,6,1,249,175.078125,[ 0.55727555  0.22802627  0.65408488],1,1,1,0.41016602,0,0,0,0.45863961,0.44160549,0.096677135,0.538282625,0.344928355,nan,nan,nan,[ nan  nan  nan],nan,nan,nan,709.3085779,845.0153054,845.4254714,nan,nan
0,114,17:38:08:218000,6,0,409,287.578125,[ 0.04294362  0.46479315 -0.52946185],0,0,1,0.484336383,0,0,0,0.4448266,0.44132478,0.096290001,0.537614782,0.345034779,nan,nan,nan,[ nan  nan  nan],nan,nan,nan,709.3085779,845.9571044,846.4414408,nan,nan
0,115,17:38:09:154000,6,1,353,248.203125,[-0.17504126  0.47149007  0.10879922],1,1,1,0.470575071,0,0,0,0.455025824,0.441705414,0.09594759,0.537653004,0.345757824,nan,nan,nan,[ nan  nan  nan],nan,nan,nan,709.3085779,846.8988558,847.3694309,nan,nan
0,116,17:38:10:105000,6,1,508,357.1875,[ 0.81419982  0.22863893 -1.        ],1,1,1,0.600718671,0,0,0,0.518543375,0.441958657,0.095563765,0.537522421,0.346394892,nan,nan,nan,[ nan  nan  nan],nan,nan,nan,709.3085779,847.8406871,848.4414057,nan,nan
0,117,17:38:11:041000,6,1,269,189.140625,[ 0.34171297  0.30588835  0.64326235],1,1,1,0.626908755,0,0,1,0.566067499,0.443339179,0.096282327,0.539621506,0.347056851,nan,nan,nan,[ nan  nan  nan],nan,nan,nan,709.3085779,848.7824713,849.40938,nan,nan
0,118,17:38:16:751000,6,1,490,344.53125,[ 0.66466039  0.29615785 -1.        ],1,1,1,0.493090264,1,0,0,0.573572563,0.444921675,0.097356891,0.542278565,0.347564784,nan,91.93680039,509,[ 0.82238638  0.224555   -1.        ],nan,13.53194961,2.725688914,709.3085779,849.7242688,850.2173591,851.5494552,854.2831636
0,119,17:38:17:687000,6,0,26,18.28125,[ 1.          0.09209217 -1.        ],0,0,1,0.575836323,0,0,0,0.565278447,0.445333372,0.0970413,0.542374672,0.348292072,nan,nan,nan,[ nan  nan  nan],nan,nan,nan,709.3085779,855.4333697,856.009206,nan,nan
0,120,17:38:18:638000,6,1,162,113.90625,[ 1.         -0.21873956  0.17663297],1,1,1,0.482037937,0,0,0,0.516988174,0.446439329,0.097366915,0.543806245,0.349072414,nan,nan,nan,[ nan  nan  nan],nan,nan,nan,709.3085779,856.3751605,856.8571984,nan,nan
0,121,17:38:19:574000,6,1,331,232.734375,[-0.14329784  0.45080175  0.31116671],1,1,1,0.428216891,0,0,0,0.495363717,0.446738477,0.097011388,0.543749866,0.349727089,nan,nan,nan,[ nan  nan  nan],nan,nan,nan,709.3085779,857.3169564,857.7451732,nan,nan
0,122,17:38:20:510000,6,1,508,357.1875,[ 0.81419982  0.22863893 -1.        ],1,1,1,0.366412579,0,0,0,0.425555802,0.446584131,0.096621,0.543205131,0.349963131,nan,nan,nan,[ nan  nan  nan],nan,nan,nan,709.3085779,858.2587468,858.6251594,nan,nan
0,123,17:38:21:462000,6,1,377,265.078125,[-0.12125986  0.47870083 -0.1436959 ],1,1,1,0.368563631,0,0,0,0.387731034,0.445921556,0.096494271,0.542415827,0.349427285,nan,nan,nan,[ nan  nan  nan],nan,nan,nan,709.3085779,859.2005407,859.5691043,nan,nan
0,124,17:38:22:398000,6,1,5,3.515625,[ 0.88714031  0.19065985 -1.        ],1,1,1,0.482791446,0,0,0,0.405922552,0.445287475,0.096350779,0.541638254,0.348936695,nan,nan,nan,[ nan  nan  nan],nan,nan,nan,709.3085779,860.1423363,860.6251278,nan,nan
0,125,17:38:23:350000,6,1,135,94.921875,[ 1.         -0.30350232 -0.08497887],1,1,1,0.485012916,0,0,0,0.445455998,0.445592385,0.096017393,0.541609778,0.349574992,nan,nan,nan,[ nan  nan  nan],nan,nan,nan,709.3085779,861.0840906,861.5691035,nan,nan
0,126,17:38:24:286000,6,1,243,170.859375,[ 0.62215101  0.20168048  0.64746348],1,1,1,0.543161153,0,0,0,0.503655172,0.445910293,0.095694416,0.541604708,0.350215877,nan,nan,nan,[ nan  nan  nan],nan,nan,nan,709.3085779,862.0259204,862.5690815,nan,nan
0,127,17:38:25:222000,6,1,490,344.53125,[ 0.66466039  0.29615785 -1.        ],1,1,1,0.705322491,0,0,1,0.577832187,0.446688299,0.095703805,0.542392105,0.350984494,nan,nan,nan,[ nan  nan  nan],nan,nan,nan,709.3085779,862.9677131,863.6730356,nan,nan
0,128,17:38:29:839000,6,1,326,229.21875,[-0.12383419  0.44407177  0.35222354],1,1,1,0.499517475,1,0,0,0.58266704,0.448740952,0.098046922,0.546787873,0.35069403,nan,-119.9816394,299,[ 0.05166456  0.39341767  0.53437875],nan,-19.23711063,1.608825954,709.3085779,863.909511,864.4090285,865.7430353,867.3599044
0,129,17:38:30:775000,6,1,460,323.4375,[ 0.41584892  0.38333493 -1.        ],1,1,1,0.482437357,0,0,0,0.562425774,0.449140767,0.097763213,0.546903979,0.351377554,nan,nan,nan,[ nan  nan  nan],nan,nan,nan,709.3085779,868.5184559,869.0008932,nan,nan
0,130,17:38:31:711000,6,1,145,101.953125,[ 1.         -0.28166741  0.01505517],1,1,1,0.484646568,0,0,0,0.488867133,0.449400896,0.097424691,0.546825587,0.351976206,nan,nan,nan,[ nan  nan  nan],nan,nan,nan,709.3085779,869.4602495,869.944896,nan,nan
0,131,17:38:32:663000,6,1,461,324.140625,[ 0.42395965  0.38092737 -1.        ],1,1,1,0.534811824,0,0,0,0.500631916,0.449674119,0.097095559,0.546769678,0.35257856,nan,nan,nan,[ nan  nan  nan],nan,nan,nan,709.3085779,870.4020556,870.9368674,nan,nan
0,132,17:38:33:599000,6,1,33,23.203125,[ 1.          0.05659903 -1.        ],1,1,1,0.457020738,0,0,0,0.49215971,0.450329024,0.097006991,0.547336015,0.353322034,nan,nan,nan,[ nan  nan  nan],nan,nan,nan,709.3085779,871.3438338,871.8008545,nan,nan
0,133,17:38:34:550000,6,1,140,98.4375,[ 1.         -0.29420925 -0.03457774],1,1,1,0.387209498,0,0,0,0.459680686,0.450380106,0.096637781,0.547017887,0.353742325,nan,nan,nan,[ nan  nan  nan],nan,nan,nan,709.3085779,872.2856257,872.6728352,nan,nan
0,134,17:38:35:486000,6,1,257,180.703125,[ 0.4704729   0.26103985  0.65584138],1,1,1,0.469383653,0,0,0,0.437871296,0.449901541,0.096426728,0.546328269,0.353474812,nan,nan,nan,[ nan  nan  nan],nan,nan,nan,709.3085779,873.2274247,873.6968084,nan,nan
0,135,17:38:36:422000,6,1,97,68.203125,[ 1.         -0.26036974 -0.49171883],1,1,1,0.63956646,0,0,0,0.49871987,0.450048023,0.096078279,0.546126301,0.353969744,nan,nan,nan,[ nan  nan  nan],nan,nan,nan,709.3085779,874.1692115,874.8087779,nan,nan
0,136,17:38:37:374000,6,0,2,1.40625,[ 0.86302458  0.20362286 -1.        ],0,0,1,0.657763585,0,0,0,0.588904566,0.451462339,0.097098847,0.548561187,0.354363492,nan,nan,nan,[ nan  nan  nan],nan,nan,nan,709.3085779,875.1110065,875.7687701,nan,nan
0,137,17:38:38:310000,6,1,208,146.25,[ 0.97651258  0.02502074  0.52257448],1,1,1,0.491940756,0,0,0,0.5964236,0.452990497,0.098342632,0.551333128,0.354647865,nan,nan,nan,[ nan  nan  nan],nan,nan,nan,709.3085779,876.0528004,876.5447412,nan,nan
0,138,17:38:39:246000,6,1,443,311.484375,[ 0.28155878  0.41926821 -1.        ],1,1,1,0.486122226,0,0,0,0.545275522,0.453276896,0.098036902,0.551313798,0.355239994,nan,nan,nan,[ nan  nan  nan],nan,nan,nan,709.3085779,876.9945917,877.480714,nan,nan
0,139,17:38:40:198000,6,1,378,265.78125,[-0.11745014  0.47867092 -0.15481012],1,1,1,0.424301094,0,0,0,0.467454692,0.453516643,0.097718454,0.551235097,0.355798189,nan,nan,nan,[ nan  nan  nan],nan,nan,nan,709.3085779,877.9363902,878.3606913,nan,nan
0,140,17:38:41:134000,6,1,102,71.71875,[ 1.         -0.27661034 -0.43492695],1,1,1,0.410514408,0,0,0,0.440312576,0.453304936,0.097395286,0.550700222,0.35590965,nan,nan,nan,[ nan  nan  nan],nan,nan,nan,709.3085779,878.8781749,879.2886893,nan,nan
0,141,17:38:42:085000,6,1,270,189.84375,[ 0.33115907  0.30936972  0.64139387],1,1,1,0.452702385,0,0,0,0.429172629,0.45299709,0.097111669,0.55010876,0.355885421,nan,nan,nan,[ nan  nan  nan],nan,nan,nan,709.3085779,879.8199677,880.2726701,nan,nan
0,142,17:38:43:021000,6,1,171,120.234375,[ 1.         -0.17601187  0.25645091],1,1,1,0.542875202,0,0,0,0.468697331,0.452994985,0.096764224,0.549759209,0.356230762,nan,nan,nan,[ nan  nan  nan],nan,nan,nan,709.3085779,880.7617544,881.3046297,nan,nan
0,143,17:38:43:957000,6,1,128,90,[ 1.         -0.31066301 -0.15668979],1,1,1,0.465058743,0,0,0,0.486878776,0.453632434,0.096715025,0.550347459,0.356917408,nan,nan,nan,[ nan  nan  nan],nan,nan,nan,709.3085779,881.7035577,882.1686165,nan,nan
0,144,17:38:44:909000,6,1,400,281.25,[-0.01078748  0.4714273  -0.41269269],1,0,0,0.555242393,0,0,0,0.521058779,0.453712901,0.096378614,0.550091515,0.357334286,nan,nan,nan,[ nan  nan  nan],nan,nan,nan,709.3085779,882.6453499,883.2005923,nan,nan
0,145,17:38:45:845000,6,1,360,253.125,[-0.1677095   0.47518832  0.03812586],1,1,1,0.68542049,0,0,1,0.568573875,0.454422897,0.096412976,0.550835873,0.358009921,nan,nan,nan,[ nan  nan  nan],nan,nan,nan,709.3085779,883.5871404,884.2725609,nan,nan
0,146,17:38:50:384000,6,0,289,203.203125,[ 0.14059213  0.36807325  0.58250527],0,0,1,0.503617159,1,0,0,0.581426681,0.456027047,0.097973933,0.55400098,0.358053114,nan,-120.7685417,300,[ 0.04335371  0.39574842  0.52895103],nan,7.565416684,1.5505996,709.3085779,884.5289377,885.0325549,886.3457936,887.9043225
0,147,17:38:51:320000,6,1,55,38.671875,[ 1.         -0.05999965 -1.        ],1,1,1,0.465598715,0,0,0,0.551545455,0.456355255,0.097714912,0.554070167,0.358640343,nan,nan,nan,[ nan  nan  nan],nan,nan,nan,709.3085779,889.0628694,889.5284681,nan,nan
0,148,17:38:52:256000,6,1,279,196.171875,[ 0.23815758  0.33893035  0.61897842],1,1,1,0.499759806,0,0,0,0.48965856,0.456418566,0.097382681,0.553801247,0.359035885,nan,nan,nan,[ nan  nan  nan],nan,nan,nan,709.3085779,890.004667,890.5044268,nan,nan
0,149,17:38:53:208000,6,1,4,2.8125,[ 0.87912605  0.19501404 -1.        ],1,1,1,0.509930901,0,0,0,0.491763141,0.456713404,0.097116247,0.553829652,0.359597157,nan,nan,nan,[ nan  nan  nan],nan,nan,nan,709.3085779,890.9464618,891.4563927,nan,nan
0,150,17:38:54:144000,6,1,446,313.59375,[ 0.30469626  0.41359904 -1.        ],1,1,1,0.472135117,0,0,0,0.493941942,0.457072982,0.096885733,0.553958715,0.360187249,nan,nan,nan,[ nan  nan  nan],nan,nan,nan,709.3085779,891.8882525,892.3603876,nan,nan
0,151,17:38:55:096000,6,1,2,1.40625,[ 0.86302458  0.20362286 -1.        ],1,1,1,0.48231448,0,0,0,0.488126833,0.45717407,0.096567896,0.553741967,0.360606174,nan,nan,nan,[ nan  nan  nan],nan,nan,nan,709.3085779,892.8300441,893.3123586,nan,nan
0,152,17:38:56:032000,6,0,47,33.046875,[ 1.         -0.01707559 -1.        ],0,0,1,0.484496607,0,0,0,0.479648735,0.457341673,0.096267207,0.55360888,0.361074466,nan,nan,nan,[ nan  nan  nan],nan,nan,nan,709.3085779,893.77184,894.2563366,nan,nan
0,153,17:38:56:968000,6,1,429,301.640625,[ 0.17753182  0.44208078 -0.9018852 ],1,1,1,0.694666162,0,0,0,0.55382575,0.457521507,0.095973188,0.553494695,0.361548319,nan,nan,nan,[ nan  nan  nan],nan,nan,nan,709.3085779,894.7136368,895.4083029,nan,nan
0,154,17:38:57:919000,6,1,346,243.28125,[-0.17431756  0.46643129  0.17667017],1,1,1,0.600862644,0,0,0,0.593341804,0.459081669,0.097559239,0.556640908,0.36152243,nan,nan,nan,[ nan  nan  nan],nan,nan,nan,709.3085779,895.6554295,896.2562921,nan,nan
0,155,17:38:58:855000,6,0,111,78.046875,[ 1.         -0.29867781 -0.33610624],0,0,1,0.603036789,0,0,0,0.632855198,0.460008342,0.097908749,0.557917091,0.362099593,nan,nan,nan,[ nan  nan  nan],nan,nan,nan,709.3085779,896.5972242,897.200261,nan,nan
0,156,17:38:59:791000,6,1,268,188.4375,[ 0.35230222  0.30236752  0.64500531],1,1,1,0.621242182,0,0,0,0.608380538,0.460937098,0.098264192,0.559201291,0.362672906,nan,nan,nan,[ nan  nan  nan],nan,nan,nan,709.3085779,897.5390056,898.1602478,nan,nan
0,157,17:39:00:743000,6,0,211,148.359375,[ 0.94867577  0.04136069  0.53868916],0,0,1,0.687410177,0,0,0,0.637229716,0.461971325,0.098783996,0.56075532,0.363187329,nan,nan,nan,[ nan  nan  nan],nan,nan,nan,709.3085779,898.4808012,899.1682114,nan,nan
0,158,17:39:01:679000,6,1,301,211.640625,[ 0.03515994  0.39804276  0.52341451],1,1,1,0.401612847,0,0,0,0.570088402,0.463416446,0.100097067,0.563513512,0.363319379,nan,nan,nan,[ nan  nan  nan],nan,nan,nan,709.3085779,899.4225928,899.8242056,nan,nan
0,159,17:39:02:630000,6,1,456,320.625,[ 0.38361243  0.39263319 -1.        ],1,1,1,0.339801408,0,0,0,0.47627481,0.463022792,0.099898844,0.562921636,0.363123948,nan,nan,nan,[ nan  nan  nan],nan,nan,nan,709.3085779,900.3643816,900.704183,nan,nan
0,160,17:39:03:566000,6,1,46,32.34375,[ 1.         -0.01173137 -1.        ],1,1,1,0.349983336,0,0,0,0.363799197,0.46224291,0.100060511,0.56230342,0.362182399,nan,nan,nan,[ nan  nan  nan],nan,nan,nan,709.3085779,901.3061883,901.6561716,nan,nan
0,161,17:39:04:502000,6,1,274,192.65625,[ 0.28934405  0.32290089  0.63267027],1,1,1,0.368177895,0,1,0,0.352654213,0.461536875,0.100139389,0.561676264,0.361397486,nan,nan,nan,[ nan  nan  nan],nan,nan,nan,709.3085779,902.247977,902.6161549,nan,nan
0,162,17:39:10:212000,6,1,154,108.28125,[ 1.         -0.25181315  0.10213817],1,1,1,0.434351878,1,0,0,0.384171036,0.460953381,0.100096737,0.561050119,0.360856644,nan,66.91486633,33,[ 1.          0.05659903 -1.        ],nan,-85.19611633,2.700662022,709.3085779,903.1897709,903.6241228,905.0232807,907.7319836
0,163,17:39:11:148000,6,1,262,184.21875,[ 0.41645248  0.28041442  0.65281554],1,1,1,0.565457108,0,0,0,0.455995627,0.460788154,0.099807278,0.560595433,0.360980876,nan,nan,nan,[ nan  nan  nan],nan,nan,nan,709.3085779,908.8905287,909.4559858,nan,nan
0,164,17:39:12:084000,6,1,83,58.359375,[ 1.         -0.20309788 -0.66587671],1,1,1,0.471629072,0,0,0,0.490479352,0.461434259,0.099835924,0.561270183,0.361598335,nan,nan,nan,[ nan  nan  nan],nan,nan,nan,709.3085779,909.8323209,910.30395,nan,nan
0,165,17:39:13:036000,6,1,192,135,[ 1.         -0.06359976  0.42165841],1,1,1,0.417830834,0,0,0,0.484972338,0.461496804,0.099532391,0.561029195,0.361964413,nan,nan,nan,[ nan  nan  nan],nan,nan,nan,709.3085779,910.7741162,911.1919471,nan,nan
0,166,17:39:13:972000,6,1,58,40.78125,[ 1.         -0.07608966 -1.        ],1,1,1,0.420053444,0,0,0,0.43650445,0.461230548,0.099286684,0.560517232,0.361943864,nan,nan,nan,[ nan  nan  nan],nan,nan,nan,709.3085779,911.7159087,912.1359621,nan,nan
0,167,17:39:14:923000,6,1,291,204.609375,[ 0.12202764  0.37344194  0.57379193],1,1,1,0.446158285,0,0,0,0.428014188,0.46098099,0.099036937,0.560017927,0.361944053,nan,nan,nan,[ nan  nan  nan],nan,nan,nan,709.3085779,912.6577485,913.1039068,nan,nan
0,168,17:39:15:859000,6,1,364,255.9375,[-0.16019432  0.47670452 -0.00341125],1,1,1,0.392391978,0,0,0,0.419534569,0.460891696,0.098744844,0.559636541,0.362146852,nan,nan,nan,[ nan  nan  nan],nan,nan,nan,709.3085779,913.5994891,913.991881,nan,nan
0,169,17:39:16:795000,6,1,458,322.03125,[ 0.39968805  0.38805021 -1.        ],1,1,1,0.298583328,0,0,0,0.37904453,0.460481518,0.0985905,0.559072018,0.361891019,nan,nan,nan,[ nan  nan  nan],nan,nan,nan,709.3085779,914.5412767,914.83986,nan,nan
0,170,17:39:17:747000,6,1,87,61.171875,[ 1.         -0.22095901 -0.61267562],1,1,1,0.372760818,0,1,0,0.354578708,0.459517839,0.099082381,0.55860022,0.360435457,nan,nan,nan,[ nan  nan  nan],nan,nan,nan,709.3085779,915.4830745,915.8558354,nan,nan
0,171,17:39:21:803000,6,1,175,123.046875,[ 1.         -0.15562995  0.29036176],1,1,1,0.33493852,1,0,0,0.335427556,0.459004484,0.099012632,0.558017116,0.359991852,nan,-26.8109543,166,[ 1.         -0.20036215  0.21267421],nan,-6.2359207,1.075454151,709.3085779,916.4248707,916.7598092,918.2500557,919.3335575
0,172,17:39:22:739000,6,1,347,243.984375,[-0.17493884  0.46723881  0.16715748],1,1,1,0.41197353,0,0,0,0.37322429,0.458274684,0.099175825,0.557450509,0.359098859,nan,nan,nan,[ nan  nan  nan],nan,nan,nan,709.3085779,920.4837494,920.8957229,nan,nan
0,173,17:39:23:690000,6,1,498,350.15625,[ 0.73150794  0.26756188 -1.        ],1,1,1,0.478178588,0,0,0,0.408363546,0.458003917,0.098948412,0.556952329,0.359055505,nan,nan,nan,[ nan  nan  nan],nan,nan,nan,709.3085779,921.425537,921.9037156,nan,nan
0,174,17:39:24:626000,6,1,72,50.625,[ 1.         -0.14960778 -0.85320374],1,1,1,0.408333706,0,0,0,0.432828608,0.458121211,0.098672274,0.556793486,0.359448937,nan,nan,nan,[ nan  nan  nan],nan,nan,nan,709.3085779,922.3673303,922.775664,nan,nan
0,175,17:39:25:562000,6,1,28,19.6875,[ 1.          0.08206613 -1.        ],1,1,1,0.402514891,0,0,0,0.429675729,0.457833422,0.09845905,0.556292472,0.359374373,nan,nan,nan,[ nan  nan  nan],nan,nan,nan,709.3085779,923.3091248,923.7116397,nan,nan
0,176,17:39:26:514000,6,1,217,152.578125,[ 0.89125041  0.07353733  0.56804835],1,1,1,0.356700204,0,0,0,0.389182934,0.4575155,0.098264728,0.555780228,0.359250772,nan,nan,nan,[ nan  nan  nan],nan,nan,nan,709.3085779,924.2509246,924.6076248,nan,nan
0,177,17:39:27:450000,6,1,62,43.59375,[ 1.         -0.09743725 -1.        ],1,1,1,0.414899189,0,0,0,0.391371428,0.456939412,0.098277802,0.555217214,0.35866161,nan,nan,nan,[ nan  nan  nan],nan,nan,nan,709.3085779,925.19271,925.6076092,nan,nan
0,178,17:39:28:402000,6,1,250,175.78125,[ 0.54642845  0.23228666  0.65474773],1,1,1,0.425068858,0,0,0,0.398889417,0.456700548,0.098049137,0.554749684,0.358651411,nan,nan,nan,[ nan  nan  nan],nan,nan,nan,709.3085779,926.1345047,926.5595736,nan,nan
0,179,17:39:29:338000,6,1,89,62.578125,[ 1.         -0.2294841  -0.58737049],1,1,1,0.451270061,0,0,0,0.430412703,0.456521837,0.097800511,0.554322348,0.358721327,nan,nan,nan,[ nan  nan  nan],nan,nan,nan,709.3085779,927.0762972,927.5275672,nan,nan
0,180,17:39:30:274000,6,1,59,41.484375,[ 1.         -0.08144099 -1.        ],1,1,1,0.453458745,0,0,0,0.443265888,0.456492333,0.097526193,0.554018526,0.35896614,nan,nan,nan,[ nan  nan  nan],nan,nan,nan,709.3085779,928.0180888,928.4715475,nan,nan
0,181,17:39:31:225000,6,1,505,355.078125,[ 0.78953796  0.24068314 -1.        ],1,1,1,0.455636596,0,0,0,0.453455134,0.456475386,0.097253655,0.553729041,0.359221731,nan,nan,nan,[ nan  nan  nan],nan,nan,nan,709.3085779,928.9598773,929.4155139,nan,nan
0,182,17:39:32:161000,6,1,348,244.6875,[-0.17538477  0.46801784  0.15758216],1,1,1,0.473843414,0,0,0,0.460979585,0.456470726,0.09698315,0.553453875,0.359487576,nan,nan,nan,[ nan  nan  nan],nan,nan,nan,709.3085779,929.9016632,930.3755066,nan,nan
0,183,17:39:33:097000,6,1,421,296.015625,[ 0.12147167  0.45251804 -0.71261034],1,1,1,0.396004718,0,0,0,0.441828243,0.456566707,0.096723442,0.553290149,0.359843266,nan,nan,nan,[ nan  nan  nan],nan,nan,nan,709.3085779,930.8434667,931.2394715,nan,nan
0,184,17:39:34:049000,6,1,17,11.953125,[ 0.98106915  0.13592191 -1.        ],1,1,1,0.318209641,0,0,0,0.396019258,0.456233949,0.096561186,0.552795135,0.359672764,nan,nan,nan,[ nan  nan  nan],nan,nan,nan,709.3085779,931.7852615,932.1034711,nan,nan
0,185,17:39:34:985000,6,1,177,124.453125,[ 1.         -0.14519215  0.30692121],1,1,1,0.328384442,0,1,0,0.347532934,0.455479718,0.096833077,0.552312795,0.358646641,nan,nan,nan,[ nan  nan  nan],nan,nan,nan,709.3085779,932.7270528,933.0554373,nan,nan
0,186,17:39:38:994000,6,1,481,338.203125,[ 0.58928949  0.32561186 -1.        ],1,1,1,0.410565155,1,0,0,0.352386413,0.454788983,0.0970206,0.551809583,0.357768383,nan,173.8746281,393,[-0.04894566  0.47510217 -0.32744323],nan,-62.07775306,1.008784672,709.3085779,933.6688524,934.0794176,935.5023607,936.5191871
0,187,17:39:39:930000,6,0,388,272.8125,[-0.07396337  0.47694192 -0.26857716],0,0,1,0.641892275,0,0,0,0.460280624,0.454549935,0.096812345,0.55136228,0.35773759,nan,nan,nan,[ nan  nan  nan],nan,nan,nan,709.3085779,937.6693935,938.3112858,nan,nan
0,188,17:39:40:866000,6,1,297,208.828125,[ 0.06862621  0.38864628  0.54490466],1,1,1,0.468103856,0,0,0,0.506853762,0.455557152,0.097518817,0.553075969,0.358038335,nan,nan,nan,[ nan  nan  nan],nan,nan,nan,709.3085779,938.6111743,939.0792781,nan,nan
0,189,17:39:41:818000,6,1,487,342.421875,[ 0.63952974  0.30629503 -1.        ],1,1,1,0.422312832,0,0,0,0.510769654,0.455624247,0.097262026,0.552886273,0.358362221,nan,nan,nan,[ nan  nan  nan],nan,nan,nan,709.3085779,939.5529659,939.9752787,nan,nan
0,190,17:39:42:754000,6,1,266,187.03125,[ 0.37357759  0.29520749  0.64811377],1,1,1,0.368492927,0,0,0,0.419636538,0.455447058,0.097033263,0.552480321,0.358413795,nan,nan,nan,[ nan  nan  nan],nan,nan,nan,709.3085779,940.4947575,940.8632504,nan,nan
0,191,17:39:43:690000,6,1,217,152.578125,[ 0.89125041  0.07353733  0.56804835],1,1,1,0.322689359,0,0,0,0.371165039,0.454986984,0.096981599,0.551968583,0.358005384,nan,nan,nan,[ nan  nan  nan],nan,nan,nan,709.3085779,941.43655,941.7592393,nan,nan
0,192,17:39:44:641000,6,1,424,298.125,[ 0.14217456  0.44881957 -0.77022942],1,1,1,0.332863875,0,1,0,0.34134872,0.45429068,0.097198574,0.551489254,0.357092106,nan,nan,nan,[ nan  nan  nan],nan,nan,nan,709.3085779,942.3783427,942.7112066,nan,nan
0,193,17:39:49:181000,6,1,26,18.28125,[ 1.          0.09209217 -1.        ],1,1,1,0.35905624,1,0,0,0.338203158,0.453654938,0.097339052,0.55099399,0.356315885,nan,53.7001908,52,[ 1.         -0.04388606 -1.        ],nan,18.0185592,1.558834321,709.3085779,943.3201355,943.6791917,945.1453181,946.7121999
0,194,17:39:50:117000,6,1,430,302.34375,[ 0.18472502  0.44064573 -0.94190417],1,nan,nan,nan,0,0,0,0.345960057,0.453162236,0.097323732,0.550485969,0.355838504,nan,nan,nan,[ nan  nan  nan],nan,nan,nan,709.3085779,947.8624071,nan,nan,nan
0,195,17:39:51:069000,6,1,127,89.296875,[ 1.         -0.31111021 -0.16703665],1,1,1,0.546789288,0,0,0,0.452922764,0.453162236,0.097323732,0.550485969,0.355838504,nan,nan,nan,[ nan  nan  nan],nan,nan,nan,709.3085779,948.8042232,949.3510125,nan,nan
0,196,17:39:52:005000,6,1,198,139.21875,[ 1.         -0.0302355   0.46232694],1,1,1,0.541041747,0,0,0,0.543915518,0.453647351,0.097303731,0.550951082,0.356343619,nan,nan,nan,[ nan  nan  nan],nan,nan,nan,709.3085779,949.7459892,950.2870309,nan,nan
0,197,17:39:52:941000,6,1,379,266.484375,[-0.11353594  0.47861499 -0.16597052],1,1,1,0.359232715,0,0,0,0.482354584,0.454097837,0.097254198,0.551352035,0.356843639,nan,nan,nan,[ nan  nan  nan],nan,nan,nan,709.3085779,950.6877885,951.0470212,nan,nan
0,198,17:39:53:892000,6,1,500,351.5625,[ 0.74814593  0.26005829 -1.        ],1,1,1,0.401415845,0,0,0,0.433896769,0.453611349,0.097240879,0.550852228,0.35637047,nan,nan,nan,[ nan  nan  nan],nan,nan,nan,709.3085779,951.6295804,952.0309962,nan,nan
0,199,17:39:54:828000,6,1,198,139.21875,[ 1.         -0.0302355   0.46232694],1,1,1,0.411603761,0,0,0,0.390750773,0.453345046,0.097063761,0.550408806,0.356281285,nan,nan,nan,[ nan  nan  nan],nan,nan,nan,709.3085779,952.5713726,952.9829763,nan,nan
0,200,17:39:55:780000,6,1,75,52.734375,[ 1.         -0.16471446 -0.79135592],1,1,1,0.453787461,0,0,0,0.422269022,0.453133161,0.096862526,0.549995687,0.356270635,nan,nan,nan,[ nan  nan  nan],nan,nan,nan,709.3085779,953.513167,953.9669545,nan,nan
0,201,17:39:56:716000,6,1,375,263.671875,[-0.1285567   0.47868243 -0.12160516],1,1,1,0.43197446,0,0,0,0.432455227,0.453136466,0.096617625,0.54975409,0.356518841,nan,nan,nan,[ nan  nan  nan],nan,nan,nan,709.3085779,954.4549629,954.8869374,nan,nan
0,202,17:39:57:652000,6,1,65,45.703125,[ 1.         -0.11331216 -1.        ],1,1,1,0.546154379,0,0,0,0.477305433,0.453030124,0.096386177,0.549416301,0.356643947,nan,nan,nan,[ nan  nan  nan],nan,nan,nan,709.3085779,955.3967542,955.9429086,nan,nan
0,203,17:39:58:603000,6,1,383,269.296875,[-0.09687871  0.47813121 -0.21108141],1,1,1,0.700319621,0,0,1,0.55948282,0.453495745,0.096369017,0.549864762,0.357126728,nan,nan,nan,[ nan  nan  nan],nan,nan,nan,709.3085779,956.3385664,957.038886,nan,nan
0,204,17:40:02:457000,6,1,300,210.9375,[ 0.04335371  0.39574842  0.52895103],1,1,1,0.622550773,1,0,0,0.623008258,0.454723725,0.097685057,0.552408781,0.357038668,nan,-117.5635693,295,[ 0.08602229  0.38372732  0.55498608],nan,-3.373930673,0.87540751,709.3085779,957.2803218,957.9028725,959.1055449,959.9889816
0,205,17:40:03:393000,6,1,400,281.25,[-0.01078748  0.4714273  -0.41269269],1,1,1,0.715522666,0,0,0,0.679464354,0.455554552,0.098152309,0.553706861,0.357402242,nan,nan,nan,[ nan  nan  nan],nan,nan,nan,709.3085779,961.1392319,961.8547546,nan,nan
0,206,17:40:04:344000,6,0,223,156.796875,[ 0.83172397  0.10489059  0.59343224],0,0,1,0.669766423,0,0,0,0.669279954,0.456835183,0.099587657,0.55642284,0.357247525,nan,nan,nan,[ nan  nan  nan],nan,nan,nan,709.3085779,962.0809799,962.7507463,nan,nan
0,207,17:40:05:280000,6,1,426,299.53125,[ 0.15619305  0.44621085 -0.8148597 ],1,1,1,0.495964035,0,0,0,0.627084375,0.457878963,0.100450233,0.558329196,0.35742873,nan,nan,nan,[ nan  nan  nan],nan,nan,nan,709.3085779,963.0227718,963.5187358,nan,nan
0,208,17:40:06:232000,6,1,131,92.109375,[ 1.         -0.30845167 -0.1258005 ],1,1,1,0.442135006,0,0,0,0.535955155,0.458064744,0.10024006,0.558304804,0.357824684,nan,nan,nan,[ nan  nan  nan],nan,nan,nan,709.3085779,963.964564,964.406699,nan,nan
0,209,17:40:07:168000,6,0,469,329.765625,[ 0.4894822   0.36045336 -1.        ],0,0,1,0.500334846,0,0,0,0.479477962,0.457987415,0.100002592,0.557990007,0.357984823,nan,nan,nan,[ nan  nan  nan],nan,nan,nan,709.3085779,964.9063559,965.4066907,nan,nan
0,210,17:40:08:104000,6,1,279,196.171875,[ 0.23815758  0.33893035  0.61897842],1,1,1,0.310532853,0,0,0,0.417667568,0.458191992,0.099803949,0.557995941,0.358388044,nan,nan,nan,[ nan  nan  nan],nan,nan,nan,709.3085779,965.8481506,966.1586834,nan,nan
0,211,17:40:09:055000,6,1,128,90,[ 1.         -0.31066301 -0.15668979],1,1,1,0.480707107,0,0,0,0.430524935,0.457482093,0.100086257,0.557568349,0.357395836,nan,nan,nan,[ nan  nan  nan],nan,nan,nan,709.3085779,966.7899396,967.2706467,nan,nan
0,212,17:40:09:991000,6,1,311,218.671875,[-0.03972498  0.41902022  0.46225021],1,1,1,0.418893672,0,0,0,0.403377878,0.457593217,0.09985939,0.557452607,0.357733827,nan,nan,nan,[ nan  nan  nan],nan,nan,nan,709.3085779,967.7317361,968.1506298,nan,nan
0,213,17:40:10:927000,6,1,161,113.203125,[ 1.         -0.22315835  0.16749055],1,1,1,0.429053649,0,0,0,0.442884809,0.457408933,0.099656963,0.557065897,0.35775197,nan,nan,nan,[ nan  nan  nan],nan,nan,nan,709.3085779,968.6735377,969.1025913,nan,nan
0,214,17:40:11:879000,6,1,490,344.53125,[ 0.66466039  0.29615785 -1.        ],1,1,1,0.391253873,0,0,0,0.413067065,0.457274548,0.0994396,0.556714148,0.357834948,nan,nan,nan,[ nan  nan  nan],nan,nan,nan,709.3085779,969.6153219,970.0065757,nan,nan
0,215,17:40:12:815000,6,1,412,289.6875,[ 0.06188912  0.46209661 -0.57115894],1,1,1,0.46544961,0,0,0,0.428585711,0.45696313,0.099307877,0.556271007,0.357655253,nan,nan,nan,[ nan  nan  nan],nan,nan,nan,709.3085779,970.5571135,971.0225631,nan,nan
0,216,17:40:13:767000,6,1,87,61.171875,[ 1.         -0.22095901 -0.61267562],1,1,1,0.531620456,0,0,0,0.462774646,0.457002973,0.099076184,0.556079157,0.357926788,nan,nan,nan,[ nan  nan  nan],nan,nan,nan,709.3085779,971.4989059,972.0305264,nan,nan
0,217,17:40:14:703000,6,1,38,26.71875,[ 1.          0.03062595 -1.        ],1,1,1,0.501801951,0,0,0,0.499624006,0.457351652,0.098975334,0.556326986,0.358376318,nan,nan,nan,[ nan  nan  nan],nan,nan,nan,709.3085779,972.4407021,972.9425041,nan,nan
0,218,17:40:15:639000,6,1,1,0.703125,[ 0.85493913  0.20787707 -1.        ],1,1,1,0.487979343,0,0,0,0.507133917,0.457558398,0.098791197,0.556349595,0.358767201,nan,nan,nan,[ nan  nan  nan],nan,nan,nan,709.3085779,973.3825091,973.8704885,nan,nan
0,219,17:40:16:590000,6,1,424,298.125,[ 0.14217456  0.44881957 -0.77022942],1,1,1,0.458176804,0,0,0,0.482652699,0.457699236,0.09858388,0.556283116,0.359115356,nan,nan,nan,[ nan  nan  nan],nan,nan,nan,709.3085779,974.3242839,974.7824607,nan,nan
0,220,17:40:17:526000,6,1,227,159.609375,[ 0.79101995  0.12525779  0.60806671],1,1,1,0.588361172,0,0,0,0.511505773,0.457701436,0.098356471,0.556057908,0.359344965,nan,nan,nan,[ nan  nan  nan],nan,nan,nan,709.3085779,975.2660724,975.8544335,nan,nan
0,221,17:40:18:462000,6,1,357,251.015625,[-0.17179183  0.47376752  0.06873903],1,1,1,0.486530484,0,0,0,0.51102282,0.458300793,0.098527011,0.556827804,0.359773782,nan,nan,nan,[ nan  nan  nan],nan,nan,nan,709.3085779,976.2078828,976.6944133,nan,nan
0,222,17:40:19:414000,6,1,409,287.578125,[ 0.04294362  0.46479315 -0.52946185],1,1,1,0.472786562,0,0,0,0.51589274,0.458429696,0.098320228,0.556749924,0.360109467,nan,nan,nan,[ nan  nan  nan],nan,nan,nan,709.3085779,977.1496299,977.6224165,nan,nan
0,223,17:40:20:350000,6,0,146,102.65625,[ 1.         -0.27879258  0.02488132],0,0,1,0.538927473,0,0,0,0.49941484,0.458494954,0.098101272,0.556596226,0.360393682,nan,nan,nan,[ nan  nan  nan],nan,nan,nan,709.3085779,978.0914558,978.6303832,nan,nan
0,224,17:40:21:301000,6,1,321,225.703125,[-0.09994335  0.43654647  0.39117498],1,1,1,0.42112056,0,0,0,0.477611532,0.458858902,0.09802782,0.556886723,0.360831082,nan,nan,nan,[ nan  nan  nan],nan,nan,nan,709.3085779,979.0332479,979.4543685,nan,nan
0,225,17:40:22:237000,6,1,273,191.953125,[ 0.29973296  0.31957719  0.63503803],1,1,1,0.423306963,0,0,0,0.461118332,0.45868891,0.09783943,0.55652834,0.36084948,nan,nan,nan,[ nan  nan  nan],nan,nan,nan,709.3085779,979.975039,980.3983459,nan,nan
0,226,17:40:23:173000,6,1,445,312.890625,[ 0.2969539  0.4155201 -1.       ],1,nan,nan,nan,0,0,0,0.422213761,0.458530246,0.097648433,0.556178679,0.360881813,nan,nan,nan,[ nan  nan  nan],nan,nan,nan,709.3085779,980.9168349,nan,nan,nan
0,227,17:40:24:125000,6,1,234,164.53125,[ 0.71814775  0.15974031  0.6291316 ],1,1,1,0.507639012,0,0,0,0.465472988,0.458530246,0.097648433,0.556178679,0.360881813,nan,nan,nan,[ nan  nan  nan],nan,nan,nan,709.3085779,981.8586236,982.3662626,nan,nan
0,228,17:40:25:061000,6,1,411,288.984375,[ 0.05552017  0.46302271 -0.55705476],1,1,1,0.429862182,0,0,0,0.468750597,0.458749482,0.097485213,0.556234695,0.361264268,nan,nan,nan,[ nan  nan  nan],nan,nan,nan,709.3085779,982.8004181,983.2302802,nan,nan
0,229,17:40:25:997000,6,1,316,222.1875,[-0.07182156  0.42820351  0.42789226],1,1,1,0.440025864,0,0,0,0.459175686,0.458621094,0.097287317,0.55590841,0.361333777,nan,nan,nan,[ nan  nan  nan],nan,nan,nan,709.3085779,983.7422222,984.1822481,nan,nan
0,230,17:40:26:949000,6,1,185,130.078125,[ 1.         -0.10221447  0.37029995],1,1,1,0.474230005,0,0,0,0.44803935,0.458538814,0.097079686,0.5556185,0.361459128,nan,nan,nan,[ nan  nan  nan],nan,nan,nan,709.3085779,984.6840027,985.1582327,nan,nan
0,231,17:40:27:885000,6,1,67,47.109375,[ 1.         -0.12380467 -1.        ],1,1,1,0.436410558,0,0,0,0.450222142,0.458607938,0.096871192,0.55547913,0.361736746,nan,nan,nan,[ nan  nan  nan],nan,nan,nan,709.3085779,985.6257946,986.0622052,nan,nan
0,232,17:40:28:836000,6,1,275,193.359375,[ 0.27900239  0.32618525  0.63017847],1,1,1,0.462595511,0,0,0,0.457745358,0.458510581,0.096669651,0.555180232,0.36184093,nan,nan,nan,[ nan  nan  nan],nan,nan,nan,709.3085779,986.5676013,987.0301968,nan,nan
0,233,17:40:29:772000,6,1,418,293.90625,[ 0.10117589  0.45596175 -0.66167931],1,1,1,0.440790207,0,0,0,0.446598759,0.458528419,0.096458727,0.554987146,0.362069692,nan,nan,nan,[ nan  nan  nan],nan,nan,nan,709.3085779,987.5093804,987.9501706,nan,nan
0,234,17:40:30:708000,6,1,111,78.046875,[ 1.         -0.29867781 -0.33610624],1,1,1,0.410967426,0,0,0,0.438117715,0.458451297,0.096255881,0.554707178,0.362195416,nan,nan,nan,[ nan  nan  nan],nan,nan,nan,709.3085779,988.451176,988.8621434,nan,nan
0,235,17:40:31:660000,6,1,22,15.46875,[ 1.          0.11184242 -1.        ],1,1,1,0.429148871,0,0,0,0.426968835,0.458245739,0.096097888,0.554343627,0.362147851,nan,nan,nan,[ nan  nan  nan],nan,nan,nan,709.3085779,989.3929664,989.8221153,nan,nan
0,236,17:40:32:596000,6,1,336,236.25,[-0.15821161  0.45675811  0.26813527],1,1,1,0.407340716,0,0,0,0.415819004,0.458120321,0.095909501,0.554029822,0.36221082,nan,nan,nan,[ nan  nan  nan],nan,nan,nan,709.3085779,990.3347578,990.7420985,nan,nan
0,237,17:40:33:532000,6,1,491,345.234375,[ 0.67303348  0.29270771 -1.        ],1,1,1,0.34552272,0,0,0,0.394004102,0.457902383,0.095761018,0.553663401,0.362141365,nan,nan,nan,[ nan  nan  nan],nan,nan,nan,709.3085779,991.2765591,991.6220818,nan,nan
0,238,17:40:34:483000,6,1,330,232.03125,[-0.13976633  0.44951833  0.31954025],1,1,1,0.315713053,0,1,0,0.356192163,0.457422128,0.095836966,0.553259094,0.361585162,nan,nan,nan,[ nan  nan  nan],nan,nan,nan,709.3085779,992.2183393,992.5340523,nan,nan
0,239,17:40:38:851000,6,1,70,49.21875,[ 1.         -0.13936985 -0.90643691],1,1,1,0.429913214,1,0,0,0.363716329,0.456819111,0.096076686,0.552895797,0.360742425,nan,30.47985098,85,[ 1.         -0.21215645 -0.63878123],nan,10.30139902,1.383814571,709.3085779,993.1601209,993.5900341,994.9853201,996.377173
0,240,17:40:39:787000,6,1,459,322.734375,[ 0.40775816  0.38570917 -1.        ],1,1,1,0.67051138,0,0,0,0.472045882,0.456705103,0.095888846,0.552593949,0.360816257,nan,nan,nan,[ nan  nan  nan],nan,nan,nan,709.3085779,997.5273891,998.1979004,nan,nan
0,241,17:40:40:723000,6,0,160,112.5,[ 1.         -0.22750142  0.15829752],0,0,1,0.736725276,0,0,0,0.61238329,0.457607239,0.096684762,0.554292001,0.360922477,nan,nan,nan,[ nan  nan  nan],nan,nan,nan,709.3085779,998.4691733,999.2058985,nan,nan
0,242,17:40:41:675000,6,1,391,274.921875,[-0.0591908   0.47591628 -0.30371871],1,1,1,0.498904803,0,0,0,0.635380486,0.458780004,0.098156154,0.556936158,0.36062385,nan,nan,nan,[ nan  nan  nan],nan,nan,nan,709.3085779,999.4109743,999.9098791,nan,nan
0,243,17:40:42:611000,6,1,283,198.984375,[ 0.19826868  0.35105092  0.60582595],1,1,1,0.429107532,0,0,0,0.554912537,0.45894789,0.097984828,0.556932718,0.360963062,nan,nan,nan,[ nan  nan  nan],nan,nan,nan,709.3085779,1000.352761,1000.781869,nan,nan
0,244,17:40:43:563000,6,1,335,235.546875,[-0.15559599  0.45562772  0.27689323],1,1,1,0.359301708,0,0,0,0.429104681,0.458823555,0.097799371,0.556622926,0.361024184,nan,nan,nan,[ nan  nan  nan],nan,nan,nan,709.3085779,1001.294559,1001.653861,nan,nan
0,245,17:40:44:499000,6,1,280,196.875,[ 0.22808935  0.34201885  0.61587222],1,1,1,0.45747005,0,0,0,0.415293097,0.458410601,0.097805709,0.556216311,0.360604892,nan,nan,nan,[ nan  nan  nan],nan,nan,nan,709.3085779,1002.236357,1002.693827,nan,nan
0,246,17:40:45:435000,6,1,337,236.953125,[-0.16064337  0.45785839  0.25930356],1,1,1,0.427658102,0,0,0,0.414809953,0.458406715,0.097603441,0.556010156,0.360803274,nan,nan,nan,[ nan  nan  nan],nan,nan,nan,709.3085779,1003.178146,1003.605804,nan,nan
0,247,17:40:46:386000,6,1,128,90,[ 1.         -0.31066301 -0.15668979],1,1,1,0.645843995,0,0,0,0.510324049,0.458280177,0.097422293,0.55570247,0.360857885,nan,nan,nan,[ nan  nan  nan],nan,nan,nan,709.3085779,1004.119933,1004.765777,nan,nan
0,248,17:40:47:322000,6,1,57,40.078125,[ 1.         -0.07073133 -1.        ],1,1,1,0.464032396,0,0,0,0.512511498,0.459048882,0.09795813,0.557007012,0.361090751,nan,nan,nan,[ nan  nan  nan],nan,nan,nan,709.3085779,1005.061723,1005.525755,nan,nan
0,249,17:40:48:258000,6,0,442,310.78125,[ 0.27390726  0.42109554 -1.        ],0,0,1,0.554236003,0,0,0,0.554704131,0.459069222,0.097758528,0.55682775,0.361310695,nan,nan,nan,[ nan  nan  nan],nan,nan,nan,709.3085779,1006.003521,1006.557757,nan,nan
0,250,17:40:49:210000,6,1,305,214.453125,[ 0.00361193  0.40685925  0.50019691],1,1,1,0.532392782,0,0,0,0.51688706,0.459456079,0.097747366,0.557203445,0.361708714,nan,nan,nan,[ nan  nan  nan],nan,nan,nan,709.3085779,1006.945318,1007.477711,nan,nan
0,251,17:40:50:146000,6,1,8,5.625,[ 0.91102659  0.17740094 -1.        ],1,1,1,0.558577734,0,0,0,0.548402173,0.45975137,0.09765918,0.55741055,0.36209219,nan,nan,nan,[ nan  nan  nan],nan,nan,nan,709.3085779,1007.887107,1008.445685,nan,nan
0,252,17:40:51:097000,6,1,288,202.5,[ 0.15000513  0.36533195  0.58668724],1,1,1,0.504782633,0,0,0,0.531917716,0.460149863,0.097663101,0.557812964,0.362486762,nan,nan,nan,[ nan  nan  nan],nan,nan,nan,709.3085779,1008.828894,1009.333677,nan,nan
0,253,17:40:52:033000,6,1,466,327.65625,[ 0.46478901  0.3683856  -1.        ],1,1,1,0.386991684,0,0,0,0.483450684,0.460329111,0.097507661,0.557836772,0.36282145,nan,nan,nan,[ nan  nan  nan],nan,nan,nan,709.3085779,1009.770687,1010.157678,nan,nan
0,254,17:40:52:969000,6,0,509,357.890625,[ 0.82238638  0.224555   -1.        ],0,0,1,0.589132643,0,0,0,0.493635653,0.460035761,0.097422485,0.557458246,0.362613277,nan,nan,nan,[ nan  nan  nan],nan,nan,nan,709.3085779,1010.712495,1011.301628,nan,nan
0,255,17:40:53:921000,6,1,137,96.328125,[ 1.         -0.30019022 -0.06473166],1,1,1,0.319324653,0,0,0,0.431816327,0.460550092,0.097567726,0.558117817,0.362982366,nan,nan,nan,[ nan  nan  nan],nan,nan,nan,709.3085779,1011.654278,1011.973602,nan,nan
0,256,17:40:54:857000,6,0,384,270,[-0.09247501  0.47794532 -0.22247927],0,0,1,0.569523151,0,0,0,0.492660149,0.459989673,0.097777895,0.557767568,0.362211778,nan,nan,nan,[ nan  nan  nan],nan,nan,nan,709.3085779,1012.596067,1013.16559,nan,nan
0,257,17:40:55:793000,6,1,278,195.46875,[ 0.24828552  0.33580281  0.62196257],1,1,1,0.331705244,0,0,0,0.406851016,0.460422612,0.097826182,0.558248794,0.362596429,nan,nan,nan,[ nan  nan  nan],nan,nan,nan,709.3085779,1013.537864,1013.869569,nan,nan
0,258,17:40:56:745000,6,1,466,327.65625,[ 0.46478901  0.3683856  -1.        ],1,1,1,0.349891535,0,0,0,0.417039976,0.45991585,0.097965591,0.557881442,0.361950259,nan,nan,nan,[ nan  nan  nan],nan,nan,nan,709.3085779,1014.479655,1014.829547,nan,nan
0,259,17:40:57:681000,6,1,29,20.390625,[ 1.          0.07701739 -1.        ],1,1,1,0.384072013,0,1,0,0.355222931,0.459484383,0.098014829,0.557499211,0.361469554,nan,nan,nan,[ nan  nan  nan],nan,nan,nan,709.3085779,1015.421451,1015.805523,nan,nan
0,260,17:41:04:794000,6,1,162,113.90625,[ 1.         -0.21873956  0.17663297],1,1,1,0.530280218,1,0,0,0.421414589,0.459189803,0.097936244,0.557126047,0.361253559,nan,66.80140949,33,[ 1.          0.05659903 -1.        ],nan,-90.70765949,4.117611053,709.3085779,1016.363232,1016.893513,1018.196755,1022.322324
0,261,17:41:05:730000,6,1,360,253.125,[-0.1677095   0.47518832  0.03812586],1,1,1,0.468818307,0,0,0,0.461056846,0.459466419,0.097845669,0.557312089,0.36162075,nan,nan,nan,[ nan  nan  nan],nan,nan,nan,709.3085779,1023.47252,1023.941339,nan,nan
0,262,17:41:06:682000,6,1,124,87.1875,[ 1.         -0.31157719 -0.19822652],1,1,1,0.406992328,0,0,0,0.468696951,0.459502667,0.097657591,0.557160258,0.361845076,nan,nan,nan,[ nan  nan  nan],nan,nan,nan,709.3085779,1024.414315,1024.821308,nan,nan
0,263,17:41:07:618000,6,1,74,52.03125,[ 1.         -0.15971516 -0.81044328],1,1,1,0.281186183,0,0,0,0.385665606,0.459299924,0.097523267,0.556823191,0.361776657,nan,nan,nan,[ nan  nan  nan],nan,nan,nan,709.3085779,1025.356099,1025.637285,nan,nan
0,264,17:41:08:554000,6,1,447,314.296875,[ 0.31246764  0.41164647 -1.        ],1,1,1,0.28335377,0,1,0,0.323844094,0.458614872,0.097957928,0.5565728,0.360656944,nan,nan,nan,[ nan  nan  nan],nan,nan,nan,709.3085779,1026.297921,1026.581275,nan,nan
0,265,17:41:12:719000,6,1,387,272.109375,[-0.07872193  0.47723176 -0.25697445],1,1,1,0.517558937,1,0,0,0.36069963,0.457943373,0.098367815,0.556311188,0.359575558,nan,-144.587833,334,[-0.15279655  0.45446705  0.2855764 ],nan,-37.52154198,1.167108899,709.3085779,1027.23969,1027.757249,1029.07321,1030.248374
0,266,17:41:13:655000,6,1,303,213.046875,[ 0.01913493  0.40252284  0.51201836],1,1,1,0.6705416,0,0,0,0.490484769,0.458170913,0.098248705,0.556419618,0.359922209,nan,nan,nan,[ nan  nan  nan],nan,nan,nan,709.3085779,1031.398587,1032.069128,nan,nan
0,267,17:41:14:607000,6,1,177,124.453125,[ 1.         -0.14519215  0.30692121],1,1,1,0.424726742,0,0,0,0.537609093,0.458978407,0.09892897,0.557907377,0.360049437,nan,nan,nan,[ nan  nan  nan],nan,nan,nan,709.3085779,1032.340404,1032.765131,nan,nan
0,268,17:41:15:543000,6,1,33,23.203125,[ 1.          0.05659903 -1.        ],1,1,1,0.450932792,0,0,0,0.515400378,0.458848665,0.098763841,0.557612507,0.360084824,nan,nan,nan,[ nan  nan  nan],nan,nan,nan,709.3085779,1033.282165,1033.733098,nan,nan
0,269,17:41:16:479000,6,1,112,78.75,[ 1.         -0.30050152 -0.32532486],1,1,1,0.333129014,0,0,0,0.402929516,0.458818794,0.098578513,0.557397307,0.360240281,nan,nan,nan,[ nan  nan  nan],nan,nan,nan,709.3085779,1034.223963,1034.557092,nan,nan
0,270,17:41:17:430000,6,1,501,352.265625,[ 0.75644923  0.25625354 -1.        ],1,1,1,0.279323649,0,1,0,0.354461819,0.458346276,0.098693252,0.557039528,0.359653025,nan,nan,nan,[ nan  nan  nan],nan,nan,nan,709.3085779,1035.165747,1035.445071,nan,nan
0,271,17:41:22:641000,6,1,415,291.796875,[ 0.08130773  0.45915368 -0.61496802],1,1,1,0.369502453,1,0,0,0.327318372,0.457675779,0.099113378,0.556789157,0.358562402,nan,174.7807355,391,[-0.0591908   0.47591628 -0.30371871],nan,-16.57761047,2.217289835,709.3085779,1036.107546,1036.477048,1037.932727,1040.158045
0,272,17:41:23:577000,6,1,238,167.34375,[ 0.67574183  0.17872767  0.63851109],1,1,1,0.056353841,0,0,0,0.235059981,0.457346775,0.099074256,0.55642103,0.358272519,nan,nan,nan,[ nan  nan  nan],nan,nan,nan,709.3085779,1041.316574,1041.372928,nan,nan
0,273,17:41:24:513000,6,1,403,283.359375,[ 0.00657627  0.46945644 -0.45052451],1,1,1,0.514492442,0,0,0,0.313449578,0.455856094,0.10185651,0.557712604,0.353999585,nan,nan,nan,[ nan  nan  nan],nan,nan,nan,709.3085779,1042.258363,1042.772855,nan,nan
0,274,17:41:25:464000,6,1,355,249.609375,[-0.17373746  0.47268386  0.08887998],1,1,1,0.372696672,0,1,0,0.314514318,0.456073266,0.101730087,0.557803353,0.354343179,nan,nan,nan,[ nan  nan  nan],nan,nan,nan,709.3085779,1043.200158,1043.572854,nan,nan
0,275,17:41:30:285000,6,1,6,4.21875,[ 0.89512908  0.18627278 -1.        ],1,1,1,0.366906651,1,0,0,0.418031921,0.455765603,0.101667987,0.55743359,0.354097616,nan,73.19130837,24,[ 1.          0.10201906 -1.        ],nan,12.58994163,1.83386499,709.3085779,1044.141958,1044.508865,1045.967131,1047.809043
0,276,17:41:31:221000,6,1,68,47.8125,[ 1.         -0.12901814 -0.9729032 ],1,1,1,0.573486559,0,0,0,0.437696627,0.455438916,0.101623327,0.557062243,0.353815589,nan,nan,nan,[ nan  nan  nan],nan,nan,nan,709.3085779,1048.959258,1049.532745,nan,nan
0,277,17:41:32:157000,6,1,507,356.484375,[ 0.80599565  0.23268835 -1.        ],1,1,1,0.423664474,0,0,0,0.454685895,0.455871325,0.101687411,0.557558736,0.354183914,nan,nan,nan,[ nan  nan  nan],nan,nan,nan,709.3085779,1049.901055,1050.32472,nan,nan
0,278,17:41:33:108000,6,1,319,224.296875,[-0.08918918  0.43330867  0.4061371 ],1,1,1,0.561839806,0,0,0,0.519663613,0.455753782,0.101520259,0.557274041,0.354233523,nan,nan,nan,[ nan  nan  nan],nan,nan,nan,709.3085779,1050.842844,1051.404684,nan,nan
0,279,17:41:34:044000,6,1,231,162.421875,[ 0.74960968  0.14515127  0.62082146],1,1,1,0.484042163,0,0,0,0.489848814,0.456139549,0.101536501,0.55767605,0.354603048,nan,nan,nan,[ nan  nan  nan],nan,nan,nan,709.3085779,1051.784642,1052.268684,nan,nan
0,280,17:41:34:996000,6,1,295,207.421875,[ 0.08602229  0.38372732  0.55498608],1,1,1,0.454234777,0,0,0,0.500038916,0.456240646,0.101366256,0.557606901,0.35487439,nan,nan,nan,[ nan  nan  nan],nan,nan,nan,709.3085779,1052.726432,1053.180667,nan,nan
0,281,17:41:35:932000,6,1,39,27.421875,[ 1.          0.02537899 -1.        ],1,1,1,0.680409068,0,0,0,0.539562003,0.456233404,0.10118319,0.557416594,0.355050214,nan,nan,nan,[ nan  nan  nan],nan,nan,nan,709.3085779,1053.668223,1054.348632,nan,nan
0,282,17:41:36:868000,6,1,450,316.40625,[ 0.33594973  0.40559833 -1.        ],1,1,1,0.434601622,0,0,0,0.523081822,0.457039791,0.101888825,0.558928616,0.355150967,nan,nan,nan,[ nan  nan  nan],nan,nan,nan,709.3085779,1054.610014,1055.044616,nan,nan
0,283,17:41:37:820000,6,0,195,137.109375,[ 1.         -0.04692453  0.44239605],0,0,1,0.54877812,0,0,0,0.55459627,0.456959368,0.101714904,0.558674272,0.355244464,nan,nan,nan,[ nan  nan  nan],nan,nan,nan,709.3085779,1055.551816,1056.100595,nan,nan
0,284,17:41:38:756000,6,1,318,223.59375,[-0.08356276  0.43164026  0.41348156],1,1,1,0.46296243,0,0,0,0.482114057,0.457287292,0.101680745,0.558968037,0.355606547,nan,nan,nan,[ nan  nan  nan],nan,nan,nan,709.3085779,1056.493599,1056.956561,nan,nan
0,285,17:41:39:692000,6,1,503,353.671875,[ 0.7730202   0.24853846 -1.        ],1,1,1,0.361158825,0,0,0,0.457633125,0.457307488,0.10150022,0.558807708,0.355807268,nan,nan,nan,[ nan  nan  nan],nan,nan,nan,709.3085779,1057.435388,1057.796547,nan,nan
0,286,17:41:40:643000,6,1,197,138.515625,[ 1.         -0.0357976   0.45577474],1,1,1,0.32334337,0,0,0,0.382488208,0.456966536,0.101481169,0.558447704,0.355485367,nan,nan,nan,[ nan  nan  nan],nan,nan,nan,709.3085779,1058.377183,1058.700527,nan,nan
0,287,17:41:41:579000,6,0,286,201.09375,[ 0.16907896  0.35973478  0.59469871],0,0,1,0.453528309,0,0,0,0.379343501,0.456494369,0.101611549,0.558105918,0.35488282,nan,nan,nan,[ nan  nan  nan],nan,nan,nan,709.3085779,1059.318977,1059.772505,nan,nan
0,288,17:41:42:531000,6,1,341,239.765625,[-0.16853588  0.4619615   0.22326011],1,1,1,0.3917029,0,0,0,0.389524859,0.456483925,0.10143265,0.557916575,0.355051275,nan,nan,nan,[ nan  nan  nan],nan,nan,nan,709.3085779,1060.260769,1060.652472,nan,nan
0,289,17:41:43:467000,6,1,259,182.109375,[ 0.44882283  0.26890698  0.65501178],1,1,1,0.377897683,0,0,0,0.407709631,0.456256623,0.101326972,0.557583595,0.354929651,nan,nan,nan,[ nan  nan  nan],nan,nan,nan,709.3085779,1061.202565,1061.580463,nan,nan
0,290,17:41:44:403000,6,0,211,148.359375,[ 0.94867577  0.04136069  0.53868916],0,0,1,0.484077515,0,0,0,0.417892699,0.455982641,0.101255371,0.557238011,0.35472727,nan,nan,nan,[ nan  nan  nan],nan,nan,nan,709.3085779,1062.144358,1062.628436,nan,nan
0,291,17:41:45:354000,6,1,278,195.46875,[ 0.24828552  0.33580281  0.62196257],1,1,1,0.342262644,0,0,0,0.401412614,0.456080532,0.10109237,0.557172902,0.354988163,nan,nan,nan,[ nan  nan  nan],nan,nan,nan,709.3085779,1063.086148,1063.42841,nan,nan
0,292,17:41:46:290000,6,1,143,100.546875,[ 1.         -0.28705753 -0.00469999],1,1,1,0.456483332,0,0,0,0.42760783,0.455685331,0.101138554,0.556823885,0.354546778,nan,nan,nan,[ nan  nan  nan],nan,nan,nan,709.3085779,1064.027942,1064.484425,nan,nan
0,293,17:41:47:226000,6,1,231,162.421875,[ 0.74960968  0.14515127  0.62082146],1,1,1,0.370642838,0,0,0,0.389796271,0.455688093,0.100963433,0.556651525,0.35472466,nan,nan,nan,[ nan  nan  nan],nan,nan,nan,709.3085779,1064.969732,1065.340375,nan,nan
0,294,17:41:48:178000,6,1,331,232.734375,[-0.14329784  0.45080175  0.31116671],1,1,1,0.324832427,0,0,0,0.383986199,0.455394833,0.100912431,0.556307264,0.354482403,nan,nan,nan,[ nan  nan  nan],nan,nan,nan,709.3085779,1065.91153,1066.236362,nan,nan
0,295,17:41:49:114000,6,1,126,88.59375,[ 1.         -0.31141175 -0.17740843],1,1,1,0.463020589,0,0,0,0.386165285,0.454946165,0.101028225,0.55597439,0.35391794,nan,nan,nan,[ nan  nan  nan],nan,nan,nan,709.3085779,1066.853318,1067.316339,nan,nan
0,296,17:41:50:066000,6,1,33,23.203125,[ 1.          0.05659903 -1.        ],1,1,1,0.465188461,0,0,0,0.417680493,0.454973817,0.100856187,0.555830004,0.354117631,nan,nan,nan,[ nan  nan  nan],nan,nan,nan,709.3085779,1067.795114,1068.260302,nan,nan
0,297,17:41:51:002000,6,1,300,210.9375,[ 0.04335371  0.39574842  0.52895103],1,1,1,0.347380407,0,0,0,0.425196486,0.455008679,0.100685692,0.555694372,0.354322987,nan,nan,nan,[ nan  nan  nan],nan,nan,nan,709.3085779,1068.736909,1069.084289,nan,nan
0,298,17:41:51:938000,6,1,106,74.53125,[ 1.         -0.28763007 -0.39056445],1,1,1,0.413558951,0,0,0,0.408709273,0.454642597,0.100709452,0.555352049,0.353933145,nan,nan,nan,[ nan  nan  nan],nan,nan,nan,709.3085779,1069.6787,1070.092259,nan,nan
0,299,17:41:52:889000,6,1,193,135.703125,[ 1.         -0.05804539  0.42865879],1,1,1,0.367745975,0,0,0,0.376228444,0.45450333,0.100566968,0.555070298,0.353936363,nan,nan,nan,[ nan  nan  nan],nan,nan,nan,709.3085779,1070.62049,1070.988236,nan,nan
0,300,17:41:53:825000,6,1,413,290.390625,[ 0.06831062  0.46114313 -0.5854956 ],1,1,1,0.35393363,0,0,0,0.378412852,0.454210231,0.10052308,0.554733311,0.353687151,nan,nan,nan,[ nan  nan  nan],nan,nan,nan,709.3085779,1071.562287,1071.91622,nan,nan
0,301,17:41:54:761000,6,1,170,119.53125,[ 1.         -0.18099048  0.24781506],1,1,1,0.484092625,0,0,0,0.401924077,0.453872599,0.100521684,0.554394284,0.353350915,nan,nan,nan,[ nan  nan  nan],nan,nan,nan,709.3085779,1072.504104,1072.988197,nan,nan
0,302,17:41:55:713000,6,1,461,324.140625,[ 0.42395965  0.38092737 -1.        ],1,1,1,0.382299855,0,0,0,0.40677537,0.453974009,0.100368099,0.554342108,0.35360591,nan,nan,nan,[ nan  nan  nan],nan,nan,nan,709.3085779,1073.445869,1073.828169,nan,nan
0,303,17:41:56:649000,6,1,93,65.390625,[ 1.         -0.2456143  -0.53861988],1,1,1,0.416484894,0,0,0,0.427625791,0.453734296,0.10028553,0.554019826,0.353448766,nan,nan,nan,[ nan  nan  nan],nan,nan,nan,709.3085779,1074.387659,1074.804144,nan,nan
0,304,17:41:57:585000,6,0,43,30.234375,[ 1.          0.00424534 -1.        ],0,0,1,0.498678151,0,0,0,0.432487633,0.453610131,0.100141266,0.553751397,0.353468865,nan,nan,nan,[ nan  nan  nan],nan,nan,nan,709.3085779,1075.329448,1075.828126,nan,nan
0,305,17:41:58:536000,6,1,152,106.875,[ 1.         -0.25918449  0.08306255],1,1,1,0.468875612,0,0,0,0.461346219,0.453759859,0.10000841,0.553768269,0.353751449,nan,nan,nan,[ nan  nan  nan],nan,nan,nan,709.3085779,1076.271245,1076.740121,nan,nan
0,306,17:41:59:472000,6,1,211,148.359375,[ 0.94867577  0.04136069  0.53868916],1,1,1,0.367058608,0,0,0,0.44487079,0.453809911,0.099846472,0.553656384,0.353963439,nan,nan,nan,[ nan  nan  nan],nan,nan,nan,709.3085779,1077.213039,1077.580097,nan,nan
0,307,17:42:00:424000,6,1,10,7.03125,[ 0.9268115   0.16840058 -1.        ],1,1,1,0.36927067,0,0,0,0.401734963,0.453523603,0.099805669,0.553329273,0.353717934,nan,nan,nan,[ nan  nan  nan],nan,nan,nan,709.3085779,1078.15483,1078.524101,nan,nan
0,308,17:42:01:360000,6,1,353,248.203125,[-0.17504126  0.47149007  0.10879922],1,1,1,0.363480934,0,0,0,0.366603404,0.453246455,0.099758099,0.553004555,0.353488356,nan,nan,nan,[ nan  nan  nan],nan,nan,nan,709.3085779,1079.096617,1079.460098,nan,nan
0,309,17:42:02:296000,6,1,4,2.8125,[ 0.87912605  0.19501404 -1.        ],1,1,1,0.389602596,0,0,0,0.374118067,0.452952142,0.099726538,0.552678681,0.353225604,nan,nan,nan,[ nan  nan  nan],nan,nan,nan,709.3085779,1080.038414,1080.428017,nan,nan
0,310,17:42:03:294000,6,1,119,83.671875,[ 1.         -0.30944633 -0.2507109 ],1,1,1,0.399829854,0,0,0,0.384304462,0.452745118,0.099629078,0.552374196,0.353116039,nan,nan,nan,[ nan  nan  nan],nan,nan,nan,709.3085779,1080.980187,1081.380017,nan,nan
0,311,17:42:04:246000,6,1,236,165.9375,[ 0.69700456  0.16930175  0.63406585],1,1,1,0.446999889,0,0,0,0.412144113,0.452572755,0.099512371,0.552085127,0.353060384,nan,nan,nan,[ nan  nan  nan],nan,nan,nan,709.3085779,1081.988978,1082.435978,nan,nan
0,312,17:42:05:198000,6,1,36,25.3125,[ 1.          0.04106996 -1.        ],1,1,1,0.489496911,0,0,0,0.445442218,0.452554661,0.0993512,0.551905861,0.353203462,nan,nan,nan,[ nan  nan  nan],nan,nan,nan,709.3085779,1082.930466,1083.419963,nan,nan
0,313,17:42:06:134000,6,1,173,121.640625,[ 1.         -0.16590952  0.27353519],1,1,1,0.371668899,0,0,0,0.436055233,0.452674216,0.099212496,0.551886711,0.35346172,nan,nan,nan,[ nan  nan  nan],nan,nan,nan,709.3085779,1083.872269,1084.243938,nan,nan
0,314,17:42:07:070000,6,1,27,18.984375,[ 1.          0.08709126 -1.        ],1,1,1,0.477849302,0,0,0,0.446338371,0.452412908,0.099158793,0.551571702,0.353254115,nan,nan,nan,[ nan  nan  nan],nan,nan,nan,709.3085779,1084.814052,1085.291901,nan,nan
0,315,17:42:08:021000,6,1,324,227.8125,[-0.11479964  0.44115833  0.36806404],1,1,1,0.640047702,0,0,0,0.496521968,0.452494697,0.099009719,0.551504416,0.353484979,nan,nan,nan,[ nan  nan  nan],nan,nan,nan,709.3085779,1085.755845,1086.395892,nan,nan
0,316,17:42:08:957000,6,0,462,324.84375,[ 0.43208968  0.37848636 -1.        ],0,0,1,0.642229829,0,0,0,0.586708945,0.453095829,0.099417742,0.552513571,0.353678087,nan,nan,nan,[ nan  nan  nan],nan,nan,nan,709.3085779,1086.697633,1087.339863,nan,nan
0,317,17:42:09:909000,6,1,249,175.078125,[ 0.55727555  0.22802627  0.65408488],1,1,1,0.460409963,0,0,0,0.580895831,0.453700091,0.099831012,0.553531102,0.353869079,nan,nan,nan,[ nan  nan  nan],nan,nan,nan,709.3085779,1087.639427,1088.099837,nan,nan
0,318,17:42:10:845000,6,1,9,6.328125,[ 0.91893356  0.17291669 -1.        ],1,1,1,0.382613175,0,0,0,0.495084322,0.45372146,0.099672635,0.553394095,0.354048825,nan,nan,nan,[ nan  nan  nan],nan,nan,nan,709.3085779,1088.581218,1088.963831,nan,nan
0,319,17:42:11:781000,6,1,300,210.9375,[ 0.04335371  0.39574842  0.52895103],1,1,1,0.272787817,0,0,0,0.371936985,0.453495719,0.099594662,0.553090381,0.353901057,nan,nan,nan,[ nan  nan  nan],nan,nan,nan,709.3085779,1089.523013,1089.795801,nan,nan
0,320,17:42:12:732000,6,0,257,180.703125,[ 0.4704729   0.26103985  0.65584138],0,0,1,0.514985658,0,0,0,0.390128883,0.452923859,0.099953589,0.552877447,0.35297027,nan,nan,nan,[ nan  nan  nan],nan,nan,nan,709.3085779,1090.464801,1090.979787,nan,nan
0,321,17:42:13:668000,6,1,56,39.375,[ 1.         -0.06536751 -1.        ],1,1,1,0.357163486,0,0,0,0.381645654,0.453119637,0.099856474,0.552976111,0.353263163,nan,nan,nan,[ nan  nan  nan],nan,nan,nan,709.3085779,1091.406593,1091.763756,nan,nan
0,322,17:42:14:620000,6,1,266,187.03125,[ 0.37357759  0.29520749  0.64811377],1,1,1,0.391351091,0,0,0,0.421166745,0.452817888,0.099843992,0.55266188,0.352973896,nan,nan,nan,[ nan  nan  nan],nan,nan,nan,709.3085779,1092.348391,1092.739742,nan,nan
0,323,17:42:15:556000,6,1,209,146.953125,[ 0.96730184  0.03048352  0.52805   ],1,1,1,0.345536119,0,0,0,0.364683565,0.452625202,0.099746575,0.552371777,0.352878628,nan,nan,nan,[ nan  nan  nan],nan,nan,nan,709.3085779,1093.290184,1093.63572,nan,nan
0,324,17:42:16:492000,6,1,317,222.890625,[-0.07777284  0.42993861  0.42073361],1,1,1,0.33972044,0,0,0,0.358869217,0.452290549,0.0997698,0.552060349,0.352520749,nan,nan,nan,[ nan  nan  nan],nan,nan,nan,709.3085779,1094.231973,1094.571694,nan,nan
0,325,17:42:17:444000,6,1,195,137.109375,[ 1.         -0.04692453  0.44239605],1,1,1,0.357913004,0,1,0,0.347723188,0.451939863,0.09981161,0.551751473,0.352128254,nan,nan,nan,[ nan  nan  nan],nan,nan,nan,709.3085779,1095.173768,1095.531681,nan,nan
0,326,17:42:21:593000,6,1,511,359.296875,[ 0.83870319  0.21628417 -1.        ],1,1,1,0.368124582,1,0,0,0.355252676,0.451647854,0.099793736,0.551441591,0.351854118,nan,105.2053828,490,[ 0.66466039  0.29615785 -1.        ],nan,-14.5022578,1.167117451,709.3085779,1096.115526,1096.483651,1097.94074,1099.115901
0,327,17:42:22:529000,6,1,21,14.765625,[ 1.        0.116714 -1.      ],1,1,1,0.729417118,0,0,0,0.485151568,0.451389268,0.099747124,0.551136393,0.351642144,nan,nan,nan,[ nan  nan  nan],nan,nan,nan,709.3085779,1100.266117,1100.995534,nan,nan
0,328,17:42:23:465000,6,1,271,190.546875,[ 0.32064286  0.31281163  0.63940014],1,1,1,0.483606536,0,0,0,0.527049412,0.452247379,0.100780071,0.55302745,0.351467308,nan,nan,nan,[ nan  nan  nan],nan,nan,nan,709.3085779,1101.207906,1101.691513,nan,nan
0,329,17:42:24:417000,6,1,443,311.484375,[ 0.28155878  0.41926821 -1.        ],1,1,1,0.493808707,0,0,1,0.56894412,0.452343869,0.100639893,0.552983762,0.351703975,nan,nan,nan,[ nan  nan  nan],nan,nan,nan,709.3085779,1102.149697,1102.643506,nan,nan
0,330,17:42:30:485000,6,1,176,123.75,[ 1.         -0.15042967  0.29867547],1,1,1,0.432006676,1,0,0,0.469807306,0.452471062,0.100511578,0.55298264,0.351959484,nan,-38.61717747,183,[ 1.         -0.113109    0.35490284],nan,4.867177474,3.084041251,709.3085779,1103.091489,1103.523496,1104.916673,1108.008763
0,331,17:42:31:421000,6,1,275,193.359375,[ 0.27900239  0.32618525  0.63017847],1,1,1,0.564375167,0,0,0,0.496730183,0.452408479,0.100364134,0.552772613,0.352044345,nan,nan,nan,[ nan  nan  nan],nan,nan,nan,709.3085779,1109.158965,1109.72334,nan,nan
0,332,17:42:32:357000,6,1,197,138.515625,[ 1.         -0.0357976   0.45577474],1,1,1,0.326578357,0,0,0,0.440986733,0.452749841,0.100400965,0.553150806,0.352348876,nan,nan,nan,[ nan  nan  nan],nan,nan,nan,709.3085779,1110.10076,1110.427338,nan,nan
0,333,17:42:33:309000,6,1,310,217.96875,[-0.03285454  0.41708073  0.46882802],1,1,1,0.304767066,0,0,0,0.39857353,0.452366341,0.100488577,0.552854918,0.351877764,nan,nan,nan,[ nan  nan  nan],nan,nan,nan,709.3085779,1111.042552,1111.347319,nan,nan
0,334,17:42:34:245000,6,0,83,58.359375,[ 1.         -0.20309788 -0.66587671],0,1,0,0.258940405,0,0,0,0.296761943,0.451919071,0.100663653,0.552582723,0.351255418,nan,nan,nan,[ nan  nan  nan],nan,nan,nan,709.3085779,1111.984341,1112.243281,nan,nan
0,335,17:42:35:196000,6,1,300,210.9375,[ 0.04335371  0.39574842  0.52895103],1,1,1,0.317086362,0,0,0,0.293597944,0.451336054,0.101067933,0.552403987,0.35026812,nan,nan,nan,[ nan  nan  nan],nan,nan,nan,709.3085779,1112.926171,1113.243258,nan,nan
0,336,17:42:36:132000,6,1,375,263.671875,[-0.1285567   0.47868243 -0.12160516],1,1,1,0.319309828,0,0,0,0.298445532,0.450931687,0.10118341,0.552115097,0.349748277,nan,nan,nan,[ nan  nan  nan],nan,nan,nan,709.3085779,1113.867931,1114.18724,nan,nan
0,337,17:42:37:068000,6,1,185,130.078125,[ 1.         -0.10221447  0.37029995],1,1,1,0.297486563,0,1,0,0.311294251,0.450536426,0.10128774,0.551824166,0.349248687,nan,nan,nan,[ nan  nan  nan],nan,nan,nan,709.3085779,1114.809724,1115.10721,nan,nan
0,338,17:42:41:764000,6,1,87,61.171875,[ 1.         -0.22095901 -0.61267562],1,1,1,0.419686525,1,0,0,0.345494305,0.450078193,0.101481094,0.551559288,0.348597099,nan,24.1022345,94,[ 1.         -0.24943901 -0.52674516],nan,4.725890499,1.692357453,709.3085779,1115.751513,1116.171199,1117.585058,1119.285261
0,339,17:42:42:700000,6,1,397,279.140625,[-0.02756135  0.47315999 -0.37569455],1,1,1,0.527618559,0,0,0,0.414930549,0.449987472,0.10134308,0.551330552,0.348644391,nan,nan,nan,[ nan  nan  nan],nan,nan,nan,709.3085779,1120.435476,1120.963095,nan,nan
0,340,17:42:43:636000,6,1,31,21.796875,[ 1.          0.06685157 -1.        ],1,1,1,0.281809974,0,0,0,0.409705019,0.450218517,0.101280482,0.551498999,0.348938034,nan,nan,nan,[ nan  nan  nan],nan,nan,nan,709.3085779,1121.377265,1121.659075,nan,nan
0,341,17:42:44:588000,6,1,115,80.859375,[ 1.         -0.30516629 -0.29317275],1,1,1,0.291960542,0,0,0,0.367129692,0.449718788,0.101544111,0.551262899,0.348174677,nan,nan,nan,[ nan  nan  nan],nan,nan,nan,709.3085779,1122.31909,1122.611051,nan,nan
0,342,17:42:45:524000,6,1,350,246.09375,[-0.17575682  0.46949094  0.13824748],1,1,1,0.318181131,0,1,0,0.297317215,0.449252048,0.101755169,0.551007216,0.347496879,nan,nan,nan,[ nan  nan  nan],nan,nan,nan,709.3085779,1123.260845,1123.579027,nan,nan
0,343,17:42:50:001000,6,1,221,155.390625,[ 0.85178146  0.09454116  0.58542294],1,1,1,0.272376138,1,0,0,0.294172604,0.448865408,0.101853321,0.550718729,0.347012087,nan,-37.16831047,181,[ 1.         -0.12391439  0.33920113],nan,-28.22231453,1.483947797,709.3085779,1124.202641,1124.475017,1126.03616,1127.528038
0,344,17:42:50:937000,6,1,35,24.609375,[ 1.          0.04626536 -1.        ],1,1,1,0.596654623,0,0,0,0.395737297,0.448346322,0.102151508,0.55049783,0.346194814,nan,nan,nan,[ nan  nan  nan],nan,nan,nan,709.3085779,1128.678242,1129.274897,nan,nan
0,345,17:42:51:888000,6,1,426,299.53125,[ 0.15619305  0.44621085 -0.8148597 ],1,1,1,0.326819549,0,0,0,0.39861677,0.448781243,0.102316387,0.55109763,0.346464857,nan,nan,nan,[ nan  nan  nan],nan,nan,nan,709.3085779,1129.62003,1129.94685,nan,nan
0,346,17:42:52:824000,6,1,173,121.640625,[ 1.         -0.16590952  0.27353519],1,1,1,0.369014938,0,0,0,0.430829703,0.44842463,0.102378703,0.550803333,0.346045927,nan,nan,nan,[ nan  nan  nan],nan,nan,nan,709.3085779,1130.56182,1130.930835,nan,nan
0,347,17:42:53:760000,6,1,221,155.390625,[ 0.85178146  0.09454116  0.58542294],1,1,1,0.203191824,0,1,0,0.299675437,0.448193115,0.102318971,0.550512086,0.345874144,nan,nan,nan,[ nan  nan  nan],nan,nan,nan,709.3085779,1131.503618,1131.70681,nan,nan
0,348,17:42:58:924000,6,1,488,343.125,[ 0.64790771  0.30295149 -1.        ],1,1,1,0.293409116,1,0,0,0.288538626,0.447480902,0.103018076,0.550498978,0.344462826,nan,106.9390856,488,[ 0.64790771  0.30295149 -1.        ],nan,-0.064085631,2.158855646,709.3085779,1132.445411,1132.73882,1134.27899,1136.445888
0,349,17:42:59:860000,6,1,436,306.5625,[ 0.22868171  0.43141373 -1.        ],1,1,1,0.558596266,0,0,0,0.351732402,0.447034317,0.103201595,0.550235912,0.343832722,nan,nan,nan,[ nan  nan  nan],nan,nan,nan,709.3085779,1137.596084,1138.15468,nan,nan
0,350,17:43:00:796000,6,0,80,56.25,[ 1.         -0.18907571 -0.70896555],0,0,1,0.664775813,0,0,0,0.505593732,0.447356751,0.10322623,0.55058298,0.344130521,nan,nan,nan,[ nan  nan  nan],nan,nan,nan,709.3085779,1138.537891,1139.202667,nan,nan
0,351,17:43:01:748000,6,1,221,155.390625,[ 0.85178146  0.09454116  0.58542294],1,1,1,0.474965838,0,0,0,0.566112639,0.447983318,0.103734188,0.551717507,0.34424913,nan,nan,nan,[ nan  nan  nan],nan,nan,nan,709.3085779,1139.479683,1139.954649,nan,nan
0,352,17:43:02:684000,6,1,167,117.421875,[ 1.         -0.19560581  0.22154672],1,1,1,0.485148622,0,0,0,0.541630091,0.448060854,0.103595107,0.551655961,0.344465748,nan,nan,nan,[ nan  nan  nan],nan,nan,nan,709.3085779,1140.421481,1140.90663,nan,nan
0,353,17:43:03:635000,6,0,243,170.859375,[ 0.62215101  0.20168048  0.64746348],0,nan,nan,nan,0,0,0,0.48005723,0.448167123,0.103465577,0.5516327,0.344701546,nan,nan,nan,[ nan  nan  nan],nan,nan,nan,709.3085779,1141.363266,nan,nan,nan
0,354,17:43:04:571000,6,1,168,118.125,[ 1.         -0.19079002  0.2303618 ],1,1,1,0.537500282,0,0,0,0.511324452,0.448167123,0.103465577,0.5516327,0.344701546,nan,nan,nan,[ nan  nan  nan],nan,nan,nan,709.3085779,1142.305054,1142.842554,nan,nan
0,355,17:43:05:507000,6,1,47,33.046875,[ 1.         -0.01707559 -1.        ],1,1,1,0.555703679,0,0,0,0.54660198,0.448422361,0.103427634,0.551849995,0.344994726,nan,nan,nan,[ nan  nan  nan],nan,nan,nan,709.3085779,1143.246855,1143.802558,nan,nan
0,356,17:43:06:459000,6,1,190,133.59375,[ 1.         -0.07468844  0.40739964],1,1,1,0.389899951,0,0,0,0.494367971,0.448728005,0.103438366,0.552166371,0.34528964,nan,nan,nan,[ nan  nan  nan],nan,nan,nan,709.3085779,1144.188645,1144.578545,nan,nan
0,357,17:43:07:395000,6,1,424,298.125,[ 0.14217456  0.44881957 -0.77022942],1,1,1,0.448087246,0,0,0,0.464563625,0.44856088,0.103338777,0.551899658,0.345222103,nan,nan,nan,[ nan  nan  nan],nan,nan,nan,709.3085779,1145.130436,1145.578523,nan,nan
0,358,17:43:08:331000,6,1,165,116.015625,[ 1.         -0.20505638  0.20374544],1,1,1,0.450280492,0,0,0,0.429422563,0.448559539,0.103192305,0.551751843,0.345367234,nan,nan,nan,[ nan  nan  nan],nan,nan,nan,709.3085779,1146.072226,1146.522507,nan,nan
0,359,17:43:09:282000,6,1,41,28.828125,[ 1.         0.0148395 -1.       ],1,1,1,0.532445525,0,0,0,0.476937754,0.4485644,0.10304649,0.55161089,0.34551791,nan,nan,nan,[ nan  nan  nan],nan,nan,nan,709.3085779,1147.014019,1147.546464,nan,nan
0,360,17:43:10:218000,6,1,321,225.703125,[-0.09994335  0.43654647  0.39117498],1,1,1,0.454660426,0,0,0,0.479128814,0.448800685,0.102997241,0.551797926,0.345803444,nan,nan,nan,[ nan  nan  nan],nan,nan,nan,709.3085779,1147.955812,1148.410472,nan,nan
0,361,17:43:11:170000,6,1,19,13.359375,[ 0.99625917  0.12637453 -1.        ],1,1,1,0.560839118,0,0,0,0.51598169,0.448817145,0.102852948,0.551670093,0.345964197,nan,nan,nan,[ nan  nan  nan],nan,nan,nan,709.3085779,1148.897597,1149.458436,nan,nan
0,362,17:43:12:106000,6,0,435,305.859375,[ 0.22126383  0.43302706 -1.        ],0,0,1,0.642997308,0,0,0,0.552832284,0.449130932,0.102879294,0.552010226,0.346251638,nan,nan,nan,[ nan  nan  nan],nan,nan,nan,709.3085779,1149.8394,1150.482397,nan,nan
0,363,17:43:13:042000,6,1,65,45.703125,[ 1.         -0.11331216 -1.        ],1,1,1,0.42121065,0,0,0,0.541682359,0.449672458,0.103243765,0.552916223,0.346428693,nan,nan,nan,[ nan  nan  nan],nan,nan,nan,709.3085779,1150.781186,1151.202397,nan,nan
0,364,17:43:13:994000,6,1,348,244.6875,[-0.17538477  0.46801784  0.15758216],1,1,1,0.447383058,0,0,0,0.503863672,0.449593177,0.103110783,0.55270396,0.346482394,nan,nan,nan,[ nan  nan  nan],nan,nan,nan,709.3085779,1151.722987,1152.17037,nan,nan
0,365,17:43:14:930000,6,1,172,120.9375,[ 1.         -0.17098406  0.26502468],1,1,1,0.40156324,0,0,0,0.423385649,0.449587038,0.10296754,0.552554578,0.346619498,nan,nan,nan,[ nan  nan  nan],nan,nan,nan,709.3085779,1152.664774,1153.066337,nan,nan
0,366,17:43:15:866000,6,1,379,266.484375,[-0.11353594  0.47861499 -0.16597052],1,1,1,0.443750932,0,0,0,0.430899077,0.449454008,0.102855801,0.552309809,0.346598207,nan,nan,nan,[ nan  nan  nan],nan,nan,nan,709.3085779,1153.606566,1154.050317,nan,nan
0,367,17:43:16:817000,6,1,345,242.578125,[-0.17351954  0.46559515  0.18611928],1,1,1,0.781928431,0,0,0,0.542414201,0.449438254,0.102714073,0.552152327,0.346724181,nan,nan,nan,[ nan  nan  nan],nan,nan,nan,709.3085779,1154.548365,1155.330293,nan,nan
0,368,17:43:17:753000,6,1,430,302.34375,[ 0.18472502  0.44064573 -0.94190417],1,1,1,0.728108811,0,0,1,0.651262725,0.450354205,0.104042408,0.554396613,0.346311797,nan,nan,nan,[ nan  nan  nan],nan,nan,nan,709.3085779,1155.49015,1156.218258,nan,nan
0,369,17:43:22:168000,6,1,311,218.671875,[-0.03972498  0.41902022  0.46225021],1,1,1,0.50629849,1,0,0,0.672111911,0.451117267,0.10491161,0.556028877,0.346205657,nan,-133.0113621,317,[-0.07777284  0.42993861  0.42073361],nan,4.339487144,1.417175682,709.3085779,1156.431947,1156.938246,1158.265464,1159.690693
0,370,17:43:23:104000,6,0,490,344.53125,[ 0.66466039  0.29615785 -1.        ],0,0,1,0.65728947,0,0,0,0.63056559,0.451268448,0.104807494,0.556075942,0.346460954,nan,nan,nan,[ nan  nan  nan],nan,nan,nan,709.3085779,1160.840856,1161.498146,nan,nan
0,371,17:43:24:040000,6,1,124,87.1875,[ 1.         -0.31157719 -0.19822652],1,1,1,0.571479196,0,0,0,0.578355719,0.451831347,0.105215257,0.557046604,0.34661609,nan,nan,nan,[ nan  nan  nan],nan,nan,nan,709.3085779,1161.782654,1162.354133,nan,nan
0,372,17:43:24:992000,6,1,177,124.453125,[ 1.         -0.14519215  0.30692121],1,1,1,0.389648211,0,0,0,0.539472292,0.452157363,0.105256767,0.55741413,0.346900596,nan,nan,nan,[ nan  nan  nan],nan,nan,nan,709.3085779,1162.724444,1163.114092,nan,nan
0,373,17:43:25:928000,6,1,105,73.828125,[ 1.         -0.28504984 -0.40158079],1,1,1,0.351854993,0,0,0,0.4376608,0.451987501,0.105164015,0.557151517,0.346823486,nan,nan,nan,[ nan  nan  nan],nan,nan,nan,709.3085779,1163.66624,1164.018095,nan,nan
0,374,17:43:26:879000,6,1,31,21.796875,[ 1.          0.06685157 -1.        ],1,1,1,0.282034344,0,1,0,0.341179183,0.451716139,0.105150355,0.556866494,0.346565785,nan,nan,nan,[ nan  nan  nan],nan,nan,nan,709.3085779,1164.608035,1164.89007,nan,nan
0,375,17:43:30:998000,6,1,363,255.234375,[-0.16228773  0.47636573  0.00704813],1,1,1,0.228228979,1,0,0,0.287372772,0.45125754,0.105377038,0.556634578,0.345880502,nan,-115.7960265,293,[ 0.10383026  0.3786596   0.56461706],nan,-49.43834851,1.133773731,709.3085779,1165.549828,1165.778057,1167.375009,1168.516825
0,376,17:43:31:934000,6,1,417,293.203125,[ 0.0945046   0.45705356 -0.6457202 ],1,1,1,0.574892084,0,0,0,0.361718469,0.450656385,0.105868327,0.556524712,0.344788058,nan,nan,nan,[ nan  nan  nan],nan,nan,nan,709.3085779,1169.667052,1170.241944,nan,nan
0,377,17:43:32:870000,6,1,507,356.484375,[ 0.80599565  0.23268835 -1.        ],1,1,1,0.353094307,0,0,0,0.385405123,0.450990352,0.105921445,0.556911797,0.345068907,nan,nan,nan,[ nan  nan  nan],nan,nan,nan,709.3085779,1170.608837,1170.961931,nan,nan
0,378,17:43:33:821000,6,1,302,212.34375,[ 0.02708608  0.40030084  0.51777002],1,1,1,0.331286152,0,0,0,0.419757514,0.450727896,0.105900417,0.556628313,0.344827479,nan,nan,nan,[ nan  nan  nan],nan,nan,nan,709.3085779,1171.550627,1171.881913,nan,nan
0,379,17:43:34:757000,6,1,489,343.828125,[ 0.65628486  0.29957244 -1.        ],1,1,1,0.325475035,0,1,0,0.336618498,0.450408533,0.10593845,0.556346983,0.344470083,nan,nan,nan,[ nan  nan  nan],nan,nan,nan,709.3085779,1172.492421,1172.817896,nan,nan
0,380,17:43:39:437000,6,1,97,68.203125,[ 1.         -0.26036974 -0.49171883],1,1,1,0.383652351,1,0,0,0.346804513,0.450075377,0.105993107,0.556068484,0.34408227,nan,16.69924423,104,[ 1.         -0.28235148 -0.41264457],nan,5.097630766,1.700504649,709.3085779,1173.434212,1173.817865,1175.251076,1176.95962
0,381,17:43:40:373000,6,1,340,239.0625,[-0.16683717  0.46098011  0.2323764 ],1,1,1,0.451914949,0,0,0,0.387014112,0.44989872,0.10590733,0.55580605,0.34399139,nan,nan,nan,[ nan  nan  nan],nan,nan,nan,709.3085779,1178.109838,1178.561753,nan,nan
0,382,17:43:41:325000,6,1,229,161.015625,[ 0.77039703  0.13526594  0.61468147],1,1,1,0.438102034,0,0,0,0.424556445,0.449904068,0.105766827,0.555670895,0.344137242,nan,nan,nan,[ nan  nan  nan],nan,nan,nan,709.3085779,1179.051631,1179.489733,nan,nan
0,383,17:43:42:261000,6,1,113,79.453125,[ 1.         -0.30219199 -0.31457635],1,1,1,0.392284211,0,0,0,0.427433732,0.449872846,0.10562857,0.555501416,0.344244275,nan,nan,nan,[ nan  nan  nan],nan,nan,nan,709.3085779,1179.99342,1180.385704,nan,nan
0,384,17:43:43:197000,6,1,184,129.375,[ 1.         -0.10767189  0.36264005],1,1,1,0.458473019,0,0,0,0.429619755,0.449720897,0.105530485,0.555251382,0.344190412,nan,nan,nan,[ nan  nan  nan],nan,nan,nan,709.3085779,1180.935212,1181.393685,nan,nan
0,385,17:43:44:149000,6,1,355,249.609375,[-0.17373746  0.47268386  0.08887998],1,1,1,0.348672178,0,0,0,0.399809803,0.449743929,0.105392492,0.55513642,0.344351437,nan,nan,nan,[ nan  nan  nan],nan,nan,nan,709.3085779,1181.877004,1182.225677,nan,nan
0,386,17:43:45:085000,6,1,255,179.296875,[ 0.49215936  0.25301719  0.65616311],1,1,1,0.398854825,0,0,0,0.402000007,0.449478649,0.105381049,0.554859698,0.3440976,nan,nan,nan,[ nan  nan  nan],nan,nan,nan,709.3085779,1182.818797,1183.217652,nan,nan
0,387,17:43:46:021000,6,1,40,28.125,[ 1.          0.02011655 -1.        ],1,1,1,0.409035328,0,0,0,0.385520777,0.449346125,0.10527481,0.554620936,0.344071315,nan,nan,nan,[ nan  nan  nan],nan,nan,nan,709.3085779,1183.760585,1184.16962,nan,nan
0,388,17:43:46:972000,6,1,128,90,[ 1.         -0.31066301 -0.15668979],1,1,1,0.451212757,0,0,0,0.41970097,0.449240875,0.105157408,0.554398284,0.344083467,nan,nan,nan,[ nan  nan  nan],nan,nan,nan,709.3085779,1184.702382,1185.153594,nan,nan
0,389,17:43:47:908000,6,1,511,359.296875,[ 0.83870319  0.21628417 -1.        ],1,1,1,0.413406995,0,0,0,0.424551693,0.44924601,0.105020443,0.554266454,0.344225567,nan,nan,nan,[ nan  nan  nan],nan,nan,nan,709.3085779,1185.644176,1186.057583,nan,nan
0,390,17:43:48:844000,6,1,371,260.859375,[-0.14179361  0.47833194 -0.07797326],1,1,1,0.303590759,0,0,0,0.389403504,0.449152922,0.104899826,0.554052748,0.344253096,nan,nan,nan,[ nan  nan  nan],nan,nan,nan,709.3085779,1186.585965,1186.889556,nan,nan
0,391,17:43:49:796000,6,0,154,108.28125,[ 1.         -0.25181315  0.10213817],0,0,1,0.497767839,0,0,0,0.404921864,0.448775818,0.105024834,0.553800652,0.343750984,nan,nan,nan,[ nan  nan  nan],nan,nan,nan,709.3085779,1187.527765,1188.025533,nan,nan
0,392,17:43:50:732000,6,1,371,260.859375,[-0.14179361  0.47833194 -0.07797326],1,1,1,0.347902989,0,0,0,0.383087195,0.448902412,0.104918539,0.553820952,0.343983873,nan,nan,nan,[ nan  nan  nan],nan,nan,nan,709.3085779,1188.469603,1188.817506,nan,nan
0,393,17:43:51:683000,6,1,486,341.71875,[ 0.63115176  0.30960306 -1.        ],1,1,1,0.438165041,0,0,0,0.427945289,0.448642105,0.104908304,0.553550409,0.343733801,nan,nan,nan,[ nan  nan  nan],nan,nan,nan,709.3085779,1189.411328,1189.849493,nan,nan
0,394,17:43:52:619000,6,1,325,228.515625,[-0.1194049   0.44263104  0.36018642],1,1,1,0.392336099,0,0,0,0.392801376,0.448615171,0.104774717,0.553389888,0.343840455,nan,nan,nan,[ nan  nan  nan],nan,nan,nan,709.3085779,1190.353135,1190.745471,nan,nan
0,395,17:43:53:555000,6,1,153,107.578125,[ 1.         -0.25554786  0.09262139],1,1,1,0.466511878,0,0,0,0.432337673,0.448470866,0.104679003,0.553149869,0.343791863,nan,nan,nan,[ nan  nan  nan],nan,nan,nan,709.3085779,1191.294935,1191.761447,nan,nan
0,396,17:43:54:507000,6,0,49,34.453125,[ 1.         -0.02778543 -1.        ],0,0,1,0.484696174,0,0,0,0.447848051,0.448517007,0.104549028,0.553066035,0.343967979,nan,nan,nan,[ nan  nan  nan],nan,nan,nan,709.3085779,1192.236721,1192.721417,nan,nan
0,397,17:43:55:443000,6,1,461,324.140625,[ 0.42395965  0.38092737 -1.        ],1,1,1,0.454876814,0,0,0,0.468694956,0.4486093,0.104431537,0.553040838,0.344177763,nan,nan,nan,[ nan  nan  nan],nan,nan,nan,709.3085779,1193.178518,1193.633395,nan,nan
0,398,17:43:56:379000,6,1,355,249.609375,[-0.17373746  0.47268386  0.08887998],1,1,1,0.40107487,0,0,0,0.446882619,0.448625248,0.104299066,0.552924314,0.344326183,nan,nan,nan,[ nan  nan  nan],nan,nan,nan,709.3085779,1194.12031,1194.521385,nan,nan
0,399,17:43:57:331000,6,1,96,67.5,[ 1.         -0.25681952 -0.50330248],1,1,1,0.499305363,0,0,0,0.451752349,0.448504562,0.104194095,0.552698657,0.344310468,nan,nan,nan,[ nan  nan  nan],nan,nan,nan,709.3085779,1195.062061,1195.561366,nan,nan
0,400,17:43:58:267000,6,1,396,278.4375,[-0.03301537  0.47368488 -0.36352378],1,1,1,0.533443932,0,0,0,0.477941388,0.448633172,0.104093428,0.5527266,0.344539744,nan,nan,nan,[ nan  nan  nan],nan,nan,nan,709.3085779,1196.003891,1196.537335,nan,nan
0,401,17:43:59:218000,6,1,457,321.328125,[ 0.39163925  0.39035818 -1.        ],1,1,1,0.43962844,0,0,0,0.490792578,0.44884734,0.104049014,0.552896355,0.344798326,nan,nan,nan,[ nan  nan  nan],nan,nan,nan,709.3085779,1196.945688,1197.385316,nan,nan
0,402,17:44:00:154000,6,1,169,118.828125,[ 1.         -0.18591738  0.2391183 ],1,1,1,0.665824682,0,0,0,0.546299018,0.448824119,0.103918915,0.552743034,0.344905204,nan,nan,nan,[ nan  nan  nan],nan,nan,nan,709.3085779,1197.887464,1198.553289,nan,nan
0,403,17:44:01:090000,6,1,338,237.65625,[-0.16289136  0.45892871  0.25039916],1,1,1,0.404005375,0,0,0,0.503152832,0.449369346,0.104355282,0.553724628,0.345014065,nan,nan,nan,[ nan  nan  nan],nan,nan,nan,709.3085779,1198.829268,1199.233273,nan,nan
0,404,17:44:02:042000,6,1,396,278.4375,[-0.03301537  0.47368488 -0.36352378],1,1,1,0.382189237,0,0,0,0.484006431,0.449255652,0.104249107,0.553504759,0.345006546,nan,nan,nan,[ nan  nan  nan],nan,nan,nan,709.3085779,1199.771057,1200.153246,nan,nan
0,405,17:44:02:978000,6,1,199,139.921875,[ 1.         -0.02467618  0.4687863 ],1,1,1,0.368379173,0,0,0,0.384857928,0.449087986,0.104172564,0.553260551,0.344915422,nan,nan,nan,[ nan  nan  nan],nan,nan,nan,709.3085779,1200.71285,1201.081229,nan,nan
0,406,17:44:03:914000,6,1,468,329.0625,[ 0.48123648  0.36313162 -1.        ],1,1,1,0.442553242,0,0,0,0.397707218,0.448886717,0.104120434,0.553007151,0.344766284,nan,nan,nan,[ nan  nan  nan],nan,nan,nan,709.3085779,1201.654644,1202.097197,nan,nan
0,407,17:44:04:865000,6,0,57,40.078125,[ 1.         -0.07073133 -1.        ],0,0,1,0.628747341,0,0,0,0.479893252,0.448870962,0.103991328,0.552862291,0.344879634,nan,nan,nan,[ nan  nan  nan],nan,nan,nan,709.3085779,1202.596434,1203.225182,nan,nan
0,408,17:44:05:801000,6,1,375,263.671875,[-0.1285567   0.47868243 -0.12160516],1,1,1,0.45492414,0,0,0,0.508741575,0.449317306,0.10424706,0.553564366,0.345070246,nan,nan,nan,[ nan  nan  nan],nan,nan,nan,709.3085779,1203.538229,1203.993153,nan,nan
0,409,17:44:06:753000,6,1,206,144.84375,[ 0.99472346  0.01405192  0.51131616],1,1,1,0.385145686,0,0,0,0.489605722,0.449331184,0.104118334,0.553449519,0.34521285,nan,nan,nan,[ nan  nan  nan],nan,nan,nan,709.3085779,1204.480005,1204.865151,nan,nan
