block,trial,freq_trials,correct_response,actual_response,acc,rts,probe_trials,fast_rt_trigger,slow_rt_trigger,rt_triggered,rts_runningavg,rts_runningstd,rts_runningfastthresh,rts_runningslowthresh,rts_runningstd,rts_trailingavg,trials_colorind,trials_colorrgb0,trials_colorrgb1,trials_colorrgb2,wm_respdeg,wm_respdeg_in_colorspace,wm_respcolorminusorigcolor,wm_resptexind,wm_resptexrgb0,wm_resptexrgb1,wm_resptexrgb2,wm_rts,time_blockstart,time_encarray_offset,time_encarray_onset,time_response,time_iti_offset,time_iti_onset,time_memprobe_offset,time_memprobe_onset
1,1,1,1,1.0,1.0,0.593995815376,0,nan,nan,nan,nan,nan,nan,nan,nan,nan,465,0.456588679398,0.37096152752,-1.0,nan,nan,nan,nan,nan,nan,nan,nan,709.308577948,710.330567424,nan,710.92456324,nan,nan,nan,nan
1,2,1,1,1.0,1.0,0.457700977917,0,nan,nan,nan,nan,nan,nan,nan,nan,nan,14,0.95801504718,0.150023555696,-1.0,nan,nan,nan,nan,nan,nan,nan,nan,709.308577948,711.274860182,nan,711.73256116,nan,nan,nan,nan
1,3,1,1,1.0,1.0,0.366374091362,0,nan,nan,nan,nan,nan,nan,nan,nan,nan,398,-0.0220377755791,0.472608796233,-0.387943383198,nan,nan,nan,nan,nan,nan,nan,nan,709.308577948,712.214167746,nan,712.580541837,nan,nan,nan,nan
1,4,1,1,1.0,1.0,0.416554172465,0,nan,nan,nan,nan,nan,nan,nan,nan,nan,288,0.150005133015,0.365331945294,0.586687239957,nan,nan,nan,nan,nan,nan,nan,nan,709.308577948,713.155938541,nan,713.572492714,nan,nan,nan,nan
1,5,1,1,1.0,1.0,0.3867462161,0,nan,nan,nan,nan,nan,nan,nan,nan,nan,167,1.0,-0.195605812978,0.221546716301,nan,nan,nan,nan,nan,nan,nan,nan,709.308577948,714.097750676,nan,714.484496892,nan,nan,nan,nan
1,6,1,1,1.0,1.0,0.372944135102,0,nan,nan,nan,nan,nan,nan,nan,nan,nan,344,-0.172543464245,0.464730234515,0.195503824632,nan,nan,nan,nan,nan,nan,nan,nan,709.308577948,715.039543994,nan,715.412488129,nan,nan,nan,nan
1,7,1,1,1.0,1.0,0.367132447485,0,nan,nan,nan,nan,nan,nan,nan,nan,nan,219,0.871627318206,0.0840881726889,0.576959667802,nan,nan,nan,nan,nan,nan,nan,nan,709.308577948,715.981329615,nan,716.348462062,nan,nan,nan,nan
1,8,1,1,1.0,1.0,0.369307161891,0,nan,nan,nan,nan,nan,nan,nan,nan,nan,434,0.213881816697,0.43461034373,-1.0,nan,nan,nan,nan,nan,nan,nan,nan,709.308577948,716.92312664,nan,717.292433801,nan,nan,nan,nan
1,9,1,1,1.0,1.0,0.363472381432,0,nan,nan,nan,nan,nan,nan,nan,nan,nan,243,0.622151010882,0.20168048164,0.647463484622,nan,nan,nan,nan,nan,nan,nan,nan,709.308577948,717.864912545,nan,718.228384927,nan,nan,nan,nan
1,10,1,1,1.0,1.0,0.2696594554,0,nan,nan,nan,nan,nan,nan,nan,nan,nan,149,1.0,-0.269478519393,0.0541436597792,nan,nan,nan,nan,nan,nan,nan,nan,709.308577948,718.806711566,nan,719.076371021,nan,nan,nan,nan
1,11,1,1,1.0,1.0,0.351833040768,0,nan,nan,nan,nan,nan,nan,nan,nan,nan,388,-0.0739633693698,0.476941921698,-0.268577162136,nan,nan,nan,nan,nan,nan,nan,nan,709.308577948,719.748514862,nan,720.100347903,nan,nan,nan,nan
1,12,1,1,1.0,1.0,0.313676039921,0,nan,nan,nan,nan,nan,nan,nan,nan,nan,81,1.0,-0.193804253699,-0.694219169772,nan,nan,nan,nan,nan,nan,nan,nan,709.308577948,720.698638124,nan,721.012314164,nan,nan,nan,nan
1,13,1,1,1.0,1.0,0.331891981536,0,nan,nan,nan,nan,nan,nan,nan,nan,nan,462,0.432089675478,0.378486360879,-1.0,nan,nan,nan,nan,nan,nan,nan,nan,709.308577948,721.640427736,nan,721.972319717,nan,nan,nan,nan
1,14,1,1,1.0,1.0,0.374072546198,0,nan,nan,nan,nan,nan,nan,nan,nan,nan,285,0.178734351563,0.356878681702,0.598527012995,nan,nan,nan,nan,nan,nan,nan,nan,709.308577948,722.582218488,nan,722.956291034,nan,nan,nan,nan
1,15,1,1,1.0,1.0,0.344247199013,0,nan,nan,nan,nan,nan,nan,nan,nan,nan,56,1.0,-0.0653675053377,-1.0,nan,nan,nan,nan,nan,nan,nan,nan,709.308577948,723.524018934,nan,723.868266133,nan,nan,nan,nan
1,16,1,1,1.0,1.0,0.362455157971,0,nan,nan,nan,nan,nan,nan,nan,nan,nan,165,1.0,-0.205056383665,0.203745440608,nan,nan,nan,nan,nan,nan,nan,nan,709.308577948,724.46580484,nan,724.828259998,nan,nan,nan,nan
1,17,1,1,1.0,1.0,0.428643395018,0,nan,nan,nan,nan,nan,nan,nan,nan,nan,2,0.863024578927,0.203622855609,-1.0,nan,nan,nan,nan,nan,nan,nan,nan,709.308577948,725.407596447,nan,725.836239842,nan,nan,nan,nan
1,18,1,1,1.0,1.0,0.406826687453,0,nan,nan,nan,nan,nan,nan,nan,nan,nan,244,0.611372359265,0.206163547436,0.648880721676,nan,nan,nan,nan,nan,nan,nan,nan,709.308577948,726.349391476,nan,726.756218164,nan,nan,nan,nan
1,19,0,0,1.0,0.0,0.36899954296,0,0.0,0.0,0.0,nan,nan,nan,nan,nan,nan,30,1.0,0.071945658744,-1.0,nan,nan,nan,nan,nan,nan,nan,nan,709.308577948,727.291184224,nan,727.660183767,nan,nan,nan,nan
1,20,1,1,1.0,1.0,0.443182164803,0,nan,nan,nan,nan,nan,nan,nan,nan,nan,125,1.0,-0.311567427947,-0.187805059354,nan,nan,nan,nan,nan,nan,nan,nan,709.308577948,728.232976117,nan,728.676158282,nan,nan,nan,nan
1,21,0,0,0.0,1.0,0.413362519583,0,nan,nan,nan,nan,nan,nan,nan,nan,nan,73,1.0,-0.1546788618,-0.830916872461,nan,nan,nan,nan,nan,nan,nan,nan,709.308577948,729.174775708,nan,729.588138227,nan,nan,nan,nan
1,22,1,1,1.0,1.0,0.407561665634,0,nan,nan,nan,nan,nan,nan,nan,nan,nan,190,1.0,-0.0746884387243,0.407399635172,nan,nan,nan,nan,nan,nan,nan,nan,709.308577948,730.116565035,nan,730.5241267,nan,nan,nan,nan
1,23,1,1,1.0,1.0,0.449784424447,1,nan,nan,nan,nan,nan,nan,nan,nan,nan,405,0.018463324075,0.468009379796,-0.476293327428,167.784280866,282.215719134,-2.54990586587,401.0,-0.00506340639596,0.470796889516,-0.425203102762,1.6998172818,709.308577948,731.058321861,731.866772228,731.508106285,734.600454386,735.60976278,732.884273434,734.592121307
1,24,1,1,nan,nan,nan,0,nan,nan,nan,nan,nan,nan,nan,nan,nan,452,0.351738073422,0.401406211611,-1.0,nan,nan,nan,nan,nan,nan,nan,nan,709.308577948,735.750646242,nan,nan,nan,nan,nan,nan
1,25,1,1,1.0,1.0,0.615484377136,0,nan,nan,nan,nan,nan,nan,nan,nan,nan,496,0.714833717156,0.274923884212,-1.0,nan,nan,nan,nan,nan,nan,nan,nan,709.308577948,736.69243842,nan,737.307922797,nan,nan,nan,nan
1,26,1,1,1.0,1.0,0.321712333884,0,nan,nan,nan,nan,nan,nan,nan,nan,nan,407,0.0305886347219,0.46645515455,-0.502577406972,nan,nan,nan,nan,nan,nan,nan,nan,709.308577948,737.63423573,nan,737.955948063,nan,nan,nan,nan
1,27,1,1,1.0,1.0,0.235900064581,1,nan,nan,nan,nan,nan,nan,nan,nan,nan,509,0.822386376617,0.224555004187,-1.0,81.5110561195,8.4889438805,10.5983188805,12.0,0.942476689623,0.159273951266,-1.0,1.20878968929,709.308577948,738.576025057,739.384441783,738.811925121,741.626370208,742.629654803,740.401206014,741.618041976
1,28,0,0,0.0,1.0,0.611574566807,0,nan,nan,nan,nan,nan,nan,nan,nan,nan,212,0.93926288676,0.0467731277665,0.543851001166,nan,nan,nan,nan,nan,nan,nan,nan,709.308577948,742.768256924,nan,743.379831491,nan,nan,nan,nan
1,29,1,1,1.0,1.0,0.469764256733,0,nan,nan,nan,nan,nan,nan,nan,nan,nan,134,1.0,-0.304950998219,-0.095144111098,nan,nan,nan,nan,nan,nan,nan,nan,709.308577948,743.710048817,nan,744.179813074,nan,nan,nan,nan
1,30,1,1,1.0,1.0,0.383948566392,0,nan,nan,nan,nan,nan,nan,nan,nan,nan,339,-0.164955840019,0.45996923152,0.241423096872,nan,nan,nan,nan,nan,nan,nan,nan,709.308577948,744.651842135,nan,745.035790702,nan,nan,nan,nan
1,31,1,1,1.0,1.0,0.370142208878,0,nan,nan,nan,nan,nan,nan,nan,nan,nan,37,1.0,0.0358565504353,-1.0,nan,nan,nan,nan,nan,nan,nan,nan,709.308577948,745.593631177,nan,745.963773386,nan,nan,nan,nan
1,32,1,1,1.0,1.0,0.364318832348,0,nan,nan,nan,nan,nan,nan,nan,nan,nan,457,0.391639248186,0.390358177281,-1.0,nan,nan,nan,nan,nan,nan,nan,nan,709.308577948,746.535428202,nan,746.899747034,nan,nan,nan,nan
1,33,1,1,1.0,1.0,0.406494265131,0,nan,nan,nan,nan,nan,nan,nan,nan,nan,171,1.0,-0.176011872558,0.256450910142,nan,nan,nan,nan,nan,nan,nan,nan,709.308577948,747.477219239,nan,747.883713504,nan,nan,nan,nan
1,34,1,1,1.0,1.0,0.448695071565,0,nan,nan,nan,nan,nan,nan,nan,nan,nan,75,1.0,-0.164714458691,-0.791355921409,nan,nan,nan,nan,nan,nan,nan,nan,709.308577948,748.419009707,nan,748.867704778,nan,nan,nan,nan
1,35,1,1,1.0,1.0,0.386862820538,0,nan,nan,nan,nan,nan,nan,nan,nan,nan,461,0.423959648591,0.380927367285,-1.0,nan,nan,nan,nan,nan,nan,nan,nan,709.308577948,749.360808442,nan,749.747671262,nan,nan,nan,nan
1,36,1,1,1.0,1.0,0.365051814821,0,nan,nan,nan,nan,nan,nan,nan,nan,nan,56,1.0,-0.0653675053377,-1.0,nan,nan,nan,nan,nan,nan,nan,nan,709.308577948,750.302600335,nan,750.66765215,nan,nan,nan,nan
1,37,1,1,1.0,1.0,0.359240982507,0,nan,nan,nan,nan,nan,nan,nan,nan,nan,201,1.0,-0.0135712615467,0.48142235136,nan,nan,nan,nan,nan,nan,nan,nan,709.308577948,751.244398785,nan,751.603639767,nan,nan,nan,nan
1,38,1,1,1.0,1.0,0.48942392593,0,nan,nan,nan,nan,nan,nan,nan,nan,nan,95,1.0,-0.253175017597,-0.514975443931,nan,nan,nan,nan,nan,nan,nan,nan,709.308577948,752.186185546,nan,752.675609472,nan,nan,nan,nan
1,39,1,1,1.0,1.0,0.339615239762,0,nan,nan,nan,nan,nan,nan,nan,nan,nan,452,0.351738073422,0.401406211611,-1.0,nan,nan,nan,nan,nan,nan,nan,nan,709.308577948,753.127979149,nan,753.467594389,nan,nan,nan,nan
1,40,1,1,1.0,1.0,0.397795977653,0,nan,nan,nan,nan,nan,nan,nan,nan,nan,216,0.900975005756,0.0682271079607,0.563426584804,nan,nan,nan,nan,nan,nan,nan,nan,709.308577948,754.069770187,nan,754.467566164,nan,nan,nan,nan
1,41,1,1,nan,nan,nan,0,nan,nan,nan,nan,nan,nan,nan,nan,nan,161,1.0,-0.223158351501,0.167490545043,nan,nan,nan,nan,nan,nan,nan,nan,709.308577948,755.011571203,nan,nan,nan,nan,nan,nan
1,42,1,1,1.0,1.0,0.554173567158,0,nan,nan,nan,nan,nan,nan,nan,nan,nan,280,0.228089347314,0.342018854333,0.61587222022,nan,nan,nan,nan,nan,nan,nan,nan,709.308577948,755.953360245,nan,756.507533812,nan,nan,nan,nan
1,43,1,1,1.0,1.0,0.532346881228,0,nan,nan,nan,nan,nan,nan,nan,nan,nan,345,-0.173519535469,0.465595146217,0.186119282857,nan,nan,nan,nan,nan,nan,nan,nan,709.308577948,756.895155559,nan,757.42750244,nan,nan,nan,nan
1,44,1,1,1.0,1.0,0.494537697814,0,nan,nan,nan,nan,nan,nan,nan,nan,nan,263,0.405698801511,0.284171736334,0.651829885785,nan,nan,nan,nan,nan,nan,nan,nan,709.308577948,757.83694289,nan,758.331480588,nan,nan,nan,nan
1,45,1,1,1.0,1.0,0.67271602957,0,nan,nan,nan,nan,nan,nan,nan,nan,nan,125,1.0,-0.311567427947,-0.187805059354,nan,nan,nan,nan,nan,nan,nan,nan,709.308577948,758.778737634,nan,759.451453663,nan,nan,nan,nan
1,46,1,1,1.0,1.0,0.522913330467,0,nan,nan,nan,nan,nan,nan,nan,nan,nan,389,-0.0691208065164,0.476626077068,-0.280234315682,nan,nan,nan,nan,nan,nan,nan,nan,709.308577948,759.720526961,nan,760.243440291,nan,nan,nan,nan
1,47,1,1,1.0,1.0,0.541089073464,0,nan,nan,nan,nan,nan,nan,nan,nan,nan,188,1.0,-0.0857393506835,0.392804289229,nan,nan,nan,nan,nan,nan,nan,nan,709.308577948,760.66232313,nan,761.203412203,nan,nan,nan,nan
1,48,1,1,1.0,1.0,0.487272019207,0,nan,nan,nan,nan,nan,nan,nan,nan,nan,10,0.926811495151,0.168400576072,-1.0,nan,nan,nan,nan,nan,nan,nan,nan,709.308577948,761.604118159,nan,762.091390178,nan,nan,nan,nan
1,49,1,1,1.0,1.0,0.513468375837,0,nan,nan,nan,nan,nan,nan,nan,nan,nan,194,1.0,-0.0524864644427,0.435571704399,nan,nan,nan,nan,nan,nan,nan,nan,709.308577948,762.545907201,nan,763.059375576,nan,nan,nan,nan
1,50,1,1,1.0,1.0,0.475647503568,0,nan,nan,nan,nan,nan,nan,nan,nan,nan,26,1.0,0.0920921692153,-1.0,nan,nan,nan,nan,nan,nan,nan,nan,709.308577948,763.48770451,nan,763.963352014,nan,nan,nan,nan
1,51,1,1,1.0,1.0,0.461854260473,1,nan,nan,nan,nan,nan,nan,nan,nan,nan,391,-0.0591907973189,0.475916278612,-0.303718712187,-168.185024764,258.185024764,-16.7368502362,367.0,-0.15309091083,0.477560897992,-0.0350816338538,2.9006721715,709.308577948,764.429470174,765.23791313,764.891324435,769.180085341,770.178628784,766.263028401,769.171768227
1,52,1,1,1.0,1.0,0.625220700109,0,nan,nan,nan,nan,nan,nan,nan,nan,nan,84,1.0,-0.20765784414,-0.652191087791,nan,nan,nan,nan,nan,nan,nan,nan,709.308577948,770.321950674,nan,770.947171375,nan,nan,nan,nan
1,53,1,1,1.0,1.0,0.435400746996,0,nan,nan,nan,nan,nan,nan,nan,nan,nan,449,0.328095008353,0.407646248688,-1.0,nan,nan,nan,nan,nan,nan,nan,nan,709.308577948,771.263740286,nan,771.699141033,nan,nan,nan,nan
1,54,1,1,1.0,1.0,0.309595456929,0,nan,nan,nan,nan,nan,nan,nan,nan,nan,216,0.900975005756,0.0682271079607,0.563426584804,nan,nan,nan,nan,nan,nan,nan,nan,709.308577948,772.205539592,nan,772.515135049,nan,nan,nan,nan
1,55,1,1,1.0,1.0,0.335767865472,0,nan,nan,nan,nan,nan,nan,nan,nan,nan,377,-0.121259861678,0.478700828387,-0.143695900877,nan,nan,nan,nan,nan,nan,nan,nan,709.308577948,773.147336616,nan,773.483104482,nan,nan,nan,nan
1,56,1,1,1.0,1.0,0.241956079786,0,nan,nan,nan,nan,nan,nan,nan,nan,nan,176,1.0,-0.150429669724,0.298675466069,nan,nan,nan,nan,nan,nan,nan,nan,709.308577948,774.089143334,nan,774.331099414,nan,nan,nan,nan
1,57,1,1,1.0,1.0,0.348133346357,0,nan,nan,nan,nan,nan,nan,nan,nan,nan,358,-0.170583909915,0.474268316859,0.0585874414746,nan,nan,nan,nan,nan,nan,nan,nan,709.308577948,775.030920117,nan,775.379053463,nan,nan,nan,nan
1,58,1,1,1.0,1.0,0.310332145717,1,nan,nan,nan,nan,nan,nan,nan,nan,nan,237,0.686387300223,0.174031846447,0.636349816437,-45.9644843022,135.964484302,-30.6761406978,193.0,1.0,-0.0580453890011,0.428658791268,1.29213730124,709.308577948,775.972716571,776.781128451,776.283048717,779.114779192,780.115629349,777.806229183,779.106431002
1,59,1,1,1.0,1.0,0.650327133713,0,nan,nan,nan,nan,nan,nan,nan,nan,nan,509,0.822386376617,0.224555004187,-1.0,nan,nan,nan,nan,nan,nan,nan,nan,709.308577948,780.256620007,nan,780.906947141,nan,nan,nan,nan
1,60,1,1,1.0,1.0,0.452532182389,0,nan,nan,nan,nan,nan,nan,nan,nan,nan,70,1.0,-0.13936984996,-0.906436913284,nan,nan,nan,nan,nan,nan,nan,nan,709.308577948,781.19841418,nan,781.650946363,nan,nan,nan,nan
1,61,1,1,1.0,1.0,0.43072317238,0,nan,nan,nan,nan,nan,nan,nan,nan,nan,479,0.572572153349,0.331768222426,-1.0,nan,nan,nan,nan,nan,nan,nan,nan,709.308577948,782.140208069,nan,782.570931241,nan,nan,nan,nan
1,62,1,1,1.0,1.0,0.264910036407,0,nan,nan,nan,nan,nan,nan,nan,nan,nan,116,1.0,-0.306446923025,-0.282515442494,nan,nan,nan,nan,nan,nan,nan,nan,709.308577948,783.082001387,nan,783.346911424,nan,nan,nan,nan
1,63,1,1,1.0,1.0,0.291029702174,0,nan,nan,nan,nan,nan,nan,nan,nan,nan,217,0.891250405156,0.0735373331823,0.568048345461,nan,nan,nan,nan,nan,nan,nan,nan,709.308577948,784.023843457,nan,784.314873159,nan,nan,nan,nan
1,64,0,0,1.0,0.0,0.285270757391,0,0.0,0.0,0.0,nan,nan,nan,nan,nan,nan,298,0.0600896634305,0.391050340636,0.53969689008,nan,nan,nan,nan,nan,nan,nan,nan,709.308577948,784.965582037,nan,785.250852794,nan,nan,nan,nan
1,65,1,1,1.0,1.0,0.335433447559,0,nan,nan,nan,nan,nan,nan,nan,nan,nan,19,0.99625917486,0.126374530333,-1.0,nan,nan,nan,nan,nan,nan,nan,nan,709.308577948,785.907381627,nan,786.242815075,nan,nan,nan,nan
1,66,1,1,1.0,1.0,0.385623221868,0,nan,nan,nan,nan,nan,nan,nan,nan,nan,82,1.0,-0.198479155091,-0.679872484948,nan,nan,nan,nan,nan,nan,nan,nan,709.308577948,786.849177226,nan,787.234800448,nan,nan,nan,nan
1,67,1,1,1.0,1.0,0.387829296873,0,nan,nan,nan,nan,nan,nan,nan,nan,nan,256,0.481312611765,0.257047908656,0.656065722404,nan,nan,nan,nan,nan,nan,nan,nan,709.308577948,787.79095743,nan,788.178786727,nan,nan,nan,nan
1,68,1,1,1.0,1.0,0.366006317141,0,nan,nan,nan,nan,nan,nan,nan,nan,nan,350,-0.175756816429,0.469490941964,0.138247479403,nan,nan,nan,nan,nan,nan,nan,nan,709.308577948,788.732761582,nan,789.098767899,nan,nan,nan,nan
1,69,1,1,1.0,1.0,0.344193885976,0,nan,nan,nan,nan,nan,nan,nan,nan,nan,254,0.503011129055,0.248947817922,0.65613358125,nan,nan,nan,nan,nan,nan,nan,nan,709.308577948,789.674550624,nan,790.01874451,nan,nan,nan,nan
1,70,0,0,0.0,1.0,0.434383808577,0,nan,nan,nan,nan,nan,nan,nan,nan,nan,73,1.0,-0.1546788618,-0.830916872461,nan,nan,nan,nan,nan,nan,nan,nan,709.308577948,790.616343087,nan,791.050726896,nan,nan,nan,nan
1,71,1,1,1.0,1.0,0.32453478704,0,nan,nan,nan,nan,nan,nan,nan,nan,nan,455,0.375608248681,0.394875365091,-1.0,nan,nan,nan,nan,nan,nan,nan,nan,709.308577948,791.558170617,nan,791.882705404,nan,nan,nan,nan
1,72,0,0,0.0,1.0,0.478747640445,0,nan,nan,nan,nan,nan,nan,nan,nan,nan,308,-0.0186828559465,0.413097475488,0.481682330771,nan,nan,nan,nan,nan,nan,nan,nan,709.308577948,792.499936851,nan,792.978684492,nan,nan,nan,nan
1,73,1,1,1.0,1.0,0.408928132034,0,nan,nan,nan,nan,nan,nan,nan,nan,nan,204,1.0,0.00303256528985,0.499654420455,nan,nan,nan,nan,nan,nan,nan,nan,709.308577948,793.441727033,nan,793.850655166,nan,nan,nan,nan
1,74,1,1,1.0,1.0,0.363116581284,0,nan,nan,nan,nan,nan,nan,nan,nan,nan,278,0.248285521772,0.335802812283,0.621962573991,nan,nan,nan,nan,nan,nan,nan,nan,709.308577948,794.383516646,nan,794.746633227,nan,nan,nan,nan
1,75,1,1,0.0,0.0,0.485301148612,0,0.0,0.0,0.0,nan,nan,nan,nan,nan,nan,77,1.0,-0.174593022316,-0.756267193339,nan,nan,nan,nan,nan,nan,nan,nan,709.308577948,795.325307398,nan,795.810608547,nan,nan,nan,nan
1,76,1,1,1.0,1.0,0.487482705328,0,nan,nan,nan,nan,nan,nan,nan,nan,nan,148,1.0,-0.272695592461,0.0444264621409,nan,nan,nan,nan,nan,nan,nan,nan,709.308577948,796.267109554,nan,796.75459226,nan,nan,nan,nan
1,77,0,0,0.0,1.0,0.529670112242,0,nan,nan,nan,nan,nan,nan,nan,nan,nan,260,0.438016636947,0.272781976488,0.654406567654,nan,nan,nan,nan,nan,nan,nan,nan,709.308577948,797.208897171,nan,797.738567283,nan,nan,nan,nan
1,78,1,1,1.0,1.0,0.539855176816,0,nan,nan,nan,nan,nan,nan,nan,nan,nan,435,0.221263830514,0.433027056876,-1.0,nan,nan,nan,nan,nan,nan,nan,nan,709.308577948,798.150696191,nan,798.690551368,nan,nan,nan,nan
1,79,1,1,1.0,1.0,0.590015586233,0,nan,nan,nan,nan,nan,nan,nan,nan,nan,272,0.310166696092,0.316214117232,0.637281430288,nan,nan,nan,nan,nan,nan,nan,nan,709.308577948,799.092515738,nan,799.682531324,nan,nan,nan,nan
1,80,1,1,1.0,1.0,0.440230278007,0,nan,nan,nan,nan,nan,nan,nan,nan,nan,449,0.328095008353,0.407646248688,-1.0,nan,nan,nan,nan,nan,nan,nan,nan,709.308577948,800.034277981,nan,800.474508259,nan,nan,nan,nan
1,81,0,0,0.0,1.0,0.586399424996,0,0.0,0.0,0.0,0.41878229122,0.0962370477243,0.322545243495,0.515019338944,0.0962370477243,0.538881763079,396,-0.0330153705648,0.473684876347,-0.363523780775,nan,nan,nan,nan,nan,nan,nan,nan,709.308577948,800.976069589,nan,801.562469014,nan,nan,nan,nan
1,82,1,1,1.0,1.0,0.508607199241,0,0.0,0.0,0.0,0.42090402709,0.097444711615,0.323459315475,0.518348738705,0.097444711615,0.511745634081,476,0.547545041103,0.340739382997,-1.0,nan,nan,nan,nan,nan,nan,nan,nan,709.308577948,801.917863762,nan,802.426470961,nan,nan,nan,nan
1,83,0,0,0.0,1.0,0.502786103403,0,0.0,0.0,0.0,0.422000316742,0.0973227858881,0.324677530854,0.51932310263,0.0973227858881,0.53259757588,286,0.169078956243,0.359734776014,0.594698705761,nan,nan,nan,nan,nan,nan,nan,nan,709.308577948,802.859655085,nan,803.362441188,nan,nan,nan,nan
1,84,1,1,1.0,1.0,0.368979301129,0,0.0,0.0,0.0,0.422997672133,0.0971306707627,0.32586700137,0.520128342896,0.0971306707627,0.460124201258,505,0.789537956352,0.240683140511,-1.0,nan,nan,nan,nan,nan,nan,nan,nan,709.308577948,803.801441846,nan,804.170421147,nan,nan,nan,nan
1,85,0,0,0.0,1.0,0.515155005443,0,0.0,0.0,0.0,0.422338911511,0.0967184840368,0.325620427474,0.519057395548,0.0967184840368,0.462306803325,111,1.0,-0.298677811705,-0.336106236365,nan,nan,nan,nan,nan,nan,nan,nan,709.308577948,804.74323659,nan,805.258391595,nan,nan,nan,nan
1,86,1,1,1.0,1.0,0.397336117399,0,0.0,0.0,0.0,0.423457177703,0.0966659367904,0.326791240913,0.520123114493,0.0966659367904,0.427156807991,64,1.0,-0.108036866323,-1.0,nan,nan,nan,nan,nan,nan,nan,nan,709.308577948,805.685030763,nan,806.082366881,nan,nan,nan,nan
1,87,1,1,1.0,1.0,0.415536663786,0,0.0,0.0,0.0,0.423146212699,0.0961305761221,0.327015636577,0.519276788821,0.0961305761221,0.442675928876,189,1.0,-0.0802194643608,0.400143472992,nan,nan,nan,nan,nan,nan,nan,nan,709.308577948,806.626832635,nan,807.042369298,nan,nan,nan,nan
1,88,1,1,1.0,1.0,0.489752071735,0,0.0,0.0,0.0,0.423056688595,0.0955669514562,0.327489737138,0.518623640051,0.0955669514562,0.434208284307,467,0.473005185182,0.365775667588,-1.0,nan,nan,nan,nan,nan,nan,nan,nan,709.308577948,807.568582618,nan,808.05833469,nan,nan,nan,nan
1,89,1,1,1.0,1.0,0.411888571805,0,0.0,0.0,0.0,0.423832216305,0.0952783643855,0.32855385192,0.519110580691,0.0952783643855,0.439059102442,173,1.0,-0.165909522591,0.273535192888,nan,nan,nan,nan,nan,nan,nan,nan,709.308577948,808.510412144,nan,808.922300716,nan,nan,nan,nan
1,90,1,1,1.0,1.0,0.518079808098,0,0.0,0.0,0.0,0.423694933035,0.094737759583,0.328957173452,0.518432692618,0.094737759583,0.473240150546,374,-0.132039125116,0.478634076427,-0.110628443238,nan,nan,nan,nan,nan,nan,nan,nan,709.308577948,809.452209168,nan,809.970288976,nan,nan,nan,nan
1,91,1,1,1.0,1.0,0.496275074605,0,0.0,0.0,0.0,0.424767488434,0.0947276850991,0.330039803335,0.519495173533,0.0947276850991,0.475414484836,441,0.266287261384,0.422891888867,-1.0,nan,nan,nan,nan,nan,nan,nan,nan,709.308577948,810.394000491,nan,810.890275566,nan,nan,nan,nan
1,92,1,1,1.0,1.0,0.426445017627,0,0.0,0.0,0.0,0.425570944458,0.094495068667,0.331075875791,0.520066013125,0.094495068667,0.480266633444,397,-0.0275613476434,0.473159987783,-0.37569455347,nan,nan,nan,nan,nan,nan,nan,nan,709.308577948,811.335789818,nan,811.762234836,nan,nan,nan,nan
1,93,1,1,1.0,1.0,0.49263040378,0,0.0,0.0,0.0,0.425580656382,0.093968674315,0.331611982067,0.519549330697,0.093968674315,0.471783498671,312,-0.0464483572634,0.420925197877,0.455573212045,nan,nan,nan,nan,nan,nan,nan,nan,709.308577948,812.277583136,nan,812.77021354,nan,nan,nan,nan
1,94,1,1,1.0,1.0,0.534816385189,0,0.0,0.0,0.0,0.426317466793,0.0937119929347,0.332605473859,0.520029459728,0.0937119929347,0.484630602198,509,0.822386376617,0.224555004187,-1.0,nan,nan,nan,nan,nan,nan,nan,nan,709.308577948,813.21937674,nan,813.754193125,nan,nan,nan,nan
1,95,1,1,1.0,1.0,0.544953553588,0,0.0,1.0,0.0,0.427496802863,0.0938778335418,0.333618969321,0.521374636405,0.0938778335418,0.524133447519,155,1.0,-0.2479831371,0.111611878621,nan,nan,nan,nan,nan,nan,nan,nan,709.308577948,814.161217099,nan,814.706170652,nan,nan,nan,nan
1,96,1,1,1.0,1.0,0.515185225639,1,0.0,0.0,1.0,0.428759778677,0.0941543074159,0.334605471261,0.522914086093,0.0941543074159,0.531651721472,278,0.248285521772,0.335802812283,0.621962573991,-119.84994679,209.84994679,14.3811967895,298.0,0.0600896634305,0.391050340636,0.53969689008,2.69231725403,709.308577948,815.102963091,815.911351593,815.618148317,819.636838088,820.643523311,816.928147755,819.62850729
1,97,1,1,1.0,1.0,0.4709399938,0,0.0,0.0,0.0,0.429679198326,0.0940709341848,0.335608264141,0.52375013251,0.0940709341848,0.510359591009,394,-0.0437090198531,0.474655926729,-0.339401417396,nan,nan,nan,nan,nan,nan,nan,nan,709.308577948,820.787058739,nan,821.257998733,nan,nan,nan,nan
1,98,1,1,1.0,1.0,0.545136870467,0,0.0,0.0,0.0,0.430113522488,0.0936692138703,0.336444308618,0.523782736359,0.0936692138703,0.510420696635,188,1.0,-0.0857393506835,0.392804289229,nan,nan,nan,nan,nan,nan,nan,nan,709.308577948,821.728850917,nan,822.273987787,nan,nan,nan,nan
1,99,1,1,1.0,1.0,0.603339560796,0,0.0,1.0,0.0,0.431311682363,0.0939090378146,0.337402644549,0.525220720178,0.0939090378146,0.539805475021,424,0.142174562463,0.448819569244,-0.770229420881,nan,nan,nan,nan,nan,nan,nan,nan,709.308577948,822.670643665,nan,823.273983226,nan,nan,nan,nan
1,100,1,1,1.0,1.0,0.597506775986,1,0.0,0.0,1.0,0.433085165646,0.0950259655879,0.338059200058,0.528111131234,0.0950259655879,0.581994402416,354,-0.174470673547,0.472100788149,0.0988677247603,-103.635112709,193.635112709,-55.271137291,275.0,0.279002393219,0.326185254474,0.630178474337,2.35895788186,709.308577948,823.612439549,824.42085656,824.209946325,827.804622665,828.802114388,825.429297976,827.796293862
1,101,1,1,1.0,1.0,0.607332334155,0,0.0,0.0,0.0,0.43476293718,0.0959731156677,0.338789821512,0.530736052848,0.0959731156677,0.602726223646,272,0.310166696092,0.316214117232,0.637281430288,nan,nan,nan,nan,nan,nan,nan,nan,709.308577948,828.94649256,nan,829.553824894,nan,nan,nan,nan
1,102,1,1,1.0,1.0,0.489507174061,0,0.0,0.0,0.0,0.436506062402,0.0970338690187,0.339472193383,0.533539931421,0.0970338690187,0.564782094734,195,1.0,-0.0469245268387,0.442396054288,nan,nan,nan,nan,nan,nan,nan,nan,709.308577948,829.888300419,nan,830.377807593,nan,nan,nan,nan
1,103,1,1,1.0,1.0,0.54770729848,0,0.0,1.0,0.0,0.437036073519,0.0966913971663,0.340344676352,0.533727470685,0.0966913971663,0.548182268899,480,0.580928072941,0.32870764083,-1.0,nan,nan,nan,nan,nan,nan,nan,nan,709.308577948,830.830071214,nan,831.377778513,nan,nan,nan,nan
1,104,1,1,1.0,1.0,0.541909865686,1,0.0,0.0,1.0,0.438131828221,0.0968335041496,0.341298324072,0.534965332371,0.0968335041496,0.526374779409,160,1.0,-0.227501418013,0.158297521075,-126.528855367,216.528855367,104.028855367,308.0,-0.0186828559465,0.413097475488,0.481682330771,1.77556679281,709.308577948,831.771848852,832.580283255,832.313758718,835.397317301,836.399101719,833.605384271,835.388986218
1,105,1,1,1.0,1.0,0.638433772256,0,0.0,0.0,0.0,0.439149259961,0.0968986621504,0.342250597811,0.536047922111,0.0968986621504,0.576016978807,436,0.228681708805,0.431413732101,-1.0,nan,nan,nan,nan,nan,nan,nan,nan,709.308577948,836.539208578,nan,837.177642351,nan,nan,nan,nan
1,106,0,0,0.0,1.0,0.584667180025,0,0.0,0.0,0.0,0.441084061051,0.0983871151016,0.34269694595,0.539471176153,0.0983871151016,0.588336939322,113,1.0,-0.302191989669,-0.314576349441,nan,nan,nan,nan,nan,nan,nan,nan,709.308577948,837.480967685,nan,838.065634865,nan,nan,nan,nan
1,107,1,1,1.0,1.0,0.410843408899,0,0.0,0.0,0.0,0.442464667965,0.0989104293357,0.343554238629,0.5413750973,0.0989104293357,0.544648120393,442,0.273907262724,0.421095538958,-1.0,nan,nan,nan,nan,nan,nan,nan,nan,709.308577948,838.422759293,nan,838.833602702,nan,nan,nan,nan
1,108,1,1,1.0,1.0,0.477045045467,0,0.0,0.0,0.0,0.442163513116,0.0984861980368,0.34367731508,0.540649711153,0.0984861980368,0.49085187813,213,0.929785093221,0.0521668813814,0.548906519778,nan,nan,nan,nan,nan,nan,nan,nan,709.308577948,839.364544629,nan,839.841589674,nan,nan,nan,nan
1,109,1,1,1.0,1.0,0.383218434756,0,0.0,0.0,0.0,0.442492584176,0.0980785216418,0.344414062534,0.540571105818,0.0980785216418,0.423702296374,353,-0.175041255135,0.471490071959,0.108799216003,nan,nan,nan,nan,nan,nan,nan,nan,709.308577948,840.306343934,nan,840.689562369,nan,nan,nan,nan
1,110,1,1,1.0,1.0,0.39342602191,0,0.0,0.0,0.0,0.441938620163,0.0977856041348,0.344153016028,0.539724224298,0.0977856041348,0.417896500711,31,1.0,0.0668515730764,-1.0,nan,nan,nan,nan,nan,nan,nan,nan,709.308577948,841.248133261,nan,841.641559283,nan,nan,nan,nan
1,111,1,1,1.0,1.0,0.371598195576,0,0.0,0.0,0.0,0.441489429438,0.0974426844361,0.344046745002,0.538932113874,0.0974426844361,0.382747550747,447,0.312467642152,0.411646472288,-1.0,nan,nan,nan,nan,nan,nan,nan,nan,709.308577948,842.189928575,nan,842.56152677,nan,nan,nan,nan
1,112,0,0,0.0,1.0,0.525775411981,0,0.0,0.0,0.0,0.440848225458,0.0972232963288,0.343624929129,0.538071521787,0.0972232963288,0.430266543156,129,1.0,-0.310070485259,-0.146368003411,nan,nan,nan,nan,nan,nan,nan,nan,709.308577948,843.131719898,nan,843.657495309,nan,nan,nan,nan
1,113,1,1,1.0,1.0,0.43997739756,0,0.0,0.0,0.0,0.44162029079,0.0971154569066,0.344504833883,0.538735747697,0.0971154569066,0.445783668372,395,-0.0383984177995,0.474183508328,-0.351427224487,nan,nan,nan,nan,nan,nan,nan,nan,709.308577948,844.073516067,nan,844.513493464,nan,nan,nan,nan
1,114,1,1,1.0,1.0,0.410166020098,0,0.0,0.0,0.0,0.44160548995,0.0966771347937,0.344928355156,0.538282624744,0.0966771347937,0.45863960988,249,0.557275547736,0.228026269286,0.654084877906,nan,nan,nan,nan,nan,nan,nan,nan,709.308577948,845.015305394,nan,845.425471414,nan,nan,nan,nan
1,115,0,0,0.0,1.0,0.484336382826,0,0.0,0.0,0.0,0.441324780398,0.0962900012614,0.345034779136,0.537614781659,0.0962900012614,0.444826600161,409,0.0429436170054,0.464793150178,-0.529461854507,nan,nan,nan,nan,nan,nan,nan,nan,709.308577948,845.957104414,nan,846.441440797,nan,nan,nan,nan
1,116,1,1,1.0,1.0,0.470575070533,0,0.0,0.0,0.0,0.441705414048,0.0959475904454,0.345757823602,0.537653004493,0.0959475904454,0.455025824485,353,-0.175041255135,0.471490071959,0.108799216003,nan,nan,nan,nan,nan,nan,nan,nan,709.308577948,846.898855823,nan,847.369430894,nan,nan,nan,nan
1,117,1,1,1.0,1.0,0.600718670699,0,0.0,0.0,0.0,0.441958656648,0.0955637648208,0.346394891828,0.537522421469,0.0955637648208,0.518543374686,508,0.814199817736,0.228638933499,-1.0,nan,nan,nan,nan,nan,nan,nan,nan,709.308577948,847.840687059,nan,848.44140573,nan,nan,nan,nan
1,118,1,1,1.0,1.0,0.626908755221,0,0.0,1.0,0.0,0.44333917851,0.0962823271118,0.347056851398,0.539621505622,0.0962823271118,0.566067498818,269,0.34171296506,0.305888347675,0.643262349404,nan,nan,nan,nan,nan,nan,nan,nan,709.308577948,848.782471254,nan,849.40938001,nan,nan,nan,nan
1,119,1,1,1.0,1.0,0.493090264034,1,0.0,0.0,1.0,0.444921674861,0.0973568905707,0.34756478429,0.542278565431,0.0973568905707,0.573572563318,490,0.664660387652,0.296157848571,-1.0,91.9368003862,358.063199614,13.5319496138,509.0,0.822386376617,0.224555004187,-1.0,2.72568891378,709.308577948,849.724268849,850.53268301,850.217359113,854.291486426,855.290330361,851.549455224,854.283163611
1,120,0,0,0.0,1.0,0.575836322794,0,0.0,0.0,0.0,0.445333372204,0.0970412998046,0.348292072399,0.542374672009,0.0970412998046,0.56527844735,26,1.0,0.0920921692153,-1.0,nan,nan,nan,nan,nan,nan,nan,nan,709.308577948,855.433369721,nan,856.009206044,nan,nan,nan,nan
1,121,1,1,1.0,1.0,0.482037936628,0,0.0,0.0,0.0,0.446439329412,0.0973669153413,0.349072414071,0.543806244754,0.0973669153413,0.516988174485,162,1.0,-0.218739557155,0.176632971453,nan,nan,nan,nan,nan,nan,nan,nan,709.308577948,856.375160474,nan,856.85719841,nan,nan,nan,nan
1,122,1,1,1.0,1.0,0.428216890956,0,0.0,0.0,0.0,0.446738477372,0.0970113882056,0.349727089167,0.543749865578,0.0970113882056,0.495363716793,331,-0.143297839787,0.450801753776,0.311166711333,nan,nan,nan,nan,nan,nan,nan,nan,709.308577948,857.316956358,nan,857.745173249,nan,nan,nan,nan
1,123,1,1,1.0,1.0,0.366412579373,0,0.0,0.0,0.0,0.446584130819,0.0966209998727,0.349963130946,0.543205130691,0.0966209998727,0.425555802319,508,0.814199817736,0.228638933499,-1.0,nan,nan,nan,nan,nan,nan,nan,nan,709.308577948,858.258746825,nan,858.625159404,nan,nan,nan,nan
1,124,1,1,1.0,1.0,0.368563630793,0,0.0,0.0,0.0,0.445921556013,0.0964942713145,0.349427284699,0.542415827328,0.0964942713145,0.387731033707,377,-0.121259861678,0.478700828387,-0.143695900877,nan,nan,nan,nan,nan,nan,nan,nan,709.308577948,859.200540714,nan,859.569104344,nan,nan,nan,nan
1,125,1,1,1.0,1.0,0.482791446033,0,0.0,0.0,0.0,0.445287474659,0.0963507794449,0.348936695214,0.541638254104,0.0963507794449,0.405922552066,5,0.88714030954,0.190659852496,-1.0,nan,nan,nan,nan,nan,nan,nan,nan,709.308577948,860.142336313,nan,860.625127759,nan,nan,nan,nan
1,126,1,1,1.0,1.0,0.485012916266,0,0.0,0.0,0.0,0.445592384996,0.0960173926434,0.349574992352,0.541609777639,0.0960173926434,0.445455997697,135,1.0,-0.303502321856,-0.0849788702499,nan,nan,nan,nan,nan,nan,nan,nan,709.308577948,861.084090573,nan,861.569103489,nan,nan,nan,nan
1,127,1,1,1.0,1.0,0.543161153269,0,0.0,0.0,0.0,0.445910292506,0.0956944156896,0.350215876816,0.541604708195,0.0956944156896,0.503655171856,243,0.622151010882,0.20168048164,0.647463484622,nan,nan,nan,nan,nan,nan,nan,nan,709.308577948,862.025920383,nan,862.569081537,nan,nan,nan,nan
1,128,1,1,1.0,1.0,0.705322490947,0,0.0,1.0,0.0,0.446688299392,0.0957038054064,0.350984493985,0.542392104798,0.0957038054064,0.577832186827,490,0.664660387652,0.296157848571,-1.0,nan,nan,nan,nan,nan,nan,nan,nan,709.308577948,862.967713132,nan,863.673035623,nan,nan,nan,nan
1,129,1,1,1.0,1.0,0.499517474556,1,0.0,0.0,1.0,0.448740951706,0.0980469216764,0.350694030029,0.546787873382,0.0980469216764,0.582667039591,326,-0.12383419111,0.444071765824,0.352223541474,-119.981639369,209.981639369,-19.2371106312,299.0,0.0516645560415,0.393417669654,0.534378752182,1.60882595356,709.308577948,863.909511011,864.717921181,864.409028486,867.368240332,868.378464454,865.743035312,867.359904402
1,130,1,1,1.0,1.0,0.48243735655,0,0.0,0.0,0.0,0.449140766846,0.0977632126189,0.351377554228,0.546903979465,0.0977632126189,0.562425774018,460,0.415848916989,0.383334931935,-1.0,nan,nan,nan,nan,nan,nan,nan,nan,709.308577948,868.51845585,nan,869.000893207,nan,nan,nan,nan
1,131,1,1,1.0,1.0,0.484646567609,0,0.0,0.0,0.0,0.449400896453,0.097424690893,0.35197620556,0.546825587346,0.097424690893,0.488867132905,145,1.0,-0.281667413287,0.0150551701241,nan,nan,nan,nan,nan,nan,nan,nan,709.308577948,869.460249454,nan,869.944896021,nan,nan,nan,nan
1,132,1,1,1.0,1.0,0.534811823571,0,0.0,0.0,0.0,0.44967411871,0.0970955590227,0.352578559688,0.546769677733,0.0970955590227,0.50063191591,461,0.423959648591,0.380927367285,-1.0,nan,nan,nan,nan,nan,nan,nan,nan,709.308577948,870.402055601,nan,870.936867425,nan,nan,nan,nan
1,133,1,1,1.0,1.0,0.457020738162,0,0.0,0.0,0.0,0.450329024132,0.097006990617,0.353322033515,0.547336014749,0.097006990617,0.492159709781,33,1.0,0.0565990290419,-1.0,nan,nan,nan,nan,nan,nan,nan,nan,709.308577948,871.343833809,nan,871.800854548,nan,nan,nan,nan
1,134,1,1,1.0,1.0,0.387209497625,0,0.0,0.0,0.0,0.450380105919,0.0966377807255,0.353742325193,0.547017886644,0.0966377807255,0.459680686453,140,1.0,-0.294209249228,-0.0345777392028,nan,nan,nan,nan,nan,nan,nan,nan,709.308577948,872.285625702,nan,872.6728352,nan,nan,nan,nan
1,135,1,1,1.0,1.0,0.469383653195,0,0.0,0.0,0.0,0.449901540705,0.0964267284012,0.353474812303,0.546328269106,0.0964267284012,0.437871296327,257,0.470472903111,0.261039853404,0.655841377839,nan,nan,nan,nan,nan,nan,nan,nan,709.308577948,873.227424723,nan,873.696808376,nan,nan,nan,nan
1,136,1,1,1.0,1.0,0.639566459751,0,0.0,0.0,0.0,0.450048022753,0.0960782787196,0.353969744034,0.546126301473,0.0960782787196,0.49871987019,97,1.0,-0.260369742894,-0.491718830742,nan,nan,nan,nan,nan,nan,nan,nan,709.308577948,874.169211484,nan,874.808777943,nan,nan,nan,nan
1,137,0,0,0.0,1.0,0.657763585041,0,0.0,0.0,0.0,0.451462339447,0.097098847128,0.354363492319,0.548561186575,0.097098847128,0.588904565996,2,0.863024578927,0.203622855609,-1.0,nan,nan,nan,nan,nan,nan,nan,nan,709.308577948,875.111006512,nan,875.768770098,nan,nan,nan,nan
1,138,1,1,1.0,1.0,0.491940755863,0,0.0,0.0,0.0,0.452990496822,0.0983426316653,0.354647865157,0.551333128487,0.0983426316653,0.596423600218,208,0.97651257568,0.025020743352,0.522574479073,nan,nan,nan,nan,nan,nan,nan,nan,709.308577948,876.052800401,nan,876.544741157,nan,nan,nan,nan
1,139,1,1,1.0,1.0,0.486122225935,0,0.0,0.0,0.0,0.453276895786,0.0980369021815,0.355239993604,0.551313797967,0.0980369021815,0.54527552228,443,0.281558783006,0.419268214519,-1.0,nan,nan,nan,nan,nan,nan,nan,nan,709.308577948,876.994591724,nan,877.48071395,nan,nan,nan,nan
1,140,1,1,1.0,1.0,0.424301093619,0,0.0,0.0,0.0,0.453516642721,0.0977184541625,0.355798188559,0.551235096884,0.0977184541625,0.467454691806,378,-0.117450136118,0.478670924818,-0.154810124165,nan,nan,nan,nan,nan,nan,nan,nan,709.308577948,877.936390174,nan,878.360691267,nan,nan,nan,nan
1,141,1,1,1.0,1.0,0.410514407791,0,0.0,0.0,0.0,0.453304935844,0.0973952858006,0.355909650043,0.550700221644,0.0973952858006,0.440312575782,102,1.0,-0.276610342793,-0.434926949461,nan,nan,nan,nan,nan,nan,nan,nan,709.308577948,878.878174939,nan,879.288689347,nan,nan,nan,nan
1,142,1,1,1.0,1.0,0.452702384908,0,0.0,0.0,0.0,0.452997090318,0.0971116694042,0.355885420914,0.550108759722,0.0971116694042,0.429172628773,270,0.331159066004,0.309369715406,0.641393874915,nan,nan,nan,nan,nan,nan,nan,nan,709.308577948,879.819967687,nan,880.272670072,nan,nan,nan,nan
1,143,1,1,1.0,1.0,0.542875201674,0,0.0,0.0,0.0,0.452994985279,0.0967642236397,0.35623076164,0.549759208919,0.0967642236397,0.468697331458,171,1.0,-0.176011872558,0.256450910142,nan,nan,nan,nan,nan,nan,nan,nan,709.308577948,880.761754448,nan,881.30462965,nan,nan,nan,nan
1,144,1,1,1.0,1.0,0.465058742673,0,0.0,0.0,0.0,0.453632433623,0.0967150254202,0.356917408202,0.550347459043,0.0967150254202,0.486878776418,128,1.0,-0.310663006781,-0.156689791083,nan,nan,nan,nan,nan,nan,nan,nan,709.308577948,881.703557745,nan,882.168616488,nan,nan,nan,nan
1,145,1,1,0.0,0.0,0.555242393108,0,0.0,0.0,0.0,0.453712900588,0.0963786143483,0.357334286239,0.550091514936,0.0963786143483,0.521058779152,400,-0.0107874812989,0.471427301814,-0.412692688905,nan,nan,nan,nan,nan,nan,nan,nan,709.308577948,882.645349923,nan,883.200592316,nan,nan,nan,nan
1,146,1,1,1.0,1.0,0.68542048987,0,0.0,1.0,0.0,0.454422897039,0.0964129757029,0.358009921336,0.550835872742,0.0964129757029,0.568573875217,360,-0.167709501072,0.475188317955,0.0381258551808,nan,nan,nan,nan,nan,nan,nan,nan,709.308577948,883.58714039,nan,884.27256088,nan,nan,nan,nan
1,147,0,0,0.0,1.0,0.503617159033,1,0.0,0.0,1.0,0.456027046989,0.0979739329885,0.358053114001,0.554000979978,0.0979739329885,0.58142668067,289,0.140592130943,0.368073254824,0.582505265782,-120.768541684,210.768541684,7.56541668436,300.0,0.0433537089178,0.395748422077,0.528951029102,1.55059960025,709.308577948,884.5289377,885.337348724,885.032554859,887.9126599,888.923181378,886.345793561,887.904322544
1,148,1,1,1.0,1.0,0.465598715004,0,0.0,0.0,0.0,0.456355254658,0.0977149119258,0.358640342733,0.554070166584,0.0977149119258,0.551545454635,55,1.0,-0.0599996532909,-1.0,nan,nan,nan,nan,nan,nan,nan,nan,709.308577948,889.062869431,nan,889.528468146,nan,nan,nan,nan
1,149,1,1,1.0,1.0,0.499759806378,0,0.0,0.0,0.0,0.456418566031,0.0973826810212,0.359035885009,0.553801247052,0.0973826810212,0.489658560138,279,0.238157575771,0.338930353633,0.618978422254,nan,nan,nan,nan,nan,nan,nan,nan,709.308577948,890.004667026,nan,890.504426832,nan,nan,nan,nan
1,150,1,1,1.0,1.0,0.509930901171,0,0.0,0.0,0.0,0.4567134044,0.0971162471479,0.359597157252,0.553829651548,0.0971162471479,0.491763140851,4,0.879126049628,0.195014037372,-1.0,nan,nan,nan,nan,nan,nan,nan,nan,709.308577948,890.94646177,nan,891.456392671,nan,nan,nan,nan
1,151,1,1,1.0,1.0,0.472135117394,0,0.0,0.0,0.0,0.457072982081,0.096885732667,0.360187249414,0.553958714748,0.096885732667,0.493941941648,446,0.304696255059,0.41359904426,-1.0,nan,nan,nan,nan,nan,nan,nan,nan,709.308577948,891.888252522,nan,892.36038764,nan,nan,nan,nan
1,152,1,1,1.0,1.0,0.482314480003,0,0.0,0.0,0.0,0.457174070238,0.0965678964152,0.360606173822,0.553741966653,0.0965678964152,0.488126832856,2,0.863024578927,0.203622855609,-1.0,nan,nan,nan,nan,nan,nan,nan,nan,709.308577948,892.83004413,nan,893.31235861,nan,nan,nan,nan
1,153,0,0,0.0,1.0,0.484496606921,0,0.0,0.0,0.0,0.457341672969,0.0962672066245,0.361074466345,0.553608879594,0.0962672066245,0.479648734773,47,1.0,-0.0170755915744,-1.0,nan,nan,nan,nan,nan,nan,nan,nan,709.308577948,893.771840014,nan,894.256336621,nan,nan,nan,nan
1,154,1,1,1.0,1.0,0.69466616225,0,0.0,0.0,0.0,0.457521506969,0.0959731877482,0.361548319221,0.553494694717,0.0959731877482,0.553825749725,429,0.177531820842,0.442080780324,-0.901885199234,nan,nan,nan,nan,nan,nan,nan,nan,709.308577948,894.713636754,nan,895.408302916,nan,nan,nan,nan
1,155,1,1,1.0,1.0,0.600862644322,0,0.0,0.0,0.0,0.459081669175,0.0975592387903,0.361522430385,0.556640907965,0.0975592387903,0.593341804498,346,-0.174317561957,0.466431294057,0.176670174816,nan,nan,nan,nan,nan,nan,nan,nan,709.308577948,895.655429502,nan,896.256292146,nan,nan,nan,nan
1,156,0,0,0.0,1.0,0.603036788525,0,0.0,0.0,0.0,0.460008342215,0.097908748748,0.362099593467,0.557917090963,0.097908748748,0.632855198365,111,1.0,-0.298677811705,-0.336106236365,nan,nan,nan,nan,nan,nan,nan,nan,709.308577948,896.597224246,nan,897.200261034,nan,nan,nan,nan
1,157,1,1,1.0,1.0,0.621242181573,0,0.0,0.0,0.0,0.46093709836,0.098264192305,0.362672906055,0.559201290665,0.098264192305,0.60838053814,268,0.35230222188,0.302367520405,0.645005310408,nan,nan,nan,nan,nan,nan,nan,nan,709.308577948,897.53900559,nan,898.160247771,nan,nan,nan,nan
1,158,0,0,0.0,1.0,0.687410176848,0,0.0,0.0,0.0,0.461971324703,0.0987839956126,0.363187329091,0.560755320316,0.0987839956126,0.637229715649,211,0.948675772315,0.0413606888024,0.538689155053,nan,nan,nan,nan,nan,nan,nan,nan,709.308577948,898.480801189,nan,899.168211366,nan,nan,nan,nan
1,159,1,1,1.0,1.0,0.401612846646,0,0.0,0.0,0.0,0.46341644555,0.100097066576,0.363319378974,0.563513512127,0.100097066576,0.570088401689,301,0.0351599448551,0.39804275895,0.523414514543,nan,nan,nan,nan,nan,nan,nan,nan,709.308577948,899.422592797,nan,899.824205643,nan,nan,nan,nan
1,160,1,1,1.0,1.0,0.339801407652,0,0.0,0.0,0.0,0.463022792054,0.0998988438254,0.363123948229,0.56292163588,0.0998988438254,0.476274810382,456,0.383612429175,0.392633185378,-1.0,nan,nan,nan,nan,nan,nan,nan,nan,709.308577948,900.364381553,nan,900.704182961,nan,nan,nan,nan
1,161,1,1,1.0,1.0,0.349983336113,0,0.0,0.0,0.0,0.462242909874,0.100060510618,0.362182399257,0.562303420492,0.100060510618,0.363799196804,46,1.0,-0.0117313672748,-1.0,nan,nan,nan,nan,nan,nan,nan,nan,709.308577948,901.306188271,nan,901.656171607,nan,nan,nan,nan
1,162,1,1,1.0,1.0,0.368177895492,0,1.0,0.0,0.0,0.461536874819,0.100139389229,0.36139748559,0.561676264048,0.100139389229,0.352654213086,274,0.289344050657,0.322900892411,0.632670269059,nan,nan,nan,nan,nan,nan,nan,nan,709.308577948,902.247977028,nan,902.616154924,nan,nan,nan,nan
1,163,1,1,1.0,1.0,0.434351877833,1,0.0,0.0,1.0,0.460953381198,0.100096737316,0.360856643883,0.561050118514,0.100096737316,0.38417103648,154,1.0,-0.251813147593,0.102138173725,66.9148663272,23.0851336728,-85.1961163272,33.0,1.0,0.0565990290419,-1.0,2.70066202205,709.308577948,903.189770917,903.998188498,903.624122794,907.740326897,908.750328075,905.023280677,907.731983555
1,164,1,1,1.0,1.0,0.565457107674,0,0.0,0.0,0.0,0.46078815447,0.0998072781456,0.360980876324,0.560595432615,0.0998072781456,0.455995627,262,0.416452475899,0.2804144186,0.652815538838,nan,nan,nan,nan,nan,nan,nan,nan,709.308577948,908.890528731,nan,909.455985839,nan,nan,nan,nan
1,165,1,1,1.0,1.0,0.471629071515,0,0.0,0.0,0.0,0.461434259119,0.0998359239994,0.36159833512,0.561270183118,0.0998359239994,0.490479352341,83,1.0,-0.203097876184,-0.665876706514,nan,nan,nan,nan,nan,nan,nan,nan,709.308577948,909.832320909,nan,910.30394998,nan,nan,nan,nan
1,166,1,1,1.0,1.0,0.417830833583,0,0.0,0.0,0.0,0.46149680398,0.0995323912297,0.361964412751,0.56102919521,0.0995323912297,0.484972337591,192,1.0,-0.0635997558896,0.421658406928,nan,nan,nan,nan,nan,nan,nan,nan,709.308577948,910.774116223,nan,911.191947057,nan,nan,nan,nan
1,167,1,1,1.0,1.0,0.420053444104,0,0.0,0.0,0.0,0.461230548063,0.0992866841336,0.36194386393,0.560517232197,0.0992866841336,0.436504449734,58,1.0,-0.0760896648475,-1.0,nan,nan,nan,nan,nan,nan,nan,nan,709.308577948,911.715908686,nan,912.13596213,nan,nan,nan,nan
1,168,1,1,1.0,1.0,0.446158284904,0,0.0,0.0,0.0,0.460980989857,0.0990369372107,0.361944052647,0.560017927068,0.0990369372107,0.42801418753,291,0.122027637739,0.373441943191,0.573791926984,nan,nan,nan,nan,nan,nan,nan,nan,709.308577948,912.657748475,nan,913.10390676,nan,nan,nan,nan
1,169,1,1,1.0,1.0,0.392391977774,0,0.0,0.0,0.0,0.460891696454,0.098744844392,0.362146852062,0.559636540846,0.098744844392,0.419534568927,364,-0.160194321586,0.476704516321,-0.00341124574885,nan,nan,nan,nan,nan,nan,nan,nan,709.308577948,913.59948905,nan,913.991881028,nan,nan,nan,nan
1,170,1,1,1.0,1.0,0.298583328084,0,0.0,0.0,0.0,0.460481518498,0.0985904996938,0.361891018804,0.559072018192,0.0985904996938,0.379044530254,458,0.399688045963,0.388050214986,-1.0,nan,nan,nan,nan,nan,nan,nan,nan,709.308577948,914.541276667,nan,914.839859995,nan,nan,nan,nan
1,171,1,1,1.0,1.0,0.372760818165,0,1.0,0.0,0.0,0.459517838793,0.0990823813457,0.360435457447,0.558600220139,0.0990823813457,0.354578708007,87,1.0,-0.220959007447,-0.612675615602,nan,nan,nan,nan,nan,nan,nan,nan,709.308577948,915.483074547,nan,915.855835365,nan,nan,nan,nan
1,172,1,1,1.0,1.0,0.334938520391,1,0.0,0.0,1.0,0.459004483641,0.0990126319331,0.359991851708,0.558017115574,0.0990126319331,0.335427555547,175,1.0,-0.155629953633,0.290361762956,-26.8109543003,116.8109543,-6.23592069965,166.0,1.0,-0.20036215083,0.21267421211,1.0754541512,709.308577948,916.424870716,917.233282311,916.759809236,919.341885176,920.340877076,918.250055665,919.333557514
1,173,1,1,1.0,1.0,0.411973530485,0,0.0,0.0,0.0,0.458274683858,0.0991758253465,0.359098858511,0.557450509204,0.0991758253465,0.37322428968,347,-0.174938837379,0.46723881498,0.167157479366,nan,nan,nan,nan,nan,nan,nan,nan,709.308577948,920.48374937,nan,920.8957229,nan,nan,nan,nan
1,174,1,1,1.0,1.0,0.478178588324,0,0.0,0.0,0.0,0.458003916879,0.0989484122374,0.359055504641,0.556952329116,0.0989484122374,0.4083635464,498,0.731507943485,0.267561876527,-1.0,nan,nan,nan,nan,nan,nan,nan,nan,709.308577948,921.425536986,nan,921.903715574,nan,nan,nan,nan
1,175,1,1,1.0,1.0,0.408333706378,0,0.0,0.0,0.0,0.45812121148,0.0986722743157,0.359448937165,0.556793485796,0.0986722743157,0.432828608396,72,1.0,-0.149607777062,-0.853203742106,nan,nan,nan,nan,nan,nan,nan,nan,709.308577948,922.367330304,nan,922.775664011,nan,nan,nan,nan
1,176,1,1,1.0,1.0,0.402514891292,0,0.0,0.0,0.0,0.457833422433,0.0984590497598,0.359374372674,0.556292472193,0.0984590497598,0.429675728665,28,1.0,0.082066132397,-1.0,nan,nan,nan,nan,nan,nan,nan,nan,709.308577948,923.309124763,nan,923.711639654,nan,nan,nan,nan
1,177,1,1,1.0,1.0,0.356700204429,0,0.0,0.0,0.0,0.457515499841,0.0982647277092,0.359250772131,0.55578022755,0.0982647277092,0.389182934033,217,0.891250405156,0.0735373331823,0.568048345461,nan,nan,nan,nan,nan,nan,nan,nan,709.308577948,924.250924639,nan,924.607624843,nan,nan,nan,nan
1,178,1,1,1.0,1.0,0.41489918856,0,0.0,0.0,0.0,0.456939412438,0.098277801976,0.358661610462,0.555217214414,0.098277801976,0.391371428093,62,1.0,-0.0974372467467,-1.0,nan,nan,nan,nan,nan,nan,nan,nan,709.308577948,925.192709974,nan,925.607609163,nan,nan,nan,nan
1,179,1,1,1.0,1.0,0.425068857847,0,0.0,0.0,0.0,0.45670054753,0.0980491369076,0.358651410622,0.554749684437,0.0980491369076,0.398889416945,250,0.546428449327,0.232286661223,0.654747725831,nan,nan,nan,nan,nan,nan,nan,nan,709.308577948,926.134504718,nan,926.559573576,nan,nan,nan,nan
1,180,1,1,1.0,1.0,0.451270061138,0,0.0,0.0,0.0,0.456521837419,0.0978005107433,0.358721326675,0.554322348162,0.0978005107433,0.430412702515,89,1.0,-0.229484098413,-0.587370487375,nan,nan,nan,nan,nan,nan,nan,nan,709.308577948,927.076297181,nan,927.527567242,nan,nan,nan,nan
1,181,1,1,1.0,1.0,0.453458745265,0,0.0,0.0,0.0,0.456492333058,0.0975261932202,0.358966139837,0.554018526278,0.0975261932202,0.443265888083,59,1.0,-0.0814409933332,-1.0,nan,nan,nan,nan,nan,nan,nan,nan,709.308577948,928.018088789,nan,928.471547534,nan,nan,nan,nan
1,182,1,1,1.0,1.0,0.455636595783,0,0.0,0.0,0.0,0.45647538564,0.0972536549855,0.359221730654,0.553729040625,0.0972536549855,0.453455134062,505,0.789537956352,0.240683140511,-1.0,nan,nan,nan,nan,nan,nan,nan,nan,709.308577948,928.95987726,nan,929.415513856,nan,nan,nan,nan
1,183,1,1,1.0,1.0,0.473843414278,0,0.0,0.0,0.0,0.456470725696,0.0969831497306,0.359487575965,0.553453875427,0.0969831497306,0.460979585109,348,-0.175384772129,0.468017843042,0.157582163916,nan,nan,nan,nan,nan,nan,nan,nan,709.308577948,929.901663166,nan,930.37550658,nan,nan,nan,nan
1,184,1,1,1.0,1.0,0.396004717797,0,0.0,0.0,0.0,0.456566707401,0.0967234419,0.359843265501,0.553290149301,0.0967234419,0.44182824262,421,0.121471671064,0.452518040197,-0.712610339232,nan,nan,nan,nan,nan,nan,nan,nan,709.308577948,930.843466748,nan,931.239471466,nan,nan,nan,nan
1,185,1,1,1.0,1.0,0.318209640973,0,0.0,0.0,0.0,0.456233949216,0.0965611855403,0.359672763676,0.552795134757,0.0965611855403,0.396019257683,17,0.981069150956,0.135921910835,-1.0,nan,nan,nan,nan,nan,nan,nan,nan,709.308577948,931.785261492,nan,932.103471133,nan,nan,nan,nan
1,186,1,1,1.0,1.0,0.32838444208,0,1.0,0.0,0.0,0.455479718024,0.0968330768145,0.358646641209,0.552312794838,0.0968330768145,0.347532933617,177,1.0,-0.145192147526,0.306921212481,nan,nan,nan,nan,nan,nan,nan,nan,709.308577948,932.727052814,nan,933.055437256,nan,nan,nan,nan
1,187,1,1,1.0,1.0,0.410565154918,1,0.0,0.0,1.0,0.454788982828,0.0970205998983,0.35776838293,0.551809582727,0.0970205998983,0.352386412657,481,0.589289488337,0.325611856148,-1.0,173.87462806,276.12537194,-62.0777530598,393.0,-0.0489456633786,0.475102171109,-0.327443230616,1.00878467166,709.308577948,933.668852405,934.477259153,934.07941756,936.527523622,937.531685458,935.50236074,936.519187122
1,188,0,0,0.0,1.0,0.641892275249,0,0.0,0.0,0.0,0.45454993511,0.0968123452983,0.357737589812,0.551362280408,0.0968123452983,0.460280624082,388,-0.0739633693698,0.476941921698,-0.268577162136,nan,nan,nan,nan,nan,nan,nan,nan,709.308577948,937.669393518,nan,938.311285793,nan,nan,nan,nan
1,189,1,1,1.0,1.0,0.468103856023,0,0.0,0.0,0.0,0.455557151992,0.0975188166414,0.358038335351,0.553075968634,0.0975188166414,0.506853762063,297,0.0686262056446,0.388646276542,0.544904663634,nan,nan,nan,nan,nan,nan,nan,nan,709.308577948,938.611174292,nan,939.079278148,nan,nan,nan,nan
1,190,1,1,1.0,1.0,0.422312832205,0,0.0,0.0,0.0,0.455624246666,0.097262026143,0.358362220523,0.552886272809,0.097262026143,0.510769654492,487,0.639529740128,0.306295026098,-1.0,nan,nan,nan,nan,nan,nan,nan,nan,709.308577948,939.552965899,nan,939.975278732,nan,nan,nan,nan
1,191,1,1,1.0,1.0,0.368492926878,0,0.0,0.0,0.0,0.455447058292,0.0970332628684,0.358413795423,0.55248032116,0.0970332628684,0.419636538369,266,0.373577590308,0.295207490188,0.648113769863,nan,nan,nan,nan,nan,nan,nan,nan,709.308577948,940.494757507,nan,940.863250434,nan,nan,nan,nan
1,192,1,1,1.0,1.0,0.322689358843,0,0.0,0.0,0.0,0.454986983522,0.0969815993814,0.358005384141,0.551968582904,0.0969815993814,0.371165039309,217,0.891250405156,0.0735373331823,0.568048345461,nan,nan,nan,nan,nan,nan,nan,nan,709.308577948,941.43654997,nan,941.759239329,nan,nan,nan,nan
1,193,1,1,1.0,1.0,0.332863874792,0,1.0,0.0,0.0,0.454290680234,0.0971985739861,0.357092106248,0.55148925422,0.0971985739861,0.341348720171,424,0.142174562463,0.448819569244,-0.770229420881,nan,nan,nan,nan,nan,nan,nan,nan,709.308577948,942.378342718,nan,942.711206593,nan,nan,nan,nan
1,194,1,1,1.0,1.0,0.359056240122,1,0.0,0.0,1.0,0.453654937797,0.0973390523386,0.356315885459,0.550993990136,0.0973390523386,0.338203157919,26,1.0,0.0920921692153,-1.0,53.7001907992,36.2998092008,18.0185592008,52.0,1.0,-0.0438860552364,-1.0,1.55883432116,709.308577948,943.320135466,944.128553333,943.679191706,946.720533233,947.718260445,945.145318135,946.712199868
1,195,1,1,nan,nan,nan,0,0.0,0.0,0.0,0.453162236247,0.0973237324046,0.355838503842,0.550485968652,0.0973237324046,0.345960057457,430,0.184725017221,0.440645728776,-0.941904167281,nan,nan,nan,nan,nan,nan,nan,nan,709.308577948,947.862407119,nan,nan,nan,nan,nan,nan
1,196,1,1,1.0,1.0,0.546789288463,0,0.0,0.0,0.0,0.453162236247,0.0973237324046,0.355838503842,0.550485968652,0.0973237324046,0.452922764292,127,1.0,-0.31111021432,-0.167036648065,nan,nan,nan,nan,nan,nan,nan,nan,709.308577948,948.804223245,nan,949.351012534,nan,nan,nan,nan
1,197,1,1,1.0,1.0,0.541041747492,0,0.0,0.0,0.0,0.453647350507,0.0973037312921,0.356343619215,0.550951081799,0.0973037312921,0.543915517977,198,1.0,-0.0302354974571,0.462326941081,nan,nan,nan,nan,nan,nan,nan,nan,709.308577948,949.745989194,nan,950.287030942,nan,nan,nan,nan
1,198,1,1,1.0,1.0,0.359232714691,0,0.0,0.0,0.0,0.45409783709,0.0972541977582,0.356843639331,0.551352034848,0.0972541977582,0.482354583549,379,-0.113535935895,0.478614986251,-0.165970515924,nan,nan,nan,nan,nan,nan,nan,nan,709.308577948,950.6877885,nan,951.047021214,nan,nan,nan,nan
1,199,1,1,1.0,1.0,0.401415845146,0,0.0,0.0,0.0,0.453611349283,0.0972408788987,0.356370470384,0.550852228181,0.0972408788987,0.43389676911,500,0.748145934353,0.260058294274,-1.0,nan,nan,nan,nan,nan,nan,nan,nan,709.308577948,951.629580392,nan,952.030996238,nan,nan,nan,nan
1,200,1,1,1.0,1.0,0.411603760615,0,0.0,0.0,0.0,0.45334504569,0.0970637607072,0.356281284983,0.550408806397,0.0970637607072,0.390750773484,198,1.0,-0.0302354974571,0.462326941081,nan,nan,nan,nan,nan,nan,nan,nan,709.308577948,952.57137257,nan,952.982976331,nan,nan,nan,nan
1,201,1,1,1.0,1.0,0.453787461331,0,0.0,0.0,0.0,0.453133160994,0.0968625255468,0.356270635447,0.549995686541,0.0968625255468,0.422269022364,75,1.0,-0.164714458691,-0.791355921409,nan,nan,nan,nan,nan,nan,nan,nan,709.308577948,953.513167029,nan,953.96695449,nan,nan,nan,nan
1,202,1,1,1.0,1.0,0.431974459905,0,0.0,0.0,0.0,0.453136465541,0.0966176247186,0.356518840823,0.54975409026,0.0966176247186,0.432455227283,375,-0.128556699755,0.478682433309,-0.121605159467,nan,nan,nan,nan,nan,nan,nan,nan,709.308577948,954.454962913,nan,954.886937373,nan,nan,nan,nan
1,203,1,1,1.0,1.0,0.546154379088,0,0.0,0.0,0.0,0.453030123804,0.09638617706,0.356643946744,0.549416300864,0.09638617706,0.477305433441,65,1.0,-0.113312155659,-1.0,nan,nan,nan,nan,nan,nan,nan,nan,709.308577948,955.396754236,nan,955.942908615,nan,nan,nan,nan
1,204,1,1,1.0,1.0,0.700319621421,0,0.0,1.0,0.0,0.453495745081,0.0963690172412,0.35712672784,0.549864762322,0.0963690172412,0.559482820138,383,-0.0968787136249,0.478131214543,-0.211081409456,nan,nan,nan,nan,nan,nan,nan,nan,709.308577948,956.338566371,nan,957.038885992,nan,nan,nan,nan
1,205,1,1,1.0,1.0,0.622550773493,1,0.0,0.0,1.0,0.454723724565,0.0976850566308,0.357038667934,0.552408781196,0.0976850566308,0.623008258,300,0.0433537089178,0.395748422077,0.528951029102,-117.563569327,207.563569327,-3.37393067284,295.0,0.0860222946478,0.38372732295,0.554986075565,0.875407509506,709.308577948,957.280321771,958.088754463,957.902872545,959.997308406,960.993576211,959.105544923,959.988981599
1,206,1,1,1.0,1.0,0.715522665589,0,0.0,0.0,0.0,0.45555455154,0.0981523091832,0.357402242357,0.553706860723,0.0981523091832,0.679464353501,400,-0.0107874812989,0.471427301814,-0.412692688905,nan,nan,nan,nan,nan,nan,nan,nan,709.308577948,961.139231899,nan,961.854754565,nan,nan,nan,nan
1,207,0,0,0.0,1.0,0.669766423467,0,0.0,0.0,0.0,0.456835182644,0.0995876574608,0.357247525183,0.556422840105,0.0995876574608,0.669279954183,223,0.83172397378,0.104890589731,0.593432239612,nan,nan,nan,nan,nan,nan,nan,nan,709.308577948,962.080979887,nan,962.750746311,nan,nan,nan,nan
1,208,1,1,1.0,1.0,0.495964034577,0,0.0,0.0,0.0,0.457878963236,0.100450233217,0.357428730019,0.558329196453,0.100450233217,0.627084374544,426,0.156193047225,0.446210853967,-0.81485970128,nan,nan,nan,nan,nan,nan,nan,nan,709.308577948,963.02277178,nan,963.518735815,nan,nan,nan,nan
1,209,1,1,1.0,1.0,0.442135006189,0,0.0,0.0,0.0,0.458064744072,0.10024005979,0.357824684282,0.558304803862,0.10024005979,0.535955154744,131,1.0,-0.308451667147,-0.125800503078,nan,nan,nan,nan,nan,nan,nan,nan,709.308577948,963.964563958,nan,964.406698964,nan,nan,nan,nan
1,210,0,0,0.0,1.0,0.500334845565,0,0.0,0.0,0.0,0.457987415247,0.100002591956,0.357984823291,0.557990007204,0.100002591956,0.47947796211,469,0.489482198204,0.360453357602,-1.0,nan,nan,nan,nan,nan,nan,nan,nan,709.308577948,964.906355851,nan,965.406690696,nan,nan,nan,nan
1,211,1,1,1.0,1.0,0.310532853473,0,0.0,0.0,0.0,0.458191992205,0.0998039486777,0.358388043527,0.557995940883,0.0998039486777,0.417667568409,279,0.238157575771,0.338930353633,0.618978422254,nan,nan,nan,nan,nan,nan,nan,nan,709.308577948,965.848150595,nan,966.158683448,nan,nan,nan,nan
1,212,1,1,1.0,1.0,0.48070710717,0,0.0,0.0,0.0,0.4574820925,0.10008625678,0.35739583572,0.55756834928,0.10008625678,0.430524935403,128,1.0,-0.310663006781,-0.156689791083,nan,nan,nan,nan,nan,nan,nan,nan,709.308577948,966.789939637,nan,967.270646744,nan,nan,nan,nan
1,213,1,1,1.0,1.0,0.418893672468,0,0.0,0.0,0.0,0.457593216972,0.0998593903802,0.357733826592,0.557452607352,0.0998593903802,0.403377877704,311,-0.0397249783266,0.419020224334,0.462250212202,nan,nan,nan,nan,nan,nan,nan,nan,709.308577948,967.731736091,nan,968.150629763,nan,nan,nan,nan
1,214,1,1,1.0,1.0,0.42905364855,0,0.0,0.0,0.0,0.457408933427,0.0996569633699,0.357751970057,0.557065896796,0.0996569633699,0.442884809396,161,1.0,-0.223158351501,0.167490545043,nan,nan,nan,nan,nan,nan,nan,nan,709.308577948,968.673537677,nan,969.102591326,nan,nan,nan,nan
1,215,1,1,1.0,1.0,0.391253873415,0,0.0,0.0,0.0,0.45727454819,0.099439600014,0.357834948176,0.556714148204,0.099439600014,0.413067064811,490,0.664660387652,0.296157848571,-1.0,nan,nan,nan,nan,nan,nan,nan,nan,709.308577948,969.615321872,nan,970.006575746,nan,nan,nan,nan
1,216,1,1,1.0,1.0,0.465449609619,0,0.0,0.0,0.0,0.456963129913,0.0993078773359,0.357655252577,0.556271007249,0.0993078773359,0.428585710528,412,0.0618891196837,0.462096609288,-0.571158935758,nan,nan,nan,nan,nan,nan,nan,nan,709.308577948,970.55711348,nan,971.02256309,nan,nan,nan,nan
1,217,1,1,1.0,1.0,0.531620455906,0,0.0,0.0,0.0,0.457002972541,0.0990761843826,0.357926788158,0.556079156923,0.0990761843826,0.462774646313,87,1.0,-0.220959007447,-0.612675615602,nan,nan,nan,nan,nan,nan,nan,nan,709.308577948,971.498905943,nan,972.030526399,nan,nan,nan,nan
1,218,1,1,1.0,1.0,0.501801951032,0,0.0,0.0,0.0,0.45735165237,0.0989753341223,0.358376318247,0.556326986492,0.0989753341223,0.499624005519,38,1.0,0.0306259494545,-1.0,nan,nan,nan,nan,nan,nan,nan,nan,709.308577948,972.440702112,nan,972.942504063,nan,nan,nan,nan
1,219,1,1,1.0,1.0,0.487979343045,0,0.0,0.0,0.0,0.457558397945,0.0987911969239,0.358767201021,0.556349594869,0.0987911969239,0.507133916661,1,0.854939129564,0.207877072944,-1.0,nan,nan,nan,nan,nan,nan,nan,nan,709.308577948,973.382509115,nan,973.870488458,nan,nan,nan,nan
1,220,1,1,1.0,1.0,0.458176803601,0,0.0,0.0,0.0,0.457699235653,0.0985838798769,0.359115355777,0.55628311553,0.0985838798769,0.482652699226,424,0.142174562463,0.448819569244,-0.770229420881,nan,nan,nan,nan,nan,nan,nan,nan,709.308577948,974.324283902,nan,974.782460706,nan,nan,nan,nan
1,221,1,1,1.0,1.0,0.588361172471,0,0.0,0.0,0.0,0.457701436427,0.0983564710979,0.35934496533,0.556057907525,0.0983564710979,0.511505773039,227,0.791019951953,0.125257787881,0.608066708266,nan,nan,nan,nan,nan,nan,nan,nan,709.308577948,975.266072374,nan,975.854433546,nan,nan,nan,nan
1,222,1,1,1.0,1.0,0.486530483759,0,0.0,0.0,0.0,0.458300793015,0.0985270106433,0.359773782372,0.556827803658,0.0985270106433,0.511022819943,357,-0.1717918326,0.473767524415,0.068739031695,nan,nan,nan,nan,nan,nan,nan,nan,709.308577948,976.207882798,nan,976.694413282,nan,nan,nan,nan
1,223,1,1,1.0,1.0,0.472786562401,0,0.0,0.0,0.0,0.458429695712,0.0983202282426,0.36010946747,0.556749923955,0.0983202282426,0.515892739544,409,0.0429436170054,0.464793150178,-0.529461854507,nan,nan,nan,nan,nan,nan,nan,nan,709.308577948,977.149629931,nan,977.622416493,nan,nan,nan,nan
1,224,0,0,0.0,1.0,0.538927473477,0,0.0,0.0,0.0,0.458494954197,0.0981012722882,0.360393681909,0.556596226485,0.0981012722882,0.499414839879,146,1.0,-0.278792578557,0.0248813210997,nan,nan,nan,nan,nan,nan,nan,nan,709.308577948,978.09145575,nan,978.630383224,nan,nan,nan,nan
1,225,1,1,1.0,1.0,0.421120559506,0,0.0,0.0,0.0,0.458858902248,0.0980278202801,0.360831081968,0.556886722528,0.0980278202801,0.477611531795,321,-0.0999433513493,0.43654647086,0.391174984052,nan,nan,nan,nan,nan,nan,nan,nan,709.308577948,979.033247928,nan,979.454368488,nan,nan,nan,nan
1,226,1,1,1.0,1.0,0.423306962883,0,0.0,0.0,0.0,0.458688909713,0.097839429992,0.360849479721,0.556528339705,0.097839429992,0.461118331955,273,0.299732959835,0.319577193062,0.635038033336,nan,nan,nan,nan,nan,nan,nan,nan,709.308577948,979.975038966,nan,980.398345928,nan,nan,nan,nan
1,227,1,1,nan,nan,nan,0,0.0,0.0,0.0,0.458530246275,0.0976484329471,0.360881813328,0.556178679222,0.0976484329471,0.422213761194,445,0.296953900578,0.415520102116,-1.0,nan,nan,nan,nan,nan,nan,nan,nan,709.308577948,980.91683485,nan,nan,nan,nan,nan,nan
1,228,1,1,1.0,1.0,0.507639012241,0,0.0,0.0,0.0,0.458530246275,0.0976484329471,0.360881813328,0.556178679222,0.0976484329471,0.465472987562,234,0.71814774995,0.15974031316,0.62913160129,nan,nan,nan,nan,nan,nan,nan,nan,709.308577948,981.858623607,nan,982.366262619,nan,nan,nan,nan
1,229,1,1,1.0,1.0,0.429862181598,0,0.0,0.0,0.0,0.458749481837,0.0974852134947,0.361264268342,0.556234695332,0.0974852134947,0.46875059692,411,0.0555201669072,0.463022710015,-0.557054760163,nan,nan,nan,nan,nan,nan,nan,nan,709.308577948,982.800418065,nan,983.230280247,nan,nan,nan,nan
1,230,1,1,1.0,1.0,0.440025863936,0,0.0,0.0,0.0,0.458621093836,0.0972873165596,0.361333777276,0.555908410396,0.0972873165596,0.459175685925,316,-0.0718215561597,0.428203514031,0.427892255365,nan,nan,nan,nan,nan,nan,nan,nan,709.308577948,983.742222217,nan,984.182248081,nan,nan,nan,nan
1,231,1,1,1.0,1.0,0.474230004882,0,0.0,0.0,0.0,0.458538814058,0.0970796861429,0.361459127915,0.5556185002,0.0970796861429,0.448039350139,185,1.0,-0.102214474652,0.370299946716,nan,nan,nan,nan,nan,nan,nan,nan,709.308577948,984.684002706,nan,985.158232711,nan,nan,nan,nan
1,232,1,1,1.0,1.0,0.436410558003,0,0.0,0.0,0.0,0.458607938246,0.0968711920815,0.361736746165,0.555479130328,0.0968711920815,0.450222142274,67,1.0,-0.12380466598,-1.0,nan,nan,nan,nan,nan,nan,nan,nan,709.308577948,985.625794599,nan,986.062205157,nan,nan,nan,nan
1,233,1,1,1.0,1.0,0.46259551082,0,0.0,0.0,0.0,0.458510581315,0.0966696510225,0.361840930293,0.555180232338,0.0966696510225,0.457745357902,275,0.279002393219,0.326185254474,0.630178474337,nan,nan,nan,nan,nan,nan,nan,nan,709.308577948,986.567601317,nan,987.030196828,nan,nan,nan,nan
1,234,1,1,1.0,1.0,0.440790207067,0,0.0,0.0,0.0,0.458528419435,0.0964587270507,0.362069692385,0.554987146486,0.0964587270507,0.44659875863,418,0.101175887384,0.455961754156,-0.661679309199,nan,nan,nan,nan,nan,nan,nan,nan,709.308577948,987.50938038,nan,987.950170587,nan,nan,nan,nan
1,235,1,1,1.0,1.0,0.410967425792,0,0.0,0.0,0.0,0.458451296773,0.0962558812593,0.362195415514,0.554707178032,0.0962558812593,0.43811771456,111,1.0,-0.298677811705,-0.336106236365,nan,nan,nan,nan,nan,nan,nan,nan,709.308577948,988.451175979,nan,988.862143405,nan,nan,nan,nan
1,236,1,1,1.0,1.0,0.429148870695,0,0.0,0.0,0.0,0.45824573889,0.0960978877973,0.362147851093,0.554343626687,0.0960978877973,0.426968834518,22,1.0,0.111842423158,-1.0,nan,nan,nan,nan,nan,nan,nan,nan,709.308577948,989.392966447,nan,989.822115317,nan,nan,nan,nan
1,237,1,1,1.0,1.0,0.407340715989,0,0.0,0.0,0.0,0.458120321355,0.0959095009747,0.36221082038,0.554029822329,0.0959095009747,0.415819004159,336,-0.158211608236,0.456758111158,0.268135266647,nan,nan,nan,nan,nan,nan,nan,nan,709.308577948,990.334757769,nan,990.742098485,nan,nan,nan,nan
1,238,1,1,1.0,1.0,0.345522719785,0,0.0,0.0,0.0,0.457902383134,0.0957610181026,0.362141365032,0.553663401237,0.0957610181026,0.394004102156,491,0.673033477965,0.292707709811,-1.0,nan,nan,nan,nan,nan,nan,nan,nan,709.308577948,991.27655907,nan,991.62208179,nan,nan,nan,nan
1,239,1,1,1.0,1.0,0.315713052871,0,1.0,0.0,0.0,0.457422128163,0.0958369660596,0.361585162103,0.553259094222,0.0958369660596,0.356192162881,330,-0.139766326074,0.449518327743,0.319540245599,nan,nan,nan,nan,nan,nan,nan,nan,709.308577948,992.218339274,nan,992.534052327,nan,nan,nan,nan
1,240,1,1,1.0,1.0,0.429913213884,1,0.0,0.0,1.0,0.456819110821,0.0960766856801,0.360742425141,0.552895796501,0.0960766856801,0.363716328846,70,1.0,-0.13936984996,-0.906436913284,30.4798509815,59.5201490185,10.3013990185,85.0,1.0,-0.212156452387,-0.638781227021,1.38381457113,709.308577948,993.160120904,993.968551885,993.590034118,996.385510039,997.387554749,994.985320108,996.377172968
1,241,1,1,1.0,1.0,0.670511380071,0,0.0,0.0,0.0,0.456705102783,0.0958888458645,0.360816256919,0.552593948648,0.0958888458645,0.472045882275,459,0.407758158413,0.385709174134,-1.0,nan,nan,nan,nan,nan,nan,nan,nan,709.308577948,997.527389057,nan,998.197900437,nan,nan,nan,nan
1,242,0,0,0.0,1.0,0.736725275812,0,0.0,0.0,0.0,0.457607238974,0.0966847620517,0.360922476923,0.554292001026,0.0966847620517,0.612383289922,160,1.0,-0.227501418013,0.158297521075,nan,nan,nan,nan,nan,nan,nan,nan,709.308577948,998.469173252,nan,999.205898528,nan,nan,nan,nan
1,243,1,1,1.0,1.0,0.498904802662,0,0.0,0.0,0.0,0.458780003835,0.0981561541057,0.360623849729,0.556936157941,0.0981561541057,0.635380486182,391,-0.0591907973189,0.475916278612,-0.303718712187,nan,nan,nan,nan,nan,nan,nan,nan,709.308577948,999.410974268,nan,999.909879071,nan,nan,nan,nan
1,244,1,1,1.0,1.0,0.429107531731,0,0.0,0.0,0.0,0.458947890022,0.0979848281148,0.360963061908,0.556932718137,0.0979848281148,0.554912536735,283,0.19826868328,0.351050922538,0.605825948857,nan,nan,nan,nan,nan,nan,nan,nan,709.308577948,1000.35276103,nan,1000.78186856,nan,nan,nan,nan
1,245,1,1,1.0,1.0,0.359301707998,0,0.0,0.0,0.0,0.458823555196,0.0977993711638,0.361024184032,0.55662292636,0.0977993711638,0.429104680797,335,-0.155595990888,0.455627721073,0.276893227044,nan,nan,nan,nan,nan,nan,nan,nan,709.308577948,1001.29455948,nan,1001.65386119,nan,nan,nan,nan
1,246,1,1,1.0,1.0,0.457470049907,0,0.0,0.0,0.0,0.458410601473,0.0978057092616,0.360604892212,0.556216310735,0.0978057092616,0.415293096545,280,0.228089347314,0.342018854333,0.61587222022,nan,nan,nan,nan,nan,nan,nan,nan,709.308577948,1002.2363565,nan,1002.69382655,nan,nan,nan,nan
1,247,1,1,1.0,1.0,0.4276581023,0,0.0,0.0,0.0,0.458406714897,0.0976034408083,0.360803274088,0.556010155705,0.0976034408083,0.414809953402,337,-0.160643365934,0.457858386897,0.259303564052,nan,nan,nan,nan,nan,nan,nan,nan,709.308577948,1003.17814555,nan,1003.60580365,nan,nan,nan,nan
1,248,1,1,1.0,1.0,0.645843994746,0,0.0,0.0,0.0,0.458280177396,0.0974222925002,0.360857884896,0.555702469896,0.0974222925002,0.510324048984,128,1.0,-0.310663006781,-0.156689791083,nan,nan,nan,nan,nan,nan,nan,nan,709.308577948,1004.11993259,nan,1004.76577659,nan,nan,nan,nan
1,249,1,1,1.0,1.0,0.464032396034,0,0.0,0.0,0.0,0.459048881566,0.0979581303155,0.36109075125,0.557007011881,0.0979581303155,0.512511497693,57,1.0,-0.0707313323512,-1.0,nan,nan,nan,nan,nan,nan,nan,nan,709.308577948,1005.06172306,nan,1005.52575546,nan,nan,nan,nan
1,250,0,0,0.0,1.0,0.554236003256,0,0.0,0.0,0.0,0.459069222441,0.0977585277037,0.361310694737,0.556827750145,0.0977585277037,0.554704131345,442,0.273907262724,0.421095538958,-1.0,nan,nan,nan,nan,nan,nan,nan,nan,709.308577948,1006.00352094,nan,1006.55775694,nan,nan,nan,nan
1,251,1,1,1.0,1.0,0.532392781752,0,0.0,0.0,0.0,0.459456079274,0.0977473657195,0.361708713554,0.557203444993,0.0977473657195,0.516887060347,305,0.00361192545304,0.406859252708,0.500196907155,nan,nan,nan,nan,nan,nan,nan,nan,709.308577948,1006.94531825,nan,1007.47771103,nan,nan,nan,nan
1,252,1,1,1.0,1.0,0.558577734453,0,0.0,0.0,0.0,0.459751369567,0.09765917996,0.362092189607,0.557410549527,0.09765917996,0.548402173154,8,0.91102658764,0.177400941622,-1.0,nan,nan,nan,nan,nan,nan,nan,nan,709.308577948,1007.88710729,nan,1008.44568503,nan,nan,nan,nan
1,253,1,1,1.0,1.0,0.504782632634,0,0.0,0.0,0.0,0.460149862974,0.0976631013804,0.362486761594,0.557812964354,0.0976631013804,0.531917716279,288,0.150005133015,0.365331945294,0.586687239957,nan,nan,nan,nan,nan,nan,nan,nan,709.308577948,1008.82889434,nan,1009.33367697,nan,nan,nan,nan
1,254,1,1,1.0,1.0,0.386991683976,0,0.0,0.0,0.0,0.460329111045,0.0975076613992,0.362821449646,0.557836772444,0.0975076613992,0.483450683688,466,0.464789014893,0.368385601135,-1.0,nan,nan,nan,nan,nan,nan,nan,nan,709.308577948,1009.7706868,nan,1010.15767848,nan,nan,nan,nan
1,255,0,0,0.0,1.0,0.589132643072,0,0.0,0.0,0.0,0.460035761337,0.097422484644,0.362613276693,0.557458245981,0.097422484644,0.493635653227,509,0.822386376617,0.224555004187,-1.0,nan,nan,nan,nan,nan,nan,nan,nan,709.308577948,1010.71249494,nan,1011.30162759,nan,nan,nan,nan
1,256,1,1,1.0,1.0,0.319324652548,0,0.0,0.0,0.0,0.460550091543,0.0975677256864,0.362982365856,0.558117817229,0.0975677256864,0.431816326532,137,1.0,-0.300190217086,-0.0647316600203,nan,nan,nan,nan,nan,nan,nan,nan,709.308577948,1011.65427771,nan,1011.97360237,nan,nan,nan,nan
1,257,0,0,0.0,1.0,0.5695231508,0,0.0,0.0,0.0,0.459989673134,0.0977778948605,0.362211778273,0.557767567994,0.0977778948605,0.492660148807,384,-0.0924750057551,0.477945316949,-0.222479273925,nan,nan,nan,nan,nan,nan,nan,nan,709.308577948,1012.59606675,nan,1013.16558991,nan,nan,nan,nan
1,258,1,1,1.0,1.0,0.33170524356,0,0.0,0.0,0.0,0.460422611781,0.097826182382,0.362596429399,0.558248794163,0.097826182382,0.406851015636,278,0.248285521772,0.335802812283,0.621962573991,nan,nan,nan,nan,nan,nan,nan,nan,709.308577948,1013.53786378,nan,1013.86956902,nan,nan,nan,nan
1,259,1,1,1.0,1.0,0.349891535123,0,0.0,0.0,0.0,0.459915850489,0.0979655914936,0.361950258995,0.557881441982,0.0979655914936,0.417039976494,466,0.464789014893,0.368385601135,-1.0,nan,nan,nan,nan,nan,nan,nan,nan,709.308577948,1014.47965539,nan,1014.82954692,nan,nan,nan,nan
1,260,1,1,1.0,1.0,0.384072013025,0,1.0,0.0,0.0,0.459484382585,0.098014828523,0.361469554062,0.557499211108,0.098014828523,0.355222930569,29,1.0,0.0770173926463,-1.0,nan,nan,nan,nan,nan,nan,nan,nan,709.308577948,1015.42145099,nan,1015.805523,nan,nan,nan,nan
1,261,1,1,1.0,1.0,0.530280218285,1,0.0,0.0,1.0,0.459189803017,0.0979362435343,0.361253559482,0.557126046551,0.0979362435343,0.421414588811,162,1.0,-0.218739557155,0.176632971453,66.8014094864,23.1985905136,-90.7076594864,33.0,1.0,0.0565990290419,-1.0,4.11761105288,709.308577948,1016.36323233,1017.17165134,1016.89351255,1022.33063984,1023.32978712,1018.19675521,1022.32232415
1,262,1,1,1.0,1.0,0.468818307272,0,0.0,0.0,0.0,0.459466419418,0.0978456693668,0.361620750052,0.557312088785,0.0978456693668,0.461056846194,360,-0.167709501072,0.475188317955,0.0381258551808,nan,nan,nan,nan,nan,nan,nan,nan,709.308577948,1023.47252028,nan,1023.94133859,nan,nan,nan,nan
1,263,1,1,1.0,1.0,0.406992328353,0,0.0,0.0,0.0,0.459502667046,0.0976575907373,0.361845076309,0.557160257783,0.0976575907373,0.468696951303,124,1.0,-0.311577186586,-0.198226518473,nan,nan,nan,nan,nan,nan,nan,nan,709.308577948,1024.41431531,nan,1024.82130764,nan,nan,nan,nan
1,264,1,1,1.0,1.0,0.281186182983,0,0.0,0.0,0.0,0.459299924425,0.0975232669391,0.361776657486,0.556823191364,0.0975232669391,0.385665606203,74,1.0,-0.159715158178,-0.810443278181,nan,nan,nan,nan,nan,nan,nan,nan,709.308577948,1025.35609922,nan,1025.6372854,nan,nan,nan,nan
1,265,1,1,1.0,1.0,0.283353769977,0,1.0,0.0,0.0,0.458614871574,0.0979579280675,0.360656943506,0.556572799641,0.0979579280675,0.323844093771,447,0.312467642152,0.411646472288,-1.0,nan,nan,nan,nan,nan,nan,nan,nan,709.308577948,1026.29792133,nan,1026.5812751,nan,nan,nan,nan
1,266,1,1,1.0,1.0,0.517558937252,1,0.0,0.0,1.0,0.4579433731,0.0983678147357,0.359575558364,0.556311187836,0.0983678147357,0.360699630071,387,-0.0787219327085,0.477231755363,-0.256974454483,-144.587833025,234.587833025,-37.5215419752,334.0,-0.152796554809,0.454467054946,0.285576400052,1.16710889852,709.308577948,1027.23969013,1028.0481043,1027.75724907,1030.25670497,1031.25443531,1029.07321016,1030.24837445
1,267,1,1,1.0,1.0,0.670541600266,0,0.0,0.0,0.0,0.458170913421,0.0982487047337,0.359922208688,0.556419618155,0.0982487047337,0.490484769165,303,0.0191349273956,0.402522842081,0.512018356663,nan,nan,nan,nan,nan,nan,nan,nan,709.308577948,1031.39858655,nan,1032.06912815,nan,nan,nan,nan
1,268,1,1,1.0,1.0,0.424726742378,0,0.0,0.0,0.0,0.458978406527,0.0989289700255,0.360049436502,0.557907376553,0.0989289700255,0.537609093299,177,1.0,-0.145192147526,0.306921212481,nan,nan,nan,nan,nan,nan,nan,nan,709.308577948,1032.34040439,nan,1032.76513113,nan,nan,nan,nan
1,269,1,1,1.0,1.0,0.450932792213,0,0.0,0.0,0.0,0.458848665375,0.0987638414668,0.360084823908,0.557612506842,0.0987638414668,0.515400378286,33,1.0,0.0565990290419,-1.0,nan,nan,nan,nan,nan,nan,nan,nan,709.308577948,1033.2821652,nan,1033.733098,nan,nan,nan,nan
1,270,1,1,1.0,1.0,0.333129014354,0,0.0,0.0,0.0,0.458818794156,0.0985785132784,0.360240280877,0.557397307434,0.0985785132784,0.402929516315,112,1.0,-0.300501516081,-0.325324861792,nan,nan,nan,nan,nan,nan,nan,nan,709.308577948,1034.22396308,nan,1034.5570921,nan,nan,nan,nan
1,271,1,1,1.0,1.0,0.279323649011,0,1.0,0.0,0.0,0.458346276186,0.0986932515027,0.359653024684,0.557039527689,0.0986932515027,0.354461818526,501,0.7564492333,0.256253544744,-1.0,nan,nan,nan,nan,nan,nan,nan,nan,709.308577948,1035.16574728,nan,1035.44507093,nan,nan,nan,nan
1,272,1,1,1.0,1.0,0.369502452842,1,0.0,0.0,1.0,0.457675779455,0.0991133778631,0.358562401592,0.556789157319,0.0991133778631,0.327318372069,415,0.0813077335083,0.459153678902,-0.614968023274,174.780735472,275.219264528,-16.577610472,391.0,-0.0591907973189,0.475916278612,-0.303718712187,2.21728983487,709.308577948,1036.10754601,1036.91595533,1036.47704847,1040.16637791,1041.17579692,1037.93272669,1040.1580454
1,273,1,1,1.0,1.0,0.056353840977,0,0.0,0.0,0.0,0.457346774505,0.099074255891,0.358272518614,0.556421030396,0.099074255891,0.235059980943,238,0.675741828754,0.178727669763,0.638511091232,nan,nan,nan,nan,nan,nan,nan,nan,709.308577948,1041.31657376,nan,1041.3729276,nan,nan,nan,nan
1,274,1,1,1.0,1.0,0.514492441667,0,0.0,0.0,0.0,0.455856094455,0.101856509847,0.353999584608,0.557712604302,0.101856509847,0.313449578496,403,0.00657627305109,0.469456436931,-0.450524507496,nan,nan,nan,nan,nan,nan,nan,nan,709.308577948,1042.25836252,nan,1042.77285496,nan,nan,nan,nan
1,275,1,1,1.0,1.0,0.372696671518,0,1.0,0.0,0.0,0.456073266111,0.101730086958,0.354343179153,0.557803353069,0.101730086958,0.314514318054,355,-0.173737462994,0.472683863687,0.0888799762457,nan,nan,nan,nan,nan,nan,nan,nan,709.308577948,1043.20015754,nan,1043.57285422,nan,nan,nan,nan
1,276,1,1,1.0,1.0,0.366906651179,1,0.0,0.0,1.0,0.455765603401,0.101667986969,0.354097616432,0.55743359037,0.101667986969,0.418031921455,6,0.895129075663,0.186272780825,-1.0,73.1913083738,16.8086916262,12.5899416262,24.0,1.0,0.102019060141,-1.0,1.83386499039,709.308577948,1044.14195799,1044.95037101,1044.50886464,1047.81737588,1048.81962244,1045.96713068,1047.80904251
1,277,1,1,1.0,1.0,0.573486559268,0,0.0,0.0,0.0,0.455438916076,0.101623326788,0.353815589288,0.557062242865,0.101623326788,0.437696627322,68,1.0,-0.129018143495,-0.972903198114,nan,nan,nan,nan,nan,nan,nan,nan,709.308577948,1048.95925832,nan,1049.53274488,nan,nan,nan,nan
1,278,1,1,1.0,1.0,0.423664473579,0,0.0,0.0,0.0,0.455871325026,0.101687410665,0.354183914361,0.55755873569,0.101687410665,0.454685894675,507,0.805995650865,0.232688349973,-1.0,nan,nan,nan,nan,nan,nan,nan,nan,709.308577948,1049.90105534,nan,1050.32471981,nan,nan,nan,nan
1,279,1,1,1.0,1.0,0.561839806091,0,0.0,0.0,0.0,0.455753781772,0.101520258769,0.354233523003,0.557274040542,0.101520258769,0.519663612979,319,-0.0891891826932,0.433308674125,0.406137099325,nan,nan,nan,nan,nan,nan,nan,nan,709.308577948,1050.84284438,nan,1051.40468419,nan,nan,nan,nan
1,280,1,1,1.0,1.0,0.484042163414,0,0.0,0.0,0.0,0.456139549134,0.10153650066,0.354603048473,0.557676049794,0.10153650066,0.489848814361,231,0.749609680972,0.145151270079,0.620821461523,nan,nan,nan,nan,nan,nan,nan,nan,709.308577948,1051.78464198,nan,1052.26868414,nan,nan,nan,nan
1,281,1,1,1.0,1.0,0.454234777368,0,0.0,0.0,0.0,0.456240645562,0.101366255511,0.354874390051,0.557606901074,0.101366255511,0.500038915624,295,0.0860222946478,0.38372732295,0.554986075565,nan,nan,nan,nan,nan,nan,nan,nan,709.308577948,1052.72643216,nan,1053.18066694,nan,nan,nan,nan
1,282,1,1,1.0,1.0,0.680409067543,0,0.0,0.0,0.0,0.456233404161,0.101183190014,0.355050214147,0.557416594174,0.101183190014,0.539562002775,39,1.0,0.0253789930673,-1.0,nan,nan,nan,nan,nan,nan,nan,nan,709.308577948,1053.6682232,nan,1054.34863226,nan,nan,nan,nan
1,283,1,1,1.0,1.0,0.43460162211,0,0.0,0.0,0.0,0.457039791439,0.101888824752,0.355150966687,0.558928616191,0.101888824752,0.52308182234,450,0.335949728395,0.405598329481,-1.0,nan,nan,nan,nan,nan,nan,nan,nan,709.308577948,1054.61001423,nan,1055.04461586,nan,nan,nan,nan
1,284,0,0,0.0,1.0,0.548778120137,0,0.0,0.0,0.0,0.456959367893,0.101714903633,0.35524446426,0.558674271526,0.101714903633,0.55459626993,195,1.0,-0.0469245268387,0.442396054288,nan,nan,nan,nan,nan,nan,nan,nan,709.308577948,1055.55181639,nan,1056.10059451,nan,nan,nan,nan
1,285,1,1,1.0,1.0,0.462962429738,0,0.0,0.0,0.0,0.457287292008,0.101680745227,0.355606546781,0.558968037235,0.101680745227,0.482114057328,318,-0.0835627602325,0.431640264478,0.413481556053,nan,nan,nan,nan,nan,nan,nan,nan,709.308577948,1056.49359888,nan,1056.95656131,nan,nan,nan,nan
1,286,1,1,1.0,1.0,0.361158825166,0,0.0,0.0,0.0,0.457307488228,0.101500219984,0.355807268244,0.558807708212,0.101500219984,0.457633125014,503,0.773020196022,0.248538461814,-1.0,nan,nan,nan,nan,nan,nan,nan,nan,709.308577948,1057.43538849,nan,1057.79654731,nan,nan,nan,nan
1,287,1,1,1.0,1.0,0.323343369644,0,0.0,0.0,0.0,0.456966535522,0.101481168672,0.35548536685,0.558447704194,0.101481168672,0.382488208183,197,1.0,-0.035797595552,0.455774741445,nan,nan,nan,nan,nan,nan,nan,nan,709.308577948,1058.37718323,nan,1058.7005266,nan,nan,nan,nan
1,288,0,0,0.0,1.0,0.453528308775,0,0.0,0.0,0.0,0.456494368858,0.101611548825,0.354882820033,0.558105917683,0.101611548825,0.379343501195,286,0.169078956243,0.359734776014,0.594698705761,nan,nan,nan,nan,nan,nan,nan,nan,709.308577948,1059.31897655,nan,1059.77250486,nan,nan,nan,nan
1,289,1,1,1.0,1.0,0.3917029,0,0.0,0.0,0.0,0.456483924985,0.101432649659,0.355051275325,0.557916574644,0.101432649659,0.389524859473,341,-0.168535884224,0.46196150489,0.223260112086,nan,nan,nan,nan,nan,nan,nan,nan,709.308577948,1060.26076901,nan,1060.65247191,nan,nan,nan,nan
1,290,1,1,1.0,1.0,0.377897682949,0,0.0,0.0,0.0,0.456256623143,0.101326972262,0.35492965088,0.557583595405,0.101326972262,0.407709630575,259,0.44882283482,0.268906983076,0.655011783756,nan,nan,nan,nan,nan,nan,nan,nan,709.308577948,1061.2025649,nan,1061.58046258,nan,nan,nan,nan
1,291,0,0,0.0,1.0,0.48407751543,0,0.0,0.0,0.0,0.455982640834,0.101255370526,0.354727270308,0.557238011361,0.101255370526,0.41789269946,211,0.948675772315,0.0413606888024,0.538689155053,nan,nan,nan,nan,nan,nan,nan,nan,709.308577948,1062.14435822,nan,1062.62843573,nan,nan,nan,nan
1,292,1,1,1.0,1.0,0.342262643855,0,0.0,0.0,0.0,0.456080532383,0.101092369688,0.354988162695,0.557172902071,0.101092369688,0.401412614078,278,0.248285521772,0.335802812283,0.621962573991,nan,nan,nan,nan,nan,nan,nan,nan,709.308577948,1063.08614754,nan,1063.42841019,nan,nan,nan,nan
1,293,1,1,1.0,1.0,0.456483331684,0,0.0,0.0,0.0,0.455685331381,0.101138553545,0.354546777836,0.556823884927,0.101138553545,0.427607830323,143,1.0,-0.287057525782,-0.00469998909502,nan,nan,nan,nan,nan,nan,nan,nan,709.308577948,1064.027942,nan,1064.48442533,nan,nan,nan,nan
1,294,1,1,1.0,1.0,0.370642837952,0,0.0,0.0,0.0,0.455688092628,0.100963432594,0.354724660034,0.556651525222,0.100963432594,0.389796271164,231,0.749609680972,0.145151270079,0.620821461523,nan,nan,nan,nan,nan,nan,nan,nan,709.308577948,1064.9697319,nan,1065.34037474,nan,nan,nan,nan
1,295,1,1,1.0,1.0,0.32483242749,0,0.0,0.0,0.0,0.455394833129,0.100912430618,0.354482402511,0.556307263747,0.100912430618,0.383986199042,331,-0.143297839787,0.450801753776,0.311166711333,nan,nan,nan,nan,nan,nan,nan,nan,709.308577948,1065.91153006,nan,1066.23636249,nan,nan,nan,nan
1,296,1,1,1.0,1.0,0.463020589377,0,0.0,0.0,0.0,0.454946165069,0.10102822531,0.353917939758,0.555974390379,0.10102822531,0.38616528494,126,1.0,-0.311411754845,-0.177408431044,nan,nan,nan,nan,nan,nan,nan,nan,709.308577948,1066.85331796,nan,1067.31633855,nan,nan,nan,nan
1,297,1,1,1.0,1.0,0.465188461472,0,0.0,0.0,0.0,0.454973817207,0.100856186522,0.354117630684,0.555830003729,0.100856186522,0.41768049278,33,1.0,0.0565990290419,-1.0,nan,nan,nan,nan,nan,nan,nan,nan,709.308577948,1067.79511356,nan,1068.26030203,nan,nan,nan,nan
1,298,1,1,1.0,1.0,0.347380407096,0,0.0,0.0,0.0,0.455008679474,0.100685692269,0.354322987205,0.555694371743,0.100685692269,0.425196485982,300,0.0433537089178,0.395748422077,0.528951029102,nan,nan,nan,nan,nan,nan,nan,nan,709.308577948,1068.73690888,nan,1069.08428928,nan,nan,nan,nan
1,299,1,1,1.0,1.0,0.413558950881,0,0.0,0.0,0.0,0.454642596915,0.100709452301,0.353933144614,0.555352049215,0.100709452301,0.40870927315,106,1.0,-0.287630069369,-0.390564445695,nan,nan,nan,nan,nan,nan,nan,nan,709.308577948,1069.67869963,nan,1070.09225858,nan,nan,nan,nan
1,300,1,1,1.0,1.0,0.367745974683,0,0.0,0.0,0.0,0.454503330318,0.100566967595,0.353936362723,0.555070297913,0.100566967595,0.37622844422,193,1.0,-0.0580453890011,0.428658791268,nan,nan,nan,nan,nan,nan,nan,nan,709.308577948,1070.62049038,nan,1070.98823636,nan,nan,nan,nan
1,301,1,1,1.0,1.0,0.353933630162,0,0.0,0.0,0.0,0.454210231144,0.100523080023,0.35368715112,0.554733311167,0.100523080023,0.378412851909,413,0.0683106243366,0.461143133648,-0.585495598612,nan,nan,nan,nan,nan,nan,nan,nan,709.308577948,1071.56228655,nan,1071.91622018,nan,nan,nan,nan
1,302,1,1,1.0,1.0,0.484092625498,0,0.0,0.0,0.0,0.45387259949,0.100521684126,0.353350915365,0.554394283616,0.100521684126,0.401924076781,170,1.0,-0.180990482069,0.247815061387,nan,nan,nan,nan,nan,nan,nan,nan,709.308577948,1072.50410439,nan,1072.98819701,nan,nan,nan,nan
1,303,1,1,1.0,1.0,0.382299854537,0,0.0,0.0,0.0,0.453974008974,0.100368098562,0.353605910412,0.554342107536,0.100368098562,0.406775370066,461,0.423959648591,0.380927367285,-1.0,nan,nan,nan,nan,nan,nan,nan,nan,709.308577948,1073.44586891,nan,1073.82816877,nan,nan,nan,nan
1,304,1,1,1.0,1.0,0.416484893998,0,0.0,0.0,0.0,0.453734296083,0.100285529746,0.353448766336,0.554019825829,0.100285529746,0.427625791344,93,1.0,-0.245614297951,-0.538619881923,nan,nan,nan,nan,nan,nan,nan,nan,709.308577948,1074.38765881,nan,1074.8041437,nan,nan,nan,nan
1,305,0,0,0.0,1.0,0.498678151111,0,0.0,0.0,0.0,0.453610131409,0.100141266026,0.353468865383,0.553751397435,0.100141266026,0.432487633215,43,1.0,0.00424534395127,-1.0,nan,nan,nan,nan,nan,nan,nan,nan,709.308577948,1075.32944814,nan,1075.82812629,nan,nan,nan,nan
1,306,1,1,1.0,1.0,0.468875611608,0,0.0,0.0,0.0,0.453759859049,0.100008410391,0.353751448658,0.55376826944,0.100008410391,0.461346218906,152,1.0,-0.259184487343,0.0830625546756,nan,nan,nan,nan,nan,nan,nan,nan,709.308577948,1076.27124545,nan,1076.74012106,nan,nan,nan,nan
1,307,1,1,1.0,1.0,0.367058607575,0,0.0,0.0,0.0,0.45380991121,0.0998464724815,0.353963438728,0.553656383692,0.0998464724815,0.444870790098,211,0.948675772315,0.0413606888024,0.538689155053,nan,nan,nan,nan,nan,nan,nan,nan,709.308577948,1077.21303876,nan,1077.58009737,nan,nan,nan,nan
1,308,1,1,1.0,1.0,0.369270669529,0,0.0,0.0,0.0,0.453523603277,0.0998056693848,0.353717933892,0.553329272662,0.0998056693848,0.401734962904,10,0.926811495151,0.168400576072,-1.0,nan,nan,nan,nan,nan,nan,nan,nan,709.308577948,1078.15483009,nan,1078.52410076,nan,nan,nan,nan
1,309,1,1,1.0,1.0,0.363480934349,0,0.0,0.0,0.0,0.453246455469,0.0997580990918,0.353488356377,0.553004554561,0.0997580990918,0.366603403818,353,-0.175041255135,0.471490071959,0.108799216003,nan,nan,nan,nan,nan,nan,nan,nan,709.308577948,1079.09661656,nan,1079.4600975,nan,nan,nan,nan
1,310,1,1,1.0,1.0,0.389602595707,0,0.0,0.0,0.0,0.452952142285,0.0997265382781,0.353225604007,0.552678680563,0.0997265382781,0.374118066529,4,0.879126049628,0.195014037372,-1.0,nan,nan,nan,nan,nan,nan,nan,nan,709.308577948,1080.03841416,nan,1080.42801675,nan,nan,nan,nan
1,311,1,1,1.0,1.0,0.39982985449,0,0.0,0.0,0.0,0.452745117623,0.0996290783175,0.353116039305,0.55237419594,0.0996290783175,0.384304461516,119,1.0,-0.309446327048,-0.250710895617,nan,nan,nan,nan,nan,nan,nan,nan,709.308577948,1080.98018723,nan,1081.38001709,nan,nan,nan,nan
1,312,1,1,1.0,1.0,0.4469998891,0,0.0,0.0,0.0,0.452572755202,0.0995123713172,0.353060383885,0.552085126519,0.0995123713172,0.412144113099,236,0.697004556276,0.169301754335,0.634065852989,nan,nan,nan,nan,nan,nan,nan,nan,709.308577948,1081.98897761,nan,1082.4359775,nan,nan,nan,nan
1,313,1,1,1.0,1.0,0.489496910595,0,0.0,0.0,0.0,0.452554661481,0.0993511997371,0.353203461744,0.551905861218,0.0993511997371,0.445442218062,36,1.0,0.0410699577143,-1.0,nan,nan,nan,nan,nan,nan,nan,nan,709.308577948,1082.93046587,nan,1083.41996278,nan,nan,nan,nan
1,314,1,1,1.0,1.0,0.371668899432,0,0.0,0.0,0.0,0.452674215685,0.0992124957392,0.353461719946,0.551886711425,0.0992124957392,0.436055233042,173,1.0,-0.165909522591,0.273535192888,nan,nan,nan,nan,nan,nan,nan,nan,709.308577948,1083.8722686,nan,1084.2439375,nan,nan,nan,nan
1,315,1,1,1.0,1.0,0.477849302115,0,0.0,0.0,0.0,0.452412908214,0.0991587934872,0.353254114726,0.551571701701,0.0991587934872,0.446338370714,27,1.0,0.0870912575778,-1.0,nan,nan,nan,nan,nan,nan,nan,nan,709.308577948,1084.81405194,nan,1085.29190124,nan,nan,nan,nan
1,316,1,1,1.0,1.0,0.640047702298,0,0.0,0.0,0.0,0.452494697261,0.0990097187526,0.353484978509,0.551504416014,0.0990097187526,0.496521967948,324,-0.114799643766,0.441158325109,0.368064040095,nan,nan,nan,nan,nan,nan,nan,nan,709.308577948,1085.75584469,nan,1086.39589239,nan,nan,nan,nan
1,317,0,0,0.0,1.0,0.642229829216,0,0.0,0.0,0.0,0.453095828688,0.0994177420002,0.353678086688,0.552513570688,0.0994177420002,0.586708944543,462,0.432089675478,0.378486360879,-1.0,nan,nan,nan,nan,nan,nan,nan,nan,709.308577948,1086.69763287,nan,1087.3398627,nan,nan,nan,nan
1,318,1,1,1.0,1.0,0.460409962747,0,0.0,0.0,0.0,0.45370009067,0.0998310115289,0.353869079141,0.553531102199,0.0998310115289,0.58089583142,249,0.557275547736,0.228026269286,0.654084877906,nan,nan,nan,nan,nan,nan,nan,nan,709.308577948,1087.63942705,nan,1088.09983701,nan,nan,nan,nan
1,319,1,1,1.0,1.0,0.382613175374,0,0.0,0.0,0.0,0.45372145969,0.0996726351659,0.354048824524,0.553394094856,0.0996726351659,0.495084322446,9,0.918933560847,0.172916688009,-1.0,nan,nan,nan,nan,nan,nan,nan,nan,709.308577948,1088.5812178,nan,1088.96383098,nan,nan,nan,nan
1,320,1,1,1.0,1.0,0.272787816823,0,0.0,0.0,0.0,0.453495719105,0.0995946622392,0.353901056865,0.553090381344,0.0995946622392,0.371936984981,300,0.0433537089178,0.395748422077,0.528951029102,nan,nan,nan,nan,nan,nan,nan,nan,709.308577948,1089.52301283,nan,1089.79580065,nan,nan,nan,nan
1,321,0,0,0.0,1.0,0.514985658228,0,0.0,0.0,0.0,0.452923858654,0.0999535886192,0.352970270035,0.552877447274,0.0999535886192,0.390128883475,257,0.470472903111,0.261039853404,0.655841377839,nan,nan,nan,nan,nan,nan,nan,nan,709.308577948,1090.4648013,nan,1090.97978696,nan,nan,nan,nan
1,322,1,1,1.0,1.0,0.357163485896,0,0.0,0.0,0.0,0.453119637202,0.0998564742573,0.353263162945,0.552976111459,0.0998564742573,0.381645653649,56,1.0,-0.0653675053377,-1.0,nan,nan,nan,nan,nan,nan,nan,nan,709.308577948,1091.40659262,nan,1091.76375611,nan,nan,nan,nan
1,323,1,1,1.0,1.0,0.39135109121,0,0.0,0.0,0.0,0.452817888298,0.0998439919286,0.35297389637,0.552661880227,0.0998439919286,0.421166745112,266,0.373577590308,0.295207490188,0.648113769863,nan,nan,nan,nan,nan,nan,nan,nan,709.308577948,1092.34839079,nan,1092.73974188,nan,nan,nan,nan
1,324,1,1,1.0,1.0,0.345536119246,0,0.0,0.0,0.0,0.452625202414,0.0997465746408,0.352878627773,0.552371777055,0.0997465746408,0.364683565451,209,0.967301840512,0.0304835193525,0.52804999659,nan,nan,nan,nan,nan,nan,nan,nan,709.308577948,1093.29018411,nan,1093.63572023,nan,nan,nan,nan
1,325,1,1,1.0,1.0,0.339720440272,0,0.0,0.0,0.0,0.452290549029,0.0997698004107,0.352520748618,0.55206034944,0.0997698004107,0.358869216909,317,-0.077772836126,0.429938605076,0.420733606481,nan,nan,nan,nan,nan,nan,nan,nan,709.308577948,1094.23197343,nan,1094.57169387,nan,nan,nan,nan
1,326,1,1,1.0,1.0,0.357913004002,0,1.0,0.0,0.0,0.451939863332,0.0998116097159,0.352128253616,0.551751473048,0.0998116097159,0.34772318784,195,1.0,-0.0469245268387,0.442396054288,nan,nan,nan,nan,nan,nan,nan,nan,709.308577948,1095.17376789,nan,1095.5316809,nan,nan,nan,nan
1,327,1,1,1.0,1.0,0.368124582455,1,0.0,0.0,1.0,0.451647854452,0.0997937364995,0.351854117953,0.551441590952,0.0997937364995,0.355252675576,511,0.838703193994,0.216284169582,-1.0,105.205382796,344.794617204,-14.5022577958,490.0,0.664660387652,0.296157848571,-1.0,1.16711745138,709.308577948,1096.11552614,1096.92398079,1096.48365073,1099.12423698,1100.12687098,1097.94073989,1099.11590133
1,328,1,1,1.0,1.0,0.729417117778,0,0.0,0.0,0.0,0.451389268471,0.0997471240607,0.35164214441,0.551136392531,0.0997471240607,0.485151568078,21,1.0,0.116713997928,-1.0,nan,nan,nan,nan,nan,nan,nan,nan,709.308577948,1100.26611713,nan,1100.99553425,nan,nan,nan,nan
1,329,1,1,1.0,1.0,0.483606536349,0,0.0,0.0,0.0,0.452247379117,0.10078007126,0.351467307857,0.553027450377,0.10078007126,0.527049412194,271,0.320642857732,0.312811632898,0.639400143054,nan,nan,nan,nan,nan,nan,nan,nan,709.308577948,1101.20790646,nan,1101.691513,nan,nan,nan,nan
1,330,1,1,1.0,1.0,0.49380870664,0,0.0,1.0,0.0,0.452343868831,0.100639893393,0.351703975438,0.552983762224,0.100639893393,0.568944120256,443,0.281558783006,0.419268214519,-1.0,nan,nan,nan,nan,nan,nan,nan,nan,709.308577948,1102.14969693,nan,1102.64350564,nan,nan,nan,nan
1,331,1,1,1.0,1.0,0.432006675808,1,0.0,0.0,1.0,0.452471061585,0.100511578019,0.351959483567,0.552982639604,0.100511578019,0.469807306266,176,1.0,-0.150429669724,0.298675466069,-38.6171774736,128.617177474,4.86717747363,183.0,1.0,-0.113108999915,0.354902835149,3.08404125116,709.308577948,1103.09148882,1103.89991182,1103.5234955,1108.01713087,1109.01866782,1104.91667349,1108.00876329
1,332,1,1,1.0,1.0,0.564375167305,0,0.0,0.0,0.0,0.452408479366,0.100364133903,0.352044345463,0.552772613269,0.100364133903,0.496730183251,275,0.279002393219,0.326185254474,0.630178474337,nan,nan,nan,nan,nan,nan,nan,nan,709.308577948,1109.15896484,nan,1109.72334001,nan,nan,nan,nan
1,333,1,1,1.0,1.0,0.326578357199,0,0.0,0.0,0.0,0.452749841219,0.100400964937,0.352348876282,0.553150806156,0.100400964937,0.440986733437,197,1.0,-0.035797595552,0.455774741445,nan,nan,nan,nan,nan,nan,nan,nan,709.308577948,1110.10075958,nan,1110.42733794,nan,nan,nan,nan
1,334,1,1,1.0,1.0,0.304767066322,0,0.0,0.0,0.0,0.452366341268,0.100488576828,0.35187776444,0.552854918096,0.100488576828,0.398573530275,310,-0.032854544558,0.417080732083,0.468828018046,nan,nan,nan,nan,nan,nan,nan,nan,709.308577948,1111.04255233,nan,1111.3473194,nan,nan,nan,nan
1,335,0,0,1.0,0.0,0.258940405445,0,0.0,0.0,0.0,0.451919070738,0.100663652661,0.351255418076,0.552582723399,0.100663652661,0.296761942989,83,1.0,-0.203097876184,-0.665876706514,nan,nan,nan,nan,nan,nan,nan,nan,709.308577948,1111.98434109,nan,1112.24328149,nan,nan,nan,nan
1,336,1,1,1.0,1.0,0.31708636164,0,0.0,0.0,0.0,0.451336053622,0.101067933161,0.350268120461,0.552403986783,0.101067933161,0.293597944469,300,0.0433537089178,0.395748422077,0.528951029102,nan,nan,nan,nan,nan,nan,nan,nan,709.308577948,1112.92617147,nan,1113.24325783,nan,nan,nan,nan
1,337,1,1,1.0,1.0,0.319309827522,0,0.0,0.0,0.0,0.45093168708,0.101183409878,0.349748277202,0.552115096958,0.101183409878,0.298445531536,375,-0.128556699755,0.478682433309,-0.121605159467,nan,nan,nan,nan,nan,nan,nan,nan,709.308577948,1113.86793057,nan,1114.1872404,nan,nan,nan,nan
1,338,1,1,1.0,1.0,0.297486562689,0,1.0,0.0,0.0,0.45053642624,0.101287739524,0.349248686717,0.551824165764,0.101287739524,0.311294250617,185,1.0,-0.102214474652,0.370299946716,nan,nan,nan,nan,nan,nan,nan,nan,709.308577948,1114.80972361,nan,1115.10721017,nan,nan,nan,nan
1,339,1,1,1.0,1.0,0.419686525245,1,0.0,0.0,1.0,0.450078193116,0.101481094452,0.348597098664,0.551559287568,0.101481094452,0.345494305152,87,1.0,-0.220959007447,-0.612675615602,24.1022345012,65.8977654988,4.72589049884,94.0,1.0,-0.249439013202,-0.526745155233,1.69235745253,709.308577948,1115.75151293,1116.5599271,1116.17119946,1119.29359813,1120.29724224,1117.58505776,1119.28526106
1,340,1,1,1.0,1.0,0.527618559427,0,0.0,0.0,0.0,0.449987471719,0.101343080402,0.348644391317,0.551330552122,0.101343080402,0.41493054912,397,-0.0275613476434,0.473159987783,-0.37569455347,nan,nan,nan,nan,nan,nan,nan,nan,709.308577948,1120.4354763,nan,1120.96309486,nan,nan,nan,nan
1,341,1,1,1.0,1.0,0.281809973647,0,0.0,0.0,0.0,0.450218516623,0.101280482349,0.348938034274,0.551498998972,0.101280482349,0.40970501944,31,1.0,0.0668515730764,-1.0,nan,nan,nan,nan,nan,nan,nan,nan,709.308577948,1121.37726477,nan,1121.65907474,nan,nan,nan,nan
1,342,1,1,1.0,1.0,0.291960541508,0,0.0,0.0,0.0,0.449718788009,0.10154411139,0.34817467662,0.551262899399,0.10154411139,0.367129691527,115,1.0,-0.305166285737,-0.293172749504,nan,nan,nan,nan,nan,nan,nan,nan,709.308577948,1122.31909002,nan,1122.61105056,nan,nan,nan,nan
1,343,1,1,1.0,1.0,0.318181131326,0,1.0,0.0,0.0,0.449252047635,0.101755168547,0.347496879088,0.551007216182,0.101755168547,0.297317215494,350,-0.175756816429,0.469490941964,0.138247479403,nan,nan,nan,nan,nan,nan,nan,nan,709.308577948,1123.26084542,nan,1123.57902655,nan,nan,nan,nan
1,344,1,1,1.0,1.0,0.272376137786,1,0.0,0.0,1.0,0.448865407764,0.101853320848,0.347012086916,0.550718728612,0.101853320848,0.29417260354,221,0.851781464038,0.0945411604707,0.585422935822,-37.1683104658,127.168310466,-28.2223145342,181.0,1.0,-0.123914391386,0.3392011262,1.48394779657,709.308577948,1124.2026413,1125.01105233,1124.47501744,1127.53635591,1128.53382339,1126.0361599,1127.52803765
1,345,1,1,1.0,1.0,0.596654623281,0,0.0,0.0,0.0,0.448346321676,0.102151507998,0.346194813677,0.550497829674,0.102151507998,0.395737297464,35,1.0,0.0462653595507,-1.0,nan,nan,nan,nan,nan,nan,nan,nan,709.308577948,1128.67824205,nan,1129.27489667,nan,nan,nan,nan
1,346,1,1,1.0,1.0,0.326819548558,0,0.0,0.0,0.0,0.448781243381,0.102316386564,0.346464856817,0.551097629945,0.102316386564,0.398616769875,426,0.156193047225,0.446210853967,-0.81485970128,nan,nan,nan,nan,nan,nan,nan,nan,709.308577948,1129.62002995,nan,1129.9468495,nan,nan,nan,nan
1,347,1,1,1.0,1.0,0.369014938187,0,0.0,0.0,0.0,0.448424630238,0.10237870317,0.346045927069,0.550803333408,0.10237870317,0.430829703342,173,1.0,-0.165909522591,0.273535192888,nan,nan,nan,nan,nan,nan,nan,nan,709.308577948,1130.56181956,nan,1130.9308345,nan,nan,nan,nan
1,348,1,1,1.0,1.0,0.203191823908,0,1.0,0.0,0.0,0.448193115101,0.102318970846,0.345874144255,0.550512085947,0.102318970846,0.299675436884,221,0.851781464038,0.0945411604707,0.585422935822,nan,nan,nan,nan,nan,nan,nan,nan,709.308577948,1131.50361801,nan,1131.70680984,nan,nan,nan,nan
1,349,1,1,1.0,1.0,0.293409115751,1,0.0,0.0,1.0,0.447480902045,0.103018076214,0.344462825831,0.55049897826,0.103018076214,0.288538625949,488,0.647907709101,0.302951493728,-1.0,106.939085631,343.060914369,-0.0640856310495,488.0,0.647907709101,0.302951493728,-1.0,2.15885564632,709.308577948,1132.44541076,1133.25382549,1132.73881988,1136.45422195,1137.45685453,1134.27899009,1136.4458883
1,350,1,1,1.0,1.0,0.558596265735,0,0.0,0.0,0.0,0.447034317158,0.103201594955,0.343832722202,0.550235912113,0.103201594955,0.351732401798,436,0.228681708805,0.431413732101,-1.0,nan,nan,nan,nan,nan,nan,nan,nan,709.308577948,1137.59608386,nan,1138.15468013,nan,nan,nan,nan
1,351,0,0,0.0,1.0,0.664775813115,0,0.0,0.0,0.0,0.447356750535,0.103226229913,0.344130520622,0.550582980448,0.103226229913,0.505593731534,80,1.0,-0.189075709245,-0.708965549488,nan,nan,nan,nan,nan,nan,nan,nan,709.308577948,1138.53789143,nan,1139.20266725,nan,nan,nan,nan
1,352,1,1,1.0,1.0,0.474965838308,0,0.0,0.0,0.0,0.447983318439,0.103734188303,0.344249130136,0.551717506741,0.103734188303,0.566112639053,221,0.851781464038,0.0945411604707,0.585422935822,nan,nan,nan,nan,nan,nan,nan,nan,709.308577948,1139.47968333,nan,1139.95464916,nan,nan,nan,nan
1,353,1,1,1.0,1.0,0.485148622131,0,0.0,0.0,0.0,0.448060854415,0.103595106738,0.344465747677,0.551655961154,0.103595106738,0.541630091184,167,1.0,-0.195605812978,0.221546716301,nan,nan,nan,nan,nan,nan,nan,nan,709.308577948,1140.42148121,nan,1140.90662983,nan,nan,nan,nan
1,354,0,0,nan,nan,nan,0,0.0,0.0,0.0,0.448167123091,0.103465576657,0.344701546433,0.551632699748,0.103465576657,0.480057230219,243,0.622151010882,0.20168048164,0.647463484622,nan,nan,nan,nan,nan,nan,nan,nan,709.308577948,1141.36326626,nan,nan,nan,nan,nan,nan
1,355,1,1,1.0,1.0,0.537500281585,0,0.0,0.0,0.0,0.448167123091,0.103465576657,0.344701546433,0.551632699748,0.103465576657,0.511324451858,168,1.0,-0.190790017254,0.230361799274,nan,nan,nan,nan,nan,nan,nan,nan,709.308577948,1142.30505387,nan,1142.84255415,nan,nan,nan,nan
1,356,1,1,1.0,1.0,0.555703678925,0,0.0,0.0,0.0,0.448422360686,0.103427634191,0.344994726495,0.551849994878,0.103427634191,0.546601980255,47,1.0,-0.0170755915744,-1.0,nan,nan,nan,nan,nan,nan,nan,nan,709.308577948,1143.2468546,nan,1143.80255828,nan,nan,nan,nan
1,357,1,1,1.0,1.0,0.389899951173,0,0.0,0.0,0.0,0.448728005468,0.103438365717,0.34528963975,0.552166371185,0.103438365717,0.494367970561,190,1.0,-0.0746884387243,0.407399635172,nan,nan,nan,nan,nan,nan,nan,nan,709.308577948,1144.18864507,nan,1144.57854502,nan,nan,nan,nan
1,358,1,1,1.0,1.0,0.448087246274,0,0.0,0.0,0.0,0.448560880314,0.103338777451,0.345222102862,0.551899657765,0.103338777451,0.464563625457,424,0.142174562463,0.448819569244,-0.770229420881,nan,nan,nan,nan,nan,nan,nan,nan,709.308577948,1145.13043582,nan,1145.57852307,nan,nan,nan,nan
1,359,1,1,1.0,1.0,0.450280491961,0,0.0,0.0,0.0,0.448559538574,0.103192304505,0.345367234069,0.551751843079,0.103192304505,0.429422563136,165,1.0,-0.205056383665,0.203745440608,nan,nan,nan,nan,nan,nan,nan,nan,709.308577948,1146.07222601,nan,1146.5225065,nan,nan,nan,nan
1,360,1,1,1.0,1.0,0.532445524528,0,0.0,0.0,0.0,0.448564400024,0.103046490065,0.345517909959,0.55161089009,0.103046490065,0.476937754254,41,1.0,0.0148395037771,-1.0,nan,nan,nan,nan,nan,nan,nan,nan,709.308577948,1147.01401875,nan,1147.54646428,nan,nan,nan,nan
1,361,1,1,1.0,1.0,0.454660426069,0,0.0,0.0,0.0,0.448800684882,0.102997240902,0.34580344398,0.551797925784,0.102997240902,0.479128814186,321,-0.0999433513493,0.43654647086,0.391174984052,nan,nan,nan,nan,nan,nan,nan,nan,709.308577948,1147.95581179,nan,1148.41047221,nan,nan,nan,nan
1,362,1,1,1.0,1.0,0.560839118203,0,0.0,0.0,0.0,0.448817144829,0.102852947689,0.345964197141,0.551670092518,0.102852947689,0.5159816896,19,0.99625917486,0.126374530333,-1.0,nan,nan,nan,nan,nan,nan,nan,nan,709.308577948,1148.89759712,nan,1149.45843624,nan,nan,nan,nan
1,363,0,0,0.0,1.0,0.642997308401,0,0.0,0.0,0.0,0.449130931869,0.102879294008,0.346251637861,0.552010225878,0.102879294008,0.552832284224,435,0.221263830514,0.433027056876,-1.0,nan,nan,nan,nan,nan,nan,nan,nan,709.308577948,1149.83940013,nan,1150.48239744,nan,nan,nan,nan
1,364,1,1,1.0,1.0,0.421210649947,0,0.0,0.0,0.0,0.449672458061,0.10324376467,0.346428693391,0.552916222731,0.10324376467,0.541682358851,65,1.0,-0.113312155659,-1.0,nan,nan,nan,nan,nan,nan,nan,nan,709.308577948,1150.78118633,nan,1151.20239698,nan,nan,nan,nan
1,365,1,1,1.0,1.0,0.44738305849,0,0.0,0.0,0.0,0.449593177258,0.103110782943,0.346482394315,0.552703960201,0.103110782943,0.50386367228,348,-0.175384772129,0.468017843042,0.157582163916,nan,nan,nan,nan,nan,nan,nan,nan,709.308577948,1151.72298706,nan,1152.17037011,nan,nan,nan,nan
1,366,1,1,1.0,1.0,0.401563239924,0,0.0,0.0,0.0,0.44958703804,0.102967539637,0.346619498403,0.552554577676,0.102967539637,0.423385649454,172,1.0,-0.170984061773,0.265024678188,nan,nan,nan,nan,nan,nan,nan,nan,709.308577948,1152.66477382,nan,1153.06633706,nan,nan,nan,nan
1,367,1,1,1.0,1.0,0.44375093194,0,0.0,0.0,0.0,0.449454008128,0.102855801159,0.346598206969,0.552309809287,0.102855801159,0.430899076785,379,-0.113535935895,0.478614986251,-0.165970515924,nan,nan,nan,nan,nan,nan,nan,nan,709.308577948,1153.60656628,nan,1154.05031721,nan,nan,nan,nan
1,368,1,1,1.0,1.0,0.781928431126,0,0.0,0.0,0.0,0.449438253774,0.102714073051,0.346724180723,0.552152326825,0.102714073051,0.542414200997,345,-0.173519535469,0.465595146217,0.186119282857,nan,nan,nan,nan,nan,nan,nan,nan,709.308577948,1154.54836473,nan,1155.33029316,nan,nan,nan,nan
1,369,1,1,1.0,1.0,0.728108811018,0,0.0,1.0,0.0,0.450354204676,0.104042407967,0.346311796709,0.554396612642,0.104042407967,0.651262724694,430,0.184725017221,0.440645728776,-0.941904167281,nan,nan,nan,nan,nan,nan,nan,nan,709.308577948,1155.4901495,nan,1156.21825831,nan,nan,nan,nan
1,370,1,1,1.0,1.0,0.506298489519,1,0.0,0.0,1.0,0.451117266781,0.104911609856,0.346205656925,0.556028876637,0.104911609856,0.672111910554,311,-0.0397249783266,0.419020224334,0.462250212202,-133.011362144,223.011362144,4.33948714353,317.0,-0.077772836126,0.429938605076,0.420733606481,1.41717568232,709.308577948,1156.43194738,1157.24036353,1156.93824587,1159.69900761,1160.70030366,1158.26546398,1159.69069306
