block,trial,freq_trials,correct_response,actual_response,acc,rts,probe_trials,trials_colorind0,trials_colorind1,trials_colorind2,trials_colorind3,trials_colorind4,trials_colorind5,wholereport_resp0,wholereport_resp1,wholereport_resp2,wholereport_resp3,wholereport_resp4,wholereport_resp5,wholereport_respacc0,wholereport_respacc1,wholereport_respacc2,wholereport_respacc3,wholereport_respacc4,wholereport_respacc5,wholereport_respacc_total,wholereport_respcolorind0,wholereport_respcolorind1,wholereport_respcolorind2,wholereport_respcolorind3,wholereport_respcolorind4,wholereport_respcolorind5,wholereport_resporder0,wholereport_resporder1,wholereport_resporder2,wholereport_resporder3,wholereport_resporder4,wholereport_resporder5,wholereport_rts0,wholereport_rts1,wholereport_rts2,wholereport_rts3,wholereport_rts4,wholereport_rts5,time_blockstart,time_encarray_offset,time_encarray_onset,time_response,time_iti_offset,time_iti_onset,time_memprobe_offset,time_memprobe_onset
1,1,1,1,1.0,1.0,0.5425989433715586,0,7,6,2,5,4,0,nan,nan,nan,nan,nan,nan,nan,nan,nan,nan,nan,nan,0.0,nan,nan,nan,nan,nan,nan,nan,nan,nan,nan,nan,nan,nan,nan,nan,nan,nan,nan,236.43953492814035,237.45687904534861,nan,237.99947798872017,nan,nan,nan,nan
1,2,1,1,1.0,1.0,0.34096830670023337,0,5,3,4,2,6,1,nan,nan,nan,nan,nan,nan,nan,nan,nan,nan,nan,nan,0.0,nan,nan,nan,nan,nan,nan,nan,nan,nan,nan,nan,nan,nan,nan,nan,nan,nan,nan,236.43953492814035,238.4665289841796,nan,238.80749729087984,nan,nan,nan,nan
1,3,1,1,1.0,1.0,0.33363648570957594,0,6,0,8,3,4,2,nan,nan,nan,nan,nan,nan,nan,nan,nan,nan,nan,nan,0.0,nan,nan,nan,nan,nan,nan,nan,nan,nan,nan,nan,nan,nan,nan,nan,nan,nan,nan,236.43953492814035,239.47382488303992,nan,239.8074613687495,nan,nan,nan,nan
1,4,1,1,1.0,1.0,0.4531836273818044,0,8,6,3,5,2,1,nan,nan,nan,nan,nan,nan,nan,nan,nan,nan,nan,nan,0.0,nan,nan,nan,nan,nan,nan,nan,nan,nan,nan,nan,nan,nan,nan,nan,nan,nan,nan,236.43953492814035,240.48226259248622,nan,240.93544621986803,nan,nan,nan,nan
1,5,1,1,1.0,1.0,0.4286499522422673,0,3,2,7,6,8,4,nan,nan,nan,nan,nan,nan,nan,nan,nan,nan,nan,nan,0.0,nan,nan,nan,nan,nan,nan,nan,nan,nan,nan,nan,nan,nan,nan,nan,nan,nan,nan,236.43953492814035,241.49073793465504,nan,241.9193878868973,nan,nan,nan,nan
1,6,1,1,1.0,1.0,0.684166066304897,0,2,3,6,5,7,0,nan,nan,nan,nan,nan,nan,nan,nan,nan,nan,nan,nan,0.0,nan,nan,nan,nan,nan,nan,nan,nan,nan,nan,nan,nan,nan,nan,nan,nan,nan,nan,236.43953492814035,242.49920215806924,nan,243.18336822437414,nan,nan,nan,nan
1,7,0,0,nan,nan,nan,0,1,6,2,7,4,3,nan,nan,nan,nan,nan,nan,nan,nan,nan,nan,nan,nan,0.0,nan,nan,nan,nan,nan,nan,nan,nan,nan,nan,nan,nan,nan,nan,nan,nan,nan,nan,236.43953492814035,243.50765896897065,nan,nan,nan,nan,nan,nan
1,8,1,1,0.0,0.0,0.1792123759223614,0,4,2,1,0,3,8,nan,nan,nan,nan,nan,nan,nan,nan,nan,nan,nan,nan,0.0,nan,nan,nan,nan,nan,nan,nan,nan,nan,nan,nan,nan,nan,nan,nan,nan,nan,nan,236.43953492814035,244.51612461786135,nan,244.6953369937837,nan,nan,nan,nan
1,9,1,1,nan,nan,nan,0,1,6,5,8,7,0,nan,nan,nan,nan,nan,nan,nan,nan,nan,nan,nan,nan,0.0,nan,nan,nan,nan,nan,nan,nan,nan,nan,nan,nan,nan,nan,nan,nan,nan,nan,nan,236.43953492814035,245.52458313935495,nan,nan,nan,nan,nan,nan
1,10,1,1,1.0,1.0,0.042265808369847946,0,0,4,2,7,3,8,nan,nan,nan,nan,nan,nan,nan,nan,nan,nan,nan,nan,0.0,nan,nan,nan,nan,nan,nan,nan,nan,nan,nan,nan,nan,nan,nan,nan,nan,nan,nan,236.43953492814035,246.53304736276914,nan,246.575313171139,nan,nan,nan,nan
1,11,1,1,nan,nan,nan,0,2,6,4,8,0,5,nan,nan,nan,nan,nan,nan,nan,nan,nan,nan,nan,nan,0.0,nan,nan,nan,nan,nan,nan,nan,nan,nan,nan,nan,nan,nan,nan,nan,nan,nan,nan,236.43953492814035,247.54151073087996,nan,nan,nan,nan,nan,nan
1,12,1,1,1.0,1.0,0.4732392952864757,0,8,2,7,1,4,0,nan,nan,nan,nan,nan,nan,nan,nan,nan,nan,nan,nan,0.0,nan,nan,nan,nan,nan,nan,nan,nan,nan,nan,nan,nan,nan,nan,nan,nan,nan,nan,236.43953492814035,248.5499678268825,nan,249.02320712216897,nan,nan,nan,nan
1,13,1,1,nan,nan,nan,0,4,3,0,8,1,7,nan,nan,nan,nan,nan,nan,nan,nan,nan,nan,nan,nan,0.0,nan,nan,nan,nan,nan,nan,nan,nan,nan,nan,nan,nan,nan,nan,nan,nan,nan,nan,236.43953492814035,249.55846170031873,nan,nan,nan,nan,nan,nan
1,14,1,1,nan,nan,nan,0,5,4,1,7,3,6,nan,nan,nan,nan,nan,nan,nan,nan,nan,nan,nan,nan,0.0,nan,nan,nan,nan,nan,nan,nan,nan,nan,nan,nan,nan,nan,nan,nan,nan,nan,nan,236.43953492814035,250.56689456313325,nan,nan,nan,nan,nan,nan
1,15,1,1,1.0,1.0,0.4637974767247215,0,1,5,2,4,0,8,nan,nan,nan,nan,nan,nan,nan,nan,nan,nan,nan,nan,0.0,nan,nan,nan,nan,nan,nan,nan,nan,nan,nan,nan,nan,nan,nan,nan,nan,nan,nan,236.43953492814035,251.57535108894808,nan,252.0391485656728,nan,nan,nan,nan
1,16,1,1,1.0,1.0,0.4473217627964914,0,3,2,6,1,7,0,nan,nan,nan,nan,nan,nan,nan,nan,nan,nan,nan,nan,0.0,nan,nan,nan,nan,nan,nan,nan,nan,nan,nan,nan,nan,nan,nan,nan,nan,nan,nan,236.43953492814035,252.58382215465826,nan,253.03114391745476,nan,nan,nan,nan
1,17,1,1,1.0,1.0,0.5588260533550056,0,1,6,7,2,3,5,nan,nan,nan,nan,nan,nan,nan,nan,nan,nan,nan,nan,0.0,nan,nan,nan,nan,nan,nan,nan,nan,nan,nan,nan,nan,nan,nan,nan,nan,nan,nan,236.43953492814035,253.5922823867295,nan,254.1511084400845,nan,nan,nan,nan
1,18,1,1,1.0,1.0,0.6783270094165346,0,5,7,2,6,8,4,nan,nan,nan,nan,nan,nan,nan,nan,nan,nan,nan,nan,0.0,nan,nan,nan,nan,nan,nan,nan,nan,nan,nan,nan,nan,nan,nan,nan,nan,nan,nan,236.43953492814035,254.600758299086,nan,255.27908530850254,nan,nan,nan,nan
1,19,1,1,nan,nan,nan,1,6,8,3,0,5,1,1.0,1.0,1.0,1.0,1.0,1.0,0.0,0.0,0.0,0.0,0.0,0.0,0.0,0.0,1.0,2.0,5.0,7.0,3.0,1.0,2.0,3.0,4.0,5.0,6.0,9.959160243204678,11.23296699411003,12.201047899885452,13.286973637426854,14.078859911387553,14.815172937975149,236.43953492814035,255.609208552778,256.41763012578303,nan,272.2779765690793,273.2775474991795,257.42608151986497,272.26968140776444
1,20,0,0,nan,nan,nan,0,3,2,0,5,6,7,nan,nan,nan,nan,nan,nan,nan,nan,nan,nan,nan,nan,0.0,nan,nan,nan,nan,nan,nan,nan,nan,nan,nan,nan,nan,nan,nan,nan,nan,nan,nan,236.43953492814035,273.48650767607614,nan,nan,nan,nan,nan,nan
1,21,1,1,nan,nan,nan,0,7,5,6,2,8,4,nan,nan,nan,nan,nan,nan,nan,nan,nan,nan,nan,nan,0.0,nan,nan,nan,nan,nan,nan,nan,nan,nan,nan,nan,nan,nan,nan,nan,nan,nan,nan,236.43953492814035,274.4949510874576,nan,nan,nan,nan,nan,nan
1,22,1,1,1.0,1.0,0.775147416148684,0,8,2,1,7,0,3,nan,nan,nan,nan,nan,nan,nan,nan,nan,nan,nan,nan,0.0,nan,nan,nan,nan,nan,nan,nan,nan,nan,nan,nan,nan,nan,nan,nan,nan,nan,nan,236.43953492814035,275.5034138853953,nan,276.27856130154396,nan,nan,nan,nan
1,23,0,0,nan,nan,nan,0,4,1,7,2,6,0,nan,nan,nan,nan,nan,nan,nan,nan,nan,nan,nan,nan,0.0,nan,nan,nan,nan,nan,nan,nan,nan,nan,nan,nan,nan,nan,nan,nan,nan,nan,nan,236.43953492814035,276.5118852362066,nan,nan,nan,nan,nan,nan
1,24,1,1,0.0,0.0,0.126246048923349,0,7,5,6,3,2,8,nan,nan,nan,nan,nan,nan,nan,nan,nan,nan,nan,nan,0.0,nan,nan,nan,nan,nan,nan,nan,nan,nan,nan,nan,nan,nan,nan,nan,nan,nan,nan,236.43953492814035,277.52030612497765,nan,277.646552173901,nan,nan,nan,nan
1,25,1,1,1.0,1.0,0.669692868628772,0,3,8,4,1,6,2,nan,nan,nan,nan,nan,nan,nan,nan,nan,nan,nan,nan,0.0,nan,nan,nan,nan,nan,nan,nan,nan,nan,nan,nan,nan,nan,nan,nan,nan,nan,nan,236.43953492814035,278.5288188147679,nan,279.19851168339665,nan,nan,nan,nan
1,26,1,1,1.0,1.0,0.7972546368837357,0,2,3,7,4,1,5,nan,nan,nan,nan,nan,nan,nan,nan,nan,nan,nan,nan,0.0,nan,nan,nan,nan,nan,nan,nan,nan,nan,nan,nan,nan,nan,nan,nan,nan,nan,nan,236.43953492814035,279.5372619410482,nan,280.33451657793194,nan,nan,nan,nan
1,27,1,1,nan,nan,nan,0,6,2,5,0,4,1,nan,nan,nan,nan,nan,nan,nan,nan,nan,nan,nan,nan,0.0,nan,nan,nan,nan,nan,nan,nan,nan,nan,nan,nan,nan,nan,nan,nan,nan,nan,nan,236.43953492814035,280.55405525222886,nan,nan,nan,nan,nan,nan
1,28,1,1,nan,nan,nan,0,3,8,4,2,1,0,nan,nan,nan,nan,nan,nan,nan,nan,nan,nan,nan,nan,0.0,nan,nan,nan,nan,nan,nan,nan,nan,nan,nan,nan,nan,nan,nan,nan,nan,nan,nan,236.43953492814035,281.56249467226735,nan,nan,nan,nan,nan,nan
1,29,0,0,nan,nan,nan,0,2,6,0,5,4,1,nan,nan,nan,nan,nan,nan,nan,nan,nan,nan,nan,nan,0.0,nan,nan,nan,nan,nan,nan,nan,nan,nan,nan,nan,nan,nan,nan,nan,nan,nan,nan,236.43953492814035,282.5709865500103,nan,nan,nan,nan,nan,nan
1,30,1,1,1.0,1.0,0.010989891336066648,0,3,5,7,1,6,8,nan,nan,nan,nan,nan,nan,nan,nan,nan,nan,nan,nan,0.0,nan,nan,nan,nan,nan,nan,nan,nan,nan,nan,nan,nan,nan,nan,nan,nan,nan,nan,236.43953492814035,283.5794445013162,nan,283.59043439265224,nan,nan,nan,nan
1,31,1,1,nan,nan,nan,0,7,1,6,3,5,0,nan,nan,nan,nan,nan,nan,nan,nan,nan,nan,nan,nan,0.0,nan,nan,nan,nan,nan,nan,nan,nan,nan,nan,nan,nan,nan,nan,nan,nan,nan,nan,236.43953492814035,284.58791129058227,nan,nan,nan,nan,nan,nan
1,32,1,1,1.0,1.0,0.6339680241653696,0,4,7,2,8,1,5,nan,nan,nan,nan,nan,nan,nan,nan,nan,nan,nan,nan,0.0,nan,nan,nan,nan,nan,nan,nan,nan,nan,nan,nan,nan,nan,nan,nan,nan,nan,nan,236.43953492814035,285.5963817861193,nan,286.2303498102847,nan,nan,nan,nan
1,33,1,1,1.0,1.0,0.4975229409901658,0,8,3,4,0,2,6,nan,nan,nan,nan,nan,nan,nan,nan,nan,nan,nan,nan,0.0,nan,nan,nan,nan,nan,nan,nan,nan,nan,nan,nan,nan,nan,nan,nan,nan,nan,nan,236.43953492814035,286.60483432057663,nan,287.1023572615668,nan,nan,nan,nan
1,34,1,1,1.0,1.0,0.4650362200627569,0,5,0,2,3,6,4,nan,nan,nan,nan,nan,nan,nan,nan,nan,nan,nan,nan,0.0,nan,nan,nan,nan,nan,nan,nan,nan,nan,nan,nan,nan,nan,nan,nan,nan,nan,nan,236.43953492814035,287.6132982588897,nan,288.07833447895246,nan,nan,nan,nan
1,35,1,1,1.0,1.0,0.7845784010423813,0,0,1,3,5,4,8,nan,nan,nan,nan,nan,nan,nan,nan,nan,nan,nan,nan,0.0,nan,nan,nan,nan,nan,nan,nan,nan,nan,nan,nan,nan,nan,nan,nan,nan,nan,nan,236.43953492814035,288.6217231390183,nan,289.40630154006067,nan,nan,nan,nan
1,36,1,1,1.0,1.0,0.7121408535313094,0,4,0,1,2,7,5,nan,nan,nan,nan,nan,nan,nan,nan,nan,nan,nan,nan,0.0,nan,nan,nan,nan,nan,nan,nan,nan,nan,nan,nan,nan,nan,nan,nan,nan,nan,nan,236.43953492814035,289.63021672733885,nan,290.34235758087016,nan,nan,nan,nan
1,37,1,1,nan,nan,nan,0,5,6,4,8,0,1,nan,nan,nan,nan,nan,nan,nan,nan,nan,nan,nan,nan,0.0,nan,nan,nan,nan,nan,nan,nan,nan,nan,nan,nan,nan,nan,nan,nan,nan,nan,nan,236.43953492814035,290.63868152094074,nan,nan,nan,nan,nan,nan
1,38,1,1,1.0,1.0,0.5430770498351194,0,4,3,2,6,1,0,nan,nan,nan,nan,nan,nan,nan,nan,nan,nan,nan,nan,0.0,nan,nan,nan,nan,nan,nan,nan,nan,nan,nan,nan,nan,nan,nan,nan,nan,nan,nan,236.43953492814035,291.6471534419543,nan,292.1902304917894,nan,nan,nan,nan
1,39,1,1,1.0,1.0,0.4939446975913597,0,2,6,4,1,3,7,nan,nan,nan,nan,nan,nan,nan,nan,nan,nan,nan,nan,0.0,nan,nan,nan,nan,nan,nan,nan,nan,nan,nan,nan,nan,nan,nan,nan,nan,nan,nan,236.43953492814035,292.67227954717237,nan,293.1662242447637,nan,nan,nan,nan
1,40,0,0,0.0,1.0,0.6134428027144168,0,4,2,8,6,1,5,nan,nan,nan,nan,nan,nan,nan,nan,nan,nan,nan,nan,0.0,nan,nan,nan,nan,nan,nan,nan,nan,nan,nan,nan,nan,nan,nan,nan,nan,nan,nan,236.43953492814035,293.68073521768383,nan,294.29417802039825,nan,nan,nan,nan
1,41,1,1,nan,nan,nan,0,2,1,6,7,5,0,nan,nan,nan,nan,nan,nan,nan,nan,nan,nan,nan,nan,0.0,nan,nan,nan,nan,nan,nan,nan,nan,nan,nan,nan,nan,nan,nan,nan,nan,nan,nan,236.43953492814035,294.6892037175421,nan,nan,nan,nan,nan,nan
1,42,1,1,nan,nan,nan,0,4,6,0,1,7,2,nan,nan,nan,nan,nan,nan,nan,nan,nan,nan,nan,nan,0.0,nan,nan,nan,nan,nan,nan,nan,nan,nan,nan,nan,nan,nan,nan,nan,nan,nan,nan,236.43953492814035,295.6976613837469,nan,nan,nan,nan,nan,nan
1,43,1,1,1.0,1.0,0.6039471009571571,0,5,2,4,3,8,0,nan,nan,nan,nan,nan,nan,nan,nan,nan,nan,nan,nan,0.0,nan,nan,nan,nan,nan,nan,nan,nan,nan,nan,nan,nan,nan,nan,nan,nan,nan,nan,236.43953492814035,296.7061313090817,nan,297.31007841003884,nan,nan,nan,nan
1,44,1,1,1.0,1.0,0.603501495483215,0,8,0,5,2,7,1,nan,nan,nan,nan,nan,nan,nan,nan,nan,nan,nan,nan,0.0,nan,nan,nan,nan,nan,nan,nan,nan,nan,nan,nan,nan,nan,nan,nan,nan,nan,nan,236.43953492814035,297.7145844137267,nan,298.3180859092099,nan,nan,nan,nan
1,45,1,1,1.0,1.0,0.587008675764082,0,1,3,2,7,5,0,nan,nan,nan,nan,nan,nan,nan,nan,nan,nan,nan,nan,0.0,nan,nan,nan,nan,nan,nan,nan,nan,nan,nan,nan,nan,nan,nan,nan,nan,nan,nan,236.43953492814035,298.7230534837872,nan,299.3100621595513,nan,nan,nan,nan
1,46,1,1,1.0,1.0,0.5705683137784945,0,6,7,5,3,2,8,nan,nan,nan,nan,nan,nan,nan,nan,nan,nan,nan,nan,0.0,nan,nan,nan,nan,nan,nan,nan,nan,nan,nan,nan,nan,nan,nan,nan,nan,nan,nan,236.43953492814035,299.7314852062118,nan,300.3020535199903,nan,nan,nan,nan
1,47,1,1,1.0,1.0,0.37805192002269905,0,0,2,1,4,7,5,nan,nan,nan,nan,nan,nan,nan,nan,nan,nan,nan,nan,0.0,nan,nan,nan,nan,nan,nan,nan,nan,nan,nan,nan,nan,nan,nan,nan,nan,nan,nan,236.43953492814035,300.73997651376703,nan,301.11802843378973,nan,nan,nan,nan
1,48,1,1,1.0,1.0,0.36957144613552373,0,5,4,3,8,2,0,nan,nan,nan,nan,nan,nan,nan,nan,nan,nan,nan,nan,0.0,nan,nan,nan,nan,nan,nan,nan,nan,nan,nan,nan,nan,nan,nan,nan,nan,nan,nan,236.43953492814035,301.7484216357261,nan,302.11799308186164,nan,nan,nan,nan
1,49,1,1,1.0,1.0,0.34508481186639983,0,2,7,0,6,3,8,nan,nan,nan,nan,nan,nan,nan,nan,nan,nan,nan,nan,0.0,nan,nan,nan,nan,nan,nan,nan,nan,nan,nan,nan,nan,nan,nan,nan,nan,nan,nan,236.43953492814035,302.75690068415133,nan,303.10198549601773,nan,nan,nan,nan
1,50,1,1,1.0,1.0,0.33658552161068656,0,7,0,3,1,5,4,nan,nan,nan,nan,nan,nan,nan,nan,nan,nan,nan,nan,0.0,nan,nan,nan,nan,nan,nan,nan,nan,nan,nan,nan,nan,nan,nan,nan,nan,nan,nan,236.43953492814035,303.7653603460203,nan,304.101945867631,nan,nan,nan,nan
1,51,1,1,1.0,1.0,0.7441109799983678,0,5,3,2,4,1,8,nan,nan,nan,nan,nan,nan,nan,nan,nan,nan,nan,nan,0.0,nan,nan,nan,nan,nan,nan,nan,nan,nan,nan,nan,nan,nan,nan,nan,nan,nan,nan,236.43953492814035,304.7738197227882,nan,305.51793070278654,nan,nan,nan,nan
1,52,1,1,1.0,1.0,0.5756062501168344,0,6,2,4,0,8,5,nan,nan,nan,nan,nan,nan,nan,nan,nan,nan,nan,nan,0.0,nan,nan,nan,nan,nan,nan,nan,nan,nan,nan,nan,nan,nan,nan,nan,nan,nan,nan,236.43953492814035,305.7822922139894,nan,306.35789846410626,nan,nan,nan,nan
1,53,1,1,1.0,1.0,0.3351397983788047,0,7,8,3,5,2,1,nan,nan,nan,nan,nan,nan,nan,nan,nan,nan,nan,nan,0.0,nan,nan,nan,nan,nan,nan,nan,nan,nan,nan,nan,nan,nan,nan,nan,nan,nan,nan,236.43953492814035,306.7907490249054,nan,307.1258888232842,nan,nan,nan,nan
1,54,1,1,1.0,1.0,0.3506573037157068,0,4,2,7,6,5,3,nan,nan,nan,nan,nan,nan,nan,nan,nan,nan,nan,nan,0.0,nan,nan,nan,nan,nan,nan,nan,nan,nan,nan,nan,nan,nan,nan,nan,nan,nan,nan,236.43953492814035,307.7992106824531,nan,308.14986798616883,nan,nan,nan,nan
1,55,1,1,1.0,1.0,0.6061394913413096,0,8,7,0,3,1,4,nan,nan,nan,nan,nan,nan,nan,nan,nan,nan,nan,nan,0.0,nan,nan,nan,nan,nan,nan,nan,nan,nan,nan,nan,nan,nan,nan,nan,nan,nan,nan,236.43953492814035,308.80769742846314,nan,309.41383691980445,nan,nan,nan,nan
1,56,1,1,1.0,1.0,0.44572636402153876,0,2,5,4,1,6,8,nan,nan,nan,nan,nan,nan,nan,nan,nan,nan,nan,nan,0.0,nan,nan,nan,nan,nan,nan,nan,nan,nan,nan,nan,nan,nan,nan,nan,nan,nan,nan,236.43953492814035,309.81610349223774,nan,310.2618298562593,nan,nan,nan,nan
1,57,1,1,1.0,1.0,0.3971875822317088,0,7,1,3,0,5,4,nan,nan,nan,nan,nan,nan,nan,nan,nan,nan,nan,nan,0.0,nan,nan,nan,nan,nan,nan,nan,nan,nan,nan,nan,nan,nan,nan,nan,nan,nan,nan,236.43953492814035,310.82459736565943,nan,311.22178494789114,nan,nan,nan,nan
1,58,1,1,1.0,1.0,0.6447207154124044,0,0,8,5,4,7,2,nan,nan,nan,nan,nan,nan,nan,nan,nan,nan,nan,nan,0.0,nan,nan,nan,nan,nan,nan,nan,nan,nan,nan,nan,nan,nan,nan,nan,nan,nan,nan,236.43953492814035,311.8330698568607,nan,312.4777905722731,nan,nan,nan,nan
1,59,1,1,nan,nan,nan,0,3,7,0,5,4,8,nan,nan,nan,nan,nan,nan,nan,nan,nan,nan,nan,nan,0.0,nan,nan,nan,nan,nan,nan,nan,nan,nan,nan,nan,nan,nan,nan,nan,nan,nan,nan,236.43953492814035,312.84152068074036,nan,nan,nan,nan,nan,nan
1,60,1,1,1.0,1.0,0.5556968365999637,0,7,2,6,4,1,5,nan,nan,nan,nan,nan,nan,nan,nan,nan,nan,nan,nan,0.0,nan,nan,nan,nan,nan,nan,nan,nan,nan,nan,nan,nan,nan,nan,nan,nan,nan,nan,236.43953492814035,313.84998005752277,nan,314.40567689412273,nan,nan,nan,nan
1,61,1,1,nan,nan,nan,0,5,6,2,0,8,7,nan,nan,nan,nan,nan,nan,nan,nan,nan,nan,nan,nan,0.0,nan,nan,nan,nan,nan,nan,nan,nan,nan,nan,nan,nan,nan,nan,nan,nan,nan,nan,236.43953492814035,314.8584166265937,nan,nan,nan,nan,nan,nan
1,62,1,1,1.0,1.0,0.10681702263536863,0,2,8,4,5,3,1,nan,nan,nan,nan,nan,nan,nan,nan,nan,nan,nan,nan,0.0,nan,nan,nan,nan,nan,nan,nan,nan,nan,nan,nan,nan,nan,nan,nan,nan,nan,nan,236.43953492814035,315.8668865519285,nan,315.97370357456384,nan,nan,nan,nan
1,63,0,0,0.0,1.0,0.7782763478171546,0,6,5,8,7,0,3,nan,nan,nan,nan,nan,nan,nan,nan,nan,nan,nan,nan,0.0,nan,nan,nan,nan,nan,nan,nan,nan,nan,nan,nan,nan,nan,nan,nan,nan,nan,nan,236.43953492814035,316.8753573325521,nan,317.65363368036924,nan,nan,nan,nan
1,64,1,1,1.0,1.0,0.6657930366345681,0,1,2,0,8,5,7,nan,nan,nan,nan,nan,nan,nan,nan,nan,nan,nan,nan,0.0,nan,nan,nan,nan,nan,nan,nan,nan,nan,nan,nan,nan,nan,nan,nan,nan,nan,nan,236.43953492814035,317.88382925356564,nan,318.5496222902002,nan,nan,nan,nan
1,65,1,1,1.0,1.0,0.7293281677702907,0,5,0,1,3,4,8,nan,nan,nan,nan,nan,nan,nan,nan,nan,nan,nan,nan,0.0,nan,nan,nan,nan,nan,nan,nan,nan,nan,nan,nan,nan,nan,nan,nan,nan,nan,nan,236.43953492814035,318.89229062601225,nan,319.62161879378255,nan,nan,nan,nan
1,66,1,1,1.0,1.0,0.5288276527426206,0,1,3,5,4,0,7,nan,nan,nan,nan,nan,nan,nan,nan,nan,nan,nan,nan,0.0,nan,nan,nan,nan,nan,nan,nan,nan,nan,nan,nan,nan,nan,nan,nan,nan,nan,nan,236.43953492814035,319.900755134513,nan,320.42958278725564,nan,nan,nan,nan
1,67,1,1,1.0,1.0,0.4083473909558961,0,4,6,3,1,7,5,nan,nan,nan,nan,nan,nan,nan,nan,nan,nan,nan,nan,0.0,nan,nan,nan,nan,nan,nan,nan,nan,nan,nan,nan,nan,nan,nan,nan,nan,nan,nan,236.43953492814035,320.90922163869254,nan,321.31756902964844,nan,nan,nan,nan
1,68,1,1,nan,nan,nan,0,6,7,1,2,4,8,nan,nan,nan,nan,nan,nan,nan,nan,nan,nan,nan,nan,0.0,nan,nan,nan,nan,nan,nan,nan,nan,nan,nan,nan,nan,nan,nan,nan,nan,nan,nan,236.43953492814035,321.9176875726844,nan,nan,nan,nan,nan,nan
1,69,0,0,0.0,1.0,0.6313169138738886,0,4,3,0,6,5,7,nan,nan,nan,nan,nan,nan,nan,nan,nan,nan,nan,nan,0.0,nan,nan,nan,nan,nan,nan,nan,nan,nan,nan,nan,nan,nan,nan,nan,nan,nan,nan,236.43953492814035,322.9262065345829,nan,323.5575234484568,nan,nan,nan,nan
1,70,1,1,1.0,1.0,0.542871780518908,0,6,4,5,1,7,2,nan,nan,nan,nan,nan,nan,nan,nan,nan,nan,nan,nan,0.0,nan,nan,nan,nan,nan,nan,nan,nan,nan,nan,nan,nan,nan,nan,nan,nan,nan,nan,236.43953492814035,323.934604615657,nan,324.4774763961759,nan,nan,nan,nan
1,71,0,0,nan,nan,nan,0,8,7,1,3,4,5,nan,nan,nan,nan,nan,nan,nan,nan,nan,nan,nan,nan,0.0,nan,nan,nan,nan,nan,nan,nan,nan,nan,nan,nan,nan,nan,nan,nan,nan,nan,nan,236.43953492814035,324.9430651328148,nan,nan,nan,nan,nan,nan
1,72,1,1,1.0,1.0,0.045941554693854414,0,5,4,2,7,0,8,nan,nan,nan,nan,nan,nan,nan,nan,nan,nan,nan,nan,0.0,nan,nan,nan,nan,nan,nan,nan,nan,nan,nan,nan,nan,nan,nan,nan,nan,nan,nan,236.43953492814035,325.95152736055024,nan,325.9974689152441,nan,nan,nan,nan
1,73,1,1,1.0,1.0,0.733525640287553,0,4,1,7,6,2,5,nan,nan,nan,nan,nan,nan,nan,nan,nan,nan,nan,nan,0.0,nan,nan,nan,nan,nan,nan,nan,nan,nan,nan,nan,nan,nan,nan,nan,nan,nan,nan,236.43953492814035,326.9599875926069,nan,327.6935132328945,nan,nan,nan,nan
1,74,1,1,1.0,1.0,0.700963653929648,0,6,2,1,5,3,0,nan,nan,nan,nan,nan,nan,nan,nan,nan,nan,nan,nan,0.0,nan,nan,nan,nan,nan,nan,nan,nan,nan,nan,nan,nan,nan,nan,nan,nan,nan,nan,236.43953492814035,327.9684503905446,nan,328.66941404447425,nan,nan,nan,nan
1,75,1,1,1.0,1.0,0.5884444206167245,0,7,6,4,8,5,2,nan,nan,nan,nan,nan,nan,nan,nan,nan,nan,nan,nan,0.0,nan,nan,nan,nan,nan,nan,nan,nan,nan,nan,nan,nan,nan,nan,nan,nan,nan,nan,236.43953492814035,328.9769160394353,nan,329.56536046005203,nan,nan,nan,nan
1,76,1,1,nan,nan,nan,0,4,5,3,1,0,6,nan,nan,nan,nan,nan,nan,nan,nan,nan,nan,nan,nan,0.0,nan,nan,nan,nan,nan,nan,nan,nan,nan,nan,nan,nan,nan,nan,nan,nan,nan,nan,236.43953492814035,329.9853893859254,nan,nan,nan,nan,nan,nan
1,77,1,1,nan,nan,nan,0,1,2,5,6,4,8,nan,nan,nan,nan,nan,nan,nan,nan,nan,nan,nan,nan,0.0,nan,nan,nan,nan,nan,nan,nan,nan,nan,nan,nan,nan,nan,nan,nan,nan,nan,nan,236.43953492814035,330.9938384992274,nan,nan,nan,nan,nan,nan
1,78,1,1,nan,nan,nan,0,7,1,4,3,5,0,nan,nan,nan,nan,nan,nan,nan,nan,nan,nan,nan,nan,0.0,nan,nan,nan,nan,nan,nan,nan,nan,nan,nan,nan,nan,nan,nan,nan,nan,nan,nan,236.43953492814035,332.0022750683129,nan,nan,nan,nan,nan,nan
1,79,1,1,1.0,1.0,0.14653948711929843,0,6,7,8,2,4,5,nan,nan,nan,nan,nan,nan,nan,nan,nan,nan,nan,nan,0.0,nan,nan,nan,nan,nan,nan,nan,nan,nan,nan,nan,nan,nan,nan,nan,nan,nan,nan,236.43953492814035,333.01076951192226,nan,333.15730899904156,nan,nan,nan,nan
1,80,1,1,1.0,1.0,0.37004128479748033,0,5,3,1,4,7,8,nan,nan,nan,nan,nan,nan,nan,nan,nan,nan,nan,nan,0.0,nan,nan,nan,nan,nan,nan,nan,nan,nan,nan,nan,nan,nan,nan,nan,nan,nan,nan,236.43953492814035,334.01920665118087,nan,334.38924793597835,nan,nan,nan,nan
1,81,1,1,1.0,1.0,0.4255463941517519,0,7,4,0,3,5,6,nan,nan,nan,nan,nan,nan,nan,nan,nan,nan,nan,nan,0.0,nan,nan,nan,nan,nan,nan,nan,nan,nan,nan,nan,nan,nan,nan,nan,nan,nan,nan,236.43953492814035,335.02769396739313,nan,335.4532403615449,nan,nan,nan,nan
1,82,0,0,0.0,1.0,0.5770613815111574,0,4,8,7,1,6,2,nan,nan,nan,nan,nan,nan,nan,nan,nan,nan,nan,nan,0.0,nan,nan,nan,nan,nan,nan,nan,nan,nan,nan,nan,nan,nan,nan,nan,nan,nan,nan,236.43953492814035,336.03615391436324,nan,336.6132152958744,nan,nan,nan,nan
1,83,1,1,1.0,1.0,0.5365774248784874,0,3,6,4,2,5,1,nan,nan,nan,nan,nan,nan,nan,nan,nan,nan,nan,nan,0.0,nan,nan,nan,nan,nan,nan,nan,nan,nan,nan,nan,nan,nan,nan,nan,nan,nan,nan,236.43953492814035,337.04463467335154,nan,337.58121209823,nan,nan,nan,nan
1,84,0,0,1.0,0.0,0.5280906788684661,0,6,3,2,1,8,0,nan,nan,nan,nan,nan,nan,nan,nan,nan,nan,nan,nan,0.0,nan,nan,nan,nan,nan,nan,nan,nan,nan,nan,nan,nan,nan,nan,nan,nan,nan,nan,236.43953492814035,338.05307409339,nan,338.5811647722585,nan,nan,nan,nan
1,85,1,1,0.0,0.0,0.14359586803766433,0,4,1,5,2,6,8,nan,nan,nan,nan,nan,nan,nan,nan,nan,nan,nan,nan,0.0,nan,nan,nan,nan,nan,nan,nan,nan,nan,nan,nan,nan,nan,nan,nan,nan,nan,nan,236.43953492814035,339.06154515911476,nan,339.2051410271524,nan,nan,nan,nan
1,86,1,1,1.0,1.0,0.4147922774282051,1,5,2,8,7,3,6,1.0,1.0,1.0,1.0,1.0,1.0,1.0,1.0,0.0,0.0,0.0,1.0,3.0,5.0,2.0,0.0,1.0,0.0,6.0,2.0,1.0,6.0,5.0,4.0,3.0,21.377071473922115,18.762301262948313,25.41585083991231,24.336446109533426,23.401385339835542,22.384265308312024,236.43953492814035,340.07033667304495,340.8784112838912,340.48512895047315,367.3401389616338,368.3397133128892,341.88687066065904,367.3317827897117
1,87,1,1,nan,nan,nan,0,4,7,2,3,0,8,nan,nan,nan,nan,nan,nan,nan,nan,nan,nan,nan,nan,0.0,nan,nan,nan,nan,nan,nan,nan,nan,nan,nan,nan,nan,nan,nan,nan,nan,nan,nan,236.43953492814035,368.54868346815056,nan,nan,nan,nan,nan,nan
1,88,1,1,1.0,1.0,0.23927902571449522,0,2,0,7,4,5,6,nan,nan,nan,nan,nan,nan,nan,nan,nan,nan,nan,nan,0.0,nan,nan,nan,nan,nan,nan,nan,nan,nan,nan,nan,nan,nan,nan,nan,nan,nan,nan,236.43953492814035,369.55715738484287,nan,369.79643641055736,nan,nan,nan,nan
1,89,1,1,1.0,1.0,0.4708376442285953,0,0,5,1,2,6,4,nan,nan,nan,nan,nan,nan,nan,nan,nan,nan,nan,nan,0.0,nan,nan,nan,nan,nan,nan,nan,nan,nan,nan,nan,nan,nan,nan,nan,nan,nan,nan,236.43953492814035,370.5655452024512,nan,371.03638284667977,nan,nan,nan,nan
1,90,1,1,1.0,1.0,0.4623597361933207,0,7,6,2,8,3,1,nan,nan,nan,nan,nan,nan,nan,nan,nan,nan,nan,nan,0.0,nan,nan,nan,nan,nan,nan,nan,nan,nan,nan,nan,nan,nan,nan,nan,nan,nan,nan,236.43953492814035,371.5740174085513,nan,372.0363771447446,nan,nan,nan,nan
1,91,1,1,1.0,1.0,0.6458833380311262,0,3,5,1,0,6,8,nan,nan,nan,nan,nan,nan,nan,nan,nan,nan,nan,nan,0.0,nan,nan,nan,nan,nan,nan,nan,nan,nan,nan,nan,nan,nan,nan,nan,nan,nan,nan,236.43953492814035,372.5824839127308,nan,373.22836725076195,nan,nan,nan,nan
1,92,1,1,1.0,1.0,0.4613653203850845,0,5,1,6,8,2,3,nan,nan,nan,nan,nan,nan,nan,nan,nan,nan,nan,nan,0.0,nan,nan,nan,nan,nan,nan,nan,nan,nan,nan,nan,nan,nan,nan,nan,nan,nan,nan,236.43953492814035,373.5909623909538,nan,374.0523277113389,nan,nan,nan,nan
1,93,1,1,1.0,1.0,0.4288740379124647,0,6,2,0,5,8,7,nan,nan,nan,nan,nan,nan,nan,nan,nan,nan,nan,nan,0.0,nan,nan,nan,nan,nan,nan,nan,nan,nan,nan,nan,nan,nan,nan,nan,nan,nan,nan,236.43953492814035,374.5994283249456,nan,375.0283023628581,nan,nan,nan,nan
1,94,1,1,1.0,1.0,0.45236853712412994,0,8,3,7,4,0,5,nan,nan,nan,nan,nan,nan,nan,nan,nan,nan,nan,nan,0.0,nan,nan,nan,nan,nan,nan,nan,nan,nan,nan,nan,nan,nan,nan,nan,nan,nan,nan,236.43953492814035,375.6079170666344,nan,376.06028560375853,nan,nan,nan,nan
1,95,1,1,1.0,1.0,0.5319334916130174,0,2,6,5,8,1,7,nan,nan,nan,nan,nan,nan,nan,nan,nan,nan,nan,nan,0.0,nan,nan,nan,nan,nan,nan,nan,nan,nan,nan,nan,nan,nan,nan,nan,nan,nan,nan,236.43953492814035,376.61632256020675,nan,377.14825605181977,nan,nan,nan,nan
1,96,1,1,1.0,1.0,0.539440646811272,0,8,0,1,3,5,4,nan,nan,nan,nan,nan,nan,nan,nan,nan,nan,nan,nan,0.0,nan,nan,nan,nan,nan,nan,nan,nan,nan,nan,nan,nan,nan,nan,nan,nan,nan,nan,236.43953492814035,377.62478678362095,nan,378.1642274304322,nan,nan,nan,nan
1,97,1,1,1.0,1.0,0.474974676311831,0,6,7,8,5,2,0,nan,nan,nan,nan,nan,nan,nan,nan,nan,nan,nan,nan,0.0,nan,nan,nan,nan,nan,nan,nan,nan,nan,nan,nan,nan,nan,nan,nan,nan,nan,nan,236.43953492814035,378.63324958155863,nan,379.10822425787046,nan,nan,nan,nan
1,98,1,1,1.0,1.0,0.394458640657831,0,3,1,7,4,5,8,nan,nan,nan,nan,nan,nan,nan,nan,nan,nan,nan,nan,0.0,nan,nan,nan,nan,nan,nan,nan,nan,nan,nan,nan,nan,nan,nan,nan,nan,nan,nan,236.43953492814035,379.64173547227983,nan,380.03619411293766,nan,nan,nan,nan
1,99,1,1,1.0,1.0,0.33799475252453703,0,8,0,1,7,6,4,nan,nan,nan,nan,nan,nan,nan,nan,nan,nan,nan,nan,0.0,nan,nan,nan,nan,nan,nan,nan,nan,nan,nan,nan,nan,nan,nan,nan,nan,nan,nan,236.43953492814035,380.65019171299355,nan,380.9881864655181,nan,nan,nan,nan
1,100,1,1,1.0,1.0,0.46549180391593836,1,4,7,5,0,3,2,1.0,1.0,1.0,1.0,1.0,1.0,1.0,0.0,0.0,1.0,0.0,1.0,3.0,4.0,6.0,1.0,0.0,7.0,2.0,2.0,3.0,4.0,5.0,6.0,1.0,1.8508481756871333,3.5711501952755498,4.714625752691063,6.443135409048409,7.426291635827511,1.1080563361756504,236.43953492814035,381.6586642041948,382.46705099545943,382.12415600811073,390.9514569417661,391.9514962850517,383.48384772779536,390.94313013476494
1,101,1,1,1.0,1.0,0.779905673043686,0,7,1,6,3,8,0,nan,nan,nan,nan,nan,nan,nan,nan,nan,nan,nan,nan,0.0,nan,nan,nan,nan,nan,nan,nan,nan,nan,nan,nan,nan,nan,nan,nan,nan,nan,nan,236.43953492814035,392.15999888243095,nan,392.93990455547464,nan,nan,nan,nan
1,102,1,1,1.0,1.0,0.6034419103525579,0,8,0,3,1,2,4,nan,nan,nan,nan,nan,nan,nan,nan,nan,nan,nan,nan,0.0,nan,nan,nan,nan,nan,nan,nan,nan,nan,nan,nan,nan,nan,nan,nan,nan,nan,nan,236.43953492814035,393.1684428640001,nan,393.77188477435266,nan,nan,nan,nan
1,103,1,1,1.0,1.0,0.7789525961998152,0,7,4,1,5,8,6,nan,nan,nan,nan,nan,nan,nan,nan,nan,nan,nan,nan,0.0,nan,nan,nan,nan,nan,nan,nan,nan,nan,nan,nan,nan,nan,nan,nan,nan,nan,nan,236.43953492814035,394.1769048066344,nan,394.9558574028342,nan,nan,nan,nan
1,104,1,1,nan,nan,nan,0,5,8,3,6,7,0,nan,nan,nan,nan,nan,nan,nan,nan,nan,nan,nan,nan,0.0,nan,nan,nan,nan,nan,nan,nan,nan,nan,nan,nan,nan,nan,nan,nan,nan,nan,nan,236.43953492814035,395.18536560889333,nan,nan,nan,nan,nan,nan
1,105,1,1,1.0,1.0,0.7219889342668466,0,3,1,0,2,6,5,nan,nan,nan,nan,nan,nan,nan,nan,nan,nan,nan,nan,0.0,nan,nan,nan,nan,nan,nan,nan,nan,nan,nan,nan,nan,nan,nan,nan,nan,nan,nan,236.43953492814035,396.19382498567575,nan,396.9158139199426,nan,nan,nan,nan
1,106,1,1,nan,nan,nan,1,8,5,1,3,7,6,1.0,1.0,1.0,1.0,1.0,1.0,0.0,0.0,0.0,0.0,1.0,0.0,1.0,0.0,3.0,4.0,1.0,7.0,8.0,6.0,5.0,4.0,3.0,1.0,2.0,5.95504915487254,4.987149570340989,4.323031759442529,2.8685210088879103,1.1632318742194911,1.8514528648811392,236.43953492814035,397.20228664320894,398.01071192247036,nan,405.01158973391284,406.01093030621996,399.01920893196075,405.0032586504676
1,107,1,1,1.0,1.0,0.695459870286868,0,0,3,5,1,6,2,nan,nan,nan,nan,nan,nan,nan,nan,nan,nan,nan,nan,0.0,nan,nan,nan,nan,nan,nan,nan,nan,nan,nan,nan,nan,nan,nan,nan,nan,nan,nan,236.43953492814035,406.22010173945455,nan,406.9155616097414,nan,nan,nan,nan
1,108,1,1,1.0,1.0,0.7109742395550711,0,7,5,3,4,1,0,nan,nan,nan,nan,nan,nan,nan,nan,nan,nan,nan,nan,0.0,nan,nan,nan,nan,nan,nan,nan,nan,nan,nan,nan,nan,nan,nan,nan,nan,nan,nan,236.43953492814035,407.22857052441395,nan,407.939544763969,nan,nan,nan,nan
1,109,1,1,nan,nan,nan,0,0,2,4,1,5,3,nan,nan,nan,nan,nan,nan,nan,nan,nan,nan,nan,nan,0.0,nan,nan,nan,nan,nan,nan,nan,nan,nan,nan,nan,nan,nan,nan,nan,nan,nan,nan,236.43953492814035,408.23702619494,nan,nan,nan,nan,nan,nan
1,110,1,1,1.0,1.0,0.7260364461399149,0,4,7,2,5,8,6,nan,nan,nan,nan,nan,nan,nan,nan,nan,nan,nan,nan,0.0,nan,nan,nan,nan,nan,nan,nan,nan,nan,nan,nan,nan,nan,nan,nan,nan,nan,nan,236.43953492814035,409.24546618516615,nan,409.97150263130607,nan,nan,nan,nan
1,111,1,1,1.0,1.0,0.7495383578498149,0,6,0,5,7,4,2,nan,nan,nan,nan,nan,nan,nan,nan,nan,nan,nan,nan,0.0,nan,nan,nan,nan,nan,nan,nan,nan,nan,nan,nan,nan,nan,nan,nan,nan,nan,nan,236.43953492814035,410.2539386763674,nan,411.0034770342172,nan,nan,nan,nan
1,112,1,1,nan,nan,nan,0,4,6,8,0,1,7,nan,nan,nan,nan,nan,nan,nan,nan,nan,nan,nan,nan,0.0,nan,nan,nan,nan,nan,nan,nan,nan,nan,nan,nan,nan,nan,nan,nan,nan,nan,nan,236.43953492814035,411.2624123079586,nan,nan,nan,nan,nan,nan
1,113,1,1,1.0,1.0,0.572574536272441,0,2,7,6,5,0,1,nan,nan,nan,nan,nan,nan,nan,nan,nan,nan,nan,nan,0.0,nan,nan,nan,nan,nan,nan,nan,nan,nan,nan,nan,nan,nan,nan,nan,nan,nan,nan,236.43953492814035,412.27087025924993,nan,412.8434447955224,nan,nan,nan,nan
1,114,0,0,0.0,1.0,0.5160787173663266,0,0,4,7,3,2,6,nan,nan,nan,nan,nan,nan,nan,nan,nan,nan,nan,nan,0.0,nan,nan,nan,nan,nan,nan,nan,nan,nan,nan,nan,nan,nan,nan,nan,nan,nan,nan,236.43953492814035,413.2793396143825,nan,413.7954183317488,nan,nan,nan,nan
1,115,1,1,1.0,1.0,0.6436210990650579,0,4,7,8,5,3,1,nan,nan,nan,nan,nan,nan,nan,nan,nan,nan,nan,nan,0.0,nan,nan,nan,nan,nan,nan,nan,nan,nan,nan,nan,nan,nan,nan,nan,nan,nan,nan,236.43953492814035,414.287793859432,nan,414.93141495849704,nan,nan,nan,nan
1,116,1,1,1.0,1.0,0.7790572265221272,0,7,3,5,4,2,0,nan,nan,nan,nan,nan,nan,nan,nan,nan,nan,nan,nan,0.0,nan,nan,nan,nan,nan,nan,nan,nan,nan,nan,nan,nan,nan,nan,nan,nan,nan,nan,236.43953492814035,415.2963282165292,nan,416.07538544305135,nan,nan,nan,nan
1,117,1,1,1.0,1.0,0.7626325448218267,1,6,5,0,2,3,4,1.0,1.0,1.0,1.0,1.0,1.0,1.0,0.0,0.0,0.0,0.0,0.0,1.0,6.0,0.0,3.0,1.0,7.0,3.0,1.0,2.0,3.0,4.0,5.0,6.0,1.0214472228399245,2.956251976080239,3.6459340851724846,4.428946452360833,6.076252135724644,6.916187110968167,236.43953492814035,416.3047311442351,417.11313732204144,417.06736368905695,425.08079286415887,426.08063035928353,418.1216063920874,425.07248772446474
1,118,1,1,1.0,1.0,0.5377848076168448,0,0,4,2,6,7,1,nan,nan,nan,nan,nan,nan,nan,nan,nan,nan,nan,nan,0.0,nan,nan,nan,nan,nan,nan,nan,nan,nan,nan,nan,nan,nan,nan,nan,nan,nan,nan,236.43953492814035,426.2893296730763,nan,426.8271144806931,nan,nan,nan,nan
1,119,1,1,1.0,1.0,0.38530020781036,0,1,0,7,2,6,8,nan,nan,nan,nan,nan,nan,nan,nan,nan,nan,nan,nan,0.0,nan,nan,nan,nan,nan,nan,nan,nan,nan,nan,nan,nan,nan,nan,nan,nan,nan,nan,236.43953492814035,427.2977956070681,nan,427.68309581487847,nan,nan,nan,nan
1,120,1,1,1.0,1.0,0.4168352773558581,0,6,5,2,0,4,7,nan,nan,nan,nan,nan,nan,nan,nan,nan,nan,nan,nan,0.0,nan,nan,nan,nan,nan,nan,nan,nan,nan,nan,nan,nan,nan,nan,nan,nan,nan,nan,236.43953492814035,428.3062213424855,nan,428.7230566198414,nan,nan,nan,nan
1,121,1,1,1.0,1.0,0.5682932454656111,0,3,2,8,6,5,1,nan,nan,nan,nan,nan,nan,nan,nan,nan,nan,nan,nan,0.0,nan,nan,nan,nan,nan,nan,nan,nan,nan,nan,nan,nan,nan,nan,nan,nan,nan,nan,236.43953492814035,429.31473688322876,nan,429.8830301286944,nan,nan,nan,nan
1,122,1,1,1.0,1.0,0.4478266682999674,0,6,3,5,0,1,7,nan,nan,nan,nan,nan,nan,nan,nan,nan,nan,nan,nan,0.0,nan,nan,nan,nan,nan,nan,nan,nan,nan,nan,nan,nan,nan,nan,nan,nan,nan,nan,236.43953492814035,430.3231897027872,nan,430.77101637108717,nan,nan,nan,nan
1,123,1,1,1.0,1.0,0.34335484764596913,0,1,8,3,2,0,4,nan,nan,nan,nan,nan,nan,nan,nan,nan,nan,nan,nan,0.0,nan,nan,nan,nan,nan,nan,nan,nan,nan,nan,nan,nan,nan,nan,nan,nan,nan,nan,236.43953492814035,431.33164309253334,nan,431.6749979401793,nan,nan,nan,nan
1,124,1,1,1.0,1.0,0.43087142243166454,1,4,0,2,7,1,8,1.0,1.0,1.0,1.0,1.0,1.0,0.0,1.0,1.0,1.0,0.0,1.0,4.0,5.0,0.0,2.0,7.0,6.0,8.0,6.0,1.0,2.0,3.0,4.0,5.0,6.18394896548125,1.347134369018022,2.4268076600856148,3.225372884553508,4.160659165398101,5.232355747692054,236.43953492814035,432.34010446497996,433.1485551178048,432.7709758874116,440.3827708336321,441.3821074145817,434.15697914264456,440.3744337631506
1,125,1,1,nan,nan,nan,0,7,3,8,6,0,1,nan,nan,nan,nan,nan,nan,nan,nan,nan,nan,nan,nan,0.0,nan,nan,nan,nan,nan,nan,nan,nan,nan,nan,nan,nan,nan,nan,nan,nan,nan,nan,236.43953492814035,441.591287400719,nan,nan,nan,nan,nan,nan
1,126,1,1,1.0,1.0,0.0990153629827546,0,4,1,6,5,8,3,nan,nan,nan,nan,nan,nan,nan,nan,nan,nan,nan,nan,0.0,nan,nan,nan,nan,nan,nan,nan,nan,nan,nan,nan,nan,nan,nan,nan,nan,nan,nan,236.43953492814035,442.59975019864214,nan,442.6987655616249,nan,nan,nan,nan
1,127,1,1,1.0,1.0,0.25850962499680463,0,3,7,5,4,0,2,nan,nan,nan,nan,nan,nan,nan,nan,nan,nan,nan,nan,0.0,nan,nan,nan,nan,nan,nan,nan,nan,nan,nan,nan,nan,nan,nan,nan,nan,nan,nan,236.43953492814035,443.6081995970453,nan,443.8667092220421,nan,nan,nan,nan
1,128,1,1,1.0,1.0,0.4020213896437781,0,1,6,3,8,4,7,nan,nan,nan,nan,nan,nan,nan,nan,nan,nan,nan,nan,0.0,nan,nan,nan,nan,nan,nan,nan,nan,nan,nan,nan,nan,nan,nan,nan,nan,nan,nan,236.43953492814035,444.61666695651365,nan,445.01868834615743,nan,nan,nan,nan
1,129,1,1,1.0,1.0,0.3615217527112691,1,0,3,2,5,6,8,1.0,1.0,1.0,1.0,1.0,1.0,1.0,0.0,0.0,0.0,0.0,0.0,1.0,0.0,2.0,3.0,1.0,4.0,7.0,1.0,2.0,3.0,4.0,5.0,6.0,1.2033375080936821,2.2215454670222243,3.7567780927493004,4.923602750277496,5.88305379168014,6.770737546932651,236.43953492814035,445.62513032463903,446.4335393534129,445.9866520773503,454.2512080242159,455.250598488361,447.4420235335565,454.24283446141635
1,130,1,1,1.0,1.0,0.6147493989410577,0,5,1,6,2,3,4,nan,nan,nan,nan,nan,nan,nan,nan,nan,nan,nan,nan,0.0,nan,nan,nan,nan,nan,nan,nan,nan,nan,nan,nan,nan,nan,nan,nan,nan,nan,nan,236.43953492814035,455.4596969369595,nan,456.0744463359006,nan,nan,nan,nan
1,131,1,1,1.0,1.0,0.33422093307308387,0,4,7,8,1,5,2,nan,nan,nan,nan,nan,nan,nan,nan,nan,nan,nan,nan,0.0,nan,nan,nan,nan,nan,nan,nan,nan,nan,nan,nan,nan,nan,nan,nan,nan,nan,nan,236.43953492814035,456.46819793779287,nan,456.80241887086595,nan,nan,nan,nan
1,132,1,1,1.0,1.0,0.4137428380199708,0,2,1,7,0,8,6,nan,nan,nan,nan,nan,nan,nan,nan,nan,nan,nan,nan,0.0,nan,nan,nan,nan,nan,nan,nan,nan,nan,nan,nan,nan,nan,nan,nan,nan,nan,nan,236.43953492814035,457.4766499020625,nan,457.89039274008246,nan,nan,nan,nan
1,133,1,1,1.0,1.0,0.4052626492193667,0,7,2,4,3,5,1,nan,nan,nan,nan,nan,nan,nan,nan,nan,nan,nan,nan,0.0,nan,nan,nan,nan,nan,nan,nan,nan,nan,nan,nan,nan,nan,nan,nan,nan,nan,nan,236.43953492814035,458.48510927883035,nan,458.8903719280497,nan,nan,nan,nan
1,134,1,1,1.0,1.0,0.484781988299801,0,4,1,0,2,6,7,nan,nan,nan,nan,nan,nan,nan,nan,nan,nan,nan,nan,0.0,nan,nan,nan,nan,nan,nan,nan,nan,nan,nan,nan,nan,nan,nan,nan,nan,nan,nan,236.43953492814035,459.4935658046452,nan,459.978347792945,nan,nan,nan,nan
1,135,1,1,1.0,1.0,0.5162808506283909,0,5,7,2,6,0,3,nan,nan,nan,nan,nan,nan,nan,nan,nan,nan,nan,nan,0.0,nan,nan,nan,nan,nan,nan,nan,nan,nan,nan,nan,nan,nan,nan,nan,nan,nan,nan,236.43953492814035,460.5020365852688,nan,461.0183174358972,nan,nan,nan,nan
1,136,1,1,1.0,1.0,0.4998290847725002,0,0,8,3,7,2,6,nan,nan,nan,nan,nan,nan,nan,nan,nan,nan,nan,nan,0.0,nan,nan,nan,nan,nan,nan,nan,nan,nan,nan,nan,nan,nan,nan,nan,nan,nan,nan,236.43953492814035,461.5104614653974,nan,462.0102905501699,nan,nan,nan,nan
1,137,0,0,1.0,0.0,0.5713323717936873,0,4,2,0,1,3,7,nan,nan,nan,nan,nan,nan,nan,nan,nan,nan,nan,nan,0.0,nan,nan,nan,nan,nan,nan,nan,nan,nan,nan,nan,nan,nan,nan,nan,nan,nan,nan,236.43953492814035,462.5189439349633,nan,463.090276306757,nan,nan,nan,nan
1,138,1,1,0.0,0.0,0.1868332845333498,0,3,1,5,8,7,0,nan,nan,nan,nan,nan,nan,nan,nan,nan,nan,nan,nan,0.0,nan,nan,nan,nan,nan,nan,nan,nan,nan,nan,nan,nan,nan,nan,nan,nan,nan,nan,236.43953492814035,463.5274212728109,nan,463.71425455734425,nan,nan,nan,nan
1,139,1,1,1.0,1.0,0.4343322061467916,0,1,4,8,3,2,7,nan,nan,nan,nan,nan,nan,nan,nan,nan,nan,nan,nan,0.0,nan,nan,nan,nan,nan,nan,nan,nan,nan,nan,nan,nan,nan,nan,nan,nan,nan,nan,236.43953492814035,464.5358766582358,nan,464.9702088643826,nan,nan,nan,nan
1,140,0,0,0.0,1.0,0.44185760752588976,0,7,2,5,6,4,3,nan,nan,nan,nan,nan,nan,nan,nan,nan,nan,nan,nan,0.0,nan,nan,nan,nan,nan,nan,nan,nan,nan,nan,nan,nan,nan,nan,nan,nan,nan,nan,236.43953492814035,465.5443420220254,nan,465.98619962955127,nan,nan,nan,nan
1,141,1,1,1.0,1.0,0.5933831434667809,0,4,3,6,1,2,0,nan,nan,nan,nan,nan,nan,nan,nan,nan,nan,nan,nan,0.0,nan,nan,nan,nan,nan,nan,nan,nan,nan,nan,nan,nan,nan,nan,nan,nan,nan,nan,236.43953492814035,466.55280653052614,nan,467.1461896739929,nan,nan,nan,nan
1,142,0,0,0.0,1.0,0.6408861704694573,0,5,2,7,8,6,4,nan,nan,nan,nan,nan,nan,nan,nan,nan,nan,nan,nan,0.0,nan,nan,nan,nan,nan,nan,nan,nan,nan,nan,nan,nan,nan,nan,nan,nan,nan,nan,236.43953492814035,467.56127246451797,nan,468.2021586349874,nan,nan,nan,nan
1,143,1,1,1.0,1.0,0.4244216893275734,0,3,5,2,4,8,7,nan,nan,nan,nan,nan,nan,nan,nan,nan,nan,nan,nan,0.0,nan,nan,nan,nan,nan,nan,nan,nan,nan,nan,nan,nan,nan,nan,nan,nan,nan,nan,236.43953492814035,468.5697247138887,nan,468.9941464032163,nan,nan,nan,nan
1,144,1,1,1.0,1.0,0.6559318414656445,0,8,0,5,7,2,4,nan,nan,nan,nan,nan,nan,nan,nan,nan,nan,nan,nan,0.0,nan,nan,nan,nan,nan,nan,nan,nan,nan,nan,nan,nan,nan,nan,nan,nan,nan,nan,236.43953492814035,469.578193213747,nan,470.23412505521264,nan,nan,nan,nan
1,145,1,1,1.0,1.0,0.6954404837306356,0,0,5,1,4,8,2,nan,nan,nan,nan,nan,nan,nan,nan,nan,nan,nan,nan,0.0,nan,nan,nan,nan,nan,nan,nan,nan,nan,nan,nan,nan,nan,nan,nan,nan,nan,nan,236.43953492814035,470.58666142850416,nan,471.2821019122348,nan,nan,nan,nan
1,146,1,1,1.0,1.0,0.49497674612211995,1,4,1,8,0,2,3,1.0,1.0,1.0,1.0,1.0,1.0,0.0,1.0,1.0,0.0,0.0,0.0,2.0,0.0,1.0,8.0,7.0,6.0,4.0,1.0,2.0,3.0,4.0,5.0,6.0,1.7531248690356733,2.7213694200618193,3.6889374376187334,5.688633524987381,7.408055167281418,8.296383240114665,236.43953492814035,471.59511681392905,472.4035332552012,472.0900935600512,481.7464427824598,482.74648554690066,473.4119943425467,481.73805696053023
1,147,1,1,1.0,1.0,0.5188931878219591,0,7,3,2,8,5,0,nan,nan,nan,nan,nan,nan,nan,nan,nan,nan,nan,nan,0.0,nan,nan,nan,nan,nan,nan,nan,nan,nan,nan,nan,nan,nan,nan,nan,nan,nan,nan,236.43953492814035,482.95490375577356,nan,483.4737969435955,nan,nan,nan,nan
1,148,1,1,1.0,1.0,0.342405762130511,0,1,6,8,5,2,7,nan,nan,nan,nan,nan,nan,nan,nan,nan,nan,nan,nan,0.0,nan,nan,nan,nan,nan,nan,nan,nan,nan,nan,nan,nan,nan,nan,nan,nan,nan,nan,236.43953492814035,483.9633511585125,nan,484.30575692064303,nan,nan,nan,nan
1,149,1,1,1.0,1.0,0.3659216435626149,0,8,5,6,0,1,3,nan,nan,nan,nan,nan,nan,nan,nan,nan,nan,nan,nan,0.0,nan,nan,nan,nan,nan,nan,nan,nan,nan,nan,nan,nan,nan,nan,nan,nan,nan,nan,236.43953492814035,484.97181908816856,nan,485.3377407317312,nan,nan,nan,nan
1,150,1,1,1.0,1.0,0.31742562622821424,0,4,1,2,3,6,0,nan,nan,nan,nan,nan,nan,nan,nan,nan,nan,nan,nan,0.0,nan,nan,nan,nan,nan,nan,nan,nan,nan,nan,nan,nan,nan,nan,nan,nan,nan,nan,236.43953492814035,485.9802967111027,nan,486.2977223373309,nan,nan,nan,nan
1,151,1,1,1.0,1.0,0.39700141435605474,0,2,3,1,4,0,6,nan,nan,nan,nan,nan,nan,nan,nan,nan,nan,nan,nan,0.0,nan,nan,nan,nan,nan,nan,nan,nan,nan,nan,nan,nan,nan,nan,nan,nan,nan,nan,236.43953492814035,486.98874753499695,nan,487.385748949353,nan,nan,nan,nan
1,152,1,1,1.0,1.0,0.3564863822393818,0,4,6,0,2,5,1,nan,nan,nan,nan,nan,nan,nan,nan,nan,nan,nan,nan,0.0,nan,nan,nan,nan,nan,nan,nan,nan,nan,nan,nan,nan,nan,nan,nan,nan,nan,nan,236.43953492814035,487.99721289878653,nan,488.3536992810259,nan,nan,nan,nan
1,153,1,1,1.0,1.0,0.3560142627975438,0,3,4,5,1,6,8,nan,nan,nan,nan,nan,nan,nan,nan,nan,nan,nan,nan,0.0,nan,nan,nan,nan,nan,nan,nan,nan,nan,nan,nan,nan,nan,nan,nan,nan,nan,nan,236.43953492814035,489.00567940296605,nan,489.3616936657636,nan,nan,nan,nan
1,154,0,0,0.0,1.0,0.6674885042011738,0,7,3,6,5,4,0,nan,nan,nan,nan,nan,nan,nan,nan,nan,nan,nan,nan,0.0,nan,nan,nan,nan,nan,nan,nan,nan,nan,nan,nan,nan,nan,nan,nan,nan,nan,nan,236.43953492814035,490.0141598768678,nan,490.68164838106895,nan,nan,nan,nan
1,155,1,1,1.0,1.0,0.6590023283788469,0,4,6,5,7,0,2,nan,nan,nan,nan,nan,nan,nan,nan,nan,nan,nan,nan,0.0,nan,nan,nan,nan,nan,nan,nan,nan,nan,nan,nan,nan,nan,nan,nan,nan,nan,nan,236.43953492814035,491.0226315127802,nan,491.68163384115906,nan,nan,nan,nan
1,156,1,1,1.0,1.0,0.546521583062713,0,1,8,6,2,3,4,nan,nan,nan,nan,nan,nan,nan,nan,nan,nan,nan,nan,0.0,nan,nan,nan,nan,nan,nan,nan,nan,nan,nan,nan,nan,nan,nan,nan,nan,nan,nan,236.43953492814035,492.0310623799305,nan,492.57758396299323,nan,nan,nan,nan
1,157,1,1,1.0,1.0,0.6260178293596255,0,3,7,2,8,5,0,nan,nan,nan,nan,nan,nan,nan,nan,nan,nan,nan,nan,0.0,nan,nan,nan,nan,nan,nan,nan,nan,nan,nan,nan,nan,nan,nan,nan,nan,nan,nan,236.43953492814035,493.0395428538177,nan,493.6655606831773,nan,nan,nan,nan
1,158,1,1,1.0,1.0,0.7295388539205305,0,1,4,3,5,0,8,nan,nan,nan,nan,nan,nan,nan,nan,nan,nan,nan,nan,0.0,nan,nan,nan,nan,nan,nan,nan,nan,nan,nan,nan,nan,nan,nan,nan,nan,nan,nan,236.43953492814035,494.04799139693205,nan,494.7775302508526,nan,nan,nan,nan
1,159,1,1,nan,nan,nan,0,5,2,0,1,4,6,nan,nan,nan,nan,nan,nan,nan,nan,nan,nan,nan,nan,0.0,nan,nan,nan,nan,nan,nan,nan,nan,nan,nan,nan,nan,nan,nan,nan,nan,nan,nan,236.43953492814035,495.05645875641494,nan,nan,nan,nan,nan,nan
1,160,0,0,0.0,1.0,0.6646027596725617,0,7,3,8,0,2,1,nan,nan,nan,nan,nan,nan,nan,nan,nan,nan,nan,nan,0.0,nan,nan,nan,nan,nan,nan,nan,nan,nan,nan,nan,nan,nan,nan,nan,nan,nan,nan,236.43953492814035,496.06490758461587,nan,496.7295103442884,nan,nan,nan,nan
1,161,1,1,1.0,1.0,0.6961056133441161,0,4,6,7,2,8,3,nan,nan,nan,nan,nan,nan,nan,nan,nan,nan,nan,nan,0.0,nan,nan,nan,nan,nan,nan,nan,nan,nan,nan,nan,nan,nan,nan,nan,nan,nan,nan,236.43953492814035,497.07337095274124,nan,497.76947656608536,nan,nan,nan,nan
1,162,1,1,1.0,1.0,0.7196092356316512,0,3,0,1,7,5,6,nan,nan,nan,nan,nan,nan,nan,nan,nan,nan,nan,nan,0.0,nan,nan,nan,nan,nan,nan,nan,nan,nan,nan,nan,nan,nan,nan,nan,nan,nan,nan,236.43953492814035,498.08183517615544,nan,498.8014444117871,nan,nan,nan,nan
1,163,1,1,nan,nan,nan,0,6,2,5,0,7,8,nan,nan,nan,nan,nan,nan,nan,nan,nan,nan,nan,nan,0.0,nan,nan,nan,nan,nan,nan,nan,nan,nan,nan,nan,nan,nan,nan,nan,nan,nan,nan,236.43953492814035,499.0902974038909,nan,nan,nan,nan,nan,nan
1,164,1,1,1.0,1.0,0.4626080550515326,0,3,1,2,8,5,7,nan,nan,nan,nan,nan,nan,nan,nan,nan,nan,nan,nan,0.0,nan,nan,nan,nan,nan,nan,nan,nan,nan,nan,nan,nan,nan,nan,nan,nan,nan,nan,236.43953492814035,500.09875564028334,nan,500.5613636953349,nan,nan,nan,nan
1,165,1,1,1.0,1.0,0.41417732475383673,0,0,4,1,7,6,2,nan,nan,nan,nan,nan,nan,nan,nan,nan,nan,nan,nan,0.0,nan,nan,nan,nan,nan,nan,nan,nan,nan,nan,nan,nan,nan,nan,nan,nan,nan,nan,236.43953492814035,501.1072164425277,nan,501.52139376728155,nan,nan,nan,nan
1,166,1,1,1.0,1.0,0.43769377638818696,0,1,6,3,0,7,4,nan,nan,nan,nan,nan,nan,nan,nan,nan,nan,nan,nan,0.0,nan,nan,nan,nan,nan,nan,nan,nan,nan,nan,nan,nan,nan,nan,nan,nan,nan,nan,236.43953492814035,502.1156863678625,nan,502.5533801442507,nan,nan,nan,nan
1,167,1,1,1.0,1.0,0.4771724835445639,0,5,8,2,4,3,1,nan,nan,nan,nan,nan,nan,nan,nan,nan,nan,nan,nan,0.0,nan,nan,nan,nan,nan,nan,nan,nan,nan,nan,nan,nan,nan,nan,nan,nan,nan,nan,236.43953492814035,503.1241417532874,nan,503.60131423683197,nan,nan,nan,nan
1,168,1,1,1.0,1.0,0.5566864057909697,0,8,2,1,7,6,3,nan,nan,nan,nan,nan,nan,nan,nan,nan,nan,nan,nan,0.0,nan,nan,nan,nan,nan,nan,nan,nan,nan,nan,nan,nan,nan,nan,nan,nan,nan,nan,236.43953492814035,504.13261795074504,nan,504.689304356536,nan,nan,nan,nan
1,169,1,1,1.0,1.0,0.5242618358315667,0,2,5,8,6,4,0,nan,nan,nan,nan,nan,nan,nan,nan,nan,nan,nan,nan,0.0,nan,nan,nan,nan,nan,nan,nan,nan,nan,nan,nan,nan,nan,nan,nan,nan,nan,nan,236.43953492814035,505.141074761661,nan,505.66533659749257,nan,nan,nan,nan
1,170,1,1,1.0,1.0,0.7157071228866698,0,5,2,6,0,8,7,nan,nan,nan,nan,nan,nan,nan,nan,nan,nan,nan,nan,0.0,nan,nan,nan,nan,nan,nan,nan,nan,nan,nan,nan,nan,nan,nan,nan,nan,nan,nan,236.43953492814035,506.14956892016926,nan,506.8652760430559,nan,nan,nan,nan
1,171,0,0,0.0,1.0,0.7952258917503059,0,0,6,8,4,1,5,nan,nan,nan,nan,nan,nan,nan,nan,nan,nan,nan,nan,0.0,nan,nan,nan,nan,nan,nan,nan,nan,nan,nan,nan,nan,nan,nan,nan,nan,nan,nan,236.43953492814035,507.1580000724207,nan,507.953225964171,nan,nan,nan,nan
1,172,1,1,nan,nan,nan,0,5,4,1,7,0,2,nan,nan,nan,nan,nan,nan,nan,nan,nan,nan,nan,nan,0.0,nan,nan,nan,nan,nan,nan,nan,nan,nan,nan,nan,nan,nan,nan,nan,nan,nan,nan,236.43953492814035,508.16648282708775,nan,nan,nan,nan,nan,nan
1,173,1,1,nan,nan,nan,0,3,6,2,0,8,7,nan,nan,nan,nan,nan,nan,nan,nan,nan,nan,nan,nan,0.0,nan,nan,nan,nan,nan,nan,nan,nan,nan,nan,nan,nan,nan,nan,nan,nan,nan,nan,236.43953492814035,509.17494847597845,nan,nan,nan,nan,nan,nan
1,174,1,1,nan,nan,nan,0,1,0,8,5,7,2,nan,nan,nan,nan,nan,nan,nan,nan,nan,nan,nan,nan,0.0,nan,nan,nan,nan,nan,nan,nan,nan,nan,nan,nan,nan,nan,nan,nan,nan,nan,nan,236.43953492814035,510.1833693647495,nan,nan,nan,nan,nan,nan
1,175,1,1,1.0,1.0,0.6173001553543145,0,6,8,5,2,4,7,nan,nan,nan,nan,nan,nan,nan,nan,nan,nan,nan,nan,0.0,nan,nan,nan,nan,nan,nan,nan,nan,nan,nan,nan,nan,nan,nan,nan,nan,nan,nan,236.43953492814035,511.1918435665284,nan,511.8091437218827,nan,nan,nan,nan
1,176,1,1,1.0,1.0,0.5688297966698883,0,8,0,4,5,1,2,nan,nan,nan,nan,nan,nan,nan,nan,nan,nan,nan,nan,0.0,nan,nan,nan,nan,nan,nan,nan,nan,nan,nan,nan,nan,nan,nan,nan,nan,nan,nan,236.43953492814035,512.2002884034009,nan,512.7691182000708,nan,nan,nan,nan
1,177,1,1,1.0,1.0,0.456309137865901,0,7,3,5,2,8,0,nan,nan,nan,nan,nan,nan,nan,nan,nan,nan,nan,nan,0.0,nan,nan,nan,nan,nan,nan,nan,nan,nan,nan,nan,nan,nan,nan,nan,nan,nan,nan,236.43953492814035,513.2087825619237,nan,513.6650916997896,nan,nan,nan,nan
1,178,1,1,1.0,1.0,0.4318644127633888,0,5,0,8,4,3,7,nan,nan,nan,nan,nan,nan,nan,nan,nan,nan,nan,nan,0.0,nan,nan,nan,nan,nan,nan,nan,nan,nan,nan,nan,nan,nan,nan,nan,nan,nan,nan,236.43953492814035,514.2172353814822,nan,514.6490997942456,nan,nan,nan,nan
1,179,1,1,1.0,1.0,0.3993688538612332,0,8,7,4,1,2,0,nan,nan,nan,nan,nan,nan,nan,nan,nan,nan,nan,nan,0.0,nan,nan,nan,nan,nan,nan,nan,nan,nan,nan,nan,nan,nan,nan,nan,nan,nan,nan,236.43953492814035,515.2256916221959,nan,515.6250604760571,nan,nan,nan,nan
1,180,1,1,1.0,1.0,0.4469189217488747,0,2,8,0,4,7,1,nan,nan,nan,nan,nan,nan,nan,nan,nan,nan,nan,nan,0.0,nan,nan,nan,nan,nan,nan,nan,nan,nan,nan,nan,nan,nan,nan,nan,nan,nan,nan,236.43953492814035,516.2341204936674,nan,516.6810394154163,nan,nan,nan,nan
1,181,1,1,1.0,1.0,0.38235687382984906,0,3,1,5,6,4,8,nan,nan,nan,nan,nan,nan,nan,nan,nan,nan,nan,nan,0.0,nan,nan,nan,nan,nan,nan,nan,nan,nan,nan,nan,nan,nan,nan,nan,nan,nan,nan,236.43953492814035,517.2426371747861,nan,517.6249940486159,nan,nan,nan,nan
1,182,0,0,0.0,1.0,0.5095386087341467,0,7,8,4,5,2,6,nan,nan,nan,nan,nan,nan,nan,nan,nan,nan,nan,nan,0.0,nan,nan,nan,nan,nan,nan,nan,nan,nan,nan,nan,nan,nan,nan,nan,nan,nan,nan,236.43953492814035,518.2594259244361,nan,518.7689645331702,nan,nan,nan,nan
1,183,1,1,1.0,1.0,0.5730956922780024,0,4,7,5,1,3,0,nan,nan,nan,nan,nan,nan,nan,nan,nan,nan,nan,nan,0.0,nan,nan,nan,nan,nan,nan,nan,nan,nan,nan,nan,nan,nan,nan,nan,nan,nan,nan,236.43953492814035,519.2678744675504,nan,519.8409701598284,nan,nan,nan,nan
1,184,1,1,1.0,1.0,0.5646018188563175,0,6,0,8,3,1,2,nan,nan,nan,nan,nan,nan,nan,nan,nan,nan,nan,nan,0.0,nan,nan,nan,nan,nan,nan,nan,nan,nan,nan,nan,nan,nan,nan,nan,nan,nan,nan,236.43953492814035,520.276331563553,nan,520.8409333824093,nan,nan,nan,nan
1,185,0,0,0.0,1.0,0.5080971619609045,0,1,3,0,4,2,6,nan,nan,nan,nan,nan,nan,nan,nan,nan,nan,nan,nan,0.0,nan,nan,nan,nan,nan,nan,nan,nan,nan,nan,nan,nan,nan,nan,nan,nan,nan,nan,236.43953492814035,521.2847972124437,nan,521.7928943744046,nan,nan,nan,nan
1,186,1,1,1.0,1.0,0.4036236307147192,0,2,7,6,0,4,3,nan,nan,nan,nan,nan,nan,nan,nan,nan,nan,nan,nan,0.0,nan,nan,nan,nan,nan,nan,nan,nan,nan,nan,nan,nan,nan,nan,nan,nan,nan,nan,236.43953492814035,522.2932947921217,nan,522.6969184228365,nan,nan,nan,nan
1,187,1,1,1.0,1.0,0.6591397447919007,0,4,1,2,8,5,7,nan,nan,nan,nan,nan,nan,nan,nan,nan,nan,nan,nan,0.0,nan,nan,nan,nan,nan,nan,nan,nan,nan,nan,nan,nan,nan,nan,nan,nan,nan,nan,236.43953492814035,523.3017330717703,nan,523.9608728165622,nan,nan,nan,nan
1,188,1,1,1.0,1.0,0.5946481156424852,0,8,5,6,2,7,0,nan,nan,nan,nan,nan,nan,nan,nan,nan,nan,nan,nan,0.0,nan,nan,nan,nan,nan,nan,nan,nan,nan,nan,nan,nan,nan,nan,nan,nan,nan,nan,236.43953492814035,524.3101915932493,nan,524.9048397088918,nan,nan,nan,nan
1,189,1,1,1.0,1.0,0.5061855913954787,0,3,4,8,0,2,1,nan,nan,nan,nan,nan,nan,nan,nan,nan,nan,nan,nan,0.0,nan,nan,nan,nan,nan,nan,nan,nan,nan,nan,nan,nan,nan,nan,nan,nan,nan,nan,236.43953492814035,525.3186287325225,nan,525.824814323918,nan,nan,nan,nan
1,190,1,1,1.0,1.0,0.6336974677979015,0,1,6,7,2,5,0,nan,nan,nan,nan,nan,nan,nan,nan,nan,nan,nan,nan,0.0,nan,nan,nan,nan,nan,nan,nan,nan,nan,nan,nan,nan,nan,nan,nan,nan,nan,nan,236.43953492814035,526.3271208953665,nan,526.9608183631644,nan,nan,nan,nan
1,191,1,1,1.0,1.0,0.7291950278158765,0,3,5,1,0,6,4,nan,nan,nan,nan,nan,nan,nan,nan,nan,nan,nan,nan,0.0,nan,nan,nan,nan,nan,nan,nan,nan,nan,nan,nan,nan,nan,nan,nan,nan,nan,nan,236.43953492814035,527.3355794168456,nan,528.0647744446615,nan,nan,nan,nan
1,192,0,0,0.0,1.0,0.6487069315771805,0,5,7,2,8,1,0,nan,nan,nan,nan,nan,nan,nan,nan,nan,nan,nan,nan,0.0,nan,nan,nan,nan,nan,nan,nan,nan,nan,nan,nan,nan,nan,nan,nan,nan,nan,nan,236.43953492814035,528.3440424998698,nan,528.992749431447,nan,nan,nan,nan
1,193,1,1,1.0,1.0,0.744220742068137,0,6,1,3,2,4,8,nan,nan,nan,nan,nan,nan,nan,nan,nan,nan,nan,nan,0.0,nan,nan,nan,nan,nan,nan,nan,nan,nan,nan,nan,nan,nan,nan,nan,nan,nan,nan,236.43953492814035,529.3525061530963,nan,530.0967268951645,nan,nan,nan,nan
1,194,1,1,1.0,1.0,0.5437304905062774,0,7,8,4,3,6,5,nan,nan,nan,nan,nan,nan,nan,nan,nan,nan,nan,nan,0.0,nan,nan,nan,nan,nan,nan,nan,nan,nan,nan,nan,nan,nan,nan,nan,nan,nan,nan,236.43953492814035,530.3609789293987,nan,530.904709419905,nan,nan,nan,nan
1,195,1,1,1.0,1.0,0.6152488876250573,0,0,3,1,5,7,2,nan,nan,nan,nan,nan,nan,nan,nan,nan,nan,nan,nan,0.0,nan,nan,nan,nan,nan,nan,nan,nan,nan,nan,nan,nan,nan,nan,nan,nan,nan,nan,236.43953492814035,531.369422055679,nan,531.9846709433041,nan,nan,nan,nan
1,196,1,1,1.0,1.0,0.5907830654032296,1,3,1,2,0,5,4,1.0,1.0,1.0,1.0,1.0,1.0,0.0,1.0,1.0,0.0,0.0,0.0,2.0,6.0,1.0,2.0,7.0,4.0,3.0,6.0,1.0,2.0,3.0,4.0,5.0,6.712163091026014,1.3219632185791852,2.4248313726711785,3.3206440781068522,5.072182671443443,5.856633349365438,236.43953492814035,532.3778954021691,533.1863012948888,532.9686784675723,540.9456267228816,541.9454659285693,534.1947840495559,540.9372950692341
1,197,1,1,1.0,1.0,0.7263184063631343,0,8,5,0,2,3,1,nan,nan,nan,nan,nan,nan,nan,nan,nan,nan,nan,nan,0.0,nan,nan,nan,nan,nan,nan,nan,nan,nan,nan,nan,nan,nan,nan,nan,nan,nan,nan,236.43953492814035,542.1541575447773,nan,542.8804759511404,nan,nan,nan,nan
1,198,1,1,1.0,1.0,0.3418244508211501,0,7,4,2,5,1,6,nan,nan,nan,nan,nan,nan,nan,nan,nan,nan,nan,nan,0.0,nan,nan,nan,nan,nan,nan,nan,nan,nan,nan,nan,nan,nan,nan,nan,nan,nan,nan,236.43953492814035,543.1626055177039,nan,543.5044299685251,nan,nan,nan,nan
1,199,1,1,1.0,1.0,0.7413064879074227,0,6,7,5,1,0,2,nan,nan,nan,nan,nan,nan,nan,nan,nan,nan,nan,nan,0.0,nan,nan,nan,nan,nan,nan,nan,nan,nan,nan,nan,nan,nan,nan,nan,nan,nan,nan,236.43953492814035,544.1710686007282,nan,544.9123750886356,nan,nan,nan,nan
1,200,1,1,1.0,1.0,0.5968011627410306,0,8,6,4,0,2,7,nan,nan,nan,nan,nan,nan,nan,nan,nan,nan,nan,nan,0.0,nan,nan,nan,nan,nan,nan,nan,nan,nan,nan,nan,nan,nan,nan,nan,nan,nan,nan,236.43953492814035,545.1795505001064,nan,545.7763516628474,nan,nan,nan,nan
1,201,1,1,1.0,1.0,0.5163392953691073,0,3,2,7,4,0,6,nan,nan,nan,nan,nan,nan,nan,nan,nan,nan,nan,nan,0.0,nan,nan,nan,nan,nan,nan,nan,nan,nan,nan,nan,nan,nan,nan,nan,nan,nan,nan,236.43953492814035,546.1879961922532,nan,546.7043354876223,nan,nan,nan,nan
1,202,1,1,1.0,1.0,0.355884829084971,0,6,3,8,0,2,4,nan,nan,nan,nan,nan,nan,nan,nan,nan,nan,nan,nan,0.0,nan,nan,nan,nan,nan,nan,nan,nan,nan,nan,nan,nan,nan,nan,nan,nan,nan,nan,236.43953492814035,547.1964518627792,nan,547.5523366918642,nan,nan,nan,nan
1,203,1,1,1.0,1.0,0.5633687774534337,0,8,0,4,5,7,1,nan,nan,nan,nan,nan,nan,nan,nan,nan,nan,nan,nan,0.0,nan,nan,nan,nan,nan,nan,nan,nan,nan,nan,nan,nan,nan,nan,nan,nan,nan,nan,236.43953492814035,548.2049175116699,nan,548.7682862891234,nan,nan,nan,nan
1,204,1,1,1.0,1.0,0.5628935219574487,0,0,6,8,2,3,7,nan,nan,nan,nan,nan,nan,nan,nan,nan,nan,nan,nan,0.0,nan,nan,nan,nan,nan,nan,nan,nan,nan,nan,nan,nan,nan,nan,nan,nan,nan,nan,236.43953492814035,549.2133791692177,nan,549.7762726911751,nan,nan,nan,nan
1,205,1,1,1.0,1.0,0.5384131598111708,0,1,2,7,3,6,5,nan,nan,nan,nan,nan,nan,nan,nan,nan,nan,nan,nan,0.0,nan,nan,nan,nan,nan,nan,nan,nan,nan,nan,nan,nan,nan,nan,nan,nan,nan,nan,236.43953492814035,550.2218422522419,nan,550.7602554120531,nan,nan,nan,nan
1,206,0,0,0.0,1.0,0.6098964900884312,0,8,6,2,7,0,1,nan,nan,nan,nan,nan,nan,nan,nan,nan,nan,nan,nan,0.0,nan,nan,nan,nan,nan,nan,nan,nan,nan,nan,nan,nan,nan,nan,nan,nan,nan,nan,236.43953492814035,551.2303190198872,nan,551.8402155099757,nan,nan,nan,nan
1,207,1,1,1.0,1.0,0.5134270368871512,0,6,1,0,2,4,3,nan,nan,nan,nan,nan,nan,nan,nan,nan,nan,nan,nan,0.0,nan,nan,nan,nan,nan,nan,nan,nan,nan,nan,nan,nan,nan,nan,nan,nan,nan,nan,236.43953492814035,552.2387783966551,nan,552.7522054335423,nan,nan,nan,nan
1,208,1,1,1.0,1.0,0.48096340874326415,0,4,8,6,7,5,1,nan,nan,nan,nan,nan,nan,nan,nan,nan,nan,nan,nan,0.0,nan,nan,nan,nan,nan,nan,nan,nan,nan,nan,nan,nan,nan,nan,nan,nan,nan,nan,236.43953492814035,553.2472300758382,nan,553.7281934845814,nan,nan,nan,nan
1,209,1,1,1.0,1.0,0.6084296697372338,0,0,2,1,6,4,7,nan,nan,nan,nan,nan,nan,nan,nan,nan,nan,nan,nan,0.0,nan,nan,nan,nan,nan,nan,nan,nan,nan,nan,nan,nan,nan,nan,nan,nan,nan,nan,236.43953492814035,554.2557037074293,nan,554.8641333771666,nan,nan,nan,nan
1,210,1,1,1.0,1.0,0.7439670063758967,0,2,0,6,5,3,1,nan,nan,nan,nan,nan,nan,nan,nan,nan,nan,nan,nan,0.0,nan,nan,nan,nan,nan,nan,nan,nan,nan,nan,nan,nan,nan,nan,nan,nan,nan,nan,236.43953492814035,555.2641519654426,nan,556.0081189718185,nan,nan,nan,nan
1,211,0,0,0.0,1.0,0.6874660557223251,0,0,5,4,2,1,6,nan,nan,nan,nan,nan,nan,nan,nan,nan,nan,nan,nan,0.0,nan,nan,nan,nan,nan,nan,nan,nan,nan,nan,nan,nan,nan,nan,nan,nan,nan,nan,236.43953492814035,556.2726133378892,nan,556.9600793936115,nan,nan,nan,nan
1,212,1,1,1.0,1.0,0.7029906884708907,0,4,1,3,7,2,8,nan,nan,nan,nan,nan,nan,nan,nan,nan,nan,nan,nan,0.0,nan,nan,nan,nan,nan,nan,nan,nan,nan,nan,nan,nan,nan,nan,nan,nan,nan,nan,236.43953492814035,557.2810844036139,nan,557.9840750920848,nan,nan,nan,nan
1,213,1,1,1.0,1.0,0.6305631193099543,0,6,2,1,0,5,3,nan,nan,nan,nan,nan,nan,nan,nan,nan,nan,nan,nan,0.0,nan,nan,nan,nan,nan,nan,nan,nan,nan,nan,nan,nan,nan,nan,nan,nan,nan,nan,236.43953492814035,558.2895084284537,nan,558.9200715477637,nan,nan,nan,nan
1,214,1,1,1.0,1.0,0.5900535040127579,0,3,7,4,8,2,0,nan,nan,nan,nan,nan,nan,nan,nan,nan,nan,nan,nan,0.0,nan,nan,nan,nan,nan,nan,nan,nan,nan,nan,nan,nan,nan,nan,nan,nan,nan,nan,236.43953492814035,559.2980125653412,nan,559.888066069354,nan,nan,nan,nan
1,215,1,1,1.0,1.0,0.5895657042856328,0,6,3,5,2,4,8,nan,nan,nan,nan,nan,nan,nan,nan,nan,nan,nan,nan,0.0,nan,nan,nan,nan,nan,nan,nan,nan,nan,nan,nan,nan,nan,nan,nan,nan,nan,nan,236.43953492814035,560.3064462834445,nan,560.8960119877302,nan,nan,nan,nan
1,216,1,1,1.0,1.0,0.6450594097841531,0,3,4,0,5,1,6,nan,nan,nan,nan,nan,nan,nan,nan,nan,nan,nan,nan,0.0,nan,nan,nan,nan,nan,nan,nan,nan,nan,nan,nan,nan,nan,nan,nan,nan,nan,nan,236.43953492814035,561.3149293232127,nan,561.9599887329969,nan,nan,nan,nan
1,217,1,1,1.0,1.0,0.4045895369054051,0,1,5,7,0,4,8,nan,nan,nan,nan,nan,nan,nan,nan,nan,nan,nan,nan,0.0,nan,nan,nan,nan,nan,nan,nan,nan,nan,nan,nan,nan,nan,nan,nan,nan,nan,nan,236.43953492814035,562.323392406237,nan,562.7279819431424,nan,nan,nan,nan
1,218,1,1,1.0,1.0,0.3160919458314311,0,3,8,0,7,2,5,nan,nan,nan,nan,nan,nan,nan,nan,nan,nan,nan,nan,0.0,nan,nan,nan,nan,nan,nan,nan,nan,nan,nan,nan,nan,nan,nan,nan,nan,nan,nan,236.43953492814035,563.331852068106,nan,563.6479440139374,nan,nan,nan,nan
1,219,1,1,1.0,1.0,0.3316111617459683,0,5,6,8,4,1,3,nan,nan,nan,nan,nan,nan,nan,nan,nan,nan,nan,nan,0.0,nan,nan,nan,nan,nan,nan,nan,nan,nan,nan,nan,nan,nan,nan,nan,nan,nan,nan,236.43953492814035,564.340312015076,nan,564.671923176822,nan,nan,nan,nan
1,220,1,1,1.0,1.0,0.27513929091219325,0,1,2,4,7,5,6,nan,nan,nan,nan,nan,nan,nan,nan,nan,nan,nan,nan,0.0,nan,nan,nan,nan,nan,nan,nan,nan,nan,nan,nan,nan,nan,nan,nan,nan,nan,nan,236.43953492814035,565.3487799447321,nan,565.6239192356443,nan,nan,nan,nan
1,221,1,1,1.0,1.0,0.3625997017225018,0,6,7,0,3,4,8,nan,nan,nan,nan,nan,nan,nan,nan,nan,nan,nan,nan,0.0,nan,nan,nan,nan,nan,nan,nan,nan,nan,nan,nan,nan,nan,nan,nan,nan,nan,nan,236.43953492814035,566.3572615590238,nan,566.7198612607463,nan,nan,nan,nan
1,222,1,1,1.0,1.0,0.3541274956369307,0,8,4,6,0,3,1,nan,nan,nan,nan,nan,nan,nan,nan,nan,nan,nan,nan,0.0,nan,nan,nan,nan,nan,nan,nan,nan,nan,nan,nan,nan,nan,nan,nan,nan,nan,nan,236.43953492814035,567.3657061107806,nan,567.7198336064175,nan,nan,nan,nan
1,223,1,1,1.0,1.0,0.37764252176566515,0,4,8,2,3,7,6,nan,nan,nan,nan,nan,nan,nan,nan,nan,nan,nan,nan,0.0,nan,nan,nan,nan,nan,nan,nan,nan,nan,nan,nan,nan,nan,nan,nan,nan,nan,nan,236.43953492814035,568.3741689087183,nan,568.7518114304839,nan,nan,nan,nan
1,224,1,1,1.0,1.0,0.4011700921400916,0,6,7,8,1,2,3,nan,nan,nan,nan,nan,nan,nan,nan,nan,nan,nan,nan,0.0,nan,nan,nan,nan,nan,nan,nan,nan,nan,nan,nan,nan,nan,nan,nan,nan,nan,nan,236.43953492814035,569.3826285705873,nan,569.7837986627273,nan,nan,nan,nan
1,225,1,1,1.0,1.0,0.5606800344394287,0,0,4,6,3,7,8,nan,nan,nan,nan,nan,nan,nan,nan,nan,nan,nan,nan,0.0,nan,nan,nan,nan,nan,nan,nan,nan,nan,nan,nan,nan,nan,nan,nan,nan,nan,nan,236.43953492814035,570.3910850964021,nan,570.9517651308415,nan,nan,nan,nan
1,226,1,1,1.0,1.0,0.5121851574949687,0,7,8,2,5,3,6,nan,nan,nan,nan,nan,nan,nan,nan,nan,nan,nan,nan,0.0,nan,nan,nan,nan,nan,nan,nan,nan,nan,nan,nan,nan,nan,nan,nan,nan,nan,nan,236.43953492814035,571.3995555919246,nan,571.9117407494196,nan,nan,nan,nan
1,227,1,1,1.0,1.0,0.5757123059302103,0,0,6,1,4,8,5,nan,nan,nan,nan,nan,nan,nan,nan,nan,nan,nan,nan,0.0,nan,nan,nan,nan,nan,nan,nan,nan,nan,nan,nan,nan,nan,nan,nan,nan,nan,nan,236.43953492814035,572.4080192451365,nan,572.9837315510667,nan,nan,nan,nan
1,228,1,1,1.0,1.0,0.2872353558195755,0,8,4,2,7,3,1,nan,nan,nan,nan,nan,nan,nan,nan,nan,nan,nan,nan,0.0,nan,nan,nan,nan,nan,nan,nan,nan,nan,nan,nan,nan,nan,nan,nan,nan,nan,nan,236.43953492814035,573.4164854642295,nan,573.703720820049,nan,nan,nan,nan
1,229,1,1,1.0,1.0,0.29477472690632567,0,5,3,1,8,6,7,nan,nan,nan,nan,nan,nan,nan,nan,nan,nan,nan,nan,0.0,nan,nan,nan,nan,nan,nan,nan,nan,nan,nan,nan,nan,nan,nan,nan,nan,nan,nan,236.43953492814035,574.4249303010874,nan,574.7197050279938,nan,nan,nan,nan
1,230,1,1,1.0,1.0,0.28630309097934514,0,2,5,0,7,1,4,nan,nan,nan,nan,nan,nan,nan,nan,nan,nan,nan,nan,0.0,nan,nan,nan,nan,nan,nan,nan,nan,nan,nan,nan,nan,nan,nan,nan,nan,nan,nan,236.43953492814035,575.4333953797905,nan,575.7196984707698,nan,nan,nan,nan
1,231,1,1,1.0,1.0,0.30177355544583406,0,4,1,3,6,7,2,nan,nan,nan,nan,nan,nan,nan,nan,nan,nan,nan,nan,0.0,nan,nan,nan,nan,nan,nan,nan,nan,nan,nan,nan,nan,nan,nan,nan,nan,nan,nan,236.43953492814035,576.44186074358,nan,576.7436342990259,nan,nan,nan,nan
1,232,0,0,1.0,0.0,0.4133297335210955,0,6,0,4,8,2,1,nan,nan,nan,nan,nan,nan,nan,nan,nan,nan,nan,nan,0.0,nan,nan,nan,nan,nan,nan,nan,nan,nan,nan,nan,nan,nan,nan,nan,nan,nan,nan,236.43953492814035,577.4503286732506,nan,577.8636584067717,nan,nan,nan,nan
1,233,1,1,1.0,1.0,0.23681522368860897,0,2,4,6,5,8,0,nan,nan,nan,nan,nan,nan,nan,nan,nan,nan,nan,nan,0.0,nan,nan,nan,nan,nan,nan,nan,nan,nan,nan,nan,nan,nan,nan,nan,nan,nan,nan,236.43953492814035,578.4587598254875,nan,578.6955750491761,nan,nan,nan,nan
1,234,1,1,1.0,1.0,0.4443051590642426,0,6,7,0,4,5,8,nan,nan,nan,nan,nan,nan,nan,nan,nan,nan,nan,nan,0.0,nan,nan,nan,nan,nan,nan,nan,nan,nan,nan,nan,nan,nan,nan,nan,nan,nan,nan,236.43953492814035,579.4672628219996,nan,579.9115679810639,nan,nan,nan,nan
1,235,1,1,1.0,1.0,0.37980269627587404,0,7,4,8,2,1,3,nan,nan,nan,nan,nan,nan,nan,nan,nan,nan,nan,nan,0.0,nan,nan,nan,nan,nan,nan,nan,nan,nan,nan,nan,nan,nan,nan,nan,nan,nan,nan,236.43953492814035,580.4757407300203,nan,580.8555434262962,nan,nan,nan,nan
1,236,0,0,0.0,1.0,0.46735405280196574,0,0,1,4,6,7,5,nan,nan,nan,nan,nan,nan,nan,nan,nan,nan,nan,nan,0.0,nan,nan,nan,nan,nan,nan,nan,nan,nan,nan,nan,nan,nan,nan,nan,nan,nan,nan,236.43953492814035,581.4841733077483,nan,581.9515273605502,nan,nan,nan,nan
1,237,1,1,1.0,1.0,0.4108676420582924,0,4,5,2,7,1,8,nan,nan,nan,nan,nan,nan,nan,nan,nan,nan,nan,nan,0.0,nan,nan,nan,nan,nan,nan,nan,nan,nan,nan,nan,nan,nan,nan,nan,nan,nan,nan,236.43953492814035,582.4926332547184,nan,582.9035008967767,nan,nan,nan,nan
1,238,1,1,1.0,1.0,0.49836597067769617,0,6,4,5,1,2,0,nan,nan,nan,nan,nan,nan,nan,nan,nan,nan,nan,nan,0.0,nan,nan,nan,nan,nan,nan,nan,nan,nan,nan,nan,nan,nan,nan,nan,nan,nan,nan,236.43953492814035,583.5010963377426,nan,583.9994623084203,nan,nan,nan,nan
1,239,1,1,1.0,1.0,0.4338777626835508,0,0,3,2,4,5,7,nan,nan,nan,nan,nan,nan,nan,nan,nan,nan,nan,nan,0.0,nan,nan,nan,nan,nan,nan,nan,nan,nan,nan,nan,nan,nan,nan,nan,nan,nan,nan,236.43953492814035,584.5095517231675,nan,584.9434294858511,nan,nan,nan,nan
1,240,1,1,1.0,1.0,0.47342090161691885,0,5,8,3,0,4,2,nan,nan,nan,nan,nan,nan,nan,nan,nan,nan,nan,nan,0.0,nan,nan,nan,nan,nan,nan,nan,nan,nan,nan,nan,nan,nan,nan,nan,nan,nan,nan,236.43953492814035,585.518003402336,nan,585.991424303953,nan,nan,nan,nan
1,241,0,0,0.0,1.0,0.5289445422095014,0,3,4,8,7,1,0,nan,nan,nan,nan,nan,nan,nan,nan,nan,nan,nan,nan,0.0,nan,nan,nan,nan,nan,nan,nan,nan,nan,nan,nan,nan,nan,nan,nan,nan,nan,nan,236.43953492814035,586.5264681959525,nan,587.055412738162,nan,nan,nan,nan
1,242,1,1,1.0,1.0,0.48042628735129256,0,5,1,4,6,2,8,nan,nan,nan,nan,nan,nan,nan,nan,nan,nan,nan,nan,0.0,nan,nan,nan,nan,nan,nan,nan,nan,nan,nan,nan,nan,nan,nan,nan,nan,nan,nan,236.43953492814035,587.534944108309,nan,588.0153703956603,nan,nan,nan,nan
1,243,1,1,1.0,1.0,0.5599613067315659,0,3,5,6,8,7,0,nan,nan,nan,nan,nan,nan,nan,nan,nan,nan,nan,nan,0.0,nan,nan,nan,nan,nan,nan,nan,nan,nan,nan,nan,nan,nan,nan,nan,nan,nan,nan,236.43953492814035,588.5434051956545,nan,589.103366502386,nan,nan,nan,nan
1,244,0,0,0.0,1.0,0.5594635286397533,0,4,0,8,2,5,3,nan,nan,nan,nan,nan,nan,nan,nan,nan,nan,nan,nan,0.0,nan,nan,nan,nan,nan,nan,nan,nan,nan,nan,nan,nan,nan,nan,nan,nan,nan,nan,236.43953492814035,589.5518731253105,nan,590.1113366539503,nan,nan,nan,nan
1,245,1,1,1.0,1.0,0.6389640513516497,0,3,6,1,0,8,2,nan,nan,nan,nan,nan,nan,nan,nan,nan,nan,nan,nan,0.0,nan,nan,nan,nan,nan,nan,nan,nan,nan,nan,nan,nan,nan,nan,nan,nan,nan,nan,236.43953492814035,590.5603439059487,nan,591.1993079573003,nan,nan,nan,nan
1,246,1,1,1.0,1.0,0.7024843574763509,0,7,2,8,3,5,6,nan,nan,nan,nan,nan,nan,nan,nan,nan,nan,nan,nan,0.0,nan,nan,nan,nan,nan,nan,nan,nan,nan,nan,nan,nan,nan,nan,nan,nan,nan,nan,236.43953492814035,591.5688061336841,nan,592.2712904911605,nan,nan,nan,nan
1,247,1,1,nan,nan,nan,1,3,4,5,8,7,2,1.0,1.0,1.0,1.0,1.0,1.0,0.0,1.0,0.0,0.0,0.0,0.0,1.0,5.0,4.0,1.0,6.0,2.0,7.0,6.0,1.0,2.0,3.0,4.0,5.0,6.015240676846588,1.3520391653873958,2.4318703997851117,3.407187334189075,4.207812664375524,5.063479252261459,236.43953492814035,592.5772580979537,593.3856791007711,nan,600.4449138396303,601.4444180572027,594.3941541578388,600.4365704970405
1,248,1,1,1.0,1.0,0.5296330497367308,0,1,7,8,0,2,5,nan,nan,nan,nan,nan,nan,nan,nan,nan,nan,nan,nan,0.0,nan,nan,nan,nan,nan,nan,nan,nan,nan,nan,nan,nan,nan,nan,nan,nan,nan,nan,236.43953492814035,601.6534181475727,nan,602.1830511973094,nan,nan,nan,nan
1,249,1,1,1.0,1.0,0.4331376527552493,0,4,1,2,6,7,8,nan,nan,nan,nan,nan,nan,nan,nan,nan,nan,nan,nan,0.0,nan,nan,nan,nan,nan,nan,nan,nan,nan,nan,nan,nan,nan,nan,nan,nan,nan,nan,236.43953492814035,602.6618775243551,nan,603.0950151771103,nan,nan,nan,nan
1,250,1,1,1.0,1.0,0.38466985993727576,0,5,8,6,1,4,3,nan,nan,nan,nan,nan,nan,nan,nan,nan,nan,nan,nan,0.0,nan,nan,nan,nan,nan,nan,nan,nan,nan,nan,nan,nan,nan,nan,nan,nan,nan,nan,236.43953492814035,603.6703343352565,nan,604.0550041951938,nan,nan,nan,nan
1,251,1,1,1.0,1.0,0.41618668333103415,0,3,2,4,6,0,1,nan,nan,nan,nan,nan,nan,nan,nan,nan,nan,nan,nan,0.0,nan,nan,nan,nan,nan,nan,nan,nan,nan,nan,nan,nan,nan,nan,nan,nan,nan,nan,236.43953492814035,604.6787948524143,nan,605.0949815357453,nan,nan,nan,nan
1,252,1,1,1.0,1.0,0.31170146314252634,0,1,5,0,4,2,7,nan,nan,nan,nan,nan,nan,nan,nan,nan,nan,nan,nan,0.0,nan,nan,nan,nan,nan,nan,nan,nan,nan,nan,nan,nan,nan,nan,nan,nan,nan,nan,236.43953492814035,605.6872673436155,nan,605.9989688067581,nan,nan,nan,nan
1,253,1,1,1.0,1.0,0.32720214778964873,0,6,4,2,8,0,5,nan,nan,nan,nan,nan,nan,nan,nan,nan,nan,nan,nan,0.0,nan,nan,nan,nan,nan,nan,nan,nan,nan,nan,nan,nan,nan,nan,nan,nan,nan,nan,236.43953492814035,606.695732137232,nan,607.0229342850216,nan,nan,nan,nan
1,254,1,1,1.0,1.0,0.28674613060138654,0,2,6,8,4,7,3,nan,nan,nan,nan,nan,nan,nan,nan,nan,nan,nan,nan,0.0,nan,nan,nan,nan,nan,nan,nan,nan,nan,nan,nan,nan,nan,nan,nan,nan,nan,nan,236.43953492814035,607.7041798250575,nan,607.9909259556589,nan,nan,nan,nan
1,255,0,0,1.0,0.0,0.24622511146299075,0,3,7,0,1,2,8,nan,nan,nan,nan,nan,nan,nan,nan,nan,nan,nan,nan,0.0,nan,nan,nan,nan,nan,nan,nan,nan,nan,nan,nan,nan,nan,nan,nan,nan,nan,nan,236.43953492814035,608.7126568777894,nan,608.9588819892524,nan,nan,nan,nan
1,256,1,1,1.0,1.0,0.24576924249413423,0,6,1,2,0,3,4,nan,nan,nan,nan,nan,nan,nan,nan,nan,nan,nan,nan,0.0,nan,nan,nan,nan,nan,nan,nan,nan,nan,nan,nan,nan,nan,nan,nan,nan,nan,nan,236.43953492814035,609.7210846088856,nan,609.9668538513797,nan,nan,nan,nan
1,257,1,1,1.0,1.0,0.7092442753346404,0,5,8,0,3,1,7,nan,nan,nan,nan,nan,nan,nan,nan,nan,nan,nan,nan,0.0,nan,nan,nan,nan,nan,nan,nan,nan,nan,nan,nan,nan,nan,nan,nan,nan,nan,nan,236.43953492814035,610.7295781972061,nan,611.4388224725408,nan,nan,nan,nan
1,258,1,1,1.0,1.0,0.4047996528679505,0,7,1,6,0,4,2,nan,nan,nan,nan,nan,nan,nan,nan,nan,nan,nan,nan,0.0,nan,nan,nan,nan,nan,nan,nan,nan,nan,nan,nan,nan,nan,nan,nan,nan,nan,nan,236.43953492814035,611.7380655134184,nan,612.1428651662864,nan,nan,nan,nan
1,259,1,1,1.0,1.0,0.36424527746567037,0,5,3,4,6,8,0,nan,nan,nan,nan,nan,nan,nan,nan,nan,nan,nan,nan,0.0,nan,nan,nan,nan,nan,nan,nan,nan,nan,nan,nan,nan,nan,nan,nan,nan,nan,nan,236.43953492814035,612.7465984450246,nan,613.1108437224902,nan,nan,nan,nan
1,260,1,1,1.0,1.0,0.4037995351245627,0,6,0,8,1,3,2,nan,nan,nan,nan,nan,nan,nan,nan,nan,nan,nan,nan,0.0,nan,nan,nan,nan,nan,nan,nan,nan,nan,nan,nan,nan,nan,nan,nan,nan,nan,nan,236.43953492814035,613.7549654506147,nan,614.1587649857393,nan,nan,nan,nan
1,261,1,1,1.0,1.0,0.3393104718415998,0,3,8,0,5,4,7,nan,nan,nan,nan,nan,nan,nan,nan,nan,nan,nan,nan,0.0,nan,nan,nan,nan,nan,nan,nan,nan,nan,nan,nan,nan,nan,nan,nan,nan,nan,nan,236.43953492814035,614.7634459245164,nan,615.102756396358,nan,nan,nan,nan
1,262,1,1,1.0,1.0,0.5548101871681865,0,0,1,7,8,5,6,nan,nan,nan,nan,nan,nan,nan,nan,nan,nan,nan,nan,0.0,nan,nan,nan,nan,nan,nan,nan,nan,nan,nan,nan,nan,nan,nan,nan,nan,nan,nan,236.43953492814035,615.7719158498512,nan,616.3267260370194,nan,nan,nan,nan
1,263,1,1,1.0,1.0,0.634378277711221,0,8,6,3,1,4,7,nan,nan,nan,nan,nan,nan,nan,nan,nan,nan,nan,nan,0.0,nan,nan,nan,nan,nan,nan,nan,nan,nan,nan,nan,nan,nan,nan,nan,nan,nan,nan,236.43953492814035,616.7803267602576,nan,617.4147050379688,nan,nan,nan,nan
1,264,1,1,1.0,1.0,0.5538896112993825,1,3,7,5,4,6,2,1.0,1.0,1.0,1.0,1.0,1.0,0.0,1.0,0.0,0.0,0.0,0.0,1.0,7.0,7.0,0.0,3.0,0.0,4.0,6.0,1.0,2.0,3.0,4.0,5.0,5.947329032744165,1.1076905576337595,1.971222381660482,3.7009907380706863,4.419510050647659,5.251658761422732,236.43953492814035,617.7888100851123,618.5972242456191,618.3426996964117,625.5897743947717,626.5892962883081,619.6057112767303,625.5814427411242
1,265,1,1,1.0,1.0,0.3441884691710584,0,8,1,6,2,0,7,nan,nan,nan,nan,nan,nan,nan,nan,nan,nan,nan,nan,0.0,nan,nan,nan,nan,nan,nan,nan,nan,nan,nan,nan,nan,nan,nan,nan,nan,nan,nan,236.43953492814035,626.7982889661798,nan,627.1424774353509,nan,nan,nan,nan
1,266,1,1,1.0,1.0,0.5916748465533601,0,2,7,0,1,4,3,nan,nan,nan,nan,nan,nan,nan,nan,nan,nan,nan,nan,0.0,nan,nan,nan,nan,nan,nan,nan,nan,nan,nan,nan,nan,nan,nan,nan,nan,nan,nan,236.43953492814035,627.8067774227675,nan,628.3984522693208,nan,nan,nan,nan
1,267,1,1,1.0,1.0,0.6472050443844637,0,8,5,4,7,1,0,nan,nan,nan,nan,nan,nan,nan,nan,nan,nan,nan,nan,0.0,nan,nan,nan,nan,nan,nan,nan,nan,nan,nan,nan,nan,nan,nan,nan,nan,nan,nan,236.43953492814035,628.8152100004954,nan,629.4624150448799,nan,nan,nan,nan
1,268,1,1,1.0,1.0,0.414742100489093,0,1,6,7,2,3,4,nan,nan,nan,nan,nan,nan,nan,nan,nan,nan,nan,nan,0.0,nan,nan,nan,nan,nan,nan,nan,nan,nan,nan,nan,nan,nan,nan,nan,nan,nan,nan,236.43953492814035,629.8236893340072,nan,630.2384314344963,nan,nan,nan,nan
1,269,1,1,1.0,1.0,0.3502439141157083,0,0,4,3,8,6,5,nan,nan,nan,nan,nan,nan,nan,nan,nan,nan,nan,nan,0.0,nan,nan,nan,nan,nan,nan,nan,nan,nan,nan,nan,nan,nan,nan,nan,nan,nan,nan,236.43953492814035,630.8321424386668,nan,631.1823863527825,nan,nan,nan,nan
1,270,1,1,1.0,1.0,0.44574489527440164,0,6,1,2,4,5,3,nan,nan,nan,nan,nan,nan,nan,nan,nan,nan,nan,nan,0.0,nan,nan,nan,nan,nan,nan,nan,nan,nan,nan,nan,nan,nan,nan,nan,nan,nan,nan,236.43953492814035,631.8405995346693,nan,632.2863444299437,nan,nan,nan,nan
1,271,1,1,1.0,1.0,0.36528017694945447,0,3,0,6,5,4,1,nan,nan,nan,nan,nan,nan,nan,nan,nan,nan,nan,nan,0.0,nan,nan,nan,nan,nan,nan,nan,nan,nan,nan,nan,nan,nan,nan,nan,nan,nan,nan,236.43953492814035,632.8490580561484,nan,633.2143382330978,nan,nan,nan,nan
1,272,1,1,1.0,1.0,0.32477255731646437,0,0,8,2,6,1,5,nan,nan,nan,nan,nan,nan,nan,nan,nan,nan,nan,nan,0.0,nan,nan,nan,nan,nan,nan,nan,nan,nan,nan,nan,nan,nan,nan,nan,nan,nan,nan,236.43953492814035,633.8575308324507,nan,634.1823033897672,nan,nan,nan,nan
1,273,1,1,1.0,1.0,0.4196155362587888,0,6,7,5,2,3,1,nan,nan,nan,nan,nan,nan,nan,nan,nan,nan,nan,nan,0.0,nan,nan,nan,nan,nan,nan,nan,nan,nan,nan,nan,nan,nan,nan,nan,nan,nan,nan,236.43953492814035,634.8826609290118,nan,635.3022764652706,nan,nan,nan,nan
1,274,1,1,1.0,1.0,0.4591469862352824,0,4,6,3,1,0,7,nan,nan,nan,nan,nan,nan,nan,nan,nan,nan,nan,nan,0.0,nan,nan,nan,nan,nan,nan,nan,nan,nan,nan,nan,nan,nan,nan,nan,nan,nan,nan,236.43953492814035,635.8911220163573,nan,636.3502690025925,nan,nan,nan,nan
1,275,1,1,nan,nan,nan,0,3,7,1,8,6,2,nan,nan,nan,nan,nan,nan,nan,nan,nan,nan,nan,nan,0.0,nan,nan,nan,nan,nan,nan,nan,nan,nan,nan,nan,nan,nan,nan,nan,nan,nan,nan,236.43953492814035,636.8995842441072,nan,nan,nan,nan,nan,nan
1,276,1,1,nan,nan,nan,0,5,8,4,2,1,7,nan,nan,nan,nan,nan,nan,nan,nan,nan,nan,nan,nan,0.0,nan,nan,nan,nan,nan,nan,nan,nan,nan,nan,nan,nan,nan,nan,nan,nan,nan,nan,236.43953492814035,637.9080630074168,nan,nan,nan,nan,nan,nan
1,277,1,1,nan,nan,nan,0,4,5,3,7,6,2,nan,nan,nan,nan,nan,nan,nan,nan,nan,nan,nan,nan,0.0,nan,nan,nan,nan,nan,nan,nan,nan,nan,nan,nan,nan,nan,nan,nan,nan,nan,nan,236.43953492814035,638.91651240582,nan,nan,nan,nan,nan,nan
1,278,1,1,1.0,1.0,0.05722195914131589,0,0,7,5,1,2,6,nan,nan,nan,nan,nan,nan,nan,nan,nan,nan,nan,nan,0.0,nan,nan,nan,nan,nan,nan,nan,nan,nan,nan,nan,nan,nan,nan,nan,nan,nan,nan,236.43953492814035,639.9249757739453,nan,639.9821977330867,nan,nan,nan,nan
1,279,1,1,1.0,1.0,0.4726970421470469,0,1,6,2,8,4,3,nan,nan,nan,nan,nan,nan,nan,nan,nan,nan,nan,nan,0.0,nan,nan,nan,nan,nan,nan,nan,nan,nan,nan,nan,nan,nan,nan,nan,nan,nan,nan,236.43953492814035,640.933433155049,nan,641.406130197196,nan,nan,nan,nan
1,280,0,0,0.0,1.0,0.7282262706576148,0,2,1,5,6,0,7,nan,nan,nan,nan,nan,nan,nan,nan,nan,nan,nan,nan,0.0,nan,nan,nan,nan,nan,nan,nan,nan,nan,nan,nan,nan,nan,nan,nan,nan,nan,nan,236.43953492814035,641.9419053611491,nan,642.6701316318067,nan,nan,nan,nan
1,281,1,1,1.0,1.0,0.6317354352213442,0,4,2,7,1,8,6,nan,nan,nan,nan,nan,nan,nan,nan,nan,nan,nan,nan,0.0,nan,nan,nan,nan,nan,nan,nan,nan,nan,nan,nan,nan,nan,nan,nan,nan,nan,nan,236.43953492814035,642.950356755231,nan,643.5820921904524,nan,nan,nan,nan
1,282,1,1,1.0,1.0,0.5992318936187075,0,8,5,1,3,0,7,nan,nan,nan,nan,nan,nan,nan,nan,nan,nan,nan,nan,0.0,nan,nan,nan,nan,nan,nan,nan,nan,nan,nan,nan,nan,nan,nan,nan,nan,nan,nan,236.43953492814035,643.9588400800858,nan,644.5580719737045,nan,nan,nan,nan
1,283,1,1,1.0,1.0,0.47076408939028624,0,3,8,2,6,4,1,nan,nan,nan,nan,nan,nan,nan,nan,nan,nan,nan,nan,0.0,nan,nan,nan,nan,nan,nan,nan,nan,nan,nan,nan,nan,nan,nan,nan,nan,nan,nan,236.43953492814035,644.9672780746478,nan,645.438042164038,nan,nan,nan,nan
1,284,1,1,1.0,1.0,0.41428822721354663,0,8,3,6,0,2,4,nan,nan,nan,nan,nan,nan,nan,nan,nan,nan,nan,nan,0.0,nan,nan,nan,nan,nan,nan,nan,nan,nan,nan,nan,nan,nan,nan,nan,nan,nan,nan,236.43953492814035,645.9757400172821,nan,646.3900282444956,nan,nan,nan,nan
1,285,1,1,1.0,1.0,0.4137781899626134,0,6,1,5,3,8,7,nan,nan,nan,nan,nan,nan,nan,nan,nan,nan,nan,nan,0.0,nan,nan,nan,nan,nan,nan,nan,nan,nan,nan,nan,nan,nan,nan,nan,nan,nan,nan,236.43953492814035,646.9842267633067,nan,647.3980049532693,nan,nan,nan,nan
1,286,1,1,1.0,1.0,0.397333266431815,0,0,7,6,8,5,3,nan,nan,nan,nan,nan,nan,nan,nan,nan,nan,nan,nan,0.0,nan,nan,nan,nan,nan,nan,nan,nan,nan,nan,nan,nan,nan,nan,nan,nan,nan,nan,236.43953492814035,647.9926735958434,nan,648.3900068622752,nan,nan,nan,nan
1,287,1,1,1.0,1.0,0.4928510682657361,0,7,4,2,1,8,0,nan,nan,nan,nan,nan,nan,nan,nan,nan,nan,nan,nan,0.0,nan,nan,nan,nan,nan,nan,nan,nan,nan,nan,nan,nan,nan,nan,nan,nan,nan,nan,236.43953492814035,649.0011438062793,nan,649.493994874545,nan,nan,nan,nan
1,288,1,1,1.0,1.0,0.42833435063948855,0,4,6,0,8,1,5,nan,nan,nan,nan,nan,nan,nan,nan,nan,nan,nan,nan,0.0,nan,nan,nan,nan,nan,nan,nan,nan,nan,nan,nan,nan,nan,nan,nan,nan,nan,nan,236.43953492814035,650.0095932046825,nan,650.437927555322,nan,nan,nan,nan
1,289,0,0,0.0,1.0,0.6198204064421589,0,0,2,1,3,7,6,nan,nan,nan,nan,nan,nan,nan,nan,nan,nan,nan,nan,0.0,nan,nan,nan,nan,nan,nan,nan,nan,nan,nan,nan,nan,nan,nan,nan,nan,nan,nan,236.43953492814035,651.0180845122377,nan,651.6379049186799,nan,nan,nan,nan
1,290,1,1,1.0,1.0,0.5553755330911372,0,6,3,4,7,8,5,nan,nan,nan,nan,nan,nan,nan,nan,nan,nan,nan,nan,0.0,nan,nan,nan,nan,nan,nan,nan,nan,nan,nan,nan,nan,nan,nan,nan,nan,nan,nan,236.43953492814035,652.026518230341,nan,652.5818937634322,nan,nan,nan,nan
1,291,1,1,1.0,1.0,0.5388299705809914,0,8,4,1,3,0,2,nan,nan,nan,nan,nan,nan,nan,nan,nan,nan,nan,nan,0.0,nan,nan,nan,nan,nan,nan,nan,nan,nan,nan,nan,nan,nan,nan,nan,nan,nan,nan,236.43953492814035,653.0350309201167,nan,653.5738608906977,nan,nan,nan,nan
1,292,1,1,1.0,1.0,0.6263488261320163,0,4,0,6,8,2,1,nan,nan,nan,nan,nan,nan,nan,nan,nan,nan,nan,nan,0.0,nan,nan,nan,nan,nan,nan,nan,nan,nan,nan,nan,nan,nan,nan,nan,nan,nan,nan,236.43953492814035,654.0434800334333,nan,654.6698288595653,nan,nan,nan,nan
1,293,1,1,1.0,1.0,0.5459097664570436,0,5,1,8,2,6,3,nan,nan,nan,nan,nan,nan,nan,nan,nan,nan,nan,nan,0.0,nan,nan,nan,nan,nan,nan,nan,nan,nan,nan,nan,nan,nan,nan,nan,nan,nan,nan,236.43953492814035,655.0519032029697,nan,655.5978129694267,nan,nan,nan,nan
1,294,1,1,1.0,1.0,0.7934200919262366,0,8,6,1,4,7,2,nan,nan,nan,nan,nan,nan,nan,nan,nan,nan,nan,nan,0.0,nan,nan,nan,nan,nan,nan,nan,nan,nan,nan,nan,nan,nan,nan,nan,nan,nan,nan,236.43953492814035,656.0603668561962,nan,656.8537869481224,nan,nan,nan,nan
1,295,1,1,nan,nan,nan,0,1,3,6,5,8,0,nan,nan,nan,nan,nan,nan,nan,nan,nan,nan,nan,nan,0.0,nan,nan,nan,nan,nan,nan,nan,nan,nan,nan,nan,nan,nan,nan,nan,nan,nan,nan,236.43953492814035,657.0687908810214,nan,nan,nan,nan,nan,nan
1,296,1,1,1.0,1.0,0.7844364230986685,0,2,8,7,0,6,1,nan,nan,nan,nan,nan,nan,nan,nan,nan,nan,nan,nan,0.0,nan,nan,nan,nan,nan,nan,nan,nan,nan,nan,nan,nan,nan,nan,nan,nan,nan,nan,236.43953492814035,658.0773069919669,nan,658.8617434150656,nan,nan,nan,nan
1,297,1,1,1.0,1.0,0.7279682585212868,1,1,5,6,4,3,8,1.0,1.0,1.0,1.0,1.0,1.0,1.0,0.0,1.0,0.0,0.0,0.0,2.0,1.0,2.0,6.0,3.0,6.0,5.0,3.0,2.0,1.0,6.0,5.0,4.0,2.978447291548946,2.1468770411156584,1.2028474276012275,6.065195531860809,5.121682512792177,3.9142906505294377,236.43953492814035,659.0857555350813,659.8941728316422,659.8137237936025,667.0034006284113,668.0026710670354,660.9026347742765,666.995093493053
1,298,0,0,nan,nan,nan,0,2,3,0,1,8,7,nan,nan,nan,nan,nan,nan,nan,nan,nan,nan,nan,nan,0.0,nan,nan,nan,nan,nan,nan,nan,nan,nan,nan,nan,nan,nan,nan,nan,nan,nan,nan,236.43953492814035,668.2119297397294,nan,nan,nan,nan,nan,nan
1,299,1,1,1.0,1.0,0.4410795797739411,0,5,8,1,4,0,3,nan,nan,nan,nan,nan,nan,nan,nan,nan,nan,nan,nan,0.0,nan,nan,nan,nan,nan,nan,nan,nan,nan,nan,nan,nan,nan,nan,nan,nan,nan,nan,236.43953492814035,669.2203851251688,nan,669.6614647049428,nan,nan,nan,nan
1,300,1,1,1.0,1.0,0.6006148956512334,0,7,6,0,5,1,4,nan,nan,nan,nan,nan,nan,nan,nan,nan,nan,nan,nan,0.0,nan,nan,nan,nan,nan,nan,nan,nan,nan,nan,nan,nan,nan,nan,nan,nan,nan,nan,236.43953492814035,670.2288484932797,nan,670.8294633889309,nan,nan,nan,nan
1,301,1,1,1.0,1.0,0.736123722672346,0,6,3,7,0,4,5,nan,nan,nan,nan,nan,nan,nan,nan,nan,nan,nan,nan,0.0,nan,nan,nan,nan,nan,nan,nan,nan,nan,nan,nan,nan,nan,nan,nan,nan,nan,nan,236.43953492814035,671.2373047339934,nan,671.9734284566657,nan,nan,nan,nan
1,302,1,1,1.0,1.0,0.7836518381518545,1,3,2,8,5,1,0,1.0,1.0,1.0,1.0,1.0,1.0,1.0,1.0,1.0,0.0,0.0,1.0,4.0,3.0,2.0,8.0,4.0,3.0,0.0,3.0,2.0,1.0,6.0,5.0,4.0,4.137312916267547,3.2031444979220396,2.36284859078296,7.69718783882854,6.68946030420193,5.513734940861468,236.43953492814035,672.2457635405735,673.0541822626255,673.0294153787254,681.7969530050177,682.796157871504,674.0626613110362,681.7886281936808
1,303,1,1,1.0,1.0,0.6077237713616341,0,0,5,3,4,6,7,nan,nan,nan,nan,nan,nan,nan,nan,nan,nan,nan,nan,0.0,nan,nan,nan,nan,nan,nan,nan,nan,nan,nan,nan,nan,nan,nan,nan,nan,nan,nan,236.43953492814035,683.0054738485487,nan,683.6131976199104,nan,nan,nan,nan
1,304,1,1,1.0,1.0,0.5352337661170168,0,3,8,6,5,0,1,nan,nan,nan,nan,nan,nan,nan,nan,nan,nan,nan,nan,0.0,nan,nan,nan,nan,nan,nan,nan,nan,nan,nan,nan,nan,nan,nan,nan,nan,nan,nan,236.43953492814035,684.0139414931182,nan,684.5491752592352,nan,nan,nan,nan
1,305,1,1,1.0,1.0,0.6867193885700544,1,0,2,3,7,4,5,1.0,1.0,1.0,1.0,1.0,1.0,1.0,1.0,1.0,0.0,1.0,0.0,4.0,0.0,2.0,3.0,3.0,4.0,1.0,3.0,2.0,1.0,6.0,5.0,4.0,3.7208103462617146,2.744573976364336,2.082815337154898,6.448239772813395,5.440613162281807,4.609483385589556,236.43953492814035,685.0224099929765,685.8308170260716,685.7091293815465,693.3234522764542,694.3235224101372,686.8392795388936,693.3151035170304
1,306,1,1,1.0,1.0,0.6889531179040205,0,6,8,2,3,0,1,nan,nan,nan,nan,nan,nan,nan,nan,nan,nan,nan,nan,0.0,nan,nan,nan,nan,nan,nan,nan,nan,nan,nan,nan,nan,nan,nan,nan,nan,nan,nan,236.43953492814035,694.5319349170895,nan,695.2208880349935,nan,nan,nan,nan
1,307,1,1,1.0,1.0,0.6084735745680518,0,3,4,1,6,8,2,nan,nan,nan,nan,nan,nan,nan,nan,nan,nan,nan,nan,0.0,nan,nan,nan,nan,nan,nan,nan,nan,nan,nan,nan,nan,nan,nan,nan,nan,nan,nan,236.43953492814035,695.5404136803991,nan,696.1488872549671,nan,nan,nan,nan
1,308,1,1,nan,nan,nan,0,5,0,8,1,6,4,nan,nan,nan,nan,nan,nan,nan,nan,nan,nan,nan,nan,0.0,nan,nan,nan,nan,nan,nan,nan,nan,nan,nan,nan,nan,nan,nan,nan,nan,nan,nan,236.43953492814035,696.5488702062139,nan,nan,nan,nan,nan,nan
1,309,1,1,nan,nan,nan,0,0,3,5,7,4,6,nan,nan,nan,nan,nan,nan,nan,nan,nan,nan,nan,nan,0.0,nan,nan,nan,nan,nan,nan,nan,nan,nan,nan,nan,nan,nan,nan,nan,nan,nan,nan,236.43953492814035,697.5573378507834,nan,nan,nan,nan,nan,nan
1,310,1,1,nan,nan,nan,0,2,4,6,3,1,0,nan,nan,nan,nan,nan,nan,nan,nan,nan,nan,nan,nan,0.0,nan,nan,nan,nan,nan,nan,nan,nan,nan,nan,nan,nan,nan,nan,nan,nan,nan,nan,236.43953492814035,698.5657872491865,nan,nan,nan,nan,nan,nan
1,311,1,1,1.0,1.0,0.2945617599907564,0,0,7,1,8,3,5,nan,nan,nan,nan,nan,nan,nan,nan,nan,nan,nan,nan,0.0,nan,nan,nan,nan,nan,nan,nan,nan,nan,nan,nan,nan,nan,nan,nan,nan,nan,nan,236.43953492814035,699.574257744709,nan,699.8688195046998,nan,nan,nan,nan
1,312,1,1,nan,nan,nan,1,2,5,6,3,7,8,1.0,1.0,1.0,1.0,1.0,1.0,0.0,1.0,1.0,0.0,0.0,0.0,2.0,1.0,5.0,6.0,1.0,4.0,6.0,3.0,2.0,1.0,6.0,5.0,4.0,2.608141152319149,1.7678010552626802,0.8904486189567251,7.919051758377464,7.119304524734616,6.2798051766149,236.43953492814035,700.5827174065926,701.3911349882401,nan,710.3589433419693,711.3580792151479,702.3996143217519,710.3506151094771
1,313,1,1,nan,nan,nan,0,0,6,7,1,8,2,nan,nan,nan,nan,nan,nan,nan,nan,nan,nan,nan,nan,0.0,nan,nan,nan,nan,nan,nan,nan,nan,nan,nan,nan,nan,nan,nan,nan,nan,nan,nan,236.43953492814035,711.5674533518322,nan,nan,nan,nan,nan,nan
1,314,1,1,1.0,1.0,0.7485419463628205,0,7,4,5,2,1,3,nan,nan,nan,nan,nan,nan,nan,nan,nan,nan,nan,nan,0.0,nan,nan,nan,nan,nan,nan,nan,nan,nan,nan,nan,nan,nan,nan,nan,nan,nan,nan,236.43953492814035,712.5759087372571,nan,713.32445068362,nan,nan,nan,nan
1,315,0,0,0.0,1.0,0.59607958405104,0,0,1,4,3,6,5,nan,nan,nan,nan,nan,nan,nan,nan,nan,nan,nan,nan,0.0,nan,nan,nan,nan,nan,nan,nan,nan,nan,nan,nan,nan,nan,nan,nan,nan,nan,nan,236.43953492814035,713.5843778073177,nan,714.1804573913687,nan,nan,nan,nan
1,316,1,1,1.0,1.0,0.7235963070852449,0,6,2,5,1,7,0,nan,nan,nan,nan,nan,nan,nan,nan,nan,nan,nan,nan,0.0,nan,nan,nan,nan,nan,nan,nan,nan,nan,nan,nan,nan,nan,nan,nan,nan,nan,nan,236.43953492814035,714.592845166786,nan,715.3164414738712,nan,nan,nan,nan
1,317,1,1,1.0,1.0,0.5871138762886403,0,3,0,7,8,6,5,nan,nan,nan,nan,nan,nan,nan,nan,nan,nan,nan,nan,0.0,nan,nan,nan,nan,nan,nan,nan,nan,nan,nan,nan,nan,nan,nan,nan,nan,nan,nan,236.43953492814035,715.6013039733662,nan,716.1884178496548,nan,nan,nan,nan
1,318,1,1,1.0,1.0,0.42657416623842437,0,6,5,2,0,3,7,nan,nan,nan,nan,nan,nan,nan,nan,nan,nan,nan,nan,0.0,nan,nan,nan,nan,nan,nan,nan,nan,nan,nan,nan,nan,nan,nan,nan,nan,nan,nan,236.43953492814035,716.6098001275532,nan,717.0363742937916,nan,nan,nan,nan
1,319,0,0,0.0,1.0,0.6261136216926388,0,0,3,8,2,5,6,nan,nan,nan,nan,nan,nan,nan,nan,nan,nan,nan,nan,0.0,nan,nan,nan,nan,nan,nan,nan,nan,nan,nan,nan,nan,nan,nan,nan,nan,nan,nan,236.43953492814035,717.6182737591444,nan,718.244387380837,nan,nan,nan,nan
1,320,1,1,1.0,1.0,0.44964615274511743,0,3,2,4,6,8,5,nan,nan,nan,nan,nan,nan,nan,nan,nan,nan,nan,nan,0.0,nan,nan,nan,nan,nan,nan,nan,nan,nan,nan,nan,nan,nan,nan,nan,nan,nan,nan,236.43953492814035,718.6267003498506,nan,719.0763465025957,nan,nan,nan,nan
1,321,1,1,1.0,1.0,0.5851809235173278,0,6,4,5,7,1,2,nan,nan,nan,nan,nan,nan,nan,nan,nan,nan,nan,nan,0.0,nan,nan,nan,nan,nan,nan,nan,nan,nan,nan,nan,nan,nan,nan,nan,nan,nan,nan,236.43953492814035,719.6351528843079,nan,720.2203338078252,nan,nan,nan,nan
1,322,1,1,1.0,1.0,0.4883499682327965,0,3,0,8,1,2,6,nan,nan,nan,nan,nan,nan,nan,nan,nan,nan,nan,nan,0.0,nan,nan,nan,nan,nan,nan,nan,nan,nan,nan,nan,nan,nan,nan,nan,nan,nan,nan,236.43953492814035,720.6519496166438,nan,721.1402995848766,nan,nan,nan,nan
1,323,1,1,1.0,1.0,0.49582975418888964,0,0,2,1,4,8,7,nan,nan,nan,nan,nan,nan,nan,nan,nan,nan,nan,nan,0.0,nan,nan,nan,nan,nan,nan,nan,nan,nan,nan,nan,nan,nan,nan,nan,nan,nan,nan,236.43953492814035,721.6604295203579,nan,722.1562592745468,nan,nan,nan,nan
1,324,1,1,1.0,1.0,0.5513887467386667,0,5,0,8,6,7,4,nan,nan,nan,nan,nan,nan,nan,nan,nan,nan,nan,nan,0.0,nan,nan,nan,nan,nan,nan,nan,nan,nan,nan,nan,nan,nan,nan,nan,nan,nan,nan,236.43953492814035,722.6688675149053,nan,723.220256261644,nan,nan,nan,nan
1,325,1,1,1.0,1.0,0.6149178908381145,0,0,2,3,7,8,5,nan,nan,nan,nan,nan,nan,nan,nan,nan,nan,nan,nan,0.0,nan,nan,nan,nan,nan,nan,nan,nan,nan,nan,nan,nan,nan,nan,nan,nan,nan,nan,236.43953492814035,723.6773146325431,nan,724.2922325233812,nan,nan,nan,nan
1,326,1,1,1.0,1.0,0.6223777200793847,0,8,3,7,2,1,4,nan,nan,nan,nan,nan,nan,nan,nan,nan,nan,nan,nan,0.0,nan,nan,nan,nan,nan,nan,nan,nan,nan,nan,nan,nan,nan,nan,nan,nan,nan,nan,236.43953492814035,724.6858150631742,nan,725.3081927832536,nan,nan,nan,nan
1,327,1,1,1.0,1.0,0.5179515148192877,0,7,6,0,1,5,2,nan,nan,nan,nan,nan,nan,nan,nan,nan,nan,nan,nan,0.0,nan,nan,nan,nan,nan,nan,nan,nan,nan,nan,nan,nan,nan,nan,nan,nan,nan,nan,236.43953492814035,725.6942288245482,nan,726.2121803393675,nan,nan,nan,nan
1,328,1,1,1.0,1.0,0.5574319325387478,0,6,0,8,7,2,1,nan,nan,nan,nan,nan,nan,nan,nan,nan,nan,nan,nan,0.0,nan,nan,nan,nan,nan,nan,nan,nan,nan,nan,nan,nan,nan,nan,nan,nan,nan,nan,236.43953492814035,726.7027249787498,nan,727.2601569112885,nan,nan,nan,nan
1,329,1,1,1.0,1.0,0.43696307462232653,0,2,8,1,3,5,7,nan,nan,nan,nan,nan,nan,nan,nan,nan,nan,nan,nan,0.0,nan,nan,nan,nan,nan,nan,nan,nan,nan,nan,nan,nan,nan,nan,nan,nan,nan,nan,236.43953492814035,727.7111806492612,nan,728.1481437238835,nan,nan,nan,nan
1,330,1,1,1.0,1.0,0.3884681976487627,0,3,6,4,2,8,0,nan,nan,nan,nan,nan,nan,nan,nan,nan,nan,nan,nan,0.0,nan,nan,nan,nan,nan,nan,nan,nan,nan,nan,nan,nan,nan,nan,nan,nan,nan,nan,236.43953492814035,728.7196474385419,nan,729.1081156361906,nan,nan,nan,nan
1,331,0,0,1.0,0.0,0.5079417844826821,0,6,7,0,8,5,2,nan,nan,nan,nan,nan,nan,nan,nan,nan,nan,nan,nan,0.0,nan,nan,nan,nan,nan,nan,nan,nan,nan,nan,nan,nan,nan,nan,nan,nan,nan,nan,236.43953492814035,729.7281535711081,nan,730.2360953555908,nan,nan,nan,nan
1,332,1,1,1.0,1.0,0.2674893024668563,0,3,8,5,0,2,1,nan,nan,nan,nan,nan,nan,nan,nan,nan,nan,nan,nan,0.0,nan,nan,nan,nan,nan,nan,nan,nan,nan,nan,nan,nan,nan,nan,nan,nan,nan,nan,236.43953492814035,730.7365679026698,nan,731.0040572051366,nan,nan,nan,nan
1,333,1,1,1.0,1.0,0.4589944597246358,0,0,7,2,6,4,3,nan,nan,nan,nan,nan,nan,nan,nan,nan,nan,nan,nan,0.0,nan,nan,nan,nan,nan,nan,nan,nan,nan,nan,nan,nan,nan,nan,nan,nan,nan,nan,236.43953492814035,731.7450398236833,nan,732.204034283408,nan,nan,nan,nan
1,334,1,1,1.0,1.0,0.6425271846528631,0,1,2,6,3,0,4,nan,nan,nan,nan,nan,nan,nan,nan,nan,nan,nan,nan,0.0,nan,nan,nan,nan,nan,nan,nan,nan,nan,nan,nan,nan,nan,nan,nan,nan,nan,nan,236.43953492814035,732.753494638906,nan,733.3960218235588,nan,nan,nan,nan
1,335,1,1,1.0,1.0,0.6980619440146256,0,6,3,2,5,7,8,nan,nan,nan,nan,nan,nan,nan,nan,nan,nan,nan,nan,0.0,nan,nan,nan,nan,nan,nan,nan,nan,nan,nan,nan,nan,nan,nan,nan,nan,nan,nan,236.43953492814035,733.7619562964537,nan,734.4600182404683,nan,nan,nan,nan
1,336,1,1,1.0,1.0,0.6655495644081384,0,0,7,1,4,8,3,nan,nan,nan,nan,nan,nan,nan,nan,nan,nan,nan,nan,0.0,nan,nan,nan,nan,nan,nan,nan,nan,nan,nan,nan,nan,nan,nan,nan,nan,nan,nan,236.43953492814035,734.7704162434238,nan,735.435965807832,nan,nan,nan,nan
1,337,1,1,1.0,1.0,0.7210789069504244,0,1,0,5,2,7,6,nan,nan,nan,nan,nan,nan,nan,nan,nan,nan,nan,nan,0.0,nan,nan,nan,nan,nan,nan,nan,nan,nan,nan,nan,nan,nan,nan,nan,nan,nan,nan,236.43953492814035,735.7788836028922,nan,736.4999625098426,nan,nan,nan,nan
1,338,1,1,1.0,1.0,0.7766031177452533,0,5,2,3,8,6,4,nan,nan,nan,nan,nan,nan,nan,nan,nan,nan,nan,nan,0.0,nan,nan,nan,nan,nan,nan,nan,nan,nan,nan,nan,nan,nan,nan,nan,nan,nan,nan,236.43953492814035,736.7873358522629,nan,737.5639389700082,nan,nan,nan,nan
1,339,1,1,1.0,1.0,0.6800963169225724,0,2,6,4,7,1,8,nan,nan,nan,nan,nan,nan,nan,nan,nan,nan,nan,nan,0.0,nan,nan,nan,nan,nan,nan,nan,nan,nan,nan,nan,nan,nan,nan,nan,nan,nan,nan,236.43953492814035,737.7958083434642,nan,738.4759046603867,nan,nan,nan,nan
1,340,1,1,1.0,1.0,0.5756048246403225,0,0,8,7,4,6,5,nan,nan,nan,nan,nan,nan,nan,nan,nan,nan,nan,nan,0.0,nan,nan,nan,nan,nan,nan,nan,nan,nan,nan,nan,nan,nan,nan,nan,nan,nan,nan,236.43953492814035,738.8042700009973,nan,739.3798748256377,nan,nan,nan,nan
1,341,1,1,1.0,1.0,0.5431206695648143,0,6,1,3,2,5,7,nan,nan,nan,nan,nan,nan,nan,nan,nan,nan,nan,nan,0.0,nan,nan,nan,nan,nan,nan,nan,nan,nan,nan,nan,nan,nan,nan,nan,nan,nan,nan,236.43953492814035,739.8127325138339,nan,740.3558531833987,nan,nan,nan,nan
1,342,1,1,1.0,1.0,0.47062467731302604,0,1,4,7,5,0,6,nan,nan,nan,nan,nan,nan,nan,nan,nan,nan,nan,nan,0.0,nan,nan,nan,nan,nan,nan,nan,nan,nan,nan,nan,nan,nan,nan,nan,nan,nan,nan,236.43953492814035,740.8211941713816,nan,741.2918188486947,nan,nan,nan,nan
1,343,1,1,1.0,1.0,0.47013459680601954,0,6,3,8,0,2,5,nan,nan,nan,nan,nan,nan,nan,nan,nan,nan,nan,nan,0.0,nan,nan,nan,nan,nan,nan,nan,nan,nan,nan,nan,nan,nan,nan,nan,nan,nan,nan,236.43953492814035,741.8296672327706,nan,742.2998018295766,nan,nan,nan,nan
1,344,1,1,1.0,1.0,0.46965905620891135,0,8,5,6,2,1,4,nan,nan,nan,nan,nan,nan,nan,nan,nan,nan,nan,nan,0.0,nan,nan,nan,nan,nan,nan,nan,nan,nan,nan,nan,nan,nan,nan,nan,nan,nan,nan,236.43953492814035,742.8381223331089,nan,743.3077813893178,nan,nan,nan,nan
1,345,1,1,1.0,1.0,0.6771720843971707,0,2,4,8,1,3,5,nan,nan,nan,nan,nan,nan,nan,nan,nan,nan,nan,nan,0.0,nan,nan,nan,nan,nan,nan,nan,nan,nan,nan,nan,nan,nan,nan,nan,nan,nan,nan,236.43953492814035,743.846580854588,nan,744.5237529389851,nan,nan,nan,nan
1,346,1,1,1.0,1.0,0.7486956132634077,0,5,6,2,0,8,4,nan,nan,nan,nan,nan,nan,nan,nan,nan,nan,nan,nan,0.0,nan,nan,nan,nan,nan,nan,nan,nan,nan,nan,nan,nan,nan,nan,nan,nan,nan,nan,236.43953492814035,744.8550473587675,nan,745.6037429720309,nan,nan,nan,nan
1,347,1,1,1.0,1.0,0.6602051495865453,0,0,5,6,7,2,3,nan,nan,nan,nan,nan,nan,nan,nan,nan,nan,nan,nan,0.0,nan,nan,nan,nan,nan,nan,nan,nan,nan,nan,nan,nan,nan,nan,nan,nan,nan,nan,236.43953492814035,745.8634993230371,nan,746.5237044726236,nan,nan,nan,nan
1,348,1,1,1.0,1.0,0.5237395394651685,0,5,7,8,2,6,1,nan,nan,nan,nan,nan,nan,nan,nan,nan,nan,nan,nan,0.0,nan,nan,nan,nan,nan,nan,nan,nan,nan,nan,nan,nan,nan,nan,nan,nan,nan,nan,236.43953492814035,746.8719595551083,nan,747.3956990945735,nan,nan,nan,nan
1,349,1,1,1.0,1.0,0.563258160094847,0,2,8,0,1,4,5,nan,nan,nan,nan,nan,nan,nan,nan,nan,nan,nan,nan,0.0,nan,nan,nan,nan,nan,nan,nan,nan,nan,nan,nan,nan,nan,nan,nan,nan,nan,nan,236.43953492814035,747.8804297655442,nan,748.4436879256391,nan,nan,nan,nan
1,350,0,0,0.0,1.0,0.7467458398023155,0,4,0,6,3,2,8,nan,nan,nan,nan,nan,nan,nan,nan,nan,nan,nan,nan,0.0,nan,nan,nan,nan,nan,nan,nan,nan,nan,nan,nan,nan,nan,nan,nan,nan,nan,nan,236.43953492814035,748.8888962697238,nan,749.6356421095261,nan,nan,nan,nan
1,351,1,1,1.0,1.0,0.7942565644189017,0,5,3,8,2,4,7,nan,nan,nan,nan,nan,nan,nan,nan,nan,nan,nan,nan,0.0,nan,nan,nan,nan,nan,nan,nan,nan,nan,nan,nan,nan,nan,nan,nan,nan,nan,nan,236.43953492814035,749.8973513700475,nan,750.6916079344664,nan,nan,nan,nan
1,352,1,1,nan,nan,nan,0,7,1,5,4,3,6,nan,nan,nan,nan,nan,nan,nan,nan,nan,nan,nan,nan,0.0,nan,nan,nan,nan,nan,nan,nan,nan,nan,nan,nan,nan,nan,nan,nan,nan,nan,nan,236.43953492814035,750.9058221506712,nan,nan,nan,nan,nan,nan
1,353,1,1,nan,nan,nan,0,1,2,4,7,5,8,nan,nan,nan,nan,nan,nan,nan,nan,nan,nan,nan,nan,0.0,nan,nan,nan,nan,nan,nan,nan,nan,nan,nan,nan,nan,nan,nan,nan,nan,nan,nan,236.43953492814035,751.9142655620526,nan,nan,nan,nan,nan,nan
1,354,0,0,0.0,1.0,0.5768127775663743,0,4,6,0,5,8,3,nan,nan,nan,nan,nan,nan,nan,nan,nan,nan,nan,nan,0.0,nan,nan,nan,nan,nan,nan,nan,nan,nan,nan,nan,nan,nan,nan,nan,nan,nan,nan,236.43953492814035,752.9227312109433,nan,753.4995439885097,nan,nan,nan,nan
1,355,1,1,1.0,1.0,0.44834240747150034,0,7,3,2,0,6,5,nan,nan,nan,nan,nan,nan,nan,nan,nan,nan,nan,nan,0.0,nan,nan,nan,nan,nan,nan,nan,nan,nan,nan,nan,nan,nan,nan,nan,nan,nan,nan,236.43953492814035,753.931202276668,nan,754.3795446841395,nan,nan,nan,nan
1,356,1,1,1.0,1.0,0.5118641390872654,0,1,8,5,4,3,0,nan,nan,nan,nan,nan,nan,nan,nan,nan,nan,nan,nan,0.0,nan,nan,nan,nan,nan,nan,nan,nan,nan,nan,nan,nan,nan,nan,nan,nan,nan,nan,236.43953492814035,754.9396642193024,nan,755.4515283583896,nan,nan,nan,nan
1,357,1,1,1.0,1.0,0.47934320659260266,1,0,6,1,7,5,4,1.0,1.0,1.0,1.0,1.0,1.0,1.0,1.0,1.0,0.0,0.0,0.0,3.0,0.0,6.0,1.0,4.0,6.0,3.0,3.0,2.0,1.0,6.0,5.0,4.0,4.264160233229632,3.458006601125817,2.4972734817420132,7.704369414073881,6.376948027231265,5.608185057135415,236.43953492814035,755.9481298682076,756.7565511561115,756.4274730748002,765.5159834952065,766.5159179230686,757.7733353442163,765.5076535521512
1,358,1,1,1.0,1.0,0.40673146524932235,0,6,5,7,4,3,8,nan,nan,nan,nan,nan,nan,nan,nan,nan,nan,nan,nan,0.0,nan,nan,nan,nan,nan,nan,nan,nan,nan,nan,nan,nan,nan,nan,nan,nan,nan,nan,236.43953492814035,766.7245031983621,nan,767.1312346636114,nan,nan,nan,nan
1,359,1,1,1.0,1.0,0.42224355376674794,0,3,2,8,7,1,0,nan,nan,nan,nan,nan,nan,nan,nan,nan,nan,nan,nan,0.0,nan,nan,nan,nan,nan,nan,nan,nan,nan,nan,nan,nan,nan,nan,nan,nan,nan,nan,236.43953492814035,767.7329699876282,nan,768.1552135413949,nan,nan,nan,nan
1,360,1,1,1.0,1.0,0.333741401147563,0,2,6,5,8,0,3,nan,nan,nan,nan,nan,nan,nan,nan,nan,nan,nan,nan,0.0,nan,nan,nan,nan,nan,nan,nan,nan,nan,nan,nan,nan,nan,nan,nan,nan,nan,nan,236.43953492814035,768.7414382023853,nan,769.0751796035329,nan,nan,nan,nan
1,361,1,1,1.0,1.0,0.3012603821262019,0,1,5,6,3,7,4,nan,nan,nan,nan,nan,nan,nan,nan,nan,nan,nan,nan,0.0,nan,nan,nan,nan,nan,nan,nan,nan,nan,nan,nan,nan,nan,nan,nan,nan,nan,nan,236.43953492814035,769.749887600803,nan,770.0511479829293,nan,nan,nan,nan
1,362,1,1,1.0,1.0,0.3487836509884801,0,3,8,1,6,5,2,nan,nan,nan,nan,nan,nan,nan,nan,nan,nan,nan,nan,0.0,nan,nan,nan,nan,nan,nan,nan,nan,nan,nan,nan,nan,nan,nan,nan,nan,nan,nan,236.43953492814035,770.7583640833473,nan,771.1071477343357,nan,nan,nan,nan
1,363,0,0,0.0,1.0,0.4363347224134486,0,4,1,2,7,0,3,nan,nan,nan,nan,nan,nan,nan,nan,nan,nan,nan,nan,0.0,nan,nan,nan,nan,nan,nan,nan,nan,nan,nan,nan,nan,nan,nan,nan,nan,nan,nan,236.43953492814035,771.7668026480969,nan,772.2031373705104,nan,nan,nan,nan
1,364,1,1,1.0,1.0,0.3958479148132028,0,2,3,5,0,1,6,nan,nan,nan,nan,nan,nan,nan,nan,nan,nan,nan,nan,0.0,nan,nan,nan,nan,nan,nan,nan,nan,nan,nan,nan,nan,nan,nan,nan,nan,nan,nan,236.43953492814035,772.7752734287205,nan,773.1711213435337,nan,nan,nan,nan
1,365,1,1,1.0,1.0,0.419314189493889,0,7,0,2,6,4,3,nan,nan,nan,nan,nan,nan,nan,nan,nan,nan,nan,nan,0.0,nan,nan,nan,nan,nan,nan,nan,nan,nan,nan,nan,nan,nan,nan,nan,nan,nan,nan,236.43953492814035,773.7837422136654,nan,774.2030564031593,nan,nan,nan,nan
1,366,0,0,0.0,1.0,0.5388413744367426,0,0,3,4,1,8,7,nan,nan,nan,nan,nan,nan,nan,nan,nan,nan,nan,nan,0.0,nan,nan,nan,nan,nan,nan,nan,nan,nan,nan,nan,nan,nan,nan,nan,nan,nan,nan,236.43953492814035,774.7921958885127,nan,775.3310372629494,nan,nan,nan,nan
1,367,1,1,1.0,1.0,0.3943497338768793,0,2,6,8,5,7,3,nan,nan,nan,nan,nan,nan,nan,nan,nan,nan,nan,nan,0.0,nan,nan,nan,nan,nan,nan,nan,nan,nan,nan,nan,nan,nan,nan,nan,nan,nan,nan,236.43953492814035,775.8006763624144,nan,776.1950260962913,nan,nan,nan,nan
1,368,1,1,1.0,1.0,0.4818771423160797,0,0,1,5,2,8,7,nan,nan,nan,nan,nan,nan,nan,nan,nan,nan,nan,nan,0.0,nan,nan,nan,nan,nan,nan,nan,nan,nan,nan,nan,nan,nan,nan,nan,nan,nan,nan,236.43953492814035,776.809120058897,nan,777.290997201213,nan,nan,nan,nan
1,369,1,1,1.0,1.0,0.45738252536102664,0,6,3,1,7,4,0,nan,nan,nan,nan,nan,nan,nan,nan,nan,nan,nan,nan,0.0,nan,nan,nan,nan,nan,nan,nan,nan,nan,nan,nan,nan,nan,nan,nan,nan,nan,nan,236.43953492814035,777.8175762996107,nan,778.2749588249717,nan,nan,nan,nan
1,370,0,0,0.0,1.0,0.4729008860012982,0,4,2,7,1,5,8,nan,nan,nan,nan,nan,nan,nan,nan,nan,nan,nan,nan,0.0,nan,nan,nan,nan,nan,nan,nan,nan,nan,nan,nan,nan,nan,nan,nan,nan,nan,nan,236.43953492814035,778.8260493609996,nan,779.2989502470009,nan,nan,nan,nan
1,371,1,1,1.0,1.0,0.5044006036041537,0,5,1,2,4,3,6,nan,nan,nan,nan,nan,nan,nan,nan,nan,nan,nan,nan,0.0,nan,nan,nan,nan,nan,nan,nan,nan,nan,nan,nan,nan,nan,nan,nan,nan,nan,nan,236.43953492814035,779.8345124440239,nan,780.338913047628,nan,nan,nan,nan
1,372,1,1,1.0,1.0,0.5192404350964352,0,8,2,3,0,7,1,nan,nan,nan,nan,nan,nan,nan,nan,nan,nan,nan,nan,0.0,nan,nan,nan,nan,nan,nan,nan,nan,nan,nan,nan,nan,nan,nan,nan,nan,nan,nan,236.43953492814035,780.8596411151084,nan,781.3788815502048,nan,nan,nan,nan
1,373,1,1,1.0,1.0,0.47877757556852885,0,3,8,0,1,5,2,nan,nan,nan,nan,nan,nan,nan,nan,nan,nan,nan,nan,0.0,nan,nan,nan,nan,nan,nan,nan,nan,nan,nan,nan,nan,nan,nan,nan,nan,nan,nan,236.43953492814035,781.8681019173673,nan,782.3468794929358,nan,nan,nan,nan
1,374,1,1,1.0,1.0,0.638278394806548,0,6,0,4,7,2,5,nan,nan,nan,nan,nan,nan,nan,nan,nan,nan,nan,nan,0.0,nan,nan,nan,nan,nan,nan,nan,nan,nan,nan,nan,nan,nan,nan,nan,nan,nan,nan,236.43953492814035,782.8765630047128,nan,783.5148413995194,nan,nan,nan,nan
1,375,1,1,1.0,1.0,0.5978434747230494,0,0,1,3,5,8,4,nan,nan,nan,nan,nan,nan,nan,nan,nan,nan,nan,nan,0.0,nan,nan,nan,nan,nan,nan,nan,nan,nan,nan,nan,nan,nan,nan,nan,nan,nan,nan,236.43953492814035,783.8850024247513,nan,784.4828458994743,nan,nan,nan,nan
1,376,1,1,1.0,1.0,0.5333048047032207,0,7,4,8,0,3,2,nan,nan,nan,nan,nan,nan,nan,nan,nan,nan,nan,nan,0.0,nan,nan,nan,nan,nan,nan,nan,nan,nan,nan,nan,nan,nan,nan,nan,nan,nan,nan,236.43953492814035,784.89350570635,nan,785.4268105110532,nan,nan,nan,nan
1,377,1,1,1.0,1.0,0.5408322017319733,0,2,8,4,6,0,7,nan,nan,nan,nan,nan,nan,nan,nan,nan,nan,nan,nan,0.0,nan,nan,nan,nan,nan,nan,nan,nan,nan,nan,nan,nan,nan,nan,nan,nan,nan,nan,236.43953492814035,785.9019442710996,nan,786.4427764728316,nan,nan,nan,nan
1,378,1,1,1.0,1.0,0.4283112578559667,0,8,4,6,7,1,0,nan,nan,nan,nan,nan,nan,nan,nan,nan,nan,nan,nan,0.0,nan,nan,nan,nan,nan,nan,nan,nan,nan,nan,nan,nan,nan,nan,nan,nan,nan,nan,236.43953492814035,786.9104504036513,nan,787.3387616615073,nan,nan,nan,nan
1,379,1,1,1.0,1.0,0.4119053925096523,0,4,6,8,0,2,1,nan,nan,nan,nan,nan,nan,nan,nan,nan,nan,nan,nan,0.0,nan,nan,nan,nan,nan,nan,nan,nan,nan,nan,nan,nan,nan,nan,nan,nan,nan,nan,236.43953492814035,787.9188673010794,nan,788.3307726935891,nan,nan,nan,nan
1,380,1,1,1.0,1.0,0.4194136880978476,0,7,1,5,4,0,3,nan,nan,nan,nan,nan,nan,nan,nan,nan,nan,nan,nan,0.0,nan,nan,nan,nan,nan,nan,nan,nan,nan,nan,nan,nan,nan,nan,nan,nan,nan,nan,236.43953492814035,788.9273380817176,nan,789.3467517698155,nan,nan,nan,nan
1,381,1,1,1.0,1.0,0.47488030945532955,0,8,2,0,3,6,4,nan,nan,nan,nan,nan,nan,nan,nan,nan,nan,nan,nan,0.0,nan,nan,nan,nan,nan,nan,nan,nan,nan,nan,nan,nan,nan,nan,nan,nan,nan,nan,236.43953492814035,789.935808292139,nan,790.4106886015943,nan,nan,nan,nan
1,382,1,1,1.0,1.0,0.5464160974515835,0,0,4,1,6,3,7,nan,nan,nan,nan,nan,nan,nan,nan,nan,nan,nan,nan,0.0,nan,nan,nan,nan,nan,nan,nan,nan,nan,nan,nan,nan,nan,nan,nan,nan,nan,nan,236.43953492814035,790.9442440059211,nan,791.4906601033726,nan,nan,nan,nan
1,383,1,1,1.0,1.0,0.609904187702341,0,4,8,3,7,6,2,nan,nan,nan,nan,nan,nan,nan,nan,nan,nan,nan,nan,0.0,nan,nan,nan,nan,nan,nan,nan,nan,nan,nan,nan,nan,nan,nan,nan,nan,nan,nan,236.43953492814035,791.9527361687651,nan,792.5626403564675,nan,nan,nan,nan
1,384,0,0,0.0,1.0,0.7214526681782445,0,8,1,7,2,4,3,nan,nan,nan,nan,nan,nan,nan,nan,nan,nan,nan,nan,0.0,nan,nan,nan,nan,nan,nan,nan,nan,nan,nan,nan,nan,nan,nan,nan,nan,nan,nan,236.43953492814035,792.9611844267929,nan,793.6826370949711,nan,nan,nan,nan
1,385,1,1,1.0,1.0,0.7209762722923188,0,5,6,3,0,2,8,nan,nan,nan,nan,nan,nan,nan,nan,nan,nan,nan,nan,0.0,nan,nan,nan,nan,nan,nan,nan,nan,nan,nan,nan,nan,nan,nan,nan,nan,nan,nan,236.43953492814035,793.9696235617303,nan,794.6905998340226,nan,nan,nan,nan
1,386,1,1,1.0,1.0,0.6724677107122261,0,8,5,1,2,6,4,nan,nan,nan,nan,nan,nan,nan,nan,nan,nan,nan,nan,0.0,nan,nan,nan,nan,nan,nan,nan,nan,nan,nan,nan,nan,nan,nan,nan,nan,nan,nan,236.43953492814035,794.9781097375526,nan,795.6505774482648,nan,nan,nan,nan
1,387,1,1,1.0,1.0,0.6879840756737394,0,7,1,0,8,4,3,nan,nan,nan,nan,nan,nan,nan,nan,nan,nan,nan,nan,0.0,nan,nan,nan,nan,nan,nan,nan,nan,nan,nan,nan,nan,nan,nan,nan,nan,nan,nan,236.43953492814035,795.9865699696093,nan,796.674554045283,nan,nan,nan,nan
1,388,1,1,1.0,1.0,0.6314779932727106,0,1,0,3,5,8,6,nan,nan,nan,nan,nan,nan,nan,nan,nan,nan,nan,nan,0.0,nan,nan,nan,nan,nan,nan,nan,nan,nan,nan,nan,nan,nan,nan,nan,nan,nan,nan,236.43953492814035,796.9950359036011,nan,797.6265138968738,nan,nan,nan,nan
1,389,1,1,nan,nan,nan,0,2,3,4,6,7,1,nan,nan,nan,nan,nan,nan,nan,nan,nan,nan,nan,nan,0.0,nan,nan,nan,nan,nan,nan,nan,nan,nan,nan,nan,nan,nan,nan,nan,nan,nan,nan,236.43953492814035,798.0035046885605,nan,nan,nan,nan,nan,nan
1,390,1,1,nan,nan,nan,0,1,0,3,4,6,2,nan,nan,nan,nan,nan,nan,nan,nan,nan,nan,nan,nan,0.0,nan,nan,nan,nan,nan,nan,nan,nan,nan,nan,nan,nan,nan,nan,nan,nan,nan,nan,236.43953492814035,799.0119595037831,nan,nan,nan,nan,nan,nan
