block,trial,freq_trials,correct_response,actual_response,acc,rts,probe_trials,fast_rt_trigger,slow_rt_trigger,rt_triggered,rts_runningavg,rts_runningstd,rts_runningfastthresh,rts_runningslowthresh,rts_runningstd,rts_trailingavg,trials_colorind0,trials_colorind1,trials_colorind2,trials_colorind3,trials_colorind4,trials_colorind5,wholereport_resp0,wholereport_resp1,wholereport_resp2,wholereport_resp3,wholereport_resp4,wholereport_resp5,wholereport_respacc0,wholereport_respacc1,wholereport_respacc2,wholereport_respacc3,wholereport_respacc4,wholereport_respacc5,wholereport_respacc_total,wholereport_respcolorind0,wholereport_respcolorind1,wholereport_respcolorind2,wholereport_respcolorind3,wholereport_respcolorind4,wholereport_respcolorind5,wholereport_resporder0,wholereport_resporder1,wholereport_resporder2,wholereport_resporder3,wholereport_resporder4,wholereport_resporder5,wholereport_rts0,wholereport_rts1,wholereport_rts2,wholereport_rts3,wholereport_rts4,wholereport_rts5,time_blockstart,time_encarray_offset,time_encarray_onset,time_response,time_iti_offset,time_iti_onset,time_memprobe_offset,time_memprobe_onset
1,1,1,1,1.0,1.0,0.6222932044765912,0,nan,nan,nan,nan,nan,nan,nan,nan,nan,3,5,0,8,6,4,nan,nan,nan,nan,nan,nan,nan,nan,nan,nan,nan,nan,0.0,nan,nan,nan,nan,nan,nan,nan,nan,nan,nan,nan,nan,nan,nan,nan,nan,nan,nan,1327.821956108557,1328.8396527889417,nan,1329.4619459934183,nan,nan,nan,nan
1,2,1,1,1.0,1.0,0.2775137009448372,0,nan,nan,nan,nan,nan,nan,nan,nan,nan,8,0,1,2,3,6,nan,nan,nan,nan,nan,nan,nan,nan,nan,nan,nan,nan,0.0,nan,nan,nan,nan,nan,nan,nan,nan,nan,nan,nan,nan,nan,nan,nan,nan,nan,nan,1327.821956108557,1329.8564206309384,nan,1330.1339343318832,nan,nan,nan,nan
1,3,1,1,1.0,1.0,0.2447129909414798,0,nan,nan,nan,nan,nan,nan,nan,nan,nan,7,3,8,5,4,2,nan,nan,nan,nan,nan,nan,nan,nan,nan,nan,nan,nan,0.0,nan,nan,nan,nan,nan,nan,nan,nan,nan,nan,nan,nan,nan,nan,nan,nan,nan,nan,1327.821956108557,1330.8731958853896,nan,1331.117908876331,nan,nan,nan,nan
1,4,1,1,1.0,1.0,0.29988593357848004,0,nan,nan,nan,nan,nan,nan,nan,nan,nan,5,8,1,3,6,4,nan,nan,nan,nan,nan,nan,nan,nan,nan,nan,nan,nan,0.0,nan,nan,nan,nan,nan,nan,nan,nan,nan,nan,nan,nan,nan,nan,nan,nan,nan,nan,1327.821956108557,1331.8899896710645,nan,1332.189875604643,nan,nan,nan,nan
1,5,1,1,1.0,1.0,0.3710652305162512,0,nan,nan,nan,nan,nan,nan,nan,nan,nan,6,1,0,8,5,7,nan,nan,nan,nan,nan,nan,nan,nan,nan,nan,nan,nan,0.0,nan,nan,nan,nan,nan,nan,nan,nan,nan,nan,nan,nan,nan,nan,nan,nan,nan,nan,1327.821956108557,1332.9067948604352,nan,1333.2778600909514,nan,nan,nan,nan
1,6,0,0,0.0,1.0,0.5702654260094278,0,nan,nan,nan,nan,nan,nan,nan,nan,nan,3,8,1,7,2,0,nan,nan,nan,nan,nan,nan,nan,nan,nan,nan,nan,nan,0.0,nan,nan,nan,nan,nan,nan,nan,nan,nan,nan,nan,nan,nan,nan,nan,nan,nan,nan,1327.821956108557,1333.9235473073204,nan,1334.4938127333298,nan,nan,nan,nan
1,7,1,1,1.0,1.0,0.7214143431629054,0,nan,nan,nan,nan,nan,nan,nan,nan,nan,7,3,2,4,6,8,nan,nan,nan,nan,nan,nan,nan,nan,nan,nan,nan,nan,0.0,nan,nan,nan,nan,nan,nan,nan,nan,nan,nan,nan,nan,nan,nan,nan,nan,nan,nan,1327.821956108557,1334.9403522116481,nan,1335.661766554811,nan,nan,nan,nan
1,8,1,1,1.0,1.0,0.6885965274996124,0,nan,nan,nan,nan,nan,nan,nan,nan,nan,6,1,4,3,0,2,nan,nan,nan,nan,nan,nan,nan,nan,nan,nan,nan,nan,0.0,nan,nan,nan,nan,nan,nan,nan,nan,nan,nan,nan,nan,nan,nan,nan,nan,nan,nan,1327.821956108557,1335.9571308872546,nan,1336.6457274147542,nan,nan,nan,nan
1,9,1,1,1.0,1.0,0.7277899149339646,0,nan,nan,nan,nan,nan,nan,nan,nan,nan,3,2,7,4,1,5,nan,nan,nan,nan,nan,nan,nan,nan,nan,nan,nan,nan,0.0,nan,nan,nan,nan,nan,nan,nan,nan,nan,nan,nan,nan,nan,nan,nan,nan,nan,nan,1327.821956108557,1336.9739084224566,nan,1337.7016983373906,nan,nan,nan,nan
1,10,1,1,1.0,1.0,0.5349855329259299,0,nan,nan,nan,nan,nan,nan,nan,nan,nan,2,5,4,0,6,8,nan,nan,nan,nan,nan,nan,nan,nan,nan,nan,nan,nan,0.0,nan,nan,nan,nan,nan,nan,nan,nan,nan,nan,nan,nan,nan,nan,nan,nan,nan,nan,1327.821956108557,1337.9906945105176,nan,1338.5256800434436,nan,nan,nan,nan
1,11,1,1,1.0,1.0,0.4781698748120107,0,nan,nan,nan,nan,nan,nan,nan,nan,nan,0,7,3,6,2,5,nan,nan,nan,nan,nan,nan,nan,nan,nan,nan,nan,nan,0.0,nan,nan,nan,nan,nan,nan,nan,nan,nan,nan,nan,nan,nan,nan,nan,nan,nan,nan,1327.821956108557,1339.007478317828,nan,1339.48564819264,nan,nan,nan,nan
1,12,1,1,1.0,1.0,0.38135828787926584,0,nan,nan,nan,nan,nan,nan,nan,nan,nan,6,3,7,0,1,4,nan,nan,nan,nan,nan,nan,nan,nan,nan,nan,nan,nan,0.0,nan,nan,nan,nan,nan,nan,nan,nan,nan,nan,nan,nan,nan,nan,nan,nan,nan,nan,1327.821956108557,1340.0242658313946,nan,1340.4056241192739,nan,nan,nan,nan
1,13,0,0,1.0,0.0,0.4925426366389729,0,nan,nan,nan,nan,nan,nan,nan,nan,nan,0,5,1,2,7,3,nan,nan,nan,nan,nan,nan,nan,nan,nan,nan,nan,nan,0.0,nan,nan,nan,nan,nan,nan,nan,nan,nan,nan,nan,nan,nan,nan,nan,nan,nan,nan,1327.821956108557,1341.0410522045568,nan,1341.5335948411957,nan,nan,nan,nan
1,14,1,1,1.0,1.0,0.6197658403543755,0,nan,nan,nan,nan,nan,nan,nan,nan,nan,5,7,2,3,8,4,nan,nan,nan,nan,nan,nan,nan,nan,nan,nan,nan,nan,0.0,nan,nan,nan,nan,nan,nan,nan,nan,nan,nan,nan,nan,nan,nan,nan,nan,nan,nan,1327.821956108557,1342.057818621106,nan,1342.6775844614604,nan,nan,nan,nan
1,15,1,1,1.0,1.0,0.4588547120220028,0,nan,nan,nan,nan,nan,nan,nan,nan,nan,2,5,3,7,0,1,nan,nan,nan,nan,nan,nan,nan,nan,nan,nan,nan,nan,0.0,nan,nan,nan,nan,nan,nan,nan,nan,nan,nan,nan,nan,nan,nan,nan,nan,nan,nan,1327.821956108557,1343.0746737020672,nan,1343.5335284140892,nan,nan,nan,nan
1,16,1,1,1.0,1.0,0.4577419876586646,0,nan,nan,nan,nan,nan,nan,nan,nan,nan,1,6,4,8,5,2,nan,nan,nan,nan,nan,nan,nan,nan,nan,nan,nan,nan,0.0,nan,nan,nan,nan,nan,nan,nan,nan,nan,nan,nan,nan,nan,nan,nan,nan,nan,nan,1327.821956108557,1344.0997460662038,nan,1344.5574880538625,nan,nan,nan,nan
1,17,1,1,1.0,1.0,0.4329450249206275,0,nan,nan,nan,nan,nan,nan,nan,nan,nan,5,2,8,4,6,3,nan,nan,nan,nan,nan,nan,nan,nan,nan,nan,nan,nan,0.0,nan,nan,nan,nan,nan,nan,nan,nan,nan,nan,nan,nan,nan,nan,nan,nan,nan,nan,1327.821956108557,1345.1165247418103,nan,1345.549469766731,nan,nan,nan,nan
1,18,1,1,1.0,1.0,0.4481334425508976,0,nan,nan,nan,nan,nan,nan,nan,nan,nan,7,8,5,1,3,6,nan,nan,nan,nan,nan,nan,nan,nan,nan,nan,nan,nan,0.0,nan,nan,nan,nan,nan,nan,nan,nan,nan,nan,nan,nan,nan,nan,nan,nan,nan,nan,1327.821956108557,1346.1333139659255,nan,1346.5814474084764,nan,nan,nan,nan
1,19,1,1,1.0,1.0,0.39894007513066754,0,nan,nan,nan,nan,nan,nan,nan,nan,nan,2,3,8,0,5,1,nan,nan,nan,nan,nan,nan,nan,nan,nan,nan,nan,nan,0.0,nan,nan,nan,nan,nan,nan,nan,nan,nan,nan,nan,nan,nan,nan,nan,nan,nan,nan,1327.821956108557,1347.1584496210562,nan,1347.5573896961869,nan,nan,nan,nan
1,20,1,1,1.0,1.0,0.4541249917820096,1,nan,nan,nan,nan,nan,nan,nan,nan,nan,3,7,6,5,4,8,1.0,1.0,1.0,1.0,1.0,1.0,1.0,1.0,1.0,0.0,0.0,0.0,3.0,3.0,7.0,6.0,3.0,8.0,1.0,3.0,2.0,1.0,6.0,5.0,4.0,5.4983431724249385,3.562247423978988,1.9806181251769885,9.930143542354926,8.858030275383499,6.579285820829682,1327.821956108557,1348.1752570912358,1348.9836290097446,1348.6293820830178,1359.9599082793575,1360.9641353777843,1349.9920871978975,1359.951576958294
1,21,1,1,nan,nan,nan,0,nan,nan,nan,nan,nan,nan,nan,nan,nan,4,6,8,1,5,0,nan,nan,nan,nan,nan,nan,nan,nan,nan,nan,nan,nan,0.0,nan,nan,nan,nan,nan,nan,nan,nan,nan,nan,nan,nan,nan,nan,nan,nan,nan,nan,1327.821956108557,1361.1850763213006,nan,nan,nan,nan,nan,nan
1,22,1,1,1.0,1.0,0.0031377517734654248,0,nan,nan,nan,nan,nan,nan,nan,nan,nan,6,3,5,4,0,2,nan,nan,nan,nan,nan,nan,nan,nan,nan,nan,nan,nan,0.0,nan,nan,nan,nan,nan,nan,nan,nan,nan,nan,nan,nan,nan,nan,nan,nan,nan,nan,1327.821956108557,1362.2018604136538,nan,1362.2049981654272,nan,nan,nan,nan
1,23,1,1,nan,nan,nan,0,nan,nan,nan,nan,nan,nan,nan,nan,nan,1,4,8,7,2,5,nan,nan,nan,nan,nan,nan,nan,nan,nan,nan,nan,nan,0.0,nan,nan,nan,nan,nan,nan,nan,nan,nan,nan,nan,nan,nan,nan,nan,nan,nan,nan,1327.821956108557,1363.2269724059734,nan,nan,nan,nan,nan,nan
1,24,1,1,1.0,1.0,0.6411094515351579,0,nan,nan,nan,nan,nan,nan,nan,nan,nan,0,6,1,4,3,2,nan,nan,nan,nan,nan,nan,nan,nan,nan,nan,nan,nan,0.0,nan,nan,nan,nan,nan,nan,nan,nan,nan,nan,nan,nan,nan,nan,nan,nan,nan,nan,1327.821956108557,1364.2437667617924,nan,1364.8848762133275,nan,nan,nan,nan
1,25,1,1,1.0,1.0,0.3843469350831583,0,nan,nan,nan,nan,nan,nan,nan,nan,nan,2,0,5,1,8,7,nan,nan,nan,nan,nan,nan,nan,nan,nan,nan,nan,nan,0.0,nan,nan,nan,nan,nan,nan,nan,nan,nan,nan,nan,nan,nan,nan,nan,nan,nan,nan,1327.821956108557,1365.2605517095071,nan,1365.6448986445903,nan,nan,nan,nan
1,26,1,1,1.0,1.0,0.36752064869506285,0,nan,nan,nan,nan,nan,nan,nan,nan,nan,8,4,6,7,2,1,nan,nan,nan,nan,nan,nan,nan,nan,nan,nan,nan,nan,0.0,nan,nan,nan,nan,nan,nan,nan,nan,nan,nan,nan,nan,nan,nan,nan,nan,nan,nan,1327.821956108557,1366.2773360869614,nan,1366.6448567356565,nan,nan,nan,nan
1,27,1,1,1.0,1.0,0.3347122411360033,0,nan,nan,nan,nan,nan,nan,nan,nan,nan,0,1,3,8,6,7,nan,nan,nan,nan,nan,nan,nan,nan,nan,nan,nan,nan,0.0,nan,nan,nan,nan,nan,nan,nan,nan,nan,nan,nan,nan,nan,nan,nan,nan,nan,nan,1327.821956108557,1367.2941521100001,nan,1367.6288643511361,nan,nan,nan,nan
1,28,1,1,1.0,1.0,0.3018753241049126,0,nan,nan,nan,nan,nan,nan,nan,nan,nan,5,0,1,2,7,4,nan,nan,nan,nan,nan,nan,nan,nan,nan,nan,nan,nan,0.0,nan,nan,nan,nan,nan,nan,nan,nan,nan,nan,nan,nan,nan,nan,nan,nan,nan,nan,1327.821956108557,1368.3109216625453,nan,1368.6127969866502,nan,nan,nan,nan
1,29,1,1,1.0,1.0,0.30108247592579573,0,nan,nan,nan,nan,nan,nan,nan,nan,nan,8,6,2,5,0,7,nan,nan,nan,nan,nan,nan,nan,nan,nan,nan,nan,nan,0.0,nan,nan,nan,nan,nan,nan,nan,nan,nan,nan,nan,nan,nan,nan,nan,nan,nan,nan,1327.821956108557,1369.327695206448,nan,1369.6287776823738,nan,nan,nan,nan
1,30,1,1,1.0,1.0,0.31626205559587106,0,nan,nan,nan,nan,nan,nan,nan,nan,nan,7,4,5,2,3,0,nan,nan,nan,nan,nan,nan,nan,nan,nan,nan,nan,nan,0.0,nan,nan,nan,nan,nan,nan,nan,nan,nan,nan,nan,nan,nan,nan,nan,nan,nan,nan,1327.821956108557,1370.3444795839605,nan,1370.6607416395564,nan,nan,nan,nan
1,31,1,1,1.0,1.0,0.3314422054681927,0,nan,nan,nan,nan,nan,nan,nan,nan,nan,6,3,4,8,5,7,nan,nan,nan,nan,nan,nan,nan,nan,nan,nan,nan,nan,0.0,nan,nan,nan,nan,nan,nan,nan,nan,nan,nan,nan,nan,nan,nan,nan,nan,nan,nan,1327.821956108557,1371.361266812426,nan,1371.6927090178942,nan,nan,nan,nan
1,32,1,1,1.0,1.0,0.3786381998215802,0,nan,nan,nan,nan,nan,nan,nan,nan,nan,7,1,3,2,8,0,nan,nan,nan,nan,nan,nan,nan,nan,nan,nan,nan,nan,0.0,nan,nan,nan,nan,nan,nan,nan,nan,nan,nan,nan,nan,nan,nan,nan,nan,nan,nan,1327.821956108557,1372.3780537557323,nan,1372.7566919555538,nan,nan,nan,nan
1,33,1,1,1.0,1.0,0.36180507112294436,0,nan,nan,nan,nan,nan,nan,nan,nan,nan,4,7,1,5,3,6,nan,nan,nan,nan,nan,nan,nan,nan,nan,nan,nan,nan,0.0,nan,nan,nan,nan,nan,nan,nan,nan,nan,nan,nan,nan,nan,nan,nan,nan,nan,nan,1327.821956108557,1373.3948372779414,nan,1373.7566423490644,nan,nan,nan,nan
1,34,0,0,0.0,1.0,0.4086786233820021,0,nan,nan,nan,nan,nan,nan,nan,nan,nan,5,1,6,4,0,7,nan,nan,nan,nan,nan,nan,nan,nan,nan,nan,nan,nan,0.0,nan,nan,nan,nan,nan,nan,nan,nan,nan,nan,nan,nan,nan,nan,nan,nan,nan,nan,1327.821956108557,1374.419946419308,nan,1374.82862504269,nan,nan,nan,nan
1,35,1,1,1.0,1.0,0.4478463521809317,0,nan,nan,nan,nan,nan,nan,nan,nan,nan,2,5,3,0,7,8,nan,nan,nan,nan,nan,nan,nan,nan,nan,nan,nan,nan,0.0,nan,nan,nan,nan,nan,nan,nan,nan,nan,nan,nan,nan,nan,nan,nan,nan,nan,nan,1327.821956108557,1375.4367447664845,nan,1375.8845911186654,nan,nan,nan,nan
1,36,0,0,0.0,1.0,0.639035387954209,0,nan,nan,nan,nan,nan,nan,nan,nan,nan,1,4,8,5,6,7,nan,nan,nan,nan,nan,nan,nan,nan,nan,nan,nan,nan,0.0,nan,nan,nan,nan,nan,nan,nan,nan,nan,nan,nan,nan,nan,nan,nan,nan,nan,nan,1327.821956108557,1376.4535305694444,nan,1377.0925659573986,nan,nan,nan,nan
1,37,1,1,1.0,1.0,0.5342057989910245,0,nan,nan,nan,nan,nan,nan,nan,nan,nan,7,3,2,0,8,5,nan,nan,nan,nan,nan,nan,nan,nan,nan,nan,nan,nan,0.0,nan,nan,nan,nan,nan,nan,nan,nan,nan,nan,nan,nan,nan,nan,nan,nan,nan,nan,1327.821956108557,1377.4703169426066,nan,1378.0045227415976,nan,nan,nan,nan
1,38,1,1,1.0,1.0,0.5494039098266512,1,nan,nan,nan,nan,nan,nan,nan,nan,nan,5,2,7,3,4,6,1.0,1.0,1.0,1.0,1.0,1.0,0.0,0.0,0.0,1.0,0.0,0.0,1.0,4.0,5.0,6.0,3.0,1.0,0.0,6.0,1.0,2.0,3.0,4.0,5.0,10.1456588494475,1.7157500825705938,5.827279680990614,7.026833108742721,7.9614229872240685,8.746052223083097,1327.821956108557,1378.4871081623714,1379.2955060245004,1379.036512072198,1390.4885034156032,1391.4925072849146,1380.3039850245696,1390.4801743752905
1,39,1,1,1.0,1.0,0.4264499985729344,0,nan,nan,nan,nan,nan,nan,nan,nan,nan,3,7,0,1,6,5,nan,nan,nan,nan,nan,nan,nan,nan,nan,nan,nan,nan,0.0,nan,nan,nan,nan,nan,nan,nan,nan,nan,nan,nan,nan,nan,nan,nan,nan,nan,nan,1327.821956108557,1391.713697116007,nan,1392.14014711458,nan,nan,nan,nan
1,40,1,1,1.0,1.0,0.38533108186675236,0,nan,nan,nan,nan,nan,nan,nan,nan,nan,2,6,7,5,3,8,nan,nan,nan,nan,nan,nan,nan,nan,nan,nan,nan,nan,0.0,nan,nan,nan,nan,nan,nan,nan,nan,nan,nan,nan,nan,nan,nan,nan,nan,nan,nan,1327.821956108557,1392.7387777479016,nan,1393.1241088297684,nan,nan,nan,nan
1,41,1,1,1.0,1.0,0.40815461933379993,1,nan,nan,nan,nan,nan,nan,nan,nan,nan,6,0,4,8,7,1,1.0,1.0,1.0,1.0,1.0,1.0,0.0,0.0,0.0,0.0,0.0,1.0,1.0,8.0,4.0,6.0,3.0,2.0,1.0,3.0,2.0,1.0,6.0,5.0,4.0,4.667902076791506,3.5418232430238277,2.8128367858589627,8.332047746516764,7.059926325804554,6.379940227023326,1327.821956108557,1393.7639216708485,1394.5722981508588,1394.1720762901823,1403.9567206360516,1404.9549362286343,1395.5890853793244,1403.948389029887
1,42,1,1,1.0,1.0,0.3741961399791762,0,nan,nan,nan,nan,nan,nan,nan,nan,nan,5,2,6,0,1,8,nan,nan,nan,nan,nan,nan,nan,nan,nan,nan,nan,nan,0.0,nan,nan,nan,nan,nan,nan,nan,nan,nan,nan,nan,nan,nan,nan,nan,nan,nan,nan,1327.821956108557,1405.173559352581,nan,1405.54775549256,nan,nan,nan,nan
1,43,1,1,1.0,1.0,0.477348517102655,0,nan,nan,nan,nan,nan,nan,nan,nan,nan,8,4,1,7,2,6,nan,nan,nan,nan,nan,nan,nan,nan,nan,nan,nan,nan,0.0,nan,nan,nan,nan,nan,nan,nan,nan,nan,nan,nan,nan,nan,nan,nan,nan,nan,nan,1327.821956108557,1406.1903588401037,nan,1406.6677073572064,nan,nan,nan,nan
1,44,1,1,1.0,1.0,0.4442176675074734,0,nan,nan,nan,nan,nan,nan,nan,nan,nan,0,3,7,4,5,2,nan,nan,nan,nan,nan,nan,nan,nan,nan,nan,nan,nan,0.0,nan,nan,nan,nan,nan,nan,nan,nan,nan,nan,nan,nan,nan,nan,nan,nan,nan,nan,1327.821956108557,1407.2154599988135,nan,1407.659677666321,nan,nan,nan,nan
1,45,1,1,1.0,1.0,0.4113995667430572,0,nan,nan,nan,nan,nan,nan,nan,nan,nan,2,7,4,8,1,6,nan,nan,nan,nan,nan,nan,nan,nan,nan,nan,nan,nan,0.0,nan,nan,nan,nan,nan,nan,nan,nan,nan,nan,nan,nan,nan,nan,nan,nan,nan,nan,1327.821956108557,1408.232247512322,nan,1408.643647079065,nan,nan,nan,nan
1,46,1,1,1.0,1.0,0.4182549527613446,0,nan,nan,nan,nan,nan,nan,nan,nan,nan,5,0,2,3,8,4,nan,nan,nan,nan,nan,nan,nan,nan,nan,nan,nan,nan,0.0,nan,nan,nan,nan,nan,nan,nan,nan,nan,nan,nan,nan,nan,nan,nan,nan,nan,nan,1327.821956108557,1409.257372333901,nan,1409.6756272866623,nan,nan,nan,nan
1,47,0,0,1.0,0.0,0.5774261484039016,0,nan,nan,nan,nan,nan,nan,nan,nan,nan,4,2,3,1,6,8,nan,nan,nan,nan,nan,nan,nan,nan,nan,nan,nan,nan,0.0,nan,nan,nan,nan,nan,nan,nan,nan,nan,nan,nan,nan,nan,nan,nan,nan,nan,nan,1327.821956108557,1410.2741532902583,nan,1410.8515794386622,nan,nan,nan,nan
1,48,1,1,1.0,1.0,0.6322521308320574,0,nan,nan,nan,nan,nan,nan,nan,nan,nan,5,6,0,7,4,3,nan,nan,nan,nan,nan,nan,nan,nan,nan,nan,nan,nan,0.0,nan,nan,nan,nan,nan,nan,nan,nan,nan,nan,nan,nan,nan,nan,nan,nan,nan,nan,1327.821956108557,1411.2993382668355,nan,1411.9315903976676,nan,nan,nan,nan
1,49,1,1,1.0,1.0,0.5354624962783419,0,nan,nan,nan,nan,nan,nan,nan,nan,nan,3,0,8,4,7,6,nan,nan,nan,nan,nan,nan,nan,nan,nan,nan,nan,nan,0.0,nan,nan,nan,nan,nan,nan,nan,nan,nan,nan,nan,nan,nan,nan,nan,nan,nan,nan,1327.821956108557,1412.3160815906595,nan,1412.8515440869378,nan,nan,nan,nan
1,50,1,1,1.0,1.0,0.6466485555283725,0,nan,nan,nan,nan,nan,nan,nan,nan,nan,2,5,1,6,3,7,nan,nan,nan,nan,nan,nan,nan,nan,nan,nan,nan,nan,0.0,nan,nan,nan,nan,nan,nan,nan,nan,nan,nan,nan,nan,nan,nan,nan,nan,nan,nan,1327.821956108557,1413.3328748061322,nan,1413.9795233616605,nan,nan,nan,nan
1,51,0,0,0.0,1.0,0.7658406429109164,0,nan,nan,nan,nan,nan,nan,nan,nan,nan,1,6,4,0,8,5,nan,nan,nan,nan,nan,nan,nan,nan,nan,nan,nan,nan,0.0,nan,nan,nan,nan,nan,nan,nan,nan,nan,nan,nan,nan,nan,nan,nan,nan,nan,nan,1327.821956108557,1414.349631814519,nan,1415.1154724574299,nan,nan,nan,nan
1,52,1,1,1.0,1.0,0.749011505569797,0,nan,nan,nan,nan,nan,nan,nan,nan,nan,5,7,6,8,0,2,nan,nan,nan,nan,nan,nan,nan,nan,nan,nan,nan,nan,0.0,nan,nan,nan,nan,nan,nan,nan,nan,nan,nan,nan,nan,nan,nan,nan,nan,nan,nan,1327.821956108557,1415.3664187578834,nan,1416.1154302634532,nan,nan,nan,nan
1,53,1,1,1.0,1.0,0.7961715779383667,0,nan,nan,nan,nan,nan,nan,nan,nan,nan,7,8,0,6,2,1,nan,nan,nan,nan,nan,nan,nan,nan,nan,nan,nan,nan,0.0,nan,nan,nan,nan,nan,nan,nan,nan,nan,nan,nan,nan,nan,nan,nan,nan,nan,nan,1327.821956108557,1416.3832307895645,nan,1417.179402367503,nan,nan,nan,nan
1,54,1,1,nan,nan,nan,0,nan,nan,nan,nan,nan,nan,nan,nan,nan,5,7,6,1,3,4,nan,nan,nan,nan,nan,nan,nan,nan,nan,nan,nan,nan,0.0,nan,nan,nan,nan,nan,nan,nan,nan,nan,nan,nan,nan,nan,nan,nan,nan,nan,nan,1327.821956108557,1417.4083325184765,nan,nan,nan,nan,nan,nan
1,55,1,1,1.0,1.0,0.6661952151334845,0,nan,nan,nan,nan,nan,nan,nan,nan,nan,4,8,1,6,2,7,nan,nan,nan,nan,nan,nan,nan,nan,nan,nan,nan,nan,0.0,nan,nan,nan,nan,nan,nan,nan,nan,nan,nan,nan,nan,nan,nan,nan,nan,nan,nan,1327.821956108557,1418.425102641224,nan,1419.0912978563574,nan,nan,nan,nan
1,56,1,1,1.0,1.0,0.40943155833519995,0,nan,nan,nan,nan,nan,nan,nan,nan,nan,2,7,0,3,4,5,nan,nan,nan,nan,nan,nan,nan,nan,nan,nan,nan,nan,0.0,nan,nan,nan,nan,nan,nan,nan,nan,nan,nan,nan,nan,nan,nan,nan,nan,nan,nan,1327.821956108557,1419.4418938609888,nan,1419.851325419324,nan,nan,nan,nan
1,57,1,1,1.0,1.0,0.42463651148136705,0,nan,nan,nan,nan,nan,nan,nan,nan,nan,4,1,7,0,8,6,nan,nan,nan,nan,nan,nan,nan,nan,nan,nan,nan,nan,0.0,nan,nan,nan,nan,nan,nan,nan,nan,nan,nan,nan,nan,nan,nan,nan,nan,nan,nan,1327.821956108557,1420.4586739620427,nan,1420.883310473524,nan,nan,nan,nan
1,58,1,1,1.0,1.0,0.47180285590002313,1,nan,nan,nan,nan,nan,nan,nan,nan,nan,0,5,8,7,1,4,1.0,1.0,1.0,1.0,1.0,1.0,1.0,1.0,1.0,0.0,0.0,0.0,3.0,0.0,5.0,8.0,5.0,7.0,1.0,3.0,2.0,1.0,6.0,5.0,4.0,3.420761219866108,2.6367150025907904,1.660341651760973,6.587452642212156,5.796170437592082,4.724437486904208,1327.821956108557,1421.4754668924143,1422.2838710265933,1421.9472697483143,1429.9264564131736,1430.9282054688665,1423.3006856241263,1429.918132504623
1,59,1,1,1.0,1.0,0.4673807527287863,0,nan,nan,nan,nan,nan,nan,nan,nan,nan,8,4,7,0,6,3,nan,nan,nan,nan,nan,nan,nan,nan,nan,nan,nan,nan,0.0,nan,nan,nan,nan,nan,nan,nan,nan,nan,nan,nan,nan,nan,nan,nan,nan,nan,nan,1327.821956108557,1431.1516318675713,nan,1431.6190126203,nan,nan,nan,nan
1,60,1,1,1.0,1.0,0.37058370566228405,0,nan,nan,nan,nan,nan,nan,nan,nan,nan,5,8,2,3,1,4,nan,nan,nan,nan,nan,nan,nan,nan,nan,nan,nan,nan,0.0,nan,nan,nan,nan,nan,nan,nan,nan,nan,nan,nan,nan,nan,nan,nan,nan,nan,nan,1327.821956108557,1432.168394292763,nan,1432.5389779984253,nan,nan,nan,nan
1,61,1,1,1.0,1.0,0.3697575013502501,0,nan,nan,nan,nan,nan,nan,nan,nan,nan,2,4,1,8,7,0,nan,nan,nan,nan,nan,nan,nan,nan,nan,nan,nan,nan,0.0,nan,nan,nan,nan,nan,nan,nan,nan,nan,nan,nan,nan,nan,nan,nan,nan,nan,nan,1327.821956108557,1433.1851957759354,nan,1433.5549532772857,nan,nan,nan,nan
1,62,1,1,1.0,1.0,0.3769430270185694,0,nan,nan,nan,nan,nan,nan,nan,nan,nan,8,2,3,4,6,5,nan,nan,nan,nan,nan,nan,nan,nan,nan,nan,nan,nan,0.0,nan,nan,nan,nan,nan,nan,nan,nan,nan,nan,nan,nan,nan,nan,nan,nan,nan,nan,1327.821956108557,1434.2019784428412,nan,1434.5789214698598,nan,nan,nan,nan
1,63,1,1,1.0,1.0,0.3841202848125249,0,nan,nan,nan,nan,nan,nan,nan,nan,nan,6,0,5,7,8,4,nan,nan,nan,nan,nan,nan,nan,nan,nan,nan,nan,nan,0.0,nan,nan,nan,nan,nan,nan,nan,nan,nan,nan,nan,nan,nan,nan,nan,nan,nan,nan,1327.821956108557,1435.2187619651086,nan,1435.602882249921,nan,nan,nan,nan
1,64,1,1,1.0,1.0,0.36731167434481904,0,nan,nan,nan,nan,nan,nan,nan,nan,nan,5,7,6,8,1,3,nan,nan,nan,nan,nan,nan,nan,nan,nan,nan,nan,nan,0.0,nan,nan,nan,nan,nan,nan,nan,nan,nan,nan,nan,nan,nan,nan,nan,nan,nan,nan,1327.821956108557,1436.2355489084148,nan,1436.6028605827596,nan,nan,nan,nan
1,65,1,1,1.0,1.0,0.3985018846578896,0,nan,nan,nan,nan,nan,nan,nan,nan,nan,2,1,8,7,6,5,nan,nan,nan,nan,nan,nan,nan,nan,nan,nan,nan,nan,0.0,nan,nan,nan,nan,nan,nan,nan,nan,nan,nan,nan,nan,nan,nan,nan,nan,nan,nan,1327.821956108557,1437.2523141845595,nan,1437.6508160692174,nan,nan,nan,nan
1,66,1,1,1.0,1.0,0.39768964995164424,0,nan,nan,nan,nan,nan,nan,nan,nan,nan,6,5,7,4,8,3,nan,nan,nan,nan,nan,nan,nan,nan,nan,nan,nan,nan,0.0,nan,nan,nan,nan,nan,nan,nan,nan,nan,nan,nan,nan,nan,nan,nan,nan,nan,nan,1327.821956108557,1438.269095711119,nan,1438.6667853610707,nan,nan,nan,nan
1,67,1,1,1.0,1.0,0.3728661733912304,0,nan,nan,nan,nan,nan,nan,nan,nan,nan,5,6,1,2,3,8,nan,nan,nan,nan,nan,nan,nan,nan,nan,nan,nan,nan,0.0,nan,nan,nan,nan,nan,nan,nan,nan,nan,nan,nan,nan,nan,nan,nan,nan,nan,nan,1327.821956108557,1439.2858835097868,nan,1439.658749683178,nan,nan,nan,nan
1,68,1,1,1.0,1.0,0.40405353280948475,0,nan,nan,nan,nan,nan,nan,nan,nan,nan,2,3,5,4,8,1,nan,nan,nan,nan,nan,nan,nan,nan,nan,nan,nan,nan,0.0,nan,nan,nan,nan,nan,nan,nan,nan,nan,nan,nan,nan,nan,nan,nan,nan,nan,nan,1327.821956108557,1440.3026687425445,nan,1440.706722275354,nan,nan,nan,nan
1,69,1,1,1.0,1.0,0.4112404839252122,0,nan,nan,nan,nan,nan,nan,nan,nan,nan,5,6,0,2,7,3,nan,nan,nan,nan,nan,nan,nan,nan,nan,nan,nan,nan,0.0,nan,nan,nan,nan,nan,nan,nan,nan,nan,nan,nan,nan,nan,nan,nan,nan,nan,nan,1327.821956108557,1441.3194522647536,nan,1441.7306927486788,nan,nan,nan,nan
1,70,1,1,1.0,1.0,0.4344306531129405,0,nan,nan,nan,nan,nan,nan,nan,nan,nan,2,8,5,3,4,1,nan,nan,nan,nan,nan,nan,nan,nan,nan,nan,nan,nan,0.0,nan,nan,nan,nan,nan,nan,nan,nan,nan,nan,nan,nan,nan,nan,nan,nan,nan,nan,1327.821956108557,1442.336242059071,nan,1442.770672712184,nan,nan,nan,nan
1,71,1,1,1.0,1.0,0.37760273599997163,0,nan,nan,nan,nan,nan,nan,nan,nan,nan,8,3,4,1,0,2,nan,nan,nan,nan,nan,nan,nan,nan,nan,nan,nan,nan,0.0,nan,nan,nan,nan,nan,nan,nan,nan,nan,nan,nan,nan,nan,nan,nan,nan,nan,nan,1327.821956108557,1443.3530412614928,nan,1443.7306439974927,nan,nan,nan,nan
1,72,1,1,1.0,1.0,0.5367833397467621,0,nan,nan,nan,nan,nan,nan,nan,nan,nan,5,7,3,2,6,0,nan,nan,nan,nan,nan,nan,nan,nan,nan,nan,nan,nan,0.0,nan,nan,nan,nan,nan,nan,nan,nan,nan,nan,nan,nan,nan,nan,nan,nan,nan,nan,1327.821956108557,1444.3698125246447,nan,1444.9065958643914,nan,nan,nan,nan
1,73,1,1,1.0,1.0,0.47997823014156893,0,nan,nan,nan,nan,nan,nan,nan,nan,nan,2,3,7,4,1,5,nan,nan,nan,nan,nan,nan,nan,nan,nan,nan,nan,nan,0.0,nan,nan,nan,nan,nan,nan,nan,nan,nan,nan,nan,nan,nan,nan,nan,nan,nan,nan,1327.821956108557,1445.3865980425035,nan,1445.866576272645,nan,nan,nan,nan
1,74,0,0,0.0,1.0,0.6787975391489454,0,nan,nan,nan,nan,nan,nan,nan,nan,nan,3,1,8,5,2,7,nan,nan,nan,nan,nan,nan,nan,nan,nan,nan,nan,nan,0.0,nan,nan,nan,nan,nan,nan,nan,nan,nan,nan,nan,nan,nan,nan,nan,nan,nan,nan,1327.821956108557,1446.4117559350561,nan,1447.090553474205,nan,nan,nan,nan
1,75,1,1,1.0,1.0,0.5896051068557426,0,nan,nan,nan,nan,nan,nan,nan,nan,nan,6,3,0,8,7,4,nan,nan,nan,nan,nan,nan,nan,nan,nan,nan,nan,nan,0.0,nan,nan,nan,nan,nan,nan,nan,nan,nan,nan,nan,nan,nan,nan,nan,nan,nan,nan,1327.821956108557,1447.4369078406016,nan,1448.0265129474574,nan,nan,nan,nan
1,76,1,1,1.0,1.0,0.764868185040541,0,nan,nan,nan,nan,nan,nan,nan,nan,nan,7,8,3,4,0,5,nan,nan,nan,nan,nan,nan,nan,nan,nan,nan,nan,nan,0.0,nan,nan,nan,nan,nan,nan,nan,nan,nan,nan,nan,nan,nan,nan,nan,nan,nan,nan,1327.821956108557,1448.4536257910659,nan,1449.2184939761064,nan,nan,nan,nan
1,77,1,1,1.0,1.0,0.5400493841152638,0,nan,nan,nan,nan,nan,nan,nan,nan,nan,1,2,6,8,4,7,nan,nan,nan,nan,nan,nan,nan,nan,nan,nan,nan,nan,0.0,nan,nan,nan,nan,nan,nan,nan,nan,nan,nan,nan,nan,nan,nan,nan,nan,nan,nan,1327.821956108557,1449.4704366823426,nan,1450.0104860664578,nan,nan,nan,nan
1,78,1,1,1.0,1.0,0.36327017250005156,0,nan,nan,nan,nan,nan,nan,nan,nan,nan,0,1,4,3,2,6,nan,nan,nan,nan,nan,nan,nan,nan,nan,nan,nan,nan,0.0,nan,nan,nan,nan,nan,nan,nan,nan,nan,nan,nan,nan,nan,nan,nan,nan,nan,nan,1327.821956108557,1450.4871857081307,nan,1450.8504558806308,nan,nan,nan,nan
1,79,1,1,1.0,1.0,0.3943714332417585,0,nan,nan,nan,nan,nan,nan,nan,nan,nan,8,0,3,2,6,4,nan,nan,nan,nan,nan,nan,nan,nan,nan,nan,nan,nan,0.0,nan,nan,nan,nan,nan,nan,nan,nan,nan,nan,nan,nan,nan,nan,nan,nan,nan,nan,1327.821956108557,1451.5040259641828,nan,1451.8983973974246,nan,nan,nan,nan
1,80,0,0,0.0,1.0,0.5616147989640012,0,nan,nan,nan,nan,nan,nan,nan,nan,nan,0,8,6,7,2,3,nan,nan,nan,nan,nan,nan,nan,nan,nan,nan,nan,nan,0.0,nan,nan,nan,nan,nan,nan,nan,nan,nan,nan,nan,nan,nan,nan,nan,nan,nan,nan,1327.821956108557,1452.5207661519526,nan,1453.0823809509166,nan,nan,nan,nan
1,81,1,1,1.0,1.0,0.5447813851642422,0,0.0,0.0,0.0,0.4681071961433143,0.1399319978687467,0.32817519827456765,0.608039194012061,0.1399319978687467,0.5002558724566674,5,2,4,0,6,8,nan,nan,nan,nan,nan,nan,nan,nan,nan,nan,nan,nan,0.0,nan,nan,nan,nan,nan,nan,nan,nan,nan,nan,nan,nan,nan,nan,nan,nan,nan,nan,1327.821956108557,1453.5375513847684,nan,1454.0823327699327,nan,nan,nan,nan
1,82,1,1,1.0,1.0,0.44799175049411133,0,0.0,0.0,0.0,0.4690901985666595,0.13929942802121323,0.32979077054544625,0.6083896265878728,0.13929942802121323,0.5181293115407849,8,4,1,3,7,6,nan,nan,nan,nan,nan,nan,nan,nan,nan,nan,nan,nan,0.0,nan,nan,nan,nan,nan,nan,nan,nan,nan,nan,nan,nan,nan,nan,nan,nan,nan,nan,1327.821956108557,1454.554313524859,nan,1455.0023052753531,nan,nan,nan,nan
1,83,1,1,1.0,1.0,0.43116688961163163,0,0.0,0.0,0.0,0.46882312960371586,0.13843507367456614,0.3303880559291497,0.6072582032782821,0.13843507367456614,0.4746466750899951,4,7,5,2,3,8,nan,nan,nan,nan,nan,nan,nan,nan,nan,nan,nan,nan,0.0,nan,nan,nan,nan,nan,nan,nan,nan,nan,nan,nan,nan,nan,nan,nan,nan,nan,nan,1327.821956108557,1455.571125271439,nan,1456.0022921610507,nan,nan,nan,nan
1,84,1,1,1.0,1.0,0.4223443504306488,0,0.0,0.0,0.0,0.4683524266038148,0.13763073638111029,0.33072169022270453,0.605983162984925,0.13763073638111029,0.43383433017879725,7,4,6,1,8,2,nan,nan,nan,nan,nan,nan,nan,nan,nan,nan,nan,nan,0.0,nan,nan,nan,nan,nan,nan,nan,nan,nan,nan,nan,nan,nan,nan,nan,nan,nan,nan,1327.821956108557,1456.5879127850058,nan,1457.0102571354364,nan,nan,nan,nan
1,85,1,1,1.0,1.0,0.38953850872348994,0,0.0,0.0,0.0,0.4677844256634054,0.13687284259248664,0.3309115830709187,0.604657268255892,0.13687284259248664,0.4143499162552568,2,3,1,0,6,7,nan,nan,nan,nan,nan,nan,nan,nan,nan,nan,nan,nan,0.0,nan,nan,nan,nan,nan,nan,nan,nan,nan,nan,nan,nan,nan,nan,nan,nan,nan,nan,1327.821956108557,1457.6046957370127,nan,1457.9942342457362,nan,nan,nan,nan
1,86,1,1,1.0,1.0,0.4047155225998722,0,0.0,0.0,0.0,0.4668302071641381,0.13630650262764116,0.33052370453649693,0.6031367097917792,0.13630650262764116,0.4055327939180036,8,4,0,6,1,5,nan,nan,nan,nan,nan,nan,nan,nan,nan,nan,nan,nan,0.0,nan,nan,nan,nan,nan,nan,nan,nan,nan,nan,nan,nan,nan,nan,nan,nan,nan,nan,1327.821956108557,1458.6214846760267,nan,1459.0262001986266,nan,nan,nan,nan
1,87,1,1,1.0,1.0,0.41188935935497284,0,0.0,0.0,0.0,0.46608183747059273,0.13565227016581485,0.3304295673047779,0.6017341076364076,0.13565227016581485,0.4020477968927783,7,2,8,5,3,4,nan,nan,nan,nan,nan,nan,nan,nan,nan,nan,nan,nan,0.0,nan,nan,nan,nan,nan,nan,nan,nan,nan,nan,nan,nan,nan,nan,nan,nan,nan,nan,1327.821956108557,1459.6382659174851,nan,1460.05015527684,nan,nan,nan,nan
1,88,1,1,1.0,1.0,0.3790786710451357,0,0.0,0.0,0.0,0.46543668892159723,0.1349704354655671,0.3304662534560301,0.6004071243871644,0.1349704354655671,0.39856118433332693,3,8,6,0,1,5,nan,nan,nan,nan,nan,nan,nan,nan,nan,nan,nan,nan,0.0,nan,nan,nan,nan,nan,nan,nan,nan,nan,nan,nan,nan,nan,nan,nan,nan,nan,nan,1327.821956108557,1460.655051435344,nan,1461.034130106389,nan,nan,nan,nan
1,89,0,0,0.0,1.0,0.5622713718912564,0,0.0,0.0,0.0,0.4644207122406977,0.13449686282365472,0.329923849417043,0.5989175750643524,0.13449686282365472,0.45107980076378834,1,0,5,7,6,2,nan,nan,nan,nan,nan,nan,nan,nan,nan,nan,nan,nan,0.0,nan,nan,nan,nan,nan,nan,nan,nan,nan,nan,nan,nan,nan,nan,nan,nan,nan,nan,1327.821956108557,1461.6718389489106,nan,1462.2341103208018,nan,nan,nan,nan
1,90,1,1,1.0,1.0,0.5694323793868534,0,0.0,0.0,0.0,0.46555851060872744,0.13412346518650284,0.3314350454222246,0.5996819757952303,0.13412346518650284,0.5035941407744152,0,2,3,8,4,1,nan,nan,nan,nan,nan,nan,nan,nan,nan,nan,nan,nan,0.0,nan,nan,nan,nan,nan,nan,nan,nan,nan,nan,nan,nan,nan,nan,nan,nan,nan,nan,1327.821956108557,1462.6886378662311,nan,1463.258070245618,nan,nan,nan,nan
1,91,1,1,1.0,1.0,0.4886205894872546,0,0.0,0.0,0.0,0.46675246312341856,0.1338092954488361,0.33294316767458243,0.6005617585722547,0.1338092954488361,0.5401081135884548,8,3,4,7,6,2,nan,nan,nan,nan,nan,nan,nan,nan,nan,nan,nan,nan,0.0,nan,nan,nan,nan,nan,nan,nan,nan,nan,nan,nan,nan,nan,nan,nan,nan,nan,nan,1327.821956108557,1463.7054105548305,nan,1464.1940311443177,nan,nan,nan,nan
1,92,0,0,0.0,1.0,0.6154979733983055,0,0.0,0.0,0.0,0.46700096455937123,0.1330670318695607,0.33393393268981053,0.6000679964289319,0.1330670318695607,0.5578503140908045,2,8,7,6,5,0,nan,nan,nan,nan,nan,nan,nan,nan,nan,nan,nan,nan,0.0,nan,nan,nan,nan,nan,nan,nan,nan,nan,nan,nan,nan,nan,nan,nan,nan,nan,nan,1327.821956108557,1464.7305179856485,nan,1465.3460159590468,nan,nan,nan,nan
1,93,1,1,1.0,1.0,0.5586535207694396,0,0.0,0.0,0.0,0.4686694702766626,0.13323988128776576,0.33542958898889685,0.6019093515644284,0.13323988128776576,0.5542573612183332,1,2,3,5,6,4,nan,nan,nan,nan,nan,nan,nan,nan,nan,nan,nan,nan,0.0,nan,nan,nan,nan,nan,nan,nan,nan,nan,nan,nan,nan,nan,nan,nan,nan,nan,nan,1327.821956108557,1465.747347978293,nan,1466.3060014990624,nan,nan,nan,nan
1,94,1,1,1.0,1.0,0.477886205597315,0,0.0,0.0,0.0,0.4696692930599157,0.13283290389624053,0.3368363891636752,0.6025021969561563,0.13283290389624053,0.55067923325502,6,1,2,7,4,3,nan,nan,nan,nan,nan,nan,nan,nan,nan,nan,nan,nan,0.0,nan,nan,nan,nan,nan,nan,nan,nan,nan,nan,nan,nan,nan,nan,nan,nan,nan,nan,1327.821956108557,1466.7640887363232,nan,1467.2419749419205,nan,nan,nan,nan
1,95,1,1,1.0,1.0,0.501072098442819,0,0.0,0.0,0.0,0.46975958880208496,0.132103813983388,0.33765577481869696,0.601863402785473,0.132103813983388,0.5125372749365246,8,4,7,2,6,5,nan,nan,nan,nan,nan,nan,nan,nan,nan,nan,nan,nan,0.0,nan,nan,nan,nan,nan,nan,nan,nan,nan,nan,nan,nan,nan,nan,nan,nan,nan,nan,1327.821956108557,1467.780874539283,nan,1468.281946637726,nan,nan,nan,nan
1,96,1,1,1.0,1.0,0.42026886134408414,0,0.0,0.0,0.0,0.4700999421677451,0.13142400779195135,0.33867593437579374,0.6015239499596965,0.13142400779195135,0.4664090551280727,7,0,1,5,2,8,nan,nan,nan,nan,nan,nan,nan,nan,nan,nan,nan,nan,0.0,nan,nan,nan,nan,nan,nan,nan,nan,nan,nan,nan,nan,nan,nan,nan,nan,nan,nan,1327.821956108557,1468.7976606273442,nan,1469.2179294886882,nan,nan,nan,nan
1,97,1,1,1.0,1.0,0.371133083011955,0,0.0,0.0,0.0,0.46956412409437237,0.13081651189880514,0.33874761219556726,0.6003806359931775,0.13081651189880514,0.43082468093295273,6,5,2,3,7,0,nan,nan,nan,nan,nan,nan,nan,nan,nan,nan,nan,nan,0.0,nan,nan,nan,nan,nan,nan,nan,nan,nan,nan,nan,nan,nan,nan,nan,nan,nan,nan,1327.821956108557,1469.822764922108,nan,1470.19389800512,nan,nan,nan,nan
1,98,1,1,1.0,1.0,0.498256218561437,0,0.0,0.0,0.0,0.4685169853594531,0.13051008190175095,0.3380069034577021,0.599027067261204,0.13051008190175095,0.4298860543058254,4,7,3,5,1,8,nan,nan,nan,nan,nan,nan,nan,nan,nan,nan,nan,nan,0.0,nan,nan,nan,nan,nan,nan,nan,nan,nan,nan,nan,nan,nan,nan,nan,nan,nan,nan,1327.821956108557,1470.83957923454,nan,1471.3378354531014,nan,nan,nan,nan
1,99,1,1,1.0,1.0,0.4334513529902324,0,0.0,0.0,0.0,0.4688300299194739,0.1298568430889806,0.3389731868304933,0.5986868730084545,0.1298568430889806,0.4342802181878748,3,0,1,4,5,6,nan,nan,nan,nan,nan,nan,nan,nan,nan,nan,nan,nan,0.0,nan,nan,nan,nan,nan,nan,nan,nan,nan,nan,nan,nan,nan,nan,nan,nan,nan,nan,1327.821956108557,1471.856359620695,nan,1472.2898109736852,nan,nan,nan,nan
1,100,1,1,1.0,1.0,0.3366229454986751,0,0.0,0.0,0.0,0.46846150203479436,0.12922866458218565,0.3392328374526087,0.59769016661698,0.12922866458218565,0.4227768390167815,7,2,3,5,1,4,nan,nan,nan,nan,nan,nan,nan,nan,nan,nan,nan,nan,0.0,nan,nan,nan,nan,nan,nan,nan,nan,nan,nan,nan,nan,nan,nan,nan,nan,nan,nan,1327.821956108557,1472.8731545467163,nan,1473.209777492215,nan,nan,nan,nan
1,101,1,1,1.0,1.0,0.3838172292453237,0,0.0,0.0,0.0,0.4671023416581333,0.1292486933558987,0.33785364830223463,0.596351035014032,0.1292486933558987,0.38463050924474373,1,4,2,7,6,3,nan,nan,nan,nan,nan,nan,nan,nan,nan,nan,nan,nan,0.0,nan,nan,nan,nan,nan,nan,nan,nan,nan,nan,nan,nan,nan,nan,nan,nan,nan,nan,1327.821956108557,1473.889934077568,nan,1474.2737513068132,nan,nan,nan,nan
1,102,1,1,1.0,1.0,0.3554423286113888,0,0.0,0.0,0.0,0.4662524935722883,0.12885969388804966,0.33739279968423863,0.595112187460338,0.12885969388804966,0.35862750111846253,7,5,3,1,4,8,nan,nan,nan,nan,nan,nan,nan,nan,nan,nan,nan,nan,0.0,nan,nan,nan,nan,nan,nan,nan,nan,nan,nan,nan,nan,nan,nan,nan,nan,nan,nan,1327.821956108557,1474.9102735854103,nan,1475.2657159140217,nan,nan,nan,nan
1,103,1,1,1.0,1.0,0.3418427435099147,0,0.0,0.0,0.0,0.46513319897672367,0.12868516482329376,0.33644803415342994,0.5938183638000174,0.12868516482329376,0.36036743378887576,5,4,7,8,2,3,nan,nan,nan,nan,nan,nan,nan,nan,nan,nan,nan,nan,0.0,nan,nan,nan,nan,nan,nan,nan,nan,nan,nan,nan,nan,nan,nan,nan,nan,nan,nan,1327.821956108557,1475.931850404013,nan,1476.2736931475229,nan,nan,nan,nan
1,104,1,1,1.0,1.0,0.38904443971114233,0,0.0,0.0,0.0,0.4639002944220556,0.12862642900894636,0.3352738654131092,0.592526723431002,0.12862642900894636,0.36210983727748197,6,3,0,7,4,8,nan,nan,nan,nan,nan,nan,nan,nan,nan,nan,nan,nan,0.0,nan,nan,nan,nan,nan,nan,nan,nan,nan,nan,nan,nan,nan,nan,nan,nan,nan,nan,1327.821956108557,1476.9486256584642,nan,1477.3376700981753,nan,nan,nan,nan
1,105,1,1,1.0,1.0,0.2978130104020238,0,0.0,0.0,0.0,0.4631591473457099,0.12820249081414276,0.33495665653156714,0.5913616381598527,0.12820249081414276,0.34290006454102695,7,6,4,0,3,5,nan,nan,nan,nan,nan,nan,nan,nan,nan,nan,nan,nan,0.0,nan,nan,nan,nan,nan,nan,nan,nan,nan,nan,nan,nan,nan,nan,nan,nan,nan,nan,1327.821956108557,1477.9678444592282,nan,1478.2656574696302,nan,nan,nan,nan
1,106,1,1,1.0,1.0,0.4990607556537725,0,0.0,0.0,0.0,0.4615381067874385,0.12860850519072453,0.332929601596714,0.5901466119781631,0.12860850519072453,0.39530606858897954,0,1,3,5,2,7,nan,nan,nan,nan,nan,nan,nan,nan,nan,nan,nan,nan,0.0,nan,nan,nan,nan,nan,nan,nan,nan,nan,nan,nan,nan,nan,nan,nan,nan,nan,nan,1327.821956108557,1478.9905491122627,nan,1479.4896098679164,nan,nan,nan,nan
1,107,1,1,1.0,1.0,0.4022537302225828,0,0.0,0.0,0.0,0.46190240434924756,0.12803554329490066,0.33386686105434693,0.5899379476441482,0.12803554329490066,0.3997091654261264,7,0,2,4,1,8,nan,nan,nan,nan,nan,nan,nan,nan,nan,nan,nan,nan,0.0,nan,nan,nan,nan,nan,nan,nan,nan,nan,nan,nan,nan,nan,nan,nan,nan,nan,nan,1327.821956108557,1480.0073206605157,nan,1480.4095743907383,nan,nan,nan,nan
1,108,1,1,1.0,1.0,0.6014368200558238,0,0.0,0.0,0.0,0.46132885940572194,0.12755138816797806,0.3337774712377439,0.5888802475737,0.12755138816797806,0.500917101977393,1,8,7,3,0,6,nan,nan,nan,nan,nan,nan,nan,nan,nan,nan,nan,nan,0.0,nan,nan,nan,nan,nan,nan,nan,nan,nan,nan,nan,nan,nan,nan,nan,nan,nan,nan,1327.821956108557,1481.024113305728,nan,1481.6255501257838,nan,nan,nan,nan
1,109,1,1,1.0,1.0,0.5206196132930927,0,0.0,0.0,0.0,0.4626632209357229,0.12766982620050035,0.3349933947352225,0.5903330471362233,0.12766982620050035,0.5081033878571665,4,0,1,5,6,7,nan,nan,nan,nan,nan,nan,nan,nan,nan,nan,nan,nan,0.0,nan,nan,nan,nan,nan,nan,nan,nan,nan,nan,nan,nan,nan,nan,nan,nan,nan,nan,1327.821956108557,1482.0408885602374,nan,1482.5615081735305,nan,nan,nan,nan
1,110,1,1,1.0,1.0,0.4398078233934939,0,0.0,0.0,0.0,0.4632099793541887,0.1271896381684475,0.3360203411857412,0.5903996175226361,0.1271896381684475,0.5206214189141368,8,1,4,3,7,2,nan,nan,nan,nan,nan,nan,nan,nan,nan,nan,nan,nan,0.0,nan,nan,nan,nan,nan,nan,nan,nan,nan,nan,nan,nan,nan,nan,nan,nan,nan,nan,1327.821956108557,1483.0576826309552,nan,1483.4974904543487,nan,nan,nan,nan
1,111,1,1,1.0,1.0,0.37500951503170654,0,0.0,0.0,0.0,0.4629912676162382,0.12661392390188245,0.3363773437143558,0.5896051915181206,0.12661392390188245,0.4451456505727644,3,2,8,0,5,4,nan,nan,nan,nan,nan,nan,nan,nan,nan,nan,nan,nan,0.0,nan,nan,nan,nan,nan,nan,nan,nan,nan,nan,nan,nan,nan,nan,nan,nan,nan,nan,1327.821956108557,1484.0744553195545,nan,1484.4494648345863,nan,nan,nan,nan
1,112,1,1,1.0,1.0,0.4382095827604644,0,0.0,0.0,0.0,0.46217662175897406,0.12630779892498273,0.33586882283399133,0.5884844206839568,0.12630779892498273,0.4176756403952216,4,1,6,2,0,7,nan,nan,nan,nan,nan,nan,nan,nan,nan,nan,nan,nan,0.0,nan,nan,nan,nan,nan,nan,nan,nan,nan,nan,nan,nan,nan,nan,nan,nan,nan,nan,1327.821956108557,1485.091245113872,nan,1485.5294546966325,nan,nan,nan,nan
1,113,1,1,1.0,1.0,0.3813634195830673,0,0.0,0.0,0.0,0.4619567406672446,0.12574783404271156,0.33620890662453307,0.5877045747099562,0.12574783404271156,0.39819417245841277,3,8,1,0,7,5,nan,nan,nan,nan,nan,nan,nan,nan,nan,nan,nan,nan,0.0,nan,nan,nan,nan,nan,nan,nan,nan,nan,nan,nan,nan,nan,nan,nan,nan,nan,nan,1327.821956108557,1486.1080323422793,nan,1486.4893957618624,nan,nan,nan,nan
1,114,1,1,1.0,1.0,0.3485587182221934,0,0.0,0.0,0.0,0.4612240741119339,0.12540844802316478,0.33581562608876914,0.5866325221350986,0.12540844802316478,0.38937724018857506,6,2,8,5,4,1,nan,nan,nan,nan,nan,nan,nan,nan,nan,nan,nan,nan,0.0,nan,nan,nan,nan,nan,nan,nan,nan,nan,nan,nan,nan,nan,nan,nan,nan,nan,nan,1327.821956108557,1487.1248138688388,nan,1487.473372587061,nan,nan,nan,nan
1,115,0,0,0.0,1.0,0.6357368428143673,0,0.0,0.0,0.0,0.46020907090572005,0.12529531956466125,0.33491375134105883,0.5855043904703813,0.12529531956466125,0.45521966020654264,2,7,3,4,0,5,nan,nan,nan,nan,nan,nan,nan,nan,nan,nan,nan,nan,0.0,nan,nan,nan,nan,nan,nan,nan,nan,nan,nan,nan,nan,nan,nan,nan,nan,nan,nan,1327.821956108557,1488.1416036631563,nan,1488.7773405059706,nan,nan,nan,nan
1,116,1,1,1.0,1.0,0.47491409385111183,0,0.0,0.0,0.0,0.4617762831549044,0.12582281717583,0.3359534659790744,0.5875991003307344,0.12582281717583,0.48640321829589084,0,5,6,7,3,4,nan,nan,nan,nan,nan,nan,nan,nan,nan,nan,nan,nan,0.0,nan,nan,nan,nan,nan,nan,nan,nan,nan,nan,nan,nan,nan,nan,nan,nan,nan,nan,1327.821956108557,1489.1584005848272,nan,1489.6333146786783,nan,nan,nan,nan
1,117,1,1,1.0,1.0,0.3941040145000443,0,0.0,0.0,0.0,0.4618925469663752,0.12527088463434005,0.33662166233203517,0.5871634316007153,0.12527088463434005,0.5015849837218411,4,7,5,8,6,0,nan,nan,nan,nan,nan,nan,nan,nan,nan,nan,nan,nan,0.0,nan,nan,nan,nan,nan,nan,nan,nan,nan,nan,nan,nan,nan,nan,nan,nan,nan,nan,1327.821956108557,1490.1751735585276,nan,1490.5692775730276,nan,nan,nan,nan
1,118,1,1,1.0,1.0,0.321226408763323,0,0.0,0.0,0.0,0.4612979107166706,0.12488032019132957,0.33641759052534104,0.5861782309080001,0.12488032019132957,0.396748172371493,0,2,3,5,1,4,nan,nan,nan,nan,nan,nan,nan,nan,nan,nan,nan,nan,0.0,nan,nan,nan,nan,nan,nan,nan,nan,nan,nan,nan,nan,nan,nan,nan,nan,nan,nan,1327.821956108557,1491.1920266438392,nan,1491.5132530526025,nan,nan,nan,nan
1,119,1,1,1.0,1.0,0.22447070042835549,1,1.0,0.0,1.0,0.4600798976562067,0.12501444003706597,0.33506545761914075,0.5850943376932727,0.12501444003706597,0.31326704123057425,8,3,7,2,4,6,1.0,1.0,1.0,1.0,1.0,1.0,1.0,1.0,0.0,0.0,0.0,0.0,2.0,8.0,3.0,4.0,7.0,1.0,2.0,3.0,2.0,1.0,6.0,5.0,4.0,4.781858115806244,3.7501236598473042,2.8856838864739984,8.396269593504258,6.3881589357042685,5.452118210552726,1327.821956108557,1492.208755142754,1493.0171558558359,1492.4332258431823,1502.47658902494,1503.481770905375,1494.0422795370105,1502.4682574188337
1,120,0,0,0.0,1.0,0.4911356944940053,0,0.0,0.0,0.0,0.4580487838870011,0.12636575675731748,0.3316830271296836,0.5844145406443186,0.12636575675731748,0.34561093456189457,4,1,0,5,6,3,nan,nan,nan,nan,nan,nan,nan,nan,nan,nan,nan,nan,0.0,nan,nan,nan,nan,nan,nan,nan,nan,nan,nan,nan,nan,nan,nan,nan,nan,nan,nan,1327.821956108557,1503.7017804446514,nan,1504.1929161391454,nan,nan,nan,nan
1,121,1,1,1.0,1.0,0.442348872020375,0,0.0,0.0,0.0,0.45833157799475327,0.12586143196716967,0.3324701460275836,0.5841930099619229,0.12586143196716967,0.38598508898091194,1,8,2,6,3,0,nan,nan,nan,nan,nan,nan,nan,nan,nan,nan,nan,nan,0.0,nan,nan,nan,nan,nan,nan,nan,nan,nan,nan,nan,nan,nan,nan,nan,nan,nan,nan,1327.821956108557,1504.7185303256847,nan,1505.160879197705,nan,nan,nan,nan
1,122,1,1,1.0,1.0,0.39347481058211997,0,0.0,0.0,0.0,0.4581961313339534,0.12533554924494592,0.3328605820890075,0.5835316805788994,0.12533554924494592,0.44231979236550006,4,1,8,3,5,2,nan,nan,nan,nan,nan,nan,nan,nan,nan,nan,nan,nan,0.0,nan,nan,nan,nan,nan,nan,nan,nan,nan,nan,nan,nan,nan,nan,nan,nan,nan,nan,1327.821956108557,1505.7353506251238,nan,1506.128825435706,nan,nan,nan,nan
1,123,1,1,1.0,1.0,0.3686909622629173,0,0.0,0.0,0.0,0.45765225468898,0.12494757346566186,0.33270468122331814,0.5825998281546418,0.12494757346566186,0.4015048816218041,5,4,6,1,7,0,nan,nan,nan,nan,nan,nan,nan,nan,nan,nan,nan,nan,0.0,nan,nan,nan,nan,nan,nan,nan,nan,nan,nan,nan,nan,nan,nan,nan,nan,nan,nan,1327.821956108557,1506.7521153310663,nan,1507.1208062933292,nan,nan,nan,nan
1,124,1,1,1.0,1.0,0.3678693194524385,0,0.0,0.0,0.0,0.45691091058542954,0.12468840491068162,0.3322225056747479,0.5815993154961112,0.12468840491068162,0.3766783640991586,1,5,4,8,0,2,nan,nan,nan,nan,nan,nan,nan,nan,nan,nan,nan,nan,0.0,nan,nan,nan,nan,nan,nan,nan,nan,nan,nan,nan,nan,nan,nan,nan,nan,nan,nan,1327.821956108557,1507.7689225161448,nan,1508.1367918355973,nan,nan,nan,nan
1,125,1,1,1.0,1.0,0.3430606678593904,0,0.0,0.0,0.0,0.45617502966697504,0.12443348248763413,0.3317415471793409,0.5806085121546092,0.12443348248763413,0.3598736498582487,4,8,7,5,3,1,nan,nan,nan,nan,nan,nan,nan,nan,nan,nan,nan,nan,0.0,nan,nan,nan,nan,nan,nan,nan,nan,nan,nan,nan,nan,nan,nan,nan,nan,nan,nan,1327.821956108557,1508.785708889307,nan,1509.1287695571664,nan,nan,nan,nan
1,126,1,1,1.0,1.0,0.38224749808432534,0,0.0,0.0,0.0,0.45524786276691287,0.1243414344179223,0.3309064283489906,0.5795892971848352,0.1243414344179223,0.3643924951320514,5,4,6,8,0,7,nan,nan,nan,nan,nan,nan,nan,nan,nan,nan,nan,nan,0.0,nan,nan,nan,nan,nan,nan,nan,nan,nan,nan,nan,nan,nan,nan,nan,nan,nan,nan,1327.821956108557,1509.802489275462,nan,1510.1847367735463,nan,nan,nan,nan
1,127,1,1,1.0,1.0,0.4054596196510829,0,0.0,0.0,0.0,0.45465436386705443,0.12400833927526882,0.3306460245917856,0.5786627031423233,0.12400833927526882,0.3769225951982662,4,7,3,5,1,6,nan,nan,nan,nan,nan,nan,nan,nan,nan,nan,nan,nan,0.0,nan,nan,nan,nan,nan,nan,nan,nan,nan,nan,nan,nan,nan,nan,nan,nan,nan,nan,1327.821956108557,1510.819249419903,nan,1511.224709039554,nan,nan,nan,nan
1,128,1,1,1.0,1.0,0.4046331302379258,0,0.0,0.0,0.0,0.4542576320588611,0.1235856433992136,0.33067198865964753,0.5778432754580747,0.1235856433992136,0.3974467493244447,7,0,6,4,8,1,nan,nan,nan,nan,nan,nan,nan,nan,nan,nan,nan,nan,0.0,nan,nan,nan,nan,nan,nan,nan,nan,nan,nan,nan,nan,nan,nan,nan,nan,nan,nan,1327.821956108557,1511.836038358917,nan,1512.240671489155,nan,nan,nan,nan
1,129,1,1,1.0,1.0,0.34781975293299183,0,0.0,0.0,0.0,0.45386063604429366,0.12316966788935751,0.33069096815493615,0.5770303039336512,0.12316966788935751,0.3859708342740002,2,1,7,8,6,4,nan,nan,nan,nan,nan,nan,nan,nan,nan,nan,nan,nan,0.0,nan,nan,nan,nan,nan,nan,nan,nan,nan,nan,nan,nan,nan,nan,nan,nan,nan,nan,1327.821956108557,1512.8528221662273,nan,1513.2006419191603,nan,nan,nan,nan
1,130,1,1,1.0,1.0,0.40300951612880453,0,0.0,0.0,0.0,0.45301904173388646,0.12304023446617661,0.32997880726770984,0.576059276200063,0.12304023446617661,0.38515413309990737,5,3,1,6,4,8,nan,nan,nan,nan,nan,nan,nan,nan,nan,nan,nan,nan,0.0,nan,nan,nan,nan,nan,nan,nan,nan,nan,nan,nan,nan,nan,nan,nan,nan,nan,nan,1327.821956108557,1513.869609679794,nan,1514.2726191959227,nan,nan,nan,nan
1,131,1,1,1.0,1.0,0.3941932491143234,0,0.0,0.0,0.0,0.4526252659417205,0.12263454997349604,0.32999071596822444,0.5752598159152165,0.12263454997349604,0.38167417272537324,7,5,0,1,8,2,nan,nan,nan,nan,nan,nan,nan,nan,nan,nan,nan,nan,0.0,nan,nan,nan,nan,nan,nan,nan,nan,nan,nan,nan,nan,nan,nan,nan,nan,nan,nan,1327.821956108557,1514.886384364043,nan,1515.2805776131572,nan,nan,nan,nan
1,132,1,1,1.0,1.0,0.36935637320857495,0,0.0,0.0,0.0,0.45216876581025645,0.12226285074206523,0.3299059150681912,0.5744316165523217,0.12226285074206523,0.38885304615056765,3,1,5,0,4,6,nan,nan,nan,nan,nan,nan,nan,nan,nan,nan,nan,nan,0.0,nan,nan,nan,nan,nan,nan,nan,nan,nan,nan,nan,nan,nan,nan,nan,nan,nan,nan,1327.821956108557,1515.9031832813635,nan,1516.272539654572,nan,nan,nan,nan
1,133,1,1,1.0,1.0,0.280549673945643,0,0.0,0.0,0.0,0.45152680927846045,0.12200441370761342,0.32952239557084706,0.5735312229860738,0.12200441370761342,0.34803309875618044,4,8,7,2,0,3,nan,nan,nan,nan,nan,nan,nan,nan,nan,nan,nan,nan,0.0,nan,nan,nan,nan,nan,nan,nan,nan,nan,nan,nan,nan,nan,nan,nan,nan,nan,nan,1327.821956108557,1516.9199690843234,nan,1517.200518758269,nan,nan,nan,nan
1,134,1,1,1.0,1.0,0.3357271780841984,0,0.0,0.0,0.0,0.4502116005451311,0.12244883510954192,0.3277627654355892,0.5726604356546731,0.12244883510954192,0.32854440841280547,3,1,0,8,6,4,nan,nan,nan,nan,nan,nan,nan,nan,nan,nan,nan,nan,0.0,nan,nan,nan,nan,nan,nan,nan,nan,nan,nan,nan,nan,nan,nan,nan,nan,nan,nan,1327.821956108557,1517.9367540320382,nan,1518.2724812101224,nan,nan,nan,nan
1,135,1,1,1.0,1.0,0.3189080190495588,1,1.0,0.0,1.0,0.4493376736561163,0.12238688095543399,0.32695079270068234,0.5717245546115504,0.12238688095543399,0.31172829035980004,2,7,6,5,8,1,1.0,1.0,1.0,1.0,1.0,1.0,1.0,0.0,0.0,0.0,1.0,0.0,2.0,2.0,6.0,4.0,3.0,8.0,0.0,5.0,6.0,1.0,2.0,3.0,4.0,8.242848757014144,10.786609788425267,2.8126822646008804,4.083500232489314,5.634886690590065,6.507307973806746,1327.821956108557,1518.95354240085,1519.7619519518921,1519.2724504198995,1531.6049982224358,1532.606157987495,1520.7787311976426,1531.5966617697268
1,136,0,0,nan,nan,nan,0,0.0,0.0,0.0,0.0,0.0,0.0,0.0,0.0,0.0,3,4,7,2,1,6,nan,nan,nan,nan,nan,nan,nan,nan,nan,nan,nan,nan,0.0,nan,nan,nan,nan,nan,nan,nan,nan,nan,nan,nan,nan,nan,nan,nan,nan,nan,nan,1327.821956108557,1532.8302019012044,nan,nan,nan,nan,nan,nan
1,137,1,1,0.0,0.0,0.017082871578168124,0,0.0,0.0,0.0,0.4483495702121273,0.12244581013346688,0.3259037600786604,0.5707953803455942,0.12244581013346688,0.16799544531386346,7,1,0,8,2,3,nan,nan,nan,nan,nan,nan,nan,nan,nan,nan,nan,nan,0.0,nan,nan,nan,nan,nan,nan,nan,nan,nan,nan,nan,nan,nan,nan,nan,nan,nan,nan,1327.821956108557,1533.8469728792552,nan,1533.8640557508334,nan,nan,nan,nan
1,138,1,1,1.0,1.0,0.47224304208066314,1,1.0,0.0,1.0,0.44510696345548095,0.12754670158636197,0.317560261869119,0.5726536650418429,0.12754670158636197,0.24466295682941563,6,3,4,1,0,7,1.0,1.0,1.0,1.0,1.0,1.0,0.0,0.0,0.0,0.0,1.0,1.0,2.0,2.0,7.0,0.0,7.0,0.0,7.0,2.0,1.0,6.0,5.0,4.0,3.0,3.285351808241103,1.7737329181982204,6.371912816888653,5.468484924349468,4.956439247587696,4.060405855008867,1327.821956108557,1534.8637532654102,1535.6721431448823,1535.3359963074909,1543.0980047080666,1544.103037198889,1536.6889434877085,1543.0896693957038
1,139,1,1,1.0,1.0,0.3725602668710053,0,0.0,0.0,0.0,0.4453094715049226,0.1270913496788691,0.3182181218260535,0.5724008211837917,0.1270913496788691,0.28729539350994554,4,0,2,5,6,3,nan,nan,nan,nan,nan,nan,nan,nan,nan,nan,nan,nan,0.0,nan,nan,nan,nan,nan,nan,nan,nan,nan,nan,nan,nan,nan,nan,nan,nan,nan,nan,1327.821956108557,1544.3231872898177,nan,1544.6957475566887,nan,nan,nan,nan
1,140,1,1,1.0,1.0,0.3153768366901204,0,0.0,0.0,0.0,0.44477058850763435,0.12677333343072986,0.31799725507690446,0.5715439219383642,0.12677333343072986,0.3867267152139296,3,1,4,2,5,8,nan,nan,nan,nan,nan,nan,nan,nan,nan,nan,nan,nan,0.0,nan,nan,nan,nan,nan,nan,nan,nan,nan,nan,nan,nan,nan,nan,nan,nan,nan,nan,1327.821956108557,1545.3483337785583,nan,1545.6637106152484,nan,nan,nan,nan
1,141,1,1,1.0,1.0,0.3465798762626946,0,0.0,0.0,0.0,0.44381916386191733,0.1267892291636091,0.3170299346983082,0.5706083930255265,0.1267892291636091,0.34483899327460676,6,7,2,5,1,0,nan,nan,nan,nan,nan,nan,nan,nan,nan,nan,nan,nan,0.0,nan,nan,nan,nan,nan,nan,nan,nan,nan,nan,nan,nan,nan,nan,nan,nan,nan,nan,1327.821956108557,1546.365104756609,nan,1546.7116846328718,nan,nan,nan,nan
1,142,1,1,1.0,1.0,0.4257572185015306,0,0.0,0.0,0.0,0.4431093880400252,0.12659653812958635,0.3165128499104388,0.5697059261696116,0.12659653812958635,0.36257131048478186,5,6,7,4,2,3,nan,nan,nan,nan,nan,nan,nan,nan,nan,nan,nan,nan,0.0,nan,nan,nan,nan,nan,nan,nan,nan,nan,nan,nan,nan,nan,nan,nan,nan,nan,nan,1327.821956108557,1547.3818922701757,nan,1547.8076494886773,nan,nan,nan,nan
1,143,1,1,1.0,1.0,0.5045722054783255,0,0.0,0.0,0.0,0.4429836476810506,0.12614560688484971,0.31683804079620087,0.5691292545659004,0.12614560688484971,0.42563643341418356,1,4,6,7,3,2,nan,nan,nan,nan,nan,nan,nan,nan,nan,nan,nan,nan,0.0,nan,nan,nan,nan,nan,nan,nan,nan,nan,nan,nan,nan,nan,nan,nan,nan,nan,nan,1327.821956108557,1548.4070296359132,nan,1548.9116018413915,nan,nan,nan,nan
1,144,1,1,1.0,1.0,0.5197857114835642,0,0.0,0.0,0.0,0.4434267308306713,0.1257987547952027,0.3176279760354686,0.569225485625874,0.1257987547952027,0.4833717118211401,0,1,8,2,6,4,nan,nan,nan,nan,nan,nan,nan,nan,nan,nan,nan,nan,0.0,nan,nan,nan,nan,nan,nan,nan,nan,nan,nan,nan,nan,nan,nan,nan,nan,nan,nan,1327.821956108557,1549.4237966226065,nan,1549.94358233409,nan,nan,nan,nan
1,145,1,1,1.0,1.0,0.6309900167980231,0,0.0,0.0,0.0,0.44397215212104907,0.12551350122391103,0.31845865089713804,0.5694856533449602,0.12551350122391103,0.5517826445866376,5,6,1,3,0,7,nan,nan,nan,nan,nan,nan,nan,nan,nan,nan,nan,nan,0.0,nan,nan,nan,nan,nan,nan,nan,nan,nan,nan,nan,nan,nan,nan,nan,nan,nan,nan,1327.821956108557,1550.4405561969033,nan,1551.0715462137014,nan,nan,nan,nan
1,146,0,0,nan,nan,nan,0,0.0,0.0,0.0,0.0,0.0,0.0,0.0,0.0,0.0,4,3,0,7,5,6,nan,nan,nan,nan,nan,nan,nan,nan,nan,nan,nan,nan,0.0,nan,nan,nan,nan,nan,nan,nan,nan,nan,nan,nan,nan,nan,nan,nan,nan,nan,nan,1327.821956108557,1551.4573305960512,nan,nan,nan,nan,nan,nan
1,147,1,1,1.0,1.0,0.5333100315765478,1,0.0,1.0,1.0,0.4452985199556376,0.12604842832006038,0.31925009163557716,0.571346948275698,0.12604842832006038,0.5821500241872855,5,0,2,8,6,4,1.0,1.0,1.0,1.0,1.0,1.0,1.0,1.0,1.0,0.0,0.0,0.0,3.0,5.0,0.0,2.0,6.0,3.0,1.0,3.0,2.0,1.0,6.0,5.0,4.0,3.0900958972633816,2.003586775797885,1.3704682422685437,6.681340298382565,5.065692650270648,4.48978919244837,1327.821956108557,1552.4741534613422,1553.2825613017776,1553.0074634929188,1561.016771263152,1562.0269571249373,1554.299353661947,1561.0084350954858
1,148,1,1,nan,nan,nan,0,0.0,0.0,0.0,0.0,0.0,0.0,0.0,0.0,0.0,0,3,7,6,5,1,nan,nan,nan,nan,nan,nan,nan,nan,nan,nan,nan,nan,0.0,nan,nan,nan,nan,nan,nan,nan,nan,nan,nan,nan,nan,nan,nan,nan,nan,nan,nan,1327.821956108557,1562.2502974250237,nan,nan,nan,nan,nan,nan
1,149,1,1,1.0,1.0,0.3477932391106151,0,0.0,0.0,0.0,0.4459183193332496,0.12581924667625677,0.32009907265699283,0.5717375660095063,0.12581924667625677,0.44055163534358144,5,7,1,2,4,0,nan,nan,nan,nan,nan,nan,nan,nan,nan,nan,nan,nan,0.0,nan,nan,nan,nan,nan,nan,nan,nan,nan,nan,nan,nan,nan,nan,nan,nan,nan,nan,1327.821956108557,1563.2753868948203,nan,1563.6231801339309,nan,nan,nan,nan
1,150,1,1,1.0,1.0,0.37895836104871705,0,0.0,0.0,0.0,0.4452321299610633,0.12564490315312374,0.3195872268079396,0.570877033114187,0.12564490315312374,0.3633758000796661,3,6,8,0,5,7,nan,nan,nan,nan,nan,nan,nan,nan,nan,nan,nan,nan,0.0,nan,nan,nan,nan,nan,nan,nan,nan,nan,nan,nan,nan,nan,nan,nan,nan,nan,nan,1327.821956108557,1564.2922009222093,nan,1564.671159283258,nan,nan,nan,nan
1,151,1,1,1.0,1.0,0.41015370306558907,0,0.0,0.0,0.0,0.4447718954547276,0.1253287751943114,0.3194431202604162,0.570100670649039,0.1253287751943114,0.3789684344083071,7,4,6,8,2,3,nan,nan,nan,nan,nan,nan,nan,nan,nan,nan,nan,nan,0.0,nan,nan,nan,nan,nan,nan,nan,nan,nan,nan,nan,nan,nan,nan,nan,nan,nan,nan,1327.821956108557,1565.3089636325021,nan,1565.7191173355677,nan,nan,nan,nan
1,152,1,1,1.0,1.0,0.4010038753040135,0,0.0,0.0,0.0,0.44453314930031973,0.12492871420271107,0.31960443509760866,0.5694618635030309,0.12492871420271107,0.39670531313943985,6,5,4,7,8,0,nan,nan,nan,nan,nan,nan,nan,nan,nan,nan,nan,nan,0.0,nan,nan,nan,nan,nan,nan,nan,nan,nan,nan,nan,nan,nan,nan,nan,nan,nan,nan,1327.821956108557,1566.334085318027,nan,1566.735089193331,nan,nan,nan,nan
1,153,0,0,0.0,1.0,0.616173647751566,0,0.0,0.0,0.0,0.44423500358801626,0.12455189396331487,0.31968310962470137,0.5687868975513312,0.12455189396331487,0.4757770753737229,3,2,1,0,5,4,nan,nan,nan,nan,nan,nan,nan,nan,nan,nan,nan,nan,0.0,nan,nan,nan,nan,nan,nan,nan,nan,nan,nan,nan,nan,nan,nan,nan,nan,nan,nan,1327.821956108557,1567.3508785334416,nan,1567.9670521811931,nan,nan,nan,nan
1,154,1,1,1.0,1.0,0.5113603092031553,0,0.0,0.0,0.0,0.44540465422858466,0.12492951034332152,0.32047514388526316,0.5703341645719062,0.12492951034332152,0.5095126107529117,4,6,3,1,7,0,nan,nan,nan,nan,nan,nan,nan,nan,nan,nan,nan,nan,0.0,nan,nan,nan,nan,nan,nan,nan,nan,nan,nan,nan,nan,nan,nan,nan,nan,nan,nan,1327.821956108557,1568.3676563537447,nan,1568.8790166629478,nan,nan,nan,nan
1,155,1,1,1.0,1.0,0.3025535642518662,0,0.0,0.0,0.0,0.4458503005459804,0.1246239205016496,0.3212263800443308,0.57047422104763,0.1246239205016496,0.47669584040219587,8,3,1,6,5,2,nan,nan,nan,nan,nan,nan,nan,nan,nan,nan,nan,nan,0.0,nan,nan,nan,nan,nan,nan,nan,nan,nan,nan,nan,nan,nan,nan,nan,nan,nan,nan,1327.821956108557,1569.3844444375136,nan,1569.6869980017655,nan,nan,nan,nan
1,156,1,1,1.0,1.0,0.30973908997839317,0,0.0,0.0,0.0,0.4448885774836038,0.12475485045012988,0.32013372703347387,0.5696434279337337,0.12475485045012988,0.3745509878111382,3,8,4,2,1,0,nan,nan,nan,nan,nan,nan,nan,nan,nan,nan,nan,nan,0.0,nan,nan,nan,nan,nan,nan,nan,nan,nan,nan,nan,nan,nan,nan,nan,nan,nan,nan,1327.821956108557,1570.4012310957187,nan,1570.710970185697,nan,nan,nan,nan
1,157,1,1,1.0,1.0,0.3329643257893622,1,1.0,0.0,1.0,0.4439875809002357,0.12482376239217546,0.31916381850806025,0.5688113432924111,0.12482376239217546,0.31508566000654054,2,3,7,0,6,4,1.0,1.0,1.0,1.0,1.0,1.0,0.0,1.0,1.0,0.0,0.0,0.0,2.0,5.0,3.0,7.0,8.0,0.0,7.0,3.0,1.0,2.0,6.0,5.0,4.0,4.48198501142906,2.282237149134744,3.4648106244276278,10.944912585662678,9.209495818649884,5.512746154272463,1327.821956108557,1571.4179932358675,1572.2264207478147,1571.7509575616568,1584.2278311110567,1585.239088073431,1573.2432245117961,1584.2194918073947
1,158,1,1,1.0,1.0,0.36918132507707924,0,0.0,0.0,0.0,0.4432523275551306,0.12473522372287243,0.3185171038322582,0.567987551278003,0.12473522372287243,0.33729491361494485,6,4,8,3,5,0,nan,nan,nan,nan,nan,nan,nan,nan,nan,nan,nan,nan,0.0,nan,nan,nan,nan,nan,nan,nan,nan,nan,nan,nan,nan,nan,nan,nan,nan,nan,nan,1327.821956108557,1585.4613877780503,nan,1585.8305691031273,nan,nan,nan,nan
1,159,0,0,0.0,1.0,0.5924215568811633,0,0.0,0.0,0.0,0.44276501832830134,0.12446836153537186,0.3182966567929295,0.5672333798636732,0.12446836153537186,0.4315224025825349,3,7,0,4,1,8,nan,nan,nan,nan,nan,nan,nan,nan,nan,nan,nan,nan,0.0,nan,nan,nan,nan,nan,nan,nan,nan,nan,nan,nan,nan,nan,nan,nan,nan,nan,nan,1327.821956108557,1586.4780988862622,nan,1587.0705204431433,nan,nan,nan,nan
1,160,1,1,1.0,1.0,0.6635817525093444,0,0.0,0.0,0.0,0.4437431656391043,0.12464567803115523,0.3190974876079491,0.5683888436702595,0.12464567803115523,0.5417282114891956,5,4,8,3,7,0,nan,nan,nan,nan,nan,nan,nan,nan,nan,nan,nan,nan,0.0,nan,nan,nan,nan,nan,nan,nan,nan,nan,nan,nan,nan,nan,nan,nan,nan,nan,nan,1327.821956108557,1587.494890676171,nan,1588.1584724286804,nan,nan,nan,nan
1,161,1,1,1.0,1.0,0.4787922364193946,1,0.0,1.0,1.0,0.4451706889304695,0.1254888253033563,0.3196818636271132,0.5706595142338258,0.1254888253033563,0.5782651819366341,8,1,6,2,4,5,1.0,1.0,1.0,1.0,1.0,1.0,1.0,1.0,1.0,0.0,0.0,0.0,3.0,8.0,1.0,6.0,4.0,2.0,0.0,3.0,2.0,1.0,6.0,5.0,4.0,4.571679495449644,3.3631065281806514,2.11740140785696,9.51482848561136,8.074446766695473,6.315518528746907,1327.821956108557,1588.5116739133373,1589.3201002849382,1588.9904661497567,1599.8880102588446,1600.885450393951,1590.3368926450494,1599.8796812185901
1,162,1,1,1.0,1.0,0.4852607490029186,0,0.0,0.0,0.0,0.4453876021400755,0.12511232857443716,0.32027527356563834,0.5704999307145127,0.12511232857443716,0.5425449126438858,0,4,2,1,8,7,nan,nan,nan,nan,nan,nan,nan,nan,nan,nan,nan,nan,0.0,nan,nan,nan,nan,nan,nan,nan,nan,nan,nan,nan,nan,nan,nan,nan,nan,nan,nan,1327.821956108557,1601.1048618046334,nan,1601.5901225536363,nan,nan,nan,nan
1,163,1,1,1.0,1.0,0.3324403218575753,0,0.0,0.0,0.0,0.4456431992353501,0.12475127470661905,0.32089192452873105,0.5703944739419692,0.12475127470661905,0.43216443575996283,4,5,6,3,1,0,nan,nan,nan,nan,nan,nan,nan,nan,nan,nan,nan,nan,0.0,nan,nan,nan,nan,nan,nan,nan,nan,nan,nan,nan,nan,nan,nan,nan,nan,nan,nan,1327.821956108557,1602.1216342081898,nan,1602.4540745300474,nan,nan,nan,nan
1,164,1,1,1.0,1.0,0.3156605059048161,0,0.0,0.0,0.0,0.4449221617998229,0.1246790180050054,0.3202431437948175,0.5696011798048283,0.1246790180050054,0.3777871922551033,3,8,4,5,7,2,nan,nan,nan,nan,nan,nan,nan,nan,nan,nan,nan,nan,0.0,nan,nan,nan,nan,nan,nan,nan,nan,nan,nan,nan,nan,nan,nan,nan,nan,nan,nan,1327.821956108557,1603.1383880805224,nan,1603.4540485864272,nan,nan,nan,nan
1,165,1,1,1.0,1.0,0.28247235220624134,1,1.0,0.0,1.0,0.444104050053652,0.12470586806015006,0.31939818199350195,0.5688099181138021,0.12470586806015006,0.31019105998954427,0,5,1,4,2,7,1.0,1.0,1.0,1.0,1.0,1.0,1.0,1.0,1.0,0.0,0.0,0.0,3.0,0.0,5.0,1.0,5.0,7.0,3.0,3.0,2.0,1.0,6.0,5.0,4.0,4.087313943658955,3.078965231834445,1.9359748683637008,7.494648915948346,6.4708494993974455,5.400103546387982,1327.821956108557,1604.1635034939973,1604.9719201723929,1604.4459758462035,1613.5145747514325,1614.5194681160501,1605.9804031637614,1613.5062451409176
1,166,1,1,1.0,1.0,0.32193971559172496,0,0.0,0.0,0.0,0.44308749849486323,0.12496807029478219,0.31811942820008104,0.5680555687896454,0.12496807029478219,0.3066908579009275,6,0,2,3,5,4,nan,nan,nan,nan,nan,nan,nan,nan,nan,nan,nan,nan,0.0,nan,nan,nan,nan,nan,nan,nan,nan,nan,nan,nan,nan,nan,nan,nan,nan,nan,nan,1327.821956108557,1614.7397541971295,nan,1615.0616939127212,nan,nan,nan,nan
1,167,0,0,0.0,1.0,0.4411283818189986,0,0.0,0.0,0.0,0.44233032485171864,0.12494226195810568,0.317388062893613,0.5672725868098243,0.12494226195810568,0.34851348320565495,1,2,7,4,3,6,nan,nan,nan,nan,nan,nan,nan,nan,nan,nan,nan,nan,0.0,nan,nan,nan,nan,nan,nan,nan,nan,nan,nan,nan,nan,nan,nan,nan,nan,nan,nan,1327.821956108557,1615.7565325876349,nan,1616.1976609694539,nan,nan,nan,nan
1,168,1,1,1.0,1.0,0.3523268142598681,0,0.0,0.0,0.0,0.44232285936704335,0.12455367391514069,0.3177691854519027,0.566876533282184,0.12455367391514069,0.37179830389019725,6,7,8,5,1,0,nan,nan,nan,nan,nan,nan,nan,nan,nan,nan,nan,nan,0.0,nan,nan,nan,nan,nan,nan,nan,nan,nan,nan,nan,nan,nan,nan,nan,nan,nan,nan,1327.821956108557,1616.7733163949451,nan,1617.125643209205,nan,nan,nan,nan
1,169,1,1,1.0,1.0,0.4394970702705905,0,0.0,0.0,0.0,0.44176732822440645,0.12436857161094049,0.31739875661346595,0.566135899835347,0.12436857161094049,0.4109840887831524,3,4,7,8,0,6,nan,nan,nan,nan,nan,nan,nan,nan,nan,nan,nan,nan,0.0,nan,nan,nan,nan,nan,nan,nan,nan,nan,nan,nan,nan,nan,nan,nan,nan,nan,nan,1327.821956108557,1617.7901004872983,nan,1618.229597557569,nan,nan,nan,nan
1,170,1,1,1.0,1.0,0.5666994620696642,0,0.0,0.0,0.0,0.4417534002614996,0.12398661273438609,0.3177667875271135,0.5657400129958857,0.12398661273438609,0.45284111553337425,8,6,5,3,4,0,nan,nan,nan,nan,nan,nan,nan,nan,nan,nan,nan,nan,0.0,nan,nan,nan,nan,nan,nan,nan,nan,nan,nan,nan,nan,nan,nan,nan,nan,nan,nan,1327.821956108557,1618.8068899965147,nan,1619.3735894585843,nan,nan,nan,nan
1,171,1,1,1.0,1.0,0.6298821390373632,0,0.0,0.0,0.0,0.4425152664920372,0.1239901448818723,0.3185251216101649,0.5665054113739095,0.1239901448818723,0.5453595571258726,6,7,4,2,8,1,nan,nan,nan,nan,nan,nan,nan,nan,nan,nan,nan,nan,0.0,nan,nan,nan,nan,nan,nan,nan,nan,nan,nan,nan,nan,nan,nan,nan,nan,nan,nan,1327.821956108557,1619.823674088926,nan,1620.4535562279634,nan,nan,nan,nan
1,172,1,1,1.0,1.0,0.5810385827207938,1,0.0,1.0,1.0,0.4436508232953422,0.12446629744059899,0.3191845258547432,0.5681171207359412,0.12446629744059899,0.5925400612759404,5,2,1,0,6,3,1.0,1.0,1.0,1.0,1.0,1.0,0.0,1.0,1.0,0.0,0.0,0.0,2.0,6.0,2.0,1.0,8.0,0.0,1.0,3.0,2.0,1.0,6.0,5.0,4.0,3.3791496595949866,2.0750902253203094,0.9879484788398258,6.249348059820477,5.321388342534192,4.393630757404026,1327.821956108557,1620.8404958138126,1621.648901088396,1621.4215343965334,1628.949701890815,1629.9474633275531,1622.6573267757776,1628.9413848244585
1,173,1,1,1.0,1.0,0.7107047624886036,0,0.0,0.0,0.0,0.4444784604003148,0.12454540123930807,0.3199330591610067,0.5690238616396228,0.12454540123930807,0.6405418280822536,7,3,6,1,0,5,nan,nan,nan,nan,nan,nan,nan,nan,nan,nan,nan,nan,0.0,nan,nan,nan,nan,nan,nan,nan,nan,nan,nan,nan,nan,nan,nan,nan,nan,nan,nan,1327.821956108557,1630.166556287557,nan,1630.8772610500455,nan,nan,nan,nan
1,174,1,1,1.0,1.0,0.31788253359263763,0,0.0,0.0,0.0,0.44607262987389734,0.12585921445303017,0.3202134154208672,0.5719318443269275,0.12585921445303017,0.5365419596006783,8,1,7,5,4,3,nan,nan,nan,nan,nan,nan,nan,nan,nan,nan,nan,nan,0.0,nan,nan,nan,nan,nan,nan,nan,nan,nan,nan,nan,nan,nan,nan,nan,nan,nan,nan,1327.821956108557,1631.183365468285,nan,1631.5012480018777,nan,nan,nan,nan
1,175,1,1,1.0,1.0,0.3407243171823211,0,0.0,0.0,0.0,0.4453095935865089,0.12587090368248435,0.3194386899040246,0.5711804972689932,0.12587090368248435,0.45643720442118746,1,7,6,8,0,2,nan,nan,nan,nan,nan,nan,nan,nan,nan,nan,nan,nan,0.0,nan,nan,nan,nan,nan,nan,nan,nan,nan,nan,nan,nan,nan,nan,nan,nan,nan,nan,1327.821956108557,1632.2084540828364,nan,1632.5491784000187,nan,nan,nan,nan
1,176,1,1,1.0,1.0,0.4519152231514454,0,0.0,0.0,0.0,0.444690745797135,0.12575402721184195,0.31893671858529304,0.570444773008977,0.12575402721184195,0.3701740246421347,3,5,4,1,6,0,nan,nan,nan,nan,nan,nan,nan,nan,nan,nan,nan,nan,0.0,nan,nan,nan,nan,nan,nan,nan,nan,nan,nan,nan,nan,nan,nan,nan,nan,nan,nan,1327.821956108557,1633.2252433068934,nan,1633.6771585300448,nan,nan,nan,nan
1,177,1,1,1.0,1.0,0.3947429116233252,0,0.0,0.0,0.0,0.4447332427227486,0.12538483400865855,0.3193484087140901,0.5701180767314071,0.12538483400865855,0.3957941506523639,4,1,2,8,3,6,nan,nan,nan,nan,nan,nan,nan,nan,nan,nan,nan,nan,0.0,nan,nan,nan,nan,nan,nan,nan,nan,nan,nan,nan,nan,nan,nan,nan,nan,nan,nan,1327.821956108557,1634.2504034801968,nan,1634.6451463918202,nan,nan,nan,nan
1,178,1,1,1.0,1.0,0.40193927084328607,0,0.0,0.0,0.0,0.4444409016052081,0.12507576746683816,0.31936513413837,0.5695166690720462,0.12507576746683816,0.41619913520601887,2,0,4,5,6,8,nan,nan,nan,nan,nan,nan,nan,nan,nan,nan,nan,nan,0.0,nan,nan,nan,nan,nan,nan,nan,nan,nan,nan,nan,nan,nan,nan,nan,nan,nan,nan,1327.821956108557,1635.2671659054467,nan,1635.66910517629,nan,nan,nan,nan
1,179,1,1,1.0,1.0,0.3371480898349546,0,0.0,0.0,0.0,0.44419379910077833,0.12475349944354443,0.3194402996572339,0.5689472985443228,0.12475349944354443,0.37794342410052195,7,6,2,4,1,3,nan,nan,nan,nan,nan,nan,nan,nan,nan,nan,nan,nan,0.0,nan,nan,nan,nan,nan,nan,nan,nan,nan,nan,nan,nan,nan,nan,nan,nan,nan,nan,1327.821956108557,1636.2839346027467,nan,1636.6210826925817,nan,nan,nan,nan
1,180,1,1,1.0,1.0,0.3843341058236547,0,0.0,0.0,0.0,0.44357503777554236,0.12465683473894372,0.3189182030365986,0.568231872514486,0.12465683473894372,0.37447382216729846,0,2,7,3,5,4,nan,nan,nan,nan,nan,nan,nan,nan,nan,nan,nan,nan,0.0,nan,nan,nan,nan,nan,nan,nan,nan,nan,nan,nan,nan,nan,nan,nan,nan,nan,nan,1327.821956108557,1637.300718124956,nan,1637.6850522307795,nan,nan,nan,nan
1,181,1,1,1.0,1.0,0.5275103510939516,0,0.0,0.0,0.0,0.4432345726493821,0.12437875030794832,0.3188558223414338,0.5676133229573304,0.12437875030794832,0.4163308489175203,7,1,2,0,3,6,nan,nan,nan,nan,nan,nan,nan,nan,nan,nan,nan,nan,0.0,nan,nan,nan,nan,nan,nan,nan,nan,nan,nan,nan,nan,nan,nan,nan,nan,nan,nan,1327.821956108557,1638.3175027875113,nan,1638.8450131386053,nan,nan,nan,nan
1,182,1,1,1.0,1.0,0.42270499520236626,0,0.0,0.0,0.0,0.4437161485262082,0.12418545154155741,0.3195306969846508,0.5679016000677657,0.12418545154155741,0.4448498173733242,5,7,4,2,0,8,nan,nan,nan,nan,nan,nan,nan,nan,nan,nan,nan,nan,0.0,nan,nan,nan,nan,nan,nan,nan,nan,nan,nan,nan,nan,nan,nan,nan,nan,nan,nan,1327.821956108557,1639.3342885904713,nan,1639.7569935856736,nan,nan,nan,nan
1,183,1,1,1.0,1.0,0.3018636351916939,0,0.0,0.0,0.0,0.44359676697323186,0.12384221944427258,0.31975454752895927,0.5674389864175045,0.12384221944427258,0.4173596604960039,8,5,1,0,2,7,nan,nan,nan,nan,nan,nan,nan,nan,nan,nan,nan,nan,0.0,nan,nan,nan,nan,nan,nan,nan,nan,nan,nan,nan,nan,nan,nan,nan,nan,nan,nan,1327.821956108557,1640.3511026178603,nan,1640.652966253052,nan,nan,nan,nan
1,184,0,0,0.0,1.0,0.47704061487456784,0,0.0,0.0,0.0,0.442796014816274,0.12394796528289144,0.3188480495333826,0.5667439800991655,0.12394796528289144,0.4005364150895427,2,0,8,6,1,5,nan,nan,nan,nan,nan,nan,nan,nan,nan,nan,nan,nan,0.0,nan,nan,nan,nan,nan,nan,nan,nan,nan,nan,nan,nan,nan,nan,nan,nan,nan,nan,1327.821956108557,1641.3678918419173,nan,1641.8449324567919,nan,nan,nan,nan
1,185,1,1,1.0,1.0,0.5962184474919923,0,0.0,0.0,0.0,0.4429884002098599,0.12362580518085414,0.31936259502900577,0.566614205390714,0.12362580518085414,0.458374232519418,7,2,1,4,3,6,nan,nan,nan,nan,nan,nan,nan,nan,nan,nan,nan,nan,0.0,nan,nan,nan,nan,nan,nan,nan,nan,nan,nan,nan,nan,nan,nan,nan,nan,nan,nan,1327.821956108557,1642.3846779300366,nan,1642.9808963775286,nan,nan,nan,nan
1,186,1,1,1.0,1.0,0.45143398334039375,0,0.0,0.0,0.0,0.443844433993559,0.12380789645194891,0.3200365375416101,0.5676523304455079,0.12380789645194891,0.5082310152356513,0,7,3,6,1,4,nan,nan,nan,nan,nan,nan,nan,nan,nan,nan,nan,nan,0.0,nan,nan,nan,nan,nan,nan,nan,nan,nan,nan,nan,nan,nan,nan,nan,nan,nan,nan,1327.821956108557,1643.4014486229862,nan,1643.8528826063266,nan,nan,nan,nan
1,187,0,0,0.0,1.0,0.49061796261230484,0,0.0,0.0,0.0,0.4438865981565969,0.12346479539444537,0.32042180276215154,0.5673513935510422,0.12346479539444537,0.5127567978148969,3,4,5,1,2,8,nan,nan,nan,nan,nan,nan,nan,nan,nan,nan,nan,nan,0.0,nan,nan,nan,nan,nan,nan,nan,nan,nan,nan,nan,nan,nan,nan,nan,nan,nan,nan,1327.821956108557,1644.4182042059256,nan,1644.9088221685379,nan,nan,nan,nan
1,188,1,1,1.0,1.0,0.4577844667364843,0,0.0,0.0,0.0,0.4441447824906064,0.12317197655742303,0.3209728059331834,0.5673167590480295,0.12317197655742303,0.46661213756306097,8,6,0,7,1,4,nan,nan,nan,nan,nan,nan,nan,nan,nan,nan,nan,nan,0.0,nan,nan,nan,nan,nan,nan,nan,nan,nan,nan,nan,nan,nan,nan,nan,nan,nan,nan,1327.821956108557,1645.4350079698488,nan,1645.8927924365853,nan,nan,nan,nan
1,189,1,1,1.0,1.0,0.608960467914585,0,0.0,0.0,0.0,0.4442197258106387,0.12283726392190951,0.32138246188872915,0.5670569897325481,0.12283726392190951,0.5191209657544581,4,3,6,2,0,8,nan,nan,nan,nan,nan,nan,nan,nan,nan,nan,nan,nan,0.0,nan,nan,nan,nan,nan,nan,nan,nan,nan,nan,nan,nan,nan,nan,nan,nan,nan,nan,1327.821956108557,1646.4518219971796,nan,1647.0607824650942,nan,nan,nan,nan
1,190,1,1,1.0,1.0,0.45614004076924175,0,0.0,0.0,0.0,0.44511994844508646,0.12310171743723662,0.3220182310078498,0.568221665882323,0.12310171743723662,0.5076283251401037,8,4,2,3,6,0,nan,nan,nan,nan,nan,nan,nan,nan,nan,nan,nan,nan,0.0,nan,nan,nan,nan,nan,nan,nan,nan,nan,nan,nan,nan,nan,nan,nan,nan,nan,nan,1327.821956108557,1647.468623480352,nan,1647.9247635211213,nan,nan,nan,nan
1,191,1,1,1.0,1.0,0.3353482873062603,0,0.0,0.0,0.0,0.445179840251196,0.12276941959662802,0.322410420654568,0.567949259847824,0.12276941959662802,0.466816265330029,7,8,0,2,1,6,nan,nan,nan,nan,nan,nan,nan,nan,nan,nan,nan,nan,0.0,nan,nan,nan,nan,nan,nan,nan,nan,nan,nan,nan,nan,nan,nan,nan,nan,nan,nan,1327.821956108557,1648.485375357035,nan,1648.8207236443413,nan,nan,nan,nan
1,192,1,1,1.0,1.0,0.48651915678055957,0,0.0,0.0,0.0,0.4445861561812234,0.1227017160211294,0.321884440160094,0.5672878722023528,0.1227017160211294,0.4260024949520205,2,1,6,0,3,4,nan,nan,nan,nan,nan,nan,nan,nan,nan,nan,nan,nan,0.0,nan,nan,nan,nan,nan,nan,nan,nan,nan,nan,nan,nan,nan,nan,nan,nan,nan,nan,1327.821956108557,1649.5021531773964,nan,1649.988672334177,nan,nan,nan,nan
1,193,1,1,1.0,1.0,0.36571856535738334,0,0.0,0.0,0.0,0.44481160242100476,0.1224098412809169,0.32240176114008784,0.5672214437019216,0.1224098412809169,0.39586200314806774,0,7,3,2,6,8,nan,nan,nan,nan,nan,nan,nan,nan,nan,nan,nan,nan,0.0,nan,nan,nan,nan,nan,nan,nan,nan,nan,nan,nan,nan,nan,nan,nan,nan,nan,nan,1327.821956108557,1650.5189369847067,nan,1650.884655550064,nan,nan,nan,nan
1,194,1,1,1.0,1.0,0.4129074322991073,0,0.0,0.0,0.0,0.44438864500355224,0.12221830504818636,0.32217033995536587,0.5666069500517386,0.12221830504818636,0.4217150514790167,1,4,8,5,7,2,nan,nan,nan,nan,nan,nan,nan,nan,nan,nan,nan,nan,0.0,nan,nan,nan,nan,nan,nan,nan,nan,nan,nan,nan,nan,nan,nan,nan,nan,nan,nan,1327.821956108557,1651.5357259237207,nan,1651.9486333560199,nan,nan,nan,nan
1,195,1,1,1.0,1.0,0.2921148235909641,0,0.0,0.0,0.0,0.44422119174448604,0.12191433009117232,0.32230686165331374,0.5661355218356584,0.12191433009117232,0.35691360708248493,0,3,4,7,8,1,nan,nan,nan,nan,nan,nan,nan,nan,nan,nan,nan,nan,0.0,nan,nan,nan,nan,nan,nan,nan,nan,nan,nan,nan,nan,nan,nan,nan,nan,nan,nan,1327.821956108557,1652.552501178172,nan,1652.844616001763,nan,nan,nan,nan
1,196,1,1,1.0,1.0,0.4669397113029845,0,0.0,0.0,0.0,0.44341639614579015,0.12209107240076572,0.3213253237450244,0.5655074685465559,0.12209107240076572,0.39065398906435195,8,4,0,1,5,7,nan,nan,nan,nan,nan,nan,nan,nan,nan,nan,nan,nan,0.0,nan,nan,nan,nan,nan,nan,nan,nan,nan,nan,nan,nan,nan,nan,nan,nan,nan,nan,1327.821956108557,1653.5776262848522,nan,1654.0445659961551,nan,nan,nan,nan
1,197,0,0,1.0,0.0,0.38612450030632317,0,0.0,0.0,0.0,0.4435402030676701,0.12178125118080599,0.3217589518868641,0.5653214542484761,0.12178125118080599,0.38172634506675723,7,8,2,4,6,5,nan,nan,nan,nan,nan,nan,nan,nan,nan,nan,nan,nan,0.0,nan,nan,nan,nan,nan,nan,nan,nan,nan,nan,nan,nan,nan,nan,nan,nan,nan,nan,1327.821956108557,1654.5944155089092,nan,1654.9805400092155,nan,nan,nan,nan
1,198,1,1,1.0,1.0,0.4493043262627907,0,0.0,0.0,0.0,0.4432395972940505,0.12153269010324554,0.32170690719080497,0.564772287397296,0.12153269010324554,0.4341228459573661,1,0,4,6,2,3,nan,nan,nan,nan,nan,nan,nan,nan,nan,nan,nan,nan,0.0,nan,nan,nan,nan,nan,nan,nan,nan,nan,nan,nan,nan,nan,nan,nan,nan,nan,nan,1327.821956108557,1655.6111958951224,nan,1656.0605002213852,nan,nan,nan,nan
1,199,1,1,1.0,1.0,0.4085144088603556,0,0.0,0.0,0.0,0.443271184424096,0.12121657162137357,0.32205461280272246,0.5644877560454696,0.12121657162137357,0.4146477451431565,6,4,1,2,7,8,nan,nan,nan,nan,nan,nan,nan,nan,nan,nan,nan,nan,0.0,nan,nan,nan,nan,nan,nan,nan,nan,nan,nan,nan,nan,nan,nan,nan,nan,nan,nan,1327.821956108557,1656.627995667688,nan,1657.0365100765484,nan,nan,nan,nan
1,200,1,1,1.0,1.0,0.3996784702176228,0,0.0,0.0,0.0,0.44309109750407666,0.12092787992116033,0.32216321758291633,0.564018977425237,0.12092787992116033,0.41916573511358973,5,6,8,7,3,0,nan,nan,nan,nan,nan,nan,nan,nan,nan,nan,nan,nan,0.0,nan,nan,nan,nan,nan,nan,nan,nan,nan,nan,nan,nan,nan,nan,nan,nan,nan,nan,1327.821956108557,1657.6447945850668,nan,1658.0444730552845,nan,nan,nan,nan
1,201,1,1,1.0,1.0,0.3828524689306505,0,0.0,0.0,0.0,0.44286732107476506,0.12065586456655851,0.32221145650820654,0.5635231856413235,0.12065586456655851,0.3970151160028763,7,0,1,2,8,4,nan,nan,nan,nan,nan,nan,nan,nan,nan,nan,nan,nan,0.0,nan,nan,nan,nan,nan,nan,nan,nan,nan,nan,nan,nan,nan,nan,nan,nan,nan,nan,1327.821956108557,1658.6615892259288,nan,1659.0444416948594,nan,nan,nan,nan
1,202,1,1,1.0,1.0,0.4217422305373475,0,0.0,0.0,0.0,0.4425595526022311,0.12042241500040758,0.32213713760182355,0.5629819676026387,0.12042241500040758,0.40142438989520696,8,3,6,4,0,1,nan,nan,nan,nan,nan,nan,nan,nan,nan,nan,nan,nan,0.0,nan,nan,nan,nan,nan,nan,nan,nan,nan,nan,nan,nan,nan,nan,nan,nan,nan,nan,1327.821956108557,1659.686668717477,nan,1660.1084109480144,nan,nan,nan,nan
1,203,1,1,1.0,1.0,0.37295654841000214,0,0.0,0.0,0.0,0.4424533417753695,0.12012397861288021,0.3223293631624893,0.5625773203882497,0.12012397861288021,0.39251708262600005,1,2,8,3,6,5,nan,nan,nan,nan,nan,nan,nan,nan,nan,nan,nan,nan,0.0,nan,nan,nan,nan,nan,nan,nan,nan,nan,nan,nan,nan,nan,nan,nan,nan,nan,nan,1327.821956108557,1660.7034522396862,nan,1661.0764087880962,nan,nan,nan,nan
1,204,0,0,0.0,1.0,0.5320692996610887,0,0.0,0.0,0.0,0.44210056617453003,0.1199204527824183,0.3221801133921117,0.5620210189569483,0.1199204527824183,0.4422560262028128,4,7,3,1,2,8,nan,nan,nan,nan,nan,nan,nan,nan,nan,nan,nan,nan,0.0,nan,nan,nan,nan,nan,nan,nan,nan,nan,nan,nan,nan,nan,nan,nan,nan,nan,nan,1327.821956108557,1661.7202711136197,nan,1662.2523404132808,nan,nan,nan,nan
1,205,1,1,1.0,1.0,0.4912634168867953,0,0.0,0.0,0.0,0.44255495371739145,0.11978713752080629,0.3227678161965852,0.5623420912381978,0.11978713752080629,0.46542975498596206,6,0,4,7,3,2,nan,nan,nan,nan,nan,nan,nan,nan,nan,nan,nan,nan,0.0,nan,nan,nan,nan,nan,nan,nan,nan,nan,nan,nan,nan,nan,nan,nan,nan,nan,nan,1327.821956108557,1662.7370329686673,nan,1663.2282963855541,nan,nan,nan,nan
1,206,1,1,1.0,1.0,0.4104584692395292,0,0.0,0.0,0.0,0.4427997198639714,0.11953541429061877,0.3232643055733526,0.5623351341545901,0.11953541429061877,0.4779303952624711,2,6,3,5,7,8,nan,nan,nan,nan,nan,nan,nan,nan,nan,nan,nan,nan,0.0,nan,nan,nan,nan,nan,nan,nan,nan,nan,nan,nan,nan,nan,nan,nan,nan,nan,nan,1327.821956108557,1663.7538193418295,nan,1664.164277811069,nan,nan,nan,nan
1,207,1,1,1.0,1.0,0.4096448091440834,0,0.0,0.0,0.0,0.44263801361084915,0.11925801996859241,0.3233799936422567,0.5618960335794415,0.11925801996859241,0.43712223175680265,3,8,0,4,1,7,nan,nan,nan,nan,nan,nan,nan,nan,nan,nan,nan,nan,0.0,nan,nan,nan,nan,nan,nan,nan,nan,nan,nan,nan,nan,nan,nan,nan,nan,nan,nan,1327.821956108557,1664.770595736627,nan,1665.180240545771,nan,nan,nan,nan
1,208,1,1,1.0,1.0,0.43248887348454446,0,0.0,0.0,0.0,0.4424738683149946,0.11898363534009143,0.32349023297490315,0.561457503655086,0.11898363534009143,0.4175307172893857,7,4,8,5,0,1,nan,nan,nan,nan,nan,nan,nan,nan,nan,nan,nan,nan,0.0,nan,nan,nan,nan,nan,nan,nan,nan,nan,nan,nan,nan,nan,nan,nan,nan,nan,nan,1327.821956108557,1665.7957179923542,nan,1666.2282068658387,nan,nan,nan,nan
1,209,1,1,1.0,1.0,0.3597059191670269,0,0.0,0.0,0.0,0.4424244376475171,0.11869082491803801,0.3237336127294791,0.5611152625655551,0.11869082491803801,0.4006132005985516,3,7,1,6,4,2,nan,nan,nan,nan,nan,nan,nan,nan,nan,nan,nan,nan,0.0,nan,nan,nan,nan,nan,nan,nan,nan,nan,nan,nan,nan,nan,nan,nan,nan,nan,nan,1327.821956108557,1666.812492106459,nan,1667.1721980256261,nan,nan,nan,nan
1,210,1,1,1.0,1.0,0.3988633846747689,0,0.0,0.0,0.0,0.4420169572609137,0.11853967877004977,0.32347727849086394,0.5605566360309635,0.11853967877004977,0.39701939244211343,6,4,0,7,3,1,nan,nan,nan,nan,nan,nan,nan,nan,nan,nan,nan,nan,0.0,nan,nan,nan,nan,nan,nan,nan,nan,nan,nan,nan,nan,nan,nan,nan,nan,nan,nan,1327.821956108557,1667.8292981511331,nan,1668.2281615358079,nan,nan,nan,nan
1,211,1,1,1.0,1.0,0.3896839069784619,0,0.0,0.0,0.0,0.4418054201403934,0.11828718702168231,0.3235182331187111,0.5600926071620758,0.11828718702168231,0.3827510702734192,5,8,7,3,6,4,nan,nan,nan,nan,nan,nan,nan,nan,nan,nan,nan,nan,0.0,nan,nan,nan,nan,nan,nan,nan,nan,nan,nan,nan,nan,nan,nan,nan,nan,nan,nan,1327.821956108557,1668.854416415561,nan,1669.2441003225395,nan,nan,nan,nan
1,212,1,1,1.0,1.0,0.38092066755052656,0,0.0,0.0,0.0,0.44155116885667667,0.11805419502318207,0.3234969738334946,0.5596053638798587,0.11805419502318207,0.38982265306791913,0,4,1,5,2,3,nan,nan,nan,nan,nan,nan,nan,nan,nan,nan,nan,nan,0.0,nan,nan,nan,nan,nan,nan,nan,nan,nan,nan,nan,nan,nan,nan,nan,nan,nan,nan,1327.821956108557,1669.8711990824668,nan,1670.2521197500173,nan,nan,nan,nan
1,213,1,1,1.0,1.0,0.3481019965838641,0,0.0,0.0,0.0,0.44125684603480214,0.11784267878028891,0.3234141672545132,0.5590995248150911,0.11784267878028891,0.37290219037095085,7,0,2,3,1,8,nan,nan,nan,nan,nan,nan,nan,nan,nan,nan,nan,nan,0.0,nan,nan,nan,nan,nan,nan,nan,nan,nan,nan,nan,nan,nan,nan,nan,nan,nan,nan,1327.821956108557,1670.8879814643296,nan,1671.2360834609135,nan,nan,nan,nan
1,214,1,1,1.0,1.0,0.659265419410076,0,0.0,0.0,0.0,0.4408068226075029,0.11773499830972578,0.32307182429777714,0.5585418209172287,0.11773499830972578,0.4627626945148222,1,3,7,0,8,6,nan,nan,nan,nan,nan,nan,nan,nan,nan,nan,nan,nan,0.0,nan,nan,nan,nan,nan,nan,nan,nan,nan,nan,nan,nan,nan,nan,nan,nan,nan,nan,1327.821956108557,1671.904768692737,nan,1672.564034112147,nan,nan,nan,nan
1,215,1,1,1.0,1.0,0.506439290358685,0,0.0,0.0,0.0,0.44185710432289993,0.11841971049947887,0.32343739382342107,0.5602768148223788,0.11841971049947887,0.504602235450875,5,6,0,2,1,3,nan,nan,nan,nan,nan,nan,nan,nan,nan,nan,nan,nan,0.0,nan,nan,nan,nan,nan,nan,nan,nan,nan,nan,nan,nan,nan,nan,nan,nan,nan,nan,1327.821956108557,1672.9215590572567,nan,1673.4279983476154,nan,nan,nan,nan
1,216,1,1,1.0,1.0,0.47365511587122455,0,0.0,0.0,0.0,0.4421661099977123,0.11822009908789494,0.32394601090981734,0.5603862090856072,0.11822009908789494,0.5464532752133285,0,5,4,1,3,7,nan,nan,nan,nan,nan,nan,nan,nan,nan,nan,nan,nan,0.0,nan,nan,nan,nan,nan,nan,nan,nan,nan,nan,nan,nan,nan,nan,nan,nan,nan,nan,1327.821956108557,1673.9383471409674,nan,1674.4120022568386,nan,nan,nan,nan
1,217,1,1,1.0,1.0,0.3487029761308804,0,0.0,0.0,0.0,0.44231605764472903,0.11795820744803097,0.32435785019669805,0.56027426509276,0.11795820744803097,0.44293246078693,7,1,6,3,5,4,nan,nan,nan,nan,nan,nan,nan,nan,nan,nan,nan,nan,0.0,nan,nan,nan,nan,nan,nan,nan,nan,nan,nan,nan,nan,nan,nan,nan,nan,nan,nan,1327.821956108557,1674.9592494256212,nan,1675.3079524017521,nan,nan,nan,nan
1,218,1,1,1.0,1.0,0.3037016404559836,0,0.0,0.0,0.0,0.44187239375129844,0.11785385367307322,0.3240185400782252,0.5597262474243716,0.11785385367307322,0.37535324415269616,8,7,5,6,1,3,nan,nan,nan,nan,nan,nan,nan,nan,nan,nan,nan,nan,0.0,nan,nan,nan,nan,nan,nan,nan,nan,nan,nan,nan,nan,nan,nan,nan,nan,nan,nan,1327.821956108557,1675.980251493398,nan,1676.283953133854,nan,nan,nan,nan
1,219,1,1,1.0,1.0,0.32685303688049316,0,0.0,0.0,0.0,0.4412206449149998,0.11795610209684602,0.32326454281815376,0.5591767470118458,0.11795610209684602,0.32641921782245237,3,1,0,7,6,2,nan,nan,nan,nan,nan,nan,nan,nan,nan,nan,nan,nan,0.0,nan,nan,nan,nan,nan,nan,nan,nan,nan,nan,nan,nan,nan,nan,nan,nan,nan,nan,1327.821956108557,1676.9970606741263,nan,1677.3239137110068,nan,nan,nan,nan
1,220,1,1,1.0,1.0,0.3071507155545987,1,1.0,0.0,1.0,0.44068370778807725,0.11793828755862457,0.3227454202294527,0.5586219953467018,0.11793828755862457,0.3125684642970252,7,0,8,6,4,5,1.0,1.0,1.0,1.0,1.0,1.0,1.0,1.0,0.0,0.0,0.0,0.0,2.0,7.0,0.0,6.0,8.0,3.0,1.0,2.0,1.0,3.0,4.0,5.0,6.0,3.594444018381182,2.2284885393455625,4.738712176156696,5.642050263879355,6.5142121110111475,7.842019644740503,1327.821956108557,1678.0167418984347,1678.8222477603704,1678.3238926139893,1687.7149515324854,1688.7110175113776,1679.8307145013823,1687.7066261984291
1,221,1,1,1.0,1.0,0.6077214466058649,0,0.0,0.0,0.0,0.44005972184306097,0.11801430270312499,0.322045419139936,0.5580740245461859,0.11801430270312499,0.41390839968031895,8,3,4,7,5,0,nan,nan,nan,nan,nan,nan,nan,nan,nan,nan,nan,nan,0.0,nan,nan,nan,nan,nan,nan,nan,nan,nan,nan,nan,nan,nan,nan,nan,nan,nan,nan,1327.821956108557,1688.9318464126554,nan,1689.5395678592613,nan,nan,nan,nan
1,222,1,1,1.0,1.0,0.29499142861459404,0,0.0,0.0,0.0,0.44083954381870194,0.11829089282896861,0.32254865098973334,0.5591304366476706,0.11829089282896861,0.4032878635916859,5,7,8,3,1,2,nan,nan,nan,nan,nan,nan,nan,nan,nan,nan,nan,nan,0.0,nan,nan,nan,nan,nan,nan,nan,nan,nan,nan,nan,nan,nan,nan,nan,nan,nan,nan,1327.821956108557,1689.9485486829071,nan,1690.2435401115217,nan,nan,nan,nan
1,223,1,1,1.0,1.0,0.31815052253659815,0,0.0,0.0,0.0,0.44016432106312736,0.11843132265022745,0.32173299841289993,0.5585956437133548,0.11843132265022745,0.406954465919019,6,2,7,1,8,3,nan,nan,nan,nan,nan,nan,nan,nan,nan,nan,nan,nan,0.0,nan,nan,nan,nan,nan,nan,nan,nan,nan,nan,nan,nan,nan,nan,nan,nan,nan,nan,1327.821956108557,1690.965351306484,nan,1691.2835018290207,nan,nan,nan,nan
1,224,1,1,1.0,1.0,0.3333577564335428,1,1.0,0.0,1.0,0.43960204549388066,0.1184467456907108,0.32115529980316987,0.5580487911845915,0.1184467456907108,0.315499902528245,5,0,2,4,3,8,1.0,1.0,1.0,1.0,1.0,1.0,0.0,0.0,0.0,0.0,0.0,0.0,0.0,6.0,5.0,0.0,8.0,4.0,7.0,3.0,2.0,1.0,6.0,5.0,4.0,5.433534030453302,4.121204855618998,3.0419072033837438,9.593233791587409,8.264870608400088,6.418002929072827,1327.821956108557,1691.98211686773,1692.7905566387926,1692.3154746241635,1703.4417701298953,1704.4509578752914,1693.8073338888935,1703.4334396641352
1,225,1,1,1.0,1.0,0.6001422051922418,0,0.0,0.0,0.0,0.4391146863697507,0.11839263938847407,0.32072204698127665,0.5575073257582248,0.11839263938847407,0.4172168280541276,8,4,1,7,6,2,nan,nan,nan,nan,nan,nan,nan,nan,nan,nan,nan,nan,0.0,nan,nan,nan,nan,nan,nan,nan,nan,nan,nan,nan,nan,nan,nan,nan,nan,nan,nan,1327.821956108557,1704.666974093765,nan,1705.2671162989573,nan,nan,nan,nan
1,226,1,1,1.0,1.0,0.2873488962650299,0,0.0,0.0,0.0,0.43984997184382596,0.11861987135924405,0.3212301004845819,0.55846984320307,0.11861987135924405,0.4069496192969382,3,2,7,0,5,4,nan,nan,nan,nan,nan,nan,nan,nan,nan,nan,nan,nan,0.0,nan,nan,nan,nan,nan,nan,nan,nan,nan,nan,nan,nan,nan,nan,nan,nan,nan,nan,1327.821956108557,1705.6837464972632,nan,1705.9710953935282,nan,nan,nan,nan
1,227,1,1,1.0,1.0,0.26253169181291014,0,0.0,0.0,0.0,0.43915678513664963,0.11879371819815486,0.32036306693849476,0.5579505033348044,0.11879371819815486,0.3833409310900606,7,3,0,6,4,2,nan,nan,nan,nan,nan,nan,nan,nan,nan,nan,nan,nan,0.0,nan,nan,nan,nan,nan,nan,nan,nan,nan,nan,nan,nan,nan,nan,nan,nan,nan,nan,1327.821956108557,1706.700520326267,nan,1706.96305201808,nan,nan,nan,nan
1,228,1,1,1.0,1.0,0.25080859975423664,1,1.0,0.0,1.0,0.4383575765695739,0.11911596899981905,0.31924160756975484,0.557473545569393,0.11911596899981905,0.2668963959440589,6,4,1,7,5,0,1.0,1.0,1.0,1.0,1.0,1.0,1.0,1.0,1.0,0.0,0.0,0.0,3.0,6.0,4.0,1.0,4.0,6.0,5.0,3.0,1.0,2.0,6.0,5.0,4.0,4.530256667872891,1.7382400594069622,2.6437474323320203,6.953312329482287,6.353420437371824,5.618442430975847,1327.821956108557,1707.720200980315,1708.5257068423089,1707.9710095800692,1716.5433262620354,1717.5545803734567,1709.550854756555,1716.534971848363
1,229,1,1,1.0,1.0,0.2179351905360818,0,0.0,0.0,0.0,0.437512761358694,0.11950912898364474,0.31800363237504925,0.5570218903423387,0.11950912898364474,0.24375849403440952,4,2,6,5,3,1,nan,nan,nan,nan,nan,nan,nan,nan,nan,nan,nan,nan,0.0,nan,nan,nan,nan,nan,nan,nan,nan,nan,nan,nan,nan,nan,nan,nan,nan,nan,nan,1327.821956108557,1717.7768167870818,nan,1717.9947519776179,nan,nan,nan,nan
1,230,1,1,1.0,1.0,0.28910878556780517,0,0.0,0.0,0.0,0.4365281085747361,0.12014001521500771,0.3163880933597284,0.5566681237897438,0.12014001521500771,0.2526175252860412,1,6,2,3,7,8,nan,nan,nan,nan,nan,nan,nan,nan,nan,nan,nan,nan,0.0,nan,nan,nan,nan,nan,nan,nan,nan,nan,nan,nan,nan,nan,nan,nan,nan,nan,nan,1327.821956108557,1718.7935735103674,nan,1719.0826822959352,nan,nan,nan,nan
1,231,1,1,1.0,1.0,0.3122752919443883,1,1.0,0.0,1.0,0.4358699865970266,0.12027374696760772,0.31559623962941885,0.5561437335646343,0.12027374696760772,0.2731064226827584,4,0,3,8,2,7,1.0,1.0,1.0,1.0,1.0,1.0,0.0,0.0,0.0,1.0,0.0,0.0,1.0,7.0,2.0,4.0,8.0,0.0,1.0,3.0,1.0,2.0,6.0,4.0,5.0,3.18823973153485,1.3729950362467207,2.158460739767179,6.404289876285475,4.332041759509593,5.04463099775603,1327.821956108557,1719.8103792699985,1720.6187888209824,1720.122654561943,1728.0780130157364,1729.0826600585715,1721.6355726282927,1728.0696799841244
1,232,1,1,1.0,1.0,0.27522325044265017,0,0.0,0.0,0.0,0.43532067684301484,0.1202874553306308,0.31503322151238405,0.5556081321736457,0.1202874553306308,0.29220244265161455,6,2,7,4,8,3,nan,nan,nan,nan,nan,nan,nan,nan,nan,nan,nan,nan,0.0,nan,nan,nan,nan,nan,nan,nan,nan,nan,nan,nan,nan,nan,nan,nan,nan,nan,nan,1327.821956108557,1729.303188185033,nan,1729.5784114354756,nan,nan,nan,nan
1,233,1,1,1.0,1.0,0.3282437285524793,0,0.0,0.0,0.0,0.43461228115097783,0.12049049742843189,0.31412178372254596,0.5551027785794097,0.12049049742843189,0.3052474236465059,4,5,1,8,3,0,nan,nan,nan,nan,nan,nan,nan,nan,nan,nan,nan,nan,0.0,nan,nan,nan,nan,nan,nan,nan,nan,nan,nan,nan,nan,nan,nan,nan,nan,nan,nan,1327.821956108557,1730.322128163185,nan,1730.6503718917374,nan,nan,nan,nan
1,234,1,1,1.0,1.0,0.5052361909183674,0,0.0,0.0,0.0,0.43414369721882584,0.12043100607189171,0.3137126911469341,0.5545747032907176,0.12043100607189171,0.36956772330449894,5,3,0,7,6,4,nan,nan,nan,nan,nan,nan,nan,nan,nan,nan,nan,nan,0.0,nan,nan,nan,nan,nan,nan,nan,nan,nan,nan,nan,nan,nan,nan,nan,nan,nan,nan,1327.821956108557,1731.3451010903227,nan,1731.850337281241,nan,nan,nan,nan
1,235,0,0,nan,nan,nan,0,0.0,0.0,0.0,0.0,0.0,0.0,0.0,0.0,0.0,7,8,1,2,4,5,nan,nan,nan,nan,nan,nan,nan,nan,nan,nan,nan,nan,0.0,nan,nan,nan,nan,nan,nan,nan,nan,nan,nan,nan,nan,nan,nan,nan,nan,nan,nan,1327.821956108557,1732.3618298743386,nan,nan,nan,nan,nan,nan
1,236,1,1,1.0,1.0,0.47125005739508197,0,0.0,0.0,0.0,0.4344555064017186,0.12025840881530374,0.31419709758641484,0.5547139152170223,0.12025840881530374,0.48824312415672466,4,6,3,5,1,2,nan,nan,nan,nan,nan,nan,nan,nan,nan,nan,nan,nan,0.0,nan,nan,nan,nan,nan,nan,nan,nan,nan,nan,nan,nan,nan,nan,nan,nan,nan,nan,1327.821956108557,1733.3869663847727,nan,1733.8582164421678,nan,nan,nan,nan
1,237,1,1,1.0,1.0,0.3664923122851178,0,0.0,0.0,0.0,0.4346161812968861,0.12002007259563002,0.3145961087012561,0.5546362538925161,0.12002007259563002,0.4188711848400999,2,3,8,0,7,5,nan,nan,nan,nan,nan,nan,nan,nan,nan,nan,nan,nan,0.0,nan,nan,nan,nan,nan,nan,nan,nan,nan,nan,nan,nan,nan,nan,nan,nan,nan,nan,1327.821956108557,1734.4037479113322,nan,1734.7702402236173,nan,nan,nan,nan
1,238,1,1,1.0,1.0,0.4456639526761137,0,0.0,0.0,0.0,0.43431999056205234,0.11984272240319846,0.3144772681588539,0.5541627129652508,0.11984272240319846,0.4278021074521045,5,7,0,3,6,4,nan,nan,nan,nan,nan,nan,nan,nan,nan,nan,nan,nan,0.0,nan,nan,nan,nan,nan,nan,nan,nan,nan,nan,nan,nan,nan,nan,nan,nan,nan,nan,1327.821956108557,1735.4205411267467,nan,1735.8662050794228,nan,nan,nan,nan
1,239,1,1,1.0,1.0,0.39653045509476215,0,0.0,0.0,0.0,0.43436909862315215,0.11958536038022147,0.3147837382429307,0.5539544590033736,0.11958536038022147,0.4028955733519979,4,2,5,8,7,6,nan,nan,nan,nan,nan,nan,nan,nan,nan,nan,nan,nan,0.0,nan,nan,nan,nan,nan,nan,nan,nan,nan,nan,nan,nan,nan,nan,nan,nan,nan,nan,1327.821956108557,1736.4456710800296,nan,1736.8422015351243,nan,nan,nan,nan
1,240,1,1,1.0,1.0,0.5716780700022355,0,0.0,0.0,0.0,0.4342060010217367,0.11935309983155114,0.31485290119018555,0.5535591008532879,0.11935309983155114,0.47129082592437044,0,6,7,1,3,8,nan,nan,nan,nan,nan,nan,nan,nan,nan,nan,nan,nan,0.0,nan,nan,nan,nan,nan,nan,nan,nan,nan,nan,nan,nan,nan,nan,nan,nan,nan,nan,1327.821956108557,1737.4624517512857,nan,1738.034129821288,nan,nan,nan,nan
1,241,1,1,1.0,1.0,0.7468787124962546,1,0.0,1.0,1.0,0.4347960099014813,0.11943527968785769,0.31536073021362365,0.554231289589339,0.11943527968785769,0.5716957458644174,1,0,8,5,2,6,1.0,1.0,1.0,1.0,1.0,1.0,0.0,1.0,1.0,0.0,0.0,0.0,2.0,3.0,0.0,8.0,7.0,5.0,2.0,3.0,2.0,1.0,6.0,5.0,4.0,3.7602034664014354,2.3113353349035606,1.3744082504417747,6.822353815601673,5.678628478082828,4.695460751478095,1327.821956108557,1738.4792352734949,1739.2876425437862,1739.226113985991,1747.1718886979506,1748.176534030179,1740.3127705013612,1747.1635588023346
1,242,0,0,1.0,0.0,0.2687735541840084,0,0.0,0.0,0.0,0.43612969666470686,0.12090602656253022,0.31522367010217667,0.557035723227237,0.12090602656253022,0.5291101122274995,4,2,3,1,8,0,nan,nan,nan,nan,nan,nan,nan,nan,nan,nan,nan,nan,0.0,nan,nan,nan,nan,nan,nan,nan,nan,nan,nan,nan,nan,nan,nan,nan,nan,nan,nan,1327.821956108557,1748.3970943723107,nan,1748.6658679264947,nan,nan,nan,nan
1,243,1,1,1.0,1.0,0.3479862482054159,0,0.0,0.0,0.0,0.43541754286691664,0.12113933306720251,0.3142782097997141,0.5565568759341192,0.12113933306720251,0.45454617162855965,8,0,1,6,5,4,nan,nan,nan,nan,nan,nan,nan,nan,nan,nan,nan,nan,0.0,nan,nan,nan,nan,nan,nan,nan,nan,nan,nan,nan,nan,nan,nan,nan,nan,nan,nan,1327.821956108557,1749.413824296731,nan,1749.7618105449365,nan,nan,nan,nan
1,244,1,1,1.0,1.0,0.36314359051175416,0,0.0,0.0,0.0,0.4350470712793679,0.1210157447773476,0.3140313265020203,0.5560628160567155,0.1210157447773476,0.32663446430039283,2,7,4,1,6,8,nan,nan,nan,nan,nan,nan,nan,nan,nan,nan,nan,nan,0.0,nan,nan,nan,nan,nan,nan,nan,nan,nan,nan,nan,nan,nan,nan,nan,nan,nan,nan,1327.821956108557,1750.4306548595778,nan,1750.7937984500895,nan,nan,nan,nan
1,245,0,0,0.0,1.0,0.5063206909690052,0,0.0,0.0,0.0,0.4347436810651586,0.12085007571998824,0.31389360534517036,0.5555937567851468,0.12085007571998824,0.4058168432287251,7,3,5,4,8,2,nan,nan,nan,nan,nan,nan,nan,nan,nan,nan,nan,nan,0.0,nan,nan,nan,nan,nan,nan,nan,nan,nan,nan,nan,nan,nan,nan,nan,nan,nan,nan,1327.821956108557,1751.4474338202854,nan,1751.9537545112544,nan,nan,nan,nan
1,246,1,1,1.0,1.0,0.3455170433735475,0,0.0,0.0,0.0,0.4350444248042504,0.12068476388994806,0.31435966091430234,0.5557291886941984,0.12068476388994806,0.4049937749514356,4,0,8,2,1,6,nan,nan,nan,nan,nan,nan,nan,nan,nan,nan,nan,nan,0.0,nan,nan,nan,nan,nan,nan,nan,nan,nan,nan,nan,nan,nan,nan,nan,nan,nan,nan,1327.821956108557,1752.464224754949,nan,1752.8097417983226,nan,nan,nan,nan
1,247,1,1,1.0,1.0,0.35270713054342195,0,0.0,0.0,0.0,0.434669833250147,0.1205705912746462,0.3140992419755008,0.5552404245247933,0.1205705912746462,0.4015149549619916,6,1,7,4,2,3,nan,nan,nan,nan,nan,nan,nan,nan,nan,nan,nan,nan,0.0,nan,nan,nan,nan,nan,nan,nan,nan,nan,nan,nan,nan,nan,nan,nan,nan,nan,nan,1327.821956108557,1753.4809863248956,nan,1753.833693455439,nan,nan,nan,nan
1,248,1,1,1.0,1.0,0.34394303581211716,0,0.0,0.0,0.0,0.434328321988869,0.12043492055263989,0.3138934014362291,0.5547632425415089,0.12043492055263989,0.34738906990969554,3,4,2,5,1,0,nan,nan,nan,nan,nan,nan,nan,nan,nan,nan,nan,nan,0.0,nan,nan,nan,nan,nan,nan,nan,nan,nan,nan,nan,nan,nan,nan,nan,nan,nan,nan,1327.821956108557,1754.4977612942457,nan,1754.8417043300578,nan,nan,nan,nan
1,249,1,1,1.0,1.0,0.3430789139238186,0,0.0,0.0,0.0,0.43395327930763766,0.12032515461636807,0.3136281246912696,0.5542784339240058,0.12032515461636807,0.34657636009311926,4,5,3,8,0,1,nan,nan,nan,nan,nan,nan,nan,nan,nan,nan,nan,nan,0.0,nan,nan,nan,nan,nan,nan,nan,nan,nan,nan,nan,nan,nan,nan,nan,nan,nan,nan,1327.821956108557,1755.514579027833,nan,1755.8576579417568,nan,nan,nan,nan
1,250,0,0,0.0,1.0,0.501911987317726,0,0.0,0.0,0.0,0.43357776540109294,0.12021771655711587,0.31336004884397706,0.5537954819582088,0.12021771655711587,0.3963113123512206,7,3,1,5,6,8,nan,nan,nan,nan,nan,nan,nan,nan,nan,nan,nan,nan,0.0,nan,nan,nan,nan,nan,nan,nan,nan,nan,nan,nan,nan,nan,nan,nan,nan,nan,nan,1327.821956108557,1756.539687028795,nan,1757.0415990161127,nan,nan,nan,nan
1,251,1,1,1.0,1.0,0.39710206986637786,0,0.0,0.0,0.0,0.4338589761908733,0.12004983187073416,0.3138091443201392,0.5539088080616075,0.12004983187073416,0.4140309903693075,8,5,7,0,2,6,nan,nan,nan,nan,nan,nan,nan,nan,nan,nan,nan,nan,0.0,nan,nan,nan,nan,nan,nan,nan,nan,nan,nan,nan,nan,nan,nan,nan,nan,nan,nan,1327.821956108557,1757.556461428001,nan,1757.9535634978674,nan,nan,nan,nan
1,252,1,1,1.0,1.0,0.5242793734068982,0,0.0,0.0,0.0,0.4337083331321664,0.11982658800568083,0.3138817451264856,0.5535349211378472,0.11982658800568083,0.47443114353033405,6,7,3,1,5,0,nan,nan,nan,nan,nan,nan,nan,nan,nan,nan,nan,nan,0.0,nan,nan,nan,nan,nan,nan,nan,nan,nan,nan,nan,nan,nan,nan,nan,nan,nan,nan,1327.821956108557,1758.5732512222603,nan,1759.0975305956672,nan,nan,nan,nan
1,253,1,1,1.0,1.0,0.42747747967951,0,0.0,0.0,0.0,0.43407801084757347,0.11972113792789034,0.3143568729196831,0.5537991487754638,0.11972113792789034,0.44961964098426205,7,2,6,4,0,8,nan,nan,nan,nan,nan,nan,nan,nan,nan,nan,nan,nan,0.0,nan,nan,nan,nan,nan,nan,nan,nan,nan,nan,nan,nan,nan,nan,nan,nan,nan,nan,1327.821956108557,1759.5900350295706,nan,1760.01751250925,nan,nan,nan,nan
1,254,1,1,1.0,1.0,0.3706672383705154,0,0.0,0.0,0.0,0.434051179420061,0.1194782926207739,0.3145728867992871,0.5535294720408349,0.1194782926207739,0.4408080304856412,4,0,8,7,1,2,nan,nan,nan,nan,nan,nan,nan,nan,nan,nan,nan,nan,0.0,nan,nan,nan,nan,nan,nan,nan,nan,nan,nan,nan,nan,nan,nan,nan,nan,nan,nan,1327.821956108557,1760.6068208325887,nan,1760.9774880709592,nan,nan,nan,nan
1,255,1,1,1.0,1.0,0.3218430685228668,0,0.0,0.0,0.0,0.43379456427411145,0.11930409909385335,0.3144904651802581,0.5530986633679648,0.11930409909385335,0.3733292621909641,1,4,7,2,5,8,nan,nan,nan,nan,nan,nan,nan,nan,nan,nan,nan,nan,0.0,nan,nan,nan,nan,nan,nan,nan,nan,nan,nan,nan,nan,nan,nan,nan,nan,nan,nan,1327.821956108557,1761.6236000783392,nan,1761.945443146862,nan,nan,nan,nan
1,256,1,1,1.0,1.0,0.26502284890739247,0,0.0,0.0,0.0,0.43334314695253384,0.11927450738101172,0.3140686395715221,0.5526176543335456,0.11927450738101172,0.31917771860025823,4,5,0,6,8,7,nan,nan,nan,nan,nan,nan,nan,nan,nan,nan,nan,nan,0.0,nan,nan,nan,nan,nan,nan,nan,nan,nan,nan,nan,nan,nan,nan,nan,nan,nan,nan,1327.821956108557,1762.640396144765,nan,1762.9054189936724,nan,nan,nan,nan
1,257,1,1,1.0,1.0,0.35221505718072876,1,1.0,0.0,1.0,0.4326671618198224,0.1195098280685527,0.3131573337512697,0.552176989888375,0.1195098280685527,0.31302699153699604,2,7,6,0,5,4,1.0,1.0,1.0,1.0,1.0,1.0,0.0,0.0,0.0,0.0,0.0,0.0,0.0,5.0,4.0,2.0,6.0,3.0,7.0,2.0,3.0,4.0,5.0,6.0,1.0,4.069432236836292,5.068911939102691,6.539534788229503,7.97190278157359,9.835585058433935,3.0456744441762567,1327.821956108557,1763.6571782414685,1764.465582945908,1764.0093932986492,1775.366856663255,1776.36494538869,1765.490736562002,1775.3585222061956
1,258,1,1,1.0,1.0,0.6893052728264593,0,0.0,0.0,0.0,0.43234535340126606,0.11937862125548408,0.31296673214578197,0.5517239746567502,0.11937862125548408,0.43551439297152683,8,3,4,6,0,7,nan,nan,nan,nan,nan,nan,nan,nan,nan,nan,nan,nan,0.0,nan,nan,nan,nan,nan,nan,nan,nan,nan,nan,nan,nan,nan,nan,nan,nan,nan,nan,1327.821956108557,1776.5837238892564,nan,1777.2730291620828,nan,nan,nan,nan
1,259,1,1,1.0,1.0,0.3204660613555461,0,0.0,0.0,0.0,0.4333690981001712,0.12023514713169287,0.31313395096847835,0.5536042452318641,0.12023514713169287,0.45399546378757805,3,6,2,5,4,8,nan,nan,nan,nan,nan,nan,nan,nan,nan,nan,nan,nan,0.0,nan,nan,nan,nan,nan,nan,nan,nan,nan,nan,nan,nan,nan,nan,nan,nan,nan,nan,1327.821956108557,1777.6005248022266,nan,1777.9209908635821,nan,nan,nan,nan
1,260,1,1,1.0,1.0,0.33573345019249246,0,0.0,0.0,0.0,0.43292107017658144,0.12020610035961476,0.31271496981696667,0.5531271705361962,0.12020610035961476,0.44850159479149926,2,3,8,4,0,7,nan,nan,nan,nan,nan,nan,nan,nan,nan,nan,nan,nan,0.0,nan,nan,nan,nan,nan,nan,nan,nan,nan,nan,nan,nan,nan,nan,nan,nan,nan,nan,1327.821956108557,1778.6172498800443,nan,1778.9529833302367,nan,nan,nan,nan
1,261,1,1,1.0,1.0,0.198861502984073,1,1.0,0.0,1.0,0.4325369293861305,0.12012318699783543,0.31241374238829506,0.552660116383966,0.12012318699783543,0.28502033817737055,5,6,7,2,4,1,1.0,1.0,1.0,1.0,1.0,1.0,1.0,1.0,1.0,0.0,1.0,0.0,4.0,5.0,6.0,7.0,8.0,4.0,2.0,3.0,2.0,1.0,6.0,5.0,4.0,4.6044186250073835,3.0672501223743893,2.059980208752677,7.850803696084768,6.746758687659167,5.538893610413652,1327.821956108557,1779.6340656179818,1780.4424620546051,1779.832927120966,1789.3518221967388,1790.3577527357265,1781.459256125323,1789.343500568939
1,262,0,0,1.0,0.0,0.3036414855159819,0,0.0,0.0,0.0,0.43161694739242157,0.12077624560325162,0.31084070178916995,0.5523931929956731,0.12077624560325162,0.27941214623084915,6,8,0,4,2,7,nan,nan,nan,nan,nan,nan,nan,nan,nan,nan,nan,nan,0.0,nan,nan,nan,nan,nan,nan,nan,nan,nan,nan,nan,nan,nan,nan,nan,nan,nan,nan,1327.821956108557,1790.5770033529843,nan,1790.8806448385003,nan,nan,nan,nan
1,263,1,1,1.0,1.0,0.5667470728512853,0,0.0,0.0,0.0,0.4311150828360434,0.12080427329810768,0.3103108095379357,0.5519193561341511,0.12080427329810768,0.35641668711711344,0,7,6,5,8,4,nan,nan,nan,nan,nan,nan,nan,nan,nan,nan,nan,nan,0.0,nan,nan,nan,nan,nan,nan,nan,nan,nan,nan,nan,nan,nan,nan,nan,nan,nan,nan,1327.821956108557,1791.5938390475349,nan,1792.1605861203861,nan,nan,nan,nan
1,264,1,1,1.0,1.0,0.46200785896508023,0,0.0,0.0,0.0,0.4316448952970404,0.12086457186149936,0.3107803234355411,0.5525094671585398,0.12086457186149936,0.4441321391107825,2,4,1,7,5,8,nan,nan,nan,nan,nan,nan,nan,nan,nan,nan,nan,nan,0.0,nan,nan,nan,nan,nan,nan,nan,nan,nan,nan,nan,nan,nan,nan,nan,nan,nan,nan,1327.821956108557,1792.6105632700492,nan,1793.0725711290142,nan,nan,nan,nan
1,265,1,1,1.0,1.0,0.3891787193133496,0,0.0,0.0,0.0,0.4317630391245425,0.12064400752152515,0.31111903160301735,0.5524070466460677,0.12064400752152515,0.4726445503765717,5,0,3,4,8,6,nan,nan,nan,nan,nan,nan,nan,nan,nan,nan,nan,nan,0.0,nan,nan,nan,nan,nan,nan,nan,nan,nan,nan,nan,nan,nan,nan,nan,nan,nan,nan,1327.821956108557,1793.6273519239621,nan,1794.0165306432755,nan,nan,nan,nan
1,266,1,1,1.0,1.0,0.3403713699663058,0,0.0,0.0,0.0,0.43159798362139834,0.12043904452490971,0.3111589390964886,0.5520370281463081,0.12043904452490971,0.3971859827482452,2,6,5,1,4,3,nan,nan,nan,nan,nan,nan,nan,nan,nan,nan,nan,nan,0.0,nan,nan,nan,nan,nan,nan,nan,nan,nan,nan,nan,nan,nan,nan,nan,nan,nan,nan,1327.821956108557,1794.6441328803776,nan,1794.984504250344,nan,nan,nan,nan
1,267,1,1,1.0,1.0,0.3795550641953014,0,0.0,0.0,0.0,0.43124575731384973,0.12033937742695874,0.31090637988689096,0.5515851347408085,0.12033937742695874,0.36970171782498557,4,7,1,2,5,8,nan,nan,nan,nan,nan,nan,nan,nan,nan,nan,nan,nan,0.0,nan,nan,nan,nan,nan,nan,nan,nan,nan,nan,nan,nan,nan,nan,nan,nan,nan,nan,1327.821956108557,1795.6609209640883,nan,1796.0404760282836,nan,nan,nan,nan
1,268,1,1,1.0,1.0,0.5147230006405152,0,0.0,0.0,0.0,0.4310469469557015,0.12015034144486268,0.3108966055108388,0.5511972884005641,0.12015034144486268,0.41154981160070747,7,0,3,6,8,2,nan,nan,nan,nan,nan,nan,nan,nan,nan,nan,nan,nan,0.0,nan,nan,nan,nan,nan,nan,nan,nan,nan,nan,nan,nan,nan,nan,nan,nan,nan,nan,1327.821956108557,1796.677711898752,nan,1797.1924348993925,nan,nan,nan,nan
1,269,1,1,1.0,1.0,0.4418972820858471,0,0.0,0.0,0.0,0.43136754486253986,0.12003131836551402,0.31133622649702586,0.5513988632280539,0.12003131836551402,0.44539178230722126,6,3,4,8,7,0,nan,nan,nan,nan,nan,nan,nan,nan,nan,nan,nan,nan,0.0,nan,nan,nan,nan,nan,nan,nan,nan,nan,nan,nan,nan,nan,nan,nan,nan,nan,nan,1327.821956108557,1797.6945011228672,nan,1798.136398404953,nan,nan,nan,nan
1,270,1,1,1.0,1.0,0.4331069586914964,0,0.0,0.0,0.0,0.43140773469927,0.11980379141486464,0.3116039432844054,0.5512115261141346,0.11980379141486464,0.46324241380595294,1,7,2,5,8,6,nan,nan,nan,nan,nan,nan,nan,nan,nan,nan,nan,nan,0.0,nan,nan,nan,nan,nan,nan,nan,nan,nan,nan,nan,nan,nan,nan,nan,nan,nan,nan,1327.821956108557,1798.7112766624196,nan,1799.144383621111,nan,nan,nan,nan
1,271,0,0,0.0,1.0,0.5202820612466894,0,0.0,0.0,0.0,0.4314141956269971,0.1195758563664301,0.31183833926056703,0.5509900519934272,0.1195758563664301,0.46509543400801096,8,0,3,1,6,5,nan,nan,nan,nan,nan,nan,nan,nan,nan,nan,nan,nan,0.0,nan,nan,nan,nan,nan,nan,nan,nan,nan,nan,nan,nan,nan,nan,nan,nan,nan,nan,1327.821956108557,1799.7280616101343,nan,1800.248343671381,nan,nan,nan,nan
1,272,1,1,1.0,1.0,0.45546778762945905,0,0.0,0.0,0.0,0.43175081633010204,0.11947395668019255,0.3122768596499095,0.5512247730102946,0.11947395668019255,0.4696189358558816,0,5,4,2,1,8,nan,nan,nan,nan,nan,nan,nan,nan,nan,nan,nan,nan,0.0,nan,nan,nan,nan,nan,nan,nan,nan,nan,nan,nan,nan,nan,nan,nan,nan,nan,nan,1327.821956108557,1800.7448508341913,nan,1801.2003186218208,nan,nan,nan,nan
1,273,1,1,1.0,1.0,0.5666341753676534,0,0.0,0.0,0.0,0.43184031433500525,0.11925718714718599,0.3125831271878193,0.5510975014821913,0.11925718714718599,0.5141280080812672,2,1,3,4,6,5,nan,nan,nan,nan,nan,nan,nan,nan,nan,nan,nan,nan,0.0,nan,nan,nan,nan,nan,nan,nan,nan,nan,nan,nan,nan,nan,nan,nan,nan,nan,nan,1327.821956108557,1801.7616429092595,nan,1802.3282770846272,nan,nan,nan,nan
