block,trial,freq_trials,correct_response,actual_response,acc,rts,probe_trials,fast_rt_trigger,slow_rt_trigger,rt_triggered,rts_runningavg,rts_runningstd,rts_runningfastthresh,rts_runningslowthresh,rts_runningstd,rts_trailingavg,trials_colorind,trials_colorrgb0,trials_colorrgb1,trials_colorrgb2,wm_respdeg,wm_respdeg_in_colorspace,wm_respcolorminusorigcolor,wm_resptexind,wm_resptexrgb0,wm_resptexrgb1,wm_resptexrgb2,wm_rts,time_blockstart,time_encarray_offset,time_encarray_onset,time_response,time_iti_offset,time_iti_onset,time_memprobe_offset,time_memprobe_onset
1,1,1,1,1.0,1.0,0.643588027917,0,nan,nan,nan,nan,nan,nan,nan,nan,nan,52,1.0,-0.0438860552364,-1.0,nan,nan,nan,nan,nan,nan,nan,nan,962.206476703,963.226899575,nan,963.870487603,nan,nan,nan,nan
1,2,1,1,1.0,1.0,0.508594369865,0,nan,nan,nan,nan,nan,nan,nan,nan,nan,99,1.0,-0.267176270739,-0.468793303331,nan,nan,nan,nan,nan,nan,nan,nan,962.206476703,964.177908916,nan,964.686503286,nan,nan,nan,nan
1,3,1,1,1.0,1.0,0.399279333651,0,nan,nan,nan,nan,nan,nan,nan,nan,nan,464,0.448404880525,0.373503555275,-1.0,nan,nan,nan,nan,nan,nan,nan,nan,962.206476703,965.127166055,nan,965.526445388,nan,nan,nan,nan
1,4,1,1,1.0,1.0,0.40946952987,0,nan,nan,nan,nan,nan,nan,nan,nan,nan,304,0.0113092810281,0.404708921832,0.506160370659,nan,nan,nan,nan,nan,nan,nan,nan,962.206476703,966.068957377,nan,966.478426907,nan,nan,nan,nan
1,5,1,1,1.0,1.0,0.363660259871,0,nan,nan,nan,nan,nan,nan,nan,nan,nan,239,0.665069831863,0.183388857662,0.640549267122,nan,nan,nan,nan,nan,nan,nan,nan,962.206476703,967.010746989,nan,967.374407249,nan,nan,nan,nan
1,6,1,1,1.0,1.0,0.325861910125,0,nan,nan,nan,nan,nan,nan,nan,nan,nan,195,1.0,-0.0469245268387,0.442396054288,nan,nan,nan,nan,nan,nan,nan,nan,962.206476703,967.952518925,nan,968.278380836,nan,nan,nan,nan
1,7,1,1,1.0,1.0,0.296045971219,0,nan,nan,nan,nan,nan,nan,nan,nan,nan,481,0.589289488337,0.325611856148,-1.0,nan,nan,nan,nan,nan,nan,nan,nan,962.206476703,968.894325073,nan,969.190371044,nan,nan,nan,nan
1,8,1,1,1.0,1.0,0.314230552176,0,nan,nan,nan,nan,nan,nan,nan,nan,nan,304,0.0113092810281,0.404708921832,0.506160370659,nan,nan,nan,nan,nan,nan,nan,nan,962.206476703,969.836100145,nan,970.150330697,nan,nan,nan,nan
1,9,1,1,1.0,1.0,0.356381466845,0,nan,nan,nan,nan,nan,nan,nan,nan,nan,427,0.163265173604,0.444863218481,-0.840208708629,nan,nan,nan,nan,nan,nan,nan,nan,962.206476703,970.777917697,nan,971.134299163,nan,nan,nan,nan
1,10,1,1,1.0,1.0,0.366592189996,0,nan,nan,nan,nan,nan,nan,nan,nan,nan,178,1.0,-0.139919655122,0.315097826042,nan,nan,nan,nan,nan,nan,nan,nan,962.206476703,971.719709304,nan,972.086301494,nan,nan,nan,nan
1,11,1,1,1.0,1.0,0.320778073394,0,nan,nan,nan,nan,nan,nan,nan,nan,nan,318,-0.0835627602325,0.431640264478,0.413481556053,nan,nan,nan,nan,nan,nan,nan,nan,962.206476703,972.661498916,nan,972.98227699,nan,nan,nan,nan
1,12,1,1,1.0,1.0,0.298948821495,0,nan,nan,nan,nan,nan,nan,nan,nan,nan,45,1.0,-0.0063957592436,-1.0,nan,nan,nan,nan,nan,nan,nan,nan,962.206476703,973.603303924,nan,973.902252745,nan,nan,nan,nan
1,13,1,1,1.0,1.0,0.285148736206,0,nan,nan,nan,nan,nan,nan,nan,nan,nan,102,1.0,-0.276610342793,-0.434926949461,nan,nan,nan,nan,nan,nan,nan,nan,962.206476703,974.545079566,nan,974.830228302,nan,nan,nan,nan
1,14,1,1,1.0,1.0,0.287338275579,0,nan,nan,nan,nan,nan,nan,nan,nan,nan,194,1.0,-0.0524864644427,0.435571704399,nan,nan,nan,nan,nan,nan,nan,nan,962.206476703,975.486883433,nan,975.774221709,nan,nan,nan,nan
1,15,1,1,1.0,1.0,0.281522596604,0,nan,nan,nan,nan,nan,nan,nan,nan,nan,427,0.163265173604,0.444863218481,-0.840208708629,nan,nan,nan,nan,nan,nan,nan,nan,962.206476703,976.428671905,nan,976.710194501,nan,nan,nan,nan
1,16,1,1,1.0,1.0,0.275674131582,0,nan,nan,nan,nan,nan,nan,nan,nan,nan,355,-0.173737462994,0.472683863687,0.0888799762457,nan,nan,nan,nan,nan,nan,nan,nan,962.206476703,977.370481188,nan,977.64615532,nan,nan,nan,nan
1,17,1,1,1.0,1.0,0.29393369297,0,nan,nan,nan,nan,nan,nan,nan,nan,nan,15,0.965734432428,0.145352784795,-1.0,nan,nan,nan,nan,nan,nan,nan,nan,962.206476703,978.312215777,nan,978.60614947,nan,nan,nan,nan
1,18,0,0,1.0,0.0,0.288083232124,0,0.0,0.0,0.0,nan,nan,nan,nan,nan,nan,153,1.0,-0.255547855702,0.0926213922694,nan,nan,nan,nan,nan,nan,nan,nan,962.206476703,979.254043877,nan,979.542127109,nan,nan,nan,nan
1,19,1,1,1.0,1.0,0.498238247586,0,nan,nan,nan,nan,nan,nan,nan,nan,nan,43,1.0,0.00424534395127,-1.0,nan,nan,nan,nan,nan,nan,nan,nan,962.206476703,980.195838621,nan,980.694076868,nan,nan,nan,nan
1,20,0,0,0.0,1.0,0.50843386061,0,nan,nan,nan,nan,nan,nan,nan,nan,nan,489,0.656284860842,0.299572439858,-1.0,nan,nan,nan,nan,nan,nan,nan,nan,962.206476703,981.137636501,nan,981.646070361,nan,nan,nan,nan
1,21,1,1,1.0,1.0,0.50261504564,0,nan,nan,nan,nan,nan,nan,nan,nan,nan,47,1.0,-0.0170755915744,-1.0,nan,nan,nan,nan,nan,nan,nan,nan,962.206476703,982.079429819,nan,982.582044864,nan,nan,nan,nan
1,22,1,1,1.0,1.0,0.408810387366,0,nan,nan,nan,nan,nan,nan,nan,nan,nan,431,0.191957257768,0.43918128748,-0.982298765802,nan,nan,nan,nan,nan,nan,nan,nan,962.206476703,983.021219716,nan,983.430030103,nan,nan,nan,nan
1,23,1,1,1.0,1.0,0.379042914719,0,nan,nan,nan,nan,nan,nan,nan,nan,nan,25,1.0,0.0970682892709,-1.0,nan,nan,nan,nan,nan,nan,nan,nan,962.206476703,983.963018166,nan,984.342061081,nan,nan,nan,nan
1,24,0,0,0.0,1.0,0.405172558851,0,nan,nan,nan,nan,nan,nan,nan,nan,nan,474,0.530901762182,0.346545376391,-1.0,nan,nan,nan,nan,nan,nan,nan,nan,962.206476703,984.904821178,nan,985.309993736,nan,nan,nan,nan
1,25,1,1,1.0,1.0,0.375343790511,0,nan,nan,nan,nan,nan,nan,nan,nan,nan,258,0.459642287315,0.26499291187,0.655490062901,nan,nan,nan,nan,nan,nan,nan,nan,962.206476703,985.846593114,nan,986.221936904,nan,nan,nan,nan
1,26,1,1,1.0,1.0,0.329552196432,0,nan,nan,nan,nan,nan,nan,nan,nan,nan,182,1.0,-0.118523835432,0.347089474713,nan,nan,nan,nan,nan,nan,nan,nan,962.206476703,986.788390994,nan,987.11794319,nan,nan,nan,nan
1,27,1,1,1.0,1.0,0.379688942805,0,nan,nan,nan,nan,nan,nan,nan,nan,nan,123,1.0,-0.311441137266,-0.208672863777,nan,nan,nan,nan,nan,nan,nan,nan,962.206476703,987.730188018,nan,988.109876961,nan,nan,nan,nan
1,28,1,1,1.0,1.0,0.317954194616,0,nan,nan,nan,nan,nan,nan,nan,nan,nan,312,-0.0464483572634,0.420925197877,0.455573212045,nan,nan,nan,nan,nan,nan,nan,nan,962.206476703,988.671944274,nan,988.989898469,nan,nan,nan,nan
1,29,1,1,1.0,1.0,0.328100486193,0,nan,nan,nan,nan,nan,nan,nan,nan,nan,166,1.0,-0.20036215083,0.21267421211,nan,nan,nan,nan,nan,nan,nan,nan,962.206476703,989.61377437,nan,989.941874856,nan,nan,nan,nan
1,30,1,1,1.0,1.0,0.330290025566,0,nan,nan,nan,nan,nan,nan,nan,nan,nan,248,0.568115903494,0.223728204869,0.653295769881,nan,nan,nan,nan,nan,nan,nan,nan,962.206476703,990.555575956,nan,990.885865981,nan,nan,nan,nan
1,31,1,1,1.0,1.0,0.396477122325,0,nan,nan,nan,nan,nan,nan,nan,nan,nan,315,-0.0657111424032,0.426434809442,0.434956515233,nan,nan,nan,nan,nan,nan,nan,nan,962.206476703,991.497358155,nan,991.893835278,nan,nan,nan,nan
1,32,1,1,1.0,1.0,0.366659187712,0,nan,nan,nan,nan,nan,nan,nan,nan,nan,475,0.539218753276,0.343659807328,-1.0,nan,nan,nan,nan,nan,nan,nan,nan,962.206476703,992.439154039,nan,992.805813227,nan,nan,nan,nan
1,33,1,1,1.0,1.0,0.312855532859,0,nan,nan,nan,nan,nan,nan,nan,nan,nan,212,0.93926288676,0.0467731277665,0.543851001166,nan,nan,nan,nan,nan,nan,nan,nan,962.206476703,993.380941371,nan,993.693796904,nan,nan,nan,nan
1,34,1,1,1.0,1.0,0.371054231888,0,nan,nan,nan,nan,nan,nan,nan,nan,nan,170,1.0,-0.180990482069,0.247815061387,nan,nan,nan,nan,nan,nan,nan,nan,962.206476703,994.322727277,nan,994.693781508,nan,nan,nan,nan
1,35,1,1,1.0,1.0,0.565211354755,0,nan,nan,nan,nan,nan,nan,nan,nan,nan,435,0.221263830514,0.433027056876,-1.0,nan,nan,nan,nan,nan,nan,nan,nan,962.206476703,995.264528863,nan,995.829740217,nan,nan,nan,nan
1,36,1,1,1.0,1.0,0.503405332449,1,nan,nan,nan,nan,nan,nan,nan,nan,nan,324,-0.114799643766,0.441158325109,0.368064040095,-144.137151014,234.137151014,6.32465101414,333.0,-0.149813480994,0.453275949072,0.294183738108,1.60885560361,962.206476703,996.206315054,997.014743754,996.709720386,999.665054067,1000.67201384,998.039837358,999.656716141
1,37,1,1,nan,nan,nan,0,nan,nan,nan,nan,nan,nan,nan,nan,nan,164,1.0,-0.209685835145,0.194761549991,nan,nan,nan,nan,nan,nan,nan,nan,962.206476703,1000.8152616,nan,nan,nan,nan,nan,nan
1,38,0,0,1.0,0.0,0.0325197920902,0,0.0,0.0,0.0,nan,nan,nan,nan,nan,nan,336,-0.158211608236,0.456758111158,0.268135266647,nan,nan,nan,nan,nan,nan,nan,nan,962.206476703,1001.75706148,nan,1001.78958127,nan,nan,nan,nan
1,39,1,1,1.0,1.0,0.418715487351,0,nan,nan,nan,nan,nan,nan,nan,nan,nan,223,0.83172397378,0.104890589731,0.593432239612,nan,nan,nan,nan,nan,nan,nan,nan,962.206476703,1002.69884396,nan,1003.11755945,nan,nan,nan,nan
1,40,0,0,0.0,1.0,0.52490985964,0,nan,nan,nan,nan,nan,nan,nan,nan,nan,35,1.0,0.0462653595507,-1.0,nan,nan,nan,nan,nan,nan,nan,nan,962.206476703,1003.64063443,nan,1004.16554429,nan,nan,nan,nan
1,41,1,1,1.0,1.0,0.415054280893,0,nan,nan,nan,nan,nan,nan,nan,nan,nan,133,1.0,-0.306259573676,-0.105336427414,nan,nan,nan,nan,nan,nan,nan,nan,962.206476703,1004.58243915,nan,1004.99749343,nan,nan,nan,nan
1,42,1,1,1.0,1.0,0.425252459943,0,nan,nan,nan,nan,nan,nan,nan,nan,nan,395,-0.0383984177995,0.474183508328,-0.351427224487,nan,nan,nan,nan,nan,nan,nan,nan,962.206476703,1005.52422591,nan,1005.94947837,nan,nan,nan,nan
1,43,1,1,1.0,1.0,0.515459773247,0,nan,nan,nan,nan,nan,nan,nan,nan,nan,18,0.988682696815,0.131162580546,-1.0,nan,nan,nan,nan,nan,nan,nan,nan,962.206476703,1006.4660198,nan,1006.98147958,nan,nan,nan,nan
1,44,1,1,1.0,1.0,0.525650539785,0,nan,nan,nan,nan,nan,nan,nan,nan,nan,137,1.0,-0.300190217086,-0.0647316600203,nan,nan,nan,nan,nan,nan,nan,nan,962.206476703,1007.40781968,nan,1007.93347022,nan,nan,nan,nan
1,45,1,1,1.0,1.0,0.391833188944,0,nan,nan,nan,nan,nan,nan,nan,nan,nan,319,-0.0891891826932,0.433308674125,0.406137099325,nan,nan,nan,nan,nan,nan,nan,nan,962.206476703,1008.34961243,nan,1008.74144561,nan,nan,nan,nan
1,46,1,1,1.0,1.0,0.330036004772,0,nan,nan,nan,nan,nan,nan,nan,nan,nan,76,1.0,-0.169674511773,-0.773365826749,nan,nan,nan,nan,nan,nan,nan,nan,962.206476703,1009.29140232,nan,1009.62143833,nan,nan,nan,nan
1,47,1,1,1.0,1.0,0.460213816608,0,nan,nan,nan,nan,nan,nan,nan,nan,nan,395,-0.0383984177995,0.474183508328,-0.351427224487,nan,nan,nan,nan,nan,nan,nan,nan,962.206476703,1010.23319336,nan,1010.69340718,nan,nan,nan,nan
1,48,1,1,1.0,1.0,0.414399414789,0,nan,nan,nan,nan,nan,nan,nan,nan,nan,51,1.0,-0.0385160204876,-1.0,nan,nan,nan,nan,nan,nan,nan,nan,962.206476703,1011.17498582,nan,1011.58938524,nan,nan,nan,nan
1,49,1,1,1.0,1.0,0.448560506222,0,nan,nan,nan,nan,nan,nan,nan,nan,nan,401,-0.00506340639596,0.470796889516,-0.425203102762,nan,nan,nan,nan,nan,nan,nan,nan,962.206476703,1012.11680081,nan,1012.56536132,nan,nan,nan,nan
1,50,1,1,1.0,1.0,0.738756301696,0,nan,nan,nan,nan,nan,nan,nan,nan,nan,489,0.656284860842,0.299572439858,-1.0,nan,nan,nan,nan,nan,nan,nan,nan,962.206476703,1013.05857531,nan,1013.79733161,nan,nan,nan,nan
1,51,1,1,nan,nan,nan,0,nan,nan,nan,nan,nan,nan,nan,nan,nan,70,1.0,-0.13936984996,-0.906436913284,nan,nan,nan,nan,nan,nan,nan,nan,962.206476703,1014.00036891,nan,nan,nan,nan,nan,nan
1,52,0,0,0.0,1.0,0.599146934925,0,nan,nan,nan,nan,nan,nan,nan,nan,nan,124,1.0,-0.311577186586,-0.198226518473,nan,nan,nan,nan,nan,nan,nan,nan,962.206476703,1014.94215881,nan,1015.54130575,nan,nan,nan,nan
1,53,1,1,1.0,1.0,0.401316346601,0,nan,nan,nan,nan,nan,nan,nan,nan,nan,369,-0.147694689129,0.477999187239,-0.0564338676883,nan,nan,nan,nan,nan,nan,nan,nan,962.206476703,1015.8839527,nan,1016.28526905,nan,nan,nan,nan
1,54,0,0,0.0,1.0,0.523495211964,0,nan,nan,nan,nan,nan,nan,nan,nan,nan,313,-0.0530221528698,0.42279583272,0.448797959603,nan,nan,nan,nan,nan,nan,nan,nan,962.206476703,1016.82574516,nan,1017.34924038,nan,nan,nan,nan
1,55,1,1,1.0,1.0,0.47768451646,0,nan,nan,nan,nan,nan,nan,nan,nan,nan,258,0.459642287315,0.26499291187,0.655490062901,nan,nan,nan,nan,nan,nan,nan,nan,962.206476703,1017.76753706,nan,1018.24522157,nan,nan,nan,nan
1,56,1,1,1.0,1.0,0.503880017786,0,nan,nan,nan,nan,nan,nan,nan,nan,nan,123,1.0,-0.311441137266,-0.208672863777,nan,nan,nan,nan,nan,nan,nan,nan,962.206476703,1018.70933294,nan,1019.21321296,nan,nan,nan,nan
1,57,1,1,1.0,1.0,0.51405396359,0,nan,nan,nan,nan,nan,nan,nan,nan,nan,77,1.0,-0.174593022316,-0.756267193339,nan,nan,nan,nan,nan,nan,nan,nan,962.206476703,1019.65112341,nan,1020.16517737,nan,nan,nan,nan
1,58,1,1,1.0,1.0,0.484240305377,0,nan,nan,nan,nan,nan,nan,nan,nan,nan,168,1.0,-0.190790017254,0.230361799274,nan,nan,nan,nan,nan,nan,nan,nan,962.206476703,1020.5929133,nan,1021.07715361,nan,nan,nan,nan
1,59,1,1,1.0,1.0,0.390402861056,0,nan,nan,nan,nan,nan,nan,nan,nan,nan,350,-0.175756816429,0.469490941964,0.138247479403,nan,nan,nan,nan,nan,nan,nan,nan,962.206476703,1021.53470691,nan,1021.92510977,nan,nan,nan,nan
1,60,1,1,1.0,1.0,0.34461611358,1,nan,nan,nan,nan,nan,nan,nan,nan,nan,100,1.0,-0.270427092546,-0.457439896749,16.1013023992,73.8986976008,3.58619760084,105.0,1.0,-0.285049837405,-0.401580786678,2.66732628434,962.206476703,1022.47650365,1023.28492037,1022.82111976,1026.98537827,1027.98699106,1024.30168461,1026.97704519
1,61,1,1,nan,nan,nan,0,nan,nan,nan,nan,nan,nan,nan,nan,nan,239,0.665069831863,0.183388857662,0.640549267122,nan,nan,nan,nan,nan,nan,nan,nan,962.206476703,1028.12726726,nan,nan,nan,nan,nan,nan
1,62,1,1,1.0,1.0,0.0879533422412,0,nan,nan,nan,nan,nan,nan,nan,nan,nan,2,0.863024578927,0.203622855609,-1.0,nan,nan,nan,nan,nan,nan,nan,nan,962.206476703,1029.06905688,nan,1029.15701022,nan,nan,nan,nan
1,63,1,1,nan,nan,nan,0,nan,nan,nan,nan,nan,nan,nan,nan,nan,475,0.539218753276,0.343659807328,-1.0,nan,nan,nan,nan,nan,nan,nan,nan,962.206476703,1030.0108425,nan,nan,nan,nan,nan,nan
1,64,1,1,1.0,1.0,0.34028464579,0,nan,nan,nan,nan,nan,nan,nan,nan,nan,426,0.156193047225,0.446210853967,-0.81485970128,nan,nan,nan,nan,nan,nan,nan,nan,962.206476703,1030.95263639,nan,1031.29292103,nan,nan,nan,nan
1,65,1,1,1.0,1.0,0.406438386301,0,nan,nan,nan,nan,nan,nan,nan,nan,nan,52,1.0,-0.0438860552364,-1.0,nan,nan,nan,nan,nan,nan,nan,nan,962.206476703,1031.89443626,nan,1032.30087465,nan,nan,nan,nan
1,66,1,1,1.0,1.0,0.432652418851,0,nan,nan,nan,nan,nan,nan,nan,nan,nan,248,0.568115903494,0.223728204869,0.653295769881,nan,nan,nan,nan,nan,nan,nan,nan,962.206476703,1032.83622701,nan,1033.26887943,nan,nan,nan,nan
1,67,1,1,1.0,1.0,0.338844909682,0,nan,nan,nan,nan,nan,nan,nan,nan,nan,405,0.018463324075,0.468009379796,-0.476293327428,nan,nan,nan,nan,nan,nan,nan,nan,962.206476703,1033.77802119,nan,1034.1168661,nan,nan,nan,nan
1,68,1,1,1.0,1.0,0.325036271359,1,nan,nan,nan,nan,nan,nan,nan,nan,nan,69,1.0,-0.134207199312,-0.939648005704,44.6021190382,45.3978809618,-3.11774403817,65.0,1.0,-0.113312155659,-1.0,1.39214936085,962.206476703,1034.71981222,1035.52822667,1035.0448485,1037.96185355,1038.96914146,1036.5533274,1037.95352161
1,69,1,1,1.0,1.0,0.420670392457,0,nan,nan,nan,nan,nan,nan,nan,nan,nan,457,0.391639248186,0.390358177281,-1.0,nan,nan,nan,nan,nan,nan,nan,nan,962.206476703,1039.11206565,nan,1039.53273604,nan,nan,nan,nan
1,70,1,1,1.0,1.0,0.326815842302,1,nan,nan,nan,nan,nan,nan,nan,nan,nan,413,0.0683106243366,0.461143133648,-0.585495598612,142.050250259,307.949749741,17.5591247411,438.0,0.243622561222,0.428096439079,-1.0,2.03389880271,962.206476703,1040.0538755,1040.86228196,1040.38069134,1043.9376503,1044.94380296,1041.88737728,1043.92931494
1,71,1,1,1.0,1.0,0.596687979531,0,nan,nan,nan,nan,nan,nan,nan,nan,nan,363,-0.162287729338,0.476365729747,0.00704812682028,nan,nan,nan,nan,nan,nan,nan,nan,962.206476703,1045.08786781,nan,1045.68455579,nan,nan,nan,nan
1,72,0,0,0.0,1.0,0.542953033,0,nan,nan,nan,nan,nan,nan,nan,nan,nan,16,0.973419431522,0.140652110383,-1.0,nan,nan,nan,nan,nan,nan,nan,nan,962.206476703,1046.02962093,nan,1046.57257397,nan,nan,nan,nan
1,73,1,1,1.0,1.0,0.385055595194,0,nan,nan,nan,nan,nan,nan,nan,nan,nan,177,1.0,-0.145192147526,0.306921212481,nan,nan,nan,nan,nan,nan,nan,nan,962.206476703,1046.97145531,nan,1047.3565109,nan,nan,nan,nan
1,74,1,1,1.0,1.0,0.387254827889,0,nan,nan,nan,nan,nan,nan,nan,nan,nan,249,0.557275547736,0.228026269286,0.654084877906,nan,nan,nan,nan,nan,nan,nan,nan,962.206476703,1047.91328483,nan,1048.30053966,nan,nan,nan,nan
1,75,1,1,1.0,1.0,0.317466109875,0,nan,nan,nan,nan,nan,nan,nan,nan,nan,311,-0.0397249783266,0.419020224334,0.462250212202,nan,nan,nan,nan,nan,nan,nan,nan,962.206476703,1048.8550408,nan,1049.17250691,nan,nan,nan,nan
1,76,1,1,1.0,1.0,0.303652054863,0,nan,nan,nan,nan,nan,nan,nan,nan,nan,368,-0.150457169737,0.477793263397,-0.0457341785459,nan,nan,nan,nan,nan,nan,nan,nan,962.206476703,1049.79683355,nan,1050.1004856,nan,nan,nan,nan
1,77,1,1,1.0,1.0,0.297837801394,0,nan,nan,nan,nan,nan,nan,nan,nan,nan,26,1.0,0.0920921692153,-1.0,nan,nan,nan,nan,nan,nan,nan,nan,962.206476703,1050.73862915,nan,1051.03646695,nan,nan,nan,nan
1,78,1,1,1.0,1.0,0.252031097189,0,nan,nan,nan,nan,nan,nan,nan,nan,nan,97,1.0,-0.260369742894,-0.491718830742,nan,nan,nan,nan,nan,nan,nan,nan,962.206476703,1051.68041962,nan,1051.93245071,nan,nan,nan,nan
1,79,1,1,1.0,1.0,0.158243829734,0,nan,nan,nan,nan,nan,nan,nan,nan,nan,399,-0.0164460389312,0.472031251936,-0.400274523968,nan,nan,nan,nan,nan,nan,nan,nan,962.206476703,1052.62219953,nan,1052.78044336,nan,nan,nan,nan
1,80,0,0,0.0,1.0,0.432391270646,0,nan,nan,nan,nan,nan,nan,nan,nan,nan,292,0.112881669716,0.376069582356,0.569261850688,nan,nan,nan,nan,nan,nan,nan,nan,962.206476703,1053.56400397,nan,1053.99639524,nan,nan,nan,nan
1,81,1,1,1.0,1.0,0.466584292939,0,0.0,0.0,0.0,0.392454001184,0.113543772955,0.278910228229,0.505997774139,0.113543772955,0.35240646444,239,0.665069831863,0.183388857662,0.640549267122,nan,nan,nan,nan,nan,nan,nan,nan,962.206476703,1054.50578874,nan,1054.97237303,nan,nan,nan,nan
1,82,1,1,1.0,1.0,0.308669749298,0,0.0,0.0,0.0,0.393416732246,0.113115861144,0.280300871102,0.50653259339,0.113115861144,0.402548437628,461,0.423959648591,0.380927367285,-1.0,nan,nan,nan,nan,nan,nan,nan,nan,962.206476703,1055.44765675,nan,1055.7563265,nan,nan,nan,nan
1,83,1,1,1.0,1.0,0.262911511585,0,0.0,0.0,0.0,0.392330232464,0.112792083669,0.279538148795,0.505122316133,0.112792083669,0.346055184607,51,1.0,-0.0385160204876,-1.0,nan,nan,nan,nan,nan,nan,nan,nan,962.206476703,1056.3893845,nan,1056.65229601,nan,nan,nan,nan
1,84,1,1,1.0,1.0,0.265151798027,0,0.0,0.0,0.0,0.390692020808,0.113005960012,0.277686060796,0.503697980819,0.113005960012,0.278911019637,347,-0.174938837379,0.46723881498,0.167157479366,nan,nan,nan,nan,nan,nan,nan,nan,962.206476703,1057.33117582,nan,1057.59632762,nan,nan,nan,nan
1,85,0,0,1.0,0.0,0.243322546245,0,0.0,0.0,0.0,0.389122768023,0.11316032631,0.275962441713,0.502283094333,0.11316032631,0.257128618619,21,1.0,0.116713997928,-1.0,nan,nan,nan,nan,nan,nan,nan,nan,962.206476703,1058.27297199,nan,1058.51629454,nan,nan,nan,nan
1,86,1,1,1.0,1.0,0.445501993294,0,0.0,0.0,0.0,0.387322765285,0.113606208529,0.273716556756,0.500928973814,0.113606208529,0.317992112522,94,1.0,-0.249439013202,-0.526745155233,nan,nan,nan,nan,nan,nan,nan,nan,962.206476703,1059.21476018,nan,1059.66026217,nan,nan,nan,nan
1,87,1,1,1.0,1.0,0.471679533599,0,0.0,0.0,0.0,0.388032268066,0.113091780349,0.274940487717,0.501124048415,0.113091780349,0.386834691046,316,-0.0718215561597,0.428203514031,0.427892255365,nan,nan,nan,nan,nan,nan,nan,nan,962.206476703,1060.1565495,nan,1060.62822904,nan,nan,nan,nan
1,88,1,1,1.0,1.0,0.393873052904,0,0.0,0.0,0.0,0.389040066445,0.112778283906,0.27626178254,0.501818350351,0.112778283906,0.437018193266,253,0.513865899396,0.244839928328,0.655977188727,nan,nan,nan,nan,nan,nan,nan,nan,962.206476703,1061.09834653,nan,1061.49221958,nan,nan,nan,nan
1,89,1,1,1.0,1.0,0.412065901677,0,0.0,0.0,0.0,0.389097601999,0.112106200144,0.276991401854,0.501203802143,0.112106200144,0.425872829393,1,0.854939129564,0.207877072944,-1.0,nan,nan,nan,nan,nan,nan,nan,nan,962.206476703,1062.04014099,nan,1062.45220689,nan,nan,nan,nan
1,90,1,1,1.0,1.0,0.366218143725,0,0.0,0.0,0.0,0.389367817289,0.111472314986,0.277895502303,0.500840132275,0.111472314986,0.390719032769,435,0.221263830514,0.433027056876,-1.0,nan,nan,nan,nan,nan,nan,nan,nan,962.206476703,1062.98195569,nan,1063.34817383,nan,nan,nan,nan
1,91,1,1,1.0,1.0,0.456431159168,0,0.0,0.0,0.0,0.389098635038,0.110850109441,0.278248525598,0.499948744479,0.110850109441,0.411571734857,171,1.0,-0.176011872558,0.256450910142,nan,nan,nan,nan,nan,nan,nan,nan,962.206476703,1063.92372791,nan,1064.38015907,nan,nan,nan,nan
1,92,1,1,1.0,1.0,0.38658941316,0,0.0,0.0,0.0,0.389872572097,0.110444648814,0.279427923283,0.500317220911,0.110444648814,0.403079572017,101,1.0,-0.273572672894,-0.446152610616,nan,nan,nan,nan,nan,nan,nan,nan,962.206476703,1064.86552037,nan,1065.25210978,nan,nan,nan,nan
1,93,1,1,1.0,1.0,0.324801067007,0,0.0,0.0,0.0,0.389835263473,0.109815880823,0.280019382649,0.499651144296,0.109815880823,0.389273879778,139,1.0,-0.296335611021,-0.0445992895203,nan,nan,nan,nan,nan,nan,nan,nan,962.206476703,1065.80731625,nan,1066.13211732,nan,nan,nan,nan
1,94,1,1,1.0,1.0,0.310992713785,0,0.0,0.0,0.0,0.389104542164,0.109412135019,0.279692407145,0.498516677184,0.109412135019,0.340794397984,225,0.81146624694,0.115131125244,0.600981946568,nan,nan,nan,nan,nan,nan,nan,nan,962.206476703,1066.74910615,nan,1067.06009887,nan,nan,nan,nan
1,95,1,1,1.0,1.0,0.377130203764,0,0.0,0.0,0.0,0.38823663296,0.109110241118,0.279126391842,0.497346874078,0.109110241118,0.337641328185,329,-0.136053278316,0.448203788942,0.3278337444,nan,nan,nan,nan,nan,nan,nan,nan,962.206476703,1067.69090118,nan,1068.06803138,nan,nan,nan,nan
1,96,1,1,1.0,1.0,0.443359494791,0,0.0,0.0,0.0,0.388114584287,0.108515255512,0.279599328776,0.496629839799,0.108515255512,0.377160804113,507,0.805995650865,0.232688349973,-1.0,nan,nan,nan,nan,nan,nan,nan,nan,962.206476703,1068.63269108,nan,1069.07605057,nan,nan,nan,nan
1,97,1,1,1.0,1.0,0.485530936276,0,0.0,0.0,0.0,0.388715072445,0.108075801096,0.280639271349,0.496790873541,0.108075801096,0.43534021161,425,0.149162615564,0.447529597292,-0.791715667876,nan,nan,nan,nan,nan,nan,nan,nan,962.206476703,1069.57448867,nan,1070.06001961,nan,nan,nan,nan
1,98,1,1,1.0,1.0,0.415310582495,0,0.0,0.0,0.0,0.389756103239,0.107955953343,0.281800149896,0.497712056582,0.107955953343,0.448067004521,37,1.0,0.0358565504353,-1.0,nan,nan,nan,nan,nan,nan,nan,nan,962.206476703,1070.52468691,nan,1070.9399975,nan,nan,nan,nan
1,99,1,1,1.0,1.0,0.625535446452,0,0.0,1.0,0.0,0.390027959401,0.1074121836,0.282615775802,0.497440143001,0.1074121836,0.508792321741,226,0.801265930663,0.120208988367,0.60458276857,nan,nan,nan,nan,nan,nan,nan,nan,962.206476703,1071.46640497,nan,1072.09194041,nan,nan,nan,nan
1,100,1,1,1.0,1.0,0.571768569062,1,0.0,0.0,1.0,0.392506985581,0.109515363146,0.282991622434,0.502022348727,0.109515363146,0.537538199336,142,1.0,-0.289568116499,-0.0146273521697,10.875058248,79.124941752,-20.718808248,113.0,1.0,-0.302191989669,-0.314576349441,3.12572517805,962.206476703,1072.40819087,1073.21661843,1072.97995944,1077.38381799,1078.38949112,1074.24172544,1077.37547208
1,101,1,1,1.0,1.0,0.389802163118,0,0.0,0.0,0.0,0.394374293742,0.110453298077,0.283920995665,0.504827591819,0.110453298077,0.529035392877,223,0.83172397378,0.104890589731,0.593432239612,nan,nan,nan,nan,nan,nan,nan,nan,962.206476703,1078.53401726,nan,1078.92381942,nan,nan,nan,nan
1,102,0,0,0.0,1.0,0.495885347947,0,0.0,0.0,0.0,0.394327158375,0.109883446698,0.284443711677,0.504210605073,0.109883446698,0.485818693376,401,-0.00506340639596,0.470796889516,-0.425203102762,nan,nan,nan,nan,nan,nan,nan,nan,962.206476703,1079.47587672,nan,1079.97176207,nan,nan,nan,nan
1,103,1,1,1.0,1.0,0.41808742017,0,0.0,0.0,0.0,0.395363466432,0.109796792384,0.285566674048,0.505160258816,0.109796792384,0.434591643745,291,0.122027637739,0.373441943191,0.573791926984,nan,nan,nan,nan,nan,nan,nan,nan,962.206476703,1080.41766092,nan,1080.83574834,nan,nan,nan,nan
1,104,1,1,1.0,1.0,0.340325129568,0,0.0,0.0,0.0,0.395593001318,0.109264485561,0.286328515757,0.504857486879,0.109264485561,0.418099299228,470,0.497741612616,0.357740777197,-1.0,nan,nan,nan,nan,nan,nan,nan,nan,962.206476703,1081.35939664,nan,1081.69972177,nan,nan,nan,nan
1,105,1,1,1.0,1.0,0.366532034706,0,0.0,0.0,0.0,0.3950403226,0.108855778209,0.286184544391,0.503896100809,0.108855778209,0.374981528148,107,1.0,-0.290089771429,-0.379592780214,nan,nan,nan,nan,nan,nan,nan,nan,962.206476703,1082.30119053,nan,1082.66772257,nan,nan,nan,nan
1,106,1,1,1.0,1.0,0.352732804604,0,0.0,0.0,0.0,0.394758062324,0.108352318651,0.286405743673,0.503110380976,0.108352318651,0.353196656293,30,1.0,0.071945658744,-1.0,nan,nan,nan,nan,nan,nan,nan,nan,962.206476703,1083.24298186,nan,1083.59571466,nan,nan,nan,nan
1,107,1,1,1.0,1.0,0.362921005231,0,0.0,0.0,0.0,0.394346049994,0.107899350706,0.286446699288,0.502245400699,0.107899350706,0.360728614847,68,1.0,-0.129018143495,-0.972903198114,nan,nan,nan,nan,nan,nan,nan,nan,962.206476703,1084.18477033,nan,1084.54769133,nan,nan,nan,nan
1,108,1,1,1.0,1.0,0.741108060931,0,0.0,0.0,0.0,0.394040952472,0.107418493543,0.286622458929,0.501459446015,0.107418493543,0.485587290255,283,0.19826868328,0.351050922538,0.605825948857,nan,nan,nan,nan,nan,nan,nan,nan,962.206476703,1085.12655281,nan,1085.86766087,nan,nan,nan,nan
1,109,1,1,1.0,1.0,0.471195725142,0,0.0,1.0,0.0,0.397378136207,0.112137742601,0.285240393606,0.509515878808,0.112137742601,0.525074930435,479,0.572572153349,0.331768222426,-1.0,nan,nan,nan,nan,nan,nan,nan,nan,962.206476703,1086.06845361,nan,1086.53964934,nan,nan,nan,nan
1,110,1,1,1.0,1.0,0.441373229027,1,0.0,0.0,1.0,0.398081160863,0.111832526391,0.286248634473,0.509913687254,0.111832526391,0.5512256717,61,1.0,-0.0921163965413,-1.0,66.260559162,23.739440838,-19.151184162,34.0,1.0,0.0514419701458,-1.0,2.13383702247,962.206476703,1087.01023809,1087.81857357,1087.45161132,1090.99395795,1091.9923962,1088.84366575,1090.9856263
1,111,1,1,1.0,1.0,0.779624853167,0,0.0,0.0,0.0,0.398489576601,0.111382414845,0.287107161756,0.509871991446,0.111382414845,0.564064602445,424,0.142174562463,0.448819569244,-0.770229420881,nan,nan,nan,nan,nan,nan,nan,nan,962.206476703,1092.1358307,nan,1092.91545555,nan,nan,nan,nan
1,112,1,1,1.0,1.0,0.445815028972,0,0.0,0.0,0.0,0.402051588531,0.116769081906,0.285282506626,0.518820670437,0.116769081906,0.555604370389,120,1.0,-0.310161497659,-0.240162905937,nan,nan,nan,nan,nan,nan,nan,nan,962.206476703,1093.07763143,nan,1093.52344646,nan,nan,nan,nan
1,113,0,0,0.0,1.0,0.544038964668,0,0.0,0.0,0.0,0.402456805572,0.116302785043,0.286154020529,0.518759590616,0.116302785043,0.589826282269,431,0.191957257768,0.43918128748,-0.982298765802,nan,nan,nan,nan,nan,nan,nan,nan,962.206476703,1094.0194219,nan,1094.56346086,nan,nan,nan,nan
1,114,1,1,1.0,1.0,0.490213927696,0,0.0,0.0,0.0,0.403755724463,0.116552389582,0.287203334881,0.520308114045,0.116552389582,0.493355973779,100,1.0,-0.270427092546,-0.457439896749,nan,nan,nan,nan,nan,nan,nan,nan,962.206476703,1094.96121408,nan,1095.451428,nan,nan,nan,nan
1,115,1,1,1.0,1.0,0.308414018014,0,0.0,0.0,0.0,0.404541708129,0.11631122644,0.288230481689,0.520852934569,0.11631122644,0.447555636793,349,-0.175656888649,0.468768509344,0.147945183432,nan,nan,nan,nan,nan,nan,nan,nan,962.206476703,1095.9030111,nan,1096.21142512,nan,nan,nan,nan
1,116,1,1,1.0,1.0,0.262605033,0,0.0,0.0,0.0,0.403675692903,0.116141822217,0.287533870686,0.519817515119,0.116141822217,0.353744326237,454,0.367627362238,0.397084843583,-1.0,nan,nan,nan,nan,nan,nan,nan,nan,962.206476703,1096.84479872,nan,1097.10740375,nan,nan,nan,nan
1,117,1,1,1.0,1.0,0.232750035939,0,1.0,0.0,0.0,0.402416133439,0.116381211762,0.286034921678,0.518797345201,0.116381211762,0.267923028984,148,1.0,-0.272695592461,0.0444264621409,nan,nan,nan,nan,nan,nan,nan,nan,962.206476703,1097.78659859,nan,1098.01934863,nan,nan,nan,nan
1,118,1,1,1.0,1.0,0.26696586574,1,0.0,0.0,1.0,0.40091466355,0.116949634369,0.283965029181,0.517864297919,0.116949634369,0.254106978226,302,0.027086081288,0.400300843718,0.517770016443,-155.224859431,245.224859431,32.8811094312,349.0,-0.175656888649,0.468768509344,0.147945183432,3.23406746576,962.206476703,1098.72838792,1099.53680322,1098.99535379,1103.8040003,1104.81529325,1100.55357087,1103.79567064
1,119,1,1,1.0,1.0,0.472935667727,0,0.0,0.0,0.0,0.399739674095,0.117103583276,0.282636090819,0.516843257372,0.117103583276,0.324217189802,152,1.0,-0.259184487343,0.0830625546756,nan,nan,nan,nan,nan,nan,nan,nan,962.206476703,1104.95423292,nan,1105.42716859,nan,nan,nan,nan
1,120,1,1,1.0,1.0,0.379098793608,0,0.0,0.0,0.0,0.400376160997,0.116791210056,0.28358495094,0.517167371053,0.116791210056,0.373000109025,344,-0.172543464245,0.464730234515,0.195503824632,nan,nan,nan,nan,nan,nan,nan,nan,962.206476703,1105.89604477,nan,1106.27514357,nan,nan,nan,nan
1,121,1,1,1.0,1.0,0.285330342478,0,0.0,0.0,0.0,0.400192735416,0.116303345172,0.283889390244,0.516496080587,0.116303345172,0.379121601271,56,1.0,-0.0653675053377,-1.0,nan,nan,nan,nan,nan,nan,nan,nan,962.206476703,1106.83780559,nan,1107.12313593,nan,nan,nan,nan
1,122,1,1,1.0,1.0,0.207562634954,0,0.0,0.0,0.0,0.399211005561,0.116286961034,0.282924044528,0.515497966595,0.116286961034,0.29066392368,309,-0.0258396312562,0.415106541901,0.475305697888,nan,nan,nan,nan,nan,nan,nan,nan,962.206476703,1107.77960205,nan,1107.98716468,nan,nan,nan,nan
1,123,1,1,1.0,1.0,0.105767583242,0,1.0,0.0,0.0,0.397586866828,0.117118248924,0.280468617903,0.514705115752,0.117118248924,0.199553520225,172,1.0,-0.170984061773,0.265024678188,nan,nan,nan,nan,nan,nan,nan,nan,962.206476703,1108.72139622,nan,1108.8271638,nan,nan,nan,nan
1,124,1,1,1.0,1.0,0.0599611642538,1,0.0,0.0,1.0,0.39513460394,0.119628683779,0.275505920161,0.514763287719,0.119628683779,0.124430460817,425,0.149162615564,0.447529597292,-0.791715667876,169.643973751,280.356026249,-18.4720987507,399.0,-0.0164460389312,0.472031251936,-0.400274523968,1.3588216058,962.206476703,1109.66318384,1110.47160883,1109.723145,1112.86355121,1113.86305685,1111.48836479,1112.85522383
1,125,1,1,1.0,1.0,0.573562679929,0,0.0,0.0,0.0,0.392341491943,0.122963974184,0.269377517759,0.515305466127,0.122963974184,0.246430475808,194,1.0,-0.0524864644427,0.435571704399,nan,nan,nan,nan,nan,nan,nan,nan,962.206476703,1114.00542538,nan,1114.57898806,nan,nan,nan,nan
1,126,1,1,1.0,1.0,0.415727393236,0,0.0,0.0,0.0,0.393839187711,0.123548979093,0.270290208618,0.517388166804,0.123548979093,0.349750412473,458,0.399688045963,0.388050214986,-1.0,nan,nan,nan,nan,nan,nan,nan,nan,962.206476703,1114.94722127,nan,1115.36294866,nan,nan,nan,nan
1,127,1,1,1.0,1.0,0.353962710011,0,0.0,0.0,0.0,0.394018599232,0.123057415127,0.270961184105,0.517076014359,0.123057415127,0.447750927725,218,0.881467392804,0.0788246127756,0.572559633417,nan,nan,nan,nan,nan,nan,nan,nan,962.206476703,1115.88900404,nan,1116.24296675,nan,nan,nan,nan
1,128,1,1,1.0,1.0,0.356105778716,0,0.0,0.0,0.0,0.393692941596,0.122608935294,0.271084006302,0.51630187689,0.122608935294,0.375265293987,267,0.362924526182,0.298807232282,0.646622522267,nan,nan,nan,nan,nan,nan,nan,nan,962.206476703,1116.8308079,nan,1117.18691368,nan,nan,nan,nan
1,129,1,1,1.0,1.0,0.406316935201,0,0.0,0.0,0.0,0.393389819315,0.122159809928,0.271230009387,0.515549629242,0.122159809928,0.372128474643,88,1.0,-0.225257592204,-0.599932847766,nan,nan,nan,nan,nan,nan,nan,nan,962.206476703,1117.77260806,nan,1118.178925,nan,nan,nan,nan
1,130,1,1,1.0,1.0,0.296485019382,0,0.0,0.0,0.0,0.393493236242,0.121675639287,0.271817596955,0.515168875528,0.121675639287,0.352969244433,349,-0.175656888649,0.468768509344,0.147945183432,nan,nan,nan,nan,nan,nan,nan,nan,962.206476703,1118.71439711,nan,1119.01088212,nan,nan,nan,nan
1,131,1,1,1.0,1.0,0.594635856454,0,0.0,0.0,0.0,0.392723329759,0.121497144011,0.271226185748,0.51422047377,0.121497144011,0.432479270346,11,0.934659501434,0.163852895862,-1.0,nan,nan,nan,nan,nan,nan,nan,nan,962.206476703,1119.65622578,nan,1120.25086163,nan,nan,nan,nan
1,132,1,1,1.0,1.0,0.40486978658,0,0.0,0.0,0.0,0.394313192174,0.122326647764,0.27198654441,0.516639839938,0.122326647764,0.431996887472,378,-0.117450136118,0.478670924818,-0.154810124165,nan,nan,nan,nan,nan,nan,nan,nan,962.206476703,1120.59797947,nan,1121.00284925,nan,nan,nan,nan
1,133,1,1,1.0,1.0,0.567042243085,0,0.0,1.0,0.0,0.394395665568,0.121851417036,0.272544248532,0.516247082603,0.121851417036,0.522182628706,179,1.0,-0.13461441766,0.323204131591,nan,nan,nan,nan,nan,nan,nan,nan,962.206476703,1121.53976936,nan,1122.10681161,nan,nan,nan,nan
1,134,1,1,1.0,1.0,0.377222289913,1,0.0,0.0,1.0,0.39573401113,0.122319002899,0.273733243073,0.517449983475,0.122319002899,0.449711439859,306,-0.00395437407881,0.408974006242,0.494128827808,-130.480862285,220.480862285,5.32461228529,314.0,-0.0594438881467,0.42463230952,0.441925406839,2.05056096974,962.206476703,1122.4815738,1123.28998482,1122.85879609,1126.38202958,1127.38796272,1124.3150827,1126.37368966
1,135,1,1,nan,nan,nan,0,0.0,0.0,0.0,0.395591613274,0.121858370201,0.273733243073,0.517449983475,0.121858370201,0.472132266499,108,1.0,-0.292426609412,-0.368663285579,nan,nan,nan,nan,nan,nan,nan,nan,962.206476703,1127.53224311,nan,nan,nan,nan,nan,nan
1,136,0,0,0.0,1.0,0.752573207719,0,0.0,0.0,0.0,0.395591613274,0.121858370201,0.273733243073,0.517449983475,0.121858370201,0.564897748816,315,-0.0657111424032,0.426434809442,0.434956515233,nan,nan,nan,nan,nan,nan,nan,nan,962.206476703,1128.47403186,nan,1129.22660507,nan,nan,nan,nan
1,137,1,1,1.0,1.0,0.442785880994,0,0.0,0.0,0.0,0.398316663613,0.125305525134,0.27301113848,0.523622188747,0.125305525134,0.597679544357,224,0.821619416966,0.11002478857,0.597264883709,nan,nan,nan,nan,nan,nan,nan,nan,962.206476703,1129.41582147,nan,1129.85860736,nan,nan,nan,nan
1,138,1,1,1.0,1.0,0.332929161843,0,0.0,0.0,0.0,0.398653551624,0.12488951804,0.273764033584,0.523543069664,0.12488951804,0.509429416852,475,0.539218753276,0.343659807328,-1.0,nan,nan,nan,nan,nan,nan,nan,nan,962.206476703,1130.35766469,nan,1130.69059385,nan,nan,nan,nan
1,139,1,1,1.0,1.0,0.303205594071,0,0.0,0.0,0.0,0.39815938328,0.124548596158,0.273610787122,0.522707979438,0.124548596158,0.359640212303,398,-0.0220377755791,0.472608796233,-0.387943383198,nan,nan,nan,nan,nan,nan,nan,nan,962.206476703,1131.29941609,nan,1131.60262169,nan,nan,nan,nan
1,140,1,1,1.0,1.0,0.281348687946,0,0.0,0.0,0.0,0.397450772912,0.124351807742,0.27309896517,0.521802580655,0.124351807742,0.30582781462,88,1.0,-0.225257592204,-0.599932847766,nan,nan,nan,nan,nan,nan,nan,nan,962.206476703,1132.24120856,nan,1132.52255725,nan,nan,nan,nan
1,141,1,1,1.0,1.0,0.179559623124,0,1.0,0.0,0.0,0.396590757468,0.124289736308,0.272301021161,0.520880493776,0.124289736308,0.254704635047,495,0.706485112283,0.278551693791,-1.0,nan,nan,nan,nan,nan,nan,nan,nan,962.206476703,1133.18300359,nan,1133.36256321,nan,nan,nan,nan
1,142,1,1,1.0,1.0,0.269413132104,1,0.0,0.0,1.0,0.394994940304,0.125212404118,0.269782536186,0.520207344422,0.125212404118,0.243440481058,121,1.0,-0.310732805591,-0.229640808446,-6.2772984896,96.2772984896,11.1991734896,137.0,1.0,-0.300190217086,-0.0647316600203,2.34227689868,962.206476703,1134.13314937,1134.94155441,1134.4025625,1138.32528744,1139.32172516,1135.9666426,1138.31695493
1,143,1,1,1.0,1.0,0.519244141411,0,0.0,0.0,0.0,0.39407828477,0.125211749146,0.268866535624,0.519290033915,0.125211749146,0.322738965546,439,0.251144291643,0.426392204401,-1.0,nan,nan,nan,nan,nan,nan,nan,nan,962.206476703,1139.4671733,nan,1139.98641744,nan,nan,nan,nan
1,144,1,1,1.0,1.0,0.377421572106,0,0.0,0.0,0.0,0.394985283731,0.125208131576,0.269777152155,0.520193415307,0.125208131576,0.38869294854,298,0.0600896634305,0.391050340636,0.53969689008,nan,nan,nan,nan,nan,nan,nan,nan,962.206476703,1140.40896434,nan,1140.78638591,nan,nan,nan,nan
1,145,0,0,0.0,1.0,0.611609918764,0,0.0,0.0,0.0,0.394858926093,0.124765759865,0.270093166228,0.519624685958,0.124765759865,0.502758544094,31,1.0,0.0668515730764,-1.0,nan,nan,nan,nan,nan,nan,nan,nan,962.206476703,1141.35076536,nan,1141.96237527,nan,nan,nan,nan
1,146,1,1,1.0,1.0,0.445752307773,0,0.0,0.0,0.0,0.396407147469,0.125652246763,0.270754900706,0.522059394233,0.125652246763,0.478261266214,215,0.910639861846,0.0628947364355,0.558695148714,nan,nan,nan,nan,nan,nan,nan,nan,962.206476703,1142.2925601,nan,1142.73831241,nan,nan,nan,nan
1,147,1,1,1.0,1.0,0.383947425988,0,0.0,0.0,0.0,0.396757113145,0.125274333633,0.271482779513,0.522031446778,0.125274333633,0.480436550841,370,-0.144805996584,0.478178727438,-0.0671803333712,nan,nan,nan,nan,nan,nan,nan,nan,962.206476703,1143.23434629,nan,1143.61829372,nan,nan,nan,nan
1,148,1,1,1.0,1.0,0.274156278931,0,0.0,0.0,0.0,0.396666904081,0.124837043206,0.271829860875,0.521503947286,0.124837043206,0.36795200423,18,0.988682696815,0.131162580546,-1.0,nan,nan,nan,nan,nan,nan,nan,nan,962.206476703,1144.17613505,nan,1144.45029133,nan,nan,nan,nan
1,149,1,1,1.0,1.0,0.292326034862,0,0.0,0.0,0.0,0.395810186423,0.124817984989,0.270992201434,0.520628171411,0.124817984989,0.31680991326,251,0.535576518695,0.236509187076,0.655284151108,nan,nan,nan,nan,nan,nan,nan,nan,962.206476703,1145.11794348,nan,1145.41026951,nan,nan,nan,nan
1,150,1,1,1.0,1.0,0.286526891636,0,0.0,0.0,0.0,0.395091546481,0.124680349701,0.27041119678,0.519771896182,0.124680349701,0.284336401809,416,0.087881616042,0.458117504295,-0.630165317015,nan,nan,nan,nan,nan,nan,nan,nan,962.206476703,1146.05972254,nan,1146.34624943,nan,nan,nan,nan
1,151,1,1,1.0,1.0,0.288682789658,0,0.0,0.0,0.0,0.394342824724,0.124574096555,0.269768728169,0.518916921278,0.124574096555,0.289178572052,249,0.557275547736,0.228026269286,0.654084877906,nan,nan,nan,nan,nan,nan,nan,nan,962.206476703,1147.00151785,nan,1147.29020064,nan,nan,nan,nan
1,152,1,1,1.0,1.0,0.306882765843,0,0.0,0.0,0.0,0.393619125853,0.1244522211,0.269166904753,0.518071346953,0.1244522211,0.294030815712,365,-0.157962026257,0.477016591838,-0.0139196855225,nan,nan,nan,nan,nan,nan,nan,nan,962.206476703,1147.94333398,nan,1148.25021674,nan,nan,nan,nan
1,153,1,1,1.0,1.0,0.317112305434,0,0.0,0.0,0.0,0.393029082588,0.124232936169,0.268796146419,0.517262018757,0.124232936169,0.304225953645,246,0.589768841079,0.215019897151,0.651339528662,nan,nan,nan,nan,nan,nan,nan,nan,962.206476703,1148.88508767,nan,1149.20219997,nan,nan,nan,nan
1,154,1,1,1.0,1.0,0.319279607385,0,0.0,0.0,0.0,0.392516131391,0.12396861832,0.268547513071,0.51648474971,0.12396861832,0.314424892887,195,1.0,-0.0469245268387,0.442396054288,nan,nan,nan,nan,nan,nan,nan,nan,962.206476703,1149.82689524,nan,1150.14617485,nan,nan,nan,nan
1,155,0,0,0.0,1.0,0.537432713667,0,0.0,0.0,0.0,0.392024611096,0.123696530141,0.268328080955,0.515721141236,0.123696530141,0.391274875496,358,-0.170583909915,0.474268316859,0.0585874414746,nan,nan,nan,nan,nan,nan,nan,nan,962.206476703,1150.76868827,nan,1151.30612099,nan,nan,nan,nan
1,156,1,1,1.0,1.0,0.427618188784,0,0.0,0.0,0.0,0.392993998446,0.123850083119,0.269143915327,0.516844081565,0.123850083119,0.428110169945,6,0.895129075663,0.186272780825,-1.0,nan,nan,nan,nan,nan,nan,nan,nan,962.206476703,1151.71049157,nan,1152.13810976,nan,nan,nan,nan
1,157,1,1,1.0,1.0,0.413841481321,0,0.0,0.0,0.0,0.39322329772,0.123471243898,0.269752053822,0.516694541618,0.123471243898,0.45963079459,53,1.0,-0.049257555853,-1.0,nan,nan,nan,nan,nan,nan,nan,nan,962.206476703,1152.65227377,nan,1153.06611525,nan,nan,nan,nan
1,158,1,1,1.0,1.0,0.375973568182,0,0.0,0.0,0.0,0.393358943665,0.123075706036,0.270283237629,0.5164346497,0.123075706036,0.405811079429,163,1.0,-0.214247802105,0.185723682048,nan,nan,nan,nan,nan,nan,nan,nan,962.206476703,1153.59410472,nan,1153.97007829,nan,nan,nan,nan
1,159,1,1,1.0,1.0,0.346203529742,0,0.0,0.0,0.0,0.393245313759,0.122680837498,0.270564476262,0.515926151257,0.122680837498,0.378672859748,96,1.0,-0.25681952169,-0.503302481145,nan,nan,nan,nan,nan,nan,nan,nan,962.206476703,1154.53585756,nan,1154.88206109,nan,nan,nan,nan
1,160,1,1,1.0,1.0,0.308284013998,0,0.0,0.0,0.0,0.392939847629,0.12234023525,0.270599612379,0.51528008288,0.12234023525,0.343487037307,493,0.689769084006,0.285700779988,-1.0,nan,nan,nan,nan,nan,nan,nan,nan,962.206476703,1155.47773241,nan,1155.78601643,nan,nan,nan,nan
1,161,1,1,1.0,1.0,0.470571079291,0,0.0,0.0,0.0,0.392393680961,0.12213316056,0.270260520401,0.51452684152,0.12213316056,0.37501954101,380,-0.109519508899,0.478533032186,-0.177177385375,nan,nan,nan,nan,nan,nan,nan,nan,962.206476703,1156.41943678,nan,1156.89000786,nan,nan,nan,nan
1,162,1,1,1.0,1.0,0.344753244892,0,0.0,0.0,0.0,0.39289481813,0.121900847918,0.270993970212,0.514795666047,0.121900847918,0.374536112727,428,0.170378320166,0.443486568519,-0.86866140055,nan,nan,nan,nan,nan,nan,nan,nan,962.206476703,1157.36123609,nan,1157.70598933,nan,nan,nan,nan
1,163,1,1,1.0,1.0,0.258990012226,0,0.0,0.0,0.0,0.392588183905,0.121572348987,0.271015834918,0.514160532893,0.121572348987,0.358104778803,342,-0.170052622031,0.462913557708,0.21407524247,nan,nan,nan,nan,nan,nan,nan,nan,962.206476703,1158.30298636,nan,1158.56197637,nan,nan,nan,nan
1,164,1,1,1.0,1.0,0.333133860957,0,0.0,0.0,0.0,0.391742625857,0.121649261458,0.270093364399,0.513391887314,0.121649261458,0.312292372691,218,0.881467392804,0.0788246127756,0.572559633417,nan,nan,nan,nan,nan,nan,nan,nan,962.206476703,1159.24481959,nan,1159.57795345,nan,nan,nan,nan
1,165,1,1,1.0,1.0,0.263326611719,0,0.0,0.0,0.0,0.391374017272,0.121354596281,0.270019420992,0.512728613553,0.121354596281,0.285150161634,369,-0.147694689129,0.477999187239,-0.0564338676883,nan,nan,nan,nan,nan,nan,nan,nan,962.206476703,1160.18661576,nan,1160.44994237,nan,nan,nan,nan
1,166,1,1,1.0,1.0,0.257458760054,0,0.0,0.0,0.0,0.390573720988,0.121394934262,0.269178786726,0.51196865525,0.121394934262,0.284639744243,10,0.926811495151,0.168400576072,-1.0,nan,nan,nan,nan,nan,nan,nan,nan,962.206476703,1161.12841563,nan,1161.38587439,nan,nan,nan,nan
1,167,1,1,1.0,1.0,0.323666383745,0,0.0,0.0,0.0,0.389746919988,0.121468405614,0.268278514374,0.511215325602,0.121468405614,0.281483918506,374,-0.132039125116,0.478634076427,-0.110628443238,nan,nan,nan,nan,nan,nan,nan,nan,962.206476703,1162.07020695,nan,1162.39387334,nan,nan,nan,nan
1,168,1,1,1.0,1.0,0.309801581549,0,0.0,0.0,0.0,0.389339015443,0.121203482264,0.26813553318,0.510542497707,0.121203482264,0.296975575116,55,1.0,-0.0599996532909,-1.0,nan,nan,nan,nan,nan,nan,nan,nan,962.206476703,1163.01206927,nan,1163.32187085,nan,nan,nan,nan
1,169,1,1,1.0,1.0,0.336105134338,0,0.0,0.0,0.0,0.388851055726,0.120990630338,0.267860425389,0.509841686064,0.120990630338,0.323191033211,171,1.0,-0.176011872558,0.256450910142,nan,nan,nan,nan,nan,nan,nan,nan,962.206476703,1163.95374427,nan,1164.2898494,nan,nan,nan,nan
1,170,1,1,1.0,1.0,0.282262421446,0,0.0,0.0,0.0,0.388529434254,0.120691063651,0.267838370604,0.509220497905,0.120691063651,0.309389712444,252,0.524721685615,0.240693665738,0.655694012224,nan,nan,nan,nan,nan,nan,nan,nan,962.206476703,1164.89557836,nan,1165.17784078,nan,nan,nan,nan
1,171,1,1,1.0,1.0,0.28442715737,0,0.0,0.0,0.0,0.387885391752,0.120607121357,0.267278270395,0.50849251311,0.120607121357,0.300931571051,309,-0.0258396312562,0.415106541901,0.475305697888,nan,nan,nan,nan,nan,nan,nan,nan,962.206476703,1165.83736711,nan,1166.12179427,nan,nan,nan,nan
1,172,1,1,1.0,1.0,0.35061682004,0,0.0,0.0,0.0,0.387262149377,0.12050950947,0.266752639907,0.507771658846,0.12050950947,0.305768799619,447,0.312467642152,0.411646472288,-1.0,nan,nan,nan,nan,nan,nan,nan,nan,962.206476703,1166.77916129,nan,1167.12977811,nan,nan,nan,nan
1,173,0,0,0.0,1.0,0.440799615229,0,0.0,0.0,0.0,0.387042716267,0.120181419494,0.266861296772,0.507224135761,0.120181419494,0.35861453088,123,1.0,-0.311441137266,-0.208672863777,nan,nan,nan,nan,nan,nan,nan,nan,962.206476703,1167.72095403,nan,1168.16175365,nan,nan,nan,nan
1,174,1,1,1.0,1.0,0.354981073877,0,0.0,0.0,0.0,0.387362697808,0.119894531846,0.267468165962,0.507257229654,0.119894531846,0.382132503049,495,0.706485112283,0.278551693791,-1.0,nan,nan,nan,nan,nan,nan,nan,nan,962.206476703,1168.66274564,nan,1169.01772672,nan,nan,nan,nan
1,175,1,1,1.0,1.0,0.429183082306,0,0.0,0.0,0.0,0.387171090566,0.119565083606,0.26760600696,0.506736174172,0.119565083606,0.408321257137,104,1.0,-0.282351481576,-0.412644567278,nan,nan,nan,nan,nan,nan,nan,nan,962.206476703,1169.60453468,nan,1170.03371777,nan,nan,nan,nan
1,176,1,1,1.0,1.0,0.359283176716,0,0.0,0.0,0.0,0.387418219929,0.11925618452,0.26816203541,0.506674404449,0.11925618452,0.381149110966,54,1.0,-0.0546292063271,-1.0,nan,nan,nan,nan,nan,nan,nan,nan,962.206476703,1170.54641097,nan,1170.90569414,nan,nan,nan,nan
1,177,1,1,1.0,1.0,0.273548738682,0,0.0,0.0,0.0,0.387253687513,0.118926320853,0.268327366659,0.506180008366,0.118926320853,0.354004999235,151,1.0,-0.262720288689,0.0734626651272,nan,nan,nan,nan,nan,nan,nan,nan,962.206476703,1171.48812674,nan,1171.76167548,nan,nan,nan,nan
1,178,1,1,1.0,1.0,0.219743658556,0,0.0,0.0,0.0,0.386592612229,0.118894788897,0.267697823331,0.505487401126,0.118894788897,0.284191857985,19,0.99625917486,0.126374530333,-1.0,nan,nan,nan,nan,nan,nan,nan,nan,962.206476703,1172.42991464,nan,1172.6496583,nan,nan,nan,nan
1,179,1,1,1.0,1.0,0.157929083449,0,1.0,0.0,0.0,0.38562816741,0.119223514745,0.266404652665,0.504851682155,0.119223514745,0.217073826895,248,0.568115903494,0.223728204869,0.653295769881,nan,nan,nan,nan,nan,nan,nan,nan,962.206476703,1173.37170739,nan,1173.52963647,nan,nan,nan,nan
1,180,1,1,1.0,1.0,0.280108804232,1,0.0,0.0,1.0,0.384319551985,0.120119996069,0.263690462779,0.503757661217,0.120119996069,0.219260515412,37,1.0,0.0358565504353,-1.0,87.2342381658,2.76576183425,-23.2498631658,4.0,0.879126049628,0.195014037372,-1.0,2.30073609005,962.206476703,1174.31349785,1175.12191658,1174.59360666,1178.45569162,1179.45961768,1176.13868366,1178.4473594
1,181,1,1,nan,nan,nan,0,0.0,0.0,0.0,0.383724061998,0.120033599219,0.263690462779,0.503757661217,0.120033599219,0.219018943841,279,0.238157575771,0.338930353633,0.618978422254,nan,nan,nan,nan,nan,nan,nan,nan,962.206476703,1179.60592339,nan,nan,nan,nan,nan,nan
1,182,1,1,1.0,1.0,0.0698363290867,0,0.0,0.0,0.0,0.383724061998,0.120033599219,0.263690462779,0.503757661217,0.120033599219,0.17497256666,69,1.0,-0.134207199312,-0.939648005704,nan,nan,nan,nan,nan,nan,nan,nan,962.206476703,1180.54766254,nan,1180.61749887,nan,nan,nan,nan
1,183,1,1,1.0,1.0,0.287940969109,0,0.0,0.0,0.0,0.38194060897,0.121995181295,0.259945427675,0.503935790265,0.121995181295,0.178888649098,484,0.614398947124,0.316112737715,-1.0,nan,nan,nan,nan,nan,nan,nan,nan,962.206476703,1181.48945842,nan,1181.77739939,nan,nan,nan,nan
1,184,1,1,1.0,1.0,0.242150515434,0,1.0,0.0,0.0,0.381409537558,0.121853924807,0.259555612751,0.503263462365,0.121853924807,0.199975937877,108,1.0,-0.292426609412,-0.368663285579,nan,nan,nan,nan,nan,nan,nan,nan,962.206476703,1182.43125174,nan,1182.67340226,nan,nan,nan,nan
1,185,1,1,1.0,1.0,0.220359466504,1,0.0,0.0,1.0,0.380627183501,0.121956135206,0.258671048295,0.502583318707,0.121956135206,0.250150317016,257,0.470472903111,0.261039853404,0.655841377839,-107.637995562,197.637995562,16.9348705623,281.0,0.218083397074,0.345068392493,0.612644422055,1.25879101502,962.206476703,1183.37304563,1184.18145836,1183.5934051,1186.47340037,1187.47783476,1185.19822887,1186.46506444
1,186,1,1,1.0,1.0,0.513658534968,0,0.0,0.0,0.0,0.379731833127,0.122200253548,0.257531579579,0.501932086675,0.122200253548,0.325389505636,145,1.0,-0.281667413287,0.0150551701241,nan,nan,nan,nan,nan,nan,nan,nan,962.206476703,1187.62361162,nan,1188.13727015,nan,nan,nan,nan
1,187,0,0,1.0,0.0,0.291884135688,0,0.0,0.0,0.0,0.380475870359,0.122266243346,0.258209627014,0.502742113705,0.122266243346,0.341967379053,431,0.191957257768,0.43918128748,-0.982298765802,nan,nan,nan,nan,nan,nan,nan,nan,962.206476703,1188.56540551,nan,1188.85728964,nan,nan,nan,nan
1,188,1,1,1.0,1.0,0.40605778282,0,0.0,0.0,0.0,0.379986413262,0.122104730446,0.257881682815,0.502091143708,0.122104730446,0.403866817825,89,1.0,-0.229484098413,-0.587370487375,nan,nan,nan,nan,nan,nan,nan,nan,962.206476703,1189.50719284,nan,1189.91325062,nan,nan,nan,nan
1,189,0,0,1.0,0.0,0.336241125362,0,0.0,0.0,0.0,0.380129662545,0.121784065847,0.258345596698,0.501913728392,0.121784065847,0.34472768129,148,1.0,-0.272695592461,0.0444264621409,nan,nan,nan,nan,nan,nan,nan,nan,962.206476703,1190.448991,nan,1190.78523213,nan,nan,nan,nan
1,190,1,1,1.0,1.0,0.594394379877,0,0.0,0.0,0.0,0.379889834473,0.121493955422,0.258395879052,0.501383789895,0.121493955422,0.445564429353,371,-0.14179360683,0.478331938097,-0.0779732583494,nan,nan,nan,nan,nan,nan,nan,nan,962.206476703,1191.39077805,nan,1191.98517243,nan,nan,nan,nan
1,191,1,1,1.0,1.0,0.412603308214,0,0.0,0.0,0.0,0.381055620046,0.122185378893,0.258870241153,0.503240998939,0.122185378893,0.447746271151,145,1.0,-0.281667413287,0.0150551701241,nan,nan,nan,nan,nan,nan,nan,nan,962.206476703,1192.33257707,nan,1192.74518038,nan,nan,nan,nan
1,192,1,1,1.0,1.0,0.374795835465,0,0.0,0.0,0.0,0.38122614809,0.121876653882,0.259349494208,0.503102801972,0.121876653882,0.460597841186,92,1.0,-0.241703663401,-0.55060883727,nan,nan,nan,nan,nan,nan,nan,nan,962.206476703,1193.2743701,nan,1193.64916594,nan,nan,nan,nan
1,193,1,1,1.0,1.0,0.328978297533,0,0.0,0.0,0.0,0.381191576517,0.121549496478,0.259642080039,0.502741072995,0.121549496478,0.372125813738,417,0.0945046041228,0.457053563907,-0.645720198395,nan,nan,nan,nan,nan,nan,nan,nan,962.206476703,1194.21616798,nan,1194.54514628,nan,nan,nan,nan
1,194,0,0,1.0,0.0,0.283161330037,0,0.0,0.0,0.0,0.380912361121,0.121283857288,0.259628503833,0.50219621841,0.121283857288,0.328978487678,365,-0.157962026257,0.477016591838,-0.0139196855225,nan,nan,nan,nan,nan,nan,nan,nan,962.206476703,1195.15795645,nan,1195.44111778,nan,nan,nan,nan
1,195,1,1,1.0,1.0,0.613342448836,0,0.0,0.0,0.0,0.380392408828,0.121169658257,0.259222750571,0.501562067086,0.121169658257,0.408494025469,257,0.470472903111,0.261039853404,0.655841377839,nan,nan,nan,nan,nan,nan,nan,nan,962.206476703,1196.09974663,nan,1196.71308908,nan,nan,nan,nan
1,196,1,1,1.0,1.0,0.49548934924,0,0.0,0.0,0.0,0.381624948722,0.122024604692,0.259600344031,0.503649553414,0.122024604692,0.463997709371,160,1.0,-0.227501418013,0.158297521075,nan,nan,nan,nan,nan,nan,nan,nan,962.206476703,1197.04154252,nan,1197.53703187,nan,nan,nan,nan
1,197,1,1,1.0,1.0,0.529697481426,0,0.0,1.0,0.0,0.382224235041,0.121981613125,0.260242621916,0.504205848166,0.121981613125,0.546176426501,4,0.879126049628,0.195014037372,-1.0,nan,nan,nan,nan,nan,nan,nan,nan,962.206476703,1197.98333384,nan,1198.51303132,nan,nan,nan,nan
1,198,1,1,1.0,1.0,0.539895090275,1,0.0,0.0,1.0,0.382996346279,0.122126493118,0.260869853161,0.505122839396,0.122126493118,0.521693973647,467,0.473005185182,0.365775667588,-1.0,149.277589048,300.722410952,-27.6369640477,428.0,0.170378320166,0.443486568519,-0.86866140055,2.09226171719,962.206476703,1198.92512516,1199.73354275,1199.46502025,1202.8589432,1203.85746697,1200.75030755,1202.8506144
1,199,0,0,0.0,1.0,0.648093974567,0,0.0,0.0,0.0,0.383813527237,0.122330476718,0.261483050519,0.506144003955,0.122330476718,0.572562182089,144,1.0,-0.284423189345,0.00519445478499,nan,nan,nan,nan,nan,nan,nan,nan,962.206476703,1204.00081024,nan,1204.64890422,nan,nan,nan,nan
1,200,1,1,1.0,1.0,0.530268529314,0,0.0,0.0,0.0,0.38518285598,0.123479632911,0.261703223068,0.508662488891,0.123479632911,0.572752531385,438,0.243622561222,0.428096439079,-1.0,nan,nan,nan,nan,nan,nan,nan,nan,962.206476703,1204.94261411,nan,1205.47288264,nan,nan,nan,nan
1,201,1,1,0.0,0.0,0.396475981921,0,0.0,0.0,0.0,0.385930720275,0.123598426048,0.262332294227,0.509529146323,0.123598426048,0.524946161934,370,-0.144805996584,0.478178727438,-0.0671803333712,nan,nan,nan,nan,nan,nan,nan,nan,962.206476703,1205.88439488,nan,1206.28087087,nan,nan,nan,nan
1,202,1,1,1.0,1.0,0.630623844918,0,0.0,1.0,0.0,0.38598479854,0.123283400656,0.262701397884,0.509268199196,0.123283400656,0.519122785384,193,1.0,-0.0580453890011,0.428658791268,nan,nan,nan,nan,nan,nan,nan,nan,962.206476703,1206.82618193,nan,1207.45680578,nan,nan,nan,nan
1,203,0,0,0.0,1.0,0.496830157004,1,0.0,0.0,1.0,0.38723295694,0.124197594085,0.263035362855,0.511430551025,0.124197594085,0.507976661281,398,-0.0220377755791,0.472608796233,-0.387943383198,-175.933681225,265.933681225,-13.9100687748,378.0,-0.117450136118,0.478670924818,-0.154810124165,1.09209721664,962.206476703,1207.76795843,1208.57639312,1208.26478859,1210.70997526,1211.71972185,1209.60149214,1210.70162821
1,204,1,1,1.0,1.0,0.612521656556,0,0.0,0.0,0.0,0.387789287905,0.124126570407,0.263662717498,0.511915858311,0.124126570407,0.579991886159,76,1.0,-0.169674511773,-0.773365826749,nan,nan,nan,nan,nan,nan,nan,nan,962.206476703,1211.86018707,nan,1212.47270873,nan,nan,nan,nan
1,205,1,1,1.0,1.0,0.566709535662,0,0.0,0.0,0.0,0.388924299867,0.124833392874,0.264090906993,0.513757692742,0.124833392874,0.558687116407,460,0.415848916989,0.383334931935,-1.0,nan,nan,nan,nan,nan,nan,nan,nan,962.206476703,1212.80198923,nan,1213.36869877,nan,nan,nan,nan
1,206,1,1,1.0,1.0,0.576910280506,0,0.0,1.0,0.0,0.389817693012,0.125152313259,0.264665379753,0.514970006271,0.125152313259,0.585380490908,277,0.258470646878,0.33263615818,0.624824240443,nan,nan,nan,nan,nan,nan,nan,nan,962.206476703,1213.74377542,nan,1214.3206857,nan,nan,nan,nan
1,207,1,1,1.0,1.0,0.595093150972,1,0.0,0.0,1.0,0.39075315595,0.125534573314,0.265218582636,0.516287729263,0.125534573314,0.579570989047,179,1.0,-0.13461441766,0.323204131591,120.768541684,329.231458316,-156.627916684,468.0,0.481236483515,0.363131620867,-1.0,1.77561383368,962.206476703,1214.68556703,1215.4939849,1215.28066018,1218.30267018,1219.30111527,1216.51074656,1218.29434965
1,208,1,1,1.0,1.0,0.691987397615,0,0.0,0.0,0.0,0.39176977284,0.126044549447,0.265725223394,0.517814322287,0.126044549447,0.621330276364,405,0.018463324075,0.468009379796,-0.476293327428,nan,nan,nan,nan,nan,nan,nan,nan,962.206476703,1219.44453865,nan,1220.13652605,nan,nan,nan,nan
1,209,1,1,1.0,1.0,0.53421597241,0,0.0,0.0,0.0,0.393255998706,0.127485533027,0.265770465678,0.520741531733,0.127485533027,0.607098840332,104,1.0,-0.282351481576,-0.412644567278,nan,nan,nan,nan,nan,nan,nan,nan,962.206476703,1220.3863257,nan,1220.92054167,nan,nan,nan,nan
1,210,1,1,1.0,1.0,0.552394566359,0,0.0,1.0,0.0,0.393950382812,0.127553508183,0.266396874629,0.521503890996,0.127553508183,0.592865978794,451,0.343830962376,0.403518361206,-1.0,nan,nan,nan,nan,nan,nan,nan,nan,962.206476703,1221.32812187,nan,1221.88051643,nan,nan,nan,nan
1,211,1,1,1.0,1.0,0.522578627453,1,0.0,0.0,1.0,0.394727069987,0.127720794599,0.267006275388,0.522447864585,0.127720794599,0.536396388741,329,-0.136053278316,0.448203788942,0.3278337444,-143.019812251,233.019812251,1.6916872507,331.0,-0.143297839787,0.450801753776,0.311166711333,1.55884344422,962.206476703,1222.26991661,1223.07835501,1222.79249524,1225.66197902,1226.66420049,1224.08676107,1225.65364109
1,212,1,1,1.0,1.0,0.668522548396,0,0.0,0.0,0.0,0.395350736121,0.127719910095,0.267630826025,0.523070646216,0.127719910095,0.581165247403,373,-0.135407706169,0.478559568072,-0.0996974893599,nan,nan,nan,nan,nan,nan,nan,nan,962.206476703,1226.80384834,nan,1227.47237089,nan,nan,nan,nan
1,213,0,0,0.0,1.0,0.446682577021,0,0.0,0.0,0.0,0.396676812879,0.128816448709,0.26786036417,0.525493261588,0.128816448709,0.545927917624,93,1.0,-0.245614297951,-0.538619881923,nan,nan,nan,nan,nan,nan,nan,nan,962.206476703,1227.74564451,nan,1228.19232709,nan,nan,nan,nan
1,214,1,1,1.0,1.0,0.376912390115,0,0.0,0.0,0.0,0.396918386619,0.128551687996,0.268366698623,0.525470074615,0.128551687996,0.497372505177,162,1.0,-0.218739557155,0.176632971453,nan,nan,nan,nan,nan,nan,nan,nan,962.206476703,1228.68744011,nan,1229.0643525,nan,nan,nan,nan
1,215,1,1,1.0,1.0,0.363063838449,0,0.0,0.0,0.0,0.396822203944,0.12824976324,0.268572440704,0.525071967184,0.12824976324,0.395552935195,506,0.797774742377,0.236703125255,-1.0,nan,nan,nan,nan,nan,nan,nan,nan,962.206476703,1229.62922659,nan,1229.99229043,nan,nan,nan,nan
1,216,0,0,0.0,1.0,0.46923283732,0,0.0,0.0,0.0,0.396660680664,0.127963783432,0.268696897232,0.524624464096,0.127963783432,0.403069688628,137,1.0,-0.300190217086,-0.0647316600203,nan,nan,nan,nan,nan,nan,nan,nan,962.206476703,1230.57102361,nan,1231.04025645,nan,nan,nan,nan
1,217,1,1,1.0,1.0,0.367461163434,0,0.0,0.0,0.0,0.397006262362,0.127756468128,0.269249794234,0.52476273049,0.127756468128,0.399919279735,393,-0.0489456633786,0.475102171109,-0.327443230616,nan,nan,nan,nan,nan,nan,nan,nan,962.206476703,1231.51281522,nan,1231.88027638,nan,nan,nan,nan
1,218,1,1,1.0,1.0,0.337625837885,0,0.0,0.0,0.0,0.396866238197,0.127469519766,0.269396718431,0.524335757962,0.127469519766,0.391439946213,32,1.0,0.061735800531,-1.0,nan,nan,nan,nan,nan,nan,nan,nan,962.206476703,1232.45460683,nan,1232.79223267,nan,nan,nan,nan
1,219,1,1,1.0,1.0,0.467831589165,0,0.0,0.0,0.0,0.396586802346,0.127233291674,0.269353510672,0.52382009402,0.127233291674,0.390972863495,148,1.0,-0.272695592461,0.0444264621409,nan,nan,nan,nan,nan,nan,nan,nan,962.206476703,1233.39639758,nan,1233.86422917,nan,nan,nan,nan
1,220,1,1,1.0,1.0,0.526013182243,0,0.0,0.0,0.0,0.396921284913,0.127027663574,0.269893621339,0.523948948487,0.127027663574,0.443823536431,273,0.299732959835,0.319577193062,0.635038033336,nan,nan,nan,nan,nan,nan,nan,nan,962.206476703,1234.33819147,nan,1234.86420465,nan,nan,nan,nan
1,221,1,1,1.0,1.0,0.408198570716,0,0.0,0.0,0.0,0.397524518078,0.127035955303,0.270488562775,0.524560473382,0.127035955303,0.467347780708,491,0.673033477965,0.292707709811,-1.0,nan,nan,nan,nan,nan,nan,nan,nan,962.206476703,1235.27998707,nan,1235.68818564,nan,nan,nan,nan
1,222,1,1,1.0,1.0,0.322358077043,0,0.0,0.0,0.0,0.397574164835,0.126742259405,0.27083190543,0.524316424239,0.126742259405,0.418856610001,292,0.112881669716,0.376069582356,0.569261850688,nan,nan,nan,nan,nan,nan,nan,nan,962.206476703,1236.2217801,nan,1236.54413818,nan,nan,nan,nan
1,223,1,1,1.0,1.0,0.412570807268,0,0.0,0.0,0.0,0.397225942206,0.126551580329,0.270674361877,0.523777522535,0.126551580329,0.381042485009,96,1.0,-0.25681952169,-0.503302481145,nan,nan,nan,nan,nan,nan,nan,nan,962.206476703,1237.16357028,nan,1237.57614109,nan,nan,nan,nan
1,224,1,1,1.0,1.0,0.382771403878,0,0.0,0.0,0.0,0.39729665587,0.126263927302,0.271032728568,0.523560583172,0.126263927302,0.37256676273,488,0.647907709101,0.302951493728,-1.0,nan,nan,nan,nan,nan,nan,nan,nan,962.206476703,1238.10535961,nan,1238.48813101,nan,nan,nan,nan
1,225,1,1,1.0,1.0,0.400937453611,0,0.0,0.0,0.0,0.397230026274,0.125977821905,0.271252204368,0.523207848179,0.125977821905,0.398759888252,377,-0.121259861678,0.478700828387,-0.143695900877,nan,nan,nan,nan,nan,nan,nan,nan,962.206476703,1239.0471535,nan,1239.44809095,nan,nan,nan,nan
1,226,1,1,1.0,1.0,0.379090240574,0,0.0,0.0,0.0,0.397246955166,0.125690120754,0.271556834412,0.52293707592,0.125690120754,0.387599699354,40,1.0,0.0201165467467,-1.0,nan,nan,nan,nan,nan,nan,nan,nan,962.206476703,1239.98899272,nan,1240.36808296,nan,nan,nan,nan
1,227,1,1,1.0,1.0,0.309334023739,0,0.0,0.0,0.0,0.397164424645,0.125410083354,0.271754341291,0.522574507998,0.125410083354,0.363120572641,138,1.0,-0.29832987918,-0.0546508148191,nan,nan,nan,nan,nan,nan,nan,nan,962.206476703,1240.93074327,nan,1241.2400773,nan,nan,nan,nan
1,228,1,1,1.0,1.0,0.415507298894,0,0.0,0.0,0.0,0.396767002016,0.125264802867,0.27150219915,0.522031804883,0.125264802867,0.367977187736,211,0.948675772315,0.0413606888024,0.538689155053,nan,nan,nan,nan,nan,nan,nan,nan,962.206476703,1241.87254372,nan,1242.28805102,nan,nan,nan,nan
1,229,1,1,1.0,1.0,0.505664720549,0,0.0,0.0,0.0,0.396851417768,0.124988656634,0.271862761134,0.521840074402,0.124988656634,0.410168681061,338,-0.162891363375,0.458928707883,0.250399161362,nan,nan,nan,nan,nan,nan,nan,nan,962.206476703,1242.81432478,nan,1243.3199895,nan,nan,nan,nan
1,230,1,1,1.0,1.0,0.443880650681,0,0.0,0.0,0.0,0.397339369798,0.124919843555,0.272419526244,0.522259213353,0.124919843555,0.455017556708,444,0.289241202529,0.417409780569,-1.0,nan,nan,nan,nan,nan,nan,nan,nan,962.206476703,1243.7561161,nan,1244.19999675,nan,nan,nan,nan
1,231,1,1,1.0,1.0,0.422047692584,0,0.0,0.0,0.0,0.397547143374,0.124679305258,0.272867838116,0.522226448631,0.124679305258,0.457197687938,182,1.0,-0.118523835432,0.347089474713,nan,nan,nan,nan,nan,nan,nan,nan,962.206476703,1244.69791369,nan,1245.11996139,nan,nan,nan,nan
1,232,1,1,1.0,1.0,0.392221490154,0,0.0,0.0,0.0,0.397656034704,0.124412606377,0.273243428326,0.522068641081,0.124412606377,0.419383277806,60,1.0,-0.0867837676833,-1.0,nan,nan,nan,nan,nan,nan,nan,nan,962.206476703,1245.63970074,nan,1246.03192223,nan,nan,nan,nan
1,233,1,1,1.0,1.0,0.322433057241,0,0.0,0.0,0.0,0.397631988046,0.124137576128,0.273494411919,0.521769564174,0.124137576128,0.37890074666,434,0.213881816697,0.43461034373,-1.0,nan,nan,nan,nan,nan,nan,nan,nan,962.206476703,1246.5814895,nan,1246.90392255,nan,nan,nan,nan
1,234,1,1,1.0,1.0,0.548599649919,0,0.0,0.0,0.0,0.397300715223,0.12396391958,0.273336795643,0.521264634803,0.12396391958,0.421084732438,20,1.0,0.121558187834,-1.0,nan,nan,nan,nan,nan,nan,nan,nan,962.206476703,1247.52329308,nan,1248.07189273,nan,nan,nan,nan
1,235,1,1,1.0,1.0,0.654784614104,0,0.0,0.0,0.0,0.397964307042,0.124095182751,0.273869124291,0.522059489793,0.124095182751,0.508605773755,143,1.0,-0.287057525782,-0.00469998909502,nan,nan,nan,nan,nan,nan,nan,nan,962.206476703,1248.46508355,nan,1249.11986816,nan,nan,nan,nan
1,236,1,1,1.0,1.0,0.544972369913,0,0.0,1.0,0.0,0.399085793099,0.124976517075,0.274109276025,0.524062310174,0.124976517075,0.582785544645,415,0.0813077335083,0.459153678902,-0.614968023274,nan,nan,nan,nan,nan,nan,nan,nan,962.206476703,1249.40687173,nan,1249.9518441,nan,nan,nan,nan
1,237,1,1,1.0,1.0,0.491139350226,1,0.0,0.0,1.0,0.399720082564,0.125073388679,0.274646693885,0.524793471242,0.125073388679,0.563632111414,322,-0.105067232891,0.43811622051,0.383559350674,-142.174324236,232.174324236,5.76807423648,330.0,-0.139766326074,0.449518327743,0.319540245599,1.26722701394,962.206476703,1250.34870382,1251.15707494,1250.83984317,1253.45736,1254.46275631,1252.17384601,1253.44901638
1,238,0,0,0.0,1.0,0.784173849388,0,0.0,0.0,0.0,0.400115836969,0.124946610082,0.275169226887,0.525062447051,0.124946610082,0.606761856509,156,1.0,-0.244060613314,0.121041471254,nan,nan,nan,nan,nan,nan,nan,nan,962.206476703,1254.60756184,nan,1255.39173569,nan,nan,nan,nan
1,239,1,1,1.0,1.0,0.554363441304,0,0.0,0.0,0.0,0.401771259436,0.127190414702,0.274580844735,0.528961674138,0.127190414702,0.609892213639,288,0.150005133015,0.365331945294,0.586687239957,nan,nan,nan,nan,nan,nan,nan,nan,962.206476703,1255.54935202,nan,1256.10371546,nan,nan,nan,nan
1,240,1,1,1.0,1.0,0.668528250302,0,0.0,0.0,0.0,0.402426161505,0.127308580711,0.275117580794,0.529734742215,0.127308580711,0.669021846998,376,-0.124962824795,0.478704673615,-0.132627625282,nan,nan,nan,nan,nan,nan,nan,nan,962.206476703,1256.49115161,nan,1257.15967986,nan,nan,nan,nan
1,241,1,1,1.0,1.0,0.526728773955,0,0.0,1.0,0.0,0.403563349918,0.128216718976,0.275346630942,0.531780068894,0.128216718976,0.583206821854,421,0.121471671064,0.452518040197,-0.712610339232,nan,nan,nan,nan,nan,nan,nan,nan,962.206476703,1257.43295034,nan,1257.95967912,nan,nan,nan,nan
1,242,1,1,1.0,1.0,0.48060190666,1,0.0,0.0,1.0,0.404087458106,0.128194574411,0.276392470661,0.53243087308,0.128194574411,0.558619643639,13,0.950262168777,0.154664060346,-1.0,98.365886124,351.634113876,-17.506511124,500.0,0.748145934353,0.260058294274,-1.0,1.59217604576,962.206476703,1258.38305536,1259.19148406,1258.86365727,1261.80846975,1262.80856982,1260.19991692,1261.80013981
1,243,0,0,nan,nan,nan,0,0.0,0.0,0.0,0.404411671871,0.12801920121,0.276392470661,0.53243087308,0.12801920121,0.503665340308,442,0.273907262724,0.421095538958,-1.0,nan,nan,nan,nan,nan,nan,nan,nan,962.206476703,1262.95034906,nan,nan,nan,nan,nan,nan
1,244,1,1,1.0,1.0,0.427352193976,0,0.0,0.0,0.0,0.404411671871,0.12801920121,0.276392470661,0.53243087308,0.12801920121,0.453977050318,506,0.797774742377,0.236703125255,-1.0,nan,nan,nan,nan,nan,nan,nan,nan,962.206476703,1263.89213582,nan,1264.31948801,nan,nan,nan,nan
1,245,1,1,1.0,1.0,0.517544967588,0,0.0,0.0,0.0,0.404508467323,0.127757487074,0.276750980249,0.532265954396,0.127757487074,0.472448580782,218,0.881467392804,0.0788246127756,0.572559633417,nan,nan,nan,nan,nan,nan,nan,nan,962.206476703,1264.83393113,nan,1265.3514761,nan,nan,nan,nan
1,246,1,1,1.0,1.0,0.431746668066,0,0.0,0.0,0.0,0.404983410601,0.1276983012,0.277285109401,0.532681711801,0.1276983012,0.458881276543,248,0.568115903494,0.223728204869,0.653295769881,nan,nan,nan,nan,nan,nan,nan,nan,962.206476703,1265.7757407,nan,1266.20748737,nan,nan,nan,nan
1,247,0,0,0.0,1.0,0.481930455309,0,0.0,0.0,0.0,0.405095390758,0.127442579305,0.277652811452,0.532537970063,0.127442579305,0.477074030321,74,1.0,-0.159715158178,-0.810443278181,nan,nan,nan,nan,nan,nan,nan,nan,962.206476703,1266.71751891,nan,1267.19944937,nan,nan,nan,nan
1,248,1,1,1.0,1.0,0.364141787519,0,0.0,0.0,0.0,0.40541553686,0.12727306704,0.278142469821,0.5326886039,0.12727306704,0.425939636965,117,1.0,-0.307587969795,-0.271886539361,nan,nan,nan,nan,nan,nan,nan,nan,962.206476703,1267.6593071,nan,1268.02344888,nan,nan,nan,nan
1,249,1,1,1.0,1.0,0.310314184637,0,0.0,0.0,0.0,0.405244276489,0.127036449115,0.278207827374,0.532280725604,0.127036449115,0.385462142488,367,-0.15309091083,0.477560897992,-0.0350816338538,nan,nan,nan,nan,nan,nan,nan,nan,962.206476703,1268.60111125,nan,1268.91142543,nan,nan,nan,nan
1,250,1,1,1.0,1.0,0.328510454623,0,0.0,0.0,0.0,0.404852003383,0.126919884279,0.277932119104,0.531771887661,0.126919884279,0.33432214226,197,1.0,-0.035797595552,0.455774741445,nan,nan,nan,nan,nan,nan,nan,nan,962.206476703,1269.54289943,nan,1269.87140989,nan,nan,nan,nan
1,251,1,1,1.0,1.0,0.386652989662,0,0.0,0.0,0.0,0.40453784063,0.126752716848,0.277785123782,0.531290557479,0.126752716848,0.341825876307,372,-0.138660017671,0.478458869494,-0.0888123791441,nan,nan,nan,nan,nan,nan,nan,nan,962.206476703,1270.48468933,nan,1270.87134232,nan,nan,nan,nan
1,252,1,1,1.0,1.0,0.348834968288,0,0.0,0.0,0.0,0.404464542061,0.126497871515,0.277966670546,0.530962413576,0.126497871515,0.354666137525,252,0.524721685615,0.240693665738,0.655694012224,nan,nan,nan,nan,nan,nan,nan,nan,962.206476703,1271.42648664,nan,1271.77532161,nan,nan,nan,nan
1,253,1,1,1.0,1.0,0.303096402204,0,0.0,0.0,0.0,0.404237482576,0.126289263423,0.277948219153,0.530526746,0.126289263423,0.346194786718,485,0.622774561467,0.312875618285,-1.0,nan,nan,nan,nan,nan,nan,nan,nan,962.206476703,1272.36825145,nan,1272.67134785,nan,nan,nan,nan
1,254,1,1,1.0,1.0,0.297225414542,0,0.0,0.0,0.0,0.403826339973,0.126196510177,0.277629829796,0.530022850149,0.126196510177,0.316385595012,116,1.0,-0.306446923025,-0.282515442494,nan,nan,nan,nan,nan,nan,nan,nan,962.206476703,1273.31006615,nan,1273.60729157,nan,nan,nan,nan
1,255,0,0,1.0,0.0,0.275420966092,0,0.0,0.0,0.0,0.403394757279,0.12612257563,0.277272181649,0.529517332909,0.12612257563,0.291914260946,450,0.335949728395,0.405598329481,-1.0,nan,nan,nan,nan,nan,nan,nan,nan,962.206476703,1274.25185719,nan,1274.52727815,nan,nan,nan,nan
1,256,1,1,1.0,1.0,0.413585464819,0,0.0,0.0,0.0,0.402878733927,0.126129039186,0.276749694742,0.529007773113,0.126129039186,0.328743948485,205,1.0,0.00854800403903,0.505535240796,nan,nan,nan,nan,nan,nan,nan,nan,962.206476703,1275.19364937,nan,1275.60723483,nan,nan,nan,nan
1,257,1,1,1.0,1.0,0.295783397509,0,0.0,0.0,0.0,0.402921732847,0.125877334568,0.277044398279,0.528799067415,0.125877334568,0.32826327614,51,1.0,-0.0385160204876,-1.0,nan,nan,nan,nan,nan,nan,nan,nan,962.206476703,1276.13545323,nan,1276.43123663,nan,nan,nan,nan
1,258,1,1,1.0,1.0,0.361995012499,0,0.0,0.0,0.0,0.402493179505,0.125807208769,0.276685970737,0.528300388274,0.125807208769,0.357121291609,221,0.851781464038,0.0945411604707,0.585422935822,nan,nan,nan,nan,nan,nan,nan,nan,962.206476703,1277.07723458,nan,1277.43922959,nan,nan,nan,nan
1,259,1,1,1.0,1.0,0.364172577974,0,0.0,0.0,0.0,0.402331832226,0.125582261604,0.276749570623,0.52791409383,0.125582261604,0.340650329328,362,-0.164239727892,0.476000155386,0.0174578511848,nan,nan,nan,nan,nan,nan,nan,nan,962.206476703,1278.01902932,nan,1278.3832019,nan,nan,nan,nan
1,260,1,1,1.0,1.0,0.518332403386,0,0.0,0.0,0.0,0.402180406614,0.125355800959,0.276824605655,0.527536207573,0.125355800959,0.414833331287,72,1.0,-0.149607777062,-0.853203742106,nan,nan,nan,nan,nan,nan,nan,nan,962.206476703,1278.96081494,nan,1279.47914735,nan,nan,nan,nan
1,261,1,1,1.0,1.0,0.584539741976,0,0.0,0.0,0.0,0.402639505416,0.125319911942,0.277319593473,0.527959417358,0.125319911942,0.489014907779,141,1.0,-0.291952736687,-0.024586852943,nan,nan,nan,nan,nan,nan,nan,nan,962.206476703,1279.90260997,nan,1280.48714971,nan,nan,nan,nan
1,262,1,1,1.0,1.0,0.594725091709,0,0.0,1.0,0.0,0.403355648079,0.125590616544,0.277765031535,0.528946264623,0.125590616544,0.56586574569,212,0.93926288676,0.0467731277665,0.543851001166,nan,nan,nan,nan,nan,nan,nan,nan,962.206476703,1280.84440386,nan,1281.43912895,nan,nan,nan,nan
1,263,1,1,1.0,1.0,0.532924771425,1,0.0,0.0,1.0,0.404106116486,0.125913468576,0.278685372396,0.530533256317,0.125913468576,0.57072986837,81,1.0,-0.193804253699,-0.694219169772,42.7896810756,47.2103189244,-9.74280607565,67.0,1.0,-0.12380466598,-1.0,1.17546107911,962.206476703,1281.78619376,1282.59461419,1282.31911853,1284.8115411,1285.81805897,1283.6197115,1284.80320431
1,264,1,1,nan,nan,nan,0,0.0,0.0,0.0,0.404609314357,0.12592394196,0.278685372396,0.530533256317,0.12592394196,0.563824931567,154,1.0,-0.251813147593,0.102138173725,nan,nan,nan,nan,nan,nan,nan,nan,962.206476703,1285.96174379,nan,nan,nan,nan,nan,nan
1,265,1,1,1.0,1.0,0.663407636108,0,0.0,0.0,0.0,0.404609314357,0.12592394196,0.278685372396,0.530533256317,0.12592394196,0.598166203767,451,0.343830962376,0.403518361206,-1.0,nan,nan,nan,nan,nan,nan,nan,nan,962.206476703,1286.90353881,nan,1287.56694645,nan,nan,nan,nan
1,266,1,1,1.0,1.0,0.585591747309,0,0.0,0.0,0.0,0.405616311717,0.126707279108,0.27890903261,0.532323590825,0.126707279108,0.624499691708,58,1.0,-0.0760896648475,-1.0,nan,nan,nan,nan,nan,nan,nan,nan,962.206476703,1287.84533898,nan,1288.43093072,nan,nan,nan,nan
1,267,1,1,1.0,1.0,0.62778742204,0,0.0,1.0,0.0,0.406313890925,0.126954981905,0.27935890902,0.53326887283,0.126954981905,0.625595601819,226,0.801265930663,0.120208988367,0.60458276857,nan,nan,nan,nan,nan,nan,nan,nan,962.206476703,1288.78712659,nan,1289.41491401,nan,nan,nan,nan
1,268,1,1,1.0,1.0,0.573970652767,1,0.0,0.0,1.0,0.407169001084,0.127451914436,0.279717086648,0.53462091552,0.127451914436,0.595783274039,282,0.208142307666,0.34807905204,0.609295500931,-126.645649165,216.645649165,18.3643991646,308.0,-0.0186828559465,0.413097475488,0.481682330771,1.43380762904,962.206476703,1289.72892704,1290.53734291,1290.30289769,1293.01262634,1294.02349364,1291.56243737,1293.00429469
1,269,0,0,0.0,1.0,0.739954846445,0,0.0,0.0,0.0,0.407810545898,0.127624890839,0.280185655059,0.535435436737,0.127624890839,0.647237640417,345,-0.173519535469,0.465595146217,0.186119282857,nan,nan,nan,nan,nan,nan,nan,nan,962.206476703,1294.16285127,nan,1294.90280612,nan,nan,nan,nan
1,270,1,1,1.0,1.0,0.390176209388,0,0.0,0.0,0.0,0.409083129425,0.129022355025,0.2800607744,0.53810548445,0.129022355025,0.568033902867,421,0.121471671064,0.452518040197,-0.712610339232,nan,nan,nan,nan,nan,nan,nan,nan,962.206476703,1295.10463775,nan,1295.49481396,nan,nan,nan,nan
1,271,1,1,1.0,1.0,0.432318286039,0,0.0,0.0,0.0,0.409010965608,0.128781170989,0.28022979462,0.537792136597,0.128781170989,0.520816447291,258,0.459642287315,0.26499291187,0.655490062901,nan,nan,nan,nan,nan,nan,nan,nan,962.206476703,1296.04643192,nan,1296.47875021,nan,nan,nan,nan
1,272,1,1,1.0,1.0,0.362514172797,0,0.0,0.0,0.0,0.409099586598,0.128544110669,0.280555475929,0.537643697268,0.128544110669,0.395002889408,88,1.0,-0.225257592204,-0.599932847766,nan,nan,nan,nan,nan,nan,nan,nan,962.206476703,1296.98822381,nan,1297.35073799,nan,nan,nan,nan
1,273,1,1,1.0,1.0,0.348722640309,0,0.0,0.0,0.0,0.408923126698,0.128332335587,0.280590791111,0.537255462285,0.128332335587,0.381185033048,339,-0.164955840019,0.45996923152,0.241423096872,nan,nan,nan,nan,nan,nan,nan,nan,962.206476703,1297.93001599,nan,1298.27873863,nan,nan,nan,nan
1,274,1,1,1.0,1.0,0.37490445713,0,0.0,0.0,0.0,0.408695955051,0.128143141499,0.280552813552,0.53683909655,0.128143141499,0.362047090079,165,1.0,-0.205056383665,0.203745440608,nan,nan,nan,nan,nan,nan,nan,nan,962.206476703,1298.87181073,nan,1299.24671519,nan,nan,nan,nan
1,275,1,1,1.0,1.0,0.289074511849,0,0.0,0.0,0.0,0.408568919344,0.12791876125,0.280650158094,0.536487680595,0.12791876125,0.337567203096,409,0.0429436170054,0.464793150178,-0.529461854507,nan,nan,nan,nan,nan,nan,nan,nan,962.206476703,1299.81362829,nan,1300.1027028,nan,nan,nan,nan
1,276,1,1,1.0,1.0,0.235295660561,0,0.0,0.0,0.0,0.408121374747,0.127887461588,0.280233913159,0.536008836335,0.127887461588,0.299758209847,274,0.289344050657,0.322900892411,0.632670269059,nan,nan,nan,nan,nan,nan,nan,nan,962.206476703,1300.75539538,nan,1300.99069104,nan,nan,nan,nan
1,277,1,1,1.0,1.0,0.285464052693,0,1.0,0.0,0.0,0.407476502679,0.128082826994,0.279393675685,0.535559329673,0.128082826994,0.269944741701,423,0.135229581944,0.450080889006,-0.750039916123,nan,nan,nan,nan,nan,nan,nan,nan,962.206476703,1301.69718527,nan,1301.98264933,nan,nan,nan,nan
1,278,1,1,1.0,1.0,0.255608485197,1,0.0,0.0,1.0,0.407022924798,0.128059990136,0.278962934663,0.535082914934,0.128059990136,0.258789399484,254,0.503011129055,0.248947817922,0.65613358125,-107.625486174,197.625486174,19.0317361739,281.0,0.218083397074,0.345068392493,0.612644422055,1.70885055733,962.206476703,1302.63898315,1303.44739674,1302.89459164,1306.18105467,1307.18958161,1304.45582362,1306.17271874
1,279,0,0,0.0,1.0,0.451268350589,0,0.0,0.0,0.0,0.406462130577,0.128153113703,0.278309016875,0.53461524428,0.128153113703,0.33078029616,325,-0.119404900653,0.442631039184,0.360186421743,nan,nan,nan,nan,nan,nan,nan,nan,962.206476703,1307.33127076,nan,1307.78253911,nan,nan,nan,nan
1,280,1,1,1.0,1.0,0.549442109419,0,0.0,0.0,0.0,0.406627467183,0.127945297037,0.278682170145,0.53457276422,0.127945297037,0.418772981735,357,-0.1717918326,0.473767524415,0.068739031695,nan,nan,nan,nan,nan,nan,nan,nan,962.206476703,1308.27306465,nan,1308.82250675,nan,nan,nan,nan
1,281,1,1,1.0,1.0,0.559616055223,0,0.0,0.0,0.0,0.407152521014,0.128002050404,0.279150470611,0.535154571418,0.128002050404,0.52010883841,303,0.0191349273956,0.402522842081,0.512018356663,nan,nan,nan,nan,nan,nan,nan,nan,962.206476703,1309.21485483,nan,1309.77447088,nan,nan,nan,nan
1,282,1,1,1.0,1.0,0.48979825736,0,0.0,0.0,0.0,0.407710995499,0.12809895953,0.279612035968,0.535809955029,0.12809895953,0.532952140667,108,1.0,-0.292426609412,-0.368663285579,nan,nan,nan,nan,nan,nan,nan,nan,962.206476703,1310.15665185,nan,1310.64645011,nan,nan,nan,nan
1,283,1,1,1.0,1.0,0.419994144118,0,0.0,0.0,0.0,0.408010584046,0.127960767301,0.280049816745,0.535971351346,0.127960767301,0.489802818901,341,-0.168535884224,0.46196150489,0.223260112086,nan,nan,nan,nan,nan,nan,nan,nan,962.206476703,1311.0984426,nan,1311.51843675,nan,nan,nan,nan
1,284,1,1,1.0,1.0,0.358181279618,0,0.0,0.0,0.0,0.408054160628,0.127729936219,0.280324224409,0.535784096847,0.127729936219,0.422657893699,205,1.0,0.00854800403903,0.505535240796,nan,nan,nan,nan,nan,nan,nan,nan,962.206476703,1312.04023535,nan,1312.39841663,nan,nan,nan,nan
1,285,1,1,1.0,1.0,0.512357355678,0,0.0,0.0,0.0,0.407873461783,0.127533540048,0.280339921735,0.535407001832,0.127533540048,0.430177593138,120,1.0,-0.310161497659,-0.240162905937,nan,nan,nan,nan,nan,nan,nan,nan,962.206476703,1312.98202896,nan,1313.49438631,nan,nan,nan,nan
1,286,1,1,1.0,1.0,0.266522826045,0,0.0,0.0,0.0,0.408250659956,0.127457267307,0.28079339265,0.535707927263,0.127457267307,0.379020487114,375,-0.128556699755,0.478682433309,-0.121605159467,nan,nan,nan,nan,nan,nan,nan,nan,962.206476703,1313.92384109,nan,1314.19036392,nan,nan,nan,nan
1,287,1,1,1.0,1.0,0.500702904887,0,0.0,0.0,0.0,0.407740847604,0.127510443307,0.280230404297,0.535251290911,0.127510443307,0.426527695536,338,-0.162891363375,0.458928707883,0.250399161362,nan,nan,nan,nan,nan,nan,nan,nan,962.206476703,1314.86561673,nan,1315.36631964,nan,nan,nan,nan
1,288,1,1,1.0,1.0,0.542924808455,0,0.0,0.0,0.0,0.408074044942,0.127402908787,0.280671136155,0.535476953729,0.127402908787,0.436716846462,99,1.0,-0.267176270739,-0.468793303331,nan,nan,nan,nan,nan,nan,nan,nan,962.206476703,1315.80740435,nan,1316.35032916,nan,nan,nan,nan
1,289,1,1,1.0,1.0,0.553100179648,0,0.0,0.0,0.0,0.408555654812,0.127429372717,0.281126282095,0.535985027529,0.127429372717,0.532242630996,232,0.739158239773,0.150046616059,0.623712016981,nan,nan,nan,nan,nan,nan,nan,nan,962.206476703,1316.74919852,nan,1317.3022987,nan,nan,nan,nan
1,290,0,0,0.0,1.0,0.547294193995,0,0.0,0.0,0.0,0.409070048139,0.127493316769,0.28157673137,0.536563364907,0.127493316769,0.547773060699,92,1.0,-0.241703663401,-0.55060883727,nan,nan,nan,nan,nan,nan,nan,nan,962.206476703,1317.69099127,nan,1318.23828547,nan,nan,nan,nan
1,291,1,1,1.0,1.0,0.445465786033,0,0.0,0.0,0.0,0.409560204684,0.12753202266,0.282028182025,0.537092227344,0.12753202266,0.515286719892,199,1.0,-0.0246761787097,0.468786302982,nan,nan,nan,nan,nan,nan,nan,nan,962.206476703,1318.63278972,nan,1319.07825551,nan,nan,nan,nan
1,292,1,1,1.0,1.0,0.351678233477,0,0.0,0.0,0.0,0.40968707953,0.127324329113,0.282362750417,0.537011408643,0.127324329113,0.448146071169,17,0.981069150956,0.135921910835,-1.0,nan,nan,nan,nan,nan,nan,nan,nan,962.206476703,1319.5745742,nan,1319.92625244,nan,nan,nan,nan
1,293,1,1,1.0,1.0,0.417512951302,0,0.0,0.0,0.0,0.40948282303,0.127146407949,0.282336415081,0.536629230979,0.127146407949,0.404885656938,172,1.0,-0.170984061773,0.265024678188,nan,nan,nan,nan,nan,nan,nan,nan,962.206476703,1320.52470431,nan,1320.94221726,nan,nan,nan,nan
1,294,1,1,1.0,1.0,0.339703904698,0,0.0,0.0,0.0,0.409510998918,0.126924036242,0.282586962677,0.53643503516,0.126924036242,0.369631696492,60,1.0,-0.0867837676833,-1.0,nan,nan,nan,nan,nan,nan,nan,nan,962.206476703,1321.46649477,nan,1321.80619868,nan,nan,nan,nan
1,295,1,1,1.0,1.0,0.34988412261,0,0.0,0.0,0.0,0.409266918169,0.126768932738,0.282497985431,0.536035850908,0.126768932738,0.369033659537,93,1.0,-0.245614297951,-0.538619881923,nan,nan,nan,nan,nan,nan,nan,nan,962.206476703,1322.40825416,nan,1322.75813829,nan,nan,nan,nan
1,296,1,1,1.0,1.0,0.288066126406,0,0.0,0.0,0.0,0.409060009474,0.126596255945,0.282463753529,0.535656265419,0.126596255945,0.325884717905,405,0.018463324075,0.468009379796,-0.476293327428,nan,nan,nan,nan,nan,nan,nan,nan,962.206476703,1323.35008398,nan,1323.6381501,nan,nan,nan,nan
1,297,1,1,1.0,1.0,0.34618727921,0,0.0,0.0,0.0,0.408639891825,0.12657653506,0.282063356764,0.535216426885,0.12657653506,0.328045842742,316,-0.0718215561597,0.428203514031,0.427892255365,nan,nan,nan,nan,nan,nan,nan,nan,962.206476703,1324.29190124,nan,1324.63808852,nan,nan,nan,nan
1,298,1,1,1.0,1.0,0.292449196568,0,0.0,0.0,0.0,0.408423792819,0.126410562643,0.282013230176,0.534834355462,0.126410562643,0.308900867395,11,0.934659501434,0.163852895862,-1.0,nan,nan,nan,nan,nan,nan,nan,nan,962.206476703,1325.23365921,nan,1325.5261084,nan,nan,nan,nan
1,299,1,1,1.0,1.0,0.126664000098,0,1.0,0.0,0.0,0.408023880418,0.126375424523,0.281648455895,0.534399304941,0.126375424523,0.255100158625,199,1.0,-0.0246761787097,0.468786302982,nan,nan,nan,nan,nan,nan,nan,nan,962.206476703,1326.17545167,nan,1326.30211567,nan,nan,nan,nan
1,300,1,1,1.0,1.0,0.344802851672,1,0.0,0.0,1.0,0.407057007977,0.12722802325,0.279828984727,0.534285031227,0.12722802325,0.254638682779,501,0.7564492333,0.256253544744,-1.0,138.136358368,311.863641632,-40.4019833683,444.0,0.289241202529,0.417409780569,-1.0,1.80885491939,962.206476703,1327.11724813,1327.9257002,1327.46205098,1330.77604718,1331.77461742,1328.95076188,1330.76772636
1,301,1,1,1.0,1.0,0.664039124385,0,0.0,0.0,0.0,0.406843808812,0.127062040563,0.279781768249,0.533905849375,0.127062040563,0.378501992052,42,1.0,0.00954878589686,-1.0,nan,nan,nan,nan,nan,nan,nan,nan,962.206476703,1331.91787146,nan,1332.58191058,nan,nan,nan,nan
1,302,1,1,1.0,1.0,0.48223579349,0,0.0,0.0,0.0,0.407721608524,0.127728837841,0.279992770682,0.535450446365,0.127728837841,0.497025923183,310,-0.032854544558,0.417080732083,0.468828018046,nan,nan,nan,nan,nan,nan,nan,nan,962.206476703,1332.85968987,nan,1333.34192566,nan,nan,nan,nan
1,303,1,1,1.0,1.0,0.396436068346,0,0.0,0.0,0.0,0.407975058132,0.127585208168,0.280389849964,0.535560266301,0.127585208168,0.514236995407,495,0.706485112283,0.278551693791,-1.0,nan,nan,nan,nan,nan,nan,nan,nan,962.206476703,1333.80147007,nan,1334.19790614,nan,nan,nan,nan
1,304,1,1,1.0,1.0,0.366600172711,0,0.0,0.0,0.0,0.407935942913,0.127370544288,0.280565398625,0.5353064872,0.127370544288,0.415090678182,428,0.170378320166,0.443486568519,-0.86866140055,nan,nan,nan,nan,nan,nan,nan,nan,962.206476703,1334.7432594,nan,1335.10985957,nan,nan,nan,nan
1,305,1,1,1.0,1.0,0.224818087183,0,0.0,0.0,0.0,0.40779629504,0.127177829071,0.28061846597,0.534974124111,0.127177829071,0.32928477608,381,-0.105403061426,0.478425078289,-0.188431136224,nan,nan,nan,nan,nan,nan,nan,nan,962.206476703,1335.68506041,nan,1335.9098785,nan,nan,nan,nan
1,306,1,1,1.0,1.0,0.107007466955,0,1.0,0.0,0.0,0.407180206798,0.127405230577,0.279774976222,0.534585437375,0.127405230577,0.232808575616,299,0.0516645560415,0.393417669654,0.534378752182,nan,nan,nan,nan,nan,nan,nan,nan,962.206476703,1336.62684917,nan,1336.73385664,nan,nan,nan,nan
1,307,0,0,1.0,0.0,0.0291422564769,0,0.0,0.0,0.0,0.406172915725,0.128370438008,0.277802477718,0.534543353733,0.128370438008,0.120322603538,510,0.830554458933,0.220436700166,-1.0,nan,nan,nan,nan,nan,nan,nan,nan,962.206476703,1337.5686767,nan,1337.59781896,nan,nan,nan,nan
1,308,1,1,1.0,1.0,0.367343703867,0,0.0,0.0,0.0,0.404911943621,0.129991118303,0.274920825318,0.534903061923,0.129991118303,0.167831142433,191,1.0,-0.0691479807067,0.414571651978,nan,nan,nan,nan,nan,nan,nan,nan,962.206476703,1338.51042925,nan,1338.87777295,nan,nan,nan,nan
1,309,1,1,1.0,1.0,0.31355658453,0,0.0,0.0,0.0,0.404786716155,0.129792349909,0.274994366245,0.534579066064,0.129792349909,0.236680848291,74,1.0,-0.159715158178,-0.810443278181,nan,nan,nan,nan,nan,nan,nan,nan,962.206476703,1339.45222884,nan,1339.76578542,nan,nan,nan,nan
1,310,1,1,1.0,1.0,0.25174229464,0,0.0,0.0,0.0,0.404483626016,0.129682867903,0.274800758114,0.534166493919,0.129682867903,0.310880861012,360,-0.167709501072,0.475188317955,0.0381258551808,nan,nan,nan,nan,nan,nan,nan,nan,962.206476703,1340.39402159,nan,1340.64576388,nan,nan,nan,nan
1,311,1,1,1.0,1.0,0.34189087816,0,0.0,0.0,0.0,0.403977860019,0.129764996165,0.274212863853,0.533742856184,0.129764996165,0.302396585777,456,0.383612429175,0.392633185378,-1.0,nan,nan,nan,nan,nan,nan,nan,nan,962.206476703,1341.33581605,nan,1341.67770692,nan,nan,nan,nan
1,312,1,1,1.0,1.0,0.280077728676,0,0.0,0.0,0.0,0.403772952488,0.129599615071,0.274173337417,0.533372567558,0.129599615071,0.291236967159,384,-0.0924750057551,0.477945316949,-0.222479273925,nan,nan,nan,nan,nan,nan,nan,nan,962.206476703,1342.27760737,nan,1342.5576851,nan,nan,nan,nan
1,313,0,0,0.0,1.0,0.506269979873,0,0.0,0.0,0.0,0.403366060304,0.129579994933,0.273786065371,0.532946055237,0.129579994933,0.376079528903,456,0.383612429175,0.392633185378,-1.0,nan,nan,nan,nan,nan,nan,nan,nan,962.206476703,1343.21939128,nan,1343.72566126,nan,nan,nan,nan
1,314,1,1,1.0,1.0,0.636436672881,0,0.0,0.0,0.0,0.403703450204,0.12950107189,0.274202378314,0.533204522095,0.12950107189,0.474261460477,74,1.0,-0.159715158178,-0.810443278181,nan,nan,nan,nan,nan,nan,nan,nan,962.206476703,1344.16119401,nan,1344.79763068,nan,nan,nan,nan
1,315,1,1,1.0,1.0,0.582621614216,0,0.0,0.0,0.0,0.404464016291,0.129969813844,0.274494202447,0.534433830136,0.129969813844,0.575109422323,398,-0.0220377755791,0.472608796233,-0.387943383198,nan,nan,nan,nan,nan,nan,nan,nan,962.206476703,1345.10297963,nan,1345.68560124,nan,nan,nan,nan
1,316,1,1,1.0,1.0,0.504816844128,0,0.0,1.0,0.0,0.4050443342,0.130154448592,0.274889885608,0.535198782792,0.130154448592,0.574625043742,186,1.0,-0.0967386681424,0.377881386018,nan,nan,nan,nan,nan,nan,nan,nan,962.206476703,1346.04477152,nan,1346.54958836,nan,nan,nan,nan
1,317,1,1,1.0,1.0,0.475022572558,1,0.0,0.0,1.0,0.405368270921,0.130066886435,0.275677190623,0.535510188122,0.130066886435,0.520820343634,328,-0.132159558243,0.44685796506,0.336046158271,-147.965853853,237.965853853,7.34085385281,338.0,-0.162891363375,0.458928707883,0.250399161362,1.39214536943,962.206476703,1346.98657054,1347.7949847,1347.46159311,1350.22027565,1351.22737569,1348.81175178,1350.21193915
1,318,1,1,nan,nan,nan,0,0.0,0.0,0.0,0.405593689372,0.12991649875,0.275677190623,0.535510188122,0.12991649875,0.489919708343,372,-0.138660017671,0.478458869494,-0.0888123791441,nan,nan,nan,nan,nan,nan,nan,nan,962.206476703,1351.370504,nan,nan,nan,nan,nan,nan
1,319,0,0,1.0,0.0,0.109236349701,0,0.0,0.0,0.0,0.405593689372,0.12991649875,0.275677190623,0.535510188122,0.12991649875,0.29212946113,319,-0.0891891826932,0.433308674125,0.406137099325,nan,nan,nan,nan,nan,nan,nan,nan,962.206476703,1352.31227764,nan,1352.42151399,nan,nan,nan,nan
1,320,1,1,1.0,1.0,0.303391761961,0,0.0,0.0,0.0,0.404637697954,0.130790870029,0.273846827925,0.535428567984,0.130790870029,0.206314055831,219,0.871627318206,0.0840881726889,0.576959667802,nan,nan,nan,nan,nan,nan,nan,nan,962.206476703,1353.25406754,nan,1353.5574593,nan,nan,nan,nan
1,321,1,1,1.0,1.0,0.289579702541,0,0.0,0.0,0.0,0.404312148321,0.130706167617,0.273605980704,0.535018315938,0.130706167617,0.234069271401,462,0.432089675478,0.378486360879,-1.0,nan,nan,nan,nan,nan,nan,nan,nan,962.206476703,1354.19586399,nan,1354.4854437,nan,nan,nan,nan
1,322,1,1,1.0,1.0,0.187770681106,0,1.0,0.0,0.0,0.403944416123,0.13065757193,0.273286844193,0.534601988053,0.13065757193,0.26024738187,360,-0.167709501072,0.475188317955,0.0381258551808,nan,nan,nan,nan,nan,nan,nan,nan,962.206476703,1355.13765788,nan,1355.32542856,nan,nan,nan,nan
1,323,1,1,1.0,1.0,0.493897656677,1,0.0,0.0,1.0,0.403253765212,0.131017874633,0.272235890579,0.534271639845,0.131017874633,0.323749346775,164,1.0,-0.209685835145,0.194761549991,-18.4349488229,108.434948823,-6.87755117708,154.0,1.0,-0.251813147593,0.102138173725,1.73386975145,962.206476703,1356.07945263,1356.88787078,1356.57335028,1359.65487813,1360.66518578,1357.90464442,1359.64654448
1,324,1,1,1.0,1.0,0.552180459141,0,0.0,0.0,0.0,0.403542440026,0.130908742897,0.272633697129,0.534451182923,0.130908742897,0.411282932308,506,0.797774742377,0.236703125255,-1.0,nan,nan,nan,nan,nan,nan,nan,nan,962.206476703,1360.80507454,nan,1361.357255,nan,nan,nan,nan
1,325,1,1,1.0,1.0,0.378329888801,0,0.0,0.0,0.0,0.404014306753,0.130967973778,0.273046332975,0.534982280531,0.130967973778,0.474802668206,274,0.289344050657,0.322900892411,0.632670269059,nan,nan,nan,nan,nan,nan,nan,nan,962.206476703,1361.74689067,nan,1362.12522056,nan,nan,nan,nan
1,326,1,1,1.0,1.0,0.284538059845,0,0.0,0.0,0.0,0.403933026949,0.130768538883,0.273164488066,0.534701565833,0.130768538883,0.405016135929,10,0.926811495151,0.168400576072,-1.0,nan,nan,nan,nan,nan,nan,nan,nan,962.206476703,1362.68866517,nan,1362.97320323,nan,nan,nan,nan
1,327,1,1,1.0,1.0,0.310775470454,0,0.0,0.0,0.0,0.403556386675,0.130733673335,0.27282271334,0.534290060009,0.130733673335,0.324547806367,169,1.0,-0.185917379452,0.239118302078,nan,nan,nan,nan,nan,nan,nan,nan,962.206476703,1363.63045421,nan,1363.94122968,nan,nan,nan,nan
1,328,1,1,1.0,1.0,0.288929397939,0,0.0,0.0,0.0,0.403264622787,0.130631283132,0.272633339655,0.533895905919,0.130631283132,0.294747642746,290,0.131265381085,0.370776544741,0.578206616232,nan,nan,nan,nan,nan,nan,nan,nan,962.206476703,1364.57224896,nan,1364.86117835,nan,nan,nan,nan
1,329,1,1,1.0,1.0,0.275129027432,0,0.0,0.0,0.0,0.402906205154,0.13058288402,0.272323321134,0.533489089175,0.13058288402,0.291611298608,36,1.0,0.0410699577143,-1.0,nan,nan,nan,nan,nan,nan,nan,nan,962.206476703,1365.51404056,nan,1365.78916959,nan,nan,nan,nan
1,330,1,1,1.0,1.0,0.197349345777,0,1.0,0.0,0.0,0.402506901474,0.130573599544,0.27193330193,0.533080501018,0.130573599544,0.253802590383,251,0.535576518695,0.236509187076,0.655284151108,nan,nan,nan,nan,nan,nan,nan,nan,962.206476703,1366.45583189,nan,1366.65318123,nan,nan,nan,nan
1,331,1,1,1.0,1.0,0.255500433734,1,0.0,0.0,1.0,0.401867781363,0.130870405919,0.270997375444,0.532738187282,0.130870405919,0.242659602314,416,0.087881616042,0.458117504295,-0.630165317015,169.124941752,280.875058248,-11.624941752,399.0,-0.0164460389312,0.472031251936,-0.400274523968,1.79222012172,962.206476703,1367.3976272,1368.20604535,1367.65312763,1371.03983622,1372.03731283,1369.23114152,1371.03150884
1,332,1,1,1.0,1.0,0.735387033899,0,0.0,0.0,0.0,0.401413224383,0.130920583507,0.270492640876,0.53233380789,0.130920583507,0.396078937803,477,0.555879874869,0.337784025865,-1.0,nan,nan,nan,nan,nan,nan,nan,nan,962.206476703,1372.18159578,nan,1372.91698281,nan,nan,nan,nan
1,333,1,1,1.0,1.0,0.465597004397,0,0.0,0.0,0.0,0.402447199025,0.132027970144,0.270419228881,0.534475169169,0.132027970144,0.48549482401,259,0.44882283482,0.268906983076,0.655011783756,nan,nan,nan,nan,nan,nan,nan,nan,962.206476703,1373.12339024,nan,1373.58898724,nan,nan,nan,nan
1,334,1,1,1.0,1.0,0.283812204842,0,0.0,0.0,0.0,0.402642105832,0.131870598194,0.270771507638,0.534512704025,0.131870598194,0.494932081046,91,1.0,-0.237709898716,-0.562722318432,nan,nan,nan,nan,nan,nan,nan,nan,962.206476703,1374.06518299,nan,1374.34899519,nan,nan,nan,nan
1,335,0,0,1.0,0.0,0.262005760567,0,0.0,0.0,0.0,0.402276475367,0.131831944418,0.270444530949,0.534108419785,0.131831944418,0.337138323269,370,-0.144805996584,0.478178727438,-0.0671803333712,nan,nan,nan,nan,nan,nan,nan,nan,962.206476703,1375.00696889,nan,1375.26897465,nan,nan,nan,nan
1,336,1,1,1.0,1.0,0.304129305878,0,0.0,0.0,0.0,0.401846197101,0.131857953967,0.269988243134,0.533704151068,0.131857953967,0.283315757096,92,1.0,-0.241703663401,-0.55060883727,nan,nan,nan,nan,nan,nan,nan,nan,962.206476703,1375.94876649,nan,1376.25289579,nan,nan,nan,nan
1,337,1,1,1.0,1.0,0.106377404183,0,0.0,0.0,0.0,0.401547368687,0.131766693529,0.269780675159,0.533314062216,0.131766693529,0.224170823543,363,-0.162287729338,0.476365729747,0.00704812682028,nan,nan,nan,nan,nan,nan,nan,nan,962.206476703,1376.8905618,nan,1376.99693921,nan,nan,nan,nan
1,338,1,1,1.0,1.0,0.340550640598,0,1.0,0.0,0.0,0.400647460259,0.132568258996,0.268079201263,0.533215719255,0.132568258996,0.25035245022,493,0.689769084006,0.285700779988,-1.0,nan,nan,nan,nan,nan,nan,nan,nan,962.206476703,1377.83235027,nan,1378.17290091,nan,nan,nan,nan
1,339,1,1,1.0,1.0,0.326724611572,1,0.0,0.0,1.0,0.400464795154,0.132407968272,0.26797202815,0.532510651953,0.132407968272,0.257884218784,233,0.728670395113,0.154909781369,0.626482233315,-74.4758890032,164.475889003,0.647764003246,234.0,0.71814774995,0.15974031316,0.62913160129,2.63397315587,962.206476703,1378.77414074,1379.58256003,1379.10086535,1383.24967848,1384.25187572,1380.59932426,1383.24135253
1,340,1,1,nan,nan,nan,0,0.0,0.0,0.0,0.400241340052,0.132269311901,0.26797202815,0.532510651953,0.132269311901,0.333637626085,381,-0.105403061426,0.478425078289,-0.188431136224,nan,nan,nan,nan,nan,nan,nan,nan,962.206476703,1384.39155779,nan,nan,nan,nan,nan,nan
1,341,1,1,1.0,1.0,0.407281415886,0,0.0,0.0,0.0,0.400241340052,0.132269311901,0.26797202815,0.532510651953,0.132269311901,0.367003013729,511,0.838703193994,0.216284169582,-1.0,nan,nan,nan,nan,nan,nan,nan,nan,962.206476703,1385.3334047,nan,1385.74068612,nan,nan,nan,nan
1,342,1,1,1.0,1.0,0.425509331631,0,0.0,0.0,0.0,0.400262609163,0.13206992335,0.268192685814,0.532332532513,0.13206992335,0.416395373759,318,-0.0835627602325,0.431640264478,0.413481556053,nan,nan,nan,nan,nan,nan,nan,nan,962.206476703,1386.27514756,nan,1386.70065689,nan,nan,nan,nan
1,343,1,1,1.0,1.0,0.347703421139,0,0.0,0.0,0.0,0.400338653508,0.131878130094,0.268460523414,0.532216783602,0.131878130094,0.393498056219,175,1.0,-0.155629953633,0.290361762956,nan,nan,nan,nan,nan,nan,nan,nan,962.206476703,1387.21694031,nan,1387.56464373,nan,nan,nan,nan
1,344,1,1,1.0,1.0,0.325929763028,0,0.0,0.0,0.0,0.400180589747,0.13171145806,0.268469131687,0.531892047808,0.13171145806,0.3663808386,6,0.895129075663,0.186272780825,-1.0,nan,nan,nan,nan,nan,nan,nan,nan,962.206476703,1388.15873248,nan,1388.48466225,nan,nan,nan,nan
1,345,1,1,1.0,1.0,0.336088598822,0,0.0,0.0,0.0,0.399958281883,0.131576690419,0.268381591464,0.531534972301,0.131576690419,0.336573927663,438,0.243622561222,0.428096439079,-1.0,nan,nan,nan,nan,nan,nan,nan,nan,962.206476703,1389.10052067,nan,1389.43660927,nan,nan,nan,nan
1,346,0,0,0.0,1.0,0.522291820613,0,0.0,0.0,0.0,0.399767626112,0.131426357149,0.268341268963,0.531193983262,0.131426357149,0.394770060821,142,1.0,-0.289568116499,-0.0146273521697,nan,nan,nan,nan,nan,nan,nan,nan,962.206476703,1390.04231513,nan,1390.56460695,nan,nan,nan,nan
1,347,1,1,1.0,1.0,0.604471107945,0,0.0,0.0,0.0,0.400132281453,0.131400251442,0.269063558003,0.532413698236,0.131400251442,0.487617175793,493,0.689769084006,0.285700779988,-1.0,nan,nan,nan,nan,nan,nan,nan,nan,962.206476703,1390.9841113,nan,1391.58858241,nan,nan,nan,nan
1,348,1,1,nan,nan,nan,0,0.0,0.0,0.0,0.400738628119,0.131675070117,0.269063558003,0.532413698236,0.131675070117,0.563381464279,12,0.942476689623,0.159273951266,-1.0,nan,nan,nan,nan,nan,nan,nan,nan,962.206476703,1391.92589949,nan,nan,nan,nan,nan,nan
1,349,1,1,1.0,1.0,0.120870843763,0,0.0,0.0,0.0,0.400738628119,0.131675070117,0.269063558003,0.532413698236,0.131675070117,0.362670975854,262,0.416452475899,0.2804144186,0.652815538838,nan,nan,nan,nan,nan,nan,nan,nan,962.206476703,1392.86767541,nan,1392.98854626,nan,nan,nan,nan
1,350,1,1,1.0,1.0,0.275037796586,0,0.0,0.0,0.0,0.399910616923,0.132355866246,0.267554750677,0.532266483169,0.132355866246,0.197954320174,300,0.0433537089178,0.395748422077,0.528951029102,nan,nan,nan,nan,nan,nan,nan,nan,962.206476703,1393.80948527,nan,1394.08452306,nan,nan,nan,nan
1,351,1,1,1.0,1.0,0.413232230581,0,0.0,0.0,0.0,0.399542260521,0.132333901959,0.267208358562,0.53187616248,0.132333901959,0.269713623643,54,1.0,-0.0546292063271,-1.0,nan,nan,nan,nan,nan,nan,nan,nan,962.206476703,1394.75126747,nan,1395.1644997,nan,nan,nan,nan
1,352,1,1,1.0,1.0,0.471416104585,0,0.0,0.0,0.0,0.399582525139,0.132141229585,0.267441295554,0.531723754723,0.132141229585,0.386562043917,127,1.0,-0.31111021432,-0.167036648065,nan,nan,nan,nan,nan,nan,nan,nan,962.206476703,1395.69306079,nan,1396.16447689,nan,nan,nan,nan
1,353,1,1,1.0,1.0,0.545590173453,0,0.0,0.0,0.0,0.399793180797,0.132004492948,0.267788687848,0.531797673745,0.132004492948,0.47674616954,344,-0.172543464245,0.464730234515,0.195503824632,nan,nan,nan,nan,nan,nan,nan,nan,962.206476703,1396.63486152,nan,1397.18045169,nan,nan,nan,nan
1,354,1,1,1.0,1.0,0.595765978214,0,0.0,1.0,0.0,0.400219487793,0.132046233805,0.268173253988,0.532265721598,0.132046233805,0.537590752084,398,-0.0220377755791,0.472608796233,-0.387943383198,nan,nan,nan,nan,nan,nan,nan,nan,962.206476703,1397.57665198,nan,1398.17241796,nan,nan,nan,nan
1,355,1,1,1.0,1.0,0.589967404841,1,0.0,0.0,1.0,0.400789594179,0.132274452252,0.268515141927,0.533064046431,0.132274452252,0.57710785217,460,0.415848916989,0.383334931935,-1.0,145.9866875,304.0133125,-19.4241875001,432.0,0.199227897075,0.437687328843,-1.0,1.05041328981,962.206476703,1398.51844131,1399.32685604,1399.10840872,1401.41877593,1402.42547084,1400.35195848,1401.41047706
1,356,1,1,1.0,1.0,0.515295843012,0,0.0,0.0,0.0,0.401339529675,0.132474155498,0.268865374178,0.533813685173,0.132474155498,0.567009742022,262,0.416452475899,0.2804144186,0.652815538838,nan,nan,nan,nan,nan,nan,nan,nan,962.206476703,1402.56898118,nan,1403.08427703,nan,nan,nan,nan
1,357,1,1,1.0,1.0,0.317489202716,0,0.0,0.0,0.0,0.40166983783,0.132423810696,0.269246027133,0.534093648526,0.132423810696,0.474250816857,163,1.0,-0.214247802105,0.185723682048,nan,nan,nan,nan,nan,nan,nan,nan,962.206476703,1403.51077764,nan,1403.82826684,nan,nan,nan,nan
1,358,1,1,1.0,1.0,0.17572507821,0,0.0,0.0,0.0,0.401426541196,0.132309504725,0.269117036471,0.533736045921,0.132309504725,0.336170041313,201,1.0,-0.0135712615467,0.48142235136,nan,nan,nan,nan,nan,nan,nan,nan,962.206476703,1404.45257153,nan,1404.6282966,nan,nan,nan,nan
1,359,0,0,1.0,0.0,0.209879612317,0,0.0,0.0,0.0,0.400776104704,0.132671539657,0.268104565046,0.533447644361,0.132671539657,0.234364631081,318,-0.0835627602325,0.431640264478,0.413481556053,nan,nan,nan,nan,nan,nan,nan,nan,962.206476703,1405.39436057,nan,1405.60424018,nan,nan,nan,nan
1,360,1,1,1.0,1.0,0.340072819265,0,0.0,0.0,0.0,0.400227551565,0.132874277757,0.267353273808,0.533101829321,0.132874277757,0.241892503264,444,0.289241202529,0.417409780569,-1.0,nan,nan,nan,nan,nan,nan,nan,nan,962.206476703,1406.3361536,nan,1406.67622642,nan,nan,nan,nan
1,361,1,1,1.0,1.0,0.182261765702,0,0.0,0.0,0.0,0.400055188435,0.132722731293,0.267332457142,0.532777919728,0.132722731293,0.244071399095,187,1.0,-0.0912463489427,0.385383214542,nan,nan,nan,nan,nan,nan,nan,nan,962.206476703,1407.27794777,nan,1407.46020954,nan,nan,nan,nan
1,362,1,1,1.0,1.0,0.320448787068,0,0.0,0.0,0.0,0.399432921513,0.133041844294,0.266391077219,0.532474765807,0.133041844294,0.280927790678,501,0.7564492333,0.256253544744,-1.0,nan,nan,nan,nan,nan,nan,nan,nan,962.206476703,1408.21973767,nan,1408.54018646,nan,nan,nan,nan
1,363,1,1,1.0,1.0,0.338636789354,0,0.0,0.0,0.0,0.399207895489,0.132918875464,0.266289020024,0.532126770953,0.132918875464,0.280449114041,175,1.0,-0.155629953633,0.290361762956,nan,nan,nan,nan,nan,nan,nan,nan,962.206476703,1409.16153242,nan,1409.5001692,nan,nan,nan,nan
1,364,1,1,1.0,1.0,0.252825945616,0,0.0,0.0,0.0,0.399035818483,0.132769082182,0.2662667363,0.531804900665,0.132769082182,0.303970507346,223,0.83172397378,0.104890589731,0.593432239612,nan,nan,nan,nan,nan,nan,nan,nan,962.206476703,1410.1033226,nan,1410.35614854,nan,nan,nan,nan
1,365,0,0,0.0,1.0,0.415007525124,0,0.0,0.0,0.0,0.398621626208,0.132808433473,0.265813192735,0.531430059681,0.132808433473,0.335490086698,350,-0.175756816429,0.469490941964,0.138247479403,nan,nan,nan,nan,nan,nan,nan,nan,962.206476703,1411.04511478,nan,1411.4601223,nan,nan,nan,nan
1,366,1,1,1.0,1.0,0.265193136991,0,0.0,0.0,0.0,0.398667914058,0.132623569709,0.26604434435,0.531291483767,0.132623569709,0.311008869243,178,1.0,-0.139919655122,0.315097826042,nan,nan,nan,nan,nan,nan,nan,nan,962.206476703,1411.98691579,nan,1412.25210893,nan,nan,nan,nan
1,367,1,1,1.0,1.0,0.275380482432,0,0.0,0.0,0.0,0.398291928771,0.132625442202,0.265666486569,0.530917370972,0.132625442202,0.318527048182,296,0.0772713571413,0.386205321608,0.550001308524,nan,nan,nan,nan,nan,nan,nan,nan,962.206476703,1412.9287017,nan,1413.20408218,nan,nan,nan,nan
1,368,1,1,1.0,1.0,0.197565163719,0,1.0,0.0,0.0,0.397946671899,0.132598702891,0.265347969008,0.53054537479,0.132598702891,0.246046261047,496,0.714833717156,0.274923884212,-1.0,nan,nan,nan,nan,nan,nan,nan,nan,962.206476703,1413.87049502,nan,1414.06806018,nan,nan,nan,nan
1,369,1,1,1.0,1.0,0.271756338538,1,0.0,0.0,1.0,0.397385379159,0.132835699943,0.264549679215,0.530221079102,0.132835699943,0.248233994896,87,1.0,-0.220959007447,-0.612675615602,24.9139670388,65.0860329612,3.91415796121,93.0,1.0,-0.245614297951,-0.538619881923,1.10876508546,962.206476703,1414.8122832,1415.62069793,1415.08403954,1417.76262998,1418.7738776,1416.63746473,1417.75428322
1,370,1,1,1.0,1.0,0.331121936557,0,0.0,0.0,0.0,0.397034460051,0.132815650636,0.264218809415,0.529850110687,0.132815650636,0.266814479604,195,1.0,-0.0469245268387,0.442396054288,nan,nan,nan,nan,nan,nan,nan,nan,962.206476703,1418.91282868,nan,1419.24395061,nan,nan,nan,nan
