block,trial,time,setsize,freqtrials,colorind,colordeg,colorrgb,correctresp,actualresp,acc,rts,probe_trials,fast_rt_trigger,slow_rt_trigger,rt_trailingavg,rt_runningavg,rt_runningstd,rt_runningslowthresh,rt_runningfastthresh,wm_mousepos,wm_respdeg,wm_colorind,wm_colorrgb,wm_colorhsv,wm_degdiff,wm_rts,timeBlockStart,timeEncArrayOnset,timeResponse,timeProbeOnset,timeProbeOffset
0,0,15:38:23:991000,6,1,52,36.5625,[ 1.         -0.04388606 -1.        ],1,1,1,0.643588028,0,nan,nan,nan,nan,nan,nan,nan,nan,nan,nan,[ nan  nan  nan],nan,nan,nan,962.2064767,963.2268996,963.8704876,nan,nan
0,1,15:38:24:943000,6,1,99,69.609375,[ 1.         -0.26717627 -0.4687933 ],1,1,1,0.50859437,0,nan,nan,nan,nan,nan,nan,nan,nan,nan,nan,[ nan  nan  nan],nan,nan,nan,962.2064767,964.1779089,964.6865033,nan,nan
0,2,15:38:25:895000,6,1,464,326.25,[ 0.44840488  0.37350356 -1.        ],1,1,1,0.399279334,0,nan,nan,nan,nan,nan,nan,nan,nan,nan,nan,[ nan  nan  nan],nan,nan,nan,962.2064767,965.1271661,965.5264454,nan,nan
0,3,15:38:26:831000,6,1,304,213.75,[ 0.01130928  0.40470892  0.50616037],1,1,1,0.40946953,0,nan,nan,nan,nan,nan,nan,nan,nan,nan,nan,[ nan  nan  nan],nan,nan,nan,962.2064767,966.0689574,966.4784269,nan,nan
0,4,15:38:27:767000,6,1,239,168.046875,[ 0.66506983  0.18338886  0.64054927],1,1,1,0.36366026,0,nan,nan,nan,nan,nan,nan,nan,nan,nan,nan,[ nan  nan  nan],nan,nan,nan,962.2064767,967.010747,967.3744072,nan,nan
0,5,15:38:28:718000,6,1,195,137.109375,[ 1.         -0.04692453  0.44239605],1,1,1,0.32586191,0,nan,nan,nan,nan,nan,nan,nan,nan,nan,nan,[ nan  nan  nan],nan,nan,nan,962.2064767,967.9525189,968.2783808,nan,nan
0,6,15:38:29:654000,6,1,481,338.203125,[ 0.58928949  0.32561186 -1.        ],1,1,1,0.296045971,0,nan,nan,nan,nan,nan,nan,nan,nan,nan,nan,[ nan  nan  nan],nan,nan,nan,962.2064767,968.8943251,969.190371,nan,nan
0,7,15:38:30:590000,6,1,304,213.75,[ 0.01130928  0.40470892  0.50616037],1,1,1,0.314230552,0,nan,nan,nan,nan,nan,nan,nan,nan,nan,nan,[ nan  nan  nan],nan,nan,nan,962.2064767,969.8361001,970.1503307,nan,nan
0,8,15:38:31:542000,6,1,427,300.234375,[ 0.16326517  0.44486322 -0.84020871],1,1,1,0.356381467,0,nan,nan,nan,nan,nan,nan,nan,nan,nan,nan,[ nan  nan  nan],nan,nan,nan,962.2064767,970.7779177,971.1342992,nan,nan
0,9,15:38:32:478000,6,1,178,125.15625,[ 1.         -0.13991966  0.31509783],1,1,1,0.36659219,0,nan,nan,nan,nan,nan,nan,nan,nan,nan,nan,[ nan  nan  nan],nan,nan,nan,962.2064767,971.7197093,972.0863015,nan,nan
0,10,15:38:33:429000,6,1,318,223.59375,[-0.08356276  0.43164026  0.41348156],1,1,1,0.320778073,0,nan,nan,nan,nan,nan,nan,nan,nan,nan,nan,[ nan  nan  nan],nan,nan,nan,962.2064767,972.6614989,972.982277,nan,nan
0,11,15:38:34:365000,6,1,45,31.640625,[ 1.         -0.00639576 -1.        ],1,1,1,0.298948821,0,nan,nan,nan,nan,nan,nan,nan,nan,nan,nan,[ nan  nan  nan],nan,nan,nan,962.2064767,973.6033039,973.9022527,nan,nan
0,12,15:38:35:301000,6,1,102,71.71875,[ 1.         -0.27661034 -0.43492695],1,1,1,0.285148736,0,nan,nan,nan,nan,nan,nan,nan,nan,nan,nan,[ nan  nan  nan],nan,nan,nan,962.2064767,974.5450796,974.8302283,nan,nan
0,13,15:38:36:253000,6,1,194,136.40625,[ 1.         -0.05248646  0.4355717 ],1,1,1,0.287338276,0,nan,nan,nan,nan,nan,nan,nan,nan,nan,nan,[ nan  nan  nan],nan,nan,nan,962.2064767,975.4868834,975.7742217,nan,nan
0,14,15:38:37:189000,6,1,427,300.234375,[ 0.16326517  0.44486322 -0.84020871],1,1,1,0.281522597,0,nan,nan,nan,nan,nan,nan,nan,nan,nan,nan,[ nan  nan  nan],nan,nan,nan,962.2064767,976.4286719,976.7101945,nan,nan
0,15,15:38:38:125000,6,1,355,249.609375,[-0.17373746  0.47268386  0.08887998],1,1,1,0.275674132,0,nan,nan,nan,nan,nan,nan,nan,nan,nan,nan,[ nan  nan  nan],nan,nan,nan,962.2064767,977.3704812,977.6461553,nan,nan
0,16,15:38:39:077000,6,1,15,10.546875,[ 0.96573443  0.14535278 -1.        ],1,1,1,0.293933693,0,nan,nan,nan,nan,nan,nan,nan,nan,nan,nan,[ nan  nan  nan],nan,nan,nan,962.2064767,978.3122158,978.6061495,nan,nan
0,17,15:38:40:013000,6,0,153,107.578125,[ 1.         -0.25554786  0.09262139],0,1,0,0.288083232,0,0,0,nan,nan,nan,nan,nan,nan,nan,nan,[ nan  nan  nan],nan,nan,nan,962.2064767,979.2540439,979.5421271,nan,nan
0,18,15:38:40:964000,6,1,43,30.234375,[ 1.          0.00424534 -1.        ],1,1,1,0.498238248,0,nan,nan,nan,nan,nan,nan,nan,nan,nan,nan,[ nan  nan  nan],nan,nan,nan,962.2064767,980.1958386,980.6940769,nan,nan
0,19,15:38:41:900000,6,0,489,343.828125,[ 0.65628486  0.29957244 -1.        ],0,0,1,0.508433861,0,nan,nan,nan,nan,nan,nan,nan,nan,nan,nan,[ nan  nan  nan],nan,nan,nan,962.2064767,981.1376365,981.6460704,nan,nan
0,20,15:38:42:836000,6,1,47,33.046875,[ 1.         -0.01707559 -1.        ],1,1,1,0.502615046,0,nan,nan,nan,nan,nan,nan,nan,nan,nan,nan,[ nan  nan  nan],nan,nan,nan,962.2064767,982.0794298,982.5820449,nan,nan
0,21,15:38:43:788000,6,1,431,303.046875,[ 0.19195726  0.43918129 -0.98229877],1,1,1,0.408810387,0,nan,nan,nan,nan,nan,nan,nan,nan,nan,nan,[ nan  nan  nan],nan,nan,nan,962.2064767,983.0212197,983.4300301,nan,nan
0,22,15:38:44:724000,6,1,25,17.578125,[ 1.          0.09706829 -1.        ],1,1,1,0.379042915,0,nan,nan,nan,nan,nan,nan,nan,nan,nan,nan,[ nan  nan  nan],nan,nan,nan,962.2064767,983.9630182,984.3420611,nan,nan
0,23,15:38:45:660000,6,0,474,333.28125,[ 0.53090176  0.34654538 -1.        ],0,0,1,0.405172559,0,nan,nan,nan,nan,nan,nan,nan,nan,nan,nan,[ nan  nan  nan],nan,nan,nan,962.2064767,984.9048212,985.3099937,nan,nan
0,24,15:38:46:611000,6,1,258,181.40625,[ 0.45964229  0.26499291  0.65549006],1,1,1,0.375343791,0,nan,nan,nan,nan,nan,nan,nan,nan,nan,nan,[ nan  nan  nan],nan,nan,nan,962.2064767,985.8465931,986.2219369,nan,nan
0,25,15:38:47:547000,6,1,182,127.96875,[ 1.         -0.11852384  0.34708947],1,1,1,0.329552196,0,nan,nan,nan,nan,nan,nan,nan,nan,nan,nan,[ nan  nan  nan],nan,nan,nan,962.2064767,986.788391,987.1179432,nan,nan
0,26,15:38:48:499000,6,1,123,86.484375,[ 1.         -0.31144114 -0.20867286],1,1,1,0.379688943,0,nan,nan,nan,nan,nan,nan,nan,nan,nan,nan,[ nan  nan  nan],nan,nan,nan,962.2064767,987.730188,988.109877,nan,nan
0,27,15:38:49:435000,6,1,312,219.375,[-0.04644836  0.4209252   0.45557321],1,1,1,0.317954195,0,nan,nan,nan,nan,nan,nan,nan,nan,nan,nan,[ nan  nan  nan],nan,nan,nan,962.2064767,988.6719443,988.9898985,nan,nan
0,28,15:38:50:371000,6,1,166,116.71875,[ 1.         -0.20036215  0.21267421],1,1,1,0.328100486,0,nan,nan,nan,nan,nan,nan,nan,nan,nan,nan,[ nan  nan  nan],nan,nan,nan,962.2064767,989.6137744,989.9418749,nan,nan
0,29,15:38:51:323000,6,1,248,174.375,[ 0.5681159   0.2237282   0.65329577],1,1,1,0.330290026,0,nan,nan,nan,nan,nan,nan,nan,nan,nan,nan,[ nan  nan  nan],nan,nan,nan,962.2064767,990.555576,990.885866,nan,nan
0,30,15:38:52:259000,6,1,315,221.484375,[-0.06571114  0.42643481  0.43495652],1,1,1,0.396477122,0,nan,nan,nan,nan,nan,nan,nan,nan,nan,nan,[ nan  nan  nan],nan,nan,nan,962.2064767,991.4973582,991.8938353,nan,nan
0,31,15:38:53:195000,6,1,475,333.984375,[ 0.53921875  0.34365981 -1.        ],1,1,1,0.366659188,0,nan,nan,nan,nan,nan,nan,nan,nan,nan,nan,[ nan  nan  nan],nan,nan,nan,962.2064767,992.439154,992.8058132,nan,nan
0,32,15:38:54:146000,6,1,212,149.0625,[ 0.93926289  0.04677313  0.543851  ],1,1,1,0.312855533,0,nan,nan,nan,nan,nan,nan,nan,nan,nan,nan,[ nan  nan  nan],nan,nan,nan,962.2064767,993.3809414,993.6937969,nan,nan
0,33,15:38:55:082000,6,1,170,119.53125,[ 1.         -0.18099048  0.24781506],1,1,1,0.371054232,0,nan,nan,nan,nan,nan,nan,nan,nan,nan,nan,[ nan  nan  nan],nan,nan,nan,962.2064767,994.3227273,994.6937815,nan,nan
0,34,15:38:56:034000,6,1,435,305.859375,[ 0.22126383  0.43302706 -1.        ],1,1,1,0.565211355,0,nan,nan,nan,nan,nan,nan,nan,nan,nan,nan,[ nan  nan  nan],nan,nan,nan,962.2064767,995.2645289,995.8297402,nan,nan
0,35,15:39:00:636000,6,1,324,227.8125,[-0.11479964  0.44115833  0.36806404],1,1,1,0.503405332,1,nan,nan,nan,nan,nan,nan,nan,nan,-144.137151,333,[-0.14981348  0.45327595  0.29418374],nan,6.324651014,1.608855604,962.2064767,996.2063151,996.7097204,998.0398374,999.6567161
0,36,15:39:01:572000,6,1,164,115.3125,[ 1.         -0.20968584  0.19476155],1,nan,nan,nan,0,nan,nan,nan,nan,nan,nan,nan,nan,nan,nan,[ nan  nan  nan],nan,nan,nan,962.2064767,1000.815262,nan,nan,nan
0,37,15:39:02:524000,6,0,336,236.25,[-0.15821161  0.45675811  0.26813527],0,1,0,0.032519792,0,0,0,nan,nan,nan,nan,nan,nan,nan,nan,[ nan  nan  nan],nan,nan,nan,962.2064767,1001.757061,1001.789581,nan,nan
0,38,15:39:03:460000,6,1,223,156.796875,[ 0.83172397  0.10489059  0.59343224],1,1,1,0.418715487,0,nan,nan,nan,nan,nan,nan,nan,nan,nan,nan,[ nan  nan  nan],nan,nan,nan,962.2064767,1002.698844,1003.117559,nan,nan
0,39,15:39:04:396000,6,0,35,24.609375,[ 1.          0.04626536 -1.        ],0,0,1,0.52490986,0,nan,nan,nan,nan,nan,nan,nan,nan,nan,nan,[ nan  nan  nan],nan,nan,nan,962.2064767,1003.640634,1004.165544,nan,nan
0,40,15:39:05:347000,6,1,133,93.515625,[ 1.         -0.30625957 -0.10533643],1,1,1,0.415054281,0,nan,nan,nan,nan,nan,nan,nan,nan,nan,nan,[ nan  nan  nan],nan,nan,nan,962.2064767,1004.582439,1004.997493,nan,nan
0,41,15:39:06:283000,6,1,395,277.734375,[-0.03839842  0.47418351 -0.35142722],1,1,1,0.42525246,0,nan,nan,nan,nan,nan,nan,nan,nan,nan,nan,[ nan  nan  nan],nan,nan,nan,962.2064767,1005.524226,1005.949478,nan,nan
0,42,15:39:07:235000,6,1,18,12.65625,[ 0.9886827   0.13116258 -1.        ],1,1,1,0.515459773,0,nan,nan,nan,nan,nan,nan,nan,nan,nan,nan,[ nan  nan  nan],nan,nan,nan,962.2064767,1006.46602,1006.98148,nan,nan
0,43,15:39:08:171000,6,1,137,96.328125,[ 1.         -0.30019022 -0.06473166],1,1,1,0.52565054,0,nan,nan,nan,nan,nan,nan,nan,nan,nan,nan,[ nan  nan  nan],nan,nan,nan,962.2064767,1007.40782,1007.93347,nan,nan
0,44,15:39:09:107000,6,1,319,224.296875,[-0.08918918  0.43330867  0.4061371 ],1,1,1,0.391833189,0,nan,nan,nan,nan,nan,nan,nan,nan,nan,nan,[ nan  nan  nan],nan,nan,nan,962.2064767,1008.349612,1008.741446,nan,nan
0,45,15:39:10:058000,6,1,76,53.4375,[ 1.         -0.16967451 -0.77336583],1,1,1,0.330036005,0,nan,nan,nan,nan,nan,nan,nan,nan,nan,nan,[ nan  nan  nan],nan,nan,nan,962.2064767,1009.291402,1009.621438,nan,nan
0,46,15:39:10:994000,6,1,395,277.734375,[-0.03839842  0.47418351 -0.35142722],1,1,1,0.460213817,0,nan,nan,nan,nan,nan,nan,nan,nan,nan,nan,[ nan  nan  nan],nan,nan,nan,962.2064767,1010.233193,1010.693407,nan,nan
0,47,15:39:11:930000,6,1,51,35.859375,[ 1.         -0.03851602 -1.        ],1,1,1,0.414399415,0,nan,nan,nan,nan,nan,nan,nan,nan,nan,nan,[ nan  nan  nan],nan,nan,nan,962.2064767,1011.174986,1011.589385,nan,nan
0,48,15:39:12:882000,6,1,401,281.953125,[-0.00506341  0.47079689 -0.4252031 ],1,1,1,0.448560506,0,nan,nan,nan,nan,nan,nan,nan,nan,nan,nan,[ nan  nan  nan],nan,nan,nan,962.2064767,1012.116801,1012.565361,nan,nan
0,49,15:39:13:818000,6,1,489,343.828125,[ 0.65628486  0.29957244 -1.        ],1,1,1,0.738756302,0,nan,nan,nan,nan,nan,nan,nan,nan,nan,nan,[ nan  nan  nan],nan,nan,nan,962.2064767,1013.058575,1013.797332,nan,nan
0,50,15:39:14:770000,6,1,70,49.21875,[ 1.         -0.13936985 -0.90643691],1,nan,nan,nan,0,nan,nan,nan,nan,nan,nan,nan,nan,nan,nan,[ nan  nan  nan],nan,nan,nan,962.2064767,1014.000369,nan,nan,nan
0,51,15:39:15:706000,6,0,124,87.1875,[ 1.         -0.31157719 -0.19822652],0,0,1,0.599146935,0,nan,nan,nan,nan,nan,nan,nan,nan,nan,nan,[ nan  nan  nan],nan,nan,nan,962.2064767,1014.942159,1015.541306,nan,nan
0,52,15:39:16:642000,6,1,369,259.453125,[-0.14769469  0.47799919 -0.05643387],1,1,1,0.401316347,0,nan,nan,nan,nan,nan,nan,nan,nan,nan,nan,[ nan  nan  nan],nan,nan,nan,962.2064767,1015.883953,1016.285269,nan,nan
0,53,15:39:17:593000,6,0,313,220.078125,[-0.05302215  0.42279583  0.44879796],0,0,1,0.523495212,0,nan,nan,nan,nan,nan,nan,nan,nan,nan,nan,[ nan  nan  nan],nan,nan,nan,962.2064767,1016.825745,1017.34924,nan,nan
0,54,15:39:18:529000,6,1,258,181.40625,[ 0.45964229  0.26499291  0.65549006],1,1,1,0.477684516,0,nan,nan,nan,nan,nan,nan,nan,nan,nan,nan,[ nan  nan  nan],nan,nan,nan,962.2064767,1017.767537,1018.245222,nan,nan
0,55,15:39:19:465000,6,1,123,86.484375,[ 1.         -0.31144114 -0.20867286],1,1,1,0.503880018,0,nan,nan,nan,nan,nan,nan,nan,nan,nan,nan,[ nan  nan  nan],nan,nan,nan,962.2064767,1018.709333,1019.213213,nan,nan
0,56,15:39:20:417000,6,1,77,54.140625,[ 1.         -0.17459302 -0.75626719],1,1,1,0.514053964,0,nan,nan,nan,nan,nan,nan,nan,nan,nan,nan,[ nan  nan  nan],nan,nan,nan,962.2064767,1019.651123,1020.165177,nan,nan
0,57,15:39:21:353000,6,1,168,118.125,[ 1.         -0.19079002  0.2303618 ],1,1,1,0.484240305,0,nan,nan,nan,nan,nan,nan,nan,nan,nan,nan,[ nan  nan  nan],nan,nan,nan,962.2064767,1020.592913,1021.077154,nan,nan
0,58,15:39:22:304000,6,1,350,246.09375,[-0.17575682  0.46949094  0.13824748],1,1,1,0.390402861,0,nan,nan,nan,nan,nan,nan,nan,nan,nan,nan,[ nan  nan  nan],nan,nan,nan,962.2064767,1021.534707,1021.92511,nan,nan
0,59,15:39:27:952000,6,1,100,70.3125,[ 1.         -0.27042709 -0.4574399 ],1,1,1,0.344616114,1,nan,nan,nan,nan,nan,nan,nan,nan,16.1013024,105,[ 1.         -0.28504984 -0.40158079],nan,3.586197601,2.667326284,962.2064767,1022.476504,1022.82112,1024.301685,1026.977045
0,60,15:39:28:888000,6,1,239,168.046875,[ 0.66506983  0.18338886  0.64054927],1,nan,nan,nan,0,nan,nan,nan,nan,nan,nan,nan,nan,nan,nan,[ nan  nan  nan],nan,nan,nan,962.2064767,1028.127267,nan,nan,nan
0,61,15:39:29:839000,6,1,2,1.40625,[ 0.86302458  0.20362286 -1.        ],1,1,1,0.087953342,0,nan,nan,nan,nan,nan,nan,nan,nan,nan,nan,[ nan  nan  nan],nan,nan,nan,962.2064767,1029.069057,1029.15701,nan,nan
0,62,15:39:30:775000,6,1,475,333.984375,[ 0.53921875  0.34365981 -1.        ],1,nan,nan,nan,0,nan,nan,nan,nan,nan,nan,nan,nan,nan,nan,[ nan  nan  nan],nan,nan,nan,962.2064767,1030.010843,nan,nan,nan
0,63,15:39:31:711000,6,1,426,299.53125,[ 0.15619305  0.44621085 -0.8148597 ],1,1,1,0.340284646,0,nan,nan,nan,nan,nan,nan,nan,nan,nan,nan,[ nan  nan  nan],nan,nan,nan,962.2064767,1030.952636,1031.292921,nan,nan
0,64,15:39:32:663000,6,1,52,36.5625,[ 1.         -0.04388606 -1.        ],1,1,1,0.406438386,0,nan,nan,nan,nan,nan,nan,nan,nan,nan,nan,[ nan  nan  nan],nan,nan,nan,962.2064767,1031.894436,1032.300875,nan,nan
0,65,15:39:33:599000,6,1,248,174.375,[ 0.5681159   0.2237282   0.65329577],1,1,1,0.432652419,0,nan,nan,nan,nan,nan,nan,nan,nan,nan,nan,[ nan  nan  nan],nan,nan,nan,962.2064767,1032.836227,1033.268879,nan,nan
0,66,15:39:34:535000,6,1,405,284.765625,[ 0.01846332  0.46800938 -0.47629333],1,1,1,0.33884491,0,nan,nan,nan,nan,nan,nan,nan,nan,nan,nan,[ nan  nan  nan],nan,nan,nan,962.2064767,1033.778021,1034.116866,nan,nan
0,67,15:39:38:934000,6,1,69,48.515625,[ 1.         -0.1342072  -0.93964801],1,1,1,0.325036271,1,nan,nan,nan,nan,nan,nan,nan,nan,44.60211904,65,[ 1.         -0.11331216 -1.        ],nan,-3.117744038,1.392149361,962.2064767,1034.719812,1035.044849,1036.553327,1037.953522
0,68,15:39:39:870000,6,1,457,321.328125,[ 0.39163925  0.39035818 -1.        ],1,1,1,0.420670392,0,nan,nan,nan,nan,nan,nan,nan,nan,nan,nan,[ nan  nan  nan],nan,nan,nan,962.2064767,1039.112066,1039.532736,nan,nan
0,69,15:39:44:909000,6,1,413,290.390625,[ 0.06831062  0.46114313 -0.5854956 ],1,1,1,0.326815842,1,nan,nan,nan,nan,nan,nan,nan,nan,142.0502503,438,[ 0.24362256  0.42809644 -1.        ],nan,17.55912474,2.033898803,962.2064767,1040.053876,1040.380691,1041.887377,1043.929315
0,70,15:39:45:845000,6,1,363,255.234375,[-0.16228773  0.47636573  0.00704813],1,1,1,0.59668798,0,nan,nan,nan,nan,nan,nan,nan,nan,nan,nan,[ nan  nan  nan],nan,nan,nan,962.2064767,1045.087868,1045.684556,nan,nan
0,71,15:39:46:796000,6,0,16,11.25,[ 0.97341943  0.14065211 -1.        ],0,0,1,0.542953033,0,nan,nan,nan,nan,nan,nan,nan,nan,nan,nan,[ nan  nan  nan],nan,nan,nan,962.2064767,1046.029621,1046.572574,nan,nan
0,72,15:39:47:732000,6,1,177,124.453125,[ 1.         -0.14519215  0.30692121],1,1,1,0.385055595,0,nan,nan,nan,nan,nan,nan,nan,nan,nan,nan,[ nan  nan  nan],nan,nan,nan,962.2064767,1046.971455,1047.356511,nan,nan
0,73,15:39:48:684000,6,1,249,175.078125,[ 0.55727555  0.22802627  0.65408488],1,1,1,0.387254828,0,nan,nan,nan,nan,nan,nan,nan,nan,nan,nan,[ nan  nan  nan],nan,nan,nan,962.2064767,1047.913285,1048.30054,nan,nan
0,74,15:39:49:620000,6,1,311,218.671875,[-0.03972498  0.41902022  0.46225021],1,1,1,0.31746611,0,nan,nan,nan,nan,nan,nan,nan,nan,nan,nan,[ nan  nan  nan],nan,nan,nan,962.2064767,1048.855041,1049.172507,nan,nan
0,75,15:39:50:556000,6,1,368,258.75,[-0.15045717  0.47779326 -0.04573418],1,1,1,0.303652055,0,nan,nan,nan,nan,nan,nan,nan,nan,nan,nan,[ nan  nan  nan],nan,nan,nan,962.2064767,1049.796834,1050.100486,nan,nan
0,76,15:39:51:508000,6,1,26,18.28125,[ 1.          0.09209217 -1.        ],1,1,1,0.297837801,0,nan,nan,nan,nan,nan,nan,nan,nan,nan,nan,[ nan  nan  nan],nan,nan,nan,962.2064767,1050.738629,1051.036467,nan,nan
0,77,15:39:52:444000,6,1,97,68.203125,[ 1.         -0.26036974 -0.49171883],1,1,1,0.252031097,0,nan,nan,nan,nan,nan,nan,nan,nan,nan,nan,[ nan  nan  nan],nan,nan,nan,962.2064767,1051.68042,1051.932451,nan,nan
0,78,15:39:53:380000,6,1,399,280.546875,[-0.01644604  0.47203125 -0.40027452],1,1,1,0.15824383,0,nan,nan,nan,nan,nan,nan,nan,nan,nan,nan,[ nan  nan  nan],nan,nan,nan,962.2064767,1052.6222,1052.780443,nan,nan
0,79,15:39:54:331000,6,0,292,205.3125,[ 0.11288167  0.37606958  0.56926185],0,0,1,0.432391271,0,nan,nan,nan,nan,nan,nan,nan,nan,nan,nan,[ nan  nan  nan],nan,nan,nan,962.2064767,1053.564004,1053.996395,nan,nan
0,80,15:39:55:267000,6,1,239,168.046875,[ 0.66506983  0.18338886  0.64054927],1,1,1,0.466584293,0,0,0,0.352406464,0.392454001,0.113543773,0.505997774,0.278910228,nan,nan,nan,[ nan  nan  nan],nan,nan,nan,962.2064767,1054.505789,1054.972373,nan,nan
0,81,15:39:56:219000,6,1,461,324.140625,[ 0.42395965  0.38092737 -1.        ],1,1,1,0.308669749,0,0,0,0.402548438,0.393416732,0.113115861,0.506532593,0.280300871,nan,nan,nan,[ nan  nan  nan],nan,nan,nan,962.2064767,1055.447657,1055.756327,nan,nan
0,82,15:39:57:155000,6,1,51,35.859375,[ 1.         -0.03851602 -1.        ],1,1,1,0.262911512,0,0,0,0.346055185,0.392330232,0.112792084,0.505122316,0.279538149,nan,nan,nan,[ nan  nan  nan],nan,nan,nan,962.2064767,1056.389385,1056.652296,nan,nan
0,83,15:39:58:091000,6,1,347,243.984375,[-0.17493884  0.46723881  0.16715748],1,1,1,0.265151798,0,0,0,0.27891102,0.390692021,0.11300596,0.503697981,0.277686061,nan,nan,nan,[ nan  nan  nan],nan,nan,nan,962.2064767,1057.331176,1057.596328,nan,nan
0,84,15:39:59:042000,6,0,21,14.765625,[ 1.        0.116714 -1.      ],0,1,0,0.243322546,0,0,0,0.257128619,0.389122768,0.113160326,0.502283094,0.275962442,nan,nan,nan,[ nan  nan  nan],nan,nan,nan,962.2064767,1058.272972,1058.516295,nan,nan
0,85,15:39:59:978000,6,1,94,66.09375,[ 1.         -0.24943901 -0.52674516],1,1,1,0.445501993,0,0,0,0.317992113,0.387322765,0.113606209,0.500928974,0.273716557,nan,nan,nan,[ nan  nan  nan],nan,nan,nan,962.2064767,1059.21476,1059.660262,nan,nan
0,86,15:40:00:914000,6,1,316,222.1875,[-0.07182156  0.42820351  0.42789226],1,1,1,0.471679534,0,0,0,0.386834691,0.388032268,0.11309178,0.501124048,0.274940488,nan,nan,nan,[ nan  nan  nan],nan,nan,nan,962.2064767,1060.15655,1060.628229,nan,nan
0,87,15:40:01:866000,6,1,253,177.890625,[ 0.5138659   0.24483993  0.65597719],1,1,1,0.393873053,0,0,0,0.437018193,0.389040066,0.112778284,0.50181835,0.276261783,nan,nan,nan,[ nan  nan  nan],nan,nan,nan,962.2064767,1061.098347,1061.49222,nan,nan
0,88,15:40:02:802000,6,1,1,0.703125,[ 0.85493913  0.20787707 -1.        ],1,1,1,0.412065902,0,0,0,0.425872829,0.389097602,0.1121062,0.501203802,0.276991402,nan,nan,nan,[ nan  nan  nan],nan,nan,nan,962.2064767,1062.040141,1062.452207,nan,nan
0,89,15:40:03:754000,6,1,435,305.859375,[ 0.22126383  0.43302706 -1.        ],1,1,1,0.366218144,0,0,0,0.390719033,0.389367817,0.111472315,0.500840132,0.277895502,nan,nan,nan,[ nan  nan  nan],nan,nan,nan,962.2064767,1062.981956,1063.348174,nan,nan
0,90,15:40:04:690000,6,1,171,120.234375,[ 1.         -0.17601187  0.25645091],1,1,1,0.456431159,0,0,0,0.411571735,0.389098635,0.110850109,0.499948744,0.278248526,nan,nan,nan,[ nan  nan  nan],nan,nan,nan,962.2064767,1063.923728,1064.380159,nan,nan
0,91,15:40:05:626000,6,1,101,71.015625,[ 1.         -0.27357267 -0.44615261],1,1,1,0.386589413,0,0,0,0.403079572,0.389872572,0.110444649,0.500317221,0.279427923,nan,nan,nan,[ nan  nan  nan],nan,nan,nan,962.2064767,1064.86552,1065.25211,nan,nan
0,92,15:40:06:577000,6,1,139,97.734375,[ 1.         -0.29633561 -0.04459929],1,1,1,0.324801067,0,0,0,0.38927388,0.389835263,0.109815881,0.499651144,0.280019383,nan,nan,nan,[ nan  nan  nan],nan,nan,nan,962.2064767,1065.807316,1066.132117,nan,nan
0,93,15:40:07:513000,6,1,225,158.203125,[ 0.81146625  0.11513113  0.60098195],1,1,1,0.310992714,0,0,0,0.340794398,0.389104542,0.109412135,0.498516677,0.279692407,nan,nan,nan,[ nan  nan  nan],nan,nan,nan,962.2064767,1066.749106,1067.060099,nan,nan
0,94,15:40:08:449000,6,1,329,231.328125,[-0.13605328  0.44820379  0.32783374],1,1,1,0.377130204,0,0,0,0.337641328,0.388236633,0.109110241,0.497346874,0.279126392,nan,nan,nan,[ nan  nan  nan],nan,nan,nan,962.2064767,1067.690901,1068.068031,nan,nan
0,95,15:40:09:401000,6,1,507,356.484375,[ 0.80599565  0.23268835 -1.        ],1,1,1,0.443359495,0,0,0,0.377160804,0.388114584,0.108515256,0.49662984,0.279599329,nan,nan,nan,[ nan  nan  nan],nan,nan,nan,962.2064767,1068.632691,1069.076051,nan,nan
0,96,15:40:10:337000,6,1,425,298.828125,[ 0.14916262  0.4475296  -0.79171567],1,1,1,0.485530936,0,0,0,0.435340212,0.388715072,0.108075801,0.496790874,0.280639271,nan,nan,nan,[ nan  nan  nan],nan,nan,nan,962.2064767,1069.574489,1070.06002,nan,nan
0,97,15:40:11:288000,6,1,37,26.015625,[ 1.          0.03585655 -1.        ],1,1,1,0.415310582,0,0,0,0.448067005,0.389756103,0.107955953,0.497712057,0.28180015,nan,nan,nan,[ nan  nan  nan],nan,nan,nan,962.2064767,1070.524687,1070.939998,nan,nan
0,98,15:40:12:224000,6,1,226,158.90625,[ 0.80126593  0.12020899  0.60458277],1,1,1,0.625535446,0,0,1,0.508792322,0.390027959,0.107412184,0.497440143,0.282615776,nan,nan,nan,[ nan  nan  nan],nan,nan,nan,962.2064767,1071.466405,1072.09194,nan,nan
0,99,15:40:18:355000,6,1,142,99.84375,[ 1.         -0.28956812 -0.01462735],1,1,1,0.571768569,1,0,0,0.537538199,0.392506986,0.109515363,0.502022349,0.282991622,nan,10.87505825,113,[ 1.         -0.30219199 -0.31457635],nan,-20.71880825,3.125725178,962.2064767,1072.408191,1072.979959,1074.241725,1077.375472
0,100,15:40:19:291000,6,1,223,156.796875,[ 0.83172397  0.10489059  0.59343224],1,1,1,0.389802163,0,0,0,0.529035393,0.394374294,0.110453298,0.504827592,0.283920996,nan,nan,nan,[ nan  nan  nan],nan,nan,nan,962.2064767,1078.534017,1078.923819,nan,nan
0,101,15:40:20:243000,6,0,401,281.953125,[-0.00506341  0.47079689 -0.4252031 ],0,0,1,0.495885348,0,0,0,0.485818693,0.394327158,0.109883447,0.504210605,0.284443712,nan,nan,nan,[ nan  nan  nan],nan,nan,nan,962.2064767,1079.475877,1079.971762,nan,nan
0,102,15:40:21:179000,6,1,291,204.609375,[ 0.12202764  0.37344194  0.57379193],1,1,1,0.41808742,0,0,0,0.434591644,0.395363466,0.109796792,0.505160259,0.285566674,nan,nan,nan,[ nan  nan  nan],nan,nan,nan,962.2064767,1080.417661,1080.835748,nan,nan
0,103,15:40:22:130000,6,1,470,330.46875,[ 0.49774161  0.35774078 -1.        ],1,1,1,0.34032513,0,0,0,0.418099299,0.395593001,0.109264486,0.504857487,0.286328516,nan,nan,nan,[ nan  nan  nan],nan,nan,nan,962.2064767,1081.359397,1081.699722,nan,nan
0,104,15:40:23:066000,6,1,107,75.234375,[ 1.         -0.29008977 -0.37959278],1,1,1,0.366532035,0,0,0,0.374981528,0.395040323,0.108855778,0.503896101,0.286184544,nan,nan,nan,[ nan  nan  nan],nan,nan,nan,962.2064767,1082.301191,1082.667723,nan,nan
0,105,15:40:24:002000,6,1,30,21.09375,[ 1.          0.07194566 -1.        ],1,1,1,0.352732805,0,0,0,0.353196656,0.394758062,0.108352319,0.503110381,0.286405744,nan,nan,nan,[ nan  nan  nan],nan,nan,nan,962.2064767,1083.242982,1083.595715,nan,nan
0,106,15:40:24:954000,6,1,68,47.8125,[ 1.         -0.12901814 -0.9729032 ],1,1,1,0.362921005,0,0,0,0.360728615,0.39434605,0.107899351,0.502245401,0.286446699,nan,nan,nan,[ nan  nan  nan],nan,nan,nan,962.2064767,1084.18477,1084.547691,nan,nan
0,107,15:40:25:890000,6,1,283,198.984375,[ 0.19826868  0.35105092  0.60582595],1,1,1,0.741108061,0,0,0,0.48558729,0.394040952,0.107418494,0.501459446,0.286622459,nan,nan,nan,[ nan  nan  nan],nan,nan,nan,962.2064767,1085.126553,1085.867661,nan,nan
0,108,15:40:26:826000,6,1,479,336.796875,[ 0.57257215  0.33176822 -1.        ],1,1,1,0.471195725,0,0,1,0.52507493,0.397378136,0.112137743,0.509515879,0.285240394,nan,nan,nan,[ nan  nan  nan],nan,nan,nan,962.2064767,1086.068454,1086.539649,nan,nan
0,109,15:40:31:958000,6,1,61,42.890625,[ 1.        -0.0921164 -1.       ],1,1,1,0.441373229,1,0,0,0.551225672,0.398081161,0.111832526,0.509913687,0.286248634,nan,66.26055916,34,[ 1.          0.05144197 -1.        ],nan,-19.15118416,2.133837022,962.2064767,1087.010238,1087.451611,1088.843666,1090.985626
0,110,15:40:32:894000,6,1,424,298.125,[ 0.14217456  0.44881957 -0.77022942],1,1,1,0.779624853,0,0,0,0.564064602,0.398489577,0.111382415,0.509871991,0.287107162,nan,nan,nan,[ nan  nan  nan],nan,nan,nan,962.2064767,1092.135831,1092.915456,nan,nan
0,111,15:40:33:846000,6,1,120,84.375,[ 1.         -0.3101615  -0.24016291],1,1,1,0.445815029,0,0,0,0.55560437,0.402051589,0.116769082,0.51882067,0.285282507,nan,nan,nan,[ nan  nan  nan],nan,nan,nan,962.2064767,1093.077631,1093.523446,nan,nan
0,112,15:40:34:782000,6,0,431,303.046875,[ 0.19195726  0.43918129 -0.98229877],0,0,1,0.544038965,0,0,0,0.589826282,0.402456806,0.116302785,0.518759591,0.286154021,nan,nan,nan,[ nan  nan  nan],nan,nan,nan,962.2064767,1094.019422,1094.563461,nan,nan
0,113,15:40:35:734000,6,1,100,70.3125,[ 1.         -0.27042709 -0.4574399 ],1,1,1,0.490213928,0,0,0,0.493355974,0.403755724,0.11655239,0.520308114,0.287203335,nan,nan,nan,[ nan  nan  nan],nan,nan,nan,962.2064767,1094.961214,1095.451428,nan,nan
0,114,15:40:36:670000,6,1,349,245.390625,[-0.17565689  0.46876851  0.14794518],1,1,1,0.308414018,0,0,0,0.447555637,0.404541708,0.116311226,0.520852935,0.288230482,nan,nan,nan,[ nan  nan  nan],nan,nan,nan,962.2064767,1095.903011,1096.211425,nan,nan
0,115,15:40:37:606000,6,1,454,319.21875,[ 0.36762736  0.39708484 -1.        ],1,1,1,0.262605033,0,0,0,0.353744326,0.403675693,0.116141822,0.519817515,0.287533871,nan,nan,nan,[ nan  nan  nan],nan,nan,nan,962.2064767,1096.844799,1097.107404,nan,nan
0,116,15:40:38:557000,6,1,148,104.0625,[ 1.         -0.27269559  0.04442646],1,1,1,0.232750036,0,1,0,0.267923029,0.402416133,0.116381212,0.518797345,0.286034922,nan,nan,nan,[ nan  nan  nan],nan,nan,nan,962.2064767,1097.786599,1098.019349,nan,nan
0,117,15:40:44:782000,6,1,302,212.34375,[ 0.02708608  0.40030084  0.51777002],1,1,1,0.266965866,1,0,0,0.254106978,0.400914664,0.116949634,0.517864298,0.283965029,nan,-155.2248594,349,[-0.17565689  0.46876851  0.14794518],nan,32.88110943,3.234067466,962.2064767,1098.728388,1098.995354,1100.553571,1103.795671
0,118,15:40:45:718000,6,1,152,106.875,[ 1.         -0.25918449  0.08306255],1,1,1,0.472935668,0,0,0,0.32421719,0.399739674,0.117103583,0.516843257,0.282636091,nan,nan,nan,[ nan  nan  nan],nan,nan,nan,962.2064767,1104.954233,1105.427169,nan,nan
0,119,15:40:46:654000,6,1,344,241.875,[-0.17254346  0.46473023  0.19550382],1,1,1,0.379098794,0,0,0,0.373000109,0.400376161,0.11679121,0.517167371,0.283584951,nan,nan,nan,[ nan  nan  nan],nan,nan,nan,962.2064767,1105.896045,1106.275144,nan,nan
0,120,15:40:47:605000,6,1,56,39.375,[ 1.         -0.06536751 -1.        ],1,1,1,0.285330342,0,0,0,0.379121601,0.400192735,0.116303345,0.516496081,0.28388939,nan,nan,nan,[ nan  nan  nan],nan,nan,nan,962.2064767,1106.837806,1107.123136,nan,nan
0,121,15:40:48:541000,6,1,309,217.265625,[-0.02583963  0.41510654  0.4753057 ],1,1,1,0.207562635,0,0,0,0.290663924,0.399211006,0.116286961,0.515497967,0.282924045,nan,nan,nan,[ nan  nan  nan],nan,nan,nan,962.2064767,1107.779602,1107.987165,nan,nan
0,122,15:40:49:493000,6,1,172,120.9375,[ 1.         -0.17098406  0.26502468],1,1,1,0.105767583,0,1,0,0.19955352,0.397586867,0.117118249,0.514705116,0.280468618,nan,nan,nan,[ nan  nan  nan],nan,nan,nan,962.2064767,1108.721396,1108.827164,nan,nan
0,123,15:40:53:830000,6,1,425,298.828125,[ 0.14916262  0.4475296  -0.79171567],1,1,1,0.059961164,1,0,0,0.124430461,0.395134604,0.119628684,0.514763288,0.27550592,nan,169.6439738,399,[-0.01644604  0.47203125 -0.40027452],nan,-18.47209875,1.358821606,962.2064767,1109.663184,1109.723145,1111.488365,1112.855224
0,124,15:40:54:766000,6,1,194,136.40625,[ 1.         -0.05248646  0.4355717 ],1,1,1,0.57356268,0,0,0,0.246430476,0.392341492,0.122963974,0.515305466,0.269377518,nan,nan,nan,[ nan  nan  nan],nan,nan,nan,962.2064767,1114.005425,1114.578988,nan,nan
0,125,15:40:55:717000,6,1,458,322.03125,[ 0.39968805  0.38805021 -1.        ],1,1,1,0.415727393,0,0,0,0.349750412,0.393839188,0.123548979,0.517388167,0.270290209,nan,nan,nan,[ nan  nan  nan],nan,nan,nan,962.2064767,1114.947221,1115.362949,nan,nan
0,126,15:40:56:653000,6,1,218,153.28125,[ 0.88146739  0.07882461  0.57255963],1,1,1,0.35396271,0,0,0,0.447750928,0.394018599,0.123057415,0.517076014,0.270961184,nan,nan,nan,[ nan  nan  nan],nan,nan,nan,962.2064767,1115.889004,1116.242967,nan,nan
0,127,15:40:57:589000,6,1,267,187.734375,[ 0.36292453  0.29880723  0.64662252],1,1,1,0.356105779,0,0,0,0.375265294,0.393692942,0.122608935,0.516301877,0.271084006,nan,nan,nan,[ nan  nan  nan],nan,nan,nan,962.2064767,1116.830808,1117.186914,nan,nan
0,128,15:40:58:541000,6,1,88,61.875,[ 1.         -0.22525759 -0.59993285],1,1,1,0.406316935,0,0,0,0.372128475,0.393389819,0.12215981,0.515549629,0.271230009,nan,nan,nan,[ nan  nan  nan],nan,nan,nan,962.2064767,1117.772608,1118.178925,nan,nan
0,129,15:40:59:477000,6,1,349,245.390625,[-0.17565689  0.46876851  0.14794518],1,1,1,0.296485019,0,0,0,0.352969244,0.393493236,0.121675639,0.515168876,0.271817597,nan,nan,nan,[ nan  nan  nan],nan,nan,nan,962.2064767,1118.714397,1119.010882,nan,nan
0,130,15:41:00:429000,6,1,11,7.734375,[ 0.9346595  0.1638529 -1.       ],1,1,1,0.594635856,0,0,0,0.43247927,0.39272333,0.121497144,0.514220474,0.271226186,nan,nan,nan,[ nan  nan  nan],nan,nan,nan,962.2064767,1119.656226,1120.250862,nan,nan
0,131,15:41:01:365000,6,1,378,265.78125,[-0.11745014  0.47867092 -0.15481012],1,1,1,0.404869787,0,0,0,0.431996887,0.394313192,0.122326648,0.51663984,0.271986544,nan,nan,nan,[ nan  nan  nan],nan,nan,nan,962.2064767,1120.597979,1121.002849,nan,nan
0,132,15:41:02:301000,6,1,179,125.859375,[ 1.         -0.13461442  0.32320413],1,1,1,0.567042243,0,0,1,0.522182629,0.394395666,0.121851417,0.516247083,0.272544249,nan,nan,nan,[ nan  nan  nan],nan,nan,nan,962.2064767,1121.539769,1122.106812,nan,nan
0,133,15:41:07:355000,6,1,306,215.15625,[-0.00395437  0.40897401  0.49412883],1,1,1,0.37722229,1,0,0,0.44971144,0.395734011,0.122319003,0.518053014,0.273415008,nan,-130.4808623,314,[-0.05944389  0.42463231  0.44192541],nan,5.324612285,2.05056097,962.2064767,1122.481574,1122.858796,1124.315083,1126.37369
0,134,15:41:08:291000,6,1,108,75.9375,[ 1.         -0.29242661 -0.36866329],1,nan,nan,nan,0,0,0,0.472132266,0.395591613,0.12185837,0.517449983,0.273733243,nan,nan,nan,[ nan  nan  nan],nan,nan,nan,962.2064767,1127.532243,nan,nan,nan
0,135,15:41:09:243000,6,0,315,221.484375,[-0.06571114  0.42643481  0.43495652],0,0,1,0.752573208,0,0,0,0.564897749,0.395591613,0.12185837,0.517449983,0.273733243,nan,nan,nan,[ nan  nan  nan],nan,nan,nan,962.2064767,1128.474032,1129.226605,nan,nan
0,136,15:41:10:179000,6,1,224,157.5,[ 0.82161942  0.11002479  0.59726488],1,1,1,0.442785881,0,0,0,0.597679544,0.398316664,0.125305525,0.523622189,0.273011138,nan,nan,nan,[ nan  nan  nan],nan,nan,nan,962.2064767,1129.415821,1129.858607,nan,nan
0,137,15:41:11:130000,6,1,475,333.984375,[ 0.53921875  0.34365981 -1.        ],1,1,1,0.332929162,0,0,0,0.509429417,0.398653552,0.124889518,0.52354307,0.273764034,nan,nan,nan,[ nan  nan  nan],nan,nan,nan,962.2064767,1130.357665,1130.690594,nan,nan
0,138,15:41:12:066000,6,1,398,279.84375,[-0.02203778  0.4726088  -0.38794338],1,1,1,0.303205594,0,0,0,0.359640212,0.398159383,0.124548596,0.522707979,0.273610787,nan,nan,nan,[ nan  nan  nan],nan,nan,nan,962.2064767,1131.299416,1131.602622,nan,nan
0,139,15:41:13:002000,6,1,88,61.875,[ 1.         -0.22525759 -0.59993285],1,1,1,0.281348688,0,0,0,0.305827815,0.397450773,0.124351808,0.521802581,0.273098965,nan,nan,nan,[ nan  nan  nan],nan,nan,nan,962.2064767,1132.241209,1132.522557,nan,nan
0,140,15:41:13:954000,6,1,495,348.046875,[ 0.70648511  0.27855169 -1.        ],1,1,1,0.179559623,0,1,0,0.254704635,0.396590757,0.124289736,0.520880494,0.272301021,nan,nan,nan,[ nan  nan  nan],nan,nan,nan,962.2064767,1133.183004,1133.362563,nan,nan
0,141,15:41:19:289000,6,1,121,85.078125,[ 1.         -0.31073281 -0.22964081],1,1,1,0.269413132,1,0,0,0.243440481,0.39499494,0.125212404,0.520207344,0.269782536,nan,-6.27729849,137,[ 1.         -0.30019022 -0.06473166],nan,11.19917349,2.342276899,962.2064767,1134.133149,1134.402563,1135.966643,1138.316955
0,142,15:41:20:241000,6,1,439,308.671875,[ 0.25114429  0.4263922  -1.        ],1,1,1,0.519244141,0,0,0,0.322738966,0.394078285,0.125211749,0.519290034,0.268866536,nan,nan,nan,[ nan  nan  nan],nan,nan,nan,962.2064767,1139.467173,1139.986417,nan,nan
0,143,15:41:21:177000,6,1,298,209.53125,[ 0.06008966  0.39105034  0.53969689],1,1,1,0.377421572,0,0,0,0.388692949,0.394985284,0.125208132,0.520193415,0.269777152,nan,nan,nan,[ nan  nan  nan],nan,nan,nan,962.2064767,1140.408964,1140.786386,nan,nan
0,144,15:41:22:113000,6,0,31,21.796875,[ 1.          0.06685157 -1.        ],0,0,1,0.611609919,0,0,0,0.502758544,0.394858926,0.12476576,0.519624686,0.270093166,nan,nan,nan,[ nan  nan  nan],nan,nan,nan,962.2064767,1141.350765,1141.962375,nan,nan
0,145,15:41:23:064000,6,1,215,151.171875,[ 0.91063986  0.06289474  0.55869515],1,1,1,0.445752308,0,0,0,0.478261266,0.396407147,0.125652247,0.522059394,0.270754901,nan,nan,nan,[ nan  nan  nan],nan,nan,nan,962.2064767,1142.29256,1142.738312,nan,nan
0,146,15:41:24:000000,6,1,370,260.15625,[-0.144806    0.47817873 -0.06718033],1,1,1,0.383947426,0,0,0,0.480436551,0.396757113,0.125274334,0.522031447,0.27148278,nan,nan,nan,[ nan  nan  nan],nan,nan,nan,962.2064767,1143.234346,1143.618294,nan,nan
0,147,15:41:24:936000,6,1,18,12.65625,[ 0.9886827   0.13116258 -1.        ],1,1,1,0.274156279,0,0,0,0.367952004,0.396666904,0.124837043,0.521503947,0.271829861,nan,nan,nan,[ nan  nan  nan],nan,nan,nan,962.2064767,1144.176135,1144.450291,nan,nan
0,148,15:41:25:888000,6,1,251,176.484375,[ 0.53557652  0.23650919  0.65528415],1,1,1,0.292326035,0,0,0,0.316809913,0.395810186,0.124817985,0.520628171,0.270992201,nan,nan,nan,[ nan  nan  nan],nan,nan,nan,962.2064767,1145.117943,1145.41027,nan,nan
0,149,15:41:26:824000,6,1,416,292.5,[ 0.08788162  0.4581175  -0.63016532],1,1,1,0.286526892,0,0,0,0.284336402,0.395091546,0.12468035,0.519771896,0.270411197,nan,nan,nan,[ nan  nan  nan],nan,nan,nan,962.2064767,1146.059723,1146.346249,nan,nan
0,150,15:41:27:760000,6,1,249,175.078125,[ 0.55727555  0.22802627  0.65408488],1,1,1,0.28868279,0,0,0,0.289178572,0.394342825,0.124574097,0.518916921,0.269768728,nan,nan,nan,[ nan  nan  nan],nan,nan,nan,962.2064767,1147.001518,1147.290201,nan,nan
0,151,15:41:28:711000,6,1,365,256.640625,[-0.15796203  0.47701659 -0.01391969],1,1,1,0.306882766,0,0,0,0.294030816,0.393619126,0.124452221,0.518071347,0.269166905,nan,nan,nan,[ nan  nan  nan],nan,nan,nan,962.2064767,1147.943334,1148.250217,nan,nan
0,152,15:41:29:647000,6,1,246,172.96875,[ 0.58976884  0.2150199   0.65133953],1,1,1,0.317112305,0,0,0,0.304225954,0.393029083,0.124232936,0.517262019,0.268796146,nan,nan,nan,[ nan  nan  nan],nan,nan,nan,962.2064767,1148.885088,1149.2022,nan,nan
0,153,15:41:30:599000,6,1,195,137.109375,[ 1.         -0.04692453  0.44239605],1,1,1,0.319279607,0,0,0,0.314424893,0.392516131,0.123968618,0.51648475,0.268547513,nan,nan,nan,[ nan  nan  nan],nan,nan,nan,962.2064767,1149.826895,1150.146175,nan,nan
0,154,15:41:31:535000,6,0,358,251.71875,[-0.17058391  0.47426832  0.05858744],0,0,1,0.537432714,0,0,0,0.391274875,0.392024611,0.12369653,0.515721141,0.268328081,nan,nan,nan,[ nan  nan  nan],nan,nan,nan,962.2064767,1150.768688,1151.306121,nan,nan
0,155,15:41:32:471000,6,1,6,4.21875,[ 0.89512908  0.18627278 -1.        ],1,1,1,0.427618189,0,0,0,0.42811017,0.392993998,0.123850083,0.516844082,0.269143915,nan,nan,nan,[ nan  nan  nan],nan,nan,nan,962.2064767,1151.710492,1152.13811,nan,nan
0,156,15:41:33:423000,6,1,53,37.265625,[ 1.         -0.04925756 -1.        ],1,1,1,0.413841481,0,0,0,0.459630795,0.393223298,0.123471244,0.516694542,0.269752054,nan,nan,nan,[ nan  nan  nan],nan,nan,nan,962.2064767,1152.652274,1153.066115,nan,nan
0,157,15:41:34:359000,6,1,163,114.609375,[ 1.         -0.2142478   0.18572368],1,1,1,0.375973568,0,0,0,0.405811079,0.393358944,0.123075706,0.51643465,0.270283238,nan,nan,nan,[ nan  nan  nan],nan,nan,nan,962.2064767,1153.594105,1153.970078,nan,nan
0,158,15:41:35:295000,6,1,96,67.5,[ 1.         -0.25681952 -0.50330248],1,1,1,0.34620353,0,0,0,0.37867286,0.393245314,0.122680837,0.515926151,0.270564476,nan,nan,nan,[ nan  nan  nan],nan,nan,nan,962.2064767,1154.535858,1154.882061,nan,nan
0,159,15:41:36:246000,6,1,493,346.640625,[ 0.68976908  0.28570078 -1.        ],1,1,1,0.308284014,0,0,0,0.343487037,0.392939848,0.122340235,0.515280083,0.270599612,nan,nan,nan,[ nan  nan  nan],nan,nan,nan,962.2064767,1155.477732,1155.786016,nan,nan
0,160,15:41:37:182000,6,1,380,267.1875,[-0.10951951  0.47853303 -0.17717739],1,1,1,0.470571079,0,0,0,0.375019541,0.392393681,0.122133161,0.514526842,0.27026052,nan,nan,nan,[ nan  nan  nan],nan,nan,nan,962.2064767,1156.419437,1156.890008,nan,nan
0,161,15:41:38:134000,6,1,428,300.9375,[ 0.17037832  0.44348657 -0.8686614 ],1,1,1,0.344753245,0,0,0,0.374536113,0.392894818,0.121900848,0.514795666,0.27099397,nan,nan,nan,[ nan  nan  nan],nan,nan,nan,962.2064767,1157.361236,1157.705989,nan,nan
0,162,15:41:39:070000,6,1,342,240.46875,[-0.17005262  0.46291356  0.21407524],1,1,1,0.258990012,0,0,0,0.358104779,0.392588184,0.121572349,0.514160533,0.271015835,nan,nan,nan,[ nan  nan  nan],nan,nan,nan,962.2064767,1158.302986,1158.561976,nan,nan
0,163,15:41:40:006000,6,1,218,153.28125,[ 0.88146739  0.07882461  0.57255963],1,1,1,0.333133861,0,0,0,0.312292373,0.391742626,0.121649261,0.513391887,0.270093364,nan,nan,nan,[ nan  nan  nan],nan,nan,nan,962.2064767,1159.24482,1159.577953,nan,nan
0,164,15:41:40:957000,6,1,369,259.453125,[-0.14769469  0.47799919 -0.05643387],1,1,1,0.263326612,0,0,0,0.285150162,0.391374017,0.121354596,0.512728614,0.270019421,nan,nan,nan,[ nan  nan  nan],nan,nan,nan,962.2064767,1160.186616,1160.449942,nan,nan
0,165,15:41:41:893000,6,1,10,7.03125,[ 0.9268115   0.16840058 -1.        ],1,1,1,0.25745876,0,0,0,0.284639744,0.390573721,0.121394934,0.511968655,0.269178787,nan,nan,nan,[ nan  nan  nan],nan,nan,nan,962.2064767,1161.128416,1161.385874,nan,nan
0,166,15:41:42:829000,6,1,374,262.96875,[-0.13203913  0.47863408 -0.11062844],1,1,1,0.323666384,0,0,0,0.281483919,0.38974692,0.121468406,0.511215326,0.268278514,nan,nan,nan,[ nan  nan  nan],nan,nan,nan,962.2064767,1162.070207,1162.393873,nan,nan
0,167,15:41:43:781000,6,1,55,38.671875,[ 1.         -0.05999965 -1.        ],1,1,1,0.309801582,0,0,0,0.296975575,0.389339015,0.121203482,0.510542498,0.268135533,nan,nan,nan,[ nan  nan  nan],nan,nan,nan,962.2064767,1163.012069,1163.321871,nan,nan
0,168,15:41:44:717000,6,1,171,120.234375,[ 1.         -0.17601187  0.25645091],1,1,1,0.336105134,0,0,0,0.323191033,0.388851056,0.12099063,0.509841686,0.267860425,nan,nan,nan,[ nan  nan  nan],nan,nan,nan,962.2064767,1163.953744,1164.289849,nan,nan
0,169,15:41:45:669000,6,1,252,177.1875,[ 0.52472169  0.24069367  0.65569401],1,1,1,0.282262421,0,0,0,0.309389712,0.388529434,0.120691064,0.509220498,0.267838371,nan,nan,nan,[ nan  nan  nan],nan,nan,nan,962.2064767,1164.895578,1165.177841,nan,nan
0,170,15:41:46:605000,6,1,309,217.265625,[-0.02583963  0.41510654  0.4753057 ],1,1,1,0.284427157,0,0,0,0.300931571,0.387885392,0.120607121,0.508492513,0.26727827,nan,nan,nan,[ nan  nan  nan],nan,nan,nan,962.2064767,1165.837367,1166.121794,nan,nan
0,171,15:41:47:541000,6,1,447,314.296875,[ 0.31246764  0.41164647 -1.        ],1,1,1,0.35061682,0,0,0,0.3057688,0.387262149,0.120509509,0.507771659,0.26675264,nan,nan,nan,[ nan  nan  nan],nan,nan,nan,962.2064767,1166.779161,1167.129778,nan,nan
0,172,15:41:48:492000,6,0,123,86.484375,[ 1.         -0.31144114 -0.20867286],0,0,1,0.440799615,0,0,0,0.358614531,0.387042716,0.120181419,0.507224136,0.266861297,nan,nan,nan,[ nan  nan  nan],nan,nan,nan,962.2064767,1167.720954,1168.161754,nan,nan
0,173,15:41:49:428000,6,1,495,348.046875,[ 0.70648511  0.27855169 -1.        ],1,1,1,0.354981074,0,0,0,0.382132503,0.387362698,0.119894532,0.50725723,0.267468166,nan,nan,nan,[ nan  nan  nan],nan,nan,nan,962.2064767,1168.662746,1169.017727,nan,nan
0,174,15:41:50:364000,6,1,104,73.125,[ 1.         -0.28235148 -0.41264457],1,1,1,0.429183082,0,0,0,0.408321257,0.387171091,0.119565084,0.506736174,0.267606007,nan,nan,nan,[ nan  nan  nan],nan,nan,nan,962.2064767,1169.604535,1170.033718,nan,nan
0,175,15:41:51:316000,6,1,54,37.96875,[ 1.         -0.05462921 -1.        ],1,1,1,0.359283177,0,0,0,0.381149111,0.38741822,0.119256185,0.506674404,0.268162035,nan,nan,nan,[ nan  nan  nan],nan,nan,nan,962.2064767,1170.546411,1170.905694,nan,nan
0,176,15:41:52:252000,6,1,151,106.171875,[ 1.         -0.26272029  0.07346267],1,1,1,0.273548739,0,0,0,0.354004999,0.387253688,0.118926321,0.506180008,0.268327367,nan,nan,nan,[ nan  nan  nan],nan,nan,nan,962.2064767,1171.488127,1171.761675,nan,nan
0,177,15:41:53:203000,6,1,19,13.359375,[ 0.99625917  0.12637453 -1.        ],1,1,1,0.219743659,0,0,0,0.284191858,0.386592612,0.118894789,0.505487401,0.267697823,nan,nan,nan,[ nan  nan  nan],nan,nan,nan,962.2064767,1172.429915,1172.649658,nan,nan
0,178,15:41:54:139000,6,1,248,174.375,[ 0.5681159   0.2237282   0.65329577],1,1,1,0.157929083,0,1,0,0.217073827,0.385628167,0.119223515,0.504851682,0.266404653,nan,nan,nan,[ nan  nan  nan],nan,nan,nan,962.2064767,1173.371707,1173.529636,nan,nan
0,179,15:41:59:428000,6,1,37,26.015625,[ 1.          0.03585655 -1.        ],1,1,1,0.280108804,1,0,0,0.219260515,0.384319552,0.120119996,0.504439548,0.264199556,nan,87.23423817,4,[ 0.87912605  0.19501404 -1.        ],nan,-23.24986317,2.30073609,962.2064767,1174.313498,1174.593607,1176.138684,1178.447359
0,180,15:42:00:379000,6,1,279,196.171875,[ 0.23815758  0.33893035  0.61897842],1,nan,nan,nan,0,0,0,0.219018944,0.383724062,0.120033599,0.503757661,0.263690463,nan,nan,nan,[ nan  nan  nan],nan,nan,nan,962.2064767,1179.605923,nan,nan,nan
0,181,15:42:01:315000,6,1,69,48.515625,[ 1.         -0.1342072  -0.93964801],1,1,1,0.069836329,0,0,0,0.174972567,0.383724062,0.120033599,0.503757661,0.263690463,nan,nan,nan,[ nan  nan  nan],nan,nan,nan,962.2064767,1180.547663,1180.617499,nan,nan
0,182,15:42:02:251000,6,1,484,340.3125,[ 0.61439895  0.31611274 -1.        ],1,1,1,0.287940969,0,0,0,0.178888649,0.381940609,0.121995181,0.50393579,0.259945428,nan,nan,nan,[ nan  nan  nan],nan,nan,nan,962.2064767,1181.489458,1181.777399,nan,nan
0,183,15:42:03:203000,6,1,108,75.9375,[ 1.         -0.29242661 -0.36866329],1,1,1,0.242150515,0,1,0,0.199975938,0.381409538,0.121853925,0.503263462,0.259555613,nan,nan,nan,[ nan  nan  nan],nan,nan,nan,962.2064767,1182.431252,1182.673402,nan,nan
0,184,15:42:07:446000,6,1,257,180.703125,[ 0.4704729   0.26103985  0.65584138],1,1,1,0.220359467,1,0,0,0.250150317,0.380627184,0.121956135,0.502583319,0.258671048,nan,-107.6379956,281,[ 0.2180834   0.34506839  0.61264442],nan,16.93487056,1.258791015,962.2064767,1183.373046,1183.593405,1185.198229,1186.465064
0,185,15:42:08:398000,6,1,145,101.953125,[ 1.         -0.28166741  0.01505517],1,1,1,0.513658535,0,0,0,0.325389506,0.379731833,0.122200254,0.501932087,0.25753158,nan,nan,nan,[ nan  nan  nan],nan,nan,nan,962.2064767,1187.623612,1188.13727,nan,nan
0,186,15:42:09:334000,6,0,431,303.046875,[ 0.19195726  0.43918129 -0.98229877],0,1,0,0.291884136,0,0,0,0.341967379,0.38047587,0.122266243,0.502742114,0.258209627,nan,nan,nan,[ nan  nan  nan],nan,nan,nan,962.2064767,1188.565406,1188.85729,nan,nan
0,187,15:42:10:270000,6,1,89,62.578125,[ 1.         -0.2294841  -0.58737049],1,1,1,0.406057783,0,0,0,0.403866818,0.379986413,0.12210473,0.502091144,0.257881683,nan,nan,nan,[ nan  nan  nan],nan,nan,nan,962.2064767,1189.507193,1189.913251,nan,nan
0,188,15:42:11:221000,6,0,148,104.0625,[ 1.         -0.27269559  0.04442646],0,1,0,0.336241125,0,0,0,0.344727681,0.380129663,0.121784066,0.501913728,0.258345597,nan,nan,nan,[ nan  nan  nan],nan,nan,nan,962.2064767,1190.448991,1190.785232,nan,nan
0,189,15:42:12:157000,6,1,371,260.859375,[-0.14179361  0.47833194 -0.07797326],1,1,1,0.59439438,0,0,0,0.445564429,0.379889834,0.121493955,0.50138379,0.258395879,nan,nan,nan,[ nan  nan  nan],nan,nan,nan,962.2064767,1191.390778,1191.985172,nan,nan
0,190,15:42:13:093000,6,1,145,101.953125,[ 1.         -0.28166741  0.01505517],1,1,1,0.412603308,0,0,0,0.447746271,0.38105562,0.122185379,0.503240999,0.258870241,nan,nan,nan,[ nan  nan  nan],nan,nan,nan,962.2064767,1192.332577,1192.74518,nan,nan
0,191,15:42:14:045000,6,1,92,64.6875,[ 1.         -0.24170366 -0.55060884],1,1,1,0.374795835,0,0,0,0.460597841,0.381226148,0.121876654,0.503102802,0.259349494,nan,nan,nan,[ nan  nan  nan],nan,nan,nan,962.2064767,1193.27437,1193.649166,nan,nan
0,192,15:42:14:981000,6,1,417,293.203125,[ 0.0945046   0.45705356 -0.6457202 ],1,1,1,0.328978298,0,0,0,0.372125814,0.381191577,0.121549496,0.502741073,0.25964208,nan,nan,nan,[ nan  nan  nan],nan,nan,nan,962.2064767,1194.216168,1194.545146,nan,nan
0,193,15:42:15:933000,6,0,365,256.640625,[-0.15796203  0.47701659 -0.01391969],0,1,0,0.28316133,0,0,0,0.328978488,0.380912361,0.121283857,0.502196218,0.259628504,nan,nan,nan,[ nan  nan  nan],nan,nan,nan,962.2064767,1195.157956,1195.441118,nan,nan
0,194,15:42:16:869000,6,1,257,180.703125,[ 0.4704729   0.26103985  0.65584138],1,1,1,0.613342449,0,0,0,0.408494025,0.380392409,0.121169658,0.501562067,0.259222751,nan,nan,nan,[ nan  nan  nan],nan,nan,nan,962.2064767,1196.099747,1196.713089,nan,nan
0,195,15:42:17:805000,6,1,160,112.5,[ 1.         -0.22750142  0.15829752],1,1,1,0.495489349,0,0,0,0.463997709,0.381624949,0.122024605,0.503649553,0.259600344,nan,nan,nan,[ nan  nan  nan],nan,nan,nan,962.2064767,1197.041543,1197.537032,nan,nan
0,196,15:42:18:756000,6,1,4,2.8125,[ 0.87912605  0.19501404 -1.        ],1,1,1,0.529697481,0,0,1,0.546176427,0.382224235,0.121981613,0.504205848,0.260242622,nan,nan,nan,[ nan  nan  nan],nan,nan,nan,962.2064767,1197.983334,1198.513031,nan,nan
0,197,15:42:23:826000,6,1,467,328.359375,[ 0.47300519  0.36577567 -1.        ],1,1,1,0.53989509,1,0,0,0.521693974,0.382996346,0.122126493,0.505122839,0.260869853,nan,149.277589,428,[ 0.17037832  0.44348657 -0.8686614 ],nan,-27.63696405,2.092261717,962.2064767,1198.925125,1199.46502,1200.750308,1202.850614
0,198,15:42:24:762000,6,0,144,101.25,[ 1.         -0.28442319  0.00519445],0,0,1,0.648093975,0,0,0,0.572562182,0.383813527,0.122330477,0.506144004,0.261483051,nan,nan,nan,[ nan  nan  nan],nan,nan,nan,962.2064767,1204.00081,1204.648904,nan,nan
0,199,15:42:25:714000,6,1,438,307.96875,[ 0.24362256  0.42809644 -1.        ],1,1,1,0.530268529,0,0,0,0.572752531,0.385182856,0.123479633,0.508662489,0.261703223,nan,nan,nan,[ nan  nan  nan],nan,nan,nan,962.2064767,1204.942614,1205.472883,nan,nan
0,200,15:42:26:650000,6,1,370,260.15625,[-0.144806    0.47817873 -0.06718033],1,0,0,0.396475982,0,0,0,0.524946162,0.38593072,0.123598426,0.509529146,0.262332294,nan,nan,nan,[ nan  nan  nan],nan,nan,nan,962.2064767,1205.884395,1206.280871,nan,nan
0,201,15:42:27:586000,6,1,193,135.703125,[ 1.         -0.05804539  0.42865879],1,1,1,0.630623845,0,0,1,0.519122785,0.385984799,0.123283401,0.509268199,0.262701398,nan,nan,nan,[ nan  nan  nan],nan,nan,nan,962.2064767,1206.826182,1207.456806,nan,nan
0,202,15:42:31:689000,6,0,398,279.84375,[-0.02203778  0.4726088  -0.38794338],0,0,1,0.496830157,1,0,0,0.507976661,0.387232957,0.124197594,0.511430551,0.263035363,nan,-175.9336812,378,[-0.11745014  0.47867092 -0.15481012],nan,-13.91006877,1.092097217,962.2064767,1207.767958,1208.264789,1209.601492,1210.701628
0,203,15:42:32:625000,6,1,76,53.4375,[ 1.         -0.16967451 -0.77336583],1,1,1,0.612521657,0,0,0,0.579991886,0.387789288,0.12412657,0.511915858,0.263662717,nan,nan,nan,[ nan  nan  nan],nan,nan,nan,962.2064767,1211.860187,1212.472709,nan,nan
0,204,15:42:33:576000,6,1,460,323.4375,[ 0.41584892  0.38333493 -1.        ],1,1,1,0.566709536,0,0,0,0.558687116,0.3889243,0.124833393,0.513757693,0.264090907,nan,nan,nan,[ nan  nan  nan],nan,nan,nan,962.2064767,1212.801989,1213.368699,nan,nan
0,205,15:42:34:512000,6,1,277,194.765625,[ 0.25847065  0.33263616  0.62482424],1,1,1,0.576910281,0,0,1,0.585380491,0.389817693,0.125152313,0.514970006,0.26466538,nan,nan,nan,[ nan  nan  nan],nan,nan,nan,962.2064767,1213.743775,1214.320686,nan,nan
0,206,15:42:39:270000,6,1,179,125.859375,[ 1.         -0.13461442  0.32320413],1,1,1,0.595093151,1,0,0,0.579570989,0.390753156,0.125534573,0.516287729,0.265218583,nan,120.7685417,468,[ 0.48123648  0.36313162 -1.        ],nan,-156.6279167,1.775613834,962.2064767,1214.685567,1215.28066,1216.510747,1218.29435
0,207,15:42:40:206000,6,1,405,284.765625,[ 0.01846332  0.46800938 -0.47629333],1,1,1,0.691987398,0,0,0,0.621330276,0.391769773,0.126044549,0.517814322,0.265725223,nan,nan,nan,[ nan  nan  nan],nan,nan,nan,962.2064767,1219.444539,1220.136526,nan,nan
0,208,15:42:41:158000,6,1,104,73.125,[ 1.         -0.28235148 -0.41264457],1,1,1,0.534215972,0,0,0,0.60709884,0.393255999,0.127485533,0.520741532,0.265770466,nan,nan,nan,[ nan  nan  nan],nan,nan,nan,962.2064767,1220.386326,1220.920542,nan,nan
0,209,15:42:42:094000,6,1,451,317.109375,[ 0.34383096  0.40351836 -1.        ],1,1,1,0.552394566,0,0,1,0.592865979,0.393950383,0.127553508,0.521503891,0.266396875,nan,nan,nan,[ nan  nan  nan],nan,nan,nan,962.2064767,1221.328122,1221.880516,nan,nan
0,210,15:42:46:634000,6,1,329,231.328125,[-0.13605328  0.44820379  0.32783374],1,1,1,0.522578627,1,0,0,0.536396389,0.39472707,0.127720795,0.522447865,0.267006275,nan,-143.0198123,331,[-0.14329784  0.45080175  0.31116671],nan,1.691687251,1.558843444,962.2064767,1222.269917,1222.792495,1224.086761,1225.653641
0,211,15:42:47:570000,6,1,373,262.265625,[-0.13540771  0.47855957 -0.09969749],1,1,1,0.668522548,0,0,0,0.581165247,0.395350736,0.12771991,0.523070646,0.267630826,nan,nan,nan,[ nan  nan  nan],nan,nan,nan,962.2064767,1226.803848,1227.472371,nan,nan
0,212,15:42:48:521000,6,0,93,65.390625,[ 1.         -0.2456143  -0.53861988],0,0,1,0.446682577,0,0,0,0.545927918,0.396676813,0.128816449,0.525493262,0.267860364,nan,nan,nan,[ nan  nan  nan],nan,nan,nan,962.2064767,1227.745645,1228.192327,nan,nan
0,213,15:42:49:457000,6,1,162,113.90625,[ 1.         -0.21873956  0.17663297],1,1,1,0.37691239,0,0,0,0.497372505,0.396918387,0.128551688,0.525470075,0.268366699,nan,nan,nan,[ nan  nan  nan],nan,nan,nan,962.2064767,1228.68744,1229.064353,nan,nan
0,214,15:42:50:393000,6,1,506,355.78125,[ 0.79777474  0.23670313 -1.        ],1,1,1,0.363063838,0,0,0,0.395552935,0.396822204,0.128249763,0.525071967,0.268572441,nan,nan,nan,[ nan  nan  nan],nan,nan,nan,962.2064767,1229.629227,1229.99229,nan,nan
0,215,15:42:51:345000,6,0,137,96.328125,[ 1.         -0.30019022 -0.06473166],0,0,1,0.469232837,0,0,0,0.403069689,0.396660681,0.127963783,0.524624464,0.268696897,nan,nan,nan,[ nan  nan  nan],nan,nan,nan,962.2064767,1230.571024,1231.040256,nan,nan
0,216,15:42:52:281000,6,1,393,276.328125,[-0.04894566  0.47510217 -0.32744323],1,1,1,0.367461163,0,0,0,0.39991928,0.397006262,0.127756468,0.52476273,0.269249794,nan,nan,nan,[ nan  nan  nan],nan,nan,nan,962.2064767,1231.512815,1231.880276,nan,nan
0,217,15:42:53:217000,6,1,32,22.5,[ 1.         0.0617358 -1.       ],1,1,1,0.337625838,0,0,0,0.391439946,0.396866238,0.12746952,0.524335758,0.269396718,nan,nan,nan,[ nan  nan  nan],nan,nan,nan,962.2064767,1232.454607,1232.792233,nan,nan
0,218,15:42:54:168000,6,1,148,104.0625,[ 1.         -0.27269559  0.04442646],1,1,1,0.467831589,0,0,0,0.390972863,0.396586802,0.127233292,0.523820094,0.269353511,nan,nan,nan,[ nan  nan  nan],nan,nan,nan,962.2064767,1233.396398,1233.864229,nan,nan
0,219,15:42:55:104000,6,1,273,191.953125,[ 0.29973296  0.31957719  0.63503803],1,1,1,0.526013182,0,0,0,0.443823536,0.396921285,0.127027664,0.523948948,0.269893621,nan,nan,nan,[ nan  nan  nan],nan,nan,nan,962.2064767,1234.338191,1234.864205,nan,nan
0,220,15:42:56:040000,6,1,491,345.234375,[ 0.67303348  0.29270771 -1.        ],1,1,1,0.408198571,0,0,0,0.467347781,0.397524518,0.127035955,0.524560473,0.270488563,nan,nan,nan,[ nan  nan  nan],nan,nan,nan,962.2064767,1235.279987,1235.688186,nan,nan
0,221,15:42:56:992000,6,1,292,205.3125,[ 0.11288167  0.37606958  0.56926185],1,1,1,0.322358077,0,0,0,0.41885661,0.397574165,0.126742259,0.524316424,0.270831905,nan,nan,nan,[ nan  nan  nan],nan,nan,nan,962.2064767,1236.22178,1236.544138,nan,nan
0,222,15:42:57:928000,6,1,96,67.5,[ 1.         -0.25681952 -0.50330248],1,1,1,0.412570807,0,0,0,0.381042485,0.397225942,0.12655158,0.523777523,0.270674362,nan,nan,nan,[ nan  nan  nan],nan,nan,nan,962.2064767,1237.16357,1237.576141,nan,nan
0,223,15:42:58:880000,6,1,488,343.125,[ 0.64790771  0.30295149 -1.        ],1,1,1,0.382771404,0,0,0,0.372566763,0.397296656,0.126263927,0.523560583,0.271032729,nan,nan,nan,[ nan  nan  nan],nan,nan,nan,962.2064767,1238.10536,1238.488131,nan,nan
0,224,15:42:59:816000,6,1,377,265.078125,[-0.12125986  0.47870083 -0.1436959 ],1,1,1,0.400937454,0,0,0,0.398759888,0.397230026,0.125977822,0.523207848,0.271252204,nan,nan,nan,[ nan  nan  nan],nan,nan,nan,962.2064767,1239.047154,1239.448091,nan,nan
0,225,15:43:00:752000,6,1,40,28.125,[ 1.          0.02011655 -1.        ],1,1,1,0.379090241,0,0,0,0.387599699,0.397246955,0.125690121,0.522937076,0.271556834,nan,nan,nan,[ nan  nan  nan],nan,nan,nan,962.2064767,1239.988993,1240.368083,nan,nan
0,226,15:43:01:703000,6,1,138,97.03125,[ 1.         -0.29832988 -0.05465081],1,1,1,0.309334024,0,0,0,0.363120573,0.397164425,0.125410083,0.522574508,0.271754341,nan,nan,nan,[ nan  nan  nan],nan,nan,nan,962.2064767,1240.930743,1241.240077,nan,nan
0,227,15:43:02:639000,6,1,211,148.359375,[ 0.94867577  0.04136069  0.53868916],1,1,1,0.415507299,0,0,0,0.367977188,0.396767002,0.125264803,0.522031805,0.271502199,nan,nan,nan,[ nan  nan  nan],nan,nan,nan,962.2064767,1241.872544,1242.288051,nan,nan
0,228,15:43:03:575000,6,1,338,237.65625,[-0.16289136  0.45892871  0.25039916],1,1,1,0.505664721,0,0,0,0.410168681,0.396851418,0.124988657,0.521840074,0.271862761,nan,nan,nan,[ nan  nan  nan],nan,nan,nan,962.2064767,1242.814325,1243.31999,nan,nan
0,229,15:43:04:527000,6,1,444,312.1875,[ 0.2892412   0.41740978 -1.        ],1,1,1,0.443880651,0,0,0,0.455017557,0.39733937,0.124919844,0.522259213,0.272419526,nan,nan,nan,[ nan  nan  nan],nan,nan,nan,962.2064767,1243.756116,1244.199997,nan,nan
0,230,15:43:05:463000,6,1,182,127.96875,[ 1.         -0.11852384  0.34708947],1,1,1,0.422047693,0,0,0,0.457197688,0.397547143,0.124679305,0.522226449,0.272867838,nan,nan,nan,[ nan  nan  nan],nan,nan,nan,962.2064767,1244.697914,1245.119961,nan,nan
0,231,15:43:06:414000,6,1,60,42.1875,[ 1.         -0.08678377 -1.        ],1,1,1,0.39222149,0,0,0,0.419383278,0.397656035,0.124412606,0.522068641,0.273243428,nan,nan,nan,[ nan  nan  nan],nan,nan,nan,962.2064767,1245.639701,1246.031922,nan,nan
0,232,15:43:07:350000,6,1,434,305.15625,[ 0.21388182  0.43461034 -1.        ],1,1,1,0.322433057,0,0,0,0.378900747,0.397631988,0.124137576,0.521769564,0.273494412,nan,nan,nan,[ nan  nan  nan],nan,nan,nan,962.2064767,1246.58149,1246.903923,nan,nan
0,233,15:43:08:286000,6,1,20,14.0625,[ 1.          0.12155819 -1.        ],1,1,1,0.54859965,0,0,0,0.421084732,0.397300715,0.12396392,0.521264635,0.273336796,nan,nan,nan,[ nan  nan  nan],nan,nan,nan,962.2064767,1247.523293,1248.071893,nan,nan
0,234,15:43:09:238000,6,1,143,100.546875,[ 1.         -0.28705753 -0.00469999],1,1,1,0.654784614,0,0,0,0.508605774,0.397964307,0.124095183,0.52205949,0.273869124,nan,nan,nan,[ nan  nan  nan],nan,nan,nan,962.2064767,1248.465084,1249.119868,nan,nan
0,235,15:43:10:174000,6,1,415,291.796875,[ 0.08130773  0.45915368 -0.61496802],1,1,1,0.54497237,0,0,1,0.582785545,0.399085793,0.124976517,0.52406231,0.274109276,nan,nan,nan,[ nan  nan  nan],nan,nan,nan,962.2064767,1249.406872,1249.951844,nan,nan
0,236,15:43:14:433000,6,1,322,226.40625,[-0.10506723  0.43811622  0.38355935],1,1,1,0.49113935,1,0,0,0.563632111,0.399720083,0.125073389,0.524793471,0.274646694,nan,-142.1743242,330,[-0.13976633  0.44951833  0.31954025],nan,5.768074236,1.267227014,962.2064767,1250.348704,1250.839843,1252.173846,1253.449016
0,237,15:43:15:369000,6,0,156,109.6875,[ 1.         -0.24406061  0.12104147],0,0,1,0.784173849,0,0,0,0.606761857,0.400115837,0.12494661,0.525062447,0.275169227,nan,nan,nan,[ nan  nan  nan],nan,nan,nan,962.2064767,1254.607562,1255.391736,nan,nan
0,238,15:43:16:320000,6,1,288,202.5,[ 0.15000513  0.36533195  0.58668724],1,1,1,0.554363441,0,0,0,0.609892214,0.401771259,0.127190415,0.528961674,0.274580845,nan,nan,nan,[ nan  nan  nan],nan,nan,nan,962.2064767,1255.549352,1256.103715,nan,nan
0,239,15:43:17:256000,6,1,376,264.375,[-0.12496282  0.47870467 -0.13262763],1,1,1,0.66852825,0,0,0,0.669021847,0.402426162,0.127308581,0.529734742,0.275117581,nan,nan,nan,[ nan  nan  nan],nan,nan,nan,962.2064767,1256.491152,1257.15968,nan,nan
0,240,15:43:18:208000,6,1,421,296.015625,[ 0.12147167  0.45251804 -0.71261034],1,1,1,0.526728774,0,0,1,0.583206822,0.40356335,0.128216719,0.531780069,0.275346631,nan,nan,nan,[ nan  nan  nan],nan,nan,nan,962.2064767,1257.43295,1257.959679,nan,nan
0,241,15:43:22:779000,6,1,13,9.140625,[ 0.95026217  0.15466406 -1.        ],1,1,1,0.480601907,1,0,0,0.558619644,0.404087458,0.128194574,0.532282033,0.275892884,nan,98.36588612,500,[ 0.74814593  0.26005829 -1.        ],nan,-17.50651112,1.592176046,962.2064767,1258.383055,1258.863657,1260.199917,1261.80014
0,242,15:43:23:715000,6,0,442,310.78125,[ 0.27390726  0.42109554 -1.        ],0,nan,nan,nan,0,0,0,0.50366534,0.404411672,0.128019201,0.532430873,0.276392471,nan,nan,nan,[ nan  nan  nan],nan,nan,nan,962.2064767,1262.950349,nan,nan,nan
0,243,15:43:24:666000,6,1,506,355.78125,[ 0.79777474  0.23670313 -1.        ],1,1,1,0.427352194,0,0,0,0.45397705,0.404411672,0.128019201,0.532430873,0.276392471,nan,nan,nan,[ nan  nan  nan],nan,nan,nan,962.2064767,1263.892136,1264.319488,nan,nan
0,244,15:43:25:602000,6,1,218,153.28125,[ 0.88146739  0.07882461  0.57255963],1,1,1,0.517544968,0,0,0,0.472448581,0.404508467,0.127757487,0.532265954,0.27675098,nan,nan,nan,[ nan  nan  nan],nan,nan,nan,962.2064767,1264.833931,1265.351476,nan,nan
0,245,15:43:26:538000,6,1,248,174.375,[ 0.5681159   0.2237282   0.65329577],1,1,1,0.431746668,0,0,0,0.458881277,0.404983411,0.127698301,0.532681712,0.277285109,nan,nan,nan,[ nan  nan  nan],nan,nan,nan,962.2064767,1265.775741,1266.207487,nan,nan
0,246,15:43:27:490000,6,0,74,52.03125,[ 1.         -0.15971516 -0.81044328],0,0,1,0.481930455,0,0,0,0.47707403,0.405095391,0.127442579,0.53253797,0.277652811,nan,nan,nan,[ nan  nan  nan],nan,nan,nan,962.2064767,1266.717519,1267.199449,nan,nan
0,247,15:43:28:426000,6,1,117,82.265625,[ 1.         -0.30758797 -0.27188654],1,1,1,0.364141788,0,0,0,0.425939637,0.405415537,0.127273067,0.532688604,0.27814247,nan,nan,nan,[ nan  nan  nan],nan,nan,nan,962.2064767,1267.659307,1268.023449,nan,nan
0,248,15:43:29:378000,6,1,367,258.046875,[-0.15309091  0.4775609  -0.03508163],1,1,1,0.310314185,0,0,0,0.385462142,0.405244276,0.127036449,0.532280726,0.278207827,nan,nan,nan,[ nan  nan  nan],nan,nan,nan,962.2064767,1268.601111,1268.911425,nan,nan
0,249,15:43:30:314000,6,1,197,138.515625,[ 1.         -0.0357976   0.45577474],1,1,1,0.328510455,0,0,0,0.334322142,0.404852003,0.126919884,0.531771888,0.277932119,nan,nan,nan,[ nan  nan  nan],nan,nan,nan,962.2064767,1269.542899,1269.87141,nan,nan
0,250,15:43:31:250000,6,1,372,261.5625,[-0.13866002  0.47845887 -0.08881238],1,1,1,0.38665299,0,0,0,0.341825876,0.404537841,0.126752717,0.531290557,0.277785124,nan,nan,nan,[ nan  nan  nan],nan,nan,nan,962.2064767,1270.484689,1270.871342,nan,nan
0,251,15:43:32:201000,6,1,252,177.1875,[ 0.52472169  0.24069367  0.65569401],1,1,1,0.348834968,0,0,0,0.354666138,0.404464542,0.126497872,0.530962414,0.277966671,nan,nan,nan,[ nan  nan  nan],nan,nan,nan,962.2064767,1271.426487,1271.775322,nan,nan
0,252,15:43:33:137000,6,1,485,341.015625,[ 0.62277456  0.31287562 -1.        ],1,1,1,0.303096402,0,0,0,0.346194787,0.404237483,0.126289263,0.530526746,0.277948219,nan,nan,nan,[ nan  nan  nan],nan,nan,nan,962.2064767,1272.368251,1272.671348,nan,nan
0,253,15:43:34:073000,6,1,116,81.5625,[ 1.         -0.30644692 -0.28251544],1,1,1,0.297225415,0,0,0,0.316385595,0.40382634,0.12619651,0.53002285,0.27762983,nan,nan,nan,[ nan  nan  nan],nan,nan,nan,962.2064767,1273.310066,1273.607292,nan,nan
0,254,15:43:35:025000,6,0,450,316.40625,[ 0.33594973  0.40559833 -1.        ],0,1,0,0.275420966,0,0,0,0.291914261,0.403394757,0.126122576,0.529517333,0.277272182,nan,nan,nan,[ nan  nan  nan],nan,nan,nan,962.2064767,1274.251857,1274.527278,nan,nan
0,255,15:43:35:961000,6,1,205,144.140625,[ 1.          0.008548    0.50553524],1,1,1,0.413585465,0,0,0,0.328743948,0.402878734,0.126129039,0.529007773,0.276749695,nan,nan,nan,[ nan  nan  nan],nan,nan,nan,962.2064767,1275.193649,1275.607235,nan,nan
0,256,15:43:36:912000,6,1,51,35.859375,[ 1.         -0.03851602 -1.        ],1,1,1,0.295783398,0,0,0,0.328263276,0.402921733,0.125877335,0.528799067,0.277044398,nan,nan,nan,[ nan  nan  nan],nan,nan,nan,962.2064767,1276.135453,1276.431237,nan,nan
0,257,15:43:37:848000,6,1,221,155.390625,[ 0.85178146  0.09454116  0.58542294],1,1,1,0.361995012,0,0,0,0.357121292,0.40249318,0.125807209,0.528300388,0.276685971,nan,nan,nan,[ nan  nan  nan],nan,nan,nan,962.2064767,1277.077235,1277.43923,nan,nan
0,258,15:43:38:784000,6,1,362,254.53125,[-0.16423973  0.47600016  0.01745785],1,1,1,0.364172578,0,0,0,0.340650329,0.402331832,0.125582262,0.527914094,0.276749571,nan,nan,nan,[ nan  nan  nan],nan,nan,nan,962.2064767,1278.019029,1278.383202,nan,nan
0,259,15:43:39:736000,6,1,72,50.625,[ 1.         -0.14960778 -0.85320374],1,1,1,0.518332403,0,0,0,0.414833331,0.402180407,0.125355801,0.527536208,0.276824606,nan,nan,nan,[ nan  nan  nan],nan,nan,nan,962.2064767,1278.960815,1279.479147,nan,nan
0,260,15:43:40:672000,6,1,141,99.140625,[ 1.         -0.29195274 -0.02458685],1,1,1,0.584539742,0,0,0,0.489014908,0.402639505,0.125319912,0.527959417,0.277319593,nan,nan,nan,[ nan  nan  nan],nan,nan,nan,962.2064767,1279.90261,1280.48715,nan,nan
0,261,15:43:41:608000,6,1,212,149.0625,[ 0.93926289  0.04677313  0.543851  ],1,1,1,0.594725092,0,0,1,0.565865746,0.403355648,0.125590617,0.528946265,0.277765032,nan,nan,nan,[ nan  nan  nan],nan,nan,nan,962.2064767,1280.844404,1281.439129,nan,nan
0,262,15:43:45:789000,6,1,81,56.953125,[ 1.         -0.19380425 -0.69421917],1,1,1,0.532924771,1,0,0,0.570729868,0.404106116,0.125913469,0.530019585,0.278192648,nan,42.78968108,67,[ 1.         -0.12380467 -1.        ],nan,-9.742806076,1.175461079,962.2064767,1281.786194,1282.319119,1283.619712,1284.803204
0,263,15:43:46:725000,6,1,154,108.28125,[ 1.         -0.25181315  0.10213817],1,nan,nan,nan,0,0,0,0.563824932,0.404609314,0.125923942,0.530533256,0.278685372,nan,nan,nan,[ nan  nan  nan],nan,nan,nan,962.2064767,1285.961744,nan,nan,nan
0,264,15:43:47:676000,6,1,451,317.109375,[ 0.34383096  0.40351836 -1.        ],1,1,1,0.663407636,0,0,0,0.598166204,0.404609314,0.125923942,0.530533256,0.278685372,nan,nan,nan,[ nan  nan  nan],nan,nan,nan,962.2064767,1286.903539,1287.566946,nan,nan
0,265,15:43:48:612000,6,1,58,40.78125,[ 1.         -0.07608966 -1.        ],1,1,1,0.585591747,0,0,0,0.624499692,0.405616312,0.126707279,0.532323591,0.278909033,nan,nan,nan,[ nan  nan  nan],nan,nan,nan,962.2064767,1287.845339,1288.430931,nan,nan
0,266,15:43:49:564000,6,1,226,158.90625,[ 0.80126593  0.12020899  0.60458277],1,1,1,0.627787422,0,0,1,0.625595602,0.406313891,0.126954982,0.533268873,0.279358909,nan,nan,nan,[ nan  nan  nan],nan,nan,nan,962.2064767,1288.787127,1289.414914,nan,nan
0,267,15:43:53:994000,6,1,282,198.28125,[ 0.20814231  0.34807905  0.6092955 ],1,1,1,0.573970653,1,0,0,0.595783274,0.407169001,0.127451914,0.534620916,0.279717087,nan,-126.6456492,308,[-0.01868286  0.41309748  0.48168233],nan,18.36439916,1.433807629,962.2064767,1289.728927,1290.302898,1291.562437,1293.004295
0,268,15:43:54:930000,6,0,345,242.578125,[-0.17351954  0.46559515  0.18611928],0,0,1,0.739954846,0,0,0,0.64723764,0.407810546,0.127624891,0.535435437,0.280185655,nan,nan,nan,[ nan  nan  nan],nan,nan,nan,962.2064767,1294.162851,1294.902806,nan,nan
0,269,15:43:55:866000,6,1,421,296.015625,[ 0.12147167  0.45251804 -0.71261034],1,1,1,0.390176209,0,0,0,0.568033903,0.409083129,0.129022355,0.538105484,0.280060774,nan,nan,nan,[ nan  nan  nan],nan,nan,nan,962.2064767,1295.104638,1295.494814,nan,nan
0,270,15:43:56:818000,6,1,258,181.40625,[ 0.45964229  0.26499291  0.65549006],1,1,1,0.432318286,0,0,0,0.520816447,0.409010966,0.128781171,0.537792137,0.280229795,nan,nan,nan,[ nan  nan  nan],nan,nan,nan,962.2064767,1296.046432,1296.47875,nan,nan
0,271,15:43:57:754000,6,1,88,61.875,[ 1.         -0.22525759 -0.59993285],1,1,1,0.362514173,0,0,0,0.395002889,0.409099587,0.128544111,0.537643697,0.280555476,nan,nan,nan,[ nan  nan  nan],nan,nan,nan,962.2064767,1296.988224,1297.350738,nan,nan
0,272,15:43:58:706000,6,1,339,238.359375,[-0.16495584  0.45996923  0.2414231 ],1,1,1,0.34872264,0,0,0,0.381185033,0.408923127,0.128332336,0.537255462,0.280590791,nan,nan,nan,[ nan  nan  nan],nan,nan,nan,962.2064767,1297.930016,1298.278739,nan,nan
0,273,15:43:59:642000,6,1,165,116.015625,[ 1.         -0.20505638  0.20374544],1,1,1,0.374904457,0,0,0,0.36204709,0.408695955,0.128143141,0.536839097,0.280552814,nan,nan,nan,[ nan  nan  nan],nan,nan,nan,962.2064767,1298.871811,1299.246715,nan,nan
0,274,15:44:00:578000,6,1,409,287.578125,[ 0.04294362  0.46479315 -0.52946185],1,1,1,0.289074512,0,0,0,0.337567203,0.408568919,0.127918761,0.536487681,0.280650158,nan,nan,nan,[ nan  nan  nan],nan,nan,nan,962.2064767,1299.813628,1300.102703,nan,nan
0,275,15:44:01:529000,6,1,274,192.65625,[ 0.28934405  0.32290089  0.63267027],1,1,1,0.235295661,0,0,0,0.29975821,0.408121375,0.127887462,0.536008836,0.280233913,nan,nan,nan,[ nan  nan  nan],nan,nan,nan,962.2064767,1300.755395,1300.990691,nan,nan
0,276,15:44:02:465000,6,1,423,297.421875,[ 0.13522958  0.45008089 -0.75003992],1,1,1,0.285464053,0,1,0,0.269944742,0.407476503,0.128082827,0.53555933,0.279393676,nan,nan,nan,[ nan  nan  nan],nan,nan,nan,962.2064767,1301.697185,1301.982649,nan,nan
0,277,15:44:07:161000,6,1,254,178.59375,[ 0.50301113  0.24894782  0.65613358],1,1,1,0.255608485,1,0,0,0.258789399,0.407022925,0.12805999,0.535082915,0.278962935,nan,-107.6254862,281,[ 0.2180834   0.34506839  0.61264442],nan,19.03173617,1.708850557,962.2064767,1302.638983,1302.894592,1304.455824,1306.172719
0,278,15:44:08:097000,6,0,325,228.515625,[-0.1194049   0.44263104  0.36018642],0,0,1,0.451268351,0,0,0,0.330780296,0.406462131,0.128153114,0.534615244,0.278309017,nan,nan,nan,[ nan  nan  nan],nan,nan,nan,962.2064767,1307.331271,1307.782539,nan,nan
0,279,15:44:09:048000,6,1,357,251.015625,[-0.17179183  0.47376752  0.06873903],1,1,1,0.549442109,0,0,0,0.418772982,0.406627467,0.127945297,0.534572764,0.27868217,nan,nan,nan,[ nan  nan  nan],nan,nan,nan,962.2064767,1308.273065,1308.822507,nan,nan
0,280,15:44:09:984000,6,1,303,213.046875,[ 0.01913493  0.40252284  0.51201836],1,1,1,0.559616055,0,0,0,0.520108838,0.407152521,0.12800205,0.535154571,0.279150471,nan,nan,nan,[ nan  nan  nan],nan,nan,nan,962.2064767,1309.214855,1309.774471,nan,nan
0,281,15:44:10:920000,6,1,108,75.9375,[ 1.         -0.29242661 -0.36866329],1,1,1,0.489798257,0,0,0,0.532952141,0.407710995,0.12809896,0.535809955,0.279612036,nan,nan,nan,[ nan  nan  nan],nan,nan,nan,962.2064767,1310.156652,1310.64645,nan,nan
0,282,15:44:11:872000,6,1,341,239.765625,[-0.16853588  0.4619615   0.22326011],1,1,1,0.419994144,0,0,0,0.489802819,0.408010584,0.127960767,0.535971351,0.280049817,nan,nan,nan,[ nan  nan  nan],nan,nan,nan,962.2064767,1311.098443,1311.518437,nan,nan
0,283,15:44:12:808000,6,1,205,144.140625,[ 1.          0.008548    0.50553524],1,1,1,0.35818128,0,0,0,0.422657894,0.408054161,0.127729936,0.535784097,0.280324224,nan,nan,nan,[ nan  nan  nan],nan,nan,nan,962.2064767,1312.040235,1312.398417,nan,nan
0,284,15:44:13:744000,6,1,120,84.375,[ 1.         -0.3101615  -0.24016291],1,1,1,0.512357356,0,0,0,0.430177593,0.407873462,0.12753354,0.535407002,0.280339922,nan,nan,nan,[ nan  nan  nan],nan,nan,nan,962.2064767,1312.982029,1313.494386,nan,nan
0,285,15:44:14:696000,6,1,375,263.671875,[-0.1285567   0.47868243 -0.12160516],1,1,1,0.266522826,0,0,0,0.379020487,0.40825066,0.127457267,0.535707927,0.280793393,nan,nan,nan,[ nan  nan  nan],nan,nan,nan,962.2064767,1313.923841,1314.190364,nan,nan
0,286,15:44:15:632000,6,1,338,237.65625,[-0.16289136  0.45892871  0.25039916],1,1,1,0.500702905,0,0,0,0.426527696,0.407740848,0.127510443,0.535251291,0.280230404,nan,nan,nan,[ nan  nan  nan],nan,nan,nan,962.2064767,1314.865617,1315.36632,nan,nan
0,287,15:44:16:583000,6,1,99,69.609375,[ 1.         -0.26717627 -0.4687933 ],1,1,1,0.542924808,0,0,0,0.436716846,0.408074045,0.127402909,0.535476954,0.280671136,nan,nan,nan,[ nan  nan  nan],nan,nan,nan,962.2064767,1315.807404,1316.350329,nan,nan
0,288,15:44:17:519000,6,1,232,163.125,[ 0.73915824  0.15004662  0.62371202],1,1,1,0.55310018,0,0,0,0.532242631,0.408555655,0.127429373,0.535985028,0.281126282,nan,nan,nan,[ nan  nan  nan],nan,nan,nan,962.2064767,1316.749199,1317.302299,nan,nan
0,289,15:44:18:455000,6,0,92,64.6875,[ 1.         -0.24170366 -0.55060884],0,0,1,0.547294194,0,0,0,0.547773061,0.409070048,0.127493317,0.536563365,0.281576731,nan,nan,nan,[ nan  nan  nan],nan,nan,nan,962.2064767,1317.690991,1318.238285,nan,nan
0,290,15:44:19:407000,6,1,199,139.921875,[ 1.         -0.02467618  0.4687863 ],1,1,1,0.445465786,0,0,0,0.51528672,0.409560205,0.127532023,0.537092227,0.282028182,nan,nan,nan,[ nan  nan  nan],nan,nan,nan,962.2064767,1318.63279,1319.078256,nan,nan
0,291,15:44:20:343000,6,1,17,11.953125,[ 0.98106915  0.13592191 -1.        ],1,1,1,0.351678233,0,0,0,0.448146071,0.40968708,0.127324329,0.537011409,0.28236275,nan,nan,nan,[ nan  nan  nan],nan,nan,nan,962.2064767,1319.574574,1319.926252,nan,nan
0,292,15:44:21:294000,6,1,172,120.9375,[ 1.         -0.17098406  0.26502468],1,1,1,0.417512951,0,0,0,0.404885657,0.409482823,0.127146408,0.536629231,0.282336415,nan,nan,nan,[ nan  nan  nan],nan,nan,nan,962.2064767,1320.524704,1320.942217,nan,nan
0,293,15:44:22:230000,6,1,60,42.1875,[ 1.         -0.08678377 -1.        ],1,1,1,0.339703905,0,0,0,0.369631696,0.409510999,0.126924036,0.536435035,0.282586963,nan,nan,nan,[ nan  nan  nan],nan,nan,nan,962.2064767,1321.466495,1321.806199,nan,nan
0,294,15:44:23:182000,6,1,93,65.390625,[ 1.         -0.2456143  -0.53861988],1,1,1,0.349884123,0,0,0,0.36903366,0.409266918,0.126768933,0.536035851,0.282497985,nan,nan,nan,[ nan  nan  nan],nan,nan,nan,962.2064767,1322.408254,1322.758138,nan,nan
0,295,15:44:24:118000,6,1,405,284.765625,[ 0.01846332  0.46800938 -0.47629333],1,1,1,0.288066126,0,0,0,0.325884718,0.409060009,0.126596256,0.535656265,0.282463754,nan,nan,nan,[ nan  nan  nan],nan,nan,nan,962.2064767,1323.350084,1323.63815,nan,nan
0,296,15:44:25:054000,6,1,316,222.1875,[-0.07182156  0.42820351  0.42789226],1,1,1,0.346187279,0,0,0,0.328045843,0.408639892,0.126576535,0.535216427,0.282063357,nan,nan,nan,[ nan  nan  nan],nan,nan,nan,962.2064767,1324.291901,1324.638089,nan,nan
0,297,15:44:26:006000,6,1,11,7.734375,[ 0.9346595  0.1638529 -1.       ],1,1,1,0.292449197,0,0,0,0.308900867,0.408423793,0.126410563,0.534834355,0.28201323,nan,nan,nan,[ nan  nan  nan],nan,nan,nan,962.2064767,1325.233659,1325.526108,nan,nan
0,298,15:44:26:942000,6,1,199,139.921875,[ 1.         -0.02467618  0.4687863 ],1,1,1,0.126664,0,1,0,0.255100159,0.40802388,0.126375425,0.534399305,0.281648456,nan,nan,nan,[ nan  nan  nan],nan,nan,nan,962.2064767,1326.175452,1326.302116,nan,nan
0,299,15:44:31:746000,6,1,501,352.265625,[ 0.75644923  0.25625354 -1.        ],1,1,1,0.344802852,1,0,0,0.254638683,0.407057008,0.127228023,0.534285031,0.279828985,nan,138.1363584,444,[ 0.2892412   0.41740978 -1.        ],nan,-40.40198337,1.808854919,962.2064767,1327.117248,1327.462051,1328.950762,1330.767726
0,300,15:44:32:682000,6,1,42,29.53125,[ 1.          0.00954879 -1.        ],1,1,1,0.664039124,0,0,0,0.378501992,0.406843809,0.127062041,0.533905849,0.279781768,nan,nan,nan,[ nan  nan  nan],nan,nan,nan,962.2064767,1331.917871,1332.581911,nan,nan
0,301,15:44:33:634000,6,1,310,217.96875,[-0.03285454  0.41708073  0.46882802],1,1,1,0.482235793,0,0,0,0.497025923,0.407721609,0.127728838,0.535450446,0.279992771,nan,nan,nan,[ nan  nan  nan],nan,nan,nan,962.2064767,1332.85969,1333.341926,nan,nan
0,302,15:44:34:570000,6,1,495,348.046875,[ 0.70648511  0.27855169 -1.        ],1,1,1,0.396436068,0,0,0,0.514236995,0.407975058,0.127585208,0.535560266,0.28038985,nan,nan,nan,[ nan  nan  nan],nan,nan,nan,962.2064767,1333.80147,1334.197906,nan,nan
0,303,15:44:35:506000,6,1,428,300.9375,[ 0.17037832  0.44348657 -0.8686614 ],1,1,1,0.366600173,0,0,0,0.415090678,0.407935943,0.127370544,0.535306487,0.280565399,nan,nan,nan,[ nan  nan  nan],nan,nan,nan,962.2064767,1334.743259,1335.10986,nan,nan
0,304,15:44:36:458000,6,1,381,267.890625,[-0.10540306  0.47842508 -0.18843114],1,1,1,0.224818087,0,0,0,0.329284776,0.407796295,0.127177829,0.534974124,0.280618466,nan,nan,nan,[ nan  nan  nan],nan,nan,nan,962.2064767,1335.68506,1335.909879,nan,nan
0,305,15:44:37:394000,6,1,299,210.234375,[ 0.05166456  0.39341767  0.53437875],1,1,1,0.107007467,0,1,0,0.232808576,0.407180207,0.127405231,0.534585437,0.279774976,nan,nan,nan,[ nan  nan  nan],nan,nan,nan,962.2064767,1336.626849,1336.733857,nan,nan
0,306,15:44:38:345000,6,0,510,358.59375,[ 0.83055446  0.2204367  -1.        ],0,1,0,0.029142256,0,0,0,0.120322604,0.406172916,0.128370438,0.534543354,0.277802478,nan,nan,nan,[ nan  nan  nan],nan,nan,nan,962.2064767,1337.568677,1337.597819,nan,nan
0,307,15:44:39:281000,6,1,191,134.296875,[ 1.         -0.06914798  0.41457165],1,1,1,0.367343704,0,0,0,0.167831142,0.404911944,0.129991118,0.534903062,0.274920825,nan,nan,nan,[ nan  nan  nan],nan,nan,nan,962.2064767,1338.510429,1338.877773,nan,nan
0,308,15:44:40:217000,6,1,74,52.03125,[ 1.         -0.15971516 -0.81044328],1,1,1,0.313556585,0,0,0,0.236680848,0.404786716,0.12979235,0.534579066,0.274994366,nan,nan,nan,[ nan  nan  nan],nan,nan,nan,962.2064767,1339.452229,1339.765785,nan,nan
0,309,15:44:41:169000,6,1,360,253.125,[-0.1677095   0.47518832  0.03812586],1,1,1,0.251742295,0,0,0,0.310880861,0.404483626,0.129682868,0.534166494,0.274800758,nan,nan,nan,[ nan  nan  nan],nan,nan,nan,962.2064767,1340.394022,1340.645764,nan,nan
0,310,15:44:42:105000,6,1,456,320.625,[ 0.38361243  0.39263319 -1.        ],1,1,1,0.341890878,0,0,0,0.302396586,0.40397786,0.129764996,0.533742856,0.274212864,nan,nan,nan,[ nan  nan  nan],nan,nan,nan,962.2064767,1341.335816,1341.677707,nan,nan
0,311,15:44:43:041000,6,1,384,270,[-0.09247501  0.47794532 -0.22247927],1,1,1,0.280077729,0,0,0,0.291236967,0.403772952,0.129599615,0.533372568,0.274173337,nan,nan,nan,[ nan  nan  nan],nan,nan,nan,962.2064767,1342.277607,1342.557685,nan,nan
0,312,15:44:43:993000,6,0,456,320.625,[ 0.38361243  0.39263319 -1.        ],0,0,1,0.50626998,0,0,0,0.376079529,0.40336606,0.129579995,0.532946055,0.273786065,nan,nan,nan,[ nan  nan  nan],nan,nan,nan,962.2064767,1343.219391,1343.725661,nan,nan
0,313,15:44:44:929000,6,1,74,52.03125,[ 1.         -0.15971516 -0.81044328],1,1,1,0.636436673,0,0,0,0.47426146,0.40370345,0.129501072,0.533204522,0.274202378,nan,nan,nan,[ nan  nan  nan],nan,nan,nan,962.2064767,1344.161194,1344.797631,nan,nan
0,314,15:44:45:880000,6,1,398,279.84375,[-0.02203778  0.4726088  -0.38794338],1,1,1,0.582621614,0,0,0,0.575109422,0.404464016,0.129969814,0.53443383,0.274494202,nan,nan,nan,[ nan  nan  nan],nan,nan,nan,962.2064767,1345.10298,1345.685601,nan,nan
0,315,15:44:46:816000,6,1,186,130.78125,[ 1.         -0.09673867  0.37788139],1,1,1,0.504816844,0,0,1,0.574625044,0.405044334,0.130154449,0.535198783,0.274889886,nan,nan,nan,[ nan  nan  nan],nan,nan,nan,962.2064767,1346.044772,1346.549588,nan,nan
0,316,15:44:51:200000,6,1,328,230.625,[-0.13215956  0.44685797  0.33604616],1,1,1,0.475022573,1,0,0,0.520820344,0.405368271,0.130066886,0.535435157,0.275301384,nan,-147.9658539,338,[-0.16289136  0.45892871  0.25039916],nan,7.340853853,1.392145369,962.2064767,1346.986571,1347.461593,1348.811752,1350.211939
0,317,15:44:52:136000,6,1,372,261.5625,[-0.13866002  0.47845887 -0.08881238],1,nan,nan,nan,0,0,0,0.489919708,0.405593689,0.129916499,0.535510188,0.275677191,nan,nan,nan,[ nan  nan  nan],nan,nan,nan,962.2064767,1351.370504,nan,nan,nan
0,318,15:44:53:087000,6,0,319,224.296875,[-0.08918918  0.43330867  0.4061371 ],0,1,0,0.10923635,0,0,0,0.292129461,0.405593689,0.129916499,0.535510188,0.275677191,nan,nan,nan,[ nan  nan  nan],nan,nan,nan,962.2064767,1352.312278,1352.421514,nan,nan
0,319,15:44:54:023000,6,1,219,153.984375,[ 0.87162732  0.08408817  0.57695967],1,1,1,0.303391762,0,0,0,0.206314056,0.404637698,0.13079087,0.535428568,0.273846828,nan,nan,nan,[ nan  nan  nan],nan,nan,nan,962.2064767,1353.254068,1353.557459,nan,nan
0,320,15:44:54:959000,6,1,462,324.84375,[ 0.43208968  0.37848636 -1.        ],1,1,1,0.289579703,0,0,0,0.234069271,0.404312148,0.130706168,0.535018316,0.273605981,nan,nan,nan,[ nan  nan  nan],nan,nan,nan,962.2064767,1354.195864,1354.485444,nan,nan
0,321,15:44:55:911000,6,1,360,253.125,[-0.1677095   0.47518832  0.03812586],1,1,1,0.187770681,0,1,0,0.260247382,0.403944416,0.130657572,0.534601988,0.273286844,nan,nan,nan,[ nan  nan  nan],nan,nan,nan,962.2064767,1355.137658,1355.325429,nan,nan
0,322,15:45:00:638000,6,1,164,115.3125,[ 1.         -0.20968584  0.19476155],1,1,1,0.493897657,1,0,0,0.323749347,0.403253765,0.131017875,0.53427164,0.272235891,nan,-18.43494882,154,[ 1.         -0.25181315  0.10213817],nan,-6.877551177,1.733869751,962.2064767,1356.079453,1356.57335,1357.904644,1359.646544
0,323,15:45:01:574000,6,1,506,355.78125,[ 0.79777474  0.23670313 -1.        ],1,1,1,0.552180459,0,0,0,0.411282932,0.40354244,0.130908743,0.534451183,0.272633697,nan,nan,nan,[ nan  nan  nan],nan,nan,nan,962.2064767,1360.805075,1361.357255,nan,nan
0,324,15:45:02:525000,6,1,274,192.65625,[ 0.28934405  0.32290089  0.63267027],1,1,1,0.378329889,0,0,0,0.474802668,0.404014307,0.130967974,0.534982281,0.273046333,nan,nan,nan,[ nan  nan  nan],nan,nan,nan,962.2064767,1361.746891,1362.125221,nan,nan
0,325,15:45:03:461000,6,1,10,7.03125,[ 0.9268115   0.16840058 -1.        ],1,1,1,0.28453806,0,0,0,0.405016136,0.403933027,0.130768539,0.534701566,0.273164488,nan,nan,nan,[ nan  nan  nan],nan,nan,nan,962.2064767,1362.688665,1362.973203,nan,nan
0,326,15:45:04:397000,6,1,169,118.828125,[ 1.         -0.18591738  0.2391183 ],1,1,1,0.31077547,0,0,0,0.324547806,0.403556387,0.130733673,0.53429006,0.272822713,nan,nan,nan,[ nan  nan  nan],nan,nan,nan,962.2064767,1363.630454,1363.94123,nan,nan
0,327,15:45:05:349000,6,1,290,203.90625,[ 0.13126538  0.37077654  0.57820662],1,1,1,0.288929398,0,0,0,0.294747643,0.403264623,0.130631283,0.533895906,0.27263334,nan,nan,nan,[ nan  nan  nan],nan,nan,nan,962.2064767,1364.572249,1364.861178,nan,nan
0,328,15:45:06:285000,6,1,36,25.3125,[ 1.          0.04106996 -1.        ],1,1,1,0.275129027,0,0,0,0.291611299,0.402906205,0.130582884,0.533489089,0.272323321,nan,nan,nan,[ nan  nan  nan],nan,nan,nan,962.2064767,1365.514041,1365.78917,nan,nan
0,329,15:45:07:221000,6,1,251,176.484375,[ 0.53557652  0.23650919  0.65528415],1,1,1,0.197349346,0,1,0,0.25380259,0.402506901,0.1305736,0.533080501,0.271933302,nan,nan,nan,[ nan  nan  nan],nan,nan,nan,962.2064767,1366.455832,1366.653181,nan,nan
0,330,15:45:12:010000,6,1,416,292.5,[ 0.08788162  0.4581175  -0.63016532],1,1,1,0.255500434,1,0,0,0.242659602,0.401867781,0.130870406,0.532738187,0.270997375,nan,169.1249418,399,[-0.01644604  0.47203125 -0.40027452],nan,-11.62494175,1.792220122,962.2064767,1367.397627,1367.653128,1369.231142,1371.031509
0,331,15:45:12:946000,6,1,477,335.390625,[ 0.55587987  0.33778403 -1.        ],1,1,1,0.735387034,0,0,0,0.396078938,0.401413224,0.130920584,0.532333808,0.270492641,nan,nan,nan,[ nan  nan  nan],nan,nan,nan,962.2064767,1372.181596,1372.916983,nan,nan
0,332,15:45:13:898000,6,1,259,182.109375,[ 0.44882283  0.26890698  0.65501178],1,1,1,0.465597004,0,0,0,0.485494824,0.402447199,0.13202797,0.534475169,0.270419229,nan,nan,nan,[ nan  nan  nan],nan,nan,nan,962.2064767,1373.12339,1373.588987,nan,nan
0,333,15:45:14:834000,6,1,91,63.984375,[ 1.         -0.2377099  -0.56272232],1,1,1,0.283812205,0,0,0,0.494932081,0.402642106,0.131870598,0.534512704,0.270771508,nan,nan,nan,[ nan  nan  nan],nan,nan,nan,962.2064767,1374.065183,1374.348995,nan,nan
0,334,15:45:15:785000,6,0,370,260.15625,[-0.144806    0.47817873 -0.06718033],0,1,0,0.262005761,0,0,0,0.337138323,0.402276475,0.131831944,0.53410842,0.270444531,nan,nan,nan,[ nan  nan  nan],nan,nan,nan,962.2064767,1375.006969,1375.268975,nan,nan
0,335,15:45:16:721000,6,1,92,64.6875,[ 1.         -0.24170366 -0.55060884],1,1,1,0.304129306,0,0,0,0.283315757,0.401846197,0.131857954,0.533704151,0.269988243,nan,nan,nan,[ nan  nan  nan],nan,nan,nan,962.2064767,1375.948766,1376.252896,nan,nan
0,336,15:45:17:657000,6,1,363,255.234375,[-0.16228773  0.47636573  0.00704813],1,1,1,0.106377404,0,0,0,0.224170824,0.401547369,0.131766694,0.533314062,0.269780675,nan,nan,nan,[ nan  nan  nan],nan,nan,nan,962.2064767,1376.890562,1376.996939,nan,nan
0,337,15:45:18:609000,6,1,493,346.640625,[ 0.68976908  0.28570078 -1.        ],1,1,1,0.340550641,0,1,0,0.25035245,0.40064746,0.132568259,0.533215719,0.268079201,nan,nan,nan,[ nan  nan  nan],nan,nan,nan,962.2064767,1377.83235,1378.172901,nan,nan
0,338,15:45:24:225000,6,1,233,163.828125,[ 0.7286704   0.15490978  0.62648223],1,1,1,0.326724612,1,0,0,0.257884219,0.400464795,0.132407968,0.532872763,0.268056827,nan,-74.475889,234,[ 0.71814775  0.15974031  0.6291316 ],nan,0.647764003,2.633973156,962.2064767,1378.774141,1379.100865,1380.599324,1383.241353
0,339,15:45:25:161000,6,1,381,267.890625,[-0.10540306  0.47842508 -0.18843114],1,nan,nan,nan,0,0,0,0.333637626,0.40024134,0.132269312,0.532510652,0.267972028,nan,nan,nan,[ nan  nan  nan],nan,nan,nan,962.2064767,1384.391558,nan,nan,nan
0,340,15:45:26:113000,6,1,511,359.296875,[ 0.83870319  0.21628417 -1.        ],1,1,1,0.407281416,0,0,0,0.367003014,0.40024134,0.132269312,0.532510652,0.267972028,nan,nan,nan,[ nan  nan  nan],nan,nan,nan,962.2064767,1385.333405,1385.740686,nan,nan
0,341,15:45:27:049000,6,1,318,223.59375,[-0.08356276  0.43164026  0.41348156],1,1,1,0.425509332,0,0,0,0.416395374,0.400262609,0.132069923,0.532332533,0.268192686,nan,nan,nan,[ nan  nan  nan],nan,nan,nan,962.2064767,1386.275148,1386.700657,nan,nan
0,342,15:45:27:985000,6,1,175,123.046875,[ 1.         -0.15562995  0.29036176],1,1,1,0.347703421,0,0,0,0.393498056,0.400338654,0.13187813,0.532216784,0.268460523,nan,nan,nan,[ nan  nan  nan],nan,nan,nan,962.2064767,1387.21694,1387.564644,nan,nan
0,343,15:45:28:936000,6,1,6,4.21875,[ 0.89512908  0.18627278 -1.        ],1,1,1,0.325929763,0,0,0,0.366380839,0.40018059,0.131711458,0.531892048,0.268469132,nan,nan,nan,[ nan  nan  nan],nan,nan,nan,962.2064767,1388.158732,1388.484662,nan,nan
0,344,15:45:29:872000,6,1,438,307.96875,[ 0.24362256  0.42809644 -1.        ],1,1,1,0.336088599,0,0,0,0.336573928,0.399958282,0.13157669,0.531534972,0.268381591,nan,nan,nan,[ nan  nan  nan],nan,nan,nan,962.2064767,1389.100521,1389.436609,nan,nan
0,345,15:45:30:808000,6,0,142,99.84375,[ 1.         -0.28956812 -0.01462735],0,0,1,0.522291821,0,0,0,0.394770061,0.399767626,0.131426357,0.531193983,0.268341269,nan,nan,nan,[ nan  nan  nan],nan,nan,nan,962.2064767,1390.042315,1390.564607,nan,nan
0,346,15:45:31:760000,6,1,493,346.640625,[ 0.68976908  0.28570078 -1.        ],1,1,1,0.604471108,0,0,0,0.487617176,0.400132281,0.131400251,0.531532533,0.26873203,nan,nan,nan,[ nan  nan  nan],nan,nan,nan,962.2064767,1390.984111,1391.588582,nan,nan
0,347,15:45:32:696000,6,1,12,8.4375,[ 0.94247669  0.15927395 -1.        ],1,nan,nan,nan,0,0,0,0.563381464,0.400738628,0.13167507,0.532413698,0.269063558,nan,nan,nan,[ nan  nan  nan],nan,nan,nan,962.2064767,1391.925899,nan,nan,nan
0,348,15:45:33:632000,6,1,262,184.21875,[ 0.41645248  0.28041442  0.65281554],1,1,1,0.120870844,0,0,0,0.362670976,0.400738628,0.13167507,0.532413698,0.269063558,nan,nan,nan,[ nan  nan  nan],nan,nan,nan,962.2064767,1392.867675,1392.988546,nan,nan
0,349,15:45:34:583000,6,1,300,210.9375,[ 0.04335371  0.39574842  0.52895103],1,1,1,0.275037797,0,0,0,0.19795432,0.399910617,0.132355866,0.532266483,0.267554751,nan,nan,nan,[ nan  nan  nan],nan,nan,nan,962.2064767,1393.809485,1394.084523,nan,nan
0,350,15:45:35:519000,6,1,54,37.96875,[ 1.         -0.05462921 -1.        ],1,1,1,0.413232231,0,0,0,0.269713624,0.399542261,0.132333902,0.531876162,0.267208359,nan,nan,nan,[ nan  nan  nan],nan,nan,nan,962.2064767,1394.751267,1395.1645,nan,nan
0,351,15:45:36:471000,6,1,127,89.296875,[ 1.         -0.31111021 -0.16703665],1,1,1,0.471416105,0,0,0,0.386562044,0.399582525,0.13214123,0.531723755,0.267441296,nan,nan,nan,[ nan  nan  nan],nan,nan,nan,962.2064767,1395.693061,1396.164477,nan,nan
0,352,15:45:37:407000,6,1,344,241.875,[-0.17254346  0.46473023  0.19550382],1,1,1,0.545590173,0,0,0,0.47674617,0.399793181,0.132004493,0.531797674,0.267788688,nan,nan,nan,[ nan  nan  nan],nan,nan,nan,962.2064767,1396.634862,1397.180452,nan,nan
0,353,15:45:38:343000,6,1,398,279.84375,[-0.02203778  0.4726088  -0.38794338],1,1,1,0.595765978,0,0,1,0.537590752,0.400219488,0.132046234,0.532265722,0.268173254,nan,nan,nan,[ nan  nan  nan],nan,nan,nan,962.2064767,1397.576652,1398.172418,nan,nan
0,354,15:45:42:399000,6,1,460,323.4375,[ 0.41584892  0.38333493 -1.        ],1,1,1,0.589967405,1,0,0,0.577107852,0.400789594,0.132274452,0.533064046,0.268515142,nan,145.9866875,432,[ 0.1992279   0.43768733 -1.        ],nan,-19.4241875,1.05041329,962.2064767,1398.518441,1399.108409,1400.351958,1401.410477
0,355,15:45:43:335000,6,1,262,184.21875,[ 0.41645248  0.28041442  0.65281554],1,1,1,0.515295843,0,0,0,0.567009742,0.40133953,0.132474155,0.533813685,0.268865374,nan,nan,nan,[ nan  nan  nan],nan,nan,nan,962.2064767,1402.568981,1403.084277,nan,nan
0,356,15:45:44:287000,6,1,163,114.609375,[ 1.         -0.2142478   0.18572368],1,1,1,0.317489203,0,0,0,0.474250817,0.401669838,0.132423811,0.534093649,0.269246027,nan,nan,nan,[ nan  nan  nan],nan,nan,nan,962.2064767,1403.510778,1403.828267,nan,nan
0,357,15:45:45:223000,6,1,201,141.328125,[ 1.         -0.01357126  0.48142235],1,1,1,0.175725078,0,0,0,0.336170041,0.401426541,0.132309505,0.533736046,0.269117036,nan,nan,nan,[ nan  nan  nan],nan,nan,nan,962.2064767,1404.452572,1404.628297,nan,nan
0,358,15:45:46:174000,6,0,318,223.59375,[-0.08356276  0.43164026  0.41348156],0,1,0,0.209879612,0,0,0,0.234364631,0.400776105,0.13267154,0.533447644,0.268104565,nan,nan,nan,[ nan  nan  nan],nan,nan,nan,962.2064767,1405.394361,1405.60424,nan,nan
0,359,15:45:47:110000,6,1,444,312.1875,[ 0.2892412   0.41740978 -1.        ],1,1,1,0.340072819,0,0,0,0.241892503,0.400227552,0.132874278,0.533101829,0.267353274,nan,nan,nan,[ nan  nan  nan],nan,nan,nan,962.2064767,1406.336154,1406.676226,nan,nan
0,360,15:45:48:046000,6,1,187,131.484375,[ 1.         -0.09124635  0.38538321],1,1,1,0.182261766,0,0,0,0.244071399,0.400055188,0.132722731,0.53277792,0.267332457,nan,nan,nan,[ nan  nan  nan],nan,nan,nan,962.2064767,1407.277948,1407.46021,nan,nan
0,361,15:45:48:998000,6,1,501,352.265625,[ 0.75644923  0.25625354 -1.        ],1,1,1,0.320448787,0,0,0,0.280927791,0.399432922,0.133041844,0.532474766,0.266391077,nan,nan,nan,[ nan  nan  nan],nan,nan,nan,962.2064767,1408.219738,1408.540186,nan,nan
0,362,15:45:49:934000,6,1,175,123.046875,[ 1.         -0.15562995  0.29036176],1,1,1,0.338636789,0,0,0,0.280449114,0.399207895,0.132918875,0.532126771,0.26628902,nan,nan,nan,[ nan  nan  nan],nan,nan,nan,962.2064767,1409.161532,1409.500169,nan,nan
0,363,15:45:50:870000,6,1,223,156.796875,[ 0.83172397  0.10489059  0.59343224],1,1,1,0.252825946,0,0,0,0.303970507,0.399035818,0.132769082,0.531804901,0.266266736,nan,nan,nan,[ nan  nan  nan],nan,nan,nan,962.2064767,1410.103323,1410.356149,nan,nan
0,364,15:45:51:821000,6,0,350,246.09375,[-0.17575682  0.46949094  0.13824748],0,0,1,0.415007525,0,0,0,0.335490087,0.398621626,0.132808433,0.53143006,0.265813193,nan,nan,nan,[ nan  nan  nan],nan,nan,nan,962.2064767,1411.045115,1411.460122,nan,nan
0,365,15:45:52:757000,6,1,178,125.15625,[ 1.         -0.13991966  0.31509783],1,1,1,0.265193137,0,0,0,0.311008869,0.398667914,0.13262357,0.531291484,0.266044344,nan,nan,nan,[ nan  nan  nan],nan,nan,nan,962.2064767,1411.986916,1412.252109,nan,nan
0,366,15:45:53:693000,6,1,296,208.125,[ 0.07727136  0.38620532  0.55000131],1,1,1,0.275380482,0,0,0,0.318527048,0.398291929,0.132625442,0.530917371,0.265666487,nan,nan,nan,[ nan  nan  nan],nan,nan,nan,962.2064767,1412.928702,1413.204082,nan,nan
0,367,15:45:54:645000,6,1,496,348.75,[ 0.71483372  0.27492388 -1.        ],1,1,1,0.197565164,0,1,0,0.246046261,0.397946672,0.132598703,0.530545375,0.265347969,nan,nan,nan,[ nan  nan  nan],nan,nan,nan,962.2064767,1413.870495,1414.06806,nan,nan
0,368,15:45:58:748000,6,1,87,61.171875,[ 1.         -0.22095901 -0.61267562],1,1,1,0.271756339,1,0,0,0.248233995,0.397385379,0.1328357,0.530221079,0.264549679,nan,24.91396704,93,[ 1.         -0.2456143  -0.53861988],nan,3.914157961,1.108765085,962.2064767,1414.812283,1415.08404,1416.637465,1417.754283
0,369,15:45:59:684000,6,1,195,137.109375,[ 1.         -0.04692453  0.44239605],1,1,1,0.331121937,0,0,0,0.26681448,0.39703446,0.132815651,0.529850111,0.264218809,nan,nan,nan,[ nan  nan  nan],nan,nan,nan,962.2064767,1418.912829,1419.243951,nan,nan
0,370,15:46:00:620000,6,1,367,258.046875,[-0.15309091  0.4775609  -0.03508163],1,1,1,0.389292126,0,0,0,0.330723467,0.39685086,0.132676028,0.529526888,0.264174832,nan,nan,nan,[ nan  nan  nan],nan,nan,nan,962.2064767,1419.854625,1420.243917,nan,nan
0,371,15:46:01:571000,6,0,85,59.765625,[ 1.         -0.21215645 -0.63878123],0,0,1,0.335452834,0,0,0,0.351955632,0.396829863,0.132492225,0.529322088,0.264337638,nan,nan,nan,[ nan  nan  nan],nan,nan,nan,962.2064767,1420.796418,1421.131871,nan,nan
0,372,15:46:02:507000,6,1,336,236.25,[-0.15821161  0.45675811  0.26813527],1,1,1,0.305663124,0,0,0,0.343469361,0.396659844,0.132347911,0.529007755,0.264311933,nan,nan,nan,[ nan  nan  nan],nan,nan,nan,962.2064767,1421.738211,1422.043874,nan,nan
0,373,15:46:03:459000,6,1,459,322.734375,[ 0.40775816  0.38570917 -1.        ],1,1,1,0.331845226,0,0,0,0.324320395,0.396408472,0.132251252,0.528659724,0.264157219,nan,nan,nan,[ nan  nan  nan],nan,nan,nan,962.2064767,1422.679973,1423.011819,nan,nan
0,374,15:46:04:395000,6,1,100,70.3125,[ 1.         -0.27042709 -0.4574399 ],1,1,1,0.366039673,0,0,0,0.334516008,0.396230611,0.13211231,0.528342921,0.264118302,nan,nan,nan,[ nan  nan  nan],nan,nan,nan,962.2064767,1423.621794,1423.987834,nan,nan
0,375,15:46:05:331000,6,1,250,175.78125,[ 0.54642845  0.23228666  0.65474773],1,1,1,0.472191281,0,0,0,0.390025394,0.396147669,0.131940176,0.528087845,0.264207494,nan,nan,nan,[ nan  nan  nan],nan,nan,nan,962.2064767,1424.563584,1425.035775,nan,nan
0,376,15:46:06:283000,6,1,171,120.234375,[ 1.         -0.17601187  0.25645091],1,1,1,0.434397208,0,0,0,0.424209388,0.396356008,0.131819254,0.528175262,0.264536754,nan,nan,nan,[ nan  nan  nan],nan,nan,nan,962.2064767,1425.505386,1425.939784,nan,nan
0,377,15:46:07:219000,6,1,2,1.40625,[ 0.86302458  0.20362286 -1.        ],1,1,1,0.364588533,0,0,0,0.423725674,0.396459946,0.131654026,0.528113971,0.26480592,nan,nan,nan,[ nan  nan  nan],nan,nan,nan,962.2064767,1426.447176,1426.811765,nan,nan
0,378,15:46:08:155000,6,1,80,56.25,[ 1.         -0.18907571 -0.70896555],1,1,1,0.334831324,0,0,0,0.377939022,0.396373103,0.131485035,0.527858138,0.264888067,nan,nan,nan,[ nan  nan  nan],nan,nan,nan,962.2064767,1427.388925,1427.723757,nan,nan
0,379,15:46:09:106000,6,1,334,234.84375,[-0.15279655  0.45446705  0.2855764 ],1,1,1,0.352962877,0,0,0,0.350794245,0.396205869,0.131345343,0.527551213,0.264860526,nan,nan,nan,[ nan  nan  nan],nan,nan,nan,962.2064767,1428.330758,1428.683721,nan,nan
0,380,15:46:10:042000,6,1,139,97.734375,[ 1.         -0.29633561 -0.04459929],1,1,1,0.539146142,0,0,0,0.408980115,0.39608868,0.131186512,0.527275191,0.264902168,nan,nan,nan,[ nan  nan  nan],nan,nan,nan,962.2064767,1429.272548,1429.811694,nan,nan
0,381,15:46:10:994000,6,1,353,248.203125,[-0.17504126  0.47149007  0.10879922],1,1,1,0.573225981,0,0,0,0.488445,0.396475322,0.131219473,0.527694795,0.265255849,nan,nan,nan,[ nan  nan  nan],nan,nan,nan,962.2064767,1430.21441,1430.787636,nan,nan
0,382,15:46:11:930000,6,1,263,184.921875,[ 0.4056988   0.28417174  0.65182989],1,1,1,0.479473781,0,0,1,0.530615301,0.396951738,0.131362548,0.528314286,0.265589191,nan,nan,nan,[ nan  nan  nan],nan,nan,nan,962.2064767,1431.156138,1431.635612,nan,nan
0,383,15:46:15:986000,6,1,211,148.359375,[ 0.94867577  0.04136069  0.53868916],1,1,1,0.393717675,1,0,0,0.482139146,0.397173572,0.131255432,0.528429004,0.26591814,nan,-59.0852561,212,[ 0.93926289  0.04677313  0.543851  ],nan,0.725881099,1.075430203,962.2064767,1432.097925,1432.491643,1433.923105,1435.006589
0,384,15:46:16:922000,6,1,17,11.953125,[ 0.98106915  0.13592191 -1.        ],1,1,1,0.686740201,0,0,0,0.519977219,0.397164307,0.13107949,0.528243797,0.266084817,nan,nan,nan,[ nan  nan  nan],nan,nan,nan,962.2064767,1436.1568,1436.84354,nan,nan
0,385,15:46:17:873000,6,1,318,223.59375,[-0.08356276  0.43164026  0.41348156],1,1,1,0.43293666,0,0,0,0.504464845,0.397938574,0.131755461,0.529694035,0.266183112,nan,nan,nan,[ nan  nan  nan],nan,nan,nan,962.2064767,1437.098588,1437.531525,nan,nan
0,386,15:46:18:809000,6,1,25,17.578125,[ 1.          0.09706829 -1.        ],1,1,1,0.323103889,0,0,0,0.480926916,0.398031902,0.131592048,0.52962395,0.266439854,nan,nan,nan,[ nan  nan  nan],nan,nan,nan,962.2064767,1438.040388,1438.363492,nan,nan
0,387,15:46:19:761000,6,1,80,56.25,[ 1.         -0.18907571 -0.70896555],1,1,1,0.389287564,0,0,0,0.381776038,0.397832625,0.131473588,0.529306214,0.266359037,nan,nan,nan,[ nan  nan  nan],nan,nan,nan,962.2064767,1438.982179,1439.371467,nan,nan
0,388,15:46:20:697000,6,1,442,310.78125,[ 0.27390726  0.42109554 -1.        ],1,1,1,0.463473037,0,0,0,0.39195483,0.39780996,0.13129984,0.5291098,0.266510119,nan,nan,nan,[ nan  nan  nan],nan,nan,nan,962.2064767,1439.923965,1440.387438,nan,nan
0,389,15:46:21:633000,6,0,275,193.359375,[ 0.27900239  0.32618525  0.63017847],0,0,1,0.417665763,0,0,0,0.423475455,0.397983671,0.13116942,0.529153091,0.266814251,nan,nan,nan,[ nan  nan  nan],nan,nan,nan,962.2064767,1440.865764,1441.283429,nan,nan
0,390,15:46:22:585000,6,1,15,10.546875,[ 0.96573443  0.14535278 -1.        ],1,1,1,0.299870823,0,0,0,0.393669874,0.398035603,0.13100015,0.529035753,0.267035453,nan,nan,nan,[ nan  nan  nan],nan,nan,nan,962.2064767,1441.807555,1442.107426,nan,nan
0,391,15:46:23:521000,6,1,94,66.09375,[ 1.         -0.24943901 -0.52674516],1,1,1,0.21406169,0,0,0,0.310532758,0.397777275,0.130924294,0.528701568,0.266852981,nan,nan,nan,[ nan  nan  nan],nan,nan,nan,962.2064767,1442.749344,1442.963406,nan,nan
0,392,15:46:24:457000,6,0,300,210.9375,[ 0.04335371  0.39574842  0.52895103],0,1,0,0.152232575,0,0,0,0.222055029,0.397295081,0.131089796,0.528384878,0.266205285,nan,nan,nan,[ nan  nan  nan],nan,nan,nan,962.2064767,1443.691141,1443.843374,nan,nan
0,393,15:46:25:408000,6,1,414,291.09375,[ 0.07478379  0.46016219 -0.60008918],1,1,1,0.330404349,0,0,0,0.232232871,0.396653557,0.131515593,0.528169149,0.265137964,nan,nan,nan,[ nan  nan  nan],nan,nan,nan,962.2064767,1444.632948,1444.963352,nan,nan
0,394,15:46:26:344000,6,1,317,222.890625,[-0.07777284  0.42993861  0.42073361],1,1,1,0.228611293,0,0,0,0.237082739,0.396480582,0.131387292,0.527867874,0.265093291,nan,nan,nan,[ nan  nan  nan],nan,nan,nan,962.2064767,1445.574725,1445.803337,nan,nan
0,395,15:46:27:296000,6,1,173,121.640625,[ 1.         -0.16590952  0.27353519],1,1,1,0.342790357,0,0,0,0.300602,0.396043423,0.131494716,0.527538138,0.264548707,nan,nan,nan,[ nan  nan  nan],nan,nan,nan,962.2064767,1446.516512,1446.859302,nan,nan
0,396,15:46:28:232000,6,1,18,12.65625,[ 0.9886827   0.13116258 -1.        ],1,1,1,0.392974715,0,0,0,0.321458788,0.395905103,0.131351801,0.527256904,0.264553302,nan,nan,nan,[ nan  nan  nan],nan,nan,nan,962.2064767,1447.458305,1447.85128,nan,nan
0,397,15:46:29:168000,6,1,167,117.421875,[ 1.         -0.19560581  0.22154672],1,1,1,0.427160609,0,0,0,0.387641894,0.395897511,0.131181631,0.527079142,0.264715881,nan,nan,nan,[ nan  nan  nan],nan,nan,nan,962.2064767,1448.400089,1448.827249,nan,nan
0,398,15:46:30:120000,6,1,257,180.703125,[ 0.4704729   0.26103985  0.65584138],1,1,1,0.429340455,0,0,0,0.416491926,0.395978294,0.131021649,0.526999943,0.264956645,nan,nan,nan,[ nan  nan  nan],nan,nan,nan,962.2064767,1449.341893,1449.771234,nan,nan
0,399,15:46:31:056000,6,1,57,40.078125,[ 1.         -0.07073133 -1.        ],1,1,1,0.359526934,0,0,0,0.405342666,0.396064279,0.13086363,0.52692791,0.265200649,nan,nan,nan,[ nan  nan  nan],nan,nan,nan,962.2064767,1450.283671,1450.643198,nan,nan
0,400,15:46:31:992000,6,1,350,246.09375,[-0.17575682  0.46949094  0.13824748],1,1,1,0.321676697,0,0,0,0.370181362,0.395970353,0.130708412,0.526678765,0.265261941,nan,nan,nan,[ nan  nan  nan],nan,nan,nan,962.2064767,1451.225493,1451.54717,nan,nan
0,401,15:46:32:943000,6,1,407,286.171875,[ 0.03058863  0.46645515 -0.50257741],1,1,1,0.26788074,0,0,0,0.316361457,0.395779856,0.130594787,0.526374643,0.26518507,nan,nan,nan,[ nan  nan  nan],nan,nan,nan,962.2064767,1452.167284,1452.435165,nan,nan
0,402,15:46:33:879000,6,1,83,58.359375,[ 1.         -0.20309788 -0.66587671],1,1,1,0.278092888,0,0,0,0.289216775,0.395452749,0.130587554,0.526040303,0.264865195,nan,nan,nan,[ nan  nan  nan],nan,nan,nan,962.2064767,1453.109038,1453.387131,nan,nan
0,403,15:46:34:831000,6,1,411,288.984375,[ 0.05552017  0.46302271 -0.55705476],1,1,1,0.232281053,0,1,0,0.259418227,0.395153361,0.130555172,0.525708533,0.26459819,nan,nan,nan,[ nan  nan  nan],nan,nan,nan,962.2064767,1454.050849,1454.28313,nan,nan
0,404,15:46:39:292000,6,1,187,131.484375,[ 1.         -0.09124635  0.38538321],1,1,1,0.354482726,1,0,0,0.288285555,0.394738928,0.130646891,0.525385819,0.264092037,nan,-39.69907348,184,[ 1.         -0.10767189  0.36264005],nan,-1.785301517,1.475574519,962.2064767,1454.992635,1455.347118,1456.817822,1458.301355
0,405,15:46:40:228000,6,0,16,11.25,[ 0.97341943  0.14065211 -1.        ],0,0,1,0.623067083,0,0,0,0.403276954,0.394636755,0.130496711,0.525133466,0.264140044,nan,nan,nan,[ nan  nan  nan],nan,nan,nan,962.2064767,1459.459905,1460.082972,nan,nan
0,406,15:46:41:180000,6,1,408,286.875,[ 0.03673793  0.46563766 -0.51593845],1,1,1,0.425264149,0,0,0,0.467604652,0.39521506,0.130835955,0.526051014,0.264379105,nan,nan,nan,[ nan  nan  nan],nan,nan,nan,962.2064767,1460.401694,1460.826959,nan,nan
0,407,15:46:42:116000,6,1,293,206.015625,[ 0.10383026  0.3786596   0.56461706],1,1,1,0.69944181,0,0,0,0.582591014,0.395290941,0.130679356,0.525970297,0.264611585,nan,nan,nan,[ nan  nan  nan],nan,nan,nan,962.2064767,1461.343491,1462.042933,nan,nan
0,408,15:46:43:052000,6,1,464,326.25,[ 0.44840488  0.37350356 -1.        ],1,1,1,0.405650665,0,0,0,0.510118875,0.396057064,0.131402088,0.527459152,0.264654976,nan,nan,nan,[ nan  nan  nan],nan,nan,nan,962.2064767,1462.28529,1462.69094,nan,nan
0,409,15:46:44:004000,6,1,50,35.15625,[ 1.         -0.03314873 -1.        ],1,1,1,0.279850792,0,0,0,0.461647756,0.396081169,0.131237785,0.527318954,0.264843384,nan,nan,nan,[ nan  nan  nan],nan,nan,nan,962.2064767,1463.227077,1463.506928,nan,nan
