block,trial,freq_trials,correct_response,actual_response,acc,rts,probe_trials,fast_rt_trigger,slow_rt_trigger,rt_triggered,rts_runningavg,rts_runningstd,rts_runningfastthresh,rts_runningslowthresh,rts_runningstd,rts_trailingavg,trials_colorind,trials_colorrgb0,trials_colorrgb1,trials_colorrgb2,wm_respdeg,wm_respdeg_in_colorspace,wm_respcolorminusorigcolor,wm_resptexind,wm_resptexrgb0,wm_resptexrgb1,wm_resptexrgb2,wm_rts,time_blockstart,time_encarray_offset,time_encarray_onset,time_response,time_iti_offset,time_iti_onset,time_memprobe_offset,time_memprobe_onset
1,1,1,1,1.0,1.0,0.647692422848,0,nan,nan,nan,nan,nan,nan,nan,nan,nan,457,0.391639248186,0.390358177281,-1.0,nan,nan,nan,nan,0.0,0.0,0.0,nan,176.579012926,177.603233496,178.103304342,178.250925919,nan,nan,nan,nan
1,2,1,1,1.0,1.0,0.350935982773,0,nan,nan,nan,nan,nan,nan,nan,nan,nan,341,-0.168535884224,0.46196150489,0.223260112086,nan,nan,nan,nan,0.0,0.0,0.0,nan,176.579012926,178.620053273,179.120065104,178.970989256,nan,nan,nan,nan
1,3,1,1,1.0,1.0,0.190819812007,0,nan,nan,nan,nan,nan,nan,nan,nan,nan,100,1.0,-0.270427092546,-0.457439896749,nan,nan,nan,nan,0.0,0.0,0.0,nan,176.579012926,179.620173868,180.120212214,179.81099368,nan,nan,nan,nan
1,4,1,1,1.0,1.0,0.150656132959,0,nan,nan,nan,nan,nan,nan,nan,nan,nan,166,1.0,-0.20036215083,0.21267421211,nan,nan,nan,nan,0.0,0.0,0.0,nan,176.579012926,180.620278784,181.120341362,180.770934917,nan,nan,nan,nan
1,5,1,1,1.0,1.0,0.00510349404067,0,nan,nan,nan,nan,nan,nan,nan,nan,nan,494,0.698129958021,0.282143999684,-1.0,nan,nan,nan,nan,0.0,0.0,0.0,nan,176.579012926,181.853788791,182.353863913,181.858892285,nan,nan,nan,nan
1,6,1,1,1.0,1.0,0.20492319949,0,nan,nan,nan,nan,nan,nan,nan,nan,nan,142,1.0,-0.289568116499,-0.0146273521697,nan,nan,nan,nan,0.0,0.0,0.0,nan,176.579012926,182.8539359,183.35399021,183.058859099,nan,nan,nan,nan
1,7,1,1,1.0,1.0,0.252779324306,0,nan,nan,nan,nan,nan,nan,nan,nan,nan,188,1.0,-0.0857393506835,0.392804289229,nan,nan,nan,nan,0.0,0.0,0.0,nan,176.579012926,183.854068469,184.354104249,184.106847794,nan,nan,nan,nan
1,8,1,1,1.0,1.0,0.196620079223,0,nan,nan,nan,nan,nan,nan,nan,nan,nan,274,0.289344050657,0.322900892411,0.632670269059,nan,nan,nan,nan,0.0,0.0,0.0,nan,176.579012926,184.854196192,185.354268749,185.050816271,nan,nan,nan,nan
1,9,1,1,1.0,1.0,0.132468182594,0,nan,nan,nan,nan,nan,nan,nan,nan,nan,495,0.706485112283,0.278551693791,-1.0,nan,nan,nan,nan,0.0,0.0,0.0,nan,176.579012926,185.854310515,186.354397612,185.986778698,nan,nan,nan,nan
1,10,1,1,1.0,1.0,0.0843497698661,0,nan,nan,nan,nan,nan,nan,nan,nan,nan,35,1.0,0.0462653595507,-1.0,nan,nan,nan,nan,0.0,0.0,0.0,nan,176.579012926,186.85444508,187.354528186,186.93879485,nan,nan,nan,nan
1,11,1,1,1.0,1.0,0.00415184511803,0,nan,nan,nan,nan,nan,nan,nan,nan,nan,163,1.0,-0.214247802105,0.185723682048,nan,nan,nan,nan,0.0,0.0,0.0,nan,176.579012926,187.854580216,188.354683563,187.858732061,nan,nan,nan,nan
1,12,1,1,1.0,1.0,0.0119614652358,0,nan,nan,nan,nan,nan,nan,nan,nan,nan,496,0.714833717156,0.274923884212,-1.0,nan,nan,nan,nan,0.0,0.0,0.0,nan,176.579012926,188.854734452,189.354800167,188.866695917,nan,nan,nan,nan
1,13,1,1,1.0,1.0,0.731785321841,0,nan,nan,nan,nan,nan,nan,nan,nan,nan,83,1.0,-0.203097876184,-0.665876706514,nan,nan,nan,nan,0.0,0.0,0.0,nan,176.579012926,189.85484564,190.354935872,190.586630961,nan,nan,nan,nan
1,14,1,1,1.0,1.0,0.755637834081,0,nan,nan,nan,nan,nan,nan,nan,nan,nan,190,1.0,-0.0746884387243,0.407399635172,nan,nan,nan,nan,0.0,0.0,0.0,nan,176.579012926,190.854981345,191.355069582,191.610619179,nan,nan,nan,nan
1,15,1,1,1.0,1.0,0.731472287094,0,nan,nan,nan,nan,nan,nan,nan,nan,nan,137,1.0,-0.300190217086,-0.0647316600203,nan,nan,nan,nan,0.0,0.0,0.0,nan,176.579012926,191.85511534,192.355206428,192.586587627,nan,nan,nan,nan
1,16,1,1,1.0,1.0,0.683339334792,1,nan,nan,nan,nan,nan,nan,nan,nan,nan,288,0.150005133015,0.365331945294,0.586687239957,-32.3243341516,122.324334152,-80.1756658484,174.0,1.0,-0.160790688716,0.281981279739,1.13377477508,176.579012926,192.855245913,193.355340138,193.538585248,195.830645311,196.831554195,194.680497503,195.822319953
1,17,0,0,0.0,1.0,0.547651568893,0,nan,nan,nan,nan,nan,nan,nan,nan,nan,94,1.0,-0.249439013202,-0.526745155233,nan,nan,nan,nan,0.0,0.0,0.0,nan,176.579012926,197.030842768,197.53088539,197.578494337,nan,nan,nan,nan
1,18,1,1,1.0,1.0,0.299501909642,0,nan,nan,nan,nan,nan,nan,nan,nan,nan,47,1.0,-0.0170755915744,-1.0,nan,nan,nan,nan,0.0,0.0,0.0,nan,176.579012926,198.030942837,198.530994581,198.330444746,nan,nan,nan,nan
1,19,1,1,1.0,1.0,0.195396164432,0,nan,nan,nan,nan,nan,nan,nan,nan,nan,484,0.614398947124,0.316112737715,-1.0,nan,nan,nan,nan,0.0,0.0,0.0,nan,176.579012926,199.031076546,199.531132567,199.226472711,nan,nan,nan,nan
1,20,0,0,1.0,0.0,0.259151208214,0,0.0,0.0,0.0,nan,nan,nan,nan,nan,nan,181,1.0,-0.123914391386,0.3392011262,nan,nan,nan,nan,0.0,0.0,0.0,nan,176.579012926,200.031245323,200.531282528,200.290396531,nan,nan,nan,nan
1,21,1,1,1.0,1.0,0.219022880774,0,nan,nan,nan,nan,nan,nan,nan,nan,nan,58,1.0,-0.0760896648475,-1.0,nan,nan,nan,nan,0.0,0.0,0.0,nan,176.579012926,201.031376752,201.531427641,201.250399633,nan,nan,nan,nan
1,22,1,1,1.0,1.0,0.218868929194,0,nan,nan,nan,nan,nan,nan,nan,nan,nan,289,0.140592130943,0.368073254824,0.582505265782,nan,nan,nan,nan,0.0,0.0,0.0,nan,176.579012926,202.031512742,202.531535122,202.250381672,nan,nan,nan,nan
1,23,1,1,1.0,1.0,0.0747366358992,0,nan,nan,nan,nan,nan,nan,nan,nan,nan,71,1.0,-0.144504067012,-0.877980773838,nan,nan,nan,nan,0.0,0.0,0.0,nan,176.579012926,203.03162564,203.531686223,203.106362276,nan,nan,nan,nan
1,24,1,1,1.0,1.0,0.0185699781869,0,nan,nan,nan,nan,nan,nan,nan,nan,nan,263,0.405698801511,0.284171736334,0.651829885785,nan,nan,nan,nan,0.0,0.0,0.0,nan,176.579012926,204.031755073,204.531821928,204.050325052,nan,nan,nan,nan
1,25,1,1,nan,nan,nan,0,nan,nan,nan,nan,nan,nan,nan,nan,nan,7,0.9030914636,0.181853060355,-1.0,nan,nan,nan,nan,0.0,0.0,0.0,nan,176.579012926,205.031897336,205.531952502,nan,nan,nan,nan,nan
1,26,1,1,1.0,1.0,0.786192370346,0,nan,nan,nan,nan,nan,nan,nan,nan,nan,75,1.0,-0.164714458691,-0.791355921409,nan,nan,nan,nan,0.0,0.0,0.0,nan,176.579012926,206.032025344,206.53208165,206.818217714,nan,nan,nan,nan
1,27,1,1,1.0,1.0,0.714080038248,0,nan,nan,nan,nan,nan,nan,nan,nan,nan,146,1.0,-0.278792578557,0.0248813210997,nan,nan,nan,nan,0.0,0.0,0.0,nan,176.579012926,207.03214651,207.532228759,207.746226548,nan,nan,nan,nan
1,28,1,1,1.0,1.0,0.697911704192,0,nan,nan,nan,nan,nan,nan,nan,nan,nan,52,1.0,-0.0438860552364,-1.0,nan,nan,nan,nan,0.0,0.0,0.0,nan,176.579012926,208.03228136,208.532356767,208.730193064,nan,nan,nan,nan
1,29,1,1,1.0,1.0,0.689759684261,0,nan,nan,nan,nan,nan,nan,nan,nan,nan,373,-0.135407706169,0.478559568072,-0.0996974893599,nan,nan,nan,nan,0.0,0.0,0.0,nan,176.579012926,209.032417065,209.532494754,209.722176749,nan,nan,nan,nan
1,30,0,0,0.0,1.0,0.46555234259,0,nan,nan,nan,nan,nan,nan,nan,nan,nan,291,0.122027637739,0.373441943191,0.573791926984,nan,nan,nan,nan,0.0,0.0,0.0,nan,176.579012926,210.032589833,210.532621906,210.498142176,nan,nan,nan,nan
1,31,1,1,1.0,1.0,0.361418657936,0,nan,nan,nan,nan,nan,nan,nan,nan,nan,163,1.0,-0.214247802105,0.185723682048,nan,nan,nan,nan,0.0,0.0,0.0,nan,176.579012926,211.032682489,211.532761603,211.394101147,nan,nan,nan,nan
1,32,1,1,1.0,1.0,0.161272517871,0,nan,nan,nan,nan,nan,nan,nan,nan,nan,330,-0.139766326074,0.449518327743,0.319540245599,nan,nan,nan,nan,0.0,0.0,0.0,nan,176.579012926,212.03282076,212.532859961,212.194093278,nan,nan,nan,nan
1,33,0,0,1.0,0.0,0.0570823843591,0,0.0,0.0,0.0,nan,nan,nan,nan,nan,nan,493,0.689769084006,0.285700779988,-1.0,nan,nan,nan,nan,0.0,0.0,0.0,nan,176.579012926,213.032994668,213.533029308,213.090077053,nan,nan,nan,nan
1,34,1,1,1.0,1.0,0.088954346953,0,nan,nan,nan,nan,nan,nan,nan,nan,nan,322,-0.105067232891,0.43811622051,0.383559350674,nan,nan,nan,nan,0.0,0.0,0.0,nan,176.579012926,214.033077916,214.533158741,214.122032263,nan,nan,nan,nan
1,35,1,1,nan,nan,nan,0,nan,nan,nan,nan,nan,nan,nan,nan,nan,507,0.805995650865,0.232688349973,-1.0,nan,nan,nan,nan,0.0,0.0,0.0,nan,176.579012926,215.033213622,215.533291881,nan,nan,nan,nan,nan
1,36,1,1,1.0,1.0,0.744588959264,1,nan,nan,nan,nan,nan,nan,nan,nan,nan,7,0.9030914636,0.181853060355,-1.0,80.967030301,9.03296969897,4.11109469897,13.0,0.950262168777,0.154664060346,-1.0,2.20903997822,176.579012926,216.033347332,216.533426731,216.777936291,220.083866818,221.088976299,217.858570982,220.075534048
1,37,1,1,1.0,1.0,0.309491654858,0,nan,nan,nan,nan,nan,nan,nan,nan,nan,248,0.568115903494,0.223728204869,0.653295769881,nan,nan,nan,nan,0.0,0.0,0.0,nan,176.579012926,221.292388778,221.792435106,221.601880433,nan,nan,nan,nan
1,38,1,1,1.0,1.0,0.22928204108,0,nan,nan,nan,nan,nan,nan,nan,nan,nan,148,1.0,-0.272695592461,0.0444264621409,nan,nan,nan,nan,0.0,0.0,0.0,nan,176.579012926,222.292537313,222.792603312,222.521819354,nan,nan,nan,nan
1,39,1,1,1.0,1.0,0.117146867327,0,nan,nan,nan,nan,nan,nan,nan,nan,nan,434,0.213881816697,0.43461034373,-1.0,nan,nan,nan,nan,0.0,0.0,0.0,nan,176.579012926,223.292654487,223.792728754,223.409801354,nan,nan,nan,nan
1,40,1,1,1.0,1.0,0.100946032209,1,nan,nan,nan,nan,nan,nan,nan,nan,nan,208,0.97651257568,0.025020743352,0.522574479073,-45.2010369978,135.201036998,-11.0489630022,192.0,1.0,-0.0635997558896,0.421658406928,1.88389287586,176.579012926,224.29282868,224.792861324,224.393774712,228.026618223,229.029216298,226.126361153,228.018286593
1,41,1,1,1.0,1.0,0.398857679451,0,nan,nan,nan,nan,nan,nan,nan,nan,nan,354,-0.174470673547,0.472100788149,0.0988677247603,nan,nan,nan,nan,0.0,0.0,0.0,nan,176.579012926,229.226784605,229.726827512,229.625642285,nan,nan,nan,nan
1,42,1,1,1.0,1.0,0.238713284256,0,nan,nan,nan,nan,nan,nan,nan,nan,nan,219,0.871627318206,0.0840881726889,0.576959667802,nan,nan,nan,nan,0.0,0.0,0.0,nan,176.579012926,230.226930574,230.726969489,230.465643858,nan,nan,nan,nan
1,43,1,1,1.0,1.0,0.18256002618,0,nan,nan,nan,nan,nan,nan,nan,nan,nan,42,1.0,0.00954878589686,-1.0,nan,nan,nan,nan,0.0,0.0,0.0,nan,176.579012926,231.22705174,231.72712173,231.409611766,nan,nan,nan,nan
1,44,1,1,1.0,1.0,0.134413389023,0,nan,nan,nan,nan,nan,nan,nan,nan,nan,352,-0.17544712699,0.470851603012,0.118673592819,nan,nan,nan,nan,0.0,0.0,0.0,nan,176.579012926,232.227201415,232.727258006,232.361614804,nan,nan,nan,nan
1,45,1,1,1.0,1.0,0.0302269617096,0,nan,nan,nan,nan,nan,nan,nan,nan,nan,203,1.0,-0.00249325098487,0.493674673203,nan,nan,nan,nan,0.0,0.0,0.0,nan,176.579012926,233.227348809,233.727396848,233.257575771,nan,nan,nan,nan
1,46,1,1,1.0,1.0,0.0220404453576,0,nan,nan,nan,nan,nan,nan,nan,nan,nan,490,0.664660387652,0.296157848571,-1.0,nan,nan,nan,nan,0.0,0.0,0.0,nan,176.579012926,234.227486225,234.727527706,234.24952667,nan,nan,nan,nan
1,47,1,1,1.0,1.0,0.637874590466,0,nan,nan,nan,nan,nan,nan,nan,nan,nan,297,0.0686262056446,0.388646276542,0.544904663634,nan,nan,nan,nan,0.0,0.0,0.0,nan,176.579012926,235.22761965,235.727662842,235.86549424,nan,nan,nan,nan
1,48,1,1,1.0,1.0,0.333721063333,0,nan,nan,nan,nan,nan,nan,nan,nan,nan,42,1.0,0.00954878589686,-1.0,nan,nan,nan,nan,0.0,0.0,0.0,nan,176.579012926,236.227729411,236.727782582,236.561450475,nan,nan,nan,nan
1,49,1,1,1.0,1.0,0.213560166769,0,nan,nan,nan,nan,nan,nan,nan,nan,nan,415,0.0813077335083,0.459153678902,-0.614968023274,nan,nan,nan,nan,0.0,0.0,0.0,nan,176.579012926,237.227903035,237.72789776,237.441463201,nan,nan,nan,nan
1,50,1,1,1.0,1.0,0.16539699398,0,nan,nan,nan,nan,nan,nan,nan,nan,nan,216,0.900975005756,0.0682271079607,0.563426584804,nan,nan,nan,nan,0.0,0.0,0.0,nan,176.579012926,238.227988278,238.72803147,238.393385272,nan,nan,nan,nan
1,51,0,0,1.0,0.0,0.213237723568,0,0.0,0.0,0.0,nan,nan,nan,nan,nan,nan,448,0.32026743599,0.409662251776,-1.0,nan,nan,nan,nan,0.0,0.0,0.0,nan,176.579012926,239.228155629,239.728189128,239.441393353,nan,nan,nan,nan
1,52,1,1,1.0,1.0,0.229099580087,0,nan,nan,nan,nan,nan,nan,nan,nan,nan,167,1.0,-0.195605812978,0.221546716301,nan,nan,nan,nan,0.0,0.0,0.0,nan,176.579012926,240.228253702,240.728295753,240.457353282,nan,nan,nan,nan
1,53,1,1,1.0,1.0,0.212999668904,0,nan,nan,nan,nan,nan,nan,nan,nan,nan,65,1.0,-0.113312155659,-1.0,nan,nan,nan,nan,0.0,0.0,0.0,nan,176.579012926,241.228388267,241.728455692,241.441387936,nan,nan,nan,nan
1,54,1,1,1.0,1.0,0.22881334438,0,nan,nan,nan,nan,nan,nan,nan,nan,nan,18,0.988682696815,0.131162580546,-1.0,nan,nan,nan,nan,0.0,0.0,0.0,nan,176.579012926,242.228554478,242.728568305,242.457367822,nan,nan,nan,nan
1,55,1,1,1.0,1.0,0.156665090239,0,nan,nan,nan,nan,nan,nan,nan,nan,nan,468,0.481236483515,0.363131620867,-1.0,nan,nan,nan,nan,0.0,0.0,0.0,nan,176.579012926,243.228690753,243.728713133,243.385355843,nan,nan,nan,nan
1,56,1,1,nan,nan,nan,1,nan,nan,nan,nan,nan,nan,nan,nan,nan,287,0.159501648714,0.36255249221,0.590751920292,-114.12840293,204.12840293,2.33152793027,290.0,0.131265381085,0.370776544741,0.578206616232,1.30045013712,176.579012926,244.228819902,244.728865659,nan,247.379183527,248.388332525,246.062341826,247.37084762
1,57,0,0,0.0,1.0,0.43738690624,0,nan,nan,nan,nan,nan,nan,nan,nan,nan,141,1.0,-0.291952736687,-0.024586852943,nan,nan,nan,nan,0.0,0.0,0.0,nan,176.579012926,248.587743404,249.087774622,249.02513031,nan,nan,nan,nan
1,58,1,1,1.0,1.0,0.229231294245,0,nan,nan,nan,nan,nan,nan,nan,nan,nan,54,1.0,-0.0546292063271,-1.0,nan,nan,nan,nan,0.0,0.0,0.0,nan,176.579012926,249.587872837,250.087882103,249.817104131,nan,nan,nan,nan
1,59,1,1,1.0,1.0,0.18112713634,0,nan,nan,nan,nan,nan,nan,nan,nan,nan,334,-0.152796554809,0.454467054946,0.285576400052,nan,nan,nan,nan,0.0,0.0,0.0,nan,176.579012926,250.587968059,251.088017808,250.769095195,nan,nan,nan,nan
1,60,1,1,1.0,1.0,0.213034165557,0,nan,nan,nan,nan,nan,nan,nan,nan,nan,133,1.0,-0.306259573676,-0.105336427414,nan,nan,nan,nan,0.0,0.0,0.0,nan,176.579012926,251.588107471,252.088149522,251.801141636,nan,nan,nan,nan
1,61,1,1,1.0,1.0,0.148812705651,0,nan,nan,nan,nan,nan,nan,nan,nan,nan,486,0.631151757674,0.309603058574,-1.0,nan,nan,nan,nan,0.0,0.0,0.0,nan,176.579012926,252.588269405,253.088313167,252.737082111,nan,nan,nan,nan
1,62,1,1,1.0,1.0,0.108679246856,0,nan,nan,nan,nan,nan,nan,nan,nan,nan,262,0.416452475899,0.2804144186,0.652815538838,nan,nan,nan,nan,0.0,0.0,0.0,nan,176.579012926,253.58840454,254.08844032,253.697083787,nan,nan,nan,nan
1,63,1,1,1.0,1.0,0.108488517813,0,nan,nan,nan,nan,nan,nan,nan,nan,nan,470,0.497741612616,0.357740777197,-1.0,nan,nan,nan,nan,0.0,0.0,0.0,nan,176.579012926,254.588519719,255.088571464,254.697008237,nan,nan,nan,nan
1,64,1,1,1.0,1.0,0.172305142274,0,nan,nan,nan,nan,nan,nan,nan,nan,nan,136,1.0,-0.301914900238,-0.074841205769,nan,nan,nan,nan,0.0,0.0,0.0,nan,176.579012926,255.588669394,256.088683791,255.760974536,nan,nan,nan,nan
1,65,1,1,1.0,1.0,0.115995081607,0,nan,nan,nan,nan,nan,nan,nan,nan,nan,327,-0.128086156831,0.445480682368,0.344176439252,nan,nan,nan,nan,0.0,0.0,0.0,nan,176.579012926,256.588983854,257.088851713,256.704978936,nan,nan,nan,nan
1,66,1,1,1.0,1.0,0.0840005280916,0,nan,nan,nan,nan,nan,nan,nan,nan,nan,27,1.0,0.0870912575778,-1.0,nan,nan,nan,nan,0.0,0.0,0.0,nan,176.579012926,257.588936528,258.088974589,257.672937057,nan,nan,nan,nan
1,67,1,1,1.0,1.0,0.115846261848,0,nan,nan,nan,nan,nan,nan,nan,nan,nan,491,0.673033477965,0.292707709811,-1.0,nan,nan,nan,nan,0.0,0.0,0.0,nan,176.579012926,258.589081072,259.089112575,258.704927334,nan,nan,nan,nan
1,68,1,1,1.0,1.0,0.171686200192,0,nan,nan,nan,nan,nan,nan,nan,nan,nan,379,-0.113535935895,0.478614986251,-0.165970515924,nan,nan,nan,nan,0.0,0.0,0.0,nan,176.579012926,259.589202237,260.089247995,259.760888438,nan,nan,nan,nan
1,69,1,1,1.0,1.0,0.20355901774,0,nan,nan,nan,nan,nan,nan,nan,nan,nan,67,1.0,-0.12380466598,-1.0,nan,nan,nan,nan,0.0,0.0,0.0,nan,176.579012926,260.589306012,261.089375718,260.79286503,nan,nan,nan,nan
1,70,1,1,1.0,1.0,0.195406712824,0,nan,nan,nan,nan,nan,nan,nan,nan,nan,146,1.0,-0.278792578557,0.0248813210997,nan,nan,nan,nan,0.0,0.0,0.0,nan,176.579012926,261.589436301,262.089511994,261.784843014,nan,nan,nan,nan
1,71,1,1,1.0,1.0,0.10725975642,0,nan,nan,nan,nan,nan,nan,nan,nan,nan,88,1.0,-0.225257592204,-0.599932847766,nan,nan,nan,nan,0.0,0.0,0.0,nan,176.579012926,262.589580844,263.089668226,262.696840601,nan,nan,nan,nan
1,72,1,1,1.0,1.0,0.0590945880394,0,nan,nan,nan,nan,nan,nan,nan,nan,nan,155,1.0,-0.2479831371,0.111611878621,nan,nan,nan,nan,0.0,0.0,0.0,nan,176.579012926,263.589723962,264.089795094,263.64881855,nan,nan,nan,nan
1,73,1,1,nan,nan,nan,0,nan,nan,nan,nan,nan,nan,nan,nan,nan,259,0.44882283482,0.268906983076,0.655011783756,nan,nan,nan,nan,0.0,0.0,0.0,nan,176.579012926,264.589842847,265.089915119,nan,nan,nan,nan,nan
1,74,1,1,1.0,1.0,0.114764039405,0,nan,nan,nan,nan,nan,nan,nan,nan,nan,319,-0.0891891826932,0.433308674125,0.406137099325,nan,nan,nan,nan,0.0,0.0,0.0,nan,176.579012926,265.58997057,266.09002488,265.704734609,nan,nan,nan,nan
1,75,1,1,1.0,1.0,0.170542682288,0,nan,nan,nan,nan,nan,nan,nan,nan,nan,81,1.0,-0.193804253699,-0.694219169772,nan,nan,nan,nan,0.0,0.0,0.0,nan,176.579012926,266.590140201,267.090165147,266.760682884,nan,nan,nan,nan
1,76,1,1,1.0,1.0,0.122453349177,0,nan,nan,nan,nan,nan,nan,nan,nan,nan,475,0.539218753276,0.343659807328,-1.0,nan,nan,nan,nan,0.0,0.0,0.0,nan,176.579012926,267.590238845,268.09030912,267.712692194,nan,nan,nan,nan
1,77,1,1,1.0,1.0,0.130282925908,0,nan,nan,nan,nan,nan,nan,nan,nan,nan,423,0.135229581944,0.450080889006,-0.750039916123,nan,nan,nan,nan,0.0,0.0,0.0,nan,176.579012926,268.590371129,269.090449673,268.720654055,nan,nan,nan,nan
1,78,1,1,1.0,1.0,0.00208461796865,0,nan,nan,nan,nan,nan,nan,nan,nan,nan,78,1.0,-0.179467652321,-0.739907630878,nan,nan,nan,nan,0.0,0.0,0.0,nan,176.579012926,269.590529357,270.090578821,269.592613975,nan,nan,nan,nan
1,79,1,1,1.0,1.0,0.0419469512999,0,nan,nan,nan,nan,nan,nan,nan,nan,nan,485,0.622774561467,0.312875618285,-1.0,nan,nan,nan,nan,0.0,0.0,0.0,nan,176.579012926,270.590651948,271.09071082,270.632598899,nan,nan,nan,nan
1,80,1,1,1.0,1.0,0.0177642984781,0,nan,nan,nan,nan,nan,nan,nan,nan,nan,110,1.0,-0.296722754836,-0.346921960777,nan,nan,nan,nan,0.0,0.0,0.0,nan,176.579012926,271.590787083,272.090846526,271.608551382,nan,nan,nan,nan
1,81,0,0,1.0,0.0,0.113599709468,0,0.0,0.0,0.0,0.251857993407,0.216726659336,0.0351313340717,0.468584652743,0.216726659336,0.0577703197487,405,0.018463324075,0.468009379796,-0.476293327428,nan,nan,nan,nan,0.0,0.0,0.0,nan,176.579012926,272.590947022,273.090975959,272.704546731,nan,nan,nan,nan
1,82,1,1,1.0,1.0,0.273440762889,0,0.0,0.0,0.0,0.250062431278,0.215882992347,0.0341794389315,0.465945423625,0.215882992347,0.134934923612,74,1.0,-0.159715158178,-0.810443278181,nan,nan,nan,nan,0.0,0.0,0.0,nan,176.579012926,273.591032265,274.091086576,273.864473028,nan,nan,nan,nan
1,83,1,1,1.0,1.0,0.217324282276,0,0.0,0.0,0.0,0.250362153478,0.214510786621,0.0358513668571,0.4648729401,0.214510786621,0.201454918211,454,0.367627362238,0.397084843583,-1.0,nan,nan,nan,nan,0.0,0.0,0.0,nan,176.579012926,274.591170251,275.091244519,274.808494534,nan,nan,nan,nan
1,84,1,1,1.0,1.0,0.217158356449,0,0.0,0.0,0.0,0.249943952577,0.213180797324,0.0367631552532,0.463124749901,0.213180797324,0.235974467204,191,1.0,-0.0691479807067,0.414571651978,nan,nan,nan,nan,0.0,0.0,0.0,nan,176.579012926,275.591342734,276.091379369,275.808501091,nan,nan,nan,nan
1,85,0,0,1.0,0.0,0.113004429964,0,0.0,0.0,0.0,0.249534132626,0.211875541138,0.0376585914879,0.461409673763,0.211875541138,0.182495689563,436,0.228681708805,0.431413732101,-1.0,nan,nan,nan,nan,0.0,0.0,0.0,nan,176.579012926,276.591482716,277.091509372,276.704487146,nan,nan,nan,nan
1,86,1,1,1.0,1.0,0.216827075696,0,0.0,0.0,0.0,0.247848580741,0.211102626332,0.0367459544084,0.458951207073,0.211102626332,0.182329954036,262,0.416452475899,0.2804144186,0.652815538838,nan,nan,nan,nan,0.0,0.0,0.0,nan,176.579012926,277.591566534,278.091616568,277.80839361,nan,nan,nan,nan
1,87,0,0,1.0,0.0,0.208633717149,0,0.0,0.0,0.0,0.247470269704,0.20983909121,0.0376311784934,0.457309360914,0.20983909121,0.179488407603,492,0.681403316433,0.289222019555,-1.0,nan,nan,nan,nan,0.0,0.0,0.0,nan,176.579012926,278.591740727,279.091775937,278.800374445,nan,nan,nan,nan
1,88,1,1,1.0,1.0,0.280450690305,0,0.0,0.0,0.0,0.247002359432,0.208614203509,0.0383881559225,0.455616562941,0.208614203509,0.235303827717,288,0.150005133015,0.365331945294,0.586687239957,nan,nan,nan,nan,0.0,0.0,0.0,nan,176.579012926,279.591879284,280.091884558,279.872329974,nan,nan,nan,nan
1,89,1,1,1.0,1.0,0.200006728293,0,0.0,0.0,0.0,0.247400553847,0.207400463852,0.0400000899956,0.454801017699,0.207400463852,0.229697045249,364,-0.160194321586,0.476704516321,-0.00341124574885,nan,nan,nan,nan,0.0,0.0,0.0,nan,176.579012926,280.600315829,281.100348187,280.800322557,nan,nan,nan,nan
1,90,1,1,1.0,1.0,0.311848824145,0,0.0,0.0,0.0,0.246842979429,0.206240172706,0.0406028067231,0.453083152135,0.206240172706,0.264102080915,75,1.0,-0.164714458691,-0.791355921409,nan,nan,nan,nan,0.0,0.0,0.0,nan,176.579012926,281.6004541,282.100491305,281.912302924,nan,nan,nan,nan
1,91,0,0,1.0,0.0,0.255668196827,0,0.0,0.0,0.0,0.247598861344,0.205155992105,0.0424428692391,0.452754853449,0.205155992105,0.255841249755,130,1.0,-0.309333154106,-0.136071487739,nan,nan,nan,nan,0.0,0.0,0.0,nan,176.579012926,282.600611188,283.100646112,282.856279385,nan,nan,nan,nan
1,92,1,1,1.0,1.0,0.327515675453,0,0.0,0.0,0.0,0.247691612327,0.203975340521,0.0437162718055,0.451666952848,0.203975340521,0.298344232142,68,1.0,-0.129018143495,-0.972903198114,nan,nan,nan,nan,0.0,0.0,0.0,nan,176.579012926,283.600742046,284.100748746,283.928257722,nan,nan,nan,nan
1,93,1,1,1.0,1.0,0.335378608201,0,0.0,0.0,0.0,0.248598703953,0.202989481741,0.0456092222126,0.451588185694,0.202989481741,0.306187493494,196,1.0,-0.0413610816081,0.449130757868,nan,nan,nan,nan,0.0,0.0,0.0,nan,176.579012926,284.600845821,285.100887018,284.93622443,nan,nan,nan,nan
1,94,1,1,1.0,1.0,0.311168871587,0,0.0,0.0,0.0,0.249573759057,0.20205301201,0.0475207470468,0.451626771067,0.20205301201,0.324687718414,336,-0.158211608236,0.456758111158,0.268135266647,nan,nan,nan,nan,0.0,0.0,0.0,nan,176.579012926,285.60102258,286.101025574,285.912191452,nan,nan,nan,nan
1,95,1,1,1.0,1.0,0.239037723048,0,0.0,0.0,0.0,0.250258149196,0.201031068709,0.0492270804876,0.451289217905,0.201031068709,0.295195067612,467,0.473005185182,0.365775667588,-1.0,nan,nan,nan,nan,0.0,0.0,0.0,nan,176.579012926,286.601104973,287.101158428,286.840142696,nan,nan,nan,nan
1,96,1,1,1.0,1.0,0.262904489879,0,0.0,0.0,0.0,0.25013484781,0.199926873093,0.0514318945341,0.449115402001,0.199926873093,0.271037028171,365,-0.157962026257,0.477016591838,-0.0139196855225,nan,nan,nan,nan,0.0,0.0,0.0,nan,176.579012926,287.601235547,288.101277028,287.864140037,nan,nan,nan,nan
1,97,1,1,nan,nan,nan,0,0.0,0.0,0.0,0.250273648267,0.198841753733,0.0514318945341,0.449115402001,0.198841753733,0.250971106463,87,1.0,-0.220959007447,-0.612675615602,nan,nan,nan,nan,0.0,0.0,0.0,nan,176.579012926,288.601405464,289.101444379,nan,nan,nan,nan,nan
1,98,1,1,1.0,1.0,0.278545682319,0,0.0,0.0,0.0,0.250273648267,0.198841753733,0.0514318945341,0.449115402001,0.198841753733,0.270725086099,399,-0.0164460389312,0.472031251936,-0.400274523968,nan,nan,nan,nan,0.0,0.0,0.0,nan,176.579012926,289.601535182,290.101582366,289.880080865,nan,nan,nan,nan
1,99,1,1,1.0,1.0,0.214390649693,0,0.0,0.0,0.0,0.250577648633,0.19779131698,0.0527863316537,0.448368965613,0.19779131698,0.246468166006,48,1.0,-0.0224273256894,-1.0,nan,nan,nan,nan,0.0,0.0,0.0,nan,176.579012926,290.601670032,291.10171465,290.816060682,nan,nan,nan,nan
1,100,1,1,1.0,1.0,0.246285705129,0,0.0,0.0,0.0,0.25019268056,0.1967714475,0.05342123306,0.446964128059,0.1967714475,0.246407345713,201,1.0,-0.0135712615467,0.48142235136,nan,nan,nan,nan,0.0,0.0,0.0,nan,176.579012926,291.601770386,292.101841802,291.848056091,nan,nan,nan,nan
1,101,1,1,1.0,1.0,0.262070870725,0,0.0,0.0,0.0,0.250151554502,0.195733474629,0.0544180798735,0.445885029131,0.195733474629,0.240915741849,308,-0.0186828559465,0.413097475488,0.481682330771,nan,nan,nan,nan,0.0,0.0,0.0,nan,176.579012926,292.601934601,293.101959832,292.864005472,nan,nan,nan,nan
1,102,1,1,1.0,1.0,0.213952457998,0,0.0,0.0,0.0,0.250275714046,0.194715121336,0.0555605927104,0.444990835382,0.194715121336,0.240769677951,432,0.199227897075,0.437687328843,-1.0,nan,nan,nan,nan,0.0,0.0,0.0,nan,176.579012926,293.602051205,294.102077861,293.816003663,nan,nan,nan,nan
1,103,1,1,1.0,1.0,0.277797306888,0,0.0,0.0,0.0,0.249901247489,0.193743578833,0.0561576686567,0.443644826322,0.193743578833,0.251273545204,332,-0.146647089803,0.45205423783,0.302714191958,nan,nan,nan,nan,0.0,0.0,0.0,nan,176.579012926,294.60220145,295.102233239,294.879998757,nan,nan,nan,nan
1,104,1,1,1.0,1.0,0.357635726221,0,0.0,0.0,0.0,0.250185901157,0.192772943532,0.0574129576246,0.442958844689,0.192772943532,0.283128497036,83,1.0,-0.203097876184,-0.665876706514,nan,nan,nan,nan,0.0,0.0,0.0,nan,176.579012926,295.60230608,296.102364097,295.959941807,nan,nan,nan,nan
1,105,1,1,1.0,1.0,0.33345164801,0,0.0,0.0,0.0,0.251271252925,0.192097586846,0.0591736660789,0.443368839771,0.192097586846,0.322961560373,357,-0.1717918326,0.473767524415,0.068739031695,nan,nan,nan,nan,0.0,0.0,0.0,nan,176.579012926,296.602473431,297.102500373,296.935925079,nan,nan,nan,nan
1,106,1,1,1.0,1.0,0.365283126943,0,0.0,0.0,0.0,0.252093056876,0.191309510623,0.0607835462524,0.443402567499,0.191309510623,0.352123500391,173,1.0,-0.165909522591,0.273535192888,nan,nan,nan,nan,0.0,0.0,0.0,nan,176.579012926,297.602600299,298.102632657,297.967883426,nan,nan,nan,nan
1,107,1,1,1.0,1.0,0.285179853905,0,0.0,0.0,0.0,0.253213750639,0.190689681717,0.0625240689217,0.443903432356,0.190689681717,0.327971542953,14,0.95801504718,0.150023555696,-1.0,nan,nan,nan,nan,0.0,0.0,0.0,nan,176.579012926,298.602717758,299.102753252,298.887897612,nan,nan,nan,nan
1,108,1,1,1.0,1.0,0.252667852212,0,0.0,0.0,0.0,0.253527143808,0.189778762832,0.063748380976,0.44330590664,0.189778762832,0.30104361102,175,1.0,-0.155629953633,0.290361762956,nan,nan,nan,nan,0.0,0.0,0.0,nan,176.579012926,299.611171409,300.111215456,299.863839261,nan,nan,nan,nan
1,109,1,1,1.0,1.0,0.228495177813,0,0.0,0.0,0.0,0.253518801171,0.188855278518,0.0646635226537,0.442374079689,0.188855278518,0.255447627977,111,1.0,-0.298677811705,-0.336106236365,nan,nan,nan,nan,0.0,0.0,0.0,nan,176.579012926,300.611343321,301.111344604,300.839838499,nan,nan,nan,nan
1,110,1,1,1.0,1.0,0.212314869743,0,0.0,0.0,0.0,0.253278189408,0.187960990527,0.0653171988816,0.441239179935,0.187960990527,0.231159299922,435,0.221263830514,0.433027056876,-1.0,nan,nan,nan,nan,0.0,0.0,0.0,nan,176.579012926,301.611465342,302.111476033,301.823780212,nan,nan,nan,nan
1,111,1,1,1.0,1.0,0.244185691699,0,0.0,0.0,0.0,0.252888062554,0.187106100394,0.0657819621604,0.439994162948,0.187106100394,0.228331913085,42,1.0,0.00954878589686,-1.0,nan,nan,nan,nan,0.0,0.0,0.0,nan,176.579012926,302.611601903,303.11163084,302.855787595,nan,nan,nan,nan
1,112,1,1,1.0,1.0,0.260017327964,0,0.0,0.0,0.0,0.252805964716,0.186223333188,0.0665826315283,0.439029297904,0.186223333188,0.238839296469,87,1.0,-0.220959007447,-0.612675615602,nan,nan,nan,nan,0.0,0.0,0.0,nan,176.579012926,303.611733617,304.1117808,303.871750945,nan,nan,nan,nan
1,113,1,1,1.0,1.0,0.267844624119,0,0.0,0.0,0.0,0.252873360634,0.185352386768,0.0675209738659,0.438225747402,0.185352386768,0.257349214594,490,0.664660387652,0.296157848571,-1.0,nan,nan,nan,nan,0.0,0.0,0.0,nan,176.579012926,304.611868182,305.111904532,304.879712806,nan,nan,nan,nan
1,114,1,1,1.0,1.0,0.243713573553,0,0.0,0.0,0.0,0.253011983444,0.184497850595,0.0685141328493,0.437509834039,0.184497850595,0.257191841879,98,1.0,-0.263822910468,-0.480217789416,nan,nan,nan,nan,0.0,0.0,0.0,nan,176.579012926,305.611967966,306.112016859,305.855681539,nan,nan,nan,nan
1,115,1,1,1.0,1.0,0.227516445098,0,0.0,0.0,0.0,0.252926676931,0.183651719885,0.0692749570465,0.436578396816,0.183651719885,0.246358214257,372,-0.138660017671,0.478458869494,-0.0888123791441,nan,nan,nan,nan,0.0,0.0,0.0,nan,176.579012926,306.612131895,307.11216796,306.839648341,nan,nan,nan,nan
1,116,1,1,1.0,1.0,0.331360757817,0,0.0,0.0,0.0,0.252695674824,0.182830940779,0.0698647340446,0.435526615603,0.182830940779,0.267530258823,49,1.0,-0.027785429985,-1.0,nan,nan,nan,nan,0.0,0.0,0.0,nan,176.579012926,307.612267316,308.112272875,307.943628074,nan,nan,nan,nan
1,117,1,1,1.0,1.0,0.395227844128,0,0.0,0.0,0.0,0.253404369265,0.182157225066,0.0712471441992,0.435561594331,0.182157225066,0.318035015681,400,-0.0107874812989,0.471427301814,-0.412692688905,nan,nan,nan,nan,0.0,0.0,0.0,nan,176.579012926,308.612367384,309.112408296,309.007595228,nan,nan,nan,nan
1,118,1,1,1.0,1.0,0.291030297754,0,0.0,0.0,0.0,0.254670650291,0.181832280823,0.0728383694682,0.436502931113,0.181832280823,0.3392062999,328,-0.132159558243,0.44685796506,0.336046158271,nan,nan,nan,nan,0.0,0.0,0.0,nan,176.579012926,309.612512783,310.112544001,309.903543081,nan,nan,nan,nan
1,119,1,1,1.0,1.0,0.218887460418,0,0.0,0.0,0.0,0.254992417083,0.181057950429,0.0739344666532,0.436050367512,0.181057950429,0.301715200767,400,-0.0107874812989,0.471427301814,-0.412692688905,nan,nan,nan,nan,0.0,0.0,0.0,nan,176.579012926,310.612675288,311.112673149,310.831562748,nan,nan,nan,nan
1,120,1,1,1.0,1.0,0.226739560021,0,0.0,0.0,0.0,0.254675706936,0.180293523661,0.0743821832757,0.434969230597,0.180293523661,0.245552439398,293,0.103830259013,0.378659598285,0.564617056734,nan,nan,nan,nan,0.0,0.0,0.0,nan,176.579012926,311.612794172,312.112844207,311.839533732,nan,nan,nan,nan
1,121,1,1,1.0,1.0,0.194609870901,0,0.0,0.0,0.0,0.25443278392,0.17952666448,0.0749061194401,0.433959448399,0.17952666448,0.213412297113,172,1.0,-0.170984061773,0.265024678188,nan,nan,nan,nan,0.0,0.0,0.0,nan,176.579012926,312.612931018,313.112943705,312.807540889,nan,nan,nan,nan
1,122,1,1,1.0,1.0,0.226441064849,0,0.0,0.0,0.0,0.253917069152,0.1788367008,0.0750803683519,0.432753769953,0.1788367008,0.215930165257,398,-0.0220377755791,0.472608796233,-0.387943383198,nan,nan,nan,nan,0.0,0.0,0.0,nan,176.579012926,313.613045056,314.113099937,313.839486121,nan,nan,nan,nan
1,123,1,1,1.0,1.0,0.226238647243,0,0.0,0.0,0.0,0.253682231509,0.178088763103,0.0755934684061,0.431770994611,0.178088763103,0.215763194331,472,0.51429864939,0.352212277195,-1.0,nan,nan,nan,nan,0.0,0.0,0.0,nan,176.579012926,314.613195587,315.113218822,314.839434234,nan,nan,nan,nan
1,124,1,1,1.0,1.0,0.210091124987,0,0.0,0.0,0.0,0.253449658761,0.177350386941,0.07609927182,0.430800045701,0.177350386941,0.22092361236,175,1.0,-0.155629953633,0.290361762956,nan,nan,nan,nan,0.0,0.0,0.0,nan,176.579012926,315.613305634,316.113343124,315.823396759,nan,nan,nan,nan
1,125,1,1,1.0,1.0,0.24200642202,0,0.0,0.0,0.0,0.253085301334,0.176647991012,0.0764373103217,0.429733292346,0.176647991012,0.22611206475,358,-0.170583909915,0.474268316859,0.0585874414746,nan,nan,nan,nan,0.0,0.0,0.0,nan,176.579012926,316.613433356,317.113510475,316.855439778,nan,nan,nan,nan
1,126,1,1,1.0,1.0,0.22581670573,0,0.0,0.0,0.0,0.25299297734,0.175913300933,0.0770796764063,0.428906278273,0.175913300933,0.225971417579,27,1.0,0.0870912575778,-1.0,nan,nan,nan,nan,0.0,0.0,0.0,nan,176.579012926,317.613561079,318.113611113,317.839377785,nan,nan,nan,nan
1,127,0,0,1.0,0.0,0.225709795021,0,0.0,0.0,0.0,0.252768380054,0.1752021543,0.0775662257532,0.427970534354,0.1752021543,0.231177640924,241,0.64365311028,0.192605941253,0.644254782112,nan,nan,nan,nan,0.0,0.0,0.0,nan,176.579012926,318.613729,319.11376421,318.839438795,nan,nan,nan,nan
1,128,1,1,1.0,1.0,0.201484948397,0,0.0,0.0,0.0,0.252546588373,0.17449969104,0.0780468973331,0.427046279413,0.17449969104,0.217670483049,480,0.580928072941,0.32870764083,-1.0,nan,nan,nan,nan,0.0,0.0,0.0,nan,176.579012926,319.613829354,320.113896209,319.815314302,nan,nan,nan,nan
1,129,1,1,1.0,1.0,0.233318993123,0,0.0,0.0,0.0,0.252131453089,0.173849375014,0.078282078075,0.425980828102,0.173849375014,0.220171245513,139,1.0,-0.296335611021,-0.0445992895203,nan,nan,nan,nan,0.0,0.0,0.0,nan,176.579012926,320.613993284,321.114031629,320.847312277,nan,nan,nan,nan
1,130,1,1,1.0,1.0,0.209158577723,0,0.0,0.0,0.0,0.251979739702,0.173155125613,0.0788246140885,0.425134865315,0.173155125613,0.214654173081,266,0.373577590308,0.295207490188,0.648113769863,nan,nan,nan,nan,0.0,0.0,0.0,nan,176.579012926,321.614096203,322.11416705,321.823254781,nan,nan,nan,nan
1,131,1,1,1.0,1.0,0.240978082642,0,0.0,0.0,0.0,0.251637170406,0.172503297961,0.0791338724447,0.424140468367,0.172503297961,0.227818551163,104,1.0,-0.282351481576,-0.412644567278,nan,nan,nan,nan,0.0,0.0,0.0,nan,176.579012926,322.614261844,323.114280232,322.855239926,nan,nan,nan,nan
1,132,1,1,1.0,1.0,0.224862776464,0,0.0,0.0,0.0,0.251552574471,0.171820000646,0.0797325738252,0.423372575118,0.171820000646,0.224999812276,271,0.320642857732,0.312811632898,0.639400143054,nan,nan,nan,nan,0.0,0.0,0.0,nan,176.579012926,323.614389281,324.114403964,323.839252058,nan,nan,nan,nan
1,133,1,1,1.0,1.0,0.176683923462,0,0.0,0.0,0.0,0.251342418582,0.171158464281,0.0801839543003,0.422500882863,0.171158464281,0.214174927523,59,1.0,-0.0814409933332,-1.0,nan,nan,nan,nan,0.0,0.0,0.0,nan,176.579012926,324.614527268,325.114535678,324.791211191,nan,nan,nan,nan
1,134,1,1,1.0,1.0,0.200584616745,0,0.0,0.0,0.0,0.250759149088,0.170615230296,0.0801439187924,0.421374379385,0.170615230296,0.20071043889,467,0.473005185182,0.365775667588,-1.0,nan,nan,nan,nan,0.0,0.0,0.0,nan,176.579012926,325.61462477,326.114699038,325.815209387,nan,nan,nan,nan
1,135,0,0,1.0,0.0,0.192324830918,0,0.0,0.0,0.0,0.250370199225,0.170009603921,0.0803605953044,0.420379803146,0.170009603921,0.189864457042,154,1.0,-0.251813147593,0.102138173725,nan,nan,nan,nan,0.0,0.0,0.0,nan,176.579012926,326.614792406,327.114832747,326.807117237,nan,nan,nan,nan
1,136,1,1,1.0,1.0,0.224182823673,0,0.0,0.0,0.0,0.249923696392,0.169430371159,0.0804933252334,0.419354067551,0.169430371159,0.205697423778,45,1.0,-0.0063957592436,-1.0,nan,nan,nan,nan,0.0,0.0,0.0,nan,176.579012926,327.614889054,328.114963891,327.839071878,nan,nan,nan,nan
1,137,1,1,1.0,1.0,0.216043348191,0,0.0,0.0,0.0,0.249727201181,0.168797320124,0.080929881057,0.418524521304,0.168797320124,0.210850334261,212,0.93926288676,0.0467731277665,0.543851001166,nan,nan,nan,nan,0.0,0.0,0.0,nan,176.579012926,328.615023334,329.115067666,328.831066682,nan,nan,nan,nan
1,138,1,1,1.0,1.0,0.215907072648,0,0.0,0.0,0.0,0.249472020476,0.168182083151,0.081289937325,0.417654103627,0.168182083151,0.218711081504,502,0.764740937618,0.25241357569,-1.0,nan,nan,nan,nan,0.0,0.0,0.0,nan,176.579012926,329.615154478,330.115200236,329.83106155,nan,nan,nan,nan
1,139,1,1,1.0,1.0,0.271721637342,0,0.0,0.0,0.0,0.249219652447,0.167573713177,0.0816459392701,0.416793365625,0.167573713177,0.234557352727,122,1.0,-0.311159539646,-0.219144224573,nan,nan,nan,nan,0.0,0.0,0.0,nan,176.579012926,330.615290468,331.115356183,330.887012105,nan,nan,nan,nan
1,140,1,1,1.0,1.0,0.255599773955,0,0.0,0.0,0.0,0.249387577708,0.166958499266,0.0824290784413,0.416346076974,0.166958499266,0.247742827982,487,0.639529740128,0.306295026098,-1.0,nan,nan,nan,nan,0.0,0.0,0.0,nan,176.579012926,331.615452117,332.115463379,331.871051891,nan,nan,nan,nan
1,141,0,0,1.0,0.0,0.247435780009,0,0.0,0.0,0.0,0.249433593976,0.166339837982,0.0830937559944,0.415773431958,0.166339837982,0.258252397102,439,0.251144291643,0.426392204401,-1.0,nan,nan,nan,nan,0.0,0.0,0.0,nan,176.579012926,332.615592099,333.115623887,332.863027879,nan,nan,nan,nan
1,142,1,1,1.0,1.0,0.215227975044,0,0.0,0.0,0.0,0.249418904168,0.165727254038,0.0836916501302,0.415146158205,0.165727254038,0.239421176336,26,1.0,0.0920921692153,-1.0,nan,nan,nan,nan,0.0,0.0,0.0,nan,176.579012926,333.615721533,334.115732509,333.830949508,nan,nan,nan,nan
1,143,1,1,1.0,1.0,0.239044565242,0,0.0,0.0,0.0,0.249169335342,0.165146950224,0.0840223851184,0.414316285566,0.165146950224,0.233902773432,317,-0.077772836126,0.429938605076,0.420733606481,nan,nan,nan,nan,0.0,0.0,0.0,nan,176.579012926,334.615870923,335.115868784,334.854915488,nan,nan,nan,nan
1,144,0,0,1.0,0.0,0.246929165674,0,0.0,0.0,0.0,0.249095967443,0.164549744608,0.0845462228348,0.413645712051,0.164549744608,0.233733901987,55,1.0,-0.0599996532909,-1.0,nan,nan,nan,nan,0.0,0.0,0.0,nan,176.579012926,335.615988667,336.116022451,335.862917833,nan,nan,nan,nan
1,145,1,1,1.0,1.0,0.222747653257,0,0.0,0.0,0.0,0.249080378941,0.163956872892,0.0851235060488,0.413037251833,0.163956872892,0.236240461391,420,0.1146601879,0.45369410126,-0.695047497311,nan,nan,nan,nan,0.0,0.0,0.0,nan,176.579012926,336.616113254,337.116159012,336.838860907,nan,nan,nan,nan
1,146,1,1,1.0,1.0,0.230600037612,0,0.0,0.0,0.0,0.248892288043,0.16338531292,0.0855069751229,0.412277600963,0.16338531292,0.233425618848,56,1.0,-0.0653675053377,-1.0,nan,nan,nan,nan,0.0,0.0,0.0,nan,176.579012926,337.616249529,338.116285309,337.846849567,nan,nan,nan,nan
1,147,1,1,1.0,1.0,0.214495564811,0,0.0,0.0,0.0,0.24876255577,0.162812137755,0.0859504180154,0.411574693526,0.162812137755,0.22261441856,489,0.656284860842,0.299572439858,-1.0,nan,nan,nan,nan,0.0,0.0,0.0,nan,176.579012926,338.616350738,339.116391649,338.830846303,nan,nan,nan,nan
1,148,1,1,1.0,1.0,0.190298942616,0,0.0,0.0,0.0,0.248521238933,0.162263146079,0.0862580928536,0.410784385012,0.162263146079,0.21179818168,427,0.163265173604,0.444863218481,-0.840208708629,nan,nan,nan,nan,0.0,0.0,0.0,nan,176.579012926,339.616484733,340.116527925,339.806783676,nan,nan,nan,nan
1,149,1,1,1.0,1.0,0.214130927809,0,0.0,0.0,0.0,0.248114090007,0.16176757021,0.0863465197971,0.409881660218,0.16176757021,0.206308478412,349,-0.175656888649,0.468768509344,0.147945183432,nan,nan,nan,nan,0.0,0.0,0.0,nan,176.579012926,340.616619013,341.11666306,340.830749941,nan,nan,nan,nan
1,150,1,1,1.0,1.0,0.222014102619,0,0.0,0.0,0.0,0.247878095826,0.161229598706,0.0866484971194,0.409107694532,0.161229598706,0.208814657681,472,0.51429864939,0.352212277195,-1.0,nan,nan,nan,nan,0.0,0.0,0.0,nan,176.579012926,341.616762701,342.116800476,341.838776804,nan,nan,nan,nan
1,151,1,1,1.0,1.0,0.237803544616,0,0.0,0.0,0.0,0.247699723459,0.160686929635,0.0870127938232,0.408386653094,0.160686929635,0.224649525015,222,0.841778467246,0.0997291618919,0.589484691865,nan,nan,nan,nan,0.0,0.0,0.0,nan,176.579012926,342.616918363,343.116932475,342.854721908,nan,nan,nan,nan
1,152,1,1,1.0,1.0,0.245644525159,0,0.0,0.0,0.0,0.247631941412,0.160137766462,0.0874941749494,0.407769707874,0.160137766462,0.235154057465,146,1.0,-0.278792578557,0.0248813210997,nan,nan,nan,nan,0.0,0.0,0.0,nan,176.579012926,343.617028125,344.117058203,343.86267265,nan,nan,nan,nan
1,153,1,1,1.0,1.0,0.245528206462,0,0.0,0.0,0.0,0.247618421573,0.15959223429,0.0880261872836,0.407210655863,0.15959223429,0.242992092079,77,1.0,-0.174593022316,-0.756267193339,nan,nan,nan,nan,0.0,0.0,0.0,nan,176.579012926,344.61714815,345.117193338,344.862676357,nan,nan,nan,nan
1,154,0,0,1.0,0.0,0.245329779806,0,0.0,0.0,0.0,0.247604298498,0.159052249671,0.0885520488269,0.406656548169,0.159052249671,0.245500837142,10,0.926811495151,0.168400576072,-1.0,nan,nan,nan,nan,0.0,0.0,0.0,nan,176.579012926,345.617317497,346.117350426,345.862647277,nan,nan,nan,nan
1,155,1,1,1.0,1.0,0.253175321966,0,0.0,0.0,0.0,0.247589033272,0.158517727531,0.0890713057412,0.406106760803,0.158517727531,0.248011102745,115,1.0,-0.305166285737,-0.293172749504,nan,nan,nan,nan,0.0,0.0,0.0,nan,176.579012926,346.617448356,347.117460757,346.870623678,nan,nan,nan,nan
1,156,1,1,1.0,1.0,0.229022889398,0,0.0,0.0,0.0,0.247626275197,0.157989105529,0.0896371696679,0.405615380725,0.157989105529,0.24250933039,284,0.188465149253,0.353984098999,0.602236276499,nan,nan,nan,nan,0.0,0.0,0.0,nan,176.579012926,347.617575508,348.117620981,347.846598398,nan,nan,nan,nan
1,157,1,1,1.0,1.0,0.204898966243,0,0.0,0.0,0.0,0.247503073966,0.157472323099,0.0900307508673,0.404975397065,0.157472323099,0.229032392536,433,0.206536295144,0.436163724167,-1.0,nan,nan,nan,nan,0.0,0.0,0.0,nan,176.579012926,348.617706367,349.117750414,348.822605334,nan,nan,nan,nan
1,158,1,1,1.0,1.0,0.260694144759,0,0.0,0.0,0.0,0.247222783784,0.156991253996,0.0902315297878,0.40421403778,0.156991253996,0.2315386668,280,0.228089347314,0.342018854333,0.61587222022,nan,nan,nan,nan,0.0,0.0,0.0,nan,176.579012926,349.617847204,350.117896954,349.878541349,nan,nan,nan,nan
1,159,1,1,1.0,1.0,0.276522074826,0,0.0,0.0,0.0,0.247310831895,0.156481134902,0.0908296969924,0.403791966797,0.156481134902,0.24737172861,166,1.0,-0.20036215083,0.21267421211,nan,nan,nan,nan,0.0,0.0,0.0,nan,176.579012926,350.617986616,351.118003009,350.894508691,nan,nan,nan,nan
1,160,1,1,1.0,1.0,0.268353234278,0,0.0,0.0,0.0,0.24750051529,0.155989897892,0.0915106173988,0.403490413182,0.155989897892,0.268523151288,294,0.0948761993654,0.381212130724,0.559858230992,nan,nan,nan,nan,0.0,0.0,0.0,nan,176.579012926,351.618108067,352.118123319,351.886461301,nan,nan,nan,nan
1,161,1,1,1.0,1.0,0.284217371605,0,0.0,0.0,0.0,0.247635048961,0.155494853356,0.0921401956057,0.403129902317,0.155494853356,0.276364226903,18,0.988682696815,0.131162580546,-1.0,nan,nan,nan,nan,0.0,0.0,0.0,nan,176.579012926,352.618242632,353.118255033,352.902460003,nan,nan,nan,nan
1,162,1,1,1.0,1.0,0.268078402383,0,0.0,0.0,0.0,0.24786955103,0.155023165097,0.0928463859324,0.402892716127,0.155023165097,0.273549669422,362,-0.164239727892,0.476000155386,0.0174578511848,nan,nan,nan,nan,0.0,0.0,0.0,nan,176.579012926,353.618365508,354.118385607,353.88644391,nan,nan,nan,nan
1,163,1,1,1.0,1.0,0.227944943355,0,0.0,0.0,0.0,0.247998269828,0.154537034999,0.0934612348294,0.402535304827,0.154537034999,0.260080239115,481,0.589289488337,0.325611856148,-1.0,nan,nan,nan,nan,0.0,0.0,0.0,nan,176.579012926,354.618497507,355.118529866,354.846442451,nan,nan,nan,nan
1,164,1,1,1.0,1.0,0.163734887261,0,0.0,0.0,0.0,0.24787135004,0.154055425974,0.0938159240665,0.401926776014,0.154055425974,0.219919411,322,-0.105067232891,0.43811622051,0.383559350674,nan,nan,nan,nan,0.0,0.0,0.0,nan,176.579012926,355.61862637,356.118651031,355.782361258,nan,nan,nan,nan
1,165,1,1,1.0,1.0,0.163634818979,0,0.0,0.0,0.0,0.247342189897,0.153714187068,0.0936280028285,0.401056376965,0.153714187068,0.185104883198,221,0.851781464038,0.0945411604707,0.585422935822,nan,nan,nan,nan,0.0,0.0,0.0,nan,176.579012926,356.618756944,357.118783885,356.782391763,nan,nan,nan,nan
1,166,1,1,1.0,1.0,0.131460655248,0,0.0,0.0,0.0,0.246819018829,0.153375016062,0.0934440027663,0.400194034891,0.153375016062,0.152943453829,465,0.456588679398,0.37096152752,-1.0,nan,nan,nan,nan,0.0,0.0,0.0,nan,176.579012926,357.618888088,358.118950096,357.750348743,nan,nan,nan,nan
1,167,1,1,1.0,1.0,0.211283109151,0,0.0,0.0,0.0,0.246102507254,0.153166336424,0.0929361708295,0.399268843678,0.153166336424,0.168792861126,13,0.950262168777,0.154664060346,-1.0,nan,nan,nan,nan,0.0,0.0,0.0,nan,176.579012926,358.619007828,359.119048739,358.830290937,nan,nan,nan,nan
1,168,1,1,1.0,1.0,0.307112818351,0,0.0,0.0,0.0,0.245887572697,0.152717222168,0.0931703505292,0.398604794866,0.152717222168,0.216618860917,195,1.0,-0.0469245268387,0.442396054288,nan,nan,nan,nan,0.0,0.0,0.0,nan,176.579012926,359.619143819,360.119198129,359.926256637,nan,nan,nan,nan
1,169,0,0,1.0,0.0,0.378930931911,0,0.0,0.0,0.0,0.246263187701,0.152323087063,0.093940100638,0.398586274765,0.152323087063,0.299108953138,247,0.578947625354,0.219392674348,0.6523805853,nan,nan,nan,nan,0.0,0.0,0.0,nan,176.579012926,360.619315731,361.119340107,360.998246663,nan,nan,nan,nan
1,170,1,1,1.0,1.0,0.250799906673,0,0.0,0.0,0.0,0.247072137361,0.152208778988,0.0948633583728,0.39928091635,0.152208778988,0.312281218978,50,1.0,-0.033148730948,-1.0,nan,nan,nan,nan,0.0,0.0,0.0,nan,176.579012926,361.619402115,362.119446447,361.870202022,nan,nan,nan,nan
1,171,1,1,1.0,1.0,0.258653431199,0,0.0,0.0,0.0,0.247094729903,0.151747115111,0.0953476147917,0.398841845013,0.151747115111,0.296128089928,208,0.97651257568,0.025020743352,0.522574479073,nan,nan,nan,nan,0.0,0.0,0.0,nan,176.579012926,362.619558347,363.119577021,362.878211779,nan,nan,nan,nan
1,172,1,1,1.0,1.0,0.338488429552,0,0.0,0.0,0.0,0.247164360633,0.15129199894,0.0958723616935,0.398456359573,0.15129199894,0.282647255808,80,1.0,-0.189075709245,-0.708965549488,nan,nan,nan,nan,0.0,0.0,0.0,nan,176.579012926,363.619680653,364.119710731,363.958169083,nan,nan,nan,nan
1,173,0,0,0.0,1.0,0.442301381612,0,0.0,0.0,0.0,0.247711211345,0.151002811361,0.0967083999843,0.398714022706,0.151002811361,0.346481080788,23,1.0,0.106943944166,-1.0,nan,nan,nan,nan,0.0,0.0,0.0,nan,176.579012926,364.619835745,365.119870669,365.062137127,nan,nan,nan,nan
1,174,1,1,1.0,1.0,0.226192176575,0,0.0,0.0,0.0,0.248869486168,0.151294980226,0.0975745059427,0.400164466394,0.151294980226,0.33566066258,480,0.580928072941,0.32870764083,-1.0,nan,nan,nan,nan,0.0,0.0,0.0,nan,176.579012926,365.619952919,366.120008941,365.846145096,nan,nan,nan,nan
1,175,1,1,1.0,1.0,0.250066926237,0,0.0,0.0,0.0,0.248735300905,0.150856724071,0.0978785768332,0.399592024976,0.150856724071,0.306186828141,282,0.208142307666,0.34807905204,0.609295500931,nan,nan,nan,nan,0.0,0.0,0.0,nan,176.579012926,366.620067528,367.120113571,366.870134454,nan,nan,nan,nan
1,176,1,1,1.0,1.0,0.345867270371,0,0.0,0.0,0.0,0.248743133995,0.150412407873,0.0983307261215,0.399155541868,0.150412407873,0.274042124394,343,-0.171388175652,0.463836419185,0.204822810802,nan,nan,nan,nan,0.0,0.0,0.0,nan,176.579012926,367.620197246,368.120250416,367.966064517,nan,nan,nan,nan
1,177,1,1,1.0,1.0,0.473690392682,0,0.0,0.0,0.0,0.2493111114,0.150154689219,0.0991564221819,0.399465800619,0.150154689219,0.356541529763,64,1.0,-0.108036866323,-1.0,nan,nan,nan,nan,0.0,0.0,0.0,nan,176.579012926,368.620334092,369.120403228,369.094024485,nan,nan,nan,nan
1,178,0,0,0.0,1.0,0.39349645935,0,0.0,0.0,0.0,0.250615642106,0.150686278926,0.0999293631794,0.401301921032,0.150686278926,0.404351374134,397,-0.0275613476434,0.473159987783,-0.37569455347,nan,nan,nan,nan,0.0,0.0,0.0,nan,176.579012926,369.620499732,370.120534087,370.013996192,nan,nan,nan,nan
1,179,1,1,1.0,1.0,0.209404045017,0,0.0,0.0,0.0,0.251441542783,0.150640058761,0.100801484022,0.402081601544,0.150640058761,0.35886363235,279,0.238157575771,0.338930353633,0.618978422254,nan,nan,nan,nan,0.0,0.0,0.0,nan,176.579012926,370.620629166,371.120641568,370.830033211,nan,nan,nan,nan
1,180,1,1,1.0,1.0,0.265231438912,0,0.0,0.0,0.0,0.251199947969,0.150240170155,0.100959777814,0.401440118123,0.150240170155,0.289377314427,428,0.170378320166,0.443486568519,-0.86866140055,nan,nan,nan,nan,0.0,0.0,0.0,nan,176.579012926,371.6207318,372.120772426,371.885963239,nan,nan,nan,nan
1,181,1,1,1.0,1.0,0.217081380775,0,0.0,0.0,0.0,0.251280127917,0.149814030935,0.101466096982,0.401094158852,0.149814030935,0.230572288235,168,1.0,-0.190790017254,0.230361799274,nan,nan,nan,nan,0.0,0.0,0.0,nan,176.579012926,372.620861519,373.120911838,372.837942899,nan,nan,nan,nan
1,182,1,1,1.0,1.0,0.344933297718,0,0.0,0.0,0.0,0.251085816853,0.149409930026,0.101675886828,0.400495746879,0.149409930026,0.275748705802,431,0.191957257768,0.43918128748,-0.982298765802,nan,nan,nan,nan,0.0,0.0,0.0,nan,176.579012926,373.621006632,374.12106579,373.96593993,nan,nan,nan,nan
1,183,1,1,1.0,1.0,0.296786660561,0,0.0,0.0,0.0,0.25161602861,0.149153225278,0.102462803332,0.400769253888,0.149153225278,0.286267113018,334,-0.152796554809,0.454467054946,0.285576400052,nan,nan,nan,nan,0.0,0.0,0.0,nan,176.579012926,374.621139772,375.121175837,374.917926432,nan,nan,nan,nan
1,184,1,1,1.0,1.0,0.288629224058,0,0.0,0.0,0.0,0.251869796205,0.148771978817,0.103097817388,0.400641775022,0.148771978817,0.310116394113,435,0.221263830514,0.433027056876,-1.0,nan,nan,nan,nan,0.0,0.0,0.0,nan,176.579012926,375.621259512,376.121302134,375.909888736,nan,nan,nan,nan
1,185,1,1,1.0,1.0,0.280420755269,0,0.0,0.0,0.0,0.252075156137,0.148381130234,0.103694025903,0.400456286371,0.148381130234,0.288612213296,220,0.861731547614,0.0893272636146,0.581247684387,nan,nan,nan,nan,0.0,0.0,0.0,nan,176.579012926,376.621397213,377.121472621,376.901817968,nan,nan,nan,nan
1,186,1,1,1.0,1.0,0.320237188134,0,0.0,0.0,0.0,0.252232631688,0.147983385237,0.10424924645,0.400216016925,0.147983385237,0.296429055821,59,1.0,-0.0814409933332,-1.0,nan,nan,nan,nan,0.0,0.0,0.0,nan,176.579012926,377.621557437,378.121571549,377.941794625,nan,nan,nan,nan
1,187,1,1,1.0,1.0,0.552103049355,0,0.0,0.0,0.0,0.252608347469,0.147660089815,0.104948257655,0.400268437284,0.147660089815,0.384253664253,283,0.19826868328,0.351050922538,0.605825948857,nan,nan,nan,nan,0.0,0.0,0.0,nan,176.579012926,378.621664918,379.121728066,379.173767967,nan,nan,nan,nan
1,188,1,1,1.0,1.0,0.319954373408,0,0.0,0.0,0.0,0.254253922754,0.148908817144,0.10534510561,0.403162739898,0.148908817144,0.397431536966,442,0.273907262724,0.421095538958,-1.0,nan,nan,nan,nan,0.0,0.0,0.0,nan,176.579012926,379.62178979,380.121829845,379.941744163,nan,nan,nan,nan
1,189,1,1,1.0,1.0,0.319781890605,0,0.0,0.0,0.0,0.25461294161,0.148580369254,0.106032572357,0.403193310864,0.148580369254,0.397279771122,292,0.112881669716,0.376069582356,0.569261850688,nan,nan,nan,nan,0.0,0.0,0.0,nan,176.579012926,380.621955715,381.121974959,380.941737606,nan,nan,nan,nan
1,190,1,1,1.0,1.0,0.335625786101,0,0.0,0.0,0.0,0.254967120681,0.148253509962,0.106713610719,0.403220630644,0.148253509962,0.325120683371,510,0.830554458933,0.220436700166,-1.0,nan,nan,nan,nan,0.0,0.0,0.0,nan,176.579012926,381.622070323,382.122091278,381.95769611,nan,nan,nan,nan
1,191,1,1,1.0,1.0,0.47149173636,0,0.0,0.0,0.0,0.255403113467,0.147970516521,0.107432596946,0.403373629988,0.147970516521,0.375633137689,359,-0.169222339917,0.474741883077,0.0483828026834,nan,nan,nan,nan,0.0,0.0,0.0,nan,176.579012926,382.622186357,383.122268892,383.093678094,nan,nan,nan,nan
1,192,0,0,0.0,1.0,0.42330575618,0,0.0,0.0,0.0,0.256564880257,0.148415808179,0.108149072078,0.404980688436,0.148415808179,0.41014109288,55,1.0,-0.0599996532909,-1.0,nan,nan,nan,nan,0.0,0.0,0.0,nan,176.579012926,383.622353993,384.122392909,384.04565975,nan,nan,nan,nan
1,193,1,1,1.0,1.0,0.215188632021,0,0.0,0.0,0.0,0.257456542695,0.148517139884,0.108939402811,0.405973682579,0.148517139884,0.369995374853,11,0.934659501434,0.163852895862,-1.0,nan,nan,nan,nan,0.0,0.0,0.0,nan,176.579012926,384.622453492,385.122512649,384.837642124,nan,nan,nan,nan
1,194,0,0,1.0,0.0,0.166976992972,0,0.0,0.0,0.0,0.257231713383,0.148153525356,0.109078188027,0.405385238739,0.148153525356,0.268490460391,108,1.0,-0.292426609412,-0.368663285579,nan,nan,nan,nan,0.0,0.0,0.0,nan,176.579012926,385.622629966,386.122661184,385.789606959,nan,nan,nan,nan
1,195,1,1,1.0,1.0,0.166839006823,0,0.0,0.0,0.0,0.25675417518,0.147906066013,0.108848109167,0.404660241192,0.147906066013,0.183001543938,223,0.83172397378,0.104890589731,0.593432239612,nan,nan,nan,nan,0.0,0.0,0.0,nan,176.579012926,386.622756548,387.12276895,386.789595555,nan,nan,nan,nan
1,196,1,1,1.0,1.0,0.182695731521,0,0.0,0.0,0.0,0.256280937451,0.147659722814,0.108621214637,0.403940660266,0.147659722814,0.172170577105,487,0.639529740128,0.306295026098,-1.0,nan,nan,nan,nan,0.0,0.0,0.0,nan,176.579012926,387.622849489,388.122894107,387.805545221,nan,nan,nan,nan
1,197,1,1,1.0,1.0,0.158599462826,0,0.0,0.0,0.0,0.255895674593,0.147368385575,0.108527289018,0.403264060168,0.147368385575,0.169378067056,119,1.0,-0.309446327048,-0.250710895617,nan,nan,nan,nan,0.0,0.0,0.0,nan,176.579012926,388.622982914,389.123056041,388.781582377,nan,nan,nan,nan
1,198,1,1,1.0,1.0,0.238376016496,0,0.0,0.0,0.0,0.25538892349,0.147150866667,0.108238056824,0.402539790157,0.147150866667,0.193223736947,52,1.0,-0.0438860552364,-1.0,nan,nan,nan,nan,0.0,0.0,0.0,nan,176.579012926,389.623140857,390.123193742,389.861516873,nan,nan,nan,nan
1,199,1,1,1.0,1.0,0.36623990722,0,0.0,0.0,0.0,0.255300773713,0.146774234143,0.10852653957,0.402075007856,0.146774234143,0.254405128847,209,0.967301840512,0.0304835193525,0.52804999659,nan,nan,nan,nan,0.0,0.0,0.0,nan,176.579012926,390.623281979,391.1232921,390.989521886,nan,nan,nan,nan
1,200,1,1,1.0,1.0,0.374049527338,0,0.0,0.0,0.0,0.255872624917,0.14661086164,0.109261763277,0.402483486556,0.14661086164,0.326221817018,123,1.0,-0.311441137266,-0.208672863777,nan,nan,nan,nan,0.0,0.0,0.0,nan,176.579012926,391.623377771,392.123423529,391.997427299,nan,nan,nan,nan
1,201,1,1,1.0,1.0,0.245888567064,0,0.0,0.0,0.0,0.256478660314,0.146477873406,0.110000786908,0.40295653372,0.146477873406,0.328726000541,172,1.0,-0.170984061773,0.265024678188,nan,nan,nan,nan,0.0,0.0,0.0,nan,176.579012926,392.623511766,393.123556954,392.869400333,nan,nan,nan,nan
1,202,1,1,1.0,1.0,0.189769805409,0,0.0,0.0,0.0,0.256424629226,0.146105675699,0.110318953527,0.402530304925,0.146105675699,0.26990263327,413,0.0683106243366,0.461143133648,-0.585495598612,nan,nan,nan,nan,0.0,0.0,0.0,nan,176.579012926,393.623675696,394.123718888,393.813445501,nan,nan,nan,nan
1,203,1,1,1.0,1.0,0.181576161645,0,0.0,0.0,0.0,0.256086279866,0.14581133999,0.110274939876,0.401897619856,0.14581133999,0.205744844706,135,1.0,-0.303502321856,-0.0849788702499,nan,nan,nan,nan,0.0,0.0,0.0,nan,176.579012926,394.623809406,395.123852883,394.805385567,nan,nan,nan,nan
1,204,1,1,1.0,1.0,0.221438779961,0,0.0,0.0,0.0,0.255709966138,0.145538537572,0.110171428566,0.40124850371,0.145538537572,0.197594915672,272,0.310166696092,0.316214117232,0.637281430288,nan,nan,nan,nan,0.0,0.0,0.0,nan,176.579012926,395.623908904,396.123982031,395.845347684,nan,nan,nan,nan
1,205,1,1,1.0,1.0,0.205228822073,0,0.0,0.0,0.0,0.255537749122,0.145192626583,0.110345122539,0.400730375705,0.145192626583,0.202747921227,194,1.0,-0.0524864644427,0.435571704399,nan,nan,nan,nan,0.0,0.0,0.0,nan,176.579012926,396.624073974,397.124084095,396.829302796,nan,nan,nan,nan
1,206,1,1,1.0,1.0,0.221111205174,0,0.0,0.0,0.0,0.255286204487,0.144872654376,0.110413550111,0.400158858863,0.144872654376,0.215926269069,108,1.0,-0.292426609412,-0.368663285579,nan,nan,nan,nan,0.0,0.0,0.0,nan,176.579012926,397.624222794,398.12421809,397.845333999,nan,nan,nan,nan
1,207,1,1,1.0,1.0,0.300943067297,0,0.0,0.0,0.0,0.255116179614,0.144531828118,0.110584351496,0.399648007732,0.144531828118,0.242427698181,491,0.673033477965,0.292707709811,-1.0,nan,nan,nan,nan,0.0,0.0,0.0,nan,176.579012926,398.624332556,399.124353796,398.925275623,nan,nan,nan,nan
1,208,1,1,1.0,1.0,0.236759525025,0,0.0,0.0,0.0,0.255343045395,0.144209504916,0.111133540479,0.399552550311,0.144209504916,0.252937932499,133,1.0,-0.306259573676,-0.105336427414,nan,nan,nan,nan,0.0,0.0,0.0,nan,176.579012926,399.624463415,400.124482088,399.86122294,nan,nan,nan,nan
1,209,1,1,1.0,1.0,0.188649095129,0,0.0,0.0,0.0,0.25525150096,0.143859754336,0.111391746624,0.399111255295,0.143859754336,0.242117229151,232,0.739158239773,0.150046616059,0.623712016981,nan,nan,nan,nan,0.0,0.0,0.0,nan,176.579012926,400.624576312,401.124614088,400.813225408,nan,nan,nan,nan
1,210,1,1,1.0,1.0,0.108489658218,0,0.0,0.0,0.0,0.254925018578,0.143582093861,0.111342924717,0.398507112439,0.143582093861,0.177966092791,108,1.0,-0.292426609412,-0.368663285579,nan,nan,nan,nan,0.0,0.0,0.0,nan,176.579012926,401.624706031,402.124780013,401.733195689,nan,nan,nan,nan
1,211,1,1,1.0,1.0,0.100334502524,0,0.0,0.0,0.0,0.254210699747,0.143594373139,0.110616326608,0.397805072886,0.143594373139,0.13249108529,422,0.128328379107,0.451313674078,-0.730894888444,nan,nan,nan,nan,0.0,0.0,0.0,nan,176.579012926,402.624837175,403.124910017,402.725171678,nan,nan,nan,nan
1,212,1,1,1.0,1.0,0.188200925011,0,0.0,0.0,0.0,0.253463727916,0.143644120354,0.109819607562,0.39710784827,0.143644120354,0.132341695251,101,1.0,-0.273572672894,-0.446152610616,nan,nan,nan,nan,0.0,0.0,0.0,nan,176.579012926,403.624980578,404.125024625,403.813181503,nan,nan,nan,nan
1,213,1,1,1.0,1.0,0.220014157705,0,0.0,0.0,0.0,0.253148448675,0.143368164284,0.109780284391,0.396516612959,0.143368164284,0.169516528413,38,1.0,0.0306259494545,-1.0,nan,nan,nan,nan,0.0,0.0,0.0,nan,176.579012926,404.625109726,405.125149497,404.845123884,nan,nan,nan,nan
1,214,1,1,1.0,1.0,0.251818837831,0,0.0,0.0,0.0,0.252989149199,0.143041476683,0.109947672516,0.396030625882,0.143041476683,0.220011306849,279,0.238157575771,0.338930353633,0.618978422254,nan,nan,nan,nan,0.0,0.0,0.0,nan,176.579012926,405.625255125,406.125303734,405.877073963,nan,nan,nan,nan
1,215,1,1,1.0,1.0,0.163678153418,0,0.0,0.0,0.0,0.252983549623,0.142698884727,0.110284664896,0.39568243435,0.142698884727,0.211837049651,127,1.0,-0.31111021432,-0.167036648065,nan,nan,nan,nan,0.0,0.0,0.0,nan,176.579012926,406.625399098,407.125437729,406.789077251,nan,nan,nan,nan
1,216,1,1,1.0,1.0,0.0915498558898,0,0.0,0.0,0.0,0.252558285832,0.142491412627,0.110066873204,0.395049698459,0.142491412627,0.169015615713,242,0.632911854383,0.197161183215,0.645921401967,nan,nan,nan,nan,0.0,0.0,0.0,nan,176.579012926,407.625497171,408.125571153,407.717047027,nan,nan,nan,nan
1,217,1,1,1.0,1.0,0.107384913368,0,0.0,0.0,0.0,0.251795212704,0.142582800664,0.10921241204,0.394378013368,0.142582800664,0.120870974225,460,0.415848916989,0.383334931935,-1.0,nan,nan,nan,nan,0.0,0.0,0.0,nan,176.579012926,408.625633162,409.125700586,408.733018075,nan,nan,nan,nan
1,218,0,0,1.0,0.0,0.211168500828,0,0.0,0.0,0.0,0.251114032047,0.142589848861,0.108524183186,0.393703880907,0.142589848861,0.136701090029,305,0.00361192545304,0.406859252708,0.500196907155,nan,nan,nan,nan,0.0,0.0,0.0,nan,176.579012926,409.625798802,410.125840853,409.836967303,nan,nan,nan,nan
1,219,1,1,1.0,1.0,0.227026080946,0,0.0,0.0,0.0,0.250926494342,0.142280941646,0.108645552695,0.393207435988,0.142280941646,0.181859831714,1,0.854939129564,0.207877072944,-1.0,nan,nan,nan,nan,0.0,0.0,0.0,nan,176.579012926,410.625923389,411.125937501,410.85294947,nan,nan,nan,nan
1,220,1,1,1.0,1.0,0.218901430257,0,0.0,0.0,0.0,0.250814810167,0.141957478401,0.108857331766,0.392772288568,0.141957478401,0.21903200401,72,1.0,-0.149607777062,-0.853203742106,nan,nan,nan,nan,0.0,0.0,0.0,nan,176.579012926,411.626063371,412.126071496,411.844964801,nan,nan,nan,nan
1,221,0,0,1.0,0.0,0.226703352761,0,0.0,0.0,0.0,0.250666375842,0.141643604852,0.10902277099,0.392309980693,0.141643604852,0.224210287988,445,0.296953900578,0.415520102116,-1.0,nan,nan,nan,nan,0.0,0.0,0.0,nan,176.579012926,412.6261948,413.126238277,412.852898152,nan,nan,nan,nan
1,222,1,1,1.0,1.0,0.234551745933,0,0.0,0.0,0.0,0.25055543592,0.141324708021,0.109230727899,0.391880143941,0.141324708021,0.226718842983,50,1.0,-0.033148730948,-1.0,nan,nan,nan,nan,0.0,0.0,0.0,nan,176.579012926,413.626325088,414.126331788,413.860876834,nan,nan,nan,nan
1,223,1,1,1.0,1.0,0.26638921164,0,0.0,0.0,0.0,0.250481686196,0.14100286507,0.109478821127,0.391484551266,0.14100286507,0.242548103444,156,1.0,-0.244060613314,0.121041471254,nan,nan,nan,nan,0.0,0.0,0.0,nan,176.579012926,414.626452811,415.126499139,414.892842023,nan,nan,nan,nan
1,224,1,1,1.0,1.0,0.258237477159,0,0.0,0.0,0.0,0.250554656497,0.140683198912,0.109871457585,0.391237855409,0.140683198912,0.253059478244,300,0.0433537089178,0.395748422077,0.528951029102,nan,nan,nan,nan,0.0,0.0,0.0,nan,176.579012926,415.626560292,416.126632279,415.884797769,nan,nan,nan,nan
1,225,1,1,1.0,1.0,0.298136872472,0,0.0,0.0,0.0,0.25058973787,0.140362592612,0.110227145257,0.390952330482,0.140362592612,0.274254520424,60,1.0,-0.0867837676833,-1.0,nan,nan,nan,nan,0.0,0.0,0.0,nan,176.579012926,416.626701699,417.126736338,416.924838572,nan,nan,nan,nan
1,226,1,1,1.0,1.0,0.273906894261,0,0.0,0.0,0.0,0.250805861209,0.140079740694,0.110726120515,0.390885601902,0.140079740694,0.276760414631,271,0.320642857732,0.312811632898,0.639400143054,nan,nan,nan,nan,0.0,0.0,0.0,nan,176.579012926,417.626855366,418.126861495,417.90076226,nan,nan,nan,nan
1,227,1,1,1.0,1.0,0.24146730639,0,0.0,0.0,0.0,0.25091039077,0.139771058258,0.111139332512,0.390681449028,0.139771058258,0.271170357708,464,0.448404880525,0.373503555275,-1.0,nan,nan,nan,nan,0.0,0.0,0.0,nan,176.579012926,418.635287349,419.135339949,418.876754656,nan,nan,nan,nan
1,228,1,1,1.0,1.0,0.257251617033,0,0.0,0.0,0.0,0.250867854354,0.139457336929,0.111410517425,0.390325191283,0.139457336929,0.257541939228,333,-0.149813480994,0.453275949072,0.294183738108,nan,nan,nan,nan,0.0,0.0,0.0,nan,176.579012926,419.635455556,420.135465676,419.892707173,nan,nan,nan,nan
1,229,1,1,1.0,1.0,0.257105648052,0,0.0,0.0,0.0,0.250896481092,0.139144954718,0.111751526374,0.390041435811,0.139144954718,0.251941523825,7,0.9030914636,0.181853060355,-1.0,nan,nan,nan,nan,0.0,0.0,0.0,nan,176.579012926,420.635597818,421.13559568,420.892703466,nan,nan,nan,nan
1,230,1,1,1.0,1.0,0.25655028224,0,0.0,0.0,0.0,0.250924200588,0.138834632973,0.112089567614,0.389758833561,0.138834632973,0.256969182442,153,1.0,-0.255547855702,0.0926213922694,nan,nan,nan,nan,0.0,0.0,0.0,nan,176.579012926,421.644122173,422.144068717,421.900672455,nan,nan,nan,nan
1,231,1,1,1.0,1.0,0.224439409561,0,0.0,0.0,0.0,0.250949205395,0.138526273516,0.112422931879,0.389475478911,0.138526273516,0.246031779951,473,0.522594813828,0.349396171415,-1.0,nan,nan,nan,nan,0.0,0.0,0.0,nan,176.579012926,422.644190311,423.144200146,422.86862972,nan,nan,nan,nan
1,232,1,1,1.0,1.0,0.248305606423,0,0.0,0.0,0.0,0.250831905413,0.138230658233,0.11260124718,0.389062563647,0.138230658233,0.243098432741,24,1.0,0.102019060141,-1.0,nan,nan,nan,nan,0.0,0.0,0.0,nan,176.579012926,423.644309765,424.144323022,423.892615372,nan,nan,nan,nan
1,233,1,1,1.0,1.0,0.216145127313,0,0.0,0.0,0.0,0.250820776343,0.137925950828,0.113026466383,0.388310913943,0.137925950828,0.229630047766,100,1.0,-0.270427092546,-0.457439896749,nan,nan,nan,nan,0.0,0.0,0.0,nan,176.579012926,424.64442808,425.144485242,424.860573207,nan,nan,nan,nan
1,234,1,1,nan,nan,nan,0,0.0,0.0,0.0,0.250668690163,0.13764222378,0.113026466383,0.388310913943,0.13764222378,0.232225366868,323,-0.11001989341,0.43965344528,0.375855360355,nan,nan,nan,nan,0.0,0.0,0.0,nan,176.579012926,425.644554092,426.144625509,nan,nan,nan,nan,nan
1,235,1,1,1.0,1.0,0.279819488991,0,0.0,0.0,0.0,0.250668690163,0.13764222378,0.113026466383,0.388310913943,0.13764222378,0.247982308152,392,-0.0541067903503,0.475522277549,-0.315549842675,nan,nan,nan,nan,0.0,0.0,0.0,nan,176.579012926,426.644705763,427.144753231,426.924525252,nan,nan,nan,nan
1,236,1,1,1.0,1.0,0.223667371087,0,0.0,0.0,0.0,0.250795986228,0.137354815788,0.11344117044,0.388150802015,0.137354815788,0.251743430039,156,1.0,-0.244060613314,0.121041471254,nan,nan,nan,nan,0.0,0.0,0.0,nan,176.579012926,427.644826358,428.144848453,427.86849373,nan,nan,nan,nan
1,237,1,1,1.0,1.0,0.0872144091409,0,0.0,0.0,0.0,0.250678035727,0.137067515308,0.113610520419,0.387745551035,0.137067515308,0.196900423073,380,-0.109519508899,0.478533032186,-0.177177385375,nan,nan,nan,nan,0.0,0.0,0.0,nan,176.579012926,428.653307664,429.153323201,428.740522073,nan,nan,nan,nan
1,238,1,1,1.0,1.0,0.774984982563,0,0.0,0.0,0.0,0.24997040098,0.13719090481,0.111083823399,0.393382966333,0.13719090481,0.361955587597,138,1.0,-0.29832987918,-0.0546508148191,nan,nan,nan,nan,0.0,0.0,0.0,nan,176.579012926,429.653406877,430.153489982,430.428391859,nan,nan,nan,nan
1,239,1,1,nan,nan,nan,0,0.0,0.0,0.0,0.252233394866,0.141149571467,0.111083823399,0.393382966333,0.141149571467,0.431099695852,274,0.289344050657,0.322900892411,0.632670269059,nan,nan,nan,nan,0.0,0.0,0.0,nan,176.579012926,430.653546573,431.153617135,nan,nan,nan,nan,nan
1,240,1,1,nan,nan,nan,0,0.0,0.0,0.0,0.252233394866,0.141149571467,0.111083823399,0.393382966333,0.141149571467,0.774984982563,424,0.142174562463,0.448819569244,-0.770229420881,nan,nan,nan,nan,0.0,0.0,0.0,nan,176.579012926,431.653687696,432.153754266,nan,nan,nan,nan,nan
1,241,0,0,1.0,0.0,0.190529870102,0,0.0,0.0,0.0,0.252233394866,0.141149571467,0.111083823399,0.393382966333,0.141149571467,0.190529870102,231,0.749609680972,0.145151270079,0.620821461523,nan,nan,nan,nan,0.0,0.0,0.0,nan,176.579012926,432.653843928,433.153877712,432.844373798,nan,nan,nan,nan
1,242,1,1,1.0,1.0,0.17436467181,0,0.0,0.0,0.0,0.251968572872,0.140904096968,0.111064475903,0.39287266984,0.140904096968,0.182447270956,335,-0.155595990888,0.455627721073,0.276893227044,nan,nan,nan,nan,0.0,0.0,0.0,nan,176.579012926,433.653982769,434.153986333,433.828347441,nan,nan,nan,nan
1,243,1,1,1.0,1.0,0.214246391319,0,0.0,0.0,0.0,0.251636932269,0.140693799292,0.110943132977,0.392330731561,0.140693799292,0.193046977744,89,1.0,-0.229484098413,-0.587370487375,nan,nan,nan,nan,0.0,0.0,0.0,nan,176.579012926,434.654099944,435.154148267,434.868346335,nan,nan,nan,nan
1,244,1,1,1.0,1.0,0.230077742599,0,0.0,0.0,0.0,0.251477823584,0.140415227256,0.111062596328,0.39189305084,0.140415227256,0.206229601909,468,0.481236483515,0.363131620867,-1.0,nan,nan,nan,nan,0.0,0.0,0.0,nan,176.579012926,435.654204859,436.154245485,435.884282602,nan,nan,nan,nan
1,245,1,1,1.0,1.0,0.181984703522,0,0.0,0.0,0.0,0.251387145275,0.140124316681,0.111262828593,0.391511461956,0.140124316681,0.20876961248,97,1.0,-0.260369742894,-0.491718830742,nan,nan,nan,nan,0.0,0.0,0.0,nan,176.579012926,436.654340279,437.154418823,436.836324983,nan,nan,nan,nan
1,246,1,1,1.0,1.0,0.165800404269,0,0.0,0.0,0.0,0.251094307968,0.139900731366,0.111193576602,0.390995039333,0.139900731366,0.19262095013,507,0.805995650865,0.232688349973,-1.0,nan,nan,nan,nan,0.0,0.0,0.0,nan,176.579012926,437.654466576,438.154544835,437.820266981,nan,nan,nan,nan
1,247,0,0,1.0,0.0,0.181569604669,0,0.0,0.0,0.0,0.250735930221,0.139715487485,0.111020442736,0.390451417706,0.139715487485,0.17645157082,408,0.036737934283,0.465637664749,-0.515938449969,nan,nan,nan,nan,0.0,0.0,0.0,nan,176.579012926,438.654643906,439.154675979,438.83621351,nan,nan,nan,nan
1,248,1,1,1.0,1.0,0.189483854454,0,0.0,0.0,0.0,0.250446531369,0.13949435458,0.110952176789,0.38994088595,0.13949435458,0.178951287797,317,-0.077772836126,0.429938605076,0.420733606481,nan,nan,nan,nan,0.0,0.0,0.0,nan,176.579012926,439.654732286,440.154803987,439.84421614,nan,nan,nan,nan
1,249,1,1,1.0,1.0,0.197300031781,0,0.0,0.0,0.0,0.250192520215,0.139258815971,0.110933704244,0.389451336187,0.139258815971,0.189451163635,54,1.0,-0.0546292063271,-1.0,nan,nan,nan,nan,0.0,0.0,0.0,nan,176.579012926,440.654868276,441.154940548,440.852168308,nan,nan,nan,nan
1,250,1,1,1.0,1.0,0.197152922628,0,0.0,0.0,0.0,0.249973049309,0.139011183244,0.110961866065,0.388984232553,0.139011183244,0.194645602955,410,0.0492046846968,0.463921527344,-0.54316189137,nan,nan,nan,nan,0.0,0.0,0.0,nan,176.579012926,441.655033916,442.155045178,441.852186839,nan,nan,nan,nan
1,251,0,0,1.0,0.0,0.212952058064,0,0.0,0.0,0.0,0.249754784323,0.138765047909,0.110989736414,0.388519832232,0.138765047909,0.202468337491,211,0.948675772315,0.0413606888024,0.538689155053,nan,nan,nan,nan,0.0,0.0,0.0,nan,176.579012926,442.655165345,443.15520198,442.868117403,nan,nan,nan,nan
1,252,1,1,1.0,1.0,0.332788801054,0,0.0,0.0,0.0,0.249603332774,0.138499269641,0.111104063133,0.388102602416,0.138499269641,0.247631260582,20,1.0,0.121558187834,-1.0,nan,nan,nan,nan,0.0,0.0,0.0,nan,176.579012926,443.655300196,444.15533683,443.988088997,nan,nan,nan,nan
1,253,1,1,1.0,1.0,0.244664937258,0,0.0,0.0,0.0,0.249944256825,0.13831730347,0.111626953355,0.388261560295,0.13831730347,0.263468598792,279,0.238157575771,0.338930353633,0.618978422254,nan,nan,nan,nan,0.0,0.0,0.0,nan,176.579012926,444.655410813,445.155471966,444.90007575,nan,nan,nan,nan
1,254,1,1,1.0,1.0,0.236484407913,0,0.0,0.0,0.0,0.249922708582,0.138035145016,0.111887563565,0.387957853598,0.138035145016,0.271312715408,110,1.0,-0.296722754836,-0.346921960777,nan,nan,nan,nan,0.0,0.0,0.0,nan,176.579012926,445.655546233,446.155581442,445.892030641,nan,nan,nan,nan
1,255,1,1,1.0,1.0,0.276357004419,0,0.0,0.0,0.0,0.249868081343,0.137756953736,0.112111127607,0.387625035079,0.137756953736,0.25250211653,480,0.580928072941,0.32870764083,-1.0,nan,nan,nan,nan,0.0,0.0,0.0,nan,176.579012926,446.655657705,447.155702608,446.93201471,nan,nan,nan,nan
1,256,1,1,1.0,1.0,0.300150502007,0,0.0,0.0,0.0,0.249975323947,0.137488100107,0.112487223839,0.387463424054,0.137488100107,0.27099730478,432,0.199227897075,0.437687328843,-1.0,nan,nan,nan,nan,0.0,0.0,0.0,nan,176.579012926,447.655822776,448.155839739,447.955973278,nan,nan,nan,nan
1,257,1,1,1.0,1.0,0.363305704901,0,0.0,0.0,0.0,0.250177643213,0.137247464308,0.112930178905,0.387425107521,0.137247464308,0.313271070442,5,0.88714030954,0.190659852496,-1.0,nan,nan,nan,nan,0.0,0.0,0.0,nan,176.579012926,448.672628298,449.172639844,449.035934003,nan,nan,nan,nan
1,258,1,1,1.0,1.0,0.355161382584,0,0.0,0.0,0.0,0.250631972778,0.13715832968,0.113473643098,0.387790302458,0.13715832968,0.339539196497,319,-0.0891891826932,0.433308674125,0.406137099325,nan,nan,nan,nan,0.0,0.0,0.0,nan,176.579012926,449.672756306,450.17279123,450.027917688,nan,nan,nan,nan
1,259,1,1,1.0,1.0,0.275027604541,0,0.0,0.0,0.0,0.251050090417,0.137042652261,0.114007438156,0.388092742678,0.137042652261,0.331164897342,207,0.985653507947,0.0195431921708,0.51699622314,nan,nan,nan,nan,0.0,0.0,0.0,nan,176.579012926,450.672853523,451.17293948,450.947881128,nan,nan,nan,nan
1,260,1,1,1.0,1.0,0.202891609399,0,0.0,0.0,0.0,0.251145618362,0.136777726533,0.114367891829,0.387923344895,0.136777726533,0.277693532174,291,0.122027637739,0.373441943191,0.573791926984,nan,nan,nan,nan,0.0,0.0,0.0,nan,176.579012926,451.673002058,452.173039548,451.875893668,nan,nan,nan,nan
1,261,1,1,1.0,1.0,0.114735244773,0,0.0,0.0,0.0,0.250954134199,0.136539778128,0.114414356071,0.387493912328,0.136539778128,0.197551486238,358,-0.170583909915,0.474268316859,0.0585874414746,nan,nan,nan,nan,0.0,0.0,0.0,nan,176.579012926,452.673177107,453.1731935,452.787912352,nan,nan,nan,nan
1,262,1,1,1.0,1.0,0.146567293676,0,0.0,0.0,0.0,0.250415719617,0.136537449704,0.113878269912,0.386953169321,0.136537449704,0.154731382616,261,0.427225806086,0.276617811781,0.653674462902,nan,nan,nan,nan,0.0,0.0,0.0,nan,176.579012926,453.673285443,454.173322933,453.819852737,nan,nan,nan,nan
1,263,1,1,1.0,1.0,0.090370986145,0,0.0,0.0,0.0,0.250006867546,0.136423499017,0.113583368529,0.386430366564,0.136423499017,0.117224508198,191,1.0,-0.0691479807067,0.414571651978,nan,nan,nan,nan,0.0,0.0,0.0,nan,176.579012926,454.673419438,455.173456643,454.763790424,nan,nan,nan,nan
1,264,1,1,1.0,1.0,0.146245706128,0,0.0,0.0,0.0,0.249380844482,0.136520801177,0.112860043305,0.385901645659,0.136520801177,0.127727995316,450,0.335949728395,0.405598329481,-1.0,nan,nan,nan,nan,0.0,0.0,0.0,nan,176.579012926,455.673554003,456.173590068,455.819799709,nan,nan,nan,nan
1,265,0,0,1.0,0.0,0.218066100497,0,0.0,0.0,0.0,0.248977972848,0.136405691448,0.1125722814,0.385383664296,0.136405691448,0.151560930923,48,1.0,-0.0224273256894,-1.0,nan,nan,nan,nan,0.0,0.0,0.0,nan,176.579012926,456.673683151,457.173720641,456.891749252,nan,nan,nan,nan
1,266,1,1,1.0,1.0,0.161914552795,0,0.0,0.0,0.0,0.248857693189,0.136153653567,0.112704039621,0.385011346756,0.136153653567,0.175408786473,337,-0.160643365934,0.457858386897,0.259303564052,nan,nan,nan,nan,0.0,0.0,0.0,nan,176.579012926,457.673780369,458.173848079,457.835694922,nan,nan,nan,nan
1,267,1,1,1.0,1.0,0.176369178109,0,0.0,0.0,0.0,0.248520704272,0.135996877492,0.112523826781,0.384517581764,0.135996877492,0.1854499438,469,0.489482198204,0.360453357602,-1.0,nan,nan,nan,nan,0.0,0.0,0.0,nan,176.579012926,458.675314753,459.173948718,458.851683931,nan,nan,nan,nan
1,268,1,1,1.0,1.0,0.217621351592,0,0.0,0.0,0.0,0.248242126951,0.135807816464,0.112434310487,0.384049943416,0.135807816464,0.185301694165,17,0.981069150956,0.135921910835,-1.0,nan,nan,nan,nan,0.0,0.0,0.0,nan,176.579012926,459.674046648,460.174102954,459.891668,nan,nan,nan,nan
1,269,1,1,1.0,1.0,0.185485390713,0,0.0,0.0,0.0,0.248124354738,0.135559646905,0.112564707833,0.383684001643,0.135559646905,0.193158640138,348,-0.175384772129,0.468017843042,0.157582163916,nan,nan,nan,nan,0.0,0.0,0.0,nan,176.579012926,460.674214569,461.174222409,460.85969996,nan,nan,nan,nan
1,270,1,1,1.0,1.0,0.225275594741,0,0.0,0.0,0.0,0.247884358708,0.135355035526,0.112529323181,0.383239394234,0.135355035526,0.209460779016,304,0.0113092810281,0.404708921832,0.506160370659,nan,nan,nan,nan,0.0,0.0,0.0,nan,176.579012926,461.674322905,462.174354694,461.8995985,nan,nan,nan,nan
1,271,1,1,1.0,1.0,0.249166024383,0,0.0,0.0,0.0,0.247798065715,0.135103670371,0.112694395345,0.382901736086,0.135103670371,0.219975669946,90,1.0,-0.233635786423,-0.574971871003,nan,nan,nan,nan,0.0,0.0,0.0,nan,176.579012926,462.674438369,463.174485552,462.923604394,nan,nan,nan,nan
1,272,1,1,1.0,1.0,0.216989580076,0,0.0,0.0,0.0,0.247803267079,0.134846600948,0.112956666131,0.382649868028,0.134846600948,0.2304770664,474,0.530901762182,0.346545376391,-1.0,nan,nan,nan,nan,0.0,0.0,0.0,nan,176.579012926,463.674571224,464.174616982,463.891560804,nan,nan,nan,nan
1,273,1,1,1.0,1.0,0.264798379038,0,0.0,0.0,0.0,0.247686548568,0.134604277039,0.113082271529,0.382290825607,0.134604277039,0.243651327832,75,1.0,-0.164714458691,-0.791355921409,nan,nan,nan,nan,0.0,0.0,0.0,nan,176.579012926,464.674736864,465.174786898,464.939535243,nan,nan,nan,nan
1,274,1,1,1.0,1.0,0.18471534783,0,0.0,0.0,0.0,0.247751121513,0.134354163324,0.113396958189,0.382105284836,0.134354163324,0.222167768981,22,1.0,0.111842423158,-1.0,nan,nan,nan,nan,0.0,0.0,0.0,nan,176.579012926,465.674865157,466.174878414,465.859580505,nan,nan,nan,nan
1,275,1,1,1.0,1.0,0.208530797623,0,0.0,0.0,0.0,0.24751414492,0.134156855919,0.113357289001,0.38167100084,0.134156855919,0.21934817483,134,1.0,-0.304950998219,-0.095144111098,nan,nan,nan,nan,0.0,0.0,0.0,nan,176.579012926,466.674968362,467.175033221,466.883499159,nan,nan,nan,nan
1,276,1,1,1.0,1.0,0.312323793303,0,0.0,0.0,0.0,0.247368139874,0.13392656184,0.113441578034,0.381294701714,0.13392656184,0.235189979586,218,0.881467392804,0.0788246127756,0.572559633417,nan,nan,nan,nan,0.0,0.0,0.0,nan,176.579012926,467.675137423,468.175176339,467.987461217,nan,nan,nan,nan
1,277,1,1,1.0,1.0,0.3041828922,0,0.0,0.0,0.0,0.247610511715,0.133735119028,0.113875392687,0.381345630743,0.133735119028,0.275012494375,152,1.0,-0.259184487343,0.0830625546756,nan,nan,nan,nan,0.0,0.0,0.0,nan,176.579012926,468.675264576,469.175321167,468.979447468,nan,nan,nan,nan
1,278,1,1,1.0,1.0,0.264059981797,0,0.0,0.0,0.0,0.247820817962,0.133530700829,0.114290117133,0.381351518791,0.133530700829,0.293522222433,46,1.0,-0.0117313672748,-1.0,nan,nan,nan,nan,0.0,0.0,0.0,nan,176.579012926,469.675367495,470.175407266,469.939427477,nan,nan,nan,nan
1,279,0,0,0.0,1.0,0.41585307545,0,0.0,0.0,0.0,0.247880963014,0.133286842769,0.114594120245,0.381167805782,0.133286842769,0.328031983149,306,-0.00395437407881,0.408974006242,0.494128827808,nan,nan,nan,nan,0.0,0.0,0.0,nan,176.579012926,470.675535702,471.17556806,471.091388777,nan,nan,nan,nan
1,280,1,1,1.0,1.0,0.207752772141,0,0.0,0.0,0.0,0.248500786307,0.133429968094,0.115070818213,0.3819307544,0.133429968094,0.295888609796,505,0.789537956352,0.240683140511,-1.0,nan,nan,nan,nan,0.0,0.0,0.0,nan,176.579012926,471.67565031,472.175704621,471.883403082,nan,nan,nan,nan
1,281,0,0,1.0,0.0,0.255548456684,0,0.0,0.0,0.0,0.248350977431,0.133207297493,0.115143679938,0.381558274925,0.133207297493,0.293051434758,124,1.0,-0.311577186586,-0.198226518473,nan,nan,nan,nan,0.0,0.0,0.0,nan,176.579012926,472.675797989,473.175834054,472.931346446,nan,nan,nan,nan
1,282,1,1,1.0,1.0,0.183441541158,0,0.0,0.0,0.0,0.248377341824,0.132963815214,0.11541352661,0.381341157038,0.132963815214,0.215580923328,230,0.760023132926,0.140224214653,0.61781109556,nan,nan,nan,nan,0.0,0.0,0.0,nan,176.579012926,473.67588922,474.175930701,473.859330761,nan,nan,nan,nan
1,283,1,1,1.0,1.0,0.231258893386,0,0.0,0.0,0.0,0.248140349851,0.132778710582,0.115361639268,0.380919060433,0.132778710582,0.223416297076,290,0.131265381085,0.370776544741,0.578206616232,nan,nan,nan,nan,0.0,0.0,0.0,nan,176.579012926,474.67602521,475.176068117,474.907284104,nan,nan,nan,nan
1,284,1,1,1.0,1.0,0.255117677385,0,0.0,0.0,0.0,0.248078962736,0.132540970089,0.115537992647,0.380619932826,0.132540970089,0.223272703976,445,0.296953900578,0.415520102116,-1.0,nan,nan,nan,nan,0.0,0.0,0.0,nan,176.579012926,475.676179447,476.176224065,475.931297125,nan,nan,nan,nan
1,285,1,1,1.0,1.0,0.302909655729,0,0.0,0.0,0.0,0.248104465326,0.13230131769,0.115803147636,0.380405783016,0.13230131769,0.263095408833,258,0.459642287315,0.26499291187,0.655490062901,nan,nan,nan,nan,0.0,0.0,0.0,nan,176.579012926,476.67632285,477.176352073,476.979232506,nan,nan,nan,nan
1,286,1,1,1.0,1.0,0.278778320411,0,0.0,0.0,0.0,0.248302317999,0.132103190117,0.116199127882,0.380405508115,0.132103190117,0.278935217842,492,0.681403316433,0.289222019555,-1.0,nan,nan,nan,nan,0.0,0.0,0.0,nan,176.579012926,477.676444016,478.17646383,477.955222336,nan,nan,nan,nan
1,287,1,1,1.0,1.0,0.19863912533,0,0.0,0.0,0.0,0.248411943907,0.131878002297,0.11653394161,0.380289946203,0.131878002297,0.260109033824,361,-0.166047812515,0.475607712818,0.0278173107143,nan,nan,nan,nan,0.0,0.0,0.0,nan,176.579012926,478.676553777,479.176617781,478.875192903,nan,nan,nan,nan
1,288,1,1,1.0,1.0,0.0784608379472,0,0.0,0.0,0.0,0.248233546707,0.131675049907,0.1165584968,0.379908596615,0.131675049907,0.18529276123,498,0.731507943485,0.267561876527,-1.0,nan,nan,nan,nan,0.0,0.0,0.0,nan,176.579012926,479.676699746,480.176757763,479.755160584,nan,nan,nan,nan
1,289,1,1,1.0,1.0,0.0543354894035,0,1.0,0.0,0.0,0.247627215605,0.131829310236,0.115797905368,0.379456525841,0.131829310236,0.110478484227,226,0.801265930663,0.120208988367,0.60458276857,nan,nan,nan,nan,0.0,0.0,0.0,nan,176.579012926,480.676850562,481.176887482,480.731186051,nan,nan,nan,nan
1,290,1,1,1.0,1.0,0.0541421948001,1,0.0,0.0,1.0,0.246939344693,0.132096959727,0.114842384966,0.37903630442,0.132096959727,0.0623128407169,78,1.0,-0.179467652321,-0.739907630878,-123.917430537,213.917430537,159.073680537,304.0,0.0113092810281,0.404708921832,0.506160370659,3.65073866793,176.579012926,481.676979995,482.177019766,481.73112219,487.169314776,488.169871853,483.502159456,487.160985712
1,291,1,1,1.0,1.0,0.297431546496,0,0.0,0.0,0.0,0.246255666856,0.132359633023,0.113896033834,0.378615299879,0.132359633023,0.1353030769,311,-0.0397249783266,0.419020224334,0.462250212202,nan,nan,nan,nan,0.0,0.0,0.0,nan,176.579012926,488.369497408,488.869565403,488.666928955,nan,nan,nan,nan
1,292,1,1,1.0,1.0,0.241228111554,0,0.0,0.0,0.0,0.246436500353,0.132160467678,0.114276032676,0.378596968031,0.132160467678,0.197600617617,202,1.0,-0.00802826454356,0.487596984314,nan,nan,nan,nan,0.0,0.0,0.0,nan,176.579012926,489.369661053,489.86967545,489.610889164,nan,nan,nan,nan
1,293,1,1,1.0,1.0,0.201152812224,0,0.0,0.0,0.0,0.246418160956,0.131927946352,0.114490214604,0.378346107308,0.131927946352,0.246604156758,146,1.0,-0.278792578557,0.0248813210997,nan,nan,nan,nan,0.0,0.0,0.0,nan,176.579012926,490.369761977,490.869835104,490.570914789,nan,nan,nan,nan
1,294,1,1,1.0,1.0,0.200987741817,0,0.0,0.0,0.0,0.246259335171,0.131723486864,0.114535848307,0.377982822035,0.131723486864,0.214456221865,86,1.0,-0.21659106269,-0.625617802914,nan,nan,nan,nan,0.0,0.0,0.0,nan,176.579012926,491.369894261,491.869961971,491.570882003,nan,nan,nan,nan
1,295,1,1,1.0,1.0,0.192764163017,0,0.0,0.0,0.0,0.246101042887,0.131520150463,0.114580892424,0.37762119335,0.131520150463,0.198301572353,377,-0.121259861678,0.478700828387,-0.143695900877,nan,nan,nan,nan,0.0,0.0,0.0,nan,176.579012926,492.370057906,492.870095396,492.562822069,nan,nan,nan,nan
1,296,0,0,1.0,0.0,0.136591518298,0,0.0,0.0,0.0,0.2459152001,0.131328433729,0.114586766371,0.377243633829,0.131328433729,0.176781141044,79,1.0,-0.184296021705,-0.724170777997,nan,nan,nan,nan,0.0,0.0,0.0,nan,176.579012926,493.370192756,493.870223689,493.506784274,nan,nan,nan,nan
1,297,1,1,1.0,1.0,0.208475488937,0,0.0,0.0,0.0,0.245535603982,0.131257861837,0.114277742145,0.376793465819,0.131257861837,0.179277056751,296,0.0772713571413,0.386205321608,0.550001308524,nan,nan,nan,nan,0.0,0.0,0.0,nan,176.579012926,494.370298526,494.870326608,494.578774015,nan,nan,nan,nan
1,298,1,1,1.0,1.0,0.224323946051,0,0.0,0.0,0.0,0.24540736829,0.131048646141,0.114358722149,0.376456014431,0.131048646141,0.189796984429,82,1.0,-0.198479155091,-0.679872484948,nan,nan,nan,nan,0.0,0.0,0.0,nan,176.579012926,495.370466733,495.870461744,495.594790679,nan,nan,nan,nan
1,299,0,0,1.0,0.0,0.232117600739,0,0.0,0.0,0.0,0.245334666834,0.130828343052,0.114506323782,0.376163009886,0.130828343052,0.221639011909,352,-0.17544712699,0.470851603012,0.118673592819,nan,nan,nan,nan,0.0,0.0,0.0,nan,176.579012926,496.370591034,496.870627669,496.602708635,nan,nan,nan,nan
1,300,1,1,1.0,1.0,0.199993043672,0,0.0,0.0,0.0,0.245289247363,0.130605648941,0.114683598422,0.375894896304,0.130605648941,0.218811530154,433,0.206536295144,0.436163724167,-1.0,nan,nan,nan,nan,0.0,0.0,0.0,nan,176.579012926,497.3707122,497.870728023,497.570705244,nan,nan,nan,nan
1,301,1,1,1.0,1.0,0.239811187144,0,0.0,0.0,0.0,0.245134123378,0.13040866825,0.114725455128,0.375542791627,0.13040866825,0.223973943852,365,-0.157962026257,0.477016591838,-0.0139196855225,nan,nan,nan,nan,0.0,0.0,0.0,nan,176.579012926,498.370847905,498.870856031,498.610659092,nan,nan,nan,nan
1,302,1,1,1.0,1.0,0.255671617808,0,0.0,0.0,0.0,0.24511595636,0.130186307785,0.114929648574,0.375302264145,0.130186307785,0.231825282875,63,1.0,-0.102744642793,-1.0,nan,nan,nan,nan,0.0,0.0,0.0,nan,176.579012926,499.370975913,499.870990596,499.626647531,nan,nan,nan,nan
1,303,1,1,1.0,1.0,0.247590871993,0,0.0,0.0,0.0,0.24515185997,0.129966166978,0.115185692993,0.375118026948,0.129966166978,0.247691225649,483,0.606025706087,0.319314454546,-1.0,nan,nan,nan,nan,0.0,0.0,0.0,nan,176.579012926,500.371081969,500.871143692,500.618672841,nan,nan,nan,nan
1,304,1,1,1.0,1.0,0.255342332646,0,0.0,0.0,0.0,0.245160127808,0.12974577579,0.115414352018,0.374905903597,0.12974577579,0.252868274149,237,0.686387300223,0.174031846447,0.636349816437,nan,nan,nan,nan,0.0,0.0,0.0,nan,176.579012926,501.371248179,501.871266853,501.626590512,nan,nan,nan,nan
1,305,1,1,1.0,1.0,0.255188951269,0,0.0,0.0,0.0,0.245194527148,0.129527772718,0.11566675443,0.374722299866,0.129527772718,0.252707385303,145,1.0,-0.281667413287,0.0150551701241,nan,nan,nan,nan,0.0,0.0,0.0,nan,176.579012926,502.371351099,502.871425366,502.62654005,nan,nan,nan,nan
1,306,0,0,1.0,0.0,0.247026953148,0,0.0,0.0,0.0,0.245228178408,0.129310824712,0.115917353696,0.37453900312,0.129310824712,0.252519412354,90,1.0,-0.233635786423,-0.574971871003,nan,nan,nan,nan,0.0,0.0,0.0,nan,176.579012926,503.371514173,503.871546532,503.618541127,nan,nan,nan,nan
1,307,1,1,1.0,1.0,0.214902681299,0,0.0,0.0,0.0,0.245234214565,0.12909371983,0.116140494735,0.374327934395,0.12909371983,0.239039528572,177,1.0,-0.145192147526,0.306921212481,nan,nan,nan,nan,0.0,0.0,0.0,nan,176.579012926,504.371605689,504.871657719,504.58650837,nan,nan,nan,nan
1,308,1,1,1.0,1.0,0.238701595459,0,0.0,0.0,0.0,0.24513277131,0.128889560174,0.116243211135,0.374022331484,0.128889560174,0.233543743302,287,0.159501648714,0.36255249221,0.590751920292,nan,nan,nan,nan,0.0,0.0,0.0,nan,176.579012926,505.371773325,505.871791714,505.610474921,nan,nan,nan,nan
1,309,1,1,1.0,1.0,0.190588884521,0,0.0,0.0,0.0,0.245111334057,0.12867509886,0.116436235197,0.373786432917,0.12867509886,0.21473105376,469,0.489482198204,0.360453357602,-1.0,nan,nan,nan,nan,0.0,0.0,0.0,nan,176.579012926,506.371883657,506.871940249,506.562472542,nan,nan,nan,nan
1,310,1,1,1.0,1.0,0.198430435499,0,0.0,0.0,0.0,0.244930196351,0.128499481512,0.116430714838,0.373429677863,0.128499481512,0.20924030516,387,-0.0787219327085,0.477231755363,-0.256974454483,nan,nan,nan,nan,0.0,0.0,0.0,nan,176.579012926,507.372035043,507.87207795,507.570465478,nan,nan,nan,nan
1,311,1,1,1.0,1.0,0.158220571,0,0.0,0.0,0.0,0.244776223633,0.128314367289,0.116461856344,0.373090590921,0.128314367289,0.182413297007,20,1.0,0.121558187834,-1.0,nan,nan,nan,nan,0.0,0.0,0.0,nan,176.579012926,508.372167042,508.872177163,508.530387613,nan,nan,nan,nan
1,312,1,1,1.0,1.0,0.206109196646,0,0.0,0.0,0.0,0.244490561413,0.128198605266,0.116291956147,0.372689166679,0.128198605266,0.187586734382,433,0.206536295144,0.436163724167,-1.0,nan,nan,nan,nan,0.0,0.0,0.0,nan,176.579012926,509.372282791,509.872310873,509.578391988,nan,nan,nan,nan
1,313,1,1,1.0,1.0,0.245952998754,0,0.0,0.0,0.0,0.244364306923,0.128006445769,0.116357861154,0.372370752693,0.128006445769,0.2034275888,116,1.0,-0.306446923025,-0.282515442494,nan,nan,nan,nan,0.0,0.0,0.0,nan,176.579012926,510.372419922,510.87245114,510.61837292,nan,nan,nan,nan
1,314,1,1,1.0,1.0,0.221793438774,0,0.0,0.0,0.0,0.244369515749,0.127796459119,0.11657305663,0.372165974868,0.127796459119,0.224618544724,435,0.221263830514,0.433027056876,-1.0,nan,nan,nan,nan,0.0,0.0,0.0,nan,176.579012926,511.372566746,511.872575726,511.594360185,nan,nan,nan,nan
1,315,1,1,1.0,1.0,0.229650954949,0,0.0,0.0,0.0,0.24429573772,0.127593976355,0.116701761364,0.371889714075,0.127593976355,0.232465797492,379,-0.113535935895,0.478614986251,-0.165970515924,nan,nan,nan,nan,0.0,0.0,0.0,nan,176.579012926,512.372696179,512.872737091,512.602347134,nan,nan,nan,nan
1,316,1,1,1.0,1.0,0.293450188125,0,0.0,0.0,0.0,0.244248034844,0.127388732167,0.116859302677,0.371636767012,0.127388732167,0.248298193949,510,0.830554458933,0.220436700166,-1.0,nan,nan,nan,nan,0.0,0.0,0.0,nan,176.579012926,513.372809647,513.872835163,513.666259835,nan,nan,nan,nan
1,317,1,1,1.0,1.0,0.197365603875,0,0.0,0.0,0.0,0.244407782095,0.127212560391,0.117195221705,0.371620342486,0.127212560391,0.240155582316,268,0.35230222188,0.302367520405,0.645005310408,nan,nan,nan,nan,0.0,0.0,0.0,nan,176.579012926,514.372928532,514.872998808,514.570294136,nan,nan,nan,nan
1,318,1,1,1.0,1.0,0.237127868459,0,0.0,0.0,0.0,0.244255542036,0.127034647891,0.117220894145,0.371290189928,0.127034647891,0.24264788682,99,1.0,-0.267176270739,-0.468793303331,nan,nan,nan,nan,0.0,0.0,0.0,nan,176.579012926,515.37308733,515.873123395,515.610215199,nan,nan,nan,nan
1,319,1,1,1.0,1.0,0.212972585112,0,0.0,0.0,0.0,0.244232549541,0.126830231783,0.117402317758,0.371062781324,0.126830231783,0.215822019149,404,0.0124894593597,0.468746268022,-0.463349101315,nan,nan,nan,nan,0.0,0.0,0.0,nan,176.579012926,516.373223036,516.873231161,516.586195621,nan,nan,nan,nan
1,320,1,1,1.0,1.0,0.212872231146,0,0.0,0.0,0.0,0.244132035186,0.12663852688,0.117493508306,0.370770562066,0.12663852688,0.220990894906,40,1.0,0.0201165467467,-1.0,nan,nan,nan,nan,0.0,0.0,0.0,nan,176.579012926,517.373326811,517.873365441,517.586199042,nan,nan,nan,nan
1,321,1,1,1.0,1.0,0.228655686369,0,0.0,0.0,0.0,0.244031843506,0.126447763004,0.117584080502,0.370479606511,0.126447763004,0.218166834209,312,-0.0464483572634,0.420925197877,0.455573212045,nan,nan,nan,nan,0.0,0.0,0.0,nan,176.579012926,518.373485609,518.873526805,518.602141295,nan,nan,nan,nan
1,322,1,1,1.0,1.0,0.228490045993,0,0.0,0.0,0.0,0.243982718404,0.126248590195,0.117734128208,0.370231308599,0.126248590195,0.223339321169,116,1.0,-0.306446923025,-0.282515442494,nan,nan,nan,nan,0.0,0.0,0.0,nan,176.579012926,519.373628441,519.873627444,519.602118487,nan,nan,nan,nan
1,323,1,1,1.0,1.0,0.26834952808,0,0.0,0.0,0.0,0.243933378682,0.126050419611,0.117882959071,0.369983798293,0.126050419611,0.241831753481,383,-0.0968787136249,0.478131214543,-0.211081409456,nan,nan,nan,nan,0.0,0.0,0.0,nan,176.579012926,520.373741624,520.873767711,520.642091152,nan,nan,nan,nan
1,324,1,1,1.0,1.0,0.212240174646,0,0.0,0.0,0.0,0.244010890268,0.125857675438,0.118153214829,0.369868565706,0.125857675438,0.236359916239,207,0.985653507947,0.0195431921708,0.51699622314,nan,nan,nan,nan,0.0,0.0,0.0,nan,176.579012926,521.373865071,521.873926509,521.586105245,nan,nan,nan,nan
1,325,1,1,1.0,1.0,0.308049071813,0,0.0,0.0,0.0,0.243910350029,0.125671044886,0.118239305143,0.369581394914,0.125671044886,0.262879591513,7,0.9030914636,0.181853060355,-1.0,nan,nan,nan,nan,0.0,0.0,0.0,nan,176.579012926,522.373984526,522.87403513,522.682033597,nan,nan,nan,nan
1,326,1,1,1.0,1.0,0.283910893835,0,0.0,0.0,0.0,0.244112680381,0.125524208577,0.118588471805,0.369636888958,0.125524208577,0.268066713431,362,-0.164239727892,0.476000155386,0.0174578511848,nan,nan,nan,nan,0.0,0.0,0.0,nan,176.579012926,523.374110823,523.874190792,523.658021717,nan,nan,nan,nan
1,327,1,1,1.0,1.0,0.283703344408,0,0.0,0.0,0.0,0.244237831996,0.125346495318,0.118891336677,0.369584327314,0.125346495318,0.291887770019,59,1.0,-0.0814409933332,-1.0,nan,nan,nan,nan,0.0,0.0,0.0,nan,176.579012926,524.374277319,524.874285444,524.657980663,nan,nan,nan,nan
1,328,1,1,1.0,1.0,0.235515368404,0,0.0,0.0,0.0,0.244361548336,0.12516931731,0.119192231025,0.369530865646,0.12516931731,0.267709868882,207,0.985653507947,0.0195431921708,0.51699622314,nan,nan,nan,nan,0.0,0.0,0.0,nan,176.579012926,525.374425568,525.874450799,525.609940937,nan,nan,nan,nan
1,329,1,1,1.0,1.0,0.203440988204,0,0.0,0.0,0.0,0.244333904023,0.12497456255,0.119359341473,0.369308466573,0.12497456255,0.240886567005,506,0.797774742377,0.236703125255,-1.0,nan,nan,nan,nan,0.0,0.0,0.0,nan,176.579012926,526.374510527,526.87455771,526.577951515,nan,nan,nan,nan
1,330,1,1,1.0,1.0,0.371252170764,0,0.0,0.0,0.0,0.244206511762,0.124800554059,0.119405957703,0.369007065821,0.124800554059,0.270069509124,1,0.854939129564,0.207877072944,-1.0,nan,nan,nan,nan,0.0,0.0,0.0,nan,176.579012926,527.374642811,527.87467802,527.745894982,nan,nan,nan,nan
1,331,1,1,1.0,1.0,0.259095614543,0,0.0,0.0,0.0,0.244601063498,0.124806965305,0.119794098193,0.369408028804,0.124806965305,0.27792959117,258,0.459642287315,0.26499291187,0.655490062901,nan,nan,nan,nan,0.0,0.0,0.0,nan,176.579012926,528.374770819,528.874824274,528.633866434,nan,nan,nan,nan
1,332,1,1,1.0,1.0,0.242947522318,0,0.0,0.0,0.0,0.244645938269,0.12461621762,0.120029720649,0.369262155889,0.12461621762,0.291098435875,359,-0.169222339917,0.474741883077,0.0483828026834,nan,nan,nan,nan,0.0,0.0,0.0,nan,176.579012926,529.374902818,529.874948006,529.61785034,nan,nan,nan,nan
1,333,0,0,1.0,0.0,0.370749262162,0,0.0,0.0,0.0,0.244640696245,0.124423795693,0.120216900551,0.369064491938,0.124423795693,0.290930799674,487,0.639529740128,0.306295026098,-1.0,nan,nan,nan,nan,0.0,0.0,0.0,nan,176.579012926,530.375073305,530.875102527,530.745822567,nan,nan,nan,nan
1,334,1,1,1.0,1.0,0.210580918938,0,0.0,0.0,0.0,0.245028722601,0.124428409566,0.120600313036,0.369457132167,0.124428409566,0.274759234472,287,0.159501648714,0.36255249221,0.590751920292,nan,nan,nan,nan,0.0,0.0,0.0,nan,176.579012926,531.375184207,531.875217991,531.585765126,nan,nan,nan,nan
1,335,1,1,1.0,1.0,0.282479144633,0,0.0,0.0,0.0,0.244923054492,0.124252025584,0.120671028908,0.369175080076,0.124252025584,0.287936441911,463,0.440238315199,0.376011795327,-1.0,nan,nan,nan,nan,0.0,0.0,0.0,nan,176.579012926,532.375321623,532.875358828,532.657800768,nan,nan,nan,nan
1,336,1,1,1.0,1.0,0.386306066532,0,0.0,0.0,0.0,0.245037904921,0.124079221728,0.120958683193,0.369117126648,0.124079221728,0.293122043367,367,-0.15309091083,0.477560897992,-0.0350816338538,nan,nan,nan,nan,0.0,0.0,0.0,nan,176.579012926,533.375445925,533.875474577,533.761751991,nan,nan,nan,nan
1,337,1,1,1.0,1.0,0.314135859953,0,0.0,0.0,0.0,0.245468600535,0.124134497124,0.121334103411,0.36960309766,0.124134497124,0.327640357039,305,0.00361192545304,0.406859252708,0.500196907155,nan,nan,nan,nan,0.0,0.0,0.0,nan,176.579012926,534.375575358,534.875610853,534.689711218,nan,nan,nan,nan
1,338,1,1,1.0,1.0,0.345966768684,0,0.0,0.0,0.0,0.245677315609,0.12400332538,0.121673990229,0.36968064099,0.12400332538,0.34880289839,471,0.506014005179,0.354993781952,-1.0,nan,nan,nan,nan,0.0,0.0,0.0,nan,176.579012926,535.375709923,535.875740571,535.721676692,nan,nan,nan,nan
1,339,1,1,1.0,1.0,0.305811357452,0,0.0,0.0,0.0,0.245981223043,0.12393794664,0.122043276403,0.369919169683,0.12393794664,0.321971328696,198,1.0,-0.0302354974571,0.462326941081,nan,nan,nan,nan,0.0,0.0,0.0,nan,176.579012926,536.375845914,536.875876562,536.681657271,nan,nan,nan,nan
1,340,1,1,1.0,1.0,0.241681698244,0,0.0,0.0,0.0,0.246161978736,0.123794143204,0.122367835533,0.36995612194,0.123794143204,0.29781994146,245,0.600577697281,0.210610106048,0.650172825369,nan,nan,nan,nan,0.0,0.0,0.0,nan,176.579012926,537.375957957,537.876031369,537.617639655,nan,nan,nan,nan
1,341,1,1,1.0,1.0,0.23355904338,0,0.0,0.0,0.0,0.246148483915,0.12360780947,0.122540674446,0.369756293385,0.12360780947,0.260350699692,29,1.0,0.0770173926463,-1.0,nan,nan,nan,nan,0.0,0.0,0.0,nan,176.579012926,538.37611818,538.8761551,538.609677223,nan,nan,nan,nan
1,342,1,1,1.0,1.0,0.065379232401,0,0.0,0.0,0.0,0.246110677788,0.123423994978,0.12268668281,0.369534672766,0.123423994978,0.180206658008,499,0.739831889234,0.263827757734,-1.0,nan,nan,nan,nan,0.0,0.0,0.0,nan,176.579012926,539.376230508,539.876291091,539.44160974,nan,nan,nan,nan
1,343,1,1,1.0,1.0,0.0972392212134,0,0.0,0.0,0.0,0.245569565676,0.123634042557,0.121935523119,0.369203608233,0.123634042557,0.132059165665,398,-0.0220377755791,0.472608796233,-0.387943383198,nan,nan,nan,nan,0.0,0.0,0.0,nan,176.579012926,540.376350818,540.876425371,540.473590039,nan,nan,nan,nan
1,344,1,1,1.0,1.0,0.217071972555,0,0.0,0.0,0.0,0.245126788528,0.123714306872,0.121412481657,0.3688410954,0.123714306872,0.12656347539,190,1.0,-0.0746884387243,0.407399635172,nan,nan,nan,nan,0.0,0.0,0.0,nan,176.579012926,541.376500208,541.876525439,541.593572181,nan,nan,nan,nan
1,345,1,1,1.0,1.0,0.239135225769,0,0.0,0.0,0.0,0.245043292052,0.123539523847,0.121503768205,0.368582815899,0.123539523847,0.184482139846,315,-0.0657111424032,0.426434809442,0.434956515233,nan,nan,nan,nan,0.0,0.0,0.0,nan,176.579012926,542.378382978,542.876659719,542.617518204,nan,nan,nan,nan
1,346,1,1,1.0,1.0,0.216406844789,0,0.0,0.0,0.0,0.245025760698,0.123356513189,0.121669247509,0.368382273887,0.123356513189,0.224204681038,25,1.0,0.0970682892709,-1.0,nan,nan,nan,nan,0.0,0.0,0.0,nan,176.579012926,543.385121495,543.88512962,543.60152834,nan,nan,nan,nan
1,347,1,1,1.0,1.0,0.240252514835,0,0.0,0.0,0.0,0.244941089349,0.123183704986,0.121757384363,0.368124794335,0.123183704986,0.231931528465,331,-0.143297839787,0.450801753776,0.311166711333,nan,nan,nan,nan,0.0,0.0,0.0,nan,176.579012926,544.385274591,544.885264755,544.625527106,nan,nan,nan,nan
1,348,1,1,1.0,1.0,0.184080725303,0,0.0,0.0,0.0,0.244927258746,0.123002146739,0.121925112007,0.367929405485,0.123002146739,0.213580028309,258,0.459642287315,0.26499291187,0.655490062901,nan,nan,nan,nan,0.0,0.0,0.0,nan,176.579012926,545.385347005,545.885418137,545.569427731,nan,nan,nan,nan
1,349,0,0,1.0,0.0,0.199905804591,0,0.0,0.0,0.0,0.244748298353,0.122865318878,0.121882979475,0.367613617231,0.122865318878,0.208079681577,3,0.871087178923,0.199335109687,-1.0,nan,nan,nan,nan,0.0,0.0,0.0,nan,176.579012926,546.385513786,546.88554586,546.585419591,nan,nan,nan,nan
1,350,1,1,1.0,1.0,0.1837913536,0,0.0,0.0,0.0,0.244616795439,0.122708992117,0.121907803322,0.367325787556,0.122708992117,0.189259294498,315,-0.0657111424032,0.426434809442,0.434956515233,nan,nan,nan,nan,0.0,0.0,0.0,nan,176.579012926,547.38564493,547.885679854,547.569436284,nan,nan,nan,nan
1,351,0,0,1.0,0.0,0.191585008288,0,0.0,0.0,0.0,0.24443894327,0.122573468922,0.121865474348,0.367012412192,0.122573468922,0.19176072216,94,1.0,-0.249439013202,-0.526745155233,nan,nan,nan,nan,0.0,0.0,0.0,nan,176.579012926,548.3857775,548.885812139,548.577362508,nan,nan,nan,nan
1,352,1,1,1.0,1.0,0.0954476811457,0,0.0,0.0,0.0,0.244284850165,0.122427829648,0.121857020517,0.366712679813,0.122427829648,0.156941347678,429,0.177531820842,0.442080780324,-0.901885199234,nan,nan,nan,nan,0.0,0.0,0.0,nan,176.579012926,549.385906648,549.885945278,549.481354329,nan,nan,nan,nan
1,353,0,0,1.0,0.0,0.271292853635,0,0.0,0.0,0.0,0.243852183976,0.122512087765,0.121340096211,0.366364271741,0.122512087765,0.186108514356,489,0.656284860842,0.299572439858,-1.0,nan,nan,nan,nan,0.0,0.0,0.0,nan,176.579012926,550.386024107,550.886074712,550.657316961,nan,nan,nan,nan
1,354,1,1,1.0,1.0,0.23113858304,0,0.0,0.0,0.0,0.243931722149,0.122343299537,0.121588422612,0.366275021686,0.122343299537,0.199293039273,291,0.122027637739,0.373441943191,0.573791926984,nan,nan,nan,nan,0.0,0.0,0.0,nan,176.579012926,551.386144703,551.886206141,551.617283286,nan,nan,nan,nan
1,355,0,0,0.0,1.0,0.454959620722,0,0.0,0.0,0.0,0.243894747759,0.122168305283,0.121726442476,0.366063053041,0.122168305283,0.319130352465,171,1.0,-0.176011872558,0.256450910142,nan,nan,nan,nan,0.0,0.0,0.0,nan,176.579012926,552.386304926,552.886332438,552.841264547,nan,nan,nan,nan
1,356,1,1,1.0,1.0,0.286844811402,0,0.0,0.0,0.0,0.244503003877,0.122515690994,0.121987312882,0.367018694871,0.122515690994,0.324314338388,328,-0.132159558243,0.44685796506,0.336046158271,nan,nan,nan,nan,0.0,0.0,0.0,nan,176.579012926,553.386399578,553.886474415,553.673244389,nan,nan,nan,nan
1,357,1,1,1.0,1.0,0.206652873894,0,0.0,0.0,0.0,0.244624675737,0.122360529121,0.122264146616,0.366985204858,0.122360529121,0.316152435339,465,0.456588679398,0.37096152752,-1.0,nan,nan,nan,nan,0.0,0.0,0.0,nan,176.579012926,554.386547542,554.886571633,554.593200416,nan,nan,nan,nan
1,358,1,1,1.0,1.0,0.22249306296,0,0.0,0.0,0.0,0.244515874013,0.12220195845,0.122313915563,0.366717832463,0.12220195845,0.238663582752,97,1.0,-0.260369742894,-0.491718830742,nan,nan,nan,nan,0.0,0.0,0.0,nan,176.579012926,555.386676691,555.886714466,555.609169754,nan,nan,nan,nan
1,359,0,0,1.0,0.0,0.238332681824,0,0.0,0.0,0.0,0.244452951696,0.122032920933,0.122420030763,0.366485872628,0.122032920933,0.222492872893,257,0.470472903111,0.261039853404,0.655841377839,nan,nan,nan,nan,0.0,0.0,0.0,nan,176.579012926,556.386827221,556.886863571,556.625159903,nan,nan,nan,nan
1,360,1,1,1.0,1.0,0.182189687155,0,0.0,0.0,0.0,0.244435515029,0.121859397495,0.122576117534,0.366294912524,0.121859397495,0.214338477313,485,0.622774561467,0.312875618285,-1.0,nan,nan,nan,nan,0.0,0.0,0.0,nan,176.579012926,557.386939834,557.886999846,557.569129521,nan,nan,nan,nan
1,361,1,1,1.0,1.0,0.222004979383,0,0.0,0.0,0.0,0.244258680291,0.121731269721,0.12252741057,0.365989950012,0.121731269721,0.214175782787,104,1.0,-0.282351481576,-0.412644567278,nan,nan,nan,nan,0.0,0.0,0.0,nan,176.579012926,558.387092645,558.887123293,558.609097624,nan,nan,nan,nan
1,362,1,1,1.0,1.0,0.25385584496,0,0.0,0.0,0.0,0.244195638645,0.12156447756,0.122631161086,0.365760116205,0.12156447756,0.219350170499,275,0.279002393219,0.326185254474,0.630178474337,nan,nan,nan,nan,0.0,0.0,0.0,nan,176.579012926,559.387203832,559.887258143,559.641059677,nan,nan,nan,nan
1,363,1,1,1.0,1.0,0.293694515014,0,0.0,0.0,0.0,0.244222927364,0.121393737612,0.122829189752,0.365616664976,0.121393737612,0.256518446452,201,1.0,-0.0135712615467,0.48142235136,nan,nan,nan,nan,0.0,0.0,0.0,nan,176.579012926,560.387342389,560.887361347,560.681036904,nan,nan,nan,nan
1,364,1,1,1.0,1.0,0.333535180893,0,0.0,0.0,0.0,0.244362283949,0.121250992595,0.123111291353,0.365613276544,0.121250992595,0.293695180289,88,1.0,-0.225257592204,-0.599932847766,nan,nan,nan,nan,0.0,0.0,0.0,nan,176.579012926,561.387485506,561.887524137,561.721020687,nan,nan,nan,nan
1,365,1,1,1.0,1.0,0.365380629431,0,0.0,0.0,0.0,0.244612769614,0.121172520791,0.123440248824,0.365785290405,0.121172520791,0.330870108446,507,0.805995650865,0.232688349973,-1.0,nan,nan,nan,nan,0.0,0.0,0.0,nan,176.579012926,562.387617506,562.887626771,562.752998135,nan,nan,nan,nan
1,366,1,1,1.0,1.0,0.245248242514,0,0.0,0.0,0.0,0.244951054936,0.121170916962,0.123780137974,0.366121971898,0.121170916962,0.314721350946,151,1.0,-0.262720288689,0.0734626651272,nan,nan,nan,nan,0.0,0.0,0.0,nan,176.579012926,563.387713583,563.88775535,563.632961825,nan,nan,nan,nan
1,367,1,1,1.0,1.0,0.213167305104,0,0.0,0.0,0.0,0.244951885069,0.121001566509,0.12395031856,0.365953451578,0.121001566509,0.274598725683,473,0.522594813828,0.349396171415,-1.0,nan,nan,nan,nan,0.0,0.0,0.0,nan,176.579012926,564.387844727,564.887928688,564.601012032,nan,nan,nan,nan
1,368,1,1,1.0,1.0,0.252935841912,0,0.0,0.0,0.0,0.244863348634,0.120844534699,0.124018813935,0.365707883333,0.120844534699,0.237117129844,40,1.0,0.0201165467467,-1.0,nan,nan,nan,nan,0.0,0.0,0.0,nan,176.579012926,565.387977581,565.888052704,565.640913423,nan,nan,nan,nan
