block,trial,freq_trials,correct_response,actual_response,acc,rts,probe_trials,fast_rt_trigger,slow_rt_trigger,rt_triggered,rts_runningavg,rts_runningstd,rts_runningfastthresh,rts_runningslowthresh,rts_runningstd,rts_trailingavg,trials_colorind0,trials_colorind1,trials_colorind2,trials_colorind3,trials_colorind4,trials_colorind5,wholereport_resp0,wholereport_resp1,wholereport_resp2,wholereport_resp3,wholereport_resp4,wholereport_resp5,wholereport_respacc0,wholereport_respacc1,wholereport_respacc2,wholereport_respacc3,wholereport_respacc4,wholereport_respacc5,wholereport_respacc_total,wholereport_respcolorind0,wholereport_respcolorind1,wholereport_respcolorind2,wholereport_respcolorind3,wholereport_respcolorind4,wholereport_respcolorind5,wholereport_resporder0,wholereport_resporder1,wholereport_resporder2,wholereport_resporder3,wholereport_resporder4,wholereport_resporder5,wholereport_rts0,wholereport_rts1,wholereport_rts2,wholereport_rts3,wholereport_rts4,wholereport_rts5,time_blockstart,time_encarray_offset,time_encarray_onset,time_response,time_iti_offset,time_iti_onset,time_memprobe_offset,time_memprobe_onset
1,1,1,1,1.0,1.0,0.3639924528542906,0,nan,nan,nan,nan,nan,nan,nan,nan,nan,0,7,1,3,5,4,nan,nan,nan,nan,nan,nan,nan,nan,nan,nan,nan,nan,0.0,nan,nan,nan,nan,nan,nan,nan,nan,nan,nan,nan,nan,nan,nan,nan,nan,nan,nan,7834.431234013056,7835.451216348272,nan,7835.815208801127,nan,nan,nan,nan
1,2,1,1,1.0,1.0,0.08286843117093667,0,nan,nan,nan,nan,nan,nan,nan,nan,nan,8,7,4,2,5,1,nan,nan,nan,nan,nan,nan,nan,nan,nan,nan,nan,nan,0.0,nan,nan,nan,nan,nan,nan,nan,nan,nan,nan,nan,nan,nan,nan,nan,nan,nan,nan,7834.431234013056,7836.476375519298,nan,7836.559243950469,nan,nan,nan,nan
1,3,1,1,1.0,1.0,0.44973582684178837,0,nan,nan,nan,nan,nan,nan,nan,nan,nan,4,8,7,6,3,5,nan,nan,nan,nan,nan,nan,nan,nan,nan,nan,nan,nan,0.0,nan,nan,nan,nan,nan,nan,nan,nan,nan,nan,nan,nan,nan,nan,nan,nan,nan,nan,7834.431234013056,7837.501491640316,nan,7837.951227467158,nan,nan,nan,nan
1,4,1,1,1.0,1.0,0.3448642755683977,0,nan,nan,nan,nan,nan,nan,nan,nan,nan,2,1,8,4,5,3,nan,nan,nan,nan,nan,nan,nan,nan,nan,nan,nan,nan,0.0,nan,nan,nan,nan,nan,nan,nan,nan,nan,nan,nan,nan,nan,nan,nan,nan,nan,nan,7834.431234013056,7838.518333320011,nan,7838.86319759558,nan,nan,nan,nan
1,5,1,1,1.0,1.0,0.3517194917949382,0,nan,nan,nan,nan,nan,nan,nan,nan,nan,0,7,3,5,8,4,nan,nan,nan,nan,nan,nan,nan,nan,nan,nan,nan,nan,0.0,nan,nan,nan,nan,nan,nan,nan,nan,nan,nan,nan,nan,nan,nan,nan,nan,nan,nan,7834.431234013056,7839.54344231353,nan,7839.895161805325,nan,nan,nan,nan
1,6,1,1,1.0,1.0,0.39060220986721106,0,nan,nan,nan,nan,nan,nan,nan,nan,nan,1,8,4,6,0,3,nan,nan,nan,nan,nan,nan,nan,nan,nan,nan,nan,nan,0.0,nan,nan,nan,nan,nan,nan,nan,nan,nan,nan,nan,nan,nan,nan,nan,nan,nan,nan,7834.431234013056,7840.568562711036,nan,7840.959164920903,nan,nan,nan,nan
1,7,0,0,nan,nan,nan,0,nan,nan,nan,nan,nan,nan,nan,nan,nan,6,5,3,0,1,8,nan,nan,nan,nan,nan,nan,nan,nan,nan,nan,nan,nan,0.0,nan,nan,nan,nan,nan,nan,nan,nan,nan,nan,nan,nan,nan,nan,nan,nan,nan,nan,7834.431234013056,7841.585383863596,nan,nan,nan,nan,nan,nan
1,8,1,1,nan,nan,nan,0,nan,nan,nan,nan,nan,nan,nan,nan,nan,8,0,1,2,4,6,nan,nan,nan,nan,nan,nan,nan,nan,nan,nan,nan,nan,0.0,nan,nan,nan,nan,nan,nan,nan,nan,nan,nan,nan,nan,nan,nan,nan,nan,nan,nan,7834.431234013056,7842.610516520363,nan,nan,nan,nan,nan,nan
1,9,1,1,1.0,1.0,0.09186445915838704,0,nan,nan,nan,nan,nan,nan,nan,nan,nan,2,4,6,7,1,3,nan,nan,nan,nan,nan,nan,nan,nan,nan,nan,nan,nan,0.0,nan,nan,nan,nan,nan,nan,nan,nan,nan,nan,nan,nan,nan,nan,nan,nan,nan,nan,7834.431234013056,7843.627277516935,nan,7843.719141976093,nan,nan,nan,nan
1,10,1,1,nan,nan,nan,0,nan,nan,nan,nan,nan,nan,nan,nan,nan,5,2,1,8,6,7,nan,nan,nan,nan,nan,nan,nan,nan,nan,nan,nan,nan,0.0,nan,nan,nan,nan,nan,nan,nan,nan,nan,nan,nan,nan,nan,nan,nan,nan,nan,nan,7834.431234013056,7844.652428420086,nan,nan,nan,nan,nan,nan
1,11,1,1,1.0,1.0,0.10551473565283231,0,nan,nan,nan,nan,nan,nan,nan,nan,nan,1,6,0,2,7,4,nan,nan,nan,nan,nan,nan,nan,nan,nan,nan,nan,nan,0.0,nan,nan,nan,nan,nan,nan,nan,nan,nan,nan,nan,nan,nan,nan,nan,nan,nan,nan,7834.431234013056,7845.677598709968,nan,7845.783113445621,nan,nan,nan,nan
1,12,1,1,1.0,1.0,0.48835910443449393,1,nan,nan,nan,nan,nan,nan,nan,nan,nan,2,8,3,7,5,0,1.0,1.0,1.0,1.0,1.0,1.0,0.0,1.0,1.0,1.0,0.0,1.0,4.0,6.0,8.0,3.0,7.0,1.0,0.0,4.0,2.0,1.0,3.0,6.0,5.0,6.043633900379064,2.4046661656466313,1.1260259303671774,3.7730232059548143,9.715608738624724,8.627180012932513,7834.431234013056,7846.702734217746,7847.511126005964,7847.191093322181,7858.279232957051,7859.277384942427,7848.527928056865,7858.2709080531495
1,13,1,1,1.0,1.0,0.7428414379537571,0,nan,nan,nan,nan,nan,nan,nan,nan,nan,7,6,2,3,0,5,nan,nan,nan,nan,nan,nan,nan,nan,nan,nan,nan,nan,0.0,nan,nan,nan,nan,nan,nan,nan,nan,nan,nan,nan,nan,nan,nan,nan,nan,nan,nan,7834.431234013056,7859.496090431261,nan,7860.238931869215,nan,nan,nan,nan
1,14,1,1,nan,nan,nan,0,nan,nan,nan,nan,nan,nan,nan,nan,nan,8,0,6,5,4,1,nan,nan,nan,nan,nan,nan,nan,nan,nan,nan,nan,nan,0.0,nan,nan,nan,nan,nan,nan,nan,nan,nan,nan,nan,nan,nan,nan,nan,nan,nan,nan,7834.431234013056,7860.512858840404,nan,nan,nan,nan,nan,nan
1,15,1,1,nan,nan,nan,0,nan,nan,nan,nan,nan,nan,nan,nan,nan,4,6,8,0,1,7,nan,nan,nan,nan,nan,nan,nan,nan,nan,nan,nan,nan,0.0,nan,nan,nan,nan,nan,nan,nan,nan,nan,nan,nan,nan,nan,nan,nan,nan,nan,nan,7834.431234013056,7861.5297033711395,nan,nan,nan,nan,nan,nan
1,16,1,1,nan,nan,nan,0,nan,nan,nan,nan,nan,nan,nan,nan,nan,2,7,1,4,5,0,nan,nan,nan,nan,nan,nan,nan,nan,nan,nan,nan,nan,0.0,nan,nan,nan,nan,nan,nan,nan,nan,nan,nan,nan,nan,nan,nan,nan,nan,nan,nan,7834.431234013056,7862.5548417299,nan,nan,nan,nan,nan,nan
1,17,1,1,1.0,1.0,0.03526851235073991,0,nan,nan,nan,nan,nan,nan,nan,nan,nan,5,3,6,1,8,2,nan,nan,nan,nan,nan,nan,nan,nan,nan,nan,nan,nan,0.0,nan,nan,nan,nan,nan,nan,nan,nan,nan,nan,nan,nan,nan,nan,nan,nan,nan,nan,7834.431234013056,7863.571637508605,nan,7863.606906020956,nan,nan,nan,nan
1,18,1,1,1.0,1.0,0.18643451208481565,0,nan,nan,nan,nan,nan,nan,nan,nan,nan,0,4,8,3,5,7,nan,nan,nan,nan,nan,nan,nan,nan,nan,nan,nan,nan,0.0,nan,nan,nan,nan,nan,nan,nan,nan,nan,nan,nan,nan,nan,nan,nan,nan,nan,nan,7834.431234013056,7864.588436708495,nan,7864.774871220579,nan,nan,nan,nan
1,19,1,1,1.0,1.0,0.04959048316231929,0,nan,nan,nan,nan,nan,nan,nan,nan,nan,1,3,4,7,8,5,nan,nan,nan,nan,nan,nan,nan,nan,nan,nan,nan,nan,0.0,nan,nan,nan,nan,nan,nan,nan,nan,nan,nan,nan,nan,nan,nan,nan,nan,nan,nan,7834.431234013056,7865.605251018656,nan,7865.654841501819,nan,nan,nan,nan
1,20,1,1,nan,nan,nan,0,nan,nan,nan,nan,nan,nan,nan,nan,nan,3,5,6,0,2,1,nan,nan,nan,nan,nan,nan,nan,nan,nan,nan,nan,nan,0.0,nan,nan,nan,nan,nan,nan,nan,nan,nan,nan,nan,nan,nan,nan,nan,nan,nan,nan,7834.431234013056,7866.630321523757,nan,nan,nan,nan,nan,nan
1,21,1,1,nan,nan,nan,0,nan,nan,nan,nan,nan,nan,nan,nan,nan,6,2,8,3,5,7,nan,nan,nan,nan,nan,nan,nan,nan,nan,nan,nan,nan,0.0,nan,nan,nan,nan,nan,nan,nan,nan,nan,nan,nan,nan,nan,nan,nan,nan,nan,nan,7834.431234013056,7867.647168050142,nan,nan,nan,nan,nan,nan
1,22,1,1,nan,nan,nan,0,nan,nan,nan,nan,nan,nan,nan,nan,nan,5,0,1,6,3,8,nan,nan,nan,nan,nan,nan,nan,nan,nan,nan,nan,nan,0.0,nan,nan,nan,nan,nan,nan,nan,nan,nan,nan,nan,nan,nan,nan,nan,nan,nan,nan,7834.431234013056,7868.672312110895,nan,nan,nan,nan,nan,nan
1,23,1,1,1.0,1.0,0.7093556524487212,1,nan,nan,nan,nan,nan,nan,nan,nan,nan,2,5,3,8,7,1,1.0,1.0,1.0,1.0,1.0,1.0,0.0,0.0,1.0,0.0,0.0,0.0,1.0,4.0,2.0,3.0,0.0,5.0,6.0,4.0,2.0,1.0,6.0,5.0,3.0,9.44108876059181,4.162067062250571,2.3147124430106487,12.232471230614465,11.304722843429772,7.768507515807869,7834.431234013056,7869.697437640192,7870.505887588719,7870.406793292641,7883.790977343713,7884.7987006877665,7871.522664550837,7883.782644742139
1,24,1,1,nan,nan,nan,0,nan,nan,nan,nan,nan,nan,nan,nan,nan,1,8,0,7,2,3,nan,nan,nan,nan,nan,nan,nan,nan,nan,nan,nan,nan,0.0,nan,nan,nan,nan,nan,nan,nan,nan,nan,nan,nan,nan,nan,nan,nan,nan,nan,nan,7834.431234013056,7885.016162572836,nan,nan,nan,nan,nan,nan
1,25,1,1,nan,nan,nan,0,nan,nan,nan,nan,nan,nan,nan,nan,nan,8,3,4,6,7,0,nan,nan,nan,nan,nan,nan,nan,nan,nan,nan,nan,nan,0.0,nan,nan,nan,nan,nan,nan,nan,nan,nan,nan,nan,nan,nan,nan,nan,nan,nan,nan,7834.431234013056,7886.041313761059,nan,nan,nan,nan,nan,nan
1,26,1,1,1.0,1.0,0.07620423156186007,0,nan,nan,nan,nan,nan,nan,nan,nan,nan,0,5,7,3,8,2,nan,nan,nan,nan,nan,nan,nan,nan,nan,nan,nan,nan,0.0,nan,nan,nan,nan,nan,nan,nan,nan,nan,nan,nan,nan,nan,nan,nan,nan,nan,nan,7834.431234013056,7887.066418478091,nan,7887.142622709653,nan,nan,nan,nan
1,27,1,1,nan,nan,nan,0,nan,nan,nan,nan,nan,nan,nan,nan,nan,5,6,4,0,7,8,nan,nan,nan,nan,nan,nan,nan,nan,nan,nan,nan,nan,0.0,nan,nan,nan,nan,nan,nan,nan,nan,nan,nan,nan,nan,nan,nan,nan,nan,nan,nan,7834.431234013056,7888.091581640503,nan,nan,nan,nan,nan,nan
1,28,1,1,nan,nan,nan,0,nan,nan,nan,nan,nan,nan,nan,nan,nan,1,0,2,6,8,5,nan,nan,nan,nan,nan,nan,nan,nan,nan,nan,nan,nan,0.0,nan,nan,nan,nan,nan,nan,nan,nan,nan,nan,nan,nan,nan,nan,nan,nan,nan,nan,7834.431234013056,7889.11672399065,nan,nan,nan,nan,nan,nan
1,29,1,1,1.0,1.0,0.05672709253849462,0,nan,nan,nan,nan,nan,nan,nan,nan,nan,4,2,0,8,3,7,nan,nan,nan,nan,nan,nan,nan,nan,nan,nan,nan,nan,0.0,nan,nan,nan,nan,nan,nan,nan,nan,nan,nan,nan,nan,nan,nan,nan,nan,nan,nan,7834.431234013056,7890.141828992782,nan,7890.198556085321,nan,nan,nan,nan
1,30,1,1,1.0,1.0,0.08755603627650999,0,nan,nan,nan,nan,nan,nan,nan,nan,nan,7,3,4,0,1,5,nan,nan,nan,nan,nan,nan,nan,nan,nan,nan,nan,nan,0.0,nan,nan,nan,nan,nan,nan,nan,nan,nan,nan,nan,nan,nan,nan,nan,nan,nan,nan,7834.431234013056,7891.166995291307,nan,7891.254551327584,nan,nan,nan,nan
1,31,1,1,1.0,1.0,0.3184489563573152,0,nan,nan,nan,nan,nan,nan,nan,nan,nan,6,4,5,2,0,8,nan,nan,nan,nan,nan,nan,nan,nan,nan,nan,nan,nan,0.0,nan,nan,nan,nan,nan,nan,nan,nan,nan,nan,nan,nan,nan,nan,nan,nan,nan,nan,7834.431234013056,7892.192096872226,nan,7892.510545828583,nan,nan,nan,nan
1,32,1,1,1.0,1.0,0.3255995356303174,0,nan,nan,nan,nan,nan,nan,nan,nan,nan,5,8,0,6,7,4,nan,nan,nan,nan,nan,nan,nan,nan,nan,nan,nan,nan,0.0,nan,nan,nan,nan,nan,nan,nan,nan,nan,nan,nan,nan,nan,nan,nan,nan,nan,nan,7834.431234013056,7893.208934845636,nan,7893.534534381266,nan,nan,nan,nan
1,33,1,1,1.0,1.0,0.21243102019070648,0,nan,nan,nan,nan,nan,nan,nan,nan,nan,2,1,5,0,8,3,nan,nan,nan,nan,nan,nan,nan,nan,nan,nan,nan,nan,0.0,nan,nan,nan,nan,nan,nan,nan,nan,nan,nan,nan,nan,nan,nan,nan,nan,nan,nan,7834.431234013056,7894.234077480913,nan,7894.446508501103,nan,nan,nan,nan
1,34,1,1,1.0,1.0,0.2272767186514102,0,nan,nan,nan,nan,nan,nan,nan,nan,nan,1,8,3,5,6,2,nan,nan,nan,nan,nan,nan,nan,nan,nan,nan,nan,nan,0.0,nan,nan,nan,nan,nan,nan,nan,nan,nan,nan,nan,nan,nan,nan,nan,nan,nan,nan,7834.431234013056,7895.259216694976,nan,7895.486493413628,nan,nan,nan,nan
1,35,1,1,1.0,1.0,0.23415274714352563,0,nan,nan,nan,nan,nan,nan,nan,nan,nan,5,7,6,2,3,0,nan,nan,nan,nan,nan,nan,nan,nan,nan,nan,nan,nan,0.0,nan,nan,nan,nan,nan,nan,nan,nan,nan,nan,nan,nan,nan,nan,nan,nan,nan,nan,7834.431234013056,7896.2843456454575,nan,7896.518498392601,nan,nan,nan,nan
1,36,1,1,1.0,1.0,0.02535389392869547,0,nan,nan,nan,nan,nan,nan,nan,nan,nan,0,8,2,3,1,7,nan,nan,nan,nan,nan,nan,nan,nan,nan,nan,nan,nan,0.0,nan,nan,nan,nan,nan,nan,nan,nan,nan,nan,nan,nan,nan,nan,nan,nan,nan,nan,7834.431234013056,7897.301121467201,nan,7897.326475361129,nan,nan,nan,nan
1,37,1,1,1.0,1.0,0.22419821482617408,0,nan,nan,nan,nan,nan,nan,nan,nan,nan,3,1,8,4,7,5,nan,nan,nan,nan,nan,nan,nan,nan,nan,nan,nan,nan,0.0,nan,nan,nan,nan,nan,nan,nan,nan,nan,nan,nan,nan,nan,nan,nan,nan,nan,nan,7834.431234013056,7898.326256404747,nan,7898.550454619573,nan,nan,nan,nan
1,38,1,1,nan,nan,nan,0,nan,nan,nan,nan,nan,nan,nan,nan,nan,1,3,2,7,5,0,nan,nan,nan,nan,nan,nan,nan,nan,nan,nan,nan,nan,0.0,nan,nan,nan,nan,nan,nan,nan,nan,nan,nan,nan,nan,nan,nan,nan,nan,nan,nan,7834.431234013056,7899.35141956716,nan,nan,nan,nan,nan,nan
1,39,1,1,nan,nan,nan,0,nan,nan,nan,nan,nan,nan,nan,nan,nan,5,7,6,4,1,2,nan,nan,nan,nan,nan,nan,nan,nan,nan,nan,nan,nan,0.0,nan,nan,nan,nan,nan,nan,nan,nan,nan,nan,nan,nan,nan,nan,nan,nan,nan,nan,7834.431234013056,7900.376525994798,nan,nan,nan,nan,nan,nan
1,40,1,1,1.0,1.0,0.7487849061435554,0,nan,nan,nan,nan,nan,nan,nan,nan,nan,0,6,4,7,3,5,nan,nan,nan,nan,nan,nan,nan,nan,nan,nan,nan,nan,0.0,nan,nan,nan,nan,nan,nan,nan,nan,nan,nan,nan,nan,nan,nan,nan,nan,nan,nan,7834.431234013056,7901.401672906533,nan,7902.150457812677,nan,nan,nan,nan
1,41,1,1,1.0,1.0,0.5555701589910313,0,nan,nan,nan,nan,nan,nan,nan,nan,nan,8,7,5,1,0,4,nan,nan,nan,nan,nan,nan,nan,nan,nan,nan,nan,nan,0.0,nan,nan,nan,nan,nan,nan,nan,nan,nan,nan,nan,nan,nan,nan,nan,nan,nan,nan,7834.431234013056,7902.426836068946,nan,7902.982406227937,nan,nan,nan,nan
1,42,0,0,0.0,1.0,0.6747796466515865,0,nan,nan,nan,nan,nan,nan,nan,nan,nan,7,3,2,4,1,6,nan,nan,nan,nan,nan,nan,nan,nan,nan,nan,nan,nan,0.0,nan,nan,nan,nan,nan,nan,nan,nan,nan,nan,nan,nan,nan,nan,nan,nan,nan,nan,7834.431234013056,7903.443612460891,nan,7904.118392107543,nan,nan,nan,nan
1,43,1,1,1.0,1.0,0.617635168513516,0,nan,nan,nan,nan,nan,nan,nan,nan,nan,4,7,0,3,2,1,nan,nan,nan,nan,nan,nan,nan,nan,nan,nan,nan,nan,0.0,nan,nan,nan,nan,nan,nan,nan,nan,nan,nan,nan,nan,nan,nan,nan,nan,nan,nan,7834.431234013056,7904.468766500126,nan,7905.086401668639,nan,nan,nan,nan
1,44,1,1,nan,nan,nan,0,nan,nan,nan,nan,nan,nan,nan,nan,nan,6,4,2,8,1,7,nan,nan,nan,nan,nan,nan,nan,nan,nan,nan,nan,nan,0.0,nan,nan,nan,nan,nan,nan,nan,nan,nan,nan,nan,nan,nan,nan,nan,nan,nan,nan,7834.431234013056,7905.493914267165,nan,nan,nan,nan,nan,nan
1,45,0,0,nan,nan,nan,0,nan,nan,nan,nan,nan,nan,nan,nan,nan,1,3,5,2,0,6,nan,nan,nan,nan,nan,nan,nan,nan,nan,nan,nan,nan,0.0,nan,nan,nan,nan,nan,nan,nan,nan,nan,nan,nan,nan,nan,nan,nan,nan,nan,nan,7834.431234013056,7906.519048349437,nan,nan,nan,nan,nan,nan
1,46,1,1,nan,nan,nan,0,nan,nan,nan,nan,nan,nan,nan,nan,nan,8,7,4,0,2,3,nan,nan,nan,nan,nan,nan,nan,nan,nan,nan,nan,nan,0.0,nan,nan,nan,nan,nan,nan,nan,nan,nan,nan,nan,nan,nan,nan,nan,nan,nan,nan,7834.431234013056,7907.5441824317095,nan,nan,nan,nan,nan,nan
1,47,1,1,nan,nan,nan,0,nan,nan,nan,nan,nan,nan,nan,nan,nan,0,2,8,4,5,1,nan,nan,nan,nan,nan,nan,nan,nan,nan,nan,nan,nan,0.0,nan,nan,nan,nan,nan,nan,nan,nan,nan,nan,nan,nan,nan,nan,nan,nan,nan,nan,7834.431234013056,7908.569288289145,nan,nan,nan,nan,nan,nan
1,48,1,1,nan,nan,nan,0,nan,nan,nan,nan,nan,nan,nan,nan,nan,1,3,5,7,8,0,nan,nan,nan,nan,nan,nan,nan,nan,nan,nan,nan,nan,0.0,nan,nan,nan,nan,nan,nan,nan,nan,nan,nan,nan,nan,nan,nan,nan,nan,nan,nan,7834.431234013056,7909.594459434331,nan,nan,nan,nan,nan,nan
1,49,1,1,nan,nan,nan,0,nan,nan,nan,nan,nan,nan,nan,nan,nan,2,7,1,4,0,3,nan,nan,nan,nan,nan,nan,nan,nan,nan,nan,nan,nan,0.0,nan,nan,nan,nan,nan,nan,nan,nan,nan,nan,nan,nan,nan,nan,nan,nan,nan,nan,7834.431234013056,7910.61956614707,nan,nan,nan,nan,nan,nan
1,50,1,1,1.0,1.0,0.2416055318317376,0,nan,nan,nan,nan,nan,nan,nan,nan,nan,3,5,6,7,1,2,nan,nan,nan,nan,nan,nan,nan,nan,nan,nan,nan,nan,0.0,nan,nan,nan,nan,nan,nan,nan,nan,nan,nan,nan,nan,nan,nan,nan,nan,nan,nan,7834.431234013056,7911.644720471406,nan,7911.886326003238,nan,nan,nan,nan
1,51,1,1,1.0,1.0,0.2724290587066207,0,nan,nan,nan,nan,nan,nan,nan,nan,nan,0,3,7,2,6,1,nan,nan,nan,nan,nan,nan,nan,nan,nan,nan,nan,nan,0.0,nan,nan,nan,nan,nan,nan,nan,nan,nan,nan,nan,nan,nan,nan,nan,nan,nan,nan,7834.431234013056,7912.669873085135,nan,7912.9423021438415,nan,nan,nan,nan
1,52,1,1,1.0,1.0,0.2633007445547264,0,nan,nan,nan,nan,nan,nan,nan,nan,nan,3,6,5,1,4,7,nan,nan,nan,nan,nan,nan,nan,nan,nan,nan,nan,nan,0.0,nan,nan,nan,nan,nan,nan,nan,nan,nan,nan,nan,nan,nan,nan,nan,nan,nan,nan,7834.431234013056,7913.694981508452,nan,7913.9582822530065,nan,nan,nan,nan
1,53,1,1,1.0,1.0,0.2781204989878461,0,nan,nan,nan,nan,nan,nan,nan,nan,nan,6,2,1,4,3,8,nan,nan,nan,nan,nan,nan,nan,nan,nan,nan,nan,nan,0.0,nan,nan,nan,nan,nan,nan,nan,nan,nan,nan,nan,nan,nan,nan,nan,nan,nan,nan,7834.431234013056,7914.720147521846,nan,7914.998268020834,nan,nan,nan,nan
1,54,1,1,1.0,1.0,0.2529904081020504,0,nan,nan,nan,nan,nan,nan,nan,nan,nan,3,8,4,5,2,0,nan,nan,nan,nan,nan,nan,nan,nan,nan,nan,nan,nan,0.0,nan,nan,nan,nan,nan,nan,nan,nan,nan,nan,nan,nan,nan,nan,nan,nan,nan,nan,7834.431234013056,7915.74527960844,nan,7915.998270016542,nan,nan,nan,nan
1,55,1,1,1.0,1.0,0.2438390009046998,0,nan,nan,nan,nan,nan,nan,nan,nan,nan,1,7,8,4,0,2,nan,nan,nan,nan,nan,nan,nan,nan,nan,nan,nan,nan,0.0,nan,nan,nan,nan,nan,nan,nan,nan,nan,nan,nan,nan,nan,nan,nan,nan,nan,nan,7834.431234013056,7916.770412550308,nan,7917.0142515512125,nan,nan,nan,nan
1,56,1,1,1.0,1.0,0.26667404125328176,0,nan,nan,nan,nan,nan,nan,nan,nan,nan,5,8,1,2,6,3,nan,nan,nan,nan,nan,nan,nan,nan,nan,nan,nan,nan,0.0,nan,nan,nan,nan,nan,nan,nan,nan,nan,nan,nan,nan,nan,nan,nan,nan,nan,nan,7834.431234013056,7917.795558036538,nan,7918.062232077791,nan,nan,nan,nan
1,57,1,1,1.0,1.0,0.385523448290769,0,nan,nan,nan,nan,nan,nan,nan,nan,nan,0,2,5,6,4,7,nan,nan,nan,nan,nan,nan,nan,nan,nan,nan,nan,nan,0.0,nan,nan,nan,nan,nan,nan,nan,nan,nan,nan,nan,nan,nan,nan,nan,nan,nan,nan,7834.431234013056,7918.820693259215,nan,7919.2062167075055,nan,nan,nan,nan
1,58,1,1,1.0,1.0,0.41638033179333434,0,nan,nan,nan,nan,nan,nan,nan,nan,nan,6,1,2,4,5,0,nan,nan,nan,nan,nan,nan,nan,nan,nan,nan,nan,nan,0.0,nan,nan,nan,nan,nan,nan,nan,nan,nan,nan,nan,nan,nan,nan,nan,nan,nan,nan,7834.431234013056,7919.845826771285,nan,7920.262207103078,nan,nan,nan,nan
1,59,1,1,1.0,1.0,0.6712258820189163,0,nan,nan,nan,nan,nan,nan,nan,nan,nan,0,7,1,2,6,4,nan,nan,nan,nan,nan,nan,nan,nan,nan,nan,nan,nan,0.0,nan,nan,nan,nan,nan,nan,nan,nan,nan,nan,nan,nan,nan,nan,nan,nan,nan,nan,7834.431234013056,7920.870977104234,nan,7921.542202986253,nan,nan,nan,nan
1,60,1,1,nan,nan,nan,1,nan,nan,nan,nan,nan,nan,nan,nan,nan,4,3,5,8,1,2,1.0,1.0,1.0,1.0,1.0,1.0,0.0,1.0,0.0,1.0,0.0,0.0,2.0,1.0,3.0,1.0,8.0,2.0,0.0,4.0,3.0,1.0,2.0,6.0,5.0,4.609629576007137,3.4660800080455374,0.9222183132078499,1.7311902788060252,8.68929577016388,7.657447880977998,7834.431234013056,7921.896074408665,7922.70453091446,nan,7932.447439350799,7933.454559139325,7923.7212867792405,7932.439113306493
1,61,0,0,0.0,1.0,0.6853745123371482,0,nan,nan,nan,nan,nan,nan,nan,nan,nan,8,5,4,2,0,1,nan,nan,nan,nan,nan,nan,nan,nan,nan,nan,nan,nan,0.0,nan,nan,nan,nan,nan,nan,nan,nan,nan,nan,nan,nan,nan,nan,nan,nan,nan,nan,7834.431234013056,7933.672671336215,nan,7934.358045848552,nan,nan,nan,nan
1,62,1,1,nan,nan,nan,0,nan,nan,nan,nan,nan,nan,nan,nan,nan,1,7,2,4,6,3,nan,nan,nan,nan,nan,nan,nan,nan,nan,nan,nan,nan,0.0,nan,nan,nan,nan,nan,nan,nan,nan,nan,nan,nan,nan,nan,nan,nan,nan,nan,nan,7834.431234013056,7934.69777434264,nan,nan,nan,nan,nan,nan
1,63,0,0,nan,nan,nan,0,nan,nan,nan,nan,nan,nan,nan,nan,nan,6,8,7,1,2,0,nan,nan,nan,nan,nan,nan,nan,nan,nan,nan,nan,nan,0.0,nan,nan,nan,nan,nan,nan,nan,nan,nan,nan,nan,nan,nan,nan,nan,nan,nan,nan,7834.431234013056,7935.714607184287,nan,nan,nan,nan,nan,nan
1,64,1,1,nan,nan,nan,0,nan,nan,nan,nan,nan,nan,nan,nan,nan,5,3,0,2,6,8,nan,nan,nan,nan,nan,nan,nan,nan,nan,nan,nan,nan,0.0,nan,nan,nan,nan,nan,nan,nan,nan,nan,nan,nan,nan,nan,nan,nan,nan,nan,nan,7834.431234013056,7936.739725015883,nan,nan,nan,nan,nan,nan
1,65,1,1,nan,nan,nan,0,nan,nan,nan,nan,nan,nan,nan,nan,nan,0,8,3,5,7,1,nan,nan,nan,nan,nan,nan,nan,nan,nan,nan,nan,nan,0.0,nan,nan,nan,nan,nan,nan,nan,nan,nan,nan,nan,nan,nan,nan,nan,nan,nan,nan,7834.431234013056,7937.764885327284,nan,nan,nan,nan,nan,nan
1,66,1,1,nan,nan,nan,0,nan,nan,nan,nan,nan,nan,nan,nan,nan,6,4,7,8,3,0,nan,nan,nan,nan,nan,nan,nan,nan,nan,nan,nan,nan,0.0,nan,nan,nan,nan,nan,nan,nan,nan,nan,nan,nan,nan,nan,nan,nan,nan,nan,nan,7834.431234013056,7938.781682531495,nan,nan,nan,nan,nan,nan
1,67,1,1,nan,nan,nan,0,nan,nan,nan,nan,nan,nan,nan,nan,nan,2,7,6,5,0,3,nan,nan,nan,nan,nan,nan,nan,nan,nan,nan,nan,nan,0.0,nan,nan,nan,nan,nan,nan,nan,nan,nan,nan,nan,nan,nan,nan,nan,nan,nan,nan,7834.431234013056,7939.79848315689,nan,nan,nan,nan,nan,nan
1,68,1,1,nan,nan,nan,0,nan,nan,nan,nan,nan,nan,nan,nan,nan,7,4,5,3,2,1,nan,nan,nan,nan,nan,nan,nan,nan,nan,nan,nan,nan,0.0,nan,nan,nan,nan,nan,nan,nan,nan,nan,nan,nan,nan,nan,nan,nan,nan,nan,nan,7834.431234013056,7940.815287773672,nan,nan,nan,nan,nan,nan
1,69,1,1,1.0,1.0,0.22950334535562433,0,nan,nan,nan,nan,nan,nan,nan,nan,nan,2,1,7,0,5,3,nan,nan,nan,nan,nan,nan,nan,nan,nan,nan,nan,nan,0.0,nan,nan,nan,nan,nan,nan,nan,nan,nan,nan,nan,nan,nan,nan,nan,nan,nan,nan,7834.431234013056,7941.840433545032,nan,7942.069936890388,nan,nan,nan,nan
1,70,1,1,1.0,1.0,0.38070241661625914,0,nan,nan,nan,nan,nan,nan,nan,nan,nan,0,4,2,7,8,1,nan,nan,nan,nan,nan,nan,nan,nan,nan,nan,nan,nan,0.0,nan,nan,nan,nan,nan,nan,nan,nan,nan,nan,nan,nan,nan,nan,nan,nan,nan,nan,7834.431234013056,7942.857219630358,nan,7943.237922046974,nan,nan,nan,nan
1,71,0,0,nan,nan,nan,0,nan,nan,nan,nan,nan,nan,nan,nan,nan,1,2,3,0,6,4,nan,nan,nan,nan,nan,nan,nan,nan,nan,nan,nan,nan,0.0,nan,nan,nan,nan,nan,nan,nan,nan,nan,nan,nan,nan,nan,nan,nan,nan,nan,nan,7834.431234013056,7943.874011132546,nan,nan,nan,nan,nan,nan
1,72,1,1,nan,nan,nan,0,nan,nan,nan,nan,nan,nan,nan,nan,nan,6,8,0,5,7,3,nan,nan,nan,nan,nan,nan,nan,nan,nan,nan,nan,nan,0.0,nan,nan,nan,nan,nan,nan,nan,nan,nan,nan,nan,nan,nan,nan,nan,nan,nan,nan,7834.431234013056,7944.8991648866795,nan,nan,nan,nan,nan,nan
1,73,1,1,nan,nan,nan,0,nan,nan,nan,nan,nan,nan,nan,nan,nan,2,7,8,4,3,0,nan,nan,nan,nan,nan,nan,nan,nan,nan,nan,nan,nan,0.0,nan,nan,nan,nan,nan,nan,nan,nan,nan,nan,nan,nan,nan,nan,nan,nan,nan,nan,7834.431234013056,7945.9243026752665,nan,nan,nan,nan,nan,nan
1,74,1,1,1.0,1.0,0.0008025549468584359,0,nan,nan,nan,nan,nan,nan,nan,nan,nan,5,1,4,2,6,3,nan,nan,nan,nan,nan,nan,nan,nan,nan,nan,nan,nan,0.0,nan,nan,nan,nan,nan,nan,nan,nan,nan,nan,nan,nan,nan,nan,nan,nan,nan,nan,7834.431234013056,7946.941115559923,nan,7946.94191811487,nan,nan,nan,nan
1,75,1,1,1.0,1.0,0.1119890590198338,1,nan,nan,nan,nan,nan,nan,nan,nan,nan,6,2,8,0,3,7,1.0,1.0,1.0,1.0,1.0,1.0,0.0,1.0,1.0,0.0,0.0,1.0,3.0,0.0,2.0,8.0,3.0,6.0,7.0,6.0,2.0,1.0,4.0,3.0,5.0,14.114773910434451,2.7567617036402225,1.9402306112460792,5.124299938324839,3.8119706416036934,12.051571069023339,7834.431234013056,7947.957886820077,7948.766338764282,7948.069875879097,7963.934985351574,7964.935005023435,7949.783112875419,7963.92664790331
1,76,1,1,nan,nan,nan,0,nan,nan,nan,nan,nan,nan,nan,nan,nan,0,3,1,4,8,6,nan,nan,nan,nan,nan,nan,nan,nan,nan,nan,nan,nan,0.0,nan,nan,nan,nan,nan,nan,nan,nan,nan,nan,nan,nan,nan,nan,nan,nan,nan,nan,7834.431234013056,7965.160210779723,nan,nan,nan,nan,nan,nan
1,77,1,1,nan,nan,nan,0,nan,nan,nan,nan,nan,nan,nan,nan,nan,4,7,0,6,2,1,nan,nan,nan,nan,nan,nan,nan,nan,nan,nan,nan,nan,0.0,nan,nan,nan,nan,nan,nan,nan,nan,nan,nan,nan,nan,nan,nan,nan,nan,nan,nan,7834.431234013056,7966.176977193187,nan,nan,nan,nan,nan,nan
1,78,0,0,0.0,1.0,0.45982891754829325,0,nan,nan,nan,nan,nan,nan,nan,nan,nan,0,6,1,8,5,2,nan,nan,nan,nan,nan,nan,nan,nan,nan,nan,nan,nan,0.0,nan,nan,nan,nan,nan,nan,nan,nan,nan,nan,nan,nan,nan,nan,nan,nan,nan,nan,7834.431234013056,7967.193814311293,nan,7967.653643228841,nan,nan,nan,nan
1,79,1,1,1.0,1.0,0.4829898265306838,0,nan,nan,nan,nan,nan,nan,nan,nan,nan,8,5,7,3,0,4,nan,nan,nan,nan,nan,nan,nan,nan,nan,nan,nan,nan,0.0,nan,nan,nan,nan,nan,nan,nan,nan,nan,nan,nan,nan,nan,nan,nan,nan,nan,nan,7834.431234013056,7968.2106058135105,nan,7968.693595640041,nan,nan,nan,nan
1,80,1,1,1.0,1.0,0.4581722046423238,0,nan,nan,nan,nan,nan,nan,nan,nan,nan,4,7,2,5,6,8,nan,nan,nan,nan,nan,nan,nan,nan,nan,nan,nan,nan,0.0,nan,nan,nan,nan,nan,nan,nan,nan,nan,nan,nan,nan,nan,nan,nan,nan,nan,nan,7834.431234013056,7969.227419838571,nan,7969.685592043214,nan,nan,nan,nan
1,81,1,1,1.0,1.0,0.4970286935567856,0,0.0,0.0,0.0,0.3234604716562899,0.20795166802881065,0.11550880362747923,0.5314121396851006,0.20795166802881065,0.47939690824326436,1,4,8,3,5,2,nan,nan,nan,nan,nan,nan,nan,nan,nan,nan,nan,nan,0.0,nan,nan,nan,nan,nan,nan,nan,nan,nan,nan,nan,nan,nan,nan,nan,nan,nan,nan,7834.431234013056,7970.252551640064,nan,7970.7495803336205,nan,nan,nan,nan
1,82,1,1,1.0,1.0,0.5442126522539183,0,0.0,0.0,0.0,0.3271534125477898,0.20724659878758028,0.11990681376020951,0.5344000113353701,0.20724659878758028,0.4998045168176759,2,6,1,5,7,0,nan,nan,nan,nan,nan,nan,nan,nan,nan,nan,nan,nan,0.0,nan,nan,nan,nan,nan,nan,nan,nan,nan,nan,nan,nan,nan,nan,nan,nan,nan,nan,7834.431234013056,7971.2693485591735,nan,7971.813561211427,nan,nan,nan,nan
1,83,1,1,1.0,1.0,0.6314034761744551,0,0.0,1.0,0.0,0.33167548004166747,0.2074064716089738,0.12426900843269367,0.5390819516506413,0.2074064716089738,0.557548273995053,4,2,5,0,8,7,nan,nan,nan,nan,nan,nan,nan,nan,nan,nan,nan,nan,0.0,nan,nan,nan,nan,nan,nan,nan,nan,nan,nan,nan,nan,nan,nan,nan,nan,nan,nan,7834.431234013056,7972.286149469641,nan,7972.917552945815,nan,nan,nan,nan
1,84,1,1,1.0,1.0,0.6546373706078157,1,0.0,0.0,1.0,0.33779237792192846,0.2096080307142412,0.12818434720768726,0.5474004086361697,0.2096080307142412,0.6100844996787297,1,6,4,7,0,3,1.0,1.0,1.0,1.0,1.0,1.0,1.0,1.0,1.0,1.0,0.0,0.0,4.0,1.0,6.0,4.0,7.0,3.0,0.0,3.0,2.0,1.0,4.0,5.0,6.0,3.049409159895731,2.155178774439264,1.075031617510831,3.9131960560334846,6.841179080074653,7.809201185533311,7834.431234013056,7973.3029289976985,7974.111386928998,7973.957566368306,7982.987528894824,7983.997998601873,7975.136525857961,7982.979207982338
1,85,1,1,1.0,1.0,0.7363505788089242,0,0.0,0.0,0.0,0.34412927777564617,0.2121897139287166,0.13193956384692956,0.5563189917043627,0.2121897139287166,0.674130475197065,8,3,7,4,2,0,nan,nan,nan,nan,nan,nan,nan,nan,nan,nan,nan,nan,0.0,nan,nan,nan,nan,nan,nan,nan,nan,nan,nan,nan,nan,nan,nan,nan,nan,nan,nan,7834.431234013056,7984.221088920225,nan,7984.957439499034,nan,nan,nan,nan
1,86,1,1,nan,nan,nan,0,0.0,0.0,0.0,0.35181989152139675,0.21702285328800722,0.13479703823338954,0.568842744809404,0.21702285328800722,0.6954939747083699,2,5,3,1,4,6,nan,nan,nan,nan,nan,nan,nan,nan,nan,nan,nan,nan,0.0,nan,nan,nan,nan,nan,nan,nan,nan,nan,nan,nan,nan,nan,nan,nan,nan,nan,nan,7834.431234013056,7985.237871869467,nan,nan,nan,nan,nan,nan
1,87,1,1,1.0,1.0,0.11069727342692204,0,0.0,0.0,0.0,0.35181989152139675,0.21702285328800722,0.13479703823338954,0.568842744809404,0.21702285328800722,0.4235239261179231,6,7,0,2,5,1,nan,nan,nan,nan,nan,nan,nan,nan,nan,nan,nan,nan,0.0,nan,nan,nan,nan,nan,nan,nan,nan,nan,nan,nan,nan,nan,nan,nan,nan,nan,nan,7834.431234013056,7986.254700434598,nan,7986.365397708025,nan,nan,nan,nan
1,88,0,0,0.0,1.0,0.5415196028770879,0,0.0,0.0,0.0,0.347182918096503,0.21746206119587994,0.12972085690062304,0.5646449792923829,0.21746206119587994,0.32610843815200496,7,6,1,3,8,5,nan,nan,nan,nan,nan,nan,nan,nan,nan,nan,nan,nan,0.0,nan,nan,nan,nan,nan,nan,nan,nan,nan,nan,nan,nan,nan,nan,nan,nan,nan,nan,7834.431234013056,7987.279830240383,nan,7987.82134984326,nan,nan,nan,nan
1,89,1,1,1.0,1.0,0.4607580566080287,0,0.0,0.0,0.0,0.3508496479980235,0.21701756584914286,0.13383208214888062,0.5678672138471663,0.21701756584914286,0.3709916443040129,4,8,0,5,3,7,nan,nan,nan,nan,nan,nan,nan,nan,nan,nan,nan,nan,0.0,nan,nan,nan,nan,nan,nan,nan,nan,nan,nan,nan,nan,nan,nan,nan,nan,nan,nan,7834.431234013056,7988.2966177512135,nan,7988.7573758078215,nan,nan,nan,nan
1,90,1,1,1.0,1.0,0.4915835791907739,0,0.0,0.0,0.0,0.35288498889820874,0.21550875307562933,0.1373762358225794,0.5683937419738381,0.21550875307562933,0.4979537462252968,7,4,8,2,0,3,nan,nan,nan,nan,nan,nan,nan,nan,nan,nan,nan,nan,0.0,nan,nan,nan,nan,nan,nan,nan,nan,nan,nan,nan,nan,nan,nan,nan,nan,nan,nan,7834.431234013056,7989.321774926531,nan,7989.813358505722,nan,nan,nan,nan
1,91,1,1,1.0,1.0,0.6267919926031027,0,0.0,0.0,0.0,0.35540678144898263,0.2143431722981894,0.14106360915079325,0.569749953747172,0.2143431722981894,0.5263778761339685,8,5,2,3,7,4,nan,nan,nan,nan,nan,nan,nan,nan,nan,nan,nan,nan,0.0,nan,nan,nan,nan,nan,nan,nan,nan,nan,nan,nan,nan,nan,nan,nan,nan,nan,nan,7834.431234013056,7990.338572130713,nan,7990.965364123316,nan,nan,nan,nan
1,92,1,1,1.0,1.0,0.7379562589048874,0,0.0,1.0,0.0,0.36025294593387763,0.215439729248194,0.14481321668568364,0.5756926751820717,0.215439729248194,0.618777276899588,5,4,1,0,2,7,nan,nan,nan,nan,nan,nan,nan,nan,nan,nan,nan,nan,0.0,nan,nan,nan,nan,nan,nan,nan,nan,nan,nan,nan,nan,nan,nan,nan,nan,nan,nan,7834.431234013056,7991.355375892221,nan,7992.093332151126,nan,nan,nan,nan
1,93,0,0,nan,nan,nan,0,0.0,0.0,0.0,0.36687931984564975,0.21922336993681202,0.14765594990883774,0.5861026897824617,0.21922336993681202,0.682374125753995,3,6,8,1,7,0,nan,nan,nan,nan,nan,nan,nan,nan,nan,nan,nan,nan,0.0,nan,nan,nan,nan,nan,nan,nan,nan,nan,nan,nan,nan,nan,nan,nan,nan,nan,nan,7834.431234013056,7992.372168534814,nan,nan,nan,nan,nan,nan
1,94,1,1,nan,nan,nan,0,0.0,0.0,0.0,0.36687931984564975,0.21922336993681202,0.14765594990883774,0.5861026897824617,0.21922336993681202,0.7379562589048874,2,3,7,0,4,1,nan,nan,nan,nan,nan,nan,nan,nan,nan,nan,nan,nan,0.0,nan,nan,nan,nan,nan,nan,nan,nan,nan,nan,nan,nan,nan,nan,nan,nan,nan,nan,7834.431234013056,7993.397282660124,nan,nan,nan,nan,nan,nan
1,95,0,0,nan,nan,nan,0,0.0,0.0,0.0,0.36687931984564975,0.21922336993681202,0.14765594990883774,0.5861026897824617,0.21922336993681202,nan,6,0,3,4,1,5,nan,nan,nan,nan,nan,nan,nan,nan,nan,nan,nan,nan,0.0,nan,nan,nan,nan,nan,nan,nan,nan,nan,nan,nan,nan,nan,nan,nan,nan,nan,nan,7834.431234013056,7994.414092693798,nan,nan,nan,nan,nan,nan
1,96,1,1,nan,nan,nan,0,0.0,0.0,0.0,0.36687931984564975,0.21922336993681202,0.14765594990883774,0.5861026897824617,0.21922336993681202,nan,5,8,1,7,2,3,nan,nan,nan,nan,nan,nan,nan,nan,nan,nan,nan,nan,0.0,nan,nan,nan,nan,nan,nan,nan,nan,nan,nan,nan,nan,nan,nan,nan,nan,nan,nan,7834.431234013056,7995.439254430734,nan,nan,nan,nan,nan,nan
1,97,1,1,nan,nan,nan,0,0.0,0.0,0.0,0.36687931984564975,0.219223369936812,0.14765594990883776,0.5861026897824617,0.219223369936812,nan,7,4,6,8,3,2,nan,nan,nan,nan,nan,nan,nan,nan,nan,nan,nan,nan,0.0,nan,nan,nan,nan,nan,nan,nan,nan,nan,nan,nan,nan,nan,nan,nan,nan,nan,nan,7834.431234013056,7996.456050209439,nan,nan,nan,nan,nan,nan
1,98,1,1,1.0,1.0,0.028436104068532586,0,0.0,0.0,0.0,0.36687931984564975,0.219223369936812,0.14765594990883776,0.5861026897824617,0.219223369936812,0.028436104068532586,0,1,7,6,5,8,nan,nan,nan,nan,nan,nan,nan,nan,nan,nan,nan,nan,0.0,nan,nan,nan,nan,nan,nan,nan,nan,nan,nan,nan,nan,nan,nan,nan,nan,nan,nan,7834.431234013056,7997.472855681524,nan,7997.501291785593,nan,nan,nan,nan
1,99,1,1,nan,nan,nan,0,0.0,0.0,0.0,0.3610440919874236,0.22174563770666297,0.13929845428076063,0.5827897296940866,0.22174563770666297,0.028436104068532586,2,4,3,5,1,0,nan,nan,nan,nan,nan,nan,nan,nan,nan,nan,nan,nan,0.0,nan,nan,nan,nan,nan,nan,nan,nan,nan,nan,nan,nan,nan,nan,nan,nan,nan,nan,7834.431234013056,7998.489646898641,nan,nan,nan,nan,nan,nan
1,100,1,1,1.0,1.0,0.770443341054488,0,0.0,0.0,0.0,0.3610440919874236,0.22174563770666297,0.13929845428076063,0.5827897296940866,0.22174563770666297,0.3994397225615103,6,5,8,1,4,7,nan,nan,nan,nan,nan,nan,nan,nan,nan,nan,nan,nan,0.0,nan,nan,nan,nan,nan,nan,nan,nan,nan,nan,nan,nan,nan,nan,nan,nan,nan,nan,7834.431234013056,7999.514791529567,nan,8000.285234870622,nan,nan,nan,nan
1,101,1,1,nan,nan,nan,0,0.0,0.0,0.0,0.3679830623105942,0.22612027513232863,0.14186278717826556,0.5941033374429228,0.22612027513232863,0.770443341054488,0,1,2,7,5,4,nan,nan,nan,nan,nan,nan,nan,nan,nan,nan,nan,nan,0.0,nan,nan,nan,nan,nan,nan,nan,nan,nan,nan,nan,nan,nan,nan,nan,nan,nan,nan,7834.431234013056,8000.531592725165,nan,nan,nan,nan,nan,nan
1,102,1,1,nan,nan,nan,0,0.0,0.0,0.0,0.3679830623105942,0.22612027513232863,0.14186278717826556,0.5941033374429228,0.22612027513232863,0.770443341054488,3,6,1,0,8,7,nan,nan,nan,nan,nan,nan,nan,nan,nan,nan,nan,nan,0.0,nan,nan,nan,nan,nan,nan,nan,nan,nan,nan,nan,nan,nan,nan,nan,nan,nan,nan,7834.431234013056,8001.548399052554,nan,nan,nan,nan,nan,nan
1,103,1,1,1.0,1.0,0.7276941042509861,0,0.0,0.0,0.0,0.3679830623105942,0.22612027513232863,0.14186278717826556,0.5941033374429228,0.22612027513232863,0.7276941042509861,0,8,2,5,3,4,nan,nan,nan,nan,nan,nan,nan,nan,nan,nan,nan,nan,0.0,nan,nan,nan,nan,nan,nan,nan,nan,nan,nan,nan,nan,nan,nan,nan,nan,nan,nan,7834.431234013056,8002.573505480192,nan,8003.301199584443,nan,nan,nan,nan
1,104,1,1,1.0,1.0,0.6788782363000792,0,0.0,0.0,0.0,0.37397824634293403,0.22890783627653238,0.14507041006640164,0.6028860826194664,0.22890783627653238,0.7032861702755326,3,6,0,1,5,8,nan,nan,nan,nan,nan,nan,nan,nan,nan,nan,nan,nan,0.0,nan,nan,nan,nan,nan,nan,nan,nan,nan,nan,nan,nan,nan,nan,nan,nan,nan,nan,7834.431234013056,8003.590298692987,nan,8004.269176929287,nan,nan,nan,nan
1,105,0,0,0.0,1.0,0.6220784434117377,0,0.0,0.0,0.0,0.3789766068340348,0.23030157898779458,0.1486750278462402,0.6092781858218294,0.23030157898779458,0.676216927987601,0,3,4,8,7,2,nan,nan,nan,nan,nan,nan,nan,nan,nan,nan,nan,nan,0.0,nan,nan,nan,nan,nan,nan,nan,nan,nan,nan,nan,nan,nan,nan,nan,nan,nan,nan,7834.431234013056,8004.607103879971,nan,8005.229182323383,nan,nan,nan,nan
1,106,1,1,1.0,1.0,0.6372480148565955,0,0.0,0.0,0.0,0.3828976041981913,0.23048032438687002,0.15241727981132128,0.6133779285850613,0.23048032438687002,0.6460682315228041,1,8,5,7,2,4,nan,nan,nan,nan,nan,nan,nan,nan,nan,nan,nan,nan,0.0,nan,nan,nan,nan,nan,nan,nan,nan,nan,nan,nan,nan,nan,nan,nan,nan,nan,nan,7834.431234013056,8005.623927883513,nan,8006.261175898369,nan,nan,nan,nan
1,107,1,1,nan,nan,nan,0,0.0,0.0,0.0,0.3869349123038802,0.23084318858298403,0.1560917237208962,0.6177781008868642,0.23084318858298403,0.6296632291341666,2,3,4,8,0,5,nan,nan,nan,nan,nan,nan,nan,nan,nan,nan,nan,nan,0.0,nan,nan,nan,nan,nan,nan,nan,nan,nan,nan,nan,nan,nan,nan,nan,nan,nan,nan,7834.431234013056,8006.640745329787,nan,nan,nan,nan,nan,nan
1,108,1,1,1.0,1.0,0.027646948816254735,0,0.0,0.0,0.0,0.3869349123038802,0.23084318858298403,0.1560917237208962,0.6177781008868642,0.23084318858298403,0.33244748183642514,8,4,5,0,6,1,nan,nan,nan,nan,nan,nan,nan,nan,nan,nan,nan,nan,0.0,nan,nan,nan,nan,nan,nan,nan,nan,nan,nan,nan,nan,nan,nan,nan,nan,nan,nan,7834.431234013056,8007.657520296227,nan,8007.685167245043,nan,nan,nan,nan
1,109,1,1,1.0,1.0,0.4987926038156729,0,0.0,0.0,0.0,0.3813210378743861,0.2333268643197732,0.1479941735546129,0.6146479021941593,0.2333268643197732,0.2632197763159638,0,8,3,2,4,6,nan,nan,nan,nan,nan,nan,nan,nan,nan,nan,nan,nan,0.0,nan,nan,nan,nan,nan,nan,nan,nan,nan,nan,nan,nan,nan,nan,nan,nan,nan,nan,7834.431234013056,8008.6743220620265,nan,8009.173114665842,nan,nan,nan,nan
1,110,1,1,1.0,1.0,0.4016492433147505,0,0.0,0.0,0.0,0.38312829273502125,0.23197607658474106,0.15115221615028018,0.6151043693197623,0.23197607658474106,0.30936293198222603,8,2,4,1,5,3,nan,nan,nan,nan,nan,nan,nan,nan,nan,nan,nan,nan,0.0,nan,nan,nan,nan,nan,nan,nan,nan,nan,nan,nan,nan,nan,nan,nan,nan,nan,nan,7834.431234013056,8009.6994820883265,nan,8010.101131331641,nan,nan,nan,nan
1,111,1,1,1.0,1.0,0.3924961254815571,0,0.0,0.0,0.0,0.3834089131983505,0.23022309125326712,0.1531858219450834,0.6136320044516177,0.23022309125326712,0.4309793242039935,4,5,3,8,2,0,nan,nan,nan,nan,nan,nan,nan,nan,nan,nan,nan,nan,0.0,nan,nan,nan,nan,nan,nan,nan,nan,nan,nan,nan,nan,nan,nan,nan,nan,nan,nan,7834.431234013056,8010.724630140496,nan,8011.117126265977,nan,nan,nan,nan
1,112,1,1,1.0,1.0,0.3113371506333351,0,0.0,0.0,0.0,0.3835445432324282,0.22850120611648236,0.15504333711594584,0.6120457493489105,0.22850120611648236,0.36849417314321425,2,3,6,5,1,7,nan,nan,nan,nan,nan,nan,nan,nan,nan,nan,nan,nan,0.0,nan,nan,nan,nan,nan,nan,nan,nan,nan,nan,nan,nan,nan,nan,nan,nan,nan,nan,7834.431234013056,8011.74976707375,nan,8012.061104224384,nan,nan,nan,nan
1,113,1,1,1.0,1.0,0.342215701675741,0,0.0,0.0,0.0,0.3824826698118533,0.22698130632450736,0.15550136348734594,0.6094639761363607,0.22698130632450736,0.34868299259687774,3,5,7,8,4,6,nan,nan,nan,nan,nan,nan,nan,nan,nan,nan,nan,nan,0.0,nan,nan,nan,nan,nan,nan,nan,nan,nan,nan,nan,nan,nan,nan,nan,nan,nan,nan,7834.431234013056,8012.774872646085,nan,8013.117088347761,nan,nan,nan,nan
1,114,1,1,1.0,1.0,0.27705536744906567,0,0.0,0.0,0.0,0.38189909056350385,0.22538189305153017,0.15651719751197368,0.607280983615034,0.22538189305153017,0.3102027399193806,4,2,1,6,5,3,nan,nan,nan,nan,nan,nan,nan,nan,nan,nan,nan,nan,0.0,nan,nan,nan,nan,nan,nan,nan,nan,nan,nan,nan,nan,nan,nan,nan,nan,nan,nan,7834.431234013056,8013.800023549207,nan,8014.077078916656,nan,nan,nan,nan
1,115,1,1,1.0,1.0,0.24394534301245585,0,0.0,0.0,0.0,0.38040132309044045,0.22411183487354722,0.15628948821689323,0.6045131579639876,0.22411183487354722,0.2877388040457542,5,1,0,4,7,2,nan,nan,nan,nan,nan,nan,nan,nan,nan,nan,nan,nan,0.0,nan,nan,nan,nan,nan,nan,nan,nan,nan,nan,nan,nan,nan,nan,nan,nan,nan,nan,7834.431234013056,8014.825133683131,nan,8015.069079026143,nan,nan,nan,nan
1,116,1,1,1.0,1.0,0.21042049888637848,0,0.0,0.0,0.0,0.3784794078780745,0.22310819691895337,0.15537121095912113,0.6015876047970279,0.22310819691895337,0.24380706978263333,4,8,6,0,1,3,nan,nan,nan,nan,nan,nan,nan,nan,nan,nan,nan,nan,0.0,nan,nan,nan,nan,nan,nan,nan,nan,nan,nan,nan,nan,nan,nan,nan,nan,nan,nan,7834.431234013056,8015.858632868301,nan,8016.069053367188,nan,nan,nan,nan
1,117,1,1,1.0,1.0,0.249279838782968,0,0.0,0.0,0.0,0.3761452563643009,0.22242469127327785,0.15372056509102305,0.5985699476375788,0.22242469127327785,0.23454856022726744,6,7,2,1,5,0,nan,nan,nan,nan,nan,nan,nan,nan,nan,nan,nan,nan,0.0,nan,nan,nan,nan,nan,nan,nan,nan,nan,nan,nan,nan,nan,nan,nan,nan,nan,nan,7834.431234013056,8016.883770656888,nan,8017.133050495671,nan,nan,nan,nan
1,118,1,1,1.0,1.0,0.18444451794493943,0,0.0,0.0,0.0,0.37440737393167994,0.22138764965783547,0.15301972427384447,0.5957950235895154,0.22138764965783547,0.21471495187142864,7,5,1,0,3,4,nan,nan,nan,nan,nan,nan,nan,nan,nan,nan,nan,nan,0.0,nan,nan,nan,nan,nan,nan,nan,nan,nan,nan,nan,nan,nan,nan,nan,nan,nan,nan,7834.431234013056,8017.9005881031335,nan,8018.085032621078,nan,nan,nan,nan
1,119,1,1,1.0,1.0,0.24730324430856854,0,0.0,0.0,0.0,0.3718403083102375,0.22097786709741174,0.15086244121282577,0.5928181754076493,0.22097786709741174,0.227009200345492,0,2,3,5,4,6,nan,nan,nan,nan,nan,nan,nan,nan,nan,nan,nan,nan,0.0,nan,nan,nan,nan,nan,nan,nan,nan,nan,nan,nan,nan,nan,nan,nan,nan,nan,nan,7834.431234013056,8018.925717623817,nan,8019.173020868126,nan,nan,nan,nan
1,120,1,1,1.0,1.0,0.23017646514927037,0,0.0,0.0,0.0,0.37017981412354856,0.2199640213159578,0.15021579280759076,0.5901438354395063,0.2199640213159578,0.22064140913425945,6,1,5,4,8,0,nan,nan,nan,nan,nan,nan,nan,nan,nan,nan,nan,nan,0.0,nan,nan,nan,nan,nan,nan,nan,nan,nan,nan,nan,nan,nan,nan,nan,nan,nan,nan,7834.431234013056,8019.950833459734,nan,8020.181009924883,nan,nan,nan,nan
1,121,1,1,1.0,1.0,0.19702994800172746,0,0.0,0.0,0.0,0.3683376647949396,0.2190937023513069,0.14924396244363272,0.5874313671462466,0.2190937023513069,0.22483655248652212,3,8,6,7,4,5,nan,nan,nan,nan,nan,nan,nan,nan,nan,nan,nan,nan,0.0,nan,nan,nan,nan,nan,nan,nan,nan,nan,nan,nan,nan,nan,nan,nan,nan,nan,nan,7834.431234013056,8020.975960414507,nan,8021.172990362509,nan,nan,nan,nan
1,122,1,1,1.0,1.0,0.1718454031215515,0,0.0,0.0,0.0,0.36611288925217067,0.21852875954967238,0.1475841297024983,0.5846416488018431,0.21852875954967238,0.19968393875751644,4,7,0,6,1,8,nan,nan,nan,nan,nan,nan,nan,nan,nan,nan,nan,nan,0.0,nan,nan,nan,nan,nan,nan,nan,nan,nan,nan,nan,nan,nan,nan,nan,nan,nan,nan,7834.431234013056,8022.0011327000975,nan,8022.172978103219,nan,nan,nan,nan
1,123,1,1,1.0,1.0,0.4270356385677587,0,0.0,0.0,0.0,0.3636222804556243,0.21822057341587034,0.14540170703975394,0.5818428538714946,0.21822057341587034,0.2653036632303459,0,5,8,1,4,6,nan,nan,nan,nan,nan,nan,nan,nan,nan,nan,nan,nan,0.0,nan,nan,nan,nan,nan,nan,nan,nan,nan,nan,nan,nan,nan,nan,nan,nan,nan,nan,7834.431234013056,8023.017935606302,nan,8023.4449712448695,nan,nan,nan,nan
1,124,1,1,1.0,1.0,0.32188925141235813,0,0.0,0.0,0.0,0.3644249811912209,0.2169508900758054,0.1474740911154155,0.5813758712670263,0.2169508900758054,0.30692343103388947,8,1,6,0,2,4,nan,nan,nan,nan,nan,nan,nan,nan,nan,nan,nan,nan,0.0,nan,nan,nan,nan,nan,nan,nan,nan,nan,nan,nan,nan,nan,nan,nan,nan,nan,nan,7834.431234013056,8024.043073679961,nan,8024.364962931373,nan,nan,nan,nan
1,125,1,1,1.0,1.0,0.41674212299403735,0,0.0,0.0,0.0,0.3638932845689851,0.2156424726217572,0.14825081194722792,0.5795357571907424,0.2156424726217572,0.3885556709913847,5,3,1,2,7,6,nan,nan,nan,nan,nan,nan,nan,nan,nan,nan,nan,nan,0.0,nan,nan,nan,nan,nan,nan,nan,nan,nan,nan,nan,nan,nan,nan,nan,nan,nan,nan,7834.431234013056,8025.068207477132,nan,8025.484949600126,nan,nan,nan,nan
1,126,1,1,1.0,1.0,0.6395804134372156,0,0.0,0.0,0.0,0.36454573936435614,0.21438665306826557,0.15015908629609057,0.5789323924326217,0.21438665306826557,0.4594039292812037,0,2,5,7,4,8,nan,nan,nan,nan,nan,nan,nan,nan,nan,nan,nan,nan,0.0,nan,nan,nan,nan,nan,nan,nan,nan,nan,nan,nan,nan,nan,nan,nan,nan,nan,nan,7834.431234013056,8026.093351822987,nan,8026.732932236424,nan,nan,nan,nan
1,127,1,1,nan,nan,nan,0,0.0,0.0,0.0,0.36789982075548855,0.21520308563214732,0.15269673512334123,0.5831029063876358,0.21520308563214732,0.5281612682156265,6,7,3,2,8,5,nan,nan,nan,nan,nan,nan,nan,nan,nan,nan,nan,nan,0.0,nan,nan,nan,nan,nan,nan,nan,nan,nan,nan,nan,nan,nan,nan,nan,nan,nan,nan,7834.431234013056,8027.118449127418,nan,nan,nan,nan,nan,nan
1,128,1,1,nan,nan,nan,0,0.0,0.0,0.0,0.36789982075548855,0.21520308563214732,0.15269673512334123,0.5831029063876358,0.21520308563214732,0.6395804134372156,4,5,2,1,3,7,nan,nan,nan,nan,nan,nan,nan,nan,nan,nan,nan,nan,0.0,nan,nan,nan,nan,nan,nan,nan,nan,nan,nan,nan,nan,nan,nan,nan,nan,nan,nan,7834.431234013056,8028.143623408716,nan,nan,nan,nan,nan,nan
1,129,1,1,1.0,1.0,0.18017087719636038,0,0.0,0.0,0.0,0.36789982075548855,0.21520308563214735,0.1526967351233412,0.5831029063876358,0.21520308563214735,0.18017087719636038,2,3,4,8,7,1,nan,nan,nan,nan,nan,nan,nan,nan,nan,nan,nan,nan,0.0,nan,nan,nan,nan,nan,nan,nan,nan,nan,nan,nan,nan,nan,nan,nan,nan,nan,nan,7834.431234013056,8029.168744091323,nan,8029.348914968519,nan,nan,nan,nan
1,130,1,1,1.0,1.0,0.011000847327522933,0,0.0,0.0,0.0,0.36563802625477615,0.21488107479548016,0.150756951459296,0.5805191010502563,0.21488107479548016,0.09558586226194166,0,2,6,1,4,8,nan,nan,nan,nan,nan,nan,nan,nan,nan,nan,nan,nan,0.0,nan,nan,nan,nan,nan,nan,nan,nan,nan,nan,nan,nan,nan,nan,nan,nan,nan,nan,7834.431234013056,8030.193861352716,nan,8030.204862200044,nan,nan,nan,nan
1,131,1,1,1.0,1.0,0.7778262763749808,0,0.0,0.0,0.0,0.36141615507707076,0.21703362778528415,0.1443825272917866,0.5784497828623549,0.21703362778528415,0.3229993336329547,8,7,1,3,2,0,nan,nan,nan,nan,nan,nan,nan,nan,nan,nan,nan,nan,0.0,nan,nan,nan,nan,nan,nan,nan,nan,nan,nan,nan,nan,nan,nan,nan,nan,nan,nan,7834.431234013056,8031.219008264452,nan,8031.996834540827,nan,nan,nan,nan
1,132,1,1,1.0,1.0,0.6006774533016142,0,0.0,0.0,0.0,0.3663150976805756,0.22037560047939145,0.14593949720118413,0.586690698159967,0.22037560047939145,0.46316819233470596,7,4,5,0,1,6,nan,nan,nan,nan,nan,nan,nan,nan,nan,nan,nan,nan,0.0,nan,nan,nan,nan,nan,nan,nan,nan,nan,nan,nan,nan,nan,nan,nan,nan,nan,nan,7834.431234013056,8032.24417057159,nan,8032.844848024892,nan,nan,nan,nan
1,133,1,1,1.0,1.0,0.5275799504306633,0,0.0,1.0,0.0,0.36904024135058766,0.2205264971688864,0.14851374418170127,0.589566738519474,0.2205264971688864,0.6353612267024195,3,7,8,2,0,5,nan,nan,nan,nan,nan,nan,nan,nan,nan,nan,nan,nan,0.0,nan,nan,nan,nan,nan,nan,nan,nan,nan,nan,nan,nan,nan,nan,nan,nan,nan,nan,7834.431234013056,8033.2692772843,nan,8033.796857234731,nan,nan,nan,nan
1,134,1,1,1.0,1.0,0.5983895302342717,1,0.0,0.0,1.0,0.37086253685725523,0.21990573803920824,0.150956798818047,0.5907682748964634,0.21990573803920824,0.5755489779888497,2,5,1,6,8,3,1.0,1.0,1.0,1.0,1.0,1.0,1.0,0.0,0.0,1.0,0.0,0.0,2.0,2.0,1.0,5.0,6.0,3.0,8.0,6.0,2.0,1.0,5.0,3.0,4.0,7.0816282485902775,1.9718541271577124,1.1002697611111216,5.905659452138934,3.459337691194378,4.88288798899157,7834.431234013056,8034.2944427275215,8035.102850481315,8034.892832257756,8043.2289072024,8044.228920031892,8036.111318505107,8043.220570609439
1,135,1,1,nan,nan,nan,0,0.0,0.0,0.0,0.3734480708729031,0.21997863220347474,0.15346943866942836,0.5934267030763778,0.21997863220347474,0.5629847403324675,4,1,5,8,6,0,nan,nan,nan,nan,nan,nan,nan,nan,nan,nan,nan,nan,0.0,nan,nan,nan,nan,nan,nan,nan,nan,nan,nan,nan,nan,nan,nan,nan,nan,nan,nan,7834.431234013056,8044.454107826896,nan,nan,nan,nan,nan,nan
1,136,1,1,1.0,1.0,0.2138183141069021,0,0.0,0.0,0.0,0.3734480708729031,0.21997863220347474,0.15346943866942836,0.5934267030763778,0.21997863220347474,0.4061039221705869,8,4,6,5,2,3,nan,nan,nan,nan,nan,nan,nan,nan,nan,nan,nan,nan,0.0,nan,nan,nan,nan,nan,nan,nan,nan,nan,nan,nan,nan,nan,nan,nan,nan,nan,nan,7834.431234013056,8045.4708924867155,nan,8045.684710800822,nan,nan,nan,nan
1,137,1,1,1.0,1.0,0.5089327359164599,0,0.0,0.0,0.0,0.37165447810025143,0.21938545493675857,0.15226902316349286,0.59103993303701,0.21938545493675857,0.361375525011681,4,6,1,2,8,5,nan,nan,nan,nan,nan,nan,nan,nan,nan,nan,nan,nan,0.0,nan,nan,nan,nan,nan,nan,nan,nan,nan,nan,nan,nan,nan,nan,nan,nan,nan,nan,7834.431234013056,8046.487701665086,nan,8046.996634401003,nan,nan,nan,nan
1,138,0,0,1.0,0.0,0.31616730548557825,0,0.0,0.0,0.0,0.37317979207598706,0.21863729363666312,0.15454249843932394,0.5918170857126501,0.21863729363666312,0.3463061185029801,0,7,8,6,3,1,nan,nan,nan,nan,nan,nan,nan,nan,nan,nan,nan,nan,0.0,nan,nan,nan,nan,nan,nan,nan,nan,nan,nan,nan,nan,nan,nan,nan,nan,nan,nan,7834.431234013056,8047.504513979569,nan,8047.820681285055,nan,nan,nan,nan
1,139,1,1,1.0,1.0,0.7473414476262406,0,0.0,0.0,0.0,0.37255328123433423,0.2175138914314671,0.15503938980286713,0.5900671726658013,0.2175138914314671,0.5241471630094262,1,5,3,0,7,6,nan,nan,nan,nan,nan,nan,nan,nan,nan,nan,nan,nan,0.0,nan,nan,nan,nan,nan,nan,nan,nan,nan,nan,nan,nan,nan,nan,nan,nan,nan,nan,7834.431234013056,8048.521318881452,nan,8049.268660329079,nan,nan,nan,nan
1,140,1,1,1.0,1.0,0.5461764172650874,0,0.0,0.0,0.0,0.37662706565163756,0.21979135420722049,0.15683571144441708,0.596418419858858,0.21979135420722049,0.5365617234589687,8,6,4,7,0,3,nan,nan,nan,nan,nan,nan,nan,nan,nan,nan,nan,nan,0.0,nan,nan,nan,nan,nan,nan,nan,nan,nan,nan,nan,nan,nan,nan,nan,nan,nan,nan,7834.431234013056,8049.546449827612,nan,8050.0926262448775,nan,nan,nan,nan
1,141,0,0,0.0,1.0,0.37703831848921254,0,0.0,0.0,0.0,0.37845017695930905,0.2193047640962215,0.15914541286308756,0.5977549410555305,0.2193047640962215,0.5568520611268468,3,4,6,1,5,2,nan,nan,nan,nan,nan,nan,nan,nan,nan,nan,nan,nan,0.0,nan,nan,nan,nan,nan,nan,nan,nan,nan,nan,nan,nan,nan,nan,nan,nan,nan,nan,7834.431234013056,8050.571577922819,nan,8050.948616241309,nan,nan,nan,nan
1,142,1,1,1.0,1.0,0.27987243511597626,0,0.0,0.0,0.0,0.3784351571883506,0.21813517843791827,0.1602999787504323,0.5965703356262688,0.21813517843791827,0.4010290569567587,6,3,7,8,4,5,nan,nan,nan,nan,nan,nan,nan,nan,nan,nan,nan,nan,0.0,nan,nan,nan,nan,nan,nan,nan,nan,nan,nan,nan,nan,nan,nan,nan,nan,nan,nan,7834.431234013056,8051.596754484897,nan,8051.876626920013,nan,nan,nan,nan
1,143,0,0,0.0,1.0,0.3747441232553683,0,0.0,0.0,0.0,0.37739765485074667,0.21721709300554726,0.1601805618451994,0.594614747856294,0.21721709300554726,0.34388495895351906,0,5,2,7,1,4,nan,nan,nan,nan,nan,nan,nan,nan,nan,nan,nan,nan,0.0,nan,nan,nan,nan,nan,nan,nan,nan,nan,nan,nan,nan,nan,nan,nan,nan,nan,nan,7834.431234013056,8052.621863478416,nan,8052.996607601672,nan,nan,nan,nan
1,144,1,1,1.0,1.0,0.40560072162770666,0,0.0,0.0,0.0,0.3773700138966281,0.21608296028842663,0.16128705360820147,0.5934529741850547,0.21608296028842663,0.35340575999968377,2,7,3,5,0,1,nan,nan,nan,nan,nan,nan,nan,nan,nan,nan,nan,nan,0.0,nan,nan,nan,nan,nan,nan,nan,nan,nan,nan,nan,nan,nan,nan,nan,nan,nan,nan,7834.431234013056,8053.646998415992,nan,8054.05259913762,nan,nan,nan,nan
1,145,1,1,1.0,1.0,0.34040988178458065,0,0.0,0.0,0.0,0.37766105212065987,0.21498515763769385,0.16267589448296602,0.5926462097583537,0.21498515763769385,0.3735849088892185,6,0,8,1,5,3,nan,nan,nan,nan,nan,nan,nan,nan,nan,nan,nan,nan,0.0,nan,nan,nan,nan,nan,nan,nan,nan,nan,nan,nan,nan,nan,nan,nan,nan,nan,nan,7834.431234013056,8054.672168420773,nan,8055.012578302558,nan,nan,nan,nan
1,146,0,0,0.0,1.0,0.5152819006179925,0,0.0,0.0,0.0,0.37728093813763863,0.2139182429282885,0.16336269520935012,0.5911991810659272,0.2139182429282885,0.42043083467675996,3,1,2,8,4,5,nan,nan,nan,nan,nan,nan,nan,nan,nan,nan,nan,nan,0.0,nan,nan,nan,nan,nan,nan,nan,nan,nan,nan,nan,nan,nan,nan,nan,nan,nan,nan,7834.431234013056,8055.697299937165,nan,8056.212581837783,nan,nan,nan,nan
1,147,1,1,1.0,1.0,0.5301581047533546,0,0.0,0.0,0.0,0.3786748872536018,0.21328198567096981,0.165392901582632,0.5919568729245717,0.21328198567096981,0.4619499623853092,2,8,5,1,7,0,nan,nan,nan,nan,nan,nan,nan,nan,nan,nan,nan,nan,0.0,nan,nan,nan,nan,nan,nan,nan,nan,nan,nan,nan,nan,nan,nan,nan,nan,nan,nan,7834.431234013056,8056.722405224398,nan,8057.252563329152,nan,nan,nan,nan
1,148,1,1,1.0,1.0,0.4970115875767078,0,0.0,0.0,0.0,0.38018971942859936,0.21274748010953412,0.16744223931906524,0.5929371995381335,0.21274748010953412,0.5141505309826849,6,2,0,3,5,1,nan,nan,nan,nan,nan,nan,nan,nan,nan,nan,nan,nan,0.0,nan,nan,nan,nan,nan,nan,nan,nan,nan,nan,nan,nan,nan,nan,nan,nan,nan,nan,7834.431234013056,8057.747538736468,nan,8058.244550324045,nan,nan,nan,nan
1,149,1,1,1.0,1.0,0.695797463064082,0,0.0,0.0,0.0,0.3813463715884816,0.21200740823753225,0.16933896335094936,0.5933537798260139,0.21200740823753225,0.5743223851313815,1,5,3,2,6,4,nan,nan,nan,nan,nan,nan,nan,nan,nan,nan,nan,nan,0.0,nan,nan,nan,nan,nan,nan,nan,nan,nan,nan,nan,nan,nan,nan,nan,nan,nan,nan,7834.431234013056,8058.772725277027,nan,8059.468522740091,nan,nan,nan,nan
1,150,1,1,1.0,1.0,0.6466762536147144,0,0.0,1.0,0.0,0.38442922542647767,0.21322848230825486,0.1712007431182228,0.5976577077347325,0.21322848230825486,0.6131617680851681,8,0,7,5,4,2,nan,nan,nan,nan,nan,nan,nan,nan,nan,nan,nan,nan,0.0,nan,nan,nan,nan,nan,nan,nan,nan,nan,nan,nan,nan,nan,nan,nan,nan,nan,nan,7834.431234013056,8059.797852516902,nan,8060.444528770517,nan,nan,nan,nan
1,151,1,1,1.0,1.0,0.733539498236496,1,0.0,0.0,1.0,0.3869753130787907,0.21374327078390495,0.17323204229488573,0.6007185838626956,0.21374327078390495,0.6920044049717641,3,8,4,1,0,7,1.0,1.0,1.0,1.0,1.0,1.0,0.0,1.0,0.0,0.0,0.0,0.0,1.0,6.0,8.0,1.0,4.0,3.0,2.0,6.0,2.0,1.0,3.0,4.0,5.0,6.888319703663001,2.7528116507455707,0.922226866154233,3.8582958807528485,5.016773540934082,6.089421156881144,7834.431234013056,8060.822985173698,8061.631375821511,8061.556524671934,8069.574085372471,8070.577025603066,8062.648173595924,8069.565761894075
1,152,1,1,1.0,1.0,0.781056167994393,0,0.0,0.0,0.0,0.39030766101299935,0.21538491929798434,0.174922741715015,0.6056925803109837,0.21538491929798434,0.7204239732818678,1,3,0,4,5,8,nan,nan,nan,nan,nan,nan,nan,nan,nan,nan,nan,nan,0.0,nan,nan,nan,nan,nan,nan,nan,nan,nan,nan,nan,nan,nan,nan,nan,nan,nan,nan,7834.431234013056,8070.799313081399,nan,8071.580369249394,nan,nan,nan,nan
1,153,0,0,0.0,1.0,0.651903837104328,0,0.0,0.0,0.0,0.3940290753652031,0.21769045866944992,0.17633861669575318,0.6117195340346531,0.21769045866944992,0.722166501111739,0,7,4,5,2,1,nan,nan,nan,nan,nan,nan,nan,nan,nan,nan,nan,nan,0.0,nan,nan,nan,nan,nan,nan,nan,nan,nan,nan,nan,nan,nan,nan,nan,nan,nan,nan,7834.431234013056,8071.824452580535,nan,8072.476356417639,nan,nan,nan,nan
1,154,1,1,1.0,1.0,0.4911163011856843,0,0.0,0.0,0.0,0.39646185613632695,0.21809058396988326,0.1783712721664437,0.6145524401062102,0.21809058396988326,0.6413587687614685,1,6,2,8,3,0,nan,nan,nan,nan,nan,nan,nan,nan,nan,nan,nan,nan,0.0,nan,nan,nan,nan,nan,nan,nan,nan,nan,nan,nan,nan,nan,nan,nan,nan,nan,nan,7834.431234013056,8072.84124351255,nan,8073.332359813736,nan,nan,nan,nan
1,155,1,1,1.0,1.0,0.6503189692739397,0,0.0,0.0,0.0,0.3973464771180966,0.21726006271802964,0.18008641440006698,0.6146065398361262,0.21726006271802964,0.5977797025213173,3,5,6,0,2,1,nan,nan,nan,nan,nan,nan,nan,nan,nan,nan,nan,nan,0.0,nan,nan,nan,nan,nan,nan,nan,nan,nan,nan,nan,nan,nan,nan,nan,nan,nan,nan,7834.431234013056,8073.858020189597,nan,8074.5083391588705,nan,nan,nan,nan
1,156,1,1,1.0,1.0,0.7291287246916909,0,0.0,1.0,0.0,0.3996888150084285,0.21760501006801847,0.18208380494041004,0.617293825076447,0.21760501006801847,0.623521331717105,1,7,3,2,8,5,nan,nan,nan,nan,nan,nan,nan,nan,nan,nan,nan,nan,0.0,nan,nan,nan,nan,nan,nan,nan,nan,nan,nan,nan,nan,nan,nan,nan,nan,nan,nan,7834.431234013056,8074.88319333049,nan,8075.612322055182,nan,nan,nan,nan
1,157,1,1,1.0,1.0,0.6880304988007993,1,0.0,0.0,1.0,0.40271119950093553,0.21887000297276998,0.18384119652816555,0.6215812024737055,0.21887000297276998,0.68915939758881,3,1,0,4,6,7,1.0,1.0,1.0,1.0,1.0,1.0,1.0,1.0,1.0,1.0,0.0,0.0,4.0,3.0,1.0,0.0,4.0,7.0,2.0,1.0,3.0,2.0,4.0,5.0,6.0,1.34871197771281,2.844736265920801,2.1084791997272987,3.556426882831147,6.227261323307175,6.795066810213029,7834.431234013056,8075.908291490225,8076.716740013246,8076.5963219890255,8084.567783534236,8085.568458649737,8077.7335588849965,8084.559451217763
1,158,1,1,nan,nan,nan,0,0.0,0.0,0.0,0.40530501131275243,0.2195493641307957,0.18575564718195672,0.6248543754435482,0.2195493641307957,0.7085796117462451,7,2,3,1,5,8,nan,nan,nan,nan,nan,nan,nan,nan,nan,nan,nan,nan,0.0,nan,nan,nan,nan,nan,nan,nan,nan,nan,nan,nan,nan,nan,nan,nan,nan,nan,nan,7834.431234013056,8085.792988150119,nan,nan,nan,nan,nan,nan
1,159,1,1,1.0,1.0,0.05043893909896724,0,0.0,0.0,0.0,0.40530501131275243,0.2195493641307957,0.18575564718195672,0.6248543754435482,0.2195493641307957,0.36923471894988324,3,1,6,4,2,0,nan,nan,nan,nan,nan,nan,nan,nan,nan,nan,nan,nan,0.0,nan,nan,nan,nan,nan,nan,nan,nan,nan,nan,nan,nan,nan,nan,nan,nan,nan,nan,7834.431234013056,8086.809779082134,nan,8086.860218021233,nan,nan,nan,nan
1,160,1,1,nan,nan,nan,0,0.0,0.0,0.0,0.4021080196711868,0.2211152523917106,0.18099276727947622,0.6232232720628974,0.2211152523917106,0.05043893909896724,5,3,8,0,7,2,nan,nan,nan,nan,nan,nan,nan,nan,nan,nan,nan,nan,0.0,nan,nan,nan,nan,nan,nan,nan,nan,nan,nan,nan,nan,nan,nan,nan,nan,nan,nan,7834.431234013056,8087.826568588644,nan,nan,nan,nan,nan,nan
1,161,1,1,nan,nan,nan,0,0.0,0.0,0.0,0.4021080196711868,0.2211152523917106,0.18099276727947622,0.6232232720628974,0.2211152523917106,0.05043893909896724,0,6,4,7,2,1,nan,nan,nan,nan,nan,nan,nan,nan,nan,nan,nan,nan,0.0,nan,nan,nan,nan,nan,nan,nan,nan,nan,nan,nan,nan,nan,nan,nan,nan,nan,nan,7834.431234013056,8088.843358095153,nan,nan,nan,nan,nan,nan
1,162,1,1,nan,nan,nan,0,0.0,0.0,0.0,0.4021080196711868,0.2211152523917106,0.18099276727947622,0.6232232720628974,0.2211152523917106,nan,2,5,6,0,8,7,nan,nan,nan,nan,nan,nan,nan,nan,nan,nan,nan,nan,0.0,nan,nan,nan,nan,nan,nan,nan,nan,nan,nan,nan,nan,nan,nan,nan,nan,nan,nan,7834.431234013056,8089.860166703351,nan,nan,nan,nan,nan,nan
1,163,1,1,1.0,1.0,0.7671433149371296,0,0.0,0.0,0.0,0.4021080196711868,0.2211152523917106,0.18099276727947622,0.6232232720628974,0.2211152523917106,0.7671433149371296,1,7,2,5,4,0,nan,nan,nan,nan,nan,nan,nan,nan,nan,nan,nan,nan,0.0,nan,nan,nan,nan,nan,nan,nan,nan,nan,nan,nan,nan,nan,nan,nan,nan,nan,nan,7834.431234013056,8090.876969324425,nan,8091.644112639362,nan,nan,nan,nan
1,164,1,1,1.0,1.0,0.6863692243059631,0,0.0,0.0,0.0,0.40536726337891843,0.22278809629068,0.18257916708823843,0.6281553596695985,0.22278809629068,0.7267562696215464,3,1,4,7,0,5,nan,nan,nan,nan,nan,nan,nan,nan,nan,nan,nan,nan,0.0,nan,nan,nan,nan,nan,nan,nan,nan,nan,nan,nan,nan,nan,nan,nan,nan,nan,nan,7834.431234013056,8091.893767954141,nan,8092.580137178447,nan,nan,nan,nan
1,165,1,1,1.0,1.0,0.6295497595565394,0,0.0,1.0,0.0,0.40785400639597197,0.2233559668825259,0.18449803951344607,0.6312099732784979,0.2233559668825259,0.6943540995998774,5,6,3,4,2,1,nan,nan,nan,nan,nan,nan,nan,nan,nan,nan,nan,nan,0.0,nan,nan,nan,nan,nan,nan,nan,nan,nan,nan,nan,nan,nan,nan,nan,nan,nan,nan,7834.431234013056,8092.910566583829,nan,8093.540116343385,nan,nan,nan,nan
1,166,1,1,1.0,1.0,0.5727069166314323,1,0.0,0.0,1.0,0.4097987059850997,0.22333299056228959,0.18646571542281012,0.6331316965473893,0.22333299056228959,0.6295419668313116,7,1,8,2,0,5,1.0,1.0,1.0,1.0,1.0,1.0,0.0,1.0,1.0,1.0,0.0,0.0,3.0,6.0,1.0,8.0,2.0,4.0,3.0,6.0,2.0,1.0,3.0,4.0,5.0,7.079431272199145,2.34416521168896,1.5439731687074527,3.1773900171683636,3.9690977856807876,6.351465753279626,7834.431234013056,8093.92739286818,8094.735814021638,8094.500099784811,8102.870227007574,8103.867054420931,8095.752617783146,8102.861876444746
1,167,1,1,1.0,1.0,0.7888824329711497,0,0.0,0.0,0.0,0.4112152991211548,0.22287367299654198,0.1883416261246128,0.6340889721176968,0.22287367299654198,0.6637130363863738,2,7,5,0,8,4,nan,nan,nan,nan,nan,nan,nan,nan,nan,nan,nan,nan,0.0,nan,nan,nan,nan,nan,nan,nan,nan,nan,nan,nan,nan,nan,nan,nan,nan,nan,nan,7834.431234013056,8104.087095030496,nan,8104.875977463467,nan,nan,nan,nan
1,168,1,1,1.0,1.0,0.7000776610802859,0,0.0,0.0,0.0,0.41447105027503406,0.2246407169199748,0.18983033335505925,0.6391117671950088,0.2246407169199748,0.6872223368942892,1,3,4,8,7,0,nan,nan,nan,nan,nan,nan,nan,nan,nan,nan,nan,nan,0.0,nan,nan,nan,nan,nan,nan,nan,nan,nan,nan,nan,nan,nan,nan,nan,nan,nan,nan,7834.431234013056,8105.103894515487,nan,8105.803972176567,nan,nan,nan,nan
1,169,0,0,0.0,1.0,0.6592736578604672,0,0.0,0.0,0.0,0.4169121324186687,0.22521849493558893,0.19169363748307977,0.6421306273542576,0.22521849493558893,0.7160779173039676,2,1,5,0,6,4,nan,nan,nan,nan,nan,nan,nan,nan,nan,nan,nan,nan,0.0,nan,nan,nan,nan,nan,nan,nan,nan,nan,nan,nan,nan,nan,nan,nan,nan,nan,nan,7834.431234013056,8106.12069685146,nan,8106.77997050932,nan,nan,nan,nan
1,170,1,1,1.0,1.0,0.36215840809745714,0,0.0,0.0,0.0,0.4189660436512263,0.22535989416362787,0.19360614948759844,0.6443259378148541,0.22535989416362787,0.5738365756794034,3,7,8,1,2,6,nan,nan,nan,nan,nan,nan,nan,nan,nan,nan,nan,nan,0.0,nan,nan,nan,nan,nan,nan,nan,nan,nan,nan,nan,nan,nan,nan,nan,nan,nan,nan,7834.431234013056,8107.1458024237945,nan,8107.507960831892,nan,nan,nan,nan
1,171,1,1,1.0,1.0,0.31334196994430386,0,0.0,0.0,0.0,0.4184886685625392,0.22447091205701464,0.19401775650552455,0.6429595806195538,0.22447091205701464,0.4449246786340761,5,3,0,4,8,7,nan,nan,nan,nan,nan,nan,nan,nan,nan,nan,nan,nan,0.0,nan,nan,nan,nan,nan,nan,nan,nan,nan,nan,nan,nan,nan,nan,nan,nan,nan,nan,7834.431234013056,8108.162598487601,nan,8108.475940457545,nan,nan,nan,nan
1,172,1,1,1.0,1.0,0.3204891280038282,0,0.0,0.0,0.0,0.4176124460740539,0.22373792982590232,0.19387451624815158,0.6413503758999562,0.22373792982590232,0.3319965020151964,2,0,4,8,3,5,nan,nan,nan,nan,nan,nan,nan,nan,nan,nan,nan,nan,0.0,nan,nan,nan,nan,nan,nan,nan,nan,nan,nan,nan,nan,nan,nan,nan,nan,nan,nan,7834.431234013056,8109.179411372286,nan,8109.49990050029,nan,nan,nan,nan
1,173,1,1,1.0,1.0,0.25571795454015955,0,0.0,0.0,0.0,0.41680977402388675,0.2229849035003032,0.19382487052358355,0.63979467752419,0.2229849035003032,0.29651635082943056,0,1,2,6,7,3,nan,nan,nan,nan,nan,nan,nan,nan,nan,nan,nan,nan,0.0,nan,nan,nan,nan,nan,nan,nan,nan,nan,nan,nan,nan,nan,nan,nan,nan,nan,nan,7834.431234013056,8110.196204585081,nan,8110.451922539622,nan,nan,nan,nan
1,174,1,1,1.0,1.0,0.2549005744222086,0,0.0,0.0,0.0,0.4154893492740201,0.2225436445415675,0.1929457047324526,0.6380329938155875,0.2225436445415675,0.2770358856553988,8,0,7,2,1,6,nan,nan,nan,nan,nan,nan,nan,nan,nan,nan,nan,nan,0.0,nan,nan,nan,nan,nan,nan,nan,nan,nan,nan,nan,nan,nan,nan,nan,nan,nan,nan,7834.431234013056,8111.21301803994,nan,8111.467918614362,nan,nan,nan,nan
1,175,1,1,1.0,1.0,0.2300487406027969,0,0.0,0.0,0.0,0.4141837494784769,0.22210579923262214,0.19207795024585478,0.6362895487110991,0.22210579923262214,0.246889089855055,2,4,8,7,3,5,nan,nan,nan,nan,nan,nan,nan,nan,nan,nan,nan,nan,0.0,nan,nan,nan,nan,nan,nan,nan,nan,nan,nan,nan,nan,nan,nan,nan,nan,nan,nan,7834.431234013056,8112.2298363415175,nan,8112.45988508212,nan,nan,nan,nan
1,176,1,1,1.0,1.0,0.26125715172383934,0,0.0,0.0,0.0,0.4126987897294795,0.22182061106034265,0.19087817866913684,0.6345194007898222,0.22182061106034265,0.2487354889162816,4,7,2,0,6,3,nan,nan,nan,nan,nan,nan,nan,nan,nan,nan,nan,nan,0.0,nan,nan,nan,nan,nan,nan,nan,nan,nan,nan,nan,nan,nan,nan,nan,nan,nan,nan,7834.431234013056,8113.246609882452,nan,8113.507867034175,nan,nan,nan,nan
1,177,1,1,1.0,1.0,0.25241393703618087,0,0.0,0.0,0.0,0.4114872566254344,0.22134307571859296,0.19014418090684143,0.6328303323440274,0.22134307571859296,0.2479066097876057,3,8,4,2,5,1,nan,nan,nan,nan,nan,nan,nan,nan,nan,nan,nan,nan,0.0,nan,nan,nan,nan,nan,nan,nan,nan,nan,nan,nan,nan,nan,nan,nan,nan,nan,nan,7834.431234013056,8114.263439873088,nan,8114.515853810124,nan,nan,nan,nan
1,178,1,1,1.0,1.0,0.19559276168001816,0,0.0,0.0,0.0,0.4102247699620276,0.22091437217704296,0.18931039778498465,0.6311391421390706,0.22091437217704296,0.2364212834800128,8,4,7,5,1,0,nan,nan,nan,nan,nan,nan,nan,nan,nan,nan,nan,nan,0.0,nan,nan,nan,nan,nan,nan,nan,nan,nan,nan,nan,nan,nan,nan,nan,nan,nan,nan,7834.431234013056,8115.2802462004765,nan,8115.475838962157,nan,nan,nan,nan
1,179,1,1,1.0,1.0,0.15477992032538168,0,0.0,0.0,0.0,0.40853475414878343,0.2208591368267643,0.18767561732201912,0.6293938909755478,0.2208591368267643,0.20092887301386023,6,3,2,1,5,8,nan,nan,nan,nan,nan,nan,nan,nan,nan,nan,nan,nan,0.0,nan,nan,nan,nan,nan,nan,nan,nan,nan,nan,nan,nan,nan,nan,nan,nan,nan,nan,7834.431234013056,8116.2970607957395,nan,8116.451840716065,nan,nan,nan,nan
1,180,1,1,1.0,1.0,0.7059427269268781,0,0.0,0.0,0.0,0.4065522945095381,0.22112621472947644,0.18542607978006168,0.6276785092390146,0.22112621472947644,0.3521051363107593,1,6,5,2,8,3,nan,nan,nan,nan,nan,nan,nan,nan,nan,nan,nan,nan,0.0,nan,nan,nan,nan,nan,nan,nan,nan,nan,nan,nan,nan,nan,nan,nan,nan,nan,nan,7834.431234013056,8117.313844030083,nan,8118.01978675701,nan,nan,nan,nan
1,181,1,1,1.0,1.0,0.4491676236502826,0,0.0,0.0,0.0,0.4088731505747888,0.2218269902094972,0.1870461603652916,0.630700140784286,0.2218269902094972,0.4366300903008475,2,4,7,0,1,8,nan,nan,nan,nan,nan,nan,nan,nan,nan,nan,nan,nan,0.0,nan,nan,nan,nan,nan,nan,nan,nan,nan,nan,nan,nan,nan,nan,nan,nan,nan,nan,7834.431234013056,8118.33065235315,nan,8118.7798199768,nan,nan,nan,nan
1,182,1,1,1.0,1.0,0.24836523973499425,0,0.0,0.0,0.0,0.4091831080599849,0.22100020375041168,0.18818290430957324,0.6301833118103966,0.22100020375041168,0.4678251967707183,3,7,1,8,6,2,nan,nan,nan,nan,nan,nan,nan,nan,nan,nan,nan,nan,0.0,nan,nan,nan,nan,nan,nan,nan,nan,nan,nan,nan,nan,nan,nan,nan,nan,nan,nan,7834.431234013056,8119.347455259354,nan,8119.595820499089,nan,nan,nan,nan
1,183,1,1,1.0,1.0,0.35152933045173995,0,0.0,0.0,0.0,0.40795549074452697,0.22059957630219695,0.18735591444233002,0.6285550670467239,0.22059957630219695,0.3496873979456723,8,5,3,1,7,6,nan,nan,nan,nan,nan,nan,nan,nan,nan,nan,nan,nan,0.0,nan,nan,nan,nan,nan,nan,nan,nan,nan,nan,nan,nan,nan,nan,nan,nan,nan,nan,7834.431234013056,8120.364259020833,nan,8120.715788351285,nan,nan,nan,nan
1,184,1,1,1.0,1.0,0.14271223088144325,0,0.0,0.0,0.0,0.40752801983321796,0.2198168394316684,0.18771118040154955,0.6273448592648864,0.2198168394316684,0.24753560035605915,6,4,0,8,5,3,nan,nan,nan,nan,nan,nan,nan,nan,nan,nan,nan,nan,0.0,nan,nan,nan,nan,nan,nan,nan,nan,nan,nan,nan,nan,nan,nan,nan,nan,nan,nan,7834.431234013056,8121.381062212109,nan,8121.5237744429905,nan,nan,nan,nan
1,185,1,1,1.0,1.0,0.06988756818464026,0,0.0,0.0,0.0,0.40553692367568583,0.2201804897163172,0.18535643395936863,0.625717413392003,0.2201804897163172,0.1880430431726078,8,1,4,5,6,7,nan,nan,nan,nan,nan,nan,nan,nan,nan,nan,nan,nan,0.0,nan,nan,nan,nan,nan,nan,nan,nan,nan,nan,nan,nan,nan,nan,nan,nan,nan,nan,7834.431234013056,8122.397859986522,nan,8122.467747554707,nan,nan,nan,nan
1,186,1,1,1.0,1.0,0.5650856381689664,0,0.0,0.0,0.0,0.4030320777391855,0.22125129784248337,0.1817807798967021,0.6242833755816688,0.22125129784248337,0.25922847907834995,7,6,8,1,3,0,nan,nan,nan,nan,nan,nan,nan,nan,nan,nan,nan,nan,0.0,nan,nan,nan,nan,nan,nan,nan,nan,nan,nan,nan,nan,nan,nan,nan,nan,nan,nan,7834.431234013056,8123.414650063234,nan,8123.979735701403,nan,nan,nan,nan
1,187,1,1,1.0,1.0,0.42030957239330746,0,0.0,0.0,0.0,0.4042324744831098,0.22086786998158722,0.18336460450152256,0.625100344464697,0.22086786998158722,0.3517609262489714,6,5,4,3,7,1,nan,nan,nan,nan,nan,nan,nan,nan,nan,nan,nan,nan,0.0,nan,nan,nan,nan,nan,nan,nan,nan,nan,nan,nan,nan,nan,nan,nan,nan,nan,nan,7834.431234013056,8124.431445271737,nan,8124.8517548441305,nan,nan,nan,nan
1,188,1,1,1.0,1.0,0.3154594035295304,0,0.0,0.0,0.0,0.40435068843833183,0.22005864410921527,0.18429204432911656,0.624409332547547,0.22005864410921527,0.4336182046972681,0,1,7,8,4,5,nan,nan,nan,nan,nan,nan,nan,nan,nan,nan,nan,nan,0.0,nan,nan,nan,nan,nan,nan,nan,nan,nan,nan,nan,nan,nan,nan,nan,nan,nan,nan,7834.431234013056,8125.448272411391,nan,8125.763731814921,nan,nan,nan,nan
1,189,1,1,1.0,1.0,0.3546275061671622,0,0.0,0.0,0.0,0.40370184694264716,0.2193845691097555,0.18431727783289165,0.6230864160524027,0.2193845691097555,0.36346549403,7,6,8,5,3,0,nan,nan,nan,nan,nan,nan,nan,nan,nan,nan,nan,nan,0.0,nan,nan,nan,nan,nan,nan,nan,nan,nan,nan,nan,nan,nan,nan,nan,nan,nan,nan,7834.431234013056,8126.465099265915,nan,8126.8197267720825,nan,nan,nan,nan
1,190,1,1,1.0,1.0,0.23384997152606957,0,0.0,0.0,0.0,0.4033462357776074,0.21862787779421766,0.18471835798338976,0.6219741135718251,0.21862787779421766,0.3013122937409207,1,2,4,7,8,6,nan,nan,nan,nan,nan,nan,nan,nan,nan,nan,nan,nan,0.0,nan,nan,nan,nan,nan,nan,nan,nan,nan,nan,nan,nan,nan,nan,nan,nan,nan,nan,7834.431234013056,8127.481848003226,nan,8127.715697974752,nan,nan,nan,nan
1,191,0,0,1.0,0.0,0.36903814287506975,0,0.0,0.0,0.0,0.402126838193064,0.21831049855281903,0.18381633964024496,0.6204373367458831,0.21831049855281903,0.31917187352276716,3,4,0,6,5,8,nan,nan,nan,nan,nan,nan,nan,nan,nan,nan,nan,nan,0.0,nan,nan,nan,nan,nan,nan,nan,nan,nan,nan,nan,nan,nan,nan,nan,nan,nan,nan,7834.431234013056,8128.498666304775,nan,8128.86770444765,nan,nan,nan,nan
1,192,1,1,1.0,1.0,0.3922050389519427,0,0.0,0.0,0.0,0.40189049036936403,0.2175472673846109,0.18434322298475314,0.6194377577539749,0.2175472673846109,0.3316977177843607,2,1,6,8,4,5,nan,nan,nan,nan,nan,nan,nan,nan,nan,nan,nan,nan,0.0,nan,nan,nan,nan,nan,nan,nan,nan,nan,nan,nan,nan,nan,nan,nan,nan,nan,nan,7834.431234013056,8129.515458947397,nan,8129.907663986349,nan,nan,nan,nan
1,193,1,1,1.0,1.0,0.3274053555505816,0,0.0,0.0,0.0,0.40182179922455963,0.21677597415968286,0.18504582506487677,0.6185977733842425,0.21677597415968286,0.36288284579253133,7,4,3,2,0,6,nan,nan,nan,nan,nan,nan,nan,nan,nan,nan,nan,nan,0.0,nan,nan,nan,nan,nan,nan,nan,nan,nan,nan,nan,nan,nan,nan,nan,nan,nan,nan,7834.431234013056,8130.5322558664775,nan,8130.859661222028,nan,nan,nan,nan
1,194,0,0,0.0,1.0,0.4942757732642349,0,0.0,0.0,0.0,0.4012977397620668,0.216100945498248,0.1851967942638188,0.6173986852603148,0.216100945498248,0.40462872258891974,5,8,0,3,2,1,nan,nan,nan,nan,nan,nan,nan,nan,nan,nan,nan,nan,0.0,nan,nan,nan,nan,nan,nan,nan,nan,nan,nan,nan,nan,nan,nan,nan,nan,nan,nan,7834.431234013056,8131.557387097768,nan,8132.051662871032,nan,nan,nan,nan
1,195,1,1,1.0,1.0,0.34108271647710353,0,0.0,0.0,0.0,0.4019479358005435,0.21548336149141506,0.18646457430912844,0.6174312972919586,0.21548336149141506,0.38758794843064,6,1,8,5,4,0,nan,nan,nan,nan,nan,nan,nan,nan,nan,nan,nan,nan,0.0,nan,nan,nan,nan,nan,nan,nan,nan,nan,nan,nan,nan,nan,nan,nan,nan,nan,nan,7834.431234013056,8132.582573923428,nan,8132.923656639905,nan,nan,nan,nan
1,196,1,1,1.0,1.0,0.31625112472102046,0,0.0,0.0,0.0,0.40152526066635297,0.21479333020851188,0.1867319304578411,0.6163185908748648,0.21479333020851188,0.38386987148745294,7,4,6,8,1,2,nan,nan,nan,nan,nan,nan,nan,nan,nan,nan,nan,nan,0.0,nan,nan,nan,nan,nan,nan,nan,nan,nan,nan,nan,nan,nan,nan,nan,nan,nan,nan,7834.431234013056,8133.599379965715,nan,8133.915631090436,nan,nan,nan,nan
1,197,1,1,1.0,1.0,0.3391135345736984,0,0.0,0.0,0.0,0.4009371631770748,0.21416768624951124,0.18676947692756354,0.615104849426586,0.21416768624951124,0.33214912525727414,6,5,7,0,3,4,nan,nan,nan,nan,nan,nan,nan,nan,nan,nan,nan,nan,0.0,nan,nan,nan,nan,nan,nan,nan,nan,nan,nan,nan,nan,nan,nan,nan,nan,nan,nan,7834.431234013056,8134.624509201298,nan,8134.9636227358715,nan,nan,nan,nan
1,198,0,0,1.0,0.0,0.3459935544524342,0,0.0,0.0,0.0,0.4005137136660928,0.21349387511219284,0.18701983855389995,0.6140075887782857,0.21349387511219284,0.333786071249051,7,0,2,6,1,5,nan,nan,nan,nan,nan,nan,nan,nan,nan,nan,nan,nan,0.0,nan,nan,nan,nan,nan,nan,nan,nan,nan,nan,nan,nan,nan,nan,nan,nan,nan,nan,7834.431234013056,8135.649614488531,nan,8135.995608042984,nan,nan,nan,nan
1,199,1,1,1.0,1.0,0.384838354337262,0,0.0,0.0,0.0,0.40014282822926517,0.21281365638800404,0.18732917184126113,0.6129564846172693,0.21281365638800404,0.3566484811211315,2,6,0,4,3,8,nan,nan,nan,nan,nan,nan,nan,nan,nan,nan,nan,nan,0.0,nan,nan,nan,nan,nan,nan,nan,nan,nan,nan,nan,nan,nan,nan,nan,nan,nan,nan,7834.431234013056,8136.674749426078,nan,8137.059587780415,nan,nan,nan,nan
1,200,1,1,1.0,1.0,0.4076816625020001,0,0.0,0.0,0.0,0.40003941962188677,0.21209717843886655,0.18794224118302022,0.6121365980607534,0.21209717843886655,0.37950452376389876,1,7,4,8,5,3,nan,nan,nan,nan,nan,nan,nan,nan,nan,nan,nan,nan,0.0,nan,nan,nan,nan,nan,nan,nan,nan,nan,nan,nan,nan,nan,nan,nan,nan,nan,nan,7834.431234013056,8137.699907171627,nan,8138.107588834129,nan,nan,nan,nan
1,201,1,1,1.0,1.0,0.3908710586547386,0,0.0,0.0,0.0,0.4000907098425587,0.21138516566087276,0.18870554418168592,0.6114758755034314,0.21138516566087276,0.39446369183133356,2,5,1,3,4,7,nan,nan,nan,nan,nan,nan,nan,nan,nan,nan,nan,nan,0.0,nan,nan,nan,nan,nan,nan,nan,nan,nan,nan,nan,nan,nan,nan,nan,nan,nan,nan,7834.431234013056,8138.716713498987,nan,8139.1075845576415,nan,nan,nan,nan
1,202,1,1,1.0,1.0,0.40566429879982024,0,0.0,0.0,0.0,0.40002924550130653,0.2106807060656474,0.18934853943565913,0.610709951566954,0.2106807060656474,0.40140567331885296,4,1,5,7,0,8,nan,nan,nan,nan,nan,nan,nan,nan,nan,nan,nan,nan,0.0,nan,nan,nan,nan,nan,nan,nan,nan,nan,nan,nan,nan,nan,nan,nan,nan,nan,nan,7834.431234013056,8139.741906026669,nan,8140.147570325469,nan,nan,nan,nan
1,203,1,1,1.0,1.0,0.356561335735023,0,0.0,0.0,0.0,0.40006656373507155,0.20998242641359074,0.1900841373214808,0.6100489901486623,0.20998242641359074,0.3843655643965273,3,5,6,8,7,4,nan,nan,nan,nan,nan,nan,nan,nan,nan,nan,nan,nan,0.0,nan,nan,nan,nan,nan,nan,nan,nan,nan,nan,nan,nan,nan,nan,nan,nan,nan,nan,7834.431234013056,8140.7669910718105,nan,8141.1235524075455,nan,nan,nan,nan
1,204,1,1,1.0,1.0,0.3314172749524005,0,0.0,0.0,0.0,0.39978034512980803,0.20932010525686198,0.19046023987294605,0.60910045038667,0.20932010525686198,0.3645476364957479,4,1,7,5,2,6,nan,nan,nan,nan,nan,nan,nan,nan,nan,nan,nan,nan,0.0,nan,nan,nan,nan,nan,nan,nan,nan,nan,nan,nan,nan,nan,nan,nan,nan,nan,nan,7834.431234013056,8141.792129145499,nan,8142.123546420451,nan,nan,nan,nan
1,205,1,1,1.0,1.0,0.4986124209826812,0,0.0,0.0,0.0,0.3993335276776681,0.20870764407195846,0.19062588360570965,0.6080411717496266,0.20870764407195846,0.3955303438900349,0,8,1,3,6,5,nan,nan,nan,nan,nan,nan,nan,nan,nan,nan,nan,nan,0.0,nan,nan,nan,nan,nan,nan,nan,nan,nan,nan,nan,nan,nan,nan,nan,nan,nan,nan,7834.431234013056,8142.808908958628,nan,8143.307521379611,nan,nan,nan,nan
1,206,1,1,1.0,1.0,0.409424475452397,0,0.0,0.0,0.0,0.39997819581601235,0.20818169266711645,0.1917965031488959,0.6081598884831287,0.20818169266711645,0.4131513904624929,8,1,2,5,7,4,nan,nan,nan,nan,nan,nan,nan,nan,nan,nan,nan,nan,0.0,nan,nan,nan,nan,nan,nan,nan,nan,nan,nan,nan,nan,nan,nan,nan,nan,nan,nan,7834.431234013056,8143.834066133946,nan,8144.243490609399,nan,nan,nan,nan
1,207,1,1,1.0,1.0,0.3766528640408069,0,0.0,0.0,0.0,0.40003913955560194,0.2075104303545029,0.19252870920109905,0.6075495699101048,0.2075104303545029,0.4282299201586284,2,5,8,4,3,0,nan,nan,nan,nan,nan,nan,nan,nan,nan,nan,nan,nan,0.0,nan,nan,nan,nan,nan,nan,nan,nan,nan,nan,nan,nan,nan,nan,nan,nan,nan,nan,7834.431234013056,8144.850833117613,nan,8145.227485981653,nan,nan,nan,nan
1,208,1,1,1.0,1.0,0.31983653537463397,0,0.0,0.0,0.0,0.3998892275330712,0.20685268372800839,0.19303654380506283,0.6067419112610796,0.20685268372800839,0.3686379582892793,7,0,2,6,5,3,nan,nan,nan,nan,nan,nan,nan,nan,nan,nan,nan,nan,0.0,nan,nan,nan,nan,nan,nan,nan,nan,nan,nan,nan,nan,nan,nan,nan,nan,nan,nan,7834.431234013056,8145.867635738687,nan,8146.187472274061,nan,nan,nan,nan
1,209,0,0,0.0,1.0,0.48700573734822683,0,0.0,0.0,0.0,0.3993793377741003,0.20629119124499318,0.1930881465291071,0.6056705290190935,0.20629119124499318,0.3944983789212226,3,6,5,0,4,1,nan,nan,nan,nan,nan,nan,nan,nan,nan,nan,nan,nan,0.0,nan,nan,nan,nan,nan,nan,nan,nan,nan,nan,nan,nan,nan,nan,nan,nan,nan,nan,7834.431234013056,8146.88443835979,nan,8147.371444097138,nan,nan,nan,nan
1,210,1,1,1.0,1.0,0.32588149898219854,0,0.0,0.0,0.0,0.3999339352397593,0.20575471625724795,0.19417921898251134,0.6056886514970072,0.20575471625724795,0.37757459056835313,2,1,3,8,0,6,nan,nan,nan,nan,nan,nan,nan,nan,nan,nan,nan,nan,0.0,nan,nan,nan,nan,nan,nan,nan,nan,nan,nan,nan,nan,nan,nan,nan,nan,nan,nan,7834.431234013056,8147.909595535108,nan,8148.23547703409,nan,nan,nan,nan
1,211,1,1,1.0,1.0,0.3250267708208412,0,0.0,0.0,0.0,0.39946819664694444,0.20519019846222994,0.1942779981847145,0.6046583951091744,0.20519019846222994,0.3793046690504222,7,0,4,5,1,2,nan,nan,nan,nan,nan,nan,nan,nan,nan,nan,nan,nan,0.0,nan,nan,nan,nan,nan,nan,nan,nan,nan,nan,nan,nan,nan,nan,nan,nan,nan,nan,7834.431234013056,8148.926418113173,nan,8149.251444883994,nan,nan,nan,nan
1,212,0,0,0.0,1.0,0.48421689454698935,0,0.0,0.0,0.0,0.3990029377355313,0.2046320887744698,0.1943708489610615,0.6036350265100011,0.2046320887744698,0.37837505478334305,8,1,5,2,3,6,nan,nan,nan,nan,nan,nan,nan,nan,nan,nan,nan,nan,0.0,nan,nan,nan,nan,nan,nan,nan,nan,nan,nan,nan,nan,nan,nan,nan,nan,nan,nan,7834.431234013056,8149.943210755766,nan,8150.427427650313,nan,nan,nan,nan
1,213,1,1,1.0,1.0,0.37140532361809164,0,0.0,0.0,0.0,0.3995322169703851,0.2041054257703161,0.195426791200069,0.6036376427407012,0.2041054257703161,0.3935496629953074,4,3,1,7,6,8,nan,nan,nan,nan,nan,nan,nan,nan,nan,nan,nan,nan,0.0,nan,nan,nan,nan,nan,nan,nan,nan,nan,nan,nan,nan,nan,nan,nan,nan,nan,nan,7834.431234013056,8150.960011381161,nan,8151.331416704779,nan,nan,nan,nan
1,214,1,1,1.0,1.0,0.5625793289218564,0,0.0,0.0,0.0,0.39935859417191416,0.2034864213643987,0.19587217280751545,0.6028450155363129,0.2034864213643987,0.47273384902897914,1,4,7,6,5,0,nan,nan,nan,nan,nan,nan,nan,nan,nan,nan,nan,nan,0.0,nan,nan,nan,nan,nan,nan,nan,nan,nan,nan,nan,nan,nan,nan,nan,nan,nan,nan,7834.431234013056,8151.976825691323,nan,8152.539405020245,nan,nan,nan,nan
1,215,1,1,1.0,1.0,0.41775251540821046,0,0.0,0.0,0.0,0.400359948372834,0.20326124509665638,0.19709870327617762,0.6036211934694904,0.20326124509665638,0.45057905598271947,8,3,5,1,4,2,nan,nan,nan,nan,nan,nan,nan,nan,nan,nan,nan,nan,0.0,nan,nan,nan,nan,nan,nan,nan,nan,nan,nan,nan,nan,nan,nan,nan,nan,nan,nan,7834.431234013056,8152.993635439925,nan,8153.411387955333,nan,nan,nan,nan
1,216,1,1,1.0,1.0,0.3289654197287746,0,0.0,0.0,0.0,0.40046600061085463,0.20264512203484814,0.1978208785760065,0.6031111226457028,0.20264512203484814,0.43643242135294713,3,0,7,4,2,8,nan,nan,nan,nan,nan,nan,nan,nan,nan,nan,nan,nan,0.0,nan,nan,nan,nan,nan,nan,nan,nan,nan,nan,nan,nan,nan,nan,nan,nan,nan,nan,7834.431234013056,8154.010422380525,nan,8154.3393878002535,nan,nan,nan,nan
1,217,1,1,1.0,1.0,0.200194551871391,0,0.0,0.0,0.0,0.40003266375702384,0.20210631478732566,0.19792634896969818,0.6021389785443495,0.20210631478732566,0.3156374956694587,7,3,1,0,4,6,nan,nan,nan,nan,nan,nan,nan,nan,nan,nan,nan,nan,0.0,nan,nan,nan,nan,nan,nan,nan,nan,nan,nan,nan,nan,nan,nan,nan,nan,nan,nan,7834.431234013056,8155.027196776762,nan,8155.2273913286335,nan,nan,nan,nan
1,218,1,1,1.0,1.0,0.27133171091554686,0,0.0,0.0,0.0,0.39882881970952,0.2020891415164685,0.1967396781930515,0.6009179612259885,0.2020891415164685,0.2668305608385708,1,5,4,6,8,7,nan,nan,nan,nan,nan,nan,nan,nan,nan,nan,nan,nan,0.0,nan,nan,nan,nan,nan,nan,nan,nan,nan,nan,nan,nan,nan,nan,nan,nan,nan,nan,7834.431234013056,8156.044021635636,nan,8156.315353346552,nan,nan,nan,nan
1,219,1,1,1.0,1.0,0.3345570751989726,0,0.0,0.0,0.0,0.3980653639682387,0.2017231410355193,0.1963422229327194,0.599788505003758,0.2017231410355193,0.2686944459953035,8,4,0,1,6,3,nan,nan,nan,nan,nan,nan,nan,nan,nan,nan,nan,nan,0.0,nan,nan,nan,nan,nan,nan,nan,nan,nan,nan,nan,nan,nan,nan,nan,nan,nan,nan,7834.431234013056,8157.060796602076,nan,8157.395353677275,nan,nan,nan,nan
1,220,0,0,0.0,1.0,0.4937397863250226,0,0.0,0.0,0.0,0.39768733843985027,0.20118119905102838,0.1965061393888219,0.5988685374908786,0.20118119905102838,0.36654285747984733,0,3,8,2,5,4,nan,nan,nan,nan,nan,nan,nan,nan,nan,nan,nan,nan,0.0,nan,nan,nan,nan,nan,nan,nan,nan,nan,nan,nan,nan,nan,nan,nan,nan,nan,nan,7834.431234013056,8158.077600363555,nan,8158.57134014988,nan,nan,nan,nan
1,221,1,1,1.0,1.0,0.4765525660768617,0,0.0,0.0,0.0,0.3982556961196442,0.20072033674702353,0.19753535937262065,0.5989760328666677,0.20072033674702353,0.43494980920028564,6,8,7,5,1,3,nan,nan,nan,nan,nan,nan,nan,nan,nan,nan,nan,nan,0.0,nan,nan,nan,nan,nan,nan,nan,nan,nan,nan,nan,nan,nan,nan,nan,nan,nan,nan,7834.431234013056,8159.102778351138,nan,8159.579330917215,nan,nan,nan,nan
1,222,1,1,1.0,1.0,0.49974284030031413,0,0.0,0.0,0.0,0.3987162659429219,0.20021865686027082,0.1984976090826511,0.5989349228031927,0.20021865686027082,0.4900117309007328,4,1,0,6,8,7,nan,nan,nan,nan,nan,nan,nan,nan,nan,nan,nan,nan,0.0,nan,nan,nan,nan,nan,nan,nan,nan,nan,nan,nan,nan,nan,nan,nan,nan,nan,nan,7834.431234013056,8160.119568712951,nan,8160.6193115532515,nan,nan,nan,nan
1,223,1,1,1.0,1.0,0.7389677917235531,0,0.0,0.0,0.0,0.3993070646233745,0.19978092499631914,0.19952613962705537,0.5990879896196937,0.19978092499631914,0.5717543993669096,2,0,5,3,1,4,nan,nan,nan,nan,nan,nan,nan,nan,nan,nan,nan,nan,0.0,nan,nan,nan,nan,nan,nan,nan,nan,nan,nan,nan,nan,nan,nan,nan,nan,nan,nan,7834.431234013056,8161.136341968813,nan,8161.875309760537,nan,nan,nan,nan
1,224,1,1,1.0,1.0,0.6981355636380613,0,0.0,1.0,0.0,0.4012818362925616,0.20086617860763967,0.20041565768492192,0.6021480149002012,0.20086617860763967,0.6456153985539762,1,6,0,5,7,2,nan,nan,nan,nan,nan,nan,nan,nan,nan,nan,nan,nan,0.0,nan,nan,nan,nan,nan,nan,nan,nan,nan,nan,nan,nan,nan,nan,nan,nan,nan,nan,7834.431234013056,8162.153146870696,nan,8162.851282434334,nan,nan,nan,nan
1,225,0,0,0.0,1.0,0.6893211439892184,1,0.0,0.0,1.0,0.4029977537916685,0.20154511382385057,0.20145263996781795,0.6045428676155191,0.20154511382385057,0.7088081664502776,6,5,1,7,4,0,1.0,1.0,1.0,1.0,1.0,1.0,0.0,1.0,1.0,1.0,0.0,1.0,4.0,8.0,5.0,1.0,7.0,6.0,0.0,6.0,2.0,1.0,3.0,4.0,5.0,7.284094757924322,2.2778205743816216,1.3171637280611321,3.3813709748210385,4.213254102302017,5.412496136908885,7834.431234013056,8163.169960895757,8163.978410274081,8163.859282039746,8172.329503117275,8173.333115042187,8165.0035363735515,8172.321170800802
1,226,1,1,nan,nan,nan,0,0.0,0.0,0.0,0.4046432905169418,0.20212726190497,0.20251602861197182,0.6067705524219118,0.20212726190497,0.6937283538136398,4,7,2,3,5,8,nan,nan,nan,nan,nan,nan,nan,nan,nan,nan,nan,nan,0.0,nan,nan,nan,nan,nan,nan,nan,nan,nan,nan,nan,nan,nan,nan,nan,nan,nan,nan,7834.431234013056,8173.554710013937,nan,nan,nan,nan,nan,nan
1,227,1,1,1.0,1.0,0.16730833050678484,0,0.0,0.0,0.0,0.4046432905169418,0.20212726190497,0.20251602861197182,0.6067705524219118,0.20212726190497,0.4283147372480016,2,6,8,7,1,3,nan,nan,nan,nan,nan,nan,nan,nan,nan,nan,nan,nan,0.0,nan,nan,nan,nan,nan,nan,nan,nan,nan,nan,nan,nan,nan,nan,nan,nan,nan,nan,7834.431234013056,8174.579790212418,nan,8174.7470985429245,nan,nan,nan,nan
1,228,1,1,1.0,1.0,0.4541049759136513,0,0.0,0.0,0.0,0.4032870907454552,0.20234130756195584,0.20094578318349937,0.6056283983074111,0.20234130756195584,0.31070665321021806,7,0,1,2,4,8,nan,nan,nan,nan,nan,nan,nan,nan,nan,nan,nan,nan,0.0,nan,nan,nan,nan,nan,nan,nan,nan,nan,nan,nan,nan,nan,nan,nan,nan,nan,nan,7834.431234013056,8175.604978178482,nan,8176.059083154396,nan,nan,nan,nan
1,229,1,1,1.0,1.0,0.2533715860627126,0,0.0,0.0,0.0,0.40357582872936537,0.20180180723423527,0.2017740214951301,0.6053776359636006,0.20180180723423527,0.2915949641610496,0,1,7,4,8,3,nan,nan,nan,nan,nan,nan,nan,nan,nan,nan,nan,nan,0.0,nan,nan,nan,nan,nan,nan,nan,nan,nan,nan,nan,nan,nan,nan,nan,nan,nan,nan,7834.431234013056,8176.621745732351,nan,8176.875117318414,nan,nan,nan,nan
1,230,1,1,1.0,1.0,0.19620686586131342,0,0.0,0.0,0.0,0.40272721718887583,0.20154561615682293,0.2011816010320529,0.6042728333456988,0.20154561615682293,0.30122780927922577,8,4,6,1,2,0,nan,nan,nan,nan,nan,nan,nan,nan,nan,nan,nan,nan,0.0,nan,nan,nan,nan,nan,nan,nan,nan,nan,nan,nan,nan,nan,nan,nan,nan,nan,nan,7834.431234013056,8177.646879244421,nan,8177.8430861102825,nan,nan,nan,nan
1,231,1,1,1.0,1.0,0.44299807157949544,0,0.0,0.0,0.0,0.40156699049602435,0.20157056797427725,0.1999964225217471,0.6031375584703016,0.20157056797427725,0.29752550783450715,0,6,2,7,5,3,nan,nan,nan,nan,nan,nan,nan,nan,nan,nan,nan,nan,0.0,nan,nan,nan,nan,nan,nan,nan,nan,nan,nan,nan,nan,nan,nan,nan,nan,nan,nan,7834.431234013056,8178.672055806499,nan,8179.1150538780785,nan,nan,nan,nan
1,232,1,1,1.0,1.0,0.322231655853102,0,0.0,0.0,0.0,0.4017984490495633,0.20103045232476166,0.20076799672480164,0.602828901374325,0.20103045232476166,0.32047886443130363,1,2,5,6,3,4,nan,nan,nan,nan,nan,nan,nan,nan,nan,nan,nan,nan,0.0,nan,nan,nan,nan,nan,nan,nan,nan,nan,nan,nan,nan,nan,nan,nan,nan,nan,nan,7834.431234013056,8179.688832198444,nan,8180.011063854297,nan,nan,nan,nan
1,233,1,1,1.0,1.0,0.14542039053048939,0,0.0,0.0,0.0,0.40135641130958294,0.2005584724578667,0.20079793885171623,0.6019148837674496,0.2005584724578667,0.3035500393210289,7,0,2,3,8,5,nan,nan,nan,nan,nan,nan,nan,nan,nan,nan,nan,nan,0.0,nan,nan,nan,nan,nan,nan,nan,nan,nan,nan,nan,nan,nan,nan,nan,nan,nan,nan,7834.431234013056,8180.70562313046,nan,8180.85104352099,nan,nan,nan,nan
1,234,0,0,0.0,1.0,0.5446097957901657,0,0.0,0.0,0.0,0.39994240014505755,0.2009013873677152,0.19904101277734235,0.6008437875127728,0.2009013873677152,0.337420614057919,5,4,0,1,2,3,nan,nan,nan,nan,nan,nan,nan,nan,nan,nan,nan,nan,0.0,nan,nan,nan,nan,nan,nan,nan,nan,nan,nan,nan,nan,nan,nan,nan,nan,nan,nan,7834.431234013056,8181.722419764468,nan,8182.267029560258,nan,nan,nan,nan
1,235,1,1,1.0,1.0,0.2798008751415182,0,0.0,0.0,0.0,0.40073727594530545,0.2006339016104178,0.20010337433488765,0.6013711775557232,0.2006339016104178,0.3232770204873911,6,8,1,2,7,4,nan,nan,nan,nan,nan,nan,nan,nan,nan,nan,nan,nan,0.0,nan,nan,nan,nan,nan,nan,nan,nan,nan,nan,nan,nan,nan,nan,nan,nan,nan,nan,7834.431234013056,8182.739237780916,nan,8183.019038656057,nan,nan,nan,nan
1,236,1,1,1.0,1.0,0.27868927241070196,0,0.0,0.0,0.0,0.4000764212961044,0.200283499373308,0.19979292192279638,0.6003599206694124,0.200283499373308,0.3676999811141286,1,4,2,8,0,3,nan,nan,nan,nan,nan,nan,nan,nan,nan,nan,nan,nan,0.0,nan,nan,nan,nan,nan,nan,nan,nan,nan,nan,nan,nan,nan,nan,nan,nan,nan,nan,7834.431234013056,8183.764365590992,nan,8184.043054863403,nan,nan,nan,nan
1,237,1,1,1.0,1.0,0.2378308151382953,0,0.0,0.0,0.0,0.3994167085304229,0.19993778409259463,0.19947892443782825,0.5993544926230175,0.19993778409259463,0.2654403208968385,5,8,3,1,2,6,nan,nan,nan,nan,nan,nan,nan,nan,nan,nan,nan,nan,0.0,nan,nan,nan,nan,nan,nan,nan,nan,nan,nan,nan,nan,nan,nan,nan,nan,nan,nan,7834.431234013056,8184.78118389257,nan,8185.019014707708,nan,nan,nan,nan
1,238,1,1,1.0,1.0,0.2446598022361286,0,0.0,0.0,0.0,0.3985432712688438,0.19974836179348912,0.1987949094753547,0.5982916330623329,0.19974836179348912,0.2537266299283753,3,0,8,2,5,1,nan,nan,nan,nan,nan,nan,nan,nan,nan,nan,nan,nan,0.0,nan,nan,nan,nan,nan,nan,nan,nan,nan,nan,nan,nan,nan,nan,nan,nan,nan,nan,7834.431234013056,8185.806347625185,nan,8186.051007427421,nan,nan,nan,nan
1,239,0,0,1.0,0.0,0.291521313454723,0,0.0,0.0,0.0,0.3977159407901733,0.19952825138588465,0.19818768940428866,0.597244192176058,0.19952825138588465,0.25800397694304894,8,4,0,7,6,2,nan,nan,nan,nan,nan,nan,nan,nan,nan,nan,nan,nan,0.0,nan,nan,nan,nan,nan,nan,nan,nan,nan,nan,nan,nan,nan,nan,nan,nan,nan,nan,7834.431234013056,8186.831481137255,nan,8187.1230024507095,nan,nan,nan,nan
1,240,1,1,1.0,1.0,0.3783529120555613,0,0.0,0.0,0.0,0.39714805508249706,0.19914469908226812,0.19800335600022895,0.5962927541647651,0.19914469908226812,0.304844675915471,5,6,7,3,2,1,nan,nan,nan,nan,nan,nan,nan,nan,nan,nan,nan,nan,0.0,nan,nan,nan,nan,nan,nan,nan,nan,nan,nan,nan,nan,nan,nan,nan,nan,nan,nan,7834.431234013056,8187.856610943039,nan,8188.234963855095,nan,nan,nan,nan
1,241,1,1,1.0,1.0,0.4015491734026,0,0.0,0.0,0.0,0.3970480809174602,0.19861905786463638,0.1984290230528238,0.5956671387820965,0.19861905786463638,0.35714113297096145,4,8,3,1,0,6,nan,nan,nan,nan,nan,nan,nan,nan,nan,nan,nan,nan,0.0,nan,nan,nan,nan,nan,nan,nan,nan,nan,nan,nan,nan,nan,nan,nan,nan,nan,nan,7834.431234013056,8188.873397313437,nan,8189.274946486839,nan,nan,nan,nan
1,242,1,1,1.0,1.0,0.5367510294890963,0,0.0,0.0,0.0,0.3970718962216144,0.19809318287618577,0.1989787133454286,0.5951650790978001,0.19809318287618577,0.43888437164908584,8,0,6,7,1,2,nan,nan,nan,nan,nan,nan,nan,nan,nan,nan,nan,nan,0.0,nan,nan,nan,nan,nan,nan,nan,nan,nan,nan,nan,nan,nan,nan,nan,nan,nan,nan,7834.431234013056,8189.890221602109,nan,8190.426972631598,nan,nan,nan,nan
1,243,1,1,1.0,1.0,0.4395783037180081,0,0.0,0.0,0.0,0.3978070495546011,0.19782953048376858,0.19997751907083253,0.5956365800383697,0.19782953048376858,0.45929283553656813,0,4,5,3,6,8,nan,nan,nan,nan,nan,nan,nan,nan,nan,nan,nan,nan,0.0,nan,nan,nan,nan,nan,nan,nan,nan,nan,nan,nan,nan,nan,nan,nan,nan,nan,nan,7834.431234013056,8190.915361956548,nan,8191.354940260266,nan,nan,nan,nan
1,244,1,1,1.0,1.0,0.7824066840985324,0,0.0,0.0,0.0,0.3980257472203781,0.19733399939207946,0.20069174782829863,0.5953597466124576,0.19733399939207946,0.5862453391018789,1,8,2,5,3,0,nan,nan,nan,nan,nan,nan,nan,nan,nan,nan,nan,nan,0.0,nan,nan,nan,nan,nan,nan,nan,nan,nan,nan,nan,nan,nan,nan,nan,nan,nan,nan,7834.431234013056,8191.940498889831,nan,8192.72290557393,nan,nan,nan,nan
1,245,1,1,1.0,1.0,0.5175863594631664,0,0.0,0.0,0.0,0.4000277312666185,0.19875464194660442,0.2012730893200141,0.5987823732132229,0.19875464194660442,0.5798571157599023,4,7,3,0,1,8,nan,nan,nan,nan,nan,nan,nan,nan,nan,nan,nan,nan,0.0,nan,nan,nan,nan,nan,nan,nan,nan,nan,nan,nan,nan,nan,nan,nan,nan,nan,nan,7834.431234013056,8192.957299515227,nan,8193.47488587469,nan,nan,nan,nan
1,246,1,1,1.0,1.0,0.31645611123531125,0,0.0,0.0,0.0,0.40063684332981303,0.19841865382946444,0.2022181895003486,0.5990554971592774,0.19841865382946444,0.5388163849323367,6,8,0,1,7,2,nan,nan,nan,nan,nan,nan,nan,nan,nan,nan,nan,nan,0.0,nan,nan,nan,nan,nan,nan,nan,nan,nan,nan,nan,nan,nan,nan,nan,nan,nan,nan,7834.431234013056,8193.982434167672,nan,8194.298890278907,nan,nan,nan,nan
1,247,1,1,1.0,1.0,0.6433488579641562,0,0.0,0.0,0.0,0.40020292203035684,0.19799839333449717,0.20220452869585967,0.598201315364854,0.19799839333449717,0.49246377622087795,1,4,3,6,0,7,nan,nan,nan,nan,nan,nan,nan,nan,nan,nan,nan,nan,0.0,nan,nan,nan,nan,nan,nan,nan,nan,nan,nan,nan,nan,nan,nan,nan,nan,nan,nan,7834.431234013056,8195.007544301596,nan,8195.65089315956,nan,nan,nan,nan
1,248,1,1,1.0,1.0,0.40253789827693254,0,0.0,0.0,0.0,0.4014498242659148,0.19825222651422447,0.20319759775169033,0.5997020507801393,0.19825222651422447,0.4541142891588,0,8,2,3,7,4,nan,nan,nan,nan,nan,nan,nan,nan,nan,nan,nan,nan,0.0,nan,nan,nan,nan,nan,nan,nan,nan,nan,nan,nan,nan,nan,nan,nan,nan,nan,nan,7834.431234013056,8196.024350628984,nan,8196.426888527261,nan,nan,nan,nan
1,249,1,1,1.0,1.0,0.4973987526318524,0,0.0,0.0,0.0,0.4014553756639302,0.19774584949906515,0.20370952616486504,0.5992012251629953,0.19774584949906515,0.5144285029576471,4,0,1,2,6,8,nan,nan,nan,nan,nan,nan,nan,nan,nan,nan,nan,nan,0.0,nan,nan,nan,nan,nan,nan,nan,nan,nan,nan,nan,nan,nan,nan,nan,nan,nan,nan,7834.431234013056,8197.049516072206,nan,8197.546914824838,nan,nan,nan,nan
1,250,0,0,0.0,1.0,0.5761899765930139,0,0.0,0.0,0.0,0.4019423978820415,0.19736113051185453,0.20458126737018698,0.599303528393896,0.19736113051185453,0.49204220916726626,1,4,7,8,2,5,nan,nan,nan,nan,nan,nan,nan,nan,nan,nan,nan,nan,0.0,nan,nan,nan,nan,nan,nan,nan,nan,nan,nan,nan,nan,nan,nan,nan,nan,nan,nan,7834.431234013056,8198.074651294854,nan,8198.650841271447,nan,nan,nan,nan
1,251,1,1,1.0,1.0,0.48702768998919055,0,0.0,0.0,0.0,0.4028224361583595,0.19724923722529883,0.20557319893306067,0.6000716733836583,0.19724923722529883,0.5202054730713522,0,8,3,2,7,1,nan,nan,nan,nan,nan,nan,nan,nan,nan,nan,nan,nan,0.0,nan,nan,nan,nan,nan,nan,nan,nan,nan,nan,nan,nan,nan,nan,nan,nan,nan,nan,7834.431234013056,8199.099792219524,nan,8199.586819909513,nan,nan,nan,nan
1,252,1,1,1.0,1.0,0.4298735184711404,0,0.0,0.0,0.0,0.4032455781374089,0.19684308328530042,0.2064024948521085,0.6000886614227093,0.19684308328530042,0.49769706168444827,3,0,5,4,2,8,nan,nan,nan,nan,nan,nan,nan,nan,nan,nan,nan,nan,0.0,nan,nan,nan,nan,nan,nan,nan,nan,nan,nan,nan,nan,nan,nan,nan,nan,nan,nan,7834.431234013056,8200.124930293183,nan,8200.554803811654,nan,nan,nan,nan
1,253,1,1,1.0,1.0,0.46910747908987105,0,0.0,0.0,0.0,0.4033787178390776,0.19635934138698197,0.20701937645209562,0.5997380592260595,0.19635934138698197,0.4620028958500673,8,3,0,5,6,1,nan,nan,nan,nan,nan,nan,nan,nan,nan,nan,nan,nan,0.0,nan,nan,nan,nan,nan,nan,nan,nan,nan,nan,nan,nan,nan,nan,nan,nan,nan,nan,7834.431234013056,8201.141698417225,nan,8201.610805896315,nan,nan,nan,nan
1,254,1,1,1.0,1.0,0.619967567094136,0,0.0,0.0,0.0,0.4037057266015193,0.19592486332890607,0.20778086327261325,0.5996305899304254,0.19592486332890607,0.5063161882183825,6,7,1,3,8,2,nan,nan,nan,nan,nan,nan,nan,nan,nan,nan,nan,nan,0.0,nan,nan,nan,nan,nan,nan,nan,nan,nan,nan,nan,nan,nan,nan,nan,nan,nan,nan,7834.431234013056,8202.166835350508,nan,8202.786802917602,nan,nan,nan,nan
1,255,0,0,0.0,1.0,0.6271332566393539,0,0.0,0.0,0.0,0.40477632977227485,0.19602781449440737,0.20874851527786747,0.6008041442666823,0.19602781449440737,0.5720694342744537,0,6,7,1,3,5,nan,nan,nan,nan,nan,nan,nan,nan,nan,nan,nan,nan,0.0,nan,nan,nan,nan,nan,nan,nan,nan,nan,nan,nan,nan,nan,nan,nan,nan,nan,nan,7834.431234013056,8203.183667621925,nan,8203.810800878564,nan,nan,nan,nan
1,256,1,1,1.0,1.0,0.6420108862221241,0,0.0,0.0,0.0,0.4058716840918171,0.19616311778931128,0.20970856630250584,0.6020348018811283,0.19616311778931128,0.629703903318538,8,1,4,7,0,6,nan,nan,nan,nan,nan,nan,nan,nan,nan,nan,nan,nan,0.0,nan,nan,nan,nan,nan,nan,nan,nan,nan,nan,nan,nan,nan,nan,nan,nan,nan,nan,7834.431234013056,8204.208770058176,nan,8204.850780944398,nan,nan,nan,nan
1,257,1,1,nan,nan,nan,0,0.0,0.0,0.0,0.40702922920029905,0.19637551616875917,0.21065371303153987,0.6034047453690582,0.19637551616875917,0.634572071430739,0,7,6,5,2,1,nan,nan,nan,nan,nan,nan,nan,nan,nan,nan,nan,nan,0.0,nan,nan,nan,nan,nan,nan,nan,nan,nan,nan,nan,nan,nan,nan,nan,nan,nan,nan,7834.431234013056,8205.225608031586,nan,nan,nan,nan,nan,nan
1,258,1,1,1.0,1.0,0.7363209284667391,0,0.0,0.0,0.0,0.40702922920029905,0.19637551616875915,0.2106537130315399,0.6034047453690582,0.19637551616875915,0.6891659073444316,7,2,8,4,3,5,nan,nan,nan,nan,nan,nan,nan,nan,nan,nan,nan,nan,0.0,nan,nan,nan,nan,nan,nan,nan,nan,nan,nan,nan,nan,nan,nan,nan,nan,nan,nan,7834.431234013056,8206.242400674208,nan,8206.978721602674,nan,nan,nan,nan
1,259,1,1,1.0,1.0,0.6791775907331612,0,0.0,0.0,0.0,0.40863553017233045,0.19723486216778394,0.21140066800454652,0.6058703923401144,0.19723486216778394,0.7077492595999502,1,6,4,0,2,7,nan,nan,nan,nan,nan,nan,nan,nan,nan,nan,nan,nan,0.0,nan,nan,nan,nan,nan,nan,nan,nan,nan,nan,nan,nan,nan,nan,nan,nan,nan,nan,7834.431234013056,8207.267547300842,nan,8207.946724891575,nan,nan,nan,nan
1,260,1,1,1.0,1.0,0.5903833675256465,0,0.0,1.0,0.0,0.4099488411459267,0.19765204084839352,0.2122968002975332,0.6076008819943203,0.19765204084839352,0.6686272955751823,4,0,1,5,7,6,nan,nan,nan,nan,nan,nan,nan,nan,nan,nan,nan,nan,0.0,nan,nan,nan,nan,nan,nan,nan,nan,nan,nan,nan,nan,nan,nan,nan,nan,nan,nan,7834.431234013056,8208.28434364975,nan,8208.874727017275,nan,nan,nan,nan
1,261,0,0,1.0,0.0,0.637587853387231,0,0.0,0.0,0.0,0.4108205055245727,0.19757054834615612,0.2132499571784166,0.6083910538707289,0.19757054834615612,0.6357162705486795,2,5,7,6,8,4,nan,nan,nan,nan,nan,nan,nan,nan,nan,nan,nan,nan,0.0,nan,nan,nan,nan,nan,nan,nan,nan,nan,nan,nan,nan,nan,nan,nan,nan,nan,nan,7834.431234013056,8209.301143704943,nan,8209.93873155833,nan,nan,nan,nan
1,262,1,1,1.0,1.0,0.5724528930149972,0,0.0,0.0,0.0,0.4119107331585278,0.19771822617198864,0.21419250698653913,0.6096289593305164,0.19771822617198864,0.6001413713092916,7,1,4,0,6,3,nan,nan,nan,nan,nan,nan,nan,nan,nan,nan,nan,nan,0.0,nan,nan,nan,nan,nan,nan,nan,nan,nan,nan,nan,nan,nan,nan,nan,nan,nan,nan,7834.431234013056,8210.326233311702,nan,8210.898686204717,nan,nan,nan,nan
1,263,1,1,nan,nan,nan,0,0.0,0.0,0.0,0.4126788774640611,0.19755551376970587,0.21512336369435525,0.610234391233767,0.19755551376970587,0.6050203732011141,8,3,6,5,7,0,nan,nan,nan,nan,nan,nan,nan,nan,nan,nan,nan,nan,0.0,nan,nan,nan,nan,nan,nan,nan,nan,nan,nan,nan,nan,nan,nan,nan,nan,nan,nan,7834.431234013056,8211.343086965586,nan,nan,nan,nan,nan,nan
1,264,1,1,nan,nan,nan,0,0.0,0.0,0.0,0.4126788774640611,0.19755551376970587,0.21512336369435525,0.610234391233767,0.19755551376970587,0.5724528930149972,6,2,3,0,5,4,nan,nan,nan,nan,nan,nan,nan,nan,nan,nan,nan,nan,0.0,nan,nan,nan,nan,nan,nan,nan,nan,nan,nan,nan,nan,nan,nan,nan,nan,nan,nan,7834.431234013056,8212.359864783037,nan,nan,nan,nan,nan,nan
1,265,1,1,nan,nan,nan,0,0.0,0.0,0.0,0.4126788774640611,0.19755551376970587,0.21512336369435525,0.610234391233767,0.19755551376970587,nan,0,4,7,2,6,1,nan,nan,nan,nan,nan,nan,nan,nan,nan,nan,nan,nan,0.0,nan,nan,nan,nan,nan,nan,nan,nan,nan,nan,nan,nan,nan,nan,nan,nan,nan,nan,7834.431234013056,8213.384994873923,nan,nan,nan,nan,nan,nan
1,266,1,1,1.0,1.0,0.16886753938160837,0,0.0,0.0,0.0,0.4126788774640611,0.19755551376970587,0.21512336369435525,0.610234391233767,0.19755551376970587,0.16886753938160837,6,1,5,0,8,4,nan,nan,nan,nan,nan,nan,nan,nan,nan,nan,nan,nan,0.0,nan,nan,nan,nan,nan,nan,nan,nan,nan,nan,nan,nan,nan,nan,nan,nan,nan,nan,7834.431234013056,8214.401806903275,nan,8214.570674442657,nan,nan,nan,nan
1,267,1,1,1.0,1.0,0.040056757599813864,0,0.0,0.0,0.0,0.4115178710922399,0.19779800585698917,0.21371986523525074,0.6093158769492291,0.19779800585698917,0.10446214849071112,3,2,6,1,7,5,nan,nan,nan,nan,nan,nan,nan,nan,nan,nan,nan,nan,0.0,nan,nan,nan,nan,nan,nan,nan,nan,nan,nan,nan,nan,nan,nan,nan,nan,nan,nan,7834.431234013056,8215.418605818064,nan,8215.458662575664,nan,nan,nan,nan
1,268,1,1,1.0,1.0,0.16723448972334154,0,1.0,0.0,0.0,0.40975739188137533,0.1989710515594421,0.21078634032193322,0.6087284434408174,0.1989710515594421,0.12538626223492125,6,0,7,4,5,3,nan,nan,nan,nan,nan,nan,nan,nan,nan,nan,nan,nan,0.0,nan,nan,nan,nan,nan,nan,nan,nan,nan,nan,nan,nan,nan,nan,nan,nan,nan,nan,7834.431234013056,8216.435405873286,nan,8216.60264036301,nan,nan,nan,nan
1,269,1,1,1.0,1.0,0.20641827283543535,1,0.0,0.0,1.0,0.4086134159277997,0.19919555270834846,0.20941786321945124,0.6078089686361482,0.19919555270834846,0.13790317338619693,7,4,3,5,0,1,1.0,1.0,1.0,1.0,1.0,1.0,1.0,1.0,1.0,0.0,0.0,0.0,3.0,7.0,4.0,3.0,2.0,1.0,6.0,5.0,2.0,1.0,6.0,3.0,4.0,5.073892645217711,1.6023583996575326,1.0019349699432496,6.05790854463703,3.0997095406637527,4.058198775892379,7834.431234013056,8217.452212770848,8218.260661293869,8217.658631043683,8225.36992024057,8226.372493263101,8219.269091114373,8225.361587924097
1,270,1,1,1.0,1.0,0.7113630376406945,0,0.0,0.0,0.0,0.4076641429555351,0.19920747907090225,0.20845666388463285,0.6068716220264374,0.19920747907090225,0.3616719333998238,1,7,6,2,3,8,nan,nan,nan,nan,nan,nan,nan,nan,nan,nan,nan,nan,0.0,nan,nan,nan,nan,nan,nan,nan,nan,nan,nan,nan,nan,nan,nan,nan,nan,nan,nan,7834.431234013056,8226.595116588578,nan,8227.306479626219,nan,nan,nan,nan
1,271,1,1,nan,nan,nan,0,0.0,0.0,0.0,0.40908329666901716,0.19981782618019234,0.20926547048882482,0.6089011228492095,0.19981782618019234,0.45889065523806494,0,5,8,7,4,6,nan,nan,nan,nan,nan,nan,nan,nan,nan,nan,nan,nan,0.0,nan,nan,nan,nan,nan,nan,nan,nan,nan,nan,nan,nan,nan,nan,nan,nan,nan,nan,7834.431234013056,8227.611924911645,nan,nan,nan,nan,nan,nan
1,272,0,0,0.0,1.0,0.6934006320079789,0,0.0,0.0,0.0,0.40908329666901716,0.19981782618019234,0.20926547048882482,0.6089011228492095,0.19981782618019234,0.7023818348243367,1,4,7,3,0,8,nan,nan,nan,nan,nan,nan,nan,nan,nan,nan,nan,nan,0.0,nan,nan,nan,nan,nan,nan,nan,nan,nan,nan,nan,nan,nan,nan,nan,nan,nan,nan,7834.431234013056,8228.637039322057,nan,8229.330439954065,nan,nan,nan,nan
1,273,1,1,1.0,1.0,0.468265295290621,0,0.0,0.0,0.0,0.41040570287989603,0.20028901660688528,0.21011668627301075,0.6106947194867813,0.20028901660688528,0.5808329636492999,8,2,3,0,4,6,nan,nan,nan,nan,nan,nan,nan,nan,nan,nan,nan,nan,0.0,nan,nan,nan,nan,nan,nan,nan,nan,nan,nan,nan,nan,nan,nan,nan,nan,nan,nan,7834.431234013056,8229.66219763778,nan,8230.13046293307,nan,nan,nan,nan
1,274,1,1,1.0,1.0,0.3394616410078015,0,0.0,0.0,0.0,0.41067357136327903,0.19986344436453957,0.21081012699873947,0.6105370157278186,0.19986344436453957,0.5003758561021338,6,4,2,1,8,5,nan,nan,nan,nan,nan,nan,nan,nan,nan,nan,nan,nan,0.0,nan,nan,nan,nan,nan,nan,nan,nan,nan,nan,nan,nan,nan,nan,nan,nan,nan,nan,7834.431234013056,8230.679001684359,nan,8231.018463325367,nan,nan,nan,nan
1,275,1,1,1.0,1.0,0.14665144993341528,0,0.0,0.0,0.0,0.410345405785604,0.1994607175289476,0.21088468825665643,0.6098061233145516,0.1994607175289476,0.3181261287439459,3,7,4,6,1,2,nan,nan,nan,nan,nan,nan,nan,nan,nan,nan,nan,nan,0.0,nan,nan,nan,nan,nan,nan,nan,nan,nan,nan,nan,nan,nan,nan,nan,nan,nan,nan,7834.431234013056,8231.695795467385,nan,8231.842446917319,nan,nan,nan,nan
1,276,1,1,1.0,1.0,0.6818401344644371,0,0.0,0.0,0.0,0.40913580048352977,0.1997988544407258,0.20933694604280398,0.6089346549242556,0.1997988544407258,0.38931774180188466,5,8,0,3,6,7,nan,nan,nan,nan,nan,nan,nan,nan,nan,nan,nan,nan,0.0,nan,nan,nan,nan,nan,nan,nan,nan,nan,nan,nan,nan,nan,nan,nan,nan,nan,nan,7834.431234013056,8232.712576135818,nan,8233.394416270283,nan,nan,nan,nan
1,277,1,1,1.0,1.0,0.6890120962052606,0,0.0,0.0,0.0,0.41038102575284896,0.20018823337088776,0.2101927923819612,0.6105692591237367,0.20018823337088776,0.5058345602010377,2,0,6,4,8,1,nan,nan,nan,nan,nan,nan,nan,nan,nan,nan,nan,nan,0.0,nan,nan,nan,nan,nan,nan,nan,nan,nan,nan,nan,nan,nan,nan,nan,nan,nan,nan,7834.431234013056,8233.729410117841,nan,8234.418422214047,nan,nan,nan,nan
1,278,1,1,1.0,1.0,0.6402233126864303,0,0.0,1.0,0.0,0.41164753061854176,0.20061019856098794,0.21103733205755382,0.6122577291795297,0.20061019856098794,0.6703585144520426,7,4,2,0,3,6,nan,nan,nan,nan,nan,nan,nan,nan,nan,nan,nan,nan,0.0,nan,nan,nan,nan,nan,nan,nan,nan,nan,nan,nan,nan,nan,nan,nan,nan,nan,nan,7834.431234013056,8234.746174250497,nan,8235.386397563183,nan,nan,nan,nan
1,279,1,1,1.0,1.0,0.43141733200172894,1,0.0,0.0,1.0,0.41268181017541,0.2007428496842685,0.2119389604911415,0.6134246598596785,0.2007428496842685,0.5868842469644733,2,7,8,6,4,3,1.0,1.0,1.0,1.0,1.0,1.0,0.0,0.0,0.0,0.0,0.0,0.0,0.0,7.0,8.0,3.0,2.0,8.0,0.0,4.0,2.0,1.0,3.0,5.0,6.0,7.394611278316006,3.0746937746880576,1.8269161248754244,4.562141701288056,8.619073495210614,9.57810698528192,7834.431234013056,8235.762973735487,8236.571430241282,8236.194391067489,8247.206140871043,8248.212248271448,8237.58821689681,8247.197811690683
1,280,1,1,nan,nan,nan,0,0.0,0.0,0.0,0.41276620441787093,0.20029414522986783,0.2124720591880031,0.6130603496477387,0.20029414522986783,0.5358203223440796,3,2,6,5,8,4,nan,nan,nan,nan,nan,nan,nan,nan,nan,nan,nan,nan,0.0,nan,nan,nan,nan,nan,nan,nan,nan,nan,nan,nan,nan,nan,nan,nan,nan,nan,nan,7834.431234013056,8248.431344346522,nan,nan,nan,nan,nan,nan
