block,trial,freq_trials,correct_response,actual_response,acc,rts,probe_trials,trials_colorind0,trials_colorind1,trials_colorind2,trials_colorind3,trials_colorind4,trials_colorind5,wholereport_resp0,wholereport_resp1,wholereport_resp2,wholereport_resp3,wholereport_resp4,wholereport_resp5,wholereport_respacc0,wholereport_respacc1,wholereport_respacc2,wholereport_respacc3,wholereport_respacc4,wholereport_respacc5,wholereport_respacc_total,wholereport_respcolorind0,wholereport_respcolorind1,wholereport_respcolorind2,wholereport_respcolorind3,wholereport_respcolorind4,wholereport_respcolorind5,wholereport_resporder0,wholereport_resporder1,wholereport_resporder2,wholereport_resporder3,wholereport_resporder4,wholereport_resporder5,wholereport_rts0,wholereport_rts1,wholereport_rts2,wholereport_rts3,wholereport_rts4,wholereport_rts5,time_blockstart,time_encarray_offset,time_encarray_onset,time_response,time_iti_offset,time_iti_onset,time_memprobe_offset,time_memprobe_onset
1,1,1,1,nan,nan,nan,0.0,7,4,1,2,6,3,nan,nan,nan,nan,nan,nan,nan,nan,nan,nan,nan,nan,0.0,nan,nan,nan,nan,nan,nan,nan,nan,nan,nan,nan,nan,nan,nan,nan,nan,nan,nan,235.21304826049345,236.23764863659744,nan,nan,nan,nan,nan,nan
1,2,1,1,nan,nan,nan,0.0,1,2,8,0,3,7,nan,nan,nan,nan,nan,nan,nan,nan,nan,nan,nan,nan,0.0,nan,nan,nan,nan,nan,nan,nan,nan,nan,nan,nan,nan,nan,nan,nan,nan,nan,nan,235.21304826049345,237.24621102833044,nan,nan,nan,nan,nan,nan
1,3,1,1,nan,nan,nan,0.0,4,0,2,6,8,5,nan,nan,nan,nan,nan,nan,nan,nan,nan,nan,nan,nan,0.0,nan,nan,nan,nan,nan,nan,nan,nan,nan,nan,nan,nan,nan,nan,nan,nan,nan,nan,235.21304826049345,238.24633333599377,nan,nan,nan,nan,nan,nan
1,4,1,1,nan,nan,nan,0.0,7,6,3,2,0,1,nan,nan,nan,nan,nan,nan,nan,nan,nan,nan,nan,nan,0.0,nan,nan,nan,nan,nan,nan,nan,nan,nan,nan,nan,nan,nan,nan,nan,nan,nan,nan,235.21304826049345,239.2464211466231,nan,nan,nan,nan,nan,nan
1,5,0,0,0.0,1.0,0.5740711174876196,0.0,0,4,5,8,6,3,nan,nan,nan,nan,nan,nan,nan,nan,nan,nan,nan,nan,0.0,nan,nan,nan,nan,nan,nan,nan,nan,nan,nan,nan,nan,nan,nan,nan,nan,nan,nan,235.21304826049345,240.2549125485948,nan,240.82898366608242,nan,nan,nan,nan
1,6,1,1,1.0,1.0,0.5738989174205926,0.0,5,7,2,0,3,6,nan,nan,nan,nan,nan,nan,nan,nan,nan,nan,nan,nan,0.0,nan,nan,nan,nan,nan,nan,nan,nan,nan,nan,nan,nan,nan,nan,nan,nan,nan,nan,235.21304826049345,241.25504882613131,nan,241.8289477435519,nan,nan,nan,nan
1,7,1,1,1.0,1.0,0.4297420876337128,0.0,6,5,3,7,4,0,nan,nan,nan,nan,nan,nan,nan,nan,nan,nan,nan,nan,0.0,nan,nan,nan,nan,nan,nan,nan,nan,nan,nan,nan,nan,nan,nan,nan,nan,nan,nan,235.21304826049345,242.25519251625337,nan,242.6849346038871,nan,nan,nan,nan
1,8,1,1,1.0,1.0,0.3655890097579686,0.0,0,2,8,6,3,1,nan,nan,nan,nan,nan,nan,nan,nan,nan,nan,nan,nan,0.0,nan,nan,nan,nan,nan,nan,nan,nan,nan,nan,nan,nan,nan,nan,nan,nan,nan,nan,235.21304826049345,243.25533763187195,nan,243.62092664162992,nan,nan,nan,nan
1,9,1,1,1.0,1.0,0.2690916845604079,0.0,8,0,4,5,2,3,nan,nan,nan,nan,nan,nan,nan,nan,nan,nan,nan,nan,0.0,nan,nan,nan,nan,nan,nan,nan,nan,nan,nan,nan,nan,nan,nan,nan,nan,nan,nan,235.21304826049345,244.26382561265018,nan,244.5329172972106,nan,nan,nan,nan
1,10,1,1,1.0,1.0,0.25293966041317617,0.0,4,2,0,6,7,5,nan,nan,nan,nan,nan,nan,nan,nan,nan,nan,nan,nan,0.0,nan,nan,nan,nan,nan,nan,nan,nan,nan,nan,nan,nan,nan,nan,nan,nan,nan,nan,235.21304826049345,245.2639673070753,nan,245.51690696748847,nan,nan,nan,nan
1,11,1,1,1.0,1.0,0.2767791060869058,0.0,5,1,6,8,2,7,nan,nan,nan,nan,nan,nan,nan,nan,nan,nan,nan,nan,0.0,nan,nan,nan,nan,nan,nan,nan,nan,nan,nan,nan,nan,nan,nan,nan,nan,nan,nan,235.21304826049345,246.26409987831903,nan,246.54087898440594,nan,nan,nan,nan
1,12,1,1,1.0,1.0,0.38860793922140147,0.0,6,3,5,0,1,2,nan,nan,nan,nan,nan,nan,nan,nan,nan,nan,nan,nan,0.0,nan,nan,nan,nan,nan,nan,nan,nan,nan,nan,nan,nan,nan,nan,nan,nan,nan,nan,235.21304826049345,247.26426552109842,nan,247.65287346031982,nan,nan,nan,nan
1,13,1,1,1.0,1.0,0.2844551236357802,0.0,2,7,4,5,8,6,nan,nan,nan,nan,nan,nan,nan,nan,nan,nan,nan,nan,0.0,nan,nan,nan,nan,nan,nan,nan,nan,nan,nan,nan,nan,nan,nan,nan,nan,nan,nan,235.21304826049345,248.26439894764007,nan,248.54885407127585,nan,nan,nan,nan
1,14,0,0,1.0,0.0,0.2839901264360378,1.0,0,5,8,3,1,4,1.0,1.0,1.0,1.0,1.0,1.0,0.0,0.0,0.0,0.0,0.0,0.0,0.0,5.0,4.0,1.0,8.0,2.0,1.0,3.0,4.0,2.0,5.0,6.0,1.0,19.06882870883055,20.23786217608358,14.23687373629582,21.173060496961625,23.644726173382878,7.471347790537038,235.21304826049345,249.27286896715304,250.0812904057184,249.55685909358908,274.784807506554,275.79194924773583,251.09810671158266,274.77647889636864
1,15,1,1,1.0,1.0,0.7151719662851974,0.0,6,7,1,5,8,2,nan,nan,nan,nan,nan,nan,nan,nan,nan,nan,nan,nan,0.0,nan,nan,nan,nan,nan,nan,nan,nan,nan,nan,nan,nan,nan,nan,nan,nan,nan,nan,235.21304826049345,275.9933523361615,nan,276.7085243024467,nan,nan,nan,nan
1,16,1,1,1.0,1.0,0.39501326852769125,0.0,3,1,2,0,7,4,nan,nan,nan,nan,nan,nan,nan,nan,nan,nan,nan,nan,0.0,nan,nan,nan,nan,nan,nan,nan,nan,nan,nan,nan,nan,nan,nan,nan,nan,nan,nan,235.21304826049345,276.99350686006255,nan,277.38852012859024,nan,nan,nan,nan
1,17,1,1,1.0,1.0,0.41886554367920326,0.0,6,2,5,7,1,3,nan,nan,nan,nan,nan,nan,nan,nan,nan,nan,nan,nan,0.0,nan,nan,nan,nan,nan,nan,nan,nan,nan,nan,nan,nan,nan,nan,nan,nan,nan,nan,235.21304826049345,277.9936454183935,nan,278.4125109620727,nan,nan,nan,nan
1,18,1,1,1.0,1.0,0.4267157569902338,0.0,7,3,1,4,5,8,nan,nan,nan,nan,nan,nan,nan,nan,nan,nan,nan,nan,0.0,nan,nan,nan,nan,nan,nan,nan,nan,nan,nan,nan,nan,nan,nan,nan,nan,nan,nan,235.21304826049345,278.9937859724232,nan,279.42050172941344,nan,nan,nan,nan
1,19,1,1,1.0,1.0,0.3785636005541164,0.0,1,0,3,8,6,5,nan,nan,nan,nan,nan,nan,nan,nan,nan,nan,nan,nan,0.0,nan,nan,nan,nan,nan,nan,nan,nan,nan,nan,nan,nan,nan,nan,nan,nan,nan,nan,235.21304826049345,279.99392396055555,nan,280.37248756110966,nan,nan,nan,nan
1,20,1,1,1.0,1.0,0.546323528573339,0.0,8,5,4,3,7,0,nan,nan,nan,nan,nan,nan,nan,nan,nan,nan,nan,nan,0.0,nan,nan,nan,nan,nan,nan,nan,nan,nan,nan,nan,nan,nan,nan,nan,nan,nan,nan,235.21304826049345,280.994117257982,nan,281.54044078655534,nan,nan,nan,nan
1,21,1,1,1.0,1.0,0.38620597636872844,0.0,5,7,0,4,3,2,nan,nan,nan,nan,nan,nan,nan,nan,nan,nan,nan,nan,0.0,nan,nan,nan,nan,nan,nan,nan,nan,nan,nan,nan,nan,nan,nan,nan,nan,nan,nan,235.21304826049345,281.99422702126867,nan,282.3804329976374,nan,nan,nan,nan
1,22,1,1,1.0,1.0,0.4421193950856832,0.0,4,2,3,8,5,7,nan,nan,nan,nan,nan,nan,nan,nan,nan,nan,nan,nan,0.0,nan,nan,nan,nan,nan,nan,nan,nan,nan,nan,nan,nan,nan,nan,nan,nan,nan,nan,235.21304826049345,282.9943290868723,nan,283.436448481958,nan,nan,nan,nan
1,23,1,1,1.0,1.0,0.40992482497676974,0.0,5,1,7,2,3,6,nan,nan,nan,nan,nan,nan,nan,nan,nan,nan,nan,nan,0.0,nan,nan,nan,nan,nan,nan,nan,nan,nan,nan,nan,nan,nan,nan,nan,nan,nan,nan,235.21304826049345,283.9944944445524,nan,284.40441926952917,nan,nan,nan,nan
1,24,1,1,1.0,1.0,0.37779753833638097,0.0,4,7,6,5,1,2,nan,nan,nan,nan,nan,nan,nan,nan,nan,nan,nan,nan,0.0,nan,nan,nan,nan,nan,nan,nan,nan,nan,nan,nan,nan,nan,nan,nan,nan,nan,nan,235.21304826049345,284.9946204585085,nan,285.3724179968449,nan,nan,nan,nan
1,25,1,1,1.0,1.0,0.41760911041092186,0.0,2,5,0,6,4,8,nan,nan,nan,nan,nan,nan,nan,nan,nan,nan,nan,nan,0.0,nan,nan,nan,nan,nan,nan,nan,nan,nan,nan,nan,nan,nan,nan,nan,nan,nan,nan,235.21304826049345,285.9947918032758,nan,286.4124009136867,nan,nan,nan,nan
1,26,1,1,1.0,1.0,0.3294412506966182,0.0,3,7,5,1,2,4,nan,nan,nan,nan,nan,nan,nan,nan,nan,nan,nan,nan,0.0,nan,nan,nan,nan,nan,nan,nan,nan,nan,nan,nan,nan,nan,nan,nan,nan,nan,nan,235.21304826049345,286.9949511738687,nan,287.3243924245653,nan,nan,nan,nan
1,27,1,1,1.0,1.0,0.32130764853536675,0.0,5,2,3,4,8,6,nan,nan,nan,nan,nan,nan,nan,nan,nan,nan,nan,nan,0.0,nan,nan,nan,nan,nan,nan,nan,nan,nan,nan,nan,nan,nan,nan,nan,nan,nan,nan,235.21304826049345,287.99508032391714,nan,288.3163879724525,nan,nan,nan,nan
1,28,1,1,1.0,1.0,0.2891541327444429,0.0,1,7,2,3,6,4,nan,nan,nan,nan,nan,nan,nan,nan,nan,nan,nan,nan,0.0,nan,nan,nan,nan,nan,nan,nan,nan,nan,nan,nan,nan,nan,nan,nan,nan,nan,nan,235.21304826049345,288.99522686503406,nan,289.2843809977785,nan,nan,nan,nan
1,29,1,1,1.0,1.0,0.2729901344191603,0.0,0,1,4,2,3,8,nan,nan,nan,nan,nan,nan,nan,nan,nan,nan,nan,nan,0.0,nan,nan,nan,nan,nan,nan,nan,nan,nan,nan,nan,nan,nan,nan,nan,nan,nan,nan,235.21304826049345,289.9953696998582,nan,290.26835983427736,nan,nan,nan,nan
1,30,0,0,1.0,0.0,0.24883565385243855,0.0,5,4,3,6,8,2,nan,nan,nan,nan,nan,nan,nan,nan,nan,nan,nan,nan,0.0,nan,nan,nan,nan,nan,nan,nan,nan,nan,nan,nan,nan,nan,nan,nan,nan,nan,nan,235.21304826049345,290.99551367507956,nan,291.244349328932,nan,nan,nan,nan
1,31,1,1,1.0,1.0,0.4406827789680392,0.0,2,8,0,3,1,7,nan,nan,nan,nan,nan,nan,nan,nan,nan,nan,nan,nan,0.0,nan,nan,nan,nan,nan,nan,nan,nan,nan,nan,nan,nan,nan,nan,nan,nan,nan,nan,235.21304826049345,291.99565907579745,nan,292.4363418547655,nan,nan,nan,nan
1,32,1,1,1.0,1.0,0.3445338452947908,0.0,7,3,4,2,0,5,nan,nan,nan,nan,nan,nan,nan,nan,nan,nan,nan,nan,0.0,nan,nan,nan,nan,nan,nan,nan,nan,nan,nan,nan,nan,nan,nan,nan,nan,nan,nan,235.21304826049345,292.99578908114745,nan,293.34032292644224,nan,nan,nan,nan
1,33,0,0,0.0,1.0,0.49636726282915333,0.0,5,0,1,6,8,3,nan,nan,nan,nan,nan,nan,nan,nan,nan,nan,nan,nan,0.0,nan,nan,nan,nan,nan,nan,nan,nan,nan,nan,nan,nan,nan,nan,nan,nan,nan,nan,235.21304826049345,293.99594645604157,nan,294.4923137188707,nan,nan,nan,nan
1,34,1,1,1.0,1.0,0.3922252810207283,0.0,0,1,7,5,3,4,nan,nan,nan,nan,nan,nan,nan,nan,nan,nan,nan,nan,0.0,nan,nan,nan,nan,nan,nan,nan,nan,nan,nan,nan,nan,nan,nan,nan,nan,nan,nan,235.21304826049345,294.99607646139157,nan,295.3883017424123,nan,nan,nan,nan
1,35,1,1,1.0,1.0,0.44805887189613713,0.0,4,0,3,1,6,7,nan,nan,nan,nan,nan,nan,nan,nan,nan,nan,nan,nan,0.0,nan,nan,nan,nan,nan,nan,nan,nan,nan,nan,nan,nan,nan,nan,nan,nan,nan,nan,235.21304826049345,295.99622300250667,nan,296.4442818744028,nan,nan,nan,nan
1,36,1,1,1.0,1.0,0.3439071967077325,0.0,7,1,5,2,3,0,nan,nan,nan,nan,nan,nan,nan,nan,nan,nan,nan,nan,0.0,nan,nan,nan,nan,nan,nan,nan,nan,nan,nan,nan,nan,nan,nan,nan,nan,nan,nan,235.21304826049345,296.996374960514,nan,297.34028215722174,nan,nan,nan,nan
1,37,1,1,1.0,1.0,0.39173890136407863,0.0,6,0,1,3,8,5,nan,nan,nan,nan,nan,nan,nan,nan,nan,nan,nan,nan,0.0,nan,nan,nan,nan,nan,nan,nan,nan,nan,nan,nan,nan,nan,nan,nan,nan,nan,nan,235.21304826049345,297.99651865063424,nan,298.3882575519983,nan,nan,nan,nan
1,38,1,1,1.0,1.0,0.575595259137117,0.0,8,5,0,1,4,3,nan,nan,nan,nan,nan,nan,nan,nan,nan,nan,nan,nan,0.0,nan,nan,nan,nan,nan,nan,nan,nan,nan,nan,nan,nan,nan,nan,nan,nan,nan,nan,235.21304826049345,298.9966517920784,nan,299.5722470512155,nan,nan,nan,nan
1,39,1,1,1.0,1.0,0.5514764160034247,0.0,1,7,6,0,3,8,nan,nan,nan,nan,nan,nan,nan,nan,nan,nan,nan,nan,0.0,nan,nan,nan,nan,nan,nan,nan,nan,nan,nan,nan,nan,nan,nan,nan,nan,nan,nan,235.21304826049345,299.9967675424541,nan,300.54824395845753,nan,nan,nan,nan
1,40,1,1,1.0,1.0,0.7272995266212092,0.0,0,4,7,5,1,2,nan,nan,nan,nan,nan,nan,nan,nan,nan,nan,nan,nan,0.0,nan,nan,nan,nan,nan,nan,nan,nan,nan,nan,nan,nan,nan,nan,nan,nan,nan,nan,235.21304826049345,300.99693546602794,nan,301.72423499264914,nan,nan,nan,nan
1,41,1,1,1.0,1.0,0.6791382470019016,0.0,4,3,2,0,7,6,nan,nan,nan,nan,nan,nan,nan,nan,nan,nan,nan,nan,0.0,nan,nan,nan,nan,nan,nan,nan,nan,nan,nan,nan,nan,nan,nan,nan,nan,nan,nan,235.21304826049345,301.9970834326432,nan,302.6762216796451,nan,nan,nan,nan
1,42,1,1,1.0,1.0,0.3909791113328538,0.0,3,1,5,7,0,8,nan,nan,nan,nan,nan,nan,nan,nan,nan,nan,nan,nan,0.0,nan,nan,nan,nan,nan,nan,nan,nan,nan,nan,nan,nan,nan,nan,nan,nan,nan,nan,235.21304826049345,302.9972245568697,nan,303.38820366820255,nan,nan,nan,nan
1,43,1,1,1.0,1.0,0.49481917282537324,0.0,8,6,2,5,1,7,nan,nan,nan,nan,nan,nan,nan,nan,nan,nan,nan,nan,0.0,nan,nan,nan,nan,nan,nan,nan,nan,nan,nan,nan,nan,nan,nan,nan,nan,nan,nan,235.21304826049345,303.9973671065927,nan,304.4921862794181,nan,nan,nan,nan
1,44,0,0,nan,nan,nan,0.0,7,0,1,8,5,4,nan,nan,nan,nan,nan,nan,nan,nan,nan,nan,nan,nan,0.0,nan,nan,nan,nan,nan,nan,nan,nan,nan,nan,nan,nan,nan,nan,nan,nan,nan,nan,235.21304826049345,304.9975281877814,nan,nan,nan,nan,nan,nan
1,45,1,1,nan,nan,nan,0.0,8,2,3,5,4,0,nan,nan,nan,nan,nan,nan,nan,nan,nan,nan,nan,nan,0.0,nan,nan,nan,nan,nan,nan,nan,nan,nan,nan,nan,nan,nan,nan,nan,nan,nan,nan,235.21304826049345,305.99764906994824,nan,nan,nan,nan,nan,nan
1,46,1,1,1.0,1.0,0.07836100888744113,0.0,5,4,0,1,3,6,nan,nan,nan,nan,nan,nan,nan,nan,nan,nan,nan,nan,0.0,nan,nan,nan,nan,nan,nan,nan,nan,nan,nan,nan,nan,nan,nan,nan,nan,nan,nan,235.21304826049345,306.9978127170307,nan,307.0761737259181,nan,nan,nan,nan
1,47,1,1,1.0,1.0,0.269871146454534,0.0,3,0,1,2,6,5,nan,nan,nan,nan,nan,nan,nan,nan,nan,nan,nan,nan,0.0,nan,nan,nan,nan,nan,nan,nan,nan,nan,nan,nan,nan,nan,nan,nan,nan,nan,nan,235.21304826049345,308.00627731965324,nan,308.27614846610777,nan,nan,nan,nan
1,48,1,1,1.0,1.0,0.3497180936647055,0.0,1,2,5,0,8,3,nan,nan,nan,nan,nan,nan,nan,nan,nan,nan,nan,nan,0.0,nan,nan,nan,nan,nan,nan,nan,nan,nan,nan,nan,nan,nan,nan,nan,nan,nan,nan,235.21304826049345,309.0064153077874,nan,309.3561334014521,nan,nan,nan,nan
1,49,1,1,1.0,1.0,0.3415405861869658,0.0,8,1,3,6,7,4,nan,nan,nan,nan,nan,nan,nan,nan,nan,nan,nan,nan,0.0,nan,nan,nan,nan,nan,nan,nan,nan,nan,nan,nan,nan,nan,nan,nan,nan,nan,nan,235.21304826049345,310.00658494195886,nan,310.34812552814583,nan,nan,nan,nan
1,50,1,1,1.0,1.0,0.30939106178993825,0.0,4,3,7,8,1,6,nan,nan,nan,nan,nan,nan,nan,nan,nan,nan,nan,nan,0.0,nan,nan,nan,nan,nan,nan,nan,nan,nan,nan,nan,nan,nan,nan,nan,nan,nan,nan,235.21304826049345,311.0067220747933,nan,311.3161131365832,nan,nan,nan,nan
1,51,1,1,1.0,1.0,0.29323818234297505,0.0,2,0,1,3,8,4,nan,nan,nan,nan,nan,nan,nan,nan,nan,nan,nan,nan,0.0,nan,nan,nan,nan,nan,nan,nan,nan,nan,nan,nan,nan,nan,nan,nan,nan,nan,nan,235.21304826049345,312.00686576491535,nan,312.3001039472583,nan,nan,nan,nan
1,52,1,1,1.0,1.0,0.22109975401508564,0.0,0,1,8,4,6,7,nan,nan,nan,nan,nan,nan,nan,nan,nan,nan,nan,nan,0.0,nan,nan,nan,nan,nan,nan,nan,nan,nan,nan,nan,nan,nan,nan,nan,nan,nan,nan,235.21304826049345,313.0069897831763,nan,313.2280895371914,nan,nan,nan,nan
1,53,1,1,1.0,1.0,0.2929342663301213,0.0,8,4,6,2,5,3,nan,nan,nan,nan,nan,nan,nan,nan,nan,nan,nan,nan,0.0,nan,nan,nan,nan,nan,nan,nan,nan,nan,nan,nan,nan,nan,nan,nan,nan,nan,nan,235.21304826049345,314.00714231138045,nan,314.30007657771057,nan,nan,nan,nan
1,54,1,1,1.0,1.0,0.22878147355368128,0.0,7,2,4,8,6,5,nan,nan,nan,nan,nan,nan,nan,nan,nan,nan,nan,nan,0.0,nan,nan,nan,nan,nan,nan,nan,nan,nan,nan,nan,nan,nan,nan,nan,nan,nan,nan,235.21304826049345,315.0072902779939,nan,315.23607175154757,nan,nan,nan,nan
1,55,1,1,1.0,1.0,0.2846210515144776,0.0,0,3,5,4,1,2,nan,nan,nan,nan,nan,nan,nan,nan,nan,nan,nan,nan,0.0,nan,nan,nan,nan,nan,nan,nan,nan,nan,nan,nan,nan,nan,nan,nan,nan,nan,nan,235.21304826049345,316.00742940652526,nan,316.29205045803974,nan,nan,nan,nan
1,56,1,1,1.0,1.0,0.2844733700003417,0.0,4,6,3,7,0,1,nan,nan,nan,nan,nan,nan,nan,nan,nan,nan,nan,nan,0.0,nan,nan,nan,nan,nan,nan,nan,nan,nan,nan,nan,nan,nan,nan,nan,nan,nan,nan,235.21304826049345,317.007561977769,nan,317.29203534776934,nan,nan,nan,nan
1,57,1,1,1.0,1.0,0.30830996468102967,0.0,2,1,0,4,3,7,nan,nan,nan,nan,nan,nan,nan,nan,nan,nan,nan,nan,0.0,nan,nan,nan,nan,nan,nan,nan,nan,nan,nan,nan,nan,nan,nan,nan,nan,nan,nan,235.21304826049345,318.00770538279176,nan,318.3160153474728,nan,nan,nan,nan
1,58,1,1,1.0,1.0,0.2841341016574006,0.0,1,5,2,8,6,0,nan,nan,nan,nan,nan,nan,nan,nan,nan,nan,nan,nan,0.0,nan,nan,nan,nan,nan,nan,nan,nan,nan,nan,nan,nan,nan,nan,nan,nan,nan,nan,235.21304826049345,319.00787615736044,nan,319.29201025901784,nan,nan,nan,nan
1,59,1,1,1.0,1.0,0.2920840997758205,0.0,8,4,5,6,1,7,nan,nan,nan,nan,nan,nan,nan,nan,nan,nan,nan,nan,0.0,nan,nan,nan,nan,nan,nan,nan,nan,nan,nan,nan,nan,nan,nan,nan,nan,nan,nan,235.21304826049345,320.0079847802499,nan,320.3000688800257,nan,nan,nan,nan
1,60,1,1,1.0,1.0,0.2998430812622246,0.0,6,2,0,8,4,3,nan,nan,nan,nan,nan,nan,nan,nan,nan,nan,nan,nan,0.0,nan,nan,nan,nan,nan,nan,nan,nan,nan,nan,nan,nan,nan,nan,nan,nan,nan,nan,235.21304826049345,321.00814785713555,nan,321.3079909383978,nan,nan,nan,nan
1,61,1,1,1.0,1.0,0.36369309842666553,0.0,8,7,3,5,0,6,nan,nan,nan,nan,nan,nan,nan,nan,nan,nan,nan,nan,0.0,nan,nan,nan,nan,nan,nan,nan,nan,nan,nan,nan,nan,nan,nan,nan,nan,nan,nan,235.21304826049345,322.0082821389751,nan,322.3719752374018,nan,nan,nan,nan
1,62,1,1,1.0,1.0,0.3475214024147135,0.0,1,3,0,4,2,5,nan,nan,nan,nan,nan,nan,nan,nan,nan,nan,nan,nan,0.0,nan,nan,nan,nan,nan,nan,nan,nan,nan,nan,nan,nan,nan,nan,nan,nan,nan,nan,235.21304826049345,323.008446356258,nan,323.3559677586727,nan,nan,nan,nan
1,63,1,1,1.0,1.0,0.29938720724567247,0.0,0,6,5,8,7,2,nan,nan,nan,nan,nan,nan,nan,nan,nan,nan,nan,nan,0.0,nan,nan,nan,nan,nan,nan,nan,nan,nan,nan,nan,nan,nan,nan,nan,nan,nan,nan,235.21304826049345,324.0085669533237,nan,324.30795416056935,nan,nan,nan,nan
1,64,1,1,1.0,1.0,0.3232243721249688,0.0,3,7,1,0,8,5,nan,nan,nan,nan,nan,nan,nan,nan,nan,nan,nan,nan,0.0,nan,nan,nan,nan,nan,nan,nan,nan,nan,nan,nan,nan,nan,nan,nan,nan,nan,nan,235.21304826049345,325.0087134944406,nan,325.33193786656557,nan,nan,nan,nan
1,65,1,1,1.0,1.0,0.34706923469093454,0.0,1,3,4,6,0,8,nan,nan,nan,nan,nan,nan,nan,nan,nan,nan,nan,nan,0.0,nan,nan,nan,nan,nan,nan,nan,nan,nan,nan,nan,nan,nan,nan,nan,nan,nan,nan,235.21304826049345,326.00886260145126,nan,326.3559318361422,nan,nan,nan,nan
1,66,1,1,1.0,1.0,0.3148595543098054,0.0,0,6,2,5,1,3,nan,nan,nan,nan,nan,nan,nan,nan,nan,nan,nan,nan,0.0,nan,nan,nan,nan,nan,nan,nan,nan,nan,nan,nan,nan,nan,nan,nan,nan,nan,nan,235.21304826049345,327.00904763099425,nan,327.32390718530405,nan,nan,nan,nan
1,67,1,1,1.0,1.0,0.27474406622422975,0.0,8,2,7,4,3,0,nan,nan,nan,nan,nan,nan,nan,nan,nan,nan,nan,nan,0.0,nan,nan,nan,nan,nan,nan,nan,nan,nan,nan,nan,nan,nan,nan,nan,nan,nan,nan,235.21304826049345,328.0091696535583,nan,328.2839137197825,nan,nan,nan,nan
1,68,1,1,1.0,1.0,0.35461952338118863,0.0,1,8,6,3,0,4,nan,nan,nan,nan,nan,nan,nan,nan,nan,nan,nan,nan,0.0,nan,nan,nan,nan,nan,nan,nan,nan,nan,nan,nan,nan,nan,nan,nan,nan,nan,nan,235.21304826049345,329.0092808423433,nan,329.3639003657245,nan,nan,nan,nan
1,69,0,0,0.0,1.0,0.4984393656195607,1.0,5,4,1,0,6,8,1.0,1.0,1.0,1.0,1.0,1.0,0.0,0.0,0.0,0.0,0.0,0.0,0.0,8.0,1.0,3.0,4.0,8.0,1.0,6.0,5.0,4.0,3.0,1.0,2.0,13.219069560844218,11.65075260552294,10.955434964824235,10.492847995237753,5.075438169342306,7.291079979517235,235.21304826049345,330.00943992783505,330.81785309851693,330.5078792934546,345.1032231062836,346.10038921776686,331.84300742284904,345.094897061992
1,70,1,1,1.0,1.0,0.5082405144548829,0.0,0,1,7,3,4,5,nan,nan,nan,nan,nan,nan,nan,nan,nan,nan,nan,nan,0.0,nan,nan,nan,nan,nan,nan,nan,nan,nan,nan,nan,nan,nan,nan,nan,nan,nan,nan,235.21304826049345,346.30343932570577,nan,346.81167984016065,nan,nan,nan,nan
1,71,1,1,1.0,1.0,0.3397524424472067,0.0,4,7,0,8,1,2,nan,nan,nan,nan,nan,nan,nan,nan,nan,nan,nan,nan,0.0,nan,nan,nan,nan,nan,nan,nan,nan,nan,nan,nan,nan,nan,nan,nan,nan,nan,nan,235.21304826049345,347.3119082048197,nan,347.6516606472669,nan,nan,nan,nan
1,72,1,1,1.0,1.0,0.3396084672258439,0.0,0,6,8,1,5,3,nan,nan,nan,nan,nan,nan,nan,nan,nan,nan,nan,nan,0.0,nan,nan,nan,nan,nan,nan,nan,nan,nan,nan,nan,nan,nan,nan,nan,nan,nan,nan,235.21304826049345,348.3120487588476,nan,348.65165722607344,nan,nan,nan,nan
1,73,1,1,1.0,1.0,0.3631154869453894,0.0,5,0,1,7,2,6,nan,nan,nan,nan,nan,nan,nan,nan,nan,nan,nan,nan,0.0,nan,nan,nan,nan,nan,nan,nan,nan,nan,nan,nan,nan,nan,nan,nan,nan,nan,nan,235.21304826049345,349.32052847174054,nan,349.68364395868593,nan,nan,nan,nan
1,74,1,1,1.0,1.0,0.22662469622628123,0.0,2,8,6,5,3,1,nan,nan,nan,nan,nan,nan,nan,nan,nan,nan,nan,nan,0.0,nan,nan,nan,nan,nan,nan,nan,nan,nan,nan,nan,nan,nan,nan,nan,nan,nan,nan,235.21304826049345,350.32900961013183,nan,350.5556343063581,nan,nan,nan,nan
1,75,1,1,1.0,1.0,0.24247251926499302,0.0,6,2,4,8,1,5,nan,nan,nan,nan,nan,nan,nan,nan,nan,nan,nan,nan,0.0,nan,nan,nan,nan,nan,nan,nan,nan,nan,nan,nan,nan,nan,nan,nan,nan,nan,nan,235.21304826049345,351.3291578618446,nan,351.57163038110957,nan,nan,nan,nan
1,76,1,1,1.0,1.0,0.2423242675504298,0.0,5,0,8,3,2,6,nan,nan,nan,nan,nan,nan,nan,nan,nan,nan,nan,nan,0.0,nan,nan,nan,nan,nan,nan,nan,nan,nan,nan,nan,nan,nan,nan,nan,nan,nan,nan,235.21304826049345,352.329290147989,nan,352.57161441553944,nan,nan,nan,nan
1,77,1,1,1.0,1.0,0.3138340515924938,0.0,0,7,3,2,1,5,nan,nan,nan,nan,nan,nan,nan,nan,nan,nan,nan,nan,0.0,nan,nan,nan,nan,nan,nan,nan,nan,nan,nan,nan,nan,nan,nan,nan,nan,nan,nan,235.21304826049345,353.33776387379476,nan,353.65159792538725,nan,nan,nan,nan
1,78,1,1,1.0,1.0,0.3296881468195352,0.0,7,4,6,0,3,2,nan,nan,nan,nan,nan,nan,nan,nan,nan,nan,nan,nan,0.0,nan,nan,nan,nan,nan,nan,nan,nan,nan,nan,nan,nan,nan,nan,nan,nan,nan,nan,235.21304826049345,354.33793635895927,nan,354.6676245057788,nan,nan,nan,nan
1,79,1,1,1.0,1.0,0.3051986744012538,0.0,5,0,4,8,1,7,nan,nan,nan,nan,nan,nan,nan,nan,nan,nan,nan,nan,0.0,nan,nan,nan,nan,nan,nan,nan,nan,nan,nan,nan,nan,nan,nan,nan,nan,nan,nan,235.21304826049345,355.34637644303075,nan,355.651575117432,nan,nan,nan,nan
1,80,1,1,1.0,1.0,0.3050361677160254,0.0,6,4,2,7,0,3,nan,nan,nan,nan,nan,nan,nan,nan,nan,nan,nan,nan,0.0,nan,nan,nan,nan,nan,nan,nan,nan,nan,nan,nan,nan,nan,nan,nan,nan,nan,nan,235.21304826049345,356.3465235543463,nan,356.6515597220623,nan,nan,nan,nan
1,81,1,1,1.0,1.0,0.30484030439401977,0.0,4,6,1,3,5,0,nan,nan,nan,nan,nan,nan,nan,nan,nan,nan,nan,nan,0.0,nan,nan,nan,nan,nan,nan,nan,nan,nan,nan,nan,nan,nan,nan,nan,nan,nan,nan,235.21304826049345,357.3467216984627,nan,357.65156200285674,nan,nan,nan,nan
1,82,1,1,1.0,1.0,0.21668726985444664,0.0,5,0,8,2,4,7,nan,nan,nan,nan,nan,nan,nan,nan,nan,nan,nan,nan,0.0,nan,nan,nan,nan,nan,nan,nan,nan,nan,nan,nan,nan,nan,nan,nan,nan,nan,nan,235.21304826049345,358.34688591574377,nan,358.5635731855982,nan,nan,nan,nan
1,83,0,0,1.0,0.0,0.16055375436008035,1.0,7,1,3,8,6,2,1.0,1.0,1.0,1.0,1.0,1.0,0.0,0.0,0.0,0.0,0.0,0.0,0.0,8.0,4.0,6.0,3.0,4.0,0.0,4.0,3.0,2.0,1.0,6.0,5.0,10.065564890344831,9.490303767761361,8.7719264283769,3.8764892169692757,20.113123469729544,12.265397365908939,235.21304826049345,359.34697059028076,360.15539288414584,359.50752434464084,381.3250655443626,382.32318930489237,361.1722051986162,381.316739500071
1,84,1,1,1.0,1.0,0.7499900215188973,0.0,6,7,8,4,2,5,nan,nan,nan,nan,nan,nan,nan,nan,nan,nan,nan,nan,0.0,nan,nan,nan,nan,nan,nan,nan,nan,nan,nan,nan,nan,nan,nan,nan,nan,nan,nan,235.21304826049345,382.5252706449064,nan,383.2752606664253,nan,nan,nan,nan
1,85,0,0,0.0,1.0,0.5578016323670454,0.0,4,5,0,1,7,3,nan,nan,nan,nan,nan,nan,nan,nan,nan,nan,nan,nan,0.0,nan,nan,nan,nan,nan,nan,nan,nan,nan,nan,nan,nan,nan,nan,nan,nan,nan,nan,235.21304826049345,383.52542801980053,nan,384.0832296521676,nan,nan,nan,nan
1,86,1,1,1.0,1.0,0.49365197568295116,0.0,2,4,7,5,8,0,nan,nan,nan,nan,nan,nan,nan,nan,nan,nan,nan,nan,0.0,nan,nan,nan,nan,nan,nan,nan,nan,nan,nan,nan,nan,nan,nan,nan,nan,nan,nan,235.21304826049345,384.5255685738284,nan,385.0192205495114,nan,nan,nan,nan
1,87,1,1,1.0,1.0,0.4215295129251899,0.0,8,2,3,7,1,5,nan,nan,nan,nan,nan,nan,nan,nan,nan,nan,nan,nan,0.0,nan,nan,nan,nan,nan,nan,nan,nan,nan,nan,nan,nan,nan,nan,nan,nan,nan,nan,235.21304826049345,385.52569002619384,nan,385.94721953911903,nan,nan,nan,nan
1,88,1,1,1.0,1.0,0.3813504476638627,0.0,1,7,5,2,0,4,nan,nan,nan,nan,nan,nan,nan,nan,nan,nan,nan,nan,0.0,nan,nan,nan,nan,nan,nan,nan,nan,nan,nan,nan,nan,nan,nan,nan,nan,nan,nan,235.21304826049345,386.52585196268046,nan,386.9072024103443,nan,nan,nan,nan
1,89,1,1,1.0,1.0,0.32520039640075993,0.0,5,6,1,8,4,3,nan,nan,nan,nan,nan,nan,nan,nan,nan,nan,nan,nan,0.0,nan,nan,nan,nan,nan,nan,nan,nan,nan,nan,nan,nan,nan,nan,nan,nan,nan,nan,235.21304826049345,387.52599650810225,nan,387.851196904503,nan,nan,nan,nan
1,90,1,1,1.0,1.0,0.29304374451930926,0.0,7,4,6,1,3,8,nan,nan,nan,nan,nan,nan,nan,nan,nan,nan,nan,nan,0.0,nan,nan,nan,nan,nan,nan,nan,nan,nan,nan,nan,nan,nan,nan,nan,nan,nan,nan,235.21304826049345,388.52614219391944,nan,388.81918593843875,nan,nan,nan,nan
1,91,1,1,1.0,1.0,0.24487932880765584,0.0,2,5,8,6,4,1,nan,nan,nan,nan,nan,nan,nan,nan,nan,nan,nan,nan,0.0,nan,nan,nan,nan,nan,nan,nan,nan,nan,nan,nan,nan,nan,nan,nan,nan,nan,nan,235.21304826049345,389.5262818926494,nan,389.7711612214571,nan,nan,nan,nan
1,92,1,1,1.0,1.0,0.2604072702652047,0.0,6,8,5,7,0,3,nan,nan,nan,nan,nan,nan,nan,nan,nan,nan,nan,nan,0.0,nan,nan,nan,nan,nan,nan,nan,nan,nan,nan,nan,nan,nan,nan,nan,nan,nan,nan,235.21304826049345,390.5347519121606,nan,390.7951591824258,nan,nan,nan,nan
1,93,1,1,1.0,1.0,0.29224660646104894,0.0,7,3,2,1,8,4,nan,nan,nan,nan,nan,nan,nan,nan,nan,nan,nan,nan,0.0,nan,nan,nan,nan,nan,nan,nan,nan,nan,nan,nan,nan,nan,nan,nan,nan,nan,nan,235.21304826049345,391.53488990029473,nan,391.8271365067558,nan,nan,nan,nan
1,94,1,1,1.0,1.0,0.13208058735108352,0.0,5,0,7,6,1,3,nan,nan,nan,nan,nan,nan,nan,nan,nan,nan,nan,nan,0.0,nan,nan,nan,nan,nan,nan,nan,nan,nan,nan,nan,nan,nan,nan,nan,nan,nan,nan,235.21304826049345,392.5350461347916,nan,392.6671267221427,nan,nan,nan,nan
1,95,1,1,1.0,1.0,0.2359252104324696,0.0,8,3,0,5,4,6,nan,nan,nan,nan,nan,nan,nan,nan,nan,nan,nan,nan,0.0,nan,nan,nan,nan,nan,nan,nan,nan,nan,nan,nan,nan,nan,nan,nan,nan,nan,nan,235.21304826049345,393.5351846931244,nan,393.77110990355686,nan,nan,nan,nan
1,96,0,0,1.0,0.0,0.2597680772996682,1.0,3,2,6,7,0,5,1.0,1.0,1.0,1.0,1.0,1.0,0.0,1.0,0.0,0.0,0.0,0.0,1.0,5.0,2.0,4.0,8.0,3.0,2.0,3.0,2.0,1.0,6.0,5.0,4.0,3.149091616138321,2.589356724412937,1.2875555801383598,4.317070500532282,3.9176019829246798,3.5816436439363315,235.21304826049345,394.53532866834576,395.343746115519,394.7950967456454,400.7195465322202,401.7293753357044,396.3605629915819,400.71117658261574
1,97,1,1,1.0,1.0,0.41062788021736196,0.0,1,0,3,6,2,8,nan,nan,nan,nan,nan,nan,nan,nan,nan,nan,nan,nan,0.0,nan,nan,nan,nan,nan,nan,nan,nan,nan,nan,nan,nan,nan,nan,nan,nan,nan,nan,235.21304826049345,401.9364022958489,nan,402.34703017606626,nan,nan,nan,nan
1,98,0,0,0.0,1.0,0.44248774357402,0.0,2,6,8,4,1,0,nan,nan,nan,nan,nan,nan,nan,nan,nan,nan,nan,nan,0.0,nan,nan,nan,nan,nan,nan,nan,nan,nan,nan,nan,nan,nan,nan,nan,nan,nan,nan,235.21304826049345,402.9365183313239,nan,403.3790060748979,nan,nan,nan,nan
1,99,1,1,1.0,1.0,0.45032655290742696,0.0,8,7,1,6,5,4,nan,nan,nan,nan,nan,nan,nan,nan,nan,nan,nan,nan,0.0,nan,nan,nan,nan,nan,nan,nan,nan,nan,nan,nan,nan,nan,nan,nan,nan,nan,nan,235.21304826049345,403.93666173634665,nan,404.3869882892541,nan,nan,nan,nan
1,100,1,1,1.0,1.0,0.3941736506531015,0.0,4,2,5,7,1,3,nan,nan,nan,nan,nan,nan,nan,nan,nan,nan,nan,nan,0.0,nan,nan,nan,nan,nan,nan,nan,nan,nan,nan,nan,nan,nan,nan,nan,nan,nan,nan,235.21304826049345,404.93680371587106,nan,405.33097736652417,nan,nan,nan,nan
1,101,1,1,1.0,1.0,0.44199423642930924,0.0,6,8,7,1,5,4,nan,nan,nan,nan,nan,nan,nan,nan,nan,nan,nan,nan,0.0,nan,nan,nan,nan,nan,nan,nan,nan,nan,nan,nan,nan,nan,nan,nan,nan,nan,nan,235.21304826049345,405.9369596652705,nan,406.3789539016998,nan,nan,nan,nan
1,102,1,1,1.0,1.0,0.4898644295099075,0.0,7,4,6,3,1,8,nan,nan,nan,nan,nan,nan,nan,nan,nan,nan,nan,nan,0.0,nan,nan,nan,nan,nan,nan,nan,nan,nan,nan,nan,nan,nan,nan,nan,nan,nan,nan,235.21304826049345,406.93708910042005,nan,407.42695352992996,nan,nan,nan,nan
1,103,1,1,1.0,1.0,0.3296775981398241,0.0,0,6,7,2,5,1,nan,nan,nan,nan,nan,nan,nan,nan,nan,nan,nan,nan,0.0,nan,nan,nan,nan,nan,nan,nan,nan,nan,nan,nan,nan,nan,nan,nan,nan,nan,nan,235.21304826049345,407.93725958988944,nan,408.26693718802926,nan,nan,nan,nan
1,104,1,1,1.0,1.0,0.32156594863408827,0.0,8,1,2,3,6,4,nan,nan,nan,nan,nan,nan,nan,nan,nan,nan,nan,nan,0.0,nan,nan,nan,nan,nan,nan,nan,nan,nan,nan,nan,nan,nan,nan,nan,nan,nan,nan,235.21304826049345,408.93736992337654,nan,409.2589358720106,nan,nan,nan,nan
1,105,0,0,0.0,1.0,0.48139070370598347,1.0,3,5,1,0,2,7,1.0,1.0,1.0,1.0,1.0,1.0,0.0,0.0,0.0,0.0,0.0,0.0,0.0,5.0,6.0,6.0,3.0,5.0,5.0,5.0,6.0,1.0,2.0,3.0,4.0,6.299460192703918,7.010578044832073,2.6198726289694605,4.036302568061728,5.443111541168037,5.908007246087436,235.21304826049345,409.9375198856851,410.7459430348481,410.4189105893911,418.80542447316475,419.8095712446411,411.7544298752291,418.79709301198454
1,106,1,1,1.0,1.0,0.5648598394091096,0.0,6,1,2,4,7,5,nan,nan,nan,nan,nan,nan,nan,nan,nan,nan,nan,nan,0.0,nan,nan,nan,nan,nan,nan,nan,nan,nan,nan,nan,nan,nan,nan,nan,nan,nan,nan,235.21304826049345,420.01396017958905,nan,420.57882001899816,nan,nan,nan,nan
1,107,1,1,1.0,1.0,0.30864809262857307,0.0,1,8,3,5,6,7,nan,nan,nan,nan,nan,nan,nan,nan,nan,nan,nan,nan,0.0,nan,nan,nan,nan,nan,nan,nan,nan,nan,nan,nan,nan,nan,nan,nan,nan,nan,nan,235.21304826049345,421.0141192650808,nan,421.3227673577094,nan,nan,nan,nan
1,108,1,1,1.0,1.0,0.34050282419593714,0.0,3,5,0,1,7,8,nan,nan,nan,nan,nan,nan,nan,nan,nan,nan,nan,nan,0.0,nan,nan,nan,nan,nan,nan,nan,nan,nan,nan,nan,nan,nan,nan,nan,nan,nan,nan,235.21304826049345,422.0142583936122,nan,422.3547612178081,nan,nan,nan,nan
1,109,0,0,0.0,1.0,0.4443565704586945,1.0,4,2,3,7,6,0,1.0,1.0,1.0,1.0,1.0,1.0,0.0,0.0,0.0,0.0,0.0,1.0,1.0,8.0,7.0,5.0,6.0,4.0,0.0,6.0,2.0,3.0,4.0,5.0,1.0,9.796693017458892,5.917294075519749,6.805145645903394,7.413775948325565,8.597253408934193,3.231355351374077,235.21304826049345,423.014399802938,423.8228178203117,423.4587563733967,434.6826922967266,435.69019098241733,424.847973285041,434.6743656822364
1,110,1,1,nan,nan,nan,0.0,1,6,2,5,4,8,nan,nan,nan,nan,nan,nan,nan,nan,nan,nan,nan,nan,0.0,nan,nan,nan,nan,nan,nan,nan,nan,nan,nan,nan,nan,nan,nan,nan,nan,nan,nan,235.21304826049345,435.8912277180516,nan,nan,nan,nan,nan,nan
1,111,1,1,1.0,1.0,0.703212044425527,0.0,3,4,7,6,0,5,nan,nan,nan,nan,nan,nan,nan,nan,nan,nan,nan,nan,0.0,nan,nan,nan,nan,nan,nan,nan,nan,nan,nan,nan,nan,nan,nan,nan,nan,nan,nan,235.21304826049345,436.8913845227489,nan,437.59459656717445,nan,nan,nan,nan
1,112,1,1,1.0,1.0,0.33505999062617775,0.0,5,2,0,7,3,8,nan,nan,nan,nan,nan,nan,nan,nan,nan,nan,nan,nan,0.0,nan,nan,nan,nan,nan,nan,nan,nan,nan,nan,nan,nan,nan,nan,nan,nan,nan,nan,235.21304826049345,437.89151253240016,nan,438.22657252302633,nan,nan,nan,nan
1,113,0,0,1.0,0.0,0.26295463383576134,0.0,0,5,2,3,1,4,nan,nan,nan,nan,nan,nan,nan,nan,nan,nan,nan,nan,0.0,nan,nan,nan,nan,nan,nan,nan,nan,nan,nan,nan,nan,nan,nan,nan,nan,nan,nan,235.21304826049345,438.89162258078795,nan,439.1545772146237,nan,nan,nan,nan
1,114,1,1,1.0,1.0,0.5187467142295645,0.0,7,0,8,1,3,6,nan,nan,nan,nan,nan,nan,nan,nan,nan,nan,nan,nan,0.0,nan,nan,nan,nan,nan,nan,nan,nan,nan,nan,nan,nan,nan,nan,nan,nan,nan,nan,235.21304826049345,439.89179905734636,nan,440.4105457715759,nan,nan,nan,nan
1,115,1,1,1.0,1.0,0.3742469098087895,0.0,2,1,0,6,7,8,nan,nan,nan,nan,nan,nan,nan,nan,nan,nan,nan,nan,0.0,nan,nan,nan,nan,nan,nan,nan,nan,nan,nan,nan,nan,nan,nan,nan,nan,nan,nan,235.21304826049345,440.90028618282486,nan,441.27453309263365,nan,nan,nan,nan
1,116,1,1,1.0,1.0,0.4381659210375801,0.0,5,7,4,0,8,2,nan,nan,nan,nan,nan,nan,nan,nan,nan,nan,nan,nan,0.0,nan,nan,nan,nan,nan,nan,nan,nan,nan,nan,nan,nan,nan,nan,nan,nan,nan,nan,235.21304826049345,441.90042246036137,nan,442.33858838139895,nan,nan,nan,nan
1,117,1,1,1.0,1.0,0.46995536482972966,0.0,0,3,5,1,4,8,nan,nan,nan,nan,nan,nan,nan,nan,nan,nan,nan,nan,0.0,nan,nan,nan,nan,nan,nan,nan,nan,nan,nan,nan,nan,nan,nan,nan,nan,nan,nan,235.21304826049345,442.9005652951855,nan,443.37052066001525,nan,nan,nan,nan
1,118,1,1,1.0,1.0,0.38180632168223383,0.0,5,4,1,7,2,3,nan,nan,nan,nan,nan,nan,nan,nan,nan,nan,nan,nan,0.0,nan,nan,nan,nan,nan,nan,nan,nan,nan,nan,nan,nan,nan,nan,nan,nan,nan,nan,235.21304826049345,443.9007061343127,nan,444.28251245599495,nan,nan,nan,nan
1,119,1,1,1.0,1.0,0.6056470217936294,0.0,8,1,3,0,5,2,nan,nan,nan,nan,nan,nan,nan,nan,nan,nan,nan,nan,0.0,nan,nan,nan,nan,nan,nan,nan,nan,nan,nan,nan,nan,nan,nan,nan,nan,nan,nan,235.21304826049345,444.90084896913686,nan,445.5064959909305,nan,nan,nan,nan
1,120,1,1,1.0,1.0,0.4214870331052225,0.0,7,8,1,4,2,0,nan,nan,nan,nan,nan,nan,nan,nan,nan,nan,nan,nan,0.0,nan,nan,nan,nan,nan,nan,nan,nan,nan,nan,nan,nan,nan,nan,nan,nan,nan,nan,235.21304826049345,445.9009912337624,nan,446.3224782668676,nan,nan,nan,nan
1,121,1,1,1.0,1.0,0.36533413085271604,0.0,1,3,6,7,4,8,nan,nan,nan,nan,nan,nan,nan,nan,nan,nan,nan,nan,0.0,nan,nan,nan,nan,nan,nan,nan,nan,nan,nan,nan,nan,nan,nan,nan,nan,nan,nan,235.21304826049345,446.90114547256235,nan,447.26647960341506,nan,nan,nan,nan
1,122,1,1,1.0,1.0,0.30116138111407054,0.0,3,6,2,5,8,1,nan,nan,nan,nan,nan,nan,nan,nan,nan,nan,nan,nan,0.0,nan,nan,nan,nan,nan,nan,nan,nan,nan,nan,nan,nan,nan,nan,nan,nan,nan,nan,235.21304826049345,447.9012891626844,nan,448.2024505437985,nan,nan,nan,nan
1,123,1,1,1.0,1.0,0.2850230417388957,0.0,2,7,3,0,4,6,nan,nan,nan,nan,nan,nan,nan,nan,nan,nan,nan,nan,0.0,nan,nan,nan,nan,nan,nan,nan,nan,nan,nan,nan,nan,nan,nan,nan,nan,nan,nan,235.21304826049345,448.901418597834,nan,449.1864416395729,nan,nan,nan,nan
1,124,1,1,1.0,1.0,0.2928789570378285,0.0,0,1,6,2,8,4,nan,nan,nan,nan,nan,nan,nan,nan,nan,nan,nan,nan,0.0,nan,nan,nan,nan,nan,nan,nan,nan,nan,nan,nan,nan,nan,nan,nan,nan,nan,nan,235.21304826049345,449.9015605773602,nan,450.19443953439804,nan,nan,nan,nan
1,125,1,1,1.0,1.0,0.4207186900948727,0.0,1,8,0,5,7,6,nan,nan,nan,nan,nan,nan,nan,nan,nan,nan,nan,nan,0.0,nan,nan,nan,nan,nan,nan,nan,nan,nan,nan,nan,nan,nan,nan,nan,nan,nan,nan,235.21304826049345,450.90170968437087,nan,451.32242837446574,nan,nan,nan,nan
1,126,1,1,1.0,1.0,0.3005555447853112,0.0,0,6,3,7,5,4,nan,nan,nan,nan,nan,nan,nan,nan,nan,nan,nan,nan,0.0,nan,nan,nan,nan,nan,nan,nan,nan,nan,nan,nan,nan,nan,nan,nan,nan,nan,nan,235.21304826049345,451.90184824270364,nan,452.20240378748895,nan,nan,nan,nan
1,127,1,1,1.0,1.0,0.3644029960523767,0.0,7,5,6,3,8,0,nan,nan,nan,nan,nan,nan,nan,nan,nan,nan,nan,nan,0.0,nan,nan,nan,nan,nan,nan,nan,nan,nan,nan,nan,nan,nan,nan,nan,nan,nan,nan,235.21304826049345,452.9020016262075,nan,453.26640462225987,nan,nan,nan,nan
1,128,1,1,1.0,1.0,0.3882661049829039,0.0,1,7,4,8,6,5,nan,nan,nan,nan,nan,nan,nan,nan,nan,nan,nan,nan,0.0,nan,nan,nan,nan,nan,nan,nan,nan,nan,nan,nan,nan,nan,nan,nan,nan,nan,nan,235.21304826049345,453.90213676334497,nan,454.2904028683279,nan,nan,nan,nan
1,129,1,1,1.0,1.0,0.3240910744498251,0.0,6,3,1,4,5,2,nan,nan,nan,nan,nan,nan,nan,nan,nan,nan,nan,nan,0.0,nan,nan,nan,nan,nan,nan,nan,nan,nan,nan,nan,nan,nan,nan,nan,nan,nan,nan,235.21304826049345,454.90228159386425,nan,455.22637266831407,nan,nan,nan,nan
1,130,1,1,1.0,1.0,0.45198526149943064,0.0,7,5,0,2,8,4,nan,nan,nan,nan,nan,nan,nan,nan,nan,nan,nan,nan,0.0,nan,nan,nan,nan,nan,nan,nan,nan,nan,nan,nan,nan,nan,nan,nan,nan,nan,nan,235.21304826049345,455.9023836594679,nan,456.3543689209673,nan,nan,nan,nan
1,131,1,1,1.0,1.0,0.32379343062530097,0.0,0,3,5,6,4,2,nan,nan,nan,nan,nan,nan,nan,nan,nan,nan,nan,nan,0.0,nan,nan,nan,nan,nan,nan,nan,nan,nan,nan,nan,nan,nan,nan,nan,nan,nan,nan,235.21304826049345,456.90255814032935,nan,457.22635157095465,nan,nan,nan,nan
1,132,1,1,1.0,1.0,0.29961585700220894,0.0,6,2,1,0,8,7,nan,nan,nan,nan,nan,nan,nan,nan,nan,nan,nan,nan,0.0,nan,nan,nan,nan,nan,nan,nan,nan,nan,nan,nan,nan,nan,nan,nan,nan,nan,nan,235.21304826049345,457.9027215023143,nan,458.2023373593165,nan,nan,nan,nan
1,133,1,1,1.0,1.0,0.443473902567348,0.0,1,6,8,4,2,0,nan,nan,nan,nan,nan,nan,nan,nan,nan,nan,nan,nan,0.0,nan,nan,nan,nan,nan,nan,nan,nan,nan,nan,nan,nan,nan,nan,nan,nan,nan,nan,235.21304826049345,458.9028526480597,nan,459.34632655062705,nan,nan,nan,nan
1,134,0,0,0.0,1.0,0.5393269030100782,0.0,8,7,4,2,6,1,nan,nan,nan,nan,nan,nan,nan,nan,nan,nan,nan,nan,0.0,nan,nan,nan,nan,nan,nan,nan,nan,nan,nan,nan,nan,nan,nan,nan,nan,nan,nan,235.21304826049345,459.9029892106955,nan,460.4423161137056,nan,nan,nan,nan
1,135,1,1,nan,nan,nan,0.0,3,8,2,7,0,6,nan,nan,nan,nan,nan,nan,nan,nan,nan,nan,nan,nan,0.0,nan,nan,nan,nan,nan,nan,nan,nan,nan,nan,nan,nan,nan,nan,nan,nan,nan,nan,235.21304826049345,460.90316682765297,nan,nan,nan,nan,nan,nan
1,136,1,1,1.0,1.0,0.530979761360868,0.0,0,7,1,4,6,5,nan,nan,nan,nan,nan,nan,nan,nan,nan,nan,nan,nan,0.0,nan,nan,nan,nan,nan,nan,nan,nan,nan,nan,nan,nan,nan,nan,nan,nan,nan,nan,235.21304826049345,461.90327773133686,nan,462.4342574926977,nan,nan,nan,nan
1,137,1,1,1.0,1.0,0.3308502121708443,0.0,4,1,5,2,8,6,nan,nan,nan,nan,nan,nan,nan,nan,nan,nan,nan,nan,0.0,nan,nan,nan,nan,nan,nan,nan,nan,nan,nan,nan,nan,nan,nan,nan,nan,nan,nan,235.21304826049345,462.9034319701386,nan,463.23428218230947,nan,nan,nan,nan
1,138,1,1,1.0,1.0,0.2906825508871407,0.0,5,2,8,4,6,7,nan,nan,nan,nan,nan,nan,nan,nan,nan,nan,nan,nan,0.0,nan,nan,nan,nan,nan,nan,nan,nan,nan,nan,nan,nan,nan,nan,nan,nan,nan,nan,235.21304826049345,463.9035611201889,nan,464.19424367107604,nan,nan,nan,nan
1,139,1,1,1.0,1.0,0.24252925405380665,0.0,8,6,7,0,4,3,nan,nan,nan,nan,nan,nan,nan,nan,nan,nan,nan,nan,0.0,nan,nan,nan,nan,nan,nan,nan,nan,nan,nan,nan,nan,nan,nan,nan,nan,nan,nan,235.21304826049345,464.90371421859345,nan,465.14624347264726,nan,nan,nan,nan
1,140,1,1,1.0,1.0,0.2823690509721928,0.0,0,2,1,4,6,8,nan,nan,nan,nan,nan,nan,nan,nan,nan,nan,nan,nan,0.0,nan,nan,nan,nan,nan,nan,nan,nan,nan,nan,nan,nan,nan,nan,nan,nan,nan,nan,235.21304826049345,465.9038527769244,nan,466.1862218278966,nan,nan,nan,nan
1,141,1,1,1.0,1.0,0.28221452707111894,0.0,2,3,6,0,1,4,nan,nan,nan,nan,nan,nan,nan,nan,nan,nan,nan,nan,0.0,nan,nan,nan,nan,nan,nan,nan,nan,nan,nan,nan,nan,nan,nan,nan,nan,nan,nan,235.21304826049345,466.9040030243341,nan,467.1862175514052,nan,nan,nan,nan
1,142,1,1,1.0,1.0,0.28208081543016306,0.0,5,8,7,6,2,1,nan,nan,nan,nan,nan,nan,nan,nan,nan,nan,nan,nan,0.0,nan,nan,nan,nan,nan,nan,nan,nan,nan,nan,nan,nan,nan,nan,nan,nan,nan,nan,235.21304826049345,467.9041355955778,nan,468.186216411008,nan,nan,nan,nan
1,143,1,1,1.0,1.0,0.26597383699481725,0.0,2,1,0,5,6,4,nan,nan,nan,nan,nan,nan,nan,nan,nan,nan,nan,nan,0.0,nan,nan,nan,nan,nan,nan,nan,nan,nan,nan,nan,nan,nan,nan,nan,nan,nan,nan,235.21304826049345,468.90427671980433,nan,469.17025055679915,nan,nan,nan,nan
1,144,1,1,1.0,1.0,0.28178773319632455,0.0,1,5,3,6,4,2,nan,nan,nan,nan,nan,nan,nan,nan,nan,nan,nan,nan,0.0,nan,nan,nan,nan,nan,nan,nan,nan,nan,nan,nan,nan,nan,nan,nan,nan,nan,nan,235.21304826049345,469.90441926952917,nan,470.1862070027255,nan,nan,nan,nan
1,145,1,1,1.0,1.0,0.2256602047928027,0.0,7,2,1,4,0,8,nan,nan,nan,nan,nan,nan,nan,nan,nan,nan,nan,nan,0.0,nan,nan,nan,nan,nan,nan,nan,nan,nan,nan,nan,nan,nan,nan,nan,nan,nan,nan,235.21304826049345,470.90452276062933,nan,471.13018296542214,nan,nan,nan,nan
1,146,1,1,1.0,1.0,0.24146070132155728,0.0,3,6,8,7,4,5,nan,nan,nan,nan,nan,nan,nan,nan,nan,nan,nan,nan,0.0,nan,nan,nan,nan,nan,nan,nan,nan,nan,nan,nan,nan,nan,nan,nan,nan,nan,nan,235.21304826049345,471.90471092626467,nan,472.1461716275862,nan,nan,nan,nan
1,147,1,1,1.0,1.0,0.2813116171182628,0.0,8,1,7,6,0,4,nan,nan,nan,nan,nan,nan,nan,nan,nan,nan,nan,nan,0.0,nan,nan,nan,nan,nan,nan,nan,nan,nan,nan,nan,nan,nan,nan,nan,nan,nan,nan,235.21304826049345,472.9048526206898,nan,473.18616423780804,nan,nan,nan,nan
1,148,1,1,1.0,1.0,0.29715259777003666,0.0,0,2,6,7,5,3,nan,nan,nan,nan,nan,nan,nan,nan,nan,nan,nan,nan,0.0,nan,nan,nan,nan,nan,nan,nan,nan,nan,nan,nan,nan,nan,nan,nan,nan,nan,nan,235.21304826049345,473.9049891833256,nan,474.20214178109563,nan,nan,nan,nan
1,149,1,1,1.0,1.0,0.33701235164880927,0.0,8,7,1,0,2,4,nan,nan,nan,nan,nan,nan,nan,nan,nan,nan,nan,nan,0.0,nan,nan,nan,nan,nan,nan,nan,nan,nan,nan,nan,nan,nan,nan,nan,nan,nan,nan,235.21304826049345,474.9051291671549,nan,475.2421415188037,nan,nan,nan,nan
1,150,0,0,nan,nan,nan,0.0,5,4,2,3,8,1,nan,nan,nan,nan,nan,nan,nan,nan,nan,nan,nan,nan,0.0,nan,nan,nan,nan,nan,nan,nan,nan,nan,nan,nan,nan,nan,nan,nan,nan,nan,nan,235.21304826049345,475.90529224404054,nan,nan,nan,nan,nan,nan
1,151,1,1,1.0,1.0,0.48865019095865136,0.0,0,7,5,1,4,6,nan,nan,nan,nan,nan,nan,nan,nan,nan,nan,nan,nan,0.0,nan,nan,nan,nan,nan,nan,nan,nan,nan,nan,nan,nan,nan,nan,nan,nan,nan,nan,235.21304826049345,476.9054251003836,nan,477.39407529134223,nan,nan,nan,nan
1,152,1,1,1.0,1.0,0.30453467778534105,0.0,7,1,4,5,3,2,nan,nan,nan,nan,nan,nan,nan,nan,nan,nan,nan,nan,0.0,nan,nan,nan,nan,nan,nan,nan,nan,nan,nan,nan,nan,nan,nan,nan,nan,nan,nan,235.21304826049345,477.9055727818977,nan,478.21010745968306,nan,nan,nan,nan
1,153,1,1,1.0,1.0,0.3043904174664931,0.0,3,4,5,0,2,8,nan,nan,nan,nan,nan,nan,nan,nan,nan,nan,nan,nan,0.0,nan,nan,nan,nan,nan,nan,nan,nan,nan,nan,nan,nan,nan,nan,nan,nan,nan,nan,235.21304826049345,478.90570079154895,nan,479.21009120901545,nan,nan,nan,nan
1,154,1,1,1.0,1.0,0.23219839044213586,0.0,6,1,3,4,8,2,nan,nan,nan,nan,nan,nan,nan,nan,nan,nan,nan,nan,0.0,nan,nan,nan,nan,nan,nan,nan,nan,nan,nan,nan,nan,nan,nan,nan,nan,nan,nan,235.21304826049345,479.9059034972579,nan,480.13810188770003,nan,nan,nan,nan
1,155,1,1,1.0,1.0,0.21607345074153272,0.0,3,5,7,1,4,8,nan,nan,nan,nan,nan,nan,nan,nan,nan,nan,nan,nan,0.0,nan,nan,nan,nan,nan,nan,nan,nan,nan,nan,nan,nan,nan,nan,nan,nan,nan,nan,235.21304826049345,480.9059904525893,nan,481.12206390333085,nan,nan,nan,nan
1,156,0,0,1.0,0.0,0.26395875409252767,0.0,4,0,5,7,8,2,nan,nan,nan,nan,nan,nan,nan,nan,nan,nan,nan,nan,0.0,nan,nan,nan,nan,nan,nan,nan,nan,nan,nan,nan,nan,nan,nan,nan,nan,nan,nan,235.21304826049345,481.9060950840867,nan,482.17005383817923,nan,nan,nan,nan
1,157,1,1,1.0,1.0,0.47977476003325137,0.0,2,3,0,6,4,5,nan,nan,nan,nan,nan,nan,nan,nan,nan,nan,nan,nan,0.0,nan,nan,nan,nan,nan,nan,nan,nan,nan,nan,nan,nan,nan,nan,nan,nan,nan,nan,235.21304826049345,482.90626956494816,nan,483.3860443249814,nan,nan,nan,nan
1,158,1,1,1.0,1.0,0.27156606267271854,0.0,7,4,6,1,8,3,nan,nan,nan,nan,nan,nan,nan,nan,nan,nan,nan,nan,0.0,nan,nan,nan,nan,nan,nan,nan,nan,nan,nan,nan,nan,nan,nan,nan,nan,nan,nan,235.21304826049345,483.90645345409393,nan,484.17801951676665,nan,nan,nan,nan
1,159,1,1,1.0,1.0,0.09545300591889827,0.0,3,5,1,4,0,2,nan,nan,nan,nan,nan,nan,nan,nan,nan,nan,nan,nan,0.0,nan,nan,nan,nan,nan,nan,nan,nan,nan,nan,nan,nan,nan,nan,nan,nan,nan,nan,235.21304826049345,484.9065572302916,nan,485.0020102362105,nan,nan,nan,nan
1,160,1,1,1.0,1.0,0.3912918654295936,0.0,0,4,8,3,7,1,nan,nan,nan,nan,nan,nan,nan,nan,nan,nan,nan,nan,0.0,nan,nan,nan,nan,nan,nan,nan,nan,nan,nan,nan,nan,nan,nan,nan,nan,nan,nan,235.21304826049345,485.9067037714085,nan,486.2979956368381,nan,nan,nan,nan
1,161,0,0,0.0,1.0,0.5191535511421534,0.0,4,1,6,0,5,3,nan,nan,nan,nan,nan,nan,nan,nan,nan,nan,nan,nan,0.0,nan,nan,nan,nan,nan,nan,nan,nan,nan,nan,nan,nan,nan,nan,nan,nan,nan,nan,235.21304826049345,486.906844895635,nan,487.42599844677716,nan,nan,nan,nan
1,162,1,1,1.0,1.0,0.39098025173007045,0.0,5,7,1,4,0,8,nan,nan,nan,nan,nan,nan,nan,nan,nan,nan,nan,nan,0.0,nan,nan,nan,nan,nan,nan,nan,nan,nan,nan,nan,nan,nan,nan,nan,nan,nan,nan,235.21304826049345,487.90699656854304,nan,488.2979768202731,nan,nan,nan,nan
1,163,1,1,1.0,1.0,0.28684967390290694,0.0,7,8,5,1,3,0,nan,nan,nan,nan,nan,nan,nan,nan,nan,nan,nan,nan,0.0,nan,nan,nan,nan,nan,nan,nan,nan,nan,nan,nan,nan,nan,nan,nan,nan,nan,nan,235.21304826049345,488.9071111785215,nan,489.1939608524244,nan,nan,nan,nan
1,164,1,1,1.0,1.0,0.4546919956610509,0.0,1,3,4,8,0,2,nan,nan,nan,nan,nan,nan,nan,nan,nan,nan,nan,nan,0.0,nan,nan,nan,nan,nan,nan,nan,nan,nan,nan,nan,nan,nan,nan,nan,nan,nan,nan,235.21304826049345,489.90727454050466,nan,490.3619665361657,nan,nan,nan,nan
1,165,1,1,1.0,1.0,0.3185170951346663,0.0,2,6,0,7,1,4,nan,nan,nan,nan,nan,nan,nan,nan,nan,nan,nan,nan,0.0,nan,nan,nan,nan,nan,nan,nan,nan,nan,nan,nan,nan,nan,nan,nan,nan,nan,nan,235.21304826049345,490.907423362416,nan,491.2259404575507,nan,nan,nan,nan
1,166,1,1,1.0,1.0,0.3020220963480824,0.0,6,8,1,0,3,2,nan,nan,nan,nan,nan,nan,nan,nan,nan,nan,nan,nan,0.0,nan,nan,nan,nan,nan,nan,nan,nan,nan,nan,nan,nan,nan,nan,nan,nan,nan,nan,235.21304826049345,491.91590107961383,nan,492.2179231759619,nan,nan,nan,nan
1,167,1,1,1.0,1.0,0.3018841082157451,0.0,1,2,7,8,4,5,nan,nan,nan,nan,nan,nan,nan,nan,nan,nan,nan,nan,0.0,nan,nan,nan,nan,nan,nan,nan,nan,nan,nan,nan,nan,nan,nan,nan,nan,nan,nan,235.21304826049345,492.9160345061555,nan,493.21791861437123,nan,nan,nan,nan
1,168,1,1,1.0,1.0,0.2777076749898697,0.0,2,0,4,5,1,3,nan,nan,nan,nan,nan,nan,nan,nan,nan,nan,nan,nan,0.0,nan,nan,nan,nan,nan,nan,nan,nan,nan,nan,nan,nan,nan,nan,nan,nan,nan,nan,235.21304826049345,493.9161910257535,nan,494.1938987007434,nan,nan,nan,nan
1,169,1,1,1.0,1.0,0.27754516830646025,0.0,7,3,6,8,4,1,nan,nan,nan,nan,nan,nan,nan,nan,nan,nan,nan,nan,0.0,nan,nan,nan,nan,nan,nan,nan,nan,nan,nan,nan,nan,nan,nan,nan,nan,nan,nan,235.21304826049345,494.91634383905694,nan,495.1938890073634,nan,nan,nan,nan
1,170,1,1,1.0,1.0,0.2614085395271104,0.0,0,7,2,4,5,8,nan,nan,nan,nan,nan,nan,nan,nan,nan,nan,nan,nan,0.0,nan,nan,nan,nan,nan,nan,nan,nan,nan,nan,nan,nan,nan,nan,nan,nan,nan,nan,235.21304826049345,495.9164775506979,nan,496.177886090225,nan,nan,nan,nan
1,171,1,1,1.0,1.0,0.25326524398406036,0.0,8,6,1,3,0,7,nan,nan,nan,nan,nan,nan,nan,nan,nan,nan,nan,nan,0.0,nan,nan,nan,nan,nan,nan,nan,nan,nan,nan,nan,nan,nan,nan,nan,nan,nan,nan,235.21304826049345,496.916603564654,nan,497.16986880863806,nan,nan,nan,nan
1,172,0,0,1.0,0.0,0.24510284677489835,0.0,1,8,0,4,3,6,nan,nan,nan,nan,nan,nan,nan,nan,nan,nan,nan,nan,0.0,nan,nan,nan,nan,nan,nan,nan,nan,nan,nan,nan,nan,nan,nan,nan,nan,nan,nan,235.21304826049345,497.91676236504827,nan,498.16186521182317,nan,nan,nan,nan
1,173,1,1,1.0,1.0,0.6769036375280848,0.0,2,3,5,0,1,7,nan,nan,nan,nan,nan,nan,nan,nan,nan,nan,nan,nan,0.0,nan,nan,nan,nan,nan,nan,nan,nan,nan,nan,nan,nan,nan,nan,nan,nan,nan,nan,235.21304826049345,498.9168906597988,nan,499.5937942973269,nan,nan,nan,nan
1,174,1,1,1.0,1.0,0.41279948271585454,0.0,3,2,1,8,4,0,nan,nan,nan,nan,nan,nan,nan,nan,nan,nan,nan,nan,0.0,nan,nan,nan,nan,nan,nan,nan,nan,nan,nan,nan,nan,nan,nan,nan,nan,nan,nan,235.21304826049345,499.91703434992087,nan,500.3298338326367,nan,nan,nan,nan
1,175,1,1,1.0,1.0,0.42063943244647817,0.0,6,4,3,0,7,8,nan,nan,nan,nan,nan,nan,nan,nan,nan,nan,nan,nan,0.0,nan,nan,nan,nan,nan,nan,nan,nan,nan,nan,nan,nan,nan,nan,nan,nan,nan,nan,235.21304826049345,500.91717975064057,nan,501.33781918308705,nan,nan,nan,nan
1,176,1,1,1.0,1.0,0.3324838320095296,0.0,3,0,2,1,4,5,nan,nan,nan,nan,nan,nan,nan,nan,nan,nan,nan,nan,0.0,nan,nan,nan,nan,nan,nan,nan,nan,nan,nan,nan,nan,nan,nan,nan,nan,nan,nan,235.21304826049345,501.9173280023533,nan,502.24981183436284,nan,nan,nan,nan
1,177,1,1,1.0,1.0,0.2843405136572983,0.0,8,1,5,4,7,0,nan,nan,nan,nan,nan,nan,nan,nan,nan,nan,nan,nan,0.0,nan,nan,nan,nan,nan,nan,nan,nan,nan,nan,nan,nan,nan,nan,nan,nan,nan,nan,235.21304826049345,502.91746456498913,nan,503.20180507864643,nan,nan,nan,nan
1,178,0,0,0.0,1.0,0.49216717775561847,1.0,1,6,4,3,8,5,1.0,1.0,1.0,1.0,1.0,1.0,0.0,0.0,1.0,0.0,0.0,0.0,1.0,6.0,1.0,4.0,5.0,4.0,7.0,3.0,2.0,1.0,4.0,5.0,6.0,3.262830330475481,1.99056605925216,1.1268036816600215,4.861366972027099,6.229703200069707,7.269326321407789,235.21304826049345,503.91760597431494,504.72603482546765,504.40977315207056,513.052215678872,514.0481168041024,505.7428602545133,513.0438864984881
1,179,1,1,nan,nan,nan,0.0,3,2,7,0,6,1,nan,nan,nan,nan,nan,nan,nan,nan,nan,nan,nan,nan,0.0,nan,nan,nan,nan,nan,nan,nan,nan,nan,nan,nan,nan,nan,nan,nan,nan,nan,nan,235.21304826049345,514.2524127966317,nan,nan,nan,nan,nan,nan
1,180,1,1,1.0,1.0,0.38073634345164464,0.0,5,7,0,6,2,8,nan,nan,nan,nan,nan,nan,nan,nan,nan,nan,nan,nan,0.0,nan,nan,nan,nan,nan,nan,nan,nan,nan,nan,nan,nan,nan,nan,nan,nan,nan,nan,235.21304826049345,515.2608828161428,nan,515.6416191595945,nan,nan,nan,nan
1,181,1,1,1.0,1.0,0.34860278462292627,0.0,1,3,4,2,6,0,nan,nan,nan,nan,nan,nan,nan,nan,nan,nan,nan,nan,0.0,nan,nan,nan,nan,nan,nan,nan,nan,nan,nan,nan,nan,nan,nan,nan,nan,nan,nan,235.21304826049345,516.2610313529567,nan,516.6096341375796,nan,nan,nan,nan
1,182,1,1,1.0,1.0,0.29243448699889996,0.0,3,4,5,8,2,6,nan,nan,nan,nan,nan,nan,nan,nan,nan,nan,nan,nan,0.0,nan,nan,nan,nan,nan,nan,nan,nan,nan,nan,nan,nan,nan,nan,nan,nan,nan,nan,235.21304826049345,517.2611853066574,nan,517.5536197936563,nan,nan,nan,nan
1,183,1,1,1.0,1.0,0.3322868282903073,0.0,5,1,2,0,8,4,nan,nan,nan,nan,nan,nan,nan,nan,nan,nan,nan,nan,0.0,nan,nan,nan,nan,nan,nan,nan,nan,nan,nan,nan,nan,nan,nan,nan,nan,nan,nan,235.21304826049345,518.2613332732726,nan,518.5936201015629,nan,nan,nan,nan
1,184,1,1,1.0,1.0,0.2921265795939689,0.0,4,6,0,7,5,3,nan,nan,nan,nan,nan,nan,nan,nan,nan,nan,nan,nan,0.0,nan,nan,nan,nan,nan,nan,nan,nan,nan,nan,nan,nan,nan,nan,nan,nan,nan,nan,235.21304826049345,519.261471261405,nan,519.5535978409989,nan,nan,nan,nan
1,185,1,1,1.0,1.0,0.31598028024200175,0.0,6,2,1,4,3,0,nan,nan,nan,nan,nan,nan,nan,nan,nan,nan,nan,nan,0.0,nan,nan,nan,nan,nan,nan,nan,nan,nan,nan,nan,nan,nan,nan,nan,nan,nan,nan,235.21304826049345,520.2616158068249,nan,520.5775960870669,nan,nan,nan,nan
1,186,1,1,1.0,1.0,0.3878356048153364,0.0,8,5,7,2,1,6,nan,nan,nan,nan,nan,nan,nan,nan,nan,nan,nan,nan,0.0,nan,nan,nan,nan,nan,nan,nan,nan,nan,nan,nan,nan,nan,nan,nan,nan,nan,nan,235.21304826049345,521.2617480929694,nan,521.6495836977847,nan,nan,nan,nan
1,187,1,1,1.0,1.0,0.32368309713820054,0.0,1,7,4,0,6,8,nan,nan,nan,nan,nan,nan,nan,nan,nan,nan,nan,nan,0.0,nan,nan,nan,nan,nan,nan,nan,nan,nan,nan,nan,nan,nan,nan,nan,nan,nan,nan,235.21304826049345,522.2618895022952,nan,522.5855725994334,nan,nan,nan,nan
1,188,1,1,1.0,1.0,0.29950922980970063,0.0,6,0,5,1,2,3,nan,nan,nan,nan,nan,nan,nan,nan,nan,nan,nan,nan,0.0,nan,nan,nan,nan,nan,nan,nan,nan,nan,nan,nan,nan,nan,nan,nan,nan,nan,nan,235.21304826049345,523.2620534344787,nan,523.5615626642884,nan,nan,nan,nan
1,189,1,1,1.0,1.0,0.259372929465826,0.0,0,2,6,4,8,1,nan,nan,nan,nan,nan,nan,nan,nan,nan,nan,nan,nan,0.0,nan,nan,nan,nan,nan,nan,nan,nan,nan,nan,nan,nan,nan,nan,nan,nan,nan,nan,235.21304826049345,524.2621708954503,nan,524.5215438249161,nan,nan,nan,nan
1,190,1,1,1.0,1.0,0.2592087121829536,0.0,6,1,0,5,7,8,nan,nan,nan,nan,nan,nan,nan,nan,nan,nan,nan,nan,0.0,nan,nan,nan,nan,nan,nan,nan,nan,nan,nan,nan,nan,nan,nan,nan,nan,nan,nan,235.21304826049345,525.2623294107452,nan,525.5215381229282,nan,nan,nan,nan
1,191,1,1,1.0,1.0,0.3070943006332527,0.0,7,5,8,6,0,2,nan,nan,nan,nan,nan,nan,nan,nan,nan,nan,nan,nan,0.0,nan,nan,nan,nan,nan,nan,nan,nan,nan,nan,nan,nan,nan,nan,nan,nan,nan,nan,235.21304826049345,526.2624209276673,nan,526.5695152283006,nan,nan,nan,nan
1,192,1,1,1.0,1.0,0.2825546507137915,0.0,8,7,5,2,4,1,nan,nan,nan,nan,nan,nan,nan,nan,nan,nan,nan,nan,0.0,nan,nan,nan,nan,nan,nan,nan,nan,nan,nan,nan,nan,nan,nan,nan,nan,nan,nan,235.21304826049345,527.2709402693836,nan,527.5534949200974,nan,nan,nan,nan
1,193,1,1,1.0,1.0,0.3944028706082463,0.0,4,6,0,5,8,3,nan,nan,nan,nan,nan,nan,nan,nan,nan,nan,nan,nan,0.0,nan,nan,nan,nan,nan,nan,nan,nan,nan,nan,nan,nan,nan,nan,nan,nan,nan,nan,235.21304826049345,528.2710896614954,nan,528.6654925321036,nan,nan,nan,nan
1,194,1,1,1.0,1.0,0.33025663511944003,0.0,6,7,1,4,3,5,nan,nan,nan,nan,nan,nan,nan,nan,nan,nan,nan,nan,0.0,nan,nan,nan,nan,nan,nan,nan,nan,nan,nan,nan,nan,nan,nan,nan,nan,nan,nan,235.21304826049345,529.2712245135335,nan,529.601481148653,nan,nan,nan,nan
1,195,0,0,0.0,1.0,0.3780729444042663,0.0,1,5,3,6,2,8,nan,nan,nan,nan,nan,nan,nan,nan,nan,nan,nan,nan,0.0,nan,nan,nan,nan,nan,nan,nan,nan,nan,nan,nan,nan,nan,nan,nan,nan,nan,nan,235.21304826049345,530.2713890159157,nan,530.64946196032,nan,nan,nan,nan
1,196,1,1,1.0,1.0,0.48194322643576015,0.0,6,8,0,3,7,2,nan,nan,nan,nan,nan,nan,nan,nan,nan,nan,nan,nan,0.0,nan,nan,nan,nan,nan,nan,nan,nan,nan,nan,nan,nan,nan,nan,nan,nan,nan,nan,235.21304826049345,531.2715218722587,nan,531.7534650986945,nan,nan,nan,nan
1,197,1,1,1.0,1.0,0.4257760692089505,0.0,0,5,6,2,8,1,nan,nan,nan,nan,nan,nan,nan,nan,nan,nan,nan,nan,0.0,nan,nan,nan,nan,nan,nan,nan,nan,nan,nan,nan,nan,nan,nan,nan,nan,nan,nan,235.21304826049345,532.271661856088,nan,532.697437925297,nan,nan,nan,nan
1,198,1,1,1.0,1.0,0.32162695991610235,0.0,6,1,2,3,7,5,nan,nan,nan,nan,nan,nan,nan,nan,nan,nan,nan,nan,0.0,nan,nan,nan,nan,nan,nan,nan,nan,nan,nan,nan,nan,nan,nan,nan,nan,nan,nan,235.21304826049345,533.2718049760115,nan,533.5934319359276,nan,nan,nan,nan
1,199,1,1,1.0,1.0,0.385474696282472,0.0,5,2,0,6,8,4,nan,nan,nan,nan,nan,nan,nan,nan,nan,nan,nan,nan,0.0,nan,nan,nan,nan,nan,nan,nan,nan,nan,nan,nan,nan,nan,nan,nan,nan,nan,nan,235.21304826049345,534.2719378323545,nan,534.657412528637,nan,nan,nan,nan
1,200,1,1,1.0,1.0,0.35333600566627865,0.0,4,7,1,5,0,6,nan,nan,nan,nan,nan,nan,nan,nan,nan,nan,nan,nan,0.0,nan,nan,nan,nan,nan,nan,nan,nan,nan,nan,nan,nan,nan,nan,nan,nan,nan,nan,235.21304826049345,535.2720800969782,nan,535.6254161026445,nan,nan,nan,nan
1,201,1,1,1.0,1.0,0.3691801224103983,0.0,2,4,6,8,3,7,nan,nan,nan,nan,nan,nan,nan,nan,nan,nan,nan,nan,0.0,nan,nan,nan,nan,nan,nan,nan,nan,nan,nan,nan,nan,nan,nan,nan,nan,nan,nan,235.21304826049345,536.2722423185642,nan,536.6414224409746,nan,nan,nan,nan
1,202,1,1,1.0,1.0,0.368692602352894,0.0,3,2,0,1,4,5,nan,nan,nan,nan,nan,nan,nan,nan,nan,nan,nan,nan,0.0,nan,nan,nan,nan,nan,nan,nan,nan,nan,nan,nan,nan,nan,nan,nan,nan,nan,nan,235.21304826049345,537.2806898152212,nan,537.6493824175741,nan,nan,nan,nan
1,203,1,1,1.0,1.0,0.3285366301479371,0.0,4,6,8,3,1,2,nan,nan,nan,nan,nan,nan,nan,nan,nan,nan,nan,nan,0.0,nan,nan,nan,nan,nan,nan,nan,nan,nan,nan,nan,nan,nan,nan,nan,nan,nan,nan,235.21304826049345,538.2808397775298,nan,538.6093764076777,nan,nan,nan,nan
1,204,1,1,1.0,1.0,0.32836471518021426,0.0,3,5,2,4,8,1,nan,nan,nan,nan,nan,nan,nan,nan,nan,nan,nan,nan,0.0,nan,nan,nan,nan,nan,nan,nan,nan,nan,nan,nan,nan,nan,nan,nan,nan,nan,nan,235.21304826049345,539.2809834676518,nan,539.609348182832,nan,nan,nan,nan
1,205,1,1,1.0,1.0,0.35223153040169564,0.0,1,3,6,0,4,5,nan,nan,nan,nan,nan,nan,nan,nan,nan,nan,nan,nan,0.0,nan,nan,nan,nan,nan,nan,nan,nan,nan,nan,nan,nan,nan,nan,nan,nan,nan,nan,235.21304826049345,540.281121455786,nan,540.6333529861877,nan,nan,nan,nan
1,206,1,1,1.0,1.0,0.3120866770732391,0.0,4,0,3,6,5,7,nan,nan,nan,nan,nan,nan,nan,nan,nan,nan,nan,nan,0.0,nan,nan,nan,nan,nan,nan,nan,nan,nan,nan,nan,nan,nan,nan,nan,nan,nan,nan,235.21304826049345,541.2812642906101,nan,541.5933509676834,nan,nan,nan,nan
1,207,1,1,1.0,1.0,0.3439134688960621,0.0,0,8,1,4,3,2,nan,nan,nan,nan,nan,nan,nan,nan,nan,nan,nan,nan,0.0,nan,nan,nan,nan,nan,nan,nan,nan,nan,nan,nan,nan,nan,nan,nan,nan,nan,nan,235.21304826049345,542.2814088360301,nan,542.6253223049262,nan,nan,nan,nan
1,208,1,1,1.0,1.0,0.35176111631335516,0.0,4,5,2,0,1,6,nan,nan,nan,nan,nan,nan,nan,nan,nan,nan,nan,nan,0.0,nan,nan,nan,nan,nan,nan,nan,nan,nan,nan,nan,nan,nan,nan,nan,nan,nan,nan,235.21304826049345,543.2815545218473,nan,543.6333156381606,nan,nan,nan,nan
1,209,0,0,0.0,1.0,0.5435865738672874,1.0,7,2,5,3,8,0,1.0,1.0,1.0,1.0,1.0,1.0,0.0,0.0,0.0,0.0,0.0,0.0,0.0,8.0,5.0,2.0,0.0,7.0,6.0,6.0,2.0,1.0,3.0,4.0,5.0,8.576760175485106,3.6267897117868415,2.827014199092446,5.42447915181765,6.745084315311033,7.713288029130126,235.21304826049345,544.2817141775395,545.0901467349831,544.8253007514068,554.7248225826133,555.7308530061455,546.1069388073938,554.7164851343441
1,210,1,1,1.0,1.0,0.5157950796401565,0.0,8,5,6,0,1,2,nan,nan,nan,nan,nan,nan,nan,nan,nan,nan,nan,nan,0.0,nan,nan,nan,nan,nan,nan,nan,nan,nan,nan,nan,nan,nan,nan,nan,nan,nan,nan,235.21304826049345,555.9333591443356,nan,556.4491542239757,nan,nan,nan,nan
1,211,1,1,1.0,1.0,0.3156316036165663,0.0,1,3,8,7,2,6,nan,nan,nan,nan,nan,nan,nan,nan,nan,nan,nan,nan,0.0,nan,nan,nan,nan,nan,nan,nan,nan,nan,nan,nan,nan,nan,nan,nan,nan,nan,nan,235.21304826049345,556.9334996983634,nan,557.24913130198,nan,nan,nan,nan
1,212,1,1,1.0,1.0,0.3554850853070093,0.0,5,7,3,0,8,2,nan,nan,nan,nan,nan,nan,nan,nan,nan,nan,nan,nan,0.0,nan,nan,nan,nan,nan,nan,nan,nan,nan,nan,nan,nan,nan,nan,nan,nan,nan,nan,235.21304826049345,557.9336462394804,nan,558.2891313247874,nan,nan,nan,nan
1,213,1,1,1.0,1.0,0.32333841190484236,0.0,6,5,7,3,2,0,nan,nan,nan,nan,nan,nan,nan,nan,nan,nan,nan,nan,0.0,nan,nan,nan,nan,nan,nan,nan,nan,nan,nan,nan,nan,nan,nan,nan,nan,nan,nan,235.21304826049345,558.9337845127138,nan,559.2571229246187,nan,nan,nan,nan
1,214,1,1,1.0,1.0,0.3551823096931912,0.0,2,4,0,5,7,1,nan,nan,nan,nan,nan,nan,nan,nan,nan,nan,nan,nan,0.0,nan,nan,nan,nan,nan,nan,nan,nan,nan,nan,nan,nan,nan,nan,nan,nan,nan,nan,235.21304826049345,559.9339225008462,nan,560.2891048105394,nan,nan,nan,nan
1,215,1,1,1.0,1.0,0.36302682101631945,0.0,8,1,7,6,4,5,nan,nan,nan,nan,nan,nan,nan,nan,nan,nan,nan,nan,0.0,nan,nan,nan,nan,nan,nan,nan,nan,nan,nan,nan,nan,nan,nan,nan,nan,nan,nan,235.21304826049345,560.9340633399734,nan,561.2970901609897,nan,nan,nan,nan
1,216,0,0,0.0,1.0,0.37887008246070764,0.0,7,3,2,1,0,6,nan,nan,nan,nan,nan,nan,nan,nan,nan,nan,nan,nan,0.0,nan,nan,nan,nan,nan,nan,nan,nan,nan,nan,nan,nan,nan,nan,nan,nan,nan,nan,235.21304826049345,561.9342124469858,nan,562.3130825294465,nan,nan,nan,nan
1,217,1,1,1.0,1.0,0.43476240382187825,0.0,4,6,7,5,1,2,nan,nan,nan,nan,nan,nan,nan,nan,nan,nan,nan,nan,0.0,nan,nan,nan,nan,nan,nan,nan,nan,nan,nan,nan,nan,nan,nan,nan,nan,nan,nan,235.21304826049345,562.9343182188804,nan,563.3690806227023,nan,nan,nan,nan
1,218,1,1,1.0,1.0,0.49056235296120576,0.0,0,3,1,2,6,5,nan,nan,nan,nan,nan,nan,nan,nan,nan,nan,nan,nan,0.0,nan,nan,nan,nan,nan,nan,nan,nan,nan,nan,nan,nan,nan,nan,nan,nan,nan,nan,235.21304826049345,563.9344958358361,nan,564.4250581887973,nan,nan,nan,nan
1,219,1,1,1.0,1.0,0.40241074391633447,0.0,3,6,4,8,5,2,nan,nan,nan,nan,nan,nan,nan,nan,nan,nan,nan,nan,0.0,nan,nan,nan,nan,nan,nan,nan,nan,nan,nan,nan,nan,nan,nan,nan,nan,nan,nan,235.21304826049345,564.9346378153623,nan,565.3370485592786,nan,nan,nan,nan
1,220,1,1,nan,nan,nan,0.0,6,3,0,2,8,7,nan,nan,nan,nan,nan,nan,nan,nan,nan,nan,nan,nan,0.0,nan,nan,nan,nan,nan,nan,nan,nan,nan,nan,nan,nan,nan,nan,nan,nan,nan,nan,235.21304826049345,565.9347795097874,nan,nan,nan,nan,nan,nan
1,221,1,1,1.0,1.0,0.5380659081492922,0.0,3,1,2,8,0,6,nan,nan,nan,nan,nan,nan,nan,nan,nan,nan,nan,nan,0.0,nan,nan,nan,nan,nan,nan,nan,nan,nan,nan,nan,nan,nan,nan,nan,nan,nan,nan,235.21304826049345,566.9349323230927,nan,567.472998231242,nan,nan,nan,nan
1,222,1,1,1.0,1.0,0.3859274342084973,0.0,8,4,6,5,1,7,nan,nan,nan,nan,nan,nan,nan,nan,nan,nan,nan,nan,0.0,nan,nan,nan,nan,nan,nan,nan,nan,nan,nan,nan,nan,nan,nan,nan,nan,nan,nan,235.21304826049345,567.9350768685126,nan,568.3210043027211,nan,nan,nan,nan
1,223,1,1,nan,nan,nan,0.0,6,0,3,8,5,4,nan,nan,nan,nan,nan,nan,nan,nan,nan,nan,nan,nan,0.0,nan,nan,nan,nan,nan,nan,nan,nan,nan,nan,nan,nan,nan,nan,nan,nan,nan,nan,235.21304826049345,568.9352162821433,nan,nan,nan,nan,nan,nan
1,224,0,0,1.0,0.0,0.25765320959362725,0.0,2,1,7,5,8,6,nan,nan,nan,nan,nan,nan,nan,nan,nan,nan,nan,nan,0.0,nan,nan,nan,nan,nan,nan,nan,nan,nan,nan,nan,nan,nan,nan,nan,nan,nan,nan,235.21304826049345,569.9353548404742,nan,570.1930080500679,nan,nan,nan,nan
1,225,1,1,1.0,1.0,0.5534783843286277,0.0,1,5,2,8,7,4,nan,nan,nan,nan,nan,nan,nan,nan,nan,nan,nan,nan,0.0,nan,nan,nan,nan,nan,nan,nan,nan,nan,nan,nan,nan,nan,nan,nan,nan,nan,nan,235.21304826049345,570.9354925435091,nan,571.4889709278377,nan,nan,nan,nan
1,226,1,1,1.0,1.0,0.6413266475610726,0.0,0,3,7,4,6,1,nan,nan,nan,nan,nan,nan,nan,nan,nan,nan,nan,nan,0.0,nan,nan,nan,nan,nan,nan,nan,nan,nan,nan,nan,nan,nan,nan,nan,nan,nan,nan,235.21304826049345,571.9356370889291,nan,572.5769637364901,nan,nan,nan,nan
1,227,0,0,0.0,1.0,0.6251583727444086,1.0,7,6,8,1,4,0,1.0,1.0,1.0,1.0,1.0,1.0,0.0,1.0,0.0,0.0,0.0,0.0,1.0,2.0,6.0,1.0,4.0,8.0,5.0,6.0,2.0,1.0,3.0,4.0,5.0,8.290440501456033,3.9793519575487153,2.7625098786957096,5.876117732386774,6.9474804051151295,7.442209201413789,235.21304826049345,572.9357901873318,573.7441965156286,573.5609485600762,583.0871965258921,584.0913387357778,574.7610210893763,583.0788590776228
1,228,1,1,1.0,1.0,0.6810352987322403,0.0,8,2,7,5,0,1,nan,nan,nan,nan,nan,nan,nan,nan,nan,nan,nan,nan,0.0,nan,nan,nan,nan,nan,nan,nan,nan,nan,nan,nan,nan,nan,nan,nan,nan,nan,nan,235.21304826049345,584.2957838353177,nan,584.97681913405,nan,nan,nan,nan
1,229,1,1,1.0,1.0,0.31293085654215247,0.0,5,4,0,2,7,3,nan,nan,nan,nan,nan,nan,nan,nan,nan,nan,nan,nan,0.0,nan,nan,nan,nan,nan,nan,nan,nan,nan,nan,nan,nan,nan,nan,nan,nan,nan,nan,235.21304826049345,585.2958801989298,nan,585.608811055472,nan,nan,nan,nan
1,230,1,1,1.0,1.0,0.328792079253617,0.0,4,0,5,7,8,1,nan,nan,nan,nan,nan,nan,nan,nan,nan,nan,nan,nan,0.0,nan,nan,nan,nan,nan,nan,nan,nan,nan,nan,nan,nan,nan,nan,nan,nan,nan,nan,235.21304826049345,586.2959956642062,nan,586.6247877434598,nan,nan,nan,nan
1,231,1,1,1.0,1.0,0.3366311736863281,0.0,7,1,8,2,0,3,nan,nan,nan,nan,nan,nan,nan,nan,nan,nan,nan,nan,0.0,nan,nan,nan,nan,nan,nan,nan,nan,nan,nan,nan,nan,nan,nan,nan,nan,nan,nan,235.21304826049345,587.2961576006928,nan,587.6327887743792,nan,nan,nan,nan
1,232,1,1,nan,nan,nan,0.0,6,3,2,5,4,0,nan,nan,nan,nan,nan,nan,nan,nan,nan,nan,nan,nan,0.0,nan,nan,nan,nan,nan,nan,nan,nan,nan,nan,nan,nan,nan,nan,nan,nan,nan,nan,235.21304826049345,588.2962967292242,nan,nan,nan,nan,nan,nan
1,233,0,0,1.0,0.0,0.0883340726923052,0.0,5,8,1,6,0,3,nan,nan,nan,nan,nan,nan,nan,nan,nan,nan,nan,nan,0.0,nan,nan,nan,nan,nan,nan,nan,nan,nan,nan,nan,nan,nan,nan,nan,nan,nan,nan,235.21304826049345,589.2964412746442,nan,589.3847753473365,nan,nan,nan,nan
1,234,1,1,1.0,1.0,0.5041544691612216,0.0,3,7,5,1,2,8,nan,nan,nan,nan,nan,nan,nan,nan,nan,nan,nan,nan,0.0,nan,nan,nan,nan,nan,nan,nan,nan,nan,nan,nan,nan,nan,nan,nan,nan,nan,nan,235.21304826049345,590.2965940879494,nan,590.8007485571106,nan,nan,nan,nan
1,235,1,1,1.0,1.0,0.3440007093267923,0.0,6,0,4,8,1,5,nan,nan,nan,nan,nan,nan,nan,nan,nan,nan,nan,nan,0.0,nan,nan,nan,nan,nan,nan,nan,nan,nan,nan,nan,nan,nan,nan,nan,nan,nan,nan,235.21304826049345,591.2967389184687,nan,591.6407396277955,nan,nan,nan,nan
1,236,1,1,1.0,1.0,0.4158560339019459,0.0,1,8,7,3,4,0,nan,nan,nan,nan,nan,nan,nan,nan,nan,nan,nan,nan,0.0,nan,nan,nan,nan,nan,nan,nan,nan,nan,nan,nan,nan,nan,nan,nan,nan,nan,nan,235.21304826049345,592.2968692089162,nan,592.7127252428181,nan,nan,nan,nan
1,237,1,1,1.0,1.0,0.3597202376131463,0.0,5,0,4,8,1,2,nan,nan,nan,nan,nan,nan,nan,nan,nan,nan,nan,nan,0.0,nan,nan,nan,nan,nan,nan,nan,nan,nan,nan,nan,nan,nan,nan,nan,nan,nan,nan,235.21304826049345,593.2970114735417,nan,593.6567317111549,nan,nan,nan,nan
1,238,1,1,1.0,1.0,0.471549070745823,0.0,6,7,2,0,4,5,nan,nan,nan,nan,nan,nan,nan,nan,nan,nan,nan,nan,0.0,nan,nan,nan,nan,nan,nan,nan,nan,nan,nan,nan,nan,nan,nan,nan,nan,nan,nan,235.21304826049345,594.2971543083659,nan,594.7687033791117,nan,nan,nan,nan
1,239,1,1,1.0,1.0,0.5193628141369118,0.0,2,4,3,5,8,0,nan,nan,nan,nan,nan,nan,nan,nan,nan,nan,nan,nan,0.0,nan,nan,nan,nan,nan,nan,nan,nan,nan,nan,nan,nan,nan,nan,nan,nan,nan,nan,235.21304826049345,595.2973145342548,nan,595.8166773483917,nan,nan,nan,nan
1,240,1,1,1.0,1.0,0.3592335728553735,0.0,8,1,0,4,5,2,nan,nan,nan,nan,nan,nan,nan,nan,nan,nan,nan,nan,0.0,nan,nan,nan,nan,nan,nan,nan,nan,nan,nan,nan,nan,nan,nan,nan,nan,nan,nan,235.21304826049345,596.2974374121168,nan,596.6566709849722,nan,nan,nan,nan
1,241,1,1,1.0,1.0,0.3430633023417613,0.0,6,2,8,1,0,3,nan,nan,nan,nan,nan,nan,nan,nan,nan,nan,nan,nan,0.0,nan,nan,nan,nan,nan,nan,nan,nan,nan,nan,nan,nan,nan,nan,nan,nan,nan,nan,235.21304826049345,597.2975982082062,nan,597.640661510548,nan,nan,nan,nan
1,242,1,1,1.0,1.0,0.34291818672136287,0.0,3,6,5,4,8,7,nan,nan,nan,nan,nan,nan,nan,nan,nan,nan,nan,nan,0.0,nan,nan,nan,nan,nan,nan,nan,nan,nan,nan,nan,nan,nan,nan,nan,nan,nan,nan,235.21304826049345,598.2977293539534,nan,598.6406475406748,nan,nan,nan,nan
1,243,1,1,1.0,1.0,0.43881509248058137,0.0,1,5,0,7,3,4,nan,nan,nan,nan,nan,nan,nan,nan,nan,nan,nan,nan,0.0,nan,nan,nan,nan,nan,nan,nan,nan,nan,nan,nan,nan,nan,nan,nan,nan,nan,nan,235.21304826049345,599.2978308493566,nan,599.7366459418372,nan,nan,nan,nan
1,244,0,0,0.0,1.0,0.6465964257658925,1.0,6,3,1,5,2,8,1.0,1.0,1.0,1.0,1.0,1.0,0.0,0.0,0.0,0.0,0.0,0.0,0.0,4.0,8.0,4.0,6.0,5.0,6.0,3.0,2.0,1.0,5.0,4.0,6.0,7.447374348119411,6.8493685617413576,5.913324920999003,9.904105660136338,8.568464351734292,10.91946624821685,235.21304826049345,600.2980238616819,601.106436462167,600.9446202874478,613.0831347140502,614.089804330546,602.1232581849199,613.0748004018751
1,245,1,1,1.0,1.0,0.4448164358691429,0.0,4,0,8,6,5,1,nan,nan,nan,nan,nan,nan,nan,nan,nan,nan,nan,nan,0.0,nan,nan,nan,nan,nan,nan,nan,nan,nan,nan,nan,nan,nan,nan,nan,nan,nan,nan,235.21304826049345,614.2916618674917,nan,614.7364783033609,nan,nan,nan,nan
1,246,1,1,1.0,1.0,0.3166214689008484,0.0,1,4,2,3,8,5,nan,nan,nan,nan,nan,nan,nan,nan,nan,nan,nan,nan,0.0,nan,nan,nan,nan,nan,nan,nan,nan,nan,nan,nan,nan,nan,nan,nan,nan,nan,nan,235.21304826049345,615.2918143956977,nan,615.6084358645985,nan,nan,nan,nan
1,247,1,1,1.0,1.0,0.2924792476114817,0.0,6,3,8,1,0,7,nan,nan,nan,nan,nan,nan,nan,nan,nan,nan,nan,nan,0.0,nan,nan,nan,nan,nan,nan,nan,nan,nan,nan,nan,nan,nan,nan,nan,nan,nan,nan,235.21304826049345,616.2919563752221,nan,616.5844356228336,nan,nan,nan,nan
1,248,1,1,1.0,1.0,0.34032748803474533,0.0,4,0,7,2,3,6,nan,nan,nan,nan,nan,nan,nan,nan,nan,nan,nan,nan,0.0,nan,nan,nan,nan,nan,nan,nan,nan,nan,nan,nan,nan,nan,nan,nan,nan,nan,nan,235.21304826049345,617.2920989249469,nan,617.6324264129817,nan,nan,nan,nan
1,249,1,1,1.0,1.0,0.3001763625179592,0.0,1,7,5,3,6,8,nan,nan,nan,nan,nan,nan,nan,nan,nan,nan,nan,nan,0.0,nan,nan,nan,nan,nan,nan,nan,nan,nan,nan,nan,nan,nan,nan,nan,nan,nan,nan,235.21304826049345,618.2922360577813,nan,618.5924124202993,nan,nan,nan,nan
1,250,1,1,1.0,1.0,0.3320191199109104,0.0,8,3,4,0,5,7,nan,nan,nan,nan,nan,nan,nan,nan,nan,nan,nan,nan,0.0,nan,nan,nan,nan,nan,nan,nan,nan,nan,nan,nan,nan,nan,nan,nan,nan,nan,nan,235.21304826049345,619.292378322405,nan,619.624397442316,nan,nan,nan,nan
1,251,1,1,1.0,1.0,0.3235619298720849,0.0,6,0,7,2,4,1,nan,nan,nan,nan,nan,nan,nan,nan,nan,nan,nan,nan,0.0,nan,nan,nan,nan,nan,nan,nan,nan,nan,nan,nan,nan,nan,nan,nan,nan,nan,nan,235.21304826049345,620.3008249637642,nan,620.6243868936363,nan,nan,nan,nan
1,252,1,1,1.0,1.0,0.3390459660131455,0.0,1,5,2,7,3,8,nan,nan,nan,nan,nan,nan,nan,nan,nan,nan,nan,nan,0.0,nan,nan,nan,nan,nan,nan,nan,nan,nan,nan,nan,nan,nan,nan,nan,nan,nan,nan,235.21304826049345,621.3093337568007,nan,621.6483797228138,nan,nan,nan,nan
1,253,1,1,1.0,1.0,0.3068787654501648,0.0,0,8,3,1,5,2,nan,nan,nan,nan,nan,nan,nan,nan,nan,nan,nan,nan,0.0,nan,nan,nan,nan,nan,nan,nan,nan,nan,nan,nan,nan,nan,nan,nan,nan,nan,nan,235.21304826049345,622.3094777320221,nan,622.6163564974722,nan,nan,nan,nan
1,254,1,1,1.0,1.0,0.33071878132614074,0.0,5,3,7,4,6,0,nan,nan,nan,nan,nan,nan,nan,nan,nan,nan,nan,nan,0.0,nan,nan,nan,nan,nan,nan,nan,nan,nan,nan,nan,nan,nan,nan,nan,nan,nan,nan,235.21304826049345,623.30961828605,nan,623.6403370673761,nan,nan,nan,nan
1,255,1,1,1.0,1.0,0.3145835780451307,0.0,4,8,6,5,0,2,nan,nan,nan,nan,nan,nan,nan,nan,nan,nan,nan,nan,0.0,nan,nan,nan,nan,nan,nan,nan,nan,nan,nan,nan,nan,nan,nan,nan,nan,nan,nan,235.21304826049345,624.3097599804751,nan,624.6243435585202,nan,nan,nan,nan
1,256,1,1,1.0,1.0,0.34637530263353256,0.0,3,1,0,7,8,6,nan,nan,nan,nan,nan,nan,nan,nan,nan,nan,nan,nan,0.0,nan,nan,nan,nan,nan,nan,nan,nan,nan,nan,nan,nan,nan,nan,nan,nan,nan,nan,235.21304826049345,625.3099378825318,nan,625.6563131851653,nan,nan,nan,nan
1,257,1,1,1.0,1.0,0.298257643231409,0.0,2,7,3,6,5,8,nan,nan,nan,nan,nan,nan,nan,nan,nan,nan,nan,nan,0.0,nan,nan,nan,nan,nan,nan,nan,nan,nan,nan,nan,nan,nan,nan,nan,nan,nan,nan,235.21304826049345,626.3100576242996,nan,626.608315267531,nan,nan,nan,nan
1,258,1,1,1.0,1.0,0.31377959759993246,0.0,8,6,4,2,7,5,nan,nan,nan,nan,nan,nan,nan,nan,nan,nan,nan,nan,0.0,nan,nan,nan,nan,nan,nan,nan,nan,nan,nan,nan,nan,nan,nan,nan,nan,nan,nan,235.21304826049345,627.318519090828,nan,627.6322986884279,nan,nan,nan,nan
1,259,1,1,1.0,1.0,0.313290081847299,0.0,1,0,2,5,6,8,nan,nan,nan,nan,nan,nan,nan,nan,nan,nan,nan,nan,0.0,nan,nan,nan,nan,nan,nan,nan,nan,nan,nan,nan,nan,nan,nan,nan,nan,nan,nan,235.21304826049345,628.3269968080258,nan,628.6402868898731,nan,nan,nan,nan
1,260,1,1,1.0,1.0,0.30510430648428155,0.0,5,2,4,7,8,1,nan,nan,nan,nan,nan,nan,nan,nan,nan,nan,nan,nan,0.0,nan,nan,nan,nan,nan,nan,nan,nan,nan,nan,nan,nan,nan,nan,nan,nan,nan,nan,235.21304826049345,629.3271687229935,nan,629.6322730294778,nan,nan,nan,nan
1,261,1,1,1.0,1.0,0.3449808812310948,0.0,2,8,5,1,3,4,nan,nan,nan,nan,nan,nan,nan,nan,nan,nan,nan,nan,0.0,nan,nan,nan,nan,nan,nan,nan,nan,nan,nan,nan,nan,nan,nan,nan,nan,nan,nan,235.21304826049345,630.3272847584685,nan,630.6722656396996,nan,nan,nan,nan
1,262,0,0,0.0,1.0,0.4968288388354267,0.0,8,3,1,7,5,2,nan,nan,nan,nan,nan,nan,nan,nan,nan,nan,nan,nan,0.0,nan,nan,nan,nan,nan,nan,nan,nan,nan,nan,nan,nan,nan,nan,nan,nan,nan,nan,235.21304826049345,631.3274307293868,nan,631.8242595682223,nan,nan,nan,nan
1,263,1,1,1.0,1.0,0.4806713977977779,0.0,3,0,5,4,7,6,nan,nan,nan,nan,nan,nan,nan,nan,nan,nan,nan,nan,0.0,nan,nan,nan,nan,nan,nan,nan,nan,nan,nan,nan,nan,nan,nan,nan,nan,nan,nan,235.21304826049345,632.3275690026185,nan,632.8082404004163,nan,nan,nan,nan
1,264,1,1,1.0,1.0,0.3365094362216041,0.0,0,6,7,8,3,1,nan,nan,nan,nan,nan,nan,nan,nan,nan,nan,nan,nan,0.0,nan,nan,nan,nan,nan,nan,nan,nan,nan,nan,nan,nan,nan,nan,nan,nan,nan,nan,235.21304826049345,633.3277132629391,nan,633.6642226991607,nan,nan,nan,nan
1,265,1,1,1.0,1.0,0.3363737288837001,0.0,6,0,8,1,4,2,nan,nan,nan,nan,nan,nan,nan,nan,nan,nan,nan,nan,0.0,nan,nan,nan,nan,nan,nan,nan,nan,nan,nan,nan,nan,nan,nan,nan,nan,nan,nan,235.21304826049345,634.3278566679619,nan,634.6642303968456,nan,nan,nan,nan
1,266,1,1,1.0,1.0,0.33620723080639436,0.0,0,5,1,3,8,4,nan,nan,nan,nan,nan,nan,nan,nan,nan,nan,nan,nan,0.0,nan,nan,nan,nan,nan,nan,nan,nan,nan,nan,nan,nan,nan,nan,nan,nan,nan,nan,235.21304826049345,635.3279972219898,nan,635.6642044527962,nan,nan,nan,nan
1,267,1,1,1.0,1.0,0.3200597682480293,0.0,3,1,8,2,0,6,nan,nan,nan,nan,nan,nan,nan,nan,nan,nan,nan,nan,0.0,nan,nan,nan,nan,nan,nan,nan,nan,nan,nan,nan,nan,nan,nan,nan,nan,nan,nan,235.21304826049345,636.328135210124,nan,636.648194978372,nan,nan,nan,nan
1,268,1,1,1.0,1.0,0.32789943287934875,0.0,0,2,3,7,6,5,nan,nan,nan,nan,nan,nan,nan,nan,nan,nan,nan,nan,0.0,nan,nan,nan,nan,nan,nan,nan,nan,nan,nan,nan,nan,nan,nan,nan,nan,nan,nan,235.21304826049345,637.328278900246,nan,637.6561783331254,nan,nan,nan,nan
1,269,1,1,1.0,1.0,0.3277853931012942,0.0,2,4,6,8,1,0,nan,nan,nan,nan,nan,nan,nan,nan,nan,nan,nan,nan,0.0,nan,nan,nan,nan,nan,nan,nan,nan,nan,nan,nan,nan,nan,nan,nan,nan,nan,nan,235.21304826049345,638.328384101942,nan,638.6561694950433,nan,nan,nan,nan
1,270,1,1,1.0,1.0,0.3355837183116819,0.0,1,2,5,3,4,7,nan,nan,nan,nan,nan,nan,nan,nan,nan,nan,nan,nan,0.0,nan,nan,nan,nan,nan,nan,nan,nan,nan,nan,nan,nan,nan,nan,nan,nan,nan,nan,235.21304826049345,639.3285674208873,nan,639.664151139199,nan,nan,nan,nan
1,271,1,1,1.0,1.0,0.38344906470410933,0.0,8,5,7,0,2,3,nan,nan,nan,nan,nan,nan,nan,nan,nan,nan,nan,nan,0.0,nan,nan,nan,nan,nan,nan,nan,nan,nan,nan,nan,nan,nan,nan,nan,nan,nan,nan,235.21304826049345,640.3287019878262,nan,640.7121510525303,nan,nan,nan,nan
1,272,1,1,1.0,1.0,0.37527469331871544,0.0,2,3,8,7,5,4,nan,nan,nan,nan,nan,nan,nan,nan,nan,nan,nan,nan,0.0,nan,nan,nan,nan,nan,nan,nan,nan,nan,nan,nan,nan,nan,nan,nan,nan,nan,nan,235.21304826049345,641.3288510948387,nan,641.7041257881574,nan,nan,nan,nan
1,273,1,1,1.0,1.0,0.38313460001154453,0.0,3,2,5,1,4,7,nan,nan,nan,nan,nan,nan,nan,nan,nan,nan,nan,nan,0.0,nan,nan,nan,nan,nan,nan,nan,nan,nan,nan,nan,nan,nan,nan,nan,nan,nan,nan,235.21304826049345,642.3289930743631,nan,642.7121276743746,nan,nan,nan,nan
1,274,0,0,nan,nan,nan,1.0,0,3,1,8,6,5,1.0,1.0,1.0,1.0,1.0,1.0,0.0,0.0,1.0,0.0,0.0,0.0,1.0,5.0,7.0,1.0,3.0,0.0,2.0,5.0,6.0,1.0,2.0,3.0,4.0,8.896376899190727,10.288116085652291,3.403471028765125,4.601203176693161,5.888368455684031,7.0333460867823305,235.21304826049345,643.3291333432917,644.1375582030523,nan,655.4725007327052,656.4745525934359,645.1460419073373,655.4641681311277
1,275,1,1,nan,nan,nan,0.0,8,1,0,5,2,7,nan,nan,nan,nan,nan,nan,nan,nan,nan,nan,nan,nan,0.0,nan,nan,nan,nan,nan,nan,nan,nan,nan,nan,nan,nan,nan,nan,nan,nan,nan,nan,235.21304826049345,656.6810384348264,nan,nan,nan,nan,nan,nan
1,276,1,1,nan,nan,nan,0.0,3,2,6,7,8,0,nan,nan,nan,nan,nan,nan,nan,nan,nan,nan,nan,nan,0.0,nan,nan,nan,nan,nan,nan,nan,nan,nan,nan,nan,nan,nan,nan,nan,nan,nan,nan,235.21304826049345,657.6811741421643,nan,nan,nan,nan,nan,nan
1,277,0,0,1.0,0.0,0.09463762149607646,0.0,2,7,4,0,3,1,nan,nan,nan,nan,nan,nan,nan,nan,nan,nan,nan,nan,0.0,nan,nan,nan,nan,nan,nan,nan,nan,nan,nan,nan,nan,nan,nan,nan,nan,nan,nan,235.21304826049345,658.6813195428822,nan,658.7759571643783,nan,nan,nan,nan
1,278,1,1,1.0,1.0,0.3824181450981996,0.0,0,6,3,5,7,2,nan,nan,nan,nan,nan,nan,nan,nan,nan,nan,nan,nan,0.0,nan,nan,nan,nan,nan,nan,nan,nan,nan,nan,nan,nan,nan,nan,nan,nan,nan,nan,235.21304826049345,659.6814558204187,nan,660.0638739655169,nan,nan,nan,nan
1,279,1,1,1.0,1.0,0.6142963688598684,0.0,3,0,4,1,6,7,nan,nan,nan,nan,nan,nan,nan,nan,nan,nan,nan,nan,0.0,nan,nan,nan,nan,nan,nan,nan,nan,nan,nan,nan,nan,nan,nan,nan,nan,nan,nan,235.21304826049345,660.6816037870321,nan,661.295900155892,nan,nan,nan,nan
1,280,1,1,1.0,1.0,0.40612302383487986,0.0,8,7,6,4,2,5,nan,nan,nan,nan,nan,nan,nan,nan,nan,nan,nan,nan,0.0,nan,nan,nan,nan,nan,nan,nan,nan,nan,nan,nan,nan,nan,nan,nan,nan,nan,nan,235.21304826049345,661.6817631576232,nan,662.0878861814581,nan,nan,nan,nan
1,281,1,1,1.0,1.0,0.42998185627220664,0.0,7,8,1,3,5,4,nan,nan,nan,nan,nan,nan,nan,nan,nan,nan,nan,nan,0.0,nan,nan,nan,nan,nan,nan,nan,nan,nan,nan,nan,nan,nan,nan,nan,nan,nan,nan,235.21304826049345,662.6818962990656,nan,663.1118781553378,nan,nan,nan,nan
1,282,0,0,0.0,1.0,0.5018517209173297,0.0,8,4,0,6,1,2,nan,nan,nan,nan,nan,nan,nan,nan,nan,nan,nan,nan,0.0,nan,nan,nan,nan,nan,nan,nan,nan,nan,nan,nan,nan,nan,nan,nan,nan,nan,nan,235.21304826049345,663.6820214577237,nan,664.1838731786411,nan,nan,nan,nan
1,283,1,1,1.0,1.0,0.4696665590890916,0.0,5,3,2,8,7,1,nan,nan,nan,nan,nan,nan,nan,nan,nan,nan,nan,nan,0.0,nan,nan,nan,nan,nan,nan,nan,nan,nan,nan,nan,nan,nan,nan,nan,nan,nan,nan,235.21304826049345,664.6821799730169,nan,665.151846532106,nan,nan,nan,nan
1,284,1,1,1.0,1.0,0.493515983245743,0.0,7,1,5,6,3,0,nan,nan,nan,nan,nan,nan,nan,nan,nan,nan,nan,nan,0.0,nan,nan,nan,nan,nan,nan,nan,nan,nan,nan,nan,nan,nan,nan,nan,nan,nan,nan,235.21304826049345,665.6823191015483,nan,666.175835084794,nan,nan,nan,nan
1,285,1,1,1.0,1.0,0.34136011823648005,0.0,6,5,8,7,2,4,nan,nan,nan,nan,nan,nan,nan,nan,nan,nan,nan,nan,0.0,nan,nan,nan,nan,nan,nan,nan,nan,nan,nan,nan,nan,nan,nan,nan,nan,nan,nan,235.21304826049345,666.6824716297524,nan,667.0238317479889,nan,nan,nan,nan
1,286,1,1,1.0,1.0,0.3411890585666697,0.0,5,0,7,8,3,6,nan,nan,nan,nan,nan,nan,nan,nan,nan,nan,nan,nan,0.0,nan,nan,nan,nan,nan,nan,nan,nan,nan,nan,nan,nan,nan,nan,nan,nan,nan,nan,235.21304826049345,667.6826227324618,nan,668.0238117910285,nan,nan,nan,nan
1,287,1,1,1.0,1.0,0.3010402138479549,0.0,2,8,5,6,4,1,nan,nan,nan,nan,nan,nan,nan,nan,nan,nan,nan,nan,0.0,nan,nan,nan,nan,nan,nan,nan,nan,nan,nan,nan,nan,nan,nan,nan,nan,nan,nan,235.21304826049345,668.6827541633065,nan,668.9837943771545,nan,nan,nan,nan
1,288,1,1,1.0,1.0,0.5969132852915209,0.0,1,3,6,7,2,0,nan,nan,nan,nan,nan,nan,nan,nan,nan,nan,nan,nan,0.0,nan,nan,nan,nan,nan,nan,nan,nan,nan,nan,nan,nan,nan,nan,nan,nan,nan,nan,235.21304826049345,669.6828744752747,nan,670.2797877605663,nan,nan,nan,nan
1,289,1,1,1.0,1.0,0.7167440046432603,0.0,4,1,5,0,7,8,nan,nan,nan,nan,nan,nan,nan,nan,nan,nan,nan,nan,0.0,nan,nan,nan,nan,nan,nan,nan,nan,nan,nan,nan,nan,nan,nan,nan,nan,nan,nan,235.21304826049345,670.6830272885782,nan,671.3997712932214,nan,nan,nan,nan
1,290,1,1,1.0,1.0,0.7885793722580274,0.0,0,4,3,5,8,7,nan,nan,nan,nan,nan,nan,nan,nan,nan,nan,nan,nan,0.0,nan,nan,nan,nan,nan,nan,nan,nan,nan,nan,nan,nan,nan,nan,nan,nan,nan,nan,235.21304826049345,671.683172689296,nan,672.4717520615541,nan,nan,nan,nan
1,291,1,1,nan,nan,nan,0.0,5,2,8,1,3,4,nan,nan,nan,nan,nan,nan,nan,nan,nan,nan,nan,nan,0.0,nan,nan,nan,nan,nan,nan,nan,nan,nan,nan,nan,nan,nan,nan,nan,nan,nan,nan,235.21304826049345,672.6833277833975,nan,nan,nan,nan,nan,nan
1,292,1,1,nan,nan,nan,0.0,7,8,6,0,2,5,nan,nan,nan,nan,nan,nan,nan,nan,nan,nan,nan,nan,0.0,nan,nan,nan,nan,nan,nan,nan,nan,nan,nan,nan,nan,nan,nan,nan,nan,nan,nan,235.21304826049345,673.6834515165574,nan,nan,nan,nan,nan,nan
1,293,1,1,1.0,1.0,0.08415594027428597,0.0,5,2,8,1,0,4,nan,nan,nan,nan,nan,nan,nan,nan,nan,nan,nan,nan,0.0,nan,nan,nan,nan,nan,nan,nan,nan,nan,nan,nan,nan,nan,nan,nan,nan,nan,nan,235.21304826049345,674.6835980576743,nan,674.7677539979486,nan,nan,nan,nan
1,294,1,1,1.0,1.0,0.2679780861162726,0.0,8,7,3,4,2,1,nan,nan,nan,nan,nan,nan,nan,nan,nan,nan,nan,nan,0.0,nan,nan,nan,nan,nan,nan,nan,nan,nan,nan,nan,nan,nan,nan,nan,nan,nan,nan,235.21304826049345,675.683740322298,nan,675.9517184084143,nan,nan,nan,nan
1,295,1,1,1.0,1.0,0.5558019448344567,0.0,4,5,8,0,7,3,nan,nan,nan,nan,nan,nan,nan,nan,nan,nan,nan,nan,0.0,nan,nan,nan,nan,nan,nan,nan,nan,nan,nan,nan,nan,nan,nan,nan,nan,nan,nan,235.21304826049345,676.6838988375912,nan,677.2397007824256,nan,nan,nan,nan
1,296,1,1,1.0,1.0,0.371668470395889,0.0,2,3,5,1,6,4,nan,nan,nan,nan,nan,nan,nan,nan,nan,nan,nan,nan,0.0,nan,nan,nan,nan,nan,nan,nan,nan,nan,nan,nan,nan,nan,nan,nan,nan,nan,nan,235.21304826049345,677.6840242813487,nan,678.0556927517446,nan,nan,nan,nan
1,297,1,1,1.0,1.0,0.3554927829918597,0.0,5,6,7,8,4,3,nan,nan,nan,nan,nan,nan,nan,nan,nan,nan,nan,nan,0.0,nan,nan,nan,nan,nan,nan,nan,nan,nan,nan,nan,nan,nan,nan,nan,nan,nan,nan,235.21304826049345,678.684176239356,nan,679.0396690223479,nan,nan,nan,nan
1,298,1,1,1.0,1.0,0.28332841061637737,0.0,0,8,2,6,7,5,nan,nan,nan,nan,nan,nan,nan,nan,nan,nan,nan,nan,0.0,nan,nan,nan,nan,nan,nan,nan,nan,nan,nan,nan,nan,nan,nan,nan,nan,nan,nan,235.21304826049345,679.6843353248478,nan,679.9676637354642,nan,nan,nan,nan
1,299,1,1,1.0,1.0,0.19518877574955695,0.0,8,6,1,4,3,2,nan,nan,nan,nan,nan,nan,nan,nan,nan,nan,nan,nan,0.0,nan,nan,nan,nan,nan,nan,nan,nan,nan,nan,nan,nan,nan,nan,nan,nan,nan,nan,235.21304826049345,680.6844619090025,nan,680.879650684752,nan,nan,nan,nan
1,300,1,1,1.0,1.0,0.12304607093028608,0.0,3,5,7,6,4,1,nan,nan,nan,nan,nan,nan,nan,nan,nan,nan,nan,nan,0.0,nan,nan,nan,nan,nan,nan,nan,nan,nan,nan,nan,nan,nan,nan,nan,nan,nan,nan,235.21304826049345,681.6846093054173,nan,681.8076553763476,nan,nan,nan,nan
1,301,1,1,1.0,1.0,0.32288966537271335,0.0,0,7,5,2,6,8,nan,nan,nan,nan,nan,nan,nan,nan,nan,nan,nan,nan,0.0,nan,nan,nan,nan,nan,nan,nan,nan,nan,nan,nan,nan,nan,nan,nan,nan,nan,nan,235.21304826049345,682.6847341789762,nan,683.0076238443489,nan,nan,nan,nan
1,302,1,1,1.0,1.0,0.20270998429805331,0.0,7,6,2,3,4,0,nan,nan,nan,nan,nan,nan,nan,nan,nan,nan,nan,nan,0.0,nan,nan,nan,nan,nan,nan,nan,nan,nan,nan,nan,nan,nan,nan,nan,nan,nan,nan,235.21304826049345,683.6849234850088,nan,683.8876334693068,nan,nan,nan,nan
1,303,0,0,1.0,0.0,0.2665984898867464,0.0,0,8,1,2,7,6,nan,nan,nan,nan,nan,nan,nan,nan,nan,nan,nan,nan,0.0,nan,nan,nan,nan,nan,nan,nan,nan,nan,nan,nan,nan,nan,nan,nan,nan,nan,nan,235.21304826049345,684.6850204188213,nan,684.951618908708,nan,nan,nan,nan
1,304,1,1,1.0,1.0,0.2904185487986979,0.0,6,4,7,5,8,3,nan,nan,nan,nan,nan,nan,nan,nan,nan,nan,nan,nan,0.0,nan,nan,nan,nan,nan,nan,nan,nan,nan,nan,nan,nan,nan,nan,nan,nan,nan,nan,235.21304826049345,685.6851626834468,nan,685.9755812322455,nan,nan,nan,nan
1,305,1,1,1.0,1.0,0.12994148618963663,0.0,0,2,8,4,3,7,nan,nan,nan,nan,nan,nan,nan,nan,nan,nan,nan,nan,0.0,nan,nan,nan,nan,nan,nan,nan,nan,nan,nan,nan,nan,nan,nan,nan,nan,nan,nan,235.21304826049345,686.6936483834288,nan,686.8235898696184,nan,nan,nan,nan
1,306,1,1,1.0,1.0,0.12180047144101991,0.0,3,0,2,1,4,6,nan,nan,nan,nan,nan,nan,nan,nan,nan,nan,nan,nan,0.0,nan,nan,nan,nan,nan,nan,nan,nan,nan,nan,nan,nan,nan,nan,nan,nan,nan,nan,235.21304826049345,687.6937823801691,nan,687.8155828516101,nan,nan,nan,nan
1,307,1,1,1.0,1.0,0.12963329368540144,0.0,1,7,6,5,8,4,nan,nan,nan,nan,nan,nan,nan,nan,nan,nan,nan,nan,0.0,nan,nan,nan,nan,nan,nan,nan,nan,nan,nan,nan,nan,nan,nan,nan,nan,nan,nan,235.21304826049345,688.6939232192963,nan,688.8235565129817,nan,nan,nan,nan
1,308,1,1,1.0,1.0,0.21748440791270696,0.0,5,0,1,2,7,3,nan,nan,nan,nan,nan,nan,nan,nan,nan,nan,nan,nan,0.0,nan,nan,nan,nan,nan,nan,nan,nan,nan,nan,nan,nan,nan,nan,nan,nan,nan,nan,235.21304826049345,689.6940674796169,nan,689.9115518875296,nan,nan,nan,nan
1,309,1,1,1.0,1.0,0.24931747192022158,0.0,1,8,7,3,0,6,nan,nan,nan,nan,nan,nan,nan,nan,nan,nan,nan,nan,0.0,nan,nan,nan,nan,nan,nan,nan,nan,nan,nan,nan,nan,nan,nan,nan,nan,nan,nan,235.21304826049345,690.6942251396122,nan,690.9435426115324,nan,nan,nan,nan
1,310,1,1,1.0,1.0,0.3531569632123137,0.0,6,4,2,1,5,8,nan,nan,nan,nan,nan,nan,nan,nan,nan,nan,nan,nan,0.0,nan,nan,nan,nan,nan,nan,nan,nan,nan,nan,nan,nan,nan,nan,nan,nan,nan,nan,235.21304826049345,691.694367689337,nan,692.0475246525493,nan,nan,nan,nan
1,311,1,1,1.0,1.0,0.36101829540166364,0.0,2,3,8,5,0,6,nan,nan,nan,nan,nan,nan,nan,nan,nan,nan,nan,nan,0.0,nan,nan,nan,nan,nan,nan,nan,nan,nan,nan,nan,nan,nan,nan,nan,nan,nan,nan,235.21304826049345,692.6944979797845,nan,693.0555162751862,nan,nan,nan,nan
1,312,1,1,1.0,1.0,0.32882543588675617,0.0,3,6,0,8,5,2,nan,nan,nan,nan,nan,nan,nan,nan,nan,nan,nan,nan,0.0,nan,nan,nan,nan,nan,nan,nan,nan,nan,nan,nan,nan,nan,nan,nan,nan,nan,nan,235.21304826049345,693.6946647629629,nan,694.0234901988497,nan,nan,nan,nan
1,313,1,1,1.0,1.0,0.2567072496221954,0.0,4,5,8,6,1,0,nan,nan,nan,nan,nan,nan,nan,nan,nan,nan,nan,nan,0.0,nan,nan,nan,nan,nan,nan,nan,nan,nan,nan,nan,nan,nan,nan,nan,nan,nan,nan,235.21304826049345,694.6947876408249,nan,694.9514948904471,nan,nan,nan,nan
1,314,1,1,1.0,1.0,0.3045594814375363,0.0,5,2,7,4,3,8,nan,nan,nan,nan,nan,nan,nan,nan,nan,nan,nan,nan,0.0,nan,nan,nan,nan,nan,nan,nan,nan,nan,nan,nan,nan,nan,nan,nan,nan,nan,nan,235.21304826049345,695.6949210673665,nan,695.9994805488041,nan,nan,nan,nan
1,315,1,1,1.0,1.0,0.24838263083074708,0.0,2,8,5,1,6,3,nan,nan,nan,nan,nan,nan,nan,nan,nan,nan,nan,nan,0.0,nan,nan,nan,nan,nan,nan,nan,nan,nan,nan,nan,nan,nan,nan,nan,nan,nan,nan,235.21304826049345,696.695088705841,nan,696.9434713366718,nan,nan,nan,nan
1,316,1,1,1.0,1.0,0.2722371867748734,0.0,6,5,1,3,4,8,nan,nan,nan,nan,nan,nan,nan,nan,nan,nan,nan,nan,0.0,nan,nan,nan,nan,nan,nan,nan,nan,nan,nan,nan,nan,nan,nan,nan,nan,nan,nan,235.21304826049345,697.6952081625113,nan,697.9674453492862,nan,nan,nan,nan
1,317,1,1,1.0,1.0,0.3280950111020502,0.0,5,0,4,8,7,1,nan,nan,nan,nan,nan,nan,nan,nan,nan,nan,nan,nan,0.0,nan,nan,nan,nan,nan,nan,nan,nan,nan,nan,nan,nan,nan,nan,nan,nan,nan,nan,235.21304826049345,698.6953475761402,nan,699.0234425872422,nan,nan,nan,nan
1,318,0,0,0.0,1.0,0.47994011771152145,1.0,7,3,8,5,2,6,1.0,1.0,1.0,1.0,1.0,1.0,1.0,0.0,1.0,1.0,1.0,1.0,5.0,7.0,1.0,8.0,5.0,2.0,6.0,6.0,2.0,1.0,3.0,4.0,5.0,8.20111684857875,4.154918478663603,3.3533548222276295,5.865903759548019,6.736795619046461,7.513233746194601,235.21304826049345,699.6954906960636,700.503913275028,700.1754308137752,709.7635533426765,710.7619105996546,701.5207364232792,709.7552549530319
1,319,1,1,nan,nan,nan,0.0,3,4,5,6,8,2,nan,nan,nan,nan,nan,nan,nan,nan,nan,nan,nan,nan,0.0,nan,nan,nan,nan,nan,nan,nan,nan,nan,nan,nan,nan,nan,nan,nan,nan,nan,nan,235.21304826049345,710.9637436180474,nan,nan,nan,nan,nan,nan
1,320,1,1,1.0,1.0,0.21938858712746878,0.0,8,0,2,4,6,7,nan,nan,nan,nan,nan,nan,nan,nan,nan,nan,nan,nan,0.0,nan,nan,nan,nan,nan,nan,nan,nan,nan,nan,nan,nan,nan,nan,nan,nan,nan,nan,235.21304826049345,711.9639041290375,nan,712.1832927161649,nan,nan,nan,nan
1,321,1,1,1.0,1.0,0.3472029463318904,0.0,3,8,1,7,5,4,nan,nan,nan,nan,nan,nan,nan,nan,nan,nan,nan,nan,0.0,nan,nan,nan,nan,nan,nan,nan,nan,nan,nan,nan,nan,nan,nan,nan,nan,nan,nan,235.21304826049345,712.964046393663,nan,713.3112493399949,nan,nan,nan,nan
1,322,1,1,1.0,1.0,0.3070475443255418,0.0,5,3,4,0,8,1,nan,nan,nan,nan,nan,nan,nan,nan,nan,nan,nan,nan,0.0,nan,nan,nan,nan,nan,nan,nan,nan,nan,nan,nan,nan,nan,nan,nan,nan,nan,nan,235.21304826049345,713.9642143172368,nan,714.2712618615624,nan,nan,nan,nan
1,323,1,1,1.0,1.0,0.3869056104140327,0.0,3,1,5,7,4,8,nan,nan,nan,nan,nan,nan,nan,nan,nan,nan,nan,nan,0.0,nan,nan,nan,nan,nan,nan,nan,nan,nan,nan,nan,nan,nan,nan,nan,nan,nan,nan,235.21304826049345,714.9643309229123,nan,715.3512365333263,nan,nan,nan,nan
1,324,0,0,1.0,0.0,0.25075979002940585,1.0,5,7,6,2,8,4,1.0,1.0,1.0,1.0,1.0,1.0,0.0,0.0,0.0,0.0,0.0,1.0,1.0,7.0,6.0,5.0,3.0,1.0,4.0,6.0,3.0,2.0,4.0,5.0,1.0,15.107304019787989,8.501310317064053,6.3954711382411915,9.803632623130397,12.459727422119613,4.64641823860984,235.21304826049345,715.9644823107192,716.7729091661749,716.2152421007486,732.9418670820742,733.9432443975093,717.798053512026,732.9335647010375
1,325,1,1,nan,nan,nan,0.0,2,3,0,8,5,7,nan,nan,nan,nan,nan,nan,nan,nan,nan,nan,nan,nan,0.0,nan,nan,nan,nan,nan,nan,nan,nan,nan,nan,nan,nan,nan,nan,nan,nan,nan,nan,235.21304826049345,734.1503968014113,nan,nan,nan,nan,nan,nan
1,326,1,1,1.0,1.0,0.4084212104862672,0.0,7,8,5,0,3,4,nan,nan,nan,nan,nan,nan,nan,nan,nan,nan,nan,nan,0.0,nan,nan,nan,nan,nan,nan,nan,nan,nan,nan,nan,nan,nan,nan,nan,nan,nan,nan,235.21304826049345,735.1505507551137,nan,735.5589719656,nan,nan,nan,nan
1,327,1,1,1.0,1.0,0.015974692292729742,0.0,1,2,3,6,4,8,nan,nan,nan,nan,nan,nan,nan,nan,nan,nan,nan,nan,0.0,nan,nan,nan,nan,nan,nan,nan,nan,nan,nan,nan,nan,nan,nan,nan,nan,nan,nan,235.21304826049345,736.1590515653661,nan,736.1750262576588,nan,nan,nan,nan
1,328,1,1,1.0,1.0,0.7037708393454523,0.0,7,5,8,2,0,1,nan,nan,nan,nan,nan,nan,nan,nan,nan,nan,nan,nan,0.0,nan,nan,nan,nan,nan,nan,nan,nan,nan,nan,nan,nan,nan,nan,nan,nan,nan,nan,235.21304826049345,737.1591599031563,nan,737.8629307425017,nan,nan,nan,nan
1,329,1,1,1.0,1.0,0.39166848179957015,0.0,3,2,6,7,5,4,nan,nan,nan,nan,nan,nan,nan,nan,nan,nan,nan,nan,0.0,nan,nan,nan,nan,nan,nan,nan,nan,nan,nan,nan,nan,nan,nan,nan,nan,nan,nan,235.21304826049345,738.1592996018862,nan,738.5509680836858,nan,nan,nan,nan
1,330,1,1,1.0,1.0,0.27919190272041305,0.0,4,6,2,5,0,1,nan,nan,nan,nan,nan,nan,nan,nan,nan,nan,nan,nan,0.0,nan,nan,nan,nan,nan,nan,nan,nan,nan,nan,nan,nan,nan,nan,nan,nan,nan,nan,235.21304826049345,739.1677528005312,nan,739.4469447032516,nan,nan,nan,nan
1,331,1,1,1.0,1.0,0.2787197780326096,0.0,5,0,1,3,6,7,nan,nan,nan,nan,nan,nan,nan,nan,nan,nan,nan,nan,0.0,nan,nan,nan,nan,nan,nan,nan,nan,nan,nan,nan,nan,nan,nan,nan,nan,nan,nan,235.21304826049345,740.1762242455407,nan,740.4549440235733,nan,nan,nan,nan
1,332,1,1,1.0,1.0,0.310542008262928,0.0,6,7,3,0,1,4,nan,nan,nan,nan,nan,nan,nan,nan,nan,nan,nan,nan,0.0,nan,nan,nan,nan,nan,nan,nan,nan,nan,nan,nan,nan,nan,nan,nan,nan,nan,nan,235.21304826049345,741.1763904585187,nan,741.4869324667816,nan,nan,nan,nan
1,333,1,1,1.0,1.0,0.32642005184243317,0.0,4,1,5,7,8,2,nan,nan,nan,nan,nan,nan,nan,nan,nan,nan,nan,nan,0.0,nan,nan,nan,nan,nan,nan,nan,nan,nan,nan,nan,nan,nan,nan,nan,nan,nan,nan,235.21304826049345,742.1764973708123,nan,742.5029174226547,nan,nan,nan,nan
1,334,1,1,1.0,1.0,0.30222480205702595,0.0,8,0,2,6,5,1,nan,nan,nan,nan,nan,nan,nan,nan,nan,nan,nan,nan,0.0,nan,nan,nan,nan,nan,nan,nan,nan,nan,nan,nan,nan,nan,nan,nan,nan,nan,nan,235.21304826049345,743.1766786940607,nan,743.4789034961177,nan,nan,nan,nan
1,335,0,0,1.0,0.0,0.27007014586888545,0.0,0,8,4,5,1,7,nan,nan,nan,nan,nan,nan,nan,nan,nan,nan,nan,nan,0.0,nan,nan,nan,nan,nan,nan,nan,nan,nan,nan,nan,nan,nan,nan,nan,nan,nan,nan,235.21304826049345,744.1768206735869,nan,744.4468908194558,nan,nan,nan,nan
1,336,1,1,1.0,1.0,0.3095843592163874,0.0,6,4,5,1,8,2,nan,nan,nan,nan,nan,nan,nan,nan,nan,nan,nan,nan,0.0,nan,nan,nan,nan,nan,nan,nan,nan,nan,nan,nan,nan,nan,nan,nan,nan,nan,nan,235.21304826049345,745.1852744424305,nan,745.4948588016468,nan,nan,nan,nan
1,337,1,1,1.0,1.0,0.25311043498186336,0.0,0,8,3,2,4,1,nan,nan,nan,nan,nan,nan,nan,nan,nan,nan,nan,nan,0.0,nan,nan,nan,nan,nan,nan,nan,nan,nan,nan,nan,nan,nan,nan,nan,nan,nan,nan,235.21304826049345,746.1937461725392,nan,746.4468566075211,nan,nan,nan,nan
1,338,1,1,1.0,1.0,0.27694474886629905,0.0,5,3,0,6,8,4,nan,nan,nan,nan,nan,nan,nan,nan,nan,nan,nan,nan,0.0,nan,nan,nan,nan,nan,nan,nan,nan,nan,nan,nan,nan,nan,nan,nan,nan,nan,nan,235.21304826049345,747.1939032623359,nan,747.4708480112022,nan,nan,nan,nan
1,339,1,1,1.0,1.0,0.30876441320287995,0.0,0,8,2,4,6,1,nan,nan,nan,nan,nan,nan,nan,nan,nan,nan,nan,nan,0.0,nan,nan,nan,nan,nan,nan,nan,nan,nan,nan,nan,nan,nan,nan,nan,nan,nan,nan,235.21304826049345,748.1940723263087,nan,748.5028367395116,nan,nan,nan,nan
1,340,1,1,1.0,1.0,0.29261381455035007,0.0,8,6,3,0,5,4,nan,nan,nan,nan,nan,nan,nan,nan,nan,nan,nan,nan,0.0,nan,nan,nan,nan,nan,nan,nan,nan,nan,nan,nan,nan,nan,nan,nan,nan,nan,nan,235.21304826049345,749.1942071783469,nan,749.4868209928973,nan,nan,nan,nan
1,341,0,0,0.0,1.0,0.36445146295955055,1.0,0,7,5,8,1,2,1.0,1.0,1.0,1.0,1.0,1.0,0.0,1.0,1.0,0.0,0.0,0.0,2.0,7.0,7.0,5.0,4.0,6.0,8.0,6.0,2.0,1.0,3.0,4.0,5.0,6.821447347263529,3.599042693072988,2.7258700379861693,4.765804487922651,5.6065741652000725,6.261973036434938,235.21304826049345,750.1943560002601,751.002774017632,750.5588074632196,758.8788806311404,759.8857837440846,752.0195914638934,758.8705477444637
1,342,1,1,1.0,1.0,0.7593030800999259,0.0,3,2,1,4,5,7,nan,nan,nan,nan,nan,nan,nan,nan,nan,nan,nan,nan,0.0,nan,nan,nan,nan,nan,nan,nan,nan,nan,nan,nan,nan,nan,nan,nan,nan,nan,nan,235.21304826049345,760.0874194736607,nan,760.8467225537606,nan,nan,nan,nan
1,343,1,1,1.0,1.0,0.4711262682649249,0.0,4,7,8,6,2,1,nan,nan,nan,nan,nan,nan,nan,nan,nan,nan,nan,nan,0.0,nan,nan,nan,nan,nan,nan,nan,nan,nan,nan,nan,nan,nan,nan,nan,nan,nan,nan,235.21304826049345,761.0875551809968,nan,761.5586814492617,nan,nan,nan,nan
1,344,1,1,1.0,1.0,0.40696948409640754,0.0,0,6,5,3,1,8,nan,nan,nan,nan,nan,nan,nan,nan,nan,nan,nan,nan,0.0,nan,nan,nan,nan,nan,nan,nan,nan,nan,nan,nan,nan,nan,nan,nan,nan,nan,nan,235.21304826049345,762.0876954499254,nan,762.4946649340218,nan,nan,nan,nan
1,345,1,1,1.0,1.0,0.40681781119019433,0.0,6,1,8,0,7,4,nan,nan,nan,nan,nan,nan,nan,nan,nan,nan,nan,nan,0.0,nan,nan,nan,nan,nan,nan,nan,nan,nan,nan,nan,nan,nan,nan,nan,nan,nan,nan,235.21304826049345,763.0878428463402,nan,763.4946606575304,nan,nan,nan,nan
1,346,1,1,1.0,1.0,0.3106611798339145,0.0,0,3,6,1,4,2,nan,nan,nan,nan,nan,nan,nan,nan,nan,nan,nan,nan,0.0,nan,nan,nan,nan,nan,nan,nan,nan,nan,nan,nan,nan,nan,nan,nan,nan,nan,nan,235.21304826049345,764.0879899576557,nan,764.3986511374897,nan,nan,nan,nan
1,347,1,1,1.0,1.0,0.27852277431338734,0.0,3,7,1,5,2,6,nan,nan,nan,nan,nan,nan,nan,nan,nan,nan,nan,nan,0.0,nan,nan,nan,nan,nan,nan,nan,nan,nan,nan,nan,nan,nan,nan,nan,nan,nan,nan,235.21304826049345,765.0881236692985,nan,765.3666464436119,nan,nan,nan,nan
1,348,1,1,1.0,1.0,0.2943543466826668,0.0,0,5,3,6,8,1,nan,nan,nan,nan,nan,nan,nan,nan,nan,nan,nan,nan,0.0,nan,nan,nan,nan,nan,nan,nan,nan,nan,nan,nan,nan,nan,nan,nan,nan,nan,nan,235.21304826049345,766.0882673594206,nan,766.3826217061032,nan,nan,nan,nan
1,349,1,1,1.0,1.0,0.27024177573548513,0.0,3,4,5,8,6,2,nan,nan,nan,nan,nan,nan,nan,nan,nan,nan,nan,nan,0.0,nan,nan,nan,nan,nan,nan,nan,nan,nan,nan,nan,nan,nan,nan,nan,nan,nan,nan,235.21304826049345,767.0883825395977,nan,767.3586243153331,nan,nan,nan,nan
1,350,1,1,1.0,1.0,0.31005021171404223,0.0,5,0,8,1,3,6,nan,nan,nan,nan,nan,nan,nan,nan,nan,nan,nan,nan,0.0,nan,nan,nan,nan,nan,nan,nan,nan,nan,nan,nan,nan,nan,nan,nan,nan,nan,nan,235.21304826049345,768.0885493227743,nan,768.3985995344883,nan,nan,nan,nan
1,351,1,1,1.0,1.0,0.3499262162622472,0.0,3,7,2,8,0,1,nan,nan,nan,nan,nan,nan,nan,nan,nan,nan,nan,nan,0.0,nan,nan,nan,nan,nan,nan,nan,nan,nan,nan,nan,nan,nan,nan,nan,nan,nan,nan,235.21304826049345,769.0886633625541,nan,769.4385895788164,nan,nan,nan,nan
1,352,1,1,1.0,1.0,0.5017371109388478,0.0,4,8,0,2,6,3,nan,nan,nan,nan,nan,nan,nan,nan,nan,nan,nan,nan,0.0,nan,nan,nan,nan,nan,nan,nan,nan,nan,nan,nan,nan,nan,nan,nan,nan,nan,nan,235.21304826049345,770.0888358477205,nan,770.5905729586593,nan,nan,nan,nan
1,353,1,1,1.0,1.0,0.39757973376254085,0.0,6,0,5,4,7,8,nan,nan,nan,nan,nan,nan,nan,nan,nan,nan,nan,nan,0.0,nan,nan,nan,nan,nan,nan,nan,nan,nan,nan,nan,nan,nan,nan,nan,nan,nan,nan,235.21304826049345,771.0889812484384,nan,771.4865609822009,nan,nan,nan,nan
1,354,1,1,1.0,1.0,0.3894150557589455,0.0,7,8,6,0,4,2,nan,nan,nan,nan,nan,nan,nan,nan,nan,nan,nan,nan,0.0,nan,nan,nan,nan,nan,nan,nan,nan,nan,nan,nan,nan,nan,nan,nan,nan,nan,nan,235.21304826049345,772.089131495848,nan,772.478546551607,nan,nan,nan,nan
1,355,1,1,1.0,1.0,0.317323383742405,0.0,2,7,3,5,8,1,nan,nan,nan,nan,nan,nan,nan,nan,nan,nan,nan,nan,0.0,nan,nan,nan,nan,nan,nan,nan,nan,nan,nan,nan,nan,nan,nan,nan,nan,nan,nan,235.21304826049345,773.0892284296606,nan,773.406551813403,nan,nan,nan,nan
1,356,1,1,1.0,1.0,0.30912221301150566,0.0,7,3,0,1,5,8,nan,nan,nan,nan,nan,nan,nan,nan,nan,nan,nan,nan,0.0,nan,nan,nan,nan,nan,nan,nan,nan,nan,nan,nan,nan,nan,nan,nan,nan,nan,nan,235.21304826049345,774.089409752909,nan,774.3985319659205,nan,nan,nan,nan
1,357,1,1,1.0,1.0,0.22097231456427835,0.0,3,6,4,5,2,7,nan,nan,nan,nan,nan,nan,nan,nan,nan,nan,nan,nan,0.0,nan,nan,nan,nan,nan,nan,nan,nan,nan,nan,nan,nan,nan,nan,nan,nan,nan,nan,235.21304826049345,775.0895468857434,nan,775.3105192003077,nan,nan,nan,nan
1,358,1,1,1.0,1.0,0.2688068702118471,0.0,1,7,3,4,0,2,nan,nan,nan,nan,nan,nan,nan,nan,nan,nan,nan,nan,0.0,nan,nan,nan,nan,nan,nan,nan,nan,nan,nan,nan,nan,nan,nan,nan,nan,nan,nan,235.21304826049345,776.0896948523587,nan,776.3585017225705,nan,nan,nan,nan
1,359,1,1,1.0,1.0,0.1726761829067982,0.0,5,4,2,6,8,0,nan,nan,nan,nan,nan,nan,nan,nan,nan,nan,nan,nan,0.0,nan,nan,nan,nan,nan,nan,nan,nan,nan,nan,nan,nan,nan,nan,nan,nan,nan,nan,235.21304826049345,777.0898302745954,nan,777.2625064575022,nan,nan,nan,nan
1,360,1,1,1.0,1.0,0.1245100565975008,0.0,1,7,3,5,0,6,nan,nan,nan,nan,nan,nan,nan,nan,nan,nan,nan,nan,0.0,nan,nan,nan,nan,nan,nan,nan,nan,nan,nan,nan,nan,nan,nan,nan,nan,nan,nan,235.21304826049345,778.0899756753151,nan,778.2144857319126,nan,nan,nan,nan
1,361,1,1,1.0,1.0,0.044368031458361656,0.0,2,8,5,4,3,1,nan,nan,nan,nan,nan,nan,nan,nan,nan,nan,nan,nan,0.0,nan,nan,nan,nan,nan,nan,nan,nan,nan,nan,nan,nan,nan,nan,nan,nan,nan,nan,235.21304826049345,779.0901187952368,nan,779.1344868266951,nan,nan,nan,nan
1,362,1,1,1.0,1.0,0.13219120593566913,0.0,4,1,6,2,8,5,nan,nan,nan,nan,nan,nan,nan,nan,nan,nan,nan,nan,0.0,nan,nan,nan,nan,nan,nan,nan,nan,nan,nan,nan,nan,nan,nan,nan,nan,nan,nan,235.21304826049345,780.0902596343658,nan,780.2224508403015,nan,nan,nan,nan
1,363,1,1,1.0,1.0,0.22004403075879964,0.0,1,2,0,6,7,4,nan,nan,nan,nan,nan,nan,nan,nan,nan,nan,nan,nan,0.0,nan,nan,nan,nan,nan,nan,nan,nan,nan,nan,nan,nan,nan,nan,nan,nan,nan,nan,235.21304826049345,781.0904110221727,nan,781.3104550529315,nan,nan,nan,nan
1,364,1,1,1.0,1.0,0.2518711076791078,0.0,2,3,4,1,0,5,nan,nan,nan,nan,nan,nan,nan,nan,nan,nan,nan,nan,0.0,nan,nan,nan,nan,nan,nan,nan,nan,nan,nan,nan,nan,nan,nan,nan,nan,nan,nan,235.21304826049345,782.0905524314985,nan,782.3424235391776,nan,nan,nan,nan
1,365,1,1,1.0,1.0,0.3637258848630154,0.0,8,4,6,5,2,1,nan,nan,nan,nan,nan,nan,nan,nan,nan,nan,nan,nan,0.0,nan,nan,nan,nan,nan,nan,nan,nan,nan,nan,nan,nan,nan,nan,nan,nan,nan,nan,235.21304826049345,783.090688709035,nan,783.454414593898,nan,nan,nan,nan
1,366,1,1,1.0,1.0,0.3555686194449663,0.0,1,7,5,2,6,0,nan,nan,nan,nan,nan,nan,nan,nan,nan,nan,nan,nan,0.0,nan,nan,nan,nan,nan,nan,nan,nan,nan,nan,nan,nan,nan,nan,nan,nan,nan,nan,235.21304826049345,784.0908361054499,nan,784.4464047248948,nan,nan,nan,nan
1,367,1,1,1.0,1.0,0.2994171426889807,0.0,3,8,0,6,1,5,nan,nan,nan,nan,nan,nan,nan,nan,nan,nan,nan,nan,0.0,nan,nan,nan,nan,nan,nan,nan,nan,nan,nan,nan,nan,nan,nan,nan,nan,nan,nan,235.21304826049345,785.0909783700736,nan,785.3903955127626,nan,nan,nan,nan
1,368,1,1,1.0,1.0,0.3152586935375439,0.0,6,1,3,0,7,8,nan,nan,nan,nan,nan,nan,nan,nan,nan,nan,nan,nan,0.0,nan,nan,nan,nan,nan,nan,nan,nan,nan,nan,nan,nan,nan,nan,nan,nan,nan,nan,235.21304826049345,786.0911226303961,nan,786.4063813239336,nan,nan,nan,nan
1,369,1,1,1.0,1.0,0.30710741520852025,0.0,7,3,6,4,8,5,nan,nan,nan,nan,nan,nan,nan,nan,nan,nan,nan,nan,0.0,nan,nan,nan,nan,nan,nan,nan,nan,nan,nan,nan,nan,nan,nan,nan,nan,nan,nan,235.21304826049345,787.0912589079326,nan,787.3983663231411,nan,nan,nan,nan
1,370,0,0,0.0,1.0,0.506970966613153,1.0,2,4,0,6,1,7,1.0,1.0,1.0,1.0,1.0,1.0,1.0,1.0,1.0,1.0,0.0,1.0,5.0,2.0,4.0,0.0,6.0,3.0,7.0,6.0,2.0,1.0,3.0,4.0,5.0,8.148151928355219,4.213835990271036,3.205059203750352,5.333448323443008,6.389697304213769,7.3561932723350765,235.21304826049345,788.0913943301694,788.8998274578134,788.5983652967825,798.0927927429639,799.1037382809864,789.9083200001824,798.0844544393967
1,371,1,1,nan,nan,nan,0.0,7,0,8,1,3,2,nan,nan,nan,nan,nan,nan,nan,nan,nan,nan,nan,nan,0.0,nan,nan,nan,nan,nan,nan,nan,nan,nan,nan,nan,nan,nan,nan,nan,nan,nan,nan,235.21304826049345,799.309662761565,nan,nan,nan,nan,nan,nan
1,372,1,1,nan,nan,nan,0.0,2,7,1,3,0,5,nan,nan,nan,nan,nan,nan,nan,nan,nan,nan,nan,nan,0.0,nan,nan,nan,nan,nan,nan,nan,nan,nan,nan,nan,nan,nan,nan,nan,nan,nan,nan,235.21304826049345,800.3098084473804,nan,nan,nan,nan,nan,nan
1,373,1,1,1.0,1.0,0.16826654973556288,0.0,8,5,4,7,6,2,nan,nan,nan,nan,nan,nan,nan,nan,nan,nan,nan,nan,0.0,nan,nan,nan,nan,nan,nan,nan,nan,nan,nan,nan,nan,nan,nan,nan,nan,nan,nan,235.21304826049345,801.3099549884992,nan,801.4782215382347,nan,nan,nan,nan
1,374,1,1,1.0,1.0,0.38410393813683186,0.0,3,2,0,4,5,8,nan,nan,nan,nan,nan,nan,nan,nan,nan,nan,nan,nan,0.0,nan,nan,nan,nan,nan,nan,nan,nan,nan,nan,nan,nan,nan,nan,nan,nan,nan,nan,235.21304826049345,802.3100849938473,nan,802.6941889319842,nan,nan,nan,nan
1,375,1,1,1.0,1.0,0.3999474846823432,0.0,1,8,4,2,7,6,nan,nan,nan,nan,nan,nan,nan,nan,nan,nan,nan,nan,0.0,nan,nan,nan,nan,nan,nan,nan,nan,nan,nan,nan,nan,nan,nan,nan,nan,nan,nan,235.21304826049345,803.3102286839694,nan,803.7101761686517,nan,nan,nan,nan
1,376,0,0,0.0,1.0,0.559781933134218,1.0,7,6,8,3,4,1,1.0,1.0,1.0,1.0,1.0,1.0,1.0,1.0,1.0,1.0,0.0,0.0,4.0,7.0,6.0,8.0,3.0,0.0,7.0,4.0,3.0,1.0,2.0,5.0,6.0,4.4892295130375715,3.3866743947619398,1.3542001420937595,2.2901796354599355,6.073277400621009,7.368960880932718,235.21304826049345,804.3103740846873,805.1187986593486,804.8701560178215,813.5449835611635,814.5475811022388,806.1356132546152,813.5366555211785
1,377,1,1,1.0,1.0,0.604515747181722,0.0,8,1,7,5,3,0,nan,nan,nan,nan,nan,nan,nan,nan,nan,nan,nan,nan,0.0,nan,nan,nan,nan,nan,nan,nan,nan,nan,nan,nan,nan,nan,nan,nan,nan,nan,nan,235.21304826049345,814.7535178420931,nan,815.3580335892748,nan,nan,nan,nan
1,378,1,1,1.0,1.0,0.3483487610174052,0.0,6,4,1,3,2,5,nan,nan,nan,nan,nan,nan,nan,nan,nan,nan,nan,nan,0.0,nan,nan,nan,nan,nan,nan,nan,nan,nan,nan,nan,nan,nan,nan,nan,nan,nan,nan,235.21304826049345,815.7536606769154,nan,816.1020094379328,nan,nan,nan,nan
1,379,1,1,1.0,1.0,0.4522278811309661,0.0,8,1,4,0,7,2,nan,nan,nan,nan,nan,nan,nan,nan,nan,nan,nan,nan,0.0,nan,nan,nan,nan,nan,nan,nan,nan,nan,nan,nan,nan,nan,nan,nan,nan,nan,nan,235.21304826049345,816.7537795633853,nan,817.2060074445162,nan,nan,nan,nan
1,380,1,1,1.0,1.0,0.2760560938877461,0.0,5,0,2,8,3,4,nan,nan,nan,nan,nan,nan,nan,nan,nan,nan,nan,nan,0.0,nan,nan,nan,nan,nan,nan,nan,nan,nan,nan,nan,nan,nan,nan,nan,nan,nan,nan,235.21304826049345,817.7539437806681,nan,818.0299998745559,nan,nan,nan,nan
1,381,1,1,1.0,1.0,0.33191905000421684,0.0,3,7,4,5,6,2,nan,nan,nan,nan,nan,nan,nan,nan,nan,nan,nan,nan,0.0,nan,nan,nan,nan,nan,nan,nan,nan,nan,nan,nan,nan,nan,nan,nan,nan,nan,nan,235.21304826049345,818.7540857601944,nan,819.0860048101986,nan,nan,nan,nan
1,382,1,1,1.0,1.0,0.36340657348409877,0.0,7,2,0,4,1,8,nan,nan,nan,nan,nan,nan,nan,nan,nan,nan,nan,nan,0.0,nan,nan,nan,nan,nan,nan,nan,nan,nan,nan,nan,nan,nan,nan,nan,nan,nan,nan,235.21304826049345,819.7625717452738,nan,820.1259783187579,nan,nan,nan,nan
1,383,1,1,1.0,1.0,0.29126843025369453,0.0,2,5,4,6,3,0,nan,nan,nan,nan,nan,nan,nan,nan,nan,nan,nan,nan,0.0,nan,nan,nan,nan,nan,nan,nan,nan,nan,nan,nan,nan,nan,nan,nan,nan,nan,nan,235.21304826049345,820.7627051718173,nan,821.053973602071,nan,nan,nan,nan
