block,trial,freq_trials,correct_response,actual_response,acc,rts,probe_trials,fast_rt_trigger,slow_rt_trigger,rt_triggered,rts_runningavg,rts_runningstd,rts_runningfastthresh,rts_runningslowthresh,rts_runningstd,rts_trailingavg,trials_colorind,trials_colorrgb0,trials_colorrgb1,trials_colorrgb2,wm_respdeg,wm_respdeg_in_colorspace,wm_respcolorminusorigcolor,wm_resptexind,wm_resptexrgb0,wm_resptexrgb1,wm_resptexrgb2,wm_rts,time_blockstart,time_encarray_offset,time_encarray_onset,time_response,time_iti_offset,time_iti_onset,time_memprobe_offset,time_memprobe_onset
1,1,1,1,1.0,1.0,0.38589719939,0,nan,nan,nan,nan,nan,nan,nan,nan,nan,368,-0.150457169737,0.477793263397,-0.0457341785459,nan,nan,nan,nan,nan,nan,nan,nan,339.279673177,340.301794367,nan,340.687691567,nan,nan,nan,nan
1,2,1,1,1.0,1.0,0.348097994458,0,nan,nan,nan,nan,nan,nan,nan,nan,nan,413,0.0683106243366,0.461143133648,-0.585495598612,nan,nan,nan,nan,nan,nan,nan,nan,339.279673177,341.24356944,nan,341.591667434,nan,nan,nan,nan
1,3,1,1,1.0,1.0,0.294270961778,0,nan,nan,nan,nan,nan,nan,nan,nan,nan,338,-0.162891363375,0.458928707883,0.250399161362,nan,nan,nan,nan,nan,nan,nan,nan,339.279673177,342.185367605,nan,342.479638566,nan,nan,nan,nan
1,4,1,1,1.0,1.0,0.27248190844,0,nan,nan,nan,nan,nan,nan,nan,nan,nan,66,1.0,-0.118568705386,-1.0,nan,nan,nan,nan,nan,nan,nan,nan,339.279673177,343.127139541,nan,343.399621449,nan,nan,nan,nan
1,5,1,1,1.0,1.0,0.250681736507,0,nan,nan,nan,nan,nan,nan,nan,nan,nan,300,0.0433537089178,0.395748422077,0.528951029102,nan,nan,nan,nan,nan,nan,nan,nan,339.279673177,344.068926587,nan,344.319608323,nan,nan,nan,nan
1,6,1,1,1.0,1.0,0.308904098463,0,nan,nan,nan,nan,nan,nan,nan,nan,nan,71,1.0,-0.144504067012,-0.877980773838,nan,nan,nan,nan,nan,nan,nan,nan,339.279673177,345.010682843,nan,345.319586941,nan,nan,nan,nan
1,7,1,1,1.0,1.0,0.335066528642,0,nan,nan,nan,nan,nan,nan,nan,nan,nan,485,0.622774561467,0.312875618285,-1.0,nan,nan,nan,nan,nan,nan,nan,nan,339.279673177,345.952490416,nan,346.287556945,nan,nan,nan,nan
1,8,1,1,1.0,1.0,0.321262451936,1,nan,nan,nan,nan,nan,nan,nan,nan,nan,434,0.213881816697,0.43461034373,-1.0,-167.722901949,257.722901949,-47.4333480511,367.0,-0.15309091083,0.477560897992,-0.0350816338538,0.967083924101,339.279673177,346.894274041,347.702685065,347.215536493,349.702872659,350.71241255,348.719421927,349.694538154
1,9,1,1,1.0,1.0,0.322335554287,0,nan,nan,nan,nan,nan,nan,nan,nan,nan,29,1.0,0.0770173926463,-1.0,nan,nan,nan,nan,nan,nan,nan,nan,339.279673177,350.853091598,nan,351.175427153,nan,nan,nan,nan
1,10,1,1,1.0,1.0,0.276548806927,0,nan,nan,nan,nan,nan,nan,nan,nan,nan,82,1.0,-0.198479155091,-0.679872484948,nan,nan,nan,nan,nan,nan,nan,nan,339.279673177,351.794868096,nan,352.071416903,nan,nan,nan,nan
1,11,1,1,1.0,1.0,0.342730486766,0,nan,nan,nan,nan,nan,nan,nan,nan,nan,448,0.32026743599,0.409662251776,-1.0,nan,nan,nan,nan,nan,nan,nan,nan,339.279673177,352.73664887,nan,353.079379357,nan,nan,nan,nan
1,12,1,1,1.0,1.0,0.336920224596,0,nan,nan,nan,nan,nan,nan,nan,nan,nan,306,-0.00395437407881,0.408974006242,0.494128827808,nan,nan,nan,nan,nan,nan,nan,nan,339.279673177,353.67843335,nan,354.015353575,nan,nan,nan,nan
1,13,1,1,1.0,1.0,0.315116631449,0,nan,nan,nan,nan,nan,nan,nan,nan,nan,394,-0.0437090198531,0.474655926729,-0.339401417396,nan,nan,nan,nan,nan,nan,nan,nan,339.279673177,354.620217831,nan,354.935334462,nan,nan,nan,nan
1,14,0,0,0.0,1.0,0.373311909265,0,nan,nan,nan,nan,nan,nan,nan,nan,nan,24,1.0,0.102019060141,-1.0,nan,nan,nan,nan,nan,nan,nan,nan,339.279673177,355.56199832,nan,355.935310229,nan,nan,nan,nan
1,15,1,1,1.0,1.0,0.25551383337,0,nan,nan,nan,nan,nan,nan,nan,nan,nan,305,0.00361192545304,0.406859252708,0.500196907155,nan,nan,nan,nan,nan,nan,nan,nan,339.279673177,356.503778524,nan,356.759292357,nan,nan,nan,nan
1,16,1,1,1.0,1.0,0.265684643062,0,nan,nan,nan,nan,nan,nan,nan,nan,nan,163,1.0,-0.214247802105,0.185723682048,nan,nan,nan,nan,nan,nan,nan,nan,339.279673177,357.445588663,nan,357.711273306,nan,nan,nan,nan
1,17,0,0,0.0,1.0,0.3718998275,0,nan,nan,nan,nan,nan,nan,nan,nan,nan,197,1.0,-0.035797595552,0.455774741445,nan,nan,nan,nan,nan,nan,nan,nan,339.279673177,358.387346059,nan,358.759245886,nan,nan,nan,nan
1,18,1,1,1.0,1.0,0.262158857426,0,nan,nan,nan,nan,nan,nan,nan,nan,nan,117,1.0,-0.307587969795,-0.271886539361,nan,nan,nan,nan,nan,nan,nan,nan,339.279673177,359.329127118,nan,359.591285975,nan,nan,nan,nan
1,19,1,1,1.0,1.0,0.312305867206,0,nan,nan,nan,nan,nan,nan,nan,nan,nan,385,-0.0879796604702,0.477733444059,-0.233926720364,nan,nan,nan,nan,nan,nan,nan,nan,339.279673177,360.270894207,nan,360.583200075,nan,nan,nan,nan
1,20,1,1,1.0,1.0,0.290543613024,0,nan,nan,nan,nan,nan,nan,nan,nan,nan,230,0.760023132926,0.140224214653,0.61781109556,nan,nan,nan,nan,nan,nan,nan,nan,339.279673177,361.21267156,nan,361.503215173,nan,nan,nan,nan
1,21,1,1,1.0,1.0,0.268771380419,0,nan,nan,nan,nan,nan,nan,nan,nan,nan,151,1.0,-0.262720288689,0.0734626651272,nan,nan,nan,nan,nan,nan,nan,nan,339.279673177,362.154442926,nan,362.423214307,nan,nan,nan,nan
1,22,0,0,1.0,0.0,0.29488249321,0,0.0,0.0,0.0,nan,nan,nan,nan,nan,nan,328,-0.132159558243,0.44685796506,0.336046158271,nan,nan,nan,nan,nan,nan,nan,nan,339.279673177,363.096277584,nan,363.391160077,nan,nan,nan,nan
1,23,1,1,1.0,1.0,0.27308973379,0,nan,nan,nan,nan,nan,nan,nan,nan,nan,240,0.654373017221,0.188015059697,0.642463954019,nan,nan,nan,nan,nan,nan,nan,nan,339.279673177,364.03805123,nan,364.311140964,nan,nan,nan,nan
1,24,1,1,1.0,1.0,0.595266204327,0,nan,nan,nan,nan,nan,nan,nan,nan,nan,75,1.0,-0.164714458691,-0.791355921409,nan,nan,nan,nan,nan,nan,nan,nan,339.279673177,364.979841983,nan,365.575108187,nan,nan,nan,nan
1,25,1,1,1.0,1.0,0.429480722756,0,nan,nan,nan,nan,nan,nan,nan,nan,nan,377,-0.121259861678,0.478700828387,-0.143695900877,nan,nan,nan,nan,nan,nan,nan,nan,339.279673177,365.921619906,nan,366.351100628,nan,nan,nan,nan
1,26,1,1,1.0,1.0,0.375675642514,0,nan,nan,nan,nan,nan,nan,nan,nan,nan,63,1.0,-0.102744642793,-1.0,nan,nan,nan,nan,nan,nan,nan,nan,339.279673177,366.863402675,nan,367.239078318,nan,nan,nan,nan
1,27,1,1,1.0,1.0,0.441873857984,0,nan,nan,nan,nan,nan,nan,nan,nan,nan,296,0.0772713571413,0.386205321608,0.550001308524,nan,nan,nan,nan,nan,nan,nan,nan,339.279673177,367.80518459,nan,368.247058448,nan,nan,nan,nan
1,28,1,1,1.0,1.0,0.420054014307,0,nan,nan,nan,nan,nan,nan,nan,nan,nan,223,0.83172397378,0.104890589731,0.593432239612,nan,nan,nan,nan,nan,nan,nan,nan,339.279673177,368.746970211,nan,369.167024225,nan,nan,nan,nan
1,29,1,1,1.0,1.0,0.334263697499,0,nan,nan,nan,nan,nan,nan,nan,nan,nan,328,-0.132159558243,0.44685796506,0.336046158271,nan,nan,nan,nan,nan,nan,nan,nan,339.279673177,369.688752125,nan,370.023015823,nan,nan,nan,nan
1,30,1,1,1.0,1.0,0.376437134692,0,nan,nan,nan,nan,nan,nan,nan,nan,nan,0,0.846831709088,0.212097570855,-1.0,nan,nan,nan,nan,nan,nan,nan,nan,339.279673177,370.63053404,nan,371.006971174,nan,nan,nan,nan
1,31,0,0,0.0,1.0,0.378667442943,0,nan,nan,nan,nan,nan,nan,nan,nan,nan,32,1.0,0.061735800531,-1.0,nan,nan,nan,nan,nan,nan,nan,nan,339.279673177,371.572293716,nan,371.950961159,nan,nan,nan,nan
1,32,1,1,1.0,1.0,0.260873643332,1,nan,nan,nan,nan,nan,nan,nan,nan,nan,507,0.805995650865,0.232688349973,-1.0,139.590543186,310.409456814,-46.0749181856,441.0,0.266287261384,0.422891888867,-1.0,0.975432683481,339.279673177,372.514071925,373.322487511,372.774945568,375.339394575,376.342700552,374.347589383,375.331060926
1,33,1,1,1.0,1.0,0.549593780539,0,nan,nan,nan,nan,nan,nan,nan,nan,nan,409,0.0429436170054,0.464793150178,-0.529461854507,nan,nan,nan,nan,nan,nan,nan,nan,339.279673177,376.481259054,nan,377.030852834,nan,nan,nan,nan
1,34,1,1,1.0,1.0,0.423784499173,0,nan,nan,nan,nan,nan,nan,nan,nan,nan,288,0.150005133015,0.365331945294,0.586687239957,nan,nan,nan,nan,nan,nan,nan,nan,339.279673177,377.423040968,nan,377.846825467,nan,nan,nan,nan
1,35,1,1,1.0,1.0,0.377972663264,0,nan,nan,nan,nan,nan,nan,nan,nan,nan,162,1.0,-0.218739557155,0.176632971453,nan,nan,nan,nan,nan,nan,nan,nan,339.279673177,378.364826304,nan,378.742798967,nan,nan,nan,nan
1,36,1,1,1.0,1.0,0.308216446196,0,nan,nan,nan,nan,nan,nan,nan,nan,nan,390,-0.0641960347588,0.476284203309,-0.291947553613,nan,nan,nan,nan,nan,nan,nan,nan,339.279673177,379.306579709,nan,379.614796155,nan,nan,nan,nan
1,37,1,1,1.0,1.0,0.286405725637,0,nan,nan,nan,nan,nan,nan,nan,nan,nan,451,0.343830962376,0.403518361206,-1.0,nan,nan,nan,nan,nan,nan,nan,nan,339.279673177,380.248363049,nan,380.534768774,nan,nan,nan,nan
1,38,1,1,1.0,1.0,0.320577080478,0,nan,nan,nan,nan,nan,nan,nan,nan,nan,208,0.97651257568,0.025020743352,0.522574479073,nan,nan,nan,nan,nan,nan,nan,nan,339.279673177,381.190147244,nan,381.510724324,nan,nan,nan,nan
1,39,1,1,1.0,1.0,0.290758860647,0,nan,nan,nan,nan,nan,nan,nan,nan,nan,499,0.739831889234,0.263827757734,-1.0,nan,nan,nan,nan,nan,nan,nan,nan,339.279673177,382.131957383,nan,382.422716243,nan,nan,nan,nan
1,40,1,1,1.0,1.0,0.316947804764,0,nan,nan,nan,nan,nan,nan,nan,nan,nan,419,0.107894673663,0.454841969249,-0.678098861371,nan,nan,nan,nan,nan,nan,nan,nan,339.279673177,383.073774649,nan,383.390722454,nan,nan,nan,nan
1,41,1,1,1.0,1.0,0.311134121614,0,nan,nan,nan,nan,nan,nan,nan,nan,nan,14,0.95801504718,0.150023555696,-1.0,nan,nan,nan,nan,nan,nan,nan,nan,339.279673177,384.015516935,nan,384.326651057,nan,nan,nan,nan
1,42,1,1,1.0,1.0,0.377365123131,0,nan,nan,nan,nan,nan,nan,nan,nan,nan,180,1.0,-0.129278616986,0.331238955499,nan,nan,nan,nan,nan,nan,nan,nan,339.279673177,384.95730056,nan,385.334665683,nan,nan,nan,nan
1,43,1,1,1.0,1.0,0.339535127743,0,nan,nan,nan,nan,nan,nan,nan,nan,nan,303,0.0191349273956,0.402522842081,0.512018356663,nan,nan,nan,nan,nan,nan,nan,nan,339.279673177,385.899094164,nan,386.238629291,nan,nan,nan,nan
1,44,1,1,1.0,1.0,0.413729438442,0,nan,nan,nan,nan,nan,nan,nan,nan,nan,421,0.121471671064,0.452518040197,-0.712610339232,nan,nan,nan,nan,nan,nan,nan,nan,339.279673177,386.840870661,nan,387.2546001,nan,nan,nan,nan
1,45,0,0,1.0,0.0,0.399927357561,0,0.0,0.0,0.0,nan,nan,nan,nan,nan,nan,239,0.665069831863,0.183388857662,0.640549267122,nan,nan,nan,nan,nan,nan,nan,nan,339.279673177,387.782662269,nan,388.182589627,nan,nan,nan,nan
1,46,1,1,1.0,1.0,0.306111580343,0,nan,nan,nan,nan,nan,nan,nan,nan,nan,485,0.622774561467,0.312875618285,-1.0,nan,nan,nan,nan,nan,nan,nan,nan,339.279673177,388.724438197,nan,389.030549777,nan,nan,nan,nan
1,47,1,1,1.0,1.0,0.332315064385,0,nan,nan,nan,nan,nan,nan,nan,nan,nan,226,0.801265930663,0.120208988367,0.60458276857,nan,nan,nan,nan,nan,nan,nan,nan,339.279673177,389.666227523,nan,389.998542588,nan,nan,nan,nan
1,48,1,1,1.0,1.0,0.502434864757,0,nan,nan,nan,nan,nan,nan,nan,nan,nan,317,-0.077772836126,0.429938605076,0.420733606481,nan,nan,nan,nan,nan,nan,nan,nan,339.279673177,390.608091261,nan,391.110526125,nan,nan,nan,nan
1,49,1,1,1.0,1.0,0.304716604296,0,nan,nan,nan,nan,nan,nan,nan,nan,nan,454,0.367627362238,0.397084843583,-1.0,nan,nan,nan,nan,nan,nan,nan,nan,339.279673177,391.549790212,nan,391.854506816,nan,nan,nan,nan
1,50,1,1,1.0,1.0,0.330906118616,0,nan,nan,nan,nan,nan,nan,nan,nan,nan,352,-0.17544712699,0.470851603012,0.118673592819,nan,nan,nan,nan,nan,nan,nan,nan,339.279673177,392.491569276,nan,392.822475394,nan,nan,nan,nan
1,51,1,1,1.0,1.0,0.357109032571,0,nan,nan,nan,nan,nan,nan,nan,nan,nan,150,1.0,-0.266152531622,0.0638227105866,nan,nan,nan,nan,nan,nan,nan,nan,339.279673177,393.433355181,nan,393.790464214,nan,nan,nan,nan
1,52,1,1,1.0,1.0,0.351300195791,0,nan,nan,nan,nan,nan,nan,nan,nan,nan,260,0.438016636947,0.272781976488,0.654406567654,nan,nan,nan,nan,nan,nan,nan,nan,339.279673177,394.375138806,nan,394.726439002,nan,nan,nan,nan
1,53,1,1,1.0,1.0,0.353524802136,0,nan,nan,nan,nan,nan,nan,nan,nan,nan,493,0.689769084006,0.285700779988,-1.0,nan,nan,nan,nan,nan,nan,nan,nan,339.279673177,395.316894492,nan,395.670419294,nan,nan,nan,nan
1,54,1,1,1.0,1.0,0.331687852624,0,nan,nan,nan,nan,nan,nan,nan,nan,nan,34,1.0,0.0514419701458,-1.0,nan,nan,nan,nan,nan,nan,nan,nan,339.279673177,396.258704631,nan,396.590392484,nan,nan,nan,nan
1,55,1,1,1.0,1.0,0.365908814245,0,nan,nan,nan,nan,nan,nan,nan,nan,nan,335,-0.155595990888,0.455627721073,0.276893227044,nan,nan,nan,nan,nan,nan,nan,nan,339.279673177,397.200462027,nan,397.566370841,nan,nan,nan,nan
1,56,1,1,1.0,1.0,0.36001929536,0,nan,nan,nan,nan,nan,nan,nan,nan,nan,92,1.0,-0.241703663401,-0.55060883727,nan,nan,nan,nan,nan,nan,nan,nan,339.279673177,398.142333462,nan,398.502352757,nan,nan,nan,nan
1,57,0,0,0.0,1.0,0.418296680902,0,nan,nan,nan,nan,nan,nan,nan,nan,nan,428,0.170378320166,0.443486568519,-0.86866140055,nan,nan,nan,nan,nan,nan,nan,nan,339.279673177,399.084028422,nan,399.502325103,nan,nan,nan,nan
1,58,1,1,1.0,1.0,0.324499435024,0,nan,nan,nan,nan,nan,nan,nan,nan,nan,81,1.0,-0.193804253699,-0.694219169772,nan,nan,nan,nan,nan,nan,nan,nan,339.279673177,400.025810336,nan,400.350309771,nan,nan,nan,nan
1,59,1,1,1.0,1.0,0.326658469159,0,nan,nan,nan,nan,nan,nan,nan,nan,nan,35,1.0,0.0462653595507,-1.0,nan,nan,nan,nan,nan,nan,nan,nan,339.279673177,400.967605935,nan,401.294264405,nan,nan,nan,nan
1,60,1,1,1.0,1.0,0.328855421161,0,nan,nan,nan,nan,nan,nan,nan,nan,nan,356,-0.17284377641,0.473239407326,0.0788368070227,nan,nan,nan,nan,nan,nan,nan,nan,339.279673177,401.909395833,nan,402.238251254,nan,nan,nan,nan
1,61,1,1,0.0,0.0,0.379050042131,0,0.0,0.0,0.0,nan,nan,nan,nan,nan,nan,154,1.0,-0.251813147593,0.102138173725,nan,nan,nan,nan,nan,nan,nan,nan,339.279673177,402.851180028,nan,403.23023007,nan,nan,nan,nan
1,62,1,1,1.0,1.0,0.389228264336,0,nan,nan,nan,nan,nan,nan,nan,nan,nan,237,0.686387300223,0.174031846447,0.636349816437,nan,nan,nan,nan,nan,nan,nan,nan,339.279673177,403.792962512,nan,404.182190777,nan,nan,nan,nan
1,63,1,1,1.0,1.0,0.327431080048,0,nan,nan,nan,nan,nan,nan,nan,nan,nan,330,-0.139766326074,0.449518327743,0.319540245599,nan,nan,nan,nan,nan,nan,nan,nan,339.279673177,404.734746423,nan,405.062177503,nan,nan,nan,nan
1,64,1,1,1.0,1.0,0.353587523336,1,nan,nan,nan,nan,nan,nan,nan,nan,nan,26,1.0,0.0920921692153,-1.0,81.9867481559,8.01325184414,-10.2679981559,11.0,0.934659501434,0.163852895862,-1.0,0.917096283054,339.279673177,405.676594194,406.484917694,406.030181718,408.443492635,409.445094306,407.510021277,408.435138744
1,65,1,1,1.0,1.0,0.388718512258,0,nan,nan,nan,nan,nan,nan,nan,nan,nan,466,0.464789014893,0.368385601135,-1.0,nan,nan,nan,nan,nan,nan,nan,nan,339.279673177,409.585337441,nan,409.974055954,nan,nan,nan,nan
1,66,1,1,1.0,1.0,0.342926062876,0,nan,nan,nan,nan,nan,nan,nan,nan,nan,7,0.9030914636,0.181853060355,-1.0,nan,nan,nan,nan,nan,nan,nan,nan,339.279673177,410.527125628,nan,410.870051691,nan,nan,nan,nan
1,67,1,1,1.0,1.0,0.289122408023,0,nan,nan,nan,nan,nan,nan,nan,nan,nan,280,0.228089347314,0.342018854333,0.61587222022,nan,nan,nan,nan,nan,nan,nan,nan,339.279673177,411.468905547,nan,411.758027955,nan,nan,nan,nan
1,68,1,1,1.0,1.0,0.267312542768,0,nan,nan,nan,nan,nan,nan,nan,nan,nan,96,1.0,-0.25681952169,-0.503302481145,nan,nan,nan,nan,nan,nan,nan,nan,339.279673177,412.410696869,nan,412.678009412,nan,nan,nan,nan
1,69,1,1,1.0,1.0,0.309534161235,0,nan,nan,nan,nan,nan,nan,nan,nan,nan,421,0.121471671064,0.452518040197,-0.712610339232,nan,nan,nan,nan,nan,nan,nan,nan,339.279673177,413.352475933,nan,413.662010094,nan,nan,nan,nan
1,70,1,1,1.0,1.0,0.303689972614,1,nan,nan,nan,nan,nan,nan,nan,nan,nan,223,0.83172397378,0.104890589731,0.593432239612,-58.4310288707,148.431028871,-8.36584612932,211.0,0.948675772315,0.0413606888024,0.538689155053,0.908725286019,339.279673177,414.294263834,415.102669157,414.597953807,417.044651779,418.040491084,416.119445362,417.036322121
1,71,1,1,1.0,1.0,0.411453229841,0,nan,nan,nan,nan,nan,nan,nan,nan,nan,296,0.0772713571413,0.386205321608,0.550001308524,nan,nan,nan,nan,nan,nan,nan,nan,339.279673177,418.186407921,nan,418.597861151,nan,nan,nan,nan
1,72,1,1,1.0,1.0,0.317650282057,0,nan,nan,nan,nan,nan,nan,nan,nan,nan,34,1.0,0.0514419701458,-1.0,nan,nan,nan,nan,nan,nan,nan,nan,339.279673177,419.12818898,nan,419.445839262,nan,nan,nan,nan
1,73,1,1,1.0,1.0,0.287875681999,0,nan,nan,nan,nan,nan,nan,nan,nan,nan,282,0.208142307666,0.34807905204,0.609295500931,nan,nan,nan,nan,nan,nan,nan,nan,339.279673177,420.069969469,nan,420.357845151,nan,nan,nan,nan
1,74,1,1,1.0,1.0,0.282082810765,0,nan,nan,nan,nan,nan,nan,nan,nan,nan,498,0.731507943485,0.267561876527,-1.0,nan,nan,nan,nan,nan,nan,nan,nan,339.279673177,421.011740265,nan,421.293823076,nan,nan,nan,nan
1,75,0,0,0.0,1.0,0.452273314935,0,nan,nan,nan,nan,nan,nan,nan,nan,nan,183,1.0,-0.113108999915,0.354902835149,nan,nan,nan,nan,nan,nan,nan,nan,339.279673177,421.953522464,nan,422.405795779,nan,nan,nan,nan
1,76,1,1,1.0,1.0,0.318477916531,0,nan,nan,nan,nan,nan,nan,nan,nan,nan,34,1.0,0.0514419701458,-1.0,nan,nan,nan,nan,nan,nan,nan,nan,339.279673177,422.895300388,nan,423.213778304,nan,nan,nan,nan
1,77,1,1,1.0,1.0,0.248674373492,0,nan,nan,nan,nan,nan,nan,nan,nan,nan,487,0.639529740128,0.306295026098,-1.0,nan,nan,nan,nan,nan,nan,nan,nan,339.279673177,423.837083157,nan,424.085757531,nan,nan,nan,nan
1,78,1,1,1.0,1.0,0.25882266066,0,nan,nan,nan,nan,nan,nan,nan,nan,nan,15,0.965734432428,0.145352784795,-1.0,nan,nan,nan,nan,nan,nan,nan,nan,339.279673177,424.778897858,nan,425.037720518,nan,nan,nan,nan
1,79,1,1,1.0,1.0,0.317061843351,0,nan,nan,nan,nan,nan,nan,nan,nan,nan,456,0.383612429175,0.392633185378,-1.0,nan,nan,nan,nan,nan,nan,nan,nan,339.279673177,425.720668939,nan,426.037730782,nan,nan,nan,nan
1,80,1,1,1.0,1.0,0.327228376642,0,nan,nan,nan,nan,nan,nan,nan,nan,nan,409,0.0429436170054,0.464793150178,-0.529461854507,nan,nan,nan,nan,nan,nan,nan,nan,339.279673177,426.662454844,nan,426.989683221,nan,nan,nan,nan
1,81,1,1,1.0,1.0,0.305434761802,0,0.0,0.0,0.0,0.340919530284,0.0636785293372,0.277241000947,0.404598059621,0.0636785293372,0.316574993931,16,0.973419431522,0.140652110383,-1.0,nan,nan,nan,nan,nan,nan,nan,nan,339.279673177,427.604228491,nan,427.909663253,nan,nan,nan,nan
1,82,1,1,1.0,1.0,0.323625329882,0,0.0,0.0,0.0,0.340481446722,0.0634054201235,0.277076026599,0.403886866846,0.0634054201235,0.318762822775,508,0.814199817736,0.228638933499,-1.0,nan,nan,nan,nan,nan,nan,nan,nan,339.279673177,428.546027511,nan,428.869652841,nan,nan,nan,nan
1,83,1,1,1.0,1.0,0.317821054836,0,0.0,0.0,0.0,0.340275884322,0.0630447668159,0.277231117506,0.403320651138,0.0630447668159,0.31562704884,278,0.248285521772,0.335802812283,0.621962573991,nan,nan,nan,nan,nan,nan,nan,nan,339.279673177,429.487809426,nan,429.805630481,nan,nan,nan,nan
1,84,1,1,1.0,1.0,0.296008053469,0,0.0,0.0,0.0,0.340005344208,0.0627116982909,0.277293645917,0.402717042499,0.0627116982909,0.312484812729,328,-0.132159558243,0.44685796506,0.336046158271,nan,nan,nan,nan,nan,nan,nan,nan,339.279673177,430.429593051,nan,430.725601104,nan,nan,nan,nan
1,85,1,1,1.0,1.0,0.306223338121,0,0.0,0.0,0.0,0.339481566937,0.0625196689357,0.276961898001,0.402001235873,0.0625196689357,0.306684148808,53,1.0,-0.049257555853,-1.0,nan,nan,nan,nan,nan,nan,nan,nan,339.279673177,431.371376961,nan,431.677600299,nan,nan,nan,nan
1,86,1,1,1.0,1.0,0.300421343767,0,0.0,0.0,0.0,0.339090293657,0.0622541898471,0.27683610381,0.401344483504,0.0622541898471,0.300884245119,324,-0.114799643766,0.441158325109,0.368064040095,nan,nan,nan,nan,nan,nan,nan,nan,339.279673177,432.31315688,nan,432.613578224,nan,nan,nan,nan
1,87,1,1,1.0,1.0,0.302592637134,0,0.0,0.0,0.0,0.338640654705,0.0620298646817,0.276610790023,0.400670519386,0.0620298646817,0.30307910634,162,1.0,-0.218739557155,0.176632971453,nan,nan,nan,nan,nan,nan,nan,nan,339.279673177,433.254948202,nan,433.557540839,nan,nan,nan,nan
1,88,1,1,1.0,1.0,0.368785150582,0,0.0,0.0,0.0,0.338226309675,0.0617919271708,0.276434382504,0.400018236846,0.0617919271708,0.323933043828,486,0.631151757674,0.309603058574,-1.0,nan,nan,nan,nan,nan,nan,nan,nan,339.279673177,434.196717002,nan,434.565502153,nan,nan,nan,nan
1,89,1,1,1.0,1.0,0.322970748879,0,0.0,0.0,0.0,0.338573569231,0.0615251526383,0.277048416593,0.400098721869,0.0615251526383,0.331449512198,109,1.0,-0.294638327523,-0.357773695079,nan,nan,nan,nan,nan,nan,nan,nan,339.279673177,435.138497491,nan,435.46146824,nan,nan,nan,nan
1,90,1,1,1.0,1.0,0.341195243294,0,0.0,0.0,0.0,0.338398256643,0.0612006297668,0.277197626876,0.399598886409,0.0612006297668,0.344317047585,362,-0.164239727892,0.476000155386,0.0174578511848,nan,nan,nan,nan,nan,nan,nan,nan,339.279673177,436.080282827,nan,436.42147807,nan,nan,nan,nan
1,91,1,1,1.0,1.0,0.33539980615,0,0.0,0.0,0.0,0.338429334272,0.0608603827236,0.277568951548,0.399289716996,0.0608603827236,0.333188599441,478,0.56422249903,0.334793662244,-1.0,nan,nan,nan,nan,nan,nan,nan,nan,339.279673177,437.022050487,nan,437.357450293,nan,nan,nan,nan
1,92,0,0,0.0,1.0,0.385582738207,0,0.0,0.0,0.0,0.338396042754,0.0605258852858,0.277870157468,0.39892192804,0.0605258852858,0.35405926255,247,0.578947625354,0.219392674348,0.6523805853,nan,nan,nan,nan,nan,nan,nan,nan,339.279673177,437.963834112,nan,438.34941685,nan,nan,nan,nan
1,93,1,1,1.0,1.0,0.267768411781,0,0.0,0.0,0.0,0.338908941618,0.0603945556215,0.278514385996,0.399303497239,0.0603945556215,0.329583652046,354,-0.174470673547,0.472100788149,0.0988677247603,nan,nan,nan,nan,nan,nan,nan,nan,339.279673177,438.90562857,nan,439.173396982,nan,nan,nan,nan
1,94,1,1,1.0,1.0,0.285956699052,0,0.0,0.0,0.0,0.338143989684,0.0605154180995,0.277628571585,0.398659407784,0.0605154180995,0.313102616346,296,0.0772713571413,0.386205321608,0.550001308524,nan,nan,nan,nan,nan,nan,nan,nan,339.279673177,439.847416187,nan,440.133372886,nan,nan,nan,nan
1,95,0,0,0.0,1.0,0.392081792932,0,0.0,0.0,0.0,0.337588805741,0.0604303108159,0.277158494925,0.398019116557,0.0604303108159,0.315268967922,245,0.600577697281,0.210610106048,0.650172825369,nan,nan,nan,nan,nan,nan,nan,nan,339.279673177,440.789252555,nan,441.181334348,nan,nan,nan,nan
1,96,1,1,1.0,1.0,0.234360259608,0,0.0,0.0,0.0,0.338162416133,0.060368128542,0.277794287591,0.398530544675,0.060368128542,0.304132917197,178,1.0,-0.139919655122,0.315097826042,nan,nan,nan,nan,nan,nan,nan,nan,339.279673177,441.730980016,nan,441.965340275,nan,nan,nan,nan
1,97,1,1,1.0,1.0,0.244541047723,0,0.0,0.0,0.0,0.337081143669,0.0609706374801,0.276110506189,0.398051781149,0.0609706374801,0.290327700088,337,-0.160643365934,0.457858386897,0.259303564052,nan,nan,nan,nan,nan,nan,nan,nan,339.279673177,442.672774759,nan,442.917315807,nan,nan,nan,nan
1,98,1,1,1.0,1.0,0.254741792567,0,1.0,0.0,0.0,0.336127122061,0.0613715717997,0.274755550262,0.397498693861,0.0613715717997,0.244547699966,60,1.0,-0.0867837676833,-1.0,nan,nan,nan,nan,nan,nan,nan,nan,339.279673177,443.614555534,nan,443.869297326,nan,nan,nan,nan
1,99,0,0,1.0,0.0,0.312938210787,0,0.0,0.0,0.0,0.335296659515,0.0616030377456,0.27369362177,0.396899697261,0.0616030377456,0.270740350359,208,0.97651257568,0.025020743352,0.522574479073,nan,nan,nan,nan,nan,nan,nan,nan,339.279673177,444.556338873,nan,444.869277084,nan,nan,nan,nan
1,100,1,1,1.0,1.0,0.227057233336,0,0.0,0.0,0.0,0.335070816599,0.0613318847129,0.273738931886,0.396402701312,0.0613318847129,0.26491241223,160,1.0,-0.227501418013,0.158297521075,nan,nan,nan,nan,nan,nan,nan,nan,339.279673177,445.498203466,nan,445.725260699,nan,nan,nan,nan
1,101,1,1,1.0,1.0,0.301328520174,0,0.0,0.0,0.0,0.333990680766,0.0619635919706,0.272027088796,0.395954272737,0.0619635919706,0.280441321433,292,0.112881669716,0.376069582356,0.569261850688,nan,nan,nan,nan,nan,nan,nan,nan,339.279673177,446.439902987,nan,446.741231508,nan,nan,nan,nan
1,102,1,1,1.0,1.0,0.49547766021,0,0.0,0.0,0.0,0.333667293038,0.0617408290526,0.271926463985,0.39540812209,0.0617408290526,0.341287804573,508,0.814199817736,0.228638933499,-1.0,nan,nan,nan,nan,nan,nan,nan,nan,339.279673177,447.381718828,nan,447.877196489,nan,nan,nan,nan
1,103,0,0,0.0,1.0,0.417692561867,0,0.0,0.0,0.0,0.335253669186,0.0634723059881,0.271781363198,0.398725975174,0.0634723059881,0.404832914084,465,0.456588679398,0.37096152752,-1.0,nan,nan,nan,nan,nan,nan,nan,nan,339.279673177,448.323472803,nan,448.741165365,nan,nan,nan,nan
1,104,1,1,1.0,1.0,0.283900869661,0,0.0,0.0,0.0,0.336054046785,0.0636785784028,0.272375468382,0.399732625188,0.0636785784028,0.399023697246,251,0.535576518695,0.236509187076,0.655284151108,nan,nan,nan,nan,nan,nan,nan,nan,339.279673177,449.265243314,nan,449.549144184,nan,nan,nan,nan
1,105,1,1,1.0,1.0,0.270092231454,0,0.0,0.0,0.0,0.335552573928,0.0635757285617,0.271976845367,0.39912830249,0.0635757285617,0.323895220994,135,1.0,-0.303502321856,-0.0849788702499,nan,nan,nan,nan,nan,nan,nan,nan,339.279673177,450.207026654,nan,450.477118885,nan,nan,nan,nan
1,106,1,1,1.0,1.0,0.28834466543,0,0.0,0.0,0.0,0.334929142095,0.0635908847646,0.271338257331,0.39852002686,0.0635908847646,0.280779255515,351,-0.175686286722,0.4701852659,0.128489978773,nan,nan,nan,nan,nan,nan,nan,nan,339.279673177,451.148792888,nan,451.437137554,nan,nan,nan,nan
1,107,1,1,1.0,1.0,0.37853173702,0,0.0,0.0,0.0,0.3344896659,0.0634502260978,0.271039439802,0.397939891998,0.0634502260978,0.312322877968,121,1.0,-0.310732805591,-0.229640808446,nan,nan,nan,nan,nan,nan,nan,nan,339.279673177,452.090571382,nan,452.469103119,nan,nan,nan,nan
1,108,1,1,1.0,1.0,0.444702013046,0,0.0,0.0,0.0,0.334901274042,0.0632950576307,0.271606216411,0.398196331672,0.0632950576307,0.370526138499,460,0.415848916989,0.383334931935,-1.0,nan,nan,nan,nan,nan,nan,nan,nan,339.279673177,453.032358998,nan,453.477061011,nan,nan,nan,nan
1,109,1,1,1.0,1.0,0.382907394785,0,0.0,1.0,0.0,0.335917947551,0.0638730550239,0.272044892527,0.399791002575,0.0638730550239,0.402047048284,301,0.0351599448551,0.39804275895,0.523414514543,nan,nan,nan,nan,nan,nan,nan,nan,339.279673177,453.974162865,nan,454.35707026,nan,nan,nan,nan
1,110,1,1,1.0,1.0,0.36111492035,1,0.0,0.0,1.0,0.336349043397,0.0637370317279,0.272612011669,0.400086075125,0.0637370317279,0.396241442727,346,-0.174317561957,0.466431294057,0.176670174816,-137.419509217,227.419509217,-15.8617407833,323.0,-0.11001989341,0.43965344528,0.375855360355,1.3671184777,339.279673177,454.915924252,455.724364071,455.277039173,458.124611022,459.130001622,456.741102074,458.116275947
1,111,0,0,1.0,0.0,0.33808911941,0,0.0,0.0,0.0,0.336574187733,0.0634901837104,0.273084004023,0.400064371443,0.0634901837104,0.360703811515,11,0.934659501434,0.163852895862,-1.0,nan,nan,nan,nan,nan,nan,nan,nan,339.279673177,459.27481143,nan,459.61290055,nan,nan,nan,nan
1,112,1,1,1.0,1.0,0.236303760903,0,0.0,0.0,0.0,0.336587835766,0.06320370694,0.273384128826,0.399791542706,0.06320370694,0.311835933554,91,1.0,-0.237709898716,-0.562722318432,nan,nan,nan,nan,nan,nan,nan,nan,339.279673177,460.216597336,nan,460.452901097,nan,nan,nan,nan
1,113,1,1,1.0,1.0,0.286491254461,0,0.0,0.0,0.0,0.335692442241,0.0636241582414,0.272068283999,0.399316600482,0.0636241582414,0.286961378258,205,1.0,0.00854800403903,0.505535240796,nan,nan,nan,nan,nan,nan,nan,nan,339.279673177,461.158378395,nan,461.44486965,nan,nan,nan,nan
1,114,1,1,1.0,1.0,0.416665645083,0,0.0,0.0,0.0,0.335257033499,0.0635093949978,0.271747638501,0.398766428497,0.0635093949978,0.313153553482,76,1.0,-0.169674511773,-0.773365826749,nan,nan,nan,nan,nan,nan,nan,nan,339.279673177,462.100182832,nan,462.516848477,nan,nan,nan,nan
1,115,1,1,1.0,1.0,0.330855656648,0,0.0,0.0,0.0,0.335971144127,0.0636842757089,0.272286868418,0.399655419836,0.0636842757089,0.344670852064,470,0.497741612616,0.357740777197,-1.0,nan,nan,nan,nan,nan,nan,nan,nan,339.279673177,463.041977861,nan,463.372833518,nan,nan,nan,nan
1,116,1,1,1.0,1.0,0.365089447587,0,0.0,0.0,0.0,0.335926661627,0.0634085617272,0.2725180999,0.399335223354,0.0634085617272,0.370870249773,222,0.841778467246,0.0997291618919,0.589484691865,nan,nan,nan,nan,nan,nan,nan,nan,339.279673177,463.983736683,nan,464.34882613,nan,nan,nan,nan
1,117,1,1,1.0,1.0,0.351273396867,0,0.0,0.0,0.0,0.336178064954,0.0631921939744,0.27298587098,0.399370258929,0.0631921939744,0.349072833701,59,1.0,-0.0814409933332,-1.0,nan,nan,nan,nan,nan,nan,nan,nan,339.279673177,464.925513751,nan,465.276787148,nan,nan,nan,nan
1,118,1,1,1.0,1.0,0.385481243953,0,0.0,0.0,0.0,0.336307084885,0.0629369046036,0.273370180282,0.399243989489,0.0629369046036,0.367281362802,298,0.0600896634305,0.391050340636,0.53969689008,nan,nan,nan,nan,nan,nan,nan,nan,339.279673177,465.867292244,nan,466.252773488,nan,nan,nan,nan
1,119,1,1,1.0,1.0,0.611649547121,0,0.0,1.0,0.0,0.336723815047,0.0628315557534,0.273892259294,0.3995553708,0.0628315557534,0.449468062647,393,-0.0489456633786,0.475102171109,-0.327443230616,nan,nan,nan,nan,nan,nan,nan,nan,339.279673177,466.809111221,nan,467.420760768,nan,nan,nan,nan
1,120,1,1,1.0,1.0,0.357852848712,1,0.0,0.0,1.0,0.339034115316,0.0674125587491,0.271621556567,0.406446674066,0.0674125587491,0.451661213262,275,0.279002393219,0.326185254474,0.630178474337,-101.917675905,191.917675905,-1.44169909529,273.0,0.299732959835,0.319577193062,0.635038033336,1.50048594654,339.279673177,467.750845809,468.559268808,468.108698658,471.101229991,472.108884541,469.584380658,471.092893776
1,121,1,1,1.0,1.0,0.257215287886,0,0.0,0.0,0.0,0.339190938095,0.0671528796662,0.272038058429,0.406343817761,0.0671528796662,0.408905894573,230,0.760023132926,0.140224214653,0.61781109556,nan,nan,nan,nan,nan,nan,nan,nan,339.279673177,472.251424412,nan,472.5086397,nan,nan,nan,nan
1,122,1,1,1.0,1.0,0.363407949568,0,0.0,0.0,0.0,0.338513453382,0.0672853538318,0.271228099551,0.405798807214,0.0672853538318,0.326158695389,429,0.177531820842,0.442080780324,-0.901885199234,nan,nan,nan,nan,nan,nan,nan,nan,339.279673177,473.193209463,nan,473.556617412,nan,nan,nan,nan
1,123,1,1,1.0,1.0,0.405593645992,0,0.0,0.0,0.0,0.33871750663,0.0670466094184,0.271670897211,0.405764116048,0.0670466094184,0.342072294482,369,-0.147694689129,0.477999187239,-0.0564338676883,nan,nan,nan,nan,nan,nan,nan,nan,339.279673177,474.134988526,nan,474.540582172,nan,nan,nan,nan
1,124,1,1,1.0,1.0,0.407814260921,0,0.0,0.0,0.0,0.33926121508,0.0670430205715,0.272218194508,0.406304235651,0.0670430205715,0.39227195216,192,1.0,-0.0635997558896,0.421658406928,nan,nan,nan,nan,nan,nan,nan,nan,339.279673177,475.076744782,nan,475.484559043,nan,nan,nan,nan
1,125,1,1,1.0,1.0,0.353980671032,0,0.0,0.0,0.0,0.339814062224,0.0670530551517,0.272761007072,0.406867117375,0.0670530551517,0.389129525982,254,0.503011129055,0.248947817922,0.65613358125,nan,nan,nan,nan,nan,nan,nan,nan,339.279673177,476.018564329,nan,476.372545,nan,nan,nan,nan
1,126,1,1,1.0,1.0,0.340189993964,0,0.0,0.0,0.0,0.339927395094,0.0667962274806,0.273131167614,0.406723622575,0.0667962274806,0.367328308639,452,0.351738073422,0.401406211611,-1.0,nan,nan,nan,nan,nan,nan,nan,nan,339.279673177,476.960335125,nan,477.300525119,nan,nan,nan,nan
1,127,1,1,1.0,1.0,0.310379186529,0,0.0,0.0,0.0,0.339929479212,0.0665306391474,0.273398840065,0.40646011836,0.0665306391474,0.334849950508,296,0.0772713571413,0.386205321608,0.550001308524,nan,nan,nan,nan,nan,nan,nan,nan,339.279673177,477.902123312,nan,478.212502498,nan,nan,nan,nan
1,128,1,1,1.0,1.0,0.288580439985,0,0.0,0.0,0.0,0.339696799742,0.0663196395638,0.273377160178,0.406016439306,0.0663196395638,0.313049873492,128,1.0,-0.310663006781,-0.156689791083,nan,nan,nan,nan,nan,nan,nan,nan,339.279673177,478.843905796,nan,479.132486236,nan,nan,nan,nan
1,129,1,1,1.0,1.0,0.298789452761,0,0.0,0.0,0.0,0.339297453182,0.0662131903789,0.273084262803,0.405510643561,0.0662131903789,0.299249693092,264,0.394966959701,0.287889713878,0.650717615019,nan,nan,nan,nan,nan,nan,nan,nan,339.279673177,479.785663763,nan,480.084453215,nan,nan,nan,nan
1,130,1,1,1.0,1.0,0.324987519882,0,0.0,0.0,0.0,0.338983437675,0.0660516629028,0.272931774772,0.405035100577,0.0660516629028,0.304119137543,467,0.473005185182,0.365775667588,-1.0,nan,nan,nan,nan,nan,nan,nan,nan,339.279673177,480.727444252,nan,481.052431772,nan,nan,nan,nan
1,131,1,1,1.0,1.0,0.303184496937,0,0.0,0.0,0.0,0.338875776768,0.0658084889964,0.273067287772,0.404684265765,0.0658084889964,0.308987156527,181,1.0,-0.123914391386,0.3392011262,nan,nan,nan,nan,nan,nan,nan,nan,339.279673177,481.669224741,nan,481.972409238,nan,nan,nan,nan
1,132,1,1,1.0,1.0,0.33736725559,0,0.0,0.0,0.0,0.338603324251,0.0656303889766,0.272972935274,0.404233713227,0.0656303889766,0.321846424136,385,-0.0879796604702,0.477733444059,-0.233926720364,nan,nan,nan,nan,nan,nan,nan,nan,339.279673177,482.61103488,nan,482.948402135,nan,nan,nan,nan
1,133,1,1,1.0,1.0,0.37154944404,0,0.0,0.0,0.0,0.338593960094,0.0653814042397,0.273212555854,0.403975364334,0.0653814042397,0.337367065523,136,1.0,-0.301914900238,-0.074841205769,nan,nan,nan,nan,nan,nan,nan,nan,339.279673177,483.552821356,nan,483.9243708,nan,nan,nan,nan
1,134,1,1,1.0,1.0,0.333745392505,0,0.0,0.0,0.0,0.338841745688,0.0651973289685,0.273644416719,0.404039074656,0.0651973289685,0.347554030712,33,1.0,0.0565990290419,-1.0,nan,nan,nan,nan,nan,nan,nan,nan,339.279673177,484.49460213,nan,484.828347522,nan,nan,nan,nan
1,135,1,1,1.0,1.0,0.343956115772,0,0.0,0.0,0.0,0.338803713201,0.0649550806731,0.273848632528,0.403758793874,0.0649550806731,0.349750317439,318,-0.0835627602325,0.431640264478,0.413481556053,nan,nan,nan,nan,nan,nan,nan,nan,339.279673177,485.436383189,nan,485.780339305,nan,nan,nan,nan
1,136,1,1,1.0,1.0,0.322122587473,0,0.0,0.0,0.0,0.338841879146,0.0647155672102,0.274126311936,0.403557446356,0.0647155672102,0.333274698583,117,1.0,-0.307587969795,-0.271886539361,nan,nan,nan,nan,nan,nan,nan,nan,339.279673177,486.378185915,nan,486.700308503,nan,nan,nan,nan
1,137,1,1,1.0,1.0,0.348338045529,0,0.0,0.0,0.0,0.338718943178,0.0644930231989,0.274225919979,0.403211966377,0.0644930231989,0.338138916258,360,-0.167709501072,0.475188317955,0.0381258551808,nan,nan,nan,nan,nan,nan,nan,nan,339.279673177,487.319949299,nan,487.668287344,nan,nan,nan,nan
1,138,1,1,1.0,1.0,0.374527559849,0,0.0,0.0,0.0,0.338789155604,0.0642624328265,0.274526722777,0.40305158843,0.0642624328265,0.348329397617,406,0.0244967455079,0.467245700284,-0.489366101921,nan,nan,nan,nan,nan,nan,nan,nan,339.279673177,488.26173834,nan,488.6362659,nan,nan,nan,nan
1,139,1,1,1.0,1.0,0.400715363561,0,0.0,0.0,0.0,0.339048129548,0.0641008849107,0.274947244637,0.403149014458,0.0641008849107,0.374526989646,300,0.0433537089178,0.395748422077,0.528951029102,nan,nan,nan,nan,nan,nan,nan,nan,339.279673177,489.203514838,nan,489.604230202,nan,nan,nan,nan
1,140,1,1,1.0,1.0,0.362909031217,0,0.0,0.0,0.0,0.339491778713,0.0640821709864,0.275409607727,0.4035739497,0.0640821709864,0.379383984876,266,0.373577590308,0.295207490188,0.648113769863,nan,nan,nan,nan,nan,nan,nan,nan,339.279673177,490.14530502,nan,490.508214051,nan,nan,nan,nan
1,141,1,1,1.0,1.0,0.421132248477,0,0.0,0.0,0.0,0.339659044803,0.0638833409723,0.27577570383,0.403542385775,0.0638833409723,0.394918881085,102,1.0,-0.276610342793,-0.434926949461,nan,nan,nan,nan,nan,nan,nan,nan,339.279673177,491.087054149,nan,491.508186397,nan,nan,nan,nan
1,142,1,1,1.0,1.0,0.391329423874,0,0.0,0.0,0.0,0.340236868942,0.0640225016551,0.276214367287,0.404259370597,0.0640225016551,0.391790234523,156,1.0,-0.244060613314,0.121041471254,nan,nan,nan,nan,nan,nan,nan,nan,339.279673177,492.028844046,nan,492.42017347,nan,nan,nan,nan
1,143,1,1,1.0,1.0,0.417535758927,0,0.0,1.0,0.0,0.340596675667,0.0639395757335,0.276657099933,0.404536251401,0.0639395757335,0.409999143759,336,-0.158211608236,0.456758111158,0.268135266647,nan,nan,nan,nan,nan,nan,nan,nan,339.279673177,492.970628526,nan,493.388164285,nan,nan,nan,nan
1,144,1,1,1.0,1.0,0.419648037292,1,0.0,0.0,1.0,0.341134711214,0.0640373838346,0.27709732738,0.405172095049,0.0640373838346,0.409504406697,437,0.23613482661,0.429770237144,-1.0,168.690067526,281.309932474,-25.955692526,400.0,-0.0107874812989,0.471427301814,-0.412692688905,1.01720242435,339.279673177,493.91248314,494.720844558,494.332131177,496.779405899,497.785918068,495.745919346,496.771076812
1,145,1,1,1.0,1.0,0.586419096682,0,0.0,0.0,0.0,0.341679942645,0.0641468588474,0.277533083798,0.405826801493,0.0641468588474,0.474534297634,56,1.0,-0.0653675053377,-1.0,nan,nan,nan,nan,nan,nan,nan,nan,339.279673177,497.929570101,nan,498.515989197,nan,nan,nan,nan
1,146,1,1,1.0,1.0,0.364676343044,0,0.0,0.0,0.0,0.34336779888,0.0670572671887,0.276310531691,0.410425066069,0.0670572671887,0.45691449234,392,-0.0541067903503,0.475522277549,-0.315549842675,nan,nan,nan,nan,nan,nan,nan,nan,339.279673177,498.871347453,nan,499.236023796,nan,nan,nan,nan
1,147,1,1,1.0,1.0,0.286857603234,0,0.0,1.0,0.0,0.343513747813,0.0668503297143,0.276663418098,0.410364077527,0.0668503297143,0.41265101432,290,0.131265381085,0.370776544741,0.578206616232,nan,nan,nan,nan,nan,nan,nan,nan,339.279673177,499.813130508,nan,500.099988112,nan,nan,nan,nan
1,148,1,1,1.0,1.0,0.313053389662,1,0.0,0.0,1.0,0.343128331863,0.0667851262333,0.27634320563,0.409913458097,0.0667851262333,0.32152911198,67,1.0,-0.12380466598,-1.0,59.2775890477,30.7224109523,-16.3869640477,44.0,1.0,-0.00106984144607,-1.0,0.717115498497,339.279673177,500.754916984,501.563325158,501.067970374,503.30529649,504.306603657,502.571762297,503.29690126
1,149,1,1,1.0,1.0,0.252849893644,0,0.0,0.0,0.0,0.342925122794,0.0666047028962,0.276320419898,0.409529825691,0.0666047028962,0.284253628847,364,-0.160194321586,0.476704516321,-0.00341124574885,nan,nan,nan,nan,nan,nan,nan,nan,339.279673177,504.447039518,nan,504.699889411,nan,nan,nan,nan
1,150,1,1,1.0,1.0,0.319073482766,0,0.0,0.0,0.0,0.342320591055,0.066786984217,0.275533606838,0.409107575272,0.066786984217,0.294992255357,224,0.821619416966,0.11002478857,0.597264883709,nan,nan,nan,nan,nan,nan,nan,nan,339.279673177,505.388806322,nan,505.707879805,nan,nan,nan,nan
1,151,0,0,0.0,1.0,0.41724752658,0,0.0,0.0,0.0,0.342165610333,0.0665908658927,0.27557474444,0.408756476226,0.0665908658927,0.32972363433,74,1.0,-0.159715158178,-0.810443278181,nan,nan,nan,nan,nan,nan,nan,nan,339.279673177,506.330603061,nan,506.747850588,nan,nan,nan,nan
1,152,1,1,1.0,1.0,0.291407454759,0,0.0,0.0,0.0,0.342662841567,0.0666488015087,0.276014040058,0.409311643075,0.0666488015087,0.342576154702,304,0.0113092810281,0.404708921832,0.506160370659,nan,nan,nan,nan,nan,nan,nan,nan,339.279673177,507.272411775,nan,507.56381923,nan,nan,nan,nan
1,153,1,1,1.0,1.0,0.397548228968,0,0.0,0.0,0.0,0.342325635074,0.066558309673,0.275767325401,0.408883944747,0.066558309673,0.368734403436,447,0.312467642152,0.411646472288,-1.0,nan,nan,nan,nan,nan,nan,nan,nan,339.279673177,508.214259832,nan,508.611808061,nan,nan,nan,nan
1,154,1,1,1.0,1.0,0.383825119585,0,0.0,0.0,0.0,0.342686567061,0.0664895150429,0.276197052018,0.409176082103,0.0664895150429,0.357593601104,155,1.0,-0.2479831371,0.111611878621,nan,nan,nan,nan,nan,nan,nan,nan,339.279673177,509.155953937,nan,509.539779056,nan,nan,nan,nan
1,155,0,0,0.0,1.0,0.4100052258,0,0.0,0.0,0.0,0.342953700519,0.0663556092544,0.276598091264,0.409309309773,0.0663556092544,0.397126191451,4,0.879126049628,0.195014037372,-1.0,nan,nan,nan,nan,nan,nan,nan,nan,339.279673177,510.097760654,nan,510.50776588,nan,nan,nan,nan
1,156,1,1,1.0,1.0,0.220190119348,0,0.0,0.0,0.0,0.343386291004,0.0663587124181,0.277027578586,0.409745003422,0.0663587124181,0.338006821577,148,1.0,-0.272695592461,0.0444264621409,nan,nan,nan,nan,nan,nan,nan,nan,339.279673177,511.03954485,nan,511.259734969,nan,nan,nan,nan
1,157,1,1,1.0,1.0,0.302391929203,0,0.0,0.0,0.0,0.342596571955,0.0668724008354,0.27572417112,0.409468972791,0.0668724008354,0.310862424783,91,1.0,-0.237709898716,-0.562722318432,nan,nan,nan,nan,nan,nan,nan,nan,339.279673177,511.98132876,nan,512.283720689,nan,nan,nan,nan
1,158,0,0,1.0,0.0,0.296582807438,0,0.0,0.0,0.0,0.342340491428,0.0667357811692,0.275604710259,0.409076272597,0.0667357811692,0.273054951996,277,0.258470646878,0.33263615818,0.624824240443,nan,nan,nan,nan,nan,nan,nan,nan,339.279673177,512.9231121,nan,513.219694907,nan,nan,nan,nan
1,159,1,1,1.0,1.0,0.218784309574,0,0.0,0.0,0.0,0.342050885833,0.0666231532444,0.275427732589,0.408674039078,0.0666231532444,0.272586348738,414,0.0747837862165,0.460162189034,-0.600089175003,nan,nan,nan,nan,nan,nan,nan,nan,339.279673177,513.864888597,nan,514.083672907,nan,nan,nan,nan
1,160,1,1,1.0,1.0,0.308976797969,0,0.0,0.0,0.0,0.341275624347,0.0671244466903,0.274151177657,0.408400071038,0.0671244466903,0.274781304994,106,1.0,-0.287630069369,-0.390564445695,nan,nan,nan,nan,nan,nan,nan,nan,339.279673177,514.80667992,nan,515.115656718,nan,nan,nan,nan
1,161,1,1,1.0,1.0,0.3751399467,0,0.0,0.0,0.0,0.341073756682,0.0669627516661,0.274111005016,0.408036508349,0.0669627516661,0.300967018081,197,1.0,-0.035797595552,0.455774741445,nan,nan,nan,nan,nan,nan,nan,nan,339.279673177,515.74849291,nan,516.123632857,nan,nan,nan,nan
1,162,1,1,1.0,1.0,0.337364974897,0,0.0,0.0,0.0,0.341285347925,0.0668081017006,0.274477246224,0.408093449625,0.0668081017006,0.340493906522,456,0.383612429175,0.392633185378,-1.0,nan,nan,nan,nan,nan,nan,nan,nan,339.279673177,516.690243179,nan,517.027608154,nan,nan,nan,nan
1,163,1,1,1.0,1.0,0.363549357513,0,0.0,0.0,0.0,0.341261148091,0.0666022925011,0.27465885559,0.407863440592,0.0666022925011,0.358684759703,252,0.524721685615,0.240693665738,0.655694012224,nan,nan,nan,nan,nan,nan,nan,nan,339.279673177,517.63202994,nan,517.995579297,nan,nan,nan,nan
1,164,0,0,0.0,1.0,0.405757006141,0,0.0,0.0,0.0,0.341397885572,0.066420481818,0.274977403754,0.40781836739,0.066420481818,0.368890446184,187,1.0,-0.0912463489427,0.385383214542,nan,nan,nan,nan,nan,nan,nan,nan,339.279673177,518.573796744,nan,518.97955375,nan,nan,nan,nan
1,165,1,1,1.0,1.0,0.263976916322,0,0.0,0.0,0.0,0.341790319234,0.0664069468945,0.27538337234,0.408197266129,0.0664069468945,0.344427759992,245,0.600577697281,0.210610106048,0.650172825369,nan,nan,nan,nan,nan,nan,nan,nan,339.279673177,519.515561838,nan,519.779538754,nan,nan,nan,nan
1,166,1,1,1.0,1.0,0.338179779937,0,0.0,0.0,0.0,0.341318722853,0.066480298967,0.274838423886,0.40779902182,0.066480298967,0.335971234133,345,-0.173519535469,0.465595146217,0.186119282857,nan,nan,nan,nan,nan,nan,nan,nan,339.279673177,520.457349169,nan,520.795528949,nan,nan,nan,nan
1,167,1,1,1.0,1.0,0.380340102711,0,0.0,0.0,0.0,0.341299813558,0.0662801996856,0.275019613873,0.407580013244,0.0662801996856,0.32749893299,285,0.178734351563,0.356878681702,0.598527012995,nan,nan,nan,nan,nan,nan,nan,nan,339.279673177,521.399157598,nan,521.7794977,nan,nan,nan,nan
1,168,1,1,1.0,1.0,0.414569617249,0,0.0,0.0,0.0,0.341533587745,0.0661500646573,0.275383523088,0.407683652402,0.0661500646573,0.377696499966,426,0.156193047225,0.446210853967,-0.81485970128,nan,nan,nan,nan,nan,nan,nan,nan,339.279673177,522.340912428,nan,522.755482045,nan,nan,nan,nan
1,169,1,1,1.0,1.0,0.392723259632,0,0.0,0.0,0.0,0.341968326016,0.0661917442024,0.275776581813,0.408160070218,0.0661917442024,0.395877659864,502,0.764740937618,0.25241357569,-1.0,nan,nan,nan,nan,nan,nan,nan,nan,339.279673177,523.282721997,nan,523.675445256,nan,nan,nan,nan
1,170,1,1,1.0,1.0,0.362956357189,0,0.0,0.0,0.0,0.342268651067,0.0661103218361,0.276158329231,0.408378972903,0.0661103218361,0.390083078023,98,1.0,-0.263822910468,-0.480217789416,nan,nan,nan,nan,nan,nan,nan,nan,339.279673177,524.22447198,nan,524.587428338,nan,nan,nan,nan
1,171,0,0,0.0,1.0,0.469101978117,0,0.0,0.0,0.0,0.342390343456,0.0659345745261,0.27645576893,0.408324917982,0.0659345745261,0.408260531646,194,1.0,-0.0524864644427,0.435571704399,nan,nan,nan,nan,nan,nan,nan,nan,339.279673177,525.166290957,nan,525.635392935,nan,nan,nan,nan
1,172,1,1,1.0,1.0,0.263348278939,0,0.0,0.0,0.0,0.343131347167,0.0664476456892,0.276683701478,0.409578992857,0.0664476456892,0.365135538081,394,-0.0437090198531,0.474655926729,-0.339401417396,nan,nan,nan,nan,nan,nan,nan,nan,339.279673177,526.108054911,nan,526.37140319,nan,nan,nan,nan
1,173,1,1,1.0,1.0,0.313490727334,0,0.0,0.0,0.0,0.342667492119,0.0665312854723,0.276136206647,0.409198777592,0.0665312854723,0.348646994797,493,0.689769084006,0.285700779988,-1.0,nan,nan,nan,nan,nan,nan,nan,nan,339.279673177,527.049883581,nan,527.363374308,nan,nan,nan,nan
1,174,1,1,1.0,1.0,0.363692190615,0,0.0,0.0,0.0,0.3424988403,0.0663755830212,0.276123257279,0.408874423321,0.0663755830212,0.313510398963,359,-0.169222339917,0.474741883077,0.0483828026834,nan,nan,nan,nan,nan,nan,nan,nan,339.279673177,527.991666351,nan,528.355358541,nan,nan,nan,nan
1,175,1,1,1.0,1.0,0.309870004654,0,0.0,0.0,0.0,0.342620641164,0.0662039601219,0.276416681042,0.408824601286,0.0662039601219,0.329017640868,100,1.0,-0.270427092546,-0.457439896749,nan,nan,nan,nan,nan,nan,nan,nan,339.279673177,528.933444274,nan,529.243314279,nan,nan,nan,nan
1,176,1,1,1.0,1.0,0.256105693174,0,0.0,0.0,0.0,0.342433494669,0.0660606764144,0.276372818255,0.408494171084,0.0660606764144,0.309889296147,20,1.0,0.121558187834,-1.0,nan,nan,nan,nan,nan,nan,nan,nan,339.279673177,529.875200245,nan,530.131305938,nan,nan,nan,nan
1,177,1,1,1.0,1.0,0.26622404519,0,0.0,0.0,0.0,0.341942995797,0.0661915443257,0.275751451472,0.408134540123,0.0661915443257,0.277399914339,258,0.459642287315,0.26499291187,0.655490062901,nan,nan,nan,nan,nan,nan,nan,nan,339.279673177,530.817035472,nan,531.083259517,nan,nan,nan,nan
1,178,1,1,1.0,1.0,0.268501964514,0,1.0,0.0,0.0,0.341515205116,0.0662478390096,0.275267366106,0.407763044125,0.0662478390096,0.263610567626,134,1.0,-0.304950998219,-0.095144111098,nan,nan,nan,nan,nan,nan,nan,nan,339.279673177,531.758760367,nan,532.027262332,nan,nan,nan,nan
1,179,1,1,1.0,1.0,0.262692557531,1,0.0,0.0,1.0,0.341105018371,0.0662865064538,0.274818511917,0.407391524825,0.0662865064538,0.265806189079,182,1.0,-0.118523835432,0.347089474713,-54.8658069431,144.865806943,16.8970569431,206.0,0.994723455659,0.014051917983,0.511316161583,0.867063596728,339.279673177,532.700547128,533.508937056,532.963239686,535.409215509,536.410695444,534.525704423,535.400823415
1,180,0,0,0.0,1.0,0.41212947818,0,0.0,0.0,0.0,0.34066695993,0.0663589583278,0.274308001603,0.407025918258,0.0663589583278,0.314441333408,287,0.159501648714,0.36255249221,0.590751920292,nan,nan,nan,nan,nan,nan,nan,nan,339.279673177,536.551015271,nan,536.963144749,nan,nan,nan,nan
1,181,1,1,1.0,1.0,0.246342856204,0,0.0,0.0,0.0,0.341063973921,0.0663872080888,0.274676765832,0.407451182009,0.0663872080888,0.307054963972,38,1.0,0.0306259494545,-1.0,nan,nan,nan,nan,nan,nan,nan,nan,339.279673177,537.49278065,nan,537.739123506,nan,nan,nan,nan
1,182,1,1,1.0,1.0,0.272468223819,0,0.0,0.0,0.0,0.340540652828,0.066574826933,0.273965825895,0.407115479761,0.066574826933,0.310313519401,181,1.0,-0.123914391386,0.3392011262,nan,nan,nan,nan,nan,nan,nan,nan,339.279673177,538.434625,nan,538.707093224,nan,nan,nan,nan
1,183,1,1,1.0,1.0,0.27471193159,0,1.0,0.0,0.0,0.340166628493,0.0665820970161,0.273584531477,0.406748725509,0.0665820970161,0.264507670538,500,0.748145934353,0.260058294274,-1.0,nan,nan,nan,nan,nan,nan,nan,nan,339.279673177,539.376372133,nan,539.651084064,nan,nan,nan,nan
1,184,1,1,1.0,1.0,0.244868338341,1,0.0,0.0,1.0,0.339808952554,0.0665750274327,0.273233925121,0.406383979987,0.0665750274327,0.264016164583,270,0.331159066004,0.309369715406,0.641393874915,-113.498565676,203.498565676,13.654815676,289.0,0.140592130943,0.368073254824,0.582505265782,1.15044616151,339.279673177,540.318200518,541.126554808,540.563068856,543.318465372,544.319703831,542.15163986,543.310137995
1,185,1,1,1.0,1.0,0.294614502811,0,0.0,0.0,0.0,0.339292970955,0.0667597739722,0.272533196983,0.406052744927,0.0667597739722,0.271398257581,395,-0.0383984177995,0.474183508328,-0.351427224487,nan,nan,nan,nan,nan,nan,nan,nan,339.279673177,544.460332702,nan,544.754947204,nan,nan,nan,nan
1,186,1,1,1.0,1.0,0.280832663644,0,0.0,0.0,0.0,0.339051465722,0.0666596429983,0.272391822723,0.40571110872,0.0666596429983,0.273438501599,160,1.0,-0.227501418013,0.158297521075,nan,nan,nan,nan,nan,nan,nan,nan,339.279673177,545.402114331,nan,545.682946995,nan,nan,nan,nan
1,187,1,1,1.0,1.0,0.307032726472,0,0.0,0.0,0.0,0.338738461409,0.0666163864307,0.272122074979,0.40535484784,0.0666163864307,0.294159964309,451,0.343830962376,0.403518361206,-1.0,nan,nan,nan,nan,nan,nan,nan,nan,339.279673177,546.343867736,nan,546.650900462,nan,nan,nan,nan
1,188,1,1,1.0,1.0,0.37322096352,0,0.0,0.0,0.0,0.338568912025,0.0664782568684,0.272090655156,0.405047168893,0.0664782568684,0.320362117879,405,0.018463324075,0.468009379796,-0.476293327428,nan,nan,nan,nan,nan,nan,nan,nan,339.279673177,547.285672173,nan,547.658893137,nan,nan,nan,nan
1,189,0,0,0.0,1.0,0.479429875966,0,0.0,0.0,0.0,0.338753231448,0.0663491106343,0.272404120813,0.405102342082,0.0663491106343,0.386561188653,205,1.0,0.00854800403903,0.505535240796,nan,nan,nan,nan,nan,nan,nan,nan,339.279673177,548.227436411,nan,548.706866287,nan,nan,nan,nan
1,190,1,1,1.0,1.0,0.2815927302,0,0.0,0.0,0.0,0.339497552318,0.0669557088208,0.272541843497,0.406453261139,0.0669557088208,0.378081189895,316,-0.0718215561597,0.428203514031,0.427892255365,nan,nan,nan,nan,nan,nan,nan,nan,339.279673177,549.169223173,nan,549.450815903,nan,nan,nan,nan
1,191,1,1,1.0,1.0,0.259830190917,0,0.0,0.0,0.0,0.339192790096,0.0669105834434,0.272282206653,0.40610337354,0.0669105834434,0.340284265694,503,0.773020196022,0.248538461814,-1.0,nan,nan,nan,nan,nan,nan,nan,nan,339.279673177,550.11101364,nan,550.370843831,nan,nan,nan,nan
1,192,1,1,1.0,1.0,0.302031282452,0,0.0,0.0,0.0,0.338777279106,0.0669805168084,0.271796762297,0.405757795914,0.0669805168084,0.281151401189,201,1.0,-0.0135712615467,0.48142235136,nan,nan,nan,nan,nan,nan,nan,nan,339.279673177,551.05278244,nan,551.354813722,nan,nan,nan,nan
1,193,1,1,1.0,1.0,0.320226697135,0,0.0,0.0,0.0,0.338585893707,0.0668582009788,0.271727692728,0.405444094685,0.0668582009788,0.294029390168,489,0.656284860842,0.299572439858,-1.0,nan,nan,nan,nan,nan,nan,nan,nan,339.279673177,551.99456635,nan,552.314793047,nan,nan,nan,nan
1,194,0,0,0.0,1.0,0.378389474005,0,0.0,0.0,0.0,0.338490768336,0.0666977937736,0.271792974562,0.405188562109,0.0666977937736,0.333549151197,245,0.600577697281,0.210610106048,0.650172825369,nan,nan,nan,nan,nan,nan,nan,nan,339.279673177,552.93637934,nan,553.314768814,nan,nan,nan,nan
1,195,1,1,1.0,1.0,0.252582473448,0,0.0,0.0,0.0,0.338696431767,0.0665869971983,0.272109434569,0.405283428965,0.0665869971983,0.317066214862,387,-0.0787219327085,0.477231755363,-0.256974454483,nan,nan,nan,nan,nan,nan,nan,nan,339.279673177,553.878148425,nan,554.130730899,nan,nan,nan,nan
1,196,1,1,1.0,1.0,0.222802171367,0,0.0,0.0,0.0,0.338254821724,0.0667002577565,0.271554563968,0.404955079481,0.0667002577565,0.28459137294,65,1.0,-0.113312155659,-1.0,nan,nan,nan,nan,nan,nan,nan,nan,339.279673177,554.819933761,nan,555.042735932,nan,nan,nan,nan
1,197,1,1,1.0,1.0,0.288988697925,0,1.0,0.0,0.0,0.33766577759,0.0670364492234,0.270629328366,0.404702226813,0.0670364492234,0.254791114246,246,0.589768841079,0.215019897151,0.651339528662,nan,nan,nan,nan,nan,nan,nan,nan,339.279673177,555.761719096,nan,556.050707794,nan,nan,nan,nan
1,198,1,1,1.0,1.0,0.291166833485,1,0.0,0.0,1.0,0.337418685815,0.0669555119054,0.27046317391,0.40437419772,0.0669555119054,0.267652567592,410,0.0492046846968,0.463921527344,-0.54316189137,-167.660912722,257.660912722,-30.6203372783,366.0,-0.155593376329,0.477302029306,-0.0244766492797,1.35048909695,339.279673177,556.703508138,557.511910325,556.994674972,559.895517916,560.90214897,558.528685105,559.887204794
1,199,1,1,1.0,1.0,0.332842207514,0,0.0,0.0,0.0,0.337185090601,0.0668666478901,0.270318442711,0.404051738491,0.0668666478901,0.304332579641,269,0.34171296506,0.305888347675,0.643262349404,nan,nan,nan,nan,nan,nan,nan,nan,339.279673177,561.045710342,nan,561.378552549,nan,nan,nan,nan
1,200,1,1,1.0,1.0,0.375025623012,0,0.0,0.0,0.0,0.337163267068,0.0666991365568,0.270464130511,0.403862403625,0.0666991365568,0.333011554671,216,0.900975005756,0.0682271079607,0.563426584804,nan,nan,nan,nan,nan,nan,nan,nan,339.279673177,561.987493397,nan,562.36251902,nan,nan,nan,nan
1,201,1,1,1.0,1.0,0.2972607665,0,0.0,0.0,0.0,0.337352578848,0.0665857559421,0.270766822906,0.40393833479,0.0665857559421,0.335042865675,98,1.0,-0.263822910468,-0.480217789416,nan,nan,nan,nan,nan,nan,nan,nan,339.279673177,562.929275596,nan,563.226536363,nan,nan,nan,nan
1,202,1,1,1.0,1.0,0.355477141333,0,0.0,0.0,0.0,0.337153117095,0.0664797854103,0.270673331684,0.403632902505,0.0664797854103,0.342587843615,16,0.973419431522,0.140652110383,-1.0,nan,nan,nan,nan,nan,nan,nan,nan,339.279673177,563.871034418,nan,564.226511559,nan,nan,nan,nan
1,203,1,1,1.0,1.0,0.477678529453,0,0.0,0.0,0.0,0.337243830086,0.0663274969169,0.270916333169,0.403571327003,0.0663274969169,0.376805479095,131,1.0,-0.308451667147,-0.125800503078,nan,nan,nan,nan,nan,nan,nan,nan,339.279673177,564.812813481,nan,565.290492011,nan,nan,nan,nan
1,204,1,1,1.0,1.0,0.319872892695,0,0.0,0.0,0.0,0.337935626635,0.0668904992883,0.271045127346,0.404826125923,0.0668904992883,0.384342854493,457,0.391639248186,0.390358177281,-1.0,nan,nan,nan,nan,nan,nan,nan,nan,339.279673177,565.754596536,nan,566.074469429,nan,nan,nan,nan
1,205,1,1,1.0,1.0,0.306057697162,0,0.0,0.0,0.0,0.337847083821,0.0667382749754,0.271108808846,0.404585358797,0.0667382749754,0.367869706436,500,0.748145934353,0.260058294274,-1.0,nan,nan,nan,nan,nan,nan,nan,nan,339.279673177,566.696383297,nan,567.002440994,nan,nan,nan,nan
1,206,1,1,1.0,1.0,0.25226031465,0,0.0,0.0,0.0,0.337692013642,0.0666121315488,0.271079882094,0.404304145191,0.0666121315488,0.292730301502,223,0.83172397378,0.104890589731,0.593432239612,nan,nan,nan,nan,nan,nan,nan,nan,339.279673177,567.63816179,nan,567.890422105,nan,nan,nan,nan
1,207,1,1,1.0,1.0,0.422417747672,0,0.0,0.0,0.0,0.337277296657,0.0667150235427,0.270562273114,0.4039923202,0.0667150235427,0.326911919828,112,1.0,-0.300501516081,-0.325324861792,nan,nan,nan,nan,nan,nan,nan,nan,339.279673177,568.579978487,nan,569.002396234,nan,nan,nan,nan
1,208,0,0,1.0,0.0,0.312651403947,0,0.0,0.0,0.0,0.337688603184,0.0668149841823,0.270873619001,0.404503587366,0.0668149841823,0.329109822089,61,1.0,-0.0921163965413,-1.0,nan,nan,nan,nan,nan,nan,nan,nan,339.279673177,569.521723339,nan,569.834374743,nan,nan,nan,nan
1,209,1,1,1.0,1.0,0.234829528141,0,0.0,0.0,0.0,0.337568232033,0.066676672653,0.27089155938,0.404244904686,0.066676672653,0.32329955992,266,0.373577590308,0.295207490188,0.648113769863,nan,nan,nan,nan,nan,nan,nan,nan,339.279673177,570.463534333,nan,570.698363861,nan,nan,nan,nan
1,210,1,1,1.0,1.0,0.220685046515,0,0.0,0.0,0.0,0.337076659288,0.0668937135371,0.27018294575,0.403970372825,0.0668937135371,0.256055326201,481,0.589289488337,0.325611856148,-1.0,nan,nan,nan,nan,nan,nan,nan,nan,339.279673177,571.413652463,nan,571.634337509,nan,nan,nan,nan
1,211,1,1,1.0,1.0,0.318872489734,0,1.0,0.0,0.0,0.336522413512,0.067213561568,0.269308851944,0.403735975081,0.067213561568,0.258129021463,214,0.920243657418,0.0575410437433,0.553854850604,nan,nan,nan,nan,nan,nan,nan,nan,339.279673177,572.355439509,nan,572.674311999,nan,nan,nan,nan
1,212,1,1,1.0,1.0,0.280976067064,1,0.0,0.0,1.0,0.336438764585,0.0670650544939,0.269373710091,0.403503819079,0.0670650544939,0.273511201104,21,1.0,0.116713997928,-1.0,-100.226857706,190.226857706,175.461232706,271.0,0.320642857732,0.312811632898,0.639400143054,1.15055392776,339.279673177,573.297320066,574.105606219,573.578296134,576.297546148,577.297365397,575.130703529,576.2892182
1,213,1,1,1.0,1.0,0.354772383464,0,0.0,0.0,0.0,0.336177148087,0.0670145311119,0.269162616975,0.403191679199,0.0670145311119,0.318206980087,94,1.0,-0.249439013202,-0.526745155233,nan,nan,nan,nan,nan,nan,nan,nan,339.279673177,577.439388674,nan,577.794161057,nan,nan,nan,nan
1,214,1,1,1.0,1.0,0.284984805854,0,0.0,0.0,0.0,0.336264449661,0.0668691176247,0.269395332037,0.403133567286,0.0668691176247,0.306911085461,258,0.459642287315,0.26499291187,0.655490062901,nan,nan,nan,nan,nan,nan,nan,nan,339.279673177,578.381173154,nan,578.66615796,nan,nan,nan,nan
1,215,1,1,1.0,1.0,0.287195727462,0,0.0,0.0,0.0,0.336024825158,0.0668043005354,0.269220524622,0.402829125693,0.0668043005354,0.308984305593,20,1.0,0.121558187834,-1.0,nan,nan,nan,nan,nan,nan,nan,nan,339.279673177,579.322955354,nan,579.610151081,nan,nan,nan,nan
1,216,1,1,1.0,1.0,0.393394091167,0,0.0,0.0,0.0,0.335797713075,0.0667315172247,0.269066195851,0.4025292303,0.0667315172247,0.321858208161,494,0.698129958021,0.282143999684,-1.0,nan,nan,nan,nan,nan,nan,nan,nan,339.279673177,580.264738694,nan,580.658132785,nan,nan,nan,nan
1,217,1,1,1.0,1.0,0.299557216931,0,0.0,0.0,0.0,0.336064362974,0.0666915749923,0.269372787982,0.402755937966,0.0666915749923,0.32671567852,370,-0.144805996584,0.478178727438,-0.0671803333712,nan,nan,nan,nan,nan,nan,nan,nan,339.279673177,581.206551398,nan,581.506108615,nan,nan,nan,nan
1,218,1,1,1.0,1.0,0.421803365112,0,0.0,0.0,0.0,0.335896127278,0.0665836545896,0.269312472688,0.402479781868,0.0665836545896,0.37158489107,117,1.0,-0.307587969795,-0.271886539361,nan,nan,nan,nan,nan,nan,nan,nan,339.279673177,582.148284561,nan,582.570087927,nan,nan,nan,nan
1,219,1,1,1.0,1.0,0.535959051107,0,0.0,1.0,0.0,0.336290197176,0.0666839156347,0.269606281542,0.402974112811,0.0666839156347,0.419106544383,254,0.503011129055,0.248947817922,0.65613358125,nan,nan,nan,nan,nan,nan,nan,nan,339.279673177,583.090109811,nan,583.626068862,nan,nan,nan,nan
1,220,1,1,1.0,1.0,0.338162389118,1,0.0,0.0,1.0,0.337201927103,0.0678796924903,0.269322234613,0.405081619593,0.0678796924903,0.431974935113,342,-0.170052622031,0.462913557708,0.21407524247,-136.747464806,226.747464806,-13.7212851938,322.0,-0.105067232891,0.43811622051,0.383559350674,1.133735243,339.279673177,584.031866351,584.840277661,584.370028741,587.015506672,588.014328084,585.865389797,587.007173878
1,221,1,1,1.0,1.0,0.276535407407,0,0.0,0.0,0.0,0.337206292839,0.0677252755693,0.26948101727,0.404931568409,0.0677252755693,0.383552282544,231,0.749609680972,0.145151270079,0.620821461523,nan,nan,nan,nan,nan,nan,nan,nan,339.279673177,588.157395668,nan,588.433931076,nan,nan,nan,nan
1,222,1,1,1.0,1.0,0.334743514541,0,0.0,0.0,0.0,0.336931763946,0.0676944542679,0.269237309678,0.404626218214,0.0676944542679,0.316480437022,475,0.539218753276,0.343659807328,-1.0,nan,nan,nan,nan,nan,nan,nan,nan,339.279673177,589.099186991,nan,589.433930506,nan,nan,nan,nan
1,223,1,1,1.0,1.0,0.296976525453,0,0.0,0.0,0.0,0.336921906967,0.0675419761541,0.269379930812,0.404463883121,0.0675419761541,0.3027518158,122,1.0,-0.311159539646,-0.219144224573,nan,nan,nan,nan,nan,nan,nan,nan,339.279673177,590.040944672,nan,590.337921198,nan,nan,nan,nan
1,224,1,1,1.0,1.0,0.331131344778,0,0.0,0.0,0.0,0.336742779695,0.067443196318,0.269299583377,0.404185976013,0.067443196318,0.32095046159,402,0.000724920831492,0.470139955471,-0.437811562499,nan,nan,nan,nan,nan,nan,nan,nan,339.279673177,590.982743407,nan,591.313874752,nan,nan,nan,nan
1,225,1,1,1.0,1.0,0.357376452768,0,0.0,0.0,0.0,0.336717728646,0.0672935248931,0.269424203753,0.40401125354,0.0672935248931,0.328494774333,243,0.622151010882,0.20168048164,0.647463484622,nan,nan,nan,nan,nan,nan,nan,nan,339.279673177,591.924483983,nan,592.281860436,nan,nan,nan,nan
1,226,1,1,1.0,1.0,0.383557414287,0,0.0,0.0,0.0,0.336809545198,0.0671578779493,0.269651667249,0.403967423147,0.0671578779493,0.357355070611,491,0.673033477965,0.292707709811,-1.0,nan,nan,nan,nan,nan,nan,nan,nan,339.279673177,592.866290416,nan,593.24984783,nan,nan,nan,nan
1,227,1,1,1.0,1.0,0.393769562943,0,0.0,0.0,0.0,0.337016394176,0.0670809286006,0.269935465576,0.404097322777,0.0670809286006,0.378234476666,363,-0.162287729338,0.476365729747,0.00704812682028,nan,nan,nan,nan,nan,nan,nan,nan,339.279673177,593.808052373,nan,594.201821936,nan,nan,nan,nan
1,228,1,1,1.0,1.0,0.467928521801,0,0.0,1.0,0.0,0.337266408136,0.0670384548396,0.270227953296,0.404304862975,0.0670384548396,0.415085166343,164,1.0,-0.209685835145,0.194761549991,nan,nan,nan,nan,nan,nan,nan,nan,339.279673177,594.749864223,nan,595.217792745,nan,nan,nan,nan
1,229,1,1,1.0,1.0,0.470116635668,1,0.0,0.0,1.0,0.337839487582,0.0674462347007,0.270393252881,0.405285722282,0.0674462347007,0.443938240137,457,0.391639248186,0.390358177281,-1.0,158.347668528,291.652331472,-29.6757935281,415.0,0.0813077335083,0.459153678902,-0.614968023274,1.32548586815,339.279673177,595.691637014,596.500041482,596.16175365,598.858790388,599.870034585,597.516792884,598.850426233
1,230,1,1,1.0,1.0,0.280846063164,0,0.0,0.0,0.0,0.338417117049,0.0678616496484,0.270555467401,0.406278766698,0.0678616496484,0.406297073544,223,0.83172397378,0.104890589731,0.593432239612,nan,nan,nan,nan,nan,nan,nan,nan,339.279673177,600.008819453,nan,600.289665517,nan,nan,nan,nan
1,231,0,0,1.0,0.0,0.251029268838,0,0.0,0.0,0.0,0.338166808119,0.0678198257403,0.270346982379,0.40598663386,0.0678198257403,0.333997322557,274,0.289344050657,0.322900892411,0.632670269059,nan,nan,nan,nan,nan,nan,nan,nan,339.279673177,600.950629022,nan,601.201658291,nan,nan,nan,nan
1,232,1,1,1.0,1.0,0.245259205229,0,0.0,0.0,0.0,0.337789589335,0.0679142474462,0.269875341888,0.405703836781,0.0679142474462,0.259044845744,155,1.0,-0.2479831371,0.111611878621,nan,nan,nan,nan,nan,nan,nan,nan,339.279673177,601.89237473,nan,602.137633935,nan,nan,nan,nan
1,233,1,1,1.0,1.0,0.295421895455,0,0.0,0.0,0.0,0.337390751472,0.0680382962582,0.269352455214,0.40542904773,0.0680382962582,0.263903456507,208,0.97651257568,0.025020743352,0.522574479073,nan,nan,nan,nan,nan,nan,nan,nan,339.279673177,602.834191711,nan,603.129613606,nan,nan,nan,nan
1,234,1,1,1.0,1.0,0.305628342205,0,0.0,0.0,0.0,0.337210627626,0.0679475463267,0.2692630813,0.405158173953,0.0679475463267,0.282103147629,154,1.0,-0.251813147593,0.102138173725,nan,nan,nan,nan,nan,nan,nan,nan,339.279673177,603.775967068,nan,604.08159541,nan,nan,nan,nan
1,235,1,1,1.0,1.0,0.291808870388,0,0.0,0.0,0.0,0.337075660595,0.067833496102,0.269242164493,0.404909156697,0.067833496102,0.297619702683,284,0.188465149253,0.353984098999,0.602236276499,nan,nan,nan,nan,nan,nan,nan,nan,339.279673177,604.717754114,nan,605.009562985,nan,nan,nan,nan
1,236,0,0,0.0,1.0,0.446010890068,0,0.0,0.0,0.0,0.336883035956,0.0677531197384,0.269129916217,0.404636155694,0.0677531197384,0.34781603422,113,1.0,-0.302191989669,-0.314576349441,nan,nan,nan,nan,nan,nan,nan,nan,339.279673177,605.659540305,nan,606.105551195,nan,nan,nan,nan
1,237,1,1,1.0,1.0,0.416162165115,0,0.0,0.0,0.0,0.337345442117,0.0679800088139,0.269365433303,0.405325450931,0.0679800088139,0.384660641857,250,0.546428449327,0.232286661223,0.654747725831,nan,nan,nan,nan,nan,nan,nan,nan,339.279673177,606.601359282,nan,607.017521447,nan,nan,nan,nan
1,238,1,1,1.0,1.0,0.442399860593,0,0.0,0.0,0.0,0.33767800213,0.0680285470527,0.269649455077,0.405706549182,0.0680285470527,0.434857638592,365,-0.157962026257,0.477016591838,-0.0139196855225,nan,nan,nan,nan,nan,nan,nan,nan,339.279673177,607.543104134,nan,607.985503995,nan,nan,nan,nan
1,239,1,1,1.0,1.0,0.348571824376,0,0.0,0.0,0.0,0.338118009938,0.0682226000328,0.269895409906,0.406340609971,0.0682226000328,0.402377950028,510,0.830554458933,0.220436700166,-1.0,nan,nan,nan,nan,nan,nan,nan,nan,339.279673177,608.484883483,nan,608.833455307,nan,nan,nan,nan
1,240,1,1,1.0,1.0,0.40675854939,0,0.0,0.0,0.0,0.338161749748,0.0680830693671,0.270078680381,0.406244819115,0.0680830693671,0.399243411453,326,-0.12383419111,0.444071765824,0.352223541474,nan,nan,nan,nan,nan,nan,nan,nan,339.279673177,609.426663687,nan,609.833422236,nan,nan,nan,nan
1,241,1,1,1.0,1.0,0.352998229209,0,0.0,0.0,0.0,0.338447569746,0.0680846180168,0.270362951729,0.406532187763,0.0680846180168,0.369442867658,115,1.0,-0.305166285737,-0.293172749504,nan,nan,nan,nan,nan,nan,nan,nan,339.279673177,610.368448167,nan,610.721446396,nan,nan,nan,nan
1,242,1,1,1.0,1.0,0.395210154471,0,0.0,0.0,0.0,0.338507945927,0.0679496547121,0.270558291214,0.406457600639,0.0679496547121,0.38498897769,365,-0.157962026257,0.477016591838,-0.0139196855225,nan,nan,nan,nan,nan,nan,nan,nan,339.279673177,611.310202712,nan,611.705412867,nan,nan,nan,nan
1,243,1,1,1.0,1.0,0.357399830711,0,0.0,0.0,0.0,0.338742252573,0.0679066066372,0.270835645936,0.406648859211,0.0679066066372,0.368536071464,454,0.367627362238,0.397084843583,-1.0,nan,nan,nan,nan,nan,nan,nan,nan,339.279673177,612.251986337,nan,612.609386168,nan,nan,nan,nan
1,244,1,1,1.0,1.0,0.343593473197,0,0.0,0.0,0.0,0.33881903273,0.0677772623276,0.271041770403,0.406596295058,0.0677772623276,0.365401152793,52,1.0,-0.0438860552364,-1.0,nan,nan,nan,nan,nan,nan,nan,nan,339.279673177,613.193770817,nan,613.537364291,nan,nan,nan,nan
1,245,1,1,1.0,1.0,0.32169095159,0,0.0,0.0,0.0,0.338838600109,0.0676389196757,0.271199680434,0.406477519785,0.0676389196757,0.340894751833,234,0.71814774995,0.15974031316,0.62913160129,nan,nan,nan,nan,nan,nan,nan,nan,339.279673177,614.135655081,nan,614.457346033,nan,nan,nan,nan
1,246,1,1,1.0,1.0,0.395982195158,0,0.0,0.0,0.0,0.338768609707,0.0675095931104,0.271259016597,0.406278202818,0.0675095931104,0.353755539982,167,1.0,-0.195605812978,0.221546716301,nan,nan,nan,nan,nan,nan,nan,nan,339.279673177,615.077334931,nan,615.473317127,nan,nan,nan,nan
1,247,1,1,1.0,1.0,0.350182903465,0,0.0,0.0,0.0,0.339001185258,0.067470519083,0.271530666175,0.406471704341,0.067470519083,0.355952016738,4,0.879126049628,0.195014037372,-1.0,nan,nan,nan,nan,nan,nan,nan,nan,339.279673177,616.019118842,nan,616.369301745,nan,nan,nan,nan
1,248,1,1,1.0,1.0,0.376348184654,0,0.0,0.0,0.0,0.339046455372,0.0673375441107,0.271708911261,0.406383999483,0.0673375441107,0.374171094426,325,-0.119404900653,0.442631039184,0.360186421743,nan,nan,nan,nan,nan,nan,nan,nan,339.279673177,616.960928125,nan,617.33727631,nan,nan,nan,nan
1,249,1,1,1.0,1.0,0.354526915587,0,0.0,0.0,0.0,0.339196865571,0.0672432088435,0.271953656727,0.406440074414,0.0672432088435,0.360352667902,249,0.557275547736,0.228026269286,0.654084877906,nan,nan,nan,nan,nan,nan,nan,nan,339.279673177,617.902707189,nan,618.257234104,nan,nan,nan,nan
1,250,1,1,1.0,1.0,0.356740402989,0,0.0,0.0,0.0,0.339258432037,0.0671150499417,0.272143382095,0.406373481978,0.0671150499417,0.362538501077,439,0.251144291643,0.426392204401,-1.0,nan,nan,nan,nan,nan,nan,nan,nan,339.279673177,618.844493095,nan,619.201233498,nan,nan,nan,nan
1,251,0,0,0.0,1.0,0.406951844692,0,0.0,0.0,0.0,0.339328359921,0.0669897738187,0.272338586102,0.406318133739,0.0669897738187,0.37273972109,209,0.967301840512,0.0304835193525,0.52804999659,nan,nan,nan,nan,nan,nan,nan,nan,339.279673177,619.786276435,nan,620.193228279,nan,nan,nan,nan
1,252,1,1,1.0,1.0,0.289142079768,0,0.0,0.0,0.0,0.339597776195,0.0669917687129,0.272606007482,0.406589544907,0.0669917687129,0.350944775816,284,0.188465149253,0.353984098999,0.602236276499,nan,nan,nan,nan,nan,nan,nan,nan,339.279673177,620.728056638,nan,621.017198718,nan,nan,nan,nan
1,253,1,1,1.0,1.0,0.275280413684,0,0.0,0.0,0.0,0.339397555177,0.0669339238528,0.272463631324,0.40633147903,0.0669339238528,0.323791446048,13,0.950262168777,0.154664060346,-1.0,nan,nan,nan,nan,nan,nan,nan,nan,339.279673177,621.669893576,nan,621.94517399,nan,nan,nan,nan
1,254,1,1,1.0,1.0,0.325535189826,0,0.0,0.0,0.0,0.33914412774,0.0669225438569,0.272221583883,0.406066671597,0.0669225438569,0.296652561092,117,1.0,-0.307587969795,-0.271886539361,nan,nan,nan,nan,nan,nan,nan,nan,339.279673177,622.611621038,nan,622.937156227,nan,nan,nan,nan
1,255,1,1,1.0,1.0,0.343731459812,0,0.0,0.0,0.0,0.339090549244,0.0667961133807,0.272294435864,0.405886662625,0.0667961133807,0.314849021107,387,-0.0787219327085,0.477231755363,-0.256974454483,nan,nan,nan,nan,nan,nan,nan,nan,339.279673177,623.553403237,nan,623.897134697,nan,nan,nan,nan
1,256,1,1,1.0,1.0,0.361912904773,0,0.0,0.0,0.0,0.339108748894,0.0666656429528,0.272443105941,0.405774391847,0.0666656429528,0.343726518137,155,1.0,-0.2479831371,0.111611878621,nan,nan,nan,nan,nan,nan,nan,nan,339.279673177,624.495192279,nan,624.857105184,nan,nan,nan,nan
1,257,1,1,1.0,1.0,0.348138478119,0,0.0,0.0,0.0,0.339197827628,0.0665505131663,0.272647314461,0.405748340794,0.0665505131663,0.351260947568,485,0.622774561467,0.312875618285,-1.0,nan,nan,nan,nan,nan,nan,nan,nan,339.279673177,625.436943973,nan,625.785082451,nan,nan,nan,nan
1,258,1,1,1.0,1.0,0.414346386911,0,0.0,0.0,0.0,0.339232616151,0.0664232434849,0.272809372666,0.405655859636,0.0664232434849,0.374799256601,189,1.0,-0.0802194643608,0.400143472992,nan,nan,nan,nan,nan,nan,nan,nan,339.279673177,626.378712488,nan,626.793058875,nan,nan,nan,nan
1,259,1,1,1.0,1.0,0.344534576056,0,0.0,0.0,0.0,0.339523754797,0.0664584838561,0.273065270941,0.405982238653,0.0664584838561,0.369006480362,309,-0.0258396312562,0.415106541901,0.475305697888,nan,nan,nan,nan,nan,nan,nan,nan,339.279673177,627.320504381,nan,627.665038957,nan,nan,nan,nan
1,260,1,1,1.0,1.0,0.330736771459,0,0.0,0.0,0.0,0.339543101598,0.0663307894845,0.273212312113,0.405873891082,0.0663307894845,0.363205911475,80,1.0,-0.189075709245,-0.708965549488,nan,nan,nan,nan,nan,nan,nan,nan,339.279673177,628.262286581,nan,628.593023352,nan,nan,nan,nan
1,261,1,1,1.0,1.0,0.348854069714,0,0.0,0.0,0.0,0.339509231097,0.0662053514072,0.27330387969,0.405714582504,0.0662053514072,0.341375139076,17,0.981069150956,0.135921910835,-1.0,nan,nan,nan,nan,nan,nan,nan,nan,339.279673177,629.204156305,nan,629.553010374,nan,nan,nan,nan
1,262,1,1,1.0,1.0,0.423116233433,0,0.0,0.0,0.0,0.339545035076,0.0660809214737,0.273464113603,0.40562595655,0.0660809214737,0.367569024869,167,1.0,-0.195605812978,0.221546716301,nan,nan,nan,nan,nan,nan,nan,nan,339.279673177,630.145855826,nan,630.56897206,nan,nan,nan,nan
1,263,1,1,1.0,1.0,0.377283585607,0,0.0,0.0,0.0,0.339864009116,0.0661557006789,0.273708308437,0.406019709795,0.0661557006789,0.383084629585,333,-0.149813480994,0.453275949072,0.294183738108,nan,nan,nan,nan,nan,nan,nan,nan,339.279673177,631.087664825,nan,631.464948411,nan,nan,nan,nan
1,264,1,1,1.0,1.0,0.483501335839,0,0.0,1.0,0.0,0.340006288874,0.0660699595953,0.273936329279,0.40607624847,0.0660699595953,0.427967051626,465,0.456588679398,0.37096152752,-1.0,nan,nan,nan,nan,nan,nan,nan,nan,339.279673177,632.029420511,nan,632.512921846,nan,nan,nan,nan
1,265,1,1,1.0,1.0,0.42171156418,1,0.0,0.0,1.0,0.340549830719,0.0665312309172,0.274018599802,0.407081061636,0.0665312309172,0.427498828542,288,0.150005133015,0.365331945294,0.586687239957,-119.675891831,209.675891831,7.17589183057,298.0,0.0600896634305,0.391050340636,0.53969689008,1.65050474869,339.279673177,632.971201285,633.779610028,633.392912849,636.463254083,637.4652432,634.796380817,636.454923285
1,266,1,1,1.0,1.0,0.339669693145,0,0.0,0.0,0.0,0.340856101411,0.0665917782613,0.27426432315,0.407447879673,0.0665917782613,0.414960864388,454,0.367627362238,0.397084843583,-1.0,nan,nan,nan,nan,nan,nan,nan,nan,339.279673177,637.605129965,nan,637.944799659,nan,nan,nan,nan
1,267,1,1,1.0,1.0,0.317874082597,0,0.0,0.0,0.0,0.34085164123,0.0664665275376,0.274385113692,0.407318168768,0.0664665275376,0.359751779974,134,1.0,-0.304950998219,-0.095144111098,nan,nan,nan,nan,nan,nan,nan,nan,339.279673177,638.546916156,nan,638.864790239,nan,nan,nan,nan
1,268,1,1,1.0,1.0,0.312070377753,0,0.0,0.0,0.0,0.340765582958,0.0663567873028,0.274408795655,0.407122370261,0.0663567873028,0.323204717832,10,0.926811495151,0.168400576072,-1.0,nan,nan,nan,nan,nan,nan,nan,nan,339.279673177,639.488694079,nan,639.800764457,nan,nan,nan,nan
1,269,1,1,1.0,1.0,0.330292021274,0,0.0,0.0,0.0,0.340658511297,0.0662559752981,0.274402535999,0.406914486595,0.0662559752981,0.320078827208,397,-0.0275613476434,0.473159987783,-0.37569455347,nan,nan,nan,nan,nan,nan,nan,nan,339.279673177,640.430451191,nan,640.760743212,nan,nan,nan,nan
1,270,0,0,1.0,0.0,0.316460005124,0,0.0,0.0,0.0,0.340619974159,0.0661357173668,0.274484256792,0.406755691526,0.0661357173668,0.31960746805,101,1.0,-0.273572672894,-0.446152610616,nan,nan,nan,nan,nan,nan,nan,nan,339.279673177,641.372268457,nan,641.688728462,nan,nan,nan,nan
1,271,1,1,1.0,1.0,0.222674163175,0,0.0,0.0,0.0,0.340530492792,0.0660294420655,0.274501050727,0.406559934858,0.0660294420655,0.289808729858,47,1.0,-0.0170755915744,-1.0,nan,nan,nan,nan,nan,nan,nan,nan,339.279673177,642.314038397,nan,642.536712561,nan,nan,nan,nan
1,272,0,0,1.0,0.0,0.296875886503,0,0.0,0.0,0.0,0.340095598587,0.0662937778121,0.273801820775,0.406389376399,0.0662937778121,0.278670018267,364,-0.160194321586,0.476704516321,-0.00341124574885,nan,nan,nan,nan,nan,nan,nan,nan,339.279673177,643.255797504,nan,643.552673391,nan,nan,nan,nan
1,273,1,1,1.0,1.0,0.25108742842,0,0.0,0.0,0.0,0.339936702587,0.0662234820605,0.273713220526,0.406160184647,0.0662234820605,0.256879159366,305,0.00361192545304,0.406859252708,0.500196907155,nan,nan,nan,nan,nan,nan,nan,nan,339.279673177,644.197578278,nan,644.448665707,nan,nan,nan,nan
1,274,1,1,1.0,1.0,0.293217245955,0,0.0,0.0,0.0,0.33961124737,0.0663196489039,0.273291598466,0.405930896274,0.0663196489039,0.280393520293,164,1.0,-0.209685835145,0.194761549991,nan,nan,nan,nan,nan,nan,nan,nan,339.279673177,645.139414646,nan,645.432631892,nan,nan,nan,nan
1,275,1,1,1.0,1.0,0.30342910951,0,0.0,0.0,0.0,0.339441926197,0.0662576069086,0.273184319288,0.405699533105,0.0662576069086,0.282577927962,68,1.0,-0.129018143495,-0.972903198114,nan,nan,nan,nan,nan,nan,nan,nan,339.279673177,646.081172042,nan,646.384601152,nan,nan,nan,nan
1,276,1,1,1.0,1.0,0.329623755533,0,0.0,0.0,0.0,0.3393109705,0.0661725435112,0.273138426989,0.405483514011,0.0661725435112,0.308756703666,500,0.748145934353,0.260058294274,-1.0,nan,nan,nan,nan,nan,nan,nan,nan,339.279673177,647.022960514,nan,647.352584269,nan,nan,nan,nan
1,277,1,1,1.0,1.0,0.315847333288,0,0.0,0.0,0.0,0.339275871895,0.0660551213244,0.27322075057,0.405330993219,0.0660551213244,0.31630006611,340,-0.166837174664,0.460980112934,0.232376404312,nan,nan,nan,nan,nan,nan,nan,nan,339.279673177,647.964713349,nan,648.280560682,nan,nan,nan,nan
1,278,1,1,1.0,1.0,0.286021986045,0,0.0,0.0,0.0,0.339191292333,0.0659507510577,0.273240541275,0.405142043391,0.0659507510577,0.310497691622,423,0.135229581944,0.450080889006,-0.750039916123,nan,nan,nan,nan,nan,nan,nan,nan,339.279673177,648.906521207,nan,649.192543193,nan,nan,nan,nan
1,279,1,1,1.0,1.0,0.328237332404,0,0.0,0.0,0.0,0.339000035836,0.0659089392437,0.273091096592,0.404908975079,0.0659089392437,0.310035550579,129,1.0,-0.310070485259,-0.146368003411,nan,nan,nan,nan,nan,nan,nan,nan,339.279673177,649.848278318,nan,650.17651565,nan,nan,nan,nan
1,280,1,1,1.0,1.0,0.330412331969,0,0.0,0.0,0.0,0.338961459838,0.0657938607753,0.273167599062,0.404755320613,0.0657938607753,0.314890550139,51,1.0,-0.0385160204876,-1.0,nan,nan,nan,nan,nan,nan,nan,nan,339.279673177,650.790088742,nan,651.120501074,nan,nan,nan,nan
1,281,1,1,1.0,1.0,0.332629240584,0,0.0,0.0,0.0,0.338930927238,0.0656782467479,0.27325268049,0.404609173986,0.0656782467479,0.330426301652,401,-0.00506340639596,0.470796889516,-0.425203102762,nan,nan,nan,nan,nan,nan,nan,nan,339.279673177,651.731868946,nan,652.064498186,nan,nan,nan,nan
1,282,1,1,1.0,1.0,0.318796939333,0,0.0,0.0,0.0,0.338908501307,0.0655623513172,0.27334614999,0.404470852624,0.0655623513172,0.327279503962,56,1.0,-0.0653675053377,-1.0,nan,nan,nan,nan,nan,nan,nan,nan,339.279673177,652.673652001,nan,652.99244894,nan,nan,nan,nan
1,283,1,1,1.0,1.0,0.296996197081,0,0.0,0.0,0.0,0.338837183711,0.0654569209588,0.273380262753,0.40429410467,0.0654569209588,0.316140792333,196,1.0,-0.0413610816081,0.449130757868,nan,nan,nan,nan,nan,nan,nan,nan,339.279673177,653.615443038,nan,653.912439235,nan,nan,nan,nan
1,284,1,1,1.0,1.0,0.315194177674,0,0.0,0.0,0.0,0.338689335702,0.0653883230369,0.273301012665,0.404077658739,0.0653883230369,0.310329104696,66,1.0,-0.118568705386,-1.0,nan,nan,nan,nan,nan,nan,nan,nan,339.279673177,654.5572164,nan,654.872410577,nan,nan,nan,nan
1,285,1,1,1.0,1.0,0.285390497767,0,0.0,0.0,0.0,0.338606606272,0.0652879364156,0.273318669857,0.403894542688,0.0652879364156,0.299193624174,242,0.632911854383,0.197161183215,0.645921401967,nan,nan,nan,nan,nan,nan,nan,nan,339.279673177,655.49900145,nan,655.784391948,nan,nan,nan,nan
1,286,0,0,0.0,1.0,0.439591662376,0,0.0,0.0,0.0,0.338419883085,0.0652492165896,0.273170666495,0.403669099674,0.0652492165896,0.346725445939,375,-0.128556699755,0.478682433309,-0.121605159467,nan,nan,nan,nan,nan,nan,nan,nan,339.279673177,656.440780229,nan,656.880371891,nan,nan,nan,nan
1,287,1,1,1.0,1.0,0.257771225646,0,0.0,0.0,0.0,0.338773630565,0.0654082423365,0.273365388228,0.404181872901,0.0654082423365,0.32758446193,471,0.506014005179,0.354993781952,-1.0,nan,nan,nan,nan,nan,nan,nan,nan,339.279673177,657.382573547,nan,657.640344773,nan,nan,nan,nan
1,288,1,1,1.0,1.0,0.259974734858,0,0.0,0.0,0.0,0.33849139222,0.0654684178712,0.273022974349,0.403959810091,0.0654684178712,0.31911254096,76,1.0,-0.169674511773,-0.773365826749,nan,nan,nan,nan,nan,nan,nan,nan,339.279673177,658.324338926,nan,658.584313661,nan,nan,nan,nan
1,289,1,1,1.0,1.0,0.286161398049,0,1.0,0.0,0.0,0.338218764938,0.0655176530141,0.272701111923,0.403736417952,0.0655176530141,0.267969119518,341,-0.168535884224,0.46196150489,0.223260112086,nan,nan,nan,nan,nan,nan,nan,nan,339.279673177,659.26612027,nan,659.552281668,nan,nan,nan,nan
1,290,1,1,1.0,1.0,0.264369208715,1,0.0,0.0,1.0,0.33803863564,0.0654756008613,0.272563034779,0.403514236502,0.0654756008613,0.270168447207,212,0.93926288676,0.0467731277665,0.543851001166,172.248220846,277.751779154,128.689279154,395.0,-0.0383984177995,0.474183508328,-0.351427224487,1.00874219229,339.279673177,660.20790361,661.016292397,660.472272819,663.058289645,664.062622538,662.033065181,663.049860488
1,291,0,0,1.0,0.0,0.304072571802,0,0.0,0.0,0.0,0.337784603134,0.0655051239136,0.27227947922,0.403289727047,0.0655051239136,0.284867726189,66,1.0,-0.118568705386,-1.0,nan,nan,nan,nan,nan,nan,nan,nan,339.279673177,664.200084845,nan,664.504157417,nan,nan,nan,nan
1,292,1,1,1.0,1.0,0.274341306533,0,0.0,0.0,0.0,0.337668754229,0.0654222279198,0.272246526309,0.403090982149,0.0654222279198,0.280927695683,387,-0.0787219327085,0.477231755363,-0.256974454483,nan,nan,nan,nan,nan,nan,nan,nan,339.279673177,665.141823139,nan,665.416164446,nan,nan,nan,nan
1,293,0,0,0.0,1.0,0.428521944094,0,0.0,0.0,0.0,0.337451879408,0.0654148089761,0.272037070432,0.402866688384,0.0654148089761,0.335645274143,3,0.871087178923,0.199335109687,-1.0,nan,nan,nan,nan,nan,nan,nan,nan,339.279673177,666.083612466,nan,666.51213441,nan,nan,nan,nan
1,294,1,1,1.0,1.0,0.286736722453,0,0.0,0.0,0.0,0.337762698741,0.0655187189596,0.272243979782,0.403281417701,0.0655187189596,0.329866657693,477,0.555879874869,0.337784025865,-1.0,nan,nan,nan,nan,nan,nan,nan,nan,339.279673177,667.025388679,nan,667.312125401,nan,nan,nan,nan
1,295,1,1,1.0,1.0,0.36892541789,0,0.0,0.0,0.0,0.337589140999,0.0654746312402,0.272114509759,0.403063772239,0.0654746312402,0.361394694812,258,0.459642287315,0.26499291187,0.655490062901,nan,nan,nan,nan,nan,nan,nan,nan,339.279673177,667.967183708,nan,668.336109126,nan,nan,nan,nan
1,296,0,0,0.0,1.0,0.395124910632,0,0.0,0.0,0.0,0.337695365666,0.0653889346975,0.272306430969,0.403084300364,0.0653889346975,0.350262350325,456,0.383612429175,0.392633185378,-1.0,nan,nan,nan,nan,nan,nan,nan,nan,339.279673177,668.908951653,nan,669.304076563,nan,nan,nan,nan
1,297,1,1,1.0,1.0,0.213309890823,0,0.0,0.0,0.0,0.337889384399,0.0653633886021,0.272525995797,0.403252773001,0.0653633886021,0.325786739782,124,1.0,-0.311577186586,-0.198226518473,nan,nan,nan,nan,nan,nan,nan,nan,339.279673177,669.850763217,nan,670.064073108,nan,nan,nan,nan
1,298,1,1,1.0,1.0,0.351510026725,0,0.0,0.0,0.0,0.337469924825,0.0656511050305,0.271818819794,0.403121029855,0.0656511050305,0.319981609394,398,-0.0220377755791,0.472608796233,-0.387943383198,nan,nan,nan,nan,nan,nan,nan,nan,339.279673177,670.792522039,nan,671.144032065,nan,nan,nan,nan
1,299,1,1,1.0,1.0,0.289694596315,0,0.0,0.0,0.0,0.337517039261,0.0655458888823,0.271971150379,0.403062928143,0.0655458888823,0.284838171288,161,1.0,-0.223158351501,0.167490545043,nan,nan,nan,nan,nan,nan,nan,nan,339.279673177,671.734329042,nan,672.024023638,nan,nan,nan,nan
1,300,1,1,1.0,1.0,0.283890606253,0,0.0,0.0,0.0,0.33735709798,0.0654944117962,0.271862686184,0.402851509776,0.0654944117962,0.308365076431,385,-0.0879796604702,0.477733444059,-0.233926720364,nan,nan,nan,nan,nan,nan,nan,nan,339.279673177,672.676109816,nan,672.960000422,nan,nan,nan,nan
1,301,1,1,1.0,1.0,0.278072931571,0,0.0,0.0,0.0,0.337178876341,0.0654577474873,0.271721128854,0.402636623828,0.0654577474873,0.283886044713,461,0.423959648591,0.380927367285,-1.0,nan,nan,nan,nan,nan,nan,nan,nan,339.279673177,673.617896007,nan,673.895968938,nan,nan,nan,nan
1,302,1,1,1.0,1.0,0.288271965925,0,0.0,0.0,0.0,0.336982511076,0.0654373712956,0.27154513978,0.402419882372,0.0654373712956,0.283411834583,85,1.0,-0.212156452387,-0.638781227021,nan,nan,nan,nan,nan,nan,nan,nan,339.279673177,674.559667658,nan,674.847939624,nan,nan,nan,nan
1,303,1,1,1.0,1.0,0.314452357125,0,0.0,0.0,0.0,0.33682121788,0.0653888465568,0.271432371323,0.402210064437,0.0653888465568,0.293599084873,391,-0.0591907973189,0.475916278612,-0.303718712187,nan,nan,nan,nan,nan,nan,nan,nan,339.279673177,675.501476941,nan,675.815929298,nan,nan,nan,nan
1,304,1,1,1.0,1.0,0.308664047392,0,0.0,0.0,0.0,0.336747393257,0.0652934602498,0.271453933007,0.402040853507,0.0652934602498,0.30379612348,209,0.967301840512,0.0304835193525,0.52804999659,nan,nan,nan,nan,nan,nan,nan,nan,339.279673177,676.44324061,nan,676.751904657,nan,nan,nan,nan
1,305,1,1,1.0,1.0,0.350869130343,0,0.0,0.0,0.0,0.33665501383,0.0652058121518,0.271449201678,0.401860825982,0.0652058121518,0.324661844953,268,0.35230222188,0.302367520405,0.645005310408,nan,nan,nan,nan,nan,nan,nan,nan,339.279673177,677.385023379,nan,677.73589251,nan,nan,nan,nan
1,306,1,1,1.0,1.0,0.305046175607,0,0.0,0.0,0.0,0.336701617491,0.0651039006145,0.271597716876,0.401805518105,0.0651039006145,0.321526451114,13,0.950262168777,0.154664060346,-1.0,nan,nan,nan,nan,nan,nan,nan,nan,339.279673177,678.326805579,nan,678.631851755,nan,nan,nan,nan
1,307,1,1,1.0,1.0,0.339260865003,0,0.0,0.0,0.0,0.336598168334,0.065022538682,0.271575629652,0.401620707016,0.065022538682,0.331725390318,154,1.0,-0.251813147593,0.102138173725,nan,nan,nan,nan,nan,nan,nan,nan,339.279673177,679.268586353,nan,679.607847218,nan,nan,nan,nan
1,308,1,1,1.0,1.0,0.317478939309,0,0.0,0.0,0.0,0.336606841613,0.0649167297007,0.271690111913,0.401523571314,0.0649167297007,0.320595326639,467,0.473005185182,0.365775667588,-1.0,nan,nan,nan,nan,nan,nan,nan,nan,339.279673177,680.210344319,nan,680.527823259,nan,nan,nan,nan
1,309,1,1,1.0,1.0,0.32767141622,0,0.0,0.0,0.0,0.336544738034,0.0648203937117,0.271724344323,0.401365131746,0.0648203937117,0.328137073511,126,1.0,-0.311411754845,-0.177408431044,nan,nan,nan,nan,nan,nan,nan,nan,339.279673177,681.152123953,nan,681.479795369,nan,nan,nan,nan
1,310,1,1,1.0,1.0,0.36986680585,0,0.0,0.0,0.0,0.336516021783,0.0647173836293,0.271798638153,0.401233405412,0.0647173836293,0.338339053793,181,1.0,-0.123914391386,0.3392011262,nan,nan,nan,nan,nan,nan,nan,nan,339.279673177,682.093906438,nan,682.463773244,nan,nan,nan,nan
1,311,1,1,1.0,1.0,0.292059469968,0,0.0,0.0,0.0,0.336623604957,0.0646405861633,0.271983018794,0.40126419112,0.0646405861633,0.329865897346,313,-0.0530221528698,0.42279583272,0.448797959603,nan,nan,nan,nan,nan,nan,nan,nan,339.279673177,683.035692629,nan,683.327752099,nan,nan,nan,nan
1,312,1,1,1.0,1.0,0.32626218535,0,0.0,0.0,0.0,0.336480311918,0.0645858745383,0.27189443738,0.401066186457,0.0645858745383,0.329396153723,143,1.0,-0.287057525782,-0.00469998909502,nan,nan,nan,nan,nan,nan,nan,nan,339.279673177,683.977472547,nan,684.303734733,nan,nan,nan,nan
1,313,1,1,1.0,1.0,0.264450746356,0,0.0,0.0,0.0,0.336447561513,0.0644848749787,0.271962686534,0.400932436491,0.0644848749787,0.294257467225,296,0.0772713571413,0.386205321608,0.550001308524,nan,nan,nan,nan,nan,nan,nan,nan,339.279673177,684.919255032,nan,685.183705778,nan,nan,nan,nan
1,314,1,1,1.0,1.0,0.226656102925,0,0.0,0.0,0.0,0.336217539739,0.0645098575837,0.271707682155,0.400727397323,0.0645098575837,0.272456344877,40,1.0,0.0201165467467,-1.0,nan,nan,nan,nan,nan,nan,nan,nan,339.279673177,685.861036376,nan,686.087692479,nan,nan,nan,nan
1,315,1,1,1.0,1.0,0.332849620027,0,0.0,0.0,0.0,0.335868617966,0.0647022031772,0.271166414789,0.400570821143,0.0647022031772,0.274652156436,252,0.524721685615,0.240693665738,0.655694012224,nan,nan,nan,nan,nan,nan,nan,nan,339.279673177,686.802819146,nan,687.135668766,nan,nan,nan,nan
1,316,1,1,1.0,1.0,0.327016550116,0,0.0,0.0,0.0,0.335859033845,0.0645996428698,0.271259390976,0.400458676715,0.0645996428698,0.295507424356,84,1.0,-0.20765784414,-0.652191087791,nan,nan,nan,nan,nan,nan,nan,nan,339.279673177,687.744628715,nan,688.071645265,nan,nan,nan,nan
1,317,1,1,1.0,1.0,0.265217370237,0,0.0,0.0,0.0,0.335831051302,0.0644992593333,0.271331791969,0.400330310635,0.0644992593333,0.308361180127,303,0.0191349273956,0.402522842081,0.512018356663,nan,nan,nan,nan,nan,nan,nan,nan,339.279673177,688.68641348,nan,688.951630851,nan,nan,nan,nan
1,318,1,1,1.0,1.0,0.307408198249,0,0.0,0.0,0.0,0.33560829521,0.0645190742824,0.271089220928,0.400127369493,0.0645190742824,0.299880706201,159,1.0,-0.231765974528,0.149055008463,nan,nan,nan,nan,nan,nan,nan,nan,339.279673177,689.628191403,nan,689.935599602,nan,nan,nan,nan
1,319,1,1,1.0,1.0,0.349585626856,0,0.0,0.0,0.0,0.33551961566,0.0644368960155,0.271082719644,0.399956511675,0.0644368960155,0.307403731781,416,0.087881616042,0.458117504295,-0.630165317015,nan,nan,nan,nan,nan,nan,nan,nan,339.279673177,690.569991279,nan,690.919576906,nan,nan,nan,nan
1,320,1,1,1.0,1.0,0.135805612197,0,1.0,0.0,0.0,0.335563709739,0.0643406234166,0.271223086322,0.399904333156,0.0643406234166,0.264266479101,336,-0.158211608236,0.456758111158,0.268135266647,nan,nan,nan,nan,nan,nan,nan,nan,339.279673177,691.511761504,nan,691.647567117,nan,nan,nan,nan
1,321,1,1,1.0,1.0,0.266003665747,1,0.0,0.0,1.0,0.334939465684,0.0652003629886,0.269739102696,0.400139828673,0.0652003629886,0.250464968267,469,0.489482198204,0.360453357602,-1.0,-172.496912609,262.496912609,-67.268712391,373.0,-0.135407706169,0.478559568072,-0.0996974893599,15.9439457952,339.279673177,692.453543419,693.26195929,692.719547085,710.239101696,711.235966207,694.278697578,710.230774034
1,322,1,1,1.0,1.0,0.322236340842,0,0.0,0.0,0.0,0.334724712413,0.065211978506,0.269512733907,0.399936690919,0.065211978506,0.241348539595,392,-0.0541067903503,0.475522277549,-0.315549842675,nan,nan,nan,nan,nan,nan,nan,nan,339.279673177,711.380861829,nan,711.70309817,nan,nan,nan,nan
1,323,1,1,1.0,1.0,0.244415890542,0,0.0,0.0,0.0,0.334685928651,0.0651143466802,0.26957158197,0.399800275331,0.0651143466802,0.27755196571,67,1.0,-0.12380466598,-1.0,nan,nan,nan,nan,nan,nan,nan,nan,339.279673177,712.322669117,nan,712.567085008,nan,nan,nan,nan
1,324,1,1,1.0,1.0,0.254636591999,0,0.0,0.0,0.0,0.334406454848,0.0652066069585,0.26919984789,0.399613061807,0.0652066069585,0.273762941128,498,0.731507943485,0.267561876527,-1.0,nan,nan,nan,nan,nan,nan,nan,nan,339.279673177,713.264408267,nan,713.519044859,nan,nan,nan,nan
1,325,1,1,1.0,1.0,0.224842890515,0,1.0,0.0,0.0,0.334160251568,0.065256091086,0.268904160482,0.399416342654,0.065256091086,0.241298457685,149,1.0,-0.269478519393,0.0541436597792,nan,nan,nan,nan,nan,nan,nan,nan,339.279673177,714.206188186,nan,714.431031076,nan,nan,nan,nan
1,326,1,1,1.0,1.0,0.275042928406,1,0.0,0.0,1.0,0.333823890457,0.0654363183241,0.268387572133,0.399260208781,0.0654363183241,0.251507470307,283,0.19826868328,0.351050922538,0.605825948857,-117.92603397,207.92603397,8.94165897005,296.0,0.0772713571413,0.386205321608,0.550001308524,1.42556464032,339.279673177,715.147972381,715.956382835,715.423015309,718.415010091,719.425780458,716.973152198,718.406679008
1,327,1,1,1.0,1.0,0.33770595002,0,0.0,0.0,0.0,0.333643580758,0.0654166899437,0.268226890814,0.399060270701,0.0654166899437,0.279197256314,182,1.0,-0.118523835432,0.347089474713,nan,nan,nan,nan,nan,nan,nan,nan,339.279673177,719.565210499,nan,719.902916449,nan,nan,nan,nan
1,328,1,1,1.0,1.0,0.24388390081,0,0.0,0.0,0.0,0.333656003905,0.0653169729813,0.268339030924,0.398972976887,0.0653169729813,0.285544259745,34,1.0,0.0514419701458,-1.0,nan,nan,nan,nan,nan,nan,nan,nan,339.279673177,720.507003533,nan,720.750887434,nan,nan,nan,nan
1,329,1,1,1.0,1.0,0.230065854383,0,0.0,0.0,0.0,0.333382308469,0.0654048563316,0.267977452137,0.398787164801,0.0654048563316,0.270551901738,189,1.0,-0.0802194643608,0.400143472992,nan,nan,nan,nan,nan,nan,nan,nan,339.279673177,721.44877889,nan,721.678844744,nan,nan,nan,nan
1,330,0,0,1.0,0.0,0.256303835078,0,0.0,0.0,0.0,0.333068276694,0.0655525655347,0.267515711159,0.398620842228,0.0655525655347,0.243417863424,351,-0.175686286722,0.4701852659,0.128489978773,nan,nan,nan,nan,nan,nan,nan,nan,339.279673177,722.390547405,nan,722.64685124,nan,nan,nan,nan
1,331,1,1,1.0,1.0,0.202476802515,0,0.0,0.0,0.0,0.332835657174,0.0655890235561,0.267246633617,0.39842468073,0.0655890235561,0.229615497325,507,0.805995650865,0.232688349973,-1.0,nan,nan,nan,nan,nan,nan,nan,nan,339.279673177,723.33234728,nan,723.534824083,nan,nan,nan,nan
1,332,1,1,1.0,1.0,0.172662288882,0,0.0,0.0,0.0,0.332441823776,0.0658794948353,0.26656232894,0.398321318611,0.0658794948353,0.210480975492,449,0.328095008353,0.407646248688,-1.0,nan,nan,nan,nan,nan,nan,nan,nan,339.279673177,724.274120642,nan,724.446782931,nan,nan,nan,nan
1,333,1,1,1.0,1.0,0.198862351826,0,1.0,0.0,0.0,0.331960560116,0.0663603774456,0.265600182671,0.398320937562,0.0663603774456,0.191333814408,88,1.0,-0.225257592204,-0.599932847766,nan,nan,nan,nan,nan,nan,nan,nan,339.279673177,725.215896284,nan,725.414758636,nan,nan,nan,nan
1,334,0,0,1.0,0.0,0.249063530006,0,0.0,0.0,0.0,0.331560865797,0.0666596895696,0.264901176228,0.398220555367,0.0666596895696,0.206862723571,166,1.0,-0.20036215083,0.21267421211,nan,nan,nan,nan,nan,nan,nan,nan,339.279673177,726.15768105,nan,726.40674458,nan,nan,nan,nan
1,335,1,1,1.0,1.0,0.267278331215,0,0.0,0.0,0.0,0.331313867786,0.0667122623556,0.26460160543,0.398026130142,0.0667122623556,0.238401404349,508,0.814199817736,0.228638933499,-1.0,nan,nan,nan,nan,nan,nan,nan,nan,339.279673177,727.099460398,nan,727.36673873,nan,nan,nan,nan
1,336,1,1,1.0,1.0,0.277496752096,0,0.0,0.0,0.0,0.33112271693,0.0667041580823,0.264418558848,0.397826875013,0.0667041580823,0.264612871106,148,1.0,-0.272695592461,0.0444264621409,nan,nan,nan,nan,nan,nan,nan,nan,339.279673177,728.041222641,nan,728.318719393,nan,nan,nan,nan
1,337,1,1,1.0,1.0,0.311688633752,0,0.0,0.0,0.0,0.330963115845,0.0666688502992,0.264294265545,0.397631966144,0.0666688502992,0.285487905688,470,0.497741612616,0.357740777197,-1.0,nan,nan,nan,nan,nan,nan,nan,nan,339.279673177,728.98300313,nan,729.294691764,nan,nan,nan,nan
1,338,0,0,1.0,0.0,0.26587850845,0,0.0,0.0,0.0,0.330905921536,0.0665781164745,0.264327805061,0.39748403801,0.0665781164745,0.285021298099,84,1.0,-0.20765784414,-0.652191087791,nan,nan,nan,nan,nan,nan,nan,nan,339.279673177,729.924786185,nan,730.190664693,nan,nan,nan,nan
1,339,1,1,1.0,1.0,0.324089466711,0,0.0,0.0,0.0,0.33071353274,0.06657330388,0.26414022886,0.39728683662,0.06657330388,0.300552202971,486,0.631151757674,0.309603058574,-1.0,nan,nan,nan,nan,nan,nan,nan,nan,339.279673177,730.866590622,nan,731.190680089,nan,nan,nan,nan
1,340,1,1,1.0,1.0,0.28627486655,0,0.0,0.0,0.0,0.330693992722,0.0664760113244,0.264217981397,0.397170004046,0.0664760113244,0.292080947237,85,1.0,-0.212156452387,-0.638781227021,nan,nan,nan,nan,nan,nan,nan,nan,339.279673177,731.808352865,nan,732.094627731,nan,nan,nan,nan
1,341,1,1,1.0,1.0,0.272456249804,0,0.0,0.0,0.0,0.330563348233,0.0664217501435,0.26414159809,0.396985098377,0.0664217501435,0.294273527688,492,0.681403316433,0.289222019555,-1.0,nan,nan,nan,nan,nan,nan,nan,nan,339.279673177,732.750160723,nan,733.022616973,nan,nan,nan,nan
1,342,1,1,1.0,1.0,0.338605428813,0,0.0,0.0,0.0,0.330392946185,0.0663986705481,0.263994275637,0.396791616733,0.0663986705481,0.299112181722,222,0.841778467246,0.0997291618919,0.589484691865,nan,nan,nan,nan,nan,nan,nan,nan,339.279673177,733.691960313,nan,734.030565742,nan,nan,nan,nan
1,343,1,1,1.0,1.0,0.308841947466,0,0.0,0.0,0.0,0.330416959292,0.0663030082385,0.264113951054,0.396719967531,0.0663030082385,0.306634542028,443,0.281558783006,0.419268214519,-1.0,nan,nan,nan,nan,nan,nan,nan,nan,339.279673177,734.633720276,nan,734.942562223,nan,nan,nan,nan
1,344,1,1,1.0,1.0,0.311027780641,0,0.0,0.0,0.0,0.330354058383,0.0662165043406,0.264137554042,0.396570562724,0.0662165043406,0.319491718973,386,-0.0833946583454,0.477495592553,-0.245424736514,nan,nan,nan,nan,nan,nan,nan,nan,339.279673177,735.575508462,nan,735.886536243,nan,nan,nan,nan
1,345,1,1,1.0,1.0,0.33722812857,0,0.0,0.0,0.0,0.330297877343,0.0661283755808,0.264169501762,0.396426252924,0.0661283755808,0.319032618892,205,1.0,0.00854800403903,0.505535240796,nan,nan,nan,nan,nan,nan,nan,nan,339.279673177,736.517293228,nan,736.854521356,nan,nan,nan,nan
1,346,1,1,1.0,1.0,0.299417234724,0,0.0,0.0,0.0,0.330317965028,0.0660335188658,0.264284446162,0.396351483894,0.0660335188658,0.315891047978,268,0.35230222188,0.302367520405,0.645005310408,nan,nan,nan,nan,nan,nan,nan,nan,339.279673177,737.459075142,nan,737.758492377,nan,nan,nan,nan
1,347,1,1,1.0,1.0,0.293584735016,0,0.0,0.0,0.0,0.330228656559,0.065958888321,0.264269768238,0.39618754488,0.065958888321,0.310076699437,101,1.0,-0.273572672894,-0.446152610616,nan,nan,nan,nan,nan,nan,nan,nan,339.279673177,738.400879864,nan,738.694464599,nan,nan,nan,nan
1,348,1,1,1.0,1.0,0.271848994773,0,0.0,0.0,0.0,0.330123054479,0.0658930633003,0.264229991179,0.39601611778,0.0658930633003,0.288283654838,264,0.394966959701,0.287889713878,0.650717615019,nan,nan,nan,nan,nan,nan,nan,nan,339.279673177,739.342640967,nan,739.614489961,nan,nan,nan,nan
1,349,0,0,0.0,1.0,0.401993450127,0,0.0,0.0,0.0,0.329955600285,0.0658722192876,0.264083380997,0.395827819572,0.0658722192876,0.322475726639,60,1.0,-0.0867837676833,-1.0,nan,nan,nan,nan,nan,nan,nan,nan,339.279673177,740.284425447,nan,740.686418897,nan,nan,nan,nan
1,350,1,1,1.0,1.0,0.356126875849,0,0.0,0.0,0.0,0.330162012462,0.0658903867407,0.264271625721,0.396052399203,0.0658903867407,0.343323106916,184,1.0,-0.107671891867,0.362640045218,nan,nan,nan,nan,nan,nan,nan,nan,339.279673177,741.226268087,nan,741.582394963,nan,nan,nan,nan
1,351,1,1,1.0,1.0,0.358417624375,0,0.0,0.0,0.0,0.330236197786,0.0658107845601,0.264425413226,0.396046982346,0.0658107845601,0.372179316784,236,0.697004556276,0.169301754335,0.634065852989,nan,nan,nan,nan,nan,nan,nan,nan,339.279673177,742.167961336,nan,742.526378961,nan,nan,nan,nan
1,352,1,1,1.0,1.0,0.296616448904,0,0.0,0.0,0.0,0.330316486751,0.0657341340188,0.264582352732,0.396050620769,0.0657341340188,0.33705364971,136,1.0,-0.301914900238,-0.074841205769,nan,nan,nan,nan,nan,nan,nan,nan,339.279673177,743.109741255,nan,743.406357704,nan,nan,nan,nan
1,353,1,1,1.0,1.0,0.41882097302,0,0.0,0.0,0.0,0.330220748007,0.0656651970797,0.264555550927,0.395885945086,0.0656651970797,0.3579516821,301,0.0351599448551,0.39804275895,0.523414514543,nan,nan,nan,nan,nan,nan,nan,nan,339.279673177,744.051525165,nan,744.470346138,nan,nan,nan,nan
1,354,1,1,1.0,1.0,0.26101904246,0,0.0,0.0,0.0,0.330471740145,0.0657409918162,0.264730748329,0.396212731962,0.0657409918162,0.325485488128,424,0.142174562463,0.448819569244,-0.770229420881,nan,nan,nan,nan,nan,nan,nan,nan,339.279673177,744.993309075,nan,745.254328118,nan,nan,nan,nan
1,355,1,1,1.0,1.0,0.287150111981,0,0.0,0.0,0.0,0.330275546084,0.0657514792592,0.264524066825,0.396027025343,0.0657514792592,0.322330042487,59,1.0,-0.0814409933332,-1.0,nan,nan,nan,nan,nan,nan,nan,nan,339.279673177,745.93512007,nan,746.222270182,nan,nan,nan,nan
1,356,1,1,1.0,1.0,0.281370070064,0,0.0,0.0,0.0,0.330154065988,0.065698576548,0.26445548944,0.395852642536,0.065698576548,0.276513074835,187,1.0,-0.0912463489427,0.385383214542,nan,nan,nan,nan,nan,nan,nan,nan,339.279673177,746.876891151,nan,747.158261221,nan,nan,nan,nan
1,357,1,1,1.0,1.0,0.203609204735,0,1.0,0.0,0.0,0.330017032292,0.0656570238966,0.264360008395,0.395674056188,0.0656570238966,0.25737646226,251,0.535576518695,0.236509187076,0.655284151108,nan,nan,nan,nan,nan,nan,nan,nan,339.279673177,747.818648832,nan,748.022258037,nan,nan,nan,nan
1,358,1,1,1.0,1.0,0.245777225122,1,0.0,0.0,1.0,0.329662948741,0.065904500216,0.263758448525,0.395567448957,0.065904500216,0.243585499974,76,1.0,-0.169674511773,-0.773365826749,60.5347786152,29.4652213848,-23.9722786152,42.0,1.0,0.00954878589686,-1.0,0.867098378483,339.279673177,748.760464673,749.568851179,749.006241898,751.477411964,752.481433818,750.593972152,751.469098842
1,359,1,1,1.0,1.0,0.354853635887,0,0.0,0.0,0.0,0.329428631077,0.065961138102,0.263467492975,0.395389769179,0.065961138102,0.268080021914,318,-0.0835627602325,0.431640264478,0.413481556053,nan,nan,nan,nan,nan,nan,nan,nan,339.279673177,752.61928414,nan,752.974137776,nan,nan,nan,nan
1,360,0,0,1.0,0.0,0.261063517421,0,0.0,0.0,0.0,0.329499452818,0.0658828349966,0.263616617821,0.395382287814,0.0658828349966,0.287231459476,411,0.0555201669072,0.463022710015,-0.557054760163,nan,nan,nan,nan,nan,nan,nan,nan,339.279673177,753.56105294,nan,753.822116458,nan,nan,nan,nan
1,361,1,1,1.0,1.0,0.231256701518,0,0.0,0.0,0.0,0.329309352997,0.0658897897299,0.263419563267,0.395199142727,0.0658897897299,0.282391284942,5,0.88714030954,0.190659852496,-1.0,nan,nan,nan,nan,nan,nan,nan,nan,339.279673177,754.502835425,nan,754.734092127,nan,nan,nan,nan
1,362,1,1,1.0,1.0,0.241484530503,0,0.0,0.0,0.0,0.329037739004,0.0659999762995,0.263037762705,0.395037715304,0.0659999762995,0.244601583147,382,-0.1011887567,0.478291136399,-0.199732273247,nan,nan,nan,nan,nan,nan,nan,nan,339.279673177,755.444592536,nan,755.686077067,nan,nan,nan,nan
1,363,1,1,1.0,1.0,0.251685275463,0,1.0,0.0,0.0,0.328795879312,0.0660687583275,0.262727120985,0.39486463764,0.0660687583275,0.241475502495,330,-0.139766326074,0.449518327743,0.319540245599,nan,nan,nan,nan,nan,nan,nan,nan,339.279673177,756.386365328,nan,756.638050603,nan,nan,nan,nan
1,364,1,1,1.0,1.0,0.245885276701,1,0.0,0.0,1.0,0.328583453406,0.066101368942,0.262482084464,0.394684822348,0.066101368942,0.246351694223,78,1.0,-0.179467652321,-0.739907630878,49.5739212599,40.4260787401,-14.4176712599,57.0,1.0,-0.0707313323512,-1.0,1.18377420155,339.279673177,757.328152374,758.136563683,757.57403765,760.361909769,761.373242631,759.161670117,760.353577545
1,365,1,1,1.0,1.0,0.477902900195,0,0.0,0.0,0.0,0.328356260613,0.0661522786291,0.262203981984,0.394508539242,0.0661522786291,0.325157817453,286,0.169078956243,0.359734776014,0.594698705761,nan,nan,nan,nan,nan,nan,nan,nan,339.279673177,761.512031776,nan,761.989934676,nan,nan,nan,nan
1,366,0,0,0.0,1.0,0.472084370209,0,0.0,0.0,0.0,0.328765977434,0.0665224660769,0.262243511357,0.395288443511,0.0665224660769,0.398624182368,198,1.0,-0.0302354974571,0.462326941081,nan,nan,nan,nan,nan,nan,nan,nan,339.279673177,762.453833077,nan,762.925917447,nan,nan,nan,nan
1,367,1,1,1.0,1.0,0.314313230221,0,0.0,0.0,0.0,0.329157557742,0.066851439795,0.262306117947,0.396008997537,0.066851439795,0.421433500208,312,-0.0464483572634,0.420925197877,0.455573212045,nan,nan,nan,nan,nan,nan,nan,nan,339.279673177,763.39558078,nan,763.70989401,nan,nan,nan,nan
1,368,1,1,1.0,1.0,0.292497092742,0,0.0,0.0,0.0,0.329117109983,0.0667647838411,0.262352326142,0.395881893824,0.0667647838411,0.359631564391,134,1.0,-0.304950998219,-0.095144111098,nan,nan,nan,nan,nan,nan,nan,nan,339.279673177,764.337375809,nan,764.629872901,nan,nan,nan,nan
1,369,1,1,1.0,1.0,0.302697552484,0,0.0,0.0,0.0,0.329017599067,0.0667012569585,0.262316342108,0.395718856025,0.0667012569585,0.303169291816,376,-0.124962824795,0.478704673615,-0.132627625282,nan,nan,nan,nan,nan,nan,nan,nan,339.279673177,765.279161144,nan,765.581858697,nan,nan,nan,nan
1,370,1,1,1.0,1.0,0.360899672611,0,0.0,0.0,0.0,0.328946271027,0.0666248668486,0.262321404179,0.395571137876,0.0666248668486,0.318698105946,327,-0.128086156831,0.445480682368,0.344176439252,nan,nan,nan,nan,nan,nan,nan,nan,339.279673177,766.220941063,nan,766.581840736,nan,nan,nan,nan
1,371,1,1,1.0,1.0,0.331107111531,0,0.0,0.0,0.0,0.329032631572,0.0665554504446,0.262477181127,0.395588082017,0.0665554504446,0.331568112209,225,0.81146624694,0.115131125244,0.600981946568,nan,nan,nan,nan,nan,nan,nan,nan,339.279673177,767.162697319,nan,767.49380443,nan,nan,nan,nan
