block,trial,time,setsize,freqtrials,colorind,colordeg,colorrgb,correctresp,actualresp,acc,rts,probe_trials,fast_rt_trigger,slow_rt_trigger,rt_trailingavg,rt_runningavg,rt_runningstd,rt_runningslowthresh,rt_runningfastthresh,wm_mousepos,wm_respdeg,wm_colorind,wm_colorrgb,wm_colorhsv,wm_degdiff,wm_rts,timeBlockStart,timeEncArrayOnset,timeResponse,timeProbeOnset,timeProbeOffset
0,0,17:11:51:039000,6,1,368,258.75,[-0.15045717  0.47779326 -0.04573418],1,1,1,0.385897199,0,nan,nan,nan,nan,nan,nan,nan,nan,nan,nan,[ nan  nan  nan],nan,nan,nan,339.2796732,340.3017944,340.6876916,nan,nan
0,1,17:11:51:975000,6,1,413,290.390625,[ 0.06831062  0.46114313 -0.5854956 ],1,1,1,0.348097994,0,nan,nan,nan,nan,nan,nan,nan,nan,nan,nan,[ nan  nan  nan],nan,nan,nan,339.2796732,341.2435694,341.5916674,nan,nan
0,2,17:11:52:927000,6,1,338,237.65625,[-0.16289136  0.45892871  0.25039916],1,1,1,0.294270962,0,nan,nan,nan,nan,nan,nan,nan,nan,nan,nan,[ nan  nan  nan],nan,nan,nan,339.2796732,342.1853676,342.4796386,nan,nan
0,3,17:11:53:863000,6,1,66,46.40625,[ 1.         -0.11856871 -1.        ],1,1,1,0.272481908,0,nan,nan,nan,nan,nan,nan,nan,nan,nan,nan,[ nan  nan  nan],nan,nan,nan,339.2796732,343.1271395,343.3996214,nan,nan
0,4,17:11:54:799000,6,1,300,210.9375,[ 0.04335371  0.39574842  0.52895103],1,1,1,0.250681737,0,nan,nan,nan,nan,nan,nan,nan,nan,nan,nan,[ nan  nan  nan],nan,nan,nan,339.2796732,344.0689266,344.3196083,nan,nan
0,5,17:11:55:750000,6,1,71,49.921875,[ 1.         -0.14450407 -0.87798077],1,1,1,0.308904098,0,nan,nan,nan,nan,nan,nan,nan,nan,nan,nan,[ nan  nan  nan],nan,nan,nan,339.2796732,345.0106828,345.3195869,nan,nan
0,6,17:11:56:686000,6,1,485,341.015625,[ 0.62277456  0.31287562 -1.        ],1,1,1,0.335066529,0,nan,nan,nan,nan,nan,nan,nan,nan,nan,nan,[ nan  nan  nan],nan,nan,nan,339.2796732,345.9524904,346.2875569,nan,nan
0,7,17:12:00:649000,6,1,434,305.15625,[ 0.21388182  0.43461034 -1.        ],1,1,1,0.321262452,1,nan,nan,nan,nan,nan,nan,nan,nan,-167.7229019,367,[-0.15309091  0.4775609  -0.03508163],nan,-47.43334805,0.967083924,339.2796732,346.894274,347.2155365,348.7194219,349.6945382
0,8,17:12:01:585000,6,1,29,20.390625,[ 1.          0.07701739 -1.        ],1,1,1,0.322335554,0,nan,nan,nan,nan,nan,nan,nan,nan,nan,nan,[ nan  nan  nan],nan,nan,nan,339.2796732,350.8530916,351.1754272,nan,nan
0,9,17:12:02:536000,6,1,82,57.65625,[ 1.         -0.19847916 -0.67987248],1,1,1,0.276548807,0,nan,nan,nan,nan,nan,nan,nan,nan,nan,nan,[ nan  nan  nan],nan,nan,nan,339.2796732,351.7948681,352.0714169,nan,nan
0,10,17:12:03:472000,6,1,448,315,[ 0.32026744  0.40966225 -1.        ],1,1,1,0.342730487,0,nan,nan,nan,nan,nan,nan,nan,nan,nan,nan,[ nan  nan  nan],nan,nan,nan,339.2796732,352.7366489,353.0793794,nan,nan
0,11,17:12:04:408000,6,1,306,215.15625,[-0.00395437  0.40897401  0.49412883],1,1,1,0.336920225,0,nan,nan,nan,nan,nan,nan,nan,nan,nan,nan,[ nan  nan  nan],nan,nan,nan,339.2796732,353.6784334,354.0153536,nan,nan
0,12,17:12:05:360000,6,1,394,277.03125,[-0.04370902  0.47465593 -0.33940142],1,1,1,0.315116631,0,nan,nan,nan,nan,nan,nan,nan,nan,nan,nan,[ nan  nan  nan],nan,nan,nan,339.2796732,354.6202178,354.9353345,nan,nan
0,13,17:12:06:296000,6,0,24,16.875,[ 1.          0.10201906 -1.        ],0,0,1,0.373311909,0,nan,nan,nan,nan,nan,nan,nan,nan,nan,nan,[ nan  nan  nan],nan,nan,nan,339.2796732,355.5619983,355.9353102,nan,nan
0,14,17:12:07:232000,6,1,305,214.453125,[ 0.00361193  0.40685925  0.50019691],1,1,1,0.255513833,0,nan,nan,nan,nan,nan,nan,nan,nan,nan,nan,[ nan  nan  nan],nan,nan,nan,339.2796732,356.5037785,356.7592924,nan,nan
0,15,17:12:08:183000,6,1,163,114.609375,[ 1.         -0.2142478   0.18572368],1,1,1,0.265684643,0,nan,nan,nan,nan,nan,nan,nan,nan,nan,nan,[ nan  nan  nan],nan,nan,nan,339.2796732,357.4455887,357.7112733,nan,nan
0,16,17:12:09:119000,6,0,197,138.515625,[ 1.         -0.0357976   0.45577474],0,0,1,0.371899828,0,nan,nan,nan,nan,nan,nan,nan,nan,nan,nan,[ nan  nan  nan],nan,nan,nan,339.2796732,358.3873461,358.7592459,nan,nan
0,17,17:12:10:071000,6,1,117,82.265625,[ 1.         -0.30758797 -0.27188654],1,1,1,0.262158857,0,nan,nan,nan,nan,nan,nan,nan,nan,nan,nan,[ nan  nan  nan],nan,nan,nan,339.2796732,359.3291271,359.591286,nan,nan
0,18,17:12:11:007000,6,1,385,270.703125,[-0.08797966  0.47773344 -0.23392672],1,1,1,0.312305867,0,nan,nan,nan,nan,nan,nan,nan,nan,nan,nan,[ nan  nan  nan],nan,nan,nan,339.2796732,360.2708942,360.5832001,nan,nan
0,19,17:12:11:943000,6,1,230,161.71875,[ 0.76002313  0.14022421  0.6178111 ],1,1,1,0.290543613,0,nan,nan,nan,nan,nan,nan,nan,nan,nan,nan,[ nan  nan  nan],nan,nan,nan,339.2796732,361.2126716,361.5032152,nan,nan
0,20,17:12:12:895000,6,1,151,106.171875,[ 1.         -0.26272029  0.07346267],1,1,1,0.26877138,0,nan,nan,nan,nan,nan,nan,nan,nan,nan,nan,[ nan  nan  nan],nan,nan,nan,339.2796732,362.1544429,362.4232143,nan,nan
0,21,17:12:13:831000,6,0,328,230.625,[-0.13215956  0.44685797  0.33604616],0,1,0,0.294882493,0,0,0,nan,nan,nan,nan,nan,nan,nan,nan,[ nan  nan  nan],nan,nan,nan,339.2796732,363.0962776,363.3911601,nan,nan
0,22,17:12:14:767000,6,1,240,168.75,[ 0.65437302  0.18801506  0.64246395],1,1,1,0.273089734,0,nan,nan,nan,nan,nan,nan,nan,nan,nan,nan,[ nan  nan  nan],nan,nan,nan,339.2796732,364.0380512,364.311141,nan,nan
0,23,17:12:15:718000,6,1,75,52.734375,[ 1.         -0.16471446 -0.79135592],1,1,1,0.595266204,0,nan,nan,nan,nan,nan,nan,nan,nan,nan,nan,[ nan  nan  nan],nan,nan,nan,339.2796732,364.979842,365.5751082,nan,nan
0,24,17:12:16:654000,6,1,377,265.078125,[-0.12125986  0.47870083 -0.1436959 ],1,1,1,0.429480723,0,nan,nan,nan,nan,nan,nan,nan,nan,nan,nan,[ nan  nan  nan],nan,nan,nan,339.2796732,365.9216199,366.3511006,nan,nan
0,25,17:12:17:590000,6,1,63,44.296875,[ 1.         -0.10274464 -1.        ],1,1,1,0.375675643,0,nan,nan,nan,nan,nan,nan,nan,nan,nan,nan,[ nan  nan  nan],nan,nan,nan,339.2796732,366.8634027,367.2390783,nan,nan
0,26,17:12:18:542000,6,1,296,208.125,[ 0.07727136  0.38620532  0.55000131],1,1,1,0.441873858,0,nan,nan,nan,nan,nan,nan,nan,nan,nan,nan,[ nan  nan  nan],nan,nan,nan,339.2796732,367.8051846,368.2470584,nan,nan
0,27,17:12:19:478000,6,1,223,156.796875,[ 0.83172397  0.10489059  0.59343224],1,1,1,0.420054014,0,nan,nan,nan,nan,nan,nan,nan,nan,nan,nan,[ nan  nan  nan],nan,nan,nan,339.2796732,368.7469702,369.1670242,nan,nan
0,28,17:12:20:429000,6,1,328,230.625,[-0.13215956  0.44685797  0.33604616],1,1,1,0.334263697,0,nan,nan,nan,nan,nan,nan,nan,nan,nan,nan,[ nan  nan  nan],nan,nan,nan,339.2796732,369.6887521,370.0230158,nan,nan
0,29,17:12:21:365000,6,1,0,0,[ 0.84683171  0.21209757 -1.        ],1,1,1,0.376437135,0,nan,nan,nan,nan,nan,nan,nan,nan,nan,nan,[ nan  nan  nan],nan,nan,nan,339.2796732,370.630534,371.0069712,nan,nan
0,30,17:12:22:301000,6,0,32,22.5,[ 1.         0.0617358 -1.       ],0,0,1,0.378667443,0,nan,nan,nan,nan,nan,nan,nan,nan,nan,nan,[ nan  nan  nan],nan,nan,nan,339.2796732,371.5722937,371.9509612,nan,nan
0,31,17:12:26:279000,6,1,507,356.484375,[ 0.80599565  0.23268835 -1.        ],1,1,1,0.260873643,1,nan,nan,nan,nan,nan,nan,nan,nan,139.5905432,441,[ 0.26628726  0.42289189 -1.        ],nan,-46.07491819,0.975432683,339.2796732,372.5140719,372.7749456,374.3475894,375.3310609
0,32,17:12:27:215000,6,1,409,287.578125,[ 0.04294362  0.46479315 -0.52946185],1,1,1,0.549593781,0,nan,nan,nan,nan,nan,nan,nan,nan,nan,nan,[ nan  nan  nan],nan,nan,nan,339.2796732,376.4812591,377.0308528,nan,nan
0,33,17:12:28:151000,6,1,288,202.5,[ 0.15000513  0.36533195  0.58668724],1,1,1,0.423784499,0,nan,nan,nan,nan,nan,nan,nan,nan,nan,nan,[ nan  nan  nan],nan,nan,nan,339.2796732,377.423041,377.8468255,nan,nan
0,34,17:12:29:103000,6,1,162,113.90625,[ 1.         -0.21873956  0.17663297],1,1,1,0.377972663,0,nan,nan,nan,nan,nan,nan,nan,nan,nan,nan,[ nan  nan  nan],nan,nan,nan,339.2796732,378.3648263,378.742799,nan,nan
0,35,17:12:30:039000,6,1,390,274.21875,[-0.06419603  0.4762842  -0.29194755],1,1,1,0.308216446,0,nan,nan,nan,nan,nan,nan,nan,nan,nan,nan,[ nan  nan  nan],nan,nan,nan,339.2796732,379.3065797,379.6147962,nan,nan
0,36,17:12:30:991000,6,1,451,317.109375,[ 0.34383096  0.40351836 -1.        ],1,1,1,0.286405726,0,nan,nan,nan,nan,nan,nan,nan,nan,nan,nan,[ nan  nan  nan],nan,nan,nan,339.2796732,380.248363,380.5347688,nan,nan
0,37,17:12:31:927000,6,1,208,146.25,[ 0.97651258  0.02502074  0.52257448],1,1,1,0.32057708,0,nan,nan,nan,nan,nan,nan,nan,nan,nan,nan,[ nan  nan  nan],nan,nan,nan,339.2796732,381.1901472,381.5107243,nan,nan
0,38,17:12:32:863000,6,1,499,350.859375,[ 0.73983189  0.26382776 -1.        ],1,1,1,0.290758861,0,nan,nan,nan,nan,nan,nan,nan,nan,nan,nan,[ nan  nan  nan],nan,nan,nan,339.2796732,382.1319574,382.4227162,nan,nan
0,39,17:12:33:814000,6,1,419,294.609375,[ 0.10789467  0.45484197 -0.67809886],1,1,1,0.316947805,0,nan,nan,nan,nan,nan,nan,nan,nan,nan,nan,[ nan  nan  nan],nan,nan,nan,339.2796732,383.0737746,383.3907225,nan,nan
0,40,17:12:34:750000,6,1,14,9.84375,[ 0.95801505  0.15002356 -1.        ],1,1,1,0.311134122,0,nan,nan,nan,nan,nan,nan,nan,nan,nan,nan,[ nan  nan  nan],nan,nan,nan,339.2796732,384.0155169,384.3266511,nan,nan
0,41,17:12:35:686000,6,1,180,126.5625,[ 1.         -0.12927862  0.33123896],1,1,1,0.377365123,0,nan,nan,nan,nan,nan,nan,nan,nan,nan,nan,[ nan  nan  nan],nan,nan,nan,339.2796732,384.9573006,385.3346657,nan,nan
0,42,17:12:36:638000,6,1,303,213.046875,[ 0.01913493  0.40252284  0.51201836],1,1,1,0.339535128,0,nan,nan,nan,nan,nan,nan,nan,nan,nan,nan,[ nan  nan  nan],nan,nan,nan,339.2796732,385.8990942,386.2386293,nan,nan
0,43,17:12:37:574000,6,1,421,296.015625,[ 0.12147167  0.45251804 -0.71261034],1,1,1,0.413729438,0,nan,nan,nan,nan,nan,nan,nan,nan,nan,nan,[ nan  nan  nan],nan,nan,nan,339.2796732,386.8408707,387.2546001,nan,nan
0,44,17:12:38:510000,6,0,239,168.046875,[ 0.66506983  0.18338886  0.64054927],0,1,0,0.399927358,0,0,0,nan,nan,nan,nan,nan,nan,nan,nan,[ nan  nan  nan],nan,nan,nan,339.2796732,387.7826623,388.1825896,nan,nan
0,45,17:12:39:461000,6,1,485,341.015625,[ 0.62277456  0.31287562 -1.        ],1,1,1,0.30611158,0,nan,nan,nan,nan,nan,nan,nan,nan,nan,nan,[ nan  nan  nan],nan,nan,nan,339.2796732,388.7244382,389.0305498,nan,nan
0,46,17:12:40:397000,6,1,226,158.90625,[ 0.80126593  0.12020899  0.60458277],1,1,1,0.332315064,0,nan,nan,nan,nan,nan,nan,nan,nan,nan,nan,[ nan  nan  nan],nan,nan,nan,339.2796732,389.6662275,389.9985426,nan,nan
0,47,17:12:41:349000,6,1,317,222.890625,[-0.07777284  0.42993861  0.42073361],1,1,1,0.502434865,0,nan,nan,nan,nan,nan,nan,nan,nan,nan,nan,[ nan  nan  nan],nan,nan,nan,339.2796732,390.6080913,391.1105261,nan,nan
0,48,17:12:42:285000,6,1,454,319.21875,[ 0.36762736  0.39708484 -1.        ],1,1,1,0.304716604,0,nan,nan,nan,nan,nan,nan,nan,nan,nan,nan,[ nan  nan  nan],nan,nan,nan,339.2796732,391.5497902,391.8545068,nan,nan
0,49,17:12:43:221000,6,1,352,247.5,[-0.17544713  0.4708516   0.11867359],1,1,1,0.330906119,0,nan,nan,nan,nan,nan,nan,nan,nan,nan,nan,[ nan  nan  nan],nan,nan,nan,339.2796732,392.4915693,392.8224754,nan,nan
0,50,17:12:44:173000,6,1,150,105.46875,[ 1.         -0.26615253  0.06382271],1,1,1,0.357109033,0,nan,nan,nan,nan,nan,nan,nan,nan,nan,nan,[ nan  nan  nan],nan,nan,nan,339.2796732,393.4333552,393.7904642,nan,nan
0,51,17:12:45:109000,6,1,260,182.8125,[ 0.43801664  0.27278198  0.65440657],1,1,1,0.351300196,0,nan,nan,nan,nan,nan,nan,nan,nan,nan,nan,[ nan  nan  nan],nan,nan,nan,339.2796732,394.3751388,394.726439,nan,nan
0,52,17:12:46:045000,6,1,493,346.640625,[ 0.68976908  0.28570078 -1.        ],1,1,1,0.353524802,0,nan,nan,nan,nan,nan,nan,nan,nan,nan,nan,[ nan  nan  nan],nan,nan,nan,339.2796732,395.3168945,395.6704193,nan,nan
0,53,17:12:46:996000,6,1,34,23.90625,[ 1.          0.05144197 -1.        ],1,1,1,0.331687853,0,nan,nan,nan,nan,nan,nan,nan,nan,nan,nan,[ nan  nan  nan],nan,nan,nan,339.2796732,396.2587046,396.5903925,nan,nan
0,54,17:12:47:932000,6,1,335,235.546875,[-0.15559599  0.45562772  0.27689323],1,1,1,0.365908814,0,nan,nan,nan,nan,nan,nan,nan,nan,nan,nan,[ nan  nan  nan],nan,nan,nan,339.2796732,397.200462,397.5663708,nan,nan
0,55,17:12:48:884000,6,1,92,64.6875,[ 1.         -0.24170366 -0.55060884],1,1,1,0.360019295,0,nan,nan,nan,nan,nan,nan,nan,nan,nan,nan,[ nan  nan  nan],nan,nan,nan,339.2796732,398.1423335,398.5023528,nan,nan
0,56,17:12:49:820000,6,0,428,300.9375,[ 0.17037832  0.44348657 -0.8686614 ],0,0,1,0.418296681,0,nan,nan,nan,nan,nan,nan,nan,nan,nan,nan,[ nan  nan  nan],nan,nan,nan,339.2796732,399.0840284,399.5023251,nan,nan
0,57,17:12:50:756000,6,1,81,56.953125,[ 1.         -0.19380425 -0.69421917],1,1,1,0.324499435,0,nan,nan,nan,nan,nan,nan,nan,nan,nan,nan,[ nan  nan  nan],nan,nan,nan,339.2796732,400.0258103,400.3503098,nan,nan
0,58,17:12:51:707000,6,1,35,24.609375,[ 1.          0.04626536 -1.        ],1,1,1,0.326658469,0,nan,nan,nan,nan,nan,nan,nan,nan,nan,nan,[ nan  nan  nan],nan,nan,nan,339.2796732,400.9676059,401.2942644,nan,nan
0,59,17:12:52:643000,6,1,356,250.3125,[-0.17284378  0.47323941  0.07883681],1,1,1,0.328855421,0,nan,nan,nan,nan,nan,nan,nan,nan,nan,nan,[ nan  nan  nan],nan,nan,nan,339.2796732,401.9093958,402.2382513,nan,nan
0,60,17:12:53:579000,6,1,154,108.28125,[ 1.         -0.25181315  0.10213817],1,0,0,0.379050042,0,0,0,nan,nan,nan,nan,nan,nan,nan,nan,[ nan  nan  nan],nan,nan,nan,339.2796732,402.85118,403.2302301,nan,nan
0,61,17:12:54:531000,6,1,237,166.640625,[ 0.6863873   0.17403185  0.63634982],1,1,1,0.389228264,0,nan,nan,nan,nan,nan,nan,nan,nan,nan,nan,[ nan  nan  nan],nan,nan,nan,339.2796732,403.7929625,404.1821908,nan,nan
0,62,17:12:55:467000,6,1,330,232.03125,[-0.13976633  0.44951833  0.31954025],1,1,1,0.32743108,0,nan,nan,nan,nan,nan,nan,nan,nan,nan,nan,[ nan  nan  nan],nan,nan,nan,339.2796732,404.7347464,405.0621775,nan,nan
0,63,17:12:59:383000,6,1,26,18.28125,[ 1.          0.09209217 -1.        ],1,1,1,0.353587523,1,nan,nan,nan,nan,nan,nan,nan,nan,81.98674816,11,[ 0.9346595  0.1638529 -1.       ],nan,-10.26799816,0.917096283,339.2796732,405.6765942,406.0301817,407.5100213,408.4351387
0,64,17:13:00:319000,6,1,466,327.65625,[ 0.46478901  0.3683856  -1.        ],1,1,1,0.388718512,0,nan,nan,nan,nan,nan,nan,nan,nan,nan,nan,[ nan  nan  nan],nan,nan,nan,339.2796732,409.5853374,409.974056,nan,nan
0,65,17:13:01:270000,6,1,7,4.921875,[ 0.90309146  0.18185306 -1.        ],1,1,1,0.342926063,0,nan,nan,nan,nan,nan,nan,nan,nan,nan,nan,[ nan  nan  nan],nan,nan,nan,339.2796732,410.5271256,410.8700517,nan,nan
0,66,17:13:02:206000,6,1,280,196.875,[ 0.22808935  0.34201885  0.61587222],1,1,1,0.289122408,0,nan,nan,nan,nan,nan,nan,nan,nan,nan,nan,[ nan  nan  nan],nan,nan,nan,339.2796732,411.4689055,411.758028,nan,nan
0,67,17:13:03:142000,6,1,96,67.5,[ 1.         -0.25681952 -0.50330248],1,1,1,0.267312543,0,nan,nan,nan,nan,nan,nan,nan,nan,nan,nan,[ nan  nan  nan],nan,nan,nan,339.2796732,412.4106969,412.6780094,nan,nan
0,68,17:13:04:094000,6,1,421,296.015625,[ 0.12147167  0.45251804 -0.71261034],1,1,1,0.309534161,0,nan,nan,nan,nan,nan,nan,nan,nan,nan,nan,[ nan  nan  nan],nan,nan,nan,339.2796732,413.3524759,413.6620101,nan,nan
0,69,17:13:07:978000,6,1,223,156.796875,[ 0.83172397  0.10489059  0.59343224],1,1,1,0.303689973,1,nan,nan,nan,nan,nan,nan,nan,nan,-58.43102887,211,[ 0.94867577  0.04136069  0.53868916],nan,-8.365846129,0.908725286,339.2796732,414.2942638,414.5979538,416.1194454,417.0363221
0,70,17:13:08:930000,6,1,296,208.125,[ 0.07727136  0.38620532  0.55000131],1,1,1,0.41145323,0,nan,nan,nan,nan,nan,nan,nan,nan,nan,nan,[ nan  nan  nan],nan,nan,nan,339.2796732,418.1864079,418.5978612,nan,nan
0,71,17:13:09:866000,6,1,34,23.90625,[ 1.          0.05144197 -1.        ],1,1,1,0.317650282,0,nan,nan,nan,nan,nan,nan,nan,nan,nan,nan,[ nan  nan  nan],nan,nan,nan,339.2796732,419.128189,419.4458393,nan,nan
0,72,17:13:10:802000,6,1,282,198.28125,[ 0.20814231  0.34807905  0.6092955 ],1,1,1,0.287875682,0,nan,nan,nan,nan,nan,nan,nan,nan,nan,nan,[ nan  nan  nan],nan,nan,nan,339.2796732,420.0699695,420.3578452,nan,nan
0,73,17:13:11:753000,6,1,498,350.15625,[ 0.73150794  0.26756188 -1.        ],1,1,1,0.282082811,0,nan,nan,nan,nan,nan,nan,nan,nan,nan,nan,[ nan  nan  nan],nan,nan,nan,339.2796732,421.0117403,421.2938231,nan,nan
0,74,17:13:12:689000,6,0,183,128.671875,[ 1.         -0.113109    0.35490284],0,0,1,0.452273315,0,nan,nan,nan,nan,nan,nan,nan,nan,nan,nan,[ nan  nan  nan],nan,nan,nan,339.2796732,421.9535225,422.4057958,nan,nan
0,75,17:13:13:625000,6,1,34,23.90625,[ 1.          0.05144197 -1.        ],1,1,1,0.318477917,0,nan,nan,nan,nan,nan,nan,nan,nan,nan,nan,[ nan  nan  nan],nan,nan,nan,339.2796732,422.8953004,423.2137783,nan,nan
0,76,17:13:14:577000,6,1,487,342.421875,[ 0.63952974  0.30629503 -1.        ],1,1,1,0.248674373,0,nan,nan,nan,nan,nan,nan,nan,nan,nan,nan,[ nan  nan  nan],nan,nan,nan,339.2796732,423.8370832,424.0857575,nan,nan
0,77,17:13:15:513000,6,1,15,10.546875,[ 0.96573443  0.14535278 -1.        ],1,1,1,0.258822661,0,nan,nan,nan,nan,nan,nan,nan,nan,nan,nan,[ nan  nan  nan],nan,nan,nan,339.2796732,424.7788979,425.0377205,nan,nan
0,78,17:13:16:449000,6,1,456,320.625,[ 0.38361243  0.39263319 -1.        ],1,1,1,0.317061843,0,nan,nan,nan,nan,nan,nan,nan,nan,nan,nan,[ nan  nan  nan],nan,nan,nan,339.2796732,425.7206689,426.0377308,nan,nan
0,79,17:13:17:401000,6,1,409,287.578125,[ 0.04294362  0.46479315 -0.52946185],1,1,1,0.327228377,0,nan,nan,nan,nan,nan,nan,nan,nan,nan,nan,[ nan  nan  nan],nan,nan,nan,339.2796732,426.6624548,426.9896832,nan,nan
0,80,17:13:18:337000,6,1,16,11.25,[ 0.97341943  0.14065211 -1.        ],1,1,1,0.305434762,0,0,0,0.316574994,0.34091953,0.063678529,0.40459806,0.277241001,nan,nan,nan,[ nan  nan  nan],nan,nan,nan,339.2796732,427.6042285,427.9096633,nan,nan
0,81,17:13:19:288000,6,1,508,357.1875,[ 0.81419982  0.22863893 -1.        ],1,1,1,0.32362533,0,0,0,0.318762823,0.340481447,0.06340542,0.403886867,0.277076027,nan,nan,nan,[ nan  nan  nan],nan,nan,nan,339.2796732,428.5460275,428.8696528,nan,nan
0,82,17:13:20:224000,6,1,278,195.46875,[ 0.24828552  0.33580281  0.62196257],1,1,1,0.317821055,0,0,0,0.315627049,0.340275884,0.063044767,0.403320651,0.277231118,nan,nan,nan,[ nan  nan  nan],nan,nan,nan,339.2796732,429.4878094,429.8056305,nan,nan
0,83,17:13:21:160000,6,1,328,230.625,[-0.13215956  0.44685797  0.33604616],1,1,1,0.296008053,0,0,0,0.312484813,0.340005344,0.062711698,0.402717042,0.277293646,nan,nan,nan,[ nan  nan  nan],nan,nan,nan,339.2796732,430.4295931,430.7256011,nan,nan
0,84,17:13:22:112000,6,1,53,37.265625,[ 1.         -0.04925756 -1.        ],1,1,1,0.306223338,0,0,0,0.306684149,0.339481567,0.062519669,0.402001236,0.276961898,nan,nan,nan,[ nan  nan  nan],nan,nan,nan,339.2796732,431.371377,431.6776003,nan,nan
0,85,17:13:23:048000,6,1,324,227.8125,[-0.11479964  0.44115833  0.36806404],1,1,1,0.300421344,0,0,0,0.300884245,0.339090294,0.06225419,0.401344484,0.276836104,nan,nan,nan,[ nan  nan  nan],nan,nan,nan,339.2796732,432.3131569,432.6135782,nan,nan
0,86,17:13:23:984000,6,1,162,113.90625,[ 1.         -0.21873956  0.17663297],1,1,1,0.302592637,0,0,0,0.303079106,0.338640655,0.062029865,0.400670519,0.27661079,nan,nan,nan,[ nan  nan  nan],nan,nan,nan,339.2796732,433.2549482,433.5575408,nan,nan
0,87,17:13:24:936000,6,1,486,341.71875,[ 0.63115176  0.30960306 -1.        ],1,1,1,0.368785151,0,0,0,0.323933044,0.33822631,0.061791927,0.400018237,0.276434383,nan,nan,nan,[ nan  nan  nan],nan,nan,nan,339.2796732,434.196717,434.5655022,nan,nan
0,88,17:13:25:872000,6,1,109,76.640625,[ 1.         -0.29463833 -0.3577737 ],1,1,1,0.322970749,0,0,0,0.331449512,0.338573569,0.061525153,0.400098722,0.277048417,nan,nan,nan,[ nan  nan  nan],nan,nan,nan,339.2796732,435.1384975,435.4614682,nan,nan
0,89,17:13:26:823000,6,1,362,254.53125,[-0.16423973  0.47600016  0.01745785],1,1,1,0.341195243,0,0,0,0.344317048,0.338398257,0.06120063,0.399598886,0.277197627,nan,nan,nan,[ nan  nan  nan],nan,nan,nan,339.2796732,436.0802828,436.4214781,nan,nan
0,90,17:13:27:759000,6,1,478,336.09375,[ 0.5642225   0.33479366 -1.        ],1,1,1,0.335399806,0,0,0,0.333188599,0.338429334,0.060860383,0.399289717,0.277568952,nan,nan,nan,[ nan  nan  nan],nan,nan,nan,339.2796732,437.0220505,437.3574503,nan,nan
0,91,17:13:28:695000,6,0,247,173.671875,[ 0.57894763  0.21939267  0.65238059],0,0,1,0.385582738,0,0,0,0.354059263,0.338396043,0.060525885,0.398921928,0.277870157,nan,nan,nan,[ nan  nan  nan],nan,nan,nan,339.2796732,437.9638341,438.3494169,nan,nan
0,92,17:13:29:647000,6,1,354,248.90625,[-0.17447067  0.47210079  0.09886772],1,1,1,0.267768412,0,0,0,0.329583652,0.338908942,0.060394556,0.399303497,0.278514386,nan,nan,nan,[ nan  nan  nan],nan,nan,nan,339.2796732,438.9056286,439.173397,nan,nan
0,93,17:13:30:583000,6,1,296,208.125,[ 0.07727136  0.38620532  0.55000131],1,1,1,0.285956699,0,0,0,0.313102616,0.33814399,0.060515418,0.398659408,0.277628572,nan,nan,nan,[ nan  nan  nan],nan,nan,nan,339.2796732,439.8474162,440.1333729,nan,nan
0,94,17:13:31:519000,6,0,245,172.265625,[ 0.6005777   0.21061011  0.65017283],0,0,1,0.392081793,0,0,0,0.315268968,0.337588806,0.060430311,0.398019117,0.277158495,nan,nan,nan,[ nan  nan  nan],nan,nan,nan,339.2796732,440.7892526,441.1813343,nan,nan
0,95,17:13:32:470000,6,1,178,125.15625,[ 1.         -0.13991966  0.31509783],1,1,1,0.23436026,0,0,0,0.304132917,0.338162416,0.060368129,0.398530545,0.277794288,nan,nan,nan,[ nan  nan  nan],nan,nan,nan,339.2796732,441.73098,441.9653403,nan,nan
0,96,17:13:33:406000,6,1,337,236.953125,[-0.16064337  0.45785839  0.25930356],1,1,1,0.244541048,0,0,0,0.2903277,0.337081144,0.060970637,0.398051781,0.276110506,nan,nan,nan,[ nan  nan  nan],nan,nan,nan,339.2796732,442.6727748,442.9173158,nan,nan
0,97,17:13:34:358000,6,1,60,42.1875,[ 1.         -0.08678377 -1.        ],1,1,1,0.254741793,0,1,0,0.2445477,0.336127122,0.061371572,0.397498694,0.27475555,nan,nan,nan,[ nan  nan  nan],nan,nan,nan,339.2796732,443.6145555,443.8692973,nan,nan
0,98,17:13:35:294000,6,0,208,146.25,[ 0.97651258  0.02502074  0.52257448],0,1,0,0.312938211,0,0,0,0.27074035,0.33529666,0.061603038,0.396899697,0.273693622,nan,nan,nan,[ nan  nan  nan],nan,nan,nan,339.2796732,444.5563389,444.8692771,nan,nan
0,99,17:13:36:230000,6,1,160,112.5,[ 1.         -0.22750142  0.15829752],1,1,1,0.227057233,0,0,0,0.264912412,0.335070817,0.061331885,0.396402701,0.273738932,nan,nan,nan,[ nan  nan  nan],nan,nan,nan,339.2796732,445.4982035,445.7252607,nan,nan
0,100,17:13:37:182000,6,1,292,205.3125,[ 0.11288167  0.37606958  0.56926185],1,1,1,0.30132852,0,0,0,0.280441321,0.333990681,0.061963592,0.395954273,0.272027089,nan,nan,nan,[ nan  nan  nan],nan,nan,nan,339.2796732,446.439903,446.7412315,nan,nan
0,101,17:13:38:118000,6,1,508,357.1875,[ 0.81419982  0.22863893 -1.        ],1,1,1,0.49547766,0,0,0,0.341287805,0.333667293,0.061740829,0.395408122,0.271926464,nan,nan,nan,[ nan  nan  nan],nan,nan,nan,339.2796732,447.3817188,447.8771965,nan,nan
0,102,17:13:39:054000,6,0,465,326.953125,[ 0.45658868  0.37096153 -1.        ],0,0,1,0.417692562,0,0,0,0.404832914,0.335253669,0.063472306,0.398725975,0.271781363,nan,nan,nan,[ nan  nan  nan],nan,nan,nan,339.2796732,448.3234728,448.7411654,nan,nan
0,103,17:13:40:005000,6,1,251,176.484375,[ 0.53557652  0.23650919  0.65528415],1,1,1,0.28390087,0,0,0,0.399023697,0.336054047,0.063678578,0.399732625,0.272375468,nan,nan,nan,[ nan  nan  nan],nan,nan,nan,339.2796732,449.2652433,449.5491442,nan,nan
0,104,17:13:40:941000,6,1,135,94.921875,[ 1.         -0.30350232 -0.08497887],1,1,1,0.270092231,0,0,0,0.323895221,0.335552574,0.063575729,0.399128302,0.271976845,nan,nan,nan,[ nan  nan  nan],nan,nan,nan,339.2796732,450.2070267,450.4771189,nan,nan
0,105,17:13:41:893000,6,1,351,246.796875,[-0.17568629  0.47018527  0.12848998],1,1,1,0.288344665,0,0,0,0.280779256,0.334929142,0.063590885,0.398520027,0.271338257,nan,nan,nan,[ nan  nan  nan],nan,nan,nan,339.2796732,451.1487929,451.4371376,nan,nan
0,106,17:13:42:829000,6,1,121,85.078125,[ 1.         -0.31073281 -0.22964081],1,1,1,0.378531737,0,0,0,0.312322878,0.334489666,0.063450226,0.397939892,0.27103944,nan,nan,nan,[ nan  nan  nan],nan,nan,nan,339.2796732,452.0905714,452.4691031,nan,nan
0,107,17:13:43:765000,6,1,460,323.4375,[ 0.41584892  0.38333493 -1.        ],1,1,1,0.444702013,0,0,0,0.370526138,0.334901274,0.063295058,0.398196332,0.271606216,nan,nan,nan,[ nan  nan  nan],nan,nan,nan,339.2796732,453.032359,453.477061,nan,nan
0,108,17:13:44:716000,6,1,301,211.640625,[ 0.03515994  0.39804276  0.52341451],1,1,1,0.382907395,0,0,1,0.402047048,0.335917948,0.063873055,0.399791003,0.272044893,nan,nan,nan,[ nan  nan  nan],nan,nan,nan,339.2796732,453.9741629,454.3570703,nan,nan
0,109,17:13:49:069000,6,1,346,243.28125,[-0.17431756  0.46643129  0.17667017],1,1,1,0.36111492,1,0,0,0.396241443,0.336349043,0.063737032,0.400086075,0.272612012,nan,-137.4195092,323,[-0.11001989  0.43965345  0.37585536],nan,-15.86174078,1.367118478,339.2796732,454.9159243,455.2770392,456.7411021,458.1162759
0,110,17:13:50:005000,6,0,11,7.734375,[ 0.9346595  0.1638529 -1.       ],0,1,0,0.338089119,0,0,0,0.360703812,0.336574188,0.063490184,0.400064371,0.273084004,nan,nan,nan,[ nan  nan  nan],nan,nan,nan,339.2796732,459.2748114,459.6129006,nan,nan
0,111,17:13:50:956000,6,1,91,63.984375,[ 1.         -0.2377099  -0.56272232],1,1,1,0.236303761,0,0,0,0.311835934,0.336587836,0.063203707,0.399791543,0.273384129,nan,nan,nan,[ nan  nan  nan],nan,nan,nan,339.2796732,460.2165973,460.4529011,nan,nan
0,112,17:13:51:892000,6,1,205,144.140625,[ 1.          0.008548    0.50553524],1,1,1,0.286491254,0,0,0,0.286961378,0.335692442,0.063624158,0.3993166,0.272068284,nan,nan,nan,[ nan  nan  nan],nan,nan,nan,339.2796732,461.1583784,461.4448697,nan,nan
0,113,17:13:52:844000,6,1,76,53.4375,[ 1.         -0.16967451 -0.77336583],1,1,1,0.416665645,0,0,0,0.313153553,0.335257033,0.063509395,0.398766428,0.271747639,nan,nan,nan,[ nan  nan  nan],nan,nan,nan,339.2796732,462.1001828,462.5168485,nan,nan
0,114,17:13:53:780000,6,1,470,330.46875,[ 0.49774161  0.35774078 -1.        ],1,1,1,0.330855657,0,0,0,0.344670852,0.335971144,0.063684276,0.39965542,0.272286868,nan,nan,nan,[ nan  nan  nan],nan,nan,nan,339.2796732,463.0419779,463.3728335,nan,nan
0,115,17:13:54:716000,6,1,222,156.09375,[ 0.84177847  0.09972916  0.58948469],1,1,1,0.365089448,0,0,0,0.37087025,0.335926662,0.063408562,0.399335223,0.2725181,nan,nan,nan,[ nan  nan  nan],nan,nan,nan,339.2796732,463.9837367,464.3488261,nan,nan
0,116,17:13:55:668000,6,1,59,41.484375,[ 1.         -0.08144099 -1.        ],1,1,1,0.351273397,0,0,0,0.349072834,0.336178065,0.063192194,0.399370259,0.272985871,nan,nan,nan,[ nan  nan  nan],nan,nan,nan,339.2796732,464.9255138,465.2767871,nan,nan
0,117,17:13:56:604000,6,1,298,209.53125,[ 0.06008966  0.39105034  0.53969689],1,1,1,0.385481244,0,0,0,0.367281363,0.336307085,0.062936905,0.399243989,0.27337018,nan,nan,nan,[ nan  nan  nan],nan,nan,nan,339.2796732,465.8672922,466.2527735,nan,nan
0,118,17:13:57:540000,6,1,393,276.328125,[-0.04894566  0.47510217 -0.32744323],1,1,1,0.611649547,0,0,1,0.449468063,0.336723815,0.062831556,0.399555371,0.273892259,nan,nan,nan,[ nan  nan  nan],nan,nan,nan,339.2796732,466.8091112,467.4207608,nan,nan
0,119,17:14:02:048000,6,1,275,193.359375,[ 0.27900239  0.32618525  0.63017847],1,1,1,0.357852849,1,0,0,0.451661213,0.339034115,0.067412559,0.406446674,0.271621557,nan,-101.9176759,273,[ 0.29973296  0.31957719  0.63503803],nan,-1.441699095,1.500485947,339.2796732,467.7508458,468.1086987,469.5843807,471.0928938
0,120,17:14:02:984000,6,1,230,161.71875,[ 0.76002313  0.14022421  0.6178111 ],1,1,1,0.257215288,0,0,0,0.408905895,0.339190938,0.06715288,0.406343818,0.272038058,nan,nan,nan,[ nan  nan  nan],nan,nan,nan,339.2796732,472.2514244,472.5086397,nan,nan
0,121,17:14:03:936000,6,1,429,301.640625,[ 0.17753182  0.44208078 -0.9018852 ],1,1,1,0.36340795,0,0,0,0.326158695,0.338513453,0.067285354,0.405798807,0.2712281,nan,nan,nan,[ nan  nan  nan],nan,nan,nan,339.2796732,473.1932095,473.5566174,nan,nan
0,122,17:14:04:872000,6,1,369,259.453125,[-0.14769469  0.47799919 -0.05643387],1,1,1,0.405593646,0,0,0,0.342072294,0.338717507,0.067046609,0.405764116,0.271670897,nan,nan,nan,[ nan  nan  nan],nan,nan,nan,339.2796732,474.1349885,474.5405822,nan,nan
0,123,17:14:05:808000,6,1,192,135,[ 1.         -0.06359976  0.42165841],1,1,1,0.407814261,0,0,0,0.392271952,0.339261215,0.067043021,0.406304236,0.272218195,nan,nan,nan,[ nan  nan  nan],nan,nan,nan,339.2796732,475.0767448,475.484559,nan,nan
0,124,17:14:06:759000,6,1,254,178.59375,[ 0.50301113  0.24894782  0.65613358],1,1,1,0.353980671,0,0,0,0.389129526,0.339814062,0.067053055,0.406867117,0.272761007,nan,nan,nan,[ nan  nan  nan],nan,nan,nan,339.2796732,476.0185643,476.372545,nan,nan
0,125,17:14:07:695000,6,1,452,317.8125,[ 0.35173807  0.40140621 -1.        ],1,1,1,0.340189994,0,0,0,0.367328309,0.339927395,0.066796227,0.406723623,0.273131168,nan,nan,nan,[ nan  nan  nan],nan,nan,nan,339.2796732,476.9603351,477.3005251,nan,nan
0,126,17:14:08:647000,6,1,296,208.125,[ 0.07727136  0.38620532  0.55000131],1,1,1,0.310379187,0,0,0,0.334849951,0.339929479,0.066530639,0.406460118,0.27339884,nan,nan,nan,[ nan  nan  nan],nan,nan,nan,339.2796732,477.9021233,478.2125025,nan,nan
0,127,17:14:09:583000,6,1,128,90,[ 1.         -0.31066301 -0.15668979],1,1,1,0.28858044,0,0,0,0.313049873,0.3396968,0.06631964,0.406016439,0.27337716,nan,nan,nan,[ nan  nan  nan],nan,nan,nan,339.2796732,478.8439058,479.1324862,nan,nan
0,128,17:14:10:519000,6,1,264,185.625,[ 0.39496696  0.28788971  0.65071762],1,1,1,0.298789453,0,0,0,0.299249693,0.339297453,0.06621319,0.405510644,0.273084263,nan,nan,nan,[ nan  nan  nan],nan,nan,nan,339.2796732,479.7856638,480.0844532,nan,nan
0,129,17:14:11:470000,6,1,467,328.359375,[ 0.47300519  0.36577567 -1.        ],1,1,1,0.32498752,0,0,0,0.304119138,0.338983438,0.066051663,0.405035101,0.272931775,nan,nan,nan,[ nan  nan  nan],nan,nan,nan,339.2796732,480.7274443,481.0524318,nan,nan
0,130,17:14:12:406000,6,1,181,127.265625,[ 1.         -0.12391439  0.33920113],1,1,1,0.303184497,0,0,0,0.308987157,0.338875777,0.065808489,0.404684266,0.273067288,nan,nan,nan,[ nan  nan  nan],nan,nan,nan,339.2796732,481.6692247,481.9724092,nan,nan
0,131,17:14:13:342000,6,1,385,270.703125,[-0.08797966  0.47773344 -0.23392672],1,1,1,0.337367256,0,0,0,0.321846424,0.338603324,0.065630389,0.404233713,0.272972935,nan,nan,nan,[ nan  nan  nan],nan,nan,nan,339.2796732,482.6110349,482.9484021,nan,nan
0,132,17:14:14:294000,6,1,136,95.625,[ 1.         -0.3019149  -0.07484121],1,1,1,0.371549444,0,0,0,0.337367066,0.33859396,0.065381404,0.403975364,0.273212556,nan,nan,nan,[ nan  nan  nan],nan,nan,nan,339.2796732,483.5528214,483.9243708,nan,nan
0,133,17:14:15:230000,6,1,33,23.203125,[ 1.          0.05659903 -1.        ],1,1,1,0.333745393,0,0,0,0.347554031,0.338841746,0.065197329,0.404039075,0.273644417,nan,nan,nan,[ nan  nan  nan],nan,nan,nan,339.2796732,484.4946021,484.8283475,nan,nan
0,134,17:14:16:166000,6,1,318,223.59375,[-0.08356276  0.43164026  0.41348156],1,1,1,0.343956116,0,0,0,0.349750317,0.338803713,0.064955081,0.403758794,0.273848633,nan,nan,nan,[ nan  nan  nan],nan,nan,nan,339.2796732,485.4363832,485.7803393,nan,nan
0,135,17:14:17:118000,6,1,117,82.265625,[ 1.         -0.30758797 -0.27188654],1,1,1,0.322122587,0,0,0,0.333274699,0.338841879,0.064715567,0.403557446,0.274126312,nan,nan,nan,[ nan  nan  nan],nan,nan,nan,339.2796732,486.3781859,486.7003085,nan,nan
0,136,17:14:18:054000,6,1,360,253.125,[-0.1677095   0.47518832  0.03812586],1,1,1,0.348338046,0,0,0,0.338138916,0.338718943,0.064493023,0.403211966,0.27422592,nan,nan,nan,[ nan  nan  nan],nan,nan,nan,339.2796732,487.3199493,487.6682873,nan,nan
0,137,17:14:19:005000,6,1,406,285.46875,[ 0.02449675  0.4672457  -0.4893661 ],1,1,1,0.37452756,0,0,0,0.348329398,0.338789156,0.064262433,0.403051588,0.274526723,nan,nan,nan,[ nan  nan  nan],nan,nan,nan,339.2796732,488.2617383,488.6362659,nan,nan
0,138,17:14:19:941000,6,1,300,210.9375,[ 0.04335371  0.39574842  0.52895103],1,1,1,0.400715364,0,0,0,0.37452699,0.33904813,0.064100885,0.403149014,0.274947245,nan,nan,nan,[ nan  nan  nan],nan,nan,nan,339.2796732,489.2035148,489.6042302,nan,nan
0,139,17:14:20:877000,6,1,266,187.03125,[ 0.37357759  0.29520749  0.64811377],1,1,1,0.362909031,0,0,0,0.379383985,0.339491779,0.064082171,0.40357395,0.275409608,nan,nan,nan,[ nan  nan  nan],nan,nan,nan,339.2796732,490.145305,490.5082141,nan,nan
0,140,17:14:21:829000,6,1,102,71.71875,[ 1.         -0.27661034 -0.43492695],1,1,1,0.421132248,0,0,0,0.394918881,0.339659045,0.063883341,0.403542386,0.275775704,nan,nan,nan,[ nan  nan  nan],nan,nan,nan,339.2796732,491.0870541,491.5081864,nan,nan
0,141,17:14:22:765000,6,1,156,109.6875,[ 1.         -0.24406061  0.12104147],1,1,1,0.391329424,0,0,0,0.391790235,0.340236869,0.064022502,0.404259371,0.276214367,nan,nan,nan,[ nan  nan  nan],nan,nan,nan,339.2796732,492.028844,492.4201735,nan,nan
0,142,17:14:23:701000,6,1,336,236.25,[-0.15821161  0.45675811  0.26813527],1,1,1,0.417535759,0,0,1,0.409999144,0.340596676,0.063939576,0.404536251,0.2766571,nan,nan,nan,[ nan  nan  nan],nan,nan,nan,339.2796732,492.9706285,493.3881643,nan,nan
0,143,17:14:27:726000,6,1,437,307.265625,[ 0.23613483  0.42977024 -1.        ],1,1,1,0.419648037,1,0,0,0.409504407,0.341134711,0.064037384,0.405172095,0.277097327,nan,168.6900675,400,[-0.01078748  0.4714273  -0.41269269],nan,-25.95569253,1.017202424,339.2796732,493.9124831,494.3321312,495.7459193,496.7710768
0,144,17:14:28:662000,6,1,56,39.375,[ 1.         -0.06536751 -1.        ],1,1,1,0.586419097,0,0,0,0.474534298,0.341679943,0.064146859,0.405826801,0.277533084,nan,nan,nan,[ nan  nan  nan],nan,nan,nan,339.2796732,497.9295701,498.5159892,nan,nan
0,145,17:14:29:613000,6,1,392,275.625,[-0.05410679  0.47552228 -0.31554984],1,1,1,0.364676343,0,0,0,0.456914492,0.343367799,0.067057267,0.410425066,0.276310532,nan,nan,nan,[ nan  nan  nan],nan,nan,nan,339.2796732,498.8713475,499.2360238,nan,nan
0,146,17:14:30:549000,6,1,290,203.90625,[ 0.13126538  0.37077654  0.57820662],1,1,1,0.286857603,0,0,1,0.412651014,0.343513748,0.06685033,0.410364078,0.276663418,nan,nan,nan,[ nan  nan  nan],nan,nan,nan,339.2796732,499.8131305,500.0999881,nan,nan
0,147,17:14:34:246000,6,1,67,47.109375,[ 1.         -0.12380467 -1.        ],1,1,1,0.31305339,1,0,0,0.321529112,0.343128332,0.066785126,0.409913458,0.276343206,nan,59.27758905,44,[ 1.         -0.00106984 -1.        ],nan,-16.38696405,0.717115498,339.2796732,500.754917,501.0679704,502.5717623,503.2969013
0,148,17:14:35:182000,6,1,364,255.9375,[-0.16019432  0.47670452 -0.00341125],1,1,1,0.252849894,0,0,0,0.284253629,0.342925123,0.066604703,0.409529826,0.27632042,nan,nan,nan,[ nan  nan  nan],nan,nan,nan,339.2796732,504.4470395,504.6998894,nan,nan
0,149,17:14:36:134000,6,1,224,157.5,[ 0.82161942  0.11002479  0.59726488],1,1,1,0.319073483,0,0,0,0.294992255,0.342320591,0.066786984,0.409107575,0.275533607,nan,nan,nan,[ nan  nan  nan],nan,nan,nan,339.2796732,505.3888063,505.7078798,nan,nan
0,150,17:14:37:070000,6,0,74,52.03125,[ 1.         -0.15971516 -0.81044328],0,0,1,0.417247527,0,0,0,0.329723634,0.34216561,0.066590866,0.408756476,0.275574744,nan,nan,nan,[ nan  nan  nan],nan,nan,nan,339.2796732,506.3306031,506.7478506,nan,nan
0,151,17:14:38:006000,6,1,304,213.75,[ 0.01130928  0.40470892  0.50616037],1,1,1,0.291407455,0,0,0,0.342576155,0.342662842,0.066648802,0.409311643,0.27601404,nan,nan,nan,[ nan  nan  nan],nan,nan,nan,339.2796732,507.2724118,507.5638192,nan,nan
0,152,17:14:38:958000,6,1,447,314.296875,[ 0.31246764  0.41164647 -1.        ],1,1,1,0.397548229,0,0,0,0.368734403,0.342325635,0.06655831,0.408883945,0.275767325,nan,nan,nan,[ nan  nan  nan],nan,nan,nan,339.2796732,508.2142598,508.6118081,nan,nan
0,153,17:14:39:894000,6,1,155,108.984375,[ 1.         -0.24798314  0.11161188],1,1,1,0.38382512,0,0,0,0.357593601,0.342686567,0.066489515,0.409176082,0.276197052,nan,nan,nan,[ nan  nan  nan],nan,nan,nan,339.2796732,509.1559539,509.5397791,nan,nan
0,154,17:14:40:830000,6,0,4,2.8125,[ 0.87912605  0.19501404 -1.        ],0,0,1,0.410005226,0,0,0,0.397126191,0.342953701,0.066355609,0.40930931,0.276598091,nan,nan,nan,[ nan  nan  nan],nan,nan,nan,339.2796732,510.0977607,510.5077659,nan,nan
0,155,17:14:41:781000,6,1,148,104.0625,[ 1.         -0.27269559  0.04442646],1,1,1,0.220190119,0,0,0,0.338006822,0.343386291,0.066358712,0.409745003,0.277027579,nan,nan,nan,[ nan  nan  nan],nan,nan,nan,339.2796732,511.0395449,511.259735,nan,nan
0,156,17:14:42:717000,6,1,91,63.984375,[ 1.         -0.2377099  -0.56272232],1,1,1,0.302391929,0,0,0,0.310862425,0.342596572,0.066872401,0.409468973,0.275724171,nan,nan,nan,[ nan  nan  nan],nan,nan,nan,339.2796732,511.9813288,512.2837207,nan,nan
0,157,17:14:43:653000,6,0,277,194.765625,[ 0.25847065  0.33263616  0.62482424],0,1,0,0.296582807,0,0,0,0.273054952,0.342340491,0.066735781,0.409076273,0.27560471,nan,nan,nan,[ nan  nan  nan],nan,nan,nan,339.2796732,512.9231121,513.2196949,nan,nan
0,158,17:14:44:605000,6,1,414,291.09375,[ 0.07478379  0.46016219 -0.60008918],1,1,1,0.21878431,0,0,0,0.272586349,0.342050886,0.066623153,0.408674039,0.275427733,nan,nan,nan,[ nan  nan  nan],nan,nan,nan,339.2796732,513.8648886,514.0836729,nan,nan
0,159,17:14:45:541000,6,1,106,74.53125,[ 1.         -0.28763007 -0.39056445],1,1,1,0.308976798,0,0,0,0.274781305,0.341275624,0.067124447,0.408400071,0.274151178,nan,nan,nan,[ nan  nan  nan],nan,nan,nan,339.2796732,514.8066799,515.1156567,nan,nan
0,160,17:14:46:492000,6,1,197,138.515625,[ 1.         -0.0357976   0.45577474],1,1,1,0.375139947,0,0,0,0.300967018,0.341073757,0.066962752,0.408036508,0.274111005,nan,nan,nan,[ nan  nan  nan],nan,nan,nan,339.2796732,515.7484929,516.1236329,nan,nan
0,161,17:14:47:428000,6,1,456,320.625,[ 0.38361243  0.39263319 -1.        ],1,1,1,0.337364975,0,0,0,0.340493907,0.341285348,0.066808102,0.40809345,0.274477246,nan,nan,nan,[ nan  nan  nan],nan,nan,nan,339.2796732,516.6902432,517.0276082,nan,nan
0,162,17:14:48:364000,6,1,252,177.1875,[ 0.52472169  0.24069367  0.65569401],1,1,1,0.363549358,0,0,0,0.35868476,0.341261148,0.066602293,0.407863441,0.274658856,nan,nan,nan,[ nan  nan  nan],nan,nan,nan,339.2796732,517.6320299,517.9955793,nan,nan
0,163,17:14:49:316000,6,0,187,131.484375,[ 1.         -0.09124635  0.38538321],0,0,1,0.405757006,0,0,0,0.368890446,0.341397886,0.066420482,0.407818367,0.274977404,nan,nan,nan,[ nan  nan  nan],nan,nan,nan,339.2796732,518.5737967,518.9795538,nan,nan
0,164,17:14:50:252000,6,1,245,172.265625,[ 0.6005777   0.21061011  0.65017283],1,1,1,0.263976916,0,0,0,0.34442776,0.341790319,0.066406947,0.408197266,0.275383372,nan,nan,nan,[ nan  nan  nan],nan,nan,nan,339.2796732,519.5155618,519.7795388,nan,nan
0,165,17:14:51:188000,6,1,345,242.578125,[-0.17351954  0.46559515  0.18611928],1,1,1,0.33817978,0,0,0,0.335971234,0.341318723,0.066480299,0.407799022,0.274838424,nan,nan,nan,[ nan  nan  nan],nan,nan,nan,339.2796732,520.4573492,520.7955289,nan,nan
0,166,17:14:52:140000,6,1,285,200.390625,[ 0.17873435  0.35687868  0.59852701],1,1,1,0.380340103,0,0,0,0.327498933,0.341299814,0.0662802,0.407580013,0.275019614,nan,nan,nan,[ nan  nan  nan],nan,nan,nan,339.2796732,521.3991576,521.7794977,nan,nan
0,167,17:14:53:076000,6,1,426,299.53125,[ 0.15619305  0.44621085 -0.8148597 ],1,1,1,0.414569617,0,0,0,0.3776965,0.341533588,0.066150065,0.407683652,0.275383523,nan,nan,nan,[ nan  nan  nan],nan,nan,nan,339.2796732,522.3409124,522.755482,nan,nan
0,168,17:14:54:027000,6,1,502,352.96875,[ 0.76474094  0.25241358 -1.        ],1,1,1,0.39272326,0,0,0,0.39587766,0.341968326,0.066191744,0.40816007,0.275776582,nan,nan,nan,[ nan  nan  nan],nan,nan,nan,339.2796732,523.282722,523.6754453,nan,nan
0,169,17:14:54:963000,6,1,98,68.90625,[ 1.         -0.26382291 -0.48021779],1,1,1,0.362956357,0,0,0,0.390083078,0.342268651,0.066110322,0.408378973,0.276158329,nan,nan,nan,[ nan  nan  nan],nan,nan,nan,339.2796732,524.224472,524.5874283,nan,nan
0,170,17:14:55:899000,6,0,194,136.40625,[ 1.         -0.05248646  0.4355717 ],0,0,1,0.469101978,0,0,0,0.408260532,0.342390343,0.065934575,0.408324918,0.276455769,nan,nan,nan,[ nan  nan  nan],nan,nan,nan,339.2796732,525.166291,525.6353929,nan,nan
0,171,17:14:56:851000,6,1,394,277.03125,[-0.04370902  0.47465593 -0.33940142],1,1,1,0.263348279,0,0,0,0.365135538,0.343131347,0.066447646,0.409578993,0.276683701,nan,nan,nan,[ nan  nan  nan],nan,nan,nan,339.2796732,526.1080549,526.3714032,nan,nan
0,172,17:14:57:787000,6,1,493,346.640625,[ 0.68976908  0.28570078 -1.        ],1,1,1,0.313490727,0,0,0,0.348646995,0.342667492,0.066531285,0.409198778,0.276136207,nan,nan,nan,[ nan  nan  nan],nan,nan,nan,339.2796732,527.0498836,527.3633743,nan,nan
0,173,17:14:58:723000,6,1,359,252.421875,[-0.16922234  0.47474188  0.0483828 ],1,1,1,0.363692191,0,0,0,0.313510399,0.34249884,0.066375583,0.408874423,0.276123257,nan,nan,nan,[ nan  nan  nan],nan,nan,nan,339.2796732,527.9916664,528.3553585,nan,nan
0,174,17:14:59:674000,6,1,100,70.3125,[ 1.         -0.27042709 -0.4574399 ],1,1,1,0.309870005,0,0,0,0.329017641,0.342620641,0.06620396,0.408824601,0.276416681,nan,nan,nan,[ nan  nan  nan],nan,nan,nan,339.2796732,528.9334443,529.2433143,nan,nan
0,175,17:15:00:610000,6,1,20,14.0625,[ 1.          0.12155819 -1.        ],1,1,1,0.256105693,0,0,0,0.309889296,0.342433495,0.066060676,0.408494171,0.276372818,nan,nan,nan,[ nan  nan  nan],nan,nan,nan,339.2796732,529.8752002,530.1313059,nan,nan
0,176,17:15:01:562000,6,1,258,181.40625,[ 0.45964229  0.26499291  0.65549006],1,1,1,0.266224045,0,0,0,0.277399914,0.341942996,0.066191544,0.40813454,0.275751451,nan,nan,nan,[ nan  nan  nan],nan,nan,nan,339.2796732,530.8170355,531.0832595,nan,nan
0,177,17:15:02:498000,6,1,134,94.21875,[ 1.         -0.304951   -0.09514411],1,1,1,0.268501965,0,1,0,0.263610568,0.341515205,0.066247839,0.407763044,0.275267366,nan,nan,nan,[ nan  nan  nan],nan,nan,nan,339.2796732,531.7587604,532.0272623,nan,nan
0,178,17:15:06:351000,6,1,182,127.96875,[ 1.         -0.11852384  0.34708947],1,1,1,0.262692558,1,0,0,0.265806189,0.341105018,0.066286506,0.407391525,0.274818512,nan,-54.86580694,206,[ 0.99472346  0.01405192  0.51131616],nan,16.89705694,0.867063597,339.2796732,532.7005471,532.9632397,534.5257044,535.4008234
0,179,17:15:07:287000,6,0,287,201.796875,[ 0.15950165  0.36255249  0.59075192],0,0,1,0.412129478,0,0,0,0.314441333,0.34066696,0.066358958,0.407025918,0.274308002,nan,nan,nan,[ nan  nan  nan],nan,nan,nan,339.2796732,536.5510153,536.9631447,nan,nan
0,180,17:15:08:223000,6,1,38,26.71875,[ 1.          0.03062595 -1.        ],1,1,1,0.246342856,0,0,0,0.307054964,0.341063974,0.066387208,0.407451182,0.274676766,nan,nan,nan,[ nan  nan  nan],nan,nan,nan,339.2796732,537.4927807,537.7391235,nan,nan
0,181,17:15:09:175000,6,1,181,127.265625,[ 1.         -0.12391439  0.33920113],1,1,1,0.272468224,0,0,0,0.310313519,0.340540653,0.066574827,0.40711548,0.273965826,nan,nan,nan,[ nan  nan  nan],nan,nan,nan,339.2796732,538.434625,538.7070932,nan,nan
0,182,17:15:10:111000,6,1,500,351.5625,[ 0.74814593  0.26005829 -1.        ],1,1,1,0.274711932,0,1,0,0.264507671,0.340166628,0.066582097,0.406748726,0.273584531,nan,nan,nan,[ nan  nan  nan],nan,nan,nan,339.2796732,539.3763721,539.6510841,nan,nan
0,183,17:15:14:261000,6,1,270,189.84375,[ 0.33115907  0.30936972  0.64139387],1,1,1,0.244868338,1,0,0,0.264016165,0.339808953,0.066575027,0.40638398,0.273233925,nan,-113.4985657,289,[ 0.14059213  0.36807325  0.58250527],nan,13.65481568,1.150446162,339.2796732,540.3182005,540.5630689,542.1516399,543.310138
0,184,17:15:15:197000,6,1,395,277.734375,[-0.03839842  0.47418351 -0.35142722],1,1,1,0.294614503,0,0,0,0.271398258,0.339292971,0.066759774,0.406052745,0.272533197,nan,nan,nan,[ nan  nan  nan],nan,nan,nan,339.2796732,544.4603327,544.7549472,nan,nan
0,185,17:15:16:148000,6,1,160,112.5,[ 1.         -0.22750142  0.15829752],1,1,1,0.280832664,0,0,0,0.273438502,0.339051466,0.066659643,0.405711109,0.272391823,nan,nan,nan,[ nan  nan  nan],nan,nan,nan,339.2796732,545.4021143,545.682947,nan,nan
0,186,17:15:17:084000,6,1,451,317.109375,[ 0.34383096  0.40351836 -1.        ],1,1,1,0.307032726,0,0,0,0.294159964,0.338738461,0.066616386,0.405354848,0.272122075,nan,nan,nan,[ nan  nan  nan],nan,nan,nan,339.2796732,546.3438677,546.6509005,nan,nan
0,187,17:15:18:020000,6,1,405,284.765625,[ 0.01846332  0.46800938 -0.47629333],1,1,1,0.373220964,0,0,0,0.320362118,0.338568912,0.066478257,0.405047169,0.272090655,nan,nan,nan,[ nan  nan  nan],nan,nan,nan,339.2796732,547.2856722,547.6588931,nan,nan
0,188,17:15:18:972000,6,0,205,144.140625,[ 1.          0.008548    0.50553524],0,0,1,0.479429876,0,0,0,0.386561189,0.338753231,0.066349111,0.405102342,0.272404121,nan,nan,nan,[ nan  nan  nan],nan,nan,nan,339.2796732,548.2274364,548.7068663,nan,nan
0,189,17:15:19:908000,6,1,316,222.1875,[-0.07182156  0.42820351  0.42789226],1,1,1,0.28159273,0,0,0,0.37808119,0.339497552,0.066955709,0.406453261,0.272541843,nan,nan,nan,[ nan  nan  nan],nan,nan,nan,339.2796732,549.1692232,549.4508159,nan,nan
0,190,17:15:20:844000,6,1,503,353.671875,[ 0.7730202   0.24853846 -1.        ],1,1,1,0.259830191,0,0,0,0.340284266,0.33919279,0.066910583,0.406103374,0.272282207,nan,nan,nan,[ nan  nan  nan],nan,nan,nan,339.2796732,550.1110136,550.3708438,nan,nan
0,191,17:15:21:795000,6,1,201,141.328125,[ 1.         -0.01357126  0.48142235],1,1,1,0.302031282,0,0,0,0.281151401,0.338777279,0.066980517,0.405757796,0.271796762,nan,nan,nan,[ nan  nan  nan],nan,nan,nan,339.2796732,551.0527824,551.3548137,nan,nan
0,192,17:15:22:731000,6,1,489,343.828125,[ 0.65628486  0.29957244 -1.        ],1,1,1,0.320226697,0,0,0,0.29402939,0.338585894,0.066858201,0.405444095,0.271727693,nan,nan,nan,[ nan  nan  nan],nan,nan,nan,339.2796732,551.9945664,552.314793,nan,nan
0,193,17:15:23:683000,6,0,245,172.265625,[ 0.6005777   0.21061011  0.65017283],0,0,1,0.378389474,0,0,0,0.333549151,0.338490768,0.066697794,0.405188562,0.271792975,nan,nan,nan,[ nan  nan  nan],nan,nan,nan,339.2796732,552.9363793,553.3147688,nan,nan
0,194,17:15:24:619000,6,1,387,272.109375,[-0.07872193  0.47723176 -0.25697445],1,1,1,0.252582473,0,0,0,0.317066215,0.338696432,0.066586997,0.405283429,0.272109435,nan,nan,nan,[ nan  nan  nan],nan,nan,nan,339.2796732,553.8781484,554.1307309,nan,nan
0,195,17:15:25:555000,6,1,65,45.703125,[ 1.         -0.11331216 -1.        ],1,1,1,0.222802171,0,0,0,0.284591373,0.338254822,0.066700258,0.404955079,0.271554564,nan,nan,nan,[ nan  nan  nan],nan,nan,nan,339.2796732,554.8199338,555.0427359,nan,nan
0,196,17:15:26:507000,6,1,246,172.96875,[ 0.58976884  0.2150199   0.65133953],1,1,1,0.288988698,0,1,0,0.254791114,0.337665778,0.067036449,0.404702227,0.270629328,nan,nan,nan,[ nan  nan  nan],nan,nan,nan,339.2796732,555.7617191,556.0507078,nan,nan
0,197,17:15:30:843000,6,1,410,288.28125,[ 0.04920468  0.46392153 -0.54316189],1,1,1,0.291166833,1,0,0,0.267652568,0.337418686,0.066955512,0.404374198,0.270463174,nan,-167.6609127,366,[-0.15559338  0.47730203 -0.02447665],nan,-30.62033728,1.350489097,339.2796732,556.7035081,556.994675,558.5286851,559.8872048
0,198,17:15:31:779000,6,1,269,189.140625,[ 0.34171297  0.30588835  0.64326235],1,1,1,0.332842208,0,0,0,0.30433258,0.337185091,0.066866648,0.404051738,0.270318443,nan,nan,nan,[ nan  nan  nan],nan,nan,nan,339.2796732,561.0457103,561.3785525,nan,nan
0,199,17:15:32:731000,6,1,216,151.875,[ 0.90097501  0.06822711  0.56342658],1,1,1,0.375025623,0,0,0,0.333011555,0.337163267,0.066699137,0.403862404,0.270464131,nan,nan,nan,[ nan  nan  nan],nan,nan,nan,339.2796732,561.9874934,562.362519,nan,nan
0,200,17:15:33:667000,6,1,98,68.90625,[ 1.         -0.26382291 -0.48021779],1,1,1,0.297260767,0,0,0,0.335042866,0.337352579,0.066585756,0.403938335,0.270766823,nan,nan,nan,[ nan  nan  nan],nan,nan,nan,339.2796732,562.9292756,563.2265364,nan,nan
0,201,17:15:34:603000,6,1,16,11.25,[ 0.97341943  0.14065211 -1.        ],1,1,1,0.355477141,0,0,0,0.342587844,0.337153117,0.066479785,0.403632903,0.270673332,nan,nan,nan,[ nan  nan  nan],nan,nan,nan,339.2796732,563.8710344,564.2265116,nan,nan
0,202,17:15:35:555000,6,1,131,92.109375,[ 1.         -0.30845167 -0.1258005 ],1,1,1,0.477678529,0,0,0,0.376805479,0.33724383,0.066327497,0.403571327,0.270916333,nan,nan,nan,[ nan  nan  nan],nan,nan,nan,339.2796732,564.8128135,565.290492,nan,nan
0,203,17:15:36:491000,6,1,457,321.328125,[ 0.39163925  0.39035818 -1.        ],1,1,1,0.319872893,0,0,0,0.384342854,0.337935627,0.066890499,0.404826126,0.271045127,nan,nan,nan,[ nan  nan  nan],nan,nan,nan,339.2796732,565.7545965,566.0744694,nan,nan
0,204,17:15:37:442000,6,1,500,351.5625,[ 0.74814593  0.26005829 -1.        ],1,1,1,0.306057697,0,0,0,0.367869706,0.337847084,0.066738275,0.404585359,0.271108809,nan,nan,nan,[ nan  nan  nan],nan,nan,nan,339.2796732,566.6963833,567.002441,nan,nan
0,205,17:15:38:378000,6,1,223,156.796875,[ 0.83172397  0.10489059  0.59343224],1,1,1,0.252260315,0,0,0,0.292730302,0.337692014,0.066612132,0.404304145,0.271079882,nan,nan,nan,[ nan  nan  nan],nan,nan,nan,339.2796732,567.6381618,567.8904221,nan,nan
0,206,17:15:39:314000,6,1,112,78.75,[ 1.         -0.30050152 -0.32532486],1,1,1,0.422417748,0,0,0,0.32691192,0.337277297,0.066715024,0.40399232,0.270562273,nan,nan,nan,[ nan  nan  nan],nan,nan,nan,339.2796732,568.5799785,569.0023962,nan,nan
0,207,17:15:40:266000,6,0,61,42.890625,[ 1.        -0.0921164 -1.       ],0,1,0,0.312651404,0,0,0,0.329109822,0.337688603,0.066814984,0.404503587,0.270873619,nan,nan,nan,[ nan  nan  nan],nan,nan,nan,339.2796732,569.5217233,569.8343747,nan,nan
0,208,17:15:41:217000,6,1,266,187.03125,[ 0.37357759  0.29520749  0.64811377],1,1,1,0.234829528,0,0,0,0.32329956,0.337568232,0.066676673,0.404244905,0.270891559,nan,nan,nan,[ nan  nan  nan],nan,nan,nan,339.2796732,570.4635343,570.6983639,nan,nan
0,209,17:15:42:153000,6,1,481,338.203125,[ 0.58928949  0.32561186 -1.        ],1,1,1,0.220685047,0,0,0,0.256055326,0.337076659,0.066893714,0.403970373,0.270182946,nan,nan,nan,[ nan  nan  nan],nan,nan,nan,339.2796732,571.4136525,571.6343375,nan,nan
0,210,17:15:43:089000,6,1,214,150.46875,[ 0.92024366  0.05754104  0.55385485],1,1,1,0.31887249,0,1,0,0.258129021,0.336522414,0.067213562,0.403735975,0.269308852,nan,nan,nan,[ nan  nan  nan],nan,nan,nan,339.2796732,572.3554395,572.674312,nan,nan
0,211,17:15:47:239000,6,1,21,14.765625,[ 1.        0.116714 -1.      ],1,1,1,0.280976067,1,0,0,0.273511201,0.336438765,0.067065054,0.403503819,0.26937371,nan,-100.2268577,271,[ 0.32064286  0.31281163  0.63940014],nan,175.4612327,1.150553928,339.2796732,573.2973201,573.5782961,575.1307035,576.2892182
0,212,17:15:48:175000,6,1,94,66.09375,[ 1.         -0.24943901 -0.52674516],1,1,1,0.354772383,0,0,0,0.31820698,0.336177148,0.067014531,0.403191679,0.269162617,nan,nan,nan,[ nan  nan  nan],nan,nan,nan,339.2796732,577.4393887,577.7941611,nan,nan
0,213,17:15:49:127000,6,1,258,181.40625,[ 0.45964229  0.26499291  0.65549006],1,1,1,0.284984806,0,0,0,0.306911085,0.33626445,0.066869118,0.403133567,0.269395332,nan,nan,nan,[ nan  nan  nan],nan,nan,nan,339.2796732,578.3811732,578.666158,nan,nan
0,214,17:15:50:063000,6,1,20,14.0625,[ 1.          0.12155819 -1.        ],1,1,1,0.287195727,0,0,0,0.308984306,0.336024825,0.066804301,0.402829126,0.269220525,nan,nan,nan,[ nan  nan  nan],nan,nan,nan,339.2796732,579.3229554,579.6101511,nan,nan
0,215,17:15:50:999000,6,1,494,347.34375,[ 0.69812996  0.282144   -1.        ],1,1,1,0.393394091,0,0,0,0.321858208,0.335797713,0.066731517,0.40252923,0.269066196,nan,nan,nan,[ nan  nan  nan],nan,nan,nan,339.2796732,580.2647387,580.6581328,nan,nan
0,216,17:15:51:950000,6,1,370,260.15625,[-0.144806    0.47817873 -0.06718033],1,1,1,0.299557217,0,0,0,0.326715679,0.336064363,0.066691575,0.402755938,0.269372788,nan,nan,nan,[ nan  nan  nan],nan,nan,nan,339.2796732,581.2065514,581.5061086,nan,nan
0,217,17:15:52:886000,6,1,117,82.265625,[ 1.         -0.30758797 -0.27188654],1,1,1,0.421803365,0,0,0,0.371584891,0.335896127,0.066583655,0.402479782,0.269312473,nan,nan,nan,[ nan  nan  nan],nan,nan,nan,339.2796732,582.1482846,582.5700879,nan,nan
0,218,17:15:53:822000,6,1,254,178.59375,[ 0.50301113  0.24894782  0.65613358],1,1,1,0.535959051,0,0,1,0.419106544,0.336290197,0.066683916,0.402974113,0.269606282,nan,nan,nan,[ nan  nan  nan],nan,nan,nan,339.2796732,583.0901098,583.6260689,nan,nan
0,219,17:15:57:956000,6,1,342,240.46875,[-0.17005262  0.46291356  0.21407524],1,1,1,0.338162389,1,0,0,0.431974935,0.337201927,0.067879692,0.40508162,0.269322235,nan,-136.7474648,322,[-0.10506723  0.43811622  0.38355935],nan,-13.72128519,1.133735243,339.2796732,584.0318664,584.3700287,585.8653898,587.0071739
0,220,17:15:58:892000,6,1,231,162.421875,[ 0.74960968  0.14515127  0.62082146],1,1,1,0.276535407,0,0,0,0.383552283,0.337206293,0.067725276,0.404931568,0.269481017,nan,nan,nan,[ nan  nan  nan],nan,nan,nan,339.2796732,588.1573957,588.4339311,nan,nan
0,221,17:15:59:844000,6,1,475,333.984375,[ 0.53921875  0.34365981 -1.        ],1,1,1,0.334743515,0,0,0,0.316480437,0.336931764,0.067694454,0.404626218,0.26923731,nan,nan,nan,[ nan  nan  nan],nan,nan,nan,339.2796732,589.099187,589.4339305,nan,nan
0,222,17:16:00:780000,6,1,122,85.78125,[ 1.         -0.31115954 -0.21914422],1,1,1,0.296976525,0,0,0,0.302751816,0.336921907,0.067541976,0.404463883,0.269379931,nan,nan,nan,[ nan  nan  nan],nan,nan,nan,339.2796732,590.0409447,590.3379212,nan,nan
0,223,17:16:01:716000,6,1,402,282.65625,[ 0.00072492  0.47013996 -0.43781156],1,1,1,0.331131345,0,0,0,0.320950462,0.33674278,0.067443196,0.404185976,0.269299583,nan,nan,nan,[ nan  nan  nan],nan,nan,nan,339.2796732,590.9827434,591.3138748,nan,nan
0,224,17:16:02:667000,6,1,243,170.859375,[ 0.62215101  0.20168048  0.64746348],1,1,1,0.357376453,0,0,0,0.328494774,0.336717729,0.067293525,0.404011254,0.269424204,nan,nan,nan,[ nan  nan  nan],nan,nan,nan,339.2796732,591.924484,592.2818604,nan,nan
0,225,17:16:03:603000,6,1,491,345.234375,[ 0.67303348  0.29270771 -1.        ],1,1,1,0.383557414,0,0,0,0.357355071,0.336809545,0.067157878,0.403967423,0.269651667,nan,nan,nan,[ nan  nan  nan],nan,nan,nan,339.2796732,592.8662904,593.2498478,nan,nan
0,226,17:16:04:555000,6,1,363,255.234375,[-0.16228773  0.47636573  0.00704813],1,1,1,0.393769563,0,0,0,0.378234477,0.337016394,0.067080929,0.404097323,0.269935466,nan,nan,nan,[ nan  nan  nan],nan,nan,nan,339.2796732,593.8080524,594.2018219,nan,nan
0,227,17:16:05:491000,6,1,164,115.3125,[ 1.         -0.20968584  0.19476155],1,1,1,0.467928522,0,0,1,0.415085166,0.337266408,0.067038455,0.404304863,0.270227953,nan,nan,nan,[ nan  nan  nan],nan,nan,nan,339.2796732,594.7498642,595.2177927,nan,nan
0,228,17:16:09:812000,6,1,457,321.328125,[ 0.39163925  0.39035818 -1.        ],1,1,1,0.470116636,1,0,0,0.44393824,0.337839488,0.067446235,0.405285722,0.270393253,nan,158.3476685,415,[ 0.08130773  0.45915368 -0.61496802],nan,-29.67579353,1.325485868,339.2796732,595.691637,596.1617537,597.5167929,598.8504262
0,229,17:16:10:748000,6,1,223,156.796875,[ 0.83172397  0.10489059  0.59343224],1,1,1,0.280846063,0,0,0,0.406297074,0.338417117,0.06786165,0.406278767,0.270555467,nan,nan,nan,[ nan  nan  nan],nan,nan,nan,339.2796732,600.0088195,600.2896655,nan,nan
0,230,17:16:11:684000,6,0,274,192.65625,[ 0.28934405  0.32290089  0.63267027],0,1,0,0.251029269,0,0,0,0.333997323,0.338166808,0.067819826,0.405986634,0.270346982,nan,nan,nan,[ nan  nan  nan],nan,nan,nan,339.2796732,600.950629,601.2016583,nan,nan
0,231,17:16:12:636000,6,1,155,108.984375,[ 1.         -0.24798314  0.11161188],1,1,1,0.245259205,0,0,0,0.259044846,0.337789589,0.067914247,0.405703837,0.269875342,nan,nan,nan,[ nan  nan  nan],nan,nan,nan,339.2796732,601.8923747,602.1376339,nan,nan
0,232,17:16:13:572000,6,1,208,146.25,[ 0.97651258  0.02502074  0.52257448],1,1,1,0.295421895,0,0,0,0.263903457,0.337390751,0.068038296,0.405429048,0.269352455,nan,nan,nan,[ nan  nan  nan],nan,nan,nan,339.2796732,602.8341917,603.1296136,nan,nan
0,233,17:16:14:508000,6,1,154,108.28125,[ 1.         -0.25181315  0.10213817],1,1,1,0.305628342,0,0,0,0.282103148,0.337210628,0.067947546,0.405158174,0.269263081,nan,nan,nan,[ nan  nan  nan],nan,nan,nan,339.2796732,603.7759671,604.0815954,nan,nan
0,234,17:16:15:459000,6,1,284,199.6875,[ 0.18846515  0.3539841   0.60223628],1,1,1,0.29180887,0,0,0,0.297619703,0.337075661,0.067833496,0.404909157,0.269242164,nan,nan,nan,[ nan  nan  nan],nan,nan,nan,339.2796732,604.7177541,605.009563,nan,nan
0,235,17:16:16:395000,6,0,113,79.453125,[ 1.         -0.30219199 -0.31457635],0,0,1,0.44601089,0,0,0,0.347816034,0.336883036,0.06775312,0.404636156,0.269129916,nan,nan,nan,[ nan  nan  nan],nan,nan,nan,339.2796732,605.6595403,606.1055512,nan,nan
0,236,17:16:17:347000,6,1,250,175.78125,[ 0.54642845  0.23228666  0.65474773],1,1,1,0.416162165,0,0,0,0.384660642,0.337345442,0.067980009,0.405325451,0.269365433,nan,nan,nan,[ nan  nan  nan],nan,nan,nan,339.2796732,606.6013593,607.0175214,nan,nan
0,237,17:16:18:283000,6,1,365,256.640625,[-0.15796203  0.47701659 -0.01391969],1,1,1,0.442399861,0,0,0,0.434857639,0.337678002,0.068028547,0.405706549,0.269649455,nan,nan,nan,[ nan  nan  nan],nan,nan,nan,339.2796732,607.5431041,607.985504,nan,nan
0,238,17:16:19:219000,6,1,510,358.59375,[ 0.83055446  0.2204367  -1.        ],1,1,1,0.348571824,0,0,0,0.40237795,0.33811801,0.0682226,0.40634061,0.26989541,nan,nan,nan,[ nan  nan  nan],nan,nan,nan,339.2796732,608.4848835,608.8334553,nan,nan
0,239,17:16:20:171000,6,1,326,229.21875,[-0.12383419  0.44407177  0.35222354],1,1,1,0.406758549,0,0,0,0.399243411,0.33816175,0.068083069,0.406244819,0.27007868,nan,nan,nan,[ nan  nan  nan],nan,nan,nan,339.2796732,609.4266637,609.8334222,nan,nan
0,240,17:16:21:107000,6,1,115,80.859375,[ 1.         -0.30516629 -0.29317275],1,1,1,0.352998229,0,0,0,0.369442868,0.33844757,0.068084618,0.406532188,0.270362952,nan,nan,nan,[ nan  nan  nan],nan,nan,nan,339.2796732,610.3684482,610.7214464,nan,nan
0,241,17:16:22:043000,6,1,365,256.640625,[-0.15796203  0.47701659 -0.01391969],1,1,1,0.395210154,0,0,0,0.384988978,0.338507946,0.067949655,0.406457601,0.270558291,nan,nan,nan,[ nan  nan  nan],nan,nan,nan,339.2796732,611.3102027,611.7054129,nan,nan
0,242,17:16:22:994000,6,1,454,319.21875,[ 0.36762736  0.39708484 -1.        ],1,1,1,0.357399831,0,0,0,0.368536071,0.338742253,0.067906607,0.406648859,0.270835646,nan,nan,nan,[ nan  nan  nan],nan,nan,nan,339.2796732,612.2519863,612.6093862,nan,nan
0,243,17:16:23:930000,6,1,52,36.5625,[ 1.         -0.04388606 -1.        ],1,1,1,0.343593473,0,0,0,0.365401153,0.338819033,0.067777262,0.406596295,0.27104177,nan,nan,nan,[ nan  nan  nan],nan,nan,nan,339.2796732,613.1937708,613.5373643,nan,nan
0,244,17:16:24:882000,6,1,234,164.53125,[ 0.71814775  0.15974031  0.6291316 ],1,1,1,0.321690952,0,0,0,0.340894752,0.3388386,0.06763892,0.40647752,0.27119968,nan,nan,nan,[ nan  nan  nan],nan,nan,nan,339.2796732,614.1356551,614.457346,nan,nan
0,245,17:16:25:818000,6,1,167,117.421875,[ 1.         -0.19560581  0.22154672],1,1,1,0.395982195,0,0,0,0.35375554,0.33876861,0.067509593,0.406278203,0.271259017,nan,nan,nan,[ nan  nan  nan],nan,nan,nan,339.2796732,615.0773349,615.4733171,nan,nan
0,246,17:16:26:754000,6,1,4,2.8125,[ 0.87912605  0.19501404 -1.        ],1,1,1,0.350182903,0,0,0,0.355952017,0.339001185,0.067470519,0.406471704,0.271530666,nan,nan,nan,[ nan  nan  nan],nan,nan,nan,339.2796732,616.0191188,616.3693017,nan,nan
0,247,17:16:27:705000,6,1,325,228.515625,[-0.1194049   0.44263104  0.36018642],1,1,1,0.376348185,0,0,0,0.374171094,0.339046455,0.067337544,0.406383999,0.271708911,nan,nan,nan,[ nan  nan  nan],nan,nan,nan,339.2796732,616.9609281,617.3372763,nan,nan
0,248,17:16:28:641000,6,1,249,175.078125,[ 0.55727555  0.22802627  0.65408488],1,1,1,0.354526916,0,0,0,0.360352668,0.339196866,0.067243209,0.406440074,0.271953657,nan,nan,nan,[ nan  nan  nan],nan,nan,nan,339.2796732,617.9027072,618.2572341,nan,nan
0,249,17:16:29:577000,6,1,439,308.671875,[ 0.25114429  0.4263922  -1.        ],1,1,1,0.356740403,0,0,0,0.362538501,0.339258432,0.06711505,0.406373482,0.272143382,nan,nan,nan,[ nan  nan  nan],nan,nan,nan,339.2796732,618.8444931,619.2012335,nan,nan
0,250,17:16:30:529000,6,0,209,146.953125,[ 0.96730184  0.03048352  0.52805   ],0,0,1,0.406951845,0,0,0,0.372739721,0.33932836,0.066989774,0.406318134,0.272338586,nan,nan,nan,[ nan  nan  nan],nan,nan,nan,339.2796732,619.7862764,620.1932283,nan,nan
0,251,17:16:31:465000,6,1,284,199.6875,[ 0.18846515  0.3539841   0.60223628],1,1,1,0.28914208,0,0,0,0.350944776,0.339597776,0.066991769,0.406589545,0.272606007,nan,nan,nan,[ nan  nan  nan],nan,nan,nan,339.2796732,620.7280566,621.0171987,nan,nan
0,252,17:16:32:417000,6,1,13,9.140625,[ 0.95026217  0.15466406 -1.        ],1,1,1,0.275280414,0,0,0,0.323791446,0.339397555,0.066933924,0.406331479,0.272463631,nan,nan,nan,[ nan  nan  nan],nan,nan,nan,339.2796732,621.6698936,621.945174,nan,nan
0,253,17:16:33:353000,6,1,117,82.265625,[ 1.         -0.30758797 -0.27188654],1,1,1,0.32553519,0,0,0,0.296652561,0.339144128,0.066922544,0.406066672,0.272221584,nan,nan,nan,[ nan  nan  nan],nan,nan,nan,339.2796732,622.611621,622.9371562,nan,nan
0,254,17:16:34:289000,6,1,387,272.109375,[-0.07872193  0.47723176 -0.25697445],1,1,1,0.34373146,0,0,0,0.314849021,0.339090549,0.066796113,0.405886663,0.272294436,nan,nan,nan,[ nan  nan  nan],nan,nan,nan,339.2796732,623.5534032,623.8971347,nan,nan
0,255,17:16:35:240000,6,1,155,108.984375,[ 1.         -0.24798314  0.11161188],1,1,1,0.361912905,0,0,0,0.343726518,0.339108749,0.066665643,0.405774392,0.272443106,nan,nan,nan,[ nan  nan  nan],nan,nan,nan,339.2796732,624.4951923,624.8571052,nan,nan
0,256,17:16:36:176000,6,1,485,341.015625,[ 0.62277456  0.31287562 -1.        ],1,1,1,0.348138478,0,0,0,0.351260948,0.339197828,0.066550513,0.405748341,0.272647314,nan,nan,nan,[ nan  nan  nan],nan,nan,nan,339.2796732,625.436944,625.7850825,nan,nan
0,257,17:16:37:112000,6,1,189,132.890625,[ 1.         -0.08021946  0.40014347],1,1,1,0.414346387,0,0,0,0.374799257,0.339232616,0.066423243,0.40565586,0.272809373,nan,nan,nan,[ nan  nan  nan],nan,nan,nan,339.2796732,626.3787125,626.7930589,nan,nan
0,258,17:16:38:064000,6,1,309,217.265625,[-0.02583963  0.41510654  0.4753057 ],1,1,1,0.344534576,0,0,0,0.36900648,0.339523755,0.066458484,0.405982239,0.273065271,nan,nan,nan,[ nan  nan  nan],nan,nan,nan,339.2796732,627.3205044,627.665039,nan,nan
0,259,17:16:39:000000,6,1,80,56.25,[ 1.         -0.18907571 -0.70896555],1,1,1,0.330736771,0,0,0,0.363205911,0.339543102,0.066330789,0.405873891,0.273212312,nan,nan,nan,[ nan  nan  nan],nan,nan,nan,339.2796732,628.2622866,628.5930234,nan,nan
0,260,17:16:39:951000,6,1,17,11.953125,[ 0.98106915  0.13592191 -1.        ],1,1,1,0.34885407,0,0,0,0.341375139,0.339509231,0.066205351,0.405714583,0.27330388,nan,nan,nan,[ nan  nan  nan],nan,nan,nan,339.2796732,629.2041563,629.5530104,nan,nan
0,261,17:16:40:887000,6,1,167,117.421875,[ 1.         -0.19560581  0.22154672],1,1,1,0.423116233,0,0,0,0.367569025,0.339545035,0.066080921,0.405625957,0.273464114,nan,nan,nan,[ nan  nan  nan],nan,nan,nan,339.2796732,630.1458558,630.5689721,nan,nan
0,262,17:16:41:823000,6,1,333,234.140625,[-0.14981348  0.45327595  0.29418374],1,1,1,0.377283586,0,0,0,0.38308463,0.339864009,0.066155701,0.40601971,0.273708308,nan,nan,nan,[ nan  nan  nan],nan,nan,nan,339.2796732,631.0876648,631.4649484,nan,nan
0,263,17:16:42:775000,6,1,465,326.953125,[ 0.45658868  0.37096153 -1.        ],1,1,1,0.483501336,0,0,1,0.427967052,0.340006289,0.06606996,0.406076248,0.273936329,nan,nan,nan,[ nan  nan  nan],nan,nan,nan,339.2796732,632.0294205,632.5129218,nan,nan
0,264,17:16:47:408000,6,1,288,202.5,[ 0.15000513  0.36533195  0.58668724],1,1,1,0.421711564,1,0,0,0.427498829,0.340549831,0.066531231,0.407081062,0.2740186,nan,-119.6758918,298,[ 0.06008966  0.39105034  0.53969689],nan,7.175891831,1.650504749,339.2796732,632.9712013,633.3929128,634.7963808,636.4549233
0,265,17:16:48:344000,6,1,454,319.21875,[ 0.36762736  0.39708484 -1.        ],1,1,1,0.339669693,0,0,0,0.414960864,0.340856101,0.066591778,0.40744788,0.274264323,nan,nan,nan,[ nan  nan  nan],nan,nan,nan,339.2796732,637.60513,637.9447997,nan,nan
0,266,17:16:49:280000,6,1,134,94.21875,[ 1.         -0.304951   -0.09514411],1,1,1,0.317874083,0,0,0,0.35975178,0.340851641,0.066466528,0.407318169,0.274385114,nan,nan,nan,[ nan  nan  nan],nan,nan,nan,339.2796732,638.5469162,638.8647902,nan,nan
0,267,17:16:50:232000,6,1,10,7.03125,[ 0.9268115   0.16840058 -1.        ],1,1,1,0.312070378,0,0,0,0.323204718,0.340765583,0.066356787,0.40712237,0.274408796,nan,nan,nan,[ nan  nan  nan],nan,nan,nan,339.2796732,639.4886941,639.8007645,nan,nan
0,268,17:16:51:168000,6,1,397,279.140625,[-0.02756135  0.47315999 -0.37569455],1,1,1,0.330292021,0,0,0,0.320078827,0.340658511,0.066255975,0.406914487,0.274402536,nan,nan,nan,[ nan  nan  nan],nan,nan,nan,339.2796732,640.4304512,640.7607432,nan,nan
0,269,17:16:52:119000,6,0,101,71.015625,[ 1.         -0.27357267 -0.44615261],0,1,0,0.316460005,0,0,0,0.319607468,0.340619974,0.066135717,0.406755692,0.274484257,nan,nan,nan,[ nan  nan  nan],nan,nan,nan,339.2796732,641.3722685,641.6887285,nan,nan
0,270,17:16:53:055000,6,1,47,33.046875,[ 1.         -0.01707559 -1.        ],1,1,1,0.222674163,0,0,0,0.28980873,0.340530493,0.066029442,0.406559935,0.274501051,nan,nan,nan,[ nan  nan  nan],nan,nan,nan,339.2796732,642.3140384,642.5367126,nan,nan
0,271,17:16:53:991000,6,0,364,255.9375,[-0.16019432  0.47670452 -0.00341125],0,1,0,0.296875887,0,0,0,0.278670018,0.340095599,0.066293778,0.406389376,0.273801821,nan,nan,nan,[ nan  nan  nan],nan,nan,nan,339.2796732,643.2557975,643.5526734,nan,nan
0,272,17:16:54:943000,6,1,305,214.453125,[ 0.00361193  0.40685925  0.50019691],1,1,1,0.251087428,0,0,0,0.256879159,0.339936703,0.066223482,0.406160185,0.273713221,nan,nan,nan,[ nan  nan  nan],nan,nan,nan,339.2796732,644.1975783,644.4486657,nan,nan
0,273,17:16:55:879000,6,1,164,115.3125,[ 1.         -0.20968584  0.19476155],1,1,1,0.293217246,0,0,0,0.28039352,0.339611247,0.066319649,0.405930896,0.273291598,nan,nan,nan,[ nan  nan  nan],nan,nan,nan,339.2796732,645.1394146,645.4326319,nan,nan
0,274,17:16:56:815000,6,1,68,47.8125,[ 1.         -0.12901814 -0.9729032 ],1,1,1,0.30342911,0,0,0,0.282577928,0.339441926,0.066257607,0.405699533,0.273184319,nan,nan,nan,[ nan  nan  nan],nan,nan,nan,339.2796732,646.081172,646.3846012,nan,nan
0,275,17:16:57:767000,6,1,500,351.5625,[ 0.74814593  0.26005829 -1.        ],1,1,1,0.329623756,0,0,0,0.308756704,0.339310971,0.066172544,0.405483514,0.273138427,nan,nan,nan,[ nan  nan  nan],nan,nan,nan,339.2796732,647.0229605,647.3525843,nan,nan
0,276,17:16:58:703000,6,1,340,239.0625,[-0.16683717  0.46098011  0.2323764 ],1,1,1,0.315847333,0,0,0,0.316300066,0.339275872,0.066055121,0.405330993,0.273220751,nan,nan,nan,[ nan  nan  nan],nan,nan,nan,339.2796732,647.9647133,648.2805607,nan,nan
0,277,17:16:59:654000,6,1,423,297.421875,[ 0.13522958  0.45008089 -0.75003992],1,1,1,0.286021986,0,0,0,0.310497692,0.339191292,0.065950751,0.405142043,0.273240541,nan,nan,nan,[ nan  nan  nan],nan,nan,nan,339.2796732,648.9065212,649.1925432,nan,nan
0,278,17:17:00:590000,6,1,129,90.703125,[ 1.         -0.31007049 -0.146368  ],1,1,1,0.328237332,0,0,0,0.310035551,0.339000036,0.065908939,0.404908975,0.273091097,nan,nan,nan,[ nan  nan  nan],nan,nan,nan,339.2796732,649.8482783,650.1765157,nan,nan
0,279,17:17:01:526000,6,1,51,35.859375,[ 1.         -0.03851602 -1.        ],1,1,1,0.330412332,0,0,0,0.31489055,0.33896146,0.065793861,0.404755321,0.273167599,nan,nan,nan,[ nan  nan  nan],nan,nan,nan,339.2796732,650.7900887,651.1205011,nan,nan
0,280,17:17:02:478000,6,1,401,281.953125,[-0.00506341  0.47079689 -0.4252031 ],1,1,1,0.332629241,0,0,0,0.330426302,0.338930927,0.065678247,0.404609174,0.27325268,nan,nan,nan,[ nan  nan  nan],nan,nan,nan,339.2796732,651.7318689,652.0644982,nan,nan
0,281,17:17:03:414000,6,1,56,39.375,[ 1.         -0.06536751 -1.        ],1,1,1,0.318796939,0,0,0,0.327279504,0.338908501,0.065562351,0.404470853,0.27334615,nan,nan,nan,[ nan  nan  nan],nan,nan,nan,339.2796732,652.673652,652.9924489,nan,nan
0,282,17:17:04:350000,6,1,196,137.8125,[ 1.         -0.04136108  0.44913076],1,1,1,0.296996197,0,0,0,0.316140792,0.338837184,0.065456921,0.404294105,0.273380263,nan,nan,nan,[ nan  nan  nan],nan,nan,nan,339.2796732,653.615443,653.9124392,nan,nan
0,283,17:17:05:301000,6,1,66,46.40625,[ 1.         -0.11856871 -1.        ],1,1,1,0.315194178,0,0,0,0.310329105,0.338689336,0.065388323,0.404077659,0.273301013,nan,nan,nan,[ nan  nan  nan],nan,nan,nan,339.2796732,654.5572164,654.8724106,nan,nan
0,284,17:17:06:238000,6,1,242,170.15625,[ 0.63291185  0.19716118  0.6459214 ],1,1,1,0.285390498,0,0,0,0.299193624,0.338606606,0.065287936,0.403894543,0.27331867,nan,nan,nan,[ nan  nan  nan],nan,nan,nan,339.2796732,655.4990015,655.7843919,nan,nan
0,285,17:17:07:189000,6,0,375,263.671875,[-0.1285567   0.47868243 -0.12160516],0,0,1,0.439591662,0,0,0,0.346725446,0.338419883,0.065249217,0.4036691,0.273170666,nan,nan,nan,[ nan  nan  nan],nan,nan,nan,339.2796732,656.4407802,656.8803719,nan,nan
0,286,17:17:08:125000,6,1,471,331.171875,[ 0.50601401  0.35499378 -1.        ],1,1,1,0.257771226,0,0,0,0.327584462,0.338773631,0.065408242,0.404181873,0.273365388,nan,nan,nan,[ nan  nan  nan],nan,nan,nan,339.2796732,657.3825735,657.6403448,nan,nan
0,287,17:17:09:061000,6,1,76,53.4375,[ 1.         -0.16967451 -0.77336583],1,1,1,0.259974735,0,0,0,0.319112541,0.338491392,0.065468418,0.40395981,0.273022974,nan,nan,nan,[ nan  nan  nan],nan,nan,nan,339.2796732,658.3243389,658.5843137,nan,nan
0,288,17:17:10:013000,6,1,341,239.765625,[-0.16853588  0.4619615   0.22326011],1,1,1,0.286161398,0,1,0,0.26796912,0.338218765,0.065517653,0.403736418,0.272701112,nan,nan,nan,[ nan  nan  nan],nan,nan,nan,339.2796732,659.2661203,659.5522817,nan,nan
0,289,17:17:14:006000,6,1,212,149.0625,[ 0.93926289  0.04677313  0.543851  ],1,1,1,0.264369209,1,0,0,0.270168447,0.338038636,0.065475601,0.403514237,0.272563035,nan,172.2482208,395,[-0.03839842  0.47418351 -0.35142722],nan,128.6892792,1.008742192,339.2796732,660.2079036,660.4722728,662.0330652,663.0498605
0,290,17:17:14:942000,6,0,66,46.40625,[ 1.         -0.11856871 -1.        ],0,1,0,0.304072572,0,0,0,0.284867726,0.337784603,0.065505124,0.403289727,0.272279479,nan,nan,nan,[ nan  nan  nan],nan,nan,nan,339.2796732,664.2000848,664.5041574,nan,nan
0,291,17:17:15:878000,6,1,387,272.109375,[-0.07872193  0.47723176 -0.25697445],1,1,1,0.274341307,0,0,0,0.280927696,0.337668754,0.065422228,0.403090982,0.272246526,nan,nan,nan,[ nan  nan  nan],nan,nan,nan,339.2796732,665.1418231,665.4161644,nan,nan
0,292,17:17:16:830000,6,0,3,2.109375,[ 0.87108718  0.19933511 -1.        ],0,0,1,0.428521944,0,0,0,0.335645274,0.337451879,0.065414809,0.402866688,0.27203707,nan,nan,nan,[ nan  nan  nan],nan,nan,nan,339.2796732,666.0836125,666.5121344,nan,nan
0,293,17:17:17:766000,6,1,477,335.390625,[ 0.55587987  0.33778403 -1.        ],1,1,1,0.286736722,0,0,0,0.329866658,0.337762699,0.065518719,0.403281418,0.27224398,nan,nan,nan,[ nan  nan  nan],nan,nan,nan,339.2796732,667.0253887,667.3121254,nan,nan
0,294,17:17:18:702000,6,1,258,181.40625,[ 0.45964229  0.26499291  0.65549006],1,1,1,0.368925418,0,0,0,0.361394695,0.337589141,0.065474631,0.403063772,0.27211451,nan,nan,nan,[ nan  nan  nan],nan,nan,nan,339.2796732,667.9671837,668.3361091,nan,nan
0,295,17:17:19:654000,6,0,456,320.625,[ 0.38361243  0.39263319 -1.        ],0,0,1,0.395124911,0,0,0,0.35026235,0.337695366,0.065388935,0.4030843,0.272306431,nan,nan,nan,[ nan  nan  nan],nan,nan,nan,339.2796732,668.9089517,669.3040766,nan,nan
0,296,17:17:20:590000,6,1,124,87.1875,[ 1.         -0.31157719 -0.19822652],1,1,1,0.213309891,0,0,0,0.32578674,0.337889384,0.065363389,0.403252773,0.272525996,nan,nan,nan,[ nan  nan  nan],nan,nan,nan,339.2796732,669.8507632,670.0640731,nan,nan
0,297,17:17:21:541000,6,1,398,279.84375,[-0.02203778  0.4726088  -0.38794338],1,1,1,0.351510027,0,0,0,0.319981609,0.337469925,0.065651105,0.40312103,0.27181882,nan,nan,nan,[ nan  nan  nan],nan,nan,nan,339.2796732,670.792522,671.1440321,nan,nan
0,298,17:17:22:477000,6,1,161,113.203125,[ 1.         -0.22315835  0.16749055],1,1,1,0.289694596,0,0,0,0.284838171,0.337517039,0.065545889,0.403062928,0.27197115,nan,nan,nan,[ nan  nan  nan],nan,nan,nan,339.2796732,671.734329,672.0240236,nan,nan
0,299,17:17:23:413000,6,1,385,270.703125,[-0.08797966  0.47773344 -0.23392672],1,1,1,0.283890606,0,0,0,0.308365076,0.337357098,0.065494412,0.40285151,0.271862686,nan,nan,nan,[ nan  nan  nan],nan,nan,nan,339.2796732,672.6761098,672.9600004,nan,nan
0,300,17:17:24:365000,6,1,461,324.140625,[ 0.42395965  0.38092737 -1.        ],1,1,1,0.278072932,0,0,0,0.283886045,0.337178876,0.065457747,0.402636624,0.271721129,nan,nan,nan,[ nan  nan  nan],nan,nan,nan,339.2796732,673.617896,673.8959689,nan,nan
0,301,17:17:25:301000,6,1,85,59.765625,[ 1.         -0.21215645 -0.63878123],1,1,1,0.288271966,0,0,0,0.283411835,0.336982511,0.065437371,0.402419882,0.27154514,nan,nan,nan,[ nan  nan  nan],nan,nan,nan,339.2796732,674.5596677,674.8479396,nan,nan
0,302,17:17:26:237000,6,1,391,274.921875,[-0.0591908   0.47591628 -0.30371871],1,1,1,0.314452357,0,0,0,0.293599085,0.336821218,0.065388847,0.402210064,0.271432371,nan,nan,nan,[ nan  nan  nan],nan,nan,nan,339.2796732,675.5014769,675.8159293,nan,nan
0,303,17:17:27:188000,6,1,209,146.953125,[ 0.96730184  0.03048352  0.52805   ],1,1,1,0.308664047,0,0,0,0.303796123,0.336747393,0.06529346,0.402040854,0.271453933,nan,nan,nan,[ nan  nan  nan],nan,nan,nan,339.2796732,676.4432406,676.7519047,nan,nan
0,304,17:17:28:124000,6,1,268,188.4375,[ 0.35230222  0.30236752  0.64500531],1,1,1,0.35086913,0,0,0,0.324661845,0.336655014,0.065205812,0.401860826,0.271449202,nan,nan,nan,[ nan  nan  nan],nan,nan,nan,339.2796732,677.3850234,677.7358925,nan,nan
0,305,17:17:29:076000,6,1,13,9.140625,[ 0.95026217  0.15466406 -1.        ],1,1,1,0.305046176,0,0,0,0.321526451,0.336701617,0.065103901,0.401805518,0.271597717,nan,nan,nan,[ nan  nan  nan],nan,nan,nan,339.2796732,678.3268056,678.6318518,nan,nan
0,306,17:17:30:012000,6,1,154,108.28125,[ 1.         -0.25181315  0.10213817],1,1,1,0.339260865,0,0,0,0.33172539,0.336598168,0.065022539,0.401620707,0.27157563,nan,nan,nan,[ nan  nan  nan],nan,nan,nan,339.2796732,679.2685864,679.6078472,nan,nan
0,307,17:17:30:948000,6,1,467,328.359375,[ 0.47300519  0.36577567 -1.        ],1,1,1,0.317478939,0,0,0,0.320595327,0.336606842,0.06491673,0.401523571,0.271690112,nan,nan,nan,[ nan  nan  nan],nan,nan,nan,339.2796732,680.2103443,680.5278233,nan,nan
0,308,17:17:31:900000,6,1,126,88.59375,[ 1.         -0.31141175 -0.17740843],1,1,1,0.327671416,0,0,0,0.328137074,0.336544738,0.064820394,0.401365132,0.271724344,nan,nan,nan,[ nan  nan  nan],nan,nan,nan,339.2796732,681.152124,681.4797954,nan,nan
0,309,17:17:32:836000,6,1,181,127.265625,[ 1.         -0.12391439  0.33920113],1,1,1,0.369866806,0,0,0,0.338339054,0.336516022,0.064717384,0.401233405,0.271798638,nan,nan,nan,[ nan  nan  nan],nan,nan,nan,339.2796732,682.0939064,682.4637732,nan,nan
0,310,17:17:33:772000,6,1,313,220.078125,[-0.05302215  0.42279583  0.44879796],1,1,1,0.29205947,0,0,0,0.329865897,0.336623605,0.064640586,0.401264191,0.271983019,nan,nan,nan,[ nan  nan  nan],nan,nan,nan,339.2796732,683.0356926,683.3277521,nan,nan
0,311,17:17:34:723000,6,1,143,100.546875,[ 1.         -0.28705753 -0.00469999],1,1,1,0.326262185,0,0,0,0.329396154,0.336480312,0.064585875,0.401066186,0.271894437,nan,nan,nan,[ nan  nan  nan],nan,nan,nan,339.2796732,683.9774725,684.3037347,nan,nan
0,312,17:17:35:659000,6,1,296,208.125,[ 0.07727136  0.38620532  0.55000131],1,1,1,0.264450746,0,0,0,0.294257467,0.336447562,0.064484875,0.400932436,0.271962687,nan,nan,nan,[ nan  nan  nan],nan,nan,nan,339.2796732,684.919255,685.1837058,nan,nan
0,313,17:17:36:595000,6,1,40,28.125,[ 1.          0.02011655 -1.        ],1,1,1,0.226656103,0,0,0,0.272456345,0.33621754,0.064509858,0.400727397,0.271707682,nan,nan,nan,[ nan  nan  nan],nan,nan,nan,339.2796732,685.8610364,686.0876925,nan,nan
0,314,17:17:37:547000,6,1,252,177.1875,[ 0.52472169  0.24069367  0.65569401],1,1,1,0.33284962,0,0,0,0.274652156,0.335868618,0.064702203,0.400570821,0.271166415,nan,nan,nan,[ nan  nan  nan],nan,nan,nan,339.2796732,686.8028191,687.1356688,nan,nan
0,315,17:17:38:483000,6,1,84,59.0625,[ 1.         -0.20765784 -0.65219109],1,1,1,0.32701655,0,0,0,0.295507424,0.335859034,0.064599643,0.400458677,0.271259391,nan,nan,nan,[ nan  nan  nan],nan,nan,nan,339.2796732,687.7446287,688.0716453,nan,nan
0,316,17:17:39:434000,6,1,303,213.046875,[ 0.01913493  0.40252284  0.51201836],1,1,1,0.26521737,0,0,0,0.30836118,0.335831051,0.064499259,0.400330311,0.271331792,nan,nan,nan,[ nan  nan  nan],nan,nan,nan,339.2796732,688.6864135,688.9516309,nan,nan
0,317,17:17:40:370000,6,1,159,111.796875,[ 1.         -0.23176597  0.14905501],1,1,1,0.307408198,0,0,0,0.299880706,0.335608295,0.064519074,0.400127369,0.271089221,nan,nan,nan,[ nan  nan  nan],nan,nan,nan,339.2796732,689.6281914,689.9355996,nan,nan
0,318,17:17:41:306000,6,1,416,292.5,[ 0.08788162  0.4581175  -0.63016532],1,1,1,0.349585627,0,0,0,0.307403732,0.335519616,0.064436896,0.399956512,0.27108272,nan,nan,nan,[ nan  nan  nan],nan,nan,nan,339.2796732,690.5699913,690.9195769,nan,nan
0,319,17:17:42:258000,6,1,336,236.25,[-0.15821161  0.45675811  0.26813527],1,1,1,0.135805612,0,1,0,0.264266479,0.33556371,0.064340623,0.399904333,0.271223086,nan,nan,nan,[ nan  nan  nan],nan,nan,nan,339.2796732,691.5117615,691.6475671,nan,nan
0,320,17:18:01:181000,6,1,469,329.765625,[ 0.4894822   0.36045336 -1.        ],1,1,1,0.266003666,1,0,0,0.250464968,0.334939466,0.065200363,0.400139829,0.269739103,nan,-172.4969126,373,[-0.13540771  0.47855957 -0.09969749],nan,-67.26871239,15.9439458,339.2796732,692.4535434,692.7195471,694.2786976,710.230774
0,321,17:18:02:117000,6,1,392,275.625,[-0.05410679  0.47552228 -0.31554984],1,1,1,0.322236341,0,0,0,0.24134854,0.334724712,0.065211979,0.399936691,0.269512734,nan,nan,nan,[ nan  nan  nan],nan,nan,nan,339.2796732,711.3808618,711.7030982,nan,nan
0,322,17:18:03:068000,6,1,67,47.109375,[ 1.         -0.12380467 -1.        ],1,1,1,0.244415891,0,0,0,0.277551966,0.334685929,0.065114347,0.399800275,0.269571582,nan,nan,nan,[ nan  nan  nan],nan,nan,nan,339.2796732,712.3226691,712.567085,nan,nan
0,323,17:18:04:004000,6,1,498,350.15625,[ 0.73150794  0.26756188 -1.        ],1,1,1,0.254636592,0,0,0,0.273762941,0.334406455,0.065206607,0.399613062,0.269199848,nan,nan,nan,[ nan  nan  nan],nan,nan,nan,339.2796732,713.2644083,713.5190449,nan,nan
0,324,17:18:04:956000,6,1,149,104.765625,[ 1.         -0.26947852  0.05414366],1,1,1,0.224842891,0,1,0,0.241298458,0.334160252,0.065256091,0.399416343,0.26890416,nan,nan,nan,[ nan  nan  nan],nan,nan,nan,339.2796732,714.2061882,714.4310311,nan,nan
0,325,17:18:09:371000,6,1,283,198.984375,[ 0.19826868  0.35105092  0.60582595],1,1,1,0.275042928,1,0,0,0.25150747,0.33382389,0.065436318,0.399260209,0.268387572,nan,-117.926034,296,[ 0.07727136  0.38620532  0.55000131],nan,8.94165897,1.42556464,339.2796732,715.1479724,715.4230153,716.9731522,718.406679
0,326,17:18:10:307000,6,1,182,127.96875,[ 1.         -0.11852384  0.34708947],1,1,1,0.33770595,0,0,0,0.279197256,0.333643581,0.06541669,0.399060271,0.268226891,nan,nan,nan,[ nan  nan  nan],nan,nan,nan,339.2796732,719.5652105,719.9029164,nan,nan
0,327,17:18:11:243000,6,1,34,23.90625,[ 1.          0.05144197 -1.        ],1,1,1,0.243883901,0,0,0,0.28554426,0.333656004,0.065316973,0.398972977,0.268339031,nan,nan,nan,[ nan  nan  nan],nan,nan,nan,339.2796732,720.5070035,720.7508874,nan,nan
0,328,17:18:12:194000,6,1,189,132.890625,[ 1.         -0.08021946  0.40014347],1,1,1,0.230065854,0,0,0,0.270551902,0.333382308,0.065404856,0.398787165,0.267977452,nan,nan,nan,[ nan  nan  nan],nan,nan,nan,339.2796732,721.4487789,721.6788447,nan,nan
0,329,17:18:13:130000,6,0,351,246.796875,[-0.17568629  0.47018527  0.12848998],0,1,0,0.256303835,0,0,0,0.243417863,0.333068277,0.065552566,0.398620842,0.267515711,nan,nan,nan,[ nan  nan  nan],nan,nan,nan,339.2796732,722.3905474,722.6468512,nan,nan
0,330,17:18:14:082000,6,1,507,356.484375,[ 0.80599565  0.23268835 -1.        ],1,1,1,0.202476803,0,0,0,0.229615497,0.332835657,0.065589024,0.398424681,0.267246634,nan,nan,nan,[ nan  nan  nan],nan,nan,nan,339.2796732,723.3323473,723.5348241,nan,nan
0,331,17:18:15:018000,6,1,449,315.703125,[ 0.32809501  0.40764625 -1.        ],1,1,1,0.172662289,0,0,0,0.210480975,0.332441824,0.065879495,0.398321319,0.266562329,nan,nan,nan,[ nan  nan  nan],nan,nan,nan,339.2796732,724.2741206,724.4467829,nan,nan
0,332,17:18:15:954000,6,1,88,61.875,[ 1.         -0.22525759 -0.59993285],1,1,1,0.198862352,0,1,0,0.191333814,0.33196056,0.066360377,0.398320938,0.265600183,nan,nan,nan,[ nan  nan  nan],nan,nan,nan,339.2796732,725.2158963,725.4147586,nan,nan
0,333,17:18:16:906000,6,0,166,116.71875,[ 1.         -0.20036215  0.21267421],0,1,0,0.24906353,0,0,0,0.206862724,0.331560866,0.06665969,0.398220555,0.264901176,nan,nan,nan,[ nan  nan  nan],nan,nan,nan,339.2796732,726.1576811,726.4067446,nan,nan
0,334,17:18:17:842000,6,1,508,357.1875,[ 0.81419982  0.22863893 -1.        ],1,1,1,0.267278331,0,0,0,0.238401404,0.331313868,0.066712262,0.39802613,0.264601605,nan,nan,nan,[ nan  nan  nan],nan,nan,nan,339.2796732,727.0994604,727.3667387,nan,nan
0,335,17:18:18:778000,6,1,148,104.0625,[ 1.         -0.27269559  0.04442646],1,1,1,0.277496752,0,0,0,0.264612871,0.331122717,0.066704158,0.397826875,0.264418559,nan,nan,nan,[ nan  nan  nan],nan,nan,nan,339.2796732,728.0412226,728.3187194,nan,nan
0,336,17:18:19:729000,6,1,470,330.46875,[ 0.49774161  0.35774078 -1.        ],1,1,1,0.311688634,0,0,0,0.285487906,0.330963116,0.06666885,0.397631966,0.264294266,nan,nan,nan,[ nan  nan  nan],nan,nan,nan,339.2796732,728.9830031,729.2946918,nan,nan
0,337,17:18:20:665000,6,0,84,59.0625,[ 1.         -0.20765784 -0.65219109],0,1,0,0.265878508,0,0,0,0.285021298,0.330905922,0.066578116,0.397484038,0.264327805,nan,nan,nan,[ nan  nan  nan],nan,nan,nan,339.2796732,729.9247862,730.1906647,nan,nan
0,338,17:18:21:617000,6,1,486,341.71875,[ 0.63115176  0.30960306 -1.        ],1,1,1,0.324089467,0,0,0,0.300552203,0.330713533,0.066573304,0.397286837,0.264140229,nan,nan,nan,[ nan  nan  nan],nan,nan,nan,339.2796732,730.8665906,731.1906801,nan,nan
0,339,17:18:22:553000,6,1,85,59.765625,[ 1.         -0.21215645 -0.63878123],1,1,1,0.286274867,0,0,0,0.292080947,0.330693993,0.066476011,0.397170004,0.264217981,nan,nan,nan,[ nan  nan  nan],nan,nan,nan,339.2796732,731.8083529,732.0946277,nan,nan
0,340,17:18:23:489000,6,1,492,345.9375,[ 0.68140332  0.28922202 -1.        ],1,1,1,0.27245625,0,0,0,0.294273528,0.330563348,0.06642175,0.396985098,0.264141598,nan,nan,nan,[ nan  nan  nan],nan,nan,nan,339.2796732,732.7501607,733.022617,nan,nan
0,341,17:18:24:440000,6,1,222,156.09375,[ 0.84177847  0.09972916  0.58948469],1,1,1,0.338605429,0,0,0,0.299112182,0.330392946,0.066398671,0.396791617,0.263994276,nan,nan,nan,[ nan  nan  nan],nan,nan,nan,339.2796732,733.6919603,734.0305657,nan,nan
0,342,17:18:25:376000,6,1,443,311.484375,[ 0.28155878  0.41926821 -1.        ],1,1,1,0.308841947,0,0,0,0.306634542,0.330416959,0.066303008,0.396719968,0.264113951,nan,nan,nan,[ nan  nan  nan],nan,nan,nan,339.2796732,734.6337203,734.9425622,nan,nan
0,343,17:18:26:312000,6,1,386,271.40625,[-0.08339466  0.47749559 -0.24542474],1,1,1,0.311027781,0,0,0,0.319491719,0.330354058,0.066216504,0.396570563,0.264137554,nan,nan,nan,[ nan  nan  nan],nan,nan,nan,339.2796732,735.5755085,735.8865362,nan,nan
0,344,17:18:27:264000,6,1,205,144.140625,[ 1.          0.008548    0.50553524],1,1,1,0.337228129,0,0,0,0.319032619,0.330297877,0.066128376,0.396426253,0.264169502,nan,nan,nan,[ nan  nan  nan],nan,nan,nan,339.2796732,736.5172932,736.8545214,nan,nan
0,345,17:18:28:200000,6,1,268,188.4375,[ 0.35230222  0.30236752  0.64500531],1,1,1,0.299417235,0,0,0,0.315891048,0.330317965,0.066033519,0.396351484,0.264284446,nan,nan,nan,[ nan  nan  nan],nan,nan,nan,339.2796732,737.4590751,737.7584924,nan,nan
0,346,17:18:29:136000,6,1,101,71.015625,[ 1.         -0.27357267 -0.44615261],1,1,1,0.293584735,0,0,0,0.310076699,0.330228657,0.065958888,0.396187545,0.264269768,nan,nan,nan,[ nan  nan  nan],nan,nan,nan,339.2796732,738.4008799,738.6944646,nan,nan
0,347,17:18:30:088000,6,1,264,185.625,[ 0.39496696  0.28788971  0.65071762],1,1,1,0.271848995,0,0,0,0.288283655,0.330123054,0.065893063,0.396016118,0.264229991,nan,nan,nan,[ nan  nan  nan],nan,nan,nan,339.2796732,739.342641,739.61449,nan,nan
0,348,17:18:31:024000,6,0,60,42.1875,[ 1.         -0.08678377 -1.        ],0,0,1,0.40199345,0,0,0,0.322475727,0.3299556,0.065872219,0.39582782,0.264083381,nan,nan,nan,[ nan  nan  nan],nan,nan,nan,339.2796732,740.2844254,740.6864189,nan,nan
0,349,17:18:31:975000,6,1,184,129.375,[ 1.         -0.10767189  0.36264005],1,1,1,0.356126876,0,0,0,0.343323107,0.330162012,0.065890387,0.396052399,0.264271626,nan,nan,nan,[ nan  nan  nan],nan,nan,nan,339.2796732,741.2262681,741.582395,nan,nan
0,350,17:18:32:911000,6,1,236,165.9375,[ 0.69700456  0.16930175  0.63406585],1,1,1,0.358417624,0,0,0,0.372179317,0.330236198,0.065810785,0.396046982,0.264425413,nan,nan,nan,[ nan  nan  nan],nan,nan,nan,339.2796732,742.1679613,742.526379,nan,nan
0,351,17:18:33:847000,6,1,136,95.625,[ 1.         -0.3019149  -0.07484121],1,1,1,0.296616449,0,0,0,0.33705365,0.330316487,0.065734134,0.396050621,0.264582353,nan,nan,nan,[ nan  nan  nan],nan,nan,nan,339.2796732,743.1097413,743.4063577,nan,nan
0,352,17:18:34:799000,6,1,301,211.640625,[ 0.03515994  0.39804276  0.52341451],1,1,1,0.418820973,0,0,0,0.357951682,0.330220748,0.065665197,0.395885945,0.264555551,nan,nan,nan,[ nan  nan  nan],nan,nan,nan,339.2796732,744.0515252,744.4703461,nan,nan
0,353,17:18:35:735000,6,1,424,298.125,[ 0.14217456  0.44881957 -0.77022942],1,1,1,0.261019042,0,0,0,0.325485488,0.33047174,0.065740992,0.396212732,0.264730748,nan,nan,nan,[ nan  nan  nan],nan,nan,nan,339.2796732,744.9933091,745.2543281,nan,nan
0,354,17:18:36:671000,6,1,59,41.484375,[ 1.         -0.08144099 -1.        ],1,1,1,0.287150112,0,0,0,0.322330042,0.330275546,0.065751479,0.396027025,0.264524067,nan,nan,nan,[ nan  nan  nan],nan,nan,nan,339.2796732,745.9351201,746.2222702,nan,nan
0,355,17:18:37:622000,6,1,187,131.484375,[ 1.         -0.09124635  0.38538321],1,1,1,0.28137007,0,0,0,0.276513075,0.330154066,0.065698577,0.395852643,0.264455489,nan,nan,nan,[ nan  nan  nan],nan,nan,nan,339.2796732,746.8768912,747.1582612,nan,nan
0,356,17:18:38:558000,6,1,251,176.484375,[ 0.53557652  0.23650919  0.65528415],1,1,1,0.203609205,0,1,0,0.257376462,0.330017032,0.065657024,0.395674056,0.264360008,nan,nan,nan,[ nan  nan  nan],nan,nan,nan,339.2796732,747.8186488,748.022258,nan,nan
0,357,17:18:42:427000,6,1,76,53.4375,[ 1.         -0.16967451 -0.77336583],1,1,1,0.245777225,1,0,0,0.2435855,0.329662949,0.0659045,0.395567449,0.263758449,nan,60.53477862,42,[ 1.          0.00954879 -1.        ],nan,-23.97227862,0.867098378,339.2796732,748.7604647,749.0062419,750.5939722,751.4690988
0,358,17:18:43:363000,6,1,318,223.59375,[-0.08356276  0.43164026  0.41348156],1,1,1,0.354853636,0,0,0,0.268080022,0.329428631,0.065961138,0.395389769,0.263467493,nan,nan,nan,[ nan  nan  nan],nan,nan,nan,339.2796732,752.6192841,752.9741378,nan,nan
0,359,17:18:44:299000,6,0,411,288.984375,[ 0.05552017  0.46302271 -0.55705476],0,1,0,0.261063517,0,0,0,0.287231459,0.329499453,0.065882835,0.395382288,0.263616618,nan,nan,nan,[ nan  nan  nan],nan,nan,nan,339.2796732,753.5610529,753.8221165,nan,nan
0,360,17:18:45:251000,6,1,5,3.515625,[ 0.88714031  0.19065985 -1.        ],1,1,1,0.231256702,0,0,0,0.282391285,0.329309353,0.06588979,0.395199143,0.263419563,nan,nan,nan,[ nan  nan  nan],nan,nan,nan,339.2796732,754.5028354,754.7340921,nan,nan
0,361,17:18:46:187000,6,1,382,268.59375,[-0.10118876  0.47829114 -0.19973227],1,1,1,0.241484531,0,0,0,0.244601583,0.329037739,0.065999976,0.395037715,0.263037763,nan,nan,nan,[ nan  nan  nan],nan,nan,nan,339.2796732,755.4445925,755.6860771,nan,nan
0,362,17:18:47:123000,6,1,330,232.03125,[-0.13976633  0.44951833  0.31954025],1,1,1,0.251685275,0,1,0,0.241475502,0.328795879,0.066068758,0.394864638,0.262727121,nan,nan,nan,[ nan  nan  nan],nan,nan,nan,339.2796732,756.3863653,756.6380506,nan,nan
0,363,17:18:51:319000,6,1,78,54.84375,[ 1.         -0.17946765 -0.73990763],1,1,1,0.245885277,1,0,0,0.246351694,0.328583453,0.066101369,0.394684822,0.262482084,nan,49.57392126,57,[ 1.         -0.07073133 -1.        ],nan,-14.41767126,1.183774202,339.2796732,757.3281524,757.5740377,759.1616701,760.3535775
0,364,17:18:52:255000,6,1,286,201.09375,[ 0.16907896  0.35973478  0.59469871],1,1,1,0.4779029,0,0,0,0.325157817,0.328356261,0.066152279,0.394508539,0.262203982,nan,nan,nan,[ nan  nan  nan],nan,nan,nan,339.2796732,761.5120318,761.9899347,nan,nan
0,365,17:18:53:191000,6,0,198,139.21875,[ 1.         -0.0302355   0.46232694],0,0,1,0.47208437,0,0,0,0.398624182,0.328765977,0.066522466,0.395288444,0.262243511,nan,nan,nan,[ nan  nan  nan],nan,nan,nan,339.2796732,762.4538331,762.9259174,nan,nan
0,366,17:18:54:143000,6,1,312,219.375,[-0.04644836  0.4209252   0.45557321],1,1,1,0.31431323,0,0,0,0.4214335,0.329157558,0.06685144,0.396008998,0.262306118,nan,nan,nan,[ nan  nan  nan],nan,nan,nan,339.2796732,763.3955808,763.709894,nan,nan
0,367,17:18:55:079000,6,1,134,94.21875,[ 1.         -0.304951   -0.09514411],1,1,1,0.292497093,0,0,0,0.359631564,0.32911711,0.066764784,0.395881894,0.262352326,nan,nan,nan,[ nan  nan  nan],nan,nan,nan,339.2796732,764.3373758,764.6298729,nan,nan
0,368,17:18:56:015000,6,1,376,264.375,[-0.12496282  0.47870467 -0.13262763],1,1,1,0.302697552,0,0,0,0.303169292,0.329017599,0.066701257,0.395718856,0.262316342,nan,nan,nan,[ nan  nan  nan],nan,nan,nan,339.2796732,765.2791611,765.5818587,nan,nan
0,369,17:18:56:966000,6,1,327,229.921875,[-0.12808616  0.44548068  0.34417644],1,1,1,0.360899673,0,0,0,0.318698106,0.328946271,0.066624867,0.395571138,0.262321404,nan,nan,nan,[ nan  nan  nan],nan,nan,nan,339.2796732,766.2209411,766.5818407,nan,nan
0,370,17:18:57:902000,6,1,225,158.203125,[ 0.81146625  0.11513113  0.60098195],1,1,1,0.331107112,0,0,0,0.331568112,0.329032632,0.06655545,0.395588082,0.262477181,nan,nan,nan,[ nan  nan  nan],nan,nan,nan,339.2796732,767.1626973,767.4938044,nan,nan
0,371,17:18:58:854000,6,1,81,56.953125,[ 1.         -0.19380425 -0.69421917],1,1,1,0.269276286,0,0,0,0.32042769,0.329038223,0.06646578,0.395504003,0.262572444,nan,nan,nan,[ nan  nan  nan],nan,nan,nan,339.2796732,768.1044998,768.373776,nan,nan
0,372,17:18:59:790000,6,1,20,14.0625,[ 1.          0.12155819 -1.        ],1,1,1,0.247505764,0,0,0,0.28262972,0.328877573,0.066448471,0.395326044,0.262429102,nan,nan,nan,[ nan  nan  nan],nan,nan,nan,339.2796732,769.0462606,769.2937663,nan,nan
0,373,17:19:00:726000,6,1,455,319.921875,[ 0.37560825  0.39487537 -1.        ],1,1,1,0.257701662,0,1,0,0.258161237,0.328659418,0.0664926,0.395152018,0.262166818,nan,nan,nan,[ nan  nan  nan],nan,nan,nan,339.2796732,769.9880416,770.2457433,nan,nan
0,374,17:19:04:891000,6,1,147,103.359375,[ 1.         -0.27580113  0.03467205],1,1,1,0.243883046,1,0,0,0.249696824,0.328469691,0.066504668,0.394974359,0.261965023,nan,-29.63391479,170,[ 1.         -0.18099048  0.24781506],nan,16.27453979,1.167111464,339.2796732,770.9298489,771.173732,772.7633427,773.9384948
0,375,17:19:05:827000,6,1,450,316.40625,[ 0.33594973  0.40559833 -1.        ],1,1,1,0.388903825,0,0,0,0.296829511,0.328244127,0.066559037,0.394803164,0.26168509,nan,nan,nan,[ nan  nan  nan],nan,nan,nan,339.2796732,775.0887091,775.477613,nan,nan
0,376,17:19:06:779000,6,1,0,0,[ 0.84683171  0.21209757 -1.        ],1,1,1,0.415104743,0,0,0,0.349297204,0.328405456,0.066543845,0.394949301,0.261861611,nan,nan,nan,[ nan  nan  nan],nan,nan,nan,339.2796732,776.0304731,776.4455778,nan,nan
0,377,17:19:07:715000,6,0,130,91.40625,[ 1.         -0.30933315 -0.13607149],0,1,0,0.265321145,0,0,0,0.356443238,0.328635427,0.066604979,0.395240406,0.262030448,nan,nan,nan,[ nan  nan  nan],nan,nan,nan,339.2796732,776.9722604,777.2375816,nan,nan
0,378,17:19:08:651000,6,1,183,128.671875,[ 1.         -0.113109    0.35490284],1,1,1,0.243512135,0,0,0,0.307979341,0.328467929,0.066596277,0.395064207,0.261871652,nan,nan,nan,[ nan  nan  nan],nan,nan,nan,339.2796732,777.9140412,778.1575533,nan,nan
0,379,17:19:09:603000,6,1,306,215.15625,[-0.00395437  0.40897401  0.49412883],1,1,1,0.357714577,0,0,0,0.288849286,0.328243772,0.066650997,0.394894768,0.261592775,nan,nan,nan,[ nan  nan  nan],nan,nan,nan,339.2796732,778.8558277,779.2135422,nan,nan
0,380,17:19:10:539000,6,1,160,112.5,[ 1.         -0.22750142  0.15829752],1,1,1,0.319913376,0,0,0,0.307046696,0.328321326,0.066580362,0.394901688,0.261740965,nan,nan,nan,[ nan  nan  nan],nan,nan,nan,339.2796732,779.7976016,780.117515,nan,nan
0,381,17:19:11:490000,6,1,415,291.796875,[ 0.08130773  0.45915368 -0.61496802],1,1,1,0.370147056,0,0,0,0.349258336,0.328299258,0.06649432,0.394793578,0.261804938,nan,nan,nan,[ nan  nan  nan],nan,nan,nan,339.2796732,780.7393801,781.1095271,nan,nan
0,382,17:19:12:426000,6,1,209,146.953125,[ 0.96730184  0.03048352  0.52805   ],1,1,1,0.308296273,0,0,0,0.332785568,0.328408807,0.066441647,0.394850454,0.261967161,nan,nan,nan,[ nan  nan  nan],nan,nan,nan,339.2796732,781.6811686,781.9894648,nan,nan
0,383,17:19:13:362000,6,1,34,23.90625,[ 1.          0.05144197 -1.        ],1,1,1,0.24648683,0,0,0,0.308310053,0.328356294,0.066362789,0.394719083,0.261993505,nan,nan,nan,[ nan  nan  nan],nan,nan,nan,339.2796732,782.6229605,782.8694473,nan,nan
0,384,17:19:14:314000,6,1,270,189.84375,[ 0.33115907  0.30936972  0.64139387],1,1,1,0.256715229,0,0,0,0.270499444,0.328143092,0.066407531,0.394550624,0.261735561,nan,nan,nan,[ nan  nan  nan],nan,nan,nan,339.2796732,783.5647113,783.8214265,nan,nan
0,385,17:19:15:250000,6,1,311,218.671875,[-0.03972498  0.41902022  0.46225021],1,1,1,0.250923498,0,1,0,0.251375186,0.327957566,0.066420803,0.394378369,0.261536762,nan,nan,nan,[ nan  nan  nan],nan,nan,nan,339.2796732,784.5064906,784.7574141,nan,nan
0,386,17:19:19:103000,6,1,371,260.859375,[-0.14179361  0.47833194 -0.07797326],1,1,1,0.213105192,1,0,0,0.240247973,0.327757995,0.066450189,0.394208185,0.261307806,nan,-152.0439339,344,[-0.17254346  0.46473023  0.19550382],nan,-18.81544106,0.867062456,339.2796732,785.4482931,785.6613983,787.2651193,788.1402257
0,387,17:19:20:039000,6,1,54,37.96875,[ 1.         -0.05462921 -1.        ],1,1,1,0.33850479,0,0,0,0.26751116,0.327461735,0.066619044,0.394080779,0.260842691,nan,nan,nan,[ nan  nan  nan],nan,nan,nan,339.2796732,789.2987655,789.6372703,nan,nan
0,388,17:19:20:991000,6,1,205,144.140625,[ 1.          0.008548    0.50553524],1,1,1,0.228685988,0,0,0,0.260098657,0.327490196,0.066535496,0.394025692,0.260954701,nan,nan,nan,[ nan  nan  nan],nan,nan,nan,339.2796732,790.240554,790.46924,nan,nan
0,389,17:19:21:927000,6,1,77,54.140625,[ 1.         -0.17459302 -0.75626719],1,1,1,0.166916459,0,1,0,0.244702412,0.327236201,0.066638,0.393874201,0.260598201,nan,nan,nan,[ nan  nan  nan],nan,nan,nan,339.2796732,791.1823402,791.3492566,nan,nan
0,390,17:19:26:310000,6,0,451,317.109375,[ 0.34383096  0.40351836 -1.        ],0,0,1,0.425073705,1,0,0,0.273558717,0.326825125,0.067044549,0.393869674,0.259780576,nan,169.2711407,399,[-0.01644604  0.47203125 -0.40027452],nan,-36.3805157,1.400611303,339.2796732,792.1241358,792.5492095,793.9492751,795.3578412
0,391,17:19:27:246000,6,1,497,349.453125,[ 0.72317494  0.2712606  -1.        ],1,1,1,0.249176998,0,0,0,0.280389054,0.3270764,0.067142384,0.394218784,0.259934016,nan,nan,nan,[ nan  nan  nan],nan,nan,nan,339.2796732,796.5079555,796.7571325,nan,nan
0,392,17:19:28:198000,6,1,286,201.09375,[ 0.16907896  0.35973478  0.59469871],1,1,1,0.267353027,0,0,0,0.31386791,0.326877677,0.067171723,0.3940494,0.259705954,nan,nan,nan,[ nan  nan  nan],nan,nan,nan,339.2796732,797.4497551,797.7171081,nan,nan
0,393,17:19:29:134000,6,1,164,115.3125,[ 1.         -0.20968584  0.19476155],1,1,1,0.197543781,0,1,0,0.238024602,0.326726215,0.067153199,0.393879414,0.259573016,nan,nan,nan,[ nan  nan  nan],nan,nan,nan,339.2796732,798.3915498,798.5890936,nan,nan
0,394,17:19:32:971000,6,1,369,259.453125,[-0.14769469  0.47799919 -0.05643387],1,1,1,0.231705443,1,0,0,0.23220075,0.326398341,0.067382154,0.393780495,0.259016187,nan,-156.5713072,351,[-0.17568629  0.47018527  0.12848998],nan,-12.88181781,0.84205096,339.2796732,799.3333471,799.5650526,801.1668344,802.0169373
0,395,17:19:33:907000,6,0,436,306.5625,[ 0.22868171  0.43141373 -1.        ],0,0,1,0.413805274,0,0,0,0.281018166,0.326158612,0.06746483,0.393623441,0.258693782,nan,nan,nan,[ nan  nan  nan],nan,nan,nan,339.2796732,803.1671397,803.580945,nan,nan
0,396,17:19:34:859000,6,1,87,61.171875,[ 1.         -0.22095901 -0.61267562],1,1,1,0.288020511,0,0,0,0.311177076,0.326379942,0.067523029,0.39390297,0.258856913,nan,nan,nan,[ nan  nan  nan],nan,nan,nan,339.2796732,804.1089205,804.396941,nan,nan
0,397,17:19:35:795000,6,0,446,313.59375,[ 0.30469626  0.41359904 -1.        ],0,0,1,0.394197493,0,0,0,0.365341093,0.326283318,0.067465339,0.393748657,0.25881798,nan,nan,nan,[ nan  nan  nan],nan,nan,nan,339.2796732,805.0507089,805.4449064,nan,nan
0,398,17:19:36:731000,6,1,259,182.109375,[ 0.44882283  0.26890698  0.65501178],1,1,1,0.276365205,0,0,0,0.319527736,0.326453957,0.067466255,0.393920212,0.258987702,nan,nan,nan,[ nan  nan  nan],nan,nan,nan,339.2796732,805.9925496,806.2689148,nan,nan
0,399,17:19:37:683000,6,1,407,286.171875,[ 0.03058863  0.46645515 -0.50257741],1,1,1,0.342614168,0,0,0,0.337725622,0.326328421,0.067428183,0.393756605,0.258900238,nan,nan,nan,[ nan  nan  nan],nan,nan,nan,339.2796732,806.9342762,807.2768904,nan,nan
0,400,17:19:38:619000,6,1,16,11.25,[ 0.97341943  0.14065211 -1.        ],1,1,1,0.344824804,0,0,0,0.321268059,0.326369136,0.067348756,0.393717892,0.25902038,nan,nan,nan,[ nan  nan  nan],nan,nan,nan,339.2796732,807.8760316,808.2208564,nan,nan
0,401,17:19:39:555000,6,1,433,304.453125,[ 0.2065363   0.43616372 -1.        ],1,1,1,0.331023008,0,0,0,0.339487327,0.32641516,0.067271025,0.393686185,0.259144134,nan,nan,nan,[ nan  nan  nan],nan,nan,nan,339.2796732,808.8178146,809.1488376,nan,nan
0,402,17:19:40:506000,6,1,206,144.84375,[ 0.99472346  0.01405192  0.51131616],1,1,1,0.301233868,0,0,0,0.325693894,0.326426622,0.067187695,0.393614317,0.259238927,nan,nan,nan,[ nan  nan  nan],nan,nan,nan,339.2796732,809.7595909,810.0608247,nan,nan
0,403,17:19:41:442000,6,1,345,242.578125,[-0.17351954  0.46559515  0.18611928],1,1,1,0.303435667,0,0,0,0.311897514,0.326364109,0.067115988,0.393480097,0.259248121,nan,nan,nan,[ nan  nan  nan],nan,nan,nan,339.2796732,810.7013728,811.0048084,nan,nan
0,404,17:19:42:394000,6,1,414,291.09375,[ 0.07478379  0.46016219 -0.60008918],1,1,1,0.289610208,0,0,0,0.298093248,0.326307355,0.067042554,0.393349909,0.259264802,nan,nan,nan,[ nan  nan  nan],nan,nan,nan,339.2796732,811.6431578,811.932768,nan,nan
0,405,17:19:43:330000,6,1,306,215.15625,[-0.00395437  0.40897401  0.49412883],1,1,1,0.259817647,0,0,0,0.28428784,0.326216745,0.066984498,0.393201243,0.259232248,nan,nan,nan,[ nan  nan  nan],nan,nan,nan,339.2796732,812.5849434,812.8447611,nan,nan
0,406,17:19:44:266000,6,1,376,264.375,[-0.12496282  0.47870467 -0.13262763],1,1,1,0.245997605,0,0,0,0.26514182,0.326053201,0.066982862,0.393036063,0.259070338,nan,nan,nan,[ nan  nan  nan],nan,nan,nan,339.2796732,813.5267348,813.7727324,nan,nan
0,407,17:19:45:217000,6,1,106,74.53125,[ 1.         -0.28763007 -0.39056445],1,1,1,0.280207447,0,0,0,0.262007566,0.325856504,0.067017818,0.392874322,0.258838685,nan,nan,nan,[ nan  nan  nan],nan,nan,nan,339.2796732,814.4685067,814.7487141,nan,nan
0,408,17:19:46:153000,6,1,63,44.296875,[ 1.         -0.10274464 -1.        ],1,1,1,0.338379062,0,0,0,0.288194705,0.325744619,0.066973686,0.392718305,0.258770933,nan,nan,nan,[ nan  nan  nan],nan,nan,nan,339.2796732,815.4103134,815.7486925,nan,nan
0,409,17:19:47:089000,6,1,505,355.078125,[ 0.78953796  0.24068314 -1.        ],1,1,1,0.308577378,0,0,0,0.309054629,0.32577551,0.066894671,0.392670181,0.258880839,nan,nan,nan,[ nan  nan  nan],nan,nan,nan,339.2796732,816.3520953,816.6606727,nan,nan
