block,trial,freq_trials,correct_response,actual_response,acc,rts,probe_trials,fast_rt_trigger,slow_rt_trigger,rt_triggered,rts_runningavg,rts_runningstd,rts_runningfastthresh,rts_runningslowthresh,rts_runningstd,rts_trailingavg,trials_colorind0,trials_colorind1,trials_colorind2,trials_colorind3,trials_colorind4,trials_colorind5,wholereport_resp0,wholereport_resp1,wholereport_resp2,wholereport_resp3,wholereport_resp4,wholereport_resp5,wholereport_respacc0,wholereport_respacc1,wholereport_respacc2,wholereport_respacc3,wholereport_respacc4,wholereport_respacc5,wholereport_respacc_total,wholereport_respcolorind0,wholereport_respcolorind1,wholereport_respcolorind2,wholereport_respcolorind3,wholereport_respcolorind4,wholereport_respcolorind5,wholereport_resporder0,wholereport_resporder1,wholereport_resporder2,wholereport_resporder3,wholereport_resporder4,wholereport_resporder5,wholereport_rts0,wholereport_rts1,wholereport_rts2,wholereport_rts3,wholereport_rts4,wholereport_rts5,time_blockstart,time_encarray_offset,time_encarray_onset,time_response,time_iti_offset,time_iti_onset,time_memprobe_offset,time_memprobe_onset
1,1,1,1,1.0,1.0,0.24560531217139214,0,nan,nan,nan,nan,nan,nan,nan,nan,nan,7,0,6,2,5,4,nan,nan,nan,nan,nan,nan,nan,nan,nan,nan,nan,nan,0.0,nan,nan,nan,nan,nan,nan,nan,nan,nan,nan,nan,nan,nan,nan,nan,nan,nan,nan,914.9330117827631,915.9593860394671,nan,916.2049913516385,nan,nan,nan,nan
1,2,1,1,1.0,1.0,0.3808113668928854,0,nan,nan,nan,nan,nan,nan,nan,nan,nan,7,4,5,2,1,0,nan,nan,nan,nan,nan,nan,nan,nan,nan,nan,nan,nan,0.0,nan,nan,nan,nan,nan,nan,nan,nan,nan,nan,nan,nan,nan,nan,nan,nan,nan,nan,914.9330117827631,916.9761710828752,nan,917.3569824497681,nan,nan,nan,nan
1,3,0,0,0.0,1.0,0.43597721168771386,0,nan,nan,nan,nan,nan,nan,nan,nan,nan,5,1,3,0,8,4,nan,nan,nan,nan,nan,nan,nan,nan,nan,nan,nan,nan,0.0,nan,nan,nan,nan,nan,nan,nan,nan,nan,nan,nan,nan,nan,nan,nan,nan,nan,nan,914.9330117827631,917.9929829253233,nan,918.428960137011,nan,nan,nan,nan
1,4,1,1,1.0,1.0,0.3471523300977424,0,nan,nan,nan,nan,nan,nan,nan,nan,nan,6,5,2,7,4,0,nan,nan,nan,nan,nan,nan,nan,nan,nan,nan,nan,nan,0.0,nan,nan,nan,nan,nan,nan,nan,nan,nan,nan,nan,nan,nan,nan,nan,nan,nan,nan,914.9330117827631,919.0097807980492,nan,919.3569331281469,nan,nan,nan,nan
1,5,1,1,1.0,1.0,0.2506503759068437,0,nan,nan,nan,nan,nan,nan,nan,nan,nan,7,0,4,6,3,8,nan,nan,nan,nan,nan,nan,nan,nan,nan,nan,nan,nan,0.0,nan,nan,nan,nan,nan,nan,nan,nan,nan,nan,nan,nan,nan,nan,nan,nan,nan,nan,914.9330117827631,920.2182645790745,nan,920.4689149549813,nan,nan,nan,nan
1,6,1,1,1.0,1.0,0.3138251453056,0,nan,nan,nan,nan,nan,nan,nan,nan,nan,1,2,8,3,4,5,nan,nan,nan,nan,nan,nan,nan,nan,nan,nan,nan,nan,0.0,nan,nan,nan,nan,nan,nan,nan,nan,nan,nan,nan,nan,nan,nan,nan,nan,nan,nan,914.9330117827631,921.2350721450639,nan,921.5488972903695,nan,nan,nan,nan
1,7,1,1,1.0,1.0,0.32099104032386094,0,nan,nan,nan,nan,nan,nan,nan,nan,nan,3,1,7,5,6,0,nan,nan,nan,nan,nan,nan,nan,nan,nan,nan,nan,nan,0.0,nan,nan,nan,nan,nan,nan,nan,nan,nan,nan,nan,nan,nan,nan,nan,nan,nan,nan,914.9330117827631,922.2518722985405,nan,922.5728633388644,nan,nan,nan,nan
1,8,0,0,0.0,1.0,0.48813272488769144,0,nan,nan,nan,nan,nan,nan,nan,nan,nan,2,5,8,1,7,3,nan,nan,nan,nan,nan,nan,nan,nan,nan,nan,nan,nan,0.0,nan,nan,nan,nan,nan,nan,nan,nan,nan,nan,nan,nan,nan,nan,nan,nan,nan,nan,914.9330117827631,923.2686872770428,nan,923.7568200019305,nan,nan,nan,nan
1,9,1,1,1.0,1.0,0.6233430560678244,0,nan,nan,nan,nan,nan,nan,nan,nan,nan,6,0,2,7,1,8,nan,nan,nan,nan,nan,nan,nan,nan,nan,nan,nan,nan,0.0,nan,nan,nan,nan,nan,nan,nan,nan,nan,nan,nan,nan,nan,nan,nan,nan,nan,nan,914.9330117827631,924.2854586358299,nan,924.9088016918977,nan,nan,nan,nan
1,10,1,1,0.0,0.0,0.36416801635641605,0,nan,nan,nan,nan,nan,nan,nan,nan,nan,5,8,6,0,4,7,nan,nan,nan,nan,nan,nan,nan,nan,nan,nan,nan,nan,0.0,nan,nan,nan,nan,nan,nan,nan,nan,nan,nan,nan,nan,nan,nan,nan,nan,nan,nan,914.9330117827631,925.3606020321604,nan,925.7247700485168,nan,nan,nan,nan
1,11,1,1,1.0,1.0,0.571368008852005,0,nan,nan,nan,nan,nan,nan,nan,nan,nan,0,4,2,7,6,5,nan,nan,nan,nan,nan,nan,nan,nan,nan,nan,nan,nan,0.0,nan,nan,nan,nan,nan,nan,nan,nan,nan,nan,nan,nan,nan,nan,nan,nan,nan,nan,914.9330117827631,926.3774007601314,nan,926.9487687689834,nan,nan,nan,nan
1,12,1,1,1.0,1.0,0.3145535663352348,0,nan,nan,nan,nan,nan,nan,nan,nan,nan,4,7,1,6,3,8,nan,nan,nan,nan,nan,nan,nan,nan,nan,nan,nan,nan,0.0,nan,nan,nan,nan,nan,nan,nan,nan,nan,nan,nan,nan,nan,nan,nan,nan,nan,nan,914.9330117827631,927.3941897948971,nan,927.7087433612323,nan,nan,nan,nan
1,13,1,1,1.0,1.0,0.4497111546806991,0,nan,nan,nan,nan,nan,nan,nan,nan,nan,2,6,7,1,8,4,nan,nan,nan,nan,nan,nan,nan,nan,nan,nan,nan,nan,0.0,nan,nan,nan,nan,nan,nan,nan,nan,nan,nan,nan,nan,nan,nan,nan,nan,nan,nan,914.9330117827631,928.410995650338,nan,928.8607068050187,nan,nan,nan,nan
1,14,0,0,0.0,1.0,0.4008844256750308,0,nan,nan,nan,nan,nan,nan,nan,nan,nan,5,8,0,3,1,2,nan,nan,nan,nan,nan,nan,nan,nan,nan,nan,nan,nan,0.0,nan,nan,nan,nan,nan,nan,nan,nan,nan,nan,nan,nan,nan,nan,nan,nan,nan,nan,914.9330117827631,929.4277920975583,nan,929.8286765232333,nan,nan,nan,nan
1,15,1,1,nan,nan,nan,0,nan,nan,nan,nan,nan,nan,nan,nan,nan,8,6,5,0,2,3,nan,nan,nan,nan,nan,nan,nan,nan,nan,nan,nan,nan,0.0,nan,nan,nan,nan,nan,nan,nan,nan,nan,nan,nan,nan,nan,nan,nan,nan,nan,nan,914.9330117827631,930.4446045102086,nan,nan,nan,nan,nan,nan
1,16,1,1,1.0,1.0,0.6791917064110748,0,nan,nan,nan,nan,nan,nan,nan,nan,nan,0,5,3,1,7,8,nan,nan,nan,nan,nan,nan,nan,nan,nan,nan,nan,nan,0.0,nan,nan,nan,nan,nan,nan,nan,nan,nan,nan,nan,nan,nan,nan,nan,nan,nan,nan,914.9330117827631,931.4614545555669,nan,932.140646261978,nan,nan,nan,nan
1,17,1,1,1.0,1.0,0.4464057484292425,0,nan,nan,nan,nan,nan,nan,nan,nan,nan,6,2,1,4,0,3,nan,nan,nan,nan,nan,nan,nan,nan,nan,nan,nan,nan,0.0,nan,nan,nan,nan,nan,nan,nan,nan,nan,nan,nan,nan,nan,nan,nan,nan,nan,nan,914.9330117827631,932.4782105191262,nan,932.9246162675554,nan,nan,nan,nan
1,18,1,1,1.0,1.0,0.3652602201909758,0,nan,nan,nan,nan,nan,nan,nan,nan,nan,0,5,2,6,4,8,nan,nan,nan,nan,nan,nan,nan,nan,nan,nan,nan,nan,0.0,nan,nan,nan,nan,nan,nan,nan,nan,nan,nan,nan,nan,nan,nan,nan,nan,nan,nan,914.9330117827631,933.5033275012393,nan,933.8685877214302,nan,nan,nan,nan
1,19,1,1,1.0,1.0,0.4363920267787762,0,nan,nan,nan,nan,nan,nan,nan,nan,nan,4,8,7,5,3,6,nan,nan,nan,nan,nan,nan,nan,nan,nan,nan,nan,nan,0.0,nan,nan,nan,nan,nan,nan,nan,nan,nan,nan,nan,nan,nan,nan,nan,nan,nan,nan,914.9330117827631,934.5201675682329,nan,934.9565595950116,nan,nan,nan,nan
1,20,0,0,0.0,1.0,0.7316194865852594,0,nan,nan,nan,nan,nan,nan,nan,nan,nan,5,0,3,2,7,8,nan,nan,nan,nan,nan,nan,nan,nan,nan,nan,nan,nan,0.0,nan,nan,nan,nan,nan,nan,nan,nan,nan,nan,nan,nan,nan,nan,nan,nan,nan,nan,914.9330117827631,935.5369218211854,nan,936.2685413077706,nan,nan,nan,nan
1,21,1,1,1.0,1.0,0.6267998484545387,0,nan,nan,nan,nan,nan,nan,nan,nan,nan,7,4,1,3,5,0,nan,nan,nan,nan,nan,nan,nan,nan,nan,nan,nan,nan,0.0,nan,nan,nan,nan,nan,nan,nan,nan,nan,nan,nan,nan,nan,nan,nan,nan,nan,nan,914.9330117827631,936.5537385102944,nan,937.1805383587489,nan,nan,nan,nan
1,22,1,1,1.0,1.0,0.29797863884596154,0,nan,nan,nan,nan,nan,nan,nan,nan,nan,1,7,0,6,3,2,nan,nan,nan,nan,nan,nan,nan,nan,nan,nan,nan,nan,0.0,nan,nan,nan,nan,nan,nan,nan,nan,nan,nan,nan,nan,nan,nan,nan,nan,nan,nan,914.9330117827631,937.5705341022694,nan,937.8685127411154,nan,nan,nan,nan
1,23,1,1,1.0,1.0,0.28115311183501035,0,nan,nan,nan,nan,nan,nan,nan,nan,nan,8,4,5,0,2,7,nan,nan,nan,nan,nan,nan,nan,nan,nan,nan,nan,nan,0.0,nan,nan,nan,nan,nan,nan,nan,nan,nan,nan,nan,nan,nan,nan,nan,nan,nan,nan,914.9330117827631,938.587323422078,nan,938.868476533913,nan,nan,nan,nan
1,24,1,1,1.0,1.0,0.2723248204565607,0,nan,nan,nan,nan,nan,nan,nan,nan,nan,7,1,0,6,3,2,nan,nan,nan,nan,nan,nan,nan,nan,nan,nan,nan,nan,0.0,nan,nan,nan,nan,nan,nan,nan,nan,nan,nan,nan,nan,nan,nan,nan,nan,nan,nan,914.9330117827631,939.604121579905,nan,939.8764464003616,nan,nan,nan,nan
1,25,1,1,1.0,1.0,0.2955042882822454,0,nan,nan,nan,nan,nan,nan,nan,nan,nan,1,4,7,5,0,3,nan,nan,nan,nan,nan,nan,nan,nan,nan,nan,nan,nan,0.0,nan,nan,nan,nan,nan,nan,nan,nan,nan,nan,nan,nan,nan,nan,nan,nan,nan,nan,914.9330117827631,940.6209317117464,nan,940.9164360000286,nan,nan,nan,nan
1,26,1,1,1.0,1.0,0.3586702197208069,0,nan,nan,nan,nan,nan,nan,nan,nan,nan,7,0,8,3,6,1,nan,nan,nan,nan,nan,nan,nan,nan,nan,nan,nan,nan,0.0,nan,nan,nan,nan,nan,nan,nan,nan,nan,nan,nan,nan,nan,nan,nan,nan,nan,nan,914.9330117827631,941.6377301546745,nan,941.9964003743953,nan,nan,nan,nan
1,27,1,1,1.0,1.0,0.2858962586033158,0,nan,nan,nan,nan,nan,nan,nan,nan,nan,4,8,1,5,2,6,nan,nan,nan,nan,nan,nan,nan,nan,nan,nan,nan,nan,0.0,nan,nan,nan,nan,nan,nan,nan,nan,nan,nan,nan,nan,nan,nan,nan,nan,nan,nan,914.9330117827631,942.6544909648946,nan,942.940387223498,nan,nan,nan,nan
1,28,1,1,1.0,1.0,0.25304546975530684,0,nan,nan,nan,nan,nan,nan,nan,nan,nan,0,2,5,1,4,3,nan,nan,nan,nan,nan,nan,nan,nan,nan,nan,nan,nan,0.0,nan,nan,nan,nan,nan,nan,nan,nan,nan,nan,nan,nan,nan,nan,nan,nan,nan,nan,914.9330117827631,943.6713184876135,nan,943.9243639573688,nan,nan,nan,nan
1,29,1,1,1.0,1.0,0.27621239330619574,0,nan,nan,nan,nan,nan,nan,nan,nan,nan,1,0,6,3,8,7,nan,nan,nan,nan,nan,nan,nan,nan,nan,nan,nan,nan,0.0,nan,nan,nan,nan,nan,nan,nan,nan,nan,nan,nan,nan,nan,nan,nan,nan,nan,nan,914.9330117827631,944.6881157901953,nan,944.9643281835015,nan,nan,nan,nan
1,30,1,1,1.0,1.0,0.3714077512267977,0,nan,nan,nan,nan,nan,nan,nan,nan,nan,7,5,1,8,2,3,nan,nan,nan,nan,nan,nan,nan,nan,nan,nan,nan,nan,0.0,nan,nan,nan,nan,nan,nan,nan,nan,nan,nan,nan,nan,nan,nan,nan,nan,nan,nan,914.9330117827631,945.7049170840764,nan,946.0763248353032,nan,nan,nan,nan
1,31,1,1,1.0,1.0,0.3065819892799482,0,nan,nan,nan,nan,nan,nan,nan,nan,nan,2,1,4,7,3,8,nan,nan,nan,nan,nan,nan,nan,nan,nan,nan,nan,nan,0.0,nan,nan,nan,nan,nan,nan,nan,nan,nan,nan,nan,nan,nan,nan,nan,nan,nan,nan,914.9330117827631,946.7217155269464,nan,947.0282975162263,nan,nan,nan,nan
1,32,0,0,1.0,0.0,0.1457543319556862,0,nan,nan,nan,nan,nan,nan,nan,nan,nan,8,4,0,2,5,3,nan,nan,nan,nan,nan,nan,nan,nan,nan,nan,nan,nan,0.0,nan,nan,nan,nan,nan,nan,nan,nan,nan,nan,nan,nan,nan,nan,nan,nan,nan,nan,914.9330117827631,947.7385105487192,nan,947.8842648806749,nan,nan,nan,nan
1,33,1,1,1.0,1.0,0.43292497092625126,1,nan,nan,nan,nan,nan,nan,nan,nan,nan,1,6,3,5,4,7,1.0,1.0,1.0,1.0,1.0,1.0,0.0,0.0,0.0,1.0,0.0,0.0,1.0,3.0,5.0,4.0,5.0,6.0,1.0,3.0,2.0,1.0,6.0,5.0,4.0,4.725985699042212,3.6068490960169584,2.397758630104363,7.253026368271094,6.341245135234203,5.548960866872221,914.9330117827631,948.7553089916473,949.5637274286128,949.1882339625736,957.873140709009,958.8793857429991,950.5805335690966,957.864797936636
1,34,1,1,nan,nan,nan,0,nan,nan,nan,nan,nan,nan,nan,nan,nan,7,5,4,1,0,3,nan,nan,nan,nan,nan,nan,nan,nan,nan,nan,nan,nan,0.0,nan,nan,nan,nan,nan,nan,nan,nan,nan,nan,nan,nan,nan,nan,nan,nan,nan,nan,914.9330117827631,959.0983237194596,nan,nan,nan,nan,nan,nan
1,35,1,1,1.0,1.0,0.4888391934800893,0,nan,nan,nan,nan,nan,nan,nan,nan,nan,5,4,1,0,3,7,nan,nan,nan,nan,nan,nan,nan,nan,nan,nan,nan,nan,0.0,nan,nan,nan,nan,nan,nan,nan,nan,nan,nan,nan,nan,nan,nan,nan,nan,nan,nan,914.9330117827631,960.1151158902212,nan,960.6039550837013,nan,nan,nan,nan
1,36,1,1,1.0,1.0,0.3120184901636094,0,nan,nan,nan,nan,nan,nan,nan,nan,nan,4,1,2,5,8,0,nan,nan,nan,nan,nan,nan,nan,nan,nan,nan,nan,nan,0.0,nan,nan,nan,nan,nan,nan,nan,nan,nan,nan,nan,nan,nan,nan,nan,nan,nan,nan,914.9330117827631,961.1319397067418,nan,961.4439581969054,nan,nan,nan,nan
1,37,1,1,1.0,1.0,0.24720926384907216,0,nan,nan,nan,nan,nan,nan,nan,nan,nan,5,4,0,3,6,2,nan,nan,nan,nan,nan,nan,nan,nan,nan,nan,nan,nan,0.0,nan,nan,nan,nan,nan,nan,nan,nan,nan,nan,nan,nan,nan,nan,nan,nan,nan,nan,914.9330117827631,962.1487287414493,nan,962.3959380052984,nan,nan,nan,nan
1,38,1,1,1.0,1.0,0.2704007056890987,0,nan,nan,nan,nan,nan,nan,nan,nan,nan,4,1,8,6,2,3,nan,nan,nan,nan,nan,nan,nan,nan,nan,nan,nan,nan,0.0,nan,nan,nan,nan,nan,nan,nan,nan,nan,nan,nan,nan,nan,nan,nan,nan,nan,nan,914.9330117827631,963.1655172060127,nan,963.4359179117018,nan,nan,nan,nan
1,39,0,0,1.0,0.0,0.24554145062575117,0,nan,nan,nan,nan,nan,nan,nan,nan,nan,8,3,0,1,5,6,nan,nan,nan,nan,nan,nan,nan,nan,nan,nan,nan,nan,0.0,nan,nan,nan,nan,nan,nan,nan,nan,nan,nan,nan,nan,nan,nan,nan,nan,nan,nan,914.9330117827631,964.1823344652657,nan,964.4278759158915,nan,nan,nan,nan
1,40,1,1,1.0,1.0,0.22072267916519195,0,nan,nan,nan,nan,nan,nan,nan,nan,nan,7,1,5,3,4,0,nan,nan,nan,nan,nan,nan,nan,nan,nan,nan,nan,nan,0.0,nan,nan,nan,nan,nan,nan,nan,nan,nan,nan,nan,nan,nan,nan,nan,nan,nan,nan,914.9330117827631,965.1991277764901,nan,965.4198504556553,nan,nan,nan,nan
1,41,1,1,1.0,1.0,0.27593841578345746,0,nan,nan,nan,nan,nan,nan,nan,nan,nan,5,2,6,0,1,8,nan,nan,nan,nan,nan,nan,nan,nan,nan,nan,nan,nan,0.0,nan,nan,nan,nan,nan,nan,nan,nan,nan,nan,nan,nan,nan,nan,nan,nan,nan,nan,914.9330117827631,966.2159105390892,nan,966.4918489548727,nan,nan,nan,nan
1,42,1,1,1.0,1.0,0.12309659027960151,0,nan,nan,nan,nan,nan,nan,nan,nan,nan,3,6,7,1,0,2,nan,nan,nan,nan,nan,nan,nan,nan,nan,nan,nan,nan,0.0,nan,nan,nan,nan,nan,nan,nan,nan,nan,nan,nan,nan,nan,nan,nan,nan,nan,nan,914.9330117827631,967.2327172498335,nan,967.3558138401131,nan,nan,nan,nan
1,43,1,1,1.0,1.0,0.7702520279563032,0,nan,nan,nan,nan,nan,nan,nan,nan,nan,0,2,6,4,8,5,nan,nan,nan,nan,nan,nan,nan,nan,nan,nan,nan,nan,0.0,nan,nan,nan,nan,nan,nan,nan,nan,nan,nan,nan,nan,nan,nan,nan,nan,nan,nan,914.9330117827631,968.2495205393643,nan,969.0197725673206,nan,nan,nan,nan
1,44,1,1,1.0,1.0,0.46545930294087157,0,nan,nan,nan,nan,nan,nan,nan,nan,nan,3,8,2,0,5,1,nan,nan,nan,nan,nan,nan,nan,nan,nan,nan,nan,nan,0.0,nan,nan,nan,nan,nan,nan,nan,nan,nan,nan,nan,nan,nan,nan,nan,nan,nan,nan,914.9330117827631,969.266307293321,nan,969.7317665962619,nan,nan,nan,nan
1,45,1,1,1.0,1.0,0.29662728251423687,0,nan,nan,nan,nan,nan,nan,nan,nan,nan,1,6,5,2,7,3,nan,nan,nan,nan,nan,nan,nan,nan,nan,nan,nan,nan,0.0,nan,nan,nan,nan,nan,nan,nan,nan,nan,nan,nan,nan,nan,nan,nan,nan,nan,nan,914.9330117827631,970.28312398243,nan,970.5797512649442,nan,nan,nan,nan
1,46,1,1,1.0,1.0,0.3358143361401744,0,nan,nan,nan,nan,nan,nan,nan,nan,nan,6,4,2,0,8,1,nan,nan,nan,nan,nan,nan,nan,nan,nan,nan,nan,nan,0.0,nan,nan,nan,nan,nan,nan,nan,nan,nan,nan,nan,nan,nan,nan,nan,nan,nan,nan,914.9330117827631,971.2999113065889,nan,971.6357256427291,nan,nan,nan,nan
1,47,1,1,1.0,1.0,0.2629893427947536,0,nan,nan,nan,nan,nan,nan,nan,nan,nan,5,3,7,1,4,0,nan,nan,nan,nan,nan,nan,nan,nan,nan,nan,nan,nan,0.0,nan,nan,nan,nan,nan,nan,nan,nan,nan,nan,nan,nan,nan,nan,nan,nan,nan,nan,914.9330117827631,972.3167188725783,nan,972.5797082153731,nan,nan,nan,nan
1,48,1,1,1.0,1.0,0.27014126803260297,0,nan,nan,nan,nan,nan,nan,nan,nan,nan,3,7,5,4,1,8,nan,nan,nan,nan,nan,nan,nan,nan,nan,nan,nan,nan,0.0,nan,nan,nan,nan,nan,nan,nan,nan,nan,nan,nan,nan,nan,nan,nan,nan,nan,nan,914.9330117827631,973.3335315703298,nan,973.6036728383624,nan,nan,nan,nan
1,49,1,1,1.0,1.0,0.22932488919468597,0,nan,nan,nan,nan,nan,nan,nan,nan,nan,8,6,0,1,7,3,nan,nan,nan,nan,nan,nan,nan,nan,nan,nan,nan,nan,0.0,nan,nan,nan,nan,nan,nan,nan,nan,nan,nan,nan,nan,nan,nan,nan,nan,nan,nan,914.9330117827631,974.3503208901384,nan,974.5796457793331,nan,nan,nan,nan
1,50,1,1,1.0,1.0,0.3245259490213357,0,nan,nan,nan,nan,nan,nan,nan,nan,nan,3,4,2,0,8,1,nan,nan,nan,nan,nan,nan,nan,nan,nan,nan,nan,nan,0.0,nan,nan,nan,nan,nan,nan,nan,nan,nan,nan,nan,nan,nan,nan,nan,nan,nan,nan,914.9330117827631,975.3671084993985,nan,975.6916344484198,nan,nan,nan,nan
1,51,1,1,1.0,1.0,0.34769087698077783,0,nan,nan,nan,nan,nan,nan,nan,nan,nan,1,3,8,6,2,7,nan,nan,nan,nan,nan,nan,nan,nan,nan,nan,nan,nan,0.0,nan,nan,nan,nan,nan,nan,nan,nan,nan,nan,nan,nan,nan,nan,nan,nan,nan,nan,914.9330117827631,976.3839160653879,nan,976.7316069423687,nan,nan,nan,nan
1,52,0,0,1.0,0.0,0.2268616573419422,0,nan,nan,nan,nan,nan,nan,nan,nan,nan,8,7,6,2,0,4,nan,nan,nan,nan,nan,nan,nan,nan,nan,nan,nan,nan,0.0,nan,nan,nan,nan,nan,nan,nan,nan,nan,nan,nan,nan,nan,nan,nan,nan,nan,nan,914.9330117827631,977.4007170741679,nan,977.6275787315099,nan,nan,nan,nan
1,53,1,1,1.0,1.0,0.2896871838020161,1,nan,nan,nan,nan,nan,nan,nan,nan,nan,5,2,0,1,3,8,1.0,1.0,1.0,1.0,1.0,1.0,1.0,0.0,0.0,0.0,0.0,0.0,1.0,5.0,7.0,7.0,2.0,5.0,4.0,1.0,6.0,5.0,4.0,3.0,2.0,2.8726343780290335,6.949582433735486,6.309545850206632,5.653934742033016,4.902492796361912,3.9598173901322298,914.9330117827631,978.4258651318378,979.2342553442577,978.7155523156398,987.243625033414,988.2535013387096,980.2510609145393,987.2353027879726
1,54,0,0,1.0,0.0,0.7341539924964309,0,nan,nan,nan,nan,nan,nan,nan,nan,nan,2,7,8,3,5,4,nan,nan,nan,nan,nan,nan,nan,nan,nan,nan,nan,nan,0.0,nan,nan,nan,nan,nan,nan,nan,nan,nan,nan,nan,nan,nan,nan,nan,nan,nan,nan,914.9330117827631,988.4771536671906,nan,989.211307659687,nan,nan,nan,nan
1,55,1,1,nan,nan,nan,0,nan,nan,nan,nan,nan,nan,nan,nan,nan,8,4,3,6,2,0,nan,nan,nan,nan,nan,nan,nan,nan,nan,nan,nan,nan,0.0,nan,nan,nan,nan,nan,nan,nan,nan,nan,nan,nan,nan,nan,nan,nan,nan,nan,nan,914.9330117827631,989.502298018604,nan,nan,nan,nan,nan,nan
1,56,1,1,1.0,1.0,0.32386338530341163,0,nan,nan,nan,nan,nan,nan,nan,nan,nan,7,6,8,0,4,3,nan,nan,nan,nan,nan,nan,nan,nan,nan,nan,nan,nan,0.0,nan,nan,nan,nan,nan,nan,nan,nan,nan,nan,nan,nan,nan,nan,nan,nan,nan,nan,914.9330117827631,990.5274070180021,nan,990.8512704033055,nan,nan,nan,nan
1,57,1,1,1.0,1.0,0.010679991741199046,0,nan,nan,nan,nan,nan,nan,nan,nan,nan,1,0,2,8,6,4,nan,nan,nan,nan,nan,nan,nan,nan,nan,nan,nan,nan,0.0,nan,nan,nan,nan,nan,nan,nan,nan,nan,nan,nan,nan,nan,nan,nan,nan,nan,nan,914.9330117827631,991.5525516544585,nan,991.5632316461997,nan,nan,nan,nan
1,58,1,1,1.0,1.0,0.4415471376851201,0,nan,nan,nan,nan,nan,nan,nan,nan,nan,4,5,7,2,8,6,nan,nan,nan,nan,nan,nan,nan,nan,nan,nan,nan,nan,0.0,nan,nan,nan,nan,nan,nan,nan,nan,nan,nan,nan,nan,nan,nan,nan,nan,nan,nan,914.9330117827631,992.5776712024817,nan,993.0192183401668,nan,nan,nan,nan
1,59,1,1,1.0,1.0,0.30435652774758637,1,nan,nan,nan,nan,nan,nan,nan,nan,nan,5,0,2,4,3,1,1.0,1.0,1.0,1.0,1.0,1.0,0.0,1.0,0.0,1.0,0.0,0.0,2.0,1.0,0.0,5.0,4.0,7.0,4.0,1.0,6.0,5.0,4.0,3.0,2.0,3.287012980727013,8.524203391105402,7.292754819791298,6.141080463596154,5.293434489285573,4.53311749646673,914.9330117827631,993.6028366509709,994.4112280037953,993.9071931787184,1003.9874742950196,1004.9919332008576,995.4280384207377,1003.9791463476722
1,60,1,1,1.0,1.0,0.7502721956698224,0,nan,nan,nan,nan,nan,nan,nan,nan,nan,6,1,5,0,4,8,nan,nan,nan,nan,nan,nan,nan,nan,nan,nan,nan,nan,0.0,nan,nan,nan,nan,nan,nan,nan,nan,nan,nan,nan,nan,nan,nan,nan,nan,nan,nan,914.9330117827631,1005.2126615819288,nan,1005.9629337775987,nan,nan,nan,nan
1,61,1,1,1.0,1.0,0.40541603101883084,0,nan,nan,nan,nan,nan,nan,nan,nan,nan,4,3,0,8,2,6,nan,nan,nan,nan,nan,nan,nan,nan,nan,nan,nan,nan,0.0,nan,nan,nan,nan,nan,nan,nan,nan,nan,nan,nan,nan,nan,nan,nan,nan,nan,nan,914.9330117827631,1006.2294916704996,nan,1006.6349077015184,nan,nan,nan,nan
1,62,1,1,1.0,1.0,0.30062290688510984,0,nan,nan,nan,nan,nan,nan,nan,nan,nan,1,0,8,3,4,2,nan,nan,nan,nan,nan,nan,nan,nan,nan,nan,nan,nan,0.0,nan,nan,nan,nan,nan,nan,nan,nan,nan,nan,nan,nan,nan,nan,nan,nan,nan,nan,914.9330117827631,1007.2462798499619,nan,1007.546902756847,nan,nan,nan,nan
1,63,1,1,1.0,1.0,0.23581681650830433,0,nan,nan,nan,nan,nan,nan,nan,nan,nan,8,6,2,7,0,3,nan,nan,nan,nan,nan,nan,nan,nan,nan,nan,nan,nan,0.0,nan,nan,nan,nan,nan,nan,nan,nan,nan,nan,nan,nan,nan,nan,nan,nan,nan,nan,914.9330117827631,1008.2630546299042,nan,1008.4988714464125,nan,nan,nan,nan
1,64,1,1,1.0,1.0,0.29896849318174645,0,nan,nan,nan,nan,nan,nan,nan,nan,nan,4,0,7,8,3,2,nan,nan,nan,nan,nan,nan,nan,nan,nan,nan,nan,nan,0.0,nan,nan,nan,nan,nan,nan,nan,nan,nan,nan,nan,nan,nan,nan,nan,nan,nan,nan,914.9330117827631,1009.2798650468467,nan,1009.5788335400284,nan,nan,nan,nan
1,65,1,1,1.0,1.0,0.2417930046794936,1,nan,nan,nan,nan,nan,nan,nan,nan,nan,5,7,0,2,4,8,1.0,1.0,1.0,1.0,1.0,1.0,1.0,0.0,0.0,0.0,0.0,1.0,2.0,5.0,4.0,7.0,5.0,1.0,8.0,1.0,6.0,5.0,4.0,3.0,2.0,1.9125775069696829,5.989803531614598,4.8060125094489194,4.0943930970388465,3.461863668693695,2.7580005855998024,914.9330117827631,1010.3050279294839,1011.1134081635391,1010.5468209341634,1018.1559901436558,1019.1564243453322,1012.130208887218,1018.1476564943441
1,66,1,1,nan,nan,nan,0,nan,nan,nan,nan,nan,nan,nan,nan,nan,3,2,1,6,0,5,nan,nan,nan,nan,nan,nan,nan,nan,nan,nan,nan,nan,0.0,nan,nan,nan,nan,nan,nan,nan,nan,nan,nan,nan,nan,nan,nan,nan,nan,nan,nan,914.9330117827631,1019.3811454997631,nan,nan,nan,nan,nan,nan
1,67,1,1,1.0,1.0,0.6445590658695437,0,nan,nan,nan,nan,nan,nan,nan,nan,nan,1,6,3,7,2,8,nan,nan,nan,nan,nan,nan,nan,nan,nan,nan,nan,nan,0.0,nan,nan,nan,nan,nan,nan,nan,nan,nan,nan,nan,nan,nan,nan,nan,nan,nan,nan,914.9330117827631,1020.3980072340346,nan,1021.0425662999041,nan,nan,nan,nan
1,68,1,1,1.0,1.0,0.3877956555224955,0,nan,nan,nan,nan,nan,nan,nan,nan,nan,3,0,1,2,4,5,nan,nan,nan,nan,nan,nan,nan,nan,nan,nan,nan,nan,0.0,nan,nan,nan,nan,nan,nan,nan,nan,nan,nan,nan,nan,nan,nan,nan,nan,nan,nan,914.9330117827631,1021.4147751716664,nan,1021.8025708271889,nan,nan,nan,nan
1,69,0,0,nan,nan,nan,0,nan,nan,nan,nan,nan,nan,nan,nan,nan,7,5,4,8,0,2,nan,nan,nan,nan,nan,nan,nan,nan,nan,nan,nan,nan,0.0,nan,nan,nan,nan,nan,nan,nan,nan,nan,nan,nan,nan,nan,nan,nan,nan,nan,nan,914.9330117827631,1022.4399064086028,nan,nan,nan,nan,nan,nan
1,70,1,1,1.0,1.0,0.7217856606002897,0,nan,nan,nan,nan,nan,nan,nan,nan,nan,3,4,1,7,2,8,nan,nan,nan,nan,nan,nan,nan,nan,nan,nan,nan,nan,0.0,nan,nan,nan,nan,nan,nan,nan,nan,nan,nan,nan,nan,nan,nan,nan,nan,nan,nan,914.9330117827631,1023.4567196765565,nan,1024.1785053371568,nan,nan,nan,nan
1,71,1,1,1.0,1.0,0.3609755082288757,0,nan,nan,nan,nan,nan,nan,nan,nan,nan,6,7,3,2,5,1,nan,nan,nan,nan,nan,nan,nan,nan,nan,nan,nan,nan,0.0,nan,nan,nan,nan,nan,nan,nan,nan,nan,nan,nan,nan,nan,nan,nan,nan,nan,nan,914.9330117827631,1024.4735201151343,nan,1024.8344956233632,nan,nan,nan,nan
1,72,1,1,1.0,1.0,0.20815249916631728,0,nan,nan,nan,nan,nan,nan,nan,nan,nan,1,2,8,6,3,0,nan,nan,nan,nan,nan,nan,nan,nan,nan,nan,nan,nan,0.0,nan,nan,nan,nan,nan,nan,nan,nan,nan,nan,nan,nan,nan,nan,nan,nan,nan,nan,914.9330117827631,1025.4903108604485,nan,1025.6984633596148,nan,nan,nan,nan
1,73,1,1,1.0,1.0,0.30335042293882,0,nan,nan,nan,nan,nan,nan,nan,nan,nan,4,1,3,8,7,6,nan,nan,nan,nan,nan,nan,nan,nan,nan,nan,nan,nan,0.0,nan,nan,nan,nan,nan,nan,nan,nan,nan,nan,nan,nan,nan,nan,nan,nan,nan,nan,914.9330117827631,1026.5071027461672,nan,1026.810453169106,nan,nan,nan,nan
1,74,0,0,0.0,1.0,0.5741804836434312,0,nan,nan,nan,nan,nan,nan,nan,nan,nan,7,5,2,3,4,0,nan,nan,nan,nan,nan,nan,nan,nan,nan,nan,nan,nan,0.0,nan,nan,nan,nan,nan,nan,nan,nan,nan,nan,nan,nan,nan,nan,nan,nan,nan,nan,914.9330117827631,1027.532229706645,nan,1028.1064101902884,nan,nan,nan,nan
1,75,1,1,1.0,1.0,0.6373655165662058,0,nan,nan,nan,nan,nan,nan,nan,nan,nan,4,3,5,0,8,7,nan,nan,nan,nan,nan,nan,nan,nan,nan,nan,nan,nan,0.0,nan,nan,nan,nan,nan,nan,nan,nan,nan,nan,nan,nan,nan,nan,nan,nan,nan,nan,914.9330117827631,1028.549017030804,nan,1029.1863825473702,nan,nan,nan,nan
1,76,1,1,1.0,1.0,0.41250609036069363,0,nan,nan,nan,nan,nan,nan,nan,nan,nan,3,4,8,1,5,6,nan,nan,nan,nan,nan,nan,nan,nan,nan,nan,nan,nan,0.0,nan,nan,nan,nan,nan,nan,nan,nan,nan,nan,nan,nan,nan,nan,nan,nan,nan,nan,914.9330117827631,1029.5658585233032,nan,1029.9783646136639,nan,nan,nan,nan
1,77,1,1,1.0,1.0,0.34770627215038985,0,nan,nan,nan,nan,nan,nan,nan,nan,nan,2,0,7,8,3,4,nan,nan,nan,nan,nan,nan,nan,nan,nan,nan,nan,nan,0.0,nan,nan,nan,nan,nan,nan,nan,nan,nan,nan,nan,nan,nan,nan,nan,nan,nan,nan,914.9330117827631,1030.5826444219565,nan,1030.930350694107,nan,nan,nan,nan
1,78,1,1,0.0,0.0,0.5308800608036108,0,nan,nan,nan,nan,nan,nan,nan,nan,nan,0,3,4,6,1,5,nan,nan,nan,nan,nan,nan,nan,nan,nan,nan,nan,nan,0.0,nan,nan,nan,nan,nan,nan,nan,nan,nan,nan,nan,nan,nan,nan,nan,nan,nan,nan,914.9330117827631,1031.5994371629786,nan,1032.1303172237822,nan,nan,nan,nan
1,79,1,1,1.0,1.0,0.6340552635956556,0,nan,nan,nan,nan,nan,nan,nan,nan,nan,3,2,5,0,6,4,nan,nan,nan,nan,nan,nan,nan,nan,nan,nan,nan,nan,0.0,nan,nan,nan,nan,nan,nan,nan,nan,nan,nan,nan,nan,nan,nan,nan,nan,nan,nan,914.9330117827631,1032.6162316145492,nan,1033.2502868781448,nan,nan,nan,nan
1,80,1,1,1.0,1.0,0.3212524735718034,0,nan,nan,nan,nan,nan,nan,nan,nan,nan,7,0,8,4,2,5,nan,nan,nan,nan,nan,nan,nan,nan,nan,nan,nan,nan,0.0,nan,nan,nan,nan,nan,nan,nan,nan,nan,nan,nan,nan,nan,nan,nan,nan,nan,nan,914.9330117827631,1033.6330277766683,nan,1033.9542802502401,nan,nan,nan,nan
1,81,1,1,1.0,1.0,0.34406302677234635,0,0.0,0.0,0.0,0.3800732450396754,0.1585003849874036,0.22157286005227178,0.5385736300270789,0.1585003849874036,0.4331235879799351,0,3,2,5,1,8,nan,nan,nan,nan,nan,nan,nan,nan,nan,nan,nan,nan,0.0,nan,nan,nan,nan,nan,nan,nan,nan,nan,nan,nan,nan,nan,nan,nan,nan,nan,nan,914.9330117827631,1034.6581949357642,nan,1035.0022579625365,nan,nan,nan,nan
1,82,1,1,1.0,1.0,0.24728167825378478,0,0.0,0.0,0.0,0.37959942637826316,0.15750762623946352,0.22209180013879964,0.5371070526177266,0.15750762623946352,0.30419905953264487,7,0,5,4,6,3,nan,nan,nan,nan,nan,nan,nan,nan,nan,nan,nan,nan,0.0,nan,nan,nan,nan,nan,nan,nan,nan,nan,nan,nan,nan,nan,nan,nan,nan,nan,nan,914.9330117827631,1035.674954890681,nan,1035.9222365689347,nan,nan,nan,nan
1,83,1,1,1.0,1.0,0.3184399987803772,0,0.0,0.0,0.0,0.3778810140649582,0.1571969641578397,0.2206840499071185,0.5350779782227979,0.1571969641578397,0.3032615679355028,4,2,8,6,3,1,nan,nan,nan,nan,nan,nan,nan,nan,nan,nan,nan,nan,0.0,nan,nan,nan,nan,nan,nan,nan,nan,nan,nan,nan,nan,nan,nan,nan,nan,nan,nan,914.9330117827631,1036.6917718648328,nan,1037.0102118636132,nan,nan,nan,nan
1,84,1,1,1.0,1.0,0.325589643267449,0,0.0,0.0,0.0,0.37711894976643795,0.15632912860111767,0.22078982116532028,0.5334480783675556,0.15632912860111767,0.29710377343387034,2,7,6,4,0,5,nan,nan,nan,nan,nan,nan,nan,nan,nan,nan,nan,nan,0.0,nan,nan,nan,nan,nan,nan,nan,nan,nan,nan,nan,nan,nan,nan,nan,nan,nan,nan,914.9330117827631,1037.7086102212197,nan,1038.0341998644872,nan,nan,nan,nan
1,85,1,1,1.0,1.0,0.3408457152545452,0,0.0,0.0,0.0,0.37646668006391915,0.15544333419305542,0.22102334587086372,0.5319100142569746,0.15544333419305542,0.32829178576745716,4,0,7,5,8,6,nan,nan,nan,nan,nan,nan,nan,nan,nan,nan,nan,nan,0.0,nan,nan,nan,nan,nan,nan,nan,nan,nan,nan,nan,nan,nan,nan,nan,nan,nan,nan,914.9330117827631,1038.7253322583856,nan,1039.0661779736402,nan,nan,nan,nan
1,86,1,1,1.0,1.0,0.4359643823117949,0,0.0,0.0,0.0,0.37602141800380195,0.1545194475595643,0.22150197044423767,0.5305408655633662,0.1545194475595643,0.3674665802779297,5,3,8,4,7,2,nan,nan,nan,nan,nan,nan,nan,nan,nan,nan,nan,nan,0.0,nan,nan,nan,nan,nan,nan,nan,nan,nan,nan,nan,nan,nan,nan,nan,nan,nan,nan,914.9330117827631,1039.7421708998736,nan,1040.1781352821854,nan,nan,nan,nan
1,87,1,1,1.0,1.0,0.3391599410097115,0,0.0,0.0,0.0,0.37676145460019694,0.15370524834657154,0.2230562062536254,0.5304667029467685,0.15370524834657154,0.3719900128586839,6,8,2,1,5,0,nan,nan,nan,nan,nan,nan,nan,nan,nan,nan,nan,nan,0.0,nan,nan,nan,nan,nan,nan,nan,nan,nan,nan,nan,nan,nan,nan,nan,nan,nan,nan,914.9330117827631,1040.7589590792777,nan,1041.0981190202874,nan,nan,nan,nan
1,88,1,1,1.0,1.0,0.46630432829260826,0,0.0,0.0,0.0,0.3763028995564105,0.1528208820958086,0.2234820174606019,0.5291237816522191,0.1528208820958086,0.4138095505380382,5,0,4,2,8,6,nan,nan,nan,nan,nan,nan,nan,nan,nan,nan,nan,nan,0.0,nan,nan,nan,nan,nan,nan,nan,nan,nan,nan,nan,nan,nan,nan,nan,nan,nan,nan,914.9330117827631,1041.7757697813795,nan,1042.242074109672,nan,nan,nan,nan
1,89,1,1,1.0,1.0,0.34550561395008117,0,0.0,0.0,0.0,0.37738725411949725,0.15221453107679161,0.22517272304270564,0.5296017851962889,0.15221453107679161,0.3836566277508003,4,8,1,3,2,7,nan,nan,nan,nan,nan,nan,nan,nan,nan,nan,nan,nan,0.0,nan,nan,nan,nan,nan,nan,nan,nan,nan,nan,nan,nan,nan,nan,nan,nan,nan,nan,914.9330117827631,1042.7925670839031,nan,1043.1380726978532,nan,nan,nan,nan
1,90,1,1,1.0,1.0,0.2886748069431633,0,0.0,0.0,0.0,0.3770077107841471,0.15134528508249073,0.22566242570165634,0.5283529958666378,0.15134528508249073,0.36682824972861755,7,2,0,5,6,1,nan,nan,nan,nan,nan,nan,nan,nan,nan,nan,nan,nan,0.0,nan,nan,nan,nan,nan,nan,nan,nan,nan,nan,nan,nan,nan,nan,nan,nan,nan,nan,914.9330117827631,1043.8093578292173,nan,1044.0980326361605,nan,nan,nan,nan
1,91,1,1,1.0,1.0,0.2318542633438483,0,0.0,0.0,0.0,0.3759685001507237,0.15075356251807942,0.22521493763264427,0.5267220626688032,0.15075356251807942,0.28867822807903093,1,5,6,0,4,7,nan,nan,nan,nan,nan,nan,nan,nan,nan,nan,nan,nan,0.0,nan,nan,nan,nan,nan,nan,nan,nan,nan,nan,nan,nan,nan,nan,nan,nan,nan,nan,914.9330117827631,1044.8261648250045,nan,1045.0580190883484,nan,nan,nan,nan
1,92,1,1,1.0,1.0,0.30306190554983914,0,0.0,0.0,0.0,0.3742927532111089,0.15066872355918312,0.22362402965192577,0.524961476770292,0.15066872355918312,0.2745303252789502,5,1,0,6,8,4,nan,nan,nan,nan,nan,nan,nan,nan,nan,nan,nan,nan,0.0,nan,nan,nan,nan,nan,nan,nan,nan,nan,nan,nan,nan,nan,nan,nan,nan,nan,nan,914.9330117827631,1045.8429424559,nan,1046.1460043614497,nan,nan,nan,nan
1,93,1,1,1.0,1.0,0.24622397107305005,0,0.0,0.0,0.0,0.373474007835692,0.1499926067144046,0.22348140112128742,0.5234666145500966,0.1499926067144046,0.2603800466555792,0,8,7,4,6,3,nan,nan,nan,nan,nan,nan,nan,nan,nan,nan,nan,nan,0.0,nan,nan,nan,nan,nan,nan,nan,nan,nan,nan,nan,nan,nan,nan,nan,nan,nan,nan,914.9330117827631,1046.8597420392325,nan,1047.1059660103056,nan,nan,nan,nan
1,94,1,1,1.0,1.0,0.19742061995202675,0,0.0,0.0,0.0,0.37202798469066195,0.14974658917648354,0.22228139551417841,0.5217745738671455,0.14974658917648354,0.248902165524972,7,0,5,8,3,1,nan,nan,nan,nan,nan,nan,nan,nan,nan,nan,nan,nan,0.0,nan,nan,nan,nan,nan,nan,nan,nan,nan,nan,nan,nan,nan,nan,nan,nan,nan,nan,914.9330117827631,1047.876538771554,nan,1048.073959391506,nan,nan,nan,nan
1,95,1,1,1.0,1.0,0.24458495259750634,0,0.0,0.0,0.0,0.3700661041879807,0.15003597989439826,0.22003012429358243,0.5201020840823789,0.15003597989439826,0.22940984787419438,0,5,7,2,6,3,nan,nan,nan,nan,nan,nan,nan,nan,nan,nan,nan,nan,0.0,nan,nan,nan,nan,nan,nan,nan,nan,nan,nan,nan,nan,nan,nan,nan,nan,nan,nan,914.9330117827631,1048.893342631287,nan,1049.1379275838844,nan,nan,nan,nan
1,96,1,1,1.0,1.0,0.11576619482366368,1,1.0,0.0,1.0,0.36867186917030875,0.14977877566540518,0.21889309350490357,0.5184506448357139,0.14977877566540518,0.18592392245773226,4,3,6,7,8,1,1.0,1.0,1.0,1.0,1.0,1.0,1.0,0.0,0.0,0.0,0.0,1.0,2.0,4.0,2.0,1.0,5.0,4.0,1.0,2.0,3.0,4.0,5.0,6.0,1.0,3.4312560172984377,4.384180064487737,7.104273678734899,7.975916491879616,9.047051434463356,2.2718909038812853,914.9330117827631,1049.9101450655726,1050.718563217437,1050.0259112603962,1060.8281989869429,1061.8370626302785,1051.7437055731425,1060.8198761712993
1,97,1,1,1.0,1.0,0.7638624501996674,0,0.0,0.0,0.0,0.3658926859357302,0.1512689823340738,0.21462370360165642,0.517161668269804,0.1512689823340738,0.37473786587361246,2,0,4,1,3,5,nan,nan,nan,nan,nan,nan,nan,nan,nan,nan,nan,nan,0.0,nan,nan,nan,nan,nan,nan,nan,nan,nan,nan,nan,nan,nan,nan,nan,nan,nan,nan,914.9330117827631,1062.0617561303661,nan,1062.8256185805658,nan,nan,nan,nan
1,98,1,1,1.0,1.0,0.33871633117087185,0,0.0,0.0,0.0,0.3702184442429469,0.15600126005433362,0.2142171841886133,0.5262197042972805,0.15600126005433362,0.4061149920647343,7,6,8,5,4,1,nan,nan,nan,nan,nan,nan,nan,nan,nan,nan,nan,nan,0.0,nan,nan,nan,nan,nan,nan,nan,nan,nan,nan,nan,nan,nan,nan,nan,nan,nan,nan,914.9330117827631,1063.0868899332127,nan,1063.4256062643835,nan,nan,nan,nan
1,99,1,1,1.0,1.0,0.22592796699609607,0,0.0,0.0,0.0,0.36987971184432245,0.15519428964550736,0.2146854221988151,0.5250740014898299,0.15519428964550736,0.4428355827888784,3,2,6,7,0,5,nan,nan,nan,nan,nan,nan,nan,nan,nan,nan,nan,nan,0.0,nan,nan,nan,nan,nan,nan,nan,nan,nan,nan,nan,nan,nan,nan,nan,nan,nan,nan,914.9330117827631,1064.1036524539813,nan,1064.3295804209774,nan,nan,nan,nan
1,100,1,1,1.0,1.0,0.23308644950157031,0,0.0,0.0,0.0,0.3683483103033839,0.15507141587463838,0.2132768944287455,0.5234197261780222,0.15507141587463838,0.26591024922284606,4,6,7,5,2,3,nan,nan,nan,nan,nan,nan,nan,nan,nan,nan,nan,nan,0.0,nan,nan,nan,nan,nan,nan,nan,nan,nan,nan,nan,nan,nan,nan,nan,nan,nan,nan,914.9330117827631,1065.1204625858227,nan,1065.3535490353242,nan,nan,nan,nan
1,101,1,1,1.0,1.0,0.16027400031452999,1,1.0,0.0,1.0,0.3669245012423122,0.1548695451673629,0.21205495607494929,0.5217940464096751,0.1548695451673629,0.20642947227073213,7,1,2,3,8,0,1.0,1.0,1.0,1.0,1.0,1.0,0.0,0.0,1.0,0.0,0.0,0.0,1.0,0.0,6.0,2.0,4.0,2.0,5.0,4.0,5.0,6.0,1.0,2.0,3.0,7.027911495883018,8.572301414096728,9.723824669257738,4.221046833670698,5.004456339927856,5.883904233924113,914.9330117827631,1066.137258748,1066.9456757594598,1066.2975327483146,1077.722032268939,1078.7314911932335,1067.9624619432143,1077.7137336864835
1,102,0,0,1.0,0.0,0.28565164597239345,0,0.0,0.0,0.0,0.36477189185764775,0.15548292757496043,0.2092889642826873,0.5202548194326082,0.15548292757496043,0.22633736526283124,2,3,1,0,7,5,nan,nan,nan,nan,nan,nan,nan,nan,nan,nan,nan,nan,0.0,nan,nan,nan,nan,nan,nan,nan,nan,nan,nan,nan,nan,nan,nan,nan,nan,nan,nan,914.9330117827631,1078.9555922633153,nan,1079.2412439092877,nan,nan,nan,nan
1,103,1,1,1.0,1.0,0.3808053798857145,0,0.0,0.0,0.0,0.36395621921965543,0.1548857174552603,0.20907050176439512,0.5188419366749157,0.1548857174552603,0.27557700872421265,3,0,6,2,5,1,nan,nan,nan,nan,nan,nan,nan,nan,nan,nan,nan,nan,0.0,nan,nan,nan,nan,nan,nan,nan,nan,nan,nan,nan,nan,nan,nan,nan,nan,nan,nan,914.9330117827631,1079.9723659028532,nan,1080.353171282739,nan,nan,nan,nan
1,104,1,1,1.0,1.0,0.2920044463244267,0,0.0,0.0,0.0,0.3641281494305336,0.15410276150314026,0.21002538792739336,0.5182309109336739,0.15410276150314026,0.3194871573941782,0,6,5,7,8,4,nan,nan,nan,nan,nan,nan,nan,nan,nan,nan,nan,nan,0.0,nan,nan,nan,nan,nan,nan,nan,nan,nan,nan,nan,nan,nan,nan,nan,nan,nan,nan,914.9330117827631,1080.9891857280163,nan,1081.2811901743407,nan,nan,nan,nan
1,105,1,1,1.0,1.0,0.2511678256560117,0,0.0,0.0,0.0,0.3633996271769366,0.1534920151547587,0.2099076120221779,0.5168916423316953,0.1534920151547587,0.30799255062205094,7,1,4,5,0,8,nan,nan,nan,nan,nan,nan,nan,nan,nan,nan,nan,nan,0.0,nan,nan,nan,nan,nan,nan,nan,nan,nan,nan,nan,nan,nan,nan,nan,nan,nan,nan,914.9330117827631,1082.0059844559873,nan,1082.2571522816434,nan,nan,nan,nan
1,106,1,1,1.0,1.0,0.3063496358226985,0,0.0,0.0,0.0,0.3622773091617273,0.15313033959377562,0.20914696956795167,0.5154076487555029,0.15313033959377562,0.28317396926771227,8,4,5,2,6,7,nan,nan,nan,nan,nan,nan,nan,nan,nan,nan,nan,nan,0.0,nan,nan,nan,nan,nan,nan,nan,nan,nan,nan,nan,nan,nan,nan,nan,nan,nan,nan,914.9330117827631,1083.0227834691177,nan,1083.3291331049404,nan,nan,nan,nan
1,107,1,1,1.0,1.0,0.273483736847993,0,0.0,0.0,0.0,0.3617235698217369,0.1524709686926863,0.2092526011290506,0.5141945385144232,0.1524709686926863,0.27700039944223437,6,8,2,7,0,3,nan,nan,nan,nan,nan,nan,nan,nan,nan,nan,nan,nan,0.0,nan,nan,nan,nan,nan,nan,nan,nan,nan,nan,nan,nan,nan,nan,nan,nan,nan,nan,914.9330117827631,1084.0396212553023,nan,1084.3131049921503,nan,nan,nan,nan
1,108,1,1,1.0,1.0,0.23270014399895445,0,0.0,0.0,0.0,0.3608584734200336,0.1519706162860188,0.20888785713401478,0.5128290897060523,0.1519706162860188,0.27084450555654865,2,1,3,8,6,7,nan,nan,nan,nan,nan,nan,nan,nan,nan,nan,nan,nan,0.0,nan,nan,nan,nan,nan,nan,nan,nan,nan,nan,nan,nan,nan,nan,nan,nan,nan,nan,914.9330117827631,1085.0563817804214,nan,1085.2890819244203,nan,nan,nan,nan
1,109,1,1,1.0,1.0,0.19987843494163826,0,0.0,0.0,0.0,0.3596142177945862,0.15175229092628184,0.20786192686830435,0.5113665087208681,0.15175229092628184,0.2353541052628619,1,4,6,0,3,5,nan,nan,nan,nan,nan,nan,nan,nan,nan,nan,nan,nan,0.0,nan,nan,nan,nan,nan,nan,nan,nan,nan,nan,nan,nan,nan,nan,nan,nan,nan,nan,914.9330117827631,1086.073176517093,nan,1086.2730549520347,nan,nan,nan,nan
1,110,1,1,1.0,1.0,0.23905237420694903,0,0.0,0.0,0.0,0.35807829680561554,0.15182328519100508,0.20625501161461046,0.5099015819966206,0.15182328519100508,0.2238769843825139,3,0,7,1,2,4,nan,nan,nan,nan,nan,nan,nan,nan,nan,nan,nan,nan,0.0,nan,nan,nan,nan,nan,nan,nan,nan,nan,nan,nan,nan,nan,nan,nan,nan,nan,nan,914.9330117827631,1087.0899883595412,nan,1087.3290407337481,nan,nan,nan,nan
1,111,1,1,1.0,1.0,0.21424671716522425,0,0.0,0.0,0.0,0.3569447165903901,0.15154017154484123,0.2054045450455489,0.5084848881352313,0.15154017154484123,0.21772584210460386,1,4,6,5,8,0,nan,nan,nan,nan,nan,nan,nan,nan,nan,nan,nan,nan,0.0,nan,nan,nan,nan,nan,nan,nan,nan,nan,nan,nan,nan,nan,nan,nan,nan,nan,nan,914.9330117827631,1088.1067799601587,nan,1088.321026677324,nan,nan,nan,nan
1,112,1,1,1.0,1.0,0.19742347090505064,0,0.0,0.0,0.0,0.3555985090486433,0.15145318396959973,0.2041453250790436,0.507051693018243,0.15145318396959973,0.21690752075907463,4,7,1,3,0,8,nan,nan,nan,nan,nan,nan,nan,nan,nan,nan,nan,nan,0.0,nan,nan,nan,nan,nan,nan,nan,nan,nan,nan,nan,nan,nan,nan,nan,nan,nan,nan,914.9330117827631,1089.1235761222779,nan,1089.320999593183,nan,nan,nan,nan
1,113,1,1,1.0,1.0,0.020576823910232633,1,1.0,0.0,1.0,0.35412023766412376,0.15151017399351116,0.2026100636706126,0.5056304116576349,0.15151017399351116,0.14408233732683584,5,8,7,6,2,3,1.0,1.0,1.0,1.0,1.0,1.0,1.0,0.0,0.0,0.0,1.0,0.0,2.0,5.0,0.0,6.0,4.0,2.0,7.0,1.0,4.0,5.0,2.0,3.0,6.0,1.498648215958383,5.177368088043295,8.608161964337341,2.5047763604670763,3.393339067522902,15.935712499776855,914.9330117827631,1090.1403782714624,1090.9488021252328,1090.1609550953726,1107.9510050641838,1108.9480158297229,1091.9739396343357,1107.9426774018793
1,114,0,0,nan,nan,nan,0,0.0,0.0,0.0,0.0,0.0,0.0,0.0,0.0,0.0,6,0,8,2,5,4,nan,nan,nan,nan,nan,nan,nan,nan,nan,nan,nan,nan,0.0,nan,nan,nan,nan,nan,nan,nan,nan,nan,nan,nan,nan,nan,nan,nan,nan,nan,nan,914.9330117827631,1109.1678324728855,nan,nan,nan,nan,nan,nan
1,115,1,1,0.0,0.0,0.07985233148792759,0,0.0,0.0,0.0,0.35103187272195807,0.15415365462180916,0.1968782181001489,0.5051855273437672,0.15415365462180916,0.05021457769908011,8,3,1,7,4,0,nan,nan,nan,nan,nan,nan,nan,nan,nan,nan,nan,nan,0.0,nan,nan,nan,nan,nan,nan,nan,nan,nan,nan,nan,nan,nan,nan,nan,nan,nan,nan,914.9330117827631,1110.1846731100813,nan,1110.2645254415693,nan,nan,nan,nan
1,116,1,1,1.0,1.0,0.7189917170908302,0,0.0,0.0,0.0,0.3485439870225633,0.15560787570789777,0.1929361113146655,0.5041518627304611,0.15560787570789777,0.3994220242893789,3,8,4,5,1,2,nan,nan,nan,nan,nan,nan,nan,nan,nan,nan,nan,nan,0.0,nan,nan,nan,nan,nan,nan,nan,nan,nan,nan,nan,nan,nan,nan,nan,nan,nan,nan,914.9330117827631,1111.2014689870994,nan,1111.9204607041902,nan,nan,nan,nan
1,117,1,1,1.0,1.0,0.2862221236573532,0,0.0,0.0,0.0,0.35191169365954755,0.15883923715239148,0.19307245650715607,0.510750930811939,0.15883923715239148,0.36168872407870367,5,2,0,8,6,3,nan,nan,nan,nan,nan,nan,nan,nan,nan,nan,nan,nan,0.0,nan,nan,nan,nan,nan,nan,nan,nan,nan,nan,nan,nan,nan,nan,nan,nan,nan,nan,914.9330117827631,1112.2182460477925,nan,1112.5044681714498,nan,nan,nan,nan
1,118,1,1,1.0,1.0,0.21337033121380955,0,0.0,0.0,0.0,0.35131989573159983,0.15824389896619415,0.19307599676540568,0.509563794697794,0.15824389896619415,0.406194723987331,8,3,7,2,1,4,nan,nan,nan,nan,nan,nan,nan,nan,nan,nan,nan,nan,0.0,nan,nan,nan,nan,nan,nan,nan,nan,nan,nan,nan,nan,nan,nan,nan,nan,nan,nan,914.9330117827631,1113.2350701494142,nan,1113.448440480628,nan,nan,nan,nan
1,119,1,1,1.0,1.0,0.22822156659094617,0,0.0,0.0,0.0,0.35008820319126244,0.15806942908507823,0.1920187741061842,0.5081576322763407,0.15806942908507823,0.24260467382070297,6,8,1,7,2,3,nan,nan,nan,nan,nan,nan,nan,nan,nan,nan,nan,nan,0.0,nan,nan,nan,nan,nan,nan,nan,nan,nan,nan,nan,nan,nan,nan,nan,nan,nan,nan,914.9330117827631,1114.2601993906428,nan,1114.4884209572338,nan,nan,nan,nan
1,120,1,1,1.0,1.0,0.23541625624056906,0,0.0,0.0,0.0,0.3490097373806402,0.1577817979726896,0.19122793940795058,0.5067915353533298,0.1577817979726896,0.22566938468177491,1,3,8,4,7,0,nan,nan,nan,nan,nan,nan,nan,nan,nan,nan,nan,nan,0.0,nan,nan,nan,nan,nan,nan,nan,nan,nan,nan,nan,nan,nan,nan,nan,nan,nan,nan,914.9330117827631,1115.276978732145,nan,1115.5123949883855,nan,nan,nan,nan
1,121,0,0,0.0,1.0,0.5065787392086349,0,0.0,0.0,0.0,0.3480133033355518,0.15744495314081428,0.19056835019473753,0.5054582564763661,0.15744495314081428,0.3234055206800501,5,4,1,6,3,2,nan,nan,nan,nan,nan,nan,nan,nan,nan,nan,nan,nan,0.0,nan,nan,nan,nan,nan,nan,nan,nan,nan,nan,nan,nan,nan,nan,nan,nan,nan,nan,914.9330117827631,1116.2937811663724,nan,1116.800359905581,nan,nan,nan,nan
1,122,1,1,1.0,1.0,0.3697821322712116,0,0.0,0.0,0.0,0.34939213321270907,0.15744869351820084,0.19194343969450822,0.5068408267309099,0.15744869351820084,0.3705923759068052,2,6,3,4,1,7,nan,nan,nan,nan,nan,nan,nan,nan,nan,nan,nan,nan,0.0,nan,nan,nan,nan,nan,nan,nan,nan,nan,nan,nan,nan,nan,nan,nan,nan,nan,nan,914.9330117827631,1117.3105713415425,nan,1117.6803534738137,nan,nan,nan,nan
1,123,1,1,1.0,1.0,0.5289522397797555,0,0.0,0.0,0.0,0.3495679090666617,0.1567798985237543,0.1927880105429074,0.506347807590416,0.1567798985237543,0.46843770375320065,0,3,4,6,8,5,nan,nan,nan,nan,nan,nan,nan,nan,nan,nan,nan,nan,0.0,nan,nan,nan,nan,nan,nan,nan,nan,nan,nan,nan,nan,nan,nan,nan,nan,nan,nan,914.9330117827631,1118.327365508012,nan,1118.8563177477918,nan,nan,nan,nan
1,124,1,1,1.0,1.0,0.4001109594828449,0,0.0,0.0,0.0,0.3511011084744659,0.15697940279625708,0.19412170567820883,0.508080511270723,0.15697940279625708,0.432948443844604,1,5,7,8,3,2,nan,nan,nan,nan,nan,nan,nan,nan,nan,nan,nan,nan,0.0,nan,nan,nan,nan,nan,nan,nan,nan,nan,nan,nan,nan,nan,nan,nan,nan,nan,nan,914.9330117827631,1119.3441861884203,nan,1119.7442971479031,nan,nan,nan,nan
1,125,1,1,1.0,1.0,0.4073022280354053,0,0.0,0.0,0.0,0.3515164461948759,0.15637736732675697,0.1951390788681189,0.5078938135216329,0.15637736732675697,0.44545514243266854,5,7,6,0,4,8,nan,nan,nan,nan,nan,nan,nan,nan,nan,nan,nan,nan,0.0,nan,nan,nan,nan,nan,nan,nan,nan,nan,nan,nan,nan,nan,nan,nan,nan,nan,nan,914.9330117827631,1120.360972942377,nan,1120.7682751704124,nan,nan,nan,nan
1,126,1,1,1.0,1.0,0.3184502622461878,0,0.0,0.0,0.0,0.3519852342775694,0.15580217636821064,0.19618305790935875,0.50778741064578,0.15580217636821064,0.375287816588146,7,6,1,2,8,5,nan,nan,nan,nan,nan,nan,nan,nan,nan,nan,nan,nan,0.0,nan,nan,nan,nan,nan,nan,nan,nan,nan,nan,nan,nan,nan,nan,nan,nan,nan,nan,914.9330117827631,1121.3778001800529,nan,1121.696250442299,nan,nan,nan,nan
1,127,1,1,1.0,1.0,0.3416451252414845,0,0.0,0.0,0.0,0.3517057761773079,0.15518158943361107,0.19652418674369684,0.506887365610919,0.15518158943361107,0.3557992051743592,5,3,4,6,1,0,nan,nan,nan,nan,nan,nan,nan,nan,nan,nan,nan,nan,0.0,nan,nan,nan,nan,nan,nan,nan,nan,nan,nan,nan,nan,nan,nan,nan,nan,nan,nan,914.9330117827631,1122.3945775258471,nan,1122.7362226510886,nan,nan,nan,nan
1,128,1,1,1.0,1.0,0.31683034519664943,0,0.0,0.0,0.0,0.35162263030180524,0.1545416968551897,0.19708093344661554,0.5061643271569949,0.1545416968551897,0.3256419108947739,3,8,6,0,7,4,nan,nan,nan,nan,nan,nan,nan,nan,nan,nan,nan,nan,0.0,nan,nan,nan,nan,nan,nan,nan,nan,nan,nan,nan,nan,nan,nan,nan,nan,nan,nan,914.9330117827631,1123.411370266811,nan,1123.7282006120076,nan,nan,nan,nan
1,129,1,1,1.0,1.0,0.43599317711777985,0,0.0,0.0,0.0,0.35133744763700886,0.15393899273389253,0.19739845490311633,0.5052764403709014,0.15393899273389253,0.3648228825186379,7,5,1,3,2,0,nan,nan,nan,nan,nan,nan,nan,nan,nan,nan,nan,nan,0.0,nan,nan,nan,nan,nan,nan,nan,nan,nan,nan,nan,nan,nan,nan,nan,nan,nan,nan,914.9330117827631,1124.4281880962662,nan,1124.864181273384,nan,nan,nan,nan
1,130,1,1,1.0,1.0,0.47517452883766964,0,0.0,0.0,0.0,0.3520257056002672,0.1535003077932581,0.1985253978070091,0.5055260133935253,0.1535003077932581,0.4093326837173663,4,6,8,1,7,2,nan,nan,nan,nan,nan,nan,nan,nan,nan,nan,nan,nan,0.0,nan,nan,nan,nan,nan,nan,nan,nan,nan,nan,nan,nan,nan,nan,nan,nan,nan,nan,914.9330117827631,1125.4449700036203,nan,1125.920144532458,nan,nan,nan,nan
1,131,1,1,1.0,1.0,0.27435641654301435,0,0.0,0.0,0.0,0.35301884127153654,0.15327636072205247,0.19974248054948407,0.506295201993589,0.15327636072205247,0.39517470749948796,7,5,0,6,8,1,nan,nan,nan,nan,nan,nan,nan,nan,nan,nan,nan,nan,0.0,nan,nan,nan,nan,nan,nan,nan,nan,nan,nan,nan,nan,nan,nan,nan,nan,nan,nan,914.9330117827631,1126.461775288859,nan,1126.736131705402,nan,nan,nan,nan
1,132,1,1,1.0,1.0,0.3775410274975002,0,0.0,0.0,0.0,0.35238954187370836,0.15282277256000962,0.19956676931369874,0.505212314433718,0.15282277256000962,0.3756906576260614,1,6,5,7,4,8,nan,nan,nan,nan,nan,nan,nan,nan,nan,nan,nan,nan,0.0,nan,nan,nan,nan,nan,nan,nan,nan,nan,nan,nan,nan,nan,nan,nan,nan,nan,nan,914.9330117827631,1127.4785700255306,nan,1127.8561110530281,nan,nan,nan,nan
1,133,1,1,1.0,1.0,0.29670539894141257,0,0.0,0.0,0.0,0.35258915683897657,0.15223148500114045,0.20035767183783612,0.504820641840117,0.15223148500114045,0.3162009476606424,8,0,6,4,1,3,nan,nan,nan,nan,nan,nan,nan,nan,nan,nan,nan,nan,0.0,nan,nan,nan,nan,nan,nan,nan,nan,nan,nan,nan,nan,nan,nan,nan,nan,nan,nan,914.9330117827631,1128.4953798722709,nan,1128.7920852712123,nan,nan,nan,nan
1,134,1,1,1.0,1.0,0.24789121409412473,0,0.0,0.0,0.0,0.352149127249232,0.15171139086789126,0.20043773638134071,0.5038605181171232,0.15171139086789126,0.3073792135110125,3,8,1,7,5,4,nan,nan,nan,nan,nan,nan,nan,nan,nan,nan,nan,nan,0.0,nan,nan,nan,nan,nan,nan,nan,nan,nan,nan,nan,nan,nan,nan,nan,nan,nan,nan,914.9330117827631,1129.5121683368343,nan,1129.7600595509284,nan,nan,nan,nan
1,135,1,1,1.0,1.0,0.30272606207290664,0,0.0,0.0,0.0,0.3513346123027077,0.15139612646621778,0.1999384858364899,0.5027307387689255,0.15139612646621778,0.28244089170281467,2,0,6,4,1,7,nan,nan,nan,nan,nan,nan,nan,nan,nan,nan,nan,nan,0.0,nan,nan,nan,nan,nan,nan,nan,nan,nan,nan,nan,nan,nan,nan,nan,nan,nan,nan,914.9330117827631,1130.5373115478433,nan,1130.8400376099162,nan,nan,nan,nan
1,136,1,1,1.0,1.0,0.29390233231242746,0,0.0,0.0,0.0,0.35095780183581,0.15086842218678415,0.20008937964902584,0.5018262240225941,0.15086842218678415,0.28150653615981963,4,5,7,6,8,1,nan,nan,nan,nan,nan,nan,nan,nan,nan,nan,nan,nan,0.0,nan,nan,nan,nan,nan,nan,nan,nan,nan,nan,nan,nan,nan,nan,nan,nan,nan,nan,914.9330117827631,1131.5541077099624,nan,1131.8480100422748,nan,nan,nan,nan
1,137,1,1,1.0,1.0,0.24507389270002022,0,0.0,0.0,0.0,0.3505189136087071,0.15036968573696588,0.2001492278717412,0.500888599345673,0.15036968573696588,0.28056742902845144,6,3,4,5,7,2,nan,nan,nan,nan,nan,nan,nan,nan,nan,nan,nan,nan,0.0,nan,nan,nan,nan,nan,nan,nan,nan,nan,nan,nan,nan,nan,nan,nan,nan,nan,nan,914.9330117827631,1132.5709121398977,nan,1132.8159860325977,nan,nan,nan,nan
1,138,1,1,1.0,1.0,0.28427292039850727,0,0.0,0.0,0.0,0.34971398978497664,0.1500755353769646,0.19963845440801203,0.49978952516194125,0.1500755353769646,0.27441638180365163,4,5,1,2,8,7,nan,nan,nan,nan,nan,nan,nan,nan,nan,nan,nan,nan,0.0,nan,nan,nan,nan,nan,nan,nan,nan,nan,nan,nan,nan,nan,nan,nan,nan,nan,nan,914.9330117827631,1133.5876800775295,nan,1133.871952997928,nan,nan,nan,nan
1,139,1,1,1.0,1.0,0.24344285688130185,0,0.0,0.0,0.0,0.3492182241078064,0.1496136280930484,0.199604596014758,0.4988318522008548,0.1496136280930484,0.25759655665994313,8,2,0,7,4,6,nan,nan,nan,nan,nan,nan,nan,nan,nan,nan,nan,nan,0.0,nan,nan,nan,nan,nan,nan,nan,nan,nan,nan,nan,nan,nan,nan,nan,nan,nan,nan,914.9330117827631,1134.6044953411329,nan,1134.8479381980142,nan,nan,nan,nan
1,140,1,1,1.0,1.0,0.30663245130563155,0,0.0,0.0,0.0,0.34842292059482516,0.14932992394509437,0.1990929966497308,0.4977528445399195,0.14932992394509437,0.2781160761951469,1,6,2,5,8,3,nan,nan,nan,nan,nan,nan,nan,nan,nan,nan,nan,nan,0.0,nan,nan,nan,nan,nan,nan,nan,nan,nan,nan,nan,nan,nan,nan,nan,nan,nan,nan,914.9330117827631,1135.621280384541,nan,1135.9279128358467,nan,nan,nan,nan
1,141,0,0,0.0,1.0,0.6177882401971146,0,0.0,0.0,0.0,0.3481110514210252,0.14881514860371717,0.19929590281730805,0.4969262000247424,0.14881514860371717,0.38928784946134937,7,4,6,2,0,1,nan,nan,nan,nan,nan,nan,nan,nan,nan,nan,nan,nan,0.0,nan,nan,nan,nan,nan,nan,nan,nan,nan,nan,nan,nan,nan,nan,nan,nan,nan,nan,914.9330117827631,1136.6381096178084,nan,1137.2558978580055,nan,nan,nan,nan
1,142,1,1,1.0,1.0,0.5606389805907384,0,0.0,0.0,0.0,0.350108660226774,0.15005540136027257,0.20005325886650144,0.5001640615870466,0.15005540136027257,0.4950198906978282,6,1,8,3,2,7,nan,nan,nan,nan,nan,nan,nan,nan,nan,nan,nan,nan,0.0,nan,nan,nan,nan,nan,nan,nan,nan,nan,nan,nan,nan,nan,nan,nan,nan,nan,nan,914.9330117827631,1137.663224889373,nan,1138.2238638699637,nan,nan,nan,nan
1,143,1,1,1.0,1.0,0.26381070516072214,0,0.0,0.0,0.0,0.35165667728827377,0.15058076982315577,0.201075907465118,0.5022374471114295,0.15058076982315577,0.48074597531619173,2,6,7,0,8,5,nan,nan,nan,nan,nan,nan,nan,nan,nan,nan,nan,nan,0.0,nan,nan,nan,nan,nan,nan,nan,nan,nan,nan,nan,nan,nan,nan,nan,nan,nan,nan,914.9330117827631,1138.6800355914747,nan,1138.9438462966355,nan,nan,nan,nan
1,144,0,0,1.0,0.0,0.286997300456278,0,0.0,0.0,0.0,0.35101546581289017,0.1502164343086212,0.20079903150426898,0.5012319001215113,0.1502164343086212,0.37048232873591286,8,7,3,5,0,4,nan,nan,nan,nan,nan,nan,nan,nan,nan,nan,nan,nan,0.0,nan,nan,nan,nan,nan,nan,nan,nan,nan,nan,nan,nan,nan,nan,nan,nan,nan,nan,914.9330117827631,1139.696824341081,nan,1139.9838216415374,nan,nan,nan,nan
1,145,1,1,1.0,1.0,0.1898182425647974,0,0.0,0.0,0.0,0.35055156606392923,0.14976964184100114,0.2007819242229281,0.5003212079049304,0.14976964184100114,0.24687541606059918,5,6,0,3,4,7,nan,nan,nan,nan,nan,nan,nan,nan,nan,nan,nan,nan,0.0,nan,nan,nan,nan,nan,nan,nan,nan,nan,nan,nan,nan,nan,nan,nan,nan,nan,nan,914.9330117827631,1140.7219587140717,nan,1140.9117769566365,nan,nan,nan,nan
1,146,1,1,1.0,1.0,0.27701037778751925,0,0.0,0.0,0.0,0.3493952112186117,0.1498469202506663,0.19954829096794544,0.499242131469278,0.1498469202506663,0.2512753069361982,3,1,4,6,0,2,nan,nan,nan,nan,nan,nan,nan,nan,nan,nan,nan,nan,0.0,nan,nan,nan,nan,nan,nan,nan,nan,nan,nan,nan,nan,nan,nan,nan,nan,nan,nan,914.9330117827631,1141.738757727202,nan,1142.0157681049895,nan,nan,nan,nan
1,147,1,1,1.0,1.0,0.27619044086895883,0,0.0,0.0,0.0,0.3488781766941039,0.14943517396109637,0.19944300273300755,0.4983133506552003,0.14943517396109637,0.24767302040709183,6,0,5,7,8,4,nan,nan,nan,nan,nan,nan,nan,nan,nan,nan,nan,nan,0.0,nan,nan,nan,nan,nan,nan,nan,nan,nan,nan,nan,nan,nan,nan,nan,nan,nan,nan,914.9330117827631,1142.7555593061843,nan,1143.0317497470533,nan,nan,nan,nan
1,148,1,1,1.0,1.0,0.33936891658231616,0,0.0,0.0,0.0,0.348362660837188,0.14902919904313017,0.1993334617940578,0.49739185988031814,0.14902919904313017,0.2975232450795981,1,6,8,0,7,3,nan,nan,nan,nan,nan,nan,nan,nan,nan,nan,nan,nan,0.0,nan,nan,nan,nan,nan,nan,nan,nan,nan,nan,nan,nan,nan,nan,nan,nan,nan,nan,914.9330117827631,1143.7723529024515,nan,1144.1117218190338,nan,nan,nan,nan
1,149,1,1,1.0,1.0,0.2825537897879258,0,0.0,0.0,0.0,0.348299324610041,0.14850542559952637,0.19979389901051461,0.4968047502095674,0.14850542559952637,0.2993710490797336,6,4,7,3,8,1,nan,nan,nan,nan,nan,nan,nan,nan,nan,nan,nan,nan,0.0,nan,nan,nan,nan,nan,nan,nan,nan,nan,nan,nan,nan,nan,nan,nan,nan,nan,nan,914.9330117827631,1144.789152200683,nan,1145.071705990471,nan,nan,nan,nan
1,150,1,1,1.0,1.0,0.30571843264624476,0,0.0,0.0,0.0,0.34783956562527096,0.14808664472968217,0.1997529208955888,0.4959262103549531,0.14808664472968217,0.30921371300549555,5,8,6,2,0,4,nan,nan,nan,nan,nan,nan,nan,nan,nan,nan,nan,nan,0.0,nan,nan,nan,nan,nan,nan,nan,nan,nan,nan,nan,nan,nan,nan,nan,nan,nan,nan,914.9330117827631,1145.805953209463,nan,1146.1116716421093,nan,nan,nan,nan
1,151,1,1,1.0,1.0,0.26489720708923414,0,0.0,0.0,0.0,0.34754705775736106,0.14761300851531786,0.1999340492420432,0.49516006627267894,0.14761300851531786,0.2843898098411349,0,4,3,8,6,7,nan,nan,nan,nan,nan,nan,nan,nan,nan,nan,nan,nan,0.0,nan,nan,nan,nan,nan,nan,nan,nan,nan,nan,nan,nan,nan,nan,nan,nan,nan,nan,914.9330117827631,1146.8227650519111,nan,1147.0876622590004,nan,nan,nan,nan
1,152,1,1,1.0,1.0,0.4160638068569824,0,0.0,0.0,0.0,0.34697705878723606,0.14726205420433183,0.19971500458290423,0.49423911299156786,0.14726205420433183,0.3288931488641538,2,0,8,6,3,5,nan,nan,nan,nan,nan,nan,nan,nan,nan,nan,nan,nan,0.0,nan,nan,nan,nan,nan,nan,nan,nan,nan,nan,nan,nan,nan,nan,nan,nan,nan,nan,914.9330117827631,1147.839560643828,nan,1148.255624450685,nan,nan,nan,nan
1,153,1,1,1.0,1.0,0.27925180474994704,0,0.0,0.0,0.0,0.34745025569182336,0.1468674412885217,0.20058281440330167,0.49431769698034506,0.1468674412885217,0.32007093956538785,5,8,4,7,1,3,nan,nan,nan,nan,nan,nan,nan,nan,nan,nan,nan,nan,0.0,nan,nan,nan,nan,nan,nan,nan,nan,nan,nan,nan,nan,nan,nan,nan,nan,nan,nan,914.9330117827631,1148.8563593718573,nan,1149.1356111766072,nan,nan,nan,nan
1,154,0,0,0.0,1.0,0.32643894507782534,0,0.0,0.0,0.0,0.34698632065140245,0.14647434834774592,0.20051197230365653,0.49346066899914837,0.14647434834774592,0.3405848522282516,1,2,7,6,0,5,nan,nan,nan,nan,nan,nan,nan,nan,nan,nan,nan,nan,0.0,nan,nan,nan,nan,nan,nan,nan,nan,nan,nan,nan,nan,nan,nan,nan,nan,nan,nan,914.9330117827631,1149.8731441301643,nan,1150.1995830752421,nan,nan,nan,nan
1,155,1,1,1.0,1.0,0.3096102818963118,0,0.0,0.0,0.0,0.34684748703266205,0.1459883683442606,0.20085911868840145,0.49283585537692265,0.1459883683442606,0.30510034390802804,2,7,1,3,4,8,nan,nan,nan,nan,nan,nan,nan,nan,nan,nan,nan,nan,0.0,nan,nan,nan,nan,nan,nan,nan,nan,nan,nan,nan,nan,nan,nan,nan,nan,nan,nan,914.9330117827631,1150.889957398118,nan,1151.1995676800143,nan,nan,nan,nan
1,156,1,1,1.0,1.0,0.5964177082641982,0,0.0,0.0,0.0,0.34659757290423016,0.14552941190613283,0.20106816099809732,0.492126984810363,0.14552941190613283,0.4108223117461118,7,2,5,1,8,4,nan,nan,nan,nan,nan,nan,nan,nan,nan,nan,nan,nan,0.0,nan,nan,nan,nan,nan,nan,nan,nan,nan,nan,nan,nan,nan,nan,nan,nan,nan,nan,914.9330117827631,1151.915114578791,nan,1152.5115322870552,nan,nan,nan,nan
1,157,1,1,1.0,1.0,0.3156303749419749,0,0.0,0.0,0.0,0.3482630404732966,0.14646129596653895,0.20180174450675764,0.49472433643983554,0.14646129596653895,0.4072194550341616,2,7,6,0,1,3,nan,nan,nan,nan,nan,nan,nan,nan,nan,nan,nan,nan,0.0,nan,nan,nan,nan,nan,nan,nan,nan,nan,nan,nan,nan,nan,nan,nan,nan,nan,nan,914.9330117827631,1152.931893635192,nan,1153.247524010134,nan,nan,nan,nan
1,158,1,1,1.0,1.0,0.2348112819599919,0,0.0,0.0,0.0,0.3480469301055395,0.1459995128593898,0.2020474172461497,0.4940464429649293,0.1459995128593898,0.38228645505538833,1,6,7,3,0,8,nan,nan,nan,nan,nan,nan,nan,nan,nan,nan,nan,nan,0.0,nan,nan,nan,nan,nan,nan,nan,nan,nan,nan,nan,nan,nan,nan,nan,nan,nan,nan,914.9330117827631,1153.9486826698994,nan,1154.1834939518594,nan,nan,nan,nan
1,159,1,1,1.0,1.0,0.2819662063848227,0,0.0,0.0,0.0,0.34730195873616093,0.14580611846700853,0.2014958402691524,0.49310807720316946,0.14580611846700853,0.27746928776226315,4,7,0,6,5,3,nan,nan,nan,nan,nan,nan,nan,nan,nan,nan,nan,nan,0.0,nan,nan,nan,nan,nan,nan,nan,nan,nan,nan,nan,nan,nan,nan,nan,nan,nan,nan,914.9330117827631,1154.9654896657448,nan,1155.2474558721296,nan,nan,nan,nan
1,160,1,1,1.0,1.0,0.23317910579498857,0,0.0,0.0,0.0,0.3468749276750411,0.14542417865572227,0.2014507490193188,0.49229910633076335,0.14542417865572227,0.2499855313799344,6,5,3,8,1,4,nan,nan,nan,nan,nan,nan,nan,nan,nan,nan,nan,nan,0.0,nan,nan,nan,nan,nan,nan,nan,nan,nan,nan,nan,nan,nan,nan,nan,nan,nan,nan,914.9330117827631,1155.9822744239937,nan,1156.2154535297886,nan,nan,nan,nan
1,161,0,0,1.0,0.0,0.27234591759042814,0,0.0,0.0,0.0,0.3461366431173784,0.1452386333686514,0.200898009748727,0.4913752764860298,0.1452386333686514,0.2624970765900798,2,8,1,0,6,5,nan,nan,nan,nan,nan,nan,nan,nan,nan,nan,nan,nan,0.0,nan,nan,nan,nan,nan,nan,nan,nan,nan,nan,nan,nan,nan,nan,nan,nan,nan,nan,914.9330117827631,1156.9990742924274,nan,1157.2714202100178,nan,nan,nan,nan
1,162,1,1,1.0,1.0,0.21551339997677132,0,0.0,0.0,0.0,0.3456605739204303,0.1448898597843861,0.20077071413604422,0.49055043370481644,0.1448898597843861,0.24034614112072936,1,5,7,8,0,6,nan,nan,nan,nan,nan,nan,nan,nan,nan,nan,nan,nan,0.0,nan,nan,nan,nan,nan,nan,nan,nan,nan,nan,nan,nan,nan,nan,nan,nan,nan,nan,914.9330117827631,1158.0158810031135,nan,1158.2313944030902,nan,nan,nan,nan
1,163,1,1,1.0,1.0,0.22267587372334674,0,0.0,0.0,0.0,0.34482629716438123,0.14479773217067027,0.20002856499371097,0.4896240293350515,0.14479773217067027,0.2368450637635154,7,3,5,0,2,1,nan,nan,nan,nan,nan,nan,nan,nan,nan,nan,nan,nan,0.0,nan,nan,nan,nan,nan,nan,nan,nan,nan,nan,nan,nan,nan,nan,nan,nan,nan,nan,914.9330117827631,1159.0326974071213,nan,1159.2553732808447,nan,nan,nan,nan
1,164,1,1,1.0,1.0,0.12587314302800223,1,1.0,0.0,1.0,0.34404826898959756,0.1446626093454111,0.19938565964418647,0.48871087833500865,0.1446626093454111,0.1880208055760401,4,6,2,5,1,7,1.0,1.0,1.0,1.0,1.0,1.0,1.0,0.0,0.0,0.0,1.0,0.0,2.0,4.0,3.0,8.0,2.0,1.0,5.0,1.0,5.0,6.0,2.0,3.0,4.0,1.1944530527689494,5.266309859172907,6.074135295872111,1.9390706488629803,3.0660391317796893,3.8342093867249787,914.9330117827631,1160.049489577883,1160.8578980364837,1160.175362720911,1167.9838187905261,1168.9910767716356,1161.8746876413934,1167.9754857114167
1,165,1,1,nan,nan,nan,0,0.0,0.0,0.0,0.0,0.0,0.0,0.0,0.0,0.0,6,0,3,7,2,8,nan,nan,nan,nan,nan,nan,nan,nan,nan,nan,nan,nan,0.0,nan,nan,nan,nan,nan,nan,nan,nan,nan,nan,nan,nan,nan,nan,nan,nan,nan,nan,914.9330117827631,1169.2089983798214,nan,nan,nan,nan,nan,nan
1,166,0,0,1.0,0.0,0.6613198760314845,0,0.0,0.0,0.0,0.3426674137619925,0.1452383591386834,0.1974290546233091,0.48790577290067594,0.1452383591386834,0.39359650952974334,2,8,1,6,5,3,nan,nan,nan,nan,nan,nan,nan,nan,nan,nan,nan,nan,0.0,nan,nan,nan,nan,nan,nan,nan,nan,nan,nan,nan,nan,nan,nan,nan,nan,nan,nan,914.9330117827631,1170.2257800020743,nan,1170.8870998781058,nan,nan,nan,nan
1,167,1,1,1.0,1.0,0.6604412093292922,1,0.0,1.0,1.0,0.34467151729827866,0.14695614739091523,0.19771536990736344,0.4916276646891939,0.14695614739091523,0.6608805426803883,5,0,4,3,2,7,1.0,1.0,1.0,1.0,1.0,1.0,0.0,1.0,0.0,0.0,1.0,0.0,2.0,3.0,0.0,3.0,4.0,2.0,5.0,2.0,1.0,6.0,5.0,4.0,3.0,2.219199694809504,1.4438472944311798,5.448931416380219,4.728696394420695,3.9780903509818017,3.1705967664020136,914.9330117827631,1171.2425932699698,1172.0510154131916,1171.903034479299,1178.543514957768,1179.552041332121,1173.05948277266,1178.5351821637014
1,168,1,1,1.0,1.0,0.27822802402079105,0,0.0,0.0,0.0,0.3466450778734725,0.14859484932803046,0.19805022854544202,0.49523992720150295,0.14859484932803046,0.5333297031271892,6,2,8,5,3,4,nan,nan,nan,nan,nan,nan,nan,nan,nan,nan,nan,nan,0.0,nan,nan,nan,nan,nan,nan,nan,nan,nan,nan,nan,nan,nan,nan,nan,nan,nan,nan,914.9330117827631,1179.768680862384,nan,1180.0469088864047,nan,nan,nan,nan
1,169,1,1,1.0,1.0,0.29337604460306466,0,0.0,0.0,0.0,0.34622012722842477,0.1482301487945827,0.19798997843384206,0.4944502760230075,0.1482301487945827,0.41068175931771594,8,3,0,4,7,2,nan,nan,nan,nan,nan,nan,nan,nan,nan,nan,nan,nan,0.0,nan,nan,nan,nan,nan,nan,nan,nan,nan,nan,nan,nan,nan,nan,nan,nan,nan,nan,914.9330117827631,1180.7855021129944,nan,1181.0788781575975,nan,nan,nan,nan
1,170,1,1,1.0,1.0,0.26052525569684803,0,0.0,0.0,0.0,0.3458939291875275,0.14782989386600204,0.19806403532152544,0.4937238230535295,0.14782989386600204,0.2773764414402346,4,7,3,1,2,6,nan,nan,nan,nan,nan,nan,nan,nan,nan,nan,nan,nan,0.0,nan,nan,nan,nan,nan,nan,nan,nan,nan,nan,nan,nan,nan,nan,nan,nan,nan,nan,914.9330117827631,1181.8023242189083,nan,1182.0628494746052,nan,nan,nan,nan
1,171,1,1,1.0,1.0,0.25181043264456093,0,0.0,0.0,0.0,0.34537019499433314,0.14752641144904655,0.1978437835452866,0.4928966064433797,0.14752641144904655,0.2685705776481579,1,4,7,8,6,0,nan,nan,nan,nan,nan,nan,nan,nan,nan,nan,nan,nan,0.0,nan,nan,nan,nan,nan,nan,nan,nan,nan,nan,nan,nan,nan,nan,nan,nan,nan,nan,914.9330117827631,1182.819099569053,nan,1183.0709100016975,nan,nan,nan,nan
1,172,1,1,1.0,1.0,0.250907247653231,0,0.0,0.0,0.0,0.3447997086385418,0.1472561836209081,0.19754352501763373,0.4920558922594499,0.1472561836209081,0.25441431199821335,2,0,6,4,8,5,nan,nan,nan,nan,nan,nan,nan,nan,nan,nan,nan,nan,0.0,nan,nan,nan,nan,nan,nan,nan,nan,nan,nan,nan,nan,nan,nan,nan,nan,nan,nan,914.9330117827631,1183.835900577833,nan,1184.0868078254862,nan,nan,nan,nan
1,173,1,1,1.0,1.0,0.2740778775187209,0,0.0,0.0,0.0,0.34423066342044906,0.1469900280676138,0.19724063535283526,0.49122069148806285,0.1469900280676138,0.2589318526055043,6,2,8,0,5,7,nan,nan,nan,nan,nan,nan,nan,nan,nan,nan,nan,nan,0.0,nan,nan,nan,nan,nan,nan,nan,nan,nan,nan,nan,nan,nan,nan,nan,nan,nan,nan,914.9330117827631,1184.8527001611074,nan,1185.126778038626,nan,nan,nan,nan
1,174,1,1,1.0,1.0,0.2092526856577024,0,0.0,0.0,0.0,0.3438080562764627,0.14664712675245775,0.19716092952400496,0.49045518302892044,0.14664712675245775,0.2447459369432181,4,6,0,3,7,8,nan,nan,nan,nan,nan,nan,nan,nan,nan,nan,nan,nan,0.0,nan,nan,nan,nan,nan,nan,nan,nan,nan,nan,nan,nan,nan,nan,nan,nan,nan,nan,914.9330117827631,1185.8694994593388,nan,1186.0787521449965,nan,nan,nan,nan
1,175,1,1,1.0,1.0,0.2564557914156467,0,0.0,0.0,0.0,0.34300233549431447,0.14657547519274777,0.1964268603015667,0.48957781068706224,0.14657547519274777,0.24659545153068999,2,5,8,1,6,0,nan,nan,nan,nan,nan,nan,nan,nan,nan,nan,nan,nan,0.0,nan,nan,nan,nan,nan,nan,nan,nan,nan,nan,nan,nan,nan,nan,nan,nan,nan,nan,914.9330117827631,1186.8862839325448,nan,1187.1427397239604,nan,nan,nan,nan
1,176,1,1,1.0,1.0,0.2475989903905429,0,0.0,0.0,0.0,0.3424871774938462,0.146290145021721,0.19619703247212522,0.4887773225155672,0.146290145021721,0.23776915582129732,1,6,7,5,8,4,nan,nan,nan,nan,nan,nan,nan,nan,nan,nan,nan,nan,0.0,nan,nan,nan,nan,nan,nan,nan,nan,nan,nan,nan,nan,nan,nan,nan,nan,nan,nan,914.9330117827631,1187.903098911047,nan,1188.1506979014375,nan,nan,nan,nan
1,177,1,1,1.0,1.0,0.2787868127343245,0,0.0,0.0,0.0,0.34192570893110474,0.14603813209658173,0.19588757683452301,0.4879638410276865,0.14603813209658173,0.26094719818017137,7,4,8,2,1,0,nan,nan,nan,nan,nan,nan,nan,nan,nan,nan,nan,nan,0.0,nan,nan,nan,nan,nan,nan,nan,nan,nan,nan,nan,nan,nan,nan,nan,nan,nan,nan,914.9330117827631,1188.9198950731661,nan,1189.1986818859004,nan,nan,nan,nan
1,178,1,1,1.0,1.0,0.22195600566919893,0,0.0,0.0,0.0,0.341554303659359,0.14568800383680028,0.19586629982255874,0.48724230749615927,0.14568800383680028,0.2494472695980221,8,3,0,5,2,7,nan,nan,nan,nan,nan,nan,nan,nan,nan,nan,nan,nan,0.0,nan,nan,nan,nan,nan,nan,nan,nan,nan,nan,nan,nan,nan,nan,nan,nan,nan,nan,914.9330117827631,1189.9366963670473,nan,1190.1586523727165,nan,nan,nan,nan
1,179,1,1,1.0,1.0,0.27715520665515214,0,0.0,0.0,0.0,0.3408548984079545,0.14554734692631086,0.19530755148164367,0.48640224533426535,0.14554734692631086,0.2592993416862252,3,5,1,2,7,6,nan,nan,nan,nan,nan,nan,nan,nan,nan,nan,nan,nan,0.0,nan,nan,nan,nan,nan,nan,nan,nan,nan,nan,nan,nan,nan,nan,nan,nan,nan,nan,914.9330117827631,1190.953493669629,nan,1191.2306488762842,nan,nan,nan,nan
1,180,1,1,1.0,1.0,0.29232574987690896,0,0.0,0.0,0.0,0.34048455136288014,0.14520441131971026,0.19528014004316988,0.48568896268259043,0.14520441131971026,0.2638123207337533,2,7,4,1,0,3,nan,nan,nan,nan,nan,nan,nan,nan,nan,nan,nan,nan,0.0,nan,nan,nan,nan,nan,nan,nan,nan,nan,nan,nan,nan,nan,nan,nan,nan,nan,nan,914.9330117827631,1191.9702932529035,nan,1192.2626190027804,nan,nan,nan,nan
1,181,1,1,1.0,1.0,0.21948650170816109,0,0.0,0.0,0.0,0.34020617678781667,0.14483015940042301,0.19537601738739366,0.4850363361882397,0.14483015940042301,0.26298915274674073,8,1,5,0,6,4,nan,nan,nan,nan,nan,nan,nan,nan,nan,nan,nan,nan,0.0,nan,nan,nan,nan,nan,nan,nan,nan,nan,nan,nan,nan,nan,nan,nan,nan,nan,nan,914.9330117827631,1192.9871053804527,nan,1193.2065918821609,nan,nan,nan,nan
1,182,1,1,1.0,1.0,0.2106673333910294,0,0.0,0.0,0.0,0.33951238555172675,0.14470140824061997,0.19481097731110678,0.48421379379234675,0.14470140824061997,0.24082652832536647,3,0,1,7,8,5,nan,nan,nan,nan,nan,nan,nan,nan,nan,nan,nan,nan,0.0,nan,nan,nan,nan,nan,nan,nan,nan,nan,nan,nan,nan,nan,nan,nan,nan,nan,nan,914.9330117827631,1194.0039075296372,nan,1194.2145748630282,nan,nan,nan,nan
1,183,1,1,1.0,1.0,0.1298482404090464,1,1.0,0.0,1.0,0.3387761281108084,0.14461386531991902,0.1941622627908894,0.4833899934307274,0.14461386531991902,0.18666735850274563,2,1,8,6,7,4,1.0,1.0,1.0,1.0,1.0,1.0,0.0,0.0,0.0,1.0,0.0,0.0,1.0,8.0,7.0,3.0,6.0,2.0,5.0,1.0,6.0,5.0,4.0,3.0,2.0,4.0478143521468155,9.461634736391716,7.822495920991059,6.806044440250844,5.782421077543404,4.966299339139368,914.9330117827631,1195.0206928580883,1195.8291115801549,1195.1505410984973,1206.3471426368342,1207.35062394751,1196.8459117336315,1206.33881041297
1,184,1,1,1.0,1.0,0.2418885119841434,0,0.0,0.0,0.0,0.33758903783977573,0.14505499747511572,0.19253404036466001,0.4826440353148914,0.14505499747511572,0.1941346952614064,4,3,1,5,8,2,nan,nan,nan,nan,nan,nan,nan,nan,nan,nan,nan,nan,0.0,nan,nan,nan,nan,nan,nan,nan,nan,nan,nan,nan,nan,nan,nan,nan,nan,nan,nan,914.9330117827631,1207.5723758242093,nan,1207.8142643361934,nan,nan,nan,nan
1,185,1,1,1.0,1.0,0.3451056238845922,0,0.0,0.0,0.0,0.33704835690273827,0.14482240147830697,0.1922259554244313,0.4818707583810452,0.14482240147830697,0.23894745875926068,0,5,4,7,3,8,nan,nan,nan,nan,nan,nan,nan,nan,nan,nan,nan,nan,0.0,nan,nan,nan,nan,nan,nan,nan,nan,nan,nan,nan,nan,nan,nan,nan,nan,nan,nan,914.9330117827631,1208.5891260858625,nan,1208.934231709747,nan,nan,nan,nan
1,186,1,1,1.0,1.0,0.28826540865702555,0,0.0,0.0,0.0,0.3370936224475801,0.1444162796527259,0.1926773427948542,0.48150990210030603,0.1444162796527259,0.29175318150858703,6,4,7,1,8,5,nan,nan,nan,nan,nan,nan,nan,nan,nan,nan,nan,nan,0.0,nan,nan,nan,nan,nan,nan,nan,nan,nan,nan,nan,nan,nan,nan,nan,nan,nan,nan,914.9330117827631,1209.6059293753933,nan,1209.8941947840503,nan,nan,nan,nan
1,187,1,1,1.0,1.0,0.23144229920580983,0,0.0,0.0,0.0,0.33682083913031446,0.14405829593688013,0.19276254319343433,0.4808791350671946,0.14405829593688013,0.28827111058247584,3,7,6,4,2,0,nan,nan,nan,nan,nan,nan,nan,nan,nan,nan,nan,nan,0.0,nan,nan,nan,nan,nan,nan,nan,nan,nan,nan,nan,nan,nan,nan,nan,nan,nan,nan,914.9330117827631,1210.6227309543756,nan,1210.8541732535814,nan,nan,nan,nan
1,188,1,1,1.0,1.0,0.3026385375414975,0,0.0,0.0,0.0,0.33623540279740055,0.14387094573311165,0.1923644570642889,0.4801063485305122,0.14387094573311165,0.2741154151347776,1,4,8,0,5,7,nan,nan,nan,nan,nan,nan,nan,nan,nan,nan,nan,nan,0.0,nan,nan,nan,nan,nan,nan,nan,nan,nan,nan,nan,nan,nan,nan,nan,nan,nan,nan,914.9330117827631,1211.6395236953977,nan,1211.9421622329392,nan,nan,nan,nan
1,189,0,0,1.0,0.0,0.22980442107655108,0,0.0,0.0,0.0,0.3360497847573127,0.14349457297909451,0.19255521177821816,0.4795443577364072,0.14349457297909451,0.2546284192746195,4,7,3,5,8,0,nan,nan,nan,nan,nan,nan,nan,nan,nan,nan,nan,nan,0.0,nan,nan,nan,nan,nan,nan,nan,nan,nan,nan,nan,nan,nan,nan,nan,nan,nan,nan,914.9330117827631,1212.656328125333,nan,1212.8861325464095,nan,nan,nan,nan
1,190,1,1,1.0,1.0,0.41303636942757294,0,0.0,0.0,0.0,0.335466019022803,0.14331517163877203,0.19215084738403096,0.478781190661575,0.14331517163877203,0.31515977601520717,7,2,8,0,5,3,nan,nan,nan,nan,nan,nan,nan,nan,nan,nan,nan,nan,0.0,nan,nan,nan,nan,nan,nan,nan,nan,nan,nan,nan,nan,nan,nan,nan,nan,nan,nan,914.9330117827631,1213.6730769614805,nan,1214.0861133309081,nan,nan,nan,nan
1,191,1,1,1.0,1.0,0.25214713130844757,0,0.0,0.0,0.0,0.33588990071900393,0.14303741860902533,0.1928524821099786,0.47892731932802923,0.14303741860902533,0.2983293072708572,1,3,5,8,0,7,nan,nan,nan,nan,nan,nan,nan,nan,nan,nan,nan,nan,0.0,nan,nan,nan,nan,nan,nan,nan,nan,nan,nan,nan,nan,nan,nan,nan,nan,nan,nan,914.9330117827631,1214.6899372703047,nan,1214.942084401613,nan,nan,nan,nan
1,192,1,1,1.0,1.0,0.09132375044282526,0,0.0,0.0,0.0,0.3354347769722074,0.14278100458037674,0.19265377239183068,0.47821578155258415,0.14278100458037674,0.25216908372628194,6,8,4,7,2,0,nan,nan,nan,nan,nan,nan,nan,nan,nan,nan,nan,nan,0.0,nan,nan,nan,nan,nan,nan,nan,nan,nan,nan,nan,nan,nan,nan,nan,nan,nan,nan,914.9330117827631,1215.7067325771786,nan,1215.7980563276215,nan,nan,nan,nan
1,193,0,0,0.0,1.0,0.5384713194798678,0,0.0,0.0,0.0,0.33411525790988644,0.14351510879333298,0.19060014911655346,0.47763036670321946,0.14351510879333298,0.29398073374371353,4,1,6,3,8,7,nan,nan,nan,nan,nan,nan,nan,nan,nan,nan,nan,nan,0.0,nan,nan,nan,nan,nan,nan,nan,nan,nan,nan,nan,nan,nan,nan,nan,nan,nan,nan,914.9330117827631,1216.7235181907308,nan,1217.2619895102107,nan,nan,nan,nan
1,194,1,1,1.0,1.0,0.2813586661941372,0,0.0,0.0,0.0,0.3352139464129509,0.14390680545113446,0.19130714096181642,0.4791207518640853,0.14390680545113446,0.30371791203894344,7,6,0,4,3,8,nan,nan,nan,nan,nan,nan,nan,nan,nan,nan,nan,nan,0.0,nan,nan,nan,nan,nan,nan,nan,nan,nan,nan,nan,nan,nan,nan,nan,nan,nan,nan,914.9330117827631,1217.7486519935774,nan,1218.0300106597715,nan,nan,nan,nan
1,195,1,1,1.0,1.0,0.20055012177908793,0,0.0,0.0,0.0,0.33492595026204813,0.14357524720288423,0.1913507030591639,0.47850119746493236,0.14357524720288423,0.34012670248436433,4,7,2,3,6,5,nan,nan,nan,nan,nan,nan,nan,nan,nan,nan,nan,nan,0.0,nan,nan,nan,nan,nan,nan,nan,nan,nan,nan,nan,nan,nan,nan,nan,nan,nan,nan,914.9330117827631,1218.765446730191,nan,1218.96599685197,nan,nan,nan,nan
1,196,1,1,1.0,1.0,0.06370105716632679,1,1.0,0.0,1.0,0.334211185216926,0.1435260942078136,0.1906850910091124,0.4777372794247396,0.1435260942078136,0.18186994837985063,7,5,0,1,4,3,1.0,1.0,1.0,1.0,1.0,1.0,1.0,0.0,0.0,0.0,0.0,0.0,1.0,7.0,3.0,6.0,8.0,2.0,1.0,1.0,6.0,5.0,4.0,3.0,2.0,1.9185622480581515,6.107560268603265,5.147572390909772,4.428650237328839,3.6514638125663623,2.7657648976310156,914.9330117827631,1219.7822477390291,1220.5906710225972,1219.8459487961954,1227.7499286546954,1228.7533509504283,1221.6074694655254,1227.7415947202826
1,197,1,1,1.0,1.0,0.22264365787850693,0,0.0,0.0,0.0,0.3327799146981397,0.14448484703497447,0.18829506766316526,0.47726476173311416,0.14448484703497447,0.16229827894130722,8,7,1,4,0,6,nan,nan,nan,nan,nan,nan,nan,nan,nan,nan,nan,nan,0.0,nan,nan,nan,nan,nan,nan,nan,nan,nan,nan,nan,nan,nan,nan,nan,nan,nan,nan,914.9330117827631,1228.975109669438,nan,1229.1977533273166,nan,nan,nan,nan
1,198,1,1,1.0,1.0,0.34981798025546595,0,0.0,0.0,0.0,0.33220025018856275,0.14432430178486771,0.18787594840369504,0.47652455197343047,0.14432430178486771,0.21205423176676655,1,2,5,7,6,0,nan,nan,nan,nan,nan,nan,nan,nan,nan,nan,nan,nan,0.0,nan,nan,nan,nan,nan,nan,nan,nan,nan,nan,nan,nan,nan,nan,nan,nan,nan,nan,914.9330117827631,1229.9919092527707,nan,1230.3417272330262,nan,nan,nan,nan
1,199,1,1,1.0,1.0,0.5650040897307917,0,0.0,0.0,0.0,0.3322924896129968,0.14395160864556644,0.18834088096743035,0.47624409825856323,0.14395160864556644,0.37915524262158823,0,6,8,5,7,2,nan,nan,nan,nan,nan,nan,nan,nan,nan,nan,nan,nan,0.0,nan,nan,nan,nan,nan,nan,nan,nan,nan,nan,nan,nan,nan,nan,nan,nan,nan,nan,914.9330117827631,1231.0087091211462,nan,1231.573713210877,nan,nan,nan,nan
1,200,1,1,1.0,1.0,0.2601942588808015,0,0.0,0.0,0.0,0.3335045291969436,0.14455007726568264,0.18895445193126098,0.47805460646262626,0.14455007726568264,0.39167210962235305,5,3,7,6,1,4,nan,nan,nan,nan,nan,nan,nan,nan,nan,nan,nan,nan,0.0,nan,nan,nan,nan,nan,nan,nan,nan,nan,nan,nan,nan,nan,nan,nan,nan,nan,nan,914.9330117827631,1232.0255032876157,nan,1232.2856975464965,nan,nan,nan,nan
1,201,1,1,nan,nan,nan,0,0.0,0.0,0.0,0.0,0.0,0.0,0.0,0.0,0.0,0,1,3,4,2,7,nan,nan,nan,nan,nan,nan,nan,nan,nan,nan,nan,nan,0.0,nan,nan,nan,nan,nan,nan,nan,nan,nan,nan,nan,nan,nan,nan,nan,nan,nan,nan,914.9330117827631,1233.042313419457,nan,nan,nan,nan,nan,nan
1,202,1,1,nan,nan,nan,0,0.0,0.0,0.0,0.0,0.0,0.0,0.0,0.0,0.0,8,7,6,0,3,2,nan,nan,nan,nan,nan,nan,nan,nan,nan,nan,nan,nan,0.0,nan,nan,nan,nan,nan,nan,nan,nan,nan,nan,nan,nan,nan,nan,nan,nan,nan,nan,914.9330117827631,1234.0590901951073,nan,nan,nan,nan,nan,nan
1,203,1,1,1.0,1.0,0.033727174857631326,1,1.0,0.0,1.0,0.33312468323675637,0.14427114868049282,0.18885353455626355,0.4773958319172492,0.14427114868049282,0.033727174857631326,6,5,8,1,0,4,1.0,1.0,1.0,1.0,1.0,1.0,0.0,1.0,0.0,0.0,0.0,0.0,1.0,8.0,5.0,1.0,8.0,4.0,1.0,4.0,5.0,6.0,1.0,2.0,3.0,6.742886206426192,7.573784199834336,8.64565440575825,3.6868667833623476,4.926161204290111,5.919028380478267,914.9330117827631,1235.075885501923,1235.884327031672,1235.1096126767807,1245.5772429878707,1246.583749455167,1236.892790684884,1245.5689164659707
1,204,1,1,nan,nan,nan,0,0.0,0.0,0.0,0.0,0.0,0.0,0.0,0.0,0.0,5,8,6,7,3,2,nan,nan,nan,nan,nan,nan,nan,nan,nan,nan,nan,nan,0.0,nan,nan,nan,nan,nan,nan,nan,nan,nan,nan,nan,nan,nan,nan,nan,nan,nan,nan,914.9330117827631,1246.8024317002273,nan,nan,nan,nan,nan,nan
1,205,1,1,1.0,1.0,0.5140719246119261,0,0.0,0.0,0.0,0.33158139711109075,0.14548728165495478,0.18609411545613597,0.47706867876604553,0.14548728165495478,0.2738995497347787,3,7,2,6,1,5,nan,nan,nan,nan,nan,nan,nan,nan,nan,nan,nan,nan,0.0,nan,nan,nan,nan,nan,nan,nan,nan,nan,nan,nan,nan,nan,nan,nan,nan,nan,nan,914.9330117827631,1247.819220734993,nan,1248.333292659605,nan,nan,nan,nan
1,206,1,1,1.0,1.0,0.3372697526938282,0,0.0,0.0,0.0,0.33251724597006943,0.1456980111615687,0.18681923480850074,0.47821525713163815,0.1456980111615687,0.42567083865287714,4,6,7,5,2,8,nan,nan,nan,nan,nan,nan,nan,nan,nan,nan,nan,nan,0.0,nan,nan,nan,nan,nan,nan,nan,nan,nan,nan,nan,nan,nan,nan,nan,nan,nan,nan,914.9330117827631,1248.836019462964,nan,1249.1732892156579,nan,nan,nan,nan
1,207,1,1,1.0,1.0,0.26444903580704704,0,0.0,0.0,0.0,0.3325414934533539,0.14532625172084165,0.18721524173251222,0.4778677451741955,0.14532625172084165,0.3719302377042671,5,2,3,7,0,6,nan,nan,nan,nan,nan,nan,nan,nan,nan,nan,nan,nan,0.0,nan,nan,nan,nan,nan,nan,nan,nan,nan,nan,nan,nan,nan,nan,nan,nan,nan,nan,914.9330117827631,1249.8528238928993,nan,1250.1172729287064,nan,nan,nan,nan
1,208,1,1,1.0,1.0,0.2556295823887922,0,0.0,0.0,0.0,0.33219584646022543,0.14503768207939854,0.18715816438082689,0.477233528539624,0.14503768207939854,0.2857827902965558,6,1,4,0,8,7,nan,nan,nan,nan,nan,nan,nan,nan,nan,nan,nan,nan,0.0,nan,nan,nan,nan,nan,nan,nan,nan,nan,nan,nan,nan,nan,nan,nan,nan,nan,nan,914.9330117827631,1250.86961834447,nan,1251.1252479268587,nan,nan,nan,nan
1,209,0,0,nan,nan,nan,0,0.0,0.0,0.0,0.0,0.0,0.0,0.0,0.0,0.0,8,6,5,2,7,4,nan,nan,nan,nan,nan,nan,nan,nan,nan,nan,nan,nan,0.0,nan,nan,nan,nan,nan,nan,nan,nan,nan,nan,nan,nan,nan,nan,nan,nan,nan,nan,914.9330117827631,1251.886418783106,nan,nan,nan,nan,nan,nan
1,210,1,1,1.0,1.0,0.5819328216020949,0,0.0,0.0,0.0,0.3318091481568344,0.14477273798964224,0.18703641016719214,0.4765818861464766,0.14477273798964224,0.41878120199544355,1,4,7,8,0,5,nan,nan,nan,nan,nan,nan,nan,nan,nan,nan,nan,nan,0.0,nan,nan,nan,nan,nan,nan,nan,nan,nan,nan,nan,nan,nan,nan,nan,nan,nan,nan,914.9330117827631,1252.903216940933,nan,1253.485149762535,nan,nan,nan,nan
1,211,0,0,1.0,0.0,0.40515773376682773,0,0.0,0.0,0.0,0.3330660510384688,0.14548754134308847,0.18757850969538034,0.47855359238155726,0.14548754134308847,0.4935452776844613,8,1,3,5,6,2,nan,nan,nan,nan,nan,nan,nan,nan,nan,nan,nan,nan,0.0,nan,nan,nan,nan,nan,nan,nan,nan,nan,nan,nan,nan,nan,nan,nan,nan,nan,nan,914.9330117827631,1253.920020800666,nan,1254.3251785344328,nan,nan,nan,nan
1,212,1,1,nan,nan,nan,0,0.0,0.0,0.0,0.0,0.0,0.0,0.0,0.0,0.0,1,6,0,4,5,3,nan,nan,nan,nan,nan,nan,nan,nan,nan,nan,nan,nan,0.0,nan,nan,nan,nan,nan,nan,nan,nan,nan,nan,nan,nan,nan,nan,nan,nan,nan,nan,914.9330117827631,1254.9368315027095,nan,nan,nan,nan,nan,nan
1,213,1,1,nan,nan,nan,0,0.0,0.0,0.0,0.0,0.0,0.0,0.0,0.0,0.0,8,3,2,1,0,5,nan,nan,nan,nan,nan,nan,nan,nan,nan,nan,nan,nan,0.0,nan,nan,nan,nan,nan,nan,nan,nan,nan,nan,nan,nan,nan,nan,nan,nan,nan,nan,914.9330117827631,1255.953617401421,nan,nan,nan,nan,nan,nan
1,214,1,1,1.0,1.0,0.6666745543479919,1,0.0,1.0,1.0,0.3334265094521106,0.14521242262957965,0.18821408682253096,0.4786389320816903,0.14521242262957965,0.6666745543479919,5,7,6,2,1,0,1.0,1.0,1.0,1.0,1.0,1.0,1.0,0.0,0.0,0.0,1.0,0.0,2.0,5.0,2.0,8.0,0.0,1.0,4.0,1.0,5.0,6.0,2.0,3.0,4.0,2.1024869803804904,5.423267904669046,6.022895797039382,2.9201744675519876,3.575534120784141,4.358727524057031,914.9330117827631,1256.9704232568038,1257.7788339961553,1257.6370978111518,1264.8547477226239,1265.864924519381,1258.79561818426,1264.846422055969
1,215,0,0,0.0,1.0,0.5006322009721771,0,0.0,0.0,0.0,0.3350844599242294,0.14673615418361102,0.1883483057406184,0.48182061410784044,0.14673615418361102,0.5836533776600845,7,4,0,6,5,1,nan,nan,nan,nan,nan,nan,nan,nan,nan,nan,nan,nan,0.0,nan,nan,nan,nan,nan,nan,nan,nan,nan,nan,nan,nan,nan,nan,nan,nan,nan,nan,914.9330117827631,1266.0882737905486,nan,1266.5889059915207,nan,nan,nan,nan
1,216,1,1,1.0,1.0,0.48379783594282344,0,0.0,0.0,0.0,0.335904003196744,0.14683292972607723,0.1890710734706668,0.48273693292282127,0.14683292972607723,0.5503681970876642,6,1,4,8,2,3,nan,nan,nan,nan,nan,nan,nan,nan,nan,nan,nan,nan,0.0,nan,nan,nan,nan,nan,nan,nan,nan,nan,nan,nan,nan,nan,nan,nan,nan,nan,nan,914.9330117827631,1267.1050799310324,nan,1267.5888777669752,nan,nan,nan,nan
1,217,0,0,0.0,1.0,0.4909625904983841,0,0.0,0.0,0.0,0.33663254424475425,0.14683636728777588,0.18979617695697837,0.48346891153253013,0.14683636728777588,0.4917975424711282,3,8,7,4,0,5,nan,nan,nan,nan,nan,nan,nan,nan,nan,nan,nan,nan,0.0,nan,nan,nan,nan,nan,nan,nan,nan,nan,nan,nan,nan,nan,nan,nan,nan,nan,nan,914.9330117827631,1268.1218789441627,nan,1268.6128415346611,nan,nan,nan,nan
1,218,1,1,1.0,1.0,0.3461539229028858,0,0.0,0.0,0.0,0.3373890640793309,0.14687208515863623,0.19051697892069466,0.48426114923796715,0.14687208515863623,0.4403047831146978,2,6,3,1,5,0,nan,nan,nan,nan,nan,nan,nan,nan,nan,nan,nan,nan,0.0,nan,nan,nan,nan,nan,nan,nan,nan,nan,nan,nan,nan,nan,nan,nan,nan,nan,nan,914.9330117827631,1269.1386662683217,nan,1269.4848201912246,nan,nan,nan,nan
1,219,1,1,1.0,1.0,0.4573463181150146,0,0.0,0.0,0.0,0.33743181948822626,0.14651469526512406,0.1909171242231022,0.4839465147533503,0.14651469526512406,0.43148761050542817,6,0,4,8,7,3,nan,nan,nan,nan,nan,nan,nan,nan,nan,nan,nan,nan,0.0,nan,nan,nan,nan,nan,nan,nan,nan,nan,nan,nan,nan,nan,nan,nan,nan,nan,nan,914.9330117827631,1270.1554644261487,nan,1270.6128107442637,nan,nan,nan,nan
1,220,1,1,1.0,1.0,0.45649958215653896,0,0.0,0.0,0.0,0.3380139287048612,0.14639608543322824,0.19161784327163295,0.48441001413808943,0.14639608543322824,0.4199999410581465,7,6,1,4,0,5,nan,nan,nan,nan,nan,nan,nan,nan,nan,nan,nan,nan,0.0,nan,nan,nan,nan,nan,nan,nan,nan,nan,nan,nan,nan,nan,nan,nan,nan,nan,nan,914.9330117827631,1271.1722762685968,nan,1271.6287758507533,nan,nan,nan,nan
1,221,1,1,1.0,1.0,0.4476886816555634,0,0.0,0.0,0.0,0.33858632316598036,0.1462729345914645,0.19231338857451585,0.4848592577574449,0.1462729345914645,0.45384486064237234,0,2,4,7,1,3,nan,nan,nan,nan,nan,nan,nan,nan,nan,nan,nan,nan,0.0,nan,nan,nan,nan,nan,nan,nan,nan,nan,nan,nan,nan,nan,nan,nan,nan,nan,nan,914.9330117827631,1272.189061312005,nan,1272.6367499936605,nan,nan,nan,nan
1,222,1,1,1.0,1.0,0.4308631546446122,0,0.0,0.0,0.0,0.33911085373564187,0.14611591117459533,0.19299494256104655,0.4852267649102372,0.14611591117459533,0.44501713948557153,1,3,0,6,5,4,nan,nan,nan,nan,nan,nan,nan,nan,nan,nan,nan,nan,0.0,nan,nan,nan,nan,nan,nan,nan,nan,nan,nan,nan,nan,nan,nan,nan,nan,nan,nan,914.9330117827631,1273.2058725842508,nan,1273.6367357388954,nan,nan,nan,nan
1,223,1,1,1.0,1.0,0.2777043021051213,0,0.0,0.0,0.0,0.3395498599600867,0.14590337270033205,0.19364648725975464,0.48545323266041873,0.14590337270033205,0.38541871280176565,4,2,1,3,6,8,nan,nan,nan,nan,nan,nan,nan,nan,nan,nan,nan,nan,0.0,nan,nan,nan,nan,nan,nan,nan,nan,nan,nan,nan,nan,nan,nan,nan,nan,nan,nan,914.9330117827631,1274.2310103783966,nan,1274.5087146805017,nan,nan,nan,nan
1,224,1,1,1.0,1.0,0.20457254513166845,0,0.0,0.0,0.0,0.3392553573036345,0.1456178239989496,0.1936375333046849,0.48487318130258406,0.1456178239989496,0.304380000627134,5,8,3,1,4,6,nan,nan,nan,nan,nan,nan,nan,nan,nan,nan,nan,nan,0.0,nan,nan,nan,nan,nan,nan,nan,nan,nan,nan,nan,nan,nan,nan,nan,nan,nan,nan,914.9330117827631,1275.256122513907,nan,1275.4606950590387,nan,nan,nan,nan
1,225,1,1,1.0,1.0,0.12340991117525846,0,0.0,0.0,0.0,0.33861705013694265,0.14556653713543488,0.19305051300150777,0.48418358727237754,0.14556653713543488,0.2018955861373494,6,1,2,3,0,7,nan,nan,nan,nan,nan,nan,nan,nan,nan,nan,nan,nan,0.0,nan,nan,nan,nan,nan,nan,nan,nan,nan,nan,nan,nan,nan,nan,nan,nan,nan,nan,914.9330117827631,1276.281258027244,nan,1276.4046679384192,nan,nan,nan,nan
1,226,1,1,1.0,1.0,0.28257545712403953,0,0.0,0.0,0.0,0.33760192212297246,0.1459695105902437,0.19163241153272875,0.4835714327132162,0.1459695105902437,0.20351930447698882,3,5,6,0,7,2,nan,nan,nan,nan,nan,nan,nan,nan,nan,nan,nan,nan,0.0,nan,nan,nan,nan,nan,nan,nan,nan,nan,nan,nan,nan,nan,nan,nan,nan,nan,nan,914.9330117827631,1277.2980678740423,nan,1277.5806433311664,nan,nan,nan,nan
1,227,1,1,1.0,1.0,0.3137361952685751,0,0.0,0.0,0.0,0.3373435819117099,0.14567502705280902,0.19166855485890086,0.48301860896451887,0.14567502705280902,0.2399071878559577,5,2,1,3,8,7,nan,nan,nan,nan,nan,nan,nan,nan,nan,nan,nan,nan,0.0,nan,nan,nan,nan,nan,nan,nan,nan,nan,nan,nan,nan,nan,nan,nan,nan,nan,nan,914.9330117827631,1278.3148694530246,nan,1278.6286056482932,nan,nan,nan,nan
1,228,1,1,1.0,1.0,0.24089267064118758,0,0.0,0.0,0.0,0.3372332670208541,0.1453431836538785,0.1918900833669756,0.4825764506747326,0.1453431836538785,0.27906810767793405,0,6,2,4,1,8,nan,nan,nan,nan,nan,nan,nan,nan,nan,nan,nan,nan,0.0,nan,nan,nan,nan,nan,nan,nan,nan,nan,nan,nan,nan,nan,nan,nan,nan,nan,nan,914.9330117827631,1279.3316949800937,nan,1279.572587650735,nan,nan,nan,nan
1,229,1,1,1.0,1.0,0.2637918888940476,0,0.0,0.0,0.0,0.33678517122373935,0.14515287085271075,0.1916323003710286,0.4819380420764501,0.14515287085271075,0.27280691826793674,5,2,6,0,3,4,nan,nan,nan,nan,nan,nan,nan,nan,nan,nan,nan,nan,0.0,nan,nan,nan,nan,nan,nan,nan,nan,nan,nan,nan,nan,nan,nan,nan,nan,nan,nan,914.9330117827631,1280.3567900097696,nan,1280.6205818986637,nan,nan,nan,nan
1,230,1,1,1.0,1.0,0.19094579835655168,0,0.0,0.0,0.0,0.33644723936110194,0.14490122553059406,0.19154601383050787,0.481348464891696,0.14490122553059406,0.23187678596392894,1,4,3,7,8,5,nan,nan,nan,nan,nan,nan,nan,nan,nan,nan,nan,nan,0.0,nan,nan,nan,nan,nan,nan,nan,nan,nan,nan,nan,nan,nan,nan,nan,nan,nan,nan,914.9330117827631,1281.373605273373,nan,1281.5645510717295,nan,nan,nan,nan
1,231,0,0,1.0,0.0,0.15811696194577962,0,0.0,0.0,0.0,0.33577672580808554,0.14490244586232973,0.19087427994575581,0.4806791716704153,0.14490244586232973,0.20428488306545964,4,0,2,1,3,7,nan,nan,nan,nan,nan,nan,nan,nan,nan,nan,nan,nan,0.0,nan,nan,nan,nan,nan,nan,nan,nan,nan,nan,nan,nan,nan,nan,nan,nan,nan,nan,914.9330117827631,1282.3904131244635,nan,1282.5485300864093,nan,nan,nan,nan
1,232,1,1,nan,nan,nan,0,0.0,0.0,0.0,0.0,0.0,0.0,0.0,0.0,0.0,6,2,1,7,0,3,nan,nan,nan,nan,nan,nan,nan,nan,nan,nan,nan,nan,0.0,nan,nan,nan,nan,nan,nan,nan,nan,nan,nan,nan,nan,nan,nan,nan,nan,nan,nan,914.9330117827631,1283.4071924659656,nan,nan,nan,nan,nan,nan
1,233,1,1,1.0,1.0,0.6844292102032341,0,0.0,0.0,0.0,0.3349617727628456,0.14506730786109243,0.18989446490175318,0.480029080623938,0.14506730786109243,0.42127308607450686,8,3,6,2,4,7,nan,nan,nan,nan,nan,nan,nan,nan,nan,nan,nan,nan,0.0,nan,nan,nan,nan,nan,nan,nan,nan,nan,nan,nan,nan,nan,nan,nan,nan,nan,nan,914.9330117827631,1284.4239826410776,nan,1285.1084118512808,nan,nan,nan,nan
1,234,1,1,1.0,1.0,0.5316617948701605,1,0.0,1.0,1.0,0.3365575144863177,0.14664086563201867,0.18991664885429904,0.4831983801183364,0.14664086563201867,0.6080455025366973,4,8,0,1,7,5,1.0,1.0,1.0,1.0,1.0,1.0,1.0,0.0,0.0,0.0,0.0,0.0,1.0,4.0,1.0,6.0,2.0,5.0,0.0,1.0,6.0,5.0,4.0,3.0,2.0,2.753294501279015,7.079373654851224,6.31253023800673,5.400262630661018,4.312960448267404,3.5057129017659463,914.9330117827631,1285.4407839349587,1286.249204937776,1285.972445729829,1294.3836098720203,1295.3794628615142,1287.266007942264,1294.375267099589
1,235,1,1,1.0,1.0,0.37178835476515815,0,0.0,0.0,0.0,0.3374443521244261,0.1468946541984687,0.19054969792595738,0.4843390063228948,0.1468946541984687,0.5292931199461842,5,4,7,8,6,3,nan,nan,nan,nan,nan,nan,nan,nan,nan,nan,nan,nan,0.0,nan,nan,nan,nan,nan,nan,nan,nan,nan,nan,nan,nan,nan,nan,nan,nan,nan,nan,914.9330117827631,1295.6004492547363,nan,1295.9722376095015,nan,nan,nan,nan
1,236,1,1,1.0,1.0,0.2905798202846199,0,0.0,0.0,0.0,0.3375997548513072,0.146580060875506,0.1910196939758012,0.48417981572681323,0.146580060875506,0.3980099899733129,1,6,5,3,8,2,nan,nan,nan,nan,nan,nan,nan,nan,nan,nan,nan,nan,0.0,nan,nan,nan,nan,nan,nan,nan,nan,nan,nan,nan,nan,nan,nan,nan,nan,nan,nan,914.9330117827631,1296.6255879041855,nan,1296.9161677244701,nan,nan,nan,nan
1,237,1,1,1.0,1.0,0.31377952988259494,0,0.0,0.0,0.0,0.3373879533442501,0.14628344329686394,0.19110451004738616,0.483671396641114,0.14628344329686394,0.325382568310791,8,5,4,7,1,0,nan,nan,nan,nan,nan,nan,nan,nan,nan,nan,nan,nan,0.0,nan,nan,nan,nan,nan,nan,nan,nan,nan,nan,nan,nan,nan,nan,nan,nan,nan,nan,914.9330117827631,1297.6423772240523,nan,1297.956156753935,nan,nan,nan,nan
1,238,1,1,1.0,1.0,0.36097522312775254,0,0.0,0.0,0.0,0.33728208597446685,0.14596360843335177,0.19131847754111508,0.4832456944078186,0.14596360843335177,0.32177819109832245,3,2,0,1,6,7,nan,nan,nan,nan,nan,nan,nan,nan,nan,nan,nan,nan,0.0,nan,nan,nan,nan,nan,nan,nan,nan,nan,nan,nan,nan,nan,nan,nan,nan,nan,nan,914.9330117827631,1298.659171960724,nan,1299.0201471838518,nan,nan,nan,nan
1,239,1,1,1.0,1.0,0.34414256864693016,0,0.0,0.0,0.0,0.3373878589081869,0.14564599757770763,0.19174186133047927,0.48303385648589453,0.14564599757770763,0.33963244055242586,4,6,5,2,8,3,nan,nan,nan,nan,nan,nan,nan,nan,nan,nan,nan,nan,0.0,nan,nan,nan,nan,nan,nan,nan,nan,nan,nan,nan,nan,nan,nan,nan,nan,nan,nan,914.9330117827631,1299.6759823776665,nan,1300.0201249463134,nan,nan,nan,nan
1,240,1,1,1.0,1.0,0.3193209462915547,0,0.0,0.0,0.0,0.3374178798403591,0.14532267398298068,0.1920952058573784,0.4827405538233398,0.14532267398298068,0.34147957935541245,6,0,7,1,2,8,nan,nan,nan,nan,nan,nan,nan,nan,nan,nan,nan,nan,0.0,nan,nan,nan,nan,nan,nan,nan,nan,nan,nan,nan,nan,nan,nan,nan,nan,nan,nan,914.9330117827631,1300.692779109988,nan,1301.0121000562795,nan,nan,nan,nan
1,241,1,1,1.0,1.0,0.2942464434891008,0,0.0,0.0,0.0,0.337337804913152,0.14500578191012778,0.19233202300302424,0.4823435868232798,0.14500578191012778,0.3192366528091952,7,6,8,4,3,5,nan,nan,nan,nan,nan,nan,nan,nan,nan,nan,nan,nan,0.0,nan,nan,nan,nan,nan,nan,nan,nan,nan,nan,nan,nan,nan,nan,nan,nan,nan,nan,914.9330117827631,1301.7178943815525,nan,1302.0121408250416,nan,nan,nan,nan
1,242,1,1,1.0,1.0,0.28535714151803404,0,0.0,0.0,0.0,0.33714797512714295,0.14471417430174177,0.19243380082540118,0.4818621494288847,0.14471417430174177,0.2996415104328965,5,8,1,0,7,3,nan,nan,nan,nan,nan,nan,nan,nan,nan,nan,nan,nan,0.0,nan,nan,nan,nan,nan,nan,nan,nan,nan,nan,nan,nan,nan,nan,nan,nan,nan,nan,914.9330117827631,1302.7346896884264,nan,1303.0200468299445,nan,nan,nan,nan
1,243,1,1,1.0,1.0,0.30050516210030764,0,0.0,0.0,0.0,0.3369208223481556,0.14443702211297,0.19248380023518563,0.4813578444611256,0.14443702211297,0.2933695823691475,6,5,8,1,2,0,nan,nan,nan,nan,nan,nan,nan,nan,nan,nan,nan,nan,0.0,nan,nan,nan,nan,nan,nan,nan,nan,nan,nan,nan,nan,nan,nan,nan,nan,nan,nan,914.9330117827631,1303.751519491896,nan,1304.0520246539963,nan,nan,nan,nan
1,244,1,1,1.0,1.0,0.21969405177515,0,0.0,0.0,0.0,0.33676180199772837,0.14414131340723854,0.19262048859048983,0.4809031154049669,0.14414131340723854,0.2685187851311639,3,6,2,8,5,7,nan,nan,nan,nan,nan,nan,nan,nan,nan,nan,nan,nan,0.0,nan,nan,nan,nan,nan,nan,nan,nan,nan,nan,nan,nan,nan,nan,nan,nan,nan,nan,914.9330117827631,1304.768309096864,nan,1304.988003148639,nan,nan,nan,nan
1,245,1,1,1.0,1.0,0.2188624259433709,0,0.0,0.0,0.0,0.33625281177936933,0.14403371807304327,0.19221909370632606,0.4802865298524126,0.14403371807304327,0.24635387993960953,7,0,6,3,4,1,nan,nan,nan,nan,nan,nan,nan,nan,nan,nan,nan,nan,0.0,nan,nan,nan,nan,nan,nan,nan,nan,nan,nan,nan,nan,nan,nan,nan,nan,nan,nan,914.9330117827631,1305.7851123863948,nan,1306.0039748123381,nan,nan,nan,nan
1,246,1,1,1.0,1.0,0.1780457619461231,0,0.0,0.0,0.0,0.3357446282909018,0.14392811146704,0.1918165168238618,0.4796727397579418,0.14392811146704,0.20553407988821468,6,7,3,1,0,4,nan,nan,nan,nan,nan,nan,nan,nan,nan,nan,nan,nan,0.0,nan,nan,nan,nan,nan,nan,nan,nan,nan,nan,nan,nan,nan,nan,nan,nan,nan,nan,914.9330117827631,1306.801905982662,nan,1306.9799517446081,nan,nan,nan,nan
1,247,0,0,1.0,0.0,0.2412285140599124,0,0.0,0.0,0.0,0.3350648917980364,0.14398868987328123,0.19107620192475516,0.4790535816713176,0.14398868987328123,0.21271223398313546,2,3,1,7,4,8,nan,nan,nan,nan,nan,nan,nan,nan,nan,nan,nan,nan,0.0,nan,nan,nan,nan,nan,nan,nan,nan,nan,nan,nan,nan,nan,nan,nan,nan,nan,nan,914.9330117827631,1307.8186978683807,nan,1308.0599263824406,nan,nan,nan,nan
1,248,1,1,1.0,1.0,0.3604004690423608,0,0.0,0.0,0.0,0.33466216056310877,0.1438102559988667,0.19085190456424206,0.4784724165619755,0.1438102559988667,0.25989158168279874,3,0,6,4,8,1,nan,nan,nan,nan,nan,nan,nan,nan,nan,nan,nan,nan,0.0,nan,nan,nan,nan,nan,nan,nan,nan,nan,nan,nan,nan,nan,nan,nan,nan,nan,nan,914.9330117827631,1308.8354983069585,nan,1309.1958987760008,nan,nan,nan,nan
1,249,1,1,1.0,1.0,0.23158655792940408,0,0.0,0.0,0.0,0.33477215333438765,0.14351246166285486,0.19125969167153278,0.4782846149972425,0.14351246166285486,0.27773851367722574,5,4,7,3,1,8,nan,nan,nan,nan,nan,nan,nan,nan,nan,nan,nan,nan,0.0,nan,nan,nan,nan,nan,nan,nan,nan,nan,nan,nan,nan,nan,nan,nan,nan,nan,nan,914.9330117827631,1309.852300456143,nan,1310.0838870140724,nan,nan,nan,nan
1,250,1,1,1.0,1.0,0.038756273221224546,0,0.0,0.0,0.0,0.33433306569436644,0.14336421993860474,0.1909688457557617,0.4776972856329712,0.14336421993860474,0.21024776673099646,2,7,8,5,0,6,nan,nan,nan,nan,nan,nan,nan,nan,nan,nan,nan,nan,0.0,nan,nan,nan,nan,nan,nan,nan,nan,nan,nan,nan,nan,nan,nan,nan,nan,nan,nan,914.9330117827631,1310.8690914865583,nan,1310.9078477597795,nan,nan,nan,nan
1,251,1,1,1.0,1.0,0.013928948901593685,1,1.0,0.0,1.0,0.3330806216584633,0.14434276594640605,0.18873785571205726,0.47742338760486935,0.14434276594640605,0.09475726001740743,4,2,5,0,7,1,1.0,1.0,1.0,1.0,1.0,1.0,0.0,0.0,0.0,0.0,0.0,0.0,0.0,0.0,1.0,7.0,8.0,4.0,4.0,1.0,6.0,5.0,4.0,3.0,2.0,1.643216262338683,5.738021608558483,4.882087030215189,4.106203210365493,3.442869699327275,2.451737048861105,914.9330117827631,1311.885891925136,1312.694319770264,1311.8998208740377,1319.4784862071974,1320.479303578264,1313.7027546287864,1319.4701890502474
1,252,1,1,1.0,1.0,0.40393353038234636,0,0.0,0.0,0.0,0.3317339901278436,0.14551594303662735,0.18621804709121625,0.47724993316447095,0.14551594303662735,0.15220625083505487,7,4,0,2,8,5,nan,nan,nan,nan,nan,nan,nan,nan,nan,nan,nan,nan,0.0,nan,nan,nan,nan,nan,nan,nan,nan,nan,nan,nan,nan,nan,nan,nan,nan,nan,nan,914.9330117827631,1320.7037031440996,nan,1321.107636674482,nan,nan,nan,nan
1,253,1,1,1.0,1.0,0.7867502645240165,0,0.0,0.0,0.0,0.33203734954067765,0.1452849955650869,0.18675235397559076,0.47732234510576455,0.1452849955650869,0.4015375812693189,6,2,3,7,5,4,nan,nan,nan,nan,nan,nan,nan,nan,nan,nan,nan,nan,0.0,nan,nan,nan,nan,nan,nan,nan,nan,nan,nan,nan,nan,nan,nan,nan,nan,nan,nan,914.9330117827631,1321.7288443594007,nan,1322.5155946239247,nan,nan,nan,nan
1,254,1,1,1.0,1.0,0.7379149825428613,1,0.0,1.0,1.0,0.33393991403851586,0.14792198610002627,0.1860179279384896,0.48186190013854213,0.14792198610002627,0.6428662591497414,7,3,8,4,1,6,1.0,1.0,1.0,1.0,1.0,1.0,1.0,0.0,0.0,0.0,0.0,1.0,2.0,7.0,4.0,1.0,0.0,3.0,6.0,1.0,2.0,3.0,4.0,5.0,6.0,1.799538828257937,2.799403407552745,3.7507870795670897,4.966488928126637,5.71028088539606,6.790285458380822,914.9330117827631,1322.745664754766,1323.5540669412003,1323.483579737309,1331.3884040510166,1332.3974493006244,1324.5625240372028,1331.3800743930624
1,255,1,1,1.0,1.0,0.6857375170220621,0,0.0,0.0,0.0,0.33562314349061734,0.14988960260380554,0.1857335408868118,0.48551274609442285,0.14988960260380554,0.7368009213629799,1,8,7,2,5,0,nan,nan,nan,nan,nan,nan,nan,nan,nan,nan,nan,nan,0.0,nan,nan,nan,nan,nan,nan,nan,nan,nan,nan,nan,nan,nan,nan,nan,nan,nan,nan,914.9330117827631,1332.6136053075898,nan,1333.2993428246118,nan,nan,nan,nan
1,256,1,1,1.0,1.0,0.49293374619446695,0,0.0,0.0,0.0,0.3370759002272623,0.15126199079431046,0.18581390943295184,0.48833789102157277,0.15126199079431046,0.6388620819197968,8,1,3,5,2,6,nan,nan,nan,nan,nan,nan,nan,nan,nan,nan,nan,nan,0.0,nan,nan,nan,nan,nan,nan,nan,nan,nan,nan,nan,nan,nan,nan,nan,nan,nan,nan,914.9330117827631,1333.630387500045,nan,1334.1233212462394,nan,nan,nan,nan
1,257,1,1,1.0,1.0,0.4441269738599658,1,0.0,1.0,1.0,0.3377199409130772,0.15127989828649543,0.1864400426265818,0.4889998391995727,0.15127989828649543,0.540932745692165,0,6,4,2,5,1,1.0,1.0,1.0,1.0,1.0,1.0,0.0,1.0,1.0,0.0,0.0,1.0,3.0,8.0,6.0,4.0,5.0,2.0,1.0,6.0,2.0,1.0,3.0,4.0,5.0,5.888234276149888,2.3307755445712246,1.5229968636413105,3.37726847542217,4.256638252991252,4.952387781115249,914.9330117827631,1334.6471865131753,1335.4556103669456,1335.0913134870352,1342.389840366086,1343.3951901977416,1336.464080862468,1342.3815055763698
1,258,1,1,1.0,1.0,0.3400656918529421,0,0.0,0.0,0.0,0.33815782993755,0.15112190739723855,0.18703592254031146,0.4892797373347886,0.15112190739723855,0.42570880396912497,5,8,6,3,0,2,nan,nan,nan,nan,nan,nan,nan,nan,nan,nan,nan,nan,0.0,nan,nan,nan,nan,nan,nan,nan,nan,nan,nan,nan,nan,nan,nan,nan,nan,nan,nan,914.9330117827631,1343.6150290784426,nan,1343.9550947702955,nan,nan,nan,nan
1,259,1,1,1.0,1.0,0.33922095160232857,0,0.0,0.0,0.0,0.3381656490437606,0.15081196267011465,0.18735368637364597,0.48897761171387527,0.15081196267011465,0.3744712057717455,3,7,5,2,1,0,nan,nan,nan,nan,nan,nan,nan,nan,nan,nan,nan,nan,0.0,nan,nan,nan,nan,nan,nan,nan,nan,nan,nan,nan,nan,nan,nan,nan,nan,nan,nan,914.9330117827631,1344.6318497588509,nan,1344.9710707104532,nan,nan,nan,nan
1,260,1,1,1.0,1.0,0.1380704171024263,0,0.0,0.0,0.0,0.33816995640114256,0.15050388349067054,0.18766607291047202,0.4886738398918131,0.15050388349067054,0.2724523535192323,8,3,2,0,7,4,nan,nan,nan,nan,nan,nan,nan,nan,nan,nan,nan,nan,0.0,nan,nan,nan,nan,nan,nan,nan,nan,nan,nan,nan,nan,nan,nan,nan,nan,nan,nan,914.9330117827631,1345.6569567625993,nan,1345.7950271797017,nan,nan,nan,nan
1,261,1,1,1.0,1.0,0.017265715694520622,1,1.0,0.0,1.0,0.33735654363976564,0.15073633233384784,0.1866202113059178,0.4880928759736135,0.15073633233384784,0.16485236146642515,5,6,4,8,0,7,1.0,1.0,1.0,1.0,1.0,1.0,1.0,1.0,0.0,0.0,0.0,0.0,2.0,5.0,6.0,8.0,1.0,2.0,1.0,1.0,3.0,2.0,6.0,5.0,4.0,1.5521308523602784,3.3977292651543394,2.3672202571178786,5.46134650404565,4.757779350853525,4.141772962466348,914.9330117827631,1346.6737569161342,1347.4821816251497,1346.6910226318287,1353.9913461875985,1355.0013388121733,1348.4906398615567,1353.9830225166515
1,262,1,1,1.0,1.0,0.23397794552147388,0,0.0,0.0,0.0,0.33606062935658654,0.1517978363621128,0.18426279299447373,0.48785846571869934,0.1517978363621128,0.1297713594394736,1,2,3,0,7,5,nan,nan,nan,nan,nan,nan,nan,nan,nan,nan,nan,nan,0.0,nan,nan,nan,nan,nan,nan,nan,nan,nan,nan,nan,nan,nan,nan,nan,nan,nan,nan,914.9330117827631,1355.2248753915774,nan,1355.4588533370988,nan,nan,nan,nan
1,263,1,1,1.0,1.0,0.4007775145582855,0,0.0,0.0,0.0,0.33564900563144495,0.1516295475924479,0.18401945803899705,0.48727855322389285,0.1516295475924479,0.21734039192475998,7,1,4,3,8,0,nan,nan,nan,nan,nan,nan,nan,nan,nan,nan,nan,nan,0.0,nan,nan,nan,nan,nan,nan,nan,nan,nan,nan,nan,nan,nan,nan,nan,nan,nan,nan,914.9330117827631,1356.250010049669,nan,1356.6507875642274,nan,nan,nan,nan
1,264,1,1,1.0,1.0,0.5199725623824634,0,0.0,0.0,0.0,0.3359105659082596,0.15138081417287033,0.18452975173538924,0.48729138008112993,0.15138081417287033,0.3849093408207409,2,8,3,7,1,6,nan,nan,nan,nan,nan,nan,nan,nan,nan,nan,nan,nan,0.0,nan,nan,nan,nan,nan,nan,nan,nan,nan,nan,nan,nan,nan,nan,nan,nan,nan,nan,914.9330117827631,1357.2668102031457,nan,1357.7867827655282,nan,nan,nan,nan
1,265,1,1,1.0,1.0,0.4231649849098176,0,0.0,0.0,0.0,0.33664681389415635,0.15152379189133988,0.18512302200281647,0.4881706057854962,0.15152379189133988,0.44797168728352216,3,1,5,8,6,7,nan,nan,nan,nan,nan,nan,nan,nan,nan,nan,nan,nan,0.0,nan,nan,nan,nan,nan,nan,nan,nan,nan,nan,nan,nan,nan,nan,nan,nan,nan,nan,914.9330117827631,1358.2835963869584,nan,1358.7067613718682,nan,nan,nan,nan
1,266,1,1,1.0,1.0,0.39832112507428974,0,0.0,0.0,0.0,0.3369915078025853,0.1513198302653076,0.1856716775372777,0.4883113380678929,0.1513198302653076,0.4471528907888569,7,8,3,4,5,2,nan,nan,nan,nan,nan,nan,nan,nan,nan,nan,nan,nan,0.0,nan,nan,nan,nan,nan,nan,nan,nan,nan,nan,nan,nan,nan,nan,nan,nan,nan,nan,914.9330117827631,1359.300409939955,nan,1359.6987310650293,nan,nan,nan,nan
1,267,1,1,1.0,1.0,0.3655131006380543,0,0.0,0.0,0.0,0.33723487929969526,0.15106850707314481,0.18616637222655044,0.4883033863728401,0.15106850707314481,0.3956664035407205,4,6,0,7,3,5,nan,nan,nan,nan,nan,nan,nan,nan,nan,nan,nan,nan,0.0,nan,nan,nan,nan,nan,nan,nan,nan,nan,nan,nan,nan,nan,nan,nan,nan,nan,nan,914.9330117827631,1360.3171969790128,nan,1360.6827100796509,nan,nan,nan,nan
1,268,1,1,1.0,1.0,0.3326762814540416,0,0.0,0.0,0.0,0.33734665092553856,0.15078009721362898,0.18656655371190958,0.48812674813916757,0.15078009721362898,0.3655035023887952,1,3,7,4,8,2,nan,nan,nan,nan,nan,nan,nan,nan,nan,nan,nan,nan,0.0,nan,nan,nan,nan,nan,nan,nan,nan,nan,nan,nan,nan,nan,nan,nan,nan,nan,nan,914.9330117827631,1361.3340056854067,nan,1361.6666819668608,nan,nan,nan,nan
1,269,1,1,1.0,1.0,0.2998782353824936,0,0.0,0.0,0.0,0.3373282636441547,0.15048327749406948,0.1868449861500852,0.48781154113822417,0.15048327749406948,0.33268920582486317,8,1,3,2,5,6,nan,nan,nan,nan,nan,nan,nan,nan,nan,nan,nan,nan,0.0,nan,nan,nan,nan,nan,nan,nan,nan,nan,nan,nan,nan,nan,nan,nan,nan,nan,nan,914.9330117827631,1362.3507970009232,nan,1362.6506752363057,nan,nan,nan,nan
1,270,1,1,1.0,1.0,0.427047140954528,0,0.0,0.0,0.0,0.3371814007882266,0.15020615993686157,0.18697524085136505,0.48738756072508815,0.15020615993686157,0.35320055259702104,1,7,4,8,2,5,nan,nan,nan,nan,nan,nan,nan,nan,nan,nan,nan,nan,0.0,nan,nan,nan,nan,nan,nan,nan,nan,nan,nan,nan,nan,nan,nan,nan,nan,nan,nan,914.9330117827631,1363.3675991501077,nan,1363.7946462910622,nan,nan,nan,nan
1,271,1,1,1.0,1.0,0.31421344639966264,0,0.0,0.0,0.0,0.33753243883575124,0.15001726955432643,0.1875151692814248,0.48754970839007766,0.15001726955432643,0.3470462742455614,6,2,7,1,8,0,nan,nan,nan,nan,nan,nan,nan,nan,nan,nan,nan,nan,0.0,nan,nan,nan,nan,nan,nan,nan,nan,nan,nan,nan,nan,nan,nan,nan,nan,nan,nan,914.9330117827631,1364.384398163238,nan,1364.6986116096377,nan,nan,nan,nan
1,272,1,1,1.0,1.0,0.19340047729201615,0,0.0,0.0,0.0,0.3374417034566225,0.14973216084375598,0.18770954261286651,0.48717386430037846,0.14973216084375598,0.31155368821540225,0,3,2,7,6,5,nan,nan,nan,nan,nan,nan,nan,nan,nan,nan,nan,nan,0.0,nan,nan,nan,nan,nan,nan,nan,nan,nan,nan,nan,nan,nan,nan,nan,nan,nan,nan,914.9330117827631,1365.4012011676678,nan,1365.5946016449598,nan,nan,nan,nan
1,273,1,1,1.0,1.0,0.3525751464185305,0,0.0,0.0,0.0,0.3368834041304031,0.14970947956899222,0.18717392456141085,0.4865928836993953,0.14970947956899222,0.28672969003673643,6,2,7,8,0,1,nan,nan,nan,nan,nan,nan,nan,nan,nan,nan,nan,nan,0.0,nan,nan,nan,nan,nan,nan,nan,nan,nan,nan,nan,nan,nan,nan,nan,nan,nan,nan,914.9330117827631,1366.417992198083,nan,1366.7705673445016,nan,nan,nan,nan
1,274,0,0,0.0,1.0,0.4797765529365279,0,0.0,0.0,0.0,0.33694399000796343,0.14942335459207562,0.18752063541588782,0.48636734460003905,0.14942335459207562,0.3419173922156915,7,6,8,1,4,0,nan,nan,nan,nan,nan,nan,nan,nan,nan,nan,nan,nan,0.0,nan,nan,nan,nan,nan,nan,nan,nan,nan,nan,nan,nan,nan,nan,nan,nan,nan,nan,914.9330117827631,1367.4347855092492,nan,1367.9145620621857,nan,nan,nan,nan
1,275,1,1,1.0,1.0,0.3909402674762532,0,0.0,0.0,0.0,0.33749334601922715,0.14939755236347038,0.18809579365575677,0.4868908983826975,0.14939755236347038,0.40776398894377053,0,2,6,3,8,7,nan,nan,nan,nan,nan,nan,nan,nan,nan,nan,nan,nan,0.0,nan,nan,nan,nan,nan,nan,nan,nan,nan,nan,nan,nan,nan,nan,nan,nan,nan,nan,914.9330117827631,1368.451585377683,nan,1368.8425256451592,nan,nan,nan,nan
