block,trial,freq_trials,correct_response,actual_response,acc,rts,probe_trials,trials_colorind0,trials_colorind1,trials_colorind2,trials_colorind3,trials_colorind4,trials_colorind5,wholereport_resp0,wholereport_resp1,wholereport_resp2,wholereport_resp3,wholereport_resp4,wholereport_resp5,wholereport_respacc0,wholereport_respacc1,wholereport_respacc2,wholereport_respacc3,wholereport_respacc4,wholereport_respacc5,wholereport_respacc_total,wholereport_respcolorind0,wholereport_respcolorind1,wholereport_respcolorind2,wholereport_respcolorind3,wholereport_respcolorind4,wholereport_respcolorind5,wholereport_resporder0,wholereport_resporder1,wholereport_resporder2,wholereport_resporder3,wholereport_resporder4,wholereport_resporder5,wholereport_rts0,wholereport_rts1,wholereport_rts2,wholereport_rts3,wholereport_rts4,wholereport_rts5,time_blockstart,time_encarray_offset,time_encarray_onset,time_response,time_iti_offset,time_iti_onset,time_memprobe_offset,time_memprobe_onset
1,1,1,1,1.0,1.0,0.497874150509233,0.0,2,7,3,0,8,5,nan,nan,nan,nan,nan,nan,nan,nan,nan,nan,nan,nan,0.0,nan,nan,nan,nan,nan,nan,nan,nan,nan,nan,nan,nan,nan,nan,nan,nan,nan,nan,244.56388710146894,245.5779704801571,nan,246.07584463066632,nan,nan,nan,nan
1,2,1,1,1.0,1.0,0.24135383811881184,0.0,7,2,3,8,0,5,nan,nan,nan,nan,nan,nan,nan,nan,nan,nan,nan,nan,0.0,nan,nan,nan,nan,nan,nan,nan,nan,nan,nan,nan,nan,nan,nan,nan,nan,nan,nan,244.56388710146894,246.58650096264137,nan,246.82785480076018,nan,nan,nan,nan
1,3,1,1,1.0,1.0,0.256900350930664,0.0,0,7,1,2,3,4,nan,nan,nan,nan,nan,nan,nan,nan,nan,nan,nan,nan,0.0,nan,nan,nan,nan,nan,nan,nan,nan,nan,nan,nan,nan,nan,nan,nan,nan,nan,nan,244.56388710146894,247.5949171199518,nan,247.85181747088245,nan,nan,nan,nan
1,4,1,1,1.0,1.0,0.3444038683519466,0.0,7,2,8,5,4,6,nan,nan,nan,nan,nan,nan,nan,nan,nan,nan,nan,nan,0.0,nan,nan,nan,nan,nan,nan,nan,nan,nan,nan,nan,nan,nan,nan,nan,nan,nan,nan,244.56388710146894,248.60339172280146,nan,248.9477955911534,nan,nan,nan,nan
1,5,1,1,1.0,1.0,0.27194223642254656,0.0,6,1,0,4,2,7,nan,nan,nan,nan,nan,nan,nan,nan,nan,nan,nan,nan,0.0,nan,nan,nan,nan,nan,nan,nan,nan,nan,nan,nan,nan,nan,nan,nan,nan,nan,nan,244.56388710146894,249.6118574875436,nan,249.88379972396615,nan,nan,nan,nan
1,6,1,1,1.0,1.0,0.27147723802954715,0.0,2,6,4,8,7,1,nan,nan,nan,nan,nan,nan,nan,nan,nan,nan,nan,nan,0.0,nan,nan,nan,nan,nan,nan,nan,nan,nan,nan,nan,nan,nan,nan,nan,nan,nan,nan,244.56388710146894,250.6203201161843,nan,250.89179735421385,nan,nan,nan,nan
1,7,1,1,1.0,1.0,0.3029933523193904,0.0,0,5,1,6,4,7,nan,nan,nan,nan,nan,nan,nan,nan,nan,nan,nan,nan,0.0,nan,nan,nan,nan,nan,nan,nan,nan,nan,nan,nan,nan,nan,nan,nan,nan,nan,nan,244.56388710146894,251.62880583793958,nan,251.93179919025897,nan,nan,nan,nan
1,8,1,1,1.0,1.0,0.2865353742326988,0.0,5,2,6,1,3,8,nan,nan,nan,nan,nan,nan,nan,nan,nan,nan,nan,nan,0.0,nan,nan,nan,nan,nan,nan,nan,nan,nan,nan,nan,nan,nan,nan,nan,nan,nan,nan,244.56388710146894,252.63725563707158,nan,252.92379101130427,nan,nan,nan,nan
1,9,0,0,0.0,1.0,0.43002629478905874,1.0,4,8,7,6,0,1,1.0,1.0,1.0,1.0,1.0,1.0,0.0,1.0,1.0,0.0,0.0,0.0,2.0,7.0,8.0,7.0,8.0,4.0,6.0,6.0,2.0,1.0,3.0,4.0,5.0,7.193362924830581,2.104979303152504,1.2735721541503153,3.241223547334812,4.881922909480636,5.889592674520827,244.56388710146894,253.64575589893684,254.45417599063148,254.0757821937259,262.70527312739796,263.7120183125553,255.47096154882456,262.69693879383885
1,10,1,1,1.0,1.0,0.24990285211242735,0.0,8,0,3,5,7,2,nan,nan,nan,nan,nan,nan,nan,nan,nan,nan,nan,nan,0.0,nan,nan,nan,nan,nan,nan,nan,nan,nan,nan,nan,nan,nan,nan,nan,nan,nan,nan,244.56388710146894,263.91379967549983,nan,264.16370252761226,nan,nan,nan,nan
1,11,1,1,1.0,1.0,0.39340032997461094,0.0,1,3,7,0,2,5,nan,nan,nan,nan,nan,nan,nan,nan,nan,nan,nan,nan,0.0,nan,nan,nan,nan,nan,nan,nan,nan,nan,nan,nan,nan,nan,nan,nan,nan,nan,nan,244.56388710146894,264.92229280985885,nan,265.31569313983346,nan,nan,nan,nan
1,12,1,1,1.0,1.0,0.36887800819931726,0.0,3,7,1,6,8,2,nan,nan,nan,nan,nan,nan,nan,nan,nan,nan,nan,nan,0.0,nan,nan,nan,nan,nan,nan,nan,nan,nan,nan,nan,nan,nan,nan,nan,nan,nan,nan,244.56388710146894,265.9307588597021,nan,266.2996368679014,nan,nan,nan,nan
1,13,1,1,1.0,1.0,0.32044034292994183,0.0,6,2,5,7,0,4,nan,nan,nan,nan,nan,nan,nan,nan,nan,nan,nan,nan,0.0,nan,nan,nan,nan,nan,nan,nan,nan,nan,nan,nan,nan,nan,nan,nan,nan,nan,nan,244.56388710146894,266.9392100843361,nan,267.259650427266,nan,nan,nan,nan
1,14,1,1,1.0,1.0,0.3759641731703596,0.0,2,0,6,8,3,1,nan,nan,nan,nan,nan,nan,nan,nan,nan,nan,nan,nan,0.0,nan,nan,nan,nan,nan,nan,nan,nan,nan,nan,nan,nan,nan,nan,nan,nan,nan,nan,244.56388710146894,267.9476832616838,nan,268.32364743485414,nan,nan,nan,nan
1,15,1,1,1.0,1.0,0.3834782735120825,0.0,8,7,3,4,0,2,nan,nan,nan,nan,nan,nan,nan,nan,nan,nan,nan,nan,0.0,nan,nan,nan,nan,nan,nan,nan,nan,nan,nan,nan,nan,nan,nan,nan,nan,nan,nan,244.56388710146894,268.9561552986306,nan,269.3396335721427,nan,nan,nan,nan
1,16,1,1,1.0,1.0,0.3589716322476306,0.0,4,3,7,1,8,6,nan,nan,nan,nan,nan,nan,nan,nan,nan,nan,nan,nan,0.0,nan,nan,nan,nan,nan,nan,nan,nan,nan,nan,nan,nan,nan,nan,nan,nan,nan,nan,244.56388710146894,269.9646455819875,nan,270.3236172142351,nan,nan,nan,nan
1,17,1,1,1.0,1.0,0.37449505194490484,0.0,1,6,4,2,3,8,nan,nan,nan,nan,nan,nan,nan,nan,nan,nan,nan,nan,0.0,nan,nan,nan,nan,nan,nan,nan,nan,nan,nan,nan,nan,nan,nan,nan,nan,nan,nan,244.56388710146894,270.97310764042777,nan,271.3476026923727,nan,nan,nan,nan
1,18,1,1,1.0,1.0,0.3180081532955228,0.0,2,7,3,5,8,4,nan,nan,nan,nan,nan,nan,nan,nan,nan,nan,nan,nan,0.0,nan,nan,nan,nan,nan,nan,nan,nan,nan,nan,nan,nan,nan,nan,nan,nan,nan,nan,244.56388710146894,271.9815859495793,nan,272.29959410287483,nan,nan,nan,nan
1,19,1,1,1.0,1.0,0.3655280810835393,0.0,1,2,6,0,5,3,nan,nan,nan,nan,nan,nan,nan,nan,nan,nan,nan,nan,0.0,nan,nan,nan,nan,nan,nan,nan,nan,nan,nan,nan,nan,nan,nan,nan,nan,nan,nan,244.56388710146894,272.99006197792914,nan,273.3555900590127,nan,nan,nan,nan
1,20,1,1,1.0,1.0,0.3970464761750918,0.0,0,1,4,2,6,8,nan,nan,nan,nan,nan,nan,nan,nan,nan,nan,nan,nan,0.0,nan,nan,nan,nan,nan,nan,nan,nan,nan,nan,nan,nan,nan,nan,nan,nan,nan,nan,244.56388710146894,273.998523466169,nan,274.3955699423441,nan,nan,nan,nan
1,21,1,1,1.0,1.0,0.3805448777620768,0.0,7,4,3,8,1,6,nan,nan,nan,nan,nan,nan,nan,nan,nan,nan,nan,nan,0.0,nan,nan,nan,nan,nan,nan,nan,nan,nan,nan,nan,nan,nan,nan,nan,nan,nan,nan,244.56388710146894,275.00700206041984,nan,275.3875469381819,nan,nan,nan,nan
1,22,1,1,1.0,1.0,0.40406649790566007,0.0,6,5,8,4,7,2,nan,nan,nan,nan,nan,nan,nan,nan,nan,nan,nan,nan,0.0,nan,nan,nan,nan,nan,nan,nan,nan,nan,nan,nan,nan,nan,nan,nan,nan,nan,nan,244.56388710146894,276.0154701059637,nan,276.41953660386935,nan,nan,nan,nan
1,23,0,0,0.0,1.0,0.6115783744662622,1.0,8,3,7,1,5,6,1.0,1.0,1.0,1.0,1.0,1.0,1.0,0.0,1.0,0.0,0.0,0.0,2.0,8.0,4.0,7.0,5.0,3.0,0.0,2.0,4.0,3.0,1.0,5.0,6.0,2.223371999569281,4.551374624772507,3.304134038138727,1.0635131925828318,7.166892798626577,8.006661935904049,244.56388710146894,277.0239526916175,277.8323673664072,277.6355310660838,286.88360100913997,287.89178224390344,278.84088501938277,286.87526582028113
1,24,1,1,1.0,1.0,0.3989820212991617,0.0,6,4,5,0,8,2,nan,nan,nan,nan,nan,nan,nan,nan,nan,nan,nan,nan,0.0,nan,nan,nan,nan,nan,nan,nan,nan,nan,nan,nan,nan,nan,nan,nan,nan,nan,nan,244.56388710146894,288.10049211141995,nan,288.4994741327191,nan,nan,nan,nan
1,25,1,1,1.0,1.0,0.3824721549790411,0.0,0,5,3,2,6,4,nan,nan,nan,nan,nan,nan,nan,nan,nan,nan,nan,nan,0.0,nan,nan,nan,nan,nan,nan,nan,nan,nan,nan,nan,nan,nan,nan,nan,nan,nan,nan,244.56388710146894,289.1089707056708,nan,289.49144286064984,nan,nan,nan,nan
1,26,1,1,1.0,1.0,0.5020300558298914,0.0,2,1,7,8,4,3,nan,nan,nan,nan,nan,nan,nan,nan,nan,nan,nan,nan,0.0,nan,nan,nan,nan,nan,nan,nan,nan,nan,nan,nan,nan,nan,nan,nan,nan,nan,nan,244.56388710146894,290.11739313518774,nan,290.61942319101763,nan,nan,nan,nan
1,27,1,1,1.0,1.0,0.2775116684370005,0.0,6,5,8,0,3,2,nan,nan,nan,nan,nan,nan,nan,nan,nan,nan,nan,nan,0.0,nan,nan,nan,nan,nan,nan,nan,nan,nan,nan,nan,nan,nan,nan,nan,nan,nan,nan,244.56388710146894,291.1259079371612,nan,291.4034196055982,nan,nan,nan,nan
1,28,1,1,1.0,1.0,0.28506083610227506,0.0,5,2,0,8,4,1,nan,nan,nan,nan,nan,nan,nan,nan,nan,nan,nan,nan,0.0,nan,nan,nan,nan,nan,nan,nan,nan,nan,nan,nan,nan,nan,nan,nan,nan,nan,nan,244.56388710146894,292.1343494683879,nan,292.41941030449016,nan,nan,nan,nan
1,29,1,1,1.0,1.0,0.2609265356695687,0.0,8,5,6,1,2,4,nan,nan,nan,nan,nan,nan,nan,nan,nan,nan,nan,nan,0.0,nan,nan,nan,nan,nan,nan,nan,nan,nan,nan,nan,nan,nan,nan,nan,nan,nan,nan,244.56388710146894,293.1344712061655,nan,293.39539774183504,nan,nan,nan,nan
1,30,1,1,1.0,1.0,0.2524516477224097,0.0,2,7,3,8,4,0,nan,nan,nan,nan,nan,nan,nan,nan,nan,nan,nan,nan,0.0,nan,nan,nan,nan,nan,nan,nan,nan,nan,nan,nan,nan,nan,nan,nan,nan,nan,nan,244.56388710146894,294.1429361156079,nan,294.3953877633303,nan,nan,nan,nan
1,31,1,1,1.0,1.0,0.24392344603984384,0.0,4,8,6,3,0,7,nan,nan,nan,nan,nan,nan,nan,nan,nan,nan,nan,nan,0.0,nan,nan,nan,nan,nan,nan,nan,nan,nan,nan,nan,nan,nan,nan,nan,nan,nan,nan,244.56388710146894,295.1514423645749,nan,295.39536581061475,nan,nan,nan,nan
1,32,1,1,1.0,1.0,0.2674707252008375,0.0,5,0,2,1,7,4,nan,nan,nan,nan,nan,nan,nan,nan,nan,nan,nan,nan,0.0,nan,nan,nan,nan,nan,nan,nan,nan,nan,nan,nan,nan,nan,nan,nan,nan,nan,nan,244.56388710146894,296.15988646170445,nan,296.4273571869053,nan,nan,nan,nan
1,33,0,0,0.0,1.0,0.3389621612204792,0.0,8,2,5,4,1,6,nan,nan,nan,nan,nan,nan,nan,nan,nan,nan,nan,nan,0.0,nan,nan,nan,nan,nan,nan,nan,nan,nan,nan,nan,nan,nan,nan,nan,nan,nan,nan,244.56388710146894,297.16836876225716,nan,297.50733092347764,nan,nan,nan,nan
1,34,1,1,1.0,1.0,0.5387960048337845,0.0,2,3,7,5,8,0,nan,nan,nan,nan,nan,nan,nan,nan,nan,nan,nan,nan,0.0,nan,nan,nan,nan,nan,nan,nan,nan,nan,nan,nan,nan,nan,nan,nan,nan,nan,nan,244.56388710146894,298.1685392521649,nan,298.7073352569987,nan,nan,nan,nan
1,35,0,0,0.0,1.0,0.4743582323681039,0.0,6,0,2,7,5,1,nan,nan,nan,nan,nan,nan,nan,nan,nan,nan,nan,nan,0.0,nan,nan,nan,nan,nan,nan,nan,nan,nan,nan,nan,nan,nan,nan,nan,nan,nan,nan,244.56388710146894,299.17696396248175,nan,299.65132219484985,nan,nan,nan,nan
1,36,1,1,1.0,1.0,0.3459060612021858,0.0,7,8,0,3,6,5,nan,nan,nan,nan,nan,nan,nan,nan,nan,nan,nan,nan,0.0,nan,nan,nan,nan,nan,nan,nan,nan,nan,nan,nan,nan,nan,nan,nan,nan,nan,nan,244.56388710146894,300.185419463618,nan,300.5313255248202,nan,nan,nan,nan
1,37,1,1,1.0,1.0,0.4013885519161704,0.0,3,1,5,6,2,4,nan,nan,nan,nan,nan,nan,nan,nan,nan,nan,nan,nan,0.0,nan,nan,nan,nan,nan,nan,nan,nan,nan,nan,nan,nan,nan,nan,nan,nan,nan,nan,244.56388710146894,301.19392599768616,nan,301.59531454960234,nan,nan,nan,nan
1,38,1,1,1.0,1.0,0.3769135567708872,0.0,5,7,3,1,8,6,nan,nan,nan,nan,nan,nan,nan,nan,nan,nan,nan,nan,0.0,nan,nan,nan,nan,nan,nan,nan,nan,nan,nan,nan,nan,nan,nan,nan,nan,nan,nan,244.56388710146894,302.2023931879303,nan,302.57930674470117,nan,nan,nan,nan
1,39,1,1,1.0,1.0,0.30447986465696886,0.0,3,4,6,0,7,5,nan,nan,nan,nan,nan,nan,nan,nan,nan,nan,nan,nan,0.0,nan,nan,nan,nan,nan,nan,nan,nan,nan,nan,nan,nan,nan,nan,nan,nan,nan,nan,244.56388710146894,303.21082074924925,nan,303.5153006139062,nan,nan,nan,nan
1,40,1,1,1.0,1.0,0.2799849124985485,0.0,4,0,1,8,5,7,nan,nan,nan,nan,nan,nan,nan,nan,nan,nan,nan,nan,0.0,nan,nan,nan,nan,nan,nan,nan,nan,nan,nan,nan,nan,nan,nan,nan,nan,nan,nan,244.56388710146894,304.21930504550437,nan,304.4992899580029,nan,nan,nan,nan
1,41,1,1,1.0,1.0,0.19948972769816464,0.0,3,8,6,0,1,4,nan,nan,nan,nan,nan,nan,nan,nan,nan,nan,nan,nan,0.0,nan,nan,nan,nan,nan,nan,nan,nan,nan,nan,nan,nan,nan,nan,nan,nan,nan,nan,244.56388710146894,305.22778706095596,nan,305.4272767886541,nan,nan,nan,nan
1,42,1,1,1.0,1.0,0.24701963399456872,0.0,5,3,8,7,0,2,nan,nan,nan,nan,nan,nan,nan,nan,nan,nan,nan,nan,0.0,nan,nan,nan,nan,nan,nan,nan,nan,nan,nan,nan,nan,nan,nan,nan,nan,nan,nan,244.56388710146894,306.23625966810323,nan,306.4832793020978,nan,nan,nan,nan
1,43,1,1,1.0,1.0,0.31850023620427237,0.0,8,5,6,2,7,3,nan,nan,nan,nan,nan,nan,nan,nan,nan,nan,nan,nan,0.0,nan,nan,nan,nan,nan,nan,nan,nan,nan,nan,nan,nan,nan,nan,nan,nan,nan,nan,244.56388710146894,307.24475451306535,nan,307.5632547492696,nan,nan,nan,nan
1,44,1,1,1.0,1.0,0.2780336868672748,0.0,2,7,1,5,4,8,nan,nan,nan,nan,nan,nan,nan,nan,nan,nan,nan,nan,0.0,nan,nan,nan,nan,nan,nan,nan,nan,nan,nan,nan,nan,nan,nan,nan,nan,nan,nan,244.56388710146894,308.2532182821069,nan,308.5312519689742,nan,nan,nan,nan
1,45,1,1,1.0,1.0,0.3415423178485071,0.0,8,1,7,4,2,5,nan,nan,nan,nan,nan,nan,nan,nan,nan,nan,nan,nan,0.0,nan,nan,nan,nan,nan,nan,nan,nan,nan,nan,nan,nan,nan,nan,nan,nan,nan,nan,244.56388710146894,309.2616740683425,nan,309.603216386191,nan,nan,nan,nan
1,46,1,1,1.0,1.0,0.2850605510029709,0.0,2,6,8,3,1,0,nan,nan,nan,nan,nan,nan,nan,nan,nan,nan,nan,nan,0.0,nan,nan,nan,nan,nan,nan,nan,nan,nan,nan,nan,nan,nan,nan,nan,nan,nan,nan,244.56388710146894,310.27015807949647,nan,310.55521863049944,nan,nan,nan,nan
1,47,1,1,1.0,1.0,0.28457331479512504,0.0,0,4,5,6,3,2,nan,nan,nan,nan,nan,nan,nan,nan,nan,nan,nan,nan,0.0,nan,nan,nan,nan,nan,nan,nan,nan,nan,nan,nan,nan,nan,nan,nan,nan,nan,nan,244.56388710146894,311.27863068664374,nan,311.56320400143886,nan,nan,nan,nan
1,48,1,1,1.0,1.0,0.2920571945160191,0.0,6,1,4,3,8,7,nan,nan,nan,nan,nan,nan,nan,nan,nan,nan,nan,nan,0.0,nan,nan,nan,nan,nan,nan,nan,nan,nan,nan,nan,nan,nan,nan,nan,nan,nan,nan,244.56388710146894,312.28713807601343,nan,312.57919527052945,nan,nan,nan,nan
1,49,1,1,1.0,1.0,0.2836379011041572,0.0,2,3,6,5,0,4,nan,nan,nan,nan,nan,nan,nan,nan,nan,nan,nan,nan,0.0,nan,nan,nan,nan,nan,nan,nan,nan,nan,nan,nan,nan,nan,nan,nan,nan,nan,nan,244.56388710146894,313.2955679181323,nan,313.57920581923645,nan,nan,nan,nan
1,50,1,1,1.0,1.0,0.18712208189390367,0.0,8,1,5,3,6,2,nan,nan,nan,nan,nan,nan,nan,nan,nan,nan,nan,nan,0.0,nan,nan,nan,nan,nan,nan,nan,nan,nan,nan,nan,nan,nan,nan,nan,nan,nan,nan,244.56388710146894,314.3040801542047,nan,314.4912022360986,nan,nan,nan,nan
1,51,1,1,1.0,1.0,0.23463602257834282,0.0,4,6,7,2,8,5,nan,nan,nan,nan,nan,nan,nan,nan,nan,nan,nan,nan,0.0,nan,nan,nan,nan,nan,nan,nan,nan,nan,nan,nan,nan,nan,nan,nan,nan,nan,nan,244.56388710146894,315.31255447195326,nan,315.5471904945316,nan,nan,nan,nan
1,52,1,1,1.0,1.0,0.19453924817389634,0.0,3,0,4,5,7,2,nan,nan,nan,nan,nan,nan,nan,nan,nan,nan,nan,nan,0.0,nan,nan,nan,nan,nan,nan,nan,nan,nan,nan,nan,nan,nan,nan,nan,nan,nan,nan,244.56388710146894,316.3126491252133,nan,316.5071883733872,nan,nan,nan,nan
1,53,1,1,1.0,1.0,0.25806184906286944,0.0,6,7,2,0,1,4,nan,nan,nan,nan,nan,nan,nan,nan,nan,nan,nan,nan,0.0,nan,nan,nan,nan,nan,nan,nan,nan,nan,nan,nan,nan,nan,nan,nan,nan,nan,nan,244.56388710146894,317.3211080475521,nan,317.579169896615,nan,nan,nan,nan
1,54,1,1,1.0,1.0,0.3215642078394012,0.0,3,8,5,1,0,2,nan,nan,nan,nan,nan,nan,nan,nan,nan,nan,nan,nan,0.0,nan,nan,nan,nan,nan,nan,nan,nan,nan,nan,nan,nan,nan,nan,nan,nan,nan,nan,244.56388710146894,318.3295923438054,nan,318.6511565516448,nan,nan,nan,nan
1,55,1,1,1.0,1.0,0.22507262214276125,0.0,1,4,0,2,3,5,nan,nan,nan,nan,nan,nan,nan,nan,nan,nan,nan,nan,0.0,nan,nan,nan,nan,nan,nan,nan,nan,nan,nan,nan,nan,nan,nan,nan,nan,nan,nan,244.56388710146894,319.33805924895023,nan,319.563131871093,nan,nan,nan,nan
1,56,1,1,1.0,1.0,0.20860495065062423,0.0,8,7,1,6,2,4,nan,nan,nan,nan,nan,nan,nan,nan,nan,nan,nan,nan,0.0,nan,nan,nan,nan,nan,nan,nan,nan,nan,nan,nan,nan,nan,nan,nan,nan,nan,nan,244.56388710146894,320.3465378432011,nan,320.5551427938517,nan,nan,nan,nan
1,57,1,1,1.0,1.0,0.24013959645162686,0.0,7,6,8,4,5,1,nan,nan,nan,nan,nan,nan,nan,nan,nan,nan,nan,nan,0.0,nan,nan,nan,nan,nan,nan,nan,nan,nan,nan,nan,nan,nan,nan,nan,nan,nan,nan,244.56388710146894,321.35499106353564,nan,321.59513065998726,nan,nan,nan,nan
1,58,0,0,1.0,0.0,0.2479795663002733,0.0,3,8,6,7,4,5,nan,nan,nan,nan,nan,nan,nan,nan,nan,nan,nan,nan,0.0,nan,nan,nan,nan,nan,nan,nan,nan,nan,nan,nan,nan,nan,nan,nan,nan,nan,nan,244.56388710146894,322.35513703482684,nan,322.6031166011271,nan,nan,nan,nan
1,59,1,1,1.0,1.0,0.36751323363751,0.0,2,4,1,6,0,7,nan,nan,nan,nan,nan,nan,nan,nan,nan,nan,nan,nan,0.0,nan,nan,nan,nan,nan,nan,nan,nan,nan,nan,nan,nan,nan,nan,nan,nan,nan,nan,244.56388710146894,323.36359139556225,nan,323.73110462919976,nan,nan,nan,nan
1,60,1,1,1.0,1.0,0.3910046331639023,0.0,8,7,4,0,6,3,nan,nan,nan,nan,nan,nan,nan,nan,nan,nan,nan,nan,0.0,nan,nan,nan,nan,nan,nan,nan,nan,nan,nan,nan,nan,nan,nan,nan,nan,nan,nan,244.56388710146894,324.3720936531281,nan,324.763098286292,nan,nan,nan,nan
1,61,1,1,1.0,1.0,0.29456037409727287,0.0,6,8,0,4,2,7,nan,nan,nan,nan,nan,nan,nan,nan,nan,nan,nan,nan,0.0,nan,nan,nan,nan,nan,nan,nan,nan,nan,nan,nan,nan,nan,nan,nan,nan,nan,nan,244.56388710146894,325.3805406012598,nan,325.67510097535705,nan,nan,nan,nan
1,62,1,1,1.0,1.0,0.2300715686978947,0.0,8,3,1,2,6,4,nan,nan,nan,nan,nan,nan,nan,nan,nan,nan,nan,nan,0.0,nan,nan,nan,nan,nan,nan,nan,nan,nan,nan,nan,nan,nan,nan,nan,nan,nan,nan,244.56388710146894,326.38901349350635,nan,326.61908506220425,nan,nan,nan,nan
1,63,0,0,0.0,1.0,0.3416038994855626,1.0,5,2,6,7,0,1,1.0,1.0,1.0,1.0,1.0,1.0,0.0,0.0,1.0,1.0,1.0,0.0,3.0,4.0,4.0,6.0,7.0,0.0,3.0,5.0,6.0,1.0,2.0,3.0,4.0,6.144779573369306,6.976540246594595,1.0189828252787265,2.320247900308459,3.177020697417902,4.9210144206517725,244.56388710146894,327.3974786880499,328.2059090433486,327.73908258753545,336.24866922363617,337.2497523192196,329.2310565898206,336.24033916657754
1,64,1,1,1.0,1.0,0.329810160343186,0.0,2,8,4,5,3,7,nan,nan,nan,nan,nan,nan,nan,nan,nan,nan,nan,nan,0.0,nan,nan,nan,nan,nan,nan,nan,nan,nan,nan,nan,nan,nan,nan,nan,nan,nan,nan,244.56388710146894,337.4571969121371,nan,337.78700707248026,nan,nan,nan,nan
1,65,0,0,0.0,1.0,0.49730623095092596,1.0,5,2,0,3,8,4,1.0,1.0,1.0,1.0,1.0,1.0,0.0,1.0,1.0,0.0,0.0,0.0,2.0,6.0,2.0,0.0,4.0,3.0,7.0,6.0,1.0,2.0,3.0,4.0,5.0,7.212470909089461,1.7983851355602383,2.9666652316627733,4.06860166059414,5.028706452016195,6.292578357646562,244.56388710146894,338.46566552788136,339.274090751378,338.9629717588323,347.54188221428194,348.54409088537614,340.2909250617031,347.53355928472956
1,66,1,1,1.0,1.0,0.3244739402744017,0.0,1,0,5,6,7,8,nan,nan,nan,nan,nan,nan,nan,nan,nan,nan,nan,nan,0.0,nan,nan,nan,nan,nan,nan,nan,nan,nan,nan,nan,nan,nan,nan,nan,nan,nan,nan,244.56388710146894,348.75043071509754,nan,349.07490465537194,nan,nan,nan,nan
1,67,1,1,1.0,1.0,0.4600079999108857,0.0,5,1,3,4,2,6,nan,nan,nan,nan,nan,nan,nan,nan,nan,nan,nan,nan,0.0,nan,nan,nan,nan,nan,nan,nan,nan,nan,nan,nan,nan,nan,nan,nan,nan,nan,nan,244.56388710146894,349.75885285951153,nan,350.2188608594224,nan,nan,nan,nan
1,68,1,1,1.0,1.0,0.33949244755422114,0.0,0,8,7,5,6,3,nan,nan,nan,nan,nan,nan,nan,nan,nan,nan,nan,nan,0.0,nan,nan,nan,nan,nan,nan,nan,nan,nan,nan,nan,nan,nan,nan,nan,nan,nan,nan,244.56388710146894,350.7673662359848,nan,351.10685868353903,nan,nan,nan,nan
1,69,1,1,1.0,1.0,0.3229860024366644,0.0,5,1,4,2,3,7,nan,nan,nan,nan,nan,nan,nan,nan,nan,nan,nan,nan,0.0,nan,nan,nan,nan,nan,nan,nan,nan,nan,nan,nan,nan,nan,nan,nan,nan,nan,nan,244.56388710146894,351.7758565193435,nan,352.09884252178017,nan,nan,nan,nan
1,70,1,1,1.0,1.0,0.29051822374640324,0.0,7,2,3,4,5,8,nan,nan,nan,nan,nan,nan,nan,nan,nan,nan,nan,nan,0.0,nan,nan,nan,nan,nan,nan,nan,nan,nan,nan,nan,nan,nan,nan,nan,nan,nan,nan,244.56388710146894,352.7843168671825,nan,353.0748350909289,nan,nan,nan,nan
1,71,1,1,1.0,1.0,0.29005664655414876,0.0,0,8,2,1,3,6,nan,nan,nan,nan,nan,nan,nan,nan,nan,nan,nan,nan,0.0,nan,nan,nan,nan,nan,nan,nan,nan,nan,nan,nan,nan,nan,nan,nan,nan,nan,nan,244.56388710146894,353.79276495571503,nan,354.0828216022692,nan,nan,nan,nan
1,72,1,1,1.0,1.0,0.33753209871611034,0.0,3,1,0,5,6,2,nan,nan,nan,nan,nan,nan,nan,nan,nan,nan,nan,nan,0.0,nan,nan,nan,nan,nan,nan,nan,nan,nan,nan,nan,nan,nan,nan,nan,nan,nan,nan,244.56388710146894,354.80125381357175,nan,355.13878591228786,nan,nan,nan,nan
1,73,0,0,0.0,1.0,0.5290643952921528,0.0,0,2,1,8,7,5,nan,nan,nan,nan,nan,nan,nan,nan,nan,nan,nan,nan,0.0,nan,nan,nan,nan,nan,nan,nan,nan,nan,nan,nan,nan,nan,nan,nan,nan,nan,nan,244.56388710146894,355.80972528031816,nan,356.3387896756103,nan,nan,nan,nan
1,74,1,1,1.0,1.0,0.3765794193586771,0.0,1,7,5,4,2,8,nan,nan,nan,nan,nan,nan,nan,nan,nan,nan,nan,nan,0.0,nan,nan,nan,nan,nan,nan,nan,nan,nan,nan,nan,nan,nan,nan,nan,nan,nan,nan,244.56388710146894,356.81818733875843,nan,357.1947667581171,nan,nan,nan,nan
1,75,0,0,0.0,1.0,0.504091900333151,1.0,0,8,6,7,1,3,1.0,1.0,1.0,1.0,1.0,1.0,1.0,1.0,1.0,0.0,0.0,1.0,4.0,0.0,8.0,6.0,2.0,7.0,3.0,1.0,2.0,3.0,4.0,5.0,6.0,1.363095321250512,3.3408372651028913,4.2274033161138505,5.923001283807025,6.77136590641021,7.779077296076139,244.56388710146894,357.82667220521216,358.6350863098032,358.3307641055453,367.4696532240978,368.4807171067805,359.65193886653833,367.461319175638
1,76,1,1,1.0,1.0,0.26821426647074986,0.0,2,5,8,6,0,4,nan,nan,nan,nan,nan,nan,nan,nan,nan,nan,nan,nan,0.0,nan,nan,nan,nan,nan,nan,nan,nan,nan,nan,nan,nan,nan,nan,nan,nan,nan,nan,244.56388710146894,368.6864833149393,nan,368.9546975814101,nan,nan,nan,nan
1,77,1,1,1.0,1.0,0.3399996407733852,0.0,3,0,1,5,6,7,nan,nan,nan,nan,nan,nan,nan,nan,nan,nan,nan,nan,0.0,nan,nan,nan,nan,nan,nan,nan,nan,nan,nan,nan,nan,nan,nan,nan,nan,nan,nan,244.56388710146894,369.6867017016775,nan,370.0267013424509,nan,nan,nan,nan
1,78,1,1,1.0,1.0,0.28359399567489163,0.0,8,3,6,7,0,5,nan,nan,nan,nan,nan,nan,nan,nan,nan,nan,nan,nan,0.0,nan,nan,nan,nan,nan,nan,nan,nan,nan,nan,nan,nan,nan,nan,nan,nan,nan,nan,244.56388710146894,370.695065685657,nan,370.9786596813319,nan,nan,nan,nan
1,79,1,1,1.0,1.0,0.30743977472411643,0.0,2,8,1,4,6,3,nan,nan,nan,nan,nan,nan,nan,nan,nan,nan,nan,nan,0.0,nan,nan,nan,nan,nan,nan,nan,nan,nan,nan,nan,nan,nan,nan,nan,nan,nan,nan,244.56388710146894,371.6952216354548,nan,372.0026614101789,nan,nan,nan,nan
1,80,1,1,1.0,1.0,0.2992132090330415,0.0,6,4,2,0,7,5,nan,nan,nan,nan,nan,nan,nan,nan,nan,nan,nan,nan,0.0,nan,nan,nan,nan,nan,nan,nan,nan,nan,nan,nan,nan,nan,nan,nan,nan,nan,nan,244.56388710146894,372.69540894627244,nan,372.9946221553055,nan,nan,nan,nan
1,81,0,0,0.0,1.0,0.3790820287395036,0.0,8,0,6,7,5,4,nan,nan,nan,nan,nan,nan,nan,nan,nan,nan,nan,nan,0.0,nan,nan,nan,nan,nan,nan,nan,nan,nan,nan,nan,nan,nan,nan,nan,nan,nan,nan,244.56388710146894,373.6955232714445,nan,374.074605300184,nan,nan,nan,nan
1,82,1,1,1.0,1.0,0.35464295621386555,0.0,7,2,3,0,8,6,nan,nan,nan,nan,nan,nan,nan,nan,nan,nan,nan,nan,0.0,nan,nan,nan,nan,nan,nan,nan,nan,nan,nan,nan,nan,nan,nan,nan,nan,nan,nan,244.56388710146894,374.7039670834747,nan,375.0586100396886,nan,nan,nan,nan
1,83,1,1,1.0,1.0,0.38646612339834974,0.0,6,7,4,8,2,5,nan,nan,nan,nan,nan,nan,nan,nan,nan,nan,nan,nan,0.0,nan,nan,nan,nan,nan,nan,nan,nan,nan,nan,nan,nan,nan,nan,nan,nan,nan,nan,244.56388710146894,375.70412474387376,nan,376.0905908672721,nan,nan,nan,nan
1,84,1,1,1.0,1.0,0.4583706695775618,0.0,4,1,7,5,0,6,nan,nan,nan,nan,nan,nan,nan,nan,nan,nan,nan,nan,0.0,nan,nan,nan,nan,nan,nan,nan,nan,nan,nan,nan,nan,nan,nan,nan,nan,nan,nan,244.56388710146894,376.7042450561494,nan,377.16261572572694,nan,nan,nan,nan
1,85,1,1,1.0,1.0,0.31418381948060414,0.0,0,4,2,8,6,7,nan,nan,nan,nan,nan,nan,nan,nan,nan,nan,nan,nan,0.0,nan,nan,nan,nan,nan,nan,nan,nan,nan,nan,nan,nan,nan,nan,nan,nan,nan,nan,244.56388710146894,377.704423243762,nan,378.0186070632426,nan,nan,nan,nan
1,86,1,1,1.0,1.0,0.2660686025155883,0.0,6,0,4,7,1,8,nan,nan,nan,nan,nan,nan,nan,nan,nan,nan,nan,nan,0.0,nan,nan,nan,nan,nan,nan,nan,nan,nan,nan,nan,nan,nan,nan,nan,nan,nan,nan,244.56388710146894,378.7045173268216,nan,378.9705859293372,nan,nan,nan,nan
1,87,1,1,1.0,1.0,0.20192704913642956,0.0,5,7,6,1,0,2,nan,nan,nan,nan,nan,nan,nan,nan,nan,nan,nan,nan,0.0,nan,nan,nan,nan,nan,nan,nan,nan,nan,nan,nan,nan,nan,nan,nan,nan,nan,nan,244.56388710146894,379.7046524643065,nan,379.9065795134429,nan,nan,nan,nan
1,88,1,1,1.0,1.0,0.20977585709078994,0.0,6,1,3,0,4,5,nan,nan,nan,nan,nan,nan,nan,nan,nan,nan,nan,nan,0.0,nan,nan,nan,nan,nan,nan,nan,nan,nan,nan,nan,nan,nan,nan,nan,nan,nan,nan,244.56388710146894,380.70479130809326,nan,380.91456716518405,nan,nan,nan,nan
1,89,1,1,1.0,1.0,0.20963587290134456,0.0,4,6,1,2,5,3,nan,nan,nan,nan,nan,nan,nan,nan,nan,nan,nan,nan,0.0,nan,nan,nan,nan,nan,nan,nan,nan,nan,nan,nan,nan,nan,nan,nan,nan,nan,nan,244.56388710146894,381.70492644558,nan,381.91456231848133,nan,nan,nan,nan
1,90,1,1,1.0,1.0,0.31347420513338875,0.0,0,7,3,4,2,1,nan,nan,nan,nan,nan,nan,nan,nan,nan,nan,nan,nan,0.0,nan,nan,nan,nan,nan,nan,nan,nan,nan,nan,nan,nan,nan,nan,nan,nan,nan,nan,244.56388710146894,382.70508439107834,nan,383.01855859621173,nan,nan,nan,nan
1,91,1,1,1.0,1.0,0.28097962702668156,0.0,2,4,1,5,8,7,nan,nan,nan,nan,nan,nan,nan,nan,nan,nan,nan,nan,0.0,nan,nan,nan,nan,nan,nan,nan,nan,nan,nan,nan,nan,nan,nan,nan,nan,nan,nan,244.56388710146894,383.7135538621242,nan,383.99453348915085,nan,nan,nan,nan
1,92,1,1,1.0,1.0,0.2728824968144181,0.0,4,2,6,8,7,0,nan,nan,nan,nan,nan,nan,nan,nan,nan,nan,nan,nan,0.0,nan,nan,nan,nan,nan,nan,nan,nan,nan,nan,nan,nan,nan,nan,nan,nan,nan,nan,244.56388710146894,384.71366020449204,nan,384.98654270130646,nan,nan,nan,nan
1,93,1,1,1.0,1.0,0.28035354703206394,0.0,0,3,8,4,1,7,nan,nan,nan,nan,nan,nan,nan,nan,nan,nan,nan,nan,0.0,nan,nan,nan,nan,nan,nan,nan,nan,nan,nan,nan,nan,nan,nan,nan,nan,nan,nan,244.56388710146894,385.72213794344134,nan,386.0024914904734,nan,nan,nan,nan
1,94,1,1,1.0,1.0,0.2002016228470893,0.0,6,1,4,7,5,2,nan,nan,nan,nan,nan,nan,nan,nan,nan,nan,nan,nan,0.0,nan,nan,nan,nan,nan,nan,nan,nan,nan,nan,nan,nan,nan,nan,nan,nan,nan,nan,244.56388710146894,386.7222896167368,nan,386.9224912395839,nan,nan,nan,nan
1,95,1,1,1.0,1.0,0.2397832212263893,0.0,7,3,1,0,2,5,nan,nan,nan,nan,nan,nan,nan,nan,nan,nan,nan,nan,0.0,nan,nan,nan,nan,nan,nan,nan,nan,nan,nan,nan,nan,nan,nan,nan,nan,nan,nan,244.56388710146894,387.73072288006006,nan,387.97050610128645,nan,nan,nan,nan
1,96,1,1,1.0,1.0,0.28759081509997486,0.0,0,6,4,7,8,1,nan,nan,nan,nan,nan,nan,nan,nan,nan,nan,nan,nan,0.0,nan,nan,nan,nan,nan,nan,nan,nan,nan,nan,nan,nan,nan,nan,nan,nan,nan,nan,244.56388710146894,388.73090277827214,nan,389.0184935933721,nan,nan,nan,nan
1,97,1,1,1.0,1.0,0.27111829690329614,0.0,6,4,8,5,7,3,nan,nan,nan,nan,nan,nan,nan,nan,nan,nan,nan,nan,0.0,nan,nan,nan,nan,nan,nan,nan,nan,nan,nan,nan,nan,nan,nan,nan,nan,nan,nan,244.56388710146894,389.7393639814127,nan,390.010482278316,nan,nan,nan,nan
1,98,1,1,1.0,1.0,0.19098148302873597,0.0,5,0,3,6,8,2,nan,nan,nan,nan,nan,nan,nan,nan,nan,nan,nan,nan,0.0,nan,nan,nan,nan,nan,nan,nan,nan,nan,nan,nan,nan,nan,nan,nan,nan,nan,nan,244.56388710146894,390.7394974082963,nan,390.93047889132504,nan,nan,nan,nan
1,99,1,1,1.0,1.0,0.22254520904971287,0.0,3,2,0,5,6,4,nan,nan,nan,nan,nan,nan,nan,nan,nan,nan,nan,nan,0.0,nan,nan,nan,nan,nan,nan,nan,nan,nan,nan,nan,nan,nan,nan,nan,nan,nan,nan,244.56388710146894,391.7479303865184,nan,391.97047559556813,nan,nan,nan,nan
1,100,1,1,1.0,1.0,0.24631629185023485,0.0,0,7,8,4,1,3,nan,nan,nan,nan,nan,nan,nan,nan,nan,nan,nan,nan,0.0,nan,nan,nan,nan,nan,nan,nan,nan,nan,nan,nan,nan,nan,nan,nan,nan,nan,nan,244.56388710146894,392.74811570163547,nan,392.9944319934857,nan,nan,nan,nan
1,101,1,1,1.0,1.0,0.2298594541643979,0.0,3,2,7,5,8,6,nan,nan,nan,nan,nan,nan,nan,nan,nan,nan,nan,nan,0.0,nan,nan,nan,nan,nan,nan,nan,nan,nan,nan,nan,nan,nan,nan,nan,nan,nan,nan,244.56388710146894,393.756587453483,nan,393.9864469076474,nan,nan,nan,nan
1,102,1,1,1.0,1.0,0.26172823737579165,0.0,4,8,6,0,5,2,nan,nan,nan,nan,nan,nan,nan,nan,nan,nan,nan,nan,0.0,nan,nan,nan,nan,nan,nan,nan,nan,nan,nan,nan,nan,nan,nan,nan,nan,nan,nan,244.56388710146894,394.7567117571616,nan,395.0184399945374,nan,nan,nan,nan
1,103,1,1,1.0,1.0,0.2535703808280232,0.0,0,5,8,6,4,3,nan,nan,nan,nan,nan,nan,nan,nan,nan,nan,nan,nan,0.0,nan,nan,nan,nan,nan,nan,nan,nan,nan,nan,nan,nan,nan,nan,nan,nan,nan,nan,244.56388710146894,395.7568446138448,nan,396.01041499467283,nan,nan,nan,nan
1,104,1,1,1.0,1.0,0.24540881797656766,0.0,2,0,1,3,5,4,nan,nan,nan,nan,nan,nan,nan,nan,nan,nan,nan,nan,0.0,nan,nan,nan,nan,nan,nan,nan,nan,nan,nan,nan,nan,nan,nan,nan,nan,nan,nan,244.56388710146894,396.75700369974584,nan,397.0024125177224,nan,nan,nan,nan
1,105,1,1,1.0,1.0,0.22093838443470304,0.0,0,1,6,7,4,2,nan,nan,nan,nan,nan,nan,nan,nan,nan,nan,nan,nan,0.0,nan,nan,nan,nan,nan,nan,nan,nan,nan,nan,nan,nan,nan,nan,nan,nan,nan,nan,244.56388710146894,397.76546005618184,nan,397.98639844061654,nan,nan,nan,nan
1,106,1,1,1.0,1.0,0.21244211397242907,0.0,6,8,5,4,1,7,nan,nan,nan,nan,nan,nan,nan,nan,nan,nan,nan,nan,0.0,nan,nan,nan,nan,nan,nan,nan,nan,nan,nan,nan,nan,nan,nan,nan,nan,nan,nan,244.56388710146894,398.7739343739304,nan,398.9863764879028,nan,nan,nan,nan
1,107,1,1,1.0,1.0,0.21229101087737945,0.0,4,3,6,1,7,8,nan,nan,nan,nan,nan,nan,nan,nan,nan,nan,nan,nan,0.0,nan,nan,nan,nan,nan,nan,nan,nan,nan,nan,nan,nan,nan,nan,nan,nan,nan,nan,244.56388710146894,399.77408120052314,nan,399.9863722114005,nan,nan,nan,nan
1,108,1,1,1.0,1.0,0.22814942328477628,0.0,8,6,2,3,1,7,nan,nan,nan,nan,nan,nan,nan,nan,nan,nan,nan,nan,0.0,nan,nan,nan,nan,nan,nan,nan,nan,nan,nan,nan,nan,nan,nan,nan,nan,nan,nan,244.56388710146894,400.77421861880975,nan,401.00236804209453,nan,nan,nan,nan
1,109,1,1,1.0,1.0,0.09999318610607588,0.0,2,4,3,8,6,5,nan,nan,nan,nan,nan,nan,nan,nan,nan,nan,nan,nan,0.0,nan,nan,nan,nan,nan,nan,nan,nan,nan,nan,nan,nan,nan,nan,nan,nan,nan,nan,244.56388710146894,401.7743543264951,nan,401.87434751260116,nan,nan,nan,nan
1,110,1,1,1.0,1.0,0.21954880615703587,0.0,4,2,0,5,3,8,nan,nan,nan,nan,nan,nan,nan,nan,nan,nan,nan,nan,0.0,nan,nan,nan,nan,nan,nan,nan,nan,nan,nan,nan,nan,nan,nan,nan,nan,nan,nan,244.56388710146894,402.7828215167392,nan,403.00237032289624,nan,nan,nan,nan
1,111,1,1,1.0,1.0,0.13111130054494424,0.0,2,6,1,8,7,4,nan,nan,nan,nan,nan,nan,nan,nan,nan,nan,nan,nan,0.0,nan,nan,nan,nan,nan,nan,nan,nan,nan,nan,nan,nan,nan,nan,nan,nan,nan,nan,244.56388710146894,403.7912439462543,nan,403.92235524679927,nan,nan,nan,nan
1,112,1,1,1.0,1.0,0.14689986340999894,0.0,0,4,7,3,1,6,nan,nan,nan,nan,nan,nan,nan,nan,nan,nan,nan,nan,0.0,nan,nan,nan,nan,nan,nan,nan,nan,nan,nan,nan,nan,nan,nan,nan,nan,nan,nan,244.56388710146894,404.7914366739751,nan,404.9383365373851,nan,nan,nan,nan
1,113,1,1,1.0,1.0,0.18676599176797026,0.0,3,2,1,4,0,7,nan,nan,nan,nan,nan,nan,nan,nan,nan,nan,nan,nan,0.0,nan,nan,nan,nan,nan,nan,nan,nan,nan,nan,nan,nan,nan,nan,nan,nan,nan,nan,244.56388710146894,405.79157181146184,nan,405.9783378032298,nan,nan,nan,nan
1,114,1,1,1.0,1.0,0.07430309399387625,0.0,7,3,2,6,1,5,nan,nan,nan,nan,nan,nan,nan,nan,nan,nan,nan,nan,0.0,nan,nan,nan,nan,nan,nan,nan,nan,nan,nan,nan,nan,nan,nan,nan,nan,nan,nan,244.56388710146894,406.80002417649484,nan,406.8743272704887,nan,nan,nan,nan
1,115,1,1,1.0,1.0,0.1781106354064832,0.0,0,2,3,5,8,4,nan,nan,nan,nan,nan,nan,nan,nan,nan,nan,nan,nan,0.0,nan,nan,nan,nan,nan,nan,nan,nan,nan,nan,nan,nan,nan,nan,nan,nan,nan,nan,244.56388710146894,407.80017870079246,nan,407.97828933619894,nan,nan,nan,nan
1,116,1,1,1.0,1.0,0.18567548357896158,0.0,1,8,2,4,7,6,nan,nan,nan,nan,nan,nan,nan,nan,nan,nan,nan,nan,0.0,nan,nan,nan,nan,nan,nan,nan,nan,nan,nan,nan,nan,nan,nan,nan,nan,nan,nan,244.56388710146894,408.8086316360277,nan,408.9943071196067,nan,nan,nan,nan
1,117,1,1,1.0,1.0,0.2175174673757283,0.0,7,4,5,3,1,8,nan,nan,nan,nan,nan,nan,nan,nan,nan,nan,nan,nan,0.0,nan,nan,nan,nan,nan,nan,nan,nan,nan,nan,nan,nan,nan,nan,nan,nan,nan,nan,244.56388710146894,409.80877874771977,nan,410.0262962150955,nan,nan,nan,nan
1,118,1,1,1.0,1.0,0.18502345946944843,0.0,8,1,6,0,4,3,nan,nan,nan,nan,nan,nan,nan,nan,nan,nan,nan,nan,0.0,nan,nan,nan,nan,nan,nan,nan,nan,nan,nan,nan,nan,nan,nan,nan,nan,nan,nan,244.56388710146894,410.8172425167613,nan,411.0022659762308,nan,nan,nan,nan
1,119,1,1,1.0,1.0,0.1685509412727697,0.0,4,0,2,7,6,8,nan,nan,nan,nan,nan,nan,nan,nan,nan,nan,nan,nan,0.0,nan,nan,nan,nan,nan,nan,nan,nan,nan,nan,nan,nan,nan,nan,nan,nan,nan,nan,244.56388710146894,411.82570970700544,nan,411.9942606482782,nan,nan,nan,nan
1,120,0,0,1.0,0.0,0.1920463322003343,1.0,3,7,8,5,1,6,1.0,1.0,1.0,1.0,1.0,1.0,0.0,1.0,1.0,1.0,0.0,0.0,3.0,7.0,7.0,8.0,5.0,2.0,4.0,6.0,3.0,2.0,1.0,4.0,5.0,6.627550826948209,3.1080600956975104,2.355704099085415,1.421850191831254,4.4199135063081485,5.819870285120487,244.56388710146894,412.83419200755816,413.64261295455253,413.0262383397585,421.318637939592,422.3158633446419,414.65111464191796,421.3103081676363
1,121,1,1,1.0,1.0,0.25136769683922466,0.0,7,2,6,0,8,1,nan,nan,nan,nan,nan,nan,nan,nan,nan,nan,nan,nan,0.0,nan,nan,nan,nan,nan,nan,nan,nan,nan,nan,nan,nan,nan,nan,nan,nan,nan,nan,244.56388710146894,422.51883243493467,nan,422.7702001317739,nan,nan,nan,nan
1,122,0,0,0.0,1.0,0.48283083951537265,1.0,2,5,1,4,6,3,1.0,1.0,1.0,1.0,1.0,1.0,0.0,0.0,0.0,1.0,1.0,0.0,2.0,7.0,2.0,3.0,4.0,6.0,4.0,5.0,4.0,3.0,2.0,1.0,6.0,5.101814691155596,3.8549934868860873,2.847085663195685,2.0307700071189174,1.0777451084650238,6.021850362889381,244.56388710146894,423.52730732288364,424.33575478419516,424.010138162399,431.4117026211261,432.4089750677049,425.35255516759753,431.4033754150696
1,123,1,1,1.0,1.0,0.2861812798091705,0.0,0,4,5,8,2,1,nan,nan,nan,nan,nan,nan,nan,nan,nan,nan,nan,nan,0.0,nan,nan,nan,nan,nan,nan,nan,nan,nan,nan,nan,nan,nan,nan,nan,nan,nan,nan,244.56388710146894,432.6119199244822,nan,432.8981012042914,nan,nan,nan,nan
1,124,1,1,1.0,1.0,0.2700004190974141,0.0,4,7,8,0,6,5,nan,nan,nan,nan,nan,nan,nan,nan,nan,nan,nan,nan,0.0,nan,nan,nan,nan,nan,nan,nan,nan,nan,nan,nan,nan,nan,nan,nan,nan,nan,nan,244.56388710146894,433.61206589577523,nan,433.88206631487265,nan,nan,nan,nan
1,125,0,0,1.0,0.0,0.22985745846381178,0.0,0,6,4,1,3,7,nan,nan,nan,nan,nan,nan,nan,nan,nan,nan,nan,nan,0.0,nan,nan,nan,nan,nan,nan,nan,nan,nan,nan,nan,nan,nan,nan,nan,nan,nan,nan,244.56388710146894,434.6122064501633,nan,434.8420639086271,nan,nan,nan,nan
1,126,1,1,1.0,1.0,0.5893702108514844,0.0,4,8,6,3,0,2,nan,nan,nan,nan,nan,nan,nan,nan,nan,nan,nan,nan,0.0,nan,nan,nan,nan,nan,nan,nan,nan,nan,nan,nan,nan,nan,nan,nan,nan,nan,nan,244.56388710146894,435.6206653725021,nan,436.2100355833536,nan,nan,nan,nan
1,127,1,1,1.0,1.0,0.7729003155764076,0.0,3,0,2,1,5,7,nan,nan,nan,nan,nan,nan,nan,nan,nan,nan,nan,nan,0.0,nan,nan,nan,nan,nan,nan,nan,nan,nan,nan,nan,nan,nan,nan,nan,nan,nan,nan,244.56388710146894,436.6291451071538,nan,437.4020454227302,nan,nan,nan,nan
1,128,1,1,1.0,1.0,0.5244403554752353,0.0,8,1,3,4,0,2,nan,nan,nan,nan,nan,nan,nan,nan,nan,nan,nan,nan,0.0,nan,nan,nan,nan,nan,nan,nan,nan,nan,nan,nan,nan,nan,nan,nan,nan,nan,nan,244.56388710146894,437.63758549797967,nan,438.1620258534549,nan,nan,nan,nan
1,129,0,0,1.0,0.0,0.339958301248771,1.0,6,5,8,2,4,7,1.0,1.0,1.0,1.0,1.0,1.0,0.0,1.0,0.0,1.0,0.0,0.0,2.0,4.0,5.0,3.0,2.0,8.0,1.0,6.0,2.0,3.0,1.0,4.0,5.0,7.095163303956724,1.8082521676878969,2.7276825717399333,1.0553413661255036,4.048073307238155,5.935291097261143,244.56388710146894,438.64605582432523,439.45450784724017,438.986014125574,447.60559668759197,448.60163436529183,440.47129967763794,447.59728145574445
1,130,1,1,1.0,1.0,0.2841448092240171,0.0,2,1,5,6,8,0,nan,nan,nan,nan,nan,nan,nan,nan,nan,nan,nan,nan,0.0,nan,nan,nan,nan,nan,nan,nan,nan,nan,nan,nan,nan,nan,nan,nan,nan,nan,nan,244.56388710146894,448.80578519583105,nan,449.08993000505507,nan,nan,nan,nan
1,131,1,1,1.0,1.0,0.30765388496001833,0.0,5,4,8,1,0,7,nan,nan,nan,nan,nan,nan,nan,nan,nan,nan,nan,nan,0.0,nan,nan,nan,nan,nan,nan,nan,nan,nan,nan,nan,nan,nan,nan,nan,nan,nan,nan,244.56388710146894,449.814246969172,nan,450.12190085413204,nan,nan,nan,nan
1,132,1,1,1.0,1.0,0.2671722253126063,0.0,6,5,1,7,4,8,nan,nan,nan,nan,nan,nan,nan,nan,nan,nan,nan,nan,0.0,nan,nan,nan,nan,nan,nan,nan,nan,nan,nan,nan,nan,nan,nan,nan,nan,nan,nan,244.56388710146894,450.822717865718,nan,451.0898900910306,nan,nan,nan,nan
1,133,1,1,1.0,1.0,0.23470644232293125,0.0,3,4,0,8,7,6,nan,nan,nan,nan,nan,nan,nan,nan,nan,nan,nan,nan,0.0,nan,nan,nan,nan,nan,nan,nan,nan,nan,nan,nan,nan,nan,nan,nan,nan,nan,nan,244.56388710146894,451.8311910430657,nan,452.06589748538863,nan,nan,nan,nan
1,134,1,1,1.0,1.0,0.26620316980006464,0.0,6,7,1,0,4,2,nan,nan,nan,nan,nan,nan,nan,nan,nan,nan,nan,nan,0.0,nan,nan,nan,nan,nan,nan,nan,nan,nan,nan,nan,nan,nan,nan,nan,nan,nan,nan,244.56388710146894,452.8396619396117,nan,453.10586510941175,nan,nan,nan,nan
1,135,1,1,1.0,1.0,0.2897156667386298,0.0,5,4,0,3,1,8,nan,nan,nan,nan,nan,nan,nan,nan,nan,nan,nan,nan,0.0,nan,nan,nan,nan,nan,nan,nan,nan,nan,nan,nan,nan,nan,nan,nan,nan,nan,nan,244.56388710146894,453.8481336914574,nan,454.13784935819604,nan,nan,nan,nan
1,136,1,1,1.0,1.0,0.40923764496983495,0.0,0,6,5,2,4,1,nan,nan,nan,nan,nan,nan,nan,nan,nan,nan,nan,nan,0.0,nan,nan,nan,nan,nan,nan,nan,nan,nan,nan,nan,nan,nan,nan,nan,nan,nan,nan,244.56388710146894,454.8566043029041,nan,455.2658419478739,nan,nan,nan,nan
1,137,1,1,1.0,1.0,0.2887694192413619,0.0,3,1,4,8,7,5,nan,nan,nan,nan,nan,nan,nan,nan,nan,nan,nan,nan,0.0,nan,nan,nan,nan,nan,nan,nan,nan,nan,nan,nan,nan,nan,nan,nan,nan,nan,nan,244.56388710146894,455.86507063784666,nan,456.153840057088,nan,nan,nan,nan
1,138,1,1,1.0,1.0,0.2562697093326278,0.0,7,4,2,1,0,6,nan,nan,nan,nan,nan,nan,nan,nan,nan,nan,nan,nan,0.0,nan,nan,nan,nan,nan,nan,nan,nan,nan,nan,nan,nan,nan,nan,nan,nan,nan,nan,244.56388710146894,456.87356149140396,nan,457.1298312007366,nan,nan,nan,nan
1,139,1,1,1.0,1.0,0.21578719438184635,0.0,1,7,3,4,6,8,nan,nan,nan,nan,nan,nan,nan,nan,nan,nan,nan,nan,0.0,nan,nan,nan,nan,nan,nan,nan,nan,nan,nan,nan,nan,nan,nan,nan,nan,nan,nan,244.56388710146894,457.88205377046506,nan,458.0978409648469,nan,nan,nan,nan
1,140,1,1,1.0,1.0,0.2713229988312378,0.0,5,6,4,7,0,3,nan,nan,nan,nan,nan,nan,nan,nan,nan,nan,nan,nan,0.0,nan,nan,nan,nan,nan,nan,nan,nan,nan,nan,nan,nan,nan,nan,nan,nan,nan,nan,244.56388710146894,458.8905195352072,nan,459.16184253403844,nan,nan,nan,nan
1,141,1,1,1.0,1.0,0.22285140664280334,0.0,7,4,8,3,5,2,nan,nan,nan,nan,nan,nan,nan,nan,nan,nan,nan,nan,0.0,nan,nan,nan,nan,nan,nan,nan,nan,nan,nan,nan,nan,nan,nan,nan,nan,nan,nan,244.56388710146894,459.8989368329185,nan,460.1217882395613,nan,nan,nan,nan
1,142,1,1,1.0,1.0,0.2223350902168022,0.0,6,1,7,4,2,8,nan,nan,nan,nan,nan,nan,nan,nan,nan,nan,nan,nan,0.0,nan,nan,nan,nan,nan,nan,nan,nan,nan,nan,nan,nan,nan,nan,nan,nan,nan,nan,244.56388710146894,460.9074408010856,nan,461.1297758913024,nan,nan,nan,nan
1,143,0,0,1.0,0.0,0.10188083439606999,1.0,0,4,5,6,8,3,1.0,1.0,1.0,1.0,1.0,1.0,0.0,0.0,1.0,1.0,0.0,0.0,2.0,4.0,5.0,5.0,6.0,4.0,1.0,3.0,4.0,1.0,2.0,5.0,6.0,3.8663350571441697,5.057845686105793,1.4731639477140561,2.850716128887143,6.393424278390739,7.288505416476255,244.56388710146894,461.9159025744266,462.7243551675401,462.01778340882265,471.0754546136195,472.07943176112894,463.7495106968163,471.06713168406714
1,144,1,1,1.0,1.0,0.2537018120110588,0.0,2,8,0,7,6,4,nan,nan,nan,nan,nan,nan,nan,nan,nan,nan,nan,nan,0.0,nan,nan,nan,nan,nan,nan,nan,nan,nan,nan,nan,nan,nan,nan,nan,nan,nan,nan,244.56388710146894,472.2840202204461,nan,472.53772203245717,nan,nan,nan,nan
1,145,1,1,1.0,1.0,0.25323909441976866,0.0,6,1,3,2,5,0,nan,nan,nan,nan,nan,nan,nan,nan,nan,nan,nan,nan,0.0,nan,nan,nan,nan,nan,nan,nan,nan,nan,nan,nan,nan,nan,nan,nan,nan,nan,nan,244.56388710146894,473.2924571900694,nan,473.54569628448917,nan,nan,nan,nan
1,146,0,0,1.0,0.0,0.2367711378265085,0.0,1,2,5,7,0,6,nan,nan,nan,nan,nan,nan,nan,nan,nan,nan,nan,nan,0.0,nan,nan,nan,nan,nan,nan,nan,nan,nan,nan,nan,nan,nan,nan,nan,nan,nan,nan,244.56388710146894,474.3009129763068,nan,474.5376841141333,nan,nan,nan,nan
1,147,1,1,1.0,1.0,0.5722573576513241,0.0,6,3,1,5,4,8,nan,nan,nan,nan,nan,nan,nan,nan,nan,nan,nan,nan,0.0,nan,nan,nan,nan,nan,nan,nan,nan,nan,nan,nan,nan,nan,nan,nan,nan,nan,nan,244.56388710146894,475.30938501325363,nan,475.88164237090496,nan,nan,nan,nan
1,148,1,1,nan,nan,nan,0.0,2,8,3,4,5,6,nan,nan,nan,nan,nan,nan,nan,nan,nan,nan,nan,nan,0.0,nan,nan,nan,nan,nan,nan,nan,nan,nan,nan,nan,nan,nan,nan,nan,nan,nan,nan,244.56388710146894,476.3095466650557,nan,nan,nan,nan,nan,nan
1,149,1,1,1.0,1.0,0.06002043027910986,0.0,0,4,8,1,2,7,nan,nan,nan,nan,nan,nan,nan,nan,nan,nan,nan,nan,0.0,nan,nan,nan,nan,nan,nan,nan,nan,nan,nan,nan,nan,nan,nan,nan,nan,nan,nan,244.56388710146894,477.30967695583786,nan,477.36969738611697,nan,nan,nan,nan
1,150,0,0,0.0,1.0,0.5158485764532088,0.0,3,0,5,4,6,8,nan,nan,nan,nan,nan,nan,nan,nan,nan,nan,nan,nan,0.0,nan,nan,nan,nan,nan,nan,nan,nan,nan,nan,nan,nan,nan,nan,nan,nan,nan,nan,244.56388710146894,478.30978158760263,nan,478.82563016405584,nan,nan,nan,nan
1,151,1,1,1.0,1.0,0.33136937322706217,0.0,6,2,7,0,8,5,nan,nan,nan,nan,nan,nan,nan,nan,nan,nan,nan,nan,0.0,nan,nan,nan,nan,nan,nan,nan,nan,nan,nan,nan,nan,nan,nan,nan,nan,nan,nan,244.56388710146894,479.31826160735545,nan,479.6496309805825,nan,nan,nan,nan
1,152,1,1,1.0,1.0,0.32321465278073447,0.0,4,1,3,2,5,6,nan,nan,nan,nan,nan,nan,nan,nan,nan,nan,nan,nan,0.0,nan,nan,nan,nan,nan,nan,nan,nan,nan,nan,nan,nan,nan,nan,nan,nan,nan,nan,244.56388710146894,480.31841185515077,nan,480.6416265079315,nan,nan,nan,nan
1,153,0,0,0.0,1.0,0.4827293438502238,1.0,7,8,4,3,0,5,1.0,1.0,1.0,1.0,1.0,1.0,1.0,0.0,0.0,1.0,0.0,0.0,2.0,7.0,5.0,3.0,3.0,1.0,3.0,1.0,4.0,3.0,2.0,5.0,6.0,1.4376287761879212,4.181784721424265,3.255721746785639,2.501790286580217,5.973657028474918,7.205788731072971,244.56388710146894,481.3268861728975,482.135313962297,481.8096155167477,490.3947522750277,491.39205978892824,483.1521303113095,490.3864139500656
1,154,1,1,1.0,1.0,0.28656416935154994,0.0,1,0,6,7,8,4,nan,nan,nan,nan,nan,nan,nan,nan,nan,nan,nan,nan,0.0,nan,nan,nan,nan,nan,nan,nan,nan,nan,nan,nan,nan,nan,nan,nan,nan,nan,nan,244.56388710146894,491.59497385488794,nan,491.8815380242395,nan,nan,nan,nan
1,155,1,1,1.0,1.0,0.2863865519375395,0.0,4,7,8,5,0,3,nan,nan,nan,nan,nan,nan,nan,nan,nan,nan,nan,nan,0.0,nan,nan,nan,nan,nan,nan,nan,nan,nan,nan,nan,nan,nan,nan,nan,nan,nan,nan,244.56388710146894,492.59514947659954,nan,492.8815360285371,nan,nan,nan,nan
1,156,1,1,1.0,1.0,0.3102491518984607,0.0,8,0,5,1,4,7,nan,nan,nan,nan,nan,nan,nan,nan,nan,nan,nan,nan,0.0,nan,nan,nan,nan,nan,nan,nan,nan,nan,nan,nan,nan,nan,nan,nan,nan,nan,nan,244.56388710146894,493.59522474304686,nan,493.9054738949453,nan,nan,nan,nan
1,157,1,1,1.0,1.0,0.23014027784120117,0.0,1,2,3,8,7,5,nan,nan,nan,nan,nan,nan,nan,nan,nan,nan,nan,nan,0.0,nan,nan,nan,nan,nan,nan,nan,nan,nan,nan,nan,nan,nan,nan,nan,nan,nan,nan,244.56388710146894,494.59534020861975,nan,494.82548048646095,nan,nan,nan,nan
1,158,1,1,1.0,1.0,0.25365049397805706,0.0,2,3,7,0,8,4,nan,nan,nan,nan,nan,nan,nan,nan,nan,nan,nan,nan,0.0,nan,nan,nan,nan,nan,nan,nan,nan,nan,nan,nan,nan,nan,nan,nan,nan,nan,nan,244.56388710146894,495.60382250917246,nan,495.8574730031505,nan,nan,nan,nan
1,159,1,1,1.0,1.0,0.23748274787431,0.0,4,1,5,8,3,6,nan,nan,nan,nan,nan,nan,nan,nan,nan,nan,nan,nan,0.0,nan,nan,nan,nan,nan,nan,nan,nan,nan,nan,nan,nan,nan,nan,nan,nan,nan,nan,244.56388710146894,496.6039921437805,nan,496.8414748916548,nan,nan,nan,nan
1,160,1,1,1.0,1.0,0.2210065233775822,0.0,8,6,1,7,0,3,nan,nan,nan,nan,nan,nan,nan,nan,nan,nan,nan,nan,0.0,nan,nan,nan,nan,nan,nan,nan,nan,nan,nan,nan,nan,nan,nan,nan,nan,nan,nan,244.56388710146894,497.6124402323112,nan,497.8334467556888,nan,nan,nan,nan
1,161,1,1,1.0,1.0,0.14883398303027207,0.0,3,0,6,4,8,5,nan,nan,nan,nan,nan,nan,nan,nan,nan,nan,nan,nan,0.0,nan,nan,nan,nan,nan,nan,nan,nan,nan,nan,nan,nan,nan,nan,nan,nan,nan,nan,244.56388710146894,498.6125973225098,nan,498.7614313055401,nan,nan,nan,nan
1,162,1,1,1.0,1.0,0.16438733824543306,0.0,1,8,0,3,5,7,nan,nan,nan,nan,nan,nan,nan,nan,nan,nan,nan,nan,0.0,nan,nan,nan,nan,nan,nan,nan,nan,nan,nan,nan,nan,nan,nan,nan,nan,nan,nan,244.56388710146894,499.62104512594124,nan,499.78543246418667,nan,nan,nan,nan
1,163,1,1,1.0,1.0,0.19620793952708482,0.0,3,2,6,5,7,8,nan,nan,nan,nan,nan,nan,nan,nan,nan,nan,nan,nan,0.0,nan,nan,nan,nan,nan,nan,nan,nan,nan,nan,nan,nan,nan,nan,nan,nan,nan,nan,244.56388710146894,500.6212047820427,nan,500.8174127215698,nan,nan,nan,nan
1,164,1,1,1.0,1.0,0.20403023316248436,0.0,1,5,8,0,3,4,nan,nan,nan,nan,nan,nan,nan,nan,nan,nan,nan,nan,0.0,nan,nan,nan,nan,nan,nan,nan,nan,nan,nan,nan,nan,nan,nan,nan,nan,nan,nan,244.56388710146894,501.6213638679437,nan,501.8253941011062,nan,nan,nan,nan
1,165,1,1,1.0,1.0,0.155921288402169,0.0,8,0,4,1,6,3,nan,nan,nan,nan,nan,nan,nan,nan,nan,nan,nan,nan,0.0,nan,nan,nan,nan,nan,nan,nan,nan,nan,nan,nan,nan,nan,nan,nan,nan,nan,nan,244.56388710146894,502.6214764825145,nan,502.77739777091665,nan,nan,nan,nan
1,166,0,0,0.0,1.0,0.3637567536679853,1.0,6,4,7,3,1,2,1.0,1.0,1.0,1.0,1.0,1.0,0.0,1.0,1.0,1.0,0.0,0.0,3.0,1.0,4.0,7.0,3.0,0.0,7.0,4.0,3.0,2.0,1.0,6.0,5.0,4.758555500024158,3.2886026356372895,2.152087261183624,1.3196278074174188,7.870977913575189,6.855331900800593,244.56388710146894,503.62161960280355,504.4300268649895,503.98537635647153,513.3562677421414,514.3550640491812,505.44684663520457,513.347927706578
1,167,1,1,1.0,1.0,0.2208736666925688,0.0,3,0,4,7,6,5,nan,nan,nan,nan,nan,nan,nan,nan,nan,nan,nan,nan,0.0,nan,nan,nan,nan,nan,nan,nan,nan,nan,nan,nan,nan,nan,nan,nan,nan,nan,nan,244.56388710146894,514.5564556801801,nan,514.7773293468726,nan,nan,nan,nan
1,168,1,1,1.0,1.0,0.3327133354741818,0.0,4,8,7,2,3,1,nan,nan,nan,nan,nan,nan,nan,nan,nan,nan,nan,nan,0.0,nan,nan,nan,nan,nan,nan,nan,nan,nan,nan,nan,nan,nan,nan,nan,nan,nan,nan,244.56388710146894,515.5565765626561,nan,515.8892898981303,nan,nan,nan,nan
1,169,1,1,1.0,1.0,0.2285958901666163,0.0,3,5,4,6,0,2,nan,nan,nan,nan,nan,nan,nan,nan,nan,nan,nan,nan,0.0,nan,nan,nan,nan,nan,nan,nan,nan,nan,nan,nan,nan,nan,nan,nan,nan,nan,nan,244.56388710146894,516.5566948792311,nan,516.7852907693978,nan,nan,nan,nan
1,170,1,1,1.0,1.0,0.18811850702149968,0.0,1,4,0,8,5,3,nan,nan,nan,nan,nan,nan,nan,nan,nan,nan,nan,nan,0.0,nan,nan,nan,nan,nan,nan,nan,nan,nan,nan,nan,nan,nan,nan,nan,nan,nan,nan,244.56388710146894,517.5651463889644,nan,517.7532648959859,nan,nan,nan,nan
1,171,1,1,1.0,1.0,0.17993413615658937,0.0,2,5,8,1,7,0,nan,nan,nan,nan,nan,nan,nan,nan,nan,nan,nan,nan,0.0,nan,nan,nan,nan,nan,nan,nan,nan,nan,nan,nan,nan,nan,nan,nan,nan,nan,nan,244.56388710146894,518.5653094662666,nan,518.7452436024232,nan,nan,nan,nan
1,172,1,1,1.0,1.0,0.187786935512122,0.0,3,2,6,0,4,1,nan,nan,nan,nan,nan,nan,nan,nan,nan,nan,nan,nan,0.0,nan,nan,nan,nan,nan,nan,nan,nan,nan,nan,nan,nan,nan,nan,nan,nan,nan,nan,244.56388710146894,519.5654791008747,nan,519.7532660363868,nan,nan,nan,nan
1,173,1,1,1.0,1.0,0.20364164161765075,0.0,5,7,4,8,6,3,nan,nan,nan,nan,nan,nan,nan,nan,nan,nan,nan,nan,0.0,nan,nan,nan,nan,nan,nan,nan,nan,nan,nan,nan,nan,nan,nan,nan,nan,nan,nan,244.56388710146894,520.5656065406547,nan,520.7692481822723,nan,nan,nan,nan
1,174,1,1,1.0,1.0,0.21951544943658519,0.0,1,0,6,3,4,7,nan,nan,nan,nan,nan,nan,nan,nan,nan,nan,nan,nan,0.0,nan,nan,nan,nan,nan,nan,nan,nan,nan,nan,nan,nan,nan,nan,nan,nan,nan,nan,244.56388710146894,521.5657228615273,nan,521.7852383109639,nan,nan,nan,nan
1,175,1,1,1.0,1.0,0.1873339113262773,0.0,0,5,7,1,2,4,nan,nan,nan,nan,nan,nan,nan,nan,nan,nan,nan,nan,0.0,nan,nan,nan,nan,nan,nan,nan,nan,nan,nan,nan,nan,nan,nan,nan,nan,nan,nan,244.56388710146894,522.5658676924195,nan,522.7532016037458,nan,nan,nan,nan
1,176,1,1,1.0,1.0,0.19519725938880583,0.0,1,4,5,2,3,0,nan,nan,nan,nan,nan,nan,nan,nan,nan,nan,nan,nan,0.0,nan,nan,nan,nan,nan,nan,nan,nan,nan,nan,nan,nan,nan,nan,nan,nan,nan,nan,244.56388710146894,523.566008817008,nan,523.7612060763968,nan,nan,nan,nan
1,177,1,1,1.0,1.0,0.19504216489076498,0.0,2,0,6,4,1,3,nan,nan,nan,nan,nan,nan,nan,nan,nan,nan,nan,nan,0.0,nan,nan,nan,nan,nan,nan,nan,nan,nan,nan,nan,nan,nan,nan,nan,nan,nan,nan,244.56388710146894,524.5661382524904,nan,524.7611804173812,nan,nan,nan,nan
1,178,1,1,1.0,1.0,0.17058228005407727,0.0,5,2,3,1,7,8,nan,nan,nan,nan,nan,nan,nan,nan,nan,nan,nan,nan,0.0,nan,nan,nan,nan,nan,nan,nan,nan,nan,nan,nan,nan,nan,nan,nan,nan,nan,nan,244.56388710146894,525.5745931834263,nan,525.7451754634803,nan,nan,nan,nan
1,179,1,1,1.0,1.0,0.07412490638125746,0.0,0,8,5,3,4,6,nan,nan,nan,nan,nan,nan,nan,nan,nan,nan,nan,nan,0.0,nan,nan,nan,nan,nan,nan,nan,nan,nan,nan,nan,nan,nan,nan,nan,nan,nan,nan,244.56388710146894,526.5830626544703,nan,526.6571875608515,nan,nan,nan,nan
1,180,1,1,1.0,1.0,0.13796938537234382,0.0,4,1,2,7,8,0,nan,nan,nan,nan,nan,nan,nan,nan,nan,nan,nan,nan,0.0,nan,nan,nan,nan,nan,nan,nan,nan,nan,nan,nan,nan,nan,nan,nan,nan,nan,nan,244.56388710146894,527.5832040641599,nan,527.7211734495322,nan,nan,nan,nan
1,181,1,1,1.0,1.0,0.08182489204045851,0.0,6,7,8,5,0,3,nan,nan,nan,nan,nan,nan,nan,nan,nan,nan,nan,nan,0.0,nan,nan,nan,nan,nan,nan,nan,nan,nan,nan,nan,nan,nan,nan,nan,nan,nan,nan,244.56388710146894,528.5833491801513,nan,528.6651740721918,nan,nan,nan,nan
1,182,1,1,1.0,1.0,0.08167378894540889,0.0,8,3,4,2,6,7,nan,nan,nan,nan,nan,nan,nan,nan,nan,nan,nan,nan,0.0,nan,nan,nan,nan,nan,nan,nan,nan,nan,nan,nan,nan,nan,nan,nan,nan,nan,nan,244.56388710146894,529.5834794709335,nan,529.6651532598789,nan,nan,nan,nan
1,183,1,1,1.0,1.0,0.049529884059666074,0.0,1,7,5,4,2,0,nan,nan,nan,nan,nan,nan,nan,nan,nan,nan,nan,nan,0.0,nan,nan,nan,nan,nan,nan,nan,nan,nan,nan,nan,nan,nan,nan,nan,nan,nan,nan,244.56388710146894,530.5836305740286,nan,530.6331604580882,nan,nan,nan,nan
1,184,1,1,1.0,1.0,0.09704353964480106,0.0,4,2,7,5,3,8,nan,nan,nan,nan,nan,nan,nan,nan,nan,nan,nan,nan,0.0,nan,nan,nan,nan,nan,nan,nan,nan,nan,nan,nan,nan,nan,nan,nan,nan,nan,nan,244.56388710146894,531.5920971940723,nan,531.6891407337171,nan,nan,nan,nan
1,185,0,0,1.0,0.0,0.15290207749603724,1.0,6,4,2,1,8,7,1.0,1.0,1.0,1.0,1.0,1.0,1.0,1.0,1.0,1.0,0.0,0.0,4.0,6.0,4.0,2.0,1.0,5.0,8.0,4.0,3.0,2.0,1.0,6.0,5.0,5.011640355245618,3.7558610182240955,1.9329752285011637,1.1423827361577423,7.90020410321813,6.811761750903315,244.56388710146894,532.5922223530524,533.4006615464568,532.7451244305485,542.3601838782124,543.3708155490222,534.4174650659625,542.351871497367
1,186,1,1,1.0,1.0,0.27994214747195656,0.0,1,5,8,2,4,6,nan,nan,nan,nan,nan,nan,nan,nan,nan,nan,nan,nan,0.0,nan,nan,nan,nan,nan,nan,nan,nan,nan,nan,nan,nan,nan,nan,nan,nan,nan,nan,244.56388710146894,543.5771034905101,nan,543.8570456379821,nan,nan,nan,nan
1,187,1,1,1.0,1.0,0.2874476948072697,0.0,0,2,4,7,8,5,nan,nan,nan,nan,nan,nan,nan,nan,nan,nan,nan,nan,0.0,nan,nan,nan,nan,nan,nan,nan,nan,nan,nan,nan,nan,nan,nan,nan,nan,nan,nan,244.56388710146894,544.585566404252,nan,544.8730140990592,nan,nan,nan,nan
1,188,1,1,1.0,1.0,0.30332093242577685,0.0,1,4,8,0,3,7,nan,nan,nan,nan,nan,nan,nan,nan,nan,nan,nan,nan,0.0,nan,nan,nan,nan,nan,nan,nan,nan,nan,nan,nan,nan,nan,nan,nan,nan,nan,nan,244.56388710146894,545.5856781635212,nan,545.8889990959469,nan,nan,nan,nan
1,189,1,1,1.0,1.0,0.24716360958518635,0.0,4,1,6,5,2,0,nan,nan,nan,nan,nan,nan,nan,nan,nan,nan,nan,nan,0.0,nan,nan,nan,nan,nan,nan,nan,nan,nan,nan,nan,nan,nan,nan,nan,nan,nan,nan,244.56388710146894,546.5858170073097,nan,546.8329806168949,nan,nan,nan,nan
1,190,1,1,1.0,1.0,0.23900803383730818,0.0,3,6,5,2,7,1,nan,nan,nan,nan,nan,nan,nan,nan,nan,nan,nan,nan,0.0,nan,nan,nan,nan,nan,nan,nan,nan,nan,nan,nan,nan,nan,nan,nan,nan,nan,nan,244.56388710146894,547.5859589871998,nan,547.8249670210371,nan,nan,nan,nan
1,191,1,1,1.0,1.0,0.19086031545157311,0.0,0,8,7,4,3,2,nan,nan,nan,nan,nan,nan,nan,nan,nan,nan,nan,nan,0.0,nan,nan,nan,nan,nan,nan,nan,nan,nan,nan,nan,nan,nan,nan,nan,nan,nan,nan,244.56388710146894,548.5860978309865,nan,548.7769581464381,nan,nan,nan,nan
1,192,1,1,1.0,1.0,0.1827289732209465,0.0,2,7,1,6,8,5,nan,nan,nan,nan,nan,nan,nan,nan,nan,nan,nan,nan,0.0,nan,nan,nan,nan,nan,nan,nan,nan,nan,nan,nan,nan,nan,nan,nan,nan,nan,nan,244.56388710146894,549.5862289770685,nan,549.7689579502894,nan,nan,nan,nan
1,193,1,1,1.0,1.0,0.20656733966461616,0.0,8,2,6,0,4,7,nan,nan,nan,nan,nan,nan,nan,nan,nan,nan,nan,nan,0.0,nan,nan,nan,nan,nan,nan,nan,nan,nan,nan,nan,nan,nan,nan,nan,nan,nan,nan,244.56388710146894,550.5863638294541,nan,550.7929311691187,nan,nan,nan,nan
1,194,1,1,1.0,1.0,0.10214398186326434,0.0,7,8,4,3,2,1,nan,nan,nan,nan,nan,nan,nan,nan,nan,nan,nan,nan,0.0,nan,nan,nan,nan,nan,nan,nan,nan,nan,nan,nan,nan,nan,nan,nan,nan,nan,nan,244.56388710146894,551.5948173348897,nan,551.696961316753,nan,nan,nan,nan
1,195,1,1,1.0,1.0,0.08594344923767494,0.0,5,4,2,6,1,3,nan,nan,nan,nan,nan,nan,nan,nan,nan,nan,nan,nan,0.0,nan,nan,nan,nan,nan,nan,nan,nan,nan,nan,nan,nan,nan,nan,nan,nan,nan,nan,244.56388710146894,552.5949889651984,nan,552.680932414436,nan,nan,nan,nan
1,196,1,1,1.0,1.0,0.15784628481742402,0.0,4,7,6,3,0,8,nan,nan,nan,nan,nan,nan,nan,nan,nan,nan,nan,nan,0.0,nan,nan,nan,nan,nan,nan,nan,nan,nan,nan,nan,nan,nan,nan,nan,nan,nan,nan,244.56388710146894,553.595084188657,nan,553.7529304734744,nan,nan,nan,nan
1,197,1,1,1.0,1.0,0.021696408792195143,0.0,7,3,5,6,4,1,nan,nan,nan,nan,nan,nan,nan,nan,nan,nan,nan,nan,0.0,nan,nan,nan,nan,nan,nan,nan,nan,nan,nan,nan,nan,nan,nan,nan,nan,nan,nan,244.56388710146894,554.5952284493487,nan,554.6169248581409,nan,nan,nan,nan
1,198,1,1,1.0,1.0,0.05322820359288016,0.0,0,1,8,4,6,2,nan,nan,nan,nan,nan,nan,nan,nan,nan,nan,nan,nan,0.0,nan,nan,nan,nan,nan,nan,nan,nan,nan,nan,nan,nan,nan,nan,nan,nan,nan,nan,244.56388710146894,555.6036910779894,nan,555.6569192815823,nan,nan,nan,nan
1,199,1,1,1.0,1.0,0.14072687431144004,0.0,8,6,2,7,1,0,nan,nan,nan,nan,nan,nan,nan,nan,nan,nan,nan,nan,0.0,nan,nan,nan,nan,nan,nan,nan,nan,nan,nan,nan,nan,nan,nan,nan,nan,nan,nan,244.56388710146894,556.6121782252467,nan,556.7529050995581,nan,nan,nan,nan
1,200,1,1,1.0,1.0,0.23659066941218043,0.0,1,8,7,5,0,2,nan,nan,nan,nan,nan,nan,nan,nan,nan,nan,nan,nan,0.0,nan,nan,nan,nan,nan,nan,nan,nan,nan,nan,nan,nan,nan,nan,nan,nan,nan,nan,244.56388710146894,557.6123090862293,nan,557.8488997556415,nan,nan,nan,nan
1,201,1,1,1.0,1.0,0.23643015801098954,0.0,3,5,1,7,4,6,nan,nan,nan,nan,nan,nan,nan,nan,nan,nan,nan,nan,0.0,nan,nan,nan,nan,nan,nan,nan,nan,nan,nan,nan,nan,nan,nan,nan,nan,nan,nan,244.56388710146894,558.6124470747163,nan,558.8488772327273,nan,nan,nan,nan
1,202,1,1,1.0,1.0,0.22829425417694438,0.0,5,8,3,6,7,4,nan,nan,nan,nan,nan,nan,nan,nan,nan,nan,nan,nan,0.0,nan,nan,nan,nan,nan,nan,nan,nan,nan,nan,nan,nan,nan,nan,nan,nan,nan,nan,244.56388710146894,559.6125827824017,nan,559.8408770365786,nan,nan,nan,nan
1,203,1,1,1.0,1.0,0.2041571027439204,0.0,1,6,8,3,0,2,nan,nan,nan,nan,nan,nan,nan,nan,nan,nan,nan,nan,0.0,nan,nan,nan,nan,nan,nan,nan,nan,nan,nan,nan,nan,nan,nan,nan,nan,nan,nan,244.56388710146894,560.6127190602874,nan,560.8168761630313,nan,nan,nan,nan
1,204,1,1,1.0,1.0,0.12368672165757744,0.0,6,3,4,1,5,0,nan,nan,nan,nan,nan,nan,nan,nan,nan,nan,nan,nan,0.0,nan,nan,nan,nan,nan,nan,nan,nan,nan,nan,nan,nan,nan,nan,nan,nan,nan,nan,244.56388710146894,561.6211791230271,nan,561.7448658446847,nan,nan,nan,nan
1,205,1,1,1.0,1.0,0.09949882239379804,0.0,4,2,6,8,1,3,nan,nan,nan,nan,nan,nan,nan,nan,nan,nan,nan,nan,0.0,nan,nan,nan,nan,nan,nan,nan,nan,nan,nan,nan,nan,nan,nan,nan,nan,nan,nan,244.56388710146894,562.6213450513314,nan,562.7208438737252,nan,nan,nan,nan
1,206,1,1,nan,nan,nan,0.0,2,3,7,4,0,8,nan,nan,nan,nan,nan,nan,nan,nan,nan,nan,nan,nan,0.0,nan,nan,nan,nan,nan,nan,nan,nan,nan,nan,nan,nan,nan,nan,nan,nan,nan,nan,244.56388710146894,563.6298042587696,nan,nan,nan,nan,nan,nan
1,207,1,1,1.0,1.0,0.0109236133939703,0.0,3,5,4,0,6,2,nan,nan,nan,nan,nan,nan,nan,nan,nan,nan,nan,nan,0.0,nan,nan,nan,nan,nan,nan,nan,nan,nan,nan,nan,nan,nan,nan,nan,nan,nan,nan,244.56388710146894,564.6299163031399,nan,564.6408399165339,nan,nan,nan,nan
1,208,1,1,1.0,1.0,0.2826967854107352,0.0,8,6,0,2,7,1,nan,nan,nan,nan,nan,nan,nan,nan,nan,nan,nan,nan,0.0,nan,nan,nan,nan,nan,nan,nan,nan,nan,nan,nan,nan,nan,nan,nan,nan,nan,nan,244.56388710146894,565.63010560966,nan,565.9128023950707,nan,nan,nan,nan
1,209,1,1,1.0,1.0,0.2102377193805296,0.0,5,7,1,3,8,0,nan,nan,nan,nan,nan,nan,nan,nan,nan,nan,nan,nan,0.0,nan,nan,nan,nan,nan,nan,nan,nan,nan,nan,nan,nan,nan,nan,nan,nan,nan,nan,244.56388710146894,566.6385807827082,nan,566.8488185020888,nan,nan,nan,nan
1,210,1,1,1.0,1.0,0.15378047114973015,0.0,4,8,7,0,3,1,nan,nan,nan,nan,nan,nan,nan,nan,nan,nan,nan,nan,0.0,nan,nan,nan,nan,nan,nan,nan,nan,nan,nan,nan,nan,nan,nan,nan,nan,nan,nan,244.56388710146894,567.6470223139368,nan,567.8008027850865,nan,nan,nan,nan
1,211,1,1,1.0,1.0,0.16962776465152274,0.0,7,3,2,1,5,0,nan,nan,nan,nan,nan,nan,nan,nan,nan,nan,nan,nan,0.0,nan,nan,nan,nan,nan,nan,nan,nan,nan,nan,nan,nan,nan,nan,nan,nan,nan,nan,244.56388710146894,568.6471628683248,nan,568.8167906329763,nan,nan,nan,nan
1,212,1,1,1.0,1.0,0.1775170568307658,0.0,2,5,4,0,6,3,nan,nan,nan,nan,nan,nan,nan,nan,nan,nan,nan,nan,0.0,nan,nan,nan,nan,nan,nan,nan,nan,nan,nan,nan,nan,nan,nan,nan,nan,nan,nan,244.56388710146894,569.6472640788888,nan,569.8247811357196,nan,nan,nan,nan
1,213,1,1,1.0,1.0,0.1933515208238532,0.0,5,7,0,3,4,2,nan,nan,nan,nan,nan,nan,nan,nan,nan,nan,nan,nan,0.0,nan,nan,nan,nan,nan,nan,nan,nan,nan,nan,nan,nan,nan,nan,nan,nan,nan,nan,244.56388710146894,570.647422024389,nan,570.8407735452129,nan,nan,nan,nan
1,214,1,1,1.0,1.0,0.15318347137326782,0.0,2,1,6,8,0,5,nan,nan,nan,nan,nan,nan,nan,nan,nan,nan,nan,nan,0.0,nan,nan,nan,nan,nan,nan,nan,nan,nan,nan,nan,nan,nan,nan,nan,nan,nan,nan,244.56388710146894,571.647560012876,nan,571.8007434842493,nan,nan,nan,nan
1,215,1,1,1.0,1.0,0.176681713302969,0.0,8,5,3,4,6,7,nan,nan,nan,nan,nan,nan,nan,nan,nan,nan,nan,nan,0.0,nan,nan,nan,nan,nan,nan,nan,nan,nan,nan,nan,nan,nan,nan,nan,nan,nan,nan,244.56388710146894,572.6560494409332,nan,572.8327311542362,nan,nan,nan,nan
1,216,1,1,1.0,1.0,0.23224830857179768,0.0,4,1,6,5,7,2,nan,nan,nan,nan,nan,nan,nan,nan,nan,nan,nan,nan,0.0,nan,nan,nan,nan,nan,nan,nan,nan,nan,nan,nan,nan,nan,nan,nan,nan,nan,nan,244.56388710146894,573.6644852701575,nan,573.8967335787293,nan,nan,nan,nan
1,217,1,1,1.0,1.0,0.14409134153720515,0.0,5,0,2,4,6,1,nan,nan,nan,nan,nan,nan,nan,nan,nan,nan,nan,nan,0.0,nan,nan,nan,nan,nan,nan,nan,nan,nan,nan,nan,nan,nan,nan,nan,nan,nan,nan,244.56388710146894,574.6646343775501,nan,574.8087257190873,nan,nan,nan,nan
1,218,1,1,1.0,1.0,0.03202558831071656,0.0,8,5,1,0,2,4,nan,nan,nan,nan,nan,nan,nan,nan,nan,nan,nan,nan,0.0,nan,nan,nan,nan,nan,nan,nan,nan,nan,nan,nan,nan,nan,nan,nan,nan,nan,nan,244.56388710146894,575.6647441411205,nan,575.6967697294313,nan,nan,nan,nan
1,219,1,1,1.0,1.0,0.07180048461304978,0.0,7,3,4,8,1,2,nan,nan,nan,nan,nan,nan,nan,nan,nan,nan,nan,nan,0.0,nan,nan,nan,nan,nan,nan,nan,nan,nan,nan,nan,nan,nan,nan,nan,nan,nan,nan,244.56388710146894,576.6649100694249,nan,576.7367105540379,nan,nan,nan,nan
1,220,1,1,1.0,1.0,0.04765934177885356,0.0,2,6,7,5,4,3,nan,nan,nan,nan,nan,nan,nan,nan,nan,nan,nan,nan,0.0,nan,nan,nan,nan,nan,nan,nan,nan,nan,nan,nan,nan,nan,nan,nan,nan,nan,nan,244.56388710146894,577.6650494834121,nan,577.7127088251909,nan,nan,nan,nan
1,221,1,1,1.0,1.0,0.0791868600736052,0.0,7,0,3,8,1,2,nan,nan,nan,nan,nan,nan,nan,nan,nan,nan,nan,nan,0.0,nan,nan,nan,nan,nan,nan,nan,nan,nan,nan,nan,nan,nan,nan,nan,nan,nan,nan,244.56388710146894,578.6735109716537,nan,578.7526978317273,nan,nan,nan,nan
1,222,1,1,1.0,1.0,0.19069809344910027,0.0,3,6,1,4,8,5,nan,nan,nan,nan,nan,nan,nan,nan,nan,nan,nan,nan,0.0,nan,nan,nan,nan,nan,nan,nan,nan,nan,nan,nan,nan,nan,nan,nan,nan,nan,nan,244.56388710146894,579.6819884255037,nan,579.8726865189528,nan,nan,nan,nan
1,223,1,1,1.0,1.0,0.2221945358269295,0.0,1,8,7,2,5,3,nan,nan,nan,nan,nan,nan,nan,nan,nan,nan,nan,nan,0.0,nan,nan,nan,nan,nan,nan,nan,nan,nan,nan,nan,nan,nan,nan,nan,nan,nan,nan,244.56388710146894,580.6904747174594,nan,580.9126692532864,nan,nan,nan,nan
1,224,1,1,1.0,1.0,0.20575109785022505,0.0,6,1,5,0,4,8,nan,nan,nan,nan,nan,nan,nan,nan,nan,nan,nan,nan,0.0,nan,nan,nan,nan,nan,nan,nan,nan,nan,nan,nan,nan,nan,nan,nan,nan,nan,nan,244.56388710146894,581.698923946391,nan,581.9046750442412,nan,nan,nan,nan
1,225,1,1,1.0,1.0,0.22157586843604804,0.0,4,8,6,5,3,1,nan,nan,nan,nan,nan,nan,nan,nan,nan,nan,nan,nan,0.0,nan,nan,nan,nan,nan,nan,nan,nan,nan,nan,nan,nan,nan,nan,nan,nan,nan,nan,244.56388710146894,582.6990873087943,nan,582.9206631772304,nan,nan,nan,nan
1,226,1,1,1.0,1.0,0.21310069538776588,0.0,6,1,8,7,2,5,nan,nan,nan,nan,nan,nan,nan,nan,nan,nan,nan,nan,0.0,nan,nan,nan,nan,nan,nan,nan,nan,nan,nan,nan,nan,nan,nan,nan,nan,nan,nan,244.56388710146894,583.707543380131,nan,583.9206440755188,nan,nan,nan,nan
1,227,1,1,1.0,1.0,0.2049713488577254,0.0,3,8,2,4,5,1,nan,nan,nan,nan,nan,nan,nan,nan,nan,nan,nan,nan,0.0,nan,nan,nan,nan,nan,nan,nan,nan,nan,nan,nan,nan,nan,nan,nan,nan,nan,nan,244.56388710146894,584.7076748113141,nan,584.9126461601718,nan,nan,nan,nan
1,228,1,1,1.0,1.0,0.17283742247673217,0.0,1,0,4,5,3,2,nan,nan,nan,nan,nan,nan,nan,nan,nan,nan,nan,nan,0.0,nan,nan,nan,nan,nan,nan,nan,nan,nan,nan,nan,nan,nan,nan,nan,nan,nan,nan,244.56388710146894,585.7078127998011,nan,585.8806502222778,nan,nan,nan,nan
1,229,0,0,1.0,0.0,0.16442012476545642,1.0,6,2,7,3,5,4,1.0,1.0,1.0,1.0,1.0,1.0,0.0,0.0,1.0,1.0,0.0,0.0,2.0,7.0,5.0,7.0,3.0,2.0,6.0,6.0,1.0,2.0,3.0,4.0,5.0,7.55931580518336,1.1064561220846372,2.1194116444603424,3.2730045196931314,4.591552652727842,6.447378632139589,244.56388710146894,586.7162862622481,587.5247151920485,586.8807063870136,596.1425318435522,597.1435542127965,588.5415503576733,596.1342000758941
1,230,1,1,1.0,1.0,0.19348922421158932,0.0,8,0,3,7,6,1,nan,nan,nan,nan,nan,nan,nan,nan,nan,nan,nan,nan,0.0,nan,nan,nan,nan,nan,nan,nan,nan,nan,nan,nan,nan,nan,nan,nan,nan,nan,nan,244.56388710146894,597.3510583916523,nan,597.5445476158638,nan,nan,nan,nan
1,231,1,1,1.0,1.0,0.21695724552228057,0.0,4,5,0,8,7,3,nan,nan,nan,nan,nan,nan,nan,nan,nan,nan,nan,nan,0.0,nan,nan,nan,nan,nan,nan,nan,nan,nan,nan,nan,nan,nan,nan,nan,nan,nan,nan,244.56388710146894,598.3595458240088,nan,598.5765030695311,nan,nan,nan,nan
1,232,1,1,1.0,1.0,0.20847893637073867,0.0,5,3,7,2,1,0,nan,nan,nan,nan,nan,nan,nan,nan,nan,nan,nan,nan,0.0,nan,nan,nan,nan,nan,nan,nan,nan,nan,nan,nan,nan,nan,nan,nan,nan,nan,nan,244.56388710146894,599.3680152950546,nan,599.5764942314254,nan,nan,nan,nan
1,233,1,1,1.0,1.0,0.2323458128321363,0.0,1,8,2,6,5,4,nan,nan,nan,nan,nan,nan,nan,nan,nan,nan,nan,nan,0.0,nan,nan,nan,nan,nan,nan,nan,nan,nan,nan,nan,nan,nan,nan,nan,nan,nan,nan,244.56388710146894,600.368145870938,nan,600.6004916837701,nan,nan,nan,nan
1,234,1,1,1.0,1.0,0.2241754118767858,0.0,5,1,8,0,4,6,nan,nan,nan,nan,nan,nan,nan,nan,nan,nan,nan,nan,0.0,nan,nan,nan,nan,nan,nan,nan,nan,nan,nan,nan,nan,nan,nan,nan,nan,nan,nan,244.56388710146894,601.3683049568372,nan,601.592480368714,nan,nan,nan,nan
1,235,1,1,1.0,1.0,0.10370690104900859,0.0,1,8,5,2,6,3,nan,nan,nan,nan,nan,nan,nan,nan,nan,nan,nan,nan,0.0,nan,nan,nan,nan,nan,nan,nan,nan,nan,nan,nan,nan,nan,nan,nan,nan,nan,nan,244.56388710146894,602.3767621685747,nan,602.4804690696237,nan,nan,nan,nan
1,236,1,1,1.0,1.0,0.08754428674910741,0.0,3,7,0,6,8,1,nan,nan,nan,nan,nan,nan,nan,nan,nan,nan,nan,nan,0.0,nan,nan,nan,nan,nan,nan,nan,nan,nan,nan,nan,nan,nan,nan,nan,nan,nan,nan,244.56388710146894,603.3769104206676,nan,603.4644547074167,nan,nan,nan,nan
1,237,1,1,1.0,1.0,0.031104999830859015,0.0,6,1,4,5,2,8,nan,nan,nan,nan,nan,nan,nan,nan,nan,nan,nan,nan,0.0,nan,nan,nan,nan,nan,nan,nan,nan,nan,nan,nan,nan,nan,nan,nan,nan,nan,nan,244.56388710146894,604.3853462498919,nan,604.4164512497227,nan,nan,nan,nan
1,238,1,1,1.0,1.0,0.014593708010579576,0.0,0,5,3,2,7,4,nan,nan,nan,nan,nan,nan,nan,nan,nan,nan,nan,nan,0.0,nan,nan,nan,nan,nan,nan,nan,nan,nan,nan,nan,nan,nan,nan,nan,nan,nan,nan,244.56388710146894,605.3938413799533,nan,605.4084350879639,nan,nan,nan,nan
1,239,1,1,1.0,1.0,0.014141539126285352,0.0,3,8,7,5,0,6,nan,nan,nan,nan,nan,nan,nan,nan,nan,nan,nan,nan,0.0,nan,nan,nan,nan,nan,nan,nan,nan,nan,nan,nan,nan,nan,nan,nan,nan,nan,nan,244.56388710146894,606.4023077148959,nan,606.4164492540222,nan,nan,nan,nan
1,240,1,1,1.0,1.0,0.07797261840823921,0.0,5,3,8,0,7,2,nan,nan,nan,nan,nan,nan,nan,nan,nan,nan,nan,nan,0.0,nan,nan,nan,nan,nan,nan,nan,nan,nan,nan,nan,nan,nan,nan,nan,nan,nan,nan,244.56388710146894,607.4024445629839,nan,607.4804171813921,nan,nan,nan,nan
1,241,1,1,nan,nan,nan,0.0,7,0,2,5,4,3,nan,nan,nan,nan,nan,nan,nan,nan,nan,nan,nan,nan,0.0,nan,nan,nan,nan,nan,nan,nan,nan,nan,nan,nan,nan,nan,nan,nan,nan,nan,nan,244.56388710146894,608.4109453950477,nan,nan,nan,nan,nan,nan
1,242,1,1,nan,nan,nan,0.0,3,8,6,4,2,0,nan,nan,nan,nan,nan,nan,nan,nan,nan,nan,nan,nan,0.0,nan,nan,nan,nan,nan,nan,nan,nan,nan,nan,nan,nan,nan,nan,nan,nan,nan,nan,244.56388710146894,609.4110657073234,nan,nan,nan,nan,nan,nan
1,243,1,1,1.0,1.0,0.020894707085972186,0.0,6,3,4,7,1,5,nan,nan,nan,nan,nan,nan,nan,nan,nan,nan,nan,nan,0.0,nan,nan,nan,nan,nan,nan,nan,nan,nan,nan,nan,nan,nan,nan,nan,nan,nan,nan,244.56388710146894,610.4195072385519,nan,610.4404019456379,nan,nan,nan,nan
1,244,1,1,1.0,1.0,0.7724977541238331,0.0,8,7,6,2,3,1,nan,nan,nan,nan,nan,nan,nan,nan,nan,nan,nan,nan,0.0,nan,nan,nan,nan,nan,nan,nan,nan,nan,nan,nan,nan,nan,nan,nan,nan,nan,nan,244.56388710146894,611.4279553270826,nan,612.2004530812064,nan,nan,nan,nan
1,245,1,1,1.0,1.0,0.19589347402688873,0.0,5,6,2,7,0,4,nan,nan,nan,nan,nan,nan,nan,nan,nan,nan,nan,nan,0.0,nan,nan,nan,nan,nan,nan,nan,nan,nan,nan,nan,nan,nan,nan,nan,nan,nan,nan,244.56388710146894,612.4364726949589,nan,612.6323661689858,nan,nan,nan,nan
1,246,1,1,1.0,1.0,0.38733083224542497,0.0,1,8,5,4,7,2,nan,nan,nan,nan,nan,nan,nan,nan,nan,nan,nan,nan,0.0,nan,nan,nan,nan,nan,nan,nan,nan,nan,nan,nan,nan,nan,nan,nan,nan,nan,nan,244.56388710146894,613.4449960499369,nan,613.8323268821823,nan,nan,nan,nan
1,247,1,1,1.0,1.0,0.18694674528342148,0.0,6,2,0,1,8,3,nan,nan,nan,nan,nan,nan,nan,nan,nan,nan,nan,nan,0.0,nan,nan,nan,nan,nan,nan,nan,nan,nan,nan,nan,nan,nan,nan,nan,nan,nan,nan,244.56388710146894,614.4534338748617,nan,614.6403806201452,nan,nan,nan,nan
1,248,1,1,1.0,1.0,0.050796584157069447,0.0,8,7,6,5,2,4,nan,nan,nan,nan,nan,nan,nan,nan,nan,nan,nan,nan,0.0,nan,nan,nan,nan,nan,nan,nan,nan,nan,nan,nan,nan,nan,nan,nan,nan,nan,nan,244.56388710146894,615.453547344734,nan,615.5043439288911,nan,nan,nan,nan
1,249,1,1,1.0,1.0,0.4266336026485078,0.0,6,3,0,1,7,8,nan,nan,nan,nan,nan,nan,nan,nan,nan,nan,nan,nan,0.0,nan,nan,nan,nan,nan,nan,nan,nan,nan,nan,nan,nan,nan,nan,nan,nan,nan,nan,244.56388710146894,616.4536910352253,nan,616.8803246378739,nan,nan,nan,nan
1,250,1,1,1.0,1.0,0.21817091698721924,0.0,8,2,3,4,5,1,nan,nan,nan,nan,nan,nan,nan,nan,nan,nan,nan,nan,0.0,nan,nan,nan,nan,nan,nan,nan,nan,nan,nan,nan,nan,nan,nan,nan,nan,nan,nan,244.56388710146894,617.4621525234652,nan,617.6803234404524,nan,nan,nan,nan
1,251,1,1,1.0,1.0,0.1460274568580644,0.0,6,0,1,7,2,3,nan,nan,nan,nan,nan,nan,nan,nan,nan,nan,nan,nan,0.0,nan,nan,nan,nan,nan,nan,nan,nan,nan,nan,nan,nan,nan,nan,nan,nan,nan,nan,244.56388710146894,618.4622868056485,nan,618.6083142625066,nan,nan,nan,nan
1,252,1,1,1.0,1.0,0.08985103230406821,0.0,4,8,3,5,1,6,nan,nan,nan,nan,nan,nan,nan,nan,nan,nan,nan,nan,0.0,nan,nan,nan,nan,nan,nan,nan,nan,nan,nan,nan,nan,nan,nan,nan,nan,nan,nan,244.56388710146894,619.4624416150473,nan,619.5522926473514,nan,nan,nan,nan
1,253,1,1,1.0,1.0,0.04969552726288384,0.0,2,1,0,3,4,7,nan,nan,nan,nan,nan,nan,nan,nan,nan,nan,nan,nan,0.0,nan,nan,nan,nan,nan,nan,nan,nan,nan,nan,nan,nan,nan,nan,nan,nan,nan,nan,244.56388710146894,620.4625767525322,nan,620.5122722797951,nan,nan,nan,nan
1,254,1,1,1.0,1.0,0.43351535079091263,0.0,7,6,1,4,5,2,nan,nan,nan,nan,nan,nan,nan,nan,nan,nan,nan,nan,0.0,nan,nan,nan,nan,nan,nan,nan,nan,nan,nan,nan,nan,nan,nan,nan,nan,nan,nan,244.56388710146894,621.4627090390168,nan,621.8962243898077,nan,nan,nan,nan
1,255,1,1,1.0,1.0,0.20939752915182908,0.0,8,5,2,3,6,0,nan,nan,nan,nan,nan,nan,nan,nan,nan,nan,nan,nan,0.0,nan,nan,nan,nan,nan,nan,nan,nan,nan,nan,nan,nan,nan,nan,nan,nan,nan,nan,244.56388710146894,622.4628532997067,nan,622.6722508288585,nan,nan,nan,nan
1,256,0,0,1.0,0.0,0.20893566686027043,1.0,0,2,1,4,3,6,1.0,1.0,1.0,1.0,1.0,1.0,0.0,1.0,0.0,0.0,1.0,0.0,2.0,3.0,2.0,4.0,6.0,3.0,5.0,6.0,1.0,2.0,3.0,4.0,5.0,6.876047279873092,1.4118408947124408,2.3343503807082016,3.4289095573840314,4.364482618724651,6.004476072825128,244.56388710146894,623.4713224856514,624.2797365902425,623.6802581525117,632.2141330431405,633.2104469829137,625.296587151277,632.205829500399
1,257,1,1,1.0,1.0,0.20185349329040037,0.0,4,6,0,5,2,8,nan,nan,nan,nan,nan,nan,nan,nan,nan,nan,nan,nan,0.0,nan,nan,nan,nan,nan,nan,nan,nan,nan,nan,nan,nan,nan,nan,nan,nan,nan,nan,244.56388710146894,633.4143440742919,nan,633.6161975675823,nan,nan,nan,nan
1,258,1,1,1.0,1.0,0.20969232273637317,0.0,3,8,2,0,6,1,nan,nan,nan,nan,nan,nan,nan,nan,nan,nan,nan,nan,0.0,nan,nan,nan,nan,nan,nan,nan,nan,nan,nan,nan,nan,nan,nan,nan,nan,nan,nan,244.56388710146894,634.4144735097743,nan,634.6241658325107,nan,nan,nan,nan
1,259,1,1,1.0,1.0,0.19325829306581,0.0,8,3,6,1,4,0,nan,nan,nan,nan,nan,nan,nan,nan,nan,nan,nan,nan,0.0,nan,nan,nan,nan,nan,nan,nan,nan,nan,nan,nan,nan,nan,nan,nan,nan,nan,nan,244.56388710146894,635.4228965094899,nan,635.6161548025557,nan,nan,nan,nan
1,260,1,1,1.0,1.0,0.1530691462030518,0.0,3,1,0,2,5,7,nan,nan,nan,nan,nan,nan,nan,nan,nan,nan,nan,nan,0.0,nan,nan,nan,nan,nan,nan,nan,nan,nan,nan,nan,nan,nan,nan,nan,nan,nan,nan,244.56388710146894,636.4230784034044,nan,636.5761475496074,nan,nan,nan,nan
1,261,1,1,1.0,1.0,0.22493805485828489,0.0,4,2,8,7,3,1,nan,nan,nan,nan,nan,nan,nan,nan,nan,nan,nan,nan,0.0,nan,nan,nan,nan,nan,nan,nan,nan,nan,nan,nan,nan,nan,nan,nan,nan,nan,nan,244.56388710146894,637.4232121153891,nan,637.6481501702474,nan,nan,nan,nan
1,262,0,0,1.0,0.0,0.20875462824551505,0.0,8,0,2,1,5,3,nan,nan,nan,nan,nan,nan,nan,nan,nan,nan,nan,nan,0.0,nan,nan,nan,nan,nan,nan,nan,nan,nan,nan,nan,nan,nan,nan,nan,nan,nan,nan,244.56388710146894,638.4233694906889,nan,638.6321241189344,nan,nan,nan,nan
1,263,1,1,1.0,1.0,0.48060962401177676,0.0,6,8,1,7,2,5,nan,nan,nan,nan,nan,nan,nan,nan,nan,nan,nan,nan,0.0,nan,nan,nan,nan,nan,nan,nan,nan,nan,nan,nan,nan,nan,nan,nan,nan,nan,nan,244.56388710146894,639.4234992112706,nan,639.9041088352824,nan,nan,nan,nan
1,264,1,1,1.0,1.0,0.46449946814573195,0.0,8,3,7,1,0,2,nan,nan,nan,nan,nan,nan,nan,nan,nan,nan,nan,nan,0.0,nan,nan,nan,nan,nan,nan,nan,nan,nan,nan,nan,nan,nan,nan,nan,nan,nan,nan,244.56388710146894,640.4236206639471,nan,640.8881201320928,nan,nan,nan,nan
1,265,1,1,1.0,1.0,0.39234004240643117,0.0,0,1,5,2,8,4,nan,nan,nan,nan,nan,nan,nan,nan,nan,nan,nan,nan,0.0,nan,nan,nan,nan,nan,nan,nan,nan,nan,nan,nan,nan,nan,nan,nan,nan,nan,nan,244.56388710146894,641.4237592226345,nan,641.816099265041,nan,nan,nan,nan
1,266,1,1,1.0,1.0,0.31218099071702454,0.0,5,3,0,4,6,1,nan,nan,nan,nan,nan,nan,nan,nan,nan,nan,nan,nan,0.0,nan,nan,nan,nan,nan,nan,nan,nan,nan,nan,nan,nan,nan,nan,nan,nan,nan,nan,244.56388710146894,642.4239120363309,nan,642.7360930270479,nan,nan,nan,nan
1,267,1,1,1.0,1.0,0.26403555313117977,0.0,2,4,1,8,5,7,nan,nan,nan,nan,nan,nan,nan,nan,nan,nan,nan,nan,0.0,nan,nan,nan,nan,nan,nan,nan,nan,nan,nan,nan,nan,nan,nan,nan,nan,nan,nan,244.56388710146894,643.4240520205203,nan,643.6880875736515,nan,nan,nan,nan
1,268,0,0,1.0,0.0,0.2635525934274483,1.0,4,8,6,3,1,5,1.0,1.0,1.0,1.0,1.0,1.0,0.0,0.0,1.0,0.0,0.0,1.0,2.0,2.0,3.0,6.0,4.0,5.0,5.0,6.0,2.0,1.0,3.0,4.0,5.0,6.306515194841268,1.8438004538220412,0.7490342944147415,2.867939030755224,4.411670404804681,5.530689466317199,244.56388710146894,644.4325140789606,645.2409381620564,644.696066672388,652.6086019285885,653.6150979361882,646.2660617601123,652.600252484719
1,269,1,1,1.0,1.0,0.15091093784030818,0.0,7,5,4,8,2,1,nan,nan,nan,nan,nan,nan,nan,nan,nan,nan,nan,nan,0.0,nan,nan,nan,nan,nan,nan,nan,nan,nan,nan,nan,nan,nan,nan,nan,nan,nan,nan,244.56388710146894,653.8171050984747,nan,653.968016036315,nan,nan,nan,nan
1,270,1,1,1.0,1.0,0.19840064500931476,0.0,8,6,0,2,1,3,nan,nan,nan,nan,nan,nan,nan,nan,nan,nan,nan,nan,0.0,nan,nan,nan,nan,nan,nan,nan,nan,nan,nan,nan,nan,nan,nan,nan,nan,nan,nan,244.56388710146894,654.8255797013244,nan,655.0239803463337,nan,nan,nan,nan
1,271,0,0,1.0,0.0,0.18187509818199032,0.0,1,2,8,0,4,7,nan,nan,nan,nan,nan,nan,nan,nan,nan,nan,nan,nan,0.0,nan,nan,nan,nan,nan,nan,nan,nan,nan,nan,nan,nan,nan,nan,nan,nan,nan,nan,244.56388710146894,655.8340662783794,nan,656.0159413765614,nan,nan,nan,nan
1,272,1,1,1.0,1.0,0.5573565967479226,0.0,4,7,5,2,1,3,nan,nan,nan,nan,nan,nan,nan,nan,nan,nan,nan,nan,0.0,nan,nan,nan,nan,nan,nan,nan,nan,nan,nan,nan,nan,nan,nan,nan,nan,nan,nan,244.56388710146894,656.8425346090244,nan,657.3998912057723,nan,nan,nan,nan
1,273,1,1,1.0,1.0,0.30893284436751856,0.0,3,2,8,0,7,4,nan,nan,nan,nan,nan,nan,nan,nan,nan,nan,nan,nan,0.0,nan,nan,nan,nan,nan,nan,nan,nan,nan,nan,nan,nan,nan,nan,nan,nan,nan,nan,244.56388710146894,657.8510000886672,nan,658.1599329330347,nan,nan,nan,nan
1,274,1,1,1.0,1.0,0.220457990631985,0.0,4,0,7,8,1,5,nan,nan,nan,nan,nan,nan,nan,nan,nan,nan,nan,nan,0.0,nan,nan,nan,nan,nan,nan,nan,nan,nan,nan,nan,nan,nan,nan,nan,nan,nan,nan,244.56388710146894,658.8594761170152,nan,659.0799341076472,nan,nan,nan,nan
1,275,1,1,1.0,1.0,0.21230726158682955,0.0,5,1,8,4,3,7,nan,nan,nan,nan,nan,nan,nan,nan,nan,nan,nan,nan,0.0,nan,nan,nan,nan,nan,nan,nan,nan,nan,nan,nan,nan,nan,nan,nan,nan,nan,nan,244.56388710146894,659.8596252244097,nan,660.0719324859965,nan,nan,nan,nan
1,276,1,1,1.0,1.0,0.1401475507464056,0.0,4,6,3,0,5,2,nan,nan,nan,nan,nan,nan,nan,nan,nan,nan,nan,nan,0.0,nan,nan,nan,nan,nan,nan,nan,nan,nan,nan,nan,nan,nan,nan,nan,nan,nan,nan,244.56388710146894,660.8597632128967,nan,660.9999107636431,nan,nan,nan,nan
1,277,0,0,1.0,0.0,0.11565887079268578,1.0,0,4,8,5,2,7,1.0,1.0,1.0,1.0,1.0,1.0,1.0,0.0,0.0,1.0,0.0,1.0,3.0,0.0,3.0,1.0,5.0,8.0,7.0,1.0,6.0,5.0,4.0,3.0,2.0,1.3360752367971145,7.742822816793705,6.862602240487831,5.51993805343227,3.9192162938161346,2.1929999923013384,244.56388710146894,661.8682583429581,662.6766772942519,661.9839172137508,671.4778430118677,672.4753101818678,663.6934976346674,671.4695112442096
1,278,1,1,1.0,1.0,0.29784045166707074,0.0,3,1,0,2,7,6,nan,nan,nan,nan,nan,nan,nan,nan,nan,nan,nan,nan,0.0,nan,nan,nan,nan,nan,nan,nan,nan,nan,nan,nan,nan,nan,nan,nan,nan,nan,nan,244.56388710146894,672.6779901805803,nan,672.9758306322474,nan,nan,nan,nan
1,279,1,1,1.0,1.0,0.23362705304316478,0.0,1,8,3,5,4,2,nan,nan,nan,nan,nan,nan,nan,nan,nan,nan,nan,nan,0.0,nan,nan,nan,nan,nan,nan,nan,nan,nan,nan,nan,nan,nan,nan,nan,nan,nan,nan,244.56388710146894,673.678166942691,nan,673.9117939957341,nan,nan,nan,nan
1,280,1,1,1.0,1.0,0.20147202924817975,0.0,7,2,0,1,8,5,nan,nan,nan,nan,nan,nan,nan,nan,nan,nan,nan,nan,0.0,nan,nan,nan,nan,nan,nan,nan,nan,nan,nan,nan,nan,nan,nan,nan,nan,nan,nan,244.56388710146894,674.6783166202858,nan,674.879788649534,nan,nan,nan,nan
1,281,0,0,1.0,0.0,0.17729325318941846,0.0,4,5,8,3,1,7,nan,nan,nan,nan,nan,nan,nan,nan,nan,nan,nan,nan,0.0,nan,nan,nan,nan,nan,nan,nan,nan,nan,nan,nan,nan,nan,nan,nan,nan,nan,nan,244.56388710146894,675.6784597405767,nan,675.8557529937661,nan,nan,nan,nan
1,282,1,1,1.0,1.0,0.29683889473562886,0.0,0,7,6,4,8,2,nan,nan,nan,nan,nan,nan,nan,nan,nan,nan,nan,nan,0.0,nan,nan,nan,nan,nan,nan,nan,nan,nan,nan,nan,nan,nan,nan,nan,nan,nan,nan,244.56388710146894,676.6869018420039,nan,676.9837407367395,nan,nan,nan,nan
1,283,1,1,1.0,1.0,0.3686841400758567,0.0,2,6,8,7,3,1,nan,nan,nan,nan,nan,nan,nan,nan,nan,nan,nan,nan,0.0,nan,nan,nan,nan,nan,nan,nan,nan,nan,nan,nan,nan,nan,nan,nan,nan,nan,nan,244.56388710146894,677.6870526599996,nan,678.0557368000755,nan,nan,nan,nan
1,284,1,1,1.0,1.0,0.26451965323940385,0.0,7,5,0,6,1,8,nan,nan,nan,nan,nan,nan,nan,nan,nan,nan,nan,nan,0.0,nan,nan,nan,nan,nan,nan,nan,nan,nan,nan,nan,nan,nan,nan,nan,nan,nan,nan,244.56388710146894,678.6871932143877,nan,678.9517128676271,nan,nan,nan,nan
1,285,1,1,1.0,1.0,0.22437441180409223,0.0,4,2,3,1,8,0,nan,nan,nan,nan,nan,nan,nan,nan,nan,nan,nan,nan,0.0,nan,nan,nan,nan,nan,nan,nan,nan,nan,nan,nan,nan,nan,nan,nan,nan,nan,nan,244.56388710146894,679.6873366197779,nan,679.911711031582,nan,nan,nan,nan
1,286,1,1,1.0,1.0,0.23222436015748826,0.0,7,4,0,3,6,8,nan,nan,nan,nan,nan,nan,nan,nan,nan,nan,nan,nan,0.0,nan,nan,nan,nan,nan,nan,nan,nan,nan,nan,nan,nan,nan,nan,nan,nan,nan,nan,244.56388710146894,680.687473467864,nan,680.9196978280215,nan,nan,nan,nan
1,287,1,1,1.0,1.0,0.22408674572216114,0.0,4,5,1,6,2,0,nan,nan,nan,nan,nan,nan,nan,nan,nan,nan,nan,nan,0.0,nan,nan,nan,nan,nan,nan,nan,nan,nan,nan,nan,nan,nan,nan,nan,nan,nan,nan,244.56388710146894,681.6876088904501,nan,681.9116956361722,nan,nan,nan,nan
1,288,1,1,1.0,1.0,0.1996066187712131,0.0,3,7,2,5,1,4,nan,nan,nan,nan,nan,nan,nan,nan,nan,nan,nan,nan,0.0,nan,nan,nan,nan,nan,nan,nan,nan,nan,nan,nan,nan,nan,nan,nan,nan,nan,nan,244.56388710146894,682.6960723743923,nan,682.8956789931635,nan,nan,nan,nan
1,289,1,1,1.0,1.0,0.18346453168487642,0.0,2,3,0,4,6,7,nan,nan,nan,nan,nan,nan,nan,nan,nan,nan,nan,nan,0.0,nan,nan,nan,nan,nan,nan,nan,nan,nan,nan,nan,nan,nan,nan,nan,nan,nan,nan,244.56388710146894,683.6962183456835,nan,683.8796828773684,nan,nan,nan,nan
1,290,1,1,1.0,1.0,0.20699185383273289,0.0,0,8,1,2,5,3,nan,nan,nan,nan,nan,nan,nan,nan,nan,nan,nan,nan,0.0,nan,nan,nan,nan,nan,nan,nan,nan,nan,nan,nan,nan,nan,nan,nan,nan,nan,nan,244.56388710146894,684.7046747021195,nan,684.9116665559523,nan,nan,nan,nan
1,291,1,1,1.0,1.0,0.22284085793398845,0.0,8,2,0,6,4,1,nan,nan,nan,nan,nan,nan,nan,nan,nan,nan,nan,nan,0.0,nan,nan,nan,nan,nan,nan,nan,nan,nan,nan,nan,nan,nan,nan,nan,nan,nan,nan,244.56388710146894,685.7048246648155,nan,685.9276655227495,nan,nan,nan,nan
1,292,0,0,1.0,0.0,0.05468306980947091,0.0,1,5,3,8,6,7,nan,nan,nan,nan,nan,nan,nan,nan,nan,nan,nan,nan,0.0,nan,nan,nan,nan,nan,nan,nan,nan,nan,nan,nan,nan,nan,nan,nan,nan,nan,nan,244.56388710146894,686.7049655043047,nan,686.7596485741142,nan,nan,nan,nan
1,293,1,1,1.0,1.0,0.34250510115634825,0.0,2,0,4,6,8,3,nan,nan,nan,nan,nan,nan,nan,nan,nan,nan,nan,nan,0.0,nan,nan,nan,nan,nan,nan,nan,nan,nan,nan,nan,nan,nan,nan,nan,nan,nan,nan,244.56388710146894,687.7051086245938,nan,688.0476137257501,nan,nan,nan,nan
1,294,0,0,1.0,0.0,0.31839018753635173,0.0,4,5,6,3,1,2,nan,nan,nan,nan,nan,nan,nan,nan,nan,nan,nan,nan,0.0,nan,nan,nan,nan,nan,nan,nan,nan,nan,nan,nan,nan,nan,nan,nan,nan,nan,nan,244.56388710146894,688.7052417663781,nan,689.0236319539144,nan,nan,nan,nan
1,295,1,1,1.0,1.0,0.31794343555338855,0.0,6,1,8,4,0,3,nan,nan,nan,nan,nan,nan,nan,nan,nan,nan,nan,nan,0.0,nan,nan,nan,nan,nan,nan,nan,nan,nan,nan,nan,nan,nan,nan,nan,nan,nan,nan,244.56388710146894,689.7136852933072,nan,690.0316287288606,nan,nan,nan,nan
1,296,1,1,0.0,0.0,0.23781317898283305,0.0,4,8,5,2,3,7,nan,nan,nan,nan,nan,nan,nan,nan,nan,nan,nan,nan,0.0,nan,nan,nan,nan,nan,nan,nan,nan,nan,nan,nan,nan,nan,nan,nan,nan,nan,nan,244.56388710146894,690.7138267029968,nan,690.9516398819796,nan,nan,nan,nan
1,297,1,1,1.0,1.0,0.24531330941681517,0.0,6,5,8,1,7,0,nan,nan,nan,nan,nan,nan,nan,nan,nan,nan,nan,nan,0.0,nan,nan,nan,nan,nan,nan,nan,nan,nan,nan,nan,nan,nan,nan,nan,nan,nan,nan,244.56388710146894,691.722299025043,nan,691.9676123344598,nan,nan,nan,nan
1,298,1,1,1.0,1.0,0.22886046313396946,0.0,3,4,7,2,1,6,nan,nan,nan,nan,nan,nan,nan,nan,nan,nan,nan,nan,0.0,nan,nan,nan,nan,nan,nan,nan,nan,nan,nan,nan,nan,nan,nan,nan,nan,nan,nan,244.56388710146894,692.7307607983839,nan,692.9596212615179,nan,nan,nan,nan
1,299,0,0,1.0,0.0,0.1887078090931027,0.0,2,3,8,0,7,4,nan,nan,nan,nan,nan,nan,nan,nan,nan,nan,nan,nan,0.0,nan,nan,nan,nan,nan,nan,nan,nan,nan,nan,nan,nan,nan,nan,nan,nan,nan,nan,244.56388710146894,693.7309061994747,nan,693.9196140085678,nan,nan,nan,nan
1,300,1,1,1.0,1.0,0.28422406707431946,0.0,4,8,7,2,5,6,nan,nan,nan,nan,nan,nan,nan,nan,nan,nan,nan,nan,0.0,nan,nan,nan,nan,nan,nan,nan,nan,nan,nan,nan,nan,nan,nan,nan,nan,nan,nan,244.56388710146894,694.739352577406,nan,695.0235766444803,nan,nan,nan,nan
1,301,1,1,1.0,1.0,0.24404603911898448,0.0,0,5,8,6,3,2,nan,nan,nan,nan,nan,nan,nan,nan,nan,nan,nan,nan,0.0,nan,nan,nan,nan,nan,nan,nan,nan,nan,nan,nan,nan,nan,nan,nan,nan,nan,nan,244.56388710146894,695.7395353266202,nan,695.9835813657392,nan,nan,nan,nan
1,302,1,1,1.0,1.0,0.36357229385066603,0.0,3,2,0,8,1,6,nan,nan,nan,nan,nan,nan,nan,nan,nan,nan,nan,nan,0.0,nan,nan,nan,nan,nan,nan,nan,nan,nan,nan,nan,nan,nan,nan,nan,nan,nan,nan,244.56388710146894,696.7479822747518,nan,697.1115545686025,nan,nan,nan,nan
1,303,1,1,1.0,1.0,0.20340814457085798,0.0,6,4,5,7,8,1,nan,nan,nan,nan,nan,nan,nan,nan,nan,nan,nan,nan,0.0,nan,nan,nan,nan,nan,nan,nan,nan,nan,nan,nan,nan,nan,nan,nan,nan,nan,nan,244.56388710146894,697.7481379394503,nan,697.9515460840212,nan,nan,nan,nan
1,304,1,1,1.0,1.0,0.16328713665097894,0.0,8,7,2,4,0,3,nan,nan,nan,nan,nan,nan,nan,nan,nan,nan,nan,nan,0.0,nan,nan,nan,nan,nan,nan,nan,nan,nan,nan,nan,nan,nan,nan,nan,nan,nan,nan,244.56388710146894,698.7482702259331,nan,698.9115573625841,nan,nan,nan,nan
1,305,1,1,1.0,1.0,0.09913446436439699,0.0,2,6,7,3,8,1,nan,nan,nan,nan,nan,nan,nan,nan,nan,nan,nan,nan,0.0,nan,nan,nan,nan,nan,nan,nan,nan,nan,nan,nan,nan,nan,nan,nan,nan,nan,nan,244.56388710146894,699.7484218992286,nan,699.847556363593,nan,nan,nan,nan
1,306,1,1,1.0,1.0,0.18663883708723006,0.0,6,4,2,5,0,7,nan,nan,nan,nan,nan,nan,nan,nan,nan,nan,nan,nan,0.0,nan,nan,nan,nan,nan,nan,nan,nan,nan,nan,nan,nan,nan,nan,nan,nan,nan,nan,244.56388710146894,700.7568811066685,nan,700.9435199437557,nan,nan,nan,nan
1,307,1,1,1.0,1.0,0.1781573918342474,0.0,2,1,6,3,7,8,nan,nan,nan,nan,nan,nan,nan,nan,nan,nan,nan,nan,0.0,nan,nan,nan,nan,nan,nan,nan,nan,nan,nan,nan,nan,nan,nan,nan,nan,nan,nan,244.56388710146894,701.7653454459105,nan,701.9435028377447,nan,nan,nan,nan
1,308,1,1,1.0,1.0,0.1860039189868985,0.0,1,8,5,0,3,7,nan,nan,nan,nan,nan,nan,nan,nan,nan,nan,nan,nan,0.0,nan,nan,nan,nan,nan,nan,nan,nan,nan,nan,nan,nan,nan,nan,nan,nan,nan,nan,244.56388710146894,702.7654871406994,nan,702.9514910596863,nan,nan,nan,nan
1,309,1,1,1.0,1.0,0.17756381326216797,0.0,2,0,3,4,6,1,nan,nan,nan,nan,nan,nan,nan,nan,nan,nan,nan,nan,0.0,nan,nan,nan,nan,nan,nan,nan,nan,nan,nan,nan,nan,nan,nan,nan,nan,nan,nan,244.56388710146894,703.773949484239,nan,703.9515132975012,nan,nan,nan,nan
1,310,1,1,1.0,1.0,0.12936477684161218,0.0,6,7,2,0,8,5,nan,nan,nan,nan,nan,nan,nan,nan,nan,nan,nan,nan,0.0,nan,nan,nan,nan,nan,nan,nan,nan,nan,nan,nan,nan,nan,nan,nan,nan,nan,nan,244.56388710146894,704.7741399311599,nan,704.9035047080015,nan,nan,nan,nan
1,311,1,1,1.0,1.0,0.20090781599355978,0.0,4,6,7,3,2,8,nan,nan,nan,nan,nan,nan,nan,nan,nan,nan,nan,nan,0.0,nan,nan,nan,nan,nan,nan,nan,nan,nan,nan,nan,nan,nan,nan,nan,nan,nan,nan,244.56388710146894,705.7825877345913,nan,705.9834955505848,nan,nan,nan,nan
1,312,1,1,1.0,1.0,0.2084341756417416,0.0,1,0,4,8,6,2,nan,nan,nan,nan,nan,nan,nan,nan,nan,nan,nan,nan,0.0,nan,nan,nan,nan,nan,nan,nan,nan,nan,nan,nan,nan,nan,nan,nan,nan,nan,nan,244.56388710146894,706.7910560652363,nan,706.999490240878,nan,nan,nan,nan
1,313,1,1,1.0,1.0,0.15194927269476466,0.0,6,3,8,5,7,4,nan,nan,nan,nan,nan,nan,nan,nan,nan,nan,nan,nan,0.0,nan,nan,nan,nan,nan,nan,nan,nan,nan,nan,nan,nan,nan,nan,nan,nan,nan,nan,244.56388710146894,707.799514702474,nan,707.9514639751687,nan,nan,nan,nan
1,314,1,1,1.0,1.0,0.21545077617156494,0.0,4,1,5,8,0,7,nan,nan,nan,nan,nan,nan,nan,nan,nan,nan,nan,nan,0.0,nan,nan,nan,nan,nan,nan,nan,nan,nan,nan,nan,nan,nan,nan,nan,nan,nan,nan,244.56388710146894,708.8080640015687,nan,709.0235147777403,nan,nan,nan,nan
1,315,0,0,1.0,0.0,0.09497855904191965,1.0,8,2,0,1,4,5,1.0,1.0,1.0,1.0,1.0,1.0,0.0,0.0,0.0,0.0,0.0,0.0,0.0,1.0,7.0,8.0,4.0,1.0,2.0,5.0,4.0,3.0,2.0,1.0,6.0,4.426796679950712,3.4513777323645627,2.562251766836198,1.7545170559751568,1.036797880222366,5.298295756654625,244.56388710146894,709.8164425256564,710.62484551134,709.9114210846983,716.9757231494787,717.9801176836518,711.6416592944515,716.9673922371221
1,316,1,1,1.0,1.0,0.3751074471310858,0.0,5,0,3,6,1,8,nan,nan,nan,nan,nan,nan,nan,nan,nan,nan,nan,nan,0.0,nan,nan,nan,nan,nan,nan,nan,nan,nan,nan,nan,nan,nan,nan,nan,nan,nan,nan,244.56388710146894,718.1842625270874,nan,718.5593699742185,nan,nan,nan,nan
1,317,1,1,1.0,1.0,0.20696505441628688,0.0,3,1,8,0,7,6,nan,nan,nan,nan,nan,nan,nan,nan,nan,nan,nan,nan,0.0,nan,nan,nan,nan,nan,nan,nan,nan,nan,nan,nan,nan,nan,nan,nan,nan,nan,nan,244.56388710146894,719.1843950986713,nan,719.3913601530876,nan,nan,nan,nan
1,318,1,1,1.0,1.0,0.11882348278959398,0.0,4,3,7,6,0,5,nan,nan,nan,nan,nan,nan,nan,nan,nan,nan,nan,nan,0.0,nan,nan,nan,nan,nan,nan,nan,nan,nan,nan,nan,nan,nan,nan,nan,nan,nan,nan,244.56388710146894,720.1845313765571,nan,720.3033548593467,nan,nan,nan,nan
1,319,1,1,1.0,1.0,0.09469003765843809,0.0,0,7,2,4,1,3,nan,nan,nan,nan,nan,nan,nan,nan,nan,nan,nan,nan,0.0,nan,nan,nan,nan,nan,nan,nan,nan,nan,nan,nan,nan,nan,nan,nan,nan,nan,nan,244.56388710146894,721.1846667991431,nan,721.2793568368015,nan,nan,nan,nan
1,320,1,1,1.0,1.0,0.4461521311677643,0.0,8,1,3,0,4,5,nan,nan,nan,nan,nan,nan,nan,nan,nan,nan,nan,nan,0.0,nan,nan,nan,nan,nan,nan,nan,nan,nan,nan,nan,nan,nan,nan,nan,nan,nan,nan,244.56388710146894,722.1931200194776,nan,722.6392721506454,nan,nan,nan,nan
1,321,1,1,1.0,1.0,0.23801645541243488,0.0,1,0,7,4,3,6,nan,nan,nan,nan,nan,nan,nan,nan,nan,nan,nan,nan,0.0,nan,nan,nan,nan,nan,nan,nan,nan,nan,nan,nan,nan,nan,nan,nan,nan,nan,nan,244.56388710146894,723.1932839520814,nan,723.4313004074938,nan,nan,nan,nan
1,322,0,0,1.0,0.0,0.10189879570862104,1.0,0,8,1,3,5,4,1.0,1.0,1.0,1.0,1.0,1.0,1.0,0.0,1.0,1.0,0.0,0.0,3.0,0.0,2.0,1.0,3.0,7.0,6.0,1.0,4.0,3.0,2.0,5.0,6.0,1.5557047263046115,5.1463846873830335,3.5382888116128015,2.7152581909995206,8.05711069784229,9.089492376277121,244.56388710146894,724.1934222256696,725.0018357600584,724.2953210213782,735.1365621308851,736.1383633938221,726.0103086523068,735.128185602498
1,323,1,1,1.0,1.0,0.19014442889965721,0.0,7,5,3,1,0,2,nan,nan,nan,nan,nan,nan,nan,nan,nan,nan,nan,nan,0.0,nan,nan,nan,nan,nan,nan,nan,nan,nan,nan,nan,nan,nan,nan,nan,nan,nan,nan,244.56388710146894,736.3450769898791,nan,736.5352214187787,nan,nan,nan,nan
1,324,1,1,1.0,1.0,0.32567563753400464,0.0,2,4,1,0,7,5,nan,nan,nan,nan,nan,nan,nan,nan,nan,nan,nan,nan,0.0,nan,nan,nan,nan,nan,nan,nan,nan,nan,nan,nan,nan,nan,nan,nan,nan,nan,nan,244.56388710146894,737.3535401887202,nan,737.6792158262542,nan,nan,nan,nan
1,325,1,1,1.0,1.0,0.2695060553851363,0.0,3,2,5,7,6,4,nan,nan,nan,nan,nan,nan,nan,nan,nan,nan,nan,nan,0.0,nan,nan,nan,nan,nan,nan,nan,nan,nan,nan,nan,nan,nan,nan,nan,nan,nan,nan,244.56388710146894,738.353675041104,nan,738.6231810964891,nan,nan,nan,nan
1,326,1,1,1.0,1.0,0.21340261647856096,0.0,7,1,6,4,3,0,nan,nan,nan,nan,nan,nan,nan,nan,nan,nan,nan,nan,0.0,nan,nan,nan,nan,nan,nan,nan,nan,nan,nan,nan,nan,nan,nan,nan,nan,nan,nan,244.56388710146894,739.3537739708663,nan,739.5671765873449,nan,nan,nan,nan
1,327,1,1,1.0,1.0,0.20486899789284507,0.0,8,3,7,0,4,1,nan,nan,nan,nan,nan,nan,nan,nan,nan,nan,nan,nan,0.0,nan,nan,nan,nan,nan,nan,nan,nan,nan,nan,nan,nan,nan,nan,nan,nan,nan,nan,244.56388710146894,740.3622676754276,nan,740.5671366733204,nan,nan,nan,nan
1,328,1,1,1.0,1.0,0.23637171247355582,0.0,3,8,1,2,6,5,nan,nan,nan,nan,nan,nan,nan,nan,nan,nan,nan,nan,0.0,nan,nan,nan,nan,nan,nan,nan,nan,nan,nan,nan,nan,nan,nan,nan,nan,nan,nan,244.56388710146894,741.3707516865816,nan,741.6071233990551,nan,nan,nan,nan
1,329,1,1,1.0,1.0,0.22022449358337326,0.0,5,0,7,3,8,6,nan,nan,nan,nan,nan,nan,nan,nan,nan,nan,nan,nan,0.0,nan,nan,nan,nan,nan,nan,nan,nan,nan,nan,nan,nan,nan,nan,nan,nan,nan,nan,244.56388710146894,742.3708970876742,nan,742.5911215812575,nan,nan,nan,nan
1,330,1,1,1.0,1.0,0.1640754386480694,0.0,2,6,1,0,3,7,nan,nan,nan,nan,nan,nan,nan,nan,nan,nan,nan,nan,0.0,nan,nan,nan,nan,nan,nan,nan,nan,nan,nan,nan,nan,nan,nan,nan,nan,nan,nan,244.56388710146894,743.3710330804588,nan,743.5351085191069,nan,nan,nan,nan
1,331,1,1,1.0,1.0,0.09993730647147459,0.0,3,4,5,7,2,6,nan,nan,nan,nan,nan,nan,nan,nan,nan,nan,nan,nan,0.0,nan,nan,nan,nan,nan,nan,nan,nan,nan,nan,nan,nan,nan,nan,nan,nan,nan,nan,244.56388710146894,744.3711704987454,nan,744.4711078052169,nan,nan,nan,nan
1,332,0,0,1.0,0.0,0.10779153132716601,0.0,7,1,2,3,6,8,nan,nan,nan,nan,nan,nan,nan,nan,nan,nan,nan,nan,0.0,nan,nan,nan,nan,nan,nan,nan,nan,nan,nan,nan,nan,nan,nan,nan,nan,nan,nan,244.56388710146894,745.3713124786354,nan,745.4791040099626,nan,nan,nan,nan
1,333,1,1,1.0,1.0,0.27530185694376996,0.0,6,7,3,0,1,2,nan,nan,nan,nan,nan,nan,nan,nan,nan,nan,nan,nan,0.0,nan,nan,nan,nan,nan,nan,nan,nan,nan,nan,nan,nan,nan,nan,nan,nan,nan,nan,244.56388710146894,746.3797574310647,nan,746.6550592880085,nan,nan,nan,nan
1,334,1,1,1.0,1.0,0.26715369380144693,0.0,1,6,4,8,5,3,nan,nan,nan,nan,nan,nan,nan,nan,nan,nan,nan,nan,0.0,nan,nan,nan,nan,nan,nan,nan,nan,nan,nan,nan,nan,nan,nan,nan,nan,nan,nan,244.56388710146894,747.379914236164,nan,747.6470679299655,nan,nan,nan,nan
1,335,0,0,1.0,0.0,0.2750053527561249,0.0,0,3,5,6,2,4,nan,nan,nan,nan,nan,nan,nan,nan,nan,nan,nan,nan,0.0,nan,nan,nan,nan,nan,nan,nan,nan,nan,nan,nan,nan,nan,nan,nan,nan,nan,nan,244.56388710146894,748.3800582117547,nan,748.6550635645108,nan,nan,nan,nan
1,336,1,1,1.0,1.0,0.35451836743777676,0.0,4,8,6,0,1,7,nan,nan,nan,nan,nan,nan,nan,nan,nan,nan,nan,nan,0.0,nan,nan,nan,nan,nan,nan,nan,nan,nan,nan,nan,nan,nan,nan,nan,nan,nan,nan,244.56388710146894,749.388539942107,nan,749.7430583095447,nan,nan,nan,nan
1,337,1,1,1.0,1.0,0.29008344597059477,0.0,7,1,0,4,8,2,nan,nan,nan,nan,nan,nan,nan,nan,nan,nan,nan,nan,0.0,nan,nan,nan,nan,nan,nan,nan,nan,nan,nan,nan,nan,nan,nan,nan,nan,nan,nan,244.56388710146894,750.3969689289279,nan,750.6870523748985,nan,nan,nan,nan
1,338,1,1,1.0,1.0,0.2415936073703051,0.0,6,2,7,8,0,4,nan,nan,nan,nan,nan,nan,nan,nan,nan,nan,nan,nan,0.0,nan,nan,nan,nan,nan,nan,nan,nan,nan,nan,nan,nan,nan,nan,nan,nan,nan,nan,244.56388710146894,751.4054549357825,nan,751.6470485431528,nan,nan,nan,nan
1,339,1,1,1.0,1.0,0.26542912281183817,0.0,0,4,8,7,6,5,nan,nan,nan,nan,nan,nan,nan,nan,nan,nan,nan,nan,0.0,nan,nan,nan,nan,nan,nan,nan,nan,nan,nan,nan,nan,nan,nan,nan,nan,nan,nan,244.56388710146894,752.4056029027761,nan,752.6710320255879,nan,nan,nan,nan
1,340,1,1,1.0,1.0,0.2812832587187586,0.0,4,6,2,0,3,1,nan,nan,nan,nan,nan,nan,nan,nan,nan,nan,nan,nan,0.0,nan,nan,nan,nan,nan,nan,nan,nan,nan,nan,nan,nan,nan,nan,nan,nan,nan,nan,244.56388710146894,753.4057391806618,nan,753.6870224393806,nan,nan,nan,nan
1,341,1,1,1.0,1.0,0.28113244072301313,0.0,1,3,4,2,0,5,nan,nan,nan,nan,nan,nan,nan,nan,nan,nan,nan,nan,0.0,nan,nan,nan,nan,nan,nan,nan,nan,nan,nan,nan,nan,nan,nan,nan,nan,nan,nan,244.56388710146894,754.4058751734483,nan,754.6870076141713,nan,nan,nan,nan
1,342,1,1,1.0,1.0,0.2650111659477261,0.0,0,5,3,8,2,7,nan,nan,nan,nan,nan,nan,nan,nan,nan,nan,nan,nan,0.0,nan,nan,nan,nan,nan,nan,nan,nan,nan,nan,nan,nan,nan,nan,nan,nan,nan,nan,244.56388710146894,755.4060111662347,nan,755.6710223321825,nan,nan,nan,nan
1,343,0,0,0.0,1.0,0.32087055910233175,0.0,7,4,0,2,8,6,nan,nan,nan,nan,nan,nan,nan,nan,nan,nan,nan,nan,0.0,nan,nan,nan,nan,nan,nan,nan,nan,nan,nan,nan,nan,nan,nan,nan,nan,nan,nan,244.56388710146894,756.4061460186185,nan,756.7270165777209,nan,nan,nan,nan
1,344,1,1,1.0,1.0,0.3283669832326268,0.0,0,7,2,1,4,5,nan,nan,nan,nan,nan,nan,nan,nan,nan,nan,nan,nan,0.0,nan,nan,nan,nan,nan,nan,nan,nan,nan,nan,nan,nan,nan,nan,nan,nan,nan,nan,244.56388710146894,757.4146106429616,nan,757.7429776261943,nan,nan,nan,nan
1,345,1,1,1.0,1.0,0.32022338169372233,0.0,1,4,0,2,6,7,nan,nan,nan,nan,nan,nan,nan,nan,nan,nan,nan,nan,0.0,nan,nan,nan,nan,nan,nan,nan,nan,nan,nan,nan,nan,nan,nan,nan,nan,nan,nan,244.56388710146894,758.4147543334511,nan,758.7349777151449,nan,nan,nan,nan
1,346,0,0,0.0,1.0,0.43207416938275856,1.0,5,0,1,3,4,8,1.0,1.0,1.0,1.0,1.0,1.0,1.0,1.0,0.0,1.0,1.0,0.0,4.0,5.0,0.0,2.0,3.0,4.0,1.0,1.0,2.0,3.0,4.0,5.0,6.0,0.9329239104681619,1.7734665245352517,3.8126672290745773,8.708726545877653,10.180183313714224,12.54769084534746,244.56388710146894,759.4148928921386,760.2233061414281,759.8469670615214,773.8168174323928,774.8260273086053,761.2317964247868,773.8084868051355
1,347,1,1,1.0,1.0,0.23714604456290544,0.0,4,7,5,8,3,2,nan,nan,nan,nan,nan,nan,nan,nan,nan,nan,nan,nan,0.0,nan,nan,nan,nan,nan,nan,nan,nan,nan,nan,nan,nan,nan,nan,nan,nan,nan,nan,244.56388710146894,775.0337179429789,nan,775.2708639875418,nan,nan,nan,nan
1,348,1,1,1.0,1.0,0.28498813555597735,0.0,3,6,4,0,1,5,nan,nan,nan,nan,nan,nan,nan,nan,nan,nan,nan,nan,0.0,nan,nan,nan,nan,nan,nan,nan,nan,nan,nan,nan,nan,nan,nan,nan,nan,nan,nan,244.56388710146894,776.0338402509569,nan,776.3188283865129,nan,nan,nan,nan
1,349,1,1,1.0,1.0,0.22887699894454272,0.0,1,2,7,5,8,3,nan,nan,nan,nan,nan,nan,nan,nan,nan,nan,nan,nan,0.0,nan,nan,nan,nan,nan,nan,nan,nan,nan,nan,nan,nan,nan,nan,nan,nan,nan,nan,244.56388710146894,777.0339368999175,nan,777.2628138988621,nan,nan,nan,nan
1,350,1,1,1.0,1.0,0.21274603076381027,0.0,7,0,5,8,3,6,nan,nan,nan,nan,nan,nan,nan,nan,nan,nan,nan,nan,0.0,nan,nan,nan,nan,nan,nan,nan,nan,nan,nan,nan,nan,nan,nan,nan,nan,nan,nan,244.56388710146894,778.0340734629044,nan,778.2468194936682,nan,nan,nan,nan
1,351,1,1,1.0,1.0,0.22859189876362507,0.0,4,2,3,0,6,5,nan,nan,nan,nan,nan,nan,nan,nan,nan,nan,nan,nan,0.0,nan,nan,nan,nan,nan,nan,nan,nan,nan,nan,nan,nan,nan,nan,nan,nan,nan,nan,244.56388710146894,779.0342080301889,nan,779.2627999289525,nan,nan,nan,nan
1,352,1,1,1.0,1.0,0.18843610862131754,0.0,7,5,6,1,3,4,nan,nan,nan,nan,nan,nan,nan,nan,nan,nan,nan,nan,0.0,nan,nan,nan,nan,nan,nan,nan,nan,nan,nan,nan,nan,nan,nan,nan,nan,nan,nan,244.56388710146894,780.0343531461804,nan,780.2227892548017,nan,nan,nan,nan
1,353,1,1,1.0,1.0,0.17230029373786238,0.0,5,6,7,4,2,1,nan,nan,nan,nan,nan,nan,nan,nan,nan,nan,nan,nan,0.0,nan,nan,nan,nan,nan,nan,nan,nan,nan,nan,nan,nan,nan,nan,nan,nan,nan,nan,244.56388710146894,781.0344908495681,nan,781.206791143306,nan,nan,nan,nan
1,354,1,1,1.0,1.0,0.19616232349835627,0.0,4,8,0,7,3,6,nan,nan,nan,nan,nan,nan,nan,nan,nan,nan,nan,nan,0.0,nan,nan,nan,nan,nan,nan,nan,nan,nan,nan,nan,nan,nan,nan,nan,nan,nan,nan,244.56388710146894,782.0346123022446,nan,782.2307746257429,nan,nan,nan,nan
1,355,1,1,1.0,1.0,0.1879799483340321,0.0,6,3,4,2,7,8,nan,nan,nan,nan,nan,nan,nan,nan,nan,nan,nan,nan,0.0,nan,nan,nan,nan,nan,nan,nan,nan,nan,nan,nan,nan,nan,nan,nan,nan,nan,nan,244.56388710146894,783.0347790858486,nan,783.2227590341827,nan,nan,nan,nan
1,356,1,1,1.0,1.0,0.17184869505217648,0.0,8,0,6,1,4,5,nan,nan,nan,nan,nan,nan,nan,nan,nan,nan,nan,nan,0.0,nan,nan,nan,nan,nan,nan,nan,nan,nan,nan,nan,nan,nan,nan,nan,nan,nan,nan,244.56388710146894,784.0349053852296,nan,784.2067540802818,nan,nan,nan,nan
1,357,0,0,1.0,0.0,0.2596937624930433,0.0,0,1,7,6,3,8,nan,nan,nan,nan,nan,nan,nan,nan,nan,nan,nan,nan,0.0,nan,nan,nan,nan,nan,nan,nan,nan,nan,nan,nan,nan,nan,nan,nan,nan,nan,nan,244.56388710146894,785.0350442290164,nan,785.2947379915095,nan,nan,nan,nan
1,358,1,1,1.0,1.0,0.3635725789499702,0.0,2,5,6,4,8,0,nan,nan,nan,nan,nan,nan,nan,nan,nan,nan,nan,nan,0.0,nan,nan,nan,nan,nan,nan,nan,nan,nan,nan,nan,nan,nan,nan,nan,nan,nan,nan,244.56388710146894,786.0351482905826,nan,786.3987208695326,nan,nan,nan,nan
1,359,1,1,1.0,1.0,0.3554058842964878,0.0,3,1,8,2,0,5,nan,nan,nan,nan,nan,nan,nan,nan,nan,nan,nan,nan,0.0,nan,nan,nan,nan,nan,nan,nan,nan,nan,nan,nan,nan,nan,nan,nan,nan,nan,nan,244.56388710146894,787.0353256228937,nan,787.3907315071901,nan,nan,nan,nan
1,360,1,1,1.0,1.0,0.3069488322162215,0.0,2,0,3,8,4,6,nan,nan,nan,nan,nan,nan,nan,nan,nan,nan,nan,nan,0.0,nan,nan,nan,nan,nan,nan,nan,nan,nan,nan,nan,nan,nan,nan,nan,nan,nan,nan,244.56388710146894,788.0437722859242,nan,788.3507211181404,nan,nan,nan,nan
1,361,1,1,1.0,1.0,0.3144526689502527,0.0,5,6,4,1,8,0,nan,nan,nan,nan,nan,nan,nan,nan,nan,nan,nan,nan,0.0,nan,nan,nan,nan,nan,nan,nan,nan,nan,nan,nan,nan,nan,nan,nan,nan,nan,nan,244.56388710146894,789.0522374804677,nan,789.366690149418,nan,nan,nan,nan
1,362,1,1,1.0,1.0,0.28225887153348594,0.0,3,5,8,0,2,6,nan,nan,nan,nan,nan,nan,nan,nan,nan,nan,nan,nan,0.0,nan,nan,nan,nan,nan,nan,nan,nan,nan,nan,nan,nan,nan,nan,nan,nan,nan,nan,244.56388710146894,790.0524093958757,nan,790.3346682674091,nan,nan,nan,nan
1,363,1,1,1.0,1.0,0.32212499989327625,0.0,7,1,5,8,6,4,nan,nan,nan,nan,nan,nan,nan,nan,nan,nan,nan,nan,0.0,nan,nan,nan,nan,nan,nan,nan,nan,nan,nan,nan,nan,nan,nan,nan,nan,nan,nan,244.56388710146894,791.0525356952548,nan,791.3746606951481,nan,nan,nan,nan
1,364,1,1,1.0,1.0,0.26597851085898583,0.0,4,7,3,1,5,6,nan,nan,nan,nan,nan,nan,nan,nan,nan,nan,nan,nan,0.0,nan,nan,nan,nan,nan,nan,nan,nan,nan,nan,nan,nan,nan,nan,nan,nan,nan,nan,244.56388710146894,792.0526791006469,nan,792.3186576115058,nan,nan,nan,nan
1,365,0,0,0.0,1.0,0.40184528240570216,0.0,7,6,1,8,3,2,nan,nan,nan,nan,nan,nan,nan,nan,nan,nan,nan,nan,0.0,nan,nan,nan,nan,nan,nan,nan,nan,nan,nan,nan,nan,nan,nan,nan,nan,nan,nan,244.56388710146894,793.0528034043236,nan,793.4546486867293,nan,nan,nan,nan
1,366,1,1,1.0,1.0,0.3296821503627143,0.0,3,0,8,2,5,1,nan,nan,nan,nan,nan,nan,nan,nan,nan,nan,nan,nan,0.0,nan,nan,nan,nan,nan,nan,nan,nan,nan,nan,nan,nan,nan,nan,nan,nan,nan,nan,244.56388710146894,794.0529527968192,nan,794.3826349471819,nan,nan,nan,nan
1,367,0,0,1.0,0.0,0.23352612757844327,1.0,1,6,5,7,4,2,1.0,1.0,1.0,1.0,1.0,1.0,1.0,0.0,0.0,1.0,1.0,0.0,3.0,1.0,3.0,1.0,7.0,4.0,1.0,1.0,4.0,2.0,3.0,6.0,5.0,1.349874370605903,4.276956008186971,2.333872267707193,3.3814911252593447,6.084886297772755,5.301419029126919,244.56388710146894,795.053095632009,795.8615054600959,795.2866217595874,803.0041222635009,804.013382887546,796.8783124008023,802.9958070316534
1,368,1,1,1.0,1.0,0.24154856154200388,0.0,2,0,6,1,3,8,nan,nan,nan,nan,nan,nan,nan,nan,nan,nan,nan,nan,0.0,nan,nan,nan,nan,nan,nan,nan,nan,nan,nan,nan,nan,nan,nan,nan,nan,nan,nan,244.56388710146894,804.2210381694968,nan,804.4625867310388,nan,nan,nan,nan
1,369,1,1,1.0,1.0,0.2174002911997377,0.0,8,1,5,2,0,6,nan,nan,nan,nan,nan,nan,nan,nan,nan,nan,nan,nan,0.0,nan,nan,nan,nan,nan,nan,nan,nan,nan,nan,nan,nan,nan,nan,nan,nan,nan,nan,244.56388710146894,805.221142516164,nan,805.4385428073638,nan,nan,nan,nan
1,370,1,1,1.0,1.0,0.24125690405708156,0.0,5,4,1,3,8,7,nan,nan,nan,nan,nan,nan,nan,nan,nan,nan,nan,nan,0.0,nan,nan,nan,nan,nan,nan,nan,nan,nan,nan,nan,nan,nan,nan,nan,nan,nan,nan,244.56388710146894,806.2212782238494,nan,806.4625351279064,nan,nan,nan,nan
1,371,1,1,1.0,1.0,0.13708643011523236,0.0,7,3,0,6,5,2,nan,nan,nan,nan,nan,nan,nan,nan,nan,nan,nan,nan,0.0,nan,nan,nan,nan,nan,nan,nan,nan,nan,nan,nan,nan,nan,nan,nan,nan,nan,nan,244.56388710146894,807.221441871352,nan,807.3585283014672,nan,nan,nan,nan
1,372,1,1,1.0,1.0,0.12893655637162738,0.0,4,5,6,3,2,8,nan,nan,nan,nan,nan,nan,nan,nan,nan,nan,nan,nan,0.0,nan,nan,nan,nan,nan,nan,nan,nan,nan,nan,nan,nan,nan,nan,nan,nan,nan,nan,244.56388710146894,808.2215815704403,nan,808.350518126812,nan,nan,nan,nan
1,373,1,1,1.0,1.0,0.2087896955672477,0.0,7,0,1,5,8,2,nan,nan,nan,nan,nan,nan,nan,nan,nan,nan,nan,nan,0.0,nan,nan,nan,nan,nan,nan,nan,nan,nan,nan,nan,nan,nan,nan,nan,nan,nan,nan,244.56388710146894,809.2217178483261,nan,809.4305075438933,nan,nan,nan,nan
1,374,0,0,1.0,0.0,0.22430570265896677,0.0,2,8,0,1,3,7,nan,nan,nan,nan,nan,nan,nan,nan,nan,nan,nan,nan,0.0,nan,nan,nan,nan,nan,nan,nan,nan,nan,nan,nan,nan,nan,nan,nan,nan,nan,nan,244.56388710146894,810.23016907296,nan,810.454474775619,nan,nan,nan,nan
1,375,1,1,1.0,1.0,0.33585285865410697,0.0,8,0,7,4,5,6,nan,nan,nan,nan,nan,nan,nan,nan,nan,nan,nan,nan,0.0,nan,nan,nan,nan,nan,nan,nan,nan,nan,nan,nan,nan,nan,nan,nan,nan,nan,nan,244.56388710146894,811.2386074680871,nan,811.5744603267412,nan,nan,nan,nan
1,376,1,1,1.0,1.0,0.27965533669339493,0.0,1,3,2,8,0,4,nan,nan,nan,nan,nan,nan,nan,nan,nan,nan,nan,nan,0.0,nan,nan,nan,nan,nan,nan,nan,nan,nan,nan,nan,nan,nan,nan,nan,nan,nan,nan,244.56388710146894,812.2387979150044,nan,812.5184532516978,nan,nan,nan,nan
1,377,1,1,1.0,1.0,0.20752755707144388,0.0,7,2,4,0,6,5,nan,nan,nan,nan,nan,nan,nan,nan,nan,nan,nan,nan,0.0,nan,nan,nan,nan,nan,nan,nan,nan,nan,nan,nan,nan,nan,nan,nan,nan,nan,nan,244.56388710146894,813.2389267802864,nan,813.4464543373579,nan,nan,nan,nan
1,378,1,1,1.0,1.0,0.19909457884932635,0.0,4,5,2,1,7,3,nan,nan,nan,nan,nan,nan,nan,nan,nan,nan,nan,nan,0.0,nan,nan,nan,nan,nan,nan,nan,nan,nan,nan,nan,nan,nan,nan,nan,nan,nan,nan,244.56388710146894,814.2473623244114,nan,814.4464569032607,nan,nan,nan,nan
