block,trial,freq_trials,correct_response,actual_response,acc,rts,probe_trials,trials_colorind0,trials_colorind1,trials_colorind2,trials_colorind3,trials_colorind4,trials_colorind5,wholereport_resp0,wholereport_resp1,wholereport_resp2,wholereport_resp3,wholereport_resp4,wholereport_resp5,wholereport_respacc0,wholereport_respacc1,wholereport_respacc2,wholereport_respacc3,wholereport_respacc4,wholereport_respacc5,wholereport_respacc_total,wholereport_respcolorind0,wholereport_respcolorind1,wholereport_respcolorind2,wholereport_respcolorind3,wholereport_respcolorind4,wholereport_respcolorind5,wholereport_resporder0,wholereport_resporder1,wholereport_resporder2,wholereport_resporder3,wholereport_resporder4,wholereport_resporder5,wholereport_rts0,wholereport_rts1,wholereport_rts2,wholereport_rts3,wholereport_rts4,wholereport_rts5,time_blockstart,time_encarray_offset,time_encarray_onset,time_response,time_iti_offset,time_iti_onset,time_memprobe_offset,time_memprobe_onset
1,1,1,1,1.0,1.0,0.45571499736979604,0.0,7,2,8,1,5,0,nan,nan,nan,nan,nan,nan,nan,nan,nan,nan,nan,nan,0.0,nan,nan,nan,nan,nan,nan,nan,nan,nan,nan,nan,nan,nan,nan,nan,nan,nan,nan,129.52342536323704,130.54767365707085,nan,131.00338865444064,nan,nan,nan,nan
1,2,1,1,1.0,1.0,0.2852191550191492,0.0,8,0,3,5,2,1,nan,nan,nan,nan,nan,nan,nan,nan,nan,nan,nan,nan,0.0,nan,nan,nan,nan,nan,nan,nan,nan,nan,nan,nan,nan,nan,nan,nan,nan,nan,nan,129.52342536323704,131.5581441030372,nan,131.84336325805634,nan,nan,nan,nan
1,3,1,1,1.0,1.0,0.3427279209718108,0.0,6,7,4,2,1,8,nan,nan,nan,nan,nan,nan,nan,nan,nan,nan,nan,nan,0.0,nan,nan,nan,nan,nan,nan,nan,nan,nan,nan,nan,nan,nan,nan,nan,nan,nan,nan,129.52342536323704,132.56457188376226,nan,132.90729980473407,nan,nan,nan,nan
1,4,1,1,1.0,1.0,0.37425871402956545,0.0,7,5,2,3,0,4,nan,nan,nan,nan,nan,nan,nan,nan,nan,nan,nan,nan,0.0,nan,nan,nan,nan,nan,nan,nan,nan,nan,nan,nan,nan,nan,nan,nan,nan,nan,nan,129.52342536323704,133.57302955002524,nan,133.9472882640548,nan,nan,nan,nan
1,5,1,1,1.0,1.0,0.3177862730808556,0.0,0,8,6,7,2,1,nan,nan,nan,nan,nan,nan,nan,nan,nan,nan,nan,nan,0.0,nan,nan,nan,nan,nan,nan,nan,nan,nan,nan,nan,nan,nan,nan,nan,nan,nan,nan,129.52342536323704,134.58148408005945,nan,134.8992703531403,nan,nan,nan,nan
1,6,1,1,1.0,1.0,0.2612961558625102,0.0,4,3,0,5,6,8,nan,nan,nan,nan,nan,nan,nan,nan,nan,nan,nan,nan,0.0,nan,nan,nan,nan,nan,nan,nan,nan,nan,nan,nan,nan,nan,nan,nan,nan,nan,nan,129.52342536323704,135.58994288672693,nan,135.85123904258944,nan,nan,nan,nan
1,7,1,1,1.0,1.0,0.30084499693475664,0.0,0,6,5,1,8,4,nan,nan,nan,nan,nan,nan,nan,nan,nan,nan,nan,nan,0.0,nan,nan,nan,nan,nan,nan,nan,nan,nan,nan,nan,nan,nan,nan,nan,nan,nan,nan,129.52342536323704,136.5983843023423,nan,136.89922929927707,nan,nan,nan,nan
1,8,0,0,0.0,1.0,0.6443503752816468,0.0,4,3,0,7,5,2,nan,nan,nan,nan,nan,nan,nan,nan,nan,nan,nan,nan,0.0,nan,nan,nan,nan,nan,nan,nan,nan,nan,nan,nan,nan,nan,nan,nan,nan,nan,nan,129.52342536323704,137.60686164023355,nan,138.2512120155152,nan,nan,nan,nan
1,9,1,1,1.0,1.0,0.5478971726261079,0.0,3,0,4,6,2,8,nan,nan,nan,nan,nan,nan,nan,nan,nan,nan,nan,nan,0.0,nan,nan,nan,nan,nan,nan,nan,nan,nan,nan,nan,nan,nan,nan,nan,nan,nan,nan,129.52342536323704,138.61529478803277,nan,139.16319196065888,nan,nan,nan,nan
1,10,1,1,1.0,1.0,0.6673567895777524,0.0,2,7,8,5,4,6,nan,nan,nan,nan,nan,nan,nan,nan,nan,nan,nan,nan,0.0,nan,nan,nan,nan,nan,nan,nan,nan,nan,nan,nan,nan,nan,nan,nan,nan,nan,nan,129.52342536323704,139.62378609576263,nan,140.29114288534038,nan,nan,nan,nan
1,11,1,1,1.0,1.0,0.34688576497137547,0.0,6,3,7,2,1,5,nan,nan,nan,nan,nan,nan,nan,nan,nan,nan,nan,nan,0.0,nan,nan,nan,nan,nan,nan,nan,nan,nan,nan,nan,nan,nan,nan,nan,nan,nan,nan,129.52342536323704,140.63223235798068,nan,140.97911812295206,nan,nan,nan,nan
1,12,1,1,1.0,1.0,0.2824562869500369,0.0,0,1,6,8,2,4,nan,nan,nan,nan,nan,nan,nan,nan,nan,nan,nan,nan,0.0,nan,nan,nan,nan,nan,nan,nan,nan,nan,nan,nan,nan,nan,nan,nan,nan,nan,nan,129.52342536323704,141.64067605440505,nan,141.92313234135509,nan,nan,nan,nan
1,13,1,1,1.0,1.0,0.2978891187813133,0.0,3,7,1,6,8,2,nan,nan,nan,nan,nan,nan,nan,nan,nan,nan,nan,nan,0.0,nan,nan,nan,nan,nan,nan,nan,nan,nan,nan,nan,nan,nan,nan,nan,nan,nan,nan,129.52342536323704,142.64919387595728,nan,142.9470829947386,nan,nan,nan,nan
1,14,1,1,1.0,1.0,0.2734358406160027,0.0,8,0,4,1,3,5,nan,nan,nan,nan,nan,nan,nan,nan,nan,nan,nan,nan,0.0,nan,nan,nan,nan,nan,nan,nan,nan,nan,nan,nan,nan,nan,nan,nan,nan,nan,nan,129.52342536323704,143.6576381425839,nan,143.9310739831999,nan,nan,nan,nan
1,15,1,1,1.0,1.0,0.26494994992390275,0.0,1,3,2,7,8,6,nan,nan,nan,nan,nan,nan,nan,nan,nan,nan,nan,nan,0.0,nan,nan,nan,nan,nan,nan,nan,nan,nan,nan,nan,nan,nan,nan,nan,nan,nan,nan,129.52342536323704,144.66609181743115,nan,144.93104176735505,nan,nan,nan,nan
1,16,1,1,1.0,1.0,0.32051806547679007,0.0,3,4,8,6,7,0,nan,nan,nan,nan,nan,nan,nan,nan,nan,nan,nan,nan,0.0,nan,nan,nan,nan,nan,nan,nan,nan,nan,nan,nan,nan,nan,nan,nan,nan,nan,nan,129.52342536323704,145.67452097404748,nan,145.99503903952427,nan,nan,nan,nan
1,17,1,1,1.0,1.0,0.27998849330469966,0.0,4,0,2,5,3,6,nan,nan,nan,nan,nan,nan,nan,nan,nan,nan,nan,nan,0.0,nan,nan,nan,nan,nan,nan,nan,nan,nan,nan,nan,nan,nan,nan,nan,nan,nan,nan,129.52342536323704,146.6830028735567,nan,146.9629913668614,nan,nan,nan,nan
1,18,1,1,1.0,1.0,0.31153268623165786,0.0,2,5,0,3,6,1,nan,nan,nan,nan,nan,nan,nan,nan,nan,nan,nan,nan,0.0,nan,nan,nan,nan,nan,nan,nan,nan,nan,nan,nan,nan,nan,nan,nan,nan,nan,nan,129.52342536323704,147.69145027617924,nan,148.0029829624109,nan,nan,nan,nan
1,19,1,1,1.0,1.0,0.2710393213201314,0.0,8,2,6,1,3,5,nan,nan,nan,nan,nan,nan,nan,nan,nan,nan,nan,nan,0.0,nan,nan,nan,nan,nan,nan,nan,nan,nan,nan,nan,nan,nan,nan,nan,nan,nan,nan,129.52342536323704,148.6999204866588,nan,148.97095980797894,nan,nan,nan,nan
1,20,1,1,1.0,1.0,0.2785518935415894,0.0,2,0,8,3,6,7,nan,nan,nan,nan,nan,nan,nan,nan,nan,nan,nan,nan,0.0,nan,nan,nan,nan,nan,nan,nan,nan,nan,nan,nan,nan,nan,nan,nan,nan,nan,nan,129.52342536323704,149.7083787228912,nan,149.9869306164328,nan,nan,nan,nan
1,21,1,1,1.0,1.0,0.25410374719649553,0.0,8,6,4,2,3,1,nan,nan,nan,nan,nan,nan,nan,nan,nan,nan,nan,nan,0.0,nan,nan,nan,nan,nan,nan,nan,nan,nan,nan,nan,nan,nan,nan,nan,nan,nan,nan,129.52342536323704,150.7168073093053,nan,150.9709110565018,nan,nan,nan,nan
1,22,1,1,1.0,1.0,0.30962254106998444,0.0,2,1,8,7,4,0,nan,nan,nan,nan,nan,nan,nan,nan,nan,nan,nan,nan,0.0,nan,nan,nan,nan,nan,nan,nan,nan,nan,nan,nan,nan,nan,nan,nan,nan,nan,nan,129.52342536323704,151.72525642276742,nan,152.0348789638374,nan,nan,nan,nan
1,23,1,1,1.0,1.0,0.34116388275288045,0.0,0,3,6,4,5,7,nan,nan,nan,nan,nan,nan,nan,nan,nan,nan,nan,nan,0.0,nan,nan,nan,nan,nan,nan,nan,nan,nan,nan,nan,nan,nan,nan,nan,nan,nan,nan,129.52342536323704,152.73369327676482,nan,153.0748571595177,nan,nan,nan,nan
1,24,1,1,1.0,1.0,0.2606575405225158,0.0,3,0,8,1,6,2,nan,nan,nan,nan,nan,nan,nan,nan,nan,nan,nan,nan,0.0,nan,nan,nan,nan,nan,nan,nan,nan,nan,nan,nan,nan,nan,nan,nan,nan,nan,nan,129.52342536323704,153.74216719344258,nan,154.0028247339651,nan,nan,nan,nan
1,25,1,1,1.0,1.0,0.2601703107357025,0.0,8,3,6,0,7,1,nan,nan,nan,nan,nan,nan,nan,nan,nan,nan,nan,nan,0.0,nan,nan,nan,nan,nan,nan,nan,nan,nan,nan,nan,nan,nan,nan,nan,nan,nan,nan,129.52342536323704,154.75062485970557,nan,155.01079517044127,nan,nan,nan,nan
1,26,1,1,1.0,1.0,0.2516855604480952,0.0,6,7,5,2,8,0,nan,nan,nan,nan,nan,nan,nan,nan,nan,nan,nan,nan,0.0,nan,nan,nan,nan,nan,nan,nan,nan,nan,nan,nan,nan,nan,nan,nan,nan,nan,nan,129.52342536323704,155.75908594718203,nan,156.01077150763012,nan,nan,nan,nan
1,27,1,1,1.0,1.0,0.25921609345823526,0.0,2,1,3,0,7,4,nan,nan,nan,nan,nan,nan,nan,nan,nan,nan,nan,nan,0.0,nan,nan,nan,nan,nan,nan,nan,nan,nan,nan,nan,nan,nan,nan,nan,nan,nan,nan,129.52342536323704,156.7675410474185,nan,157.02675714087673,nan,nan,nan,nan
1,28,1,1,1.0,1.0,0.4907262458000332,0.0,8,7,2,1,3,5,nan,nan,nan,nan,nan,nan,nan,nan,nan,nan,nan,nan,0.0,nan,nan,nan,nan,nan,nan,nan,nan,nan,nan,nan,nan,nan,nan,nan,nan,nan,nan,129.52342536323704,157.77600384526886,nan,158.2667300910689,nan,nan,nan,nan
1,29,1,1,1.0,1.0,0.44223764073103666,0.0,4,0,1,8,5,6,nan,nan,nan,nan,nan,nan,nan,nan,nan,nan,nan,nan,0.0,nan,nan,nan,nan,nan,nan,nan,nan,nan,nan,nan,nan,nan,nan,nan,nan,nan,nan,129.52342536323704,158.78449230198748,nan,159.22672994271852,nan,nan,nan,nan
1,30,0,0,0.0,1.0,0.593733811751008,1.0,3,6,0,4,1,5,1.0,1.0,1.0,1.0,1.0,1.0,0.0,1.0,1.0,0.0,1.0,0.0,3.0,7.0,6.0,0.0,8.0,1.0,4.0,4.0,2.0,1.0,3.0,5.0,6.0,8.526253803400323,4.77472347789444,3.845484944526106,5.844937844667584,9.58173924125731,10.412689977325499,129.52342536323704,159.79294825764373,160.6013518695254,160.38668206939474,172.06108187767677,173.06585781043395,161.60978159634396,172.05274765822105
1,31,1,1,1.0,1.0,0.7487896950915456,0.0,0,4,8,7,3,1,nan,nan,nan,nan,nan,nan,nan,nan,nan,nan,nan,nan,0.0,nan,nan,nan,nan,nan,nan,nan,nan,nan,nan,nan,nan,nan,nan,nan,nan,nan,nan,129.52342536323704,173.2695933128707,nan,174.01838300796226,nan,nan,nan,nan
1,32,1,1,1.0,1.0,0.40437742532230914,0.0,1,0,5,8,4,2,nan,nan,nan,nan,nan,nan,nan,nan,nan,nan,nan,nan,0.0,nan,nan,nan,nan,nan,nan,nan,nan,nan,nan,nan,nan,nan,nan,nan,nan,nan,nan,129.52342536323704,174.27800593385473,nan,174.68238335917704,nan,nan,nan,nan
1,33,1,1,1.0,1.0,0.2678619234357029,0.0,2,8,7,1,0,6,nan,nan,nan,nan,nan,nan,nan,nan,nan,nan,nan,nan,0.0,nan,nan,nan,nan,nan,nan,nan,nan,nan,nan,nan,nan,nan,nan,nan,nan,nan,nan,129.52342536323704,175.2864798505325,nan,175.5543417739682,nan,nan,nan,nan
1,34,1,1,1.0,1.0,0.33935238095000386,0.0,7,3,0,4,6,8,nan,nan,nan,nan,nan,nan,nan,nan,nan,nan,nan,nan,0.0,nan,nan,nan,nan,nan,nan,nan,nan,nan,nan,nan,nan,nan,nan,nan,nan,nan,nan,129.52342536323704,176.2949440740049,nan,176.6342964549549,nan,nan,nan,nan
1,35,1,1,1.0,1.0,0.30686223902739584,0.0,5,7,8,6,3,2,nan,nan,nan,nan,nan,nan,nan,nan,nan,nan,nan,nan,0.0,nan,nan,nan,nan,nan,nan,nan,nan,nan,nan,nan,nan,nan,nan,nan,nan,nan,nan,129.52342536323704,177.30340202525258,nan,177.61026426427998,nan,nan,nan,nan
1,36,1,1,1.0,1.0,0.25038124481216073,0.0,6,0,3,8,1,7,nan,nan,nan,nan,nan,nan,nan,nan,nan,nan,nan,nan,0.0,nan,nan,nan,nan,nan,nan,nan,nan,nan,nan,nan,nan,nan,nan,nan,nan,nan,nan,129.52342536323704,178.3118599767331,nan,178.56224122154526,nan,nan,nan,nan
1,37,1,1,1.0,1.0,0.24191987258382142,0.0,7,8,0,2,6,5,nan,nan,nan,nan,nan,nan,nan,nan,nan,nan,nan,nan,0.0,nan,nan,nan,nan,nan,nan,nan,nan,nan,nan,nan,nan,nan,nan,nan,nan,nan,nan,129.52342536323704,179.32030395814218,nan,179.562223830726,nan,nan,nan,nan
1,38,1,1,1.0,1.0,0.2654374644625932,0.0,2,6,1,0,4,3,nan,nan,nan,nan,nan,nan,nan,nan,nan,nan,nan,nan,0.0,nan,nan,nan,nan,nan,nan,nan,nan,nan,nan,nan,nan,nan,nan,nan,nan,nan,nan,129.52342536323704,180.32875791820697,nan,180.59419538266957,nan,nan,nan,nan
1,39,1,1,1.0,1.0,0.19295772281475365,0.0,7,2,3,8,6,4,nan,nan,nan,nan,nan,nan,nan,nan,nan,nan,nan,nan,0.0,nan,nan,nan,nan,nan,nan,nan,nan,nan,nan,nan,nan,nan,nan,nan,nan,nan,nan,129.52342536323704,181.3372187204659,nan,181.53017644328065,nan,nan,nan,nan
1,40,1,1,1.0,1.0,0.24046274553984404,0.0,6,4,1,0,8,2,nan,nan,nan,nan,nan,nan,nan,nan,nan,nan,nan,nan,0.0,nan,nan,nan,nan,nan,nan,nan,nan,nan,nan,nan,nan,nan,nan,nan,nan,nan,nan,129.52342536323704,182.34571943618357,nan,182.58618218172342,nan,nan,nan,nan
1,41,1,1,1.0,1.0,0.15198910236358643,0.0,4,1,5,6,2,7,nan,nan,nan,nan,nan,nan,nan,nan,nan,nan,nan,nan,0.0,nan,nan,nan,nan,nan,nan,nan,nan,nan,nan,nan,nan,nan,nan,nan,nan,nan,nan,129.52342536323704,183.35417482163757,nan,183.50616392400116,nan,nan,nan,nan
1,42,1,1,1.0,1.0,0.07149473414756358,0.0,8,3,4,2,0,5,nan,nan,nan,nan,nan,nan,nan,nan,nan,nan,nan,nan,0.0,nan,nan,nan,nan,nan,nan,nan,nan,nan,nan,nan,nan,nan,nan,nan,nan,nan,nan,129.52342536323704,184.36262792628258,nan,184.43412266043015,nan,nan,nan,nan
1,43,1,1,1.0,1.0,0.18301441986113787,0.0,4,1,6,8,3,7,nan,nan,nan,nan,nan,nan,nan,nan,nan,nan,nan,nan,0.0,nan,nan,nan,nan,nan,nan,nan,nan,nan,nan,nan,nan,nan,nan,nan,nan,nan,nan,129.52342536323704,185.3710901539307,nan,185.55410457379185,nan,nan,nan,nan
1,44,1,1,1.0,1.0,0.23852893756702542,0.0,0,3,8,1,6,5,nan,nan,nan,nan,nan,nan,nan,nan,nan,nan,nan,nan,0.0,nan,nan,nan,nan,nan,nan,nan,nan,nan,nan,nan,nan,nan,nan,nan,nan,nan,nan,129.52342536323704,186.37953499075957,nan,186.6180639283266,nan,nan,nan,nan
1,45,1,1,1.0,1.0,0.1580750527791679,0.0,3,6,1,0,7,8,nan,nan,nan,nan,nan,nan,nan,nan,nan,nan,nan,nan,0.0,nan,nan,nan,nan,nan,nan,nan,nan,nan,nan,nan,nan,nan,nan,nan,nan,nan,nan,129.52342536323704,187.38795958575793,nan,187.5460346385371,nan,nan,nan,nan
1,46,1,1,1.0,1.0,0.09358171303756535,0.0,5,0,7,1,8,2,nan,nan,nan,nan,nan,nan,nan,nan,nan,nan,nan,nan,0.0,nan,nan,nan,nan,nan,nan,nan,nan,nan,nan,nan,nan,nan,nan,nan,nan,nan,nan,129.52342536323704,188.396430936642,nan,188.49001264967956,nan,nan,nan,nan
1,47,1,1,nan,nan,nan,0.0,8,4,2,6,1,0,nan,nan,nan,nan,nan,nan,nan,nan,nan,nan,nan,nan,0.0,nan,nan,nan,nan,nan,nan,nan,nan,nan,nan,nan,nan,nan,nan,nan,nan,nan,nan,129.52342536323704,189.4048851816915,nan,nan,nan,nan,nan,nan
1,48,1,1,nan,nan,nan,0.0,1,8,7,3,0,4,nan,nan,nan,nan,nan,nan,nan,nan,nan,nan,nan,nan,0.0,nan,nan,nan,nan,nan,nan,nan,nan,nan,nan,nan,nan,nan,nan,nan,nan,nan,nan,129.52342536323704,190.41332745272666,nan,nan,nan,nan,nan,nan
1,49,0,0,1.0,0.0,0.07618257217109203,0.0,8,4,6,2,5,1,nan,nan,nan,nan,nan,nan,nan,nan,nan,nan,nan,nan,0.0,nan,nan,nan,nan,nan,nan,nan,nan,nan,nan,nan,nan,nan,nan,nan,nan,nan,nan,129.52342536323704,191.42178283818066,nan,191.49796541035175,nan,nan,nan,nan
1,50,1,1,1.0,1.0,0.4676579653751105,0.0,4,1,5,0,3,7,nan,nan,nan,nan,nan,nan,nan,nan,nan,nan,nan,nan,0.0,nan,nan,nan,nan,nan,nan,nan,nan,nan,nan,nan,nan,nan,nan,nan,nan,nan,nan,129.52342536323704,192.4302513380535,nan,192.8979093034286,nan,nan,nan,nan
1,51,0,0,0.0,1.0,0.2991948598064482,1.0,0,4,7,8,5,1,1.0,1.0,1.0,1.0,1.0,1.0,0.0,1.0,1.0,0.0,0.0,0.0,2.0,6.0,4.0,7.0,1.0,8.0,5.0,4.0,2.0,1.0,3.0,5.0,6.0,6.206135442946106,4.135667910799384,2.9356184180360287,5.174762022914365,7.01396316033788,7.89423298696056,129.52342536323704,193.43870244687423,194.24711404158734,193.73789730668068,203.19820064329542,204.20277016656473,195.26388682588004,203.18986984505318
1,52,1,1,1.0,1.0,0.6589247821830213,0.0,1,0,5,4,6,3,nan,nan,nan,nan,nan,nan,nan,nan,nan,nan,nan,nan,0.0,nan,nan,nan,nan,nan,nan,nan,nan,nan,nan,nan,nan,nan,nan,nan,nan,nan,nan,129.52342536323704,204.4067223421298,nan,205.06564712431282,nan,nan,nan,nan
1,53,1,1,1.0,1.0,0.30645768716931343,0.0,8,5,1,0,4,2,nan,nan,nan,nan,nan,nan,nan,nan,nan,nan,nan,nan,0.0,nan,nan,nan,nan,nan,nan,nan,nan,nan,nan,nan,nan,nan,nan,nan,nan,nan,nan,129.52342536323704,205.41517117037438,nan,205.7216288575437,nan,nan,nan,nan
1,54,1,1,1.0,1.0,0.21795553457923234,0.0,5,6,7,8,1,3,nan,nan,nan,nan,nan,nan,nan,nan,nan,nan,nan,nan,0.0,nan,nan,nan,nan,nan,nan,nan,nan,nan,nan,nan,nan,nan,nan,nan,nan,nan,nan,129.52342536323704,206.42363710445352,nan,206.64159263903275,nan,nan,nan,nan
1,55,1,1,1.0,1.0,0.1855070167221129,0.0,7,8,2,4,0,5,nan,nan,nan,nan,nan,nan,nan,nan,nan,nan,nan,nan,0.0,nan,nan,nan,nan,nan,nan,nan,nan,nan,nan,nan,nan,nan,nan,nan,nan,nan,nan,129.52342536323704,207.43208222626708,nan,207.6175892429892,nan,nan,nan,nan
1,56,1,1,1.0,1.0,0.2810008702799678,0.0,5,2,4,0,6,3,nan,nan,nan,nan,nan,nan,nan,nan,nan,nan,nan,nan,0.0,nan,nan,nan,nan,nan,nan,nan,nan,nan,nan,nan,nan,nan,nan,nan,nan,nan,nan,129.52342536323704,208.44055956415832,nan,208.7215604344383,nan,nan,nan,nan
1,57,1,1,1.0,1.0,0.2405363004654646,0.0,0,7,2,1,3,5,nan,nan,nan,nan,nan,nan,nan,nan,nan,nan,nan,nan,0.0,nan,nan,nan,nan,nan,nan,nan,nan,nan,nan,nan,nan,nan,nan,nan,nan,nan,nan,129.52342536323704,209.44900154997595,nan,209.6895378504414,nan,nan,nan,nan
1,58,1,1,1.0,1.0,0.22415580856613815,0.0,6,4,0,3,2,8,nan,nan,nan,nan,nan,nan,nan,nan,nan,nan,nan,nan,0.0,nan,nan,nan,nan,nan,nan,nan,nan,nan,nan,nan,nan,nan,nan,nan,nan,nan,nan,129.52342536323704,210.45745551004075,nan,210.68161131860688,nan,nan,nan,nan
1,59,1,1,1.0,1.0,0.20753925712779164,0.0,5,0,8,2,6,3,nan,nan,nan,nan,nan,nan,nan,nan,nan,nan,nan,nan,0.0,nan,nan,nan,nan,nan,nan,nan,nan,nan,nan,nan,nan,nan,nan,nan,nan,nan,nan,129.52342536323704,211.46594282612205,nan,211.67348208324984,nan,nan,nan,nan
1,60,1,1,1.0,1.0,0.0711018715519458,0.0,1,7,2,8,3,6,nan,nan,nan,nan,nan,nan,nan,nan,nan,nan,nan,nan,0.0,nan,nan,nan,nan,nan,nan,nan,nan,nan,nan,nan,nan,nan,nan,nan,nan,nan,nan,129.52342536323704,212.47436799132265,nan,212.5454698628746,nan,nan,nan,nan
1,61,1,1,nan,nan,nan,0.0,3,2,0,6,5,4,nan,nan,nan,nan,nan,nan,nan,nan,nan,nan,nan,nan,0.0,nan,nan,nan,nan,nan,nan,nan,nan,nan,nan,nan,nan,nan,nan,nan,nan,nan,nan,129.52342536323704,213.4828213811852,nan,nan,nan,nan,nan,nan
1,62,1,1,1.0,1.0,0.022167376009747386,0.0,5,4,8,1,6,3,nan,nan,nan,nan,nan,nan,nan,nan,nan,nan,nan,nan,0.0,nan,nan,nan,nan,nan,nan,nan,nan,nan,nan,nan,nan,nan,nan,nan,nan,nan,nan,129.52342536323704,214.49127990263514,nan,214.5134472786449,nan,nan,nan,nan
1,63,1,1,nan,nan,nan,0.0,1,0,5,4,7,6,nan,nan,nan,nan,nan,nan,nan,nan,nan,nan,nan,nan,0.0,nan,nan,nan,nan,nan,nan,nan,nan,nan,nan,nan,nan,nan,nan,nan,nan,nan,nan,129.52342536323704,215.49976351251826,nan,nan,nan,nan,nan,nan
1,64,1,1,1.0,1.0,0.749177711084485,0.0,8,5,2,7,1,4,nan,nan,nan,nan,nan,nan,nan,nan,nan,nan,nan,nan,0.0,nan,nan,nan,nan,nan,nan,nan,nan,nan,nan,nan,nan,nan,nan,nan,nan,nan,nan,129.52342536323704,216.50818069512025,nan,217.25735840620473,nan,nan,nan,nan
1,65,1,1,1.0,1.0,0.644723566249013,0.0,1,2,0,3,6,7,nan,nan,nan,nan,nan,nan,nan,nan,nan,nan,nan,nan,0.0,nan,nan,nan,nan,nan,nan,nan,nan,nan,nan,nan,nan,nan,nan,nan,nan,nan,nan,129.52342536323704,217.51664662919939,nan,218.1613701954484,nan,nan,nan,nan
1,66,1,1,1.0,1.0,0.42823456693440676,0.0,2,4,6,8,7,5,nan,nan,nan,nan,nan,nan,nan,nan,nan,nan,nan,nan,0.0,nan,nan,nan,nan,nan,nan,nan,nan,nan,nan,nan,nan,nan,nan,nan,nan,nan,nan,129.52342536323704,218.52509574242868,nan,218.95333030936308,nan,nan,nan,nan
1,67,1,1,1.0,1.0,0.2677193752024323,0.0,7,5,3,1,4,6,nan,nan,nan,nan,nan,nan,nan,nan,nan,nan,nan,nan,0.0,nan,nan,nan,nan,nan,nan,nan,nan,nan,nan,nan,nan,nan,nan,nan,nan,nan,nan,129.52342536323704,219.53358049271628,nan,219.80129986791871,nan,nan,nan,nan
1,68,1,1,1.0,1.0,0.2512490781955421,0.0,4,3,5,8,6,1,nan,nan,nan,nan,nan,nan,nan,nan,nan,nan,nan,nan,0.0,nan,nan,nan,nan,nan,nan,nan,nan,nan,nan,nan,nan,nan,nan,nan,nan,nan,nan,129.52342536323704,220.5420258997474,nan,220.79327497794293,nan,nan,nan,nan
1,69,1,1,1.0,1.0,0.20276446477510035,0.0,5,6,3,2,7,0,nan,nan,nan,nan,nan,nan,nan,nan,nan,nan,nan,nan,0.0,nan,nan,nan,nan,nan,nan,nan,nan,nan,nan,nan,nan,nan,nan,nan,nan,nan,nan,129.52342536323704,221.55048442119732,nan,221.75324888597243,nan,nan,nan,nan
1,70,1,1,1.0,1.0,0.23427273496054113,0.0,8,1,7,0,5,6,nan,nan,nan,nan,nan,nan,nan,nan,nan,nan,nan,nan,0.0,nan,nan,nan,nan,nan,nan,nan,nan,nan,nan,nan,nan,nan,nan,nan,nan,nan,nan,129.52342536323704,222.55894351308234,nan,222.79321624804288,nan,nan,nan,nan
1,71,1,1,1.0,1.0,0.26581493206322193,0.0,2,6,4,1,0,3,nan,nan,nan,nan,nan,nan,nan,nan,nan,nan,nan,nan,0.0,nan,nan,nan,nan,nan,nan,nan,nan,nan,nan,nan,nan,nan,nan,nan,nan,nan,nan,129.52342536323704,223.56739918352105,nan,223.83321411558427,nan,nan,nan,nan
1,72,0,0,nan,nan,nan,0.0,3,0,5,7,1,2,nan,nan,nan,nan,nan,nan,nan,nan,nan,nan,nan,nan,0.0,nan,nan,nan,nan,nan,nan,nan,nan,nan,nan,nan,nan,nan,nan,nan,nan,nan,nan,129.52342536323704,224.5758539987728,nan,nan,nan,nan,nan,nan
1,73,1,1,nan,nan,nan,0.0,6,8,1,0,2,7,nan,nan,nan,nan,nan,nan,nan,nan,nan,nan,nan,nan,0.0,nan,nan,nan,nan,nan,nan,nan,nan,nan,nan,nan,nan,nan,nan,nan,nan,nan,nan,129.52342536323704,225.5843071034178,nan,nan,nan,nan,nan,nan
1,74,1,1,1.0,1.0,0.3203795086592436,0.0,8,3,6,7,4,2,nan,nan,nan,nan,nan,nan,nan,nan,nan,nan,nan,nan,0.0,nan,nan,nan,nan,nan,nan,nan,nan,nan,nan,nan,nan,nan,nan,nan,nan,nan,nan,129.52342536323704,226.59277275227942,nan,226.91315226093866,nan,nan,nan,nan
1,75,1,1,1.0,1.0,0.1598648871295154,0.0,1,4,3,5,7,0,nan,nan,nan,nan,nan,nan,nan,nan,nan,nan,nan,nan,0.0,nan,nan,nan,nan,nan,nan,nan,nan,nan,nan,nan,nan,nan,nan,nan,nan,nan,nan,129.52342536323704,227.60128572722897,nan,227.76115061435848,nan,nan,nan,nan
1,76,1,1,1.0,1.0,0.6473555751144886,0.0,7,6,2,3,8,4,nan,nan,nan,nan,nan,nan,nan,nan,nan,nan,nan,nan,0.0,nan,nan,nan,nan,nan,nan,nan,nan,nan,nan,nan,nan,nan,nan,nan,nan,nan,nan,129.52342536323704,228.60972286644392,nan,229.2570784415584,nan,nan,nan,nan
1,77,1,1,1.0,1.0,0.37491871207021177,0.0,0,4,3,2,1,8,nan,nan,nan,nan,nan,nan,nan,nan,nan,nan,nan,nan,0.0,nan,nan,nan,nan,nan,nan,nan,nan,nan,nan,nan,nan,nan,nan,nan,nan,nan,nan,129.52342536323704,229.61817254987545,nan,229.99309126194566,nan,nan,nan,nan
1,78,0,0,1.0,0.0,0.19050618004985154,1.0,3,2,0,6,4,1,1.0,1.0,1.0,1.0,1.0,1.0,1.0,1.0,1.0,1.0,0.0,0.0,4.0,3.0,2.0,0.0,6.0,7.0,3.0,4.0,2.0,1.0,3.0,5.0,6.0,7.034428796963766,4.995897179469466,4.187673748470843,5.9541528122499585,10.154264741111547,11.017181042116135,129.52342536323704,230.62655067420565,231.43500816938467,230.8170568542555,243.5114382051397,244.5122393257916,232.451788936276,243.5031307847239
1,79,1,1,1.0,1.0,0.5127530691679567,0.0,1,8,4,5,2,0,nan,nan,nan,nan,nan,nan,nan,nan,nan,nan,nan,nan,0.0,nan,nan,nan,nan,nan,nan,nan,nan,nan,nan,nan,nan,nan,nan,nan,nan,nan,nan,129.52342536323704,244.71999725163914,nan,245.2327503208071,nan,nan,nan,nan
1,80,1,1,1.0,1.0,0.3522686678916216,0.0,0,4,5,2,3,7,nan,nan,nan,nan,nan,nan,nan,nan,nan,nan,nan,nan,0.0,nan,nan,nan,nan,nan,nan,nan,nan,nan,nan,nan,nan,nan,nan,nan,nan,nan,nan,129.52342536323704,245.72845007129945,nan,246.08071873919107,nan,nan,nan,nan
1,81,1,1,1.0,1.0,0.26380528835579753,0.0,5,8,7,3,0,2,nan,nan,nan,nan,nan,nan,nan,nan,nan,nan,nan,nan,0.0,nan,nan,nan,nan,nan,nan,nan,nan,nan,nan,nan,nan,nan,nan,nan,nan,nan,nan,129.52342536323704,246.73688264889643,nan,247.00068793725222,nan,nan,nan,nan
1,82,1,1,1.0,1.0,0.5832944414578378,0.0,6,1,0,2,3,4,nan,nan,nan,nan,nan,nan,nan,nan,nan,nan,nan,nan,0.0,nan,nan,nan,nan,nan,nan,nan,nan,nan,nan,nan,nan,nan,nan,nan,nan,nan,nan,129.52342536323704,247.74536654399708,nan,248.32866098545492,nan,nan,nan,nan
1,83,1,1,1.0,1.0,0.35877941153012216,0.0,7,2,5,0,6,1,nan,nan,nan,nan,nan,nan,nan,nan,nan,nan,nan,nan,0.0,nan,nan,nan,nan,nan,nan,nan,nan,nan,nan,nan,nan,nan,nan,nan,nan,nan,nan,129.52342536323704,248.75382791645825,nan,249.11260732798837,nan,nan,nan,nan
1,84,1,1,1.0,1.0,0.29433225747197866,0.0,5,1,7,3,4,6,nan,nan,nan,nan,nan,nan,nan,nan,nan,nan,nan,nan,0.0,nan,nan,nan,nan,nan,nan,nan,nan,nan,nan,nan,nan,nan,nan,nan,nan,nan,nan,129.52342536323704,249.76227759988979,nan,250.05660985736176,nan,nan,nan,nan
1,85,1,1,1.0,1.0,0.2938530105166137,0.0,8,0,1,5,6,2,nan,nan,nan,nan,nan,nan,nan,nan,nan,nan,nan,nan,0.0,nan,nan,nan,nan,nan,nan,nan,nan,nan,nan,nan,nan,nan,nan,nan,nan,nan,nan,129.52342536323704,250.77073270035908,nan,251.0645857108757,nan,nan,nan,nan
1,86,0,0,1.0,0.0,0.2773664630949497,1.0,5,7,4,6,8,1,1.0,1.0,1.0,1.0,1.0,1.0,0.0,1.0,1.0,1.0,0.0,0.0,3.0,8.0,7.0,4.0,6.0,5.0,2.0,4.0,2.0,1.0,3.0,5.0,6.0,5.873731428524479,4.026509392540902,3.1777846137993038,4.937116884160787,6.568900215439498,8.272279490251094,129.52342536323704,251.7792240078561,252.58762362832204,252.05659047095105,261.9137418400496,262.9198263648432,253.60440011881292,261.90540933120064
1,87,1,1,1.0,1.0,0.29404830164276063,0.0,0,3,2,1,4,6,nan,nan,nan,nan,nan,nan,nan,nan,nan,nan,nan,nan,0.0,nan,nan,nan,nan,nan,nan,nan,nan,nan,nan,nan,nan,nan,nan,nan,nan,nan,nan,129.52342536323704,263.12226638989523,nan,263.416314691538,nan,nan,nan,nan
1,88,1,1,1.0,1.0,0.18954340973868966,0.0,6,2,4,0,5,8,nan,nan,nan,nan,nan,nan,nan,nan,nan,nan,nan,nan,0.0,nan,nan,nan,nan,nan,nan,nan,nan,nan,nan,nan,nan,nan,nan,nan,nan,nan,nan,129.52342536323704,264.1307052397169,nan,264.3202486494556,nan,nan,nan,nan
1,89,0,0,0.0,1.0,0.477050747256726,0.0,8,3,2,4,6,7,nan,nan,nan,nan,nan,nan,nan,nan,nan,nan,nan,nan,0.0,nan,nan,nan,nan,nan,nan,nan,nan,nan,nan,nan,nan,nan,nan,nan,nan,nan,nan,129.52342536323704,265.13915435317904,nan,265.61620510043576,nan,nan,nan,nan
1,90,1,1,1.0,1.0,0.6605923103634268,0.0,6,2,7,3,4,5,nan,nan,nan,nan,nan,nan,nan,nan,nan,nan,nan,nan,0.0,nan,nan,nan,nan,nan,nan,nan,nan,nan,nan,nan,nan,nan,nan,nan,nan,nan,nan,129.52342536323704,266.14761002361774,nan,266.80820233398117,nan,nan,nan,nan
1,91,0,0,nan,nan,nan,0.0,4,0,1,5,6,2,nan,nan,nan,nan,nan,nan,nan,nan,nan,nan,nan,nan,0.0,nan,nan,nan,nan,nan,nan,nan,nan,nan,nan,nan,nan,nan,nan,nan,nan,nan,nan,129.52342536323704,267.15608707629144,nan,nan,nan,nan,nan,nan
1,92,1,1,0.0,0.0,0.21965271281078458,0.0,5,3,0,6,8,7,nan,nan,nan,nan,nan,nan,nan,nan,nan,nan,nan,nan,0.0,nan,nan,nan,nan,nan,nan,nan,nan,nan,nan,nan,nan,nan,nan,nan,nan,nan,nan,129.52342536323704,268.1645282069221,nan,268.3841809197329,nan,nan,nan,nan
1,93,1,1,1.0,1.0,0.459162381477654,0.0,1,4,2,0,6,8,nan,nan,nan,nan,nan,nan,nan,nan,nan,nan,nan,nan,0.0,nan,nan,nan,nan,nan,nan,nan,nan,nan,nan,nan,nan,nan,nan,nan,nan,nan,nan,129.52342536323704,269.1729818817694,nan,269.632144263247,nan,nan,nan,nan
1,94,0,0,nan,nan,nan,1.0,5,0,1,2,3,7,1.0,1.0,1.0,1.0,1.0,1.0,1.0,1.0,1.0,0.0,0.0,0.0,3.0,5.0,0.0,1.0,7.0,8.0,4.0,4.0,2.0,1.0,3.0,5.0,6.0,6.093329117633402,3.7352273799479008,3.032103836769238,5.014741188148037,6.797124918084592,7.557423664722592,129.52342536323704,270.18148658890277,270.98986596777104,nan,279.6075763765257,280.60984232183546,272.0150131699629,279.5992655348964
1,95,1,1,1.0,1.0,0.6157708987593651,0.0,4,1,8,7,0,6,nan,nan,nan,nan,nan,nan,nan,nan,nan,nan,nan,nan,0.0,nan,nan,nan,nan,nan,nan,nan,nan,nan,nan,nan,nan,nan,nan,nan,nan,nan,nan,129.52342536323704,280.81612572981976,nan,281.4318966285791,nan,nan,nan,nan
1,96,1,1,1.0,1.0,0.3353202643338591,0.0,8,7,6,0,1,3,nan,nan,nan,nan,nan,nan,nan,nan,nan,nan,nan,nan,0.0,nan,nan,nan,nan,nan,nan,nan,nan,nan,nan,nan,nan,nan,nan,nan,nan,nan,nan,129.52342536323704,281.8245340741705,nan,282.1598543385044,nan,nan,nan,nan
1,97,1,1,1.0,1.0,0.3268292418215424,0.0,3,2,1,4,7,5,nan,nan,nan,nan,nan,nan,nan,nan,nan,nan,nan,nan,0.0,nan,nan,nan,nan,nan,nan,nan,nan,nan,nan,nan,nan,nan,nan,nan,nan,nan,nan,129.52342536323704,282.8329940212425,nan,283.159823263064,nan,nan,nan,nan
1,98,1,1,1.0,1.0,0.35039472999051213,0.0,8,4,5,6,2,1,nan,nan,nan,nan,nan,nan,nan,nan,nan,nan,nan,nan,0.0,nan,nan,nan,nan,nan,nan,nan,nan,nan,nan,nan,nan,nan,nan,nan,nan,nan,nan,129.52342536323704,283.8414323008619,nan,284.19182703085244,nan,nan,nan,nan
1,99,1,1,1.0,1.0,0.4778957727830857,0.0,2,5,4,0,7,3,nan,nan,nan,nan,nan,nan,nan,nan,nan,nan,nan,nan,0.0,nan,nan,nan,nan,nan,nan,nan,nan,nan,nan,nan,nan,nan,nan,nan,nan,nan,nan,129.52342536323704,284.8499267445877,nan,285.3278225173708,nan,nan,nan,nan
1,100,1,1,1.0,1.0,0.453388326568529,0.0,0,8,2,3,1,7,nan,nan,nan,nan,nan,nan,nan,nan,nan,nan,nan,nan,0.0,nan,nan,nan,nan,nan,nan,nan,nan,nan,nan,nan,nan,nan,nan,nan,nan,nan,nan,129.52342536323704,285.8583684451878,nan,286.31175677175634,nan,nan,nan,nan
1,101,1,1,1.0,1.0,0.4049484732095152,0.0,3,0,5,2,6,8,nan,nan,nan,nan,nan,nan,nan,nan,nan,nan,nan,nan,0.0,nan,nan,nan,nan,nan,nan,nan,nan,nan,nan,nan,nan,nan,nan,nan,nan,nan,nan,129.52342536323704,286.86681185662746,nan,287.271760329837,nan,nan,nan,nan
1,102,1,1,1.0,1.0,0.3484329825732857,0.0,6,4,3,8,2,7,nan,nan,nan,nan,nan,nan,nan,nan,nan,nan,nan,nan,0.0,nan,nan,nan,nan,nan,nan,nan,nan,nan,nan,nan,nan,nan,nan,nan,nan,nan,nan,129.52342536323704,287.8752840626985,nan,288.22371704527177,nan,nan,nan,nan
1,103,1,1,1.0,1.0,0.31594540644437075,0.0,0,3,6,1,8,5,nan,nan,nan,nan,nan,nan,nan,nan,nan,nan,nan,nan,0.0,nan,nan,nan,nan,nan,nan,nan,nan,nan,nan,nan,nan,nan,nan,nan,nan,nan,nan,129.52342536323704,288.8837411587592,nan,289.1996865652036,nan,nan,nan,nan
1,104,1,1,1.0,1.0,0.31547300168313086,0.0,5,7,3,4,1,2,nan,nan,nan,nan,nan,nan,nan,nan,nan,nan,nan,nan,0.0,nan,nan,nan,nan,nan,nan,nan,nan,nan,nan,nan,nan,nan,nan,nan,nan,nan,nan,129.52342536323704,289.89219568902627,nan,290.2076686907094,nan,nan,nan,nan
1,105,1,1,1.0,1.0,0.33099563885480165,0.0,0,4,5,3,6,1,nan,nan,nan,nan,nan,nan,nan,nan,nan,nan,nan,nan,0.0,nan,nan,nan,nan,nan,nan,nan,nan,nan,nan,nan,nan,nan,nan,nan,nan,nan,nan,129.52342536323704,290.9006516444497,nan,291.2316472833045,nan,nan,nan,nan
1,106,1,1,1.0,1.0,0.37849866575561464,0.0,3,7,0,4,1,2,nan,nan,nan,nan,nan,nan,nan,nan,nan,nan,nan,nan,0.0,nan,nan,nan,nan,nan,nan,nan,nan,nan,nan,nan,nan,nan,nan,nan,nan,nan,nan,129.52342536323704,291.90911016613245,nan,292.28760883188806,nan,nan,nan,nan
1,107,1,1,1.0,1.0,0.3140409633051604,0.0,6,8,1,2,4,5,nan,nan,nan,nan,nan,nan,nan,nan,nan,nan,nan,nan,0.0,nan,nan,nan,nan,nan,nan,nan,nan,nan,nan,nan,nan,nan,nan,nan,nan,nan,nan,129.52342536323704,292.9175612749532,nan,293.23160223825835,nan,nan,nan,nan
1,108,1,1,1.0,1.0,0.33754601096734405,0.0,2,5,4,8,1,6,nan,nan,nan,nan,nan,nan,nan,nan,nan,nan,nan,nan,0.0,nan,nan,nan,nan,nan,nan,nan,nan,nan,nan,nan,nan,nan,nan,nan,nan,nan,nan,129.52342536323704,293.9260217922274,nan,294.26356780319475,nan,nan,nan,nan
1,109,1,1,1.0,1.0,0.32906981371343136,0.0,5,1,8,4,0,7,nan,nan,nan,nan,nan,nan,nan,nan,nan,nan,nan,nan,0.0,nan,nan,nan,nan,nan,nan,nan,nan,nan,nan,nan,nan,nan,nan,nan,nan,nan,nan,129.52342536323704,294.93447831785306,nan,295.2635481315665,nan,nan,nan,nan
1,110,1,1,1.0,1.0,0.320599032798782,0.0,8,4,5,2,6,3,nan,nan,nan,nan,nan,nan,nan,nan,nan,nan,nan,nan,0.0,nan,nan,nan,nan,nan,nan,nan,nan,nan,nan,nan,nan,nan,nan,nan,nan,nan,nan,129.52342536323704,295.94293113751337,nan,296.26353017031215,nan,nan,nan,nan
1,111,1,1,1.0,1.0,0.2961152496282011,0.0,5,6,8,0,4,2,nan,nan,nan,nan,nan,nan,nan,nan,nan,nan,nan,nan,0.0,nan,nan,nan,nan,nan,nan,nan,nan,nan,nan,nan,nan,nan,nan,nan,nan,nan,nan,129.52342536323704,296.9513919397723,nan,297.2475071894005,nan,nan,nan,nan
1,112,0,0,1.0,0.0,0.25561988912522793,0.0,8,2,3,5,7,0,nan,nan,nan,nan,nan,nan,nan,nan,nan,nan,nan,nan,0.0,nan,nan,nan,nan,nan,nan,nan,nan,nan,nan,nan,nan,nan,nan,nan,nan,nan,nan,129.52342536323704,297.95985074643977,nan,298.215470635565,nan,nan,nan,nan
1,113,1,1,1.0,1.0,0.74313994217664,0.0,3,8,1,0,6,2,nan,nan,nan,nan,nan,nan,nan,nan,nan,nan,nan,nan,0.0,nan,nan,nan,nan,nan,nan,nan,nan,nan,nan,nan,nan,nan,nan,nan,nan,nan,nan,129.52342536323704,298.9683004298713,nan,299.71144037204795,nan,nan,nan,nan
1,114,1,1,nan,nan,nan,0.0,1,2,3,8,7,6,nan,nan,nan,nan,nan,nan,nan,nan,nan,nan,nan,nan,0.0,nan,nan,nan,nan,nan,nan,nan,nan,nan,nan,nan,nan,nan,nan,nan,nan,nan,nan,129.52342536323704,299.9767749167513,nan,nan,nan,nan,nan,nan
1,115,1,1,nan,nan,nan,0.0,4,7,0,2,8,5,nan,nan,nan,nan,nan,nan,nan,nan,nan,nan,nan,nan,0.0,nan,nan,nan,nan,nan,nan,nan,nan,nan,nan,nan,nan,nan,nan,nan,nan,nan,nan,129.52342536323704,300.985213766573,nan,nan,nan,nan,nan,nan
1,116,0,0,0.0,1.0,0.6457256798166782,0.0,0,8,6,3,1,7,nan,nan,nan,nan,nan,nan,nan,nan,nan,nan,nan,nan,0.0,nan,nan,nan,nan,nan,nan,nan,nan,nan,nan,nan,nan,nan,nan,nan,nan,nan,nan,129.52342536323704,301.99367114761844,nan,302.6393968274351,nan,nan,nan,nan
1,117,1,1,nan,nan,nan,0.0,8,2,3,7,4,0,nan,nan,nan,nan,nan,nan,nan,nan,nan,nan,nan,nan,0.0,nan,nan,nan,nan,nan,nan,nan,nan,nan,nan,nan,nan,nan,nan,nan,nan,nan,nan,129.52342536323704,303.0021536173299,nan,nan,nan,nan,nan,nan
1,118,1,1,1.0,1.0,0.7487070171628147,0.0,5,8,1,6,3,4,nan,nan,nan,nan,nan,nan,nan,nan,nan,nan,nan,nan,0.0,nan,nan,nan,nan,nan,nan,nan,nan,nan,nan,nan,nan,nan,nan,nan,nan,nan,nan,129.52342536323704,304.01062496798113,nan,304.75933198514394,nan,nan,nan,nan
1,119,1,1,1.0,1.0,0.5002575844991952,0.0,7,5,0,8,1,6,nan,nan,nan,nan,nan,nan,nan,nan,nan,nan,nan,nan,0.0,nan,nan,nan,nan,nan,nan,nan,nan,nan,nan,nan,nan,nan,nan,nan,nan,nan,nan,129.52342536323704,305.01908662565984,nan,305.51934421015903,nan,nan,nan,nan
1,120,0,0,0.0,1.0,0.619771369965747,1.0,0,8,4,7,3,2,1.0,1.0,1.0,1.0,1.0,1.0,1.0,1.0,0.0,1.0,1.0,1.0,5.0,0.0,8.0,6.0,7.0,3.0,2.0,4.0,5.0,6.0,1.0,2.0,3.0,9.622480069519952,10.566151887411252,12.318213632330298,6.13658392499201,7.19049249519594,8.286726744147018,129.52342536323704,306.02753973030485,306.83594533777796,306.6473111002706,320.2208680782933,321.2313322520349,307.8610603243578,320.2125563812442
1,121,1,1,1.0,1.0,0.4652081329841167,0.0,2,7,0,6,1,4,nan,nan,nan,nan,nan,nan,nan,nan,nan,nan,nan,nan,0.0,nan,nan,nan,nan,nan,nan,nan,nan,nan,nan,nan,nan,nan,nan,nan,nan,nan,nan,129.52342536323704,321.4377422428224,nan,321.90295037580654,nan,nan,nan,nan
1,122,1,1,1.0,1.0,0.37670712103135884,0.0,8,1,6,5,4,2,nan,nan,nan,nan,nan,nan,nan,nan,nan,nan,nan,nan,0.0,nan,nan,nan,nan,nan,nan,nan,nan,nan,nan,nan,nan,nan,nan,nan,nan,nan,nan,129.52342536323704,322.4461964876391,nan,322.82290360867046,nan,nan,nan,nan
1,123,1,1,1.0,1.0,0.23225567885674536,0.0,6,3,2,7,5,0,nan,nan,nan,nan,nan,nan,nan,nan,nan,nan,nan,nan,0.0,nan,nan,nan,nan,nan,nan,nan,nan,nan,nan,nan,nan,nan,nan,nan,nan,nan,nan,129.52342536323704,323.454640469281,nan,323.68689614813775,nan,nan,nan,nan
1,124,1,1,1.0,1.0,0.22380342963151634,0.0,3,0,6,4,2,7,nan,nan,nan,nan,nan,nan,nan,nan,nan,nan,nan,nan,0.0,nan,nan,nan,nan,nan,nan,nan,nan,nan,nan,nan,nan,nan,nan,nan,nan,nan,nan,129.52342536323704,324.4631012715399,nan,324.68690470117144,nan,nan,nan,nan
1,125,1,1,1.0,1.0,0.0872916339430958,0.0,8,3,4,0,7,1,nan,nan,nan,nan,nan,nan,nan,nan,nan,nan,nan,nan,0.0,nan,nan,nan,nan,nan,nan,nan,nan,nan,nan,nan,nan,nan,nan,nan,nan,nan,nan,129.52342536323704,325.47156463959254,nan,325.55885627353564,nan,nan,nan,nan
1,126,1,1,1.0,1.0,0.11084144189953804,0.0,1,2,7,4,6,3,nan,nan,nan,nan,nan,nan,nan,nan,nan,nan,nan,nan,0.0,nan,nan,nan,nan,nan,nan,nan,nan,nan,nan,nan,nan,nan,nan,nan,nan,nan,nan,129.52342536323704,326.4800117572304,nan,326.5908531991299,nan,nan,nan,nan
1,127,1,1,1.0,1.0,0.27831155713647604,0.0,0,3,1,7,2,4,nan,nan,nan,nan,nan,nan,nan,nan,nan,nan,nan,nan,0.0,nan,nan,nan,nan,nan,nan,nan,nan,nan,nan,nan,nan,nan,nan,nan,nan,nan,nan,129.52342536323704,327.48850334994495,nan,327.7668149070814,nan,nan,nan,nan
1,128,1,1,1.0,1.0,0.24583624000661075,0.0,1,0,5,6,4,3,nan,nan,nan,nan,nan,nan,nan,nan,nan,nan,nan,nan,0.0,nan,nan,nan,nan,nan,nan,nan,nan,nan,nan,nan,nan,nan,nan,nan,nan,nan,nan,129.52342536323704,328.4969604460057,nan,328.7427966860123,nan,nan,nan,nan
1,129,1,1,1.0,1.0,0.2613511795643717,0.0,8,2,3,0,7,4,nan,nan,nan,nan,nan,nan,nan,nan,nan,nan,nan,nan,0.0,nan,nan,nan,nan,nan,nan,nan,nan,nan,nan,nan,nan,nan,nan,nan,nan,nan,nan,129.52342536323704,329.5053970150184,nan,329.76674819458276,nan,nan,nan,nan
1,130,1,1,1.0,1.0,0.22090086434036493,0.0,1,7,5,4,6,3,nan,nan,nan,nan,nan,nan,nan,nan,nan,nan,nan,nan,0.0,nan,nan,nan,nan,nan,nan,nan,nan,nan,nan,nan,nan,nan,nan,nan,nan,nan,nan,129.52342536323704,330.51384071144275,nan,330.7347415757831,nan,nan,nan,nan
1,131,1,1,1.0,1.0,0.22841799794696271,0.0,5,0,2,3,7,4,nan,nan,nan,nan,nan,nan,nan,nan,nan,nan,nan,nan,0.0,nan,nan,nan,nan,nan,nan,nan,nan,nan,nan,nan,nan,nan,nan,nan,nan,nan,nan,129.52342536323704,331.5222906800918,nan,331.7507086780388,nan,nan,nan,nan
1,132,1,1,1.0,1.0,0.22794388281181455,0.0,1,7,5,2,0,3,nan,nan,nan,nan,nan,nan,nan,nan,nan,nan,nan,nan,0.0,nan,nan,nan,nan,nan,nan,nan,nan,nan,nan,nan,nan,nan,nan,nan,nan,nan,nan,129.52342536323704,332.53075632895343,nan,332.75870021176524,nan,nan,nan,nan
1,133,0,0,1.0,0.0,0.21948992274701595,1.0,2,1,6,5,4,8,1.0,1.0,1.0,1.0,1.0,1.0,1.0,0.0,0.0,1.0,1.0,1.0,4.0,2.0,0.0,1.0,5.0,4.0,8.0,4.0,5.0,6.0,1.0,2.0,3.0,6.095320800319314,7.006345958216116,7.670403898693621,3.446261204779148,4.23161250166595,5.174416486406699,129.52342536323704,333.5391971745994,334.34760078648105,333.7586870973464,343.0737056557555,344.08483239333145,335.3644237476401,343.0653343736194
1,134,1,1,1.0,1.0,0.5639301319606602,0.0,1,6,7,0,5,2,nan,nan,nan,nan,nan,nan,nan,nan,nan,nan,nan,nan,0.0,nan,nan,nan,nan,nan,nan,nan,nan,nan,nan,nan,nan,nan,nan,nan,nan,nan,nan,129.52342536323704,344.29050569515675,nan,344.8544358271174,nan,nan,nan,nan
1,135,1,1,1.0,1.0,0.31538918358273804,0.0,7,2,6,8,3,0,nan,nan,nan,nan,nan,nan,nan,nan,nan,nan,nan,nan,0.0,nan,nan,nan,nan,nan,nan,nan,nan,nan,nan,nan,nan,nan,nan,nan,nan,nan,nan,129.52342536323704,345.29899500706233,nan,345.61438419064507,nan,nan,nan,nan
1,136,1,1,1.0,1.0,0.22691782121546566,0.0,0,1,2,7,4,8,nan,nan,nan,nan,nan,nan,nan,nan,nan,nan,nan,nan,0.0,nan,nan,nan,nan,nan,nan,nan,nan,nan,nan,nan,nan,nan,nan,nan,nan,nan,nan,129.52342536323704,346.30744326510467,nan,346.53436108632013,nan,nan,nan,nan
1,137,1,1,1.0,1.0,0.22647706232964993,0.0,2,8,7,3,5,1,nan,nan,nan,nan,nan,nan,nan,nan,nan,nan,nan,nan,0.0,nan,nan,nan,nan,nan,nan,nan,nan,nan,nan,nan,nan,nan,nan,nan,nan,nan,nan,129.52342536323704,347.3158801193349,nan,347.54235718166456,nan,nan,nan,nan
1,138,1,1,1.0,1.0,0.17000747239217162,0.0,4,1,3,2,0,5,nan,nan,nan,nan,nan,nan,nan,nan,nan,nan,nan,nan,0.0,nan,nan,nan,nan,nan,nan,nan,nan,nan,nan,nan,nan,nan,nan,nan,nan,nan,nan,129.52342536323704,348.3243343643844,nan,348.4943418367766,nan,nan,nan,nan
1,139,1,1,1.0,1.0,0.04950383282266557,0.0,5,8,7,0,2,6,nan,nan,nan,nan,nan,nan,nan,nan,nan,nan,nan,nan,0.0,nan,nan,nan,nan,nan,nan,nan,nan,nan,nan,nan,nan,nan,nan,nan,nan,nan,nan,129.52342536323704,349.3328111318406,nan,349.38231496466324,nan,nan,nan,nan
1,140,1,1,1.0,1.0,0.3690500049851835,0.0,1,7,6,3,8,4,nan,nan,nan,nan,nan,nan,nan,nan,nan,nan,nan,nan,0.0,nan,nan,nan,nan,nan,nan,nan,nan,nan,nan,nan,nan,nan,nan,nan,nan,nan,nan,129.52342536323704,350.34124941169284,nan,350.710299416678,nan,nan,nan,nan
1,141,1,1,1.0,1.0,0.27257399447262287,0.0,2,6,4,1,5,0,nan,nan,nan,nan,nan,nan,nan,nan,nan,nan,nan,nan,0.0,nan,nan,nan,nan,nan,nan,nan,nan,nan,nan,nan,nan,nan,nan,nan,nan,nan,nan,129.52342536323704,351.3497090735473,nan,351.6222830680199,nan,nan,nan,nan
1,142,1,1,1.0,1.0,0.28004722320474684,0.0,6,0,3,8,7,4,nan,nan,nan,nan,nan,nan,nan,nan,nan,nan,nan,nan,0.0,nan,nan,nan,nan,nan,nan,nan,nan,nan,nan,nan,nan,nan,nan,nan,nan,nan,nan,129.52342536323704,352.3581841306295,nan,352.63823135383427,nan,nan,nan,nan
1,143,1,1,1.0,1.0,0.3275625095702708,0.0,4,3,7,5,8,6,nan,nan,nan,nan,nan,nan,nan,nan,nan,nan,nan,nan,0.0,nan,nan,nan,nan,nan,nan,nan,nan,nan,nan,nan,nan,nan,nan,nan,nan,nan,nan,129.52342536323704,353.36664778366685,nan,353.6942102932371,nan,nan,nan,nan
1,144,1,1,1.0,1.0,0.2231223345734179,0.0,6,7,0,3,1,8,nan,nan,nan,nan,nan,nan,nan,nan,nan,nan,nan,nan,0.0,nan,nan,nan,nan,nan,nan,nan,nan,nan,nan,nan,nan,nan,nan,nan,nan,nan,nan,129.52342536323704,354.3750780806877,nan,354.5982004152611,nan,nan,nan,nan
1,145,1,1,1.0,1.0,0.18261870625428855,0.0,5,2,4,1,8,7,nan,nan,nan,nan,nan,nan,nan,nan,nan,nan,nan,nan,0.0,nan,nan,nan,nan,nan,nan,nan,nan,nan,nan,nan,nan,nan,nan,nan,nan,nan,nan,129.52342536323704,355.3835602651816,nan,355.5661789714359,nan,nan,nan,nan
1,146,1,1,1.0,1.0,0.062150988727808,0.0,6,3,1,8,4,0,nan,nan,nan,nan,nan,nan,nan,nan,nan,nan,nan,nan,0.0,nan,nan,nan,nan,nan,nan,nan,nan,nan,nan,nan,nan,nan,nan,nan,nan,nan,nan,129.52342536323704,356.39199398318306,nan,356.45414497191086,nan,nan,nan,nan
1,147,1,1,nan,nan,nan,0.0,4,6,8,2,3,5,nan,nan,nan,nan,nan,nan,nan,nan,nan,nan,nan,nan,0.0,nan,nan,nan,nan,nan,nan,nan,nan,nan,nan,nan,nan,nan,nan,nan,nan,nan,nan,129.52342536323704,357.40047160629183,nan,nan,nan,nan,nan,nan
1,148,1,1,nan,nan,nan,0.0,3,2,0,7,4,1,nan,nan,nan,nan,nan,nan,nan,nan,nan,nan,nan,nan,0.0,nan,nan,nan,nan,nan,nan,nan,nan,nan,nan,nan,nan,nan,nan,nan,nan,nan,nan,129.52342536323704,358.40894124656916,nan,nan,nan,nan,nan,nan
1,149,1,1,1.0,1.0,0.03673094930127263,0.0,7,0,6,5,3,2,nan,nan,nan,nan,nan,nan,nan,nan,nan,nan,nan,nan,0.0,nan,nan,nan,nan,nan,nan,nan,nan,nan,nan,nan,nan,nan,nan,nan,nan,nan,nan,129.52342536323704,359.41738380258903,nan,359.4541147518903,nan,nan,nan,nan
1,150,0,0,0.0,1.0,0.6282099348027259,1.0,3,2,5,8,4,7,1.0,1.0,1.0,1.0,1.0,1.0,0.0,0.0,0.0,0.0,0.0,0.0,0.0,1.0,1.0,0.0,1.0,5.0,5.0,6.0,2.0,1.0,3.0,4.0,5.0,6.134531516814604,3.584754989715293,3.113258772995323,4.568053764523938,5.128205800661817,5.630831965012476,129.52342536323704,360.42581809079275,361.234254773939,361.05402802559547,368.43511051894166,369.43428488005884,362.2593888619449,368.42677743989043
1,151,1,1,1.0,1.0,0.2902237349189818,0.0,2,1,7,3,0,4,nan,nan,nan,nan,nan,nan,nan,nan,nan,nan,nan,nan,0.0,nan,nan,nan,nan,nan,nan,nan,nan,nan,nan,nan,nan,nan,nan,nan,nan,nan,nan,129.52342536323704,369.6436379197985,nan,369.9338616547175,nan,nan,nan,nan
1,152,1,1,1.0,1.0,0.2017557939980179,0.0,4,3,5,2,7,1,nan,nan,nan,nan,nan,nan,nan,nan,nan,nan,nan,nan,0.0,nan,nan,nan,nan,nan,nan,nan,nan,nan,nan,nan,nan,nan,nan,nan,nan,nan,nan,129.52342536323704,370.6520733484067,nan,370.8538291424047,nan,nan,nan,nan
1,153,1,1,1.0,1.0,0.16923514637164772,0.0,0,8,4,3,5,7,nan,nan,nan,nan,nan,nan,nan,nan,nan,nan,nan,nan,0.0,nan,nan,nan,nan,nan,nan,nan,nan,nan,nan,nan,nan,nan,nan,nan,nan,nan,nan,129.52342536323704,371.66055952431634,nan,371.829794670688,nan,nan,nan,nan
1,154,1,1,1.0,1.0,0.01675482327118516,0.0,5,6,7,8,3,4,nan,nan,nan,nan,nan,nan,nan,nan,nan,nan,nan,nan,0.0,nan,nan,nan,nan,nan,nan,nan,nan,nan,nan,nan,nan,nan,nan,nan,nan,nan,nan,129.52342536323704,372.669016049942,nan,372.6857708732132,nan,nan,nan,nan
1,155,1,1,nan,nan,nan,0.0,2,5,4,3,0,1,nan,nan,nan,nan,nan,nan,nan,nan,nan,nan,nan,nan,0.0,nan,nan,nan,nan,nan,nan,nan,nan,nan,nan,nan,nan,nan,nan,nan,nan,nan,nan,129.52342536323704,373.67744150036015,nan,nan,nan,nan,nan,nan
1,156,1,1,1.0,1.0,0.6477780879940838,0.0,0,2,5,6,1,4,nan,nan,nan,nan,nan,nan,nan,nan,nan,nan,nan,nan,0.0,nan,nan,nan,nan,nan,nan,nan,nan,nan,nan,nan,nan,nan,nan,nan,nan,nan,nan,129.52342536323704,374.68591484683566,nan,375.33369293482974,nan,nan,nan,nan
1,157,1,1,1.0,1.0,0.3593359193764627,0.0,5,7,6,0,3,2,nan,nan,nan,nan,nan,nan,nan,nan,nan,nan,nan,nan,0.0,nan,nan,nan,nan,nan,nan,nan,nan,nan,nan,nan,nan,nan,nan,nan,nan,nan,nan,129.52342536323704,375.6943593986798,nan,376.05369531805627,nan,nan,nan,nan
1,158,1,1,1.0,1.0,0.23884425382129848,0.0,1,8,4,5,0,7,nan,nan,nan,nan,nan,nan,nan,nan,nan,nan,nan,nan,0.0,nan,nan,nan,nan,nan,nan,nan,nan,nan,nan,nan,nan,nan,nan,nan,nan,nan,nan,129.52342536323704,376.70283445576206,nan,376.94167870958336,nan,nan,nan,nan
1,159,0,0,1.0,0.0,0.0863553776871413,0.0,2,7,5,4,8,1,nan,nan,nan,nan,nan,nan,nan,nan,nan,nan,nan,nan,0.0,nan,nan,nan,nan,nan,nan,nan,nan,nan,nan,nan,nan,nan,nan,nan,nan,nan,nan,129.52342536323704,377.71130780223757,nan,377.7976631799247,nan,nan,nan,nan
1,160,1,1,1.0,1.0,0.5018589703831822,0.0,8,4,7,2,3,0,nan,nan,nan,nan,nan,nan,nan,nan,nan,nan,nan,nan,0.0,nan,nan,nan,nan,nan,nan,nan,nan,nan,nan,nan,nan,nan,nan,nan,nan,nan,nan,129.52342536323704,378.71974807744846,nan,379.22160704783164,nan,nan,nan,nan
1,161,0,0,0.0,1.0,0.7014226589817554,1.0,3,6,4,7,8,2,1.0,1.0,1.0,1.0,1.0,1.0,0.0,0.0,0.0,0.0,1.0,0.0,1.0,4.0,1.0,1.0,2.0,8.0,3.0,4.0,5.0,6.0,1.0,2.0,3.0,7.937508606351912,8.664713377133012,9.152180117089301,5.369471377460286,6.2405077908188105,7.304931852035224,129.52342536323704,379.72818464646116,380.5366221850272,380.4296073054429,390.7461973144673,391.75736681651324,381.55341977253556,390.7378625248093
1,162,1,1,1.0,1.0,0.258230515755713,0.0,6,4,7,1,2,3,nan,nan,nan,nan,nan,nan,nan,nan,nan,nan,nan,nan,0.0,nan,nan,nan,nan,nan,nan,nan,nan,nan,nan,nan,nan,nan,nan,nan,nan,nan,nan,129.52342536323704,391.963103124639,nan,392.22133364039473,nan,nan,nan,nan
1,163,1,1,1.0,1.0,0.24182065902277827,0.0,3,6,8,2,7,5,nan,nan,nan,nan,nan,nan,nan,nan,nan,nan,nan,nan,0.0,nan,nan,nan,nan,nan,nan,nan,nan,nan,nan,nan,nan,nan,nan,nan,nan,nan,nan,129.52342536323704,392.97149151260965,nan,393.2133121716324,nan,nan,nan,nan
1,164,1,1,1.0,1.0,0.3612791358027607,0.0,6,2,7,5,4,3,nan,nan,nan,nan,nan,nan,nan,nan,nan,nan,nan,nan,0.0,nan,nan,nan,nan,nan,nan,nan,nan,nan,nan,nan,nan,nan,nan,nan,nan,nan,nan,129.52342536323704,393.97994632762857,nan,394.34122546343133,nan,nan,nan,nan
1,165,1,1,1.0,1.0,0.4968070643953979,0.0,3,5,8,4,2,1,nan,nan,nan,nan,nan,nan,nan,nan,nan,nan,nan,nan,0.0,nan,nan,nan,nan,nan,nan,nan,nan,nan,nan,nan,nan,nan,nan,nan,nan,nan,nan,129.52342536323704,394.988408270292,nan,395.4852153346874,nan,nan,nan,nan
1,166,1,1,1.0,1.0,0.28036624612286687,0.0,4,2,1,7,0,6,nan,nan,nan,nan,nan,nan,nan,nan,nan,nan,nan,nan,0.0,nan,nan,nan,nan,nan,nan,nan,nan,nan,nan,nan,nan,nan,nan,nan,nan,nan,nan,129.52342536323704,395.99684683512896,nan,396.27721308125183,nan,nan,nan,nan
1,167,1,1,1.0,1.0,0.2718621091917157,0.0,0,1,3,8,5,2,nan,nan,nan,nan,nan,nan,nan,nan,nan,nan,nan,nan,0.0,nan,nan,nan,nan,nan,nan,nan,nan,nan,nan,nan,nan,nan,nan,nan,nan,nan,nan,129.52342536323704,397.0053221771959,nan,397.27718428638764,nan,nan,nan,nan
1,168,1,1,1.0,1.0,0.4473790673073381,0.0,6,7,1,5,3,4,nan,nan,nan,nan,nan,nan,nan,nan,nan,nan,nan,nan,0.0,nan,nan,nan,nan,nan,nan,nan,nan,nan,nan,nan,nan,nan,nan,nan,nan,nan,nan,129.52342536323704,398.0137835496571,nan,398.46116261696443,nan,nan,nan,nan
1,169,1,1,1.0,1.0,0.31890499079599977,0.0,3,1,5,6,2,0,nan,nan,nan,nan,nan,nan,nan,nan,nan,nan,nan,nan,0.0,nan,nan,nan,nan,nan,nan,nan,nan,nan,nan,nan,nan,nan,nan,nan,nan,nan,nan,129.52342536323704,399.0222309525125,nan,399.3411359433085,nan,nan,nan,nan
1,170,1,1,1.0,1.0,0.30244267638772726,0.0,1,8,2,7,6,4,nan,nan,nan,nan,nan,nan,nan,nan,nan,nan,nan,nan,0.0,nan,nan,nan,nan,nan,nan,nan,nan,nan,nan,nan,nan,nan,nan,nan,nan,nan,nan,129.52342536323704,400.03069489076734,nan,400.33313756715506,nan,nan,nan,nan
1,171,1,1,1.0,1.0,0.23793821781873703,0.0,2,0,6,3,4,5,nan,nan,nan,nan,nan,nan,nan,nan,nan,nan,nan,nan,0.0,nan,nan,nan,nan,nan,nan,nan,nan,nan,nan,nan,nan,nan,nan,nan,nan,nan,nan,129.52342536323704,401.0391494210344,nan,401.2770876388531,nan,nan,nan,nan
1,172,1,1,1.0,1.0,0.3414871818386018,0.0,1,2,7,8,3,4,nan,nan,nan,nan,nan,nan,nan,nan,nan,nan,nan,nan,0.0,nan,nan,nan,nan,nan,nan,nan,nan,nan,nan,nan,nan,nan,nan,nan,nan,nan,nan,129.52342536323704,402.0476073722821,nan,402.3890945541207,nan,nan,nan,nan
1,173,1,1,1.0,1.0,0.3810154958628118,0.0,8,1,5,2,7,3,nan,nan,nan,nan,nan,nan,nan,nan,nan,nan,nan,nan,0.0,nan,nan,nan,nan,nan,nan,nan,nan,nan,nan,nan,nan,nan,nan,nan,nan,nan,nan,129.52342536323704,403.0560670341365,nan,403.4370825299993,nan,nan,nan,nan
1,174,0,0,0.0,1.0,0.7885318312328309,1.0,1,5,2,0,8,6,1.0,1.0,1.0,1.0,1.0,1.0,1.0,1.0,1.0,1.0,1.0,1.0,6.0,1.0,5.0,2.0,0.0,8.0,6.0,4.0,5.0,6.0,1.0,2.0,3.0,6.567538880510256,7.607587780337781,8.215565572492778,3.7143078702501953,4.847210632171482,5.711834660032764,129.52342536323704,404.06450445833616,404.87294114148244,404.853036289569,414.1407098383643,415.14124268339947,405.8897361634299,414.13239842653275
1,175,1,1,1.0,1.0,0.5035302047617733,0.0,0,6,8,5,1,4,nan,nan,nan,nan,nan,nan,nan,nan,nan,nan,nan,nan,0.0,nan,nan,nan,nan,nan,nan,nan,nan,nan,nan,nan,nan,nan,nan,nan,nan,nan,nan,129.52342536323704,415.3492363838013,nan,415.8527665885631,nan,nan,nan,nan
1,176,1,1,1.0,1.0,0.2790570838842541,0.0,1,2,0,3,5,8,nan,nan,nan,nan,nan,nan,nan,nan,nan,nan,nan,nan,0.0,nan,nan,nan,nan,nan,nan,nan,nan,nan,nan,nan,nan,nan,nan,nan,nan,nan,nan,129.52342536323704,416.3576929096598,nan,416.6367499935441,nan,nan,nan,nan
1,177,1,1,1.0,1.0,0.15856969472952187,0.0,2,4,3,7,8,0,nan,nan,nan,nan,nan,nan,nan,nan,nan,nan,nan,nan,0.0,nan,nan,nan,nan,nan,nan,nan,nan,nan,nan,nan,nan,nan,nan,nan,nan,nan,nan,129.52342536323704,417.3661494355183,nan,417.52471913024783,nan,nan,nan,nan
1,178,1,1,1.0,1.0,0.0060813885647803545,0.0,1,7,5,3,4,2,nan,nan,nan,nan,nan,nan,nan,nan,nan,nan,nan,nan,0.0,nan,nan,nan,nan,nan,nan,nan,nan,nan,nan,nan,nan,nan,nan,nan,nan,nan,nan,129.52342536323704,418.3746250628028,nan,418.3807064513676,nan,nan,nan,nan
1,179,1,1,1.0,1.0,0.7415867375675589,0.0,8,0,7,1,6,5,nan,nan,nan,nan,nan,nan,nan,nan,nan,nan,nan,nan,0.0,nan,nan,nan,nan,nan,nan,nan,nan,nan,nan,nan,nan,nan,nan,nan,nan,nan,nan,129.52342536323704,419.3830587808043,nan,420.12464551837184,nan,nan,nan,nan
1,180,1,1,1.0,1.0,0.4531254677567631,0.0,5,6,3,4,7,1,nan,nan,nan,nan,nan,nan,nan,nan,nan,nan,nan,nan,0.0,nan,nan,nan,nan,nan,nan,nan,nan,nan,nan,nan,nan,nan,nan,nan,nan,nan,nan,129.52342536323704,420.39152157865465,nan,420.8446470464114,nan,nan,nan,nan
1,181,1,1,1.0,1.0,0.23663447285071015,0.0,0,2,6,3,1,4,nan,nan,nan,nan,nan,nan,nan,nan,nan,nan,nan,nan,0.0,nan,nan,nan,nan,nan,nan,nan,nan,nan,nan,nan,nan,nan,nan,nan,nan,nan,nan,129.52342536323704,421.39998950832523,nan,421.63662398117594,nan,nan,nan,nan
1,182,1,1,nan,nan,nan,0.0,6,5,7,4,8,1,nan,nan,nan,nan,nan,nan,nan,nan,nan,nan,nan,nan,0.0,nan,nan,nan,nan,nan,nan,nan,nan,nan,nan,nan,nan,nan,nan,nan,nan,nan,nan,129.52342536323704,422.4084736886434,nan,nan,nan,nan,nan,nan
1,183,1,1,1.0,1.0,0.707666267408058,0.0,1,3,0,6,5,2,nan,nan,nan,nan,nan,nan,nan,nan,nan,nan,nan,nan,0.0,nan,nan,nan,nan,nan,nan,nan,nan,nan,nan,nan,nan,nan,nan,nan,nan,nan,nan,129.52342536323704,423.4168709143996,nan,424.1245371818077,nan,nan,nan,nan
1,184,1,1,1.0,1.0,0.41921412060037255,0.0,4,1,2,5,3,6,nan,nan,nan,nan,nan,nan,nan,nan,nan,nan,nan,nan,0.0,nan,nan,nan,nan,nan,nan,nan,nan,nan,nan,nan,nan,nan,nan,nan,nan,nan,nan,129.52342536323704,424.4253459714819,nan,424.84456009208225,nan,nan,nan,nan
1,185,1,1,1.0,1.0,0.3227295575197786,0.0,0,5,4,2,7,8,nan,nan,nan,nan,nan,nan,nan,nan,nan,nan,nan,nan,0.0,nan,nan,nan,nan,nan,nan,nan,nan,nan,nan,nan,nan,nan,nan,nan,nan,nan,nan,129.52342536323704,425.433803637512,nan,425.7565331950318,nan,nan,nan,nan
1,186,1,1,1.0,1.0,0.3142356837633997,0.0,8,2,0,1,6,3,nan,nan,nan,nan,nan,nan,nan,nan,nan,nan,nan,nan,0.0,nan,nan,nan,nan,nan,nan,nan,nan,nan,nan,nan,nan,nan,nan,nan,nan,nan,nan,129.52342536323704,426.44226386980154,nan,426.75649955356494,nan,nan,nan,nan
1,187,1,1,1.0,1.0,0.19374915002845228,0.0,3,5,7,2,8,1,nan,nan,nan,nan,nan,nan,nan,nan,nan,nan,nan,nan,0.0,nan,nan,nan,nan,nan,nan,nan,nan,nan,nan,nan,nan,nan,nan,nan,nan,nan,nan,129.52342536323704,427.4507226762362,nan,427.64447182626463,nan,nan,nan,nan
1,188,1,1,1.0,1.0,0.06527421833015978,0.0,6,0,4,1,7,2,nan,nan,nan,nan,nan,nan,nan,nan,nan,nan,nan,nan,0.0,nan,nan,nan,nan,nan,nan,nan,nan,nan,nan,nan,nan,nan,nan,nan,nan,nan,nan,129.52342536323704,428.4591772065032,nan,428.5244514248334,nan,nan,nan,nan
1,189,1,1,nan,nan,nan,0.0,5,1,2,3,6,8,nan,nan,nan,nan,nan,nan,nan,nan,nan,nan,nan,nan,0.0,nan,nan,nan,nan,nan,nan,nan,nan,nan,nan,nan,nan,nan,nan,nan,nan,nan,nan,129.52342536323704,429.46762917074375,nan,nan,nan,nan,nan,nan
1,190,1,1,1.0,1.0,0.6723103374242783,0.0,6,3,1,8,7,0,nan,nan,nan,nan,nan,nan,nan,nan,nan,nan,nan,nan,0.0,nan,nan,nan,nan,nan,nan,nan,nan,nan,nan,nan,nan,nan,nan,nan,nan,nan,nan,129.52342536323704,430.4760817051865,nan,431.1483920426108,nan,nan,nan,nan
1,191,1,1,1.0,1.0,0.39183233375661075,0.0,1,0,6,5,3,2,nan,nan,nan,nan,nan,nan,nan,nan,nan,nan,nan,nan,0.0,nan,nan,nan,nan,nan,nan,nan,nan,nan,nan,nan,nan,nan,nan,nan,nan,nan,nan,129.52342536323704,431.4845484944526,nan,431.8763808282092,nan,nan,nan,nan
1,192,0,0,1.0,0.0,0.143373207654804,1.0,7,3,8,2,1,4,1.0,1.0,1.0,1.0,1.0,1.0,1.0,0.0,0.0,1.0,1.0,1.0,4.0,7.0,1.0,0.0,2.0,1.0,4.0,4.0,5.0,6.0,1.0,2.0,3.0,7.067040104884654,7.770827067317441,8.674298028927296,4.4191685053519905,5.060820444487035,6.211933731101453,129.52342536323704,432.4930061607156,433.3014171849936,432.6363793683704,443.0276038770098,444.03179792826995,434.3099053564947,443.0192784953397
1,193,1,1,1.0,1.0,0.2560201643500477,0.0,4,8,7,0,2,6,nan,nan,nan,nan,nan,nan,nan,nan,nan,nan,nan,nan,0.0,nan,nan,nan,nan,nan,nan,nan,nan,nan,nan,nan,nan,nan,nan,nan,nan,nan,nan,129.52342536323704,444.23612129921094,nan,444.492141463561,nan,nan,nan,nan
1,194,1,1,1.0,1.0,0.15150358364917338,0.0,0,7,6,1,5,3,nan,nan,nan,nan,nan,nan,nan,nan,nan,nan,nan,nan,0.0,nan,nan,nan,nan,nan,nan,nan,nan,nan,nan,nan,nan,nan,nan,nan,nan,nan,nan,129.52342536323704,445.24459093948826,nan,445.39609452313744,nan,nan,nan,nan
1,195,1,1,1.0,1.0,0.6149615105241537,0.0,8,1,0,3,4,7,nan,nan,nan,nan,nan,nan,nan,nan,nan,nan,nan,nan,0.0,nan,nan,nan,nan,nan,nan,nan,nan,nan,nan,nan,nan,nan,nan,nan,nan,nan,nan,129.52342536323704,446.25306000956334,nan,446.8680215200875,nan,nan,nan,nan
1,196,1,1,1.0,1.0,0.31852438719943166,0.0,4,5,7,8,0,2,nan,nan,nan,nan,nan,nan,nan,nan,nan,nan,nan,nan,0.0,nan,nan,nan,nan,nan,nan,nan,nan,nan,nan,nan,nan,nan,nan,nan,nan,nan,nan,129.52342536323704,447.26152081182227,nan,447.5800451990217,nan,nan,nan,nan
1,197,1,1,1.0,1.0,0.0460424788761884,0.0,5,6,3,0,2,4,nan,nan,nan,nan,nan,nan,nan,nan,nan,nan,nan,nan,0.0,nan,nan,nan,nan,nan,nan,nan,nan,nan,nan,nan,nan,nan,nan,nan,nan,nan,nan,129.52342536323704,448.2699770524632,nan,448.3160195313394,nan,nan,nan,nan
1,198,1,1,1.0,1.0,0.6535099486354738,0.0,6,0,5,3,4,2,nan,nan,nan,nan,nan,nan,nan,nan,nan,nan,nan,nan,0.0,nan,nan,nan,nan,nan,nan,nan,nan,nan,nan,nan,nan,nan,nan,nan,nan,nan,nan,129.52342536323704,449.278431012528,nan,449.9319409611635,nan,nan,nan,nan
1,199,0,0,nan,nan,nan,0.0,2,6,8,5,0,1,nan,nan,nan,nan,nan,nan,nan,nan,nan,nan,nan,nan,0.0,nan,nan,nan,nan,nan,nan,nan,nan,nan,nan,nan,nan,nan,nan,nan,nan,nan,nan,129.52342536323704,450.28689067438245,nan,nan,nan,nan,nan,nan
1,200,1,1,0.0,0.0,0.08462199242785573,0.0,6,8,4,7,1,5,nan,nan,nan,nan,nan,nan,nan,nan,nan,nan,nan,nan,0.0,nan,nan,nan,nan,nan,nan,nan,nan,nan,nan,nan,nan,nan,nan,nan,nan,nan,nan,129.52342536323704,451.2953480554279,nan,451.37997004785575,nan,nan,nan,nan
1,201,1,1,1.0,1.0,0.2601169978734106,0.0,3,2,7,6,4,1,nan,nan,nan,nan,nan,nan,nan,nan,nan,nan,nan,nan,0.0,nan,nan,nan,nan,nan,nan,nan,nan,nan,nan,nan,nan,nan,nan,nan,nan,nan,nan,129.52342536323704,452.3038000196684,nan,452.5639170175418,nan,nan,nan,nan
1,202,1,1,1.0,1.0,0.22764082555659115,0.0,6,0,8,4,2,7,nan,nan,nan,nan,nan,nan,nan,nan,nan,nan,nan,nan,0.0,nan,nan,nan,nan,nan,nan,nan,nan,nan,nan,nan,nan,nan,nan,nan,nan,nan,nan,129.52342536323704,453.31226196233183,nan,453.5399027878884,nan,nan,nan,nan
1,203,1,1,1.0,1.0,0.17116667376831174,0.0,3,6,1,5,8,0,nan,nan,nan,nan,nan,nan,nan,nan,nan,nan,nan,nan,0.0,nan,nan,nan,nan,nan,nan,nan,nan,nan,nan,nan,nan,nan,nan,nan,nan,nan,nan,129.52342536323704,454.32068570214324,nan,454.49185237591155,nan,nan,nan,nan
1,204,0,0,1.0,0.0,0.05872840783558786,1.0,5,8,6,4,7,1,1.0,1.0,1.0,1.0,1.0,1.0,0.0,0.0,0.0,1.0,1.0,1.0,3.0,2.0,1.0,4.0,4.0,7.0,1.0,4.0,5.0,6.0,1.0,2.0,3.0,5.3912658472545445,6.078173969639465,6.637911475729197,2.8323950339108706,3.808355145389214,4.653966957936063,129.52342536323704,455.3291379516013,456.13754156348296,455.3878663594369,463.82181995757855,464.82613431965,457.1460112037603,463.8134840275161
1,205,1,1,1.0,1.0,0.2853129515424371,0.0,7,6,1,3,8,5,nan,nan,nan,nan,nan,nan,nan,nan,nan,nan,nan,nan,0.0,nan,nan,nan,nan,nan,nan,nan,nan,nan,nan,nan,nan,nan,nan,nan,nan,nan,nan,129.52342536323704,465.0303359546233,nan,465.31564890616573,nan,nan,nan,nan
1,206,1,1,1.0,1.0,0.4447587472386658,0.0,6,4,0,7,5,8,nan,nan,nan,nan,nan,nan,nan,nan,nan,nan,nan,nan,0.0,nan,nan,nan,nan,nan,nan,nan,nan,nan,nan,nan,nan,nan,nan,nan,nan,nan,nan,129.52342536323704,466.03881471790373,nan,466.4835734651424,nan,nan,nan,nan
1,207,1,1,1.0,1.0,0.2683009714819491,0.0,8,5,3,0,7,2,nan,nan,nan,nan,nan,nan,nan,nan,nan,nan,nan,nan,0.0,nan,nan,nan,nan,nan,nan,nan,nan,nan,nan,nan,nan,nan,nan,nan,nan,nan,nan,129.52342536323704,467.0472800817806,nan,467.3155810532626,nan,nan,nan,nan
1,208,1,1,1.0,1.0,0.08383113518357277,0.0,5,1,6,2,4,8,nan,nan,nan,nan,nan,nan,nan,nan,nan,nan,nan,nan,0.0,nan,nan,nan,nan,nan,nan,nan,nan,nan,nan,nan,nan,nan,nan,nan,nan,nan,nan,129.52342536323704,468.0557337566279,nan,468.13956489181146,nan,nan,nan,nan
1,209,1,1,1.0,1.0,0.47529597976244986,0.0,6,5,2,8,1,7,nan,nan,nan,nan,nan,nan,nan,nan,nan,nan,nan,nan,0.0,nan,nan,nan,nan,nan,nan,nan,nan,nan,nan,nan,nan,nan,nan,nan,nan,nan,nan,129.52342536323704,469.0641828698572,nan,469.5394788496196,nan,nan,nan,nan
1,210,1,1,1.0,1.0,0.31485462794080377,0.0,7,2,5,1,3,8,nan,nan,nan,nan,nan,nan,nan,nan,nan,nan,nan,nan,0.0,nan,nan,nan,nan,nan,nan,nan,nan,nan,nan,nan,nan,nan,nan,nan,nan,nan,nan,129.52342536323704,470.07264794851653,nan,470.38750257645734,nan,nan,nan,nan
1,211,0,0,0.0,1.0,0.45034748944453895,1.0,8,1,3,7,6,5,1.0,1.0,1.0,1.0,1.0,1.0,1.0,1.0,1.0,0.0,1.0,1.0,5.0,8.0,1.0,3.0,0.0,6.0,5.0,4.0,5.0,6.0,1.0,2.0,3.0,7.901635512011126,8.932988689979538,9.813167855842039,3.8465526301879436,5.23791027860716,6.262503253761679,129.52342536323704,471.0811030489858,471.8894775810186,471.53145053843036,482.7574728722684,483.7641210325528,472.90631622239016,482.7491409336217
1,212,1,1,1.0,1.0,0.40490171732380986,0.0,5,2,4,1,0,7,nan,nan,nan,nan,nan,nan,nan,nan,nan,nan,nan,nan,0.0,nan,nan,nan,nan,nan,nan,nan,nan,nan,nan,nan,nan,nan,nan,nan,nan,nan,nan,129.52342536323704,483.9743210931774,nan,484.37922281050123,nan,nan,nan,nan
1,213,1,1,1.0,1.0,0.26040209410712123,0.0,2,5,6,7,1,3,nan,nan,nan,nan,nan,nan,nan,nan,nan,nan,nan,nan,0.0,nan,nan,nan,nan,nan,nan,nan,nan,nan,nan,nan,nan,nan,nan,nan,nan,nan,nan,129.52342536323704,484.9827659300063,nan,485.2431680241134,nan,nan,nan,nan
1,214,1,1,1.0,1.0,0.13988448469899595,0.0,1,8,4,3,7,2,nan,nan,nan,nan,nan,nan,nan,nan,nan,nan,nan,nan,0.0,nan,nan,nan,nan,nan,nan,nan,nan,nan,nan,nan,nan,nan,nan,nan,nan,nan,nan,129.52342536323704,485.99126008851454,nan,486.13114457321353,nan,nan,nan,nan
1,215,1,1,1.0,1.0,0.5873944109771401,0.0,0,3,8,1,2,5,nan,nan,nan,nan,nan,nan,nan,nan,nan,nan,nan,nan,0.0,nan,nan,nan,nan,nan,nan,nan,nan,nan,nan,nan,nan,nan,nan,nan,nan,nan,nan,129.52342536323704,486.9996795516927,nan,487.5870739626698,nan,nan,nan,nan
1,216,1,1,1.0,1.0,0.28296261793002486,0.0,8,7,1,2,0,6,nan,nan,nan,nan,nan,nan,nan,nan,nan,nan,nan,nan,0.0,nan,nan,nan,nan,nan,nan,nan,nan,nan,nan,nan,nan,nan,nan,nan,nan,nan,nan,129.52342536323704,488.0081389285624,nan,488.2911015464924,nan,nan,nan,nan
1,217,1,1,1.0,1.0,0.07446828833781183,0.0,6,1,5,8,3,2,nan,nan,nan,nan,nan,nan,nan,nan,nan,nan,nan,nan,0.0,nan,nan,nan,nan,nan,nan,nan,nan,nan,nan,nan,nan,nan,nan,nan,nan,nan,nan,129.52342536323704,489.0165920332074,nan,489.0910603215452,nan,nan,nan,nan
1,218,1,1,1.0,1.0,0.5059443998616189,0.0,2,6,7,0,5,3,nan,nan,nan,nan,nan,nan,nan,nan,nan,nan,nan,nan,0.0,nan,nan,nan,nan,nan,nan,nan,nan,nan,nan,nan,nan,nan,nan,nan,nan,nan,nan,129.52342536323704,490.025062243687,nan,490.5310066435486,nan,nan,nan,nan
1,219,1,1,1.0,1.0,0.25749496719799936,0.0,7,0,6,2,3,5,nan,nan,nan,nan,nan,nan,nan,nan,nan,nan,nan,nan,0.0,nan,nan,nan,nan,nan,nan,nan,nan,nan,nan,nan,nan,nan,nan,nan,nan,nan,nan,129.52342536323704,491.03354499838315,nan,491.29103996558115,nan,nan,nan,nan
1,220,1,1,1.0,1.0,0.03301585977897048,0.0,4,5,8,3,0,7,nan,nan,nan,nan,nan,nan,nan,nan,nan,nan,nan,nan,0.0,nan,nan,nan,nan,nan,nan,nan,nan,nan,nan,nan,nan,nan,nan,nan,nan,nan,nan,129.52342536323704,492.041967027355,nan,492.07498288713396,nan,nan,nan,nan
1,221,1,1,1.0,1.0,0.49652282311581075,0.0,0,2,5,6,1,3,nan,nan,nan,nan,nan,nan,nan,nan,nan,nan,nan,nan,0.0,nan,nan,nan,nan,nan,nan,nan,nan,nan,nan,nan,nan,nan,nan,nan,nan,nan,nan,129.52342536323704,493.0504226980265,nan,493.54694552114233,nan,nan,nan,nan
1,222,1,1,1.0,1.0,0.2160975623410195,0.0,5,6,4,1,3,0,nan,nan,nan,nan,nan,nan,nan,nan,nan,nan,nan,nan,0.0,nan,nan,nan,nan,nan,nan,nan,nan,nan,nan,nan,nan,nan,nan,nan,nan,nan,nan,129.52342536323704,494.058875517454,nan,494.274973079795,nan,nan,nan,nan
1,223,1,1,1.0,1.0,0.6235697076190263,0.0,1,4,7,5,0,2,nan,nan,nan,nan,nan,nan,nan,nan,nan,nan,nan,nan,0.0,nan,nan,nan,nan,nan,nan,nan,nan,nan,nan,nan,nan,nan,nan,nan,nan,nan,nan,129.52342536323704,495.06734943413176,nan,495.6909191417508,nan,nan,nan,nan
1,224,1,1,1.0,1.0,0.27914403821341693,0.0,8,2,3,4,5,6,nan,nan,nan,nan,nan,nan,nan,nan,nan,nan,nan,nan,0.0,nan,nan,nan,nan,nan,nan,nan,nan,nan,nan,nan,nan,nan,nan,nan,nan,nan,nan,129.52342536323704,496.07577659515664,nan,496.35492063337006,nan,nan,nan,nan
1,225,1,1,nan,nan,nan,0.0,1,0,5,8,7,4,nan,nan,nan,nan,nan,nan,nan,nan,nan,nan,nan,nan,0.0,nan,nan,nan,nan,nan,nan,nan,nan,nan,nan,nan,nan,nan,nan,nan,nan,nan,nan,129.52342536323704,497.08423340599984,nan,nan,nan,nan,nan,nan
1,226,1,1,nan,nan,nan,0.0,8,4,1,5,2,6,nan,nan,nan,nan,nan,nan,nan,nan,nan,nan,nan,nan,0.0,nan,nan,nan,nan,nan,nan,nan,nan,nan,nan,nan,nan,nan,nan,nan,nan,nan,nan,129.52342536323704,498.09271302470006,nan,nan,nan,nan,nan,nan
1,227,1,1,1.0,1.0,0.6216538606677204,0.0,0,8,7,4,3,5,nan,nan,nan,nan,nan,nan,nan,nan,nan,nan,nan,nan,0.0,nan,nan,nan,nan,nan,nan,nan,nan,nan,nan,nan,nan,nan,nan,nan,nan,nan,nan,129.52342536323704,499.1011450320948,nan,499.7227988927625,nan,nan,nan,nan
1,228,1,1,1.0,1.0,0.33319316105917096,0.0,5,2,3,1,4,6,nan,nan,nan,nan,nan,nan,nan,nan,nan,nan,nan,nan,0.0,nan,nan,nan,nan,nan,nan,nan,nan,nan,nan,nan,nan,nan,nan,nan,nan,nan,nan,129.52342536323704,500.10962778679095,nan,500.4428209478501,nan,nan,nan,nan
1,229,0,0,0.0,1.0,0.43673072126694024,1.0,7,0,4,3,8,2,1.0,1.0,1.0,1.0,1.0,1.0,1.0,1.0,0.0,1.0,1.0,1.0,5.0,7.0,0.0,1.0,3.0,8.0,2.0,4.0,5.0,6.0,1.0,2.0,3.0,6.5204116106033325,7.543731631012633,9.927302729804069,3.088790100067854,4.319698413833976,5.512264984659851,129.52342536323704,501.1180703428108,501.9264728145208,501.55480106407776,512.9195007849485,513.918244080618,502.9516123190988,512.9111699867062
1,230,1,1,1.0,1.0,0.24281051335856318,0.0,0,1,3,6,7,8,nan,nan,nan,nan,nan,nan,nan,nan,nan,nan,nan,nan,0.0,nan,nan,nan,nan,nan,nan,nan,nan,nan,nan,nan,nan,nan,nan,nan,nan,nan,nan,129.52342536323704,514.1196879791096,nan,514.3624984924681,nan,nan,nan,nan
1,231,1,1,1.0,1.0,0.09037552028894424,0.0,3,2,5,0,4,6,nan,nan,nan,nan,nan,nan,nan,nan,nan,nan,nan,nan,0.0,nan,nan,nan,nan,nan,nan,nan,nan,nan,nan,nan,nan,nan,nan,nan,nan,nan,nan,129.52342536323704,515.1281293949578,nan,515.2185049152467,nan,nan,nan,nan
1,232,1,1,1.0,1.0,0.641786789521575,0.0,7,3,6,2,1,0,nan,nan,nan,nan,nan,nan,nan,nan,nan,nan,nan,nan,0.0,nan,nan,nan,nan,nan,nan,nan,nan,nan,nan,nan,nan,nan,nan,nan,nan,nan,nan,129.52342536323704,516.1365927630104,nan,516.778379552532,nan,nan,nan,nan
1,233,1,1,1.0,1.0,0.2653924194164574,0.0,2,1,5,7,0,3,nan,nan,nan,nan,nan,nan,nan,nan,nan,nan,nan,nan,0.0,nan,nan,nan,nan,nan,nan,nan,nan,nan,nan,nan,nan,nan,nan,nan,nan,nan,nan,129.52342536323704,517.1450219196267,nan,517.4104143390432,nan,nan,nan,nan
1,234,1,1,1.0,1.0,0.6328185158781707,0.0,8,6,4,0,2,5,nan,nan,nan,nan,nan,nan,nan,nan,nan,nan,nan,nan,0.0,nan,nan,nan,nan,nan,nan,nan,nan,nan,nan,nan,nan,nan,nan,nan,nan,nan,nan,129.52342536323704,518.1535100911278,nan,518.786328607006,nan,nan,nan,nan
1,235,1,1,1.0,1.0,0.27242545946501195,0.0,7,0,3,1,5,4,nan,nan,nan,nan,nan,nan,nan,nan,nan,nan,nan,nan,0.0,nan,nan,nan,nan,nan,nan,nan,nan,nan,nan,nan,nan,nan,nan,nan,nan,nan,nan,129.52342536323704,519.16195321735,nan,519.434378676815,nan,nan,nan,nan
1,236,0,0,0.0,1.0,0.5359359581489116,0.0,1,4,8,5,7,3,nan,nan,nan,nan,nan,nan,nan,nan,nan,nan,nan,nan,0.0,nan,nan,nan,nan,nan,nan,nan,nan,nan,nan,nan,nan,nan,nan,nan,nan,nan,nan,129.52342536323704,520.1704399634618,nan,520.7063759216107,nan,nan,nan,nan
1,237,1,1,nan,nan,nan,0.0,6,5,4,3,1,7,nan,nan,nan,nan,nan,nan,nan,nan,nan,nan,nan,nan,0.0,nan,nan,nan,nan,nan,nan,nan,nan,nan,nan,nan,nan,nan,nan,nan,nan,nan,nan,129.52342536323704,521.1788979147095,nan,nan,nan,nan,nan,nan
1,238,0,0,nan,nan,nan,0.0,7,3,2,8,0,5,nan,nan,nan,nan,nan,nan,nan,nan,nan,nan,nan,nan,0.0,nan,nan,nan,nan,nan,nan,nan,nan,nan,nan,nan,nan,nan,nan,nan,nan,nan,nan,129.52342536323704,522.1873299221043,nan,nan,nan,nan,nan,nan
1,239,1,1,1.0,1.0,0.5504938296508044,0.0,2,6,7,1,8,3,nan,nan,nan,nan,nan,nan,nan,nan,nan,nan,nan,nan,0.0,nan,nan,nan,nan,nan,nan,nan,nan,nan,nan,nan,nan,nan,nan,nan,nan,nan,nan,129.52342536323704,523.1957650657278,nan,523.7462588953786,nan,nan,nan,nan
1,240,0,0,nan,nan,nan,1.0,7,4,6,2,1,0,1.0,1.0,1.0,1.0,1.0,1.0,1.0,1.0,1.0,1.0,1.0,1.0,6.0,7.0,4.0,6.0,2.0,1.0,0.0,4.0,5.0,6.0,1.0,2.0,3.0,6.857088363030925,7.721278189215809,8.704750017495826,4.042544917669147,5.024687627097592,5.938265821896493,129.52342536323704,524.2042441142257,525.012657134328,nan,534.780520055443,535.7889580500778,526.0378251487855,534.7721826999914
1,241,1,1,nan,nan,nan,0.0,6,0,1,8,3,7,nan,nan,nan,nan,nan,nan,nan,nan,nan,nan,nan,nan,0.0,nan,nan,nan,nan,nan,nan,nan,nan,nan,nan,nan,nan,nan,nan,nan,nan,nan,nan,129.52342536323704,535.997392794583,nan,nan,nan,nan,nan,nan
1,242,1,1,1.0,1.0,0.5080806263722479,0.0,5,4,8,0,6,1,nan,nan,nan,nan,nan,nan,nan,nan,nan,nan,nan,nan,0.0,nan,nan,nan,nan,nan,nan,nan,nan,nan,nan,nan,nan,nan,nan,nan,nan,nan,nan,129.52342536323704,537.0058473246172,nan,537.5139279509895,nan,nan,nan,nan
1,243,1,1,1.0,1.0,0.3156343661248684,0.0,0,5,6,7,2,8,nan,nan,nan,nan,nan,nan,nan,nan,nan,nan,nan,nan,0.0,nan,nan,nan,nan,nan,nan,nan,nan,nan,nan,nan,nan,nan,nan,nan,nan,nan,nan,129.52342536323704,538.0143007144798,nan,538.3299350806046,nan,nan,nan,nan
1,244,1,1,1.0,1.0,0.3471534706186503,0.0,5,2,1,4,7,3,nan,nan,nan,nan,nan,nan,nan,nan,nan,nan,nan,nan,0.0,nan,nan,nan,nan,nan,nan,nan,nan,nan,nan,nan,nan,nan,nan,nan,nan,nan,nan,129.52342536323704,539.0227643675171,nan,539.3699178381357,nan,nan,nan,nan
1,245,1,1,1.0,1.0,0.266690177610144,0.0,7,4,3,6,5,0,nan,nan,nan,nan,nan,nan,nan,nan,nan,nan,nan,nan,0.0,nan,nan,nan,nan,nan,nan,nan,nan,nan,nan,nan,nan,nan,nan,nan,nan,nan,nan,129.52342536323704,540.0311838309281,nan,540.2978740085382,nan,nan,nan,nan
1,246,1,1,1.0,1.0,0.24220924521796405,0.0,8,1,7,0,4,2,nan,nan,nan,nan,nan,nan,nan,nan,nan,nan,nan,nan,0.0,nan,nan,nan,nan,nan,nan,nan,nan,nan,nan,nan,nan,nan,nan,nan,nan,nan,nan,129.52342536323704,541.0396948100533,nan,541.2819040552713,nan,nan,nan,nan
1,247,1,1,1.0,1.0,0.3457043261732906,0.0,0,6,5,7,8,4,nan,nan,nan,nan,nan,nan,nan,nan,nan,nan,nan,nan,0.0,nan,nan,nan,nan,nan,nan,nan,nan,nan,nan,nan,nan,nan,nan,nan,nan,nan,nan,129.52342536323704,542.0481467742939,nan,542.3938511004671,nan,nan,nan,nan
1,248,1,1,1.0,1.0,0.29722683993168175,0.0,2,5,7,8,1,6,nan,nan,nan,nan,nan,nan,nan,nan,nan,nan,nan,nan,0.0,nan,nan,nan,nan,nan,nan,nan,nan,nan,nan,nan,nan,nan,nan,nan,nan,nan,nan,129.52342536323704,543.0565930367447,nan,543.3538198766764,nan,nan,nan,nan
1,249,0,0,0.0,1.0,0.464745992096141,0.0,3,0,8,4,2,1,nan,nan,nan,nan,nan,nan,nan,nan,nan,nan,nan,nan,0.0,nan,nan,nan,nan,nan,nan,nan,nan,nan,nan,nan,nan,nan,nan,nan,nan,nan,nan,129.52342536323704,544.0650546941906,nan,544.5298006862868,nan,nan,nan,nan
1,250,1,1,1.0,1.0,0.5922892289236188,0.0,7,8,6,5,4,2,nan,nan,nan,nan,nan,nan,nan,nan,nan,nan,nan,nan,0.0,nan,nan,nan,nan,nan,nan,nan,nan,nan,nan,nan,nan,nan,nan,nan,nan,nan,nan,129.52342536323704,545.0734812850133,nan,545.6657705139369,nan,nan,nan,nan
1,251,1,1,1.0,1.0,0.4718001293949783,0.0,5,4,2,7,3,6,nan,nan,nan,nan,nan,nan,nan,nan,nan,nan,nan,nan,0.0,nan,nan,nan,nan,nan,nan,nan,nan,nan,nan,nan,nan,nan,nan,nan,nan,nan,nan,129.52342536323704,546.0819554866757,nan,546.5537556160707,nan,nan,nan,nan
1,252,1,1,1.0,1.0,0.3273469768464565,0.0,2,6,8,5,7,0,nan,nan,nan,nan,nan,nan,nan,nan,nan,nan,nan,nan,0.0,nan,nan,nan,nan,nan,nan,nan,nan,nan,nan,nan,nan,nan,nan,nan,nan,nan,nan,129.52342536323704,547.0903692480642,nan,547.4177162249107,nan,nan,nan,nan
1,253,1,1,1.0,1.0,0.35883272462524474,0.0,4,5,7,0,1,6,nan,nan,nan,nan,nan,nan,nan,nan,nan,nan,nan,nan,0.0,nan,nan,nan,nan,nan,nan,nan,nan,nan,nan,nan,nan,nan,nan,nan,nan,nan,nan,129.52342536323704,548.0988782315981,nan,548.4577109562233,nan,nan,nan,nan
1,254,0,0,0.0,1.0,0.38240619539283216,0.0,1,0,6,7,2,8,nan,nan,nan,nan,nan,nan,nan,nan,nan,nan,nan,nan,0.0,nan,nan,nan,nan,nan,nan,nan,nan,nan,nan,nan,nan,nan,nan,nan,nan,nan,nan,129.52342536323704,549.1072768829763,nan,549.4896830783691,nan,nan,nan,nan
1,255,1,1,1.0,1.0,0.5099251994397491,0.0,6,8,7,0,5,1,nan,nan,nan,nan,nan,nan,nan,nan,nan,nan,nan,nan,0.0,nan,nan,nan,nan,nan,nan,nan,nan,nan,nan,nan,nan,nan,nan,nan,nan,nan,nan,129.52342536323704,550.1157268513925,nan,550.6256520508323,nan,nan,nan,nan
1,256,1,1,1.0,1.0,0.38144570612348616,0.0,7,2,8,3,1,6,nan,nan,nan,nan,nan,nan,nan,nan,nan,nan,nan,nan,0.0,nan,nan,nan,nan,nan,nan,nan,nan,nan,nan,nan,nan,nan,nan,nan,nan,nan,nan,129.52342536323704,551.1241873686668,nan,551.5056330747902,nan,nan,nan,nan
1,257,1,1,1.0,1.0,0.33298076409846544,0.0,8,3,0,6,4,7,nan,nan,nan,nan,nan,nan,nan,nan,nan,nan,nan,nan,0.0,nan,nan,nan,nan,nan,nan,nan,nan,nan,nan,nan,nan,nan,nan,nan,nan,nan,nan,129.52342536323704,552.132645605132,nan,552.4656263692304,nan,nan,nan,nan
1,258,1,1,1.0,1.0,0.3244555303826928,0.0,6,4,5,7,0,3,nan,nan,nan,nan,nan,nan,nan,nan,nan,nan,nan,nan,0.0,nan,nan,nan,nan,nan,nan,nan,nan,nan,nan,nan,nan,nan,nan,nan,nan,nan,nan,129.52342536323704,553.1411312106065,nan,553.4655867409892,nan,nan,nan,nan
1,259,1,1,1.0,1.0,0.31598788569681346,0.0,0,8,4,3,5,6,nan,nan,nan,nan,nan,nan,nan,nan,nan,nan,nan,nan,0.0,nan,nan,nan,nan,nan,nan,nan,nan,nan,nan,nan,nan,nan,nan,nan,nan,nan,nan,129.52342536323704,554.1495843152516,nan,554.4655722009484,nan,nan,nan,nan
1,260,1,1,1.0,1.0,0.3475138321518898,0.0,1,5,2,7,4,8,nan,nan,nan,nan,nan,nan,nan,nan,nan,nan,nan,nan,0.0,nan,nan,nan,nan,nan,nan,nan,nan,nan,nan,nan,nan,nan,nan,nan,nan,nan,nan,129.52342536323704,555.1580191738904,nan,555.5055330060422,nan,nan,nan,nan
1,261,1,1,1.0,1.0,0.33096826961264014,0.0,3,8,5,0,7,2,nan,nan,nan,nan,nan,nan,nan,nan,nan,nan,nan,nan,0.0,nan,nan,nan,nan,nan,nan,nan,nan,nan,nan,nan,nan,nan,nan,nan,nan,nan,nan,129.52342536323704,556.1665481140371,nan,556.4975163836498,nan,nan,nan,nan
1,262,1,1,1.0,1.0,0.2985613758210093,0.0,6,5,4,8,3,1,nan,nan,nan,nan,nan,nan,nan,nan,nan,nan,nan,nan,0.0,nan,nan,nan,nan,nan,nan,nan,nan,nan,nan,nan,nan,nan,nan,nan,nan,nan,nan,129.52342536323704,557.1749316551723,nan,557.4734930309933,nan,nan,nan,nan
1,263,1,1,1.0,1.0,0.31406804732978344,0.0,8,3,5,6,4,7,nan,nan,nan,nan,nan,nan,nan,nan,nan,nan,nan,nan,0.0,nan,nan,nan,nan,nan,nan,nan,nan,nan,nan,nan,nan,nan,nan,nan,nan,nan,nan,129.52342536323704,558.1834149800707,nan,558.4974830274004,nan,nan,nan,nan
1,264,1,1,1.0,1.0,0.25760672497563064,0.0,5,6,7,4,2,1,nan,nan,nan,nan,nan,nan,nan,nan,nan,nan,nan,nan,0.0,nan,nan,nan,nan,nan,nan,nan,nan,nan,nan,nan,nan,nan,nan,nan,nan,nan,nan,129.52342536323704,559.1918458472937,nan,559.4494525722694,nan,nan,nan,nan
1,265,1,1,1.0,1.0,0.2811211810912937,0.0,1,2,8,7,3,0,nan,nan,nan,nan,nan,nan,nan,nan,nan,nan,nan,nan,0.0,nan,nan,nan,nan,nan,nan,nan,nan,nan,nan,nan,nan,nan,nan,nan,nan,nan,nan,129.52342536323704,560.2003043687437,nan,560.481425549835,nan,nan,nan,nan
1,266,1,1,1.0,1.0,0.20861492538824677,0.0,2,5,1,6,7,3,nan,nan,nan,nan,nan,nan,nan,nan,nan,nan,nan,nan,0.0,nan,nan,nan,nan,nan,nan,nan,nan,nan,nan,nan,nan,nan,nan,nan,nan,nan,nan,129.52342536323704,561.2087842724286,nan,561.4173991978168,nan,nan,nan,nan
1,267,1,1,1.0,1.0,0.2241811822168529,0.0,3,0,7,1,2,5,nan,nan,nan,nan,nan,nan,nan,nan,nan,nan,nan,nan,0.0,nan,nan,nan,nan,nan,nan,nan,nan,nan,nan,nan,nan,nan,nan,nan,nan,nan,nan,129.52342536323704,562.2172117184382,nan,562.441392900655,nan,nan,nan,nan
1,268,1,1,1.0,1.0,0.2316718017682433,0.0,1,4,2,7,8,0,nan,nan,nan,nan,nan,nan,nan,nan,nan,nan,nan,nan,0.0,nan,nan,nan,nan,nan,nan,nan,nan,nan,nan,nan,nan,nan,nan,nan,nan,nan,nan,129.52342536323704,563.2256767970975,nan,563.4573485988658,nan,nan,nan,nan
1,269,1,1,1.0,1.0,0.26317636598832905,0.0,8,2,1,6,0,4,nan,nan,nan,nan,nan,nan,nan,nan,nan,nan,nan,nan,0.0,nan,nan,nan,nan,nan,nan,nan,nan,nan,nan,nan,nan,nan,nan,nan,nan,nan,nan,129.52342536323704,564.2341464373749,nan,564.4973228033632,nan,nan,nan,nan
1,270,1,1,1.0,1.0,0.3987114217597991,0.0,7,5,3,8,4,1,nan,nan,nan,nan,nan,nan,nan,nan,nan,nan,nan,nan,0.0,nan,nan,nan,nan,nan,nan,nan,nan,nan,nan,nan,nan,nan,nan,nan,nan,nan,nan,129.52342536323704,565.2425892786123,nan,565.6413007003721,nan,nan,nan,nan
1,271,1,1,1.0,1.0,0.30221916106529534,0.0,5,8,0,4,3,2,nan,nan,nan,nan,nan,nan,nan,nan,nan,nan,nan,nan,0.0,nan,nan,nan,nan,nan,nan,nan,nan,nan,nan,nan,nan,nan,nan,nan,nan,nan,nan,129.52342536323704,566.2510723182932,nan,566.5532914793584,nan,nan,nan,nan
1,272,0,0,1.0,0.0,0.24576439592055976,0.0,3,5,2,1,6,0,nan,nan,nan,nan,nan,nan,nan,nan,nan,nan,nan,nan,0.0,nan,nan,nan,nan,nan,nan,nan,nan,nan,nan,nan,nan,nan,nan,nan,nan,nan,nan,129.52342536323704,567.2595074619167,nan,567.5052718578372,nan,nan,nan,nan
1,273,1,1,1.0,1.0,0.5572853931225836,0.0,0,4,5,3,8,7,nan,nan,nan,nan,nan,nan,nan,nan,nan,nan,nan,nan,0.0,nan,nan,nan,nan,nan,nan,nan,nan,nan,nan,nan,nan,nan,nan,nan,nan,nan,nan,129.52342536323704,568.2679505881388,nan,568.8252359812614,nan,nan,nan,nan
1,274,1,1,1.0,1.0,0.3727599629200995,0.0,4,2,8,5,1,3,nan,nan,nan,nan,nan,nan,nan,nan,nan,nan,nan,nan,0.0,nan,nan,nan,nan,nan,nan,nan,nan,nan,nan,nan,nan,nan,nan,nan,nan,nan,nan,129.52342536323704,569.2764370490331,nan,569.6491970119532,nan,nan,nan,nan
1,275,1,1,1.0,1.0,0.3242750642821193,0.0,3,6,4,2,8,0,nan,nan,nan,nan,nan,nan,nan,nan,nan,nan,nan,nan,0.0,nan,nan,nan,nan,nan,nan,nan,nan,nan,nan,nan,nan,nan,nan,nan,nan,nan,nan,129.52342536323704,570.2848921495024,nan,570.6091672137845,nan,nan,nan,nan
1,276,1,1,1.0,1.0,0.26781744812615216,0.0,5,4,1,8,2,6,nan,nan,nan,nan,nan,nan,nan,nan,nan,nan,nan,nan,0.0,nan,nan,nan,nan,nan,nan,nan,nan,nan,nan,nan,nan,nan,nan,nan,nan,nan,nan,129.52342536323704,571.293340977747,nan,571.5611584258731,nan,nan,nan,nan
1,277,1,1,1.0,1.0,0.4033125906717032,0.0,2,7,4,6,5,8,nan,nan,nan,nan,nan,nan,nan,nan,nan,nan,nan,nan,0.0,nan,nan,nan,nan,nan,nan,nan,nan,nan,nan,nan,nan,nan,nan,nan,nan,nan,nan,129.52342536323704,572.3018074817955,nan,572.7051200724673,nan,nan,nan,nan
1,278,1,1,1.0,1.0,0.250845096539706,0.0,4,0,5,3,8,1,nan,nan,nan,nan,nan,nan,nan,nan,nan,nan,nan,nan,0.0,nan,nan,nan,nan,nan,nan,nan,nan,nan,nan,nan,nan,nan,nan,nan,nan,nan,nan,129.52342536323704,573.3102577356622,nan,573.5611028322019,nan,nan,nan,nan
1,279,1,1,1.0,1.0,0.2503627138212323,0.0,0,5,3,4,1,7,nan,nan,nan,nan,nan,nan,nan,nan,nan,nan,nan,nan,0.0,nan,nan,nan,nan,nan,nan,nan,nan,nan,nan,nan,nan,nan,nan,nan,nan,nan,nan,129.52342536323704,574.3187148314901,nan,574.5690775453113,nan,nan,nan,nan
1,280,1,1,1.0,1.0,0.2498857476748526,0.0,6,7,4,8,5,1,nan,nan,nan,nan,nan,nan,nan,nan,nan,nan,nan,nan,0.0,nan,nan,nan,nan,nan,nan,nan,nan,nan,nan,nan,nan,nan,nan,nan,nan,nan,nan,129.52342536323704,575.3271713573486,nan,575.5770571050234,nan,nan,nan,nan
1,281,1,1,1.0,1.0,0.2574045918881893,0.0,5,1,0,3,8,6,nan,nan,nan,nan,nan,nan,nan,nan,nan,nan,nan,nan,0.0,nan,nan,nan,nan,nan,nan,nan,nan,nan,nan,nan,nan,nan,nan,nan,nan,nan,nan,129.52342536323704,576.3356293085963,nan,576.5930339004844,nan,nan,nan,nan
1,282,1,1,1.0,1.0,0.3529158364981413,0.0,2,3,8,1,4,7,nan,nan,nan,nan,nan,nan,nan,nan,nan,nan,nan,nan,0.0,nan,nan,nan,nan,nan,nan,nan,nan,nan,nan,nan,nan,nan,nan,nan,nan,nan,nan,129.52342536323704,577.344084123848,nan,577.6969999603461,nan,nan,nan,nan
1,283,1,1,1.0,1.0,0.4004547856748104,0.0,5,2,7,0,3,4,nan,nan,nan,nan,nan,nan,nan,nan,nan,nan,nan,nan,0.0,nan,nan,nan,nan,nan,nan,nan,nan,nan,nan,nan,nan,nan,nan,nan,nan,nan,nan,129.52342536323704,578.3525443559047,nan,578.7529991415795,nan,nan,nan,nan
1,284,1,1,1.0,1.0,0.3039659457281232,0.0,0,7,2,8,6,3,nan,nan,nan,nan,nan,nan,nan,nan,nan,nan,nan,nan,0.0,nan,nan,nan,nan,nan,nan,nan,nan,nan,nan,nan,nan,nan,nan,nan,nan,nan,nan,129.52342536323704,579.3610031625722,nan,579.6649691083003,nan,nan,nan,nan
1,285,1,1,1.0,1.0,0.31948402151465416,0.0,2,1,0,6,5,7,nan,nan,nan,nan,nan,nan,nan,nan,nan,nan,nan,nan,0.0,nan,nan,nan,nan,nan,nan,nan,nan,nan,nan,nan,nan,nan,nan,nan,nan,nan,nan,129.52342536323704,580.3694713772275,nan,580.6889553987421,nan,nan,nan,nan
1,286,1,1,1.0,1.0,0.20699386787600815,0.0,8,3,5,4,6,1,nan,nan,nan,nan,nan,nan,nan,nan,nan,nan,nan,nan,0.0,nan,nan,nan,nan,nan,nan,nan,nan,nan,nan,nan,nan,nan,nan,nan,nan,nan,nan,129.52342536323704,581.3779167842586,nan,581.5849106521346,nan,nan,nan,nan
1,287,1,1,1.0,1.0,0.27851340523920953,0.0,3,0,4,5,1,7,nan,nan,nan,nan,nan,nan,nan,nan,nan,nan,nan,nan,0.0,nan,nan,nan,nan,nan,nan,nan,nan,nan,nan,nan,nan,nan,nan,nan,nan,nan,nan,129.52342536323704,582.3863735953346,nan,582.6648870005738,nan,nan,nan,nan
1,288,1,1,1.0,1.0,0.22203269647434354,0.0,2,3,1,8,4,6,nan,nan,nan,nan,nan,nan,nan,nan,nan,nan,nan,nan,0.0,nan,nan,nan,nan,nan,nan,nan,nan,nan,nan,nan,nan,nan,nan,nan,nan,nan,nan,129.52342536323704,583.3948304061778,nan,583.6168631026521,nan,nan,nan,nan
1,289,1,1,1.0,1.0,0.18157097743824124,0.0,1,6,4,2,7,5,nan,nan,nan,nan,nan,nan,nan,nan,nan,nan,nan,nan,0.0,nan,nan,nan,nan,nan,nan,nan,nan,nan,nan,nan,nan,nan,nan,nan,nan,nan,nan,129.52342536323704,584.403287217021,nan,584.5848581944592,nan,nan,nan,nan
1,290,1,1,1.0,1.0,0.11708761611953378,0.0,6,2,1,3,8,0,nan,nan,nan,nan,nan,nan,nan,nan,nan,nan,nan,nan,0.0,nan,nan,nan,nan,nan,nan,nan,nan,nan,nan,nan,nan,nan,nan,nan,nan,nan,nan,129.52342536323704,585.4117386110593,nan,585.5288262271788,nan,nan,nan,nan
1,291,0,0,1.0,0.0,0.07658740878105164,0.0,3,7,5,6,0,1,nan,nan,nan,nan,nan,nan,nan,nan,nan,nan,nan,nan,0.0,nan,nan,nan,nan,nan,nan,nan,nan,nan,nan,nan,nan,nan,nan,nan,nan,nan,nan,129.52342536323704,586.4202113875654,nan,586.4967987963464,nan,nan,nan,nan
1,292,1,1,1.0,1.0,0.5721029869746417,0.0,1,6,0,7,4,8,nan,nan,nan,nan,nan,nan,nan,nan,nan,nan,nan,nan,0.0,nan,nan,nan,nan,nan,nan,nan,nan,nan,nan,nan,nan,nan,nan,nan,nan,nan,nan,129.52342536323704,587.4286687686108,nan,588.0007717555854,nan,nan,nan,nan
1,293,1,1,1.0,1.0,0.3956346628256142,0.0,7,5,8,4,3,1,nan,nan,nan,nan,nan,nan,nan,nan,nan,nan,nan,nan,0.0,nan,nan,nan,nan,nan,nan,nan,nan,nan,nan,nan,nan,nan,nan,nan,nan,nan,nan,129.52342536323704,588.4371267198585,nan,588.8327613826841,nan,nan,nan,nan
1,294,1,1,1.0,1.0,0.21914182021282613,0.0,8,3,1,2,0,6,nan,nan,nan,nan,nan,nan,nan,nan,nan,nan,nan,nan,0.0,nan,nan,nan,nan,nan,nan,nan,nan,nan,nan,nan,nan,nan,nan,nan,nan,nan,nan,129.52342536323704,589.4455815351103,nan,589.6647233553231,nan,nan,nan,nan
1,295,1,1,1.0,1.0,0.03468566853553057,0.0,2,6,4,7,8,5,nan,nan,nan,nan,nan,nan,nan,nan,nan,nan,nan,nan,0.0,nan,nan,nan,nan,nan,nan,nan,nan,nan,nan,nan,nan,nan,nan,nan,nan,nan,nan,129.52342536323704,590.454037205549,nan,590.4887228740845,nan,nan,nan,nan
1,296,1,1,1.0,1.0,0.4501852698158473,0.0,3,5,8,2,7,6,nan,nan,nan,nan,nan,nan,nan,nan,nan,nan,nan,nan,0.0,nan,nan,nan,nan,nan,nan,nan,nan,nan,nan,nan,nan,nan,nan,nan,nan,nan,nan,129.52342536323704,591.4624811871909,nan,591.9126664570067,nan,nan,nan,nan
1,297,1,1,1.0,1.0,0.17771219927817583,0.0,0,6,3,1,5,8,nan,nan,nan,nan,nan,nan,nan,nan,nan,nan,nan,nan,0.0,nan,nan,nan,nan,nan,nan,nan,nan,nan,nan,nan,nan,nan,nan,nan,nan,nan,nan,129.52342536323704,592.4709516826551,nan,592.6486638819333,nan,nan,nan,nan
1,298,1,1,1.0,1.0,0.7691894741728902,0.0,7,3,8,2,1,0,nan,nan,nan,nan,nan,nan,nan,nan,nan,nan,nan,nan,0.0,nan,nan,nan,nan,nan,nan,nan,nan,nan,nan,nan,nan,nan,nan,nan,nan,nan,nan,129.52342536323704,593.4793985153083,nan,594.2485879894812,nan,nan,nan,nan
1,299,1,1,1.0,1.0,0.39272639574483037,0.0,2,6,5,8,3,4,nan,nan,nan,nan,nan,nan,nan,nan,nan,nan,nan,nan,0.0,nan,nan,nan,nan,nan,nan,nan,nan,nan,nan,nan,nan,nan,nan,nan,nan,nan,nan,129.52342536323704,594.4878673001658,nan,594.8805936959106,nan,nan,nan,nan
1,300,1,1,1.0,1.0,0.44827655027620494,0.0,3,1,7,2,6,0,nan,nan,nan,nan,nan,nan,nan,nan,nan,nan,nan,nan,0.0,nan,nan,nan,nan,nan,nan,nan,nan,nan,nan,nan,nan,nan,nan,nan,nan,nan,nan,129.52342536323704,595.4963115667924,nan,595.9445881170686,nan,nan,nan,nan
1,301,1,1,1.0,1.0,0.5117848822847009,0.0,0,7,3,8,1,2,nan,nan,nan,nan,nan,nan,nan,nan,nan,nan,nan,nan,0.0,nan,nan,nan,nan,nan,nan,nan,nan,nan,nan,nan,nan,nan,nan,nan,nan,nan,nan,129.52342536323704,596.504769518273,nan,597.0165544005577,nan,nan,nan,nan
1,302,1,1,1.0,1.0,0.3833219246007502,0.0,2,0,8,4,7,1,nan,nan,nan,nan,nan,nan,nan,nan,nan,nan,nan,nan,0.0,nan,nan,nan,nan,nan,nan,nan,nan,nan,nan,nan,nan,nan,nan,nan,nan,nan,nan,129.52342536323704,597.5132214825135,nan,597.8965434071142,nan,nan,nan,nan
1,303,1,1,1.0,1.0,0.3028315475676209,0.0,0,8,3,6,4,2,nan,nan,nan,nan,nan,nan,nan,nan,nan,nan,nan,nan,0.0,nan,nan,nan,nan,nan,nan,nan,nan,nan,nan,nan,nan,nan,nan,nan,nan,nan,nan,129.52342536323704,598.5216811443679,nan,598.8245126919355,nan,nan,nan,nan
1,304,1,1,1.0,1.0,0.1263646490406245,0.0,8,6,2,1,3,7,nan,nan,nan,nan,nan,nan,nan,nan,nan,nan,nan,nan,0.0,nan,nan,nan,nan,nan,nan,nan,nan,nan,nan,nan,nan,nan,nan,nan,nan,nan,nan,129.52342536323704,599.5301351041999,nan,599.6564997532405,nan,nan,nan,nan
1,305,1,1,1.0,1.0,0.5258848888333887,0.0,1,8,6,5,2,0,nan,nan,nan,nan,nan,nan,nan,nan,nan,nan,nan,nan,0.0,nan,nan,nan,nan,nan,nan,nan,nan,nan,nan,nan,nan,nan,nan,nan,nan,nan,nan,129.52342536323704,600.5385961916763,nan,601.0644810805097,nan,nan,nan,nan
1,306,1,1,1.0,1.0,0.3573898521717638,0.0,7,2,5,3,4,6,nan,nan,nan,nan,nan,nan,nan,nan,nan,nan,nan,nan,0.0,nan,nan,nan,nan,nan,nan,nan,nan,nan,nan,nan,nan,nan,nan,nan,nan,nan,nan,129.52342536323704,601.5470646915492,nan,601.9044545437209,nan,nan,nan,nan
1,307,1,1,1.0,1.0,0.07690244051627815,0.0,2,5,0,8,1,4,nan,nan,nan,nan,nan,nan,nan,nan,nan,nan,nan,nan,0.0,nan,nan,nan,nan,nan,nan,nan,nan,nan,nan,nan,nan,nan,nan,nan,nan,nan,nan,129.52342536323704,602.5555474460125,nan,602.6324498865288,nan,nan,nan,nan
1,308,0,0,1.0,0.0,0.08444580296054482,0.0,8,4,6,7,3,0,nan,nan,nan,nan,nan,nan,nan,nan,nan,nan,nan,nan,0.0,nan,nan,nan,nan,nan,nan,nan,nan,nan,nan,nan,nan,nan,nan,nan,nan,nan,nan,129.52342536323704,603.5639677646104,nan,603.648413567571,nan,nan,nan,nan
1,309,1,1,1.0,1.0,0.5319662776309997,0.0,4,7,5,3,2,6,nan,nan,nan,nan,nan,nan,nan,nan,nan,nan,nan,nan,0.0,nan,nan,nan,nan,nan,nan,nan,nan,nan,nan,nan,nan,nan,nan,nan,nan,nan,nan,129.52342536323704,604.5724197290838,nan,605.1043860067148,nan,nan,nan,nan
1,310,1,1,1.0,1.0,0.25146147492341697,0.0,7,8,1,6,3,4,nan,nan,nan,nan,nan,nan,nan,nan,nan,nan,nan,nan,0.0,nan,nan,nan,nan,nan,nan,nan,nan,nan,nan,nan,nan,nan,nan,nan,nan,nan,nan,129.52342536323704,605.5808822417166,nan,605.83234371664,nan,nan,nan,nan
1,311,1,1,1.0,1.0,0.7309654757846147,0.0,6,7,0,1,2,5,nan,nan,nan,nan,nan,nan,nan,nan,nan,nan,nan,nan,0.0,nan,nan,nan,nan,nan,nan,nan,nan,nan,nan,nan,nan,nan,nan,nan,nan,nan,nan,129.52342536323704,606.5893356315792,nan,607.3203011073638,nan,nan,nan,nan
1,312,1,1,1.0,1.0,0.4345200846437365,0.0,8,5,6,7,4,0,nan,nan,nan,nan,nan,nan,nan,nan,nan,nan,nan,nan,0.0,nan,nan,nan,nan,nan,nan,nan,nan,nan,nan,nan,nan,nan,nan,nan,nan,nan,nan,129.52342536323704,607.5977961486205,nan,608.0323162332643,nan,nan,nan,nan
1,313,1,1,1.0,1.0,0.21802367269992828,0.0,6,8,0,1,2,5,nan,nan,nan,nan,nan,nan,nan,nan,nan,nan,nan,nan,0.0,nan,nan,nan,nan,nan,nan,nan,nan,nan,nan,nan,nan,nan,nan,nan,nan,nan,nan,129.52342536323704,608.6062521042768,nan,608.8242757769767,nan,nan,nan,nan
1,314,1,1,1.0,1.0,0.777533101849258,0.0,2,4,7,5,3,0,nan,nan,nan,nan,nan,nan,nan,nan,nan,nan,nan,nan,0.0,nan,nan,nan,nan,nan,nan,nan,nan,nan,nan,nan,nan,nan,nan,nan,nan,nan,nan,129.52342536323704,609.6146995071322,nan,610.3922326089814,nan,nan,nan,nan
1,315,1,1,1.0,1.0,0.5690846727229655,0.0,7,6,0,3,1,5,nan,nan,nan,nan,nan,nan,nan,nan,nan,nan,nan,nan,0.0,nan,nan,nan,nan,nan,nan,nan,nan,nan,nan,nan,nan,nan,nan,nan,nan,nan,nan,129.52342536323704,610.623166581383,nan,611.1922512541059,nan,nan,nan,nan
1,316,1,1,1.0,1.0,0.2885952650103718,0.0,8,3,2,7,0,1,nan,nan,nan,nan,nan,nan,nan,nan,nan,nan,nan,nan,0.0,nan,nan,nan,nan,nan,nan,nan,nan,nan,nan,nan,nan,nan,nan,nan,nan,nan,nan,129.52342536323704,611.6316273836419,nan,611.9202226486523,nan,nan,nan,nan
1,317,1,1,1.0,1.0,0.14411103702150285,0.0,2,1,6,5,3,7,nan,nan,nan,nan,nan,nan,nan,nan,nan,nan,nan,nan,0.0,nan,nan,nan,nan,nan,nan,nan,nan,nan,nan,nan,nan,nan,nan,nan,nan,nan,nan,129.52342536323704,612.6400793478824,nan,612.7841903849039,nan,nan,nan,nan
1,318,0,0,0.0,1.0,0.5275977472774684,0.0,1,7,0,2,5,6,nan,nan,nan,nan,nan,nan,nan,nan,nan,nan,nan,nan,0.0,nan,nan,nan,nan,nan,nan,nan,nan,nan,nan,nan,nan,nan,nan,nan,nan,nan,nan,129.52342536323704,613.6485307421535,nan,614.176128489431,nan,nan,nan,nan
1,319,1,1,1.0,1.0,0.4631577208638191,0.0,2,3,1,7,4,0,nan,nan,nan,nan,nan,nan,nan,nan,nan,nan,nan,nan,0.0,nan,nan,nan,nan,nan,nan,nan,nan,nan,nan,nan,nan,nan,nan,nan,nan,nan,nan,129.52342536323704,614.6569943951908,nan,615.1201521160547,nan,nan,nan,nan
1,320,1,1,1.0,1.0,0.4066470768302679,0.0,4,0,6,2,1,5,nan,nan,nan,nan,nan,nan,nan,nan,nan,nan,nan,nan,0.0,nan,nan,nan,nan,nan,nan,nan,nan,nan,nan,nan,nan,nan,nan,nan,nan,nan,nan,129.52342536323704,615.6654674566817,nan,616.0721145335119,nan,nan,nan,nan
1,321,1,1,1.0,1.0,0.19019200396724045,0.0,7,2,3,8,0,4,nan,nan,nan,nan,nan,nan,nan,nan,nan,nan,nan,nan,0.0,nan,nan,nan,nan,nan,nan,nan,nan,nan,nan,nan,nan,nan,nan,nan,nan,nan,nan,129.52342536323704,616.673906591488,nan,616.8640985954553,nan,nan,nan,nan
1,322,1,1,1.0,1.0,0.757663601776585,0.0,0,4,7,2,6,5,nan,nan,nan,nan,nan,nan,nan,nan,nan,nan,nan,nan,0.0,nan,nan,nan,nan,nan,nan,nan,nan,nan,nan,nan,nan,nan,nan,nan,nan,nan,nan,129.52342536323704,617.6823628323618,nan,618.4400264341384,nan,nan,nan,nan
1,323,1,1,1.0,1.0,0.46922570979222655,0.0,7,8,2,3,0,1,nan,nan,nan,nan,nan,nan,nan,nan,nan,nan,nan,nan,0.0,nan,nan,nan,nan,nan,nan,nan,nan,nan,nan,nan,nan,nan,nan,nan,nan,nan,nan,129.52342536323704,618.6908313322347,nan,619.1600570420269,nan,nan,nan,nan
1,324,1,1,1.0,1.0,0.21273542195558548,0.0,2,4,1,8,7,0,nan,nan,nan,nan,nan,nan,nan,nan,nan,nan,nan,nan,0.0,nan,nan,nan,nan,nan,nan,nan,nan,nan,nan,nan,nan,nan,nan,nan,nan,nan,nan,129.52342536323704,619.699278164655,nan,619.9120135866106,nan,nan,nan,nan
1,325,1,1,1.0,1.0,0.004236815730109811,0.0,3,1,7,0,6,5,nan,nan,nan,nan,nan,nan,nan,nan,nan,nan,nan,nan,0.0,nan,nan,nan,nan,nan,nan,nan,nan,nan,nan,nan,nan,nan,nan,nan,nan,nan,nan,129.52342536323704,620.7077746039722,nan,620.7120114197023,nan,nan,nan,nan
1,326,0,0,0.0,1.0,0.4757891963236034,1.0,1,7,2,8,0,4,1.0,1.0,1.0,1.0,1.0,1.0,0.0,0.0,1.0,0.0,0.0,1.0,2.0,7.0,3.0,2.0,2.0,5.0,4.0,4.0,5.0,6.0,1.0,2.0,3.0,5.0796168418601155,5.751399466302246,6.311341101303697,2.6893254537135363,3.4815127891488373,4.247678247047588,129.52342536323704,621.7161923567764,622.5246167806908,622.1919815531,629.8838329596911,630.8843968801666,623.5330798637588,629.8755215478595
1,327,1,1,1.0,1.0,0.2514284036587924,0.0,8,6,7,2,5,1,nan,nan,nan,nan,nan,nan,nan,nan,nan,nan,nan,nan,0.0,nan,nan,nan,nan,nan,nan,nan,nan,nan,nan,nan,nan,nan,nan,nan,nan,nan,nan,129.52342536323704,631.0923783215694,nan,631.3438067252282,nan,nan,nan,nan
1,328,1,1,1.0,1.0,0.05092560779303312,0.0,7,5,0,4,3,8,nan,nan,nan,nan,nan,nan,nan,nan,nan,nan,nan,nan,0.0,nan,nan,nan,nan,nan,nan,nan,nan,nan,nan,nan,nan,nan,nan,nan,nan,nan,nan,129.52342536323704,632.1008368430194,nan,632.1517624508124,nan,nan,nan,nan
1,329,0,0,1.0,0.0,0.24244502000510693,0.0,0,6,8,3,1,7,nan,nan,nan,nan,nan,nan,nan,nan,nan,nan,nan,nan,0.0,nan,nan,nan,nan,nan,nan,nan,nan,nan,nan,nan,nan,nan,nan,nan,nan,nan,nan,129.52342536323704,633.1092517448124,nan,633.3516967648175,nan,nan,nan,nan
1,330,1,1,1.0,1.0,0.4420138404238969,0.0,7,1,5,8,2,4,nan,nan,nan,nan,nan,nan,nan,nan,nan,nan,nan,nan,0.0,nan,nan,nan,nan,nan,nan,nan,nan,nan,nan,nan,nan,nan,nan,nan,nan,nan,nan,129.52342536323704,634.1176888840273,nan,634.5597027244512,nan,nan,nan,nan
1,331,1,1,1.0,1.0,0.16150390566326678,0.0,1,8,2,3,0,6,nan,nan,nan,nan,nan,nan,nan,nan,nan,nan,nan,nan,0.0,nan,nan,nan,nan,nan,nan,nan,nan,nan,nan,nan,nan,nan,nan,nan,nan,nan,nan,129.52342536323704,635.1261645113118,nan,635.2876684169751,nan,nan,nan,nan
1,332,1,1,1.0,1.0,0.4249975837301463,0.0,7,1,5,2,3,4,nan,nan,nan,nan,nan,nan,nan,nan,nan,nan,nan,nan,0.0,nan,nan,nan,nan,nan,nan,nan,nan,nan,nan,nan,nan,nan,nan,nan,nan,nan,nan,129.52342536323704,636.1346535382327,nan,636.5596511219628,nan,nan,nan,nan
1,333,1,1,1.0,1.0,0.02452027564868331,0.0,8,5,1,3,7,0,nan,nan,nan,nan,nan,nan,nan,nan,nan,nan,nan,nan,0.0,nan,nan,nan,nan,nan,nan,nan,nan,nan,nan,nan,nan,nan,nan,nan,nan,nan,nan,129.52342536323704,637.1431223230902,nan,637.1676425987389,nan,nan,nan,nan
1,334,0,0,1.0,0.0,0.14402607828378677,1.0,2,8,3,1,5,4,1.0,1.0,1.0,1.0,1.0,1.0,0.0,0.0,0.0,0.0,0.0,0.0,0.0,4.0,1.0,0.0,8.0,1.0,2.0,4.0,5.0,6.0,1.0,2.0,3.0,3.907642205245793,4.4676941726356745,4.875289479736239,2.285081168403849,2.892882485873997,3.4446615295019,129.52342536323704,638.1515745725483,638.9599434025586,638.2956006508321,644.8940097566228,645.8913004866336,639.9767124806531,644.8856792433653
1,335,1,1,1.0,1.0,0.2572771538980305,0.0,3,5,4,0,1,7,nan,nan,nan,nan,nan,nan,nan,nan,nan,nan,nan,nan,0.0,nan,nan,nan,nan,nan,nan,nan,nan,nan,nan,nan,nan,nan,nan,nan,nan,nan,nan,129.52342536323704,646.0941824107431,nan,646.3514595646411,nan,nan,nan,nan
1,336,1,1,1.0,1.0,0.12077248562127352,0.0,7,1,8,5,4,6,nan,nan,nan,nan,nan,nan,nan,nan,nan,nan,nan,nan,0.0,nan,nan,nan,nan,nan,nan,nan,nan,nan,nan,nan,nan,nan,nan,nan,nan,nan,nan,129.52342536323704,647.1026460640132,nan,647.2234185496345,nan,nan,nan,nan
1,337,0,0,nan,nan,nan,0.0,4,3,0,2,7,1,nan,nan,nan,nan,nan,nan,nan,nan,nan,nan,nan,nan,0.0,nan,nan,nan,nan,nan,nan,nan,nan,nan,nan,nan,nan,nan,nan,nan,nan,nan,nan,129.52342536323704,648.1110783566255,nan,nan,nan,nan,nan,nan
1,338,1,1,0.0,0.0,0.18381069391034544,0.0,8,0,6,1,5,2,nan,nan,nan,nan,nan,nan,nan,nan,nan,nan,nan,nan,0.0,nan,nan,nan,nan,nan,nan,nan,nan,nan,nan,nan,nan,nan,nan,nan,nan,nan,nan,129.52342536323704,649.1195271848701,nan,649.3033378787804,nan,nan,nan,nan
1,339,1,1,1.0,1.0,0.27929285867139697,0.0,0,2,5,3,7,1,nan,nan,nan,nan,nan,nan,nan,nan,nan,nan,nan,nan,0.0,nan,nan,nan,nan,nan,nan,nan,nan,nan,nan,nan,nan,nan,nan,nan,nan,nan,nan,129.52342536323704,650.1280170669779,nan,650.4073099256493,nan,nan,nan,nan
1,340,1,1,1.0,1.0,0.5188150715548545,0.0,7,4,2,6,3,0,nan,nan,nan,nan,nan,nan,nan,nan,nan,nan,nan,nan,0.0,nan,nan,nan,nan,nan,nan,nan,nan,nan,nan,nan,nan,nan,nan,nan,nan,nan,nan,129.52342536323704,651.1364570572041,nan,651.655272128759,nan,nan,nan,nan
1,341,1,1,1.0,1.0,0.20636209449730814,0.0,2,6,4,7,1,5,nan,nan,nan,nan,nan,nan,nan,nan,nan,nan,nan,nan,0.0,nan,nan,nan,nan,nan,nan,nan,nan,nan,nan,nan,nan,nan,nan,nan,nan,nan,nan,129.52342536323704,652.144917859463,nan,652.3512799539603,nan,nan,nan,nan
1,342,1,1,1.0,1.0,0.5818547052331269,0.0,6,1,3,2,0,7,nan,nan,nan,nan,nan,nan,nan,nan,nan,nan,nan,nan,0.0,nan,nan,nan,nan,nan,nan,nan,nan,nan,nan,nan,nan,nan,nan,nan,nan,nan,nan,129.52342536323704,653.1533752405085,nan,653.7352299457416,nan,nan,nan,nan
1,343,1,1,1.0,1.0,0.22933914395980537,0.0,3,7,4,6,8,5,nan,nan,nan,nan,nan,nan,nan,nan,nan,nan,nan,nan,0.0,nan,nan,nan,nan,nan,nan,nan,nan,nan,nan,nan,nan,nan,nan,nan,nan,nan,nan,129.52342536323704,654.1618922068737,nan,654.3912313508336,nan,nan,nan,nan
1,344,1,1,1.0,1.0,0.5088900146074593,0.0,7,4,5,8,1,0,nan,nan,nan,nan,nan,nan,nan,nan,nan,nan,nan,nan,0.0,nan,nan,nan,nan,nan,nan,nan,nan,nan,nan,nan,nan,nan,nan,nan,nan,nan,nan,129.52342536323704,655.170284871012,nan,655.6791748856194,nan,nan,nan,nan
1,345,1,1,1.0,1.0,0.22042332799173892,0.0,2,1,6,4,8,3,nan,nan,nan,nan,nan,nan,nan,nan,nan,nan,nan,nan,0.0,nan,nan,nan,nan,nan,nan,nan,nan,nan,nan,nan,nan,nan,nan,nan,nan,nan,nan,129.52342536323704,656.1787633493077,nan,656.3991866772994,nan,nan,nan,nan
1,346,1,1,1.0,1.0,0.4999476848170161,0.0,3,4,7,2,1,5,nan,nan,nan,nan,nan,nan,nan,nan,nan,nan,nan,nan,0.0,nan,nan,nan,nan,nan,nan,nan,nan,nan,nan,nan,nan,nan,nan,nan,nan,nan,nan,129.52342536323704,657.187197922729,nan,657.687145607546,nan,nan,nan,nan
1,347,1,1,1.0,1.0,0.21946198353543878,0.0,0,3,5,8,7,4,nan,nan,nan,nan,nan,nan,nan,nan,nan,nan,nan,nan,0.0,nan,nan,nan,nan,nan,nan,nan,nan,nan,nan,nan,nan,nan,nan,nan,nan,nan,nan,129.52342536323704,658.1956994936336,nan,658.415161477169,nan,nan,nan,nan
1,348,1,1,1.0,1.0,0.642975355964154,0.0,5,8,7,6,3,2,nan,nan,nan,nan,nan,nan,nan,nan,nan,nan,nan,nan,0.0,nan,nan,nan,nan,nan,nan,nan,nan,nan,nan,nan,nan,nan,nan,nan,nan,nan,nan,129.52342536323704,659.2041158208158,nan,659.8470911767799,nan,nan,nan,nan
1,349,1,1,1.0,1.0,0.29052365641109645,0.0,1,2,5,3,0,7,nan,nan,nan,nan,nan,nan,nan,nan,nan,nan,nan,nan,0.0,nan,nan,nan,nan,nan,nan,nan,nan,nan,nan,nan,nan,nan,nan,nan,nan,nan,nan,129.52342536323704,660.2125723466743,nan,660.5030960030854,nan,nan,nan,nan
1,350,1,1,1.0,1.0,0.6740229108836502,0.0,0,1,2,7,3,6,nan,nan,nan,nan,nan,nan,nan,nan,nan,nan,nan,nan,0.0,nan,nan,nan,nan,nan,nan,nan,nan,nan,nan,nan,nan,nan,nan,nan,nan,nan,nan,129.52342536323704,661.2210320085287,nan,661.8950549194124,nan,nan,nan,nan
1,351,1,1,1.0,1.0,0.3295715828426182,0.0,5,2,4,3,6,7,nan,nan,nan,nan,nan,nan,nan,nan,nan,nan,nan,nan,0.0,nan,nan,nan,nan,nan,nan,nan,nan,nan,nan,nan,nan,nan,nan,nan,nan,nan,nan,129.52342536323704,662.2294936662074,nan,662.55906524905,nan,nan,nan,nan
1,352,1,1,1.0,1.0,0.5610398261342198,0.0,6,8,0,7,3,1,nan,nan,nan,nan,nan,nan,nan,nan,nan,nan,nan,nan,0.0,nan,nan,nan,nan,nan,nan,nan,nan,nan,nan,nan,nan,nan,nan,nan,nan,nan,nan,129.52342536323704,663.2379442048259,nan,663.7989840309601,nan,nan,nan,nan
1,353,1,1,1.0,1.0,0.18460582732222974,0.0,8,3,4,6,7,0,nan,nan,nan,nan,nan,nan,nan,nan,nan,nan,nan,nan,0.0,nan,nan,nan,nan,nan,nan,nan,nan,nan,nan,nan,nan,nan,nan,nan,nan,nan,nan,129.52342536323704,664.246414700523,nan,664.4310205278452,nan,nan,nan,nan
1,354,1,1,1.0,1.0,0.3520636835601181,0.0,1,7,8,2,4,5,nan,nan,nan,nan,nan,nan,nan,nan,nan,nan,nan,nan,0.0,nan,nan,nan,nan,nan,nan,nan,nan,nan,nan,nan,nan,nan,nan,nan,nan,nan,nan,129.52342536323704,665.25490600802,nan,665.6069696915802,nan,nan,nan,nan
1,355,1,1,1.0,1.0,0.5996526957023889,0.0,2,1,5,8,0,4,nan,nan,nan,nan,nan,nan,nan,nan,nan,nan,nan,nan,0.0,nan,nan,nan,nan,nan,nan,nan,nan,nan,nan,nan,nan,nan,nan,nan,nan,nan,nan,129.52342536323704,666.2632752943318,nan,666.8629279900342,nan,nan,nan,nan
1,356,1,1,1.0,1.0,0.1911747306585312,0.0,4,3,0,6,7,1,nan,nan,nan,nan,nan,nan,nan,nan,nan,nan,nan,nan,0.0,nan,nan,nan,nan,nan,nan,nan,nan,nan,nan,nan,nan,nan,nan,nan,nan,nan,nan,129.52342536323704,667.2717788610607,nan,667.4629535917193,nan,nan,nan,nan
1,357,1,1,1.0,1.0,0.574652603128925,0.0,6,4,5,8,1,3,nan,nan,nan,nan,nan,nan,nan,nan,nan,nan,nan,nan,0.0,nan,nan,nan,nan,nan,nan,nan,nan,nan,nan,nan,nan,nan,nan,nan,nan,nan,nan,129.52342536323704,668.2802122940775,nan,668.8548648972064,nan,nan,nan,nan
1,358,0,0,1.0,0.0,0.23823557351715863,1.0,5,1,0,3,7,4,1.0,1.0,1.0,1.0,1.0,1.0,1.0,0.0,0.0,1.0,1.0,1.0,4.0,5.0,6.0,2.0,3.0,7.0,4.0,4.0,5.0,6.0,1.0,2.0,3.0,5.0490077652502805,5.825175540987402,6.584885563701391,2.4734642361290753,3.3779264776967466,4.274727611802518,129.52342536323704,669.288667394314,670.0971037924755,669.5269029678311,677.7396994002629,678.7441697097383,671.1138768617529,677.7313785802107
1,359,1,1,1.0,1.0,0.2504462469369173,0.0,7,3,6,2,8,5,nan,nan,nan,nan,nan,nan,nan,nan,nan,nan,nan,nan,0.0,nan,nan,nan,nan,nan,nan,nan,nan,nan,nan,nan,nan,nan,nan,nan,nan,nan,nan,129.52342536323704,678.948247327935,nan,679.1986935748719,nan,nan,nan,nan
1,360,1,1,1.0,1.0,0.20196134829893708,0.0,2,8,5,6,1,7,nan,nan,nan,nan,nan,nan,nan,nan,nan,nan,nan,nan,0.0,nan,nan,nan,nan,nan,nan,nan,nan,nan,nan,nan,nan,nan,nan,nan,nan,nan,nan,129.52342536323704,679.9567075599916,nan,680.1586689082906,nan,nan,nan,nan
1,361,0,0,1.0,0.0,0.05747911590151489,0.0,8,0,4,7,6,1,nan,nan,nan,nan,nan,nan,nan,nan,nan,nan,nan,nan,0.0,nan,nan,nan,nan,nan,nan,nan,nan,nan,nan,nan,nan,nan,nan,nan,nan,nan,nan,129.52342536323704,680.9651523968205,nan,681.022631512722,nan,nan,nan,nan
1,362,1,1,1.0,1.0,0.32905498845502734,0.0,1,6,2,0,4,5,nan,nan,nan,nan,nan,nan,nan,nan,nan,nan,nan,nan,0.0,nan,nan,nan,nan,nan,nan,nan,nan,nan,nan,nan,nan,nan,nan,nan,nan,nan,nan,129.52342536323704,681.9735521883704,nan,682.3026071768254,nan,nan,nan,nan
1,363,1,1,1.0,1.0,0.2245084724854678,0.0,7,5,4,8,3,6,nan,nan,nan,nan,nan,nan,nan,nan,nan,nan,nan,nan,0.0,nan,nan,nan,nan,nan,nan,nan,nan,nan,nan,nan,nan,nan,nan,nan,nan,nan,nan,129.52342536323704,682.9820483427029,nan,683.2065568151884,nan,nan,nan,nan
1,364,0,0,1.0,0.0,0.008057391038164496,1.0,0,4,5,6,8,7,1.0,1.0,1.0,1.0,1.0,1.0,0.0,0.0,0.0,1.0,0.0,0.0,1.0,2.0,1.0,3.0,6.0,0.0,2.0,4.0,5.0,6.0,1.0,2.0,3.0,4.1472174460068345,4.523155662231147,5.163205645279959,2.0688039953820407,2.7490670937113464,3.38924251915887,129.52342536323704,683.9904951751232,684.7989042038098,683.9985525661614,691.0079721473157,692.003880160395,685.8073766950984,690.9996650118846
1,365,1,1,1.0,1.0,0.31020413734950125,0.0,5,8,2,1,0,4,nan,nan,nan,nan,nan,nan,nan,nan,nan,nan,nan,nan,0.0,nan,nan,nan,nan,nan,nan,nan,nan,nan,nan,nan,nan,nan,nan,nan,nan,nan,nan,129.52342536323704,692.2081616222858,nan,692.5183657596353,nan,nan,nan,nan
1,366,1,1,nan,nan,nan,0.0,6,4,5,0,7,1,nan,nan,nan,nan,nan,nan,nan,nan,nan,nan,nan,nan,0.0,nan,nan,nan,nan,nan,nan,nan,nan,nan,nan,nan,nan,nan,nan,nan,nan,nan,nan,129.52342536323704,693.216620713938,nan,nan,nan,nan,nan,nan
1,367,1,1,1.0,1.0,0.6211800305172801,0.0,7,8,2,1,3,4,nan,nan,nan,nan,nan,nan,nan,nan,nan,nan,nan,nan,0.0,nan,nan,nan,nan,nan,nan,nan,nan,nan,nan,nan,nan,nan,nan,nan,nan,nan,nan,129.52342536323704,694.2250823713839,nan,694.8462624019012,nan,nan,nan,nan
1,368,1,1,1.0,1.0,0.3087701031472534,0.0,0,2,8,5,4,7,nan,nan,nan,nan,nan,nan,nan,nan,nan,nan,nan,nan,0.0,nan,nan,nan,nan,nan,nan,nan,nan,nan,nan,nan,nan,nan,nan,nan,nan,nan,nan,129.52342536323704,695.2335180852097,nan,695.5422881883569,nan,nan,nan,nan
1,369,1,1,1.0,1.0,0.004283856600522995,0.0,5,4,6,1,7,3,nan,nan,nan,nan,nan,nan,nan,nan,nan,nan,nan,nan,0.0,nan,nan,nan,nan,nan,nan,nan,nan,nan,nan,nan,nan,nan,nan,nan,nan,nan,nan,129.52342536323704,696.2420002697036,nan,696.2462841263041,nan,nan,nan,nan
1,370,1,1,1.0,1.0,0.24378497246652842,0.0,4,5,2,3,1,0,nan,nan,nan,nan,nan,nan,nan,nan,nan,nan,nan,nan,0.0,nan,nan,nan,nan,nan,nan,nan,nan,nan,nan,nan,nan,nan,nan,nan,nan,nan,nan,129.52342536323704,697.2504528041463,nan,697.4942377766129,nan,nan,nan,nan
1,371,1,1,1.0,1.0,0.5872900658287108,0.0,8,1,4,0,3,7,nan,nan,nan,nan,nan,nan,nan,nan,nan,nan,nan,nan,0.0,nan,nan,nan,nan,nan,nan,nan,nan,nan,nan,nan,nan,nan,nan,nan,nan,nan,nan,129.52342536323704,698.2589101851918,nan,698.8462002510205,nan,nan,nan,nan
1,372,1,1,1.0,1.0,0.2188188061118126,0.0,5,2,1,3,0,8,nan,nan,nan,nan,nan,nan,nan,nan,nan,nan,nan,nan,0.0,nan,nan,nan,nan,nan,nan,nan,nan,nan,nan,nan,nan,nan,nan,nan,nan,nan,nan,129.52342536323704,699.2673650004435,nan,699.4861838065553,nan,nan,nan,nan
1,373,1,1,1.0,1.0,0.43434332497417927,0.0,1,8,3,2,4,5,nan,nan,nan,nan,nan,nan,nan,nan,nan,nan,nan,nan,0.0,nan,nan,nan,nan,nan,nan,nan,nan,nan,nan,nan,nan,nan,nan,nan,nan,nan,nan,129.52342536323704,700.2758141136728,nan,700.710157438647,nan,nan,nan,nan
1,374,1,1,1.0,1.0,0.5937854144722223,0.0,0,6,1,7,8,2,nan,nan,nan,nan,nan,nan,nan,nan,nan,nan,nan,nan,0.0,nan,nan,nan,nan,nan,nan,nan,nan,nan,nan,nan,nan,nan,nan,nan,nan,nan,nan,129.52342536323704,701.2843176804017,nan,701.878103094874,nan,nan,nan,nan
1,375,1,1,1.0,1.0,0.21737792971543968,0.0,6,1,4,3,5,7,nan,nan,nan,nan,nan,nan,nan,nan,nan,nan,nan,nan,0.0,nan,nan,nan,nan,nan,nan,nan,nan,nan,nan,nan,nan,nan,nan,nan,nan,nan,nan,129.52342536323704,702.2927747764625,nan,702.5101527061779,nan,nan,nan,nan
1,376,1,1,1.0,1.0,0.30484347231686115,0.0,4,5,8,0,3,6,nan,nan,nan,nan,nan,nan,nan,nan,nan,nan,nan,nan,0.0,nan,nan,nan,nan,nan,nan,nan,nan,nan,nan,nan,nan,nan,nan,nan,nan,nan,nan,129.52342536323704,703.3012293064967,nan,703.6060727788135,nan,nan,nan,nan
1,377,1,1,1.0,1.0,0.4484068392775953,0.0,1,7,4,2,6,0,nan,nan,nan,nan,nan,nan,nan,nan,nan,nan,nan,nan,0.0,nan,nan,nan,nan,nan,nan,nan,nan,nan,nan,nan,nan,nan,nan,nan,nan,nan,nan,129.52342536323704,704.3096464890987,nan,704.7580533283763,nan,nan,nan,nan
1,378,1,1,1.0,1.0,0.007939646253362298,0.0,0,6,3,8,1,4,nan,nan,nan,nan,nan,nan,nan,nan,nan,nan,nan,nan,0.0,nan,nan,nan,nan,nan,nan,nan,nan,nan,nan,nan,nan,nan,nan,nan,nan,nan,nan,129.52342536323704,705.318116984563,nan,705.3260566308163,nan,nan,nan,nan
1,379,1,1,1.0,1.0,0.1674618476536125,0.0,4,3,5,1,7,0,nan,nan,nan,nan,nan,nan,nan,nan,nan,nan,nan,nan,0.0,nan,nan,nan,nan,nan,nan,nan,nan,nan,nan,nan,nan,nan,nan,nan,nan,nan,nan,129.52342536323704,706.3265541240107,nan,706.4940159716643,nan,nan,nan,nan
1,380,1,1,1.0,1.0,0.3269595308229327,0.0,6,0,4,3,8,2,nan,nan,nan,nan,nan,nan,nan,nan,nan,nan,nan,nan,0.0,nan,nan,nan,nan,nan,nan,nan,nan,nan,nan,nan,nan,nan,nan,nan,nan,nan,nan,129.52342536323704,707.3350143560674,nan,707.6619738868903,nan,nan,nan,nan
1,381,1,1,1.0,1.0,0.45446142880246043,0.0,7,4,6,0,5,8,nan,nan,nan,nan,nan,nan,nan,nan,nan,nan,nan,nan,0.0,nan,nan,nan,nan,nan,nan,nan,nan,nan,nan,nan,nan,nan,nan,nan,nan,nan,nan,129.52342536323704,708.3434765837155,nan,708.797938012518,nan,nan,nan,nan
