block,trial,freq_trials,correct_response,actual_response,acc,rts,probe_trials,fast_rt_trigger,slow_rt_trigger,rt_triggered,rts_runningavg,rts_runningstd,rts_runningfastthresh,rts_runningslowthresh,rts_runningstd,rts_trailingavg,trials_colorind0,trials_colorind1,trials_colorind2,trials_colorind3,trials_colorind4,trials_colorind5,wholereport_resp0,wholereport_resp1,wholereport_resp2,wholereport_resp3,wholereport_resp4,wholereport_resp5,wholereport_respacc0,wholereport_respacc1,wholereport_respacc2,wholereport_respacc3,wholereport_respacc4,wholereport_respacc5,wholereport_respacc_total,wholereport_respcolorind0,wholereport_respcolorind1,wholereport_respcolorind2,wholereport_respcolorind3,wholereport_respcolorind4,wholereport_respcolorind5,wholereport_resporder0,wholereport_resporder1,wholereport_resporder2,wholereport_resporder3,wholereport_resporder4,wholereport_resporder5,wholereport_rts0,wholereport_rts1,wholereport_rts2,wholereport_rts3,wholereport_rts4,wholereport_rts5,time_blockstart,time_encarray_offset,time_encarray_onset,time_response,time_iti_offset,time_iti_onset,time_memprobe_offset,time_memprobe_onset
1,1,1,1,1.0,1.0,0.35660418670158833,0,nan,nan,nan,nan,nan,nan,nan,nan,nan,1,2,8,3,4,0,nan,nan,nan,nan,nan,nan,nan,nan,nan,nan,nan,nan,0.0,nan,nan,nan,nan,nan,nan,nan,nan,nan,nan,nan,nan,nan,nan,nan,nan,nan,nan,560.9011064044898,561.9284794236883,nan,562.2850836103898,nan,nan,nan,nan
1,2,1,1,1.0,1.0,0.36338151281233877,0,nan,nan,nan,nan,nan,nan,nan,nan,nan,1,7,8,6,3,5,nan,nan,nan,nan,nan,nan,nan,nan,nan,nan,nan,nan,0.0,nan,nan,nan,nan,nan,nan,nan,nan,nan,nan,nan,nan,nan,nan,nan,nan,nan,nan,560.9011064044898,562.9536771527492,nan,563.3170586655615,nan,nan,nan,nan
1,3,1,1,1.0,1.0,0.3066221193294041,0,nan,nan,nan,nan,nan,nan,nan,nan,nan,6,5,3,2,0,8,nan,nan,nan,nan,nan,nan,nan,nan,nan,nan,nan,nan,0.0,nan,nan,nan,nan,nan,nan,nan,nan,nan,nan,nan,nan,nan,nan,nan,nan,nan,nan,560.9011064044898,563.9704100664239,nan,564.2770321857533,nan,nan,nan,nan
1,4,1,1,1.0,1.0,0.329469793708995,0,nan,nan,nan,nan,nan,nan,nan,nan,nan,8,4,1,5,3,0,nan,nan,nan,nan,nan,nan,nan,nan,nan,nan,nan,nan,0.0,nan,nan,nan,nan,nan,nan,nan,nan,nan,nan,nan,nan,nan,nan,nan,nan,nan,nan,560.9011064044898,564.9955487803672,nan,565.3250185740762,nan,nan,nan,nan
1,5,1,1,1.0,1.0,0.3126228411565535,0,nan,nan,nan,nan,nan,nan,nan,nan,nan,1,0,6,3,8,7,nan,nan,nan,nan,nan,nan,nan,nan,nan,nan,nan,nan,0.0,nan,nan,nan,nan,nan,nan,nan,nan,nan,nan,nan,nan,nan,nan,nan,nan,nan,nan,560.9011064044898,566.0123672232148,nan,566.3249900643714,nan,nan,nan,nan
1,6,1,1,1.0,1.0,0.3274718337925151,1,nan,nan,nan,nan,nan,nan,nan,nan,nan,5,8,4,6,7,0,1.0,1.0,1.0,1.0,1.0,1.0,0.0,1.0,0.0,0.0,0.0,0.0,1.0,2.0,8.0,6.0,4.0,4.0,2.0,6.0,1.0,2.0,3.0,4.0,5.0,8.290469092899002,2.1172316053998657,4.3086793793481775,5.259148335375357,6.019419667893089,7.498325055057649,560.9011064044898,567.0374905419303,567.8458839689265,567.3649623757228,577.1887590240221,578.1921160413185,568.8626935737557,577.180427634099
1,7,1,1,1.0,1.0,0.4627800151356496,0,nan,nan,nan,nan,nan,nan,nan,nan,nan,8,6,2,1,0,4,nan,nan,nan,nan,nan,nan,nan,nan,nan,nan,nan,nan,0.0,nan,nan,nan,nan,nan,nan,nan,nan,nan,nan,nan,nan,nan,nan,nan,nan,nan,nan,560.9011064044898,578.413952875766,nan,578.8767328909016,nan,nan,nan,nan
1,8,1,1,1.0,1.0,0.42161599826067686,0,nan,nan,nan,nan,nan,nan,nan,nan,nan,3,4,5,6,8,1,nan,nan,nan,nan,nan,nan,nan,nan,nan,nan,nan,nan,0.0,nan,nan,nan,nan,nan,nan,nan,nan,nan,nan,nan,nan,nan,nan,nan,nan,nan,nan,560.9011064044898,579.4390904493048,nan,579.8607064475655,nan,nan,nan,nan
1,9,1,1,1.0,1.0,0.3004720066091977,0,nan,nan,nan,nan,nan,nan,nan,nan,nan,6,1,3,4,7,0,nan,nan,nan,nan,nan,nan,nan,nan,nan,nan,nan,nan,0.0,nan,nan,nan,nan,nan,nan,nan,nan,nan,nan,nan,nan,nan,nan,nan,nan,nan,nan,560.9011064044898,580.464223461342,nan,580.7646954679512,nan,nan,nan,nan
1,10,1,1,1.0,1.0,0.35530614003073424,0,nan,nan,nan,nan,nan,nan,nan,nan,nan,4,6,7,2,5,3,nan,nan,nan,nan,nan,nan,nan,nan,nan,nan,nan,nan,0.0,nan,nan,nan,nan,nan,nan,nan,nan,nan,nan,nan,nan,nan,nan,nan,nan,nan,nan,560.9011064044898,581.4893581839278,nan,581.8446643239586,nan,nan,nan,nan
1,11,1,1,1.0,1.0,0.4584824627963826,0,nan,nan,nan,nan,nan,nan,nan,nan,nan,0,7,5,1,4,8,nan,nan,nan,nan,nan,nan,nan,nan,nan,nan,nan,nan,0.0,nan,nan,nan,nan,nan,nan,nan,nan,nan,nan,nan,nan,nan,nan,nan,nan,nan,nan,560.9011064044898,582.5061660781503,nan,582.9646485409467,nan,nan,nan,nan
1,12,1,1,1.0,1.0,0.5693478519679047,0,nan,nan,nan,nan,nan,nan,nan,nan,nan,1,5,7,8,0,2,nan,nan,nan,nan,nan,nan,nan,nan,nan,nan,nan,nan,0.0,nan,nan,nan,nan,nan,nan,nan,nan,nan,nan,nan,nan,nan,nan,nan,nan,nan,nan,560.9011064044898,583.5312814141507,nan,584.1006292661186,nan,nan,nan,nan
1,13,1,1,1.0,1.0,0.5041732499958016,0,nan,nan,nan,nan,nan,nan,nan,nan,nan,5,7,1,2,3,6,nan,nan,nan,nan,nan,nan,nan,nan,nan,nan,nan,nan,0.0,nan,nan,nan,nan,nan,nan,nan,nan,nan,nan,nan,nan,nan,nan,nan,nan,nan,nan,560.9011064044898,584.5564244045527,nan,585.0605976545485,nan,nan,nan,nan
1,14,1,1,1.0,1.0,0.375018032384105,0,nan,nan,nan,nan,nan,nan,nan,nan,nan,3,5,4,8,6,2,nan,nan,nan,nan,nan,nan,nan,nan,nan,nan,nan,nan,0.0,nan,nan,nan,nan,nan,nan,nan,nan,nan,nan,nan,nan,nan,nan,nan,nan,nan,nan,560.9011064044898,585.5815625482937,nan,585.9565805806778,nan,nan,nan,nan
1,15,1,1,1.0,1.0,0.3738836313714273,0,nan,nan,nan,nan,nan,nan,nan,nan,nan,6,1,2,4,0,5,nan,nan,nan,nan,nan,nan,nan,nan,nan,nan,nan,nan,0.0,nan,nan,nan,nan,nan,nan,nan,nan,nan,nan,nan,nan,nan,nan,nan,nan,nan,nan,560.9011064044898,586.6066847266047,nan,586.9805683579762,nan,nan,nan,nan
1,16,1,1,1.0,1.0,0.39671591052319854,0,nan,nan,nan,nan,nan,nan,nan,nan,nan,0,2,7,6,4,3,nan,nan,nan,nan,nan,nan,nan,nan,nan,nan,nan,nan,0.0,nan,nan,nan,nan,nan,nan,nan,nan,nan,nan,nan,nan,nan,nan,nan,nan,nan,nan,560.9011064044898,587.6318294276134,nan,588.0285453381366,nan,nan,nan,nan
1,17,1,1,1.0,1.0,0.3858779477304779,0,nan,nan,nan,nan,nan,nan,nan,nan,nan,1,6,5,3,8,0,nan,nan,nan,nan,nan,nan,nan,nan,nan,nan,nan,nan,0.0,nan,nan,nan,nan,nan,nan,nan,nan,nan,nan,nan,nan,nan,nan,nan,nan,nan,nan,560.9011064044898,588.6986356397392,nan,589.0845135874697,nan,nan,nan,nan
1,18,1,1,1.0,1.0,0.37672348268097267,0,nan,nan,nan,nan,nan,nan,nan,nan,nan,6,2,8,7,0,5,nan,nan,nan,nan,nan,nan,nan,nan,nan,nan,nan,nan,0.0,nan,nan,nan,nan,nan,nan,nan,nan,nan,nan,nan,nan,nan,nan,nan,nan,nan,nan,560.9011064044898,589.7237723580329,nan,590.1004958407138,nan,nan,nan,nan
1,19,0,0,1.0,0.0,0.3675966721493751,0,0.0,0.0,0.0,nan,nan,nan,nan,nan,nan,8,6,5,4,1,2,nan,nan,nan,nan,nan,nan,nan,nan,nan,nan,nan,nan,0.0,nan,nan,nan,nan,nan,nan,nan,nan,nan,nan,nan,nan,nan,nan,nan,nan,nan,nan,560.9011064044898,590.7488931108383,nan,591.1164897829876,nan,nan,nan,nan
1,20,1,1,0.0,0.0,0.558440895692911,0,0.0,0.0,0.0,nan,nan,nan,nan,nan,nan,5,3,7,6,0,1,nan,nan,nan,nan,nan,nan,nan,nan,nan,nan,nan,nan,0.0,nan,nan,nan,nan,nan,nan,nan,nan,nan,nan,nan,nan,nan,nan,nan,nan,nan,nan,560.9011064044898,591.7740175699582,nan,592.3324584656511,nan,nan,nan,nan
1,21,1,1,1.0,1.0,0.4452773395460099,0,nan,nan,nan,nan,nan,nan,nan,nan,nan,2,1,0,4,5,3,nan,nan,nan,nan,nan,nan,nan,nan,nan,nan,nan,nan,0.0,nan,nan,nan,nan,nan,nan,nan,nan,nan,nan,nan,nan,nan,nan,nan,nan,nan,nan,560.9011064044898,592.7991611305624,nan,593.2444384701084,nan,nan,nan,nan
1,22,1,1,1.0,1.0,0.45213278220035136,0,nan,nan,nan,nan,nan,nan,nan,nan,nan,0,4,1,3,7,2,nan,nan,nan,nan,nan,nan,nan,nan,nan,nan,nan,nan,0.0,nan,nan,nan,nan,nan,nan,nan,nan,nan,nan,nan,nan,nan,nan,nan,nan,nan,nan,560.9011064044898,593.8242935723974,nan,594.2764263545978,nan,nan,nan,nan
1,23,1,1,1.0,1.0,0.3629530120524578,0,nan,nan,nan,nan,nan,nan,nan,nan,nan,3,7,6,0,2,8,nan,nan,nan,nan,nan,nan,nan,nan,nan,nan,nan,nan,0.0,nan,nan,nan,nan,nan,nan,nan,nan,nan,nan,nan,nan,nan,nan,nan,nan,nan,nan,560.9011064044898,594.8494297204306,nan,595.2123827324831,nan,nan,nan,nan
1,24,1,1,1.0,1.0,0.3138225293951109,1,nan,nan,nan,nan,nan,nan,nan,nan,nan,8,5,2,3,0,1,1.0,1.0,1.0,1.0,1.0,1.0,1.0,1.0,0.0,0.0,0.0,0.0,2.0,8.0,5.0,7.0,8.0,8.0,8.0,6.0,1.0,2.0,3.0,4.0,5.0,8.18863386643352,2.2442394723766483,4.333288383029867,5.725187864678446,6.413709973101504,7.348641427233815,560.9011064044898,595.87456073676,596.6829758312088,596.1883832661551,605.9341756619397,606.9423462571576,597.7081102686934,605.9258468379267
1,25,1,1,1.0,1.0,0.4844462475157343,0,nan,nan,nan,nan,nan,nan,nan,nan,nan,4,0,5,1,2,6,nan,nan,nan,nan,nan,nan,nan,nan,nan,nan,nan,nan,0.0,nan,nan,nan,nan,nan,nan,nan,nan,nan,nan,nan,nan,nan,nan,nan,nan,nan,nan,560.9011064044898,607.1677011887077,nan,607.6521474362235,nan,nan,nan,nan
1,26,1,1,1.0,1.0,0.36326319753425196,0,nan,nan,nan,nan,nan,nan,nan,nan,nan,6,4,1,5,7,0,nan,nan,nan,nan,nan,nan,nan,nan,nan,nan,nan,nan,0.0,nan,nan,nan,nan,nan,nan,nan,nan,nan,nan,nan,nan,nan,nan,nan,nan,nan,nan,560.9011064044898,608.1928447493119,nan,608.5561079468462,nan,nan,nan,nan
1,27,0,0,0.0,1.0,0.5221141197835095,0,nan,nan,nan,nan,nan,nan,nan,nan,nan,8,5,7,3,1,6,nan,nan,nan,nan,nan,nan,nan,nan,nan,nan,nan,nan,0.0,nan,nan,nan,nan,nan,nan,nan,nan,nan,nan,nan,nan,nan,nan,nan,nan,nan,nan,560.9011064044898,609.2179746252368,nan,609.7400887450203,nan,nan,nan,nan
1,28,1,1,1.0,1.0,0.45695462793810293,0,nan,nan,nan,nan,nan,nan,nan,nan,nan,1,8,6,4,3,7,nan,nan,nan,nan,nan,nan,nan,nan,nan,nan,nan,nan,0.0,nan,nan,nan,nan,nan,nan,nan,nan,nan,nan,nan,nan,nan,nan,nan,nan,nan,nan,560.9011064044898,610.2431139093824,nan,610.7000685373205,nan,nan,nan,nan
1,29,1,1,1.0,1.0,0.37582457181997597,0,nan,nan,nan,nan,nan,nan,nan,nan,nan,7,3,0,2,8,1,nan,nan,nan,nan,nan,nan,nan,nan,nan,nan,nan,nan,0.0,nan,nan,nan,nan,nan,nan,nan,nan,nan,nan,nan,nan,nan,nan,nan,nan,nan,nan,560.9011064044898,611.2682369429967,nan,611.6440615148167,nan,nan,nan,nan
1,30,0,0,0.0,1.0,0.5426619165809825,0,nan,nan,nan,nan,nan,nan,nan,nan,nan,2,0,1,5,3,7,nan,nan,nan,nan,nan,nan,nan,nan,nan,nan,nan,nan,0.0,nan,nan,nan,nan,nan,nan,nan,nan,nan,nan,nan,nan,nan,nan,nan,nan,nan,nan,560.9011064044898,612.2933713804814,nan,612.8360332970624,nan,nan,nan,nan
1,31,1,1,1.0,1.0,0.38949297775980085,0,nan,nan,nan,nan,nan,nan,nan,nan,nan,6,5,8,4,7,3,nan,nan,nan,nan,nan,nan,nan,nan,nan,nan,nan,nan,0.0,nan,nan,nan,nan,nan,nan,nan,nan,nan,nan,nan,nan,nan,nan,nan,nan,nan,nan,560.9011064044898,613.3185197877465,nan,613.7080127655063,nan,nan,nan,nan
1,32,1,1,1.0,1.0,0.3563430378562771,0,nan,nan,nan,nan,nan,nan,nan,nan,nan,1,7,4,3,0,6,nan,nan,nan,nan,nan,nan,nan,nan,nan,nan,nan,nan,0.0,nan,nan,nan,nan,nan,nan,nan,nan,nan,nan,nan,nan,nan,nan,nan,nan,nan,nan,560.9011064044898,614.3436413958552,nan,614.6999844337115,nan,nan,nan,nan
1,33,0,0,0.0,1.0,0.44320553954457864,0,nan,nan,nan,nan,nan,nan,nan,nan,nan,0,8,6,2,7,3,nan,nan,nan,nan,nan,nan,nan,nan,nan,nan,nan,nan,0.0,nan,nan,nan,nan,nan,nan,nan,nan,nan,nan,nan,nan,nan,nan,nan,nan,nan,nan,560.9011064044898,615.3687667102786,nan,615.8119722498232,nan,nan,nan,nan
1,34,1,1,1.0,1.0,0.40203952696174383,0,nan,nan,nan,nan,nan,nan,nan,nan,nan,3,5,8,1,6,7,nan,nan,nan,nan,nan,nan,nan,nan,nan,nan,nan,nan,0.0,nan,nan,nan,nan,nan,nan,nan,nan,nan,nan,nan,nan,nan,nan,nan,nan,nan,nan,560.9011064044898,616.3939259512117,nan,616.7959654781735,nan,nan,nan,nan
1,35,1,1,1.0,1.0,0.5129014949779958,0,nan,nan,nan,nan,nan,nan,nan,nan,nan,1,6,7,8,2,3,nan,nan,nan,nan,nan,nan,nan,nan,nan,nan,nan,nan,0.0,nan,nan,nan,nan,nan,nan,nan,nan,nan,nan,nan,nan,nan,nan,nan,nan,nan,nan,560.9011064044898,617.4190190496156,nan,617.9319205445936,nan,nan,nan,nan
1,36,1,1,0.0,0.0,0.4957454973482527,0,0.0,0.0,0.0,nan,nan,nan,nan,nan,nan,0,4,6,3,8,1,nan,nan,nan,nan,nan,nan,nan,nan,nan,nan,nan,nan,0.0,nan,nan,nan,nan,nan,nan,nan,nan,nan,nan,nan,nan,nan,nan,nan,nan,nan,nan,560.9011064044898,618.4441700227326,nan,618.9399155200808,nan,nan,nan,nan
1,37,1,1,1.0,1.0,0.4785966270719655,0,nan,nan,nan,nan,nan,nan,nan,nan,nan,7,3,5,4,2,0,nan,nan,nan,nan,nan,nan,nan,nan,nan,nan,nan,nan,0.0,nan,nan,nan,nan,nan,nan,nan,nan,nan,nan,nan,nan,nan,nan,nan,nan,nan,nan,560.9011064044898,619.4692944818526,nan,619.9478911089245,nan,nan,nan,nan
1,38,1,1,1.0,1.0,0.4774137595668435,0,nan,nan,nan,nan,nan,nan,nan,nan,nan,6,7,4,1,5,8,nan,nan,nan,nan,nan,nan,nan,nan,nan,nan,nan,nan,0.0,nan,nan,nan,nan,nan,nan,nan,nan,nan,nan,nan,nan,nan,nan,nan,nan,nan,nan,560.9011064044898,620.4944457400707,nan,620.9718594996375,nan,nan,nan,nan
1,39,1,1,1.0,1.0,0.38059281930327415,0,nan,nan,nan,nan,nan,nan,nan,nan,nan,4,6,1,0,3,5,nan,nan,nan,nan,nan,nan,nan,nan,nan,nan,nan,nan,0.0,nan,nan,nan,nan,nan,nan,nan,nan,nan,nan,nan,nan,nan,nan,nan,nan,nan,nan,560.9011064044898,621.511250498239,nan,621.8918433175422,nan,nan,nan,nan
1,40,1,1,1.0,1.0,0.35544526734156534,0,nan,nan,nan,nan,nan,nan,nan,nan,nan,8,4,5,7,0,3,nan,nan,nan,nan,nan,nan,nan,nan,nan,nan,nan,nan,0.0,nan,nan,nan,nan,nan,nan,nan,nan,nan,nan,nan,nan,nan,nan,nan,nan,nan,nan,560.9011064044898,622.5363766679075,nan,622.891821935249,nan,nan,nan,nan
1,41,1,1,1.0,1.0,0.32229390199063346,0,nan,nan,nan,nan,nan,nan,nan,nan,nan,0,7,8,1,3,6,nan,nan,nan,nan,nan,nan,nan,nan,nan,nan,nan,nan,0.0,nan,nan,nan,nan,nan,nan,nan,nan,nan,nan,nan,nan,nan,nan,nan,nan,nan,nan,560.9011064044898,623.5615091096843,nan,623.8838030116749,nan,nan,nan,nan
1,42,1,1,1.0,1.0,0.32914506818633527,0,nan,nan,nan,nan,nan,nan,nan,nan,nan,8,0,2,7,6,1,nan,nan,nan,nan,nan,nan,nan,nan,nan,nan,nan,nan,0.0,nan,nan,nan,nan,nan,nan,nan,nan,nan,nan,nan,nan,nan,nan,nan,nan,nan,nan,560.9011064044898,624.5866455428768,nan,624.9157906110631,nan,nan,nan,nan
1,43,1,1,1.0,1.0,0.33598939212970436,0,nan,nan,nan,nan,nan,nan,nan,nan,nan,2,1,6,5,4,3,nan,nan,nan,nan,nan,nan,nan,nan,nan,nan,nan,nan,0.0,nan,nan,nan,nan,nan,nan,nan,nan,nan,nan,nan,nan,nan,nan,nan,nan,nan,nan,560.9011064044898,625.6117725678487,nan,625.9477619599784,nan,nan,nan,nan
1,44,1,1,1.0,1.0,0.3268277996685356,0,nan,nan,nan,nan,nan,nan,nan,nan,nan,0,6,5,4,3,8,nan,nan,nan,nan,nan,nan,nan,nan,nan,nan,nan,nan,0.0,nan,nan,nan,nan,nan,nan,nan,nan,nan,nan,nan,nan,nan,nan,nan,nan,nan,nan,560.9011064044898,626.6369127072976,nan,626.9637405069661,nan,nan,nan,nan
1,45,1,1,1.0,1.0,0.33367811067728326,0,nan,nan,nan,nan,nan,nan,nan,nan,nan,5,0,2,7,1,6,nan,nan,nan,nan,nan,nan,nan,nan,nan,nan,nan,nan,0.0,nan,nan,nan,nan,nan,nan,nan,nan,nan,nan,nan,nan,nan,nan,nan,nan,nan,nan,560.9011064044898,627.6620505659375,nan,627.9957286766148,nan,nan,nan,nan
1,46,1,1,1.0,1.0,0.3245347644551657,0,nan,nan,nan,nan,nan,nan,nan,nan,nan,0,1,8,2,7,5,nan,nan,nan,nan,nan,nan,nan,nan,nan,nan,nan,nan,0.0,nan,nan,nan,nan,nan,nan,nan,nan,nan,nan,nan,nan,nan,nan,nan,nan,nan,nan,560.9011064044898,628.687168752891,nan,629.0117035173462,nan,nan,nan,nan
1,47,1,1,1.0,1.0,0.395319220260717,0,nan,nan,nan,nan,nan,nan,nan,nan,nan,4,8,3,1,0,7,nan,nan,nan,nan,nan,nan,nan,nan,nan,nan,nan,nan,0.0,nan,nan,nan,nan,nan,nan,nan,nan,nan,nan,nan,nan,nan,nan,nan,nan,nan,nan,560.9011064044898,629.7123545078794,nan,630.1076737281401,nan,nan,nan,nan
1,48,1,1,1.0,1.0,0.4662137235281989,1,nan,nan,nan,nan,nan,nan,nan,nan,nan,1,3,0,6,5,2,1.0,1.0,1.0,1.0,1.0,1.0,0.0,0.0,1.0,0.0,0.0,1.0,2.0,5.0,7.0,0.0,7.0,7.0,2.0,3.0,4.0,1.0,5.0,6.0,2.0,4.877149987791199,6.309560043970123,2.06226262106793,7.357038389425725,8.540556190069765,3.7175472648232244,560.9011064044898,630.7374450404313,631.5458726790966,631.2036587639595,641.1470960873994,642.1508844564669,632.570992861758,641.1387752460432
1,49,0,0,0.0,1.0,0.4871355675859377,0,nan,nan,nan,nan,nan,nan,nan,nan,nan,7,8,5,4,1,3,nan,nan,nan,nan,nan,nan,nan,nan,nan,nan,nan,nan,0.0,nan,nan,nan,nan,nan,nan,nan,nan,nan,nan,nan,nan,nan,nan,nan,nan,nan,nan,560.9011064044898,642.3722887987387,nan,642.8594243663247,nan,nan,nan,nan
1,50,1,1,1.0,1.0,0.46198117337189615,0,nan,nan,nan,nan,nan,nan,nan,nan,nan,1,0,2,6,3,7,nan,nan,nan,nan,nan,nan,nan,nan,nan,nan,nan,nan,0.0,nan,nan,nan,nan,nan,nan,nan,nan,nan,nan,nan,nan,nan,nan,nan,nan,nan,nan,560.9011064044898,643.3974255169742,nan,643.8594066903461,nan,nan,nan,nan
1,51,1,1,1.0,1.0,0.34081722487462685,0,nan,nan,nan,nan,nan,nan,nan,nan,nan,3,7,1,2,4,5,nan,nan,nan,nan,nan,nan,nan,nan,nan,nan,nan,nan,0.0,nan,nan,nan,nan,nan,nan,nan,nan,nan,nan,nan,nan,nan,nan,nan,nan,nan,nan,560.9011064044898,644.4225556780002,nan,644.7633729028748,nan,nan,nan,nan
1,52,1,1,1.0,1.0,0.3156685325666331,0,nan,nan,nan,nan,nan,nan,nan,nan,nan,6,5,2,1,8,7,nan,nan,nan,nan,nan,nan,nan,nan,nan,nan,nan,nan,0.0,nan,nan,nan,nan,nan,nan,nan,nan,nan,nan,nan,nan,nan,nan,nan,nan,nan,nan,560.9011064044898,645.4477120679803,nan,645.763380600547,nan,nan,nan,nan
1,53,1,1,1.0,1.0,0.31452500843442976,0,nan,nan,nan,nan,nan,nan,nan,nan,nan,0,8,5,6,1,3,nan,nan,nan,nan,nan,nan,nan,nan,nan,nan,nan,nan,0.0,nan,nan,nan,nan,nan,nan,nan,nan,nan,nan,nan,nan,nan,nan,nan,nan,nan,nan,560.9011064044898,646.472814859706,nan,646.7873398681404,nan,nan,nan,nan
1,54,1,1,1.0,1.0,0.3053676924901083,0,nan,nan,nan,nan,nan,nan,nan,nan,nan,1,5,3,4,0,7,nan,nan,nan,nan,nan,nan,nan,nan,nan,nan,nan,nan,0.0,nan,nan,nan,nan,nan,nan,nan,nan,nan,nan,nan,nan,nan,nan,nan,nan,nan,nan,560.9011064044898,647.4979487269884,nan,647.8033164194785,nan,nan,nan,nan
1,55,1,1,1.0,1.0,0.32819541002390906,0,nan,nan,nan,nan,nan,nan,nan,nan,nan,8,4,7,0,1,6,nan,nan,nan,nan,nan,nan,nan,nan,nan,nan,nan,nan,0.0,nan,nan,nan,nan,nan,nan,nan,nan,nan,nan,nan,nan,nan,nan,nan,nan,nan,nan,560.9011064044898,648.523106257373,nan,648.8513016673969,nan,nan,nan,nan
1,56,1,1,1.0,1.0,0.36704415414715186,0,nan,nan,nan,nan,nan,nan,nan,nan,nan,4,1,8,2,7,3,nan,nan,nan,nan,nan,nan,nan,nan,nan,nan,nan,nan,0.0,nan,nan,nan,nan,nan,nan,nan,nan,nan,nan,nan,nan,nan,nan,nan,nan,nan,nan,560.9011064044898,649.548236418399,nan,649.9152805725462,nan,nan,nan,nan
1,57,1,1,1.0,1.0,0.3258607506286353,0,nan,nan,nan,nan,nan,nan,nan,nan,nan,0,2,1,5,8,4,nan,nan,nan,nan,nan,nan,nan,nan,nan,nan,nan,nan,0.0,nan,nan,nan,nan,nan,nan,nan,nan,nan,nan,nan,nan,nan,nan,nan,nan,nan,nan,560.9011064044898,650.5733856809675,nan,650.8992464315961,nan,nan,nan,nan
1,58,1,1,1.0,1.0,0.35673561645671725,0,nan,nan,nan,nan,nan,nan,nan,nan,nan,1,7,6,8,5,0,nan,nan,nan,nan,nan,nan,nan,nan,nan,nan,nan,nan,0.0,nan,nan,nan,nan,nan,nan,nan,nan,nan,nan,nan,nan,nan,nan,nan,nan,nan,nan,560.9011064044898,651.5984981659567,nan,651.9552337824134,nan,nan,nan,nan
1,59,1,1,1.0,1.0,0.3876321495627053,0,nan,nan,nan,nan,nan,nan,nan,nan,nan,4,5,2,0,7,3,nan,nan,nan,nan,nan,nan,nan,nan,nan,nan,nan,nan,0.0,nan,nan,nan,nan,nan,nan,nan,nan,nan,nan,nan,nan,nan,nan,nan,nan,nan,nan,560.9011064044898,652.6236308928928,nan,653.0112630424555,nan,nan,nan,nan
1,60,1,1,1.0,1.0,0.3944240156561136,0,nan,nan,nan,nan,nan,nan,nan,nan,nan,1,0,7,8,6,2,nan,nan,nan,nan,nan,nan,nan,nan,nan,nan,nan,nan,0.0,nan,nan,nan,nan,nan,nan,nan,nan,nan,nan,nan,nan,nan,nan,nan,nan,nan,nan,560.9011064044898,653.6487676111865,nan,654.0431916268426,nan,nan,nan,nan
1,61,1,1,1.0,1.0,0.35330333351157606,0,nan,nan,nan,nan,nan,nan,nan,nan,nan,3,8,4,0,2,7,nan,nan,nan,nan,nan,nan,nan,nan,nan,nan,nan,nan,0.0,nan,nan,nan,nan,nan,nan,nan,nan,nan,nan,nan,nan,nan,nan,nan,nan,nan,nan,560.9011064044898,654.6738612797926,nan,655.0271646133042,nan,nan,nan,nan
1,62,0,0,1.0,0.0,0.456108174927067,0,0.0,0.0,0.0,nan,nan,nan,nan,nan,nan,2,1,6,3,7,5,nan,nan,nan,nan,nan,nan,nan,nan,nan,nan,nan,nan,0.0,nan,nan,nan,nan,nan,nan,nan,nan,nan,nan,nan,nan,nan,nan,nan,nan,nan,nan,560.9011064044898,655.6990393371088,nan,656.1551475120359,nan,nan,nan,nan
1,63,1,1,1.0,1.0,0.3909481129376218,0,nan,nan,nan,nan,nan,nan,nan,nan,nan,3,2,7,6,1,8,nan,nan,nan,nan,nan,nan,nan,nan,nan,nan,nan,nan,0.0,nan,nan,nan,nan,nan,nan,nan,nan,nan,nan,nan,nan,nan,nan,nan,nan,nan,nan,560.9011064044898,656.7241703534382,nan,657.1151184663759,nan,nan,nan,nan
1,64,1,1,1.0,1.0,0.35781128745293245,0,nan,nan,nan,nan,nan,nan,nan,nan,nan,5,3,1,0,8,6,nan,nan,nan,nan,nan,nan,nan,nan,nan,nan,nan,nan,0.0,nan,nan,nan,nan,nan,nan,nan,nan,nan,nan,nan,nan,nan,nan,nan,nan,nan,nan,560.9011064044898,657.7492948125582,nan,658.1071061000112,nan,nan,nan,nan
1,65,1,1,1.0,1.0,0.3326506210141815,0,nan,nan,nan,nan,nan,nan,nan,nan,nan,4,5,0,2,1,7,nan,nan,nan,nan,nan,nan,nan,nan,nan,nan,nan,nan,0.0,nan,nan,nan,nan,nan,nan,nan,nan,nan,nan,nan,nan,nan,nan,nan,nan,nan,nan,560.9011064044898,658.7744329562993,nan,659.1070835773135,nan,nan,nan,nan
1,66,1,1,1.0,1.0,0.41148735681781545,0,nan,nan,nan,nan,nan,nan,nan,nan,nan,7,4,8,6,0,2,nan,nan,nan,nan,nan,nan,nan,nan,nan,nan,nan,nan,0.0,nan,nan,nan,nan,nan,nan,nan,nan,nan,nan,nan,nan,nan,nan,nan,nan,nan,nan,560.9011064044898,659.7995653981343,nan,660.2110527549521,nan,nan,nan,nan
1,67,1,1,1.0,1.0,0.38634208566509187,0,nan,nan,nan,nan,nan,nan,nan,nan,nan,3,5,2,7,8,1,nan,nan,nan,nan,nan,nan,nan,nan,nan,nan,nan,nan,0.0,nan,nan,nan,nan,nan,nan,nan,nan,nan,nan,nan,nan,nan,nan,nan,nan,nan,nan,560.9011064044898,660.8246981250122,nan,661.2110402106773,nan,nan,nan,nan
1,68,1,1,1.0,1.0,0.40919717255746946,0,nan,nan,nan,nan,nan,nan,nan,nan,nan,0,4,7,5,2,6,nan,nan,nan,nan,nan,nan,nan,nan,nan,nan,nan,nan,0.0,nan,nan,nan,nan,nan,nan,nan,nan,nan,nan,nan,nan,nan,nan,nan,nan,nan,nan,560.9011064044898,661.8498294264427,nan,662.2590265990002,nan,nan,nan,nan
1,69,1,1,1.0,1.0,0.480022112140432,1,nan,nan,nan,nan,nan,nan,nan,nan,nan,1,7,2,0,4,5,1.0,1.0,1.0,1.0,1.0,1.0,0.0,1.0,1.0,0.0,0.0,0.0,2.0,0.0,7.0,2.0,1.0,1.0,1.0,3.0,2.0,1.0,6.0,5.0,4.0,4.6108020976535045,2.8031430804985575,1.891004562145099,7.378611680236645,6.347078525403049,5.674670955282636,560.9011064044898,662.8749721317436,663.6833826646325,663.354994243884,672.1261383210658,673.1318468185491,664.7085196679691,672.1178015143378
1,70,1,1,1.0,1.0,0.37945442693307996,0,nan,nan,nan,nan,nan,nan,nan,nan,nan,6,2,8,5,1,4,nan,nan,nan,nan,nan,nan,nan,nan,nan,nan,nan,nan,0.0,nan,nan,nan,nan,nan,nan,nan,nan,nan,nan,nan,nan,nan,nan,nan,nan,nan,nan,560.9011064044898,673.3513321728096,nan,673.7307865997427,nan,nan,nan,nan
1,71,1,1,1.0,1.0,0.41831771098077297,0,nan,nan,nan,nan,nan,nan,nan,nan,nan,7,4,2,8,3,6,nan,nan,nan,nan,nan,nan,nan,nan,nan,nan,nan,nan,0.0,nan,nan,nan,nan,nan,nan,nan,nan,nan,nan,nan,nan,nan,nan,nan,nan,nan,nan,560.9011064044898,674.3764460833045,nan,674.7947637942852,nan,nan,nan,nan
1,72,1,1,1.0,1.0,0.5931257979245856,0,nan,nan,nan,nan,nan,nan,nan,nan,nan,0,6,5,2,8,1,nan,nan,nan,nan,nan,nan,nan,nan,nan,nan,nan,nan,0.0,nan,nan,nan,nan,nan,nan,nan,nan,nan,nan,nan,nan,nan,nan,nan,nan,nan,nan,560.9011064044898,675.4016030434868,nan,675.9947288414114,nan,nan,nan,nan
1,73,1,1,1.0,1.0,0.39198757661506534,0,nan,nan,nan,nan,nan,nan,nan,nan,nan,2,8,1,4,6,5,nan,nan,nan,nan,nan,nan,nan,nan,nan,nan,nan,nan,0.0,nan,nan,nan,nan,nan,nan,nan,nan,nan,nan,nan,nan,nan,nan,nan,nan,nan,nan,560.9011064044898,676.4267292131553,nan,676.8187167897704,nan,nan,nan,nan
1,74,1,1,1.0,1.0,0.270839593547862,0,nan,nan,nan,nan,nan,nan,nan,nan,nan,8,6,0,3,2,4,nan,nan,nan,nan,nan,nan,nan,nan,nan,nan,nan,nan,0.0,nan,nan,nan,nan,nan,nan,nan,nan,nan,nan,nan,nan,nan,nan,nan,nan,nan,nan,560.9011064044898,677.4518702079076,nan,677.7227098014555,nan,nan,nan,nan
1,75,1,1,1.0,1.0,0.32568741170689464,0,nan,nan,nan,nan,nan,nan,nan,nan,nan,1,2,5,6,7,0,nan,nan,nan,nan,nan,nan,nan,nan,nan,nan,nan,nan,0.0,nan,nan,nan,nan,nan,nan,nan,nan,nan,nan,nan,nan,nan,nan,nan,nan,nan,nan,560.9011064044898,678.4770017943811,nan,678.802689206088,nan,nan,nan,nan
1,76,1,1,1.0,1.0,0.3085066105122678,0,nan,nan,nan,nan,nan,nan,nan,nan,nan,7,3,0,1,6,8,nan,nan,nan,nan,nan,nan,nan,nan,nan,nan,nan,nan,0.0,nan,nan,nan,nan,nan,nan,nan,nan,nan,nan,nan,nan,nan,nan,nan,nan,nan,nan,560.9011064044898,679.5021476357942,nan,679.8106542463065,nan,nan,nan,nan
1,77,1,1,1.0,1.0,0.35541077062953264,0,nan,nan,nan,nan,nan,nan,nan,nan,nan,6,5,1,4,7,3,nan,nan,nan,nan,nan,nan,nan,nan,nan,nan,nan,nan,0.0,nan,nan,nan,nan,nan,nan,nan,nan,nan,nan,nan,nan,nan,nan,nan,nan,nan,nan,560.9011064044898,680.5272384534474,nan,680.8826492240769,nan,nan,nan,nan
1,78,1,1,1.0,1.0,0.30620217142859474,0,nan,nan,nan,nan,nan,nan,nan,nan,nan,4,6,3,8,1,7,nan,nan,nan,nan,nan,nan,nan,nan,nan,nan,nan,nan,0.0,nan,nan,nan,nan,nan,nan,nan,nan,nan,nan,nan,nan,nan,nan,nan,nan,nan,nan,560.9011064044898,681.5524053919944,nan,681.858607563423,nan,nan,nan,nan
1,79,0,0,0.0,1.0,0.49705637333681807,0,nan,nan,nan,nan,nan,nan,nan,nan,nan,7,3,1,6,4,2,nan,nan,nan,nan,nan,nan,nan,nan,nan,nan,nan,nan,0.0,nan,nan,nan,nan,nan,nan,nan,nan,nan,nan,nan,nan,nan,nan,nan,nan,nan,nan,560.9011064044898,682.577536978526,nan,683.0745933518629,nan,nan,nan,nan
1,80,1,1,1.0,1.0,0.4398713300470263,0,nan,nan,nan,nan,nan,nan,nan,nan,nan,4,8,6,0,1,5,nan,nan,nan,nan,nan,nan,nan,nan,nan,nan,nan,nan,0.0,nan,nan,nan,nan,nan,nan,nan,nan,nan,nan,nan,nan,nan,nan,nan,nan,nan,nan,560.9011064044898,683.602690802596,nan,684.0425621326431,nan,nan,nan,nan
1,81,1,1,1.0,1.0,0.5107584207435139,0,0.0,0.0,0.0,0.394969409803889,0.07183968395044378,0.32312972585344524,0.46680909375433277,0.07183968395044378,0.48256204137578607,1,0,5,8,6,7,nan,nan,nan,nan,nan,nan,nan,nan,nan,nan,nan,nan,0.0,nan,nan,nan,nan,nan,nan,nan,nan,nan,nan,nan,nan,nan,nan,nan,nan,nan,nan,560.9011064044898,684.627794164524,nan,685.1385525852675,nan,nan,nan,nan
1,82,1,1,1.0,1.0,0.437580575584434,0,0.0,0.0,0.0,0.3963989037661066,0.07253069087050039,0.3238682128956062,0.468929594636607,0.07253069087050039,0.4627367754583247,7,2,4,5,0,1,nan,nan,nan,nan,nan,nan,nan,nan,nan,nan,nan,nan,0.0,nan,nan,nan,nan,nan,nan,nan,nan,nan,nan,nan,nan,nan,nan,nan,nan,nan,nan,560.9011064044898,685.6529522650526,nan,686.090532840637,nan,nan,nan,nan
1,83,1,1,1.0,1.0,0.4044309207238257,0,0.0,0.0,0.0,0.3969011192760862,0.07222863753638786,0.3246724817396983,0.46912975681247404,0.07222863753638786,0.4509233056839245,1,3,0,6,7,2,nan,nan,nan,nan,nan,nan,nan,nan,nan,nan,nan,nan,0.0,nan,nan,nan,nan,nan,nan,nan,nan,nan,nan,nan,nan,nan,nan,nan,nan,nan,nan,560.9011064044898,686.678083281382,nan,687.0825142021058,nan,nan,nan,nan
1,84,0,0,0.0,1.0,0.6192720446852036,0,0.0,0.0,0.0,0.39699183977545655,0.0717969067857595,0.32519493298969704,0.46878874656121605,0.0717969067857595,0.48709451366448775,7,4,2,8,1,6,nan,nan,nan,nan,nan,nan,nan,nan,nan,nan,nan,nan,0.0,nan,nan,nan,nan,nan,nan,nan,nan,nan,nan,nan,nan,nan,nan,nan,nan,nan,nan,560.9011064044898,687.7032125871629,nan,688.322484631848,nan,nan,nan,nan
1,85,1,1,1.0,1.0,0.4901162568712607,0,0.0,0.0,0.0,0.39963803269104875,0.07533009474049966,0.3243079379505491,0.4749681274315484,0.07533009474049966,0.5046064074267633,0,1,3,2,4,5,nan,nan,nan,nan,nan,nan,nan,nan,nan,nan,nan,nan,0.0,nan,nan,nan,nan,nan,nan,nan,nan,nan,nan,nan,nan,nan,nan,nan,nan,nan,nan,560.9011064044898,688.7283384717302,nan,689.2184547286015,nan,nan,nan,nan
1,86,1,1,1.0,1.0,0.4089722309727222,0,0.0,0.0,0.0,0.40070248238728656,0.07551847036368559,0.325184012023601,0.47622095275097215,0.07551847036368559,0.5061201775097288,4,5,8,6,2,3,nan,nan,nan,nan,nan,nan,nan,nan,nan,nan,nan,nan,0.0,nan,nan,nan,nan,nan,nan,nan,nan,nan,nan,nan,nan,nan,nan,nan,nan,nan,nan,560.9011064044898,689.7534672073089,nan,690.1624394382816,nan,nan,nan,nan
1,87,1,1,1.0,1.0,0.46384912892244756,0,0.0,0.0,0.0,0.4007986422545591,0.07508335984786345,0.3257152824066956,0.47588200210242254,0.07508335984786345,0.45431253892214346,8,7,5,2,4,0,nan,nan,nan,nan,nan,nan,nan,nan,nan,nan,nan,nan,0.0,nan,nan,nan,nan,nan,nan,nan,nan,nan,nan,nan,nan,nan,nan,nan,nan,nan,nan,560.9011064044898,690.7785731350887,nan,691.2424222640111,nan,nan,nan,nan
1,88,1,1,1.0,1.0,0.45465674600563943,0,0.0,0.0,0.0,0.401523360492121,0.07495252211189328,0.3265708383802277,0.4764758826040143,0.07495252211189328,0.4424927019669364,5,0,4,6,3,2,nan,nan,nan,nan,nan,nan,nan,nan,nan,nan,nan,nan,0.0,nan,nan,nan,nan,nan,nan,nan,nan,nan,nan,nan,nan,nan,nan,nan,nan,nan,nan,560.9011064044898,691.8037414991413,nan,692.258398245147,nan,nan,nan,nan
1,89,1,1,1.0,1.0,0.6534933791845106,0,0.0,1.0,0.0,0.40212714896386553,0.07473792734690085,0.3273892216169647,0.47686507631076636,0.07473792734690085,0.5239997513708659,7,8,0,4,6,5,nan,nan,nan,nan,nan,nan,nan,nan,nan,nan,nan,nan,0.0,nan,nan,nan,nan,nan,nan,nan,nan,nan,nan,nan,nan,nan,nan,nan,nan,nan,nan,560.9011064044898,692.8288813534891,nan,693.4823747326736,nan,nan,nan,nan
1,90,0,0,0.0,1.0,0.49235455348389223,1,0.0,0.0,1.0,0.40495148862926605,0.07889843585713512,0.3260530527721309,0.4838499244864012,0.07889843585713512,0.533501559558014,3,6,1,8,7,2,1.0,1.0,1.0,1.0,1.0,1.0,1.0,0.0,1.0,1.0,0.0,1.0,4.0,3.0,2.0,1.0,8.0,2.0,2.0,2.0,4.0,3.0,1.0,6.0,5.0,3.79905935091665,5.9109716162784025,4.928883691201918,2.495063830341678,8.007372038438916,7.127214562264271,560.9011064044898,693.8540100890095,694.6624394382816,694.3463646424934,703.7302566044382,704.736821533239,695.6875593358418,703.7219397544395
1,91,1,1,1.0,1.0,0.4466737447073683,0,0.0,0.0,0.0,0.4059226337943174,0.07899199240462129,0.32693064138969613,0.4849146261989387,0.07899199240462129,0.5308405591252571,6,7,8,2,4,3,nan,nan,nan,nan,nan,nan,nan,nan,nan,nan,nan,nan,0.0,nan,nan,nan,nan,nan,nan,nan,nan,nan,nan,nan,nan,nan,nan,nan,nan,nan,nan,560.9011064044898,704.9554538772791,nan,705.4021276219864,nan,nan,nan,nan
1,92,1,1,1.0,1.0,0.3255212000804022,0,0.0,0.0,0.0,0.4063704481999554,0.07867156249772139,0.327698885702234,0.4850420106976768,0.07867156249772139,0.4215164994238876,3,5,2,7,1,8,nan,nan,nan,nan,nan,nan,nan,nan,nan,nan,nan,nan,0.0,nan,nan,nan,nan,nan,nan,nan,nan,nan,nan,nan,nan,nan,nan,nan,nan,nan,nan,560.9011064044898,705.9805837532622,nan,706.3061049533426,nan,nan,nan,nan
1,93,0,0,1.0,0.0,0.38034706574399024,0,0.0,0.0,0.0,0.4054916520247428,0.0786906500151531,0.3268010020095897,0.4841823020398959,0.0786906500151531,0.3841806701772536,6,2,0,5,8,3,nan,nan,nan,nan,nan,nan,nan,nan,nan,nan,nan,nan,0.0,nan,nan,nan,nan,nan,nan,nan,nan,nan,nan,nan,nan,nan,nan,nan,nan,nan,nan,560.9011064044898,707.0057475556969,nan,707.3860946214409,nan,nan,nan,nan
1,94,1,1,1.0,1.0,0.347216512367595,0,0.0,0.0,0.0,0.40522128012925085,0.0783093908465212,0.32691188928272963,0.48353067097577207,0.0783093908465212,0.3510282593973291,0,8,6,4,3,2,nan,nan,nan,nan,nan,nan,nan,nan,nan,nan,nan,nan,0.0,nan,nan,nan,nan,nan,nan,nan,nan,nan,nan,nan,nan,nan,nan,nan,nan,nan,nan,560.9011064044898,708.0308591854409,nan,708.3780756978085,nan,nan,nan,nan
1,95,1,1,1.0,1.0,0.33004369400441647,0,0.0,0.0,0.0,0.40460420813178644,0.07811872474046724,0.3264854833913192,0.48272293287225365,0.07811872474046724,0.35253575737200055,6,1,3,7,4,5,nan,nan,nan,nan,nan,nan,nan,nan,nan,nan,nan,nan,0.0,nan,nan,nan,nan,nan,nan,nan,nan,nan,nan,nan,nan,nan,nan,nan,nan,nan,nan,560.9011064044898,709.0559984695865,nan,709.3860421635909,nan,nan,nan,nan
1,96,1,1,1.0,1.0,0.32886253704782575,0,0.0,0.0,0.0,0.40381936061465623,0.07807816975110174,0.32574119086355446,0.481897530365758,0.07807816975110174,0.3353742478066124,8,0,5,1,6,3,nan,nan,nan,nan,nan,nan,nan,nan,nan,nan,nan,nan,0.0,nan,nan,nan,nan,nan,nan,nan,nan,nan,nan,nan,nan,nan,nan,nan,nan,nan,nan,560.9011064044898,710.0811577105196,nan,710.4100202475674,nan,nan,nan,nan
1,97,1,1,1.0,1.0,0.31975796399638057,0,0.0,0.0,0.0,0.4030385603691684,0.07804239334748639,0.324996167021682,0.4810809537166548,0.07804239334748639,0.32622139834954095,7,4,6,3,5,2,nan,nan,nan,nan,nan,nan,nan,nan,nan,nan,nan,nan,0.0,nan,nan,nan,nan,nan,nan,nan,nan,nan,nan,nan,nan,nan,nan,nan,nan,nan,nan,560.9011064044898,711.1062556556426,nan,711.426013619639,nan,nan,nan,nan
1,98,1,1,1.0,1.0,0.33460153988562524,0,0.0,0.0,0.0,0.4021799975199644,0.07809346841022506,0.32408652910973934,0.4802734659301895,0.07809346841022506,0.32774068030994385,4,1,3,5,2,0,nan,nan,nan,nan,nan,nan,nan,nan,nan,nan,nan,nan,0.0,nan,nan,nan,nan,nan,nan,nan,nan,nan,nan,nan,nan,nan,nan,nan,nan,nan,nan,560.9011064044898,712.1313935142825,nan,712.4659950541682,nan,nan,nan,nan
1,99,1,1,1.0,1.0,0.3814469699864276,0,0.0,0.0,0.0,0.4014904214216548,0.07799028320271938,0.3235001382189354,0.4794807046243742,0.07799028320271938,0.3452688246228111,6,8,7,4,0,5,nan,nan,nan,nan,nan,nan,nan,nan,nan,nan,nan,nan,0.0,nan,nan,nan,nan,nan,nan,nan,nan,nan,nan,nan,nan,nan,nan,nan,nan,nan,nan,560.9011064044898,713.1565308027202,nan,713.5379777727067,nan,nan,nan,nan
1,100,1,1,1.0,1.0,0.4602985308156349,0,0.0,0.0,0.0,0.40128796231624847,0.07762127304100677,0.32366668927524167,0.47890923535725527,0.07762127304100677,0.3921156802292292,7,6,0,2,5,1,nan,nan,nan,nan,nan,nan,nan,nan,nan,nan,nan,nan,0.0,nan,nan,nan,nan,nan,nan,nan,nan,nan,nan,nan,nan,nan,nan,nan,nan,nan,nan,560.9011064044898,714.1816544065368,nan,714.6419529373525,nan,nan,nan,nan
1,101,1,1,1.0,1.0,0.33913942897925153,0,0.0,0.0,0.0,0.4018780680012424,0.07745505571264025,0.32442301228860215,0.4793331237138826,0.07745505571264025,0.3936283099271047,1,7,4,8,2,3,nan,nan,nan,nan,nan,nan,nan,nan,nan,nan,nan,nan,0.0,nan,nan,nan,nan,nan,nan,nan,nan,nan,nan,nan,nan,nan,nan,nan,nan,nan,nan,560.9011064044898,715.206787133473,nan,715.5459265624522,nan,nan,nan,nan
1,102,1,1,1.0,1.0,0.33797252690419555,0,0.0,0.0,0.0,0.4012568933574603,0.07732058316761625,0.32393631018984403,0.47857747652507654,0.07732058316761625,0.37913682889969397,2,8,1,3,0,7,nan,nan,nan,nan,nan,nan,nan,nan,nan,nan,nan,nan,0.0,nan,nan,nan,nan,nan,nan,nan,nan,nan,nan,nan,nan,nan,nan,nan,nan,nan,nan,560.9011064044898,716.2319229964633,nan,716.5698955233674,nan,nan,nan,nan
1,103,1,1,1.0,1.0,0.3928360252757557,0,0.0,0.0,0.0,0.40063645839223216,0.0771928688367394,0.3234435895554928,0.47782932722897153,0.0771928688367394,0.35664932705306757,6,0,5,2,3,4,nan,nan,nan,nan,nan,nan,nan,nan,nan,nan,nan,nan,0.0,nan,nan,nan,nan,nan,nan,nan,nan,nan,nan,nan,nan,nan,nan,nan,nan,nan,nan,560.9011064044898,717.2570574339479,nan,717.6498934592237,nan,nan,nan,nan
1,104,1,1,1.0,1.0,0.5596693786792457,0,0.0,0.0,0.0,0.40056072603187803,0.07682103991826203,0.32373968611361603,0.47738176595014004,0.07682103991826203,0.430159310286399,3,2,8,4,0,7,nan,nan,nan,nan,nan,nan,nan,nan,nan,nan,nan,nan,0.0,nan,nan,nan,nan,nan,nan,nan,nan,nan,nan,nan,nan,nan,nan,nan,nan,nan,nan,560.9011064044898,718.2821887353784,nan,718.8418581140577,nan,nan,nan,nan
1,105,1,1,1.0,1.0,0.4064933125046082,0,0.0,0.0,0.0,0.40209061692271814,0.0780115732540576,0.3240790436686605,0.48010219017677574,0.0780115732540576,0.4529995721532032,2,6,3,5,7,1,nan,nan,nan,nan,nan,nan,nan,nan,nan,nan,nan,nan,0.0,nan,nan,nan,nan,nan,nan,nan,nan,nan,nan,nan,nan,nan,nan,nan,nan,nan,nan,560.9011064044898,719.307330870477,nan,719.7138241829816,nan,nan,nan,nan
1,106,1,1,1.0,1.0,0.4453394907177426,0,0.0,0.0,0.0,0.40213254735683135,0.07764037839540416,0.3244921689614272,0.4797729257522355,0.07764037839540416,0.47050072730053216,6,4,0,2,8,5,nan,nan,nan,nan,nan,nan,nan,nan,nan,nan,nan,nan,0.0,nan,nan,nan,nan,nan,nan,nan,nan,nan,nan,nan,nan,nan,nan,nan,nan,nan,nan,560.9011064044898,720.3324641675572,nan,720.7778036582749,nan,nan,nan,nan
1,107,1,1,1.0,1.0,0.396178787748795,0,0.0,0.0,0.0,0.4025401600300475,0.077386082178414,0.3251540778516335,0.4799262422084615,0.077386082178414,0.4160038636570486,2,1,5,3,0,4,nan,nan,nan,nan,nan,nan,nan,nan,nan,nan,nan,nan,0.0,nan,nan,nan,nan,nan,nan,nan,nan,nan,nan,nan,nan,nan,nan,nan,nan,nan,nan,560.9011064044898,721.3576085834648,nan,721.7537873712135,nan,nan,nan,nan
1,108,0,0,0.0,1.0,0.5870406873291358,0,0.0,0.0,0.0,0.4024807079526526,0.07702604818801473,0.3254546597646379,0.47950675614066735,0.07702604818801473,0.47618632193189114,3,8,1,2,7,5,nan,nan,nan,nan,nan,nan,nan,nan,nan,nan,nan,nan,0.0,nan,nan,nan,nan,nan,nan,nan,nan,nan,nan,nan,nan,nan,nan,nan,nan,nan,nan,560.9011064044898,722.3827244896675,nan,722.9697651769966,nan,nan,nan,nan
1,109,1,1,1.0,1.0,0.4178444499266334,0,0.0,0.0,0.0,0.404189596650583,0.07868004171649853,0.3255095549340845,0.4828696383670815,0.07868004171649853,0.4670213083348547,6,0,3,4,5,7,nan,nan,nan,nan,nan,nan,nan,nan,nan,nan,nan,nan,0.0,nan,nan,nan,nan,nan,nan,nan,nan,nan,nan,nan,nan,nan,nan,nan,nan,nan,nan,560.9011064044898,723.4078917133156,nan,723.8257361632423,nan,nan,nan,nan
1,110,1,1,1.0,1.0,0.3607420847401954,0,0.0,0.0,0.0,0.4043148705338495,0.0783291123418497,0.3259857581919998,0.4826439828756992,0.0783291123418497,0.4552090739986549,4,3,5,0,2,6,nan,nan,nan,nan,nan,nan,nan,nan,nan,nan,nan,nan,0.0,nan,nan,nan,nan,nan,nan,nan,nan,nan,nan,nan,nan,nan,nan,nan,nan,nan,nan,560.9011064044898,724.4329933646368,nan,724.793735449377,nan,nan,nan,nan
1,111,1,1,1.0,1.0,0.335604511143174,0,0.0,0.0,0.0,0.40391875429936175,0.07808185450727943,0.3258368997920823,0.4820006088066412,0.07808185450727943,0.37139701527000096,1,8,2,3,7,4,nan,nan,nan,nan,nan,nan,nan,nan,nan,nan,nan,nan,0.0,nan,nan,nan,nan,nan,nan,nan,nan,nan,nan,nan,nan,nan,nan,nan,nan,nan,nan,560.9011064044898,725.4581044241786,nan,725.7937089353218,nan,nan,nan,nan
1,112,1,1,1.0,1.0,0.32642296195263043,0,0.0,0.0,0.0,0.40330331066732406,0.07799689024839442,0.32530642041892965,0.48130020091571846,0.07799689024839442,0.3409231859453333,5,0,6,4,1,8,nan,nan,nan,nan,nan,nan,nan,nan,nan,nan,nan,nan,0.0,nan,nan,nan,nan,nan,nan,nan,nan,nan,nan,nan,nan,nan,nan,nan,nan,nan,nan,560.9011064044898,726.483267086267,nan,726.8096900482196,nan,nan,nan,nan
1,113,1,1,1.0,1.0,0.3492925888276659,0,0.0,0.0,0.0,0.4026168789823714,0.0779839708533229,0.32463290812904855,0.4806008498356943,0.0779839708533229,0.33710668730782345,4,7,0,1,8,3,nan,nan,nan,nan,nan,nan,nan,nan,nan,nan,nan,nan,0.0,nan,nan,nan,nan,nan,nan,nan,nan,nan,nan,nan,nan,nan,nan,nan,nan,nan,nan,560.9011064044898,727.508370733296,nan,727.8576633221237,nan,nan,nan,nan
1,114,1,1,1.0,1.0,0.3881339203217067,0,0.0,0.0,0.0,0.4021449826093209,0.07779859884007957,0.32434638376924135,0.47994358144940047,0.07779859884007957,0.35461649036733434,1,8,6,7,0,2,nan,nan,nan,nan,nan,nan,nan,nan,nan,nan,nan,nan,0.0,nan,nan,nan,nan,nan,nan,nan,nan,nan,nan,nan,nan,nan,nan,nan,nan,nan,nan,560.9011064044898,728.5335308295325,nan,728.9216647498542,nan,nan,nan,nan
1,115,1,1,1.0,1.0,0.36295814375625923,0,0.0,0.0,0.0,0.40202207855416644,0.07746764303352006,0.3245544355206464,0.4794897215876865,0.07746764303352006,0.3667948843018773,6,3,2,5,7,1,nan,nan,nan,nan,nan,nan,nan,nan,nan,nan,nan,nan,0.0,nan,nan,nan,nan,nan,nan,nan,nan,nan,nan,nan,nan,nan,nan,nan,nan,nan,nan,560.9011064044898,729.5586664074217,nan,729.921624551178,nan,nan,nan,nan
1,116,1,1,1.0,1.0,0.39381618885090575,0,0.0,0.0,0.0,0.4016823921646194,0.07721531686711182,0.32446707529750757,0.4788977090317312,0.07721531686711182,0.38163608430962387,7,4,1,2,5,0,nan,nan,nan,nan,nan,nan,nan,nan,nan,nan,nan,nan,0.0,nan,nan,nan,nan,nan,nan,nan,nan,nan,nan,nan,nan,nan,nan,nan,nan,nan,nan,560.9011064044898,730.5837962833466,nan,730.9776124721975,nan,nan,nan,nan
1,117,1,1,1.0,1.0,0.3446309675928205,0,0.0,0.0,0.0,0.4016145800670874,0.07688521095645756,0.32472936911062983,0.47849979102354495,0.07688521095645756,0.36713510006666183,8,7,4,0,1,2,nan,nan,nan,nan,nan,nan,nan,nan,nan,nan,nan,nan,0.0,nan,nan,nan,nan,nan,nan,nan,nan,nan,nan,nan,nan,nan,nan,nan,nan,nan,nan,560.9011064044898,731.6089515329222,nan,731.953582500515,nan,nan,nan,nan
1,118,1,1,1.0,1.0,0.4154955356498249,0,0.0,0.0,0.0,0.4011275406442304,0.07673543826491408,0.3243921023793163,0.4778629789091445,0.07673543826491408,0.3846475640311837,7,3,6,5,2,1,nan,nan,nan,nan,nan,nan,nan,nan,nan,nan,nan,nan,0.0,nan,nan,nan,nan,nan,nan,nan,nan,nan,nan,nan,nan,nan,nan,nan,nan,nan,nan,560.9011064044898,732.6340688646305,nan,733.0495644002804,nan,nan,nan,nan
1,119,0,0,1.0,0.0,0.3263408540515229,0,0.0,0.0,0.0,0.40124930331376935,0.0764209465042222,0.32482835680954714,0.47767024981799155,0.0764209465042222,0.3621557857647228,5,0,8,3,1,7,nan,nan,nan,nan,nan,nan,nan,nan,nan,nan,nan,nan,0.0,nan,nan,nan,nan,nan,nan,nan,nan,nan,nan,nan,nan,nan,nan,nan,nan,nan,nan,560.9011064044898,733.6592010213062,nan,733.9855418753577,nan,nan,nan,nan
1,120,1,1,1.0,1.0,0.34919366013491526,0,0.0,0.0,0.0,0.4006198205468597,0.07640576817372965,0.32421405237313006,0.4770255887205893,0.07640576817372965,0.36367668327875435,2,4,5,1,0,6,nan,nan,nan,nan,nan,nan,nan,nan,nan,nan,nan,nan,0.0,nan,nan,nan,nan,nan,nan,nan,nan,nan,nan,nan,nan,nan,nan,nan,nan,nan,nan,560.9011064044898,734.6843326078379,nan,735.0335262679728,nan,nan,nan,nan
1,121,1,1,1.0,1.0,0.3320165653130971,0,0.0,0.0,0.0,0.4001912692100935,0.07623022907836684,0.32396104013172666,0.47642149828846037,0.07623022907836684,0.3358503598331784,1,5,3,7,2,0,nan,nan,nan,nan,nan,nan,nan,nan,nan,nan,nan,nan,0.0,nan,nan,nan,nan,nan,nan,nan,nan,nan,nan,nan,nan,nan,nan,nan,nan,nan,nan,560.9011064044898,735.709491848771,nan,736.0415084140841,nan,nan,nan,nan
1,122,1,1,1.0,1.0,0.4508766448125243,0,0.0,0.0,0.0,0.39962784190515965,0.0761650620432657,0.323462779861894,0.4757929039484253,0.0761650620432657,0.3773622900868456,4,2,8,1,6,5,nan,nan,nan,nan,nan,nan,nan,nan,nan,nan,nan,nan,0.0,nan,nan,nan,nan,nan,nan,nan,nan,nan,nan,nan,nan,nan,nan,nan,nan,nan,nan,560.9011064044898,736.734590364038,nan,737.1854670088505,nan,nan,nan,nan
1,123,1,1,1.0,1.0,0.3777350069140084,0,0.0,0.0,0.0,0.40004791406013807,0.0759928830472138,0.32405503101292427,0.47604079710735187,0.0759928830472138,0.38687607234654325,0,4,1,6,7,8,nan,nan,nan,nan,nan,nan,nan,nan,nan,nan,nan,nan,0.0,nan,nan,nan,nan,nan,nan,nan,nan,nan,nan,nan,nan,nan,nan,nan,nan,nan,nan,560.9011064044898,737.7597319289926,nan,738.1374669359066,nan,nan,nan,nan
1,124,1,1,1.0,1.0,0.3125638260971755,0,0.0,0.0,0.0,0.3998665083109825,0.07570985735257067,0.32415665095841184,0.4755763656635532,0.07570985735257067,0.38039182594123605,7,0,8,2,3,4,nan,nan,nan,nan,nan,nan,nan,nan,nan,nan,nan,nan,0.0,nan,nan,nan,nan,nan,nan,nan,nan,nan,nan,nan,nan,nan,nan,nan,nan,nan,nan,560.9011064044898,738.7848695025314,nan,739.0974333286285,nan,nan,nan,nan
1,125,1,1,1.0,1.0,0.3674008104717359,0,0.0,0.0,0.0,0.3991624544221615,0.07580716942387439,0.3233552849982871,0.47496962384603586,0.07580716942387439,0.3525665478276399,6,3,1,5,8,0,nan,nan,nan,nan,nan,nan,nan,nan,nan,nan,nan,nan,0.0,nan,nan,nan,nan,nan,nan,nan,nan,nan,nan,nan,nan,nan,nan,nan,nan,nan,nan,560.9011064044898,739.8100047953194,nan,740.1774056057911,nan,nan,nan,nan
1,126,0,0,0.0,1.0,0.4702928915503435,0,0.0,0.0,0.0,0.39890836127055807,0.07555632980401637,0.3233520314665417,0.47446469107457445,0.07555632980401637,0.3834191760397516,3,7,0,4,6,8,nan,nan,nan,nan,nan,nan,nan,nan,nan,nan,nan,nan,0.0,nan,nan,nan,nan,nan,nan,nan,nan,nan,nan,nan,nan,nan,nan,nan,nan,nan,nan,560.9011064044898,740.8351406583097,nan,741.30543354986,nan,nan,nan,nan
1,127,1,1,1.0,1.0,0.40500824217451736,0,0.0,0.0,0.0,0.3994749051616675,0.07552200249014882,0.32395290267151866,0.47499690765181635,0.07552200249014882,0.4142339813988656,6,2,5,3,4,0,nan,nan,nan,nan,nan,nan,nan,nan,nan,nan,nan,nan,0.0,nan,nan,nan,nan,nan,nan,nan,nan,nan,nan,nan,nan,nan,nan,nan,nan,nan,nan,560.9011064044898,741.8603683225228,nan,742.2653765646974,nan,nan,nan,nan
1,128,1,1,1.0,1.0,0.3959373105899431,0,0.0,0.0,0.0,0.39951847474444585,0.07522567397157622,0.32429280077286965,0.47474414871602205,0.07522567397157622,0.42374614810493466,8,4,7,6,3,5,nan,nan,nan,nan,nan,nan,nan,nan,nan,nan,nan,nan,0.0,nan,nan,nan,nan,nan,nan,nan,nan,nan,nan,nan,nan,nan,nan,nan,nan,nan,nan,560.9011064044898,742.8854112438858,nan,743.2813485544757,nan,nan,nan,nan
1,129,1,1,1.0,1.0,0.3867993812309578,0,0.0,0.0,0.0,0.3994904968994888,0.07493191084516206,0.32455858605432675,0.47442240774465083,0.07493191084516206,0.39591497799847275,7,3,4,1,8,2,nan,nan,nan,nan,nan,nan,nan,nan,nan,nan,nan,nan,0.0,nan,nan,nan,nan,nan,nan,nan,nan,nan,nan,nan,nan,nan,nan,nan,nan,nan,nan,560.9011064044898,743.910533992399,nan,744.29733337363,nan,nan,nan,nan
1,130,1,1,1.0,1.0,0.43363283725921065,0,0.0,0.0,0.0,0.3993921161578723,0.07464921052390613,0.32474290563396613,0.47404132668177845,0.07464921052390613,0.4054565096933705,8,4,5,7,0,3,nan,nan,nan,nan,nan,nan,nan,nan,nan,nan,nan,nan,0.0,nan,nan,nan,nan,nan,nan,nan,nan,nan,nan,nan,nan,nan,nan,nan,nan,nan,nan,560.9011064044898,744.9356727063423,nan,745.3693055436015,nan,nan,nan,nan
1,131,1,1,1.0,1.0,0.3924796540522948,0,0.0,0.0,0.0,0.39965550632019026,0.07442169378822734,0.32523381253196293,0.4740772001084176,0.07442169378822734,0.40430395751415443,6,3,4,0,8,2,nan,nan,nan,nan,nan,nan,nan,nan,nan,nan,nan,nan,0.0,nan,nan,nan,nan,nan,nan,nan,nan,nan,nan,nan,nan,nan,nan,nan,nan,nan,nan,560.9011064044898,745.9608142712968,nan,746.3532939253491,nan,nan,nan,nan
1,132,1,1,1.0,1.0,0.3753179544582963,0,0.0,0.0,0.0,0.39960072882196207,0.07413972807742404,0.32546100074453804,0.4737404568993861,0.07413972807742404,0.40047681525660056,5,6,2,7,4,1,nan,nan,nan,nan,nan,nan,nan,nan,nan,nan,nan,nan,0.0,nan,nan,nan,nan,nan,nan,nan,nan,nan,nan,nan,nan,nan,nan,nan,nan,nan,nan,560.9011064044898,746.985955551092,nan,747.3612735055503,nan,nan,nan,nan
1,133,0,0,0.0,1.0,0.3181796669960022,0,0.0,0.0,0.0,0.3994167684101161,0.07388836746015182,0.32552840094996427,0.4733051358702679,0.07388836746015182,0.36199242516886443,1,4,5,0,7,2,nan,nan,nan,nan,nan,nan,nan,nan,nan,nan,nan,nan,0.0,nan,nan,nan,nan,nan,nan,nan,nan,nan,nan,nan,nan,nan,nan,nan,nan,nan,nan,560.9011064044898,748.0110757337534,nan,748.3292554007494,nan,nan,nan,nan
1,134,1,1,1.0,1.0,0.4130206085392274,0,0.0,0.0,0.0,0.39880596313632577,0.07394382333543677,0.324862139800889,0.4727497864717625,0.07394382333543677,0.368839409997842,5,7,6,8,0,3,nan,nan,nan,nan,nan,nan,nan,nan,nan,nan,nan,nan,0.0,nan,nan,nan,nan,nan,nan,nan,nan,nan,nan,nan,nan,nan,nan,nan,nan,nan,nan,560.9011064044898,749.0362084606313,nan,749.4492290691705,nan,nan,nan,nan
1,135,1,1,1.0,1.0,0.3638641820871271,0,0.0,0.0,0.0,0.398912042579631,0.07367755417330821,0.32523448840632274,0.4725895967529392,0.07367755417330821,0.3650214858741189,0,6,4,3,1,7,nan,nan,nan,nan,nan,nan,nan,nan,nan,nan,nan,nan,0.0,nan,nan,nan,nan,nan,nan,nan,nan,nan,nan,nan,nan,nan,nan,nan,nan,nan,nan,560.9011064044898,750.0613371962099,nan,750.4252013782971,nan,nan,nan,nan
1,136,1,1,1.0,1.0,0.32271641568513587,0,0.0,0.0,0.0,0.39865242879820506,0.07346566041548488,0.3251867683827202,0.4721180892136899,0.07346566041548488,0.36653373543716344,4,5,8,7,6,2,nan,nan,nan,nan,nan,nan,nan,nan,nan,nan,nan,nan,0.0,nan,nan,nan,nan,nan,nan,nan,nan,nan,nan,nan,nan,nan,nan,nan,nan,nan,nan,560.9011064044898,751.0864739145036,nan,751.4091903301887,nan,nan,nan,nan
1,137,1,1,1.0,1.0,0.28155581996543333,0,1.0,0.0,0.0,0.39809407576060896,0.07348200655713649,0.32461206920347246,0.47157608231774545,0.07348200655713649,0.32271213924589875,7,8,1,5,4,3,nan,nan,nan,nan,nan,nan,nan,nan,nan,nan,nan,nan,0.0,nan,nan,nan,nan,nan,nan,nan,nan,nan,nan,nan,nan,nan,nan,nan,nan,nan,nan,560.9011064044898,752.1116080668871,nan,752.3931638868526,nan,nan,nan,nan
1,138,1,1,1.0,1.0,0.3363899534451775,1,0.0,0.0,1.0,0.39724343155772446,0.07388234637941174,0.32336108517831275,0.47112577793713617,0.07388234637941174,0.3135540630319156,3,4,0,8,2,1,1.0,1.0,1.0,1.0,1.0,1.0,1.0,0.0,0.0,0.0,0.0,1.0,2.0,3.0,1.0,4.0,1.0,1.0,1.0,2.0,3.0,1.0,4.0,5.0,6.0,2.2919744051177986,3.484863629564643,1.3491494701011106,4.619938886607997,5.883299530367367,7.227134792192373,560.9011064044898,753.1367410788662,753.9451621603221,753.4731310323114,762.2295447171782,763.2356711668544,754.9619535189122,762.2212136123562
1,139,1,1,1.0,1.0,0.3461938693653792,0,0.0,0.0,0.0,0.39680246432502486,0.07379489117675025,0.3230075731482746,0.4705973555017751,0.07379489117675025,0.32137988092533004,8,7,6,5,3,0,nan,nan,nan,nan,nan,nan,nan,nan,nan,nan,nan,nan,0.0,nan,nan,nan,nan,nan,nan,nan,nan,nan,nan,nan,nan,nan,nan,nan,nan,nan,nan,560.9011064044898,763.454746266536,nan,763.8009401359013,nan,nan,nan,nan
1,140,1,1,1.0,1.0,0.40101916482672095,0,0.0,0.0,0.0,0.39643837371380436,0.07365325464109047,0.3227851190727139,0.4700916283548948,0.07365325464109047,0.36120099587909255,3,5,2,8,6,4,nan,nan,nan,nan,nan,nan,nan,nan,nan,nan,nan,nan,0.0,nan,nan,nan,nan,nan,nan,nan,nan,nan,nan,nan,nan,nan,nan,nan,nan,nan,nan,560.9011064044898,764.4798861208255,nan,764.8809052856523,nan,nan,nan,nan
1,141,1,1,1.0,1.0,0.24787902081152424,0,0.0,0.0,0.0,0.3964710936503252,0.07339074973515514,0.32308034391517004,0.4698618433854803,0.07339074973515514,0.3316973516678748,7,3,8,6,2,1,nan,nan,nan,nan,nan,nan,nan,nan,nan,nan,nan,nan,0.0,nan,nan,nan,nan,nan,nan,nan,nan,nan,nan,nan,nan,nan,nan,nan,nan,nan,nan,560.9011064044898,765.5050185626606,nan,765.7528975834721,nan,nan,nan,nan
1,142,1,1,1.0,1.0,0.18271211645333096,0,1.0,0.0,0.0,0.39541724916210674,0.07418547351208463,0.32123177565002214,0.46960272267419134,0.07418547351208463,0.2772034340305254,2,4,6,7,8,0,nan,nan,nan,nan,nan,nan,nan,nan,nan,nan,nan,nan,0.0,nan,nan,nan,nan,nan,nan,nan,nan,nan,nan,nan,nan,nan,nan,nan,nan,nan,nan,560.9011064044898,766.5301498640911,nan,766.7128619805444,nan,nan,nan,nan
1,143,1,1,1.0,1.0,0.4615672124782577,1,0.0,0.0,1.0,0.3939193256923266,0.07603354380113307,0.31788578189119354,0.4699528694934597,0.07603354380113307,0.29738611658103764,6,1,7,3,2,5,1.0,1.0,1.0,1.0,1.0,1.0,1.0,1.0,0.0,0.0,0.0,1.0,3.0,6.0,1.0,5.0,5.0,5.0,5.0,1.0,2.0,6.0,5.0,4.0,3.0,1.819553834560793,4.233162598218769,7.544296377745923,6.761104956152849,6.041256673401222,5.218407117354218,560.9011064044898,767.5552785996697,768.3637002512696,768.016845812148,776.9648116164608,777.9617855967954,769.3805101411999,776.95647366927
1,144,1,1,1.0,1.0,0.4749607848934829,0,0.0,0.0,0.0,0.3943923878376828,0.0759766436374213,0.31841574420026153,0.4703690314751041,0.0759766436374213,0.37308003794169053,1,8,0,5,4,2,nan,nan,nan,nan,nan,nan,nan,nan,nan,nan,nan,nan,0.0,nan,nan,nan,nan,nan,nan,nan,nan,nan,nan,nan,nan,nan,nan,nan,nan,nan,nan,560.9011064044898,778.181662674353,nan,778.6566234592465,nan,nan,nan,nan
1,145,1,1,1.0,1.0,0.4977793793659657,0,0.0,0.0,0.0,0.39495189059501473,0.07600742802132975,0.318944462573685,0.4709593186163445,0.07600742802132975,0.4781024589125688,3,6,4,2,1,8,nan,nan,nan,nan,nan,nan,nan,nan,nan,nan,nan,nan,0.0,nan,nan,nan,nan,nan,nan,nan,nan,nan,nan,nan,nan,nan,nan,nan,nan,nan,nan,560.9011064044898,779.2068116518203,nan,779.7045910311863,nan,nan,nan,nan
1,146,0,0,1.0,0.0,0.6246361449593678,0,0.0,0.0,0.0,0.39566104568998683,0.07622141812692411,0.3194396275630627,0.47188246381691096,0.07622141812692411,0.5324587697396055,6,2,1,4,5,0,nan,nan,nan,nan,nan,nan,nan,nan,nan,nan,nan,nan,0.0,nan,nan,nan,nan,nan,nan,nan,nan,nan,nan,nan,nan,nan,nan,nan,nan,nan,nan,560.9011064044898,780.2319420979475,nan,780.8565782429068,nan,nan,nan,nan
1,147,1,1,1.0,1.0,0.5914796477882192,0,0.0,0.0,0.0,0.3972293682877223,0.07827234039480149,0.3189570278929208,0.47550170868252384,0.07827234039480149,0.5712983907045176,2,8,7,3,1,4,nan,nan,nan,nan,nan,nan,nan,nan,nan,nan,nan,nan,0.0,nan,nan,nan,nan,nan,nan,nan,nan,nan,nan,nan,nan,nan,nan,nan,nan,nan,nan,560.9011064044898,781.2570611402043,nan,781.8485407879925,nan,nan,nan,nan
1,148,1,1,1.0,1.0,0.4063211139291525,0,0.0,0.0,0.0,0.3985507987605148,0.07962301210777009,0.3189277866527447,0.4781738108682849,0.07962301210777009,0.5408123022255799,4,0,5,1,7,2,nan,nan,nan,nan,nan,nan,nan,nan,nan,nan,nan,nan,0.0,nan,nan,nan,nan,nan,nan,nan,nan,nan,nan,nan,nan,nan,nan,nan,nan,nan,nan,560.9011064044898,782.2822181003285,nan,782.6885392142576,nan,nan,nan,nan
1,149,1,1,1.0,1.0,0.33316522114910185,0,0.0,0.0,0.0,0.39860330089003265,0.07935611261710923,0.3192471882729234,0.4779594135071419,0.07935611261710923,0.4436553276221578,0,5,2,6,1,7,nan,nan,nan,nan,nan,nan,nan,nan,nan,nan,nan,nan,0.0,nan,nan,nan,nan,nan,nan,nan,nan,nan,nan,nan,nan,nan,nan,nan,nan,nan,nan,560.9011064044898,783.3073459806037,nan,783.6405112017528,nan,nan,nan,nan
1,150,1,1,1.0,1.0,0.4040012795012444,0,0.0,0.0,0.0,0.3981641191468049,0.07926963201061908,0.3188944871361858,0.477433751157424,0.07926963201061908,0.38116253819316626,8,4,5,1,7,2,nan,nan,nan,nan,nan,nan,nan,nan,nan,nan,nan,nan,0.0,nan,nan,nan,nan,nan,nan,nan,nan,nan,nan,nan,nan,nan,nan,nan,nan,nan,nan,560.9011064044898,784.3324941027677,nan,784.7364953822689,nan,nan,nan,nan
1,151,1,1,1.0,1.0,0.36285807471722364,0,0.0,0.0,0.0,0.39820303354916786,0.07900638601181312,0.31919664753735477,0.47720941956098095,0.07900638601181312,0.3666748584558566,6,2,7,0,8,4,nan,nan,nan,nan,nan,nan,nan,nan,nan,nan,nan,nan,0.0,nan,nan,nan,nan,nan,nan,nan,nan,nan,nan,nan,nan,nan,nan,nan,nan,nan,nan,560.9011064044898,785.3576122897211,nan,785.7204703644384,nan,nan,nan,nan
1,152,1,1,1.0,1.0,0.3297537502949126,0,0.0,0.0,0.0,0.3979689609741218,0.07879650828593825,0.31917245268818356,0.4767654692600601,0.07879650828593825,0.36553770150446024,2,1,8,5,7,6,nan,nan,nan,nan,nan,nan,nan,nan,nan,nan,nan,nan,0.0,nan,nan,nan,nan,nan,nan,nan,nan,nan,nan,nan,nan,nan,nan,nan,nan,nan,nan,560.9011064044898,786.3827056732844,nan,786.7124594235793,nan,nan,nan,nan
1,153,1,1,1.0,1.0,0.32855862367432564,0,0.0,0.0,0.0,0.39752017669333756,0.07873026270956454,0.318789913983773,0.4762504394029021,0.07873026270956454,0.34039014956215397,3,0,7,6,5,1,nan,nan,nan,nan,nan,nan,nan,nan,nan,nan,nan,nan,0.0,nan,nan,nan,nan,nan,nan,nan,nan,nan,nan,nan,nan,nan,nan,nan,nan,nan,nan,560.9011064044898,787.4078785988386,nan,787.7364372225129,nan,nan,nan,nan
1,154,1,1,1.0,1.0,0.3673968191142194,0,0.0,0.0,0.0,0.39706944758863816,0.07866906199809238,0.3184003855905458,0.47573850958673053,0.07866906199809238,0.34190306436115253,7,4,3,1,8,2,nan,nan,nan,nan,nan,nan,nan,nan,nan,nan,nan,nan,0.0,nan,nan,nan,nan,nan,nan,nan,nan,nan,nan,nan,nan,nan,nan,nan,nan,nan,nan,560.9011064044898,788.4330076195183,nan,788.8004044386325,nan,nan,nan,nan
1,155,1,1,1.0,1.0,0.390573495416902,0,0.0,0.0,0.0,0.3968767681829601,0.07844943813262974,0.31842733005033036,0.4753262063155898,0.07844943813262974,0.362176312735149,2,0,8,5,3,1,nan,nan,nan,nan,nan,nan,nan,nan,nan,nan,nan,nan,0.0,nan,nan,nan,nan,nan,nan,nan,nan,nan,nan,nan,nan,nan,nan,nan,nan,nan,nan,560.9011064044898,789.4498166541453,nan,789.8403901495622,nan,nan,nan,nan
1,156,1,1,1.0,1.0,0.34146867151139304,0,0.0,0.0,0.0,0.39683610190705004,0.07819759437719832,0.31863850752985173,0.47503369628424835,0.07819759437719832,0.3664796620141715,6,3,5,2,8,7,nan,nan,nan,nan,nan,nan,nan,nan,nan,nan,nan,nan,0.0,nan,nan,nan,nan,nan,nan,nan,nan,nan,nan,nan,nan,nan,nan,nan,nan,nan,nan,560.9011064044898,790.4749143141089,nan,790.8163829856203,nan,nan,nan,nan
1,157,1,1,1.0,1.0,0.4282821365632117,0,0.0,0.0,0.0,0.3964811824814369,0.0780717037762055,0.3184094787052314,0.47455288625764236,0.0780717037762055,0.38677476783050224,4,2,3,5,7,0,nan,nan,nan,nan,nan,nan,nan,nan,nan,nan,nan,nan,0.0,nan,nan,nan,nan,nan,nan,nan,nan,nan,nan,nan,nan,nan,nan,nan,nan,nan,nan,560.9011064044898,791.5000669977744,nan,791.9283491343376,nan,nan,nan,nan
1,158,1,1,1.0,1.0,0.4030356559669599,0,0.0,0.0,0.0,0.3966837363290915,0.07786378128435463,0.31881995504473687,0.4745475176134461,0.07786378128435463,0.3909288213471882,2,0,5,8,4,7,nan,nan,nan,nan,nan,nan,nan,nan,nan,nan,nan,nan,0.0,nan,nan,nan,nan,nan,nan,nan,nan,nan,nan,nan,nan,nan,nan,nan,nan,nan,nan,560.9011064044898,792.5252832581173,nan,792.9283189140842,nan,nan,nan,nan
1,159,1,1,1.0,1.0,0.5213078654487617,0,0.0,0.0,0.0,0.39672393835211595,0.07761862036643499,0.319105317985681,0.4743425587185509,0.07761862036643499,0.4508752193263111,6,4,7,3,5,8,nan,nan,nan,nan,nan,nan,nan,nan,nan,nan,nan,nan,0.0,nan,nan,nan,nan,nan,nan,nan,nan,nan,nan,nan,nan,nan,nan,nan,nan,nan,nan,560.9011064044898,793.5669889593264,nan,794.0882968247752,nan,nan,nan,nan
1,160,1,1,1.0,1.0,0.632125643431209,0,0.0,1.0,0.0,0.39750748506341566,0.07799847900159862,0.31950900606181704,0.4755059640650143,0.07799847900159862,0.5188230549489768,0,8,2,1,3,5,nan,nan,nan,nan,nan,nan,nan,nan,nan,nan,nan,nan,0.0,nan,nan,nan,nan,nan,nan,nan,nan,nan,nan,nan,nan,nan,nan,nan,nan,nan,nan,560.9011064044898,794.59213907714,nan,795.2242647205712,nan,nan,nan,nan
1,161,1,1,nan,nan,nan,0,0.0,0.0,0.0,0.3989738485532143,0.0799226156298199,0.31905123292339443,0.4788964641830342,0.0799226156298199,0.5767167544399854,5,7,3,8,6,4,nan,nan,nan,nan,nan,nan,nan,nan,nan,nan,nan,nan,0.0,nan,nan,nan,nan,nan,nan,nan,nan,nan,nan,nan,nan,nan,nan,nan,nan,nan,nan,560.9011064044898,795.6172803569934,nan,nan,nan,nan,nan,nan
1,162,1,1,1.0,1.0,0.4778248694492504,0,0.0,0.0,0.0,0.3989738485532143,0.0799226156298199,0.31905123292339443,0.4788964641830342,0.0799226156298199,0.5549752564402297,6,0,8,2,7,1,nan,nan,nan,nan,nan,nan,nan,nan,nan,nan,nan,nan,0.0,nan,nan,nan,nan,nan,nan,nan,nan,nan,nan,nan,nan,nan,nan,nan,nan,nan,nan,560.9011064044898,796.6424170752871,nan,797.1202419447363,nan,nan,nan,nan
1,163,1,1,1.0,1.0,0.3086799494922161,0,0.0,0.0,0.0,0.39946360644697854,0.07991450337682673,0.31954910307015183,0.47937810982380524,0.07991450337682673,0.39325240947073326,5,3,7,0,8,4,nan,nan,nan,nan,nan,nan,nan,nan,nan,nan,nan,nan,0.0,nan,nan,nan,nan,nan,nan,nan,nan,nan,nan,nan,nan,nan,nan,nan,nan,nan,nan,560.9011064044898,797.6675478065154,nan,797.9762277560076,nan,nan,nan,nan
1,164,1,1,1.0,1.0,0.28351272584404796,0,0.0,0.0,0.0,0.3989032135028133,0.07998416439311164,0.3189190491097017,0.47888737789592495,0.07998416439311164,0.3566725149285048,1,4,6,8,2,7,nan,nan,nan,nan,nan,nan,nan,nan,nan,nan,nan,nan,0.0,nan,nan,nan,nan,nan,nan,nan,nan,nan,nan,nan,nan,nan,nan,nan,nan,nan,nan,560.9011064044898,798.6926870906609,nan,798.976199816505,nan,nan,nan,nan
1,165,1,1,1.0,1.0,0.3703532750951126,0,0.0,0.0,0.0,0.3981952964006123,0.08024589737563068,0.31794939902498165,0.47844119377624295,0.08024589737563068,0.3208486501437922,6,8,7,0,4,1,nan,nan,nan,nan,nan,nan,nan,nan,nan,nan,nan,nan,0.0,nan,nan,nan,nan,nan,nan,nan,nan,nan,nan,nan,nan,nan,nan,nan,nan,nan,nan,560.9011064044898,799.7178186771926,nan,800.0881719522877,nan,nan,nan,nan
1,166,0,0,0.0,1.0,0.5292027718387544,0,0.0,0.0,0.0,0.3980255279780178,0.08003022717403131,0.3179953008039865,0.4780557551520491,0.08003022717403131,0.3943562575926383,3,0,6,8,5,4,nan,nan,nan,nan,nan,nan,nan,nan,nan,nan,nan,nan,0.0,nan,nan,nan,nan,nan,nan,nan,nan,nan,nan,nan,nan,nan,nan,nan,nan,nan,nan,560.9011064044898,800.742952544475,nan,801.2721553163137,nan,nan,nan,nan
1,167,1,1,1.0,1.0,0.5200437452294864,0,0.0,0.0,0.0,0.3988205415771738,0.08043429437838624,0.31838624719878755,0.47925483595556,0.08043429437838624,0.4731999307211178,4,7,8,1,3,2,nan,nan,nan,nan,nan,nan,nan,nan,nan,nan,nan,nan,0.0,nan,nan,nan,nan,nan,nan,nan,nan,nan,nan,nan,nan,nan,nan,nan,nan,nan,nan,560.9011064044898,801.768092969025,nan,802.2881367142545,nan,nan,nan,nan
1,168,1,1,1.0,1.0,0.43882302835118026,0,0.0,0.0,0.0,0.3995508018401395,0.08073842313669949,0.31881237870344004,0.480289224976839,0.08073842313669949,0.4960231818064737,8,1,3,0,7,4,nan,nan,nan,nan,nan,nan,nan,nan,nan,nan,nan,nan,0.0,nan,nan,nan,nan,nan,nan,nan,nan,nan,nan,nan,nan,nan,nan,nan,nan,nan,nan,560.9011064044898,802.7932858513668,nan,803.232108879718,nan,nan,nan,nan
1,169,1,1,1.0,1.0,0.58973029255867,0,0.0,1.0,0.0,0.3997859648731398,0.080553329882776,0.3192326349903638,0.48033929475591575,0.080553329882776,0.5161990220464455,0,8,6,7,3,5,nan,nan,nan,nan,nan,nan,nan,nan,nan,nan,nan,nan,0.0,nan,nan,nan,nan,nan,nan,nan,nan,nan,nan,nan,nan,nan,nan,nan,nan,nan,nan,560.9011064044898,803.8183524357737,nan,804.4080827283324,nan,nan,nan,nan
1,170,1,1,1.0,1.0,0.5005881551769562,1,0.0,0.0,1.0,0.40091658587126794,0.08163143791039394,0.319285147960874,0.4825480237816619,0.08163143791039394,0.5097138253622688,2,0,7,4,5,8,1.0,1.0,1.0,1.0,1.0,1.0,1.0,1.0,0.0,0.0,1.0,1.0,4.0,2.0,0.0,5.0,5.0,5.0,8.0,2.0,1.0,6.0,5.0,4.0,3.0,4.287928878562525,1.569514918839559,9.519871261611115,8.183854215079919,7.313003160583321,6.047853248019237,560.9011064044898,804.843483167002,805.651904533559,805.3440713221789,816.2199346671696,817.2262353110709,806.6603690637858,816.2115987156867
1,171,1,1,1.0,1.0,0.42667590000201017,0,0.0,0.0,0.0,0.40150635847070987,0.08174776606110618,0.3197585924096037,0.48325412453181604,0.08174776606110618,0.5056647825792121,0,3,4,5,2,7,nan,nan,nan,nan,nan,nan,nan,nan,nan,nan,nan,nan,0.0,nan,nan,nan,nan,nan,nan,nan,nan,nan,nan,nan,nan,nan,nan,nan,nan,nan,nan,560.9011064044898,817.4451307996642,nan,817.8718066996662,nan,nan,nan,nan
1,172,0,0,0.0,1.0,0.48156391677912325,0,0.0,0.0,0.0,0.40165441459736456,0.08152969922877668,0.3201247153685879,0.48318411382614124,0.08152969922877668,0.4696093239860299,2,0,7,4,1,6,nan,nan,nan,nan,nan,nan,nan,nan,nan,nan,nan,nan,0.0,nan,nan,nan,nan,nan,nan,nan,nan,nan,nan,nan,nan,nan,nan,nan,nan,nan,nan,560.9011064044898,818.4702487015165,nan,818.9518126182957,nan,nan,nan,nan
1,173,1,1,nan,nan,nan,0,0.0,0.0,0.0,0.40212172162766724,0.08151897859045434,0.3206027430372129,0.48364070021812156,0.08151897859045434,0.4541199083905667,5,2,6,3,7,1,nan,nan,nan,nan,nan,nan,nan,nan,nan,nan,nan,nan,0.0,nan,nan,nan,nan,nan,nan,nan,nan,nan,nan,nan,nan,nan,nan,nan,nan,nan,nan,560.9011064044898,819.4954025256447,nan,nan,nan,nan,nan,nan
1,174,1,1,1.0,1.0,0.543227263900917,0,0.0,0.0,0.0,0.40212172162766724,0.08151897859045434,0.3206027430372129,0.48364070021812156,0.08151897859045434,0.5123955903400201,8,6,2,5,4,0,nan,nan,nan,nan,nan,nan,nan,nan,nan,nan,nan,nan,0.0,nan,nan,nan,nan,nan,nan,nan,nan,nan,nan,nan,nan,nan,nan,nan,nan,nan,nan,560.9011064044898,820.5205247039557,nan,821.0637519678567,nan,nan,nan,nan
1,175,1,1,1.0,1.0,0.42206189001444727,0,0.0,0.0,0.0,0.40294210268739544,0.08198655645576608,0.32095554623162936,0.4849286591431615,0.08198655645576608,0.48264457695768215,2,8,7,3,1,5,nan,nan,nan,nan,nan,nan,nan,nan,nan,nan,nan,nan,0.0,nan,nan,nan,nan,nan,nan,nan,nan,nan,nan,nan,nan,nan,nan,nan,nan,nan,nan,560.9011064044898,821.5456656986498,nan,821.9677275886643,nan,nan,nan,nan
1,176,1,1,1.0,1.0,0.36492645350517705,0,0.0,0.0,0.0,0.4030526216892859,0.08176210623472091,0.321290515454565,0.4848147279240068,0.08176210623472091,0.4434052024735138,0,1,3,5,8,6,nan,nan,nan,nan,nan,nan,nan,nan,nan,nan,nan,nan,0.0,nan,nan,nan,nan,nan,nan,nan,nan,nan,nan,nan,nan,nan,nan,nan,nan,nan,nan,560.9011064044898,822.5707864515134,nan,822.9357129050186,nan,nan,nan,nan
1,177,1,1,1.0,1.0,0.45976596960099414,0,0.0,0.0,0.0,0.40283350578018184,0.0815777437323299,0.32125576204785194,0.48441124951251174,0.0815777437323299,0.41558477104020614,7,3,4,1,2,0,nan,nan,nan,nan,nan,nan,nan,nan,nan,nan,nan,nan,0.0,nan,nan,nan,nan,nan,nan,nan,nan,nan,nan,nan,nan,nan,nan,nan,nan,nan,nan,560.9011064044898,823.5959317226661,nan,824.0556976922671,nan,nan,nan,nan
1,178,0,0,0.0,1.0,0.3866015239036642,0,0.0,0.0,0.0,0.4031588341448722,0.08145744912350578,0.3217013850213664,0.48461628326837797,0.08145744912350578,0.40376464900327846,2,4,3,0,8,6,nan,nan,nan,nan,nan,nan,nan,nan,nan,nan,nan,nan,0.0,nan,nan,nan,nan,nan,nan,nan,nan,nan,nan,nan,nan,nan,nan,nan,nan,nan,nan,560.9011064044898,824.6210556115839,nan,825.0076571354875,nan,nan,nan,nan
1,179,1,1,1.0,1.0,0.35345015849452466,0,0.0,0.0,0.0,0.4030647585185017,0.08123523956772383,0.3218295189507779,0.48429999808622554,0.08123523956772383,0.399939217333061,5,1,7,4,0,2,nan,nan,nan,nan,nan,nan,nan,nan,nan,nan,nan,nan,0.0,nan,nan,nan,nan,nan,nan,nan,nan,nan,nan,nan,nan,nan,nan,nan,nan,nan,nan,560.9011064044898,825.6462034486467,nan,825.9996536071412,nan,nan,nan,nan
1,180,1,1,1.0,1.0,0.32828664110274985,0,0.0,0.0,0.0,0.40278445004379,0.08109074888282398,0.321693701160966,0.48387519892661396,0.08109074888282398,0.3561127745003129,4,0,5,3,1,8,nan,nan,nan,nan,nan,nan,nan,nan,nan,nan,nan,nan,0.0,nan,nan,nan,nan,nan,nan,nan,nan,nan,nan,nan,nan,nan,nan,nan,nan,nan,nan,560.9011064044898,826.6713301885175,nan,826.9996168296202,nan,nan,nan,nan
1,181,1,1,1.0,1.0,0.30313623818801716,0,0.0,0.0,0.0,0.40236592302726726,0.08105412726517691,0.32131179576209035,0.48342005029244417,0.08105412726517691,0.32829101259509724,2,5,1,7,8,4,nan,nan,nan,nan,nan,nan,nan,nan,nan,nan,nan,nan,0.0,nan,nan,nan,nan,nan,nan,nan,nan,nan,nan,nan,nan,nan,nan,nan,nan,nan,nan,560.9011064044898,827.6964640557999,nan,827.9996002939879,nan,nan,nan,nan
1,182,1,1,1.0,1.0,0.31802314874948934,0,1.0,0.0,0.0,0.40181156724604244,0.08116507963100796,0.3206464876150345,0.4829766468770504,0.08116507963100796,0.31648200934675214,4,1,6,5,3,2,nan,nan,nan,nan,nan,nan,nan,nan,nan,nan,nan,nan,0.0,nan,nan,nan,nan,nan,nan,nan,nan,nan,nan,nan,nan,nan,nan,nan,nan,nan,nan,560.9011064044898,828.7215682730312,nan,829.0395914217806,nan,nan,nan,nan
1,183,1,1,1.0,1.0,0.31683115812484175,1,0.0,0.0,1.0,0.4013460760321727,0.08117855331925992,0.32016752271291277,0.48252462935143264,0.08117855331925992,0.31266351502078277,7,2,8,0,1,4,1.0,1.0,1.0,1.0,1.0,1.0,1.0,0.0,0.0,0.0,1.0,0.0,2.0,7.0,4.0,1.0,1.0,1.0,2.0,2.0,1.0,6.0,5.0,4.0,3.0,2.5359139554784633,1.5533299616072327,6.3440308384015225,5.335758463537786,4.511586342530791,3.3294575345353223,560.9011064044898,829.7467357817804,830.5551411829074,830.0635669399053,837.9560999071109,838.9566050990252,831.5719422347611,837.947766236437
1,184,1,1,1.0,1.0,0.46607031975872815,0,0.0,0.0,0.0,0.4008791427840659,0.08119602029905341,0.31968312248501246,0.4820751630831193,0.08119602029905341,0.3669748755443531,5,3,6,4,7,8,nan,nan,nan,nan,nan,nan,nan,nan,nan,nan,nan,nan,0.0,nan,nan,nan,nan,nan,nan,nan,nan,nan,nan,nan,nan,nan,nan,nan,nan,nan,nan,560.9011064044898,839.1812926184502,nan,839.647362938209,nan,nan,nan,nan
1,185,1,1,1.0,1.0,0.328920126601588,0,0.0,0.0,0.0,0.40123733606414647,0.08111591896917843,0.32012141709496805,0.4823532550333249,0.08111591896917843,0.3706072014950526,3,6,1,8,0,4,nan,nan,nan,nan,nan,nan,nan,nan,nan,nan,nan,nan,0.0,nan,nan,nan,nan,nan,nan,nan,nan,nan,nan,nan,nan,nan,nan,nan,nan,nan,nan,560.9011064044898,840.2064290516428,nan,840.5353491782444,nan,nan,nan,nan
1,186,0,0,0.0,1.0,0.3037389332312159,0,0.0,0.0,0.0,0.4008421600561543,0.08106947035133157,0.31977268970482275,0.48191163040748586,0.08106947035133157,0.36624312653051067,4,7,3,1,2,5,nan,nan,nan,nan,nan,nan,nan,nan,nan,nan,nan,nan,0.0,nan,nan,nan,nan,nan,nan,nan,nan,nan,nan,nan,nan,nan,nan,nan,nan,nan,nan,560.9011064044898,841.2315788843553,nan,841.5353178175865,nan,nan,nan,nan
1,187,1,1,1.0,1.0,0.3506160090910271,0,0.0,0.0,0.0,0.4003144251277579,0.08116345534973242,0.3191509697780255,0.4814778804774903,0.08116345534973242,0.32775835630794364,5,3,0,6,8,1,nan,nan,nan,nan,nan,nan,nan,nan,nan,nan,nan,nan,0.0,nan,nan,nan,nan,nan,nan,nan,nan,nan,nan,nan,nan,nan,nan,nan,nan,nan,nan,560.9011064044898,842.2566939352546,nan,842.6073099443456,nan,nan,nan,nan
1,188,1,1,1.0,1.0,0.3254522066563368,0,0.0,0.0,0.0,0.4000457850410729,0.08102578083823461,0.31902000420283827,0.48107156587930755,0.08102578083823461,0.32660238299285993,8,0,1,2,6,7,nan,nan,nan,nan,nan,nan,nan,nan,nan,nan,nan,nan,0.0,nan,nan,nan,nan,nan,nan,nan,nan,nan,nan,nan,nan,nan,nan,nan,nan,nan,nan,560.9011064044898,843.2818235260784,nan,843.6072757327347,nan,nan,nan,nan
1,189,1,1,1.0,1.0,0.2923344826558605,0,0.0,0.0,0.0,0.3996447442970689,0.08099157202783733,0.3186531722692316,0.4806363163249062,0.08099157202783733,0.32280089946774143,2,6,5,4,7,8,nan,nan,nan,nan,nan,nan,nan,nan,nan,nan,nan,nan,0.0,nan,nan,nan,nan,nan,nan,nan,nan,nan,nan,nan,nan,nan,nan,nan,nan,nan,nan,560.9011064044898,844.3069317346672,nan,844.599266217323,nan,nan,nan,nan
1,190,1,1,1.0,1.0,0.2991542882518843,0,1.0,0.0,0.0,0.3990708926305384,0.08115298728725003,0.3179179053432884,0.4802238799177884,0.08115298728725003,0.3056469925213605,6,5,0,3,8,7,nan,nan,nan,nan,nan,nan,nan,nan,nan,nan,nan,nan,0.0,nan,nan,nan,nan,nan,nan,nan,nan,nan,nan,nan,nan,nan,nan,nan,nan,nan,nan,560.9011064044898,845.3320912607014,nan,845.6312455489533,nan,nan,nan,nan
1,191,0,0,1.0,0.0,0.36198311200132594,0,0.0,0.0,0.0,0.39853942133065196,0.08126251781341086,0.3172769035172411,0.47980193914406283,0.08126251781341086,0.31782396096969023,7,2,4,0,6,8,nan,nan,nan,nan,nan,nan,nan,nan,nan,nan,nan,nan,0.0,nan,nan,nan,nan,nan,nan,nan,nan,nan,nan,nan,nan,nan,nan,nan,nan,nan,nan,560.9011064044898,846.357241378515,nan,846.7192244905164,nan,nan,nan,nan
1,192,1,1,1.0,1.0,0.26483773131622,0,0.0,0.0,0.0,0.39834600170457085,0.08109063097725167,0.3172553707273192,0.4794366326818225,0.08109063097725167,0.3086583771898101,6,7,0,4,5,1,nan,nan,nan,nan,nan,nan,nan,nan,nan,nan,nan,nan,0.0,nan,nan,nan,nan,nan,nan,nan,nan,nan,nan,nan,nan,nan,nan,nan,nan,nan,nan,560.9011064044898,847.3823575698189,nan,847.6471953011351,nan,nan,nan,nan
1,193,1,1,1.0,1.0,0.24768315913388506,0,0.0,0.0,0.0,0.39764332659726376,0.08145183068042028,0.3161914959168435,0.47909515727768404,0.08145183068042028,0.291501334150477,2,8,6,7,1,3,nan,nan,nan,nan,nan,nan,nan,nan,nan,nan,nan,nan,0.0,nan,nan,nan,nan,nan,nan,nan,nan,nan,nan,nan,nan,nan,nan,nan,nan,nan,nan,560.9011064044898,848.4074957135599,nan,848.6551788726938,nan,nan,nan,nan
1,194,1,1,1.0,1.0,0.4145396053791046,0,1.0,0.0,0.0,0.39685819483043977,0.08195601075103896,0.3149021840794008,0.47881420558147875,0.08195601075103896,0.30902016527640325,3,4,7,6,8,1,nan,nan,nan,nan,nan,nan,nan,nan,nan,nan,nan,nan,0.0,nan,nan,nan,nan,nan,nan,nan,nan,nan,nan,nan,nan,nan,nan,nan,nan,nan,nan,560.9011064044898,849.4326238789363,nan,849.8471634843154,nan,nan,nan,nan
1,195,1,1,1.0,1.0,0.285353597253561,1,0.0,0.0,1.0,0.39695028551038075,0.08175221245562249,0.3151980730547583,0.4787024979660032,0.08175221245562249,0.3158587872555169,4,0,8,7,6,5,1.0,1.0,1.0,1.0,1.0,1.0,1.0,0.0,0.0,0.0,0.0,1.0,2.0,4.0,7.0,1.0,1.0,1.0,5.0,1.0,2.0,6.0,5.0,4.0,3.0,2.2417893486563116,3.7612631850643083,7.992868298315443,6.928669013199396,6.104908572277054,4.825243230559863,560.9011064044898,850.4577882516314,851.266174551216,850.743141848885,860.3090263424092,861.3109644318465,852.2746459237533,860.3006858293666
1,196,1,1,1.0,1.0,0.3126510658184998,0,0.0,0.0,0.0,0.3963720643277029,0.08193282815558628,0.3144392361721166,0.47830489248328917,0.08193282815558628,0.33751475615038845,2,4,0,5,7,3,nan,nan,nan,nan,nan,nan,nan,nan,nan,nan,nan,nan,0.0,nan,nan,nan,nan,nan,nan,nan,nan,nan,nan,nan,nan,nan,nan,nan,nan,nan,nan,560.9011064044898,861.5342686605873,nan,861.8469197264058,nan,nan,nan,nan
1,197,1,1,1.0,1.0,0.29555579379666597,0,0.0,0.0,0.0,0.39594051278899567,0.08194100918309684,0.31399950360589884,0.4778815219720925,0.08194100918309684,0.2978534856229089,7,3,1,6,0,5,nan,nan,nan,nan,nan,nan,nan,nan,nan,nan,nan,nan,0.0,nan,nan,nan,nan,nan,nan,nan,nan,nan,nan,nan,nan,nan,nan,nan,nan,nan,nan,560.9011064044898,862.559340091655,nan,862.8548958854517,nan,nan,nan,nan
1,198,1,1,1.0,1.0,0.23040086351102218,0,1.0,0.0,0.0,0.39542571935826576,0.08204455442753515,0.3133811649307306,0.4774702737858009,0.08204455442753515,0.2795359077087293,2,1,6,7,8,0,nan,nan,nan,nan,nan,nan,nan,nan,nan,nan,nan,nan,0.0,nan,nan,nan,nan,nan,nan,nan,nan,nan,nan,nan,nan,nan,nan,nan,nan,nan,nan,560.9011064044898,863.5844705377822,nan,863.8148714012932,nan,nan,nan,nan
1,199,1,1,1.0,1.0,0.19724892789963633,1,0.0,0.0,1.0,0.39458375580802474,0.08267527749749434,0.31190847831053037,0.4772590333055191,0.08267527749749434,0.2410685284024415,1,8,7,3,2,5,1.0,1.0,1.0,1.0,1.0,1.0,1.0,1.0,0.0,0.0,1.0,0.0,3.0,1.0,8.0,0.0,2.0,2.0,2.0,2.0,1.0,6.0,5.0,4.0,3.0,2.6007795122568496,1.490244835615158,6.239573574741371,5.15202398924157,4.312410729005933,3.4082190046901815,560.9011064044898,864.6096049752668,865.4180263418239,864.8068539031665,872.7189616310643,873.7282925710897,866.4431527965935,872.7106345175998
1,200,1,1,1.0,1.0,0.2622442038846202,0,0.0,0.0,0.0,0.393582056173972,0.08364909968236754,0.30993295649160446,0.4772311558563396,0.08364909968236754,0.22996466509842625,4,0,2,7,3,1,nan,nan,nan,nan,nan,nan,nan,nan,nan,nan,nan,nan,0.0,nan,nan,nan,nan,nan,nan,nan,nan,nan,nan,nan,nan,nan,nan,nan,nan,nan,nan,560.9011064044898,873.9524957106914,nan,874.2147399145761,nan,nan,nan,nan
1,201,1,1,1.0,1.0,0.3490080619812943,0,0.0,0.0,0.0,0.39291873368766217,0.08395541661959374,0.30896331706806845,0.4768741503072559,0.08395541661959374,0.26950039792185027,3,1,7,2,6,8,nan,nan,nan,nan,nan,nan,nan,nan,nan,nan,nan,nan,0.0,nan,nan,nan,nan,nan,nan,nan,nan,nan,nan,nan,nan,nan,nan,nan,nan,nan,nan,560.9011064044898,874.977616463555,nan,875.3266245255363,nan,nan,nan,nan
1,202,1,1,1.0,1.0,0.363859050325118,0,0.0,0.0,0.0,0.39269807704592163,0.08380174707953,0.3088963299663916,0.47649982412545167,0.08380174707953,0.32503710539701086,7,2,6,8,0,1,nan,nan,nan,nan,nan,nan,nan,nan,nan,nan,nan,nan,0.0,nan,nan,nan,nan,nan,nan,nan,nan,nan,nan,nan,nan,nan,nan,nan,nan,nan,nan,560.9011064044898,876.0027509010397,nan,876.3666099513648,nan,nan,nan,nan
1,203,1,1,1.0,1.0,0.32268362952163443,0,0.0,0.0,0.0,0.3925538819123176,0.08361672562704227,0.30893715628527535,0.47617060753935986,0.08361672562704227,0.3451835806093489,0,1,2,5,3,7,nan,nan,nan,nan,nan,nan,nan,nan,nan,nan,nan,nan,0.0,nan,nan,nan,nan,nan,nan,nan,nan,nan,nan,nan,nan,nan,nan,nan,nan,nan,nan,560.9011064044898,877.0278961722506,nan,877.3505798017723,nan,nan,nan,nan
1,204,1,1,1.0,1.0,0.3295385020901449,0,0.0,0.0,0.0,0.39220626871634406,0.08355321018169642,0.30865305853464764,0.4757594788980405,0.08355321018169642,0.33869372731229913,3,4,5,1,7,2,nan,nan,nan,nan,nan,nan,nan,nan,nan,nan,nan,nan,0.0,nan,nan,nan,nan,nan,nan,nan,nan,nan,nan,nan,nan,nan,nan,nan,nan,nan,nan,560.9011064044898,878.0530294693308,nan,878.3825679714209,nan,nan,nan,nan
1,205,1,1,1.0,1.0,0.3203928750590421,0,0.0,0.0,0.0,0.39189603224789754,0.08346211366771636,0.3084339185801812,0.47535814591561387,0.08346211366771636,0.32420500222360715,6,5,0,2,1,8,nan,nan,nan,nan,nan,nan,nan,nan,nan,nan,nan,nan,0.0,nan,nan,nan,nan,nan,nan,nan,nan,nan,nan,nan,nan,nan,nan,nan,nan,nan,nan,560.9011064044898,879.0781590602128,nan,879.3985519352718,nan,nan,nan,nan
1,206,1,1,1.0,1.0,0.33511243370594457,0,0.0,0.0,0.0,0.3915437999464746,0.08340666144435956,0.30813713850211505,0.47495046139083413,0.08340666144435956,0.32834793695171055,1,6,3,0,8,7,nan,nan,nan,nan,nan,nan,nan,nan,nan,nan,nan,nan,0.0,nan,nan,nan,nan,nan,nan,nan,nan,nan,nan,nan,nan,nan,nan,nan,nan,nan,nan,560.9011064044898,880.1034081066609,nan,880.4385205403669,nan,nan,nan,nan
1,207,1,1,1.0,1.0,0.33407553588040173,0,0.0,0.0,0.0,0.39126717560215823,0.08329527965419443,0.3079718959479638,0.47456245525635266,0.08329527965419443,0.3298602815484628,3,4,8,5,7,1,nan,nan,nan,nan,nan,nan,nan,nan,nan,nan,nan,nan,0.0,nan,nan,nan,nan,nan,nan,nan,nan,nan,nan,nan,nan,nan,nan,nan,nan,nan,nan,560.9011064044898,881.128427650081,nan,881.4625031859614,nan,nan,nan,nan
1,208,1,1,1.0,1.0,0.2849193945294246,0,0.0,0.0,0.0,0.39098819199375945,0.08318736023561413,0.3078008317581453,0.4741755522293736,0.08318736023561413,0.3180357880385903,2,3,5,4,1,6,nan,nan,nan,nan,nan,nan,nan,nan,nan,nan,nan,nan,0.0,nan,nan,nan,nan,nan,nan,nan,nan,nan,nan,nan,nan,nan,nan,nan,nan,nan,nan,560.9011064044898,882.1535623726668,nan,882.4384817671962,nan,nan,nan,nan
1,209,1,1,1.0,1.0,0.33177765394793823,0,0.0,0.0,0.0,0.3904732949186899,0.0833120243419593,0.3071612705767306,0.47378531926064915,0.0833120243419593,0.31692419478592154,5,8,7,6,2,1,nan,nan,nan,nan,nan,nan,nan,nan,nan,nan,nan,nan,0.0,nan,nan,nan,nan,nan,nan,nan,nan,nan,nan,nan,nan,nan,nan,nan,nan,nan,nan,560.9011064044898,883.1786876870901,nan,883.5104653410381,nan,nan,nan,nan
1,210,0,0,0.0,1.0,0.610637596633751,0,0.0,0.0,0.0,0.3901897410975751,0.0832101284969304,0.3069796126006447,0.4733998695945055,0.0832101284969304,0.4091115483703713,1,4,0,3,8,2,nan,nan,nan,nan,nan,nan,nan,nan,nan,nan,nan,nan,0.0,nan,nan,nan,nan,nan,nan,nan,nan,nan,nan,nan,nan,nan,nan,nan,nan,nan,nan,560.9011064044898,884.203814712062,nan,884.8144523086958,nan,nan,nan,nan
1,211,1,1,1.0,1.0,0.37744363775709644,0,0.0,0.0,0.0,0.39124958655688363,0.08439878415884688,0.30685080239803675,0.4756483707157305,0.08439878415884688,0.4399529627795952,3,0,2,4,5,1,nan,nan,nan,nan,nan,nan,nan,nan,nan,nan,nan,nan,0.0,nan,nan,nan,nan,nan,nan,nan,nan,nan,nan,nan,nan,nan,nan,nan,nan,nan,nan,560.9011064044898,885.2289750933414,nan,885.6064187310985,nan,nan,nan,nan
1,212,1,1,1.0,1.0,0.3843153310008347,0,0.0,0.0,0.0,0.3911835293855928,0.08420202079308554,0.3069815085925073,0.47538555017867834,0.08420202079308554,0.4574655217972274,1,2,6,5,7,4,nan,nan,nan,nan,nan,nan,nan,nan,nan,nan,nan,nan,0.0,nan,nan,nan,nan,nan,nan,nan,nan,nan,nan,nan,nan,nan,nan,nan,nan,nan,nan,560.9011064044898,886.2540773148648,nan,886.6383926458657,nan,nan,nan,nan
1,213,1,1,1.0,1.0,0.3434797458467074,0,0.0,0.0,0.0,0.3911508236789987,0.08400263123425322,0.3071481924447455,0.47515345491325195,0.08400263123425322,0.3684129048682128,2,6,1,8,0,7,nan,nan,nan,nan,nan,nan,nan,nan,nan,nan,nan,nan,0.0,nan,nan,nan,nan,nan,nan,nan,nan,nan,nan,nan,nan,nan,nan,nan,nan,nan,nan,560.9011064044898,887.2709006043733,nan,887.61438035022,nan,nan,nan,nan
1,214,1,1,1.0,1.0,0.3166404282092117,0,0.0,0.0,0.0,0.3909248944001727,0.08386726685147551,0.3070576275486972,0.4747921612516482,0.08386726685147551,0.34814516835225123,1,3,5,4,7,6,nan,nan,nan,nan,nan,nan,nan,nan,nan,nan,nan,nan,0.0,nan,nan,nan,nan,nan,nan,nan,nan,nan,nan,nan,nan,nan,nan,nan,nan,nan,nan,560.9011064044898,888.3377042506472,nan,888.6543446788564,nan,nan,nan,nan
1,215,1,1,1.0,1.0,0.3715167560148984,0,0.0,0.0,0.0,0.39057449597474364,0.0838239041852281,0.3067505917895155,0.47439840015997176,0.0838239041852281,0.3438789766902725,6,5,2,0,1,3,nan,nan,nan,nan,nan,nan,nan,nan,nan,nan,nan,nan,0.0,nan,nan,nan,nan,nan,nan,nan,nan,nan,nan,nan,nan,nan,nan,nan,nan,nan,nan,560.9011064044898,889.3628201567917,nan,889.7343369128066,nan,nan,nan,nan
1,216,1,1,1.0,1.0,0.34634981740964577,0,0.0,0.0,0.0,0.3904850230171857,0.08363704948243555,0.30684797353475013,0.47412207249962124,0.08363704948243555,0.344835667211252,0,8,1,2,3,4,nan,nan,nan,nan,nan,nan,nan,nan,nan,nan,nan,nan,0.0,nan,nan,nan,nan,nan,nan,nan,nan,nan,nan,nan,nan,nan,nan,nan,nan,nan,nan,560.9011064044898,890.3879702746635,nan,890.7343200920732,nan,nan,nan,nan
1,217,1,1,1.0,1.0,0.4734936756431125,0,0.0,0.0,0.0,0.3902787837386458,0.08349567820776539,0.3067831055308804,0.47377446194641115,0.08349567820776539,0.39712008302255225,3,7,2,6,4,1,nan,nan,nan,nan,nan,nan,nan,nan,nan,nan,nan,nan,0.0,nan,nan,nan,nan,nan,nan,nan,nan,nan,nan,nan,nan,nan,nan,nan,nan,nan,nan,560.9011064044898,891.4047952747205,nan,891.8782889503636,nan,nan,nan,nan
1,218,1,1,1.0,1.0,0.38467854453483596,0,0.0,0.0,0.0,0.39066582974750375,0.08349347731184505,0.3071723524356587,0.4741593070593488,0.08349347731184505,0.4015073458625314,2,6,7,0,1,8,nan,nan,nan,nan,nan,nan,nan,nan,nan,nan,nan,nan,0.0,nan,nan,nan,nan,nan,nan,nan,nan,nan,nan,nan,nan,nan,nan,nan,nan,nan,nan,560.9011064044898,892.4215775101911,nan,892.806256054726,nan,nan,nan,nan
1,219,0,0,1.0,0.0,0.3595609277836047,0,0.0,0.0,0.0,0.39063811083448213,0.08330097270707951,0.3073371381274026,0.47393908354156167,0.08330097270707951,0.40591104932051775,0,3,8,5,7,4,nan,nan,nan,nan,nan,nan,nan,nan,nan,nan,nan,nan,0.0,nan,nan,nan,nan,nan,nan,nan,nan,nan,nan,nan,nan,nan,nan,nan,nan,nan,nan,560.9011064044898,893.4466934163938,nan,893.8062543441774,nan,nan,nan,nan
1,220,1,1,1.0,1.0,0.4064035068731755,0,0.0,0.0,0.0,0.3904948980093629,0.0831354617284857,0.3073594362808772,0.47363035973784856,0.0831354617284857,0.3835476597305387,6,4,5,8,3,1,nan,nan,nan,nan,nan,nan,nan,nan,nan,nan,nan,nan,0.0,nan,nan,nan,nan,nan,nan,nan,nan,nan,nan,nan,nan,nan,nan,nan,nan,nan,nan,560.9011064044898,894.471821011568,nan,894.8782245184411,nan,nan,nan,nan
1,221,1,1,1.0,1.0,0.2692433354095556,0,0.0,0.0,0.0,0.39056787327938036,0.08295153075793363,0.30761634252144676,0.47351940403731396,0.08295153075793363,0.3450692566887786,7,0,2,1,4,8,nan,nan,nan,nan,nan,nan,nan,nan,nan,nan,nan,nan,0.0,nan,nan,nan,nan,nan,nan,nan,nan,nan,nan,nan,nan,nan,nan,nan,nan,nan,nan,560.9011064044898,895.4969708442804,nan,895.76621417969,nan,nan,nan,nan
1,222,1,1,1.0,1.0,0.2520976012456231,0,0.0,0.0,0.0,0.39001387995577386,0.08316515278626238,0.3068487271695115,0.4731790327420362,0.08316515278626238,0.3092481478427847,6,7,8,4,1,3,nan,nan,nan,nan,nan,nan,nan,nan,nan,nan,nan,nan,0.0,nan,nan,nan,nan,nan,nan,nan,nan,nan,nan,nan,nan,nan,nan,nan,nan,nan,nan,560.9011064044898,896.5220933076926,nan,896.7741909089382,nan,nan,nan,nan
1,223,1,1,1.0,1.0,0.28295878239441663,0,1.0,0.0,0.0,0.38938698777981867,0.08349293326141587,0.3058940545184028,0.47287992104123455,0.08349293326141587,0.2680999063498651,0,5,3,7,8,2,nan,nan,nan,nan,nan,nan,nan,nan,nan,nan,nan,nan,0.0,nan,nan,nan,nan,nan,nan,nan,nan,nan,nan,nan,nan,nan,nan,nan,nan,nan,nan,560.9011064044898,897.5472075032885,nan,897.8301662856829,nan,nan,nan,nan
1,224,1,1,1.0,1.0,0.3297913831193,1,0.0,0.0,1.0,0.38890541218983943,0.08360949654560514,0.3052959156442343,0.47251490873544455,0.08360949654560514,0.2882825889197799,8,1,5,0,4,6,1.0,1.0,1.0,1.0,1.0,1.0,1.0,1.0,0.0,0.0,0.0,0.0,2.0,8.0,1.0,1.0,1.0,1.0,0.0,2.0,1.0,6.0,5.0,4.0,3.0,2.5346070707892068,1.501957761181984,6.020584859419614,5.236418976332061,4.405511153279804,3.36554083757801,560.9011064044898,898.5723650336731,899.3807767069084,898.9021564167924,906.4566969002481,907.454828374437,900.3975982857519,906.4483552468591
1,225,1,1,1.0,1.0,0.34043063333956525,0,0.0,0.0,0.0,0.3886391327796118,0.08351484240613177,0.30512429037348004,0.4721539751857436,0.08351484240613177,0.31772693295109394,4,7,8,2,1,0,nan,nan,nan,nan,nan,nan,nan,nan,nan,nan,nan,nan,0.0,nan,nan,nan,nan,nan,nan,nan,nan,nan,nan,nan,nan,nan,nan,nan,nan,nan,nan,560.9011064044898,907.6735442518839,nan,908.0139748852234,nan,nan,nan,nan
1,226,1,1,1.0,1.0,0.32328375877114013,0,0.0,0.0,0.0,0.38842295116777303,0.08338961054906499,0.305033340618708,0.47181256171683805,0.08338961054906499,0.33116859174333513,0,1,7,4,8,6,nan,nan,nan,nan,nan,nan,nan,nan,nan,nan,nan,nan,0.0,nan,nan,nan,nan,nan,nan,nan,nan,nan,nan,nan,nan,nan,nan,nan,nan,nan,nan,560.9011064044898,908.6986920889467,nan,909.0219758477178,nan,nan,nan,nan
1,227,1,1,1.0,1.0,0.3060921239666641,0,0.0,0.0,0.0,0.3881321512017166,0.08331651208882936,0.3048156391128873,0.47144866329054597,0.08331651208882936,0.3232688386924565,8,3,2,1,7,5,nan,nan,nan,nan,nan,nan,nan,nan,nan,nan,nan,nan,0.0,nan,nan,nan,nan,nan,nan,nan,nan,nan,nan,nan,nan,nan,nan,nan,nan,nan,nan,560.9011064044898,909.7238222499727,nan,910.0299143739394,nan,nan,nan,nan
1,228,0,0,1.0,0.0,0.3369424713891931,0,0.0,0.0,0.0,0.38776752885844973,0.08331008417688485,0.3044574446815649,0.4710776130353346,0.08331008417688485,0.3221061180423324,1,5,7,8,3,4,nan,nan,nan,nan,nan,nan,nan,nan,nan,nan,nan,nan,0.0,nan,nan,nan,nan,nan,nan,nan,nan,nan,nan,nan,nan,nan,nan,nan,nan,nan,nan,560.9011064044898,910.74895526201,nan,911.0858977333992,nan,nan,nan,nan
1,229,1,1,1.0,1.0,0.31170425860909745,0,0.0,0.0,0.0,0.38754263922363,0.0831939847076969,0.3043486545159331,0.4707366239313269,0.0831939847076969,0.3182462846549849,7,4,3,0,8,5,nan,nan,nan,nan,nan,nan,nan,nan,nan,nan,nan,nan,0.0,nan,nan,nan,nan,nan,nan,nan,nan,nan,nan,nan,nan,nan,nan,nan,nan,nan,nan,560.9011064044898,911.7741604035837,nan,912.0858646621928,nan,nan,nan,nan
1,230,1,1,1.0,1.0,0.23065459984354675,0,0.0,0.0,0.0,0.38720854944118716,0.08316233680934686,0.3040462126318403,0.470370886250534,0.08316233680934686,0.2931004432806124,8,2,4,3,6,1,nan,nan,nan,nan,nan,nan,nan,nan,nan,nan,nan,nan,0.0,nan,nan,nan,nan,nan,nan,nan,nan,nan,nan,nan,nan,nan,nan,nan,nan,nan,nan,560.9011064044898,912.7992144437158,nan,913.0298690435593,nan,nan,nan,nan
1,231,1,1,1.0,1.0,0.2854841717053205,0,1.0,0.0,0.0,0.3865219093113729,0.08362216089496659,0.3028997484164063,0.4701440702063395,0.08362216089496659,0.2759476767193216,5,8,3,0,1,7,nan,nan,nan,nan,nan,nan,nan,nan,nan,nan,nan,nan,0.0,nan,nan,nan,nan,nan,nan,nan,nan,nan,nan,nan,nan,nan,nan,nan,nan,nan,nan,560.9011064044898,913.8243483109982,nan,914.1098324827035,nan,nan,nan,nan
1,232,0,0,1.0,0.0,0.2603252158733085,0,0.0,0.0,0.0,0.3860806964833989,0.08370492584932966,0.30237577063406923,0.4697856223327285,0.08370492584932966,0.25882132914072525,8,3,0,5,2,1,nan,nan,nan,nan,nan,nan,nan,nan,nan,nan,nan,nan,0.0,nan,nan,nan,nan,nan,nan,nan,nan,nan,nan,nan,nan,nan,nan,nan,nan,nan,nan,560.9011064044898,914.8494970033644,nan,915.1098222192377,nan,nan,nan,nan
1,233,1,1,1.0,1.0,0.2351842211210169,0,0.0,0.0,0.0,0.3855339335242246,0.08393158519540032,0.30160234832882427,0.46946551871962494,0.08393158519540032,0.26033120289988193,2,5,3,1,6,8,nan,nan,nan,nan,nan,nan,nan,nan,nan,nan,nan,nan,0.0,nan,nan,nan,nan,nan,nan,nan,nan,nan,nan,nan,nan,nan,nan,nan,nan,nan,nan,560.9011064044898,915.8746117691626,nan,916.1097959902836,nan,nan,nan,nan
1,234,1,1,1.0,1.0,0.25793325196718797,0,0.0,0.0,0.0,0.38488306896836655,0.08432940737929542,0.30055366158907115,0.46921247634766194,0.08432940737929542,0.2511475629871711,3,7,5,0,4,6,nan,nan,nan,nan,nan,nan,nan,nan,nan,nan,nan,nan,0.0,nan,nan,nan,nan,nan,nan,nan,nan,nan,nan,nan,nan,nan,nan,nan,nan,nan,nan,560.9011064044898,916.8998391482746,nan,917.1577724002418,nan,nan,nan,nan
1,235,1,1,1.0,1.0,0.2488714435021393,0,1.0,0.0,0.0,0.3843358714812925,0.08455745589542735,0.29977841558586515,0.46889332737671985,0.08455745589542735,0.24732963886344805,7,8,2,5,0,4,nan,nan,nan,nan,nan,nan,nan,nan,nan,nan,nan,nan,0.0,nan,nan,nan,nan,nan,nan,nan,nan,nan,nan,nan,nan,nan,nan,nan,nan,nan,nan,560.9011064044898,917.9248897672514,nan,918.1737612107536,nan,nan,nan,nan
1,236,1,1,1.0,1.0,0.2717099947622046,1,0.0,0.0,1.0,0.3837544790865322,0.08483924080639782,0.2989152382801344,0.46859371989293,0.08483924080639782,0.25950489674384397,3,5,4,2,1,8,1.0,1.0,1.0,1.0,1.0,1.0,1.0,1.0,0.0,1.0,0.0,0.0,3.0,3.0,5.0,2.0,2.0,2.0,1.0,1.0,2.0,6.0,5.0,4.0,3.0,1.219713717000559,2.716233822866343,7.298465208790731,6.45885936106788,5.699896908947267,4.2516790788504295,560.9011064044898,918.950023919635,919.7584355928702,919.2217339143972,928.1095197312534,929.1071987565374,920.7752355043776,928.1011795033701
1,237,1,1,1.0,1.0,0.30314165499294177,0,0.0,0.0,0.0,0.38327565650394957,0.08497268708789531,0.2983029694160543,0.46824834359184486,0.08497268708789531,0.2745743644190952,5,0,1,8,7,4,nan,nan,nan,nan,nan,nan,nan,nan,nan,nan,nan,nan,0.0,nan,nan,nan,nan,nan,nan,nan,nan,nan,nan,nan,nan,nan,nan,nan,nan,nan,nan,560.9011064044898,929.3263733550557,nan,929.6295150100486,nan,nan,nan,nan
1,238,1,1,nan,nan,nan,0,0.0,0.0,0.0,0.38293466075283894,0.08495199645165012,0.2979826643011888,0.4678866572044891,0.08495199645165012,0.2874258248775732,6,3,2,7,5,0,nan,nan,nan,nan,nan,nan,nan,nan,nan,nan,nan,nan,0.0,nan,nan,nan,nan,nan,nan,nan,nan,nan,nan,nan,nan,nan,nan,nan,nan,nan,nan,560.9011064044898,930.3515023757354,nan,nan,nan,nan,nan,nan
1,239,1,1,1.0,1.0,0.5008264962234534,0,0.0,0.0,0.0,0.38293466075283894,0.08495199645165012,0.2979826643011888,0.4678866572044891,0.08495199645165012,0.4019840756081976,5,2,8,3,0,6,nan,nan,nan,nan,nan,nan,nan,nan,nan,nan,nan,nan,0.0,nan,nan,nan,nan,nan,nan,nan,nan,nan,nan,nan,nan,nan,nan,nan,nan,nan,nan,560.9011064044898,931.3766322516603,nan,931.8774587478838,nan,nan,nan,nan
1,240,1,1,1.0,1.0,0.3080074056633748,0,0.0,0.0,0.0,0.38343420242856185,0.0851170030403081,0.29831719938825374,0.46855120546886997,0.0851170030403081,0.4044169509434141,2,3,0,7,5,8,nan,nan,nan,nan,nan,nan,nan,nan,nan,nan,nan,nan,0.0,nan,nan,nan,nan,nan,nan,nan,nan,nan,nan,nan,nan,nan,nan,nan,nan,nan,nan,560.9011064044898,932.3934444223414,nan,932.7014518280048,nan,nan,nan,nan
1,241,1,1,1.0,1.0,0.3148694056435488,0,0.0,0.0,0.0,0.38311594590212644,0.08507783949786446,0.298038106404262,0.4681937853999909,0.08507783949786446,0.37456776917679235,5,0,2,6,4,3,nan,nan,nan,nan,nan,nan,nan,nan,nan,nan,nan,nan,0.0,nan,nan,nan,nan,nan,nan,nan,nan,nan,nan,nan,nan,nan,nan,nan,nan,nan,nan,560.9011064044898,933.4185694516054,nan,933.733438857249,nan,nan,nan,nan
1,242,1,1,1.0,1.0,0.39403001160826534,0,0.0,0.0,0.0,0.3828291957329728,0.0850136076576672,0.2978155880753056,0.46784280339064,0.0850136076576672,0.33896894097172964,8,7,4,3,6,0,nan,nan,nan,nan,nan,nan,nan,nan,nan,nan,nan,nan,0.0,nan,nan,nan,nan,nan,nan,nan,nan,nan,nan,nan,nan,nan,nan,nan,nan,nan,nan,560.9011064044898,934.4353787713335,nan,934.8294087829418,nan,nan,nan,nan
1,243,1,1,1.0,1.0,0.2968837756779976,0,0.0,0.0,0.0,0.3828760610713631,0.08483864930120737,0.29803741177015575,0.4677147103725705,0.08483864930120737,0.33526106430993724,4,0,8,1,3,2,nan,nan,nan,nan,nan,nan,nan,nan,nan,nan,nan,nan,0.0,nan,nan,nan,nan,nan,nan,nan,nan,nan,nan,nan,nan,nan,nan,nan,nan,nan,nan,560.9011064044898,935.4605134939193,nan,935.7573972695973,nan,nan,nan,nan
1,244,1,1,1.0,1.0,0.22373843152308837,0,0.0,0.0,0.0,0.3825177598822241,0.08484273209038465,0.2976750277918394,0.46736049197260876,0.08484273209038465,0.3048840729364504,5,3,7,8,2,6,nan,nan,nan,nan,nan,nan,nan,nan,nan,nan,nan,nan,0.0,nan,nan,nan,nan,nan,nan,nan,nan,nan,nan,nan,nan,nan,nan,nan,nan,nan,nan,560.9011064044898,936.4856319659739,nan,936.709370397497,nan,nan,nan,nan
1,245,1,1,1.0,1.0,0.3185622671735473,0,1.0,0.0,0.0,0.3818589244948418,0.08527951773392815,0.29657940676091366,0.46713844222877,0.08527951773392815,0.2797281581248778,4,8,3,1,5,2,nan,nan,nan,nan,nan,nan,nan,nan,nan,nan,nan,nan,0.0,nan,nan,nan,nan,nan,nan,nan,nan,nan,nan,nan,nan,nan,nan,nan,nan,nan,nan,560.9011064044898,937.5107903516619,nan,937.8293526188354,nan,nan,nan,nan
1,246,1,1,1.0,1.0,0.27741706668166444,1,0.0,0.0,1.0,0.38159736805962985,0.0851999491257283,0.29639741893390154,0.46679731718535816,0.0851999491257283,0.27323925512610003,1,7,8,5,2,6,1.0,1.0,1.0,1.0,1.0,1.0,1.0,1.0,0.0,0.0,0.0,0.0,2.0,1.0,7.0,0.0,0.0,0.0,2.0,1.0,2.0,6.0,5.0,4.0,3.0,1.4879218651913106,2.36846365215024,6.424064126331359,5.543725043302402,4.689172699814662,3.296715853502974,560.9011064044898,938.5359093939187,939.3443119440344,938.8133264606004,946.8286270469544,947.8268306506798,940.3694706147653,946.8202788362978
1,247,0,0,0.0,1.0,0.49564143689349294,0,0.0,0.0,0.0,0.3811686425395559,0.0852856360850234,0.29588300645453247,0.46645427862457933,0.0852856360850234,0.3638735902495682,2,8,6,4,5,7,nan,nan,nan,nan,nan,nan,nan,nan,nan,nan,nan,nan,0.0,nan,nan,nan,nan,nan,nan,nan,nan,nan,nan,nan,nan,nan,nan,nan,nan,nan,nan,560.9011064044898,948.0454769644421,nan,948.5411184013356,nan,nan,nan,nan
1,248,1,1,1.0,1.0,0.5344898958574049,0,0.0,0.0,0.0,0.38163779333608844,0.08542432103181861,0.2962134723042698,0.46706211436790707,0.08542432103181861,0.43584946647752076,3,6,2,8,0,1,nan,nan,nan,nan,nan,nan,nan,nan,nan,nan,nan,nan,0.0,nan,nan,nan,nan,nan,nan,nan,nan,nan,nan,nan,nan,nan,nan,nan,nan,nan,nan,560.9011064044898,949.0706045596162,nan,949.6050944554736,nan,nan,nan,nan
1,249,1,1,1.0,1.0,0.3493125456152484,0,0.0,0.0,0.0,0.3822616794688285,0.0858050274710978,0.2964566519977307,0.4680667069399263,0.0858050274710978,0.45981462612204876,5,4,8,7,6,0,nan,nan,nan,nan,nan,nan,nan,nan,nan,nan,nan,nan,0.0,nan,nan,nan,nan,nan,nan,nan,nan,nan,nan,nan,nan,nan,nan,nan,nan,nan,nan,560.9011064044898,950.0957543923287,nan,950.4450669379439,nan,nan,nan,nan
1,250,0,0,1.0,0.0,0.29250810673693195,0,0.0,0.0,0.0,0.382127739900318,0.08565610964405825,0.2964716302562598,0.46778384954437624,0.08565610964405825,0.39210351606986177,4,5,6,2,1,3,nan,nan,nan,nan,nan,nan,nan,nan,nan,nan,nan,nan,0.0,nan,nan,nan,nan,nan,nan,nan,nan,nan,nan,nan,nan,nan,nan,nan,nan,nan,nan,560.9011064044898,951.1125602909015,nan,951.4050683976384,nan,nan,nan,nan
1,251,1,1,1.0,1.0,0.2993609835393727,0,0.0,0.0,0.0,0.38176490737738933,0.08567175766319615,0.2960931497141932,0.46743666504058545,0.08567175766319615,0.313727211963851,7,0,1,3,8,5,nan,nan,nan,nan,nan,nan,nan,nan,nan,nan,nan,nan,0.0,nan,nan,nan,nan,nan,nan,nan,nan,nan,nan,nan,nan,nan,nan,nan,nan,nan,nan,560.9011064044898,952.1376750566997,nan,952.437036040239,nan,nan,nan,nan
1,252,1,1,1.0,1.0,0.2502276499872096,0,0.0,0.0,0.0,0.3814326334909457,0.08565818678940183,0.29577444670154385,0.46709082028034754,0.08565818678940183,0.2806989134211714,6,4,7,2,3,8,nan,nan,nan,nan,nan,nan,nan,nan,nan,nan,nan,nan,0.0,nan,nan,nan,nan,nan,nan,nan,nan,nan,nan,nan,nan,nan,nan,nan,nan,nan,nan,560.9011064044898,953.1628012263682,nan,953.4130288763554,nan,nan,nan,nan
1,253,1,1,1.0,1.0,0.3210645636427216,0,1.0,0.0,0.0,0.3809057058463524,0.08588780865577858,0.2950178971905738,0.466793514502131,0.08588780865577858,0.29021773238976795,8,1,6,5,4,7,nan,nan,nan,nan,nan,nan,nan,nan,nan,nan,nan,nan,0.0,nan,nan,nan,nan,nan,nan,nan,nan,nan,nan,nan,nan,nan,nan,nan,nan,nan,nan,560.9011064044898,954.1879402254126,nan,954.5090047890553,nan,nan,nan,nan
1,254,1,1,1.0,1.0,0.3039005832397379,1,0.0,0.0,1.0,0.38066634127753785,0.08579904059366283,0.294867300683875,0.4664653818712007,0.08579904059366283,0.2917309322898897,1,3,7,2,0,5,1.0,1.0,1.0,1.0,1.0,1.0,0.0,0.0,0.0,0.0,0.0,0.0,0.0,4.0,1.0,3.0,4.0,3.0,3.0,1.0,2.0,6.0,5.0,4.0,3.0,1.3732692472985946,2.100950855528936,5.010303976130672,4.338819550117478,3.587559563864488,2.9164677164517343,560.9011064044898,955.2130715268431,956.0214920380968,955.5169721100829,962.0972759550787,963.0989292326267,957.0466241948307,962.0889499820187
1,255,1,1,1.0,1.0,0.28234981518471614,0,0.0,0.0,0.0,0.38036050160408047,0.08576439387146297,0.2945961077326175,0.4661248954755434,0.08576439387146297,0.30243832068905857,2,0,6,4,5,1,nan,nan,nan,nan,nan,nan,nan,nan,nan,nan,nan,nan,0.0,nan,nan,nan,nan,nan,nan,nan,nan,nan,nan,nan,nan,nan,nan,nan,nan,nan,nan,560.9011064044898,963.3224706620676,nan,963.6048204772524,nan,nan,nan,nan
1,256,1,1,1.0,1.0,0.38517974509159103,0,0.0,0.0,0.0,0.37997157030876555,0.08581556266619102,0.29415600764257455,0.46578713297495655,0.08581556266619102,0.32381004783868167,8,1,0,3,2,7,nan,nan,nan,nan,nan,nan,nan,nan,nan,nan,nan,nan,0.0,nan,nan,nan,nan,nan,nan,nan,nan,nan,nan,nan,nan,nan,nan,nan,nan,nan,nan,560.9011064044898,964.3476116568199,nan,964.7327914019115,nan,nan,nan,nan
1,257,1,1,1.0,1.0,0.3440550716477446,0,0.0,0.0,0.0,0.3799921559798439,0.08564642221312548,0.29434573376671846,0.4656385781929694,0.08564642221312548,0.3371948773080173,6,3,1,2,4,8,nan,nan,nan,nan,nan,nan,nan,nan,nan,nan,nan,nan,0.0,nan,nan,nan,nan,nan,nan,nan,nan,nan,nan,nan,nan,nan,nan,nan,nan,nan,nan,560.9011064044898,965.3727264226181,nan,965.7167814942659,nan,nan,nan,nan
1,258,1,1,1.0,1.0,0.3108897364581935,0,0.0,0.0,0.0,0.37985067139585926,0.0855072803429334,0.29434339105292584,0.4653579517387927,0.0855072803429334,0.3467081843991764,7,6,3,8,1,0,nan,nan,nan,nan,nan,nan,nan,nan,nan,nan,nan,nan,0.0,nan,nan,nan,nan,nan,nan,nan,nan,nan,nan,nan,nan,nan,nan,nan,nan,nan,nan,560.9011064044898,966.3978688428178,nan,966.708758579276,nan,nan,nan,nan
1,259,1,1,1.0,1.0,0.30971941322786734,0,0.0,0.0,0.0,0.37958023635688803,0.08544822280353793,0.2941320135533501,0.46502845916042596,0.08544822280353793,0.3215547404446018,8,2,1,4,5,3,nan,nan,nan,nan,nan,nan,nan,nan,nan,nan,nan,nan,0.0,nan,nan,nan,nan,nan,nan,nan,nan,nan,nan,nan,nan,nan,nan,nan,nan,nan,nan,560.9011064044898,967.4229975783965,nan,967.7327169916243,nan,nan,nan,nan
1,260,1,1,1.0,1.0,0.3008745635743253,0,0.0,0.0,0.0,0.3793073425165403,0.08539243414122244,0.29391490837531786,0.46469977665776274,0.08539243414122244,0.30716123775346205,2,6,5,8,3,4,nan,nan,nan,nan,nan,nan,nan,nan,nan,nan,nan,nan,0.0,nan,nan,nan,nan,nan,nan,nan,nan,nan,nan,nan,nan,nan,nan,nan,nan,nan,nan,560.9011064044898,968.4398339823238,nan,968.7407085458981,nan,nan,nan,nan
1,261,1,1,1.0,1.0,0.31606196641223505,0,0.0,0.0,0.0,0.3790021566062593,0.08536590784773547,0.29363624875852384,0.46436806445399476,0.08536590784773547,0.3088853144048092,7,3,6,5,8,2,nan,nan,nan,nan,nan,nan,nan,nan,nan,nan,nan,nan,0.0,nan,nan,nan,nan,nan,nan,nan,nan,nan,nan,nan,nan,nan,nan,nan,nan,nan,nan,560.9011064044898,969.4566281918669,nan,969.7726901582791,nan,nan,nan,nan
1,262,1,1,1.0,1.0,0.22692439059028402,0,1.0,0.0,0.0,0.37875820238070107,0.08529002132355273,0.29346818105714834,0.4640482237042538,0.08529002132355273,0.28128697352561477,4,2,8,1,0,5,nan,nan,nan,nan,nan,nan,nan,nan,nan,nan,nan,nan,0.0,nan,nan,nan,nan,nan,nan,nan,nan,nan,nan,nan,nan,nan,nan,nan,nan,nan,nan,560.9011064044898,970.4817318388959,nan,970.7086562294862,nan,nan,nan,nan
1,263,1,1,1.0,1.0,0.21775823656935245,1,0.0,0.0,1.0,0.37817197144714737,0.08564442368744804,0.29252754775969936,0.4638163951345954,0.08564442368744804,0.2535815311906238,2,0,4,6,3,8,1.0,1.0,1.0,1.0,1.0,1.0,1.0,1.0,0.0,0.0,0.0,1.0,3.0,2.0,0.0,1.0,1.0,1.0,8.0,2.0,1.0,6.0,5.0,4.0,3.0,2.758644854067825,1.6551526437397115,6.764515571703669,5.548820297059137,4.5645844511454925,3.7745940361055546,560.9011064044898,971.5068876586738,972.315278234717,971.7246458952432,980.1329515694524,981.1321743949666,973.3320884097484,980.1246193242259
1,264,1,1,1.0,1.0,0.2622829770552926,0,0.0,0.0,0.0,0.3775549955437712,0.08605432380626758,0.2915006717375036,0.4636093193500388,0.08605432380626758,0.23565520140497634,5,4,3,8,7,6,nan,nan,nan,nan,nan,nan,nan,nan,nan,nan,nan,nan,0.0,nan,nan,nan,nan,nan,nan,nan,nan,nan,nan,nan,nan,nan,nan,nan,nan,nan,nan,560.9011064044898,981.3581579654128,nan,981.6204409424681,nan,nan,nan,nan
1,265,1,1,1.0,1.0,0.33315267687430605,0,0.0,0.0,0.0,0.37711334030052035,0.0861840420386012,0.29092929826191916,0.46329738233912154,0.0861840420386012,0.27106463016631704,4,0,1,7,2,8,nan,nan,nan,nan,nan,nan,nan,nan,nan,nan,nan,nan,0.0,nan,nan,nan,nan,nan,nan,nan,nan,nan,nan,nan,nan,nan,nan,nan,nan,nan,nan,560.9011064044898,982.3832735865144,nan,982.7164262633887,nan,nan,nan,nan
1,266,1,1,1.0,1.0,0.31596531852846965,0,0.0,0.0,0.0,0.3769455515088172,0.08606211185664982,0.2908834396521674,0.463007663365467,0.08606211185664982,0.3038003241526894,5,1,2,6,7,3,nan,nan,nan,nan,nan,nan,nan,nan,nan,nan,nan,nan,0.0,nan,nan,nan,nan,nan,nan,nan,nan,nan,nan,nan,nan,nan,nan,nan,nan,nan,nan,560.9011064044898,983.4084296913934,nan,983.7243950099219,nan,nan,nan,nan
1,267,0,0,1.0,0.0,0.2671378939994611,0,0.0,0.0,0.0,0.37671368750508966,0.08598028930471721,0.2907333982003725,0.46269397680980684,0.08598028930471721,0.3054186298007456,3,7,1,5,2,8,nan,nan,nan,nan,nan,nan,nan,nan,nan,nan,nan,nan,0.0,nan,nan,nan,nan,nan,nan,nan,nan,nan,nan,nan,nan,nan,nan,nan,nan,nan,nan,560.9011064044898,984.4252444279264,nan,984.6923823219258,nan,nan,nan,nan
1,268,1,1,1.0,1.0,0.39401205047033727,0,0.0,0.0,0.0,0.3762986276812047,0.08608086937670764,0.29021775830449703,0.46237949705791237,0.08608086937670764,0.32570508766608935,6,2,7,4,0,3,nan,nan,nan,nan,nan,nan,nan,nan,nan,nan,nan,nan,0.0,nan,nan,nan,nan,nan,nan,nan,nan,nan,nan,nan,nan,nan,nan,nan,nan,nan,nan,560.9011064044898,985.450336385984,nan,985.8443484364543,nan,nan,nan,nan
1,269,1,1,1.0,1.0,0.2968501342111267,0,0.0,0.0,0.0,0.37636547078606936,0.08592516323744855,0.2904403075486208,0.4622906340235179,0.08592516323744855,0.31933335956030834,7,1,2,3,5,6,nan,nan,nan,nan,nan,nan,nan,nan,nan,nan,nan,nan,0.0,nan,nan,nan,nan,nan,nan,nan,nan,nan,nan,nan,nan,nan,nan,nan,nan,nan,nan,560.9011064044898,986.4754827975412,nan,986.7723329317523,nan,nan,nan,nan
1,270,1,1,1.0,1.0,0.2956538671278395,0,0.0,0.0,0.0,0.37606654094932146,0.08590144168331454,0.2901650992660069,0.461967982632636,0.08590144168331454,0.3288386839364345,2,5,6,8,1,4,nan,nan,nan,nan,nan,nan,nan,nan,nan,nan,nan,nan,0.0,nan,nan,nan,nan,nan,nan,nan,nan,nan,nan,nan,nan,nan,nan,nan,nan,nan,nan,560.9011064044898,987.5006711183814,nan,987.7963249855093,nan,nan,nan,nan
1,271,1,1,1.0,1.0,0.3025646187015809,0,0.0,0.0,0.0,0.37576536988631964,0.08588101087874005,0.2898843590075796,0.4616463807650597,0.08588101087874005,0.29835620668018237,4,2,0,5,7,8,nan,nan,nan,nan,nan,nan,nan,nan,nan,nan,nan,nan,0.0,nan,nan,nan,nan,nan,nan,nan,nan,nan,nan,nan,nan,nan,nan,nan,nan,nan,nan,560.9011064044898,988.5257388431346,nan,988.8283034618362,nan,nan,nan,nan
1,272,0,0,0.0,1.0,0.4293700667330995,0,0.0,0.0,0.0,0.3754922327550333,0.0858367436896669,0.2896554890653664,0.46132897644470017,0.0858367436896669,0.34252951752084,7,6,5,2,0,3,nan,nan,nan,nan,nan,nan,nan,nan,nan,nan,nan,nan,0.0,nan,nan,nan,nan,nan,nan,nan,nan,nan,nan,nan,nan,nan,nan,nan,nan,nan,nan,560.9011064044898,989.5508920970606,nan,989.9802621637937,nan,nan,nan,nan
1,273,1,1,1.0,1.0,0.3562503813300282,0,0.0,0.0,0.0,0.37569252210067666,0.08573976598753943,0.2899527561131372,0.4614322880882161,0.08573976598753943,0.3627283555882362,1,2,4,8,5,0,nan,nan,nan,nan,nan,nan,nan,nan,nan,nan,nan,nan,0.0,nan,nan,nan,nan,nan,nan,nan,nan,nan,nan,nan,nan,nan,nan,nan,nan,nan,nan,560.9011064044898,990.5760037268046,nan,990.9322541081347,nan,nan,nan,nan
1,274,1,1,1.0,1.0,0.32309702021302655,0,0.0,0.0,0.0,0.3756205141718965,0.08558899000475786,0.2900315241671386,0.4612095041766544,0.08558899000475786,0.36957248942538473,7,3,1,0,2,4,nan,nan,nan,nan,nan,nan,nan,nan,nan,nan,nan,nan,0.0,nan,nan,nan,nan,nan,nan,nan,nan,nan,nan,nan,nan,nan,nan,nan,nan,nan,nan,560.9011064044898,991.6011387344915,nan,991.9242357547046,nan,nan,nan,nan
