block,trial,time,setsize,freqtrials,colorind,colordeg,colorrgb,correctresp,actualresp,acc,rts,probe_trials,fast_rt_trigger,slow_rt_trigger,rt_trailingavg,rt_runningavg,rt_runningstd,rt_runningslowthresh,rt_runningfastthresh,wm_mousepos,wm_respdeg,wm_colorind,wm_colorrgb,wm_colorhsv,wm_degdiff,wm_rts,timeBlockStart,timeEncArrayOnset,timeResponse,timeProbeOnset,timeProbeOffset
0,0,15:37:25:501000,6,1,50,35.15625,[ 1.         -0.03314873 -1.        ],1,1,1,0.399329511,0,nan,nan,nan,nan,nan,nan,nan,nan,nan,nan,[ nan  nan  nan],nan,nan,nan,712.3345545,713.3511653,713.7504949,nan,nan
0,1,15:37:26:452000,6,1,6,4.21875,[ 0.89512908  0.18627278 -1.        ],1,1,1,0.265140394,0,nan,nan,nan,nan,nan,nan,nan,nan,nan,nan,[ nan  nan  nan],nan,nan,nan,712.3345545,714.3013374,714.5664778,nan,nan
0,2,15:37:27:404000,6,1,400,281.25,[-0.01078748  0.4714273  -0.41269269],1,1,1,0.31491963,0,nan,nan,nan,nan,nan,nan,nan,nan,nan,nan,[ nan  nan  nan],nan,nan,nan,712.3345545,715.2515228,715.5664424,nan,nan
0,3,15:37:28:387000,6,1,450,316.40625,[ 0.33594973  0.40559833 -1.        ],1,1,1,0.268882283,0,nan,nan,nan,nan,nan,nan,nan,nan,nan,nan,[ nan  nan  nan],nan,nan,nan,712.3345545,716.2015542,716.4704365,nan,nan
0,4,15:37:29:323000,6,1,343,241.171875,[-0.17138818  0.46383642  0.20482281],1,1,1,0.285760268,0,nan,nan,nan,nan,nan,nan,nan,nan,nan,nan,[ nan  nan  nan],nan,nan,nan,712.3345545,717.1766519,717.4624122,nan,nan
0,5,15:37:30:274000,6,1,2,1.40625,[ 0.86302458  0.20362286 -1.        ],1,1,1,0.279581091,0,nan,nan,nan,nan,nan,nan,nan,nan,nan,nan,[ nan  nan  nan],nan,nan,nan,712.3345545,718.1268194,718.4064005,nan,nan
0,6,15:37:31:226000,6,1,345,242.578125,[-0.17351954  0.46559515  0.18611928],1,1,1,0.313331929,0,nan,nan,nan,nan,nan,nan,nan,nan,nan,nan,[ nan  nan  nan],nan,nan,nan,712.3345545,719.0770376,719.3903695,nan,nan
0,7,15:37:32:178000,6,1,392,275.625,[-0.05410679  0.47552228 -0.31554984],1,1,1,0.299632482,0,nan,nan,nan,nan,nan,nan,nan,nan,nan,nan,[ nan  nan  nan],nan,nan,nan,712.3345545,720.0187237,720.3183562,nan,nan
0,8,15:37:33:129000,6,1,484,340.3125,[ 0.61439895  0.31611274 -1.        ],1,1,1,0.33347113,0,nan,nan,nan,nan,nan,nan,nan,nan,nan,nan,[ nan  nan  nan],nan,nan,nan,712.3345545,720.9688515,721.3023227,nan,nan
0,9,15:37:34:081000,6,1,127,89.296875,[ 1.         -0.31111021 -0.16703665],1,1,1,0.335330243,0,nan,nan,nan,nan,nan,nan,nan,nan,nan,nan,[ nan  nan  nan],nan,nan,nan,712.3345545,721.9189771,722.2543073,nan,nan
0,10,15:37:35:017000,6,1,451,317.109375,[ 0.34383096  0.40351836 -1.        ],1,1,1,0.361184769,0,nan,nan,nan,nan,nan,nan,nan,nan,nan,nan,[ nan  nan  nan],nan,nan,nan,712.3345545,722.869114,723.2302988,nan,nan
0,11,15:37:35:968000,6,1,146,102.65625,[ 1.         -0.27879258  0.02488132],1,1,1,0.299001849,0,nan,nan,nan,nan,nan,nan,nan,nan,nan,nan,[ nan  nan  nan],nan,nan,nan,712.3345545,723.8192549,724.1182568,nan,nan
0,12,15:37:36:920000,6,1,231,162.421875,[ 0.74960968  0.14515127  0.62082146],1,1,1,0.268865462,0,nan,nan,nan,nan,nan,nan,nan,nan,nan,nan,[ nan  nan  nan],nan,nan,nan,712.3345545,724.7693725,725.038238,nan,nan
0,13,15:37:37:872000,6,1,374,262.96875,[-0.13203913  0.47863408 -0.11062844],1,1,1,0.286724178,0,nan,nan,nan,nan,nan,nan,nan,nan,nan,nan,[ nan  nan  nan],nan,nan,nan,712.3345545,725.7194906,726.0062148,nan,nan
0,14,15:37:38:823000,6,1,77,54.140625,[ 1.         -0.17459302 -0.75626719],1,1,1,0.264562504,0,nan,nan,nan,nan,nan,nan,nan,nan,nan,nan,[ nan  nan  nan],nan,nan,nan,712.3345545,726.6696347,726.9341972,nan,nan
0,15,15:37:39:775000,6,1,443,311.484375,[ 0.28155878  0.41926821 -1.        ],1,1,1,0.250413461,0,nan,nan,nan,nan,nan,nan,nan,nan,nan,nan,[ nan  nan  nan],nan,nan,nan,712.3345545,727.6197557,727.8701692,nan,nan
0,16,15:37:40:726000,6,1,122,85.78125,[ 1.         -0.31115954 -0.21914422],1,1,1,0.220218059,0,nan,nan,nan,nan,nan,nan,nan,nan,nan,nan,[ nan  nan  nan],nan,nan,nan,712.3345545,728.569938,728.790156,nan,nan
0,17,15:37:41:678000,6,1,308,216.5625,[-0.01868286  0.41309748  0.48168233],1,1,1,0.230107193,0,nan,nan,nan,nan,nan,nan,nan,nan,nan,nan,[ nan  nan  nan],nan,nan,nan,712.3345545,729.5200176,729.7501248,nan,nan
0,18,15:37:42:630000,6,1,363,255.234375,[-0.16228773  0.47636573  0.00704813],1,1,1,0.167964758,0,nan,nan,nan,nan,nan,nan,nan,nan,nan,nan,[ nan  nan  nan],nan,nan,nan,712.3345545,730.4701454,730.6381102,nan,nan
0,19,15:37:43:566000,6,1,95,66.796875,[ 1.         -0.25317502 -0.51497544],1,1,1,0.113874296,0,nan,nan,nan,nan,nan,nan,nan,nan,nan,nan,[ nan  nan  nan],nan,nan,nan,712.3345545,731.4202636,731.5341379,nan,nan
0,20,15:37:44:517000,6,1,291,204.609375,[ 0.12202764  0.37344194  0.57379193],1,1,1,0.187966827,0,nan,nan,nan,nan,nan,nan,nan,nan,nan,nan,[ nan  nan  nan],nan,nan,nan,712.3345545,732.3620996,732.5500665,nan,nan
0,21,15:37:45:453000,6,1,32,22.5,[ 1.         0.0617358 -1.       ],1,1,1,0.342204484,0,nan,nan,nan,nan,nan,nan,nan,nan,nan,nan,[ nan  nan  nan],nan,nan,nan,712.3345545,733.3038351,733.6460396,nan,nan
0,22,15:37:46:405000,6,1,287,201.796875,[ 0.15950165  0.36255249  0.59075192],1,1,1,0.303969082,0,nan,nan,nan,nan,nan,nan,nan,nan,nan,nan,[ nan  nan  nan],nan,nan,nan,712.3345545,734.254045,734.5580141,nan,nan
0,23,15:37:47:356000,6,1,389,273.515625,[-0.06912081  0.47662608 -0.28023432],1,1,1,0.29790765,0,nan,nan,nan,nan,nan,nan,nan,nan,nan,nan,[ nan  nan  nan],nan,nan,nan,712.3345545,735.2040987,735.5020064,nan,nan
0,24,15:37:48:308000,6,0,45,31.640625,[ 1.         -0.00639576 -1.        ],0,1,0,0.212106499,0,0,0,nan,nan,nan,nan,nan,nan,nan,nan,[ nan  nan  nan],nan,nan,nan,712.3345545,736.1458778,736.3579843,nan,nan
0,25,15:37:49:260000,6,1,229,161.015625,[ 0.77039703  0.13526594  0.61468147],1,1,1,0.277932379,0,nan,nan,nan,nan,nan,nan,nan,nan,nan,nan,[ nan  nan  nan],nan,nan,nan,712.3345545,737.0960079,737.3739403,nan,nan
0,26,15:37:50:196000,6,1,396,278.4375,[-0.03301537  0.47368488 -0.36352378],1,1,1,0.26382382,0,nan,nan,nan,nan,nan,nan,nan,nan,nan,nan,[ nan  nan  nan],nan,nan,nan,712.3345545,738.0461856,738.3100094,nan,nan
0,27,15:37:51:147000,6,1,46,32.34375,[ 1.         -0.01173137 -1.        ],1,1,1,0.185644148,0,nan,nan,nan,nan,nan,nan,nan,nan,nan,nan,[ nan  nan  nan],nan,nan,nan,712.3345545,738.9962689,739.1819131,nan,nan
0,28,15:37:52:099000,6,1,345,242.578125,[-0.17351954  0.46559515  0.18611928],1,1,1,0.099573867,0,nan,nan,nan,nan,nan,nan,nan,nan,nan,nan,[ nan  nan  nan],nan,nan,nan,712.3345545,739.9463691,740.045943,nan,nan
0,29,15:37:53:050000,6,1,400,281.25,[-0.01078748  0.4714273  -0.41269269],1,1,1,0.021404743,0,nan,nan,nan,nan,nan,nan,nan,nan,nan,nan,[ nan  nan  nan],nan,nan,nan,712.3345545,740.8964952,740.9179,nan,nan
0,30,15:37:54:002000,6,0,266,187.03125,[ 0.37357759  0.29520749  0.64811377],0,1,0,0.039162535,0,0,0,nan,nan,nan,nan,nan,nan,nan,nan,[ nan  nan  nan],nan,nan,nan,712.3345545,741.8466461,741.8858087,nan,nan
0,31,15:37:54:954000,6,1,425,298.828125,[ 0.14916262  0.4475296  -0.79171567],1,nan,nan,nan,0,nan,nan,nan,nan,nan,nan,nan,nan,nan,nan,[ nan  nan  nan],nan,nan,nan,712.3345545,742.7967965,nan,nan,nan
0,32,15:37:55:905000,6,1,342,240.46875,[-0.17005262  0.46291356  0.21407524],1,1,1,0.634860661,0,nan,nan,nan,nan,nan,nan,nan,nan,nan,nan,[ nan  nan  nan],nan,nan,nan,712.3345545,743.7469283,744.381789,nan,nan
0,33,15:37:56:857000,6,1,455,319.921875,[ 0.37560825  0.39487537 -1.        ],1,1,1,0.364735643,0,nan,nan,nan,nan,nan,nan,nan,nan,nan,nan,[ nan  nan  nan],nan,nan,nan,712.3345545,744.6970336,745.0617692,nan,nan
0,34,15:37:57:808000,6,1,6,4.21875,[ 0.89512908  0.18627278 -1.        ],1,1,1,0.334617787,0,nan,nan,nan,nan,nan,nan,nan,nan,nan,nan,[ nan  nan  nan],nan,nan,nan,712.3345545,745.6471728,745.9817906,nan,nan
0,35,15:38:02:488000,6,1,66,46.40625,[ 1.         -0.11856871 -1.        ],1,1,1,0.248436033,1,nan,nan,nan,nan,nan,nan,nan,nan,161.6514701,410,[ 0.04920468  0.46392153 -0.54316189],nan,-118.0577201,1.700540286,712.3345545,746.5972861,746.8457221,748.4224699,750.131028
0,36,15:38:03:440000,6,1,397,279.140625,[-0.02756135  0.47315999 -0.37569455],1,nan,nan,nan,0,nan,nan,nan,nan,nan,nan,nan,nan,nan,nan,[ nan  nan  nan],nan,nan,nan,712.3345545,751.2812797,nan,nan,nan
0,37,15:38:04:392000,6,1,294,206.71875,[ 0.0948762   0.38121213  0.55985823],1,1,1,0.60622388,0,nan,nan,nan,nan,nan,nan,nan,nan,nan,nan,[ nan  nan  nan],nan,nan,nan,712.3345545,752.2313639,752.8375878,nan,nan
0,38,15:38:05:343000,6,0,78,54.84375,[ 1.         -0.17946765 -0.73990763],0,0,1,0.488063732,0,nan,nan,nan,nan,nan,nan,nan,nan,nan,nan,[ nan  nan  nan],nan,nan,nan,712.3345545,753.1814943,753.669558,nan,nan
0,39,15:38:06:279000,6,1,372,261.5625,[-0.13866002  0.47845887 -0.08881238],1,1,1,0.217964373,0,nan,nan,nan,nan,nan,nan,nan,nan,nan,nan,[ nan  nan  nan],nan,nan,nan,712.3345545,754.1315916,754.349556,nan,nan
0,40,15:38:07:231000,6,0,124,87.1875,[ 1.         -0.31157719 -0.19822652],0,1,0,0.227777387,0,0,0,nan,nan,nan,nan,nan,nan,nan,nan,[ nan  nan  nan],nan,nan,nan,712.3345545,755.0817491,755.3095265,nan,nan
0,41,15:38:08:182000,6,1,287,201.796875,[ 0.15950165  0.36255249  0.59075192],1,1,1,0.12562796,0,nan,nan,nan,nan,nan,nan,nan,nan,nan,nan,[ nan  nan  nan],nan,nan,nan,712.3345545,756.0318946,756.1575225,nan,nan
0,42,15:38:09:134000,6,1,163,114.609375,[ 1.         -0.2142478   0.18572368],1,1,1,0.231486204,0,nan,nan,nan,nan,nan,nan,nan,nan,nan,nan,[ nan  nan  nan],nan,nan,nan,712.3345545,756.9819979,757.2134841,nan,nan
0,43,15:38:10:086000,6,1,409,287.578125,[ 0.04294362  0.46479315 -0.52946185],1,1,1,0.289326822,0,nan,nan,nan,nan,nan,nan,nan,nan,nan,nan,[ nan  nan  nan],nan,nan,nan,712.3345545,757.9321286,758.2214554,nan,nan
0,44,15:38:11:037000,6,1,279,196.171875,[ 0.23815758  0.33893035  0.61897842],1,1,1,0.283529389,0,nan,nan,nan,nan,nan,nan,nan,nan,nan,nan,[ nan  nan  nan],nan,nan,nan,712.3345545,758.8739147,759.1574441,nan,nan
0,45,15:38:11:973000,6,1,66,46.40625,[ 1.         -0.11856871 -1.        ],1,1,1,0.253400129,0,nan,nan,nan,nan,nan,nan,nan,nan,nan,nan,[ nan  nan  nan],nan,nan,nan,712.3345545,759.8240454,760.0774455,nan,nan
0,46,15:38:12:925000,6,1,450,316.40625,[ 0.33594973  0.40559833 -1.        ],1,1,1,0.263538438,0,nan,nan,nan,nan,nan,nan,nan,nan,nan,nan,[ nan  nan  nan],nan,nan,nan,712.3345545,760.7658869,761.0294254,nan,nan
0,47,15:38:13:876000,6,1,502,352.96875,[ 0.76474094  0.25241358 -1.        ],1,1,1,0.265417223,0,nan,nan,nan,nan,nan,nan,nan,nan,nan,nan,[ nan  nan  nan],nan,nan,nan,712.3345545,761.7159577,761.9813749,nan,nan
0,48,15:38:14:828000,6,1,156,109.6875,[ 1.         -0.24406061  0.12104147],1,1,1,0.323302601,0,nan,nan,nan,nan,nan,nan,nan,nan,nan,nan,[ nan  nan  nan],nan,nan,nan,712.3345545,762.666065,762.9893676,nan,nan
0,49,15:38:15:780000,6,1,7,4.921875,[ 0.90309146  0.18185306 -1.        ],1,1,1,0.285130205,0,nan,nan,nan,nan,nan,nan,nan,nan,nan,nan,[ nan  nan  nan],nan,nan,nan,712.3345545,763.6162159,763.9013461,nan,nan
0,50,15:38:16:716000,6,1,336,236.25,[-0.15821161  0.45675811  0.26813527],1,1,1,0.326949267,0,nan,nan,nan,nan,nan,nan,nan,nan,nan,nan,[ nan  nan  nan],nan,nan,nan,712.3345545,764.5663515,764.8933007,nan,nan
0,51,15:38:17:652000,6,1,90,63.28125,[ 1.         -0.23363579 -0.57497187],1,1,1,0.417148028,0,nan,nan,nan,nan,nan,nan,nan,nan,nan,nan,[ nan  nan  nan],nan,nan,nan,712.3345545,765.5081465,765.9252945,nan,nan
0,52,15:38:18:603000,6,1,191,134.296875,[ 1.         -0.06914798  0.41457165],1,1,1,0.33136997,0,nan,nan,nan,nan,nan,nan,nan,nan,nan,nan,[ nan  nan  nan],nan,nan,nan,712.3345545,766.4499301,766.7813001,nan,nan
0,53,15:38:19:539000,6,0,130,91.40625,[ 1.         -0.30933315 -0.13607149],0,0,1,0.517559793,0,nan,nan,nan,nan,nan,nan,nan,nan,nan,nan,[ nan  nan  nan],nan,nan,nan,712.3345545,767.3916998,767.9092596,nan,nan
0,54,15:38:23:907000,6,1,332,233.4375,[-0.14664709  0.45205424  0.30271419],1,1,1,0.463696553,1,nan,nan,nan,nan,nan,nan,nan,nan,-44.37040139,191,[ 1.         -0.06914798  0.41457165],nan,-99.06709861,1.37565369,712.3345545,768.333531,768.7972276,770.1670296,771.5505836
0,55,15:38:24:859000,6,1,508,357.1875,[ 0.81419982  0.22863893 -1.        ],1,1,1,0.5443654,0,nan,nan,nan,nan,nan,nan,nan,nan,nan,nan,[ nan  nan  nan],nan,nan,nan,712.3345545,772.7007647,773.2451301,nan,nan
0,56,15:38:25:795000,6,0,223,156.796875,[ 0.83172397  0.10489059  0.59343224],0,0,1,0.538543164,0,nan,nan,nan,nan,nan,nan,nan,nan,nan,nan,[ nan  nan  nan],nan,nan,nan,712.3345545,773.6425563,774.1810994,nan,nan
0,57,15:38:26:731000,6,1,362,254.53125,[-0.16423973  0.47600016  0.01745785],1,1,1,0.428725218,0,nan,nan,nan,nan,nan,nan,nan,nan,nan,nan,[ nan  nan  nan],nan,nan,nan,712.3345545,774.5843581,775.0130834,nan,nan
0,58,15:38:27:682000,6,1,475,333.984375,[ 0.53921875  0.34365981 -1.        ],1,1,1,0.318852533,0,nan,nan,nan,nan,nan,nan,nan,nan,nan,nan,[ nan  nan  nan],nan,nan,nan,712.3345545,775.5262162,775.8450687,nan,nan
0,59,15:38:28:618000,6,1,10,7.03125,[ 0.9268115   0.16840058 -1.        ],1,1,1,0.305086374,0,nan,nan,nan,nan,nan,nan,nan,nan,nan,nan,[ nan  nan  nan],nan,nan,nan,712.3345545,776.4679473,776.7730337,nan,nan
0,60,15:38:33:330000,6,1,371,260.859375,[-0.14179361  0.47833194 -0.07797326],1,1,1,0.25128386,1,nan,nan,nan,nan,nan,nan,nan,nan,178.2554902,386,[-0.08339466  0.47749559 -0.24542474],nan,10.88513484,1.725531256,712.3345545,777.4097307,777.6610145,779.2349145,780.9684786
0,61,15:38:34:266000,6,0,316,222.1875,[-0.07182156  0.42820351  0.42789226],0,0,1,0.782208966,0,nan,nan,nan,nan,nan,nan,nan,nan,nan,nan,[ nan  nan  nan],nan,nan,nan,712.3345545,782.1186924,782.9009014,nan,nan
0,62,15:38:35:217000,6,1,430,302.34375,[ 0.18472502  0.44064573 -0.94190417],1,1,1,0.448390874,0,nan,nan,nan,nan,nan,nan,nan,nan,nan,nan,[ nan  nan  nan],nan,nan,nan,712.3345545,783.0604983,783.5088892,nan,nan
0,63,15:38:36:153000,6,0,227,159.609375,[ 0.79101995  0.12525779  0.60806671],0,0,1,0.490612777,0,nan,nan,nan,nan,nan,nan,nan,nan,nan,nan,[ nan  nan  nan],nan,nan,nan,712.3345545,784.0022431,784.4928559,nan,nan
0,64,15:38:37:089000,6,1,94,66.09375,[ 1.         -0.24943901 -0.52674516],1,1,1,0.340773016,0,nan,nan,nan,nan,nan,nan,nan,nan,nan,nan,[ nan  nan  nan],nan,nan,nan,712.3345545,784.9440695,785.2848425,nan,nan
0,65,15:38:41:988000,6,1,405,284.765625,[ 0.01846332  0.46800938 -0.47629333],1,1,1,0.302961552,1,nan,nan,nan,nan,nan,nan,nan,nan,8.347955979,116,[ 1.         -0.30644692 -0.28251544],nan,156.886419,1.900574098,712.3345545,785.8858634,786.188825,787.7193783,789.6279981
0,66,15:38:42:924000,6,1,174,122.34375,[ 1.         -0.16079069  0.28198128],1,1,1,0.530523691,0,nan,nan,nan,nan,nan,nan,nan,nan,nan,nan,[ nan  nan  nan],nan,nan,nan,712.3345545,790.77818,791.3087037,nan,nan
0,67,15:38:43:875000,6,1,408,286.875,[ 0.03673793  0.46563766 -0.51593845],1,1,1,0.340710009,0,nan,nan,nan,nan,nan,nan,nan,nan,nan,nan,[ nan  nan  nan],nan,nan,nan,712.3345545,791.7199759,792.0606859,nan,nan
0,68,15:38:44:811000,6,1,107,75.234375,[ 1.         -0.29008977 -0.37959278],1,1,1,0.270903045,0,nan,nan,nan,nan,nan,nan,nan,nan,nan,nan,[ nan  nan  nan],nan,nan,nan,712.3345545,792.6617683,792.9326714,nan,nan
0,69,15:38:45:747000,6,1,368,258.75,[-0.15045717  0.47779326 -0.04573418],1,1,1,0.257080722,0,nan,nan,nan,nan,nan,nan,nan,nan,nan,nan,[ nan  nan  nan],nan,nan,nan,712.3345545,793.6035685,793.8606492,nan,nan
0,70,15:38:46:699000,6,1,426,299.53125,[ 0.15619305  0.44621085 -0.8148597 ],1,1,1,0.291267758,0,nan,nan,nan,nan,nan,nan,nan,nan,nan,nan,[ nan  nan  nan],nan,nan,nan,712.3345545,794.545349,794.8366167,nan,nan
0,71,15:38:47:635000,6,0,239,168.046875,[ 0.66506983  0.18338886  0.64054927],0,0,1,0.485458807,0,nan,nan,nan,nan,nan,nan,nan,nan,nan,nan,[ nan  nan  nan],nan,nan,nan,712.3345545,795.4871389,795.9725977,nan,nan
0,72,15:38:48:586000,6,1,178,125.15625,[ 1.         -0.13991966  0.31509783],1,1,1,0.287643614,0,nan,nan,nan,nan,nan,nan,nan,nan,nan,nan,[ nan  nan  nan],nan,nan,nan,712.3345545,796.4289365,796.7165801,nan,nan
0,73,15:38:49:522000,6,1,367,258.046875,[-0.15309091  0.4775609  -0.03508163],1,1,1,0.233822568,0,nan,nan,nan,nan,nan,nan,nan,nan,nan,nan,[ nan  nan  nan],nan,nan,nan,712.3345545,797.3707363,797.6045589,nan,nan
0,74,15:38:50:458000,6,1,30,21.09375,[ 1.          0.07194566 -1.        ],1,1,1,0.276018528,0,nan,nan,nan,nan,nan,nan,nan,nan,nan,nan,[ nan  nan  nan],nan,nan,nan,712.3345545,798.3125188,798.5885374,nan,nan
0,75,15:38:51:410000,6,1,419,294.609375,[ 0.10789467  0.45484197 -0.67809886],1,1,1,0.246193466,0,nan,nan,nan,nan,nan,nan,nan,nan,nan,nan,[ nan  nan  nan],nan,nan,nan,712.3345545,799.2543133,799.5005068,nan,nan
0,76,15:38:52:346000,6,1,473,332.578125,[ 0.52259481  0.34939617 -1.        ],1,1,1,0.256385943,0,nan,nan,nan,nan,nan,nan,nan,nan,nan,nan,[ nan  nan  nan],nan,nan,nan,712.3345545,800.1961095,800.4524954,nan,nan
0,77,15:38:53:282000,6,0,336,236.25,[-0.15821161  0.45675811  0.26813527],0,0,1,0.450553044,0,nan,nan,nan,nan,nan,nan,nan,nan,nan,nan,[ nan  nan  nan],nan,nan,nan,712.3345545,801.1379053,801.5884584,nan,nan
0,78,15:38:54:234000,6,1,475,333.984375,[ 0.53921875  0.34365981 -1.        ],1,1,1,0.260759035,0,nan,nan,nan,nan,nan,nan,nan,nan,nan,nan,[ nan  nan  nan],nan,nan,nan,712.3345545,802.0796952,802.3404543,nan,nan
0,79,15:38:55:185000,6,1,427,300.234375,[ 0.16326517  0.44486322 -0.84020871],1,1,1,0.342597347,0,nan,nan,nan,nan,nan,nan,nan,nan,nan,nan,[ nan  nan  nan],nan,nan,nan,712.3345545,803.0298174,803.3724147,nan,nan
0,80,15:38:56:121000,6,1,174,122.34375,[ 1.         -0.16079069  0.28198128],1,1,1,0.408808962,0,0,0,0.337388448,0.315024037,0.126119972,0.441144009,0.188904065,nan,nan,nan,[ nan  nan  nan],nan,nan,nan,712.3345545,803.9715973,804.3804062,nan,nan
0,81,15:38:57:057000,6,1,410,288.28125,[ 0.04920468  0.46392153 -0.54316189],1,1,1,0.314993185,0,0,0,0.355466498,0.316211188,0.125757028,0.441968216,0.190454161,nan,nan,nan,[ nan  nan  nan],nan,nan,nan,712.3345545,804.9134034,805.2283966,nan,nan
0,82,15:38:58:009000,6,1,156,109.6875,[ 1.         -0.24406061  0.12104147],1,1,1,0.301148624,0,0,0,0.341650257,0.316195963,0.124968648,0.441164611,0.191227315,nan,nan,nan,[ nan  nan  nan],nan,nan,nan,712.3345545,805.8552027,806.1563514,nan,nan
0,83,15:38:58:945000,6,1,41,28.828125,[ 1.         0.0148395 -1.       ],1,1,1,0.327346121,0,0,0,0.314495977,0.316010194,0.124205955,0.440216149,0.191804238,nan,nan,nan,[ nan  nan  nan],nan,nan,nan,712.3345545,806.7969881,807.1243342,nan,nan
0,84,15:38:59:896000,6,1,490,344.53125,[ 0.66466039  0.29615785 -1.        ],1,1,1,0.305505751,0,0,0,0.311333499,0.316148437,0.123452548,0.439600985,0.192695888,nan,nan,nan,[ nan  nan  nan],nan,nan,nan,712.3345545,807.7388025,808.0443082,nan,nan
0,85,15:39:00:833000,6,1,286,201.09375,[ 0.16907896  0.35973478  0.59469871],1,1,1,0.331718643,0,0,0,0.321523505,0.316020211,0.122712098,0.43873231,0.193308113,nan,nan,nan,[ nan  nan  nan],nan,nan,nan,712.3345545,808.680575,809.0122936,nan,nan
0,86,15:39:01:769000,6,1,172,120.9375,[ 1.         -0.17098406  0.26502468],1,1,1,0.27790558,0,0,0,0.305043325,0.316207098,0.121991364,0.438198462,0.194215733,nan,nan,nan,[ nan  nan  nan],nan,nan,nan,712.3345545,809.6223697,809.9002753,nan,nan
0,87,15:39:02:720000,6,1,450,316.40625,[ 0.33594973  0.40559833 -1.        ],1,1,1,0.280089418,0,0,0,0.296571214,0.315756491,0.121341945,0.437098437,0.194414546,nan,nan,nan,[ nan  nan  nan],nan,nan,nan,712.3345545,810.5641625,810.8442519,nan,nan
0,88,15:39:03:656000,6,1,368,258.75,[-0.15045717  0.47779326 -0.04573418],1,1,1,0.290281039,0,0,0,0.282758679,0.315341758,0.120694989,0.436036747,0.194646769,nan,nan,nan,[ nan  nan  nan],nan,nan,nan,712.3345545,811.5059558,811.7962368,nan,nan
0,89,15:39:04:592000,6,1,109,76.640625,[ 1.         -0.29463833 -0.3577737 ],1,1,1,0.244464357,0,0,0,0.271611605,0.315053704,0.120029064,0.435082768,0.19502464,nan,nan,nan,[ nan  nan  nan],nan,nan,nan,712.3345545,812.4477497,812.692214,nan,nan
0,90,15:39:05:544000,6,1,338,237.65625,[-0.16289136  0.45892871  0.25039916],1,1,1,0.222657628,0,0,0,0.252467675,0.314251552,0.119579431,0.433830984,0.194672121,nan,nan,nan,[ nan  nan  nan],nan,nan,nan,712.3345545,813.3895373,813.6121949,nan,nan
0,91,15:39:06:480000,6,1,304,213.75,[ 0.01130928  0.40470892  0.50616037],1,1,1,0.320833097,0,0,0,0.262651694,0.313222407,0.119297021,0.432519427,0.193925386,nan,nan,nan,[ nan  nan  nan],nan,nan,nan,712.3345545,814.3313315,814.6521646,nan,nan
0,92,15:39:07:431000,6,1,114,80.15625,[ 1.         -0.30374746 -0.30385937],1,1,1,0.299014109,0,0,0,0.280834944,0.31330697,0.11863509,0.431942061,0.19467188,nan,nan,nan,[ nan  nan  nan],nan,nan,nan,712.3345545,815.2731268,815.5721409,nan,nan
0,93,15:39:08:367000,6,1,267,187.734375,[ 0.36292453  0.29880723  0.64662252],1,1,1,0.341205222,0,0,0,0.320350809,0.313149906,0.117990857,0.431140763,0.195159048,nan,nan,nan,[ nan  nan  nan],nan,nan,nan,712.3345545,816.2149016,816.5561068,nan,nan
0,94,15:39:09:303000,6,1,103,72.421875,[ 1.         -0.27953747 -0.42375884],1,1,1,0.36739274,0,0,0,0.33587069,0.313454855,0.117383902,0.430838757,0.196070953,nan,nan,nan,[ nan  nan  nan],nan,nan,nan,712.3345545,817.1567069,817.5240996,nan,nan
0,95,15:39:10:255000,6,1,358,251.71875,[-0.17058391  0.47426832  0.05858744],1,1,1,0.457560996,0,0,0,0.388719653,0.314034832,0.116883557,0.430918389,0.197151276,nan,nan,nan,[ nan  nan  nan],nan,nan,nan,712.3345545,818.0985042,818.5560652,nan,nan
0,96,15:39:11:191000,6,1,6,4.21875,[ 0.89512908  0.18627278 -1.        ],1,1,1,0.435751701,0,0,0,0.420235146,0.315561706,0.11718892,0.432750626,0.198372787,nan,nan,nan,[ nan  nan  nan],nan,nan,nan,712.3345545,819.0402978,819.4760495,nan,nan
0,97,15:39:12:127000,6,1,138,97.03125,[ 1.         -0.29832988 -0.05465081],1,1,1,0.333919586,0,0,0,0.409077427,0.316826864,0.117214082,0.434040946,0.199612782,nan,nan,nan,[ nan  nan  nan],nan,nan,nan,712.3345545,819.9821065,820.3160261,nan,nan
0,98,15:39:13:079000,6,1,230,161.71875,[ 0.76002313  0.14022421  0.6178111 ],1,1,1,0.384143572,0,0,0,0.384604953,0.317004913,0.116614908,0.433619821,0.200390005,nan,nan,nan,[ nan  nan  nan],nan,nan,nan,712.3345545,820.9238804,821.308024,nan,nan
0,99,15:39:14:015000,6,1,44,30.9375,[ 1.         -0.00106984 -1.        ],1,1,1,0.346317568,0,0,0,0.354793576,0.317697064,0.11621029,0.433907354,0.201486774,nan,nan,nan,[ nan  nan  nan],nan,nan,nan,712.3345545,821.8656732,822.2119908,nan,nan
0,100,15:39:14:966000,6,1,490,344.53125,[ 0.66466039  0.29615785 -1.        ],1,1,1,0.292496237,0,0,0,0.340985793,0.31798911,0.115651633,0.433640744,0.202337477,nan,nan,nan,[ nan  nan  nan],nan,nan,nan,712.3345545,822.8074756,823.0999719,nan,nan
0,101,15:39:15:902000,6,1,38,26.71875,[ 1.          0.03062595 -1.        ],1,1,1,0.334690487,0,0,0,0.324501431,0.317731607,0.115094285,0.432825892,0.202637321,nan,nan,nan,[ nan  nan  nan],nan,nan,nan,712.3345545,823.7492592,824.0839497,nan,nan
0,102,15:39:16:838000,6,1,334,234.84375,[-0.15279655  0.45446705  0.2855764 ],1,1,1,0.304873692,0,0,0,0.310686805,0.317901195,0.114529799,0.432430994,0.203371397,nan,nan,nan,[ nan  nan  nan],nan,nan,nan,712.3345545,824.6910517,824.9959254,nan,nan
0,103,15:39:17:790000,6,1,129,90.703125,[ 1.         -0.31007049 -0.146368  ],1,1,1,0.299049461,0,0,0,0.312871213,0.31777221,0.113968708,0.431740918,0.203803502,nan,nan,nan,[ nan  nan  nan],nan,nan,nan,712.3345545,825.6328419,825.9318914,nan,nan
0,104,15:39:18:726000,6,1,53,37.265625,[ 1.         -0.04925756 -1.        ],1,1,1,0.261243698,0,0,0,0.28838895,0.317588654,0.113423664,0.431012318,0.204164989,nan,nan,nan,[ nan  nan  nan],nan,nan,nan,712.3345545,826.5746446,826.8358883,nan,nan
0,105,15:39:19:662000,6,1,381,267.890625,[-0.10540306  0.47842508 -0.18843114],1,1,1,0.239442671,0,0,0,0.26657861,0.317041615,0.113006854,0.430048469,0.204034761,nan,nan,nan,[ nan  nan  nan],nan,nan,nan,712.3345545,827.5164271,827.7558698,nan,nan
0,106,15:39:20:613000,6,1,475,333.984375,[ 0.53921875  0.34365981 -1.        ],1,1,1,0.273615166,0,0,0,0.258100512,0.316295472,0.112716895,0.429012367,0.203578576,nan,nan,nan,[ nan  nan  nan],nan,nan,nan,712.3345545,828.4582227,828.7318379,nan,nan
0,107,15:39:21:549000,6,1,303,213.046875,[ 0.01913493  0.40252284  0.51201836],1,1,1,0.235799996,0,0,0,0.249619278,0.315888993,0.112255428,0.42814442,0.203633565,nan,nan,nan,[ nan  nan  nan],nan,nan,nan,712.3345545,829.4000155,829.6358154,nan,nan
0,108,15:39:22:501000,6,1,11,7.734375,[ 0.9346595  0.1638529 -1.       ],1,1,1,0.237970149,0,0,0,0.249128437,0.315133436,0.111992598,0.427126034,0.203140838,nan,nan,nan,[ nan  nan  nan],nan,nan,nan,712.3345545,830.3418222,830.5797923,nan,nan
0,109,15:39:23:437000,6,1,412,289.6875,[ 0.06188912  0.46209661 -0.57115894],1,1,1,0.304181479,0,0,0,0.259317208,0.314412284,0.11171504,0.426127324,0.202697244,nan,nan,nan,[ nan  nan  nan],nan,nan,nan,712.3345545,831.2835984,831.5877799,nan,nan
0,110,15:39:24:373000,6,1,175,123.046875,[ 1.         -0.15562995  0.29036176],1,1,1,0.274352995,0,0,0,0.272168208,0.314317554,0.111200955,0.42551851,0.203116599,nan,nan,nan,[ nan  nan  nan],nan,nan,nan,712.3345545,832.2253914,832.4997444,nan,nan
0,111,15:39:25:325000,6,1,401,281.953125,[-0.00506341  0.47079689 -0.4252031 ],1,1,1,0.29254841,0,0,0,0.290360961,0.313950907,0.110755246,0.424706153,0.20319566,nan,nan,nan,[ nan  nan  nan],nan,nan,nan,712.3345545,833.1671842,833.4597326,nan,nan
0,112,15:39:26:261000,6,1,231,162.421875,[ 0.74960968  0.14515127  0.62082146],1,1,1,0.24676822,0,0,0,0.271223208,0.313756339,0.110269376,0.424025715,0.203486963,nan,nan,nan,[ nan  nan  nan],nan,nan,nan,712.3345545,834.1089461,834.3557143,nan,nan
0,113,15:39:27:197000,6,1,62,43.59375,[ 1.         -0.09743725 -1.        ],1,1,1,0.168940072,0,0,0,0.236085567,0.313152842,0.109953875,0.423106717,0.203198967,nan,nan,nan,[ nan  nan  nan],nan,nan,nan,712.3345545,835.0507546,835.2196946,nan,nan
0,114,15:39:28:148000,6,1,4,2.8125,[ 0.87912605  0.19501404 -1.        ],1,1,1,0.227131073,0,0,0,0.214279788,0.311865228,0.110299329,0.422164557,0.201565899,nan,nan,nan,[ nan  nan  nan],nan,nan,nan,712.3345545,835.9925462,836.2196772,nan,nan
0,115,15:39:29:084000,6,1,202,142.03125,[ 1.         -0.00802826  0.48759698],1,1,1,0.26928712,0,0,0,0.221786088,0.311115368,0.110096572,0.42121194,0.201018796,nan,nan,nan,[ nan  nan  nan],nan,nan,nan,712.3345545,836.9343509,837.203638,nan,nan
0,116,15:39:30:036000,6,0,42,29.53125,[ 1.          0.00954879 -1.        ],0,1,0,0.255457954,0,0,0,0.250625382,0.310748454,0.109682,0.420430454,0.201066454,nan,nan,nan,[ nan  nan  nan],nan,nan,nan,712.3345545,837.8761562,838.1316141,nan,nan
0,117,15:39:30:972000,6,1,104,73.125,[ 1.         -0.28235148 -0.41264457],1,1,1,0.28165203,0,0,0,0.268799035,0.310267667,0.109324668,0.419592335,0.200942999,nan,nan,nan,[ nan  nan  nan],nan,nan,nan,712.3345545,838.8179364,839.0995884,nan,nan
0,118,15:39:31:908000,6,1,453,318.515625,[ 0.35967042  0.39926175 -1.        ],1,1,1,0.22789,0,0,0,0.254999995,0.31002098,0.108884562,0.418905542,0.201136419,nan,nan,nan,[ nan  nan  nan],nan,nan,nan,712.3345545,839.7596895,839.9875795,nan,nan
0,119,15:39:32:859000,6,1,292,205.3125,[ 0.11288167  0.37606958  0.56926185],1,1,1,0.27809802,0,0,0,0.262546683,0.309319006,0.108681539,0.418000545,0.200637468,nan,nan,nan,[ nan  nan  nan],nan,nan,nan,712.3345545,840.7015261,840.9796242,nan,nan
0,120,15:39:33:795000,6,0,245,172.265625,[ 0.6005777   0.21061011  0.65017283],0,1,0,0.31222433,0,0,0,0.27273745,0.309054422,0.108257879,0.417312301,0.200796542,nan,nan,nan,[ nan  nan  nan],nan,nan,nan,712.3345545,841.6433141,841.9555384,nan,nan
0,121,15:39:34:731000,6,1,131,92.109375,[ 1.         -0.30845167 -0.1258005 ],1,1,1,0.282411242,0,0,0,0.290911197,0.309081059,0.107802443,0.416883502,0.201278616,nan,nan,nan,[ nan  nan  nan],nan,nan,nan,712.3345545,842.5851074,842.8675186,nan,nan
0,122,15:39:35:683000,6,1,44,30.9375,[ 1.         -0.00106984 -1.        ],1,1,1,0.268589204,0,0,0,0.287741592,0.308858811,0.1073797,0.416238511,0.201479111,nan,nan,nan,[ nan  nan  nan],nan,nan,nan,712.3345545,843.5269035,843.7954927,nan,nan
0,123,15:39:36:619000,6,0,266,187.03125,[ 0.37357759  0.29520749  0.64811377],0,0,1,0.454775605,0,0,0,0.335258684,0.308526004,0.10699719,0.415523194,0.201528815,nan,nan,nan,[ nan  nan  nan],nan,nan,nan,712.3345545,844.4686949,844.9234705,nan,nan
0,124,15:39:37:555000,6,1,216,151.875,[ 0.90097501  0.06822711  0.56342658],1,1,1,0.224935262,0,0,0,0.316100024,0.309724771,0.10737058,0.417095352,0.202354191,nan,nan,nan,[ nan  nan  nan],nan,nan,nan,712.3345545,845.4105036,845.6354388,nan,nan
0,125,15:39:38:507000,6,1,152,106.875,[ 1.         -0.25918449  0.08306255],1,1,1,0.107200192,0,0,0,0.262303686,0.309035426,0.107203957,0.416239383,0.201831469,nan,nan,nan,[ nan  nan  nan],nan,nan,nan,712.3345545,846.3522404,846.4594406,nan,nan
0,126,15:39:39:443000,6,1,362,254.53125,[-0.16423973  0.47600016  0.01745785],1,1,1,0.157348342,0,1,0,0.163161265,0.307407722,0.108286121,0.415693843,0.199121602,nan,nan,nan,[ nan  nan  nan],nan,nan,nan,712.3345545,847.294072,847.4514203,nan,nan
0,127,15:39:40:394000,6,0,110,77.34375,[ 1.         -0.29672275 -0.34692196],0,1,0,0.231508727,0,0,0,0.16535242,0.306207247,0.108677404,0.414884652,0.197529843,nan,nan,nan,[ nan  nan  nan],nan,nan,nan,712.3345545,848.2358696,848.4673783,nan,nan
0,128,15:39:41:330000,6,1,224,157.5,[ 0.82161942  0.11002479  0.59726488],1,1,1,0.177705642,0,0,0,0.188854237,0.305614402,0.108448029,0.414062431,0.197166372,nan,nan,nan,[ nan  nan  nan],nan,nan,nan,712.3345545,849.1776529,849.3553585,nan,nan
0,129,15:39:42:266000,6,1,409,287.578125,[ 0.04294362  0.46479315 -0.52946185],1,1,1,0.25988607,0,0,0,0.22303348,0.304607246,0.108610214,0.413217461,0.195997032,nan,nan,nan,[ nan  nan  nan],nan,nan,nan,712.3345545,850.1194465,850.3793326,nan,nan
0,130,15:39:43:218000,6,1,468,329.0625,[ 0.48123648  0.36313162 -1.        ],1,1,1,0.246076861,0,0,0,0.227889524,0.304257862,0.10825675,0.412514612,0.196001113,nan,nan,nan,[ nan  nan  nan],nan,nan,nan,712.3345545,851.0612438,851.3073207,nan,nan
0,131,15:39:44:154000,6,1,348,244.6875,[-0.17538477  0.46801784  0.15758216],1,1,1,0.288294203,0,0,0,0.264752378,0.303806847,0.107956991,0.411763838,0.195849856,nan,nan,nan,[ nan  nan  nan],nan,nan,nan,712.3345545,852.0029986,852.2912928,nan,nan
0,132,15:39:45:090000,6,1,456,320.625,[ 0.38361243  0.39263319 -1.        ],1,1,1,0.274413151,0,0,0,0.269594738,0.303687519,0.10754951,0.411237029,0.196138008,nan,nan,nan,[ nan  nan  nan],nan,nan,nan,712.3345545,852.9448555,853.2192687,nan,nan
0,133,15:39:46:041000,6,1,316,222.1875,[-0.07182156  0.42820351  0.42789226],1,1,1,0.276623217,0,0,0,0.279776857,0.30346405,0.107168522,0.410632572,0.196295528,nan,nan,nan,[ nan  nan  nan],nan,nan,nan,712.3345545,853.8866178,854.163241,nan,nan
0,134,15:39:46:977000,6,0,501,352.265625,[ 0.75644923  0.25625354 -1.        ],0,0,1,0.622782272,0,0,0,0.39127288,0.303260711,0.106787173,0.410047884,0.196473537,nan,nan,nan,[ nan  nan  nan],nan,nan,nan,712.3345545,854.8284171,855.4511994,nan,nan
0,135,15:39:47:929000,6,1,365,256.640625,[-0.15796203  0.47701659 -0.01391969],1,1,1,0.416988089,0,0,0,0.438797859,0.305663128,0.10990729,0.415570418,0.195755838,nan,nan,nan,[ nan  nan  nan],nan,nan,nan,712.3345545,855.7702153,856.1872033,nan,nan
0,136,15:39:48:865000,6,1,135,94.921875,[ 1.         -0.30350232 -0.08497887],1,1,1,0.363185289,0,0,0,0.467651883,0.306493912,0.109914798,0.416408709,0.196579114,nan,nan,nan,[ nan  nan  nan],nan,nan,nan,712.3345545,856.7119917,857.075177,nan,nan
0,137,15:39:49:801000,6,1,466,327.65625,[ 0.46478901  0.3683856  -1.        ],1,1,1,0.341373714,0,0,0,0.373849031,0.306913848,0.109614791,0.416528638,0.197299057,nan,nan,nan,[ nan  nan  nan],nan,nan,nan,712.3345545,857.6537911,857.9951648,nan,nan
0,138,15:39:50:753000,6,1,368,258.75,[-0.15045717  0.47779326 -0.04573418],1,1,1,0.351557923,0,0,0,0.352038975,0.307167229,0.109250726,0.416417955,0.197916503,nan,nan,nan,[ nan  nan  nan],nan,nan,nan,712.3345545,858.5955824,858.9471403,nan,nan
0,139,15:39:51:689000,6,1,16,11.25,[ 0.97341943  0.14065211 -1.        ],1,1,1,0.329753189,0,0,0,0.340894942,0.307491249,0.108916838,0.416408086,0.198574411,nan,nan,nan,[ nan  nan  nan],nan,nan,nan,712.3345545,859.5373754,859.8671286,nan,nan
0,140,15:39:52:625000,6,1,274,192.65625,[ 0.28934405  0.32290089  0.63267027],1,1,1,0.387919387,0,0,0,0.356410167,0.307652567,0.108537919,0.416190486,0.199114648,nan,nan,nan,[ nan  nan  nan],nan,nan,nan,712.3345545,860.4791659,860.8670853,nan,nan
0,141,15:39:53:576000,6,1,404,284.0625,[ 0.01248946  0.46874627 -0.4633491 ],1,1,1,0.326101391,0,0,0,0.347924656,0.308230026,0.108359335,0.416589362,0.199870691,nan,nan,nan,[ nan  nan  nan],nan,nan,nan,712.3345545,861.4209623,861.7470637,nan,nan
0,142,15:39:54:512000,6,1,36,25.3125,[ 1.          0.04106996 -1.        ],1,1,1,0.288298195,0,0,0,0.334106324,0.308357679,0.107982133,0.416339812,0.200375546,nan,nan,nan,[ nan  nan  nan],nan,nan,nan,712.3345545,862.3627528,862.651051,nan,nan
0,143,15:39:55:464000,6,0,248,174.375,[ 0.5681159   0.2237282   0.65329577],0,0,1,0.5064322,0,0,0,0.373610595,0.308215413,0.107611702,0.415827115,0.200603711,nan,nan,nan,[ nan  nan  nan],nan,nan,nan,712.3345545,863.3045829,863.8110151,nan,nan
0,144,15:39:56:400000,6,1,54,37.96875,[ 1.         -0.05462921 -1.        ],1,1,1,0.324663936,0,0,0,0.373131443,0.309611306,0.108505613,0.418116919,0.201105693,nan,nan,nan,[ nan  nan  nan],nan,nan,nan,712.3345545,864.2463383,864.5710022,nan,nan
0,145,15:39:57:336000,6,1,252,177.1875,[ 0.52472169  0.24069367  0.65569401],1,1,1,0.286871573,0,0,0,0.372655903,0.309716569,0.108132833,0.417849402,0.201583736,nan,nan,nan,[ nan  nan  nan],nan,nan,nan,712.3345545,865.1881225,865.4749941,nan,nan
0,146,15:39:58:287000,6,0,1,0.703125,[ 0.85493913  0.20787707 -1.        ],0,0,1,0.545043359,0,0,0,0.385526289,0.309557923,0.107773416,0.41733134,0.201784507,nan,nan,nan,[ nan  nan  nan],nan,nan,nan,712.3345545,866.1299201,866.6749634,nan,nan
0,147,15:39:59:223000,6,1,239,168.046875,[ 0.66506983  0.18338886  0.64054927],1,1,1,0.291232406,0,0,0,0.374382446,0.311181961,0.109154958,0.420336918,0.202027003,nan,nan,nan,[ nan  nan  nan],nan,nan,nan,712.3345545,867.0717134,867.3629458,nan,nan
0,148,15:40:00:159000,6,1,86,60.46875,[ 1.         -0.21659106 -0.6256178 ],1,1,1,0.381397525,0,0,0,0.405891096,0.31104532,0.10879294,0.41983826,0.20225238,nan,nan,nan,[ nan  nan  nan],nan,nan,nan,712.3345545,868.013517,868.3949145,nan,nan
0,149,15:40:01:111000,6,1,219,153.984375,[ 0.87162732  0.08408817  0.57695967],1,1,1,0.527602879,0,0,0,0.400077603,0.311523906,0.108576369,0.420100276,0.202947537,nan,nan,nan,[ nan  nan  nan],nan,nan,nan,712.3345545,868.9552952,869.4828981,nan,nan
0,150,15:40:02:047000,6,1,132,92.8125,[ 1.         -0.30742683 -0.11555536],1,nan,nan,nan,0,0,0,0.454500202,0.312983899,0.109647234,0.422631134,0.203336665,nan,nan,nan,[ nan  nan  nan],nan,nan,nan,712.3345545,869.8970882,nan,nan,nan
0,151,15:40:02:999000,6,1,66,46.40625,[ 1.         -0.11856871 -1.        ],1,1,1,0.044010598,0,0,0,0.285806738,0.312983899,0.109647234,0.422631134,0.203336665,nan,nan,nan,[ nan  nan  nan],nan,nan,nan,712.3345545,870.8388827,870.8828933,nan,nan
0,152,15:40:03:935000,6,1,263,184.921875,[ 0.4056988   0.28417174  0.65182989],1,1,1,0.326149002,0,0,0,0.1850798,0.311178709,0.111463524,0.422642233,0.199715186,nan,nan,nan,[ nan  nan  nan],nan,nan,nan,712.3345545,871.7806751,872.1068242,nan,nan
0,153,15:40:04:871000,6,1,157,110.390625,[ 1.         -0.24004838  0.1304259 ],1,1,1,0.344347553,0,0,0,0.238169051,0.311278511,0.111098037,0.422376548,0.200180475,nan,nan,nan,[ nan  nan  nan],nan,nan,nan,712.3345545,872.7224713,873.0668189,nan,nan
0,154,15:40:05:822000,6,0,30,21.09375,[ 1.          0.07194566 -1.        ],0,0,1,0.514515249,0,0,0,0.395003935,0.311497512,0.110762032,0.422259544,0.20073548,nan,nan,nan,[ nan  nan  nan],nan,nan,nan,712.3345545,873.6642681,874.1787833,nan,nan
0,155,15:40:06:758000,6,1,438,307.96875,[ 0.24362256  0.42809644 -1.        ],1,1,1,0.268704098,0,0,0,0.375855633,0.312833155,0.111610443,0.424443598,0.201222712,nan,nan,nan,[ nan  nan  nan],nan,nan,nan,712.3345545,874.606052,874.8747561,nan,nan
0,156,15:40:07:694000,6,1,73,51.328125,[ 1.         -0.15467886 -0.83091687],1,1,1,0.230896625,0,0,0,0.338038657,0.312544729,0.111301923,0.423846653,0.201242806,nan,nan,nan,[ nan  nan  nan],nan,nan,nan,712.3345545,875.5478501,875.7787468,nan,nan
0,157,15:40:08:646000,6,1,22,15.46875,[ 1.          0.11184242 -1.        ],1,1,1,0.265084515,0,0,0,0.254895079,0.312014547,0.111133627,0.423148174,0.20088092,nan,nan,nan,[ nan  nan  nan],nan,nan,nan,712.3345545,876.4896389,876.7547234,nan,nan
0,158,15:40:09:582000,6,1,162,113.90625,[ 1.         -0.21873956  0.17663297],1,1,1,0.315266877,0,0,0,0.270416006,0.311711773,0.110838255,0.422550028,0.200873517,nan,nan,nan,[ nan  nan  nan],nan,nan,nan,712.3345545,877.4314345,877.7467014,nan,nan
0,159,15:40:10:533000,6,1,475,333.984375,[ 0.53921875  0.34365981 -1.        ],1,1,1,0.27746026,0,0,0,0.285937217,0.311734562,0.110482798,0.422217359,0.201251764,nan,nan,nan,[ nan  nan  nan],nan,nan,nan,712.3345545,878.3732241,878.6506844,nan,nan
0,160,15:40:11:469000,6,1,18,12.65625,[ 0.9886827   0.13116258 -1.        ],1,1,1,0.38364722,0,0,0,0.325458119,0.311516254,0.110164128,0.421680382,0.201352126,nan,nan,nan,[ nan  nan  nan],nan,nan,nan,712.3345545,879.3150163,879.6986635,nan,nan
0,161,15:40:12:405000,6,1,242,170.15625,[ 0.63291185  0.19716118  0.6459214 ],1,1,1,0.273828988,0,0,0,0.311645489,0.311972779,0.109963837,0.421936616,0.202008943,nan,nan,nan,[ nan  nan  nan],nan,nan,nan,712.3345545,880.2568082,880.5306372,nan,nan
0,162,15:40:13:357000,6,1,93,65.390625,[ 1.         -0.2456143  -0.53861988],1,1,1,0.332043083,0,0,0,0.329839764,0.311732881,0.109658961,0.421391843,0.20207392,nan,nan,nan,[ nan  nan  nan],nan,nan,nan,712.3345545,881.1985684,881.5306115,nan,nan
0,163,15:40:14:293000,6,1,401,281.953125,[-0.00506341  0.47079689 -0.4252031 ],1,1,1,0.3581981,0,0,0,0.321356724,0.31185982,0.109327458,0.421187278,0.202532362,nan,nan,nan,[ nan  nan  nan],nan,nan,nan,712.3345545,882.1403934,882.4985915,nan,nan
0,164,15:40:15:229000,6,1,233,163.828125,[ 0.7286704   0.15490978  0.62648223],1,1,1,0.328390714,0,0,0,0.339543966,0.312147635,0.109048191,0.421195827,0.203099444,nan,nan,nan,[ nan  nan  nan],nan,nan,nan,712.3345545,883.0821776,883.4105683,nan,nan
0,165,15:40:16:181000,6,1,75,52.734375,[ 1.         -0.16471446 -0.79135592],1,1,1,0.250601054,0,0,0,0.312396623,0.312247901,0.108718546,0.420966447,0.203529355,nan,nan,nan,[ nan  nan  nan],nan,nan,nan,712.3345545,884.0239438,884.2745449,nan,nan
0,166,15:40:17:117000,6,1,308,216.5625,[-0.01868286  0.41309748  0.48168233],1,1,1,0.300757187,0,0,0,0.293249652,0.3118697,0.108491384,0.420361084,0.203378315,nan,nan,nan,[ nan  nan  nan],nan,nan,nan,712.3345545,884.9657748,885.2665319,nan,nan
0,167,15:40:18:068000,6,1,393,276.328125,[-0.04894566  0.47510217 -0.32744323],1,1,1,0.294928109,0,0,0,0.28209545,0.31180194,0.108163572,0.419965512,0.203638369,nan,nan,nan,[ nan  nan  nan],nan,nan,nan,712.3345545,885.9075672,886.2024953,nan,nan
0,168,15:40:19:004000,6,1,345,242.578125,[-0.17351954  0.46559515  0.18611928],1,1,1,0.249128532,0,0,0,0.281604609,0.311699675,0.107843258,0.419542932,0.203856417,nan,nan,nan,[ nan  nan  nan],nan,nan,nan,712.3345545,886.8493551,887.0984837,nan,nan
0,169,15:40:19:940000,6,1,81,56.953125,[ 1.         -0.19380425 -0.69421917],1,1,1,0.283321554,0,0,0,0.275792732,0.31132274,0.107626902,0.418949643,0.203695838,nan,nan,nan,[ nan  nan  nan],nan,nan,nan,712.3345545,887.7911504,888.074472,nan,nan
0,170,15:40:20:892000,6,1,417,293.203125,[ 0.0945046   0.45705356 -0.6457202 ],1,1,1,0.317504313,0,0,0,0.283318133,0.311155068,0.107325926,0.418480995,0.203829142,nan,nan,nan,[ nan  nan  nan],nan,nan,nan,712.3345545,888.7329386,889.0504429,nan,nan
0,171,15:40:21:828000,6,1,349,245.390625,[-0.17565689  0.46876851  0.14794518],1,1,1,0.255689167,0,0,0,0.285505011,0.311192862,0.107007142,0.418200003,0.20418572,nan,nan,nan,[ nan  nan  nan],nan,nan,nan,712.3345545,889.6747342,889.9304234,nan,nan
0,172,15:40:22:764000,6,1,289,203.203125,[ 0.14059213  0.36807325  0.58250527],1,1,1,0.241868555,0,0,0,0.271687345,0.310864437,0.106774972,0.417639409,0.204089465,nan,nan,nan,[ nan  nan  nan],nan,nan,nan,712.3345545,890.6165293,890.8583978,nan,nan
0,173,15:40:23:715000,6,1,369,259.453125,[-0.14769469  0.47799919 -0.05643387],1,1,1,0.252055901,0,0,0,0.249871208,0.310458579,0.106591127,0.417049706,0.203867452,nan,nan,nan,[ nan  nan  nan],nan,nan,nan,712.3345545,891.5583223,891.8103782,nan,nan
0,174,15:40:24:651000,6,1,12,8.4375,[ 0.94247669  0.15927395 -1.        ],1,1,1,0.262249233,0,0,0,0.252057896,0.310117043,0.106372251,0.416489294,0.203744792,nan,nan,nan,[ nan  nan  nan],nan,nan,nan,712.3345545,892.5001133,892.7623626,nan,nan
0,175,15:40:25:603000,6,1,52,36.5625,[ 1.         -0.04388606 -1.        ],1,1,1,0.280433244,0,0,0,0.264912792,0.309838742,0.106124996,0.415963738,0.203713746,nan,nan,nan,[ nan  nan  nan],nan,nan,nan,712.3345545,893.4419066,893.7223399,nan,nan
0,176,15:40:26:539000,6,0,228,160.3125,[ 0.78072981  0.13027695  0.61143314],0,0,1,0.426606667,0,0,0,0.323096381,0.309668768,0.10584131,0.415510078,0.203827458,nan,nan,nan,[ nan  nan  nan],nan,nan,nan,712.3345545,894.3836991,894.8103058,nan,nan
0,177,15:40:27:475000,6,1,19,13.359375,[ 0.99625917  0.12637453 -1.        ],1,1,1,0.284814888,0,0,0,0.330618266,0.310340825,0.105906273,0.416247098,0.204434552,nan,nan,nan,[ nan  nan  nan],nan,nan,nan,712.3345545,895.325491,895.6103059,nan,nan
0,178,15:40:28:427000,6,1,279,196.171875,[ 0.23815758  0.33893035  0.61897842],1,1,1,0.454984581,0,0,0,0.388802045,0.310194962,0.105620776,0.415815739,0.204574186,nan,nan,nan,[ nan  nan  nan],nan,nan,nan,712.3345545,896.267278,896.7222626,nan,nan
0,179,15:40:29:363000,6,1,466,327.65625,[ 0.46478901  0.3683856  -1.        ],1,1,1,0.273173552,0,0,0,0.337657674,0.311017631,0.105881068,0.416898698,0.205136563,nan,nan,nan,[ nan  nan  nan],nan,nan,nan,712.3345545,897.2090739,897.4822475,nan,nan
0,180,15:40:30:299000,6,1,372,261.5625,[-0.13866002  0.47845887 -0.08881238],1,1,1,0.235364654,0,0,0,0.321174262,0.310803822,0.10561964,0.416423462,0.205184182,nan,nan,nan,[ nan  nan  nan],nan,nan,nan,712.3345545,898.1508655,898.3862302,nan,nan
0,181,15:40:31:250000,6,1,69,48.515625,[ 1.         -0.1342072  -0.93964801],1,1,1,0.269579628,0,0,0,0.259372611,0.310380007,0.10547336,0.415853366,0.204906647,nan,nan,nan,[ nan  nan  nan],nan,nan,nan,712.3345545,899.0926301,899.3622097,nan,nan
0,182,15:40:32:186000,6,1,429,301.640625,[ 0.17753182  0.44208078 -0.9018852 ],1,1,1,0.319738042,0,0,0,0.274894108,0.310152072,0.105222282,0.415374354,0.204929789,nan,nan,nan,[ nan  nan  nan],nan,nan,nan,712.3345545,900.0344507,900.3541888,nan,nan
0,183,15:40:33:122000,6,1,42,29.53125,[ 1.          0.00954879 -1.        ],1,1,1,0.289923529,0,0,0,0.2930804,0.310205327,0.10493201,0.415137337,0.205273317,nan,nan,nan,[ nan  nan  nan],nan,nan,nan,712.3345545,900.9762452,901.2661687,nan,nan
0,184,15:40:34:074000,6,1,191,134.296875,[ 1.         -0.06914798  0.41457165],1,1,1,0.388096147,0,0,0,0.332585906,0.310093273,0.10465254,0.414745813,0.205440733,nan,nan,nan,[ nan  nan  nan],nan,nan,nan,712.3345545,901.9180328,902.306129,nan,nan
0,185,15:40:35:010000,6,1,148,104.0625,[ 1.         -0.27269559  0.04442646],1,1,1,0.318284621,0,0,0,0.332101432,0.31052186,0.1045238,0.41504566,0.20599806,nan,nan,nan,[ nan  nan  nan],nan,nan,nan,712.3345545,902.859833,903.1781176,nan,nan
0,186,15:40:35:961000,6,1,261,183.515625,[ 0.42722581  0.27661781  0.65367446],1,1,1,0.376473342,0,0,0,0.36095137,0.31056428,0.104239396,0.414803675,0.206324884,nan,nan,nan,[ nan  nan  nan],nan,nan,nan,712.3345545,903.8016192,904.1780925,nan,nan
0,187,15:40:36:897000,6,1,393,276.328125,[-0.04894566  0.47510217 -0.32744323],1,1,1,0.314657626,0,0,0,0.336471863,0.310922481,0.104068624,0.414991105,0.206853857,nan,nan,nan,[ nan  nan  nan],nan,nan,nan,712.3345545,904.7434119,905.0580696,nan,nan
0,188,15:40:37:833000,6,1,134,94.21875,[ 1.         -0.304951   -0.09514411],1,1,1,0.300833308,0,0,0,0.330654759,0.310942671,0.103787338,0.414730009,0.207155333,nan,nan,nan,[ nan  nan  nan],nan,nan,nan,712.3345545,905.6852104,905.9860437,nan,nan
0,189,15:40:38:785000,6,1,268,188.4375,[ 0.35230222  0.30236752  0.64500531],1,1,1,0.247040202,0,0,0,0.287510379,0.31088832,0.103510603,0.414398923,0.207377716,nan,nan,nan,[ nan  nan  nan],nan,nan,nan,712.3345545,906.6269997,906.8740399,nan,nan
0,190,15:40:39:721000,6,1,1,0.703125,[ 0.85493913  0.20787707 -1.        ],1,1,1,0.609200855,0,0,0,0.385691455,0.310546886,0.103338433,0.413885319,0.207208452,nan,nan,nan,[ nan  nan  nan],nan,nan,nan,712.3345545,907.5687913,908.1779922,nan,nan
0,191,15:40:40:657000,6,1,209,146.953125,[ 0.96730184  0.03048352  0.52805   ],1,1,1,0.315398022,0,0,0,0.390546359,0.312135471,0.105327789,0.41746326,0.206807682,nan,nan,nan,[ nan  nan  nan],nan,nan,nan,712.3345545,908.5105818,908.8259798,nan,nan
0,192,15:40:41:609000,6,1,490,344.53125,[ 0.66466039  0.29615785 -1.        ],1,1,1,0.261583248,0,0,0,0.395394042,0.312152733,0.105049041,0.417201774,0.207103692,nan,nan,nan,[ nan  nan  nan],nan,nan,nan,712.3345545,909.4523762,909.7139595,nan,nan
0,193,15:40:42:545000,6,1,346,243.28125,[-0.17431756  0.46643129  0.17667017],1,1,1,0.46377752,0,0,0,0.346919597,0.311886578,0.104836105,0.416722683,0.207050472,nan,nan,nan,[ nan  nan  nan],nan,nan,nan,712.3345545,910.394169,910.8579465,nan,nan
0,194,15:40:43:496000,6,1,194,136.40625,[ 1.         -0.05248646  0.4355717 ],1,1,1,0.249963579,0,0,0,0.325108116,0.312681818,0.105134314,0.417816132,0.207547504,nan,nan,nan,[ nan  nan  nan],nan,nan,nan,712.3345545,911.3359632,911.5859267,nan,nan
0,195,15:40:44:432000,6,1,464,326.25,[ 0.44840488  0.37350356 -1.        ],1,1,1,0.300141664,0,0,0,0.337960921,0.312355161,0.104957305,0.417312465,0.207397856,nan,nan,nan,[ nan  nan  nan],nan,nan,nan,712.3345545,912.2777533,912.577895,nan,nan
0,196,15:40:45:368000,6,1,134,94.21875,[ 1.         -0.304951   -0.09514411],1,1,1,0.486321793,0,0,0,0.345475679,0.312291878,0.104688714,0.416980592,0.207603165,nan,nan,nan,[ nan  nan  nan],nan,nan,nan,712.3345545,913.2195469,913.7058687,nan,nan
0,197,15:40:46:320000,6,1,255,179.296875,[ 0.49215936  0.25301719  0.65616311],1,1,1,0.288518289,0,0,0,0.358327249,0.31318894,0.105159613,0.418348552,0.208029327,nan,nan,nan,[ nan  nan  nan],nan,nan,nan,712.3345545,914.1613414,914.4498597,nan,nan
0,198,15:40:47:256000,6,0,153,107.578125,[ 1.         -0.25554786  0.09262139],0,1,0,0.210700119,0,0,0,0.328513401,0.313062424,0.104904427,0.417966851,0.208157996,nan,nan,nan,[ nan  nan  nan],nan,nan,nan,712.3345545,915.103135,915.3138351,nan,nan
0,199,15:40:48:192000,6,1,507,356.484375,[ 0.80599565  0.23268835 -1.        ],1,1,1,0.156887912,0,0,0,0.218702107,0.312540167,0.104890314,0.41743048,0.207649853,nan,nan,nan,[ nan  nan  nan],nan,nan,nan,712.3345545,916.0449249,916.2018128,nan,nan
0,200,15:40:49:143000,6,1,134,94.21875,[ 1.         -0.304951   -0.09514411],1,1,1,0.223111501,0,0,0,0.196899844,0.311750054,0.105206886,0.41695694,0.206543168,nan,nan,nan,[ nan  nan  nan],nan,nan,nan,712.3345545,916.9866883,917.2097998,nan,nan
0,201,15:40:50:079000,6,1,379,266.484375,[-0.11353594  0.47861499 -0.16597052],1,1,1,0.209262664,0,1,0,0.196420692,0.311302385,0.105128815,0.4164312,0.206173569,nan,nan,nan,[ nan  nan  nan],nan,nan,nan,712.3345545,917.9285121,918.1377748,nan,nan
0,202,15:40:55:446000,6,1,502,352.96875,[ 0.76474094  0.25241358 -1.        ],1,1,1,0.123461228,1,0,0,0.185278464,0.310789622,0.105112268,0.41590189,0.205677354,nan,48.58810667,59,[ 1.         -0.08144099 -1.        ],nan,48.44314333,2.367297233,712.3345545,918.8703026,918.9937638,920.7038178,923.0791308
0,203,15:40:56:382000,6,1,419,294.609375,[ 0.10789467  0.45484197 -0.67809886],1,1,1,0.500221947,0,0,0,0.277648613,0.30985298,0.105678419,0.4155314,0.204174561,nan,nan,nan,[ nan  nan  nan],nan,nan,nan,712.3345545,924.2293505,924.7295725,nan,nan
0,204,15:40:57:318000,6,1,193,135.703125,[ 1.         -0.05804539  0.42865879],1,1,1,0.310451886,0,0,0,0.311378354,0.310800089,0.106262739,0.417062828,0.20453735,nan,nan,nan,[ nan  nan  nan],nan,nan,nan,712.3345545,925.1711453,925.4815972,nan,nan
0,205,15:40:58:270000,6,1,458,322.03125,[ 0.39968805  0.38805021 -1.        ],1,1,1,0.256625994,0,0,0,0.355766609,0.310798366,0.105999389,0.416797755,0.204798977,nan,nan,nan,[ nan  nan  nan],nan,nan,nan,712.3345545,926.1129594,926.3695854,nan,nan
0,206,15:40:59:206000,6,1,367,258.046875,[-0.15309091  0.4775609  -0.03508163],1,1,1,0.474825571,0,0,0,0.34730115,0.310531507,0.105805985,0.416337492,0.204725521,nan,nan,nan,[ nan  nan  nan],nan,nan,nan,712.3345545,927.0547237,927.5295492,nan,nan
0,207,15:41:00:157000,6,1,180,126.5625,[ 1.         -0.12927862  0.33123896],1,1,1,0.245053936,0,0,0,0.325501834,0.31133687,0.10616825,0.41750512,0.20516862,nan,nan,nan,[ nan  nan  nan],nan,nan,nan,712.3345545,927.9964868,928.2415407,nan,nan
0,208,15:41:01:093000,6,1,2,1.40625,[ 0.86302458  0.20362286 -1.        ],1,1,1,0.327196161,0,0,0,0.349025223,0.311013538,0.106009623,0.417023161,0.205003915,nan,nan,nan,[ nan  nan  nan],nan,nan,nan,712.3345545,928.9383146,929.2655107,nan,nan
0,209,15:41:02:029000,6,0,419,294.609375,[ 0.10789467  0.45484197 -0.67809886],0,0,1,0.449333687,0,0,0,0.340527928,0.311092095,0.105757986,0.416850081,0.205334108,nan,nan,nan,[ nan  nan  nan],nan,nan,nan,712.3345545,929.8801412,930.3294749,nan,nan
0,210,15:41:02:981000,6,1,196,137.8125,[ 1.         -0.04136108  0.44913076],1,1,1,0.251571807,0,0,0,0.342700552,0.311759929,0.105936752,0.417696681,0.205823176,nan,nan,nan,[ nan  nan  nan],nan,nan,nan,712.3345545,930.8219015,931.0734733,nan,nan
0,211,15:41:03:917000,6,1,270,189.84375,[ 0.33115907  0.30936972  0.64139387],1,1,1,0.237753761,0,0,0,0.312886418,0.311470563,0.105763762,0.417234324,0.205706801,nan,nan,nan,[ nan  nan  nan],nan,nan,nan,712.3345545,931.7636928,932.0014466,nan,nan
0,212,15:41:04:853000,6,1,8,5.625,[ 0.91102659  0.17740094 -1.        ],1,1,1,0.215945606,0,0,0,0.235090391,0.311117851,0.105632989,0.416750839,0.205484862,nan,nan,nan,[ nan  nan  nan],nan,nan,nan,712.3345545,932.7054856,932.9214312,nan,nan
0,213,15:41:05:804000,6,1,242,170.15625,[ 0.63291185  0.19716118  0.6459214 ],1,1,1,0.242050162,0,0,0,0.231916509,0.310664649,0.105584659,0.416249308,0.20507999,nan,nan,nan,[ nan  nan  nan],nan,nan,nan,712.3345545,933.6473647,933.8894149,nan,nan
0,214,15:41:06:740000,6,1,303,213.046875,[ 0.01913493  0.40252284  0.51201836],1,1,1,0.284312549,0,0,0,0.247436105,0.310339462,0.10543952,0.415778982,0.204899943,nan,nan,nan,[ nan  nan  nan],nan,nan,nan,712.3345545,934.5890691,934.8733816,nan,nan
0,215,15:41:07:692000,6,1,102,71.71875,[ 1.         -0.27661034 -0.43492695],1,1,1,0.262470182,0,0,0,0.262944298,0.310216694,0.105205663,0.415422357,0.205011031,nan,nan,nan,[ nan  nan  nan],nan,nan,nan,712.3345545,935.5308946,935.7933648,nan,nan
0,216,15:41:08:628000,6,1,277,194.765625,[ 0.25847065  0.33263616  0.62482424],1,1,1,0.296682021,0,0,0,0.281154917,0.309992532,0.105009146,0.415001678,0.204983386,nan,nan,nan,[ nan  nan  nan],nan,nan,nan,712.3345545,936.4726531,936.7693352,nan,nan
0,217,15:41:09:564000,6,1,204,143.4375,[ 1.          0.00303257  0.49965442],1,1,1,0.322864123,0,0,0,0.294005442,0.309930333,0.104767443,0.414697776,0.20516289,nan,nan,nan,[ nan  nan  nan],nan,nan,nan,712.3345545,937.4144476,937.7373117,nan,nan
0,218,15:41:10:516000,6,1,82,57.65625,[ 1.         -0.19847916 -0.67987248],1,1,1,0.39704646,0,0,0,0.338864201,0.30999049,0.104527218,0.414517708,0.205463272,nan,nan,nan,[ nan  nan  nan],nan,nan,nan,712.3345545,938.3562383,938.7532848,nan,nan
0,219,15:41:11:452000,6,1,186,130.78125,[ 1.         -0.09673867  0.37788139],1,1,1,0.439227594,0,0,0,0.386379392,0.310393527,0.104452289,0.414845816,0.205941239,nan,nan,nan,[ nan  nan  nan],nan,nan,nan,712.3345545,939.2980331,939.7372607,nan,nan
0,220,15:41:12:388000,6,1,95,66.796875,[ 1.         -0.25317502 -0.51497544],1,1,1,0.72133977,0,0,1,0.519204608,0.310987233,0.104576,0.415563233,0.206411232,nan,nan,nan,[ nan  nan  nan],nan,nan,nan,712.3345545,940.2398983,940.961238,nan,nan
0,221,15:41:18:175000,6,1,25,17.578125,[ 1.          0.09706829 -1.        ],1,1,1,0.547531679,1,0,0,0.569366348,0.312869584,0.107957669,0.420827253,0.204911914,nan,50.0882602,57,[ 1.         -0.07073133 -1.        ],nan,22.3336148,2.783898446,712.3345545,941.1816839,941.7292156,943.0151346,945.8071897
0,222,15:41:19:111000,6,1,283,198.984375,[ 0.19826868  0.35105092  0.60582595],1,1,1,0.523692499,0,0,0,0.597521316,0.3139411,0.108866597,0.422807697,0.205074503,nan,nan,nan,[ nan  nan  nan],nan,nan,nan,712.3345545,946.9573932,947.4810857,nan,nan
0,223,15:41:20:047000,6,1,436,306.5625,[ 0.22868171  0.43141373 -1.        ],1,1,1,0.317862109,0,0,0,0.463028762,0.314894516,0.109531433,0.424425948,0.205363083,nan,nan,nan,[ nan  nan  nan],nan,nan,nan,712.3345545,947.8992185,948.2170806,nan,nan
0,224,15:41:20:999000,6,1,495,348.046875,[ 0.70648511  0.27855169 -1.        ],1,1,1,0.264082972,0,0,0,0.36854586,0.314907944,0.109283524,0.424191468,0.205624419,nan,nan,nan,[ nan  nan  nan],nan,nan,nan,712.3345545,948.8409742,949.1050571,nan,nan
0,225,15:41:21:935000,6,1,342,240.46875,[-0.17005262  0.46291356  0.21407524],1,1,1,0.762252797,0,0,1,0.448065959,0.314679002,0.109090217,0.423769219,0.205588785,nan,nan,nan,[ nan  nan  nan],nan,nan,nan,712.3345545,949.7827655,950.5450183,nan,nan
0,226,15:41:26:708000,6,1,241,169.453125,[ 0.64365311  0.19260594  0.64425478],1,1,1,0.404451265,1,0,0,0.476929011,0.31668606,0.112878639,0.429564699,0.20380742,nan,-2.398421334,131,[ 1.         -0.30845167 -0.1258005 ],nan,-77.05470367,1.767199787,712.3345545,950.7245577,951.1290089,952.558078,954.3333169
0,227,15:41:27:644000,6,1,167,117.421875,[ 1.         -0.19560581  0.22154672],1,1,1,0.437022375,0,0,0,0.534575479,0.317077869,0.112778273,0.429856141,0.204299596,nan,nan,nan,[ nan  nan  nan],nan,nan,nan,712.3345545,955.4918629,955.9288853,nan,nan
0,228,15:41:28:596000,6,1,453,318.515625,[ 0.35967042  0.39926175 -1.        ],1,1,1,0.263228824,0,0,0,0.368234155,0.317610955,0.11280987,0.430420825,0.204801085,nan,nan,nan,[ nan  nan  nan],nan,nan,nan,712.3345545,956.4336346,956.6968634,nan,nan
0,229,15:41:29:532000,6,1,109,76.640625,[ 1.         -0.29463833 -0.3577737 ],1,1,1,0.217415277,0,0,0,0.305888825,0.317370326,0.112617871,0.429988197,0.204752456,nan,nan,nan,[ nan  nan  nan],nan,nan,nan,712.3345545,957.3754399,957.5928551,nan,nan
0,230,15:41:30:468000,6,0,55,38.671875,[ 1.         -0.05999965 -1.        ],0,0,1,0.37959144,0,0,0,0.28674518,0.316929996,0.11256435,0.429494346,0.204365646,nan,nan,nan,[ nan  nan  nan],nan,nan,nan,712.3345545,958.3172375,958.6968289,nan,nan
0,231,15:41:31:420000,6,1,368,258.75,[-0.15045717  0.47779326 -0.04573418],1,1,1,0.221814883,0,0,0,0.272940533,0.317204827,0.112393529,0.429598355,0.204811298,nan,nan,nan,[ nan  nan  nan],nan,nan,nan,712.3345545,959.2590063,959.4808211,nan,nan
0,232,15:41:32:356000,6,1,15,10.546875,[ 0.96573443  0.14535278 -1.        ],1,1,1,0.231970298,0,0,0,0.277792207,0.316788277,0.1123241,0.429112377,0.204464176,nan,nan,nan,[ nan  nan  nan],nan,nan,nan,712.3345545,960.2008292,960.4327995,nan,nan
0,233,15:41:33:292000,6,1,409,287.578125,[ 0.04294362  0.46479315 -0.52946185],1,1,1,0.250115535,0,0,0,0.234633572,0.316419503,0.112218496,0.428637999,0.204201006,nan,nan,nan,[ nan  nan  nan],nan,nan,nan,712.3345545,961.1426405,961.392756,nan,nan
0,234,15:41:34:243000,6,1,44,30.9375,[ 1.         -0.00106984 -1.        ],1,1,1,0.308324213,0,0,0,0.263470015,0.316132473,0.112059916,0.428192388,0.204072557,nan,nan,nan,[ nan  nan  nan],nan,nan,nan,712.3345545,962.0844119,962.3927361,nan,nan
0,235,15:41:35:179000,6,0,435,305.859375,[ 0.22126383  0.43302706 -1.        ],0,1,0,0.254529111,0,0,0,0.27098962,0.316098816,0.111819316,0.427918133,0.2042795,nan,nan,nan,[ nan  nan  nan],nan,nan,nan,712.3345545,963.0261969,963.280726,nan,nan
0,236,15:41:36:115000,6,1,138,97.03125,[ 1.         -0.29832988 -0.05465081],1,1,1,0.192714821,0,0,0,0.251856048,0.315834569,0.111651673,0.427486241,0.204182896,nan,nan,nan,[ nan  nan  nan],nan,nan,nan,712.3345545,963.9679971,964.1607119,nan,nan
0,237,15:41:37:067000,6,0,208,146.25,[ 0.97651258  0.02502074  0.52257448],0,1,0,0.25091352,0,0,0,0.23271915,0.315308416,0.111701947,0.427010363,0.203606469,nan,nan,nan,[ nan  nan  nan],nan,nan,nan,712.3345545,964.909781,965.1606945,nan,nan
0,238,15:41:38:003000,6,1,289,203.203125,[ 0.14059213  0.36807325  0.58250527],1,1,1,0.141076472,0,0,0,0.194901604,0.315034395,0.111542819,0.426577214,0.203491576,nan,nan,nan,[ nan  nan  nan],nan,nan,nan,712.3345545,965.8515806,965.9926571,nan,nan
0,239,15:41:38:954000,6,1,12,8.4375,[ 0.94247669  0.15927395 -1.        ],1,1,1,0.263259614,0,0,0,0.218416535,0.314297285,0.111878344,0.426175629,0.202418942,nan,nan,nan,[ nan  nan  nan],nan,nan,nan,712.3345545,966.7933745,967.0566341,nan,nan
0,240,15:41:39:890000,6,1,413,290.390625,[ 0.06831062  0.46114313 -0.5854956 ],1,1,1,0.23344453,0,0,0,0.212593539,0.314081936,0.111691069,0.425773006,0.202390867,nan,nan,nan,[ nan  nan  nan],nan,nan,nan,712.3345545,967.7351715,967.968616,nan,nan
0,241,15:41:40:826000,6,1,245,172.265625,[ 0.6005777   0.21061011  0.65017283],1,1,1,0.251631107,0,0,0,0.249445084,0.313743124,0.111578159,0.425321283,0.202164965,nan,nan,nan,[ nan  nan  nan],nan,nan,nan,712.3345545,968.6769603,968.9285914,nan,nan
0,242,15:41:41:778000,6,1,375,263.671875,[-0.1285567   0.47868243 -0.12160516],1,1,1,0.301824588,0,0,0,0.262300075,0.313483241,0.111416647,0.424899888,0.202066594,nan,nan,nan,[ nan  nan  nan],nan,nan,nan,712.3345545,969.6187536,969.9205782,nan,nan
0,243,15:41:42:714000,6,1,72,50.625,[ 1.         -0.14960778 -0.85320374],1,1,1,0.256005339,0,0,0,0.269820345,0.313434663,0.111186823,0.424621486,0.202247841,nan,nan,nan,[ nan  nan  nan],nan,nan,nan,712.3345545,970.5605486,970.8165539,nan,nan
0,244,15:41:43:650000,6,1,23,16.171875,[ 1.          0.10694394 -1.        ],1,1,1,0.242187293,0,0,0,0.266672407,0.313196367,0.111017301,0.424213669,0.202179066,nan,nan,nan,[ nan  nan  nan],nan,nan,nan,712.3345545,971.5023394,971.7445267,nan,nan
0,245,15:41:44:602000,6,1,105,73.828125,[ 1.         -0.28504984 -0.40158079],1,1,1,0.220380849,0,0,0,0.239524494,0.312902941,0.110881297,0.423784238,0.202021645,nan,nan,nan,[ nan  nan  nan],nan,nan,nan,712.3345545,972.444129,972.6645098,nan,nan
0,246,15:41:45:538000,6,1,174,122.34375,[ 1.         -0.16079069  0.28198128],1,1,1,0.270554943,0,0,0,0.244374361,0.312522192,0.110811323,0.423333515,0.201710869,nan,nan,nan,[ nan  nan  nan],nan,nan,nan,712.3345545,973.3859266,973.6564815,nan,nan
0,247,15:41:46:489000,6,1,401,281.953125,[-0.00506341  0.47079689 -0.4252031 ],1,1,1,0.256752006,0,0,0,0.249229266,0.312350195,0.110616516,0.422966711,0.201733679,nan,nan,nan,[ nan  nan  nan],nan,nan,nan,712.3345545,974.3277165,974.5844685,nan,nan
0,248,15:41:47:425000,6,1,241,169.453125,[ 0.64365311  0.19260594  0.64425478],1,1,1,0.234950979,0,0,0,0.254085976,0.312123264,0.110447436,0.4225707,0.201675827,nan,nan,nan,[ nan  nan  nan],nan,nan,nan,712.3345545,975.2695029,975.5044539,nan,nan
0,249,15:41:48:361000,6,1,308,216.5625,[-0.01868286  0.41309748  0.48168233],1,1,1,0.229133304,0,0,0,0.240278763,0.311809555,0.110332042,0.422141597,0.201477513,nan,nan,nan,[ nan  nan  nan],nan,nan,nan,712.3345545,976.2112951,976.4404284,nan,nan
0,250,15:41:49:313000,6,1,375,263.671875,[-0.1285567   0.47868243 -0.12160516],1,1,1,0.255298586,0,0,0,0.23979429,0.311474834,0.110233556,0.42170839,0.201241278,nan,nan,nan,[ nan  nan  nan],nan,nan,nan,712.3345545,977.1530904,977.408389,nan,nan
0,251,15:41:50:249000,6,1,444,312.1875,[ 0.2892412   0.41740978 -1.        ],1,1,1,0.289485051,0,0,0,0.257972314,0.311248316,0.110068673,0.421316989,0.201179644,nan,nan,nan,[ nan  nan  nan],nan,nan,nan,712.3345545,978.0948857,978.3843708,nan,nan
0,252,15:41:51:185000,6,1,344,241.875,[-0.17254346  0.46473023  0.19550382],1,1,1,0.28367992,0,0,0,0.276154519,0.311160914,0.109856052,0.421016966,0.201304862,nan,nan,nan,[ nan  nan  nan],nan,nan,nan,712.3345545,979.0366754,979.3203553,nan,nan
0,253,15:41:52:136000,6,1,144,101.25,[ 1.         -0.28442319  0.00519445],1,1,1,0.293862419,0,0,0,0.28900913,0.31105099,0.10964984,0.42070083,0.201401149,nan,nan,nan,[ nan  nan  nan],nan,nan,nan,712.3345545,979.9784667,980.2723291,nan,nan
0,254,15:41:53:072000,6,1,257,180.703125,[ 0.4704729   0.26103985  0.65584138],1,1,1,0.296036278,0,0,0,0.291192872,0.310982509,0.109436553,0.420419062,0.201545956,nan,nan,nan,[ nan  nan  nan],nan,nan,nan,712.3345545,980.9202634,981.2162997,nan,nan
0,255,15:41:54:024000,6,1,53,37.265625,[ 1.         -0.04925756 -1.        ],1,1,1,0.28222935,0,0,0,0.290709349,0.310923199,0.109223243,0.420146442,0.201699956,nan,nan,nan,[ nan  nan  nan],nan,nan,nan,712.3345545,981.862051,982.1442804,nan,nan
0,256,15:41:54:960000,6,1,481,338.203125,[ 0.58928949  0.32561186 -1.        ],1,1,1,0.292408713,0,0,0,0.29022478,0.310809785,0.10902204,0.419831825,0.201787744,nan,nan,nan,[ nan  nan  nan],nan,nan,nan,712.3345545,982.8038483,983.0962571,nan,nan
0,257,15:41:55:896000,6,1,312,219.375,[-0.04644836  0.4209252   0.45557321],1,1,1,0.318599938,0,0,0,0.297746,0.310737339,0.10881332,0.419550659,0.20192402,nan,nan,nan,[ nan  nan  nan],nan,nan,nan,712.3345545,983.7456451,984.064245,nan,nan
0,258,15:41:56:848000,6,1,184,129.375,[ 1.         -0.10767189  0.36264005],1,1,1,0.320793754,0,0,0,0.310600801,0.310768173,0.108600863,0.419369036,0.20216731,nan,nan,nan,[ nan  nan  nan],nan,nan,nan,712.3345545,984.6874304,985.0082242,nan,nan
0,259,15:41:57:784000,6,0,287,201.796875,[ 0.15950165  0.36255249  0.59075192],0,1,0,0.266982686,0,0,0,0.302125459,0.310807336,0.108390348,0.419197684,0.202416987,nan,nan,nan,[ nan  nan  nan],nan,nan,nan,712.3345545,985.6292269,985.8962096,nan,nan
0,260,15:41:58:720000,6,1,478,336.09375,[ 0.5642225   0.33479366 -1.        ],1,1,1,0.261156459,0,0,0,0.282977633,0.310636812,0.108213667,0.418850479,0.202423144,nan,nan,nan,[ nan  nan  nan],nan,nan,nan,712.3345545,986.5710119,986.8321684,nan,nan
0,261,15:41:59:671000,6,1,108,75.9375,[ 1.         -0.29242661 -0.36866329],1,1,1,0.215355457,0,0,0,0.247831534,0.310445027,0.1080475,0.418492527,0.202397528,nan,nan,nan,[ nan  nan  nan],nan,nan,nan,712.3345545,987.5128078,987.7281633,nan,nan
0,262,15:42:00:607000,6,1,60,42.1875,[ 1.         -0.08678377 -1.        ],1,1,1,0.337510089,0,0,0,0.271340668,0.310077886,0.107999835,0.418077721,0.202078051,nan,nan,nan,[ nan  nan  nan],nan,nan,nan,712.3345545,988.4546054,988.7921155,nan,nan
0,263,15:42:01:559000,6,1,284,199.6875,[ 0.18846515  0.3539841   0.60223628],1,1,1,0.315706781,0,0,0,0.289524109,0.310183395,0.107805316,0.41798871,0.202378079,nan,nan,nan,[ nan  nan  nan],nan,nan,nan,712.3345545,989.396399,989.7121058,nan,nan
0,264,15:42:02:495000,6,1,423,297.421875,[ 0.13522958  0.45008089 -0.75003992],1,1,1,0.317900026,0,0,0,0.323705632,0.310204557,0.107599135,0.417803692,0.202605422,nan,nan,nan,[ nan  nan  nan],nan,nan,nan,712.3345545,990.3381869,990.6560869,nan,nan
0,265,15:42:03:431000,6,1,69,48.515625,[ 1.         -0.1342072  -0.93964801],1,1,1,0.496070946,0,0,0,0.376559251,0.310233929,0.107394645,0.417628574,0.202839284,nan,nan,nan,[ nan  nan  nan],nan,nan,nan,712.3345545,991.2799774,991.7760483,nan,nan
0,266,15:42:04:382000,6,1,279,196.171875,[ 0.23815758  0.33893035  0.61897842],1,1,1,0.490307154,0,0,1,0.434759375,0.310940534,0.107798747,0.41873928,0.203141787,nan,nan,nan,[ nan  nan  nan],nan,nan,nan,712.3345545,992.2217385,992.7120456,nan,nan
0,267,15:42:09:967000,6,1,112,78.75,[ 1.         -0.30050152 -0.32532486],1,1,1,0.428459508,1,0,0,0.471612536,0.311619953,0.108157089,0.419777042,0.203462863,nan,-6.2156359,137,[ 1.         -0.30019022 -0.06473166],nan,17.4656359,2.600680753,712.3345545,993.1635652,993.5920247,994.9887481,997.5974512
0,268,15:42:10:903000,6,0,168,118.125,[ 1.         -0.19079002  0.2303618 ],0,0,1,0.540222666,0,0,0,0.486329776,0.312060857,0.108190265,0.420251121,0.203870592,nan,nan,nan,[ nan  nan  nan],nan,nan,nan,712.3345545,998.747661,999.2878837,nan,nan
0,269,15:42:11:839000,6,1,302,212.34375,[ 0.02708608  0.40030084  0.51777002],1,1,1,0.462413334,0,0,0,0.477031836,0.312918608,0.108885717,0.421804325,0.204032891,nan,nan,nan,[ nan  nan  nan],nan,nan,nan,712.3345545,999.6894421,1000.151855,nan,nan
0,270,15:42:12:791000,6,1,356,250.3125,[-0.17284378  0.47323941  0.07883681],1,1,1,0.384619968,0,0,0,0.462418656,0.313478513,0.109064586,0.422543099,0.204413927,nan,nan,nan,[ nan  nan  nan],nan,nan,nan,712.3345545,1000.631231,1001.015851,nan,nan
0,271,15:42:13:727000,6,1,24,16.875,[ 1.          0.10201906 -1.        ],1,1,1,0.298810265,0,0,0,0.381947856,0.313743966,0.108947297,0.422691263,0.204796669,nan,nan,nan,[ nan  nan  nan],nan,nan,nan,712.3345545,1001.573023,1001.871833,nan,nan
0,272,15:42:14:678000,6,1,90,63.28125,[ 1.         -0.23363579 -0.57497187],1,1,1,0.252993012,0,0,0,0.312141082,0.313688451,0.108748402,0.422436853,0.204940049,nan,nan,nan,[ nan  nan  nan],nan,nan,nan,712.3345545,1002.514812,1002.767805,nan,nan
0,273,15:42:15:614000,6,1,483,339.609375,[ 0.60602571  0.31931445 -1.        ],1,1,1,0.28718803,0,0,0,0.279663769,0.313463653,0.108609428,0.422073081,0.204854225,nan,nan,nan,[ nan  nan  nan],nan,nan,nan,712.3345545,1003.456606,1003.743794,nan,nan
0,274,15:42:16:550000,6,0,154,108.28125,[ 1.         -0.25181315  0.10213817],0,0,1,0.465357238,0,0,0,0.335179427,0.313366695,0.108420562,0.421787257,0.204946132,nan,nan,nan,[ nan  nan  nan],nan,nan,nan,712.3345545,1004.398406,1004.863764,nan,nan
0,275,15:42:17:502000,6,1,267,187.734375,[ 0.36292453  0.29880723  0.64662252],1,1,1,0.419547398,0,0,0,0.390697556,0.313925483,0.108611324,0.422536808,0.205314159,nan,nan,nan,[ nan  nan  nan],nan,nan,nan,712.3345545,1005.340193,1005.75974,nan,nan
0,276,15:42:18:438000,6,1,235,165.234375,[ 0.70759192  0.16453778  0.63165963],1,1,1,0.349739864,0,0,0,0.411548167,0.314312377,0.108599835,0.422912212,0.205712542,nan,nan,nan,[ nan  nan  nan],nan,nan,nan,712.3345545,1006.281985,1006.631725,nan,nan
0,277,15:42:19:374000,6,1,410,288.28125,[ 0.04920468  0.46392153 -0.54316189],1,1,1,0.311929825,0,0,0,0.360405696,0.314441674,0.108422528,0.422864202,0.206019146,nan,nan,nan,[ nan  nan  nan],nan,nan,nan,712.3345545,1007.223776,1007.535706,nan,nan
0,278,15:42:20:326000,6,1,69,48.515625,[ 1.         -0.1342072  -0.93964801],1,1,1,0.402100932,0,0,0,0.354590207,0.31443254,0.108225322,0.422657863,0.206207218,nan,nan,nan,[ nan  nan  nan],nan,nan,nan,712.3345545,1008.165569,1008.56767,nan,nan
0,279,15:42:21:262000,6,0,24,16.875,[ 1.          0.10201906 -1.        ],0,0,1,0.580296654,0,0,0,0.43144247,0.314750179,0.108157427,0.422907606,0.206592752,nan,nan,nan,[ nan  nan  nan],nan,nan,nan,712.3345545,1009.107362,1009.687658,nan,nan
0,280,15:42:22:198000,6,1,122,85.78125,[ 1.         -0.31115954 -0.21914422],1,1,1,0.454471977,0,0,0,0.478956521,0.315708831,0.109130405,0.424839236,0.206578426,nan,nan,nan,[ nan  nan  nan],nan,nan,nan,712.3345545,1010.049153,1010.503625,nan,nan
0,281,15:42:23:149000,6,1,261,183.515625,[ 0.42722581  0.27661781  0.65367446],1,1,1,0.432676082,0,0,0,0.489148238,0.316207979,0.109250262,0.425458241,0.206957717,nan,nan,nan,[ nan  nan  nan],nan,nan,nan,712.3345545,1010.990923,1011.423599,nan,nan
0,282,15:42:24:085000,6,1,335,235.546875,[-0.15559599  0.45562772  0.27689323],1,1,1,0.322832192,0,0,0,0.40332675,0.316625427,0.109276187,0.425901614,0.207349241,nan,nan,nan,[ nan  nan  nan],nan,nan,nan,712.3345545,1011.932739,1012.255571,nan,nan
0,283,15:42:25:037000,6,0,404,284.0625,[ 0.01248946  0.46874627 -0.4633491 ],0,0,1,0.525035587,0,0,0,0.426847954,0.316647594,0.109081505,0.425729099,0.20756609,nan,nan,nan,[ nan  nan  nan],nan,nan,nan,712.3345545,1012.874533,1013.399569,nan,nan
0,284,15:42:25:973000,6,1,113,79.453125,[ 1.         -0.30219199 -0.31457635],1,1,1,0.279215312,0,0,0,0.375694364,0.317389189,0.10959206,0.426981249,0.207797129,nan,nan,nan,[ nan  nan  nan],nan,nan,nan,712.3345545,1013.816324,1014.095539,nan,nan
0,285,15:42:26:909000,6,1,420,295.3125,[ 0.11466019  0.4536941  -0.6950475 ],1,1,1,0.281411409,0,0,0,0.361887436,0.31725382,0.109421107,0.426674928,0.207832713,nan,nan,nan,[ nan  nan  nan],nan,nan,nan,712.3345545,1014.758113,1015.039525,nan,nan
0,286,15:42:27:860000,6,1,492,345.9375,[ 0.68140332  0.28922202 -1.        ],1,1,1,0.291599895,0,0,0,0.284075539,0.317127169,0.109248317,0.426375486,0.207878851,nan,nan,nan,[ nan  nan  nan],nan,nan,nan,712.3345545,1015.699916,1015.991516,nan,nan
0,287,15:42:28:796000,6,1,205,144.140625,[ 1.          0.008548    0.50553524],1,1,1,0.301776691,0,0,0,0.291595998,0.317037284,0.109066291,0.426103575,0.207970992,nan,nan,nan,[ nan  nan  nan],nan,nan,nan,712.3345545,1016.641704,1016.94348,nan,nan
0,288,15:42:29:732000,6,1,26,18.28125,[ 1.          0.09209217 -1.        ],1,1,1,0.463948008,0,0,0,0.352441531,0.316983738,0.108878518,0.425862256,0.20810522,nan,nan,nan,[ nan  nan  nan],nan,nan,nan,712.3345545,1017.583499,1018.047447,nan,nan
0,289,15:42:30:684000,6,1,442,310.78125,[ 0.27390726  0.42109554 -1.        ],1,1,1,0.330161162,0,0,0,0.365295287,0.317497599,0.109033653,0.426531252,0.208463946,nan,nan,nan,[ nan  nan  nan],nan,nan,nan,712.3345545,1018.525285,1018.855446,nan,nan
0,290,15:42:31:620000,6,1,500,351.5625,[ 0.74814593  0.26005829 -1.        ],1,1,1,0.340366468,0,0,0,0.378158546,0.317541723,0.108846091,0.426387814,0.208695632,nan,nan,nan,[ nan  nan  nan],nan,nan,nan,712.3345545,1019.467079,1019.807445,nan,nan
0,291,15:42:32:572000,6,1,313,220.078125,[-0.05302215  0.42279583  0.44879796],1,1,1,0.286520905,0,0,0,0.319016178,0.317620976,0.108665253,0.426286228,0.208955723,nan,nan,nan,[ nan  nan  nan],nan,nan,nan,712.3345545,1020.40887,1020.695391,nan,nan
0,292,15:42:33:508000,6,1,467,328.359375,[ 0.47300519  0.36577567 -1.        ],1,1,1,0.376715104,0,0,0,0.334534159,0.317513363,0.108492459,0.426005822,0.209020904,nan,nan,nan,[ nan  nan  nan],nan,nan,nan,712.3345545,1021.350664,1021.727379,nan,nan
0,293,15:42:34:444000,6,0,93,65.390625,[ 1.         -0.2456143  -0.53861988],0,0,1,0.482885813,0,0,0,0.382040607,0.317717507,0.10836083,0.426078336,0.209356677,nan,nan,nan,[ nan  nan  nan],nan,nan,nan,712.3345545,1022.292455,1022.775341,nan,nan
0,294,15:42:35:395000,6,1,50,35.15625,[ 1.         -0.03314873 -1.        ],1,1,1,0.325087304,0,0,0,0.394896073,0.318285095,0.108605452,0.426890547,0.209679644,nan,nan,nan,[ nan  nan  nan],nan,nan,nan,712.3345545,1023.234248,1023.559335,nan,nan
0,295,15:42:36:362000,6,1,238,167.34375,[ 0.67574183  0.17872767  0.63851109],1,1,1,0.431270842,0,0,0,0.41308132,0.318308391,0.108420052,0.426728443,0.209888338,nan,nan,nan,[ nan  nan  nan],nan,nan,nan,712.3345545,1024.176045,1024.607316,nan,nan
0,296,15:42:37:298000,6,1,167,117.421875,[ 1.         -0.19560581  0.22154672],1,1,1,0.360423277,0,0,0,0.372260474,0.318693928,0.108435194,0.427129122,0.210258735,nan,nan,nan,[ nan  nan  nan],nan,nan,nan,712.3345545,1025.142847,1025.50327,nan,nan
0,297,15:42:38:234000,6,1,47,33.046875,[ 1.         -0.01707559 -1.        ],1,1,1,0.346600954,0,0,0,0.379431691,0.318835865,0.108277884,0.427113749,0.210557981,nan,nan,nan,[ nan  nan  nan],nan,nan,nan,712.3345545,1026.084655,1026.431256,nan,nan
0,298,15:42:39:186000,6,1,433,304.453125,[ 0.2065363   0.43616372 -1.        ],1,1,1,0.38881516,0,0,0,0.365279797,0.318929984,0.108106252,0.427036236,0.210823731,nan,nan,nan,[ nan  nan  nan],nan,nan,nan,712.3345545,1027.026426,1027.415241,nan,nan
0,299,15:42:40:122000,6,1,47,33.046875,[ 1.         -0.01707559 -1.        ],1,1,1,0.367002444,0,0,0,0.367472852,0.319166082,0.107999643,0.427165725,0.211166439,nan,nan,nan,[ nan  nan  nan],nan,nan,nan,712.3345545,1027.968218,1028.33522,nan,nan
0,300,15:42:41:074000,6,1,329,231.328125,[-0.13605328  0.44820379  0.32783374],1,1,1,0.433182983,0,0,0,0.396333529,0.319327147,0.107853276,0.427180424,0.211473871,nan,nan,nan,[ nan  nan  nan],nan,nan,nan,712.3345545,1028.910003,1029.343186,nan,nan
0,301,15:42:42:010000,6,1,106,74.53125,[ 1.         -0.28763007 -0.39056445],1,1,1,0.395364677,0,0,0,0.398516701,0.319709214,0.107873301,0.427582515,0.211835913,nan,nan,nan,[ nan  nan  nan],nan,nan,nan,712.3345545,1029.851804,1030.247169,nan,nan
0,302,15:42:42:946000,6,1,251,176.484375,[ 0.53557652  0.23650919  0.65528415],1,1,1,0.42954715,0,0,0,0.419364937,0.319962242,0.107781304,0.427743546,0.212180938,nan,nan,nan,[ nan  nan  nan],nan,nan,nan,712.3345545,1030.793594,1031.223141,nan,nan
0,303,15:42:43:897000,6,1,467,328.359375,[ 0.47300519  0.36577567 -1.        ],1,1,1,0.295749756,0,0,0,0.373553861,0.320327525,0.107786747,0.428114272,0.212540778,nan,nan,nan,[ nan  nan  nan],nan,nan,nan,712.3345545,1031.73539,1032.03114,nan,nan
0,304,15:42:44:833000,6,1,302,212.34375,[ 0.02708608  0.40030084  0.51777002],1,1,1,0.265936668,0,0,0,0.330411192,0.320245872,0.107616844,0.427862715,0.212629028,nan,nan,nan,[ nan  nan  nan],nan,nan,nan,712.3345545,1032.677181,1032.943118,nan,nan
0,305,15:42:45:769000,6,0,141,99.140625,[ 1.         -0.29195274 -0.02458685],0,0,1,0.548101302,0,0,0,0.369929242,0.32006604,0.107483814,0.427549854,0.212582225,nan,nan,nan,[ nan  nan  nan],nan,nan,nan,712.3345545,1033.618976,1034.167077,nan,nan
0,306,15:42:46:721000,6,1,200,140.625,[ 1.         -0.01912099  0.47515178],1,1,1,0.342335914,0,0,0,0.385457961,0.320818631,0.108100386,0.428919017,0.212718246,nan,nan,nan,[ nan  nan  nan],nan,nan,nan,712.3345545,1034.560727,1034.903063,nan,nan
0,307,15:42:47:657000,6,1,81,56.953125,[ 1.         -0.19380425 -0.69421917],1,1,1,0.272497304,0,0,0,0.38764484,0.320889412,0.107929475,0.428818887,0.212959937,nan,nan,nan,[ nan  nan  nan],nan,nan,nan,712.3345545,1035.502543,1035.775041,nan,nan
0,308,15:42:48:609000,6,1,493,346.640625,[ 0.68976908  0.28570078 -1.        ],1,1,1,0.362676393,0,0,0,0.325836537,0.320730749,0.107787902,0.428518651,0.212942847,nan,nan,nan,[ nan  nan  nan],nan,nan,nan,712.3345545,1036.44435,1036.807026,nan,nan
0,309,15:42:49:545000,6,1,189,132.890625,[ 1.         -0.08021946  0.40014347],1,1,1,0.276860702,0,0,0,0.304011466,0.320867827,0.107638259,0.428506085,0.213229568,nan,nan,nan,[ nan  nan  nan],nan,nan,nan,712.3345545,1037.386147,1037.663008,nan,nan
0,310,15:42:50:481000,6,1,138,97.03125,[ 1.         -0.29832988 -0.05465081],1,1,1,0.295056687,0,0,0,0.311531261,0.320724481,0.10749206,0.428216541,0.213232421,nan,nan,nan,[ nan  nan  nan],nan,nan,nan,712.3345545,1038.327929,1038.622986,nan,nan
0,311,15:42:51:432000,6,1,392,275.625,[-0.05410679  0.47552228 -0.31554984],1,1,1,0.273237414,0,0,0,0.281718268,0.320641144,0.107327351,0.427968495,0.213313792,nan,nan,nan,[ nan  nan  nan],nan,nan,nan,712.3345545,1039.269724,1039.542961,nan,nan
0,312,15:42:52:368000,6,1,175,123.046875,[ 1.         -0.15562995  0.29036176],1,1,1,0.299418375,0,0,0,0.289237492,0.320487734,0.10718736,0.427675094,0.213300373,nan,nan,nan,[ nan  nan  nan],nan,nan,nan,712.3345545,1040.211516,1040.510934,nan,nan
0,313,15:42:53:304000,6,1,225,158.203125,[ 0.81146625  0.11513113  0.60098195],1,1,1,0.301589383,0,0,0,0.291415057,0.320419768,0.107021007,0.427440775,0.213398761,nan,nan,nan,[ nan  nan  nan],nan,nan,nan,712.3345545,1041.153322,1041.454911,nan,nan
0,314,15:42:54:256000,6,1,328,230.625,[-0.13215956  0.44685797  0.33604616],1,1,1,0.287786732,0,0,0,0.29626483,0.32035922,0.106854127,0.427213347,0.213505094,nan,nan,nan,[ nan  nan  nan],nan,nan,nan,712.3345545,1042.0951,1042.382887,nan,nan
0,315,15:42:55:192000,6,1,462,324.84375,[ 0.43208968  0.37848636 -1.        ],1,1,1,0.329989534,0,0,0,0.306455216,0.320254821,0.106698634,0.426953455,0.213556187,nan,nan,nan,[ nan  nan  nan],nan,nan,nan,712.3345545,1043.036891,1043.36688,nan,nan
0,316,15:42:56:143000,6,1,134,94.21875,[ 1.         -0.304951   -0.09514411],1,1,1,0.316203133,0,0,0,0.311326467,0.320285922,0.106529469,0.426815392,0.213756453,nan,nan,nan,[ nan  nan  nan],nan,nan,nan,712.3345545,1043.978649,1044.294852,nan,nan
0,317,15:42:57:079000,6,1,406,285.46875,[ 0.02449675  0.4672457  -0.4893661 ],1,1,1,0.374338541,0,0,0,0.340177069,0.32027292,0.10635995,0.42663287,0.21391297,nan,nan,nan,[ nan  nan  nan],nan,nan,nan,712.3345545,1044.920477,1045.294816,nan,nan
0,318,15:42:58:015000,6,1,92,64.6875,[ 1.         -0.24170366 -0.55060884],1,1,1,0.288527697,0,0,0,0.326356457,0.320444557,0.106234536,0.426679093,0.214210021,nan,nan,nan,[ nan  nan  nan],nan,nan,nan,712.3345545,1045.862277,1046.150805,nan,nan
0,319,15:42:58:967000,6,1,210,147.65625,[ 0.9580225   0.0359305   0.53342186],1,1,1,0.29870763,0,0,0,0.320524623,0.320343554,0.106081457,0.426425011,0.214262097,nan,nan,nan,[ nan  nan  nan],nan,nan,nan,712.3345545,1046.804066,1047.102773,nan,nan
0,320,15:42:59:903000,6,0,362,254.53125,[-0.16423973  0.47600016  0.01745785],0,0,1,0.660880828,0,0,0,0.416038718,0.320275302,0.105920953,0.426196255,0.214354349,nan,nan,nan,[ nan  nan  nan],nan,nan,nan,712.3345545,1047.74586,1048.406741,nan,nan
0,321,15:43:00:839000,6,1,478,336.09375,[ 0.5642225   0.33479366 -1.        ],1,1,1,0.487087277,0,0,0,0.482225245,0.321346389,0.107459939,0.428806327,0.21388645,nan,nan,nan,[ nan  nan  nan],nan,nan,nan,712.3345545,1048.687653,1049.17474,nan,nan
0,322,15:43:01:791000,6,1,352,247.5,[-0.17544713  0.4708516   0.11867359],1,1,1,0.345277537,0,0,0,0.497748547,0.321865952,0.107690677,0.42955663,0.214175275,nan,nan,nan,[ nan  nan  nan],nan,nan,nan,712.3345545,1049.629437,1049.974714,nan,nan
0,323,15:43:02:727000,6,0,510,358.59375,[ 0.83055446  0.2204367  -1.        ],0,1,0,0.291461338,0,0,0,0.374608717,0.321939114,0.107530219,0.429469332,0.214408895,nan,nan,nan,[ nan  nan  nan],nan,nan,nan,712.3345545,1050.571235,1050.862697,nan,nan
0,324,15:43:03:678000,6,1,209,146.953125,[ 0.96730184  0.03048352  0.52805   ],1,1,1,0.27766895,0,0,0,0.304802608,0.321844167,0.107376029,0.429220197,0.214468138,nan,nan,nan,[ nan  nan  nan],nan,nan,nan,712.3345545,1051.513018,1051.790687,nan,nan
0,325,15:43:04:614000,6,1,259,182.109375,[ 0.44882283  0.26890698  0.65501178],1,1,1,0.287840045,0,0,0,0.285656778,0.321706977,0.10723734,0.428944317,0.214469638,nan,nan,nan,[ nan  nan  nan],nan,nan,nan,712.3345545,1052.45482,1052.74266,nan,nan
0,326,15:43:05:550000,6,1,496,348.75,[ 0.71483372  0.27492388 -1.        ],1,1,1,0.274015726,0,0,0,0.279841574,0.321602126,0.107087739,0.428689865,0.214514387,nan,nan,nan,[ nan  nan  nan],nan,nan,nan,712.3345545,1053.396613,1053.670629,nan,nan
0,327,15:43:06:502000,6,1,147,103.359375,[ 1.         -0.27580113  0.03467205],1,1,1,0.324199229,0,0,0,0.295351667,0.321455254,0.106954929,0.428410184,0.214500325,nan,nan,nan,[ nan  nan  nan],nan,nan,nan,712.3345545,1054.338414,1054.662613,nan,nan
0,328,15:43:07:438000,6,0,305,214.453125,[ 0.00361193  0.40685925  0.50019691],0,1,0,0.262382658,0,0,0,0.286865871,0.321463697,0.106790365,0.428254062,0.214673333,nan,nan,nan,[ nan  nan  nan],nan,nan,nan,712.3345545,1055.280198,1055.542581,nan,nan
0,329,15:43:08:374000,6,1,174,122.34375,[ 1.         -0.16079069  0.28198128],1,1,1,0.256579238,0,0,0,0.281053708,0.321282467,0.106676493,0.427958961,0.214605974,nan,nan,nan,[ nan  nan  nan],nan,nan,nan,712.3345545,1056.221984,1056.478563,nan,nan
0,330,15:43:09:325000,6,1,293,206.015625,[ 0.10383026  0.3786596   0.56461706],1,1,1,0.202772162,0,0,0,0.240578019,0.321084598,0.106573153,0.427657751,0.214511445,nan,nan,nan,[ nan  nan  nan],nan,nan,nan,712.3345545,1057.163783,1057.366555,nan,nan
0,331,15:43:10:261000,6,1,107,75.234375,[ 1.         -0.29008977 -0.37959278],1,1,1,0.132952369,0,1,0,0.19743459,0.320723889,0.106610298,0.427334188,0.214113591,nan,nan,nan,[ nan  nan  nan],nan,nan,nan,712.3345545,1058.105574,1058.238527,nan,nan
0,332,15:43:11:197000,6,0,177,124.453125,[ 1.         -0.14519215  0.30692121],0,1,0,0.135145899,0,0,0,0.15695681,0.320153155,0.106948825,0.42710198,0.21320433,nan,nan,nan,[ nan  nan  nan],nan,nan,nan,712.3345545,1059.047372,1059.182518,nan,nan
0,333,15:43:12:149000,6,1,454,319.21875,[ 0.36762736  0.39708484 -1.        ],1,1,1,0.505200869,0,0,0,0.257766379,0.319592527,0.107269736,0.426862264,0.212322791,nan,nan,nan,[ nan  nan  nan],nan,nan,nan,712.3345545,1059.989246,1060.494447,nan,nan
0,334,15:43:13:085000,6,1,368,258.75,[-0.15045717  0.47779326 -0.04573418],1,1,1,0.41149913,0,0,0,0.3506153,0.320153278,0.107590883,0.427744161,0.212562395,nan,nan,nan,[ nan  nan  nan],nan,nan,nan,712.3345545,1060.930949,1061.342448,nan,nan
0,335,15:43:14:037000,6,1,133,93.515625,[ 1.         -0.30625957 -0.10533643],1,1,1,0.349682845,0,0,0,0.422127615,0.320428416,0.107545285,0.4279737,0.212883131,nan,nan,nan,[ nan  nan  nan],nan,nan,nan,712.3345545,1061.872742,1062.222425,nan,nan
0,336,15:43:14:973000,6,1,439,308.671875,[ 0.25114429  0.4263922  -1.        ],1,1,1,0.303864452,0,0,0,0.355015475,0.320516267,0.107395614,0.427911881,0.213120653,nan,nan,nan,[ nan  nan  nan],nan,nan,nan,712.3345545,1062.814538,1063.118403,nan,nan
0,337,15:43:15:909000,6,1,163,114.609375,[ 1.         -0.2142478   0.18572368],1,1,1,0.282046889,0,0,0,0.311864728,0.320466411,0.107238581,0.427704992,0.21322783,nan,nan,nan,[ nan  nan  nan],nan,nan,nan,712.3345545,1063.756342,1064.038389,nan,nan
0,338,15:43:16:860000,6,1,510,358.59375,[ 0.83055446  0.2204367  -1.        ],1,1,1,0.260248427,0,0,0,0.282053256,0.320351726,0.107098915,0.427450641,0.213252811,nan,nan,nan,[ nan  nan  nan],nan,nan,nan,712.3345545,1064.698118,1064.958366,nan,nan
0,339,15:43:17:796000,6,1,370,260.15625,[-0.144806    0.47817873 -0.06718033],1,1,1,0.286444499,0,0,0,0.276246605,0.320172847,0.106989529,0.427162376,0.213183318,nan,nan,nan,[ nan  nan  nan],nan,nan,nan,712.3345545,1065.63991,1065.926355,nan,nan
0,340,15:43:18:732000,6,1,179,125.859375,[ 1.         -0.13461442  0.32320413],1,1,1,0.264629787,0,0,0,0.270440904,0.320072763,0.106846424,0.426919187,0.213226339,nan,nan,nan,[ nan  nan  nan],nan,nan,nan,712.3345545,1066.581708,1066.846338,nan,nan
0,341,15:43:19:684000,6,1,330,232.03125,[-0.13976633  0.44951833  0.31954025],1,1,1,0.266735793,0,0,0,0.27260336,0.31990873,0.106730737,0.426639467,0.213177993,nan,nan,nan,[ nan  nan  nan],nan,nan,nan,712.3345545,1067.523572,1067.790308,nan,nan
0,342,15:43:20:620000,6,1,113,79.453125,[ 1.         -0.30219199 -0.31457635],1,1,1,0.268997462,0,0,0,0.266787681,0.319751878,0.106612208,0.426364086,0.21313967,nan,nan,nan,[ nan  nan  nan],nan,nan,nan,712.3345545,1068.465288,1068.734285,nan,nan
0,343,15:43:21:571000,6,1,160,112.5,[ 1.         -0.22750142  0.15829752],1,1,1,0.239169549,0,0,0,0.258300935,0.3196026,0.106490784,0.426093385,0.213111816,nan,nan,nan,[ nan  nan  nan],nan,nan,nan,712.3345545,1069.407087,1069.646257,nan,nan
0,344,15:43:22:507000,6,1,353,248.203125,[-0.17504126  0.47149007  0.10879922],1,1,1,0.265360489,0,0,0,0.2578425,0.319366726,0.106423435,0.425790162,0.212943291,nan,nan,nan,[ nan  nan  nan],nan,nan,nan,712.3345545,1070.348874,1070.614235,nan,nan
0,345,15:43:23:443000,6,1,164,115.3125,[ 1.         -0.20968584  0.19476155],1,1,1,0.267543471,0,0,0,0.257357836,0.319208813,0.106307733,0.425516547,0.21290108,nan,nan,nan,[ nan  nan  nan],nan,nan,nan,712.3345545,1071.290664,1071.558207,nan,nan
0,346,15:43:24:395000,6,1,236,165.9375,[ 0.69700456  0.16930175  0.63406585],1,1,1,0.221741043,0,0,0,0.251548334,0.319058186,0.106189195,0.425247381,0.21286899,nan,nan,nan,[ nan  nan  nan],nan,nan,nan,712.3345545,1072.232461,1072.454202,nan,nan
0,347,15:43:25:331000,6,1,19,13.359375,[ 0.99625917  0.12637453 -1.        ],1,1,1,0.24791003,0,0,0,0.245731515,0.318775287,0.106164102,0.424939389,0.212611185,nan,nan,nan,[ nan  nan  nan],nan,nan,nan,712.3345545,1073.174255,1073.422165,nan,nan
0,348,15:43:26:267000,6,1,423,297.421875,[ 0.13522958  0.45008089 -0.75003992],1,1,1,0.290086319,0,0,0,0.253245797,0.31856988,0.106078563,0.424648443,0.212491317,nan,nan,nan,[ nan  nan  nan],nan,nan,nan,712.3345545,1074.116057,1074.406143,nan,nan
0,349,15:43:27:219000,6,1,176,123.75,[ 1.         -0.15042967  0.29867547],1,1,1,0.2602872,0,0,0,0.266094516,0.318487558,0.105936195,0.424423753,0.212551363,nan,nan,nan,[ nan  nan  nan],nan,nan,nan,712.3345545,1075.05784,1075.318128,nan,nan
0,350,15:43:28:155000,6,1,271,190.546875,[ 0.32064286  0.31281163  0.63940014],1,1,1,0.246476851,0,0,0,0.26561679,0.318319834,0.105829436,0.424149269,0.212490398,nan,nan,nan,[ nan  nan  nan],nan,nan,nan,712.3345545,1075.999629,1076.246105,nan,nan
0,351,15:43:29:106000,6,1,387,272.109375,[-0.07872193  0.47723176 -0.25697445],1,1,1,0.208665958,0,0,0,0.23847667,0.318113388,0.105747222,0.42386061,0.212366166,nan,nan,nan,[ nan  nan  nan],nan,nan,nan,712.3345545,1076.941423,1077.150089,nan,nan
0,352,15:43:30:042000,6,1,199,139.921875,[ 1.         -0.02467618  0.4687863 ],1,1,1,0.2668313,0,0,0,0.240658036,0.317799785,0.105757544,0.42355733,0.212042241,nan,nan,nan,[ nan  nan  nan],nan,nan,nan,712.3345545,1077.883232,1078.150063,nan,nan
0,353,15:43:30:978000,6,1,488,343.125,[ 0.64790771  0.30295149 -1.        ],1,1,1,0.197046003,0,0,0,0.224181087,0.317654161,0.105641389,0.42329555,0.212012772,nan,nan,nan,[ nan  nan  nan],nan,nan,nan,712.3345545,1078.824995,1079.022041,nan,nan
0,354,15:43:31:930000,6,1,68,47.8125,[ 1.         -0.12901814 -0.9729032 ],1,1,1,0.255224461,0,0,0,0.239700588,0.317310548,0.105686482,0.42299703,0.211624067,nan,nan,nan,[ nan  nan  nan],nan,nan,nan,712.3345545,1079.766799,1080.022023,nan,nan
0,355,15:43:32:866000,6,1,123,86.484375,[ 1.         -0.31144114 -0.20867286],1,1,1,0.289412066,0,0,0,0.24722751,0.317134167,0.105587974,0.422722141,0.211546194,nan,nan,nan,[ nan  nan  nan],nan,nan,nan,712.3345545,1080.708577,1080.997989,nan,nan
0,356,15:43:33:802000,6,1,72,50.625,[ 1.         -0.14960778 -0.85320374],1,1,1,0.267593933,0,0,0,0.270743486,0.317055634,0.105448604,0.422504238,0.211607031,nan,nan,nan,[ nan  nan  nan],nan,nan,nan,712.3345545,1081.65038,1081.917974,nan,nan
0,357,15:43:34:753000,6,1,17,11.953125,[ 0.98106915  0.13592191 -1.        ],1,1,1,0.205665889,0,0,0,0.254223963,0.316915912,0.105332277,0.422248189,0.211583635,nan,nan,nan,[ nan  nan  nan],nan,nan,nan,712.3345545,1082.592284,1082.79795,nan,nan
0,358,15:43:35:689000,6,0,156,109.6875,[ 1.         -0.24406061  0.12104147],0,1,0,0.239961546,0,0,0,0.237740456,0.316602532,0.105348948,0.421951479,0.211253584,nan,nan,nan,[ nan  nan  nan],nan,nan,nan,712.3345545,1083.533967,1083.773928,nan,nan
0,359,15:43:36:641000,6,1,366,257.34375,[-0.15559338  0.47730203 -0.02447665],1,1,1,0.266159613,0,0,0,0.23726235,0.316387248,0.105279052,0.4216663,0.211108196,nan,nan,nan,[ nan  nan  nan],nan,nan,nan,712.3345545,1084.475762,1084.741921,nan,nan
0,360,15:43:37:577000,6,1,187,131.484375,[ 1.         -0.09124635  0.38538321],1,1,1,0.252339571,0,0,0,0.252820244,0.316246554,0.105165008,0.421411562,0.211081546,nan,nan,nan,[ nan  nan  nan],nan,nan,nan,712.3345545,1085.417552,1085.669892,nan,nan
0,361,15:43:38:513000,6,1,255,179.296875,[ 0.49215936  0.25301719  0.65616311],1,1,1,0.254512005,0,0,0,0.257670397,0.316068043,0.105072176,0.421140219,0.210995867,nan,nan,nan,[ nan  nan  nan],nan,nan,nan,712.3345545,1086.359348,1086.61386,nan,nan
0,362,15:43:39:465000,6,1,104,73.125,[ 1.         -0.28235148 -0.41264457],1,1,1,0.352706291,0,0,0,0.286519289,0.315896578,0.104975878,0.420872456,0.2109207,nan,nan,nan,[ nan  nan  nan],nan,nan,nan,712.3345545,1087.301141,1087.653848,nan,nan
0,363,15:43:40:401000,6,1,398,279.84375,[-0.02203778  0.4726088  -0.38794338],1,1,1,0.2428892,0,0,0,0.283369165,0.315998827,0.104847877,0.420846704,0.21115095,nan,nan,nan,[ nan  nan  nan],nan,nan,nan,712.3345545,1088.242932,1088.485821,nan,nan
0,364,15:43:41:337000,6,1,131,92.109375,[ 1.         -0.30845167 -0.1258005 ],1,1,1,0.30107678,0,0,0,0.298890757,0.315796307,0.104773044,0.420569351,0.211023263,nan,nan,nan,[ nan  nan  nan],nan,nan,nan,712.3345545,1089.184728,1089.485805,nan,nan
0,365,15:43:42:288000,6,1,455,319.921875,[ 0.37560825  0.39487537 -1.        ],1,1,1,0.287182043,0,0,0,0.277049341,0.315755646,0.104631082,0.420386728,0.211124564,nan,nan,nan,[ nan  nan  nan],nan,nan,nan,712.3345545,1090.126603,1090.413785,nan,nan
0,366,15:43:43:224000,6,1,271,190.546875,[ 0.32064286  0.31281163  0.63940014],1,1,1,0.329461251,0,0,0,0.305906691,0.31567693,0.104497596,0.420174526,0.211179335,nan,nan,nan,[ nan  nan  nan],nan,nan,nan,712.3345545,1091.068293,1091.397754,nan,nan
0,367,15:43:44:160000,6,1,93,65.390625,[ 1.         -0.2456143  -0.53861988],1,1,1,0.347676622,0,0,0,0.321439972,0.315714799,0.10435645,0.42007125,0.211358349,nan,nan,nan,[ nan  nan  nan],nan,nan,nan,712.3345545,1092.010067,1092.357744,nan,nan
0,368,15:43:45:112000,6,1,273,191.953125,[ 0.29973296  0.31957719  0.63503803],1,1,1,0.405824289,0,0,0,0.360987387,0.315802366,0.104226789,0.420029155,0.211575577,nan,nan,nan,[ nan  nan  nan],nan,nan,nan,712.3345545,1092.951895,1093.357719,nan,nan
0,369,15:43:46:048000,6,1,150,105.46875,[ 1.         -0.26615253  0.06382271],1,1,1,0.360010172,0,0,0,0.371170361,0.316048328,0.104190326,0.420238653,0.211858002,nan,nan,nan,[ nan  nan  nan],nan,nan,nan,712.3345545,1093.893685,1094.253695,nan,nan
0,370,15:43:46:999000,6,1,221,155.390625,[ 0.85178146  0.09454116  0.58542294],1,1,1,0.370191245,0,0,0,0.378675236,0.316168115,0.104073514,0.420241629,0.212094601,nan,nan,nan,[ nan  nan  nan],nan,nan,nan,712.3345545,1094.835477,1095.205668,nan,nan
0,371,15:43:47:935000,6,1,75,52.734375,[ 1.         -0.16471446 -0.79135592],1,1,1,0.364374141,0,0,0,0.36485852,0.316314917,0.103970056,0.420284973,0.21234486,nan,nan,nan,[ nan  nan  nan],nan,nan,nan,712.3345545,1095.777271,1096.141646,nan,nan
0,372,15:43:48:871000,6,1,290,203.90625,[ 0.13126538  0.37077654  0.57820662],1,1,1,0.414548805,0,0,0,0.383038064,0.316445158,0.103859136,0.420304295,0.212586022,nan,nan,nan,[ nan  nan  nan],nan,nan,nan,712.3345545,1096.719063,1097.133612,nan,nan
0,373,15:43:49:823000,6,1,485,341.015625,[ 0.62277456  0.31287562 -1.        ],1,1,1,0.472648006,0,0,0,0.417190317,0.316710303,0.103843672,0.420553976,0.212866631,nan,nan,nan,[ nan  nan  nan],nan,nan,nan,712.3345545,1097.660944,1098.133592,nan,nan
0,374,15:43:50:759000,6,1,364,255.9375,[-0.16019432  0.47670452 -0.00341125],1,1,1,0.41093692,0,0,1,0.432711244,0.317130621,0.10401831,0.421148931,0.21311231,nan,nan,nan,[ nan  nan  nan],nan,nan,nan,712.3345545,1098.602648,1099.013585,nan,nan
0,375,15:43:55:080000,6,1,465,326.953125,[ 0.45658868  0.37096153 -1.        ],1,1,1,0.349120635,1,0,0,0.410901854,0.317382788,0.103991897,0.421374685,0.213390891,nan,165.0512729,405,[ 0.01846332  0.46800938 -0.47629333],nan,-42.00439792,1.333807544,712.3345545,1099.544445,1099.893566,1101.361285,1102.703133
0,376,15:43:56:016000,6,0,367,258.046875,[-0.15309091  0.4775609  -0.03508163],0,0,1,0.503755716,0,0,0,0.42127109,0.317467876,0.10386537,0.421333247,0.213602506,nan,nan,nan,[ nan  nan  nan],nan,nan,nan,712.3345545,1103.861689,1104.365445,nan,nan
0,377,15:43:56:968000,6,1,489,343.828125,[ 0.65628486  0.29957244 -1.        ],1,1,1,0.37794786,0,0,0,0.410274737,0.317965972,0.104171547,0.42213752,0.213794425,nan,nan,nan,[ nan  nan  nan],nan,nan,nan,712.3345545,1104.803479,1105.181427,nan,nan
0,378,15:43:57:904000,6,1,16,11.25,[ 0.97341943  0.14065211 -1.        ],1,1,1,0.300141664,0,0,0,0.393948413,0.318125924,0.104078538,0.422204462,0.214047386,nan,nan,nan,[ nan  nan  nan],nan,nan,nan,712.3345545,1105.745269,1106.045411,nan,nan
0,379,15:43:58:840000,6,0,304,213.75,[ 0.01130928  0.40470892  0.50616037],0,0,1,0.486315806,0,0,0,0.38813511,0.318078093,0.10394417,0.422022263,0.214133923,nan,nan,nan,[ nan  nan  nan],nan,nan,nan,712.3345545,1106.687062,1107.173377,nan,nan
0,380,15:43:59:791000,6,1,464,326.25,[ 0.44840488  0.37350356 -1.        ],1,1,1,0.320526903,0,0,0,0.368994791,0.318524347,0.104166258,0.422690605,0.21435809,nan,nan,nan,[ nan  nan  nan],nan,nan,nan,712.3345545,1107.628852,1107.949379,nan,nan
0,381,15:44:00:727000,6,1,226,158.90625,[ 0.80126593  0.12020899  0.60458277],1,1,1,0.306711993,0,0,0,0.371184901,0.318529645,0.104028431,0.422558076,0.214501214,nan,nan,nan,[ nan  nan  nan],nan,nan,nan,712.3345545,1108.570648,1108.87736,nan,nan
0,382,15:44:01:663000,6,1,431,303.046875,[ 0.19195726  0.43918129 -0.98229877],1,1,1,0.332854181,0,0,0,0.320031026,0.318498464,0.103892869,0.422391332,0.214605595,nan,nan,nan,[ nan  nan  nan],nan,nan,nan,712.3345545,1109.512473,1109.845327,nan,nan
0,383,15:44:02:615000,6,1,93,65.390625,[ 1.         -0.2456143  -0.53861988],1,1,1,0.423070048,0,0,0,0.354212074,0.318536242,0.103758684,0.422294926,0.214777558,nan,nan,nan,[ nan  nan  nan],nan,nan,nan,712.3345545,1110.454234,1110.877304,nan,nan
0,384,15:44:03:551000,6,1,346,243.28125,[-0.17431756  0.46643129  0.17667017],1,1,1,0.34525587,0,0,0,0.367060033,0.318810609,0.103760363,0.422570972,0.215050246,nan,nan,nan,[ nan  nan  nan],nan,nan,nan,712.3345545,1111.396028,1111.741283,nan,nan
0,385,15:44:04:503000,6,1,446,313.59375,[ 0.30469626  0.41359904 -1.        ],1,1,1,0.275448335,0,0,0,0.347924751,0.318879837,0.103633272,0.42251311,0.215246565,nan,nan,nan,[ nan  nan  nan],nan,nan,nan,712.3345545,1112.337815,1112.613264,nan,nan
0,386,15:44:05:439000,6,1,506,355.78125,[ 0.79777474  0.23670313 -1.        ],1,1,1,0.309642213,0,0,0,0.310115473,0.318766439,0.103521621,0.42228806,0.215244819,nan,nan,nan,[ nan  nan  nan],nan,nan,nan,712.3345545,1113.279596,1113.589238,nan,nan
0,387,15:44:06:375000,6,1,148,104.0625,[ 1.         -0.27269559  0.04442646],1,1,1,0.383803167,0,0,0,0.322964572,0.318742678,0.103387785,0.422130463,0.215354893,nan,nan,nan,[ nan  nan  nan],nan,nan,nan,712.3345545,1114.221401,1114.605205,nan,nan
0,388,15:44:07:326000,6,1,233,163.828125,[ 0.7286704   0.15490978  0.62648223],1,1,1,0.29799774,0,0,0,0.33048104,0.318911667,0.103306516,0.422218182,0.215605151,nan,nan,nan,[ nan  nan  nan],nan,nan,nan,712.3345545,1115.163197,1115.461194,nan,nan
0,389,15:44:08:262000,6,0,334,234.84375,[-0.15279655  0.45446705  0.2855764 ],0,0,1,0.436180485,0,0,0,0.372660464,0.318857485,0.103178089,0.422035575,0.215679396,nan,nan,nan,[ nan  nan  nan],nan,nan,nan,712.3345545,1116.104987,1116.541168,nan,nan
0,390,15:44:09:198000,6,1,137,96.328125,[ 1.         -0.30019022 -0.06473166],1,1,1,0.230389439,0,0,0,0.321522555,0.319160646,0.103216692,0.422377338,0.215943953,nan,nan,nan,[ nan  nan  nan],nan,nan,nan,712.3345545,1117.046776,1117.277165,nan,nan
0,391,15:44:10:150000,6,1,246,172.96875,[ 0.58976884  0.2150199   0.65133953],1,1,1,0.248574875,0,0,0,0.305048266,0.318931854,0.103181808,0.422113661,0.215750046,nan,nan,nan,[ nan  nan  nan],nan,nan,nan,712.3345545,1117.988574,1118.237149,nan,nan
0,392,15:44:11:086000,6,1,352,247.5,[-0.17544713  0.4708516   0.11867359],1,1,1,0.258745685,0,0,0,0.245903333,0.318750988,0.103110664,0.421861652,0.215640323,nan,nan,nan,[ nan  nan  nan],nan,nan,nan,712.3345545,1118.930364,1119.18911,nan,nan
0,393,15:44:12:037000,6,1,142,99.84375,[ 1.         -0.28956812 -0.01462735],1,1,1,0.244941038,0,0,0,0.250753866,0.318597128,0.103023088,0.421620216,0.215574039,nan,nan,nan,[ nan  nan  nan],nan,nan,nan,712.3345545,1119.872156,1120.117097,nan,nan
0,394,15:44:12:973000,6,1,203,142.734375,[ 1.         -0.00249325  0.49367467],1,1,1,0.27912066,0,0,0,0.260935794,0.318408749,0.102958493,0.421367242,0.215450256,nan,nan,nan,[ nan  nan  nan],nan,nan,nan,712.3345545,1120.81395,1121.093071,nan,nan
0,395,15:44:13:909000,6,1,429,301.640625,[ 0.17753182  0.44208078 -0.9018852 ],1,1,1,0.305296205,0,0,0,0.276452634,0.318308524,0.102846181,0.421154705,0.215462343,nan,nan,nan,[ nan  nan  nan],nan,nan,nan,712.3345545,1121.755745,1122.061042,nan,nan
0,396,15:44:14:861000,6,1,221,155.390625,[ 0.85178146  0.09454116  0.58542294],1,1,1,0.275519324,0,0,0,0.286645397,0.318275414,0.102717342,0.420992756,0.215558072,nan,nan,nan,[ nan  nan  nan],nan,nan,nan,712.3345545,1122.697532,1122.973051,nan,nan
0,397,15:44:15:797000,6,1,286,201.09375,[ 0.16907896  0.35973478  0.59469871],1,1,1,0.301668925,0,0,0,0.294161485,0.318166896,0.102609461,0.420776357,0.215557435,nan,nan,nan,[ nan  nan  nan],nan,nan,nan,712.3345545,1123.639328,1123.940997,nan,nan
0,398,15:44:16:733000,6,0,22,15.46875,[ 1.          0.11184242 -1.        ],0,0,1,0.487857892,0,0,0,0.35501538,0.318125129,0.102482847,0.420607976,0.215642282,nan,nan,nan,[ nan  nan  nan],nan,nan,nan,712.3345545,1124.581119,1125.068976,nan,nan
0,399,15:44:17:685000,6,1,372,261.5625,[-0.13866002  0.47845887 -0.08881238],1,1,1,0.282071977,0,0,0,0.357199598,0.318553747,0.102707248,0.421260995,0.2158465,nan,nan,nan,[ nan  nan  nan],nan,nan,nan,712.3345545,1125.52289,1125.804962,nan,nan
0,400,15:44:18:621000,6,1,303,213.046875,[ 0.01913493  0.40252284  0.51201836],1,1,1,0.268239106,0,0,0,0.346056325,0.318461854,0.10259411,0.421055964,0.215867743,nan,nan,nan,[ nan  nan  nan],nan,nan,nan,712.3345545,1126.464712,1126.732951,nan,nan
0,401,15:44:19:572000,6,1,103,72.421875,[ 1.         -0.27953747 -0.42375884],1,1,1,0.254419349,0,0,0,0.268243477,0.318335666,0.102495985,0.420831651,0.215839681,nan,nan,nan,[ nan  nan  nan],nan,nan,nan,712.3345545,1127.406499,1127.660918,nan,nan
0,402,15:44:20:508000,6,1,352,247.5,[-0.17544713  0.4708516   0.11867359],1,1,1,0.208620912,0,0,0,0.243759789,0.318175474,0.102417336,0.420592811,0.215758138,nan,nan,nan,[ nan  nan  nan],nan,nan,nan,712.3345545,1128.348288,1128.556909,nan,nan
0,403,15:44:21:444000,6,0,300,210.9375,[ 0.04335371  0.39574842  0.52895103],0,1,0,0.242785995,0,0,0,0.235275419,0.317901588,0.102435433,0.420337021,0.215466155,nan,nan,nan,[ nan  nan  nan],nan,nan,nan,712.3345545,1129.290083,1129.532869,nan,nan
0,404,15:44:22:396000,6,1,211,148.359375,[ 0.94867577  0.04136069  0.53868916],1,1,1,0.244989504,0,0,0,0.232132137,0.317714267,0.102376201,0.420090468,0.215338067,nan,nan,nan,[ nan  nan  nan],nan,nan,nan,712.3345545,1130.231864,1130.476854,nan,nan
0,405,15:44:23:332000,6,1,501,352.265625,[ 0.75644923  0.25625354 -1.        ],1,1,1,0.27916371,0,0,0,0.255646403,0.31753336,0.102312943,0.419846303,0.215220417,nan,nan,nan,[ nan  nan  nan],nan,nan,nan,712.3345545,1131.173668,1131.452832,nan,nan
0,406,15:44:24:268000,6,1,257,180.703125,[ 0.4704729   0.26103985  0.65584138],1,1,1,0.2333533,0,0,0,0.252502171,0.31743815,0.102203754,0.419641904,0.215234396,nan,nan,nan,[ nan  nan  nan],nan,nan,nan,712.3345545,1132.115463,1132.348816,nan,nan
0,407,15:44:25:219000,6,0,177,124.453125,[ 1.         -0.14519215  0.30692121],0,1,0,0.219546372,0,0,0,0.244021127,0.317230019,0.102162661,0.41939268,0.215067358,nan,nan,nan,[ nan  nan  nan],nan,nan,nan,712.3345545,1133.057246,1133.276793,nan,nan
0,408,15:44:26:155000,6,1,325,228.515625,[-0.1194049   0.44263104  0.36018642],1,nan,nan,nan,0,0,0,0.226449836,0.316988825,0.102151559,0.419140383,0.214837266,nan,nan,nan,[ nan  nan  nan],nan,nan,nan,712.3345545,1133.999038,nan,nan,nan
0,409,15:44:27:107000,6,1,26,18.28125,[ 1.          0.09209217 -1.        ],1,nan,nan,nan,0,0,0,0.219546372,0.316988825,0.102151559,0.419140383,0.214837266,nan,nan,nan,[ nan  nan  nan],nan,nan,nan,712.3345545,1134.940836,nan,nan,nan
0,410,15:44:28:043000,6,1,494,347.34375,[ 0.69812996  0.282144   -1.        ],1,1,1,0.026079182,0,0,0,0.026079182,0.316988825,0.102151559,0.419140383,0.214837266,nan,nan,nan,[ nan  nan  nan],nan,nan,nan,712.3345545,1135.882632,1135.908712,nan,nan
0,411,15:44:28:979000,6,1,431,303.046875,[ 0.19195726  0.43918129 -0.98229877],1,1,1,0.132288379,0,0,0,0.079183781,0.316272299,0.103039653,0.419311952,0.213232646,nan,nan,nan,[ nan  nan  nan],nan,nan,nan,712.3345545,1136.824421,1136.956709,nan,nan
0,412,15:44:29:931000,6,1,213,149.765625,[ 0.92978509  0.05216688  0.54890652],1,1,1,0.262458779,0,1,0,0.140275447,0.31582025,0.103315289,0.419135539,0.21250496,nan,nan,nan,[ nan  nan  nan],nan,nan,nan,712.3345545,1137.766215,1138.028674,nan,nan
0,413,15:44:34:923000,6,1,20,14.0625,[ 1.          0.12155819 -1.        ],1,1,1,0.264651739,1,0,0,0.219799632,0.315689462,0.103222328,0.41891179,0.212467133,nan,1.692978438,126,[ 1.         -0.31141175 -0.17740843],nan,74.24452156,2.000626642,712.3345545,1138.708006,1138.972658,1140.533184,1142.541906
0,414,15:44:35:859000,6,0,69,48.515625,[ 1.         -0.1342072  -0.93964801],0,0,1,0.552203267,0,0,0,0.359771262,0.315564675,0.10312687,0.418691545,0.212437805,nan,nan,nan,[ nan  nan  nan],nan,nan,nan,712.3345545,1143.700338,1144.252541,nan,nan
