block,trial,freq_trials,correct_response,actual_response,acc,rts,probe_trials,fast_rt_trigger,slow_rt_trigger,rt_triggered,rts_runningavg,rts_runningstd,rts_runningfastthresh,rts_runningslowthresh,rts_runningstd,rts_trailingavg,trials_colorind0,trials_colorind1,trials_colorind2,trials_colorind3,trials_colorind4,trials_colorind5,wholereport_resp0,wholereport_resp1,wholereport_resp2,wholereport_resp3,wholereport_resp4,wholereport_resp5,wholereport_respacc0,wholereport_respacc1,wholereport_respacc2,wholereport_respacc3,wholereport_respacc4,wholereport_respacc5,wholereport_respacc_total,wholereport_respcolorind0,wholereport_respcolorind1,wholereport_respcolorind2,wholereport_respcolorind3,wholereport_respcolorind4,wholereport_respcolorind5,wholereport_resporder0,wholereport_resporder1,wholereport_resporder2,wholereport_resporder3,wholereport_resporder4,wholereport_resporder5,wholereport_rts0,wholereport_rts1,wholereport_rts2,wholereport_rts3,wholereport_rts4,wholereport_rts5,time_blockstart,time_encarray_offset,time_encarray_onset,time_response,time_iti_offset,time_iti_onset,time_memprobe_offset,time_memprobe_onset
1,1,1,1,1.0,1.0,0.37187518435530365,0,nan,nan,nan,nan,nan,nan,nan,nan,nan,5,2,3,7,6,0,nan,nan,nan,nan,nan,nan,nan,nan,nan,nan,nan,nan,0.0,nan,nan,nan,nan,nan,nan,nan,nan,nan,nan,nan,nan,nan,nan,nan,nan,nan,nan,647.625558963744,648.6376446962822,nan,649.0095198806375,nan,nan,nan,nan
1,2,1,1,1.0,1.0,0.42670316249132156,0,nan,nan,nan,nan,nan,nan,nan,nan,nan,4,3,5,8,2,6,nan,nan,nan,nan,nan,nan,nan,nan,nan,nan,nan,nan,0.0,nan,nan,nan,nan,nan,nan,nan,nan,nan,nan,nan,nan,nan,nan,nan,nan,nan,nan,647.625558963744,649.6627900446765,nan,650.0894932071678,nan,nan,nan,nan
1,3,0,0,0.0,1.0,0.569888245780021,0,nan,nan,nan,nan,nan,nan,nan,nan,nan,0,1,4,3,7,2,nan,nan,nan,nan,nan,nan,nan,nan,nan,nan,nan,nan,0.0,nan,nan,nan,nan,nan,nan,nan,nan,nan,nan,nan,nan,nan,nan,nan,nan,nan,nan,647.625558963744,650.6795692902524,nan,651.2494575360324,nan,nan,nan,nan
1,4,1,1,1.0,1.0,0.5208046399056911,0,nan,nan,nan,nan,nan,nan,nan,nan,nan,7,3,1,8,4,6,nan,nan,nan,nan,nan,nan,nan,nan,nan,nan,nan,nan,0.0,nan,nan,nan,nan,nan,nan,nan,nan,nan,nan,nan,nan,nan,nan,nan,nan,nan,nan,647.625558963744,651.7046245487873,nan,652.2254291886929,nan,nan,nan,nan
1,5,1,1,1.0,1.0,0.6639178791083395,0,nan,nan,nan,nan,nan,nan,nan,nan,nan,8,7,5,0,6,1,nan,nan,nan,nan,nan,nan,nan,nan,nan,nan,nan,nan,0.0,nan,nan,nan,nan,nan,nan,nan,nan,nan,nan,nan,nan,nan,nan,nan,nan,nan,nan,647.625558963744,652.721472787438,nan,653.3853906665463,nan,nan,nan,nan
1,6,1,1,1.0,1.0,0.7511055257637054,0,nan,nan,nan,nan,nan,nan,nan,nan,nan,6,2,1,8,5,3,nan,nan,nan,nan,nan,nan,nan,nan,nan,nan,nan,nan,0.0,nan,nan,nan,nan,nan,nan,nan,nan,nan,nan,nan,nan,nan,nan,nan,nan,nan,nan,647.625558963744,653.7382500376552,nan,654.4893555634189,nan,nan,nan,nan
1,7,1,1,0.0,0.0,0.5903013080824167,0,nan,nan,nan,nan,nan,nan,nan,nan,nan,1,0,4,3,6,2,nan,nan,nan,nan,nan,nan,nan,nan,nan,nan,nan,nan,0.0,nan,nan,nan,nan,nan,nan,nan,nan,nan,nan,nan,nan,nan,nan,nan,nan,nan,nan,647.625558963744,654.755023866659,nan,655.3453251747414,nan,nan,nan,nan
1,8,1,1,1.0,1.0,0.4691280978731811,0,nan,nan,nan,nan,nan,nan,nan,nan,nan,5,3,7,6,4,0,nan,nan,nan,nan,nan,nan,nan,nan,nan,nan,nan,nan,0.0,nan,nan,nan,nan,nan,nan,nan,nan,nan,nan,nan,nan,nan,nan,nan,nan,nan,nan,647.625558963744,655.7801609472372,nan,656.2492890451103,nan,nan,nan,nan
1,9,1,1,1.0,1.0,0.412310159066692,0,nan,nan,nan,nan,nan,nan,nan,nan,nan,4,0,3,5,6,1,nan,nan,nan,nan,nan,nan,nan,nan,nan,nan,nan,nan,0.0,nan,nan,nan,nan,nan,nan,nan,nan,nan,nan,nan,nan,nan,nan,nan,nan,nan,nan,647.625558963744,656.7969487458467,nan,657.2092589049134,nan,nan,nan,nan
1,10,1,1,1.0,1.0,0.4035033001564443,0,nan,nan,nan,nan,nan,nan,nan,nan,nan,1,5,0,6,3,7,nan,nan,nan,nan,nan,nan,nan,nan,nan,nan,nan,nan,0.0,nan,nan,nan,nan,nan,nan,nan,nan,nan,nan,nan,nan,nan,nan,nan,nan,nan,nan,647.625558963744,657.8137328382581,nan,658.2172361384146,nan,nan,nan,nan
1,11,1,1,1.0,1.0,0.4907211670652032,0,nan,nan,nan,nan,nan,nan,nan,nan,nan,5,6,2,8,7,1,nan,nan,nan,nan,nan,nan,nan,nan,nan,nan,nan,nan,0.0,nan,nan,nan,nan,nan,nan,nan,nan,nan,nan,nan,nan,nan,nan,nan,nan,nan,nan,647.625558963744,658.8305001100525,nan,659.3212212771177,nan,nan,nan,nan
1,12,1,1,1.0,1.0,0.728370082564652,0,nan,nan,nan,nan,nan,nan,nan,nan,nan,4,2,3,0,6,7,nan,nan,nan,nan,nan,nan,nan,nan,nan,nan,nan,nan,0.0,nan,nan,nan,nan,nan,nan,nan,nan,nan,nan,nan,nan,nan,nan,nan,nan,nan,nan,647.625558963744,659.8648072602227,nan,660.5931773427874,nan,nan,nan,nan
1,13,1,1,1.0,1.0,0.608074678806588,0,nan,nan,nan,nan,nan,nan,nan,nan,nan,7,6,1,4,5,3,nan,nan,nan,nan,nan,nan,nan,nan,nan,nan,nan,nan,0.0,nan,nan,nan,nan,nan,nan,nan,nan,nan,nan,nan,nan,nan,nan,nan,nan,nan,nan,647.625558963744,660.8890796487685,nan,661.4971543275751,nan,nan,nan,nan
1,14,0,0,0.0,1.0,0.5432732342742383,0,nan,nan,nan,nan,nan,nan,nan,nan,nan,4,8,0,2,3,1,nan,nan,nan,nan,nan,nan,nan,nan,nan,nan,nan,nan,0.0,nan,nan,nan,nan,nan,nan,nan,nan,nan,nan,nan,nan,nan,nan,nan,nan,nan,nan,647.625558963744,661.905859749997,nan,662.4491329842713,nan,nan,nan,nan
1,15,1,1,1.0,1.0,0.4784772067796439,0,nan,nan,nan,nan,nan,nan,nan,nan,nan,2,3,6,0,1,8,nan,nan,nan,nan,nan,nan,nan,nan,nan,nan,nan,nan,0.0,nan,nan,nan,nan,nan,nan,nan,nan,nan,nan,nan,nan,nan,nan,nan,nan,nan,nan,647.625558963744,662.9226344341878,nan,663.4011116409674,nan,nan,nan,nan
1,16,1,1,1.0,1.0,0.5652694271411747,0,nan,nan,nan,nan,nan,nan,nan,nan,nan,4,0,7,1,3,6,nan,nan,nan,nan,nan,nan,nan,nan,nan,nan,nan,nan,0.0,nan,nan,nan,nan,nan,nan,nan,nan,nan,nan,nan,nan,nan,nan,nan,nan,nan,nan,647.625558963744,663.9478014498018,nan,664.513070876943,nan,nan,nan,nan
1,17,1,1,1.0,1.0,0.6045013025868684,1,nan,nan,nan,nan,nan,nan,nan,nan,nan,3,8,6,4,2,5,1.0,1.0,1.0,1.0,1.0,1.0,0.0,0.0,1.0,1.0,1.0,0.0,3.0,0.0,0.0,6.0,4.0,2.0,0.0,5.0,6.0,1.0,2.0,3.0,4.0,6.624838244402781,7.400611870223656,2.458496063016355,3.6645755923818797,4.520717400824651,5.688991668634117,647.625558963744,664.964540497167,665.7729506185278,665.5690417997539,674.2239352925681,675.226029027719,666.7814219209831,674.2156056822278
1,18,1,1,1.0,1.0,0.7436369012575597,0,nan,nan,nan,nan,nan,nan,nan,nan,nan,6,5,1,3,7,4,nan,nan,nan,nan,nan,nan,nan,nan,nan,nan,nan,nan,0.0,nan,nan,nan,nan,nan,nan,nan,nan,nan,nan,nan,nan,nan,nan,nan,nan,nan,nan,647.625558963744,675.4491039046552,nan,676.1927408059128,nan,nan,nan,nan
1,19,1,1,1.0,1.0,0.6388326857704669,0,nan,nan,nan,nan,nan,nan,nan,nan,nan,8,1,0,5,4,6,nan,nan,nan,nan,nan,nan,nan,nan,nan,nan,nan,nan,0.0,nan,nan,nan,nan,nan,nan,nan,nan,nan,nan,nan,nan,nan,nan,nan,nan,nan,nan,647.625558963744,676.4658711764496,nan,677.10470386222,nan,nan,nan,nan
1,20,0,0,0.0,1.0,0.6059672592673451,0,nan,nan,nan,nan,nan,nan,nan,nan,nan,2,0,1,6,3,7,nan,nan,nan,nan,nan,nan,nan,nan,nan,nan,nan,nan,0.0,nan,nan,nan,nan,nan,nan,nan,nan,nan,nan,nan,nan,nan,nan,nan,nan,nan,nan,647.625558963744,677.4826940416824,nan,678.0886613009498,nan,nan,nan,nan
1,21,1,1,1.0,1.0,0.620820120209828,0,nan,nan,nan,nan,nan,nan,nan,nan,nan,3,7,8,0,2,1,nan,nan,nan,nan,nan,nan,nan,nan,nan,nan,nan,nan,0.0,nan,nan,nan,nan,nan,nan,nan,nan,nan,nan,nan,nan,nan,nan,nan,nan,nan,nan,647.625558963744,678.5078117360827,nan,679.1286318562925,nan,nan,nan,nan
1,22,1,1,1.0,1.0,0.7159889917820692,0,nan,nan,nan,nan,nan,nan,nan,nan,nan,0,8,5,2,7,4,nan,nan,nan,nan,nan,nan,nan,nan,nan,nan,nan,nan,0.0,nan,nan,nan,nan,nan,nan,nan,nan,nan,nan,nan,nan,nan,nan,nan,nan,nan,nan,647.625558963744,679.5246109385043,nan,680.2405999302864,nan,nan,nan,nan
1,23,1,1,1.0,1.0,0.7311856772284955,0,nan,nan,nan,nan,nan,nan,nan,nan,nan,7,3,4,6,2,8,nan,nan,nan,nan,nan,nan,nan,nan,nan,nan,nan,nan,0.0,nan,nan,nan,nan,nan,nan,nan,nan,nan,nan,nan,nan,nan,nan,nan,nan,nan,nan,647.625558963744,680.5413841973059,nan,681.2725698745344,nan,nan,nan,nan
1,24,1,1,1.0,1.0,0.7940604521427304,0,nan,nan,nan,nan,nan,nan,nan,nan,nan,6,1,7,8,0,5,nan,nan,nan,nan,nan,nan,nan,nan,nan,nan,nan,nan,0.0,nan,nan,nan,nan,nan,nan,nan,nan,nan,nan,nan,nan,nan,nan,nan,nan,nan,nan,647.625558963744,681.5664961894508,nan,682.3605566415936,nan,nan,nan,nan
1,25,0,0,nan,nan,nan,0,nan,nan,nan,nan,nan,nan,nan,nan,nan,7,5,4,3,6,1,nan,nan,nan,nan,nan,nan,nan,nan,nan,nan,nan,nan,0.0,nan,nan,nan,nan,nan,nan,nan,nan,nan,nan,nan,nan,nan,nan,nan,nan,nan,nan,647.625558963744,682.5833087915089,nan,nan,nan,nan,nan,nan
1,26,1,1,nan,nan,nan,0,nan,nan,nan,nan,nan,nan,nan,nan,nan,0,8,2,1,4,6,nan,nan,nan,nan,nan,nan,nan,nan,nan,nan,nan,nan,0.0,nan,nan,nan,nan,nan,nan,nan,nan,nan,nan,nan,nan,nan,nan,nan,nan,nan,nan,647.625558963744,683.6084039630368,nan,nan,nan,nan,nan,nan
1,27,1,1,nan,nan,nan,0,nan,nan,nan,nan,nan,nan,nan,nan,nan,1,0,6,7,8,2,nan,nan,nan,nan,nan,nan,nan,nan,nan,nan,nan,nan,0.0,nan,nan,nan,nan,nan,nan,nan,nan,nan,nan,nan,nan,nan,nan,nan,nan,nan,nan,647.625558963744,684.6335148150101,nan,nan,nan,nan,nan,nan
1,28,1,1,nan,nan,nan,0,nan,nan,nan,nan,nan,nan,nan,nan,nan,6,7,4,5,3,1,nan,nan,nan,nan,nan,nan,nan,nan,nan,nan,nan,nan,0.0,nan,nan,nan,nan,nan,nan,nan,nan,nan,nan,nan,nan,nan,nan,nan,nan,nan,nan,647.625558963744,685.6586521808058,nan,nan,nan,nan,nan,nan
1,29,1,1,nan,nan,nan,0,nan,nan,nan,nan,nan,nan,nan,nan,nan,0,4,2,7,5,3,nan,nan,nan,nan,nan,nan,nan,nan,nan,nan,nan,nan,0.0,nan,nan,nan,nan,nan,nan,nan,nan,nan,nan,nan,nan,nan,nan,nan,nan,nan,nan,647.625558963744,686.6754359879997,nan,nan,nan,nan,nan,nan
1,30,1,1,1.0,1.0,0.7957482123747468,0,nan,nan,nan,nan,nan,nan,nan,nan,nan,8,1,6,4,7,0,nan,nan,nan,nan,nan,nan,nan,nan,nan,nan,nan,nan,0.0,nan,nan,nan,nan,nan,nan,nan,nan,nan,nan,nan,nan,nan,nan,nan,nan,nan,nan,647.625558963744,687.7006238156464,nan,688.4963720280211,nan,nan,nan,nan
1,31,1,1,1.0,1.0,0.7463296200148761,1,nan,nan,nan,nan,nan,nan,nan,nan,nan,5,3,4,6,8,7,1.0,1.0,1.0,1.0,1.0,1.0,0.0,0.0,0.0,0.0,0.0,0.0,0.0,1.0,2.0,3.0,4.0,3.0,3.0,5.0,4.0,3.0,1.0,2.0,6.0,5.302266759099439,4.694242827128619,3.5587661331519485,1.2626420236192644,2.2302310378290713,6.27849186072126,647.625558963744,688.7339981361292,689.5424179504625,689.4803277561441,696.8766076131724,697.8765605725348,690.5592222844716,696.8682799981907
1,32,1,1,1.0,1.0,0.40230561746284366,0,nan,nan,nan,nan,nan,nan,nan,nan,nan,8,7,2,4,6,3,nan,nan,nan,nan,nan,nan,nan,nan,nan,nan,nan,nan,0.0,nan,nan,nan,nan,nan,nan,nan,nan,nan,nan,nan,nan,nan,nan,nan,nan,nan,nan,647.625558963744,698.1017847780604,nan,698.5040903955232,nan,nan,nan,nan
1,33,1,1,1.0,1.0,0.5051155958790332,0,nan,nan,nan,nan,nan,nan,nan,nan,nan,7,2,6,8,0,5,nan,nan,nan,nan,nan,nan,nan,nan,nan,nan,nan,nan,0.0,nan,nan,nan,nan,nan,nan,nan,nan,nan,nan,nan,nan,nan,nan,nan,nan,nan,nan,647.625558963744,699.1269361134619,nan,699.6320517093409,nan,nan,nan,nan
1,34,1,1,1.0,1.0,0.47988443402573466,0,nan,nan,nan,nan,nan,nan,nan,nan,nan,8,4,2,0,5,6,nan,nan,nan,nan,nan,nan,nan,nan,nan,nan,nan,nan,0.0,nan,nan,nan,nan,nan,nan,nan,nan,nan,nan,nan,nan,nan,nan,nan,nan,nan,nan,647.625558963744,700.1521242258605,nan,700.6320086598862,nan,nan,nan,nan
1,35,1,1,1.0,1.0,0.47885438706725836,0,nan,nan,nan,nan,nan,nan,nan,nan,nan,7,6,3,4,1,5,nan,nan,nan,nan,nan,nan,nan,nan,nan,nan,nan,nan,0.0,nan,nan,nan,nan,nan,nan,nan,nan,nan,nan,nan,nan,nan,nan,nan,nan,nan,nan,647.625558963744,701.1771358649712,nan,701.6559902520385,nan,nan,nan,nan
1,36,1,1,1.0,1.0,0.4536779634654522,0,nan,nan,nan,nan,nan,nan,nan,nan,nan,1,3,6,8,2,0,nan,nan,nan,nan,nan,nan,nan,nan,nan,nan,nan,nan,0.0,nan,nan,nan,nan,nan,nan,nan,nan,nan,nan,nan,nan,nan,nan,nan,nan,nan,nan,647.625558963744,702.2022911915556,nan,702.655969155021,nan,nan,nan,nan
1,37,1,1,1.0,1.0,0.47650919831357896,0,nan,nan,nan,nan,nan,nan,nan,nan,nan,4,5,3,0,6,2,nan,nan,nan,nan,nan,nan,nan,nan,nan,nan,nan,nan,0.0,nan,nan,nan,nan,nan,nan,nan,nan,nan,nan,nan,nan,nan,nan,nan,nan,nan,nan,647.625558963744,703.2274200045504,nan,703.703929202864,nan,nan,nan,nan
1,38,1,1,1.0,1.0,0.5073806729633361,0,nan,nan,nan,nan,nan,nan,nan,nan,nan,6,1,5,2,3,7,nan,nan,nan,nan,nan,nan,nan,nan,nan,nan,nan,nan,0.0,nan,nan,nan,nan,nan,nan,nan,nan,nan,nan,nan,nan,nan,nan,nan,nan,nan,nan,647.625558963744,704.2525431155227,nan,704.759923788486,nan,nan,nan,nan
1,39,1,1,nan,nan,nan,0,nan,nan,nan,nan,nan,nan,nan,nan,nan,4,6,0,1,8,5,nan,nan,nan,nan,nan,nan,nan,nan,nan,nan,nan,nan,0.0,nan,nan,nan,nan,nan,nan,nan,nan,nan,nan,nan,nan,nan,nan,nan,nan,nan,nan,647.625558963744,705.2776377170812,nan,nan,nan,nan,nan,nan
1,40,1,1,nan,nan,nan,0,nan,nan,nan,nan,nan,nan,nan,nan,nan,2,8,1,0,6,3,nan,nan,nan,nan,nan,nan,nan,nan,nan,nan,nan,nan,0.0,nan,nan,nan,nan,nan,nan,nan,nan,nan,nan,nan,nan,nan,nan,nan,nan,nan,nan,647.625558963744,706.3027149278205,nan,nan,nan,nan,nan,nan
1,41,1,1,nan,nan,nan,0,nan,nan,nan,nan,nan,nan,nan,nan,nan,3,5,7,4,8,6,nan,nan,nan,nan,nan,nan,nan,nan,nan,nan,nan,nan,0.0,nan,nan,nan,nan,nan,nan,nan,nan,nan,nan,nan,nan,nan,nan,nan,nan,nan,nan,647.625558963744,707.3278394644149,nan,nan,nan,nan,nan,nan
1,42,1,1,nan,nan,nan,0,nan,nan,nan,nan,nan,nan,nan,nan,nan,8,3,4,5,2,1,nan,nan,nan,nan,nan,nan,nan,nan,nan,nan,nan,nan,0.0,nan,nan,nan,nan,nan,nan,nan,nan,nan,nan,nan,nan,nan,nan,nan,nan,nan,nan,647.625558963744,708.3529879488051,nan,nan,nan,nan,nan,nan
1,43,1,1,nan,nan,nan,0,nan,nan,nan,nan,nan,nan,nan,nan,nan,2,7,5,0,1,3,nan,nan,nan,nan,nan,nan,nan,nan,nan,nan,nan,nan,0.0,nan,nan,nan,nan,nan,nan,nan,nan,nan,nan,nan,nan,nan,nan,nan,nan,nan,nan,647.625558963744,709.3780768483412,nan,nan,nan,nan,nan,nan
1,44,1,1,1.0,1.0,0.07685382082127035,0,nan,nan,nan,nan,nan,nan,nan,nan,nan,1,6,2,7,8,4,nan,nan,nan,nan,nan,nan,nan,nan,nan,nan,nan,nan,0.0,nan,nan,nan,nan,nan,nan,nan,nan,nan,nan,nan,nan,nan,nan,nan,nan,nan,nan,647.625558963744,710.3948971477803,nan,710.4717509686016,nan,nan,nan,nan
1,45,1,1,1.0,1.0,0.3796864927280694,0,nan,nan,nan,nan,nan,nan,nan,nan,nan,5,2,0,8,3,7,nan,nan,nan,nan,nan,nan,nan,nan,nan,nan,nan,nan,0.0,nan,nan,nan,nan,nan,nan,nan,nan,nan,nan,nan,nan,nan,nan,nan,nan,nan,nan,647.625558963744,711.4200262457598,nan,711.7997127384879,nan,nan,nan,nan
1,46,1,1,1.0,1.0,0.42686452623456717,0,nan,nan,nan,nan,nan,nan,nan,nan,nan,6,1,3,0,5,2,nan,nan,nan,nan,nan,nan,nan,nan,nan,nan,nan,nan,0.0,nan,nan,nan,nan,nan,nan,nan,nan,nan,nan,nan,nan,nan,nan,nan,nan,nan,nan,647.625558963744,712.436804351164,nan,712.8636688773986,nan,nan,nan,nan
1,47,1,1,1.0,1.0,0.41803970630280674,0,nan,nan,nan,nan,nan,nan,nan,nan,nan,4,6,5,8,2,3,nan,nan,nan,nan,nan,nan,nan,nan,nan,nan,nan,nan,0.0,nan,nan,nan,nan,nan,nan,nan,nan,nan,nan,nan,nan,nan,nan,nan,nan,nan,nan,647.625558963744,713.4535958559718,nan,713.8716355622746,nan,nan,nan,nan
1,48,0,0,1.0,0.0,0.3689064937643707,0,nan,nan,nan,nan,nan,nan,nan,nan,nan,5,4,8,0,6,1,nan,nan,nan,nan,nan,nan,nan,nan,nan,nan,nan,nan,0.0,nan,nan,nan,nan,nan,nan,nan,nan,nan,nan,nan,nan,nan,nan,nan,nan,nan,nan,647.625558963744,714.4787069931626,nan,714.847613486927,nan,nan,nan,nan
1,49,1,1,1.0,1.0,0.5197566316928715,0,nan,nan,nan,nan,nan,nan,nan,nan,nan,1,7,3,4,5,2,nan,nan,nan,nan,nan,nan,nan,nan,nan,nan,nan,nan,0.0,nan,nan,nan,nan,nan,nan,nan,nan,nan,nan,nan,nan,nan,nan,nan,nan,nan,nan,647.625558963744,715.5038198407274,nan,716.0235764724202,nan,nan,nan,nan
1,50,1,1,1.0,1.0,0.5344789195805788,0,nan,nan,nan,nan,nan,nan,nan,nan,nan,2,5,1,8,0,3,nan,nan,nan,nan,nan,nan,nan,nan,nan,nan,nan,nan,0.0,nan,nan,nan,nan,nan,nan,nan,nan,nan,nan,nan,nan,nan,nan,nan,nan,nan,nan,647.625558963744,716.5290786568075,nan,717.0635575763881,nan,nan,nan,nan
1,51,1,1,1.0,1.0,0.6218045523855835,0,nan,nan,nan,nan,nan,nan,nan,nan,nan,3,7,2,0,6,4,nan,nan,nan,nan,nan,nan,nan,nan,nan,nan,nan,nan,0.0,nan,nan,nan,nan,nan,nan,nan,nan,nan,nan,nan,nan,nan,nan,nan,nan,nan,nan,647.625558963744,717.5457219122909,nan,718.1675264646765,nan,nan,nan,nan
1,52,1,1,1.0,1.0,0.6366383121348917,0,nan,nan,nan,nan,nan,nan,nan,nan,nan,5,8,4,2,0,6,nan,nan,nan,nan,nan,nan,nan,nan,nan,nan,nan,nan,0.0,nan,nan,nan,nan,nan,nan,nan,nan,nan,nan,nan,nan,nan,nan,nan,nan,nan,nan,647.625558963744,718.5708598482888,nan,719.2074981604237,nan,nan,nan,nan
1,53,1,1,1.0,1.0,0.7155354062560946,0,nan,nan,nan,nan,nan,nan,nan,nan,nan,3,1,7,6,2,4,nan,nan,nan,nan,nan,nan,nan,nan,nan,nan,nan,nan,0.0,nan,nan,nan,nan,nan,nan,nan,nan,nan,nan,nan,nan,nan,nan,nan,nan,nan,nan,647.625558963744,719.5959464672487,nan,720.3114818735048,nan,nan,nan,nan
1,54,1,1,1.0,1.0,0.7626498634926975,0,nan,nan,nan,nan,nan,nan,nan,nan,nan,8,4,1,0,6,7,nan,nan,nan,nan,nan,nan,nan,nan,nan,nan,nan,nan,0.0,nan,nan,nan,nan,nan,nan,nan,nan,nan,nan,nan,nan,nan,nan,nan,nan,nan,nan,647.625558963744,720.6127468100749,nan,721.3753966735676,nan,nan,nan,nan
1,55,1,1,1.0,1.0,0.7454942928161472,0,nan,nan,nan,nan,nan,nan,nan,nan,nan,1,2,0,6,7,4,nan,nan,nan,nan,nan,nan,nan,nan,nan,nan,nan,nan,0.0,nan,nan,nan,nan,nan,nan,nan,nan,nan,nan,nan,nan,nan,nan,nan,nan,nan,nan,647.625558963744,721.6378733420279,nan,722.383367634844,nan,nan,nan,nan
1,56,0,0,nan,nan,nan,0,nan,nan,nan,nan,nan,nan,nan,nan,nan,2,6,1,8,3,7,nan,nan,nan,nan,nan,nan,nan,nan,nan,nan,nan,nan,0.0,nan,nan,nan,nan,nan,nan,nan,nan,nan,nan,nan,nan,nan,nan,nan,nan,nan,nan,647.625558963744,722.662979632616,nan,nan,nan,nan,nan,nan
1,57,1,1,nan,nan,nan,0,nan,nan,nan,nan,nan,nan,nan,nan,nan,6,0,8,5,1,4,nan,nan,nan,nan,nan,nan,nan,nan,nan,nan,nan,nan,0.0,nan,nan,nan,nan,nan,nan,nan,nan,nan,nan,nan,nan,nan,nan,nan,nan,nan,nan,647.625558963744,723.6881024583708,nan,nan,nan,nan,nan,nan
1,58,1,1,1.0,1.0,0.7739427478518337,0,nan,nan,nan,nan,nan,nan,nan,nan,nan,1,4,7,8,2,3,nan,nan,nan,nan,nan,nan,nan,nan,nan,nan,nan,nan,0.0,nan,nan,nan,nan,nan,nan,nan,nan,nan,nan,nan,nan,nan,nan,nan,nan,nan,nan,647.625558963744,724.7293496676721,nan,725.5032924155239,nan,nan,nan,nan
1,59,1,1,1.0,1.0,0.7245612181723118,1,nan,nan,nan,nan,nan,nan,nan,nan,nan,0,1,5,7,6,2,1.0,1.0,1.0,1.0,1.0,1.0,0.0,0.0,1.0,1.0,1.0,0.0,3.0,2.0,5.0,5.0,7.0,6.0,0.0,4.0,6.0,5.0,1.0,2.0,3.0,4.7922951458022,8.0326239510905,7.23232078156434,2.449234763160348,3.1228581194300205,3.9055053771007806,647.625558963744,725.7466991026886,726.5550966798328,726.4712603208609,735.6395112108439,736.6414997461252,727.571916124085,735.6311804600991
1,60,1,1,1.0,1.0,0.4863036253955215,0,nan,nan,nan,nan,nan,nan,nan,nan,nan,3,4,0,2,7,8,nan,nan,nan,nan,nan,nan,nan,nan,nan,nan,nan,nan,0.0,nan,nan,nan,nan,nan,nan,nan,nan,nan,nan,nan,nan,nan,nan,nan,nan,nan,nan,647.625558963744,736.864668419119,nan,737.3509720445145,nan,nan,nan,nan
1,61,1,1,1.0,1.0,0.5894588534720242,0,nan,nan,nan,nan,nan,nan,nan,nan,nan,1,2,4,3,8,0,nan,nan,nan,nan,nan,nan,nan,nan,nan,nan,nan,nan,0.0,nan,nan,nan,nan,nan,nan,nan,nan,nan,nan,nan,nan,nan,nan,nan,nan,nan,nan,647.625558963744,737.8814778849483,nan,738.4709367384203,nan,nan,nan,nan
1,62,1,1,1.0,1.0,0.45027079712599516,0,nan,nan,nan,nan,nan,nan,nan,nan,nan,6,8,5,1,0,4,nan,nan,nan,nan,nan,nan,nan,nan,nan,nan,nan,nan,0.0,nan,nan,nan,nan,nan,nan,nan,nan,nan,nan,nan,nan,nan,nan,nan,nan,nan,nan,647.625558963744,738.9246457770932,nan,739.3749165742192,nan,nan,nan,nan
1,63,1,1,1.0,1.0,0.31449532392434776,0,nan,nan,nan,nan,nan,nan,nan,nan,nan,0,5,1,7,6,2,nan,nan,nan,nan,nan,nan,nan,nan,nan,nan,nan,nan,0.0,nan,nan,nan,nan,nan,nan,nan,nan,nan,nan,nan,nan,nan,nan,nan,nan,nan,nan,647.625558963744,739.9483881746419,nan,740.2628834985662,nan,nan,nan,nan
1,64,1,1,1.0,1.0,0.2813536408357322,0,nan,nan,nan,nan,nan,nan,nan,nan,nan,4,7,2,6,1,3,nan,nan,nan,nan,nan,nan,nan,nan,nan,nan,nan,nan,0.0,nan,nan,nan,nan,nan,nan,nan,nan,nan,nan,nan,nan,nan,nan,nan,nan,nan,nan,647.625558963744,740.9735078644007,nan,741.2548615052365,nan,nan,nan,nan
1,65,0,0,1.0,0.0,0.2725892609450966,0,nan,nan,nan,nan,nan,nan,nan,nan,nan,2,3,1,4,6,0,nan,nan,nan,nan,nan,nan,nan,nan,nan,nan,nan,nan,0.0,nan,nan,nan,nan,nan,nan,nan,nan,nan,nan,nan,nan,nan,nan,nan,nan,nan,nan,647.625558963744,741.9902457715943,nan,742.2628350325394,nan,nan,nan,nan
1,66,1,1,1.0,1.0,0.41576522099785507,0,nan,nan,nan,nan,nan,nan,nan,nan,nan,6,7,0,3,4,1,nan,nan,nan,nan,nan,nan,nan,nan,nan,nan,nan,nan,0.0,nan,nan,nan,nan,nan,nan,nan,nan,nan,nan,nan,nan,nan,nan,nan,nan,nan,nan,647.625558963744,743.007028153399,nan,743.4227933743969,nan,nan,nan,nan
1,67,1,1,1.0,1.0,0.4868743848055601,0,nan,nan,nan,nan,nan,nan,nan,nan,nan,7,5,2,6,1,0,nan,nan,nan,nan,nan,nan,nan,nan,nan,nan,nan,nan,0.0,nan,nan,nan,nan,nan,nan,nan,nan,nan,nan,nan,nan,nan,nan,nan,nan,nan,nan,647.625558963744,744.0238450316247,nan,744.5107194164302,nan,nan,nan,nan
1,68,1,1,1.0,1.0,0.49408670933917165,0,nan,nan,nan,nan,nan,nan,nan,nan,nan,1,8,6,2,0,5,nan,nan,nan,nan,nan,nan,nan,nan,nan,nan,nan,nan,0.0,nan,nan,nan,nan,nan,nan,nan,nan,nan,nan,nan,nan,nan,nan,nan,nan,nan,nan,647.625558963744,745.0406140140258,nan,745.534700723365,nan,nan,nan,nan
1,69,1,1,1.0,1.0,0.357283754972741,0,nan,nan,nan,nan,nan,nan,nan,nan,nan,3,1,7,8,5,6,nan,nan,nan,nan,nan,nan,nan,nan,nan,nan,nan,nan,0.0,nan,nan,nan,nan,nan,nan,nan,nan,nan,nan,nan,nan,nan,nan,nan,nan,nan,nan,647.625558963744,746.0574035232421,nan,746.4146872782148,nan,nan,nan,nan
1,70,1,1,1.0,1.0,0.41246667597442865,0,nan,nan,nan,nan,nan,nan,nan,nan,nan,8,3,4,0,2,5,nan,nan,nan,nan,nan,nan,nan,nan,nan,nan,nan,nan,0.0,nan,nan,nan,nan,nan,nan,nan,nan,nan,nan,nan,nan,nan,nan,nan,nan,nan,nan,647.625558963744,747.0741839094553,nan,747.4866505854297,nan,nan,nan,nan
1,71,1,1,1.0,1.0,0.41970665473490953,0,nan,nan,nan,nan,nan,nan,nan,nan,nan,2,8,0,6,5,3,nan,nan,nan,nan,nan,nan,nan,nan,nan,nan,nan,nan,0.0,nan,nan,nan,nan,nan,nan,nan,nan,nan,nan,nan,nan,nan,nan,nan,nan,nan,nan,647.625558963744,748.0909349308349,nan,748.5106415855698,nan,nan,nan,nan
1,72,1,1,1.0,1.0,0.4508612281642854,0,nan,nan,nan,nan,nan,nan,nan,nan,nan,7,4,2,1,3,5,nan,nan,nan,nan,nan,nan,nan,nan,nan,nan,nan,nan,0.0,nan,nan,nan,nan,nan,nan,nan,nan,nan,nan,nan,nan,nan,nan,nan,nan,nan,nan,647.625558963744,749.107756085461,nan,749.5586173136253,nan,nan,nan,nan
1,73,1,1,1.0,1.0,0.3540396629832685,0,nan,nan,nan,nan,nan,nan,nan,nan,nan,8,5,1,4,2,3,nan,nan,nan,nan,nan,nan,nan,nan,nan,nan,nan,nan,0.0,nan,nan,nan,nan,nan,nan,nan,nan,nan,nan,nan,nan,nan,nan,nan,nan,nan,nan,647.625558963744,750.1245438840706,nan,750.4785835470539,nan,nan,nan,nan
1,74,1,1,1.0,1.0,0.35254263086244464,0,nan,nan,nan,nan,nan,nan,nan,nan,nan,3,6,5,0,8,2,nan,nan,nan,nan,nan,nan,nan,nan,nan,nan,nan,nan,0.0,nan,nan,nan,nan,nan,nan,nan,nan,nan,nan,nan,nan,nan,nan,nan,nan,nan,nan,647.625558963744,751.1580108604394,nan,751.5105534913018,nan,nan,nan,nan
1,75,1,1,1.0,1.0,0.40773068368434906,0,nan,nan,nan,nan,nan,nan,nan,nan,nan,1,7,4,8,5,0,nan,nan,nan,nan,nan,nan,nan,nan,nan,nan,nan,nan,0.0,nan,nan,nan,nan,nan,nan,nan,nan,nan,nan,nan,nan,nan,nan,nan,nan,nan,nan,647.625558963744,752.1747912464198,nan,752.5825219301041,nan,nan,nan,nan
1,76,1,1,1.0,1.0,0.422563873231411,1,nan,nan,nan,nan,nan,nan,nan,nan,nan,6,2,5,3,7,1,1.0,1.0,1.0,1.0,1.0,1.0,0.0,0.0,1.0,1.0,0.0,0.0,2.0,3.0,4.0,5.0,3.0,1.0,2.0,4.0,3.0,2.0,1.0,6.0,5.0,5.75465980079025,4.538705162703991,3.5157798463478684,2.4525638134218752,7.498244529590011,6.714834643527865,647.625558963744,753.1999405862298,754.0083529881667,753.6225044594612,762.5676482571289,763.566335111158,755.0334353307262,762.5593126595486
1,77,1,1,0.0,0.0,0.7176833094563335,0,nan,nan,nan,nan,nan,nan,nan,nan,nan,7,8,3,1,0,5,nan,nan,nan,nan,nan,nan,nan,nan,nan,nan,nan,nan,0.0,nan,nan,nan,nan,nan,nan,nan,nan,nan,nan,nan,nan,nan,nan,nan,nan,nan,nan,647.625558963744,763.7844721486326,nan,764.502155458089,nan,nan,nan,nan
1,78,1,1,1.0,1.0,0.5968145802617073,0,nan,nan,nan,nan,nan,nan,nan,nan,nan,2,1,0,7,5,4,nan,nan,nan,nan,nan,nan,nan,nan,nan,nan,nan,nan,0.0,nan,nan,nan,nan,nan,nan,nan,nan,nan,nan,nan,nan,nan,nan,nan,nan,nan,nan,647.625558963744,764.8013049922884,nan,765.3981195725501,nan,nan,nan,nan
1,79,1,1,1.0,1.0,0.49170588376000524,0,nan,nan,nan,nan,nan,nan,nan,nan,nan,8,6,7,3,0,1,nan,nan,nan,nan,nan,nan,nan,nan,nan,nan,nan,nan,0.0,nan,nan,nan,nan,nan,nan,nan,nan,nan,nan,nan,nan,nan,nan,nan,nan,nan,nan,647.625558963744,765.8264189802576,nan,766.3181248640176,nan,nan,nan,nan
1,80,1,1,1.0,1.0,0.41060472279787064,0,nan,nan,nan,nan,nan,nan,nan,nan,nan,4,1,6,8,7,2,nan,nan,nan,nan,nan,nan,nan,nan,nan,nan,nan,nan,0.0,nan,nan,nan,nan,nan,nan,nan,nan,nan,nan,nan,nan,nan,nan,nan,nan,nan,nan,647.625558963744,766.8514919145964,nan,767.2620966373943,nan,nan,nan,nan
1,81,1,1,1.0,1.0,0.3694213745184243,0,0.0,0.0,0.0,0.526249071367441,0.14853617399859803,0.377712897368843,0.674785245366039,0.14853617399859803,0.42391066035876673,3,7,5,2,1,0,nan,nan,nan,nan,nan,nan,nan,nan,nan,nan,nan,nan,0.0,nan,nan,nan,nan,nan,nan,nan,nan,nan,nan,nan,nan,nan,nan,nan,nan,nan,nan,647.625558963744,767.8766595004126,nan,768.2460808749311,nan,nan,nan,nan
1,82,1,1,1.0,1.0,0.3525965139269829,0,0.0,0.0,0.0,0.5239762061957162,0.14864226764167424,0.37533393855404196,0.6726184738373904,0.14864226764167424,0.3775408704144259,7,2,3,4,8,5,nan,nan,nan,nan,nan,nan,nan,nan,nan,nan,nan,nan,0.0,nan,nan,nan,nan,nan,nan,nan,nan,nan,nan,nan,nan,nan,nan,nan,nan,nan,nan,647.625558963744,768.893427627394,nan,769.246024141321,nan,nan,nan,nan
1,83,1,1,1.0,1.0,0.3492170018143952,1,1.0,0.0,1.0,0.5215279248775915,0.1489714042823424,0.3725565205952491,0.6704993291599339,0.1489714042823424,0.35707829675326747,0,8,2,6,1,7,1.0,1.0,1.0,1.0,1.0,1.0,1.0,0.0,1.0,1.0,0.0,0.0,3.0,0.0,1.0,2.0,6.0,4.0,4.0,3.0,4.0,2.0,1.0,5.0,6.0,4.500404976774007,5.41185600310564,3.3404603195376694,2.1817016557324678,7.091017893282697,8.178983563324437,647.625558963744,769.9368033532519,770.7436203656252,770.2860203550663,779.969712399412,780.9754382404499,771.7520779836923,779.9613830740564
1,84,1,1,1.0,1.0,0.3947565963026136,0,0.0,0.0,0.0,0.5191010104682506,0.14930573703469127,0.36979527343355933,0.6684067475029419,0.14930573703469127,0.36552337068133056,1,0,6,5,8,3,nan,nan,nan,nan,nan,nan,nan,nan,nan,nan,nan,nan,0.0,nan,nan,nan,nan,nan,nan,nan,nan,nan,nan,nan,nan,nan,nan,nan,nan,nan,nan,647.625558963744,781.1949200693052,nan,781.5896766656078,nan,nan,nan,nan
1,85,0,0,0.0,1.0,0.5539987804368138,0,0.0,0.0,0.0,0.5173740047159501,0.14897768339261627,0.3683963213233338,0.6663516881085664,0.14897768339261627,0.4326574595179409,5,1,4,3,0,7,nan,nan,nan,nan,nan,nan,nan,nan,nan,nan,nan,nan,0.0,nan,nan,nan,nan,nan,nan,nan,nan,nan,nan,nan,nan,nan,nan,nan,nan,nan,nan,647.625558963744,782.2116414408665,nan,782.7656402213033,nan,nan,nan,nan
1,86,1,1,1.0,1.0,0.6971602006815374,0,0.0,0.0,0.0,0.5178757139724003,0.14801500340176613,0.3698607105706342,0.6658907173741664,0.14801500340176613,0.5486385258069882,2,3,8,6,7,4,nan,nan,nan,nan,nan,nan,nan,nan,nan,nan,nan,nan,0.0,nan,nan,nan,nan,nan,nan,nan,nan,nan,nan,nan,nan,nan,nan,nan,nan,nan,nan,647.625558963744,783.2284312353004,nan,783.9255914359819,nan,nan,nan,nan
1,87,1,1,1.0,1.0,0.7523582316935062,0,0.0,0.0,0.0,0.5202984773063075,0.14846169645380256,0.37183678085250493,0.6687601737601101,0.14846169645380256,0.6678390709372858,7,0,5,3,8,2,nan,nan,nan,nan,nan,nan,nan,nan,nan,nan,nan,nan,0.0,nan,nan,nan,nan,nan,nan,nan,nan,nan,nan,nan,nan,nan,nan,nan,nan,nan,nan,647.625558963744,784.2452116215136,nan,784.9975698532071,nan,nan,nan,nan
1,88,1,1,1.0,1.0,0.7435305609833449,1,0.0,1.0,1.0,0.5233926073648035,0.14985141439779448,0.37354119296700905,0.673244021762598,0.14985141439779448,0.7310163311194628,2,4,0,5,3,1,1.0,1.0,1.0,1.0,1.0,1.0,1.0,1.0,0.0,1.0,0.0,0.0,3.0,2.0,4.0,4.0,5.0,4.0,7.0,2.0,6.0,5.0,1.0,3.0,4.0,2.6918696991633624,7.699436681577936,6.803953806636855,1.6527934856712818,3.8690608725883067,5.547471823403612,647.625558963744,785.2620122493245,786.0704046946485,786.0055428103078,794.8297428986989,795.8262185587082,787.087163413642,794.8214301089756
1,89,0,0,0.0,1.0,0.6226569851860404,0,0.0,0.0,0.0,0.5262891593861001,0.15096102483079715,0.37532813455530295,0.6772501842168972,0.15096102483079715,0.7061819259542972,6,0,4,3,1,7,nan,nan,nan,nan,nan,nan,nan,nan,nan,nan,nan,nan,0.0,nan,nan,nan,nan,nan,nan,nan,nan,nan,nan,nan,nan,nan,nan,nan,nan,nan,nan,647.625558963744,796.0466049930546,nan,796.6692619782407,nan,nan,nan,nan
1,90,1,1,nan,nan,nan,0,0.0,0.0,0.0,0.0,0.0,0.0,0.0,0.0,0.0,0,2,7,4,5,1,nan,nan,nan,nan,nan,nan,nan,nan,nan,nan,nan,nan,0.0,nan,nan,nan,nan,nan,nan,nan,nan,nan,nan,nan,nan,nan,nan,nan,nan,nan,nan,647.625558963744,797.0633756860625,nan,nan,nan,nan,nan,nan
1,91,1,1,1.0,1.0,0.08504972187802196,1,1.0,0.0,1.0,0.5275406895912942,0.15037389366413706,0.37716679592715713,0.6779145832554312,0.15037389366413706,0.3538533535320312,7,1,8,6,4,2,1.0,1.0,1.0,1.0,1.0,1.0,1.0,0.0,0.0,1.0,0.0,1.0,3.0,7.0,8.0,4.0,6.0,5.0,2.0,2.0,6.0,5.0,1.0,3.0,4.0,2.217836547875777,7.8487236455548555,6.481068147113547,0.9315111413598061,4.3608679650351405,5.201226363191381,647.625558963744,798.0801671908703,798.8885727506131,798.1652169127483,807.8062798939645,808.805056837853,799.9137394810095,807.797946006991
1,92,1,1,1.0,1.0,0.7577986929100007,0,0.0,0.0,0.0,0.5218677284667651,0.1574816118862995,0.3643861165804656,0.6793493403530646,0.1574816118862995,0.4214242073940113,3,5,2,0,7,6,nan,nan,nan,nan,nan,nan,nan,nan,nan,nan,nan,nan,0.0,nan,nan,nan,nan,nan,nan,nan,nan,nan,nan,nan,nan,nan,nan,nan,nan,nan,nan,647.625558963744,809.0230832586531,nan,809.7808819515631,nan,nan,nan,nan
1,93,0,0,0.0,1.0,0.7569585188757628,0,0.0,0.0,0.0,0.5248541963711097,0.1586890339486982,0.36616516242241154,0.6835432303198079,0.1586890339486982,0.5332689778879285,5,0,1,3,8,7,nan,nan,nan,nan,nan,nan,nan,nan,nan,nan,nan,nan,0.0,nan,nan,nan,nan,nan,nan,nan,nan,nan,nan,nan,nan,nan,nan,nan,nan,nan,nan,647.625558963744,810.0399038433097,nan,810.7968623621855,nan,nan,nan,nan
1,94,1,1,1.0,1.0,0.6918389089405537,1,0.0,1.0,1.0,0.5277555004024179,0.1597886714331187,0.3679668289692992,0.6875441718355366,0.1597886714331187,0.7355320402421057,1,2,4,8,3,6,1.0,1.0,1.0,1.0,1.0,1.0,1.0,0.0,1.0,1.0,1.0,0.0,4.0,1.0,0.0,4.0,8.0,3.0,5.0,2.0,6.0,5.0,1.0,3.0,4.0,1.9445981262251735,7.95156954578124,6.567558452021331,1.0026237259153277,3.257159653119743,5.345093107549474,647.625558963744,811.0650038616732,811.8734350798186,811.7568427706137,820.8828372163698,821.89308979013,812.890201496426,820.8745061804075
1,95,1,1,1.0,1.0,0.7361494603101164,0,0.0,0.0,0.0,0.5297812214954813,0.1598295596513032,0.36995166184417816,0.6896107811467845,0.1598295596513032,0.7283156293754777,0,3,2,6,7,5,nan,nan,nan,nan,nan,nan,nan,nan,nan,nan,nan,nan,0.0,nan,nan,nan,nan,nan,nan,nan,nan,nan,nan,nan,nan,nan,nan,nan,nan,nan,nan,647.625558963744,822.1163593868259,nan,822.852508847136,nan,nan,nan,nan
1,96,1,1,1.0,1.0,0.6233911039307714,0,0.0,0.0,0.0,0.5322979073346842,0.16045868038797997,0.37183922694670424,0.6927565877226641,0.16045868038797997,0.6837931577271471,8,5,7,0,1,4,nan,nan,nan,nan,nan,nan,nan,nan,nan,nan,nan,nan,0.0,nan,nan,nan,nan,nan,nan,nan,nan,nan,nan,nan,nan,nan,nan,nan,nan,nan,nan,647.625558963744,823.1331186760217,nan,823.7565097799525,nan,nan,nan,nan
1,97,1,1,1.0,1.0,0.582539320923388,0,0.0,0.0,0.0,0.5333954157274082,0.15979848077787742,0.37359693494953083,0.6931938965052856,0.15979848077787742,0.6473599617214253,0,1,3,2,4,8,nan,nan,nan,nan,nan,nan,nan,nan,nan,nan,nan,nan,0.0,nan,nan,nan,nan,nan,nan,nan,nan,nan,nan,nan,nan,nan,nan,nan,nan,nan,nan,647.625558963744,824.1498996324372,nan,824.7324389533605,nan,nan,nan,nan
1,98,1,1,1.0,1.0,0.4940020360518247,0,0.0,0.0,0.0,0.5339804622178365,0.1589338508714964,0.3750466113463401,0.6929143130893328,0.1589338508714964,0.566644153635328,1,8,2,6,7,5,nan,nan,nan,nan,nan,nan,nan,nan,nan,nan,nan,nan,0.0,nan,nan,nan,nan,nan,nan,nan,nan,nan,nan,nan,nan,nan,nan,nan,nan,nan,nan,647.625558963744,825.1903896303847,nan,825.6843916664366,nan,nan,nan,nan
1,99,1,1,1.0,1.0,0.4599092772696167,0,0.0,0.0,0.0,0.533510127792354,0.1580549741803344,0.37545515361201953,0.6915651019726884,0.1580549741803344,0.5121502114149431,4,6,0,5,2,1,nan,nan,nan,nan,nan,nan,nan,nan,nan,nan,nan,nan,0.0,nan,nan,nan,nan,nan,nan,nan,nan,nan,nan,nan,nan,nan,nan,nan,nan,nan,nan,647.625558963744,826.208468622528,nan,826.6683778997976,nan,nan,nan,nan
1,100,1,1,1.0,1.0,0.5947827107738703,0,0.0,0.0,0.0,0.5326543039490663,0.15733134045192398,0.37532296349714234,0.6899856444009903,0.15733134045192398,0.516231341365104,0,2,7,1,3,6,nan,nan,nan,nan,nan,nan,nan,nan,nan,nan,nan,nan,0.0,nan,nan,nan,nan,nan,nan,nan,nan,nan,nan,nan,nan,nan,nan,nan,nan,nan,nan,647.625558963744,827.2335757683031,nan,827.828358479077,nan,nan,nan,nan
1,101,1,1,1.0,1.0,0.6656167581677437,0,0.0,0.0,0.0,0.5333684235677423,0.15656464754959923,0.3768037760181431,0.6899330711173415,0.15656464754959923,0.5734362487370769,5,3,8,7,2,0,nan,nan,nan,nan,nan,nan,nan,nan,nan,nan,nan,nan,0.0,nan,nan,nan,nan,nan,nan,nan,nan,nan,nan,nan,nan,nan,nan,nan,nan,nan,nan,647.625558963744,828.2587156998925,nan,828.9243324580602,nan,nan,nan,nan
1,102,0,0,nan,nan,nan,0,0.0,0.0,0.0,0.0,0.0,0.0,0.0,0.0,0.0,4,5,6,8,3,7,nan,nan,nan,nan,nan,nan,nan,nan,nan,nan,nan,nan,0.0,nan,nan,nan,nan,nan,nan,nan,nan,nan,nan,nan,nan,nan,nan,nan,nan,nan,nan,647.625558963744,829.2838428022806,nan,nan,nan,nan,nan,nan
1,103,1,1,1.0,1.0,0.7672584187239408,1,0.0,1.0,1.0,0.5348712455518332,0.15630235149610336,0.3785688940557298,0.6911735970479366,0.15630235149610336,0.7164375884458423,1,4,7,3,5,6,1.0,1.0,1.0,1.0,1.0,1.0,0.0,0.0,0.0,1.0,1.0,1.0,3.0,0.0,7.0,4.0,3.0,5.0,6.0,6.0,5.0,4.0,3.0,2.0,1.0,9.370948341675103,7.010719558922574,5.939329006941989,3.435635748319328,2.2429838918615133,1.1090418624226004,647.625558963744,830.3090018350631,831.1173326999415,831.076260253787,841.5519059004728,842.562513132114,832.1424598023295,841.5435725837015
1,104,1,1,1.0,1.0,0.39449459430761635,0,0.0,0.0,0.0,0.5374823373852277,0.15734005330641657,0.3801422840788111,0.6948223906916442,0.15734005330641657,0.5808765065157786,0,5,1,6,4,7,nan,nan,nan,nan,nan,nan,nan,nan,nan,nan,nan,nan,0.0,nan,nan,nan,nan,nan,nan,nan,nan,nan,nan,nan,nan,nan,nan,nan,nan,nan,nan,647.625558963744,842.7853924341034,nan,843.179887028411,nan,nan,nan,nan
1,105,1,1,1.0,1.0,0.4816463189199567,0,0.0,0.0,0.0,0.5358935846843653,0.1571797535673691,0.3787138311169962,0.6930733382517344,0.1571797535673691,0.5477997773171713,5,3,7,2,6,8,nan,nan,nan,nan,nan,nan,nan,nan,nan,nan,nan,nan,0.0,nan,nan,nan,nan,nan,nan,nan,nan,nan,nan,nan,nan,nan,nan,nan,nan,nan,nan,647.625558963744,843.8022081721574,nan,844.2838544910774,nan,nan,nan,nan
1,106,1,1,1.0,1.0,0.5285084673669189,0,0.0,0.0,0.0,0.5352974608847565,0.1564160123471677,0.37888144853758876,0.6917134732319242,0.1564160123471677,0.468216460198164,2,6,5,3,0,4,nan,nan,nan,nan,nan,nan,nan,nan,nan,nan,nan,nan,0.0,nan,nan,nan,nan,nan,nan,nan,nan,nan,nan,nan,nan,nan,nan,nan,nan,nan,nan,647.625558963744,844.8273178837262,nan,845.3558263510931,nan,nan,nan,nan
1,107,1,1,1.0,1.0,0.6156750172376633,0,0.0,0.0,0.0,0.5352236674769538,0.1555651953726226,0.37965847210433123,0.6907888628495764,0.1555651953726226,0.5419432678415129,7,3,6,4,8,0,nan,nan,nan,nan,nan,nan,nan,nan,nan,nan,nan,nan,0.0,nan,nan,nan,nan,nan,nan,nan,nan,nan,nan,nan,nan,nan,nan,nan,nan,nan,nan,647.625558963744,845.8441150903236,nan,846.4597901075613,nan,nan,nan,nan
1,108,1,1,1.0,1.0,0.7988625862635672,0,0.0,0.0,0.0,0.5360887357539508,0.15494888455845052,0.38113985119550026,0.6910376203124013,0.15494888455845052,0.6476820236227164,2,1,0,3,7,5,nan,nan,nan,nan,nan,nan,nan,nan,nan,nan,nan,nan,0.0,nan,nan,nan,nan,nan,nan,nan,nan,nan,nan,nan,nan,nan,nan,nan,nan,nan,nan,647.625558963744,846.860900608357,nan,847.6597631946206,nan,nan,nan,nan
1,109,1,1,1.0,1.0,0.6213233126327395,0,0.0,0.0,0.0,0.5388842022487339,0.15646245915813678,0.3824217430905971,0.6953466614068706,0.15646245915813678,0.67862030537799,0,3,5,1,4,2,nan,nan,nan,nan,nan,nan,nan,nan,nan,nan,nan,nan,0.0,nan,nan,nan,nan,nan,nan,nan,nan,nan,nan,nan,nan,nan,nan,nan,nan,nan,nan,647.625558963744,847.8944451301359,nan,848.5157684427686,nan,nan,nan,nan
1,110,1,1,1.0,1.0,0.6366003945004195,0,0.0,0.0,0.0,0.5397519823580392,0.15586403567910947,0.3838879466789298,0.6956160180371487,0.15586403567910947,0.6855954311322421,4,1,2,3,7,5,nan,nan,nan,nan,nan,nan,nan,nan,nan,nan,nan,nan,0.0,nan,nan,nan,nan,nan,nan,nan,nan,nan,nan,nan,nan,nan,nan,nan,nan,nan,nan,647.625558963744,848.9111357114743,nan,849.5477361059748,nan,nan,nan,nan
1,111,1,1,1.0,1.0,0.6834266211371869,0,0.0,0.0,0.0,0.5407608199845223,0.15536159718068615,0.38539922280383615,0.6961224171652085,0.15536159718068615,0.6471167760901153,5,8,4,2,0,1,nan,nan,nan,nan,nan,nan,nan,nan,nan,nan,nan,nan,0.0,nan,nan,nan,nan,nan,nan,nan,nan,nan,nan,nan,nan,nan,nan,nan,nan,nan,nan,647.625558963744,849.9362839108799,nan,850.619710532017,nan,nan,nan,nan
1,112,1,1,1.0,1.0,0.6823090498801321,0,0.0,0.0,0.0,0.5422316014397044,0.15522904211157731,0.3870025593281271,0.6974606435512817,0.15522904211157731,0.6674453551725795,3,1,5,0,8,2,nan,nan,nan,nan,nan,nan,nan,nan,nan,nan,nan,nan,0.0,nan,nan,nan,nan,nan,nan,nan,nan,nan,nan,nan,nan,nan,nan,nan,nan,nan,nan,647.625558963744,850.9613722404465,nan,851.6436812903266,nan,nan,nan,nan
1,113,1,1,1.0,1.0,0.6491228921804577,0,0.0,0.0,0.0,0.5436609631584843,0.15507532255301323,0.38858564060547107,0.6987362857114976,0.15507532255301323,0.6716195210659256,2,5,7,1,4,6,nan,nan,nan,nan,nan,nan,nan,nan,nan,nan,nan,nan,0.0,nan,nan,nan,nan,nan,nan,nan,nan,nan,nan,nan,nan,nan,nan,nan,nan,nan,nan,647.625558963744,851.9865252862219,nan,852.6356481784023,nan,nan,nan,nan
1,114,1,1,1.0,1.0,0.5359688242897391,0,0.0,0.0,0.0,0.5447262351688072,0.15465010125480952,0.39007613391399776,0.6993763364236167,0.15465010125480952,0.6224669221167763,6,1,0,4,7,2,nan,nan,nan,nan,nan,nan,nan,nan,nan,nan,nan,nan,0.0,nan,nan,nan,nan,nan,nan,nan,nan,nan,nan,nan,nan,nan,nan,nan,nan,nan,nan,647.625558963744,853.0116461166181,nan,853.5476149409078,nan,nan,nan,nan
1,115,1,1,1.0,1.0,0.7511688165832311,0,0.0,0.0,0.0,0.5446386610600166,0.15387737498791082,0.39076128607210575,0.6985160360479274,0.15387737498791082,0.645420177684476,5,4,2,0,3,1,nan,nan,nan,nan,nan,nan,nan,nan,nan,nan,nan,nan,0.0,nan,nan,nan,nan,nan,nan,nan,nan,nan,nan,nan,nan,nan,nan,nan,nan,nan,nan,647.625558963744,854.0283999890089,nan,854.7795688055921,nan,nan,nan,nan
1,116,0,0,0.0,1.0,0.6943406146019697,0,0.0,0.0,0.0,0.5466835140849989,0.1544731395358469,0.39221037454915203,0.7011566536208458,0.1544731395358469,0.66049275182498,3,8,0,7,2,4,nan,nan,nan,nan,nan,nan,nan,nan,nan,nan,nan,nan,0.0,nan,nan,nan,nan,nan,nan,nan,nan,nan,nan,nan,nan,nan,nan,nan,nan,nan,nan,647.625558963744,855.0452003316022,nan,855.7395409462042,nan,nan,nan,nan
1,117,1,1,1.0,1.0,0.7655407232232392,1,0.0,1.0,1.0,0.5481311327175182,0.15440099000264657,0.39373014271487167,0.7025321227201649,0.15440099000264657,0.7370167181361467,6,0,8,4,3,1,1.0,1.0,1.0,1.0,1.0,1.0,0.0,0.0,0.0,1.0,1.0,1.0,3.0,0.0,2.0,5.0,4.0,3.0,1.0,4.0,5.0,6.0,1.0,2.0,3.0,5.0091669333633035,7.233462870819494,8.43305022479035,2.1391994596924633,3.2255412307567894,4.066089787054807,647.625558963744,856.0619815732352,856.8703748737462,856.8275222964585,866.3714637928642,867.3814192980062,857.8955053973477,866.3631510029081
1,118,0,0,0.0,1.0,0.398179727839306,0,0.0,0.0,0.0,0.5502419054408748,0.15512143475535797,0.3951204706855168,0.7053633401962328,0.15512143475535797,0.6193536885548383,2,7,3,0,4,6,nan,nan,nan,nan,nan,nan,nan,nan,nan,nan,nan,nan,0.0,nan,nan,nan,nan,nan,nan,nan,nan,nan,nan,nan,nan,nan,nan,nan,nan,nan,nan,647.625558963744,867.6050235957373,nan,868.0032033235766,nan,nan,nan,nan
1,119,1,1,1.0,1.0,0.6613870938308537,0,0.0,0.0,0.0,0.5487797691177827,0.1550854138370658,0.3936943552807169,0.7038651829548486,0.1550854138370658,0.608369181631133,0,5,2,8,3,7,nan,nan,nan,nan,nan,nan,nan,nan,nan,nan,nan,nan,0.0,nan,nan,nan,nan,nan,nan,nan,nan,nan,nan,nan,nan,nan,nan,nan,nan,nan,nan,647.625558963744,868.6217808893416,nan,869.2831679831725,nan,nan,nan,nan
1,120,0,0,0.0,1.0,0.788519352208823,0,0.0,0.0,0.0,0.5498522198293359,0.1547321539710591,0.39512006585827675,0.704584373800395,0.1547321539710591,0.6160287246263275,4,8,3,2,5,0,nan,nan,nan,nan,nan,nan,nan,nan,nan,nan,nan,nan,0.0,nan,nan,nan,nan,nan,nan,nan,nan,nan,nan,nan,nan,nan,nan,nan,nan,nan,nan,647.625558963744,869.6386034695897,nan,870.4271228217985,nan,nan,nan,nan
1,121,1,1,nan,nan,nan,0,0.0,0.0,0.0,0.0,0.0,0.0,0.0,0.0,0.0,0,1,5,6,4,3,nan,nan,nan,nan,nan,nan,nan,nan,nan,nan,nan,nan,0.0,nan,nan,nan,nan,nan,nan,nan,nan,nan,nan,nan,nan,nan,nan,nan,nan,nan,nan,647.625558963744,870.6553442275617,nan,nan,nan,nan,nan,nan
1,122,1,1,1.0,1.0,0.6189413466490805,0,0.0,0.0,0.0,0.552103796549897,0.1557192311087912,0.39638456544110584,0.7078230276586883,0.1557192311087912,0.7037303494289517,2,0,8,3,5,6,nan,nan,nan,nan,nan,nan,nan,nan,nan,nan,nan,nan,0.0,nan,nan,nan,nan,nan,nan,nan,nan,nan,nan,nan,nan,nan,nan,nan,nan,nan,nan,647.625558963744,871.672137727961,nan,872.29107907461,nan,nan,nan,nan
1,123,1,1,1.0,1.0,0.41813321714289486,0,0.0,0.0,0.0,0.552728446550824,0.1551232333557523,0.3976052131950717,0.7078516799065763,0.1551232333557523,0.5185372818959877,7,4,3,1,2,8,nan,nan,nan,nan,nan,nan,nan,nan,nan,nan,nan,nan,0.0,nan,nan,nan,nan,nan,nan,nan,nan,nan,nan,nan,nan,nan,nan,nan,nan,nan,nan,647.625558963744,872.6889178291894,nan,873.1070510463323,nan,nan,nan,nan
1,124,1,1,1.0,1.0,0.42532558529637754,0,0.0,0.0,0.0,0.5514821944266765,0.15494062218554538,0.39654157224113107,0.7064228166122218,0.15494062218554538,0.4874667163627843,1,5,2,4,8,0,nan,nan,nan,nan,nan,nan,nan,nan,nan,nan,nan,nan,0.0,nan,nan,nan,nan,nan,nan,nan,nan,nan,nan,nan,nan,nan,nan,nan,nan,nan,nan,647.625558963744,873.7056973599829,nan,874.1310229452793,nan,nan,nan,nan
1,125,1,1,nan,nan,nan,0,0.0,0.0,0.0,0.0,0.0,0.0,0.0,0.0,0.0,2,6,7,0,5,8,nan,nan,nan,nan,nan,nan,nan,nan,nan,nan,nan,nan,0.0,nan,nan,nan,nan,nan,nan,nan,nan,nan,nan,nan,nan,nan,nan,nan,nan,nan,nan,647.625558963744,874.7224811674096,nan,nan,nan,nan,nan,nan
1,126,1,1,1.0,1.0,0.799652868648991,0,0.0,0.0,0.0,0.5503247943429123,0.15469656264625067,0.3956282316966616,0.7050213569891629,0.15469656264625067,0.6124892269726843,5,1,8,4,2,0,nan,nan,nan,nan,nan,nan,nan,nan,nan,nan,nan,nan,0.0,nan,nan,nan,nan,nan,nan,nan,nan,nan,nan,nan,nan,nan,nan,nan,nan,nan,nan,647.625558963744,875.7392743828241,nan,876.5389272514731,nan,nan,nan,nan
1,127,1,1,1.0,1.0,0.7261936697177589,1,0.0,1.0,1.0,0.5525914132002402,0.1557994411481959,0.3967919720520443,0.7083908543484361,0.1557994411481959,0.7629232691833749,6,4,0,1,3,5,1.0,1.0,1.0,1.0,1.0,1.0,1.0,1.0,1.0,0.0,0.0,1.0,4.0,6.0,4.0,0.0,5.0,5.0,5.0,3.0,2.0,1.0,6.0,5.0,4.0,3.449958333512768,2.378354245563969,1.2831899356096983,7.79410179075785,6.906181907048449,6.131335409125313,647.625558963744,876.7727205471601,877.5811588927172,877.4989142168779,886.4321906643454,887.4424868577626,878.5979663627222,886.4238590581808
1,128,1,1,nan,nan,nan,0,0.0,0.0,0.0,0.0,0.0,0.0,0.0,0.0,0.0,8,0,4,3,7,1,nan,nan,nan,nan,nan,nan,nan,nan,nan,nan,nan,nan,0.0,nan,nan,nan,nan,nan,nan,nan,nan,nan,nan,nan,nan,nan,nan,nan,nan,nan,nan,647.625558963744,887.6656598073896,nan,nan,nan,nan,nan,nan
1,129,1,1,nan,nan,nan,0,0.0,0.0,0.0,0.0,0.0,0.0,0.0,0.0,0.0,2,3,1,8,6,0,nan,nan,nan,nan,nan,nan,nan,nan,nan,nan,nan,nan,0.0,nan,nan,nan,nan,nan,nan,nan,nan,nan,nan,nan,nan,nan,nan,nan,nan,nan,nan,647.625558963744,888.6824647116009,nan,nan,nan,nan,nan,nan
1,130,0,0,1.0,0.0,0.007308686384931207,0,0.0,0.0,0.0,0.5541553974931909,0.1559610565013084,0.39819434099188245,0.7101164539944993,0.1559610565013084,0.007308686384931207,6,2,7,5,8,4,nan,nan,nan,nan,nan,nan,nan,nan,nan,nan,nan,nan,0.0,nan,nan,nan,nan,nan,nan,nan,nan,nan,nan,nan,nan,nan,nan,nan,nan,nan,nan,647.625558963744,889.6992453830317,nan,889.7065540694166,nan,nan,nan,nan
1,131,1,1,1.0,1.0,0.5024673517327756,1,1.0,0.0,1.0,0.5492728375725814,0.16356297363900593,0.3857098639335754,0.7128358112115873,0.16356297363900593,0.2548880190588534,4,0,3,7,2,5,1.0,1.0,1.0,1.0,1.0,1.0,1.0,1.0,0.0,1.0,0.0,1.0,4.0,4.0,0.0,2.0,7.0,3.0,5.0,1.0,3.0,4.0,5.0,6.0,2.0,1.085772151593119,3.6516516814008355,5.251495107542723,6.018426237395033,8.29042820353061,2.65111570362933,647.625558963744,890.7160454406403,891.5244387411512,891.2185127923731,900.8671923622023,901.8720546513796,892.5412416500039,900.8588616112247
1,132,1,1,1.0,1.0,0.4298449056223035,0,0.0,0.0,0.0,0.5488586297332911,0.1628966271106938,0.38596200262259733,0.7117552568439849,0.1628966271106938,0.31320698124667007,5,7,1,4,3,0,nan,nan,nan,nan,nan,nan,nan,nan,nan,nan,nan,nan,0.0,nan,nan,nan,nan,nan,nan,nan,nan,nan,nan,nan,nan,nan,nan,nan,nan,nan,nan,647.625558963744,902.0923755140975,nan,902.5222204197198,nan,nan,nan,nan
1,133,1,1,1.0,1.0,0.4689675895497203,0,0.0,0.0,0.0,0.5478146496972298,0.1625598452713982,0.3852548044258316,0.710374494968628,0.1625598452713982,0.4670932823015998,2,1,5,6,4,8,nan,nan,nan,nan,nan,nan,nan,nan,nan,nan,nan,nan,0.0,nan,nan,nan,nan,nan,nan,nan,nan,nan,nan,nan,nan,nan,nan,nan,nan,nan,nan,647.625558963744,903.1091673041228,nan,903.5781348936725,nan,nan,nan,nan
1,134,1,1,1.0,1.0,0.7641648566350341,0,0.0,0.0,0.0,0.5471290230872514,0.16201698716204702,0.3851120359252044,0.7091460102492985,0.16201698716204702,0.554325783935686,0,5,4,7,6,2,nan,nan,nan,nan,nan,nan,nan,nan,nan,nan,nan,nan,0.0,nan,nan,nan,nan,nan,nan,nan,nan,nan,nan,nan,nan,nan,nan,nan,nan,nan,nan,647.625558963744,904.1259710679296,nan,904.8901359245647,nan,nan,nan,nan
1,135,1,1,nan,nan,nan,0,0.0,0.0,0.0,0.0,0.0,0.0,0.0,0.0,0.0,4,2,5,1,0,3,nan,nan,nan,nan,nan,nan,nan,nan,nan,nan,nan,nan,0.0,nan,nan,nan,nan,nan,nan,nan,nan,nan,nan,nan,nan,nan,nan,nan,nan,nan,nan,647.625558963744,905.1427577261347,nan,nan,nan,nan,nan,nan
1,136,1,1,1.0,1.0,0.22655559750273824,0,0.0,0.0,0.0,0.5490000216523185,0.16256010703082605,0.3864399146214925,0.7115601286831446,0.16256010703082605,0.49536022706888616,2,8,0,4,7,1,nan,nan,nan,nan,nan,nan,nan,nan,nan,nan,nan,nan,0.0,nan,nan,nan,nan,nan,nan,nan,nan,nan,nan,nan,nan,nan,nan,nan,nan,nan,nan,647.625558963744,906.1595081775449,nan,906.3860637750477,nan,nan,nan,nan
1,137,0,0,0.0,1.0,0.5857503418810666,0,0.0,0.0,0.0,0.5462440864031768,0.16456295978707092,0.38168112661610587,0.7108070461902477,0.16456295978707092,0.4061529696919024,1,0,7,6,4,5,nan,nan,nan,nan,nan,nan,nan,nan,nan,nan,nan,nan,0.0,nan,nan,nan,nan,nan,nan,nan,nan,nan,nan,nan,nan,nan,nan,nan,nan,nan,nan,647.625558963744,907.1762934103608,nan,907.7620437522419,nan,nan,nan,nan
1,138,1,1,1.0,1.0,0.4889159477315843,0,0.0,0.0,0.0,0.5465788851784131,0.16390418714313273,0.3826746980352804,0.7104830723215458,0.16390418714313273,0.43374062903846305,7,4,8,1,6,3,nan,nan,nan,nan,nan,nan,nan,nan,nan,nan,nan,nan,0.0,nan,nan,nan,nan,nan,nan,nan,nan,nan,nan,nan,nan,nan,nan,nan,nan,nan,nan,647.625558963744,908.1930931827519,nan,908.6820091304835,nan,nan,nan,nan
1,139,1,1,1.0,1.0,0.4640976027585566,0,0.0,0.0,0.0,0.54609432267886,0.1632989169121719,0.38279540576668813,0.709393239591032,0.1632989169121719,0.5129212974570692,2,8,5,0,3,6,nan,nan,nan,nan,nan,nan,nan,nan,nan,nan,nan,nan,0.0,nan,nan,nan,nan,nan,nan,nan,nan,nan,nan,nan,nan,nan,nan,nan,nan,nan,nan,647.625558963744,909.2098824069835,nan,909.6739800097421,nan,nan,nan,nan
1,140,1,1,1.0,1.0,0.47128569427877665,0,0.0,0.0,0.0,0.5454110166795242,0.16278782839238332,0.38262318828714087,0.7081988450719074,0.16278782839238332,0.4747664149229725,8,6,3,4,1,0,nan,nan,nan,nan,nan,nan,nan,nan,nan,nan,nan,nan,0.0,nan,nan,nan,nan,nan,nan,nan,nan,nan,nan,nan,nan,nan,nan,nan,nan,nan,nan,647.625558963744,910.2266545253806,nan,910.6979402196594,nan,nan,nan,nan
1,141,1,1,1.0,1.0,0.3905155281536281,0,0.0,0.0,0.0,0.54479841070927,0.16225259367155945,0.3825458170377106,0.7070510043808295,0.16225259367155945,0.44196627506365377,5,8,4,6,2,3,nan,nan,nan,nan,nan,nan,nan,nan,nan,nan,nan,nan,0.0,nan,nan,nan,nan,nan,nan,nan,nan,nan,nan,nan,nan,nan,nan,nan,nan,nan,nan,647.625558963744,911.2434326307848,nan,911.6339481589384,nan,nan,nan,nan
1,142,1,1,1.0,1.0,0.3973267243709415,0,0.0,0.0,0.0,0.5435337969178303,0.1621839297419866,0.38134986717584374,0.7057177266598169,0.1621839297419866,0.4197093156011154,4,1,5,0,3,2,nan,nan,nan,nan,nan,nan,nan,nan,nan,nan,nan,nan,0.0,nan,nan,nan,nan,nan,nan,nan,nan,nan,nan,nan,nan,nan,nan,nan,nan,nan,nan,647.625558963744,912.2685748431832,nan,912.6659015675541,nan,nan,nan,nan
1,143,1,1,1.0,1.0,0.3645032069180161,0,0.0,0.0,0.0,0.5423451215312702,0.1620560280868909,0.38028909344437933,0.7044011496181611,0.1620560280868909,0.3841151531475286,7,6,8,1,5,0,nan,nan,nan,nan,nan,nan,nan,nan,nan,nan,nan,nan,0.0,nan,nan,nan,nan,nan,nan,nan,nan,nan,nan,nan,nan,nan,nan,nan,nan,nan,nan,647.625558963744,913.2853552293964,nan,913.6498584363144,nan,nan,nan,nan
1,144,1,1,1.0,1.0,0.3636938233394176,1,1.0,0.0,1.0,0.5409109125424537,0.16218313776045662,0.3787277747819971,0.7030940503029104,0.16218313776045662,0.37517458487612504,3,5,1,2,4,8,1.0,1.0,1.0,1.0,1.0,1.0,0.0,1.0,1.0,1.0,0.0,0.0,3.0,7.0,5.0,1.0,2.0,6.0,3.0,6.0,3.0,2.0,1.0,4.0,5.0,8.191620383877307,3.3203121102415025,2.2330720061436296,0.9142794504296035,6.432145049329847,7.359484400600195,647.625558963744,914.3021433129907,915.110532337334,914.6658371363301,924.3615741443355,925.3650038330816,916.1273366713431,924.3532833068166
1,145,1,1,1.0,1.0,0.7746985338162631,0,0.0,0.0,0.0,0.5394931758288294,0.16230274307198955,0.37719043275683983,0.7017959189008189,0.16230274307198955,0.5009651880245656,1,6,8,7,0,3,nan,nan,nan,nan,nan,nan,nan,nan,nan,nan,nan,nan,0.0,nan,nan,nan,nan,nan,nan,nan,nan,nan,nan,nan,nan,nan,nan,nan,nan,nan,nan,647.625558963744,925.5868000604678,nan,926.3614985942841,nan,nan,nan,nan
1,146,1,1,1.0,1.0,0.5578943137079477,0,0.0,0.0,0.0,0.5413598850192058,0.1629990517916998,0.378360833227506,0.7043589368109057,0.1629990517916998,0.5654288902878761,8,2,7,5,3,6,nan,nan,nan,nan,nan,nan,nan,nan,nan,nan,nan,nan,0.0,nan,nan,nan,nan,nan,nan,nan,nan,nan,nan,nan,nan,nan,nan,nan,nan,nan,nan,647.625558963744,926.6035964118782,nan,927.1614907255862,nan,nan,nan,nan
1,147,1,1,1.0,1.0,0.5010820766910911,0,0.0,0.0,0.0,0.5414900773710857,0.1623626320945485,0.3791274452765372,0.7038527094656342,0.1623626320945485,0.611224974738434,4,8,3,7,6,1,nan,nan,nan,nan,nan,nan,nan,nan,nan,nan,nan,nan,0.0,nan,nan,nan,nan,nan,nan,nan,nan,nan,nan,nan,nan,nan,nan,nan,nan,nan,nan,647.625558963744,927.620379364118,nan,928.1214614408091,nan,nan,nan,nan
1,148,1,1,1.0,1.0,0.45227102120406926,0,0.0,0.0,0.0,0.5411743898657733,0.1617662843522996,0.3794081055134737,0.7029406742180728,0.1617662843522996,0.503749137201036,6,5,7,8,1,3,nan,nan,nan,nan,nan,nan,nan,nan,nan,nan,nan,nan,0.0,nan,nan,nan,nan,nan,nan,nan,nan,nan,nan,nan,nan,nan,nan,nan,nan,nan,nan,647.625558963744,928.6371671627276,nan,929.0894381839316,nan,nan,nan,nan
1,149,1,1,1.0,1.0,0.6674379426985979,0,0.0,0.0,0.0,0.5404852164652949,0.16132659530564541,0.3791586211596495,0.7018118117709403,0.16132659530564541,0.5402636801979194,4,8,1,2,0,6,nan,nan,nan,nan,nan,nan,nan,nan,nan,nan,nan,nan,0.0,nan,nan,nan,nan,nan,nan,nan,nan,nan,nan,nan,nan,nan,nan,nan,nan,nan,nan,647.625558963744,929.6539569569286,nan,930.3213948996272,nan,nan,nan,nan
1,150,1,1,1.0,1.0,0.5866292887367308,0,0.0,0.0,0.0,0.5414617758978588,0.1610872170199771,0.38037455887788174,0.7025489929178359,0.1610872170199771,0.568779417546466,6,2,7,3,4,5,nan,nan,nan,nan,nan,nan,nan,nan,nan,nan,nan,nan,0.0,nan,nan,nan,nan,nan,nan,nan,nan,nan,nan,nan,nan,nan,nan,nan,nan,nan,nan,647.625558963744,930.670740194153,nan,931.2573694828898,nan,nan,nan,nan
1,151,1,1,1.0,1.0,0.5138221015222371,0,0.0,0.0,0.0,0.5418065660722013,0.16051934853394367,0.3812872175382577,0.702325914606145,0.16051934853394367,0.5892964443191886,5,0,3,8,6,1,nan,nan,nan,nan,nan,nan,nan,nan,nan,nan,nan,nan,0.0,nan,nan,nan,nan,nan,nan,nan,nan,nan,nan,nan,nan,nan,nan,nan,nan,nan,nan,647.625558963744,931.6875279927626,nan,932.2013500942849,nan,nan,nan,nan
1,152,1,1,1.0,1.0,0.384998376481235,0,0.0,0.0,0.0,0.5415945625528834,0.15992857358582502,0.3816659889670584,0.7015231361387084,0.15992857358582502,0.4951499222467343,8,7,0,6,2,4,nan,nan,nan,nan,nan,nan,nan,nan,nan,nan,nan,nan,0.0,nan,nan,nan,nan,nan,nan,nan,nan,nan,nan,nan,nan,nan,nan,nan,nan,nan,nan,647.625558963744,932.7043143657502,nan,933.0893127422314,nan,nan,nan,nan
1,153,1,1,1.0,1.0,0.3601959969382733,0,0.0,0.0,0.0,0.5404171476200139,0.15989944228434275,0.3805177053356712,0.7003165899043566,0.15989944228434275,0.41967215831391513,1,3,2,0,4,8,nan,nan,nan,nan,nan,nan,nan,nan,nan,nan,nan,nan,0.0,nan,nan,nan,nan,nan,nan,nan,nan,nan,nan,nan,nan,nan,nan,nan,nan,nan,nan,647.625558963744,933.7210930413567,nan,934.0812890382949,nan,nan,nan,nan
1,154,1,1,1.0,1.0,0.4073657626286149,0,0.0,0.0,0.0,0.5390722136597024,0.16005500188264024,0.37901721177706216,0.6991272155423426,0.16005500188264024,0.3841867120160411,8,5,1,3,7,6,nan,nan,nan,nan,nan,nan,nan,nan,nan,nan,nan,nan,0.0,nan,nan,nan,nan,nan,nan,nan,nan,nan,nan,nan,nan,nan,nan,nan,nan,nan,nan,647.625558963744,934.737897090381,nan,935.1452628530096,nan,nan,nan,nan
1,155,1,1,1.0,1.0,0.3505412663798779,1,1.0,0.0,1.0,0.5380966103187313,0.1598605174912021,0.37823609282752924,0.6979571278099335,0.1598605174912021,0.372701008648922,0,6,2,4,3,5,1.0,1.0,1.0,1.0,1.0,1.0,1.0,1.0,0.0,0.0,0.0,1.0,3.0,0.0,6.0,8.0,3.0,6.0,5.0,1.0,2.0,4.0,3.0,5.0,6.0,1.1949137973133475,2.2265823965426534,4.827272553695366,3.4195623968262225,8.083080003038049,9.458393428940326,647.625558963744,935.7546712046023,936.5630528163165,936.1052124709822,947.0809281084221,948.0779585626442,937.5798887959681,947.0726153186988
1,156,1,1,1.0,1.0,0.3990800566971302,0,0.0,0.0,0.0,0.5367175269074163,0.1600757020974628,0.37664182480995345,0.6967932290048791,0.1600757020974628,0.38566236190187436,1,2,3,5,7,6,nan,nan,nan,nan,nan,nan,nan,nan,nan,nan,nan,nan,0.0,nan,nan,nan,nan,nan,nan,nan,nan,nan,nan,nan,nan,nan,nan,nan,nan,nan,nan,647.625558963744,948.2977933387738,nan,948.6968733954709,nan,nan,nan,nan
1,157,1,1,1.0,1.0,0.3822244054172188,0,0.0,0.0,0.0,0.535712873840188,0.15992017009341164,0.3757927037467763,0.6956330439335996,0.15992017009341164,0.37728190949807566,7,0,5,8,6,1,nan,nan,nan,nan,nan,nan,nan,nan,nan,nan,nan,nan,0.0,nan,nan,nan,nan,nan,nan,nan,nan,nan,nan,nan,nan,nan,nan,nan,nan,nan,nan,647.625558963744,949.3145916860085,nan,949.6968160914257,nan,nan,nan,nan
1,158,1,1,1.0,1.0,0.3650896465405822,0,0.0,0.0,0.0,0.5346006385617607,0.15987062533521657,0.3747300132265441,0.6944712638969772,0.15987062533521657,0.38213136955164373,6,5,8,4,1,7,nan,nan,nan,nan,nan,nan,nan,nan,nan,nan,nan,nan,0.0,nan,nan,nan,nan,nan,nan,nan,nan,nan,nan,nan,nan,nan,nan,nan,nan,nan,nan,647.625558963744,950.3397290518042,nan,950.7048186983448,nan,nan,nan,nan
1,159,1,1,1.0,1.0,0.4759338772855699,0,0.0,0.0,0.0,0.5333811350220399,0.1599374064115388,0.37344372861050107,0.6933185414335787,0.1599374064115388,0.4077493097477903,2,6,5,7,8,3,nan,nan,nan,nan,nan,nan,nan,nan,nan,nan,nan,nan,0.0,nan,nan,nan,nan,nan,nan,nan,nan,nan,nan,nan,nan,nan,nan,nan,nan,nan,nan,647.625558963744,951.3648424695712,nan,951.8407763468567,nan,nan,nan,nan
1,160,0,0,0.0,1.0,0.7947161695919931,0,0.0,0.0,0.0,0.5329707974667794,0.15943859087514936,0.3735322065916301,0.6924093883419288,0.15943859087514936,0.545246564472715,8,4,7,6,0,1,nan,nan,nan,nan,nan,nan,nan,nan,nan,nan,nan,nan,0.0,nan,nan,nan,nan,nan,nan,nan,nan,nan,nan,nan,nan,nan,nan,nan,nan,nan,nan,647.625558963744,952.3899963707663,nan,953.1847125403583,nan,nan,nan,nan
1,161,1,1,1.0,1.0,0.6340177219826728,0,0.0,0.0,0.0,0.5348271476236958,0.16038335601912088,0.37444379160457486,0.6952105036428167,0.16038335601912088,0.6348892562867453,0,7,8,5,2,3,nan,nan,nan,nan,nan,nan,nan,nan,nan,nan,nan,nan,0.0,nan,nan,nan,nan,nan,nan,nan,nan,nan,nan,nan,nan,nan,nan,nan,nan,nan,nan,647.625558963744,953.4066994963214,nan,954.040717218304,nan,nan,nan,nan
1,162,0,0,0.0,1.0,0.7288188214879483,0,0.0,0.0,0.0,0.5355256727952379,0.1600327261454317,0.37549294664980615,0.6955583989406696,0.1600327261454317,0.719184237687538,4,8,5,2,6,1,nan,nan,nan,nan,nan,nan,nan,nan,nan,nan,nan,nan,0.0,nan,nan,nan,nan,nan,nan,nan,nan,nan,nan,nan,nan,nan,nan,nan,nan,nan,nan,647.625558963744,954.4318411382847,nan,955.1606599597726,nan,nan,nan,nan
1,163,1,1,1.0,1.0,0.5199855628889054,0,0.0,0.0,0.0,0.5368773731357463,0.16028358162578965,0.3765937915099567,0.6971609547615361,0.16028358162578965,0.6276073687865088,6,2,7,1,3,0,nan,nan,nan,nan,nan,nan,nan,nan,nan,nan,nan,nan,0.0,nan,nan,nan,nan,nan,nan,nan,nan,nan,nan,nan,nan,nan,nan,nan,nan,nan,nan,647.625558963744,955.448664288735,nan,955.9686498516239,nan,nan,nan,nan
1,164,1,1,1.0,1.0,0.6392127168364823,0,0.0,0.0,0.0,0.536760068897921,0.15973223138052933,0.3770278375173917,0.6964923002784504,0.15973223138052933,0.6293390337377787,8,7,5,4,0,1,nan,nan,nan,nan,nan,nan,nan,nan,nan,nan,nan,nan,0.0,nan,nan,nan,nan,nan,nan,nan,nan,nan,nan,nan,nan,nan,nan,nan,nan,nan,nan,647.625558963744,956.465424148133,nan,957.1046368649695,nan,nan,nan,nan
1,165,1,1,1.0,1.0,0.5744032897055149,0,0.0,0.0,0.0,0.5374666388837043,0.15940613283584043,0.37806050604786384,0.6968727717195446,0.15940613283584043,0.5778671898103008,6,5,3,2,4,7,nan,nan,nan,nan,nan,nan,nan,nan,nan,nan,nan,nan,0.0,nan,nan,nan,nan,nan,nan,nan,nan,nan,nan,nan,nan,nan,nan,nan,nan,nan,nan,647.625558963744,957.482199402526,nan,958.0566026922315,nan,nan,nan,nan
1,166,1,1,1.0,1.0,0.4215911303181201,0,0.0,0.0,0.0,0.5377196296427578,0.15888849095508872,0.37883113868766904,0.6966081205978465,0.15888849095508872,0.5450690456200391,7,4,2,0,8,6,nan,nan,nan,nan,nan,nan,nan,nan,nan,nan,nan,nan,0.0,nan,nan,nan,nan,nan,nan,nan,nan,nan,nan,nan,nan,nan,nan,nan,nan,nan,nan,647.625558963744,958.4989786483347,nan,958.9205697786529,nan,nan,nan,nan
1,167,1,1,1.0,1.0,0.45275425654836,0,0.0,0.0,0.0,0.5369296398514337,0.15863458119302914,0.37829505865840457,0.6955642210444628,0.15863458119302914,0.4829162255239983,3,2,8,7,4,5,nan,nan,nan,nan,nan,nan,nan,nan,nan,nan,nan,nan,0.0,nan,nan,nan,nan,nan,nan,nan,nan,nan,nan,nan,nan,nan,nan,nan,nan,nan,nan,647.625558963744,959.5157866887748,nan,959.9685409453232,nan,nan,nan,nan
1,168,1,1,1.0,1.0,0.3879693476483226,0,0.0,0.0,0.0,0.5363608872615481,0.15824806009825165,0.3781128271632964,0.6946089473597997,0.15824806009825165,0.4207715781716009,1,0,4,5,8,6,nan,nan,nan,nan,nan,nan,nan,nan,nan,nan,nan,nan,0.0,nan,nan,nan,nan,nan,nan,nan,nan,nan,nan,nan,nan,nan,nan,nan,nan,nan,nan,647.625558963744,960.5325545307714,nan,960.9205238784198,nan,nan,nan,nan
1,169,1,1,1.0,1.0,0.34714436368085444,0,0.0,0.0,0.0,0.5353649708883049,0.15818082094571714,0.37718414994258775,0.6935457918340221,0.15818082094571714,0.39595598929251236,8,1,7,4,2,3,nan,nan,nan,nan,nan,nan,nan,nan,nan,nan,nan,nan,0.0,nan,nan,nan,nan,nan,nan,nan,nan,nan,nan,nan,nan,nan,nan,nan,nan,nan,nan,647.625558963744,961.5493366273586,nan,961.8964809910394,nan,nan,nan,nan
1,170,1,1,1.0,1.0,0.38634202745743096,1,1.0,0.0,1.0,0.5341101668402553,0.15839498018438555,0.37571518665586967,0.6925051470246408,0.15839498018438555,0.373818579595536,7,6,4,3,1,0,1.0,1.0,1.0,1.0,1.0,1.0,0.0,0.0,0.0,0.0,0.0,1.0,1.0,6.0,1.0,2.0,4.0,2.0,0.0,2.0,6.0,5.0,3.0,4.0,1.0,2.1919673441443592,6.837882066145539,5.766999837942421,3.3514749514870346,4.438798303250223,1.4071188706438988,647.625558963744,962.5661235707812,963.3745399641339,962.9524655982386,971.2671473743394,972.2729082817677,964.3913303285372,971.2588114917744
1,171,1,1,1.0,1.0,0.7558426586911082,0,0.0,0.0,0.0,0.5331315698907001,0.1583239256351668,0.37480764425553326,0.6914554955258669,0.1583239256351668,0.4964430166097979,0,8,3,6,4,2,nan,nan,nan,nan,nan,nan,nan,nan,nan,nan,nan,nan,0.0,nan,nan,nan,nan,nan,nan,nan,nan,nan,nan,nan,nan,nan,nan,nan,nan,nan,nan,647.625558963744,972.4922886171844,nan,973.2481312758755,nan,nan,nan,nan
1,172,1,1,1.0,1.0,0.4910407578572631,0,0.0,0.0,0.0,0.5345967744222818,0.15882608395344783,0.375770690468834,0.6934228583757296,0.15882608395344783,0.5444084813352674,1,0,8,5,7,6,nan,nan,nan,nan,nan,nan,nan,nan,nan,nan,nan,nan,0.0,nan,nan,nan,nan,nan,nan,nan,nan,nan,nan,nan,nan,nan,nan,nan,nan,nan,nan,647.625558963744,973.5090761308093,nan,974.0001168886665,nan,nan,nan,nan
1,173,1,1,1.0,1.0,0.39392526005394757,0,0.0,0.0,0.0,0.5343120945754516,0.1583450959210767,0.3759669986543749,0.6926571904965283,0.1583450959210767,0.5469362255341063,7,6,3,1,2,0,nan,nan,nan,nan,nan,nan,nan,nan,nan,nan,nan,nan,0.0,nan,nan,nan,nan,nan,nan,nan,nan,nan,nan,nan,nan,nan,nan,nan,nan,nan,nan,647.625558963744,974.5341918293852,nan,974.9281170894392,nan,nan,nan,nan
1,174,1,1,1.0,1.0,0.2971458889078349,0,0.0,0.0,0.0,0.5334004917538834,0.15823243229087136,0.375168059463012,0.6916329240447547,0.15823243229087136,0.3940373022730152,0,3,4,2,5,6,nan,nan,nan,nan,nan,nan,nan,nan,nan,nan,nan,nan,0.0,nan,nan,nan,nan,nan,nan,nan,nan,nan,nan,nan,nan,nan,nan,nan,nan,nan,nan,647.625558963744,975.5509645179845,nan,975.8481104068924,nan,nan,nan,nan
1,175,0,0,0.0,1.0,0.4163057606201619,0,0.0,0.0,0.0,0.5318762685097154,0.15885135144015297,0.3730249170695624,0.6907276199498683,0.15885135144015297,0.3691256365273148,2,4,3,0,6,1,nan,nan,nan,nan,nan,nan,nan,nan,nan,nan,nan,nan,0.0,nan,nan,nan,nan,nan,nan,nan,nan,nan,nan,nan,nan,nan,nan,nan,nan,nan,nan,647.625558963744,976.5677443339955,nan,976.9840500946157,nan,nan,nan,nan
1,176,1,1,1.0,1.0,0.4394856665749103,0,0.0,0.0,0.0,0.5311354319206797,0.15860979495853997,0.3725256369621397,0.6897452268792197,0.15860979495853997,0.38431243870096904,0,7,6,1,8,5,nan,nan,nan,nan,nan,nan,nan,nan,nan,nan,nan,nan,0.0,nan,nan,nan,nan,nan,nan,nan,nan,nan,nan,nan,nan,nan,nan,nan,nan,nan,nan,647.625558963744,977.5845366939902,nan,978.0240223605651,nan,nan,nan,nan
1,177,0,0,0.0,1.0,0.5426771014463156,0,0.0,0.0,0.0,0.5305516754535092,0.1582718905317974,0.3722797849217118,0.6888235659853066,0.1582718905317974,0.46615617621379596,8,3,1,0,7,2,nan,nan,nan,nan,nan,nan,nan,nan,nan,nan,nan,nan,0.0,nan,nan,nan,nan,nan,nan,nan,nan,nan,nan,nan,nan,nan,nan,nan,nan,nan,nan,647.625558963744,978.6013176504057,nan,979.143994751852,nan,nan,nan,nan
1,178,1,1,1.0,1.0,0.5815486169885844,0,0.0,0.0,0.0,0.5306284186559953,0.15777316545620929,0.372855253199786,0.6884015841122046,0.15777316545620929,0.5212371283366034,0,4,3,2,5,8,nan,nan,nan,nan,nan,nan,nan,nan,nan,nan,nan,nan,0.0,nan,nan,nan,nan,nan,nan,nan,nan,nan,nan,nan,nan,nan,nan,nan,nan,nan,nan,647.625558963744,979.6264182389714,nan,980.20796685596,nan,nan,nan,nan
1,179,1,1,1.0,1.0,0.5966512211598456,0,0.0,0.0,0.0,0.5309486714756971,0.15732774935212435,0.3736209221235728,0.6882764208278215,0.15732774935212435,0.5736256465315819,3,5,7,8,6,1,nan,nan,nan,nan,nan,nan,nan,nan,nan,nan,nan,nan,0.0,nan,nan,nan,nan,nan,nan,nan,nan,nan,nan,nan,nan,nan,nan,nan,nan,nan,nan,647.625558963744,980.6432579248212,nan,981.2399091459811,nan,nan,nan,nan
1,180,1,1,1.0,1.0,0.6838850532658398,0,0.0,0.0,0.0,0.531359312411223,0.15692078293591133,0.3744385294753117,0.6882800953471344,0.15692078293591133,0.6206949638047566,5,4,6,0,1,3,nan,nan,nan,nan,nan,nan,nan,nan,nan,nan,nan,nan,0.0,nan,nan,nan,nan,nan,nan,nan,nan,nan,nan,nan,nan,nan,nan,nan,nan,nan,nan,647.625558963744,981.6600123674143,nan,982.3438974206802,nan,nan,nan,nan
1,181,1,1,1.0,1.0,0.5870475228875875,0,0.0,0.0,0.0,0.5323066772612517,0.15689100427585975,0.3754156729853919,0.6891976815371115,0.15689100427585975,0.6225279324377576,8,3,2,5,0,4,nan,nan,nan,nan,nan,nan,nan,nan,nan,nan,nan,nan,0.0,nan,nan,nan,nan,nan,nan,nan,nan,nan,nan,nan,nan,nan,nan,nan,nan,nan,nan,647.625558963744,982.6768198374193,nan,983.2638673603069,nan,nan,nan,nan
1,182,1,1,1.0,1.0,0.5382393181789666,0,0.0,0.0,0.0,0.5326445837157353,0.15646477941048792,0.3761798043052474,0.6891093631262233,0.15646477941048792,0.603057298110798,7,5,8,3,4,6,nan,nan,nan,nan,nan,nan,nan,nan,nan,nan,nan,nan,0.0,nan,nan,nan,nan,nan,nan,nan,nan,nan,nan,nan,nan,nan,nan,nan,nan,nan,nan,647.625558963744,983.6936019342393,nan,984.2318412524182,nan,nan,nan,nan
1,183,1,1,1.0,1.0,0.6573926326818764,0,0.0,0.0,0.0,0.5326789072400496,0.15598469947717084,0.37669420776287876,0.6886636067172205,0.15598469947717084,0.5942264912494769,3,7,2,1,0,4,nan,nan,nan,nan,nan,nan,nan,nan,nan,nan,nan,nan,0.0,nan,nan,nan,nan,nan,nan,nan,nan,nan,nan,nan,nan,nan,nan,nan,nan,nan,nan,647.625558963744,984.7104005664587,nan,985.3677931991406,nan,nan,nan,nan
1,184,1,1,1.0,1.0,0.6402769752312452,0,0.0,0.0,0.0,0.5334393567854266,0.15581118556210447,0.37762817122332215,0.6892505423475311,0.15581118556210447,0.611969642030696,8,1,3,0,5,2,nan,nan,nan,nan,nan,nan,nan,nan,nan,nan,nan,nan,0.0,nan,nan,nan,nan,nan,nan,nan,nan,nan,nan,nan,nan,nan,nan,nan,nan,nan,nan,647.625558963744,985.735491461819,nan,986.3757684370503,nan,nan,nan,nan
1,185,1,1,1.0,1.0,0.7913694435264915,1,0.0,1.0,1.0,0.53408685750328,0.1555594729661506,0.3785273845371294,0.6896463304694306,0.1555594729661506,0.696346350479871,2,8,0,4,1,6,1.0,1.0,1.0,1.0,1.0,1.0,1.0,0.0,1.0,0.0,1.0,0.0,3.0,2.0,6.0,0.0,3.0,1.0,7.0,1.0,5.0,4.0,3.0,2.0,6.0,1.2442519930191338,5.563920359360054,4.581038582837209,3.6515955179929733,2.4696689224801958,6.835806577000767,647.625558963744,986.7523345688824,987.5606970791705,987.5437040124089,995.4449566327967,996.4522282569669,988.5691846320406,995.4366207502317
1,186,1,1,1.0,1.0,0.361369161400944,0,0.0,0.0,0.0,0.5356367525998054,0.15636282445970748,0.37927392814009786,0.6919995770595129,0.15636282445970748,0.5976718600528935,4,5,2,6,3,0,nan,nan,nan,nan,nan,nan,nan,nan,nan,nan,nan,nan,0.0,nan,nan,nan,nan,nan,nan,nan,nan,nan,nan,nan,nan,nan,nan,nan,nan,nan,nan,647.625558963744,996.6700981608592,nan,997.0314673222601,nan,nan,nan,nan
1,187,1,1,1.0,1.0,0.3765213720034808,0,0.0,0.0,0.0,0.5345932340896326,0.15647265642411481,0.37812057766551777,0.6910658905137473,0.15647265642411481,0.5097533256436387,3,6,8,1,5,7,nan,nan,nan,nan,nan,nan,nan,nan,nan,nan,nan,nan,0.0,nan,nan,nan,nan,nan,nan,nan,nan,nan,nan,nan,nan,nan,nan,nan,nan,nan,nan,647.625558963744,997.6869107626844,nan,998.0634321346879,nan,nan,nan,nan
1,188,1,1,1.0,1.0,0.31971141579560935,1,1.0,0.0,1.0,0.5336523301486435,0.156479395075019,0.37717293507362454,0.6901317252236625,0.156479395075019,0.35253398306667805,1,8,4,6,2,3,1.0,1.0,1.0,1.0,1.0,1.0,1.0,0.0,0.0,0.0,1.0,0.0,2.0,1.0,0.0,7.0,4.0,2.0,6.0,1.0,6.0,4.0,5.0,2.0,3.0,1.2999247065745294,7.84395486721769,4.741033416939899,5.724115615012124,2.5240949171129614,3.5973722257185727,647.625558963744,998.7036982763093,999.5121041210368,999.0234096921049,1008.404789932305,1009.415443349164,1000.5205577476881,1008.3964537645224
1,189,1,1,1.0,1.0,0.4247525450773537,0,0.0,0.0,0.0,0.5323864075785073,0.15687620838834782,0.3755101991901595,0.6892626159668551,0.15687620838834782,0.3736617776254813,2,3,0,7,6,8,nan,nan,nan,nan,nan,nan,nan,nan,nan,nan,nan,nan,0.0,nan,nan,nan,nan,nan,nan,nan,nan,nan,nan,nan,nan,nan,nan,nan,nan,nan,nan,647.625558963744,1009.6383314891718,nan,1010.0630840342492,nan,nan,nan,nan
1,190,1,1,1.0,1.0,0.5279354271478951,0,0.0,0.0,0.0,0.5317532672108535,0.1566305387766171,0.3751227284342364,0.6883838059874705,0.1566305387766171,0.4241331293402861,5,4,6,1,7,0,nan,nan,nan,nan,nan,nan,nan,nan,nan,nan,nan,nan,0.0,nan,nan,nan,nan,nan,nan,nan,nan,nan,nan,nan,nan,nan,nan,nan,nan,nan,nan,647.625558963744,1010.655100471573,nan,1011.1830358987208,nan,nan,nan,nan
1,191,1,1,1.0,1.0,0.4711833451874554,0,0.0,0.0,0.0,0.5317309406607776,0.15617215451853989,0.37555878614223775,0.6879030951793175,0.15617215451853989,0.47462377247090143,0,5,8,3,6,7,nan,nan,nan,nan,nan,nan,nan,nan,nan,nan,nan,nan,0.0,nan,nan,nan,nan,nan,nan,nan,nan,nan,nan,nan,nan,nan,nan,nan,nan,nan,nan,647.625558963744,1011.6718435103539,nan,1012.1430268555414,nan,nan,nan,nan
1,192,1,1,nan,nan,nan,0,0.0,0.0,0.0,0.0,0.0,0.0,0.0,0.0,0.0,8,1,3,7,2,4,nan,nan,nan,nan,nan,nan,nan,nan,nan,nan,nan,nan,0.0,nan,nan,nan,nan,nan,nan,nan,nan,nan,nan,nan,nan,nan,nan,nan,nan,nan,nan,647.625558963744,1012.6886640947778,nan,nan,nan,nan,nan,nan
1,193,1,1,1.0,1.0,0.10152847808785737,1,1.0,0.0,1.0,0.531378919756863,0.1557855292472399,0.37559339050962315,0.6871644490041029,0.1557855292472399,0.2863559116376564,5,2,1,3,0,7,1.0,1.0,1.0,1.0,1.0,1.0,0.0,0.0,1.0,1.0,0.0,0.0,2.0,8.0,1.0,1.0,3.0,7.0,0.0,5.0,6.0,2.0,1.0,3.0,4.0,5.393994823098183,7.0334929197561,2.138000351609662,1.1722858345601708,3.225644435035065,4.01025057816878,647.625558963744,1013.7054698544089,1014.5138634401374,1013.8069983324967,1022.6064741574228,1023.6110504968092,1015.5306640681811,1022.5981402704492
1,194,1,1,1.0,1.0,0.4390218174085021,0,0.0,0.0,0.0,0.5288942351229381,0.1587158349298634,0.3701784001930747,0.6876100700528015,0.1587158349298634,0.27027514774817973,6,0,2,4,7,5,nan,nan,nan,nan,nan,nan,nan,nan,nan,nan,nan,nan,0.0,nan,nan,nan,nan,nan,nan,nan,nan,nan,nan,nan,nan,nan,nan,nan,nan,nan,nan,647.625558963744,1023.8316516075283,nan,1024.2706734249368,nan,nan,nan,nan
1,195,1,1,1.0,1.0,0.3628810183145106,0,0.0,0.0,0.0,0.528377726975154,0.15840484551131204,0.3699728814638419,0.686782572486466,0.15840484551131204,0.30114377127029,1,3,5,0,4,2,nan,nan,nan,nan,nan,nan,nan,nan,nan,nan,nan,nan,0.0,nan,nan,nan,nan,nan,nan,nan,nan,nan,nan,nan,nan,nan,nan,nan,nan,nan,nan,647.625558963744,1024.8517624693923,nan,1025.2146434877068,nan,nan,nan,nan
1,196,1,1,1.0,1.0,0.34105331636965275,0,0.0,0.0,0.0,0.5274320314970932,0.15844344994373932,0.36898858155335384,0.6858754814408325,0.15844344994373932,0.3809853840308885,5,4,6,1,3,7,nan,nan,nan,nan,nan,nan,nan,nan,nan,nan,nan,nan,0.0,nan,nan,nan,nan,nan,nan,nan,nan,nan,nan,nan,nan,nan,nan,nan,nan,nan,nan,647.625558963744,1025.8735448413063,nan,1026.214598157676,nan,nan,nan,nan
1,197,1,1,1.0,1.0,0.29223456350155175,1,1.0,0.0,1.0,0.5263730615247781,0.158612536247439,0.36776052527733916,0.6849855977722171,0.158612536247439,0.33205629939523834,4,8,0,6,7,5,1.0,1.0,1.0,1.0,1.0,1.0,0.0,0.0,1.0,1.0,1.0,0.0,3.0,3.0,1.0,0.0,6.0,7.0,2.0,5.0,4.0,3.0,2.0,1.0,6.0,5.480659321183339,4.433616422815248,3.193450121441856,1.9467736836522818,0.9310681042261422,6.240578263066709,647.625558963744,1026.8903480349109,1027.698753309669,1027.1825825984124,1034.9912521557417,1035.9971504788846,1028.707198098302,1034.9829082903452
1,198,1,1,1.0,1.0,0.5579022963065654,0,0.0,0.0,0.0,0.5250502451517656,0.15913445200549137,0.3659157931462742,0.6841846971572569,0.15913445200549137,0.3970633920592566,6,5,3,8,2,7,nan,nan,nan,nan,nan,nan,nan,nan,nan,nan,nan,nan,0.0,nan,nan,nan,nan,nan,nan,nan,nan,nan,nan,nan,nan,nan,nan,nan,nan,nan,nan,647.625558963744,1036.2164378734306,nan,1036.7743401697371,nan,nan,nan,nan
1,199,1,1,1.0,1.0,0.3810791801661253,0,0.0,0.0,0.0,0.525234807236905,0.15870581149651516,0.3665289957403898,0.6839406187334202,0.15870581149651516,0.4104053466580808,1,2,7,3,4,0,nan,nan,nan,nan,nan,nan,nan,nan,nan,nan,nan,nan,0.0,nan,nan,nan,nan,nan,nan,nan,nan,nan,nan,nan,nan,nan,nan,nan,nan,nan,nan,647.625558963744,1037.2332253870554,nan,1037.6143045672216,nan,nan,nan,nan
1,200,1,1,1.0,1.0,0.3882487404625863,0,0.0,0.0,0.0,0.5244294685381855,0.1586261884231342,0.3658032801150513,0.6830556569613198,0.1586261884231342,0.442410072311759,2,4,3,7,8,6,nan,nan,nan,nan,nan,nan,nan,nan,nan,nan,nan,nan,0.0,nan,nan,nan,nan,nan,nan,nan,nan,nan,nan,nan,nan,nan,nan,nan,nan,nan,nan,647.625558963744,1038.2500382738654,nan,1038.638287014328,nan,nan,nan,nan
1,201,1,1,1.0,1.0,0.38740685605444014,0,0.0,0.0,0.0,0.5236729089377655,0.15850846580730898,0.36516444313045654,0.6821813747450745,0.15850846580730898,0.3855782588943839,8,7,5,1,4,0,nan,nan,nan,nan,nan,nan,nan,nan,nan,nan,nan,nan,0.0,nan,nan,nan,nan,nan,nan,nan,nan,nan,nan,nan,nan,nan,nan,nan,nan,nan,nan,647.625558963744,1039.2668360508978,nan,1039.6542429069523,nan,nan,nan,nan
1,202,1,1,1.0,1.0,0.37861254112794995,0,0.0,0.0,0.0,0.5229200578168631,0.15839237105950815,0.364527686757355,0.6813124288763712,0.15839237105950815,0.3847560458816588,5,0,1,4,7,6,nan,nan,nan,nan,nan,nan,nan,nan,nan,nan,nan,nan,0.0,nan,nan,nan,nan,nan,nan,nan,nan,nan,nan,nan,nan,nan,nan,nan,nan,nan,nan,647.625558963744,1040.2835779492743,nan,1040.6621904904023,nan,nan,nan,nan
1,203,1,1,1.0,1.0,0.47380279493518174,0,0.0,0.0,0.0,0.5221271593735175,0.15831641982606762,0.3638107395474499,0.6804435791995851,0.15831641982606762,0.4132740640391906,6,3,7,5,2,8,nan,nan,nan,nan,nan,nan,nan,nan,nan,nan,nan,nan,0.0,nan,nan,nan,nan,nan,nan,nan,nan,nan,nan,nan,nan,nan,nan,nan,nan,nan,nan,647.625558963744,1041.300360331079,nan,1041.7741631260142,nan,nan,nan,nan
1,204,1,1,1.0,1.0,0.4570004562847316,0,0.0,0.0,0.0,0.5218630918082806,0.1579234552506919,0.3639396365575887,0.6797865470589726,0.1579234552506919,0.4364719307826211,5,8,2,1,4,3,nan,nan,nan,nan,nan,nan,nan,nan,nan,nan,nan,nan,0.0,nan,nan,nan,nan,nan,nan,nan,nan,nan,nan,nan,nan,nan,nan,nan,nan,nan,nan,647.625558963744,1042.3171441385057,nan,1042.7741445947904,nan,nan,nan,nan
1,205,1,1,1.0,1.0,0.5601653775665909,0,0.0,0.0,0.0,0.5215105774847831,0.1575659099312136,0.3639446675535695,0.6790764874159967,0.1575659099312136,0.49698954292883474,7,1,5,8,2,4,nan,nan,nan,nan,nan,nan,nan,nan,nan,nan,nan,nan,0.0,nan,nan,nan,nan,nan,nan,nan,nan,nan,nan,nan,nan,nan,nan,nan,nan,nan,nan,647.625558963744,1043.3339524639305,nan,1043.894117841497,nan,nan,nan,nan
1,206,1,1,1.0,1.0,0.6633807606995106,0,0.0,0.0,0.0,0.5217195223500902,0.1571650373020462,0.364554485048044,0.6788845596521365,0.1571650373020462,0.560182198183611,0,3,2,5,7,8,nan,nan,nan,nan,nan,nan,nan,nan,nan,nan,nan,nan,0.0,nan,nan,nan,nan,nan,nan,nan,nan,nan,nan,nan,nan,nan,nan,nan,nan,nan,nan,647.625558963744,1044.350694362307,nan,1045.0140751230065,nan,nan,nan,nan
1,207,1,1,1.0,1.0,0.7265360685996711,0,0.0,0.0,0.0,0.5224811419111086,0.15708392849935343,0.3653972134117552,0.6795650704104621,0.15708392849935343,0.6500274022885909,5,4,6,0,2,1,nan,nan,nan,nan,nan,nan,nan,nan,nan,nan,nan,nan,0.0,nan,nan,nan,nan,nan,nan,nan,nan,nan,nan,nan,nan,nan,nan,nan,nan,nan,nan,647.625558963744,1045.3674967007246,nan,1046.0940327693243,nan,nan,nan,nan
1,208,1,1,nan,nan,nan,0,0.0,0.0,0.0,0.0,0.0,0.0,0.0,0.0,0.0,3,8,7,4,0,6,nan,nan,nan,nan,nan,nan,nan,nan,nan,nan,nan,nan,0.0,nan,nan,nan,nan,nan,nan,nan,nan,nan,nan,nan,nan,nan,nan,nan,nan,nan,nan,647.625558963744,1046.3842867801432,nan,nan,nan,nan,nan,nan
1,209,0,0,0.0,1.0,0.7409019882325083,0,0.0,0.0,0.0,0.5235723447276249,0.15736861624850226,0.36620372847912264,0.6809409609761272,0.15736861624850226,0.7337190284160897,2,7,4,0,6,5,nan,nan,nan,nan,nan,nan,nan,nan,nan,nan,nan,nan,0.0,nan,nan,nan,nan,nan,nan,nan,nan,nan,nan,nan,nan,nan,nan,nan,nan,nan,nan,647.625558963744,1047.4010722979438,nan,1048.1419742861763,nan,nan,nan,nan
1,210,1,1,1.0,1.0,0.6441026602406055,1,0.0,1.0,1.0,0.5247283534696722,0.15774362712676446,0.3669847263429077,0.6824719805964367,0.15774362712676446,0.6925023242365569,4,8,7,3,5,1,1.0,1.0,1.0,1.0,1.0,1.0,0.0,0.0,1.0,1.0,0.0,0.0,2.0,5.0,6.0,7.0,3.0,0.0,2.0,5.0,6.0,1.0,2.0,3.0,4.0,8.160425612237304,9.744357050396502,2.2322090247180313,3.4265121491625905,5.024243594147265,6.320810455828905,647.625558963744,1048.4178592413664,1049.2262953061145,1049.061961901607,1060.019174610963,1061.0188082642853,1050.2347298313398,1060.0108612510376
1,211,1,1,1.0,1.0,0.3136086796876043,0,0.0,0.0,0.0,0.5253599635584073,0.1575639382125277,0.36779602534587963,0.682923901770935,0.1575639382125277,0.5662044427202394,3,1,6,7,8,4,nan,nan,nan,nan,nan,nan,nan,nan,nan,nan,nan,nan,0.0,nan,nan,nan,nan,nan,nan,nan,nan,nan,nan,nan,nan,nan,nan,nan,nan,nan,nan,647.625558963744,1061.2360224504955,nan,1061.5496311301831,nan,nan,nan,nan
1,212,1,1,1.0,1.0,0.3767540091648698,0,0.0,0.0,0.0,0.524245483116982,0.1578938883802631,0.36635159473671897,0.6821393714972451,0.1578938883802631,0.44482178303102654,2,0,1,8,7,6,nan,nan,nan,nan,nan,nan,nan,nan,nan,nan,nan,nan,0.0,nan,nan,nan,nan,nan,nan,nan,nan,nan,nan,nan,nan,nan,nan,nan,nan,nan,nan,647.625558963744,1062.2528253593482,nan,1062.629579368513,nan,nan,nan,nan
1,213,1,1,1.0,1.0,0.31162499100901186,1,1.0,0.0,1.0,0.5234732764470756,0.15783932181621702,0.3656339546308586,0.6813125982632926,0.15783932181621702,0.333995893287162,3,1,0,2,6,8,1.0,1.0,1.0,1.0,1.0,1.0,0.0,0.0,1.0,0.0,0.0,0.0,1.0,5.0,7.0,0.0,6.0,2.0,7.0,5.0,6.0,1.0,2.0,3.0,4.0,8.57953328313306,9.923246247461066,1.236727489857003,3.94014266715385,4.997224603546783,6.532676266273484,647.625558963744,1063.2779390621,1064.086343766423,1063.589564053109,1075.0626486947294,1076.0723872429226,1065.1031133190263,1075.0542897193227
1,214,1,1,1.0,1.0,0.34102452197112143,0,0.0,0.0,0.0,0.522369899960419,0.1581645534572596,0.36420534650315944,0.6805344534176787,0.1581645534572596,0.3431345073816677,2,4,1,6,5,7,nan,nan,nan,nan,nan,nan,nan,nan,nan,nan,nan,nan,0.0,nan,nan,nan,nan,nan,nan,nan,nan,nan,nan,nan,nan,nan,nan,nan,nan,nan,nan,647.625558963744,1076.2961625973694,nan,1076.6371871193405,nan,nan,nan,nan
1,215,1,1,1.0,1.0,0.32392939110286534,0,0.0,0.0,0.0,0.5214302866029615,0.1582906217110557,0.36313966489190586,0.6797209083140172,0.1582906217110557,0.3255263013609995,8,1,7,3,4,2,nan,nan,nan,nan,nan,nan,nan,nan,nan,nan,nan,nan,0.0,nan,nan,nan,nan,nan,nan,nan,nan,nan,nan,nan,nan,nan,nan,nan,nan,nan,nan,647.625558963744,1077.3212281193119,nan,1077.6451575104147,nan,nan,nan,nan
1,216,1,1,1.0,1.0,0.3470748004037887,1,1.0,0.0,1.0,0.5204122407498684,0.15851433764932626,0.3618979031005421,0.6789265783991947,0.15851433764932626,0.3373429044925918,4,8,3,0,5,6,1.0,1.0,1.0,1.0,1.0,1.0,0.0,0.0,0.0,1.0,1.0,1.0,3.0,7.0,3.0,4.0,0.0,5.0,6.0,6.0,5.0,4.0,1.0,2.0,3.0,8.846958054229617,6.488001363817602,5.399306991836056,0.9447888545691967,2.0246042385697365,2.944603828014806,647.625558963744,1078.3380469933618,1079.1464479914866,1078.6851217937656,1089.0392646610271,1090.049591644667,1080.1549021883402,1089.0309381866828
1,217,0,0,0.0,1.0,0.4279932158533484,0,0.0,0.0,0.0,0.5195233307993756,0.15859139666077063,0.360931934138605,0.6781147274601462,0.15859139666077063,0.3663324691200008,3,6,1,7,2,5,nan,nan,nan,nan,nan,nan,nan,nan,nan,nan,nan,nan,0.0,nan,nan,nan,nan,nan,nan,nan,nan,nan,nan,nan,nan,nan,nan,nan,nan,nan,nan,647.625558963744,1090.272770866286,nan,1090.7007640821394,nan,nan,nan,nan
1,218,1,1,1.0,1.0,0.46719487104564905,0,0.0,0.0,0.0,0.5190563404169979,0.15832066855135427,0.3607356718656436,0.6773770089683522,0.15832066855135427,0.4140876291009287,0,2,5,8,4,7,nan,nan,nan,nan,nan,nan,nan,nan,nan,nan,nan,nan,0.0,nan,nan,nan,nan,nan,nan,nan,nan,nan,nan,nan,nan,nan,nan,nan,nan,nan,nan,647.625558963744,1091.2895543884952,nan,1091.7567492595408,nan,nan,nan,nan
1,219,1,1,1.0,1.0,0.378354245563969,0,0.0,0.0,0.0,0.5187930842272956,0.1579613305005438,0.3608317537267518,0.6767544147278395,0.1579613305005438,0.42451411082098883,2,3,8,5,1,6,nan,nan,nan,nan,nan,nan,nan,nan,nan,nan,nan,nan,0.0,nan,nan,nan,nan,nan,nan,nan,nan,nan,nan,nan,nan,nan,nan,nan,nan,nan,nan,647.625558963744,1092.3063330641016,nan,1092.6846873096656,nan,nan,nan,nan
1,220,1,1,1.0,1.0,0.2975270606111735,0,0.0,0.0,0.0,0.5180837971633394,0.15787612611230875,0.3602076710510307,0.6759599232756481,0.15787612611230875,0.3810253924069305,1,6,5,8,2,0,nan,nan,nan,nan,nan,nan,nan,nan,nan,nan,nan,nan,0.0,nan,nan,nan,nan,nan,nan,nan,nan,nan,nan,nan,nan,nan,nan,nan,nan,nan,nan,647.625558963744,1093.3231265645009,nan,1093.620653625112,nan,nan,nan,nan
1,221,1,1,1.0,1.0,0.3127571018412709,1,1.0,0.0,1.0,0.516975471854032,0.15824929957339806,0.35872617228063397,0.6752247714274301,0.15824929957339806,0.32954613600547117,3,8,6,2,0,5,1.0,1.0,1.0,1.0,1.0,1.0,0.0,1.0,1.0,0.0,0.0,1.0,3.0,4.0,8.0,6.0,0.0,2.0,5.0,5.0,6.0,1.0,2.0,3.0,4.0,6.365360486321151,7.604810059769079,1.1271211397834122,3.205176919698715,4.189902688609436,5.2445282496046275,647.625558963744,1094.3399038147181,1095.148356129881,1094.6526609165594,1103.8076551905833,1104.8067819455173,1096.1651422181167,1103.7993278608192
1,222,1,1,1.0,1.0,0.7637936633545905,0,0.0,0.0,0.0,0.5159543800039682,0.15850902086657656,0.3574453591373916,0.6744634008705448,0.15850902086657656,0.4580259419356783,7,5,0,4,6,1,nan,nan,nan,nan,nan,nan,nan,nan,nan,nan,nan,nan,0.0,nan,nan,nan,nan,nan,nan,nan,nan,nan,nan,nan,nan,nan,nan,nan,nan,nan,nan,647.625558963744,1105.0244976133108,nan,1105.7882912766654,nan,nan,nan,nan
1,223,1,1,1.0,1.0,0.47501045605167747,0,0.0,0.0,0.0,0.5171874112644191,0.1590728838242991,0.35811452744012007,0.6762602950887182,0.1590728838242991,0.5171870737491796,4,7,5,1,3,2,nan,nan,nan,nan,nan,nan,nan,nan,nan,nan,nan,nan,0.0,nan,nan,nan,nan,nan,nan,nan,nan,nan,nan,nan,nan,nan,nan,nan,nan,nan,nan,647.625558963744,1106.0412814205047,nan,1106.5162918765564,nan,nan,nan,nan
1,224,0,0,0.0,1.0,0.6262032776139677,0,0.0,0.0,0.0,0.5169786144564352,0.15870625997781374,0.3582723544786215,0.675684874434249,0.15870625997781374,0.6216691323400786,0,8,3,2,5,6,nan,nan,nan,nan,nan,nan,nan,nan,nan,nan,nan,nan,0.0,nan,nan,nan,nan,nan,nan,nan,nan,nan,nan,nan,nan,nan,nan,nan,nan,nan,nan,647.625558963744,1107.058067793725,nan,1107.684271071339,nan,nan,nan,nan
1,225,1,1,1.0,1.0,0.46537910331971943,0,0.0,0.0,0.0,0.5175166669843049,0.15849946004751977,0.35901720693678507,0.6760161270318247,0.15849946004751977,0.5221976123284549,7,4,2,6,1,0,nan,nan,nan,nan,nan,nan,nan,nan,nan,nan,nan,nan,0.0,nan,nan,nan,nan,nan,nan,nan,nan,nan,nan,nan,nan,nan,nan,nan,nan,nan,nan,647.625558963744,1108.0748555923346,nan,1108.5402346956544,nan,nan,nan,nan
1,226,1,1,1.0,1.0,0.4245757863391191,0,0.0,0.0,0.0,0.5172610906918313,0.1581524302565809,0.35910866043525047,0.6754135209484122,0.1581524302565809,0.5053860557576021,3,2,5,7,8,1,nan,nan,nan,nan,nan,nan,nan,nan,nan,nan,nan,nan,0.0,nan,nan,nan,nan,nan,nan,nan,nan,nan,nan,nan,nan,nan,nan,nan,nan,nan,nan,647.625558963744,1109.0916359785479,nan,1109.516211764887,nan,nan,nan,nan
1,227,1,1,1.0,1.0,0.36776069831103086,0,0.0,0.0,0.0,0.5168089672559645,0.15789832579846583,0.3589106414574986,0.6747072930544303,0.15789832579846583,0.4192385293232898,8,5,2,0,3,6,nan,nan,nan,nan,nan,nan,nan,nan,nan,nan,nan,nan,0.0,nan,nan,nan,nan,nan,nan,nan,nan,nan,nan,nan,nan,nan,nan,nan,nan,nan,nan,647.625558963744,1110.108435466187,nan,1110.476196164498,nan,nan,nan,nan
1,228,1,1,1.0,1.0,0.2949543665163219,0,0.0,0.0,0.0,0.516085431969824,0.1578549046390917,0.35823052733073235,0.6739403366089157,0.1578549046390917,0.3624302837221573,6,4,8,1,7,3,nan,nan,nan,nan,nan,nan,nan,nan,nan,nan,nan,nan,0.0,nan,nan,nan,nan,nan,nan,nan,nan,nan,nan,nan,nan,nan,nan,nan,nan,nan,nan,647.625558963744,1111.125220128568,nan,1111.4201744950842,nan,nan,nan,nan
1,229,1,1,1.0,1.0,0.3021447383798659,1,1.0,0.0,1.0,0.5150171659531405,0.15821782103007023,0.3567993449230703,0.6732349869832107,0.15821782103007023,0.3216199344024062,3,6,7,8,5,1,1.0,1.0,1.0,1.0,1.0,1.0,0.0,0.0,1.0,0.0,0.0,0.0,1.0,8.0,2.0,7.0,6.0,0.0,8.0,2.0,3.0,1.0,4.0,5.0,6.0,2.4124125079251826,4.139799869153649,1.2679094322957098,6.610090297879651,7.443026827182621,9.090392395621166,647.625558963744,1112.1420116336085,1112.9504448473454,1112.4441563719884,1123.0849299822003,1124.0878627507482,1113.9588825087994,1123.0765684409998
1,230,1,1,nan,nan,nan,0,0.0,0.0,0.0,0.0,0.0,0.0,0.0,0.0,0.0,4,1,6,2,3,5,nan,nan,nan,nan,nan,nan,nan,nan,nan,nan,nan,nan,0.0,nan,nan,nan,nan,nan,nan,nan,nan,nan,nan,nan,nan,nan,nan,nan,nan,nan,nan,647.625558963744,1124.3101131340954,nan,nan,nan,nan,nan,nan
1,231,1,1,1.0,1.0,0.7168893206398934,0,0.0,0.0,0.0,0.5139937408205767,0.15852236468594474,0.355471376134632,0.6725161055065214,0.15852236468594474,0.5095170295098796,7,8,3,5,0,4,nan,nan,nan,nan,nan,nan,nan,nan,nan,nan,nan,nan,0.0,nan,nan,nan,nan,nan,nan,nan,nan,nan,nan,nan,nan,nan,nan,nan,nan,nan,nan,647.625558963744,1125.32685959409,nan,1126.0437489147298,nan,nan,nan,nan
1,232,1,1,1.0,1.0,0.45206803386099637,0,0.0,0.0,0.0,0.514964533068516,0.1587612391202725,0.35620329394824346,0.6737257721887885,0.1587612391202725,0.5844786772504449,2,5,1,0,4,8,nan,nan,nan,nan,nan,nan,nan,nan,nan,nan,nan,nan,0.0,nan,nan,nan,nan,nan,nan,nan,nan,nan,nan,nan,nan,nan,nan,nan,nan,nan,nan,647.625558963744,1126.343657656107,nan,1126.795725689968,nan,nan,nan,nan
1,233,1,1,1.0,1.0,0.7632488475646824,0,0.0,0.0,0.0,0.5146650259294325,0.1584419605390467,0.35622306539038584,0.6731069864684792,0.1584419605390467,0.6440687340218574,1,3,0,7,2,4,nan,nan,nan,nan,nan,nan,nan,nan,nan,nan,nan,nan,0.0,nan,nan,nan,nan,nan,nan,nan,nan,nan,nan,nan,nan,nan,nan,nan,nan,nan,nan,647.625558963744,1127.3604397526942,nan,1128.123688600259,nan,nan,nan,nan
1,234,1,1,nan,nan,nan,0,0.0,0.0,0.0,0.0,0.0,0.0,0.0,0.0,0.0,3,2,7,8,0,1,nan,nan,nan,nan,nan,nan,nan,nan,nan,nan,nan,nan,0.0,nan,nan,nan,nan,nan,nan,nan,nan,nan,nan,nan,nan,nan,nan,nan,nan,nan,nan,647.625558963744,1128.3855531704612,nan,nan,nan,nan,nan,nan
1,235,1,1,1.0,1.0,0.7292992060538381,1,0.0,1.0,1.0,0.5158431483068507,0.1589853874876733,0.3568577608191774,0.6748285357945241,0.1589853874876733,0.7462740268092602,6,0,5,4,1,2,1.0,1.0,1.0,1.0,1.0,1.0,1.0,0.0,0.0,0.0,0.0,0.0,1.0,6.0,7.0,4.0,5.0,0.0,7.0,1.0,4.0,3.0,2.0,5.0,6.0,0.8614670913666487,4.6541422684676945,2.900984631385654,2.05539816734381,6.46970798028633,7.300911419093609,647.625558963744,1129.4023309908807,1130.210765345022,1130.1316301969346,1138.5700667148922,1139.5782033163123,1131.2275594158564,1138.561733968556
1,236,1,1,1.0,1.0,0.3681182072032243,0,0.0,0.0,0.0,0.5168500165037705,0.15928287316841777,0.3575671433353527,0.6761328896721883,0.15928287316841777,0.5487087066285312,8,2,1,0,4,7,nan,nan,nan,nan,nan,nan,nan,nan,nan,nan,nan,nan,0.0,nan,nan,nan,nan,nan,nan,nan,nan,nan,nan,nan,nan,nan,nan,nan,nan,nan,nan,647.625558963744,1139.7952333313879,nan,1140.163351538591,nan,nan,nan,nan
1,237,1,1,1.0,1.0,0.3592774218413979,0,0.0,0.0,0.0,0.5161517450986036,0.15923344007181223,0.3569183050267914,0.6753851851704158,0.15923344007181223,0.4855649450328201,2,6,8,5,7,1,nan,nan,nan,nan,nan,nan,nan,nan,nan,nan,nan,nan,0.0,nan,nan,nan,nan,nan,nan,nan,nan,nan,nan,nan,nan,nan,nan,nan,nan,nan,nan,647.625558963744,1140.8120217001997,nan,1141.171299122041,nan,nan,nan,nan
1,238,0,0,0.0,1.0,0.5664505744352937,0,0.0,0.0,0.0,0.5154186875132896,0.15922080994655372,0.3561978775667358,0.6746394974598433,0.15922080994655372,0.43128206782663864,8,5,6,0,2,7,nan,nan,nan,nan,nan,nan,nan,nan,nan,nan,nan,nan,0.0,nan,nan,nan,nan,nan,nan,nan,nan,nan,nan,nan,nan,nan,nan,nan,nan,nan,nan,647.625558963744,1141.8288294554222,nan,1142.3952800298575,nan,nan,nan,nan
1,239,1,1,1.0,1.0,0.541335731279105,0,0.0,0.0,0.0,0.5156560451268803,0.1588880420978617,0.3567680030290187,0.674544087224742,0.1588880420978617,0.48902124251859885,2,7,3,5,4,0,nan,nan,nan,nan,nan,nan,nan,nan,nan,nan,nan,nan,0.0,nan,nan,nan,nan,nan,nan,nan,nan,nan,nan,nan,nan,nan,nan,nan,nan,nan,nan,647.625558963744,1142.8539203507826,nan,1143.3952560820617,nan,nan,nan,nan
1,240,1,1,1.0,1.0,0.49246366531588137,0,0.0,0.0,0.0,0.5157749325627703,0.15852940383955572,0.3572455287232146,0.674304336402326,0.15852940383955572,0.5334166570100933,4,0,2,8,5,7,nan,nan,nan,nan,nan,nan,nan,nan,nan,nan,nan,nan,0.0,nan,nan,nan,nan,nan,nan,nan,nan,nan,nan,nan,nan,nan,nan,nan,nan,nan,nan,647.625558963744,1143.8707606068347,nan,1144.3632242721505,nan,nan,nan,nan
1,241,1,1,1.0,1.0,0.5796869490295649,0,0.0,0.0,0.0,0.5156675073680841,0.1581715867773583,0.35749592059072577,0.6738390941454424,0.1581715867773583,0.5378287818748504,8,7,4,5,0,6,nan,nan,nan,nan,nan,nan,nan,nan,nan,nan,nan,nan,0.0,nan,nan,nan,nan,nan,nan,nan,nan,nan,nan,nan,nan,nan,nan,nan,nan,nan,nan,647.625558963744,1144.887507922016,nan,1145.4671948710456,nan,nan,nan,nan
1,242,1,1,1.0,1.0,0.5068774807732552,0,0.0,0.0,0.0,0.5159611745316689,0.15786767374124047,0.35809350079042845,0.6738288482729093,0.15786767374124047,0.5263426983729005,2,5,8,0,6,1,nan,nan,nan,nan,nan,nan,nan,nan,nan,nan,nan,nan,0.0,nan,nan,nan,nan,nan,nan,nan,nan,nan,nan,nan,nan,nan,nan,nan,nan,nan,nan,647.625558963744,1145.9042965760455,nan,1146.4111740568187,nan,nan,nan,nan
1,243,1,1,1.0,1.0,0.6580540521536022,0,0.0,0.0,0.0,0.5159196964779775,0.15750802346218234,0.3584116730157952,0.6734277199401599,0.15750802346218234,0.5815394939854741,4,2,3,6,8,5,nan,nan,nan,nan,nan,nan,nan,nan,nan,nan,nan,nan,0.0,nan,nan,nan,nan,nan,nan,nan,nan,nan,nan,nan,nan,nan,nan,nan,nan,nan,nan,647.625558963744,1146.9210578608327,nan,1147.5791119129863,nan,nan,nan,nan
1,244,1,1,1.0,1.0,0.7051944530103356,0,0.0,0.0,0.0,0.5165657617310485,0.15744021389998167,0.35912554783106687,0.6740059756310302,0.15744021389998167,0.623375328645731,5,1,8,0,3,7,nan,nan,nan,nan,nan,nan,nan,nan,nan,nan,nan,nan,0.0,nan,nan,nan,nan,nan,nan,nan,nan,nan,nan,nan,nan,nan,nan,nan,nan,nan,nan,647.625558963744,1147.9378630502615,nan,1148.6430575032718,nan,nan,nan,nan
1,245,1,1,1.0,1.0,0.7283837671857327,1,0.0,1.0,1.0,0.5174192852210001,0.15759292875508382,0.3598263564659163,0.6750122139760839,0.15759292875508382,0.6972107574498901,8,0,4,7,6,3,1.0,1.0,1.0,1.0,1.0,1.0,0.0,1.0,1.0,1.0,0.0,1.0,4.0,4.0,0.0,4.0,7.0,5.0,3.0,6.0,1.0,2.0,3.0,4.0,5.0,7.380365303251892,1.3966333742719144,2.212565717753023,3.29258351912722,5.349687978159636,6.1405185929033905,647.625558963744,1148.9546365940478,1149.7630375921726,1149.6830203612335,1158.1973710281309,1159.202459397493,1150.7798365096096,1158.1890445537865
1,246,0,0,0.0,1.0,0.5802095276303589,0,0.0,0.0,0.0,0.5183695756803006,0.15787094068883262,0.360498634991468,0.6762405163691332,0.15787094068883262,0.6712625826088091,7,1,5,2,4,6,nan,nan,nan,nan,nan,nan,nan,nan,nan,nan,nan,nan,0.0,nan,nan,nan,nan,nan,nan,nan,nan,nan,nan,nan,nan,nan,nan,nan,nan,nan,nan,647.625558963744,1159.4225470526144,nan,1160.0027565802447,nan,nan,nan,nan
1,247,1,1,1.0,1.0,0.5953871116507798,0,0.0,0.0,0.0,0.5186468848818704,0.15757075369656595,0.36107613118530446,0.6762176385784363,0.15757075369656595,0.6346601354889572,2,8,0,6,3,7,nan,nan,nan,nan,nan,nan,nan,nan,nan,nan,nan,nan,0.0,nan,nan,nan,nan,nan,nan,nan,nan,nan,nan,nan,nan,nan,nan,nan,nan,nan,nan,647.625558963744,1160.4393511016387,nan,1161.0347382132895,nan,nan,nan,nan
1,248,1,1,1.0,1.0,0.6745422163512558,0,0.0,0.0,0.0,0.5189894751799459,0.15730185568619418,0.3616876194937517,0.67629133086614,0.15730185568619418,0.6167129518774649,8,0,2,1,5,3,nan,nan,nan,nan,nan,nan,nan,nan,nan,nan,nan,nan,0.0,nan,nan,nan,nan,nan,nan,nan,nan,nan,nan,nan,nan,nan,nan,nan,nan,nan,nan,647.625558963744,1161.4561354792677,nan,1162.130677695619,nan,nan,nan,nan
1,249,1,1,1.0,1.0,0.7057044873945415,0,0.0,0.0,0.0,0.5196808206962629,0.15729260555220698,0.3623882151440559,0.6769734262484699,0.15729260555220698,0.6585446051321924,2,8,7,5,3,6,nan,nan,nan,nan,nan,nan,nan,nan,nan,nan,nan,nan,0.0,nan,nan,nan,nan,nan,nan,nan,nan,nan,nan,nan,nan,nan,nan,nan,nan,nan,nan,647.625558963744,1162.4729346816894,nan,1163.178639169084,nan,nan,nan,nan
1,250,1,1,1.0,1.0,0.6649969622958452,1,0.0,1.0,1.0,0.5205039342657243,0.15742913186184634,0.3630748024038779,0.6779330661275706,0.15742913186184634,0.6817478886805475,6,3,4,0,1,5,1.0,1.0,1.0,1.0,1.0,1.0,0.0,0.0,1.0,1.0,0.0,0.0,2.0,3.0,5.0,4.0,0.0,7.0,7.0,5.0,6.0,1.0,2.0,4.0,3.0,5.55743360077031,6.412949341116473,1.16596528631635,1.8301177981775254,4.430153663037345,3.6771454156842083,647.625558963744,1163.4896660314407,1164.2981009560172,1164.1546629937366,1171.7656510549132,1172.7740784529597,1165.3148633812089,1171.757282386534
1,251,1,1,1.0,1.0,0.4191929141525179,0,0.0,0.0,0.0,0.5211404674288526,0.15737318918180423,0.36376727824704835,0.6785136566106568,0.15737318918180423,0.5966314546143016,5,1,8,6,2,3,nan,nan,nan,nan,nan,nan,nan,nan,nan,nan,nan,nan,0.0,nan,nan,nan,nan,nan,nan,nan,nan,nan,nan,nan,nan,nan,nan,nan,nan,nan,nan,647.625558963744,1172.9991632471792,nan,1173.4183561613318,nan,nan,nan,nan
1,252,1,1,1.0,1.0,0.3864061739295721,0,0.0,0.0,0.0,0.5206933290372897,0.15717213872702537,0.3635211903102643,0.6778654677643151,0.15717213872702537,0.4901986834593117,8,6,4,1,7,5,nan,nan,nan,nan,nan,nan,nan,nan,nan,nan,nan,nan,0.0,nan,nan,nan,nan,nan,nan,nan,nan,nan,nan,nan,nan,nan,nan,nan,nan,nan,nan,647.625558963744,1174.0159216809552,nan,1174.4023278548848,nan,nan,nan,nan
1,253,1,1,1.0,1.0,0.3296084764879197,0,0.0,0.0,0.0,0.5201069222464263,0.15707835784024507,0.36302856440618125,0.6771852800866713,0.15707835784024507,0.3784025215233366,5,3,7,8,6,0,nan,nan,nan,nan,nan,nan,nan,nan,nan,nan,nan,nan,0.0,nan,nan,nan,nan,nan,nan,nan,nan,nan,nan,nan,nan,nan,nan,nan,nan,nan,nan,647.625558963744,1175.0327071989886,nan,1175.3623156754766,nan,nan,nan,nan
1,254,1,1,1.0,1.0,0.44077999610453844,0,0.0,0.0,0.0,0.5192786681344328,0.15723685652716038,0.36204181160727245,0.6765155246615931,0.15723685652716038,0.3855982155073434,8,0,3,5,2,6,nan,nan,nan,nan,nan,nan,nan,nan,nan,nan,nan,nan,0.0,nan,nan,nan,nan,nan,nan,nan,nan,nan,nan,nan,nan,nan,nan,nan,nan,nan,nan,647.625558963744,1176.0494912914,nan,1176.4902712875046,nan,nan,nan,nan
1,255,1,1,1.0,1.0,0.5199656062759459,0,0.0,0.0,0.0,0.5189388470433942,0.15698076711863637,0.3619580799247578,0.6759196141620306,0.15698076711863637,0.430118026289468,0,8,4,1,6,7,nan,nan,nan,nan,nan,nan,nan,nan,nan,nan,nan,nan,0.0,nan,nan,nan,nan,nan,nan,nan,nan,nan,nan,nan,nan,nan,nan,nan,nan,nan,nan,647.625558963744,1177.0662745283917,nan,1177.5862401346676,nan,nan,nan,nan
1,256,1,1,1.0,1.0,0.6391346007585526,0,0.0,0.0,0.0,0.5189432727297415,0.15664209558462788,0.3623011771451136,0.6755853683143693,0.15664209558462788,0.5332934010463456,8,0,3,7,2,4,nan,nan,nan,nan,nan,nan,nan,nan,nan,nan,nan,nan,0.0,nan,nan,nan,nan,nan,nan,nan,nan,nan,nan,nan,nan,nan,nan,nan,nan,nan,nan,647.625558963744,1178.0830620420165,nan,1178.722196642775,nan,nan,nan,nan
1,257,1,1,1.0,1.0,0.7663327162154019,0,0.0,0.0,0.0,0.5194591153393072,0.1565029453417034,0.36295616999760383,0.6759620606810106,0.1565029453417034,0.6418109744166335,1,5,7,4,8,0,nan,nan,nan,nan,nan,nan,nan,nan,nan,nan,nan,nan,0.0,nan,nan,nan,nan,nan,nan,nan,nan,nan,nan,nan,nan,nan,nan,nan,nan,nan,nan,647.625558963744,1179.0998449940234,nan,1179.8661777102388,nan,nan,nan,nan
1,258,1,1,nan,nan,nan,0,0.0,0.0,0.0,0.0,0.0,0.0,0.0,0.0,0.0,2,6,5,8,4,1,nan,nan,nan,nan,nan,nan,nan,nan,nan,nan,nan,nan,0.0,nan,nan,nan,nan,nan,nan,nan,nan,nan,nan,nan,nan,nan,nan,nan,nan,nan,nan,647.625558963744,1180.1166307970416,nan,nan,nan,nan,nan,nan
1,259,1,1,nan,nan,nan,0,0.0,0.0,0.0,0.0,0.0,0.0,0.0,0.0,0.0,6,0,8,2,7,4,nan,nan,nan,nan,nan,nan,nan,nan,nan,nan,nan,nan,0.0,nan,nan,nan,nan,nan,nan,nan,nan,nan,nan,nan,nan,nan,nan,nan,nan,nan,nan,647.625558963744,1181.1334191658534,nan,nan,nan,nan,nan,nan
1,260,1,1,1.0,1.0,0.6679109146352857,0,0.0,0.0,0.0,0.5205141307276666,0.15699631402129632,0.3635178167063703,0.6775104447489629,0.15699631402129632,0.6679109146352857,3,4,1,8,5,6,nan,nan,nan,nan,nan,nan,nan,nan,nan,nan,nan,nan,0.0,nan,nan,nan,nan,nan,nan,nan,nan,nan,nan,nan,nan,nan,nan,nan,nan,nan,nan,647.625558963744,1182.1502043986693,nan,1182.8181153133046,nan,nan,nan,nan
1,261,1,1,nan,nan,nan,0,0.0,0.0,0.0,0.0,0.0,0.0,0.0,0.0,0.0,4,2,8,3,1,0,nan,nan,nan,nan,nan,nan,nan,nan,nan,nan,nan,nan,0.0,nan,nan,nan,nan,nan,nan,nan,nan,nan,nan,nan,nan,nan,nan,nan,nan,nan,nan,647.625558963744,1183.1670255532954,nan,nan,nan,nan,nan,nan
1,262,1,1,1.0,1.0,0.6978960300330073,1,0.0,1.0,1.0,0.5211413510847203,0.15695545558426216,0.3641858955004581,0.6780968066689824,0.15695545558426216,0.6829034723341465,3,1,4,0,2,6,1.0,1.0,1.0,1.0,1.0,1.0,1.0,0.0,0.0,1.0,1.0,1.0,4.0,3.0,5.0,8.0,0.0,2.0,6.0,4.0,5.0,6.0,1.0,2.0,3.0,3.5501351777929813,5.686530731618404,6.949889768147841,1.16871730517596,1.9336567637510598,2.775184049969539,647.625558963744,1184.1921458132565,1185.000542534981,1184.8900418432895,1193.0097850186285,1194.0206827616785,1186.0173368908,1193.0014505614527
1,263,1,1,1.0,1.0,0.5424290692899376,0,0.0,0.0,0.0,0.5218903115887384,0.15704283082114937,0.3648474807675891,0.6789331424098878,0.15704283082114937,0.6201625496614724,7,8,3,6,5,1,nan,nan,nan,nan,nan,nan,nan,nan,nan,nan,nan,nan,0.0,nan,nan,nan,nan,nan,nan,nan,nan,nan,nan,nan,nan,nan,nan,nan,nan,nan,nan,647.625558963744,1194.243313746294,nan,1194.785742815584,nan,nan,nan,nan
1,264,1,1,1.0,1.0,0.733660584082827,0,0.0,0.0,0.0,0.521976973013638,0.1567168215178445,0.3652601514957935,0.6786937945314825,0.1567168215178445,0.657995227801924,5,7,1,0,8,2,nan,nan,nan,nan,nan,nan,nan,nan,nan,nan,nan,nan,0.0,nan,nan,nan,nan,nan,nan,nan,nan,nan,nan,nan,nan,nan,nan,nan,nan,nan,nan,647.625558963744,1195.2600804478861,nan,1195.993741031969,nan,nan,nan,nan
1,265,1,1,1.0,1.0,0.5884584560990334,0,0.0,0.0,0.0,0.5228663999509034,0.15698552230585586,0.3658808776450476,0.6798519222567593,0.15698552230585586,0.6215160364905993,6,0,5,7,2,3,nan,nan,nan,nan,nan,nan,nan,nan,nan,nan,nan,nan,0.0,nan,nan,nan,nan,nan,nan,nan,nan,nan,nan,nan,nan,nan,nan,nan,nan,nan,nan,647.625558963744,1196.2852289325092,nan,1196.8736873886082,nan,nan,nan,nan
1,266,0,0,0.0,1.0,0.6756729017943144,0,0.0,0.0,0.0,0.5231408437004773,0.15671396030001744,0.36642688340045987,0.6798548040004948,0.15671396030001744,0.6659306473253915,0,5,7,2,6,8,nan,nan,nan,nan,nan,nan,nan,nan,nan,nan,nan,nan,0.0,nan,nan,nan,nan,nan,nan,nan,nan,nan,nan,nan,nan,nan,nan,nan,nan,nan,nan,647.625558963744,1197.3019930680748,nan,1197.9776659698691,nan,nan,nan,nan
1,267,1,1,1.0,1.0,0.5708156586624682,0,0.0,0.0,0.0,0.523776393942535,0.15669547837428027,0.3670809155682547,0.6804718723168153,0.15669547837428027,0.6116490055186053,1,2,3,6,0,4,nan,nan,nan,nan,nan,nan,nan,nan,nan,nan,nan,nan,0.0,nan,nan,nan,nan,nan,nan,nan,nan,nan,nan,nan,nan,nan,nan,nan,nan,nan,nan,647.625558963744,1198.318812512327,nan,1198.8896281709895,nan,nan,nan,nan
1,268,0,0,0.0,1.0,0.6500602832529694,0,0.0,0.0,0.0,0.5239715776135719,0.1563992791293533,0.36757229848421863,0.6803708567429252,0.1563992791293533,0.6321829479032507,4,8,5,0,2,1,nan,nan,nan,nan,nan,nan,nan,nan,nan,nan,nan,nan,0.0,nan,nan,nan,nan,nan,nan,nan,nan,nan,nan,nan,nan,nan,nan,nan,nan,nan,nan,647.625558963744,1199.3355538405012,nan,1199.9856141237542,nan,nan,nan,nan
1,269,1,1,1.0,1.0,0.6809653989039361,0,0.0,0.0,0.0,0.5244926053228257,0.15628525629895493,0.36820734902387076,0.6807778616217807,0.15628525629895493,0.633947113606458,7,6,4,8,1,3,nan,nan,nan,nan,nan,nan,nan,nan,nan,nan,nan,nan,0.0,nan,nan,nan,nan,nan,nan,nan,nan,nan,nan,nan,nan,nan,nan,nan,nan,nan,nan,647.625558963744,1200.3606216432527,nan,1201.0415870421566,nan,nan,nan,nan
1,270,1,1,1.0,1.0,0.7520779836922884,1,0.0,1.0,1.0,0.5251365262840648,0.15628470198924216,0.36885182429482266,0.681421228273307,0.15628470198924216,0.694367888616398,3,7,1,2,8,6,1.0,1.0,1.0,1.0,1.0,1.0,0.0,1.0,1.0,1.0,0.0,1.0,4.0,2.0,7.0,1.0,2.0,0.0,6.0,6.0,1.0,5.0,2.0,4.0,3.0,10.756102950079367,1.9671325779054314,8.548490181565285,2.8765460327267647,6.083982897689566,3.884356770897284,647.625558963744,1201.3774676010944,1202.1858691694215,1202.1295455847867,1213.995584168937,1215.0020848971326,1203.2026364412159,1213.9872434397694
1,271,1,1,1.0,1.0,0.4203868906479329,0,0.0,0.0,0.0,0.5260666142242625,0.15663657440929257,0.3694300398149699,0.6827031886335551,0.15663657440929257,0.6178100910813858,0,1,4,6,3,5,nan,nan,nan,nan,nan,nan,nan,nan,nan,nan,nan,nan,0.0,nan,nan,nan,nan,nan,nan,nan,nan,nan,nan,nan,nan,nan,nan,nan,nan,nan,nan,647.625558963744,1215.2207390964031,nan,1215.641125987051,nan,nan,nan,nan
1,272,1,1,1.0,1.0,0.40355262137018144,0,0.0,0.0,0.0,0.5256352684137469,0.15646172683833856,0.36917354157540827,0.6820969952520854,0.15646172683833856,0.5253391652368009,5,6,7,3,4,8,nan,nan,nan,nan,nan,nan,nan,nan,nan,nan,nan,nan,0.0,nan,nan,nan,nan,nan,nan,nan,nan,nan,nan,nan,nan,nan,nan,nan,nan,nan,nan,647.625558963744,1216.237534307642,nan,1216.641086929012,nan,nan,nan,nan
1,273,0,0,0.0,1.0,0.5547525705769658,0,0.0,0.0,0.0,0.5251389974908055,0.1563364910942345,0.368802506396571,0.68147548858504,0.1563364910942345,0.4595640275316934,4,1,5,2,0,6,nan,nan,nan,nan,nan,nan,nan,nan,nan,nan,nan,nan,0.0,nan,nan,nan,nan,nan,nan,nan,nan,nan,nan,nan,nan,nan,nan,nan,nan,nan,nan,647.625558963744,1217.2543226764537,nan,1217.8090752470307,nan,nan,nan,nan
1,274,1,1,1.0,1.0,0.5939143125433475,0,0.0,0.0,0.0,0.5252588904992516,0.15603103126658735,0.3692278592326642,0.6812899217658389,0.15603103126658735,0.5174065014968315,3,0,1,4,6,8,nan,nan,nan,nan,nan,nan,nan,nan,nan,nan,nan,nan,0.0,nan,nan,nan,nan,nan,nan,nan,nan,nan,nan,nan,nan,nan,nan,nan,nan,nan,nan,647.625558963744,1218.2711036326364,nan,1218.8650179451797,nan,nan,nan,nan
1,275,1,1,1.0,1.0,0.5691298940218985,0,0.0,0.0,0.0,0.5255357268784616,0.15577690561411683,0.3697588212643448,0.6813126324925785,0.15577690561411683,0.5725989257140706,6,2,0,7,3,5,nan,nan,nan,nan,nan,nan,nan,nan,nan,nan,nan,nan,0.0,nan,nan,nan,nan,nan,nan,nan,nan,nan,nan,nan,nan,nan,nan,nan,nan,nan,nan,647.625558963744,1219.2878931418527,nan,1219.8570230358746,nan,nan,nan,nan
