block,trial,freq_trials,correct_response,actual_response,acc,rts,probe_trials,trials_colorind0,trials_colorind1,trials_colorind2,trials_colorind3,trials_colorind4,trials_colorind5,wholereport_resp0,wholereport_resp1,wholereport_resp2,wholereport_resp3,wholereport_resp4,wholereport_resp5,wholereport_respacc0,wholereport_respacc1,wholereport_respacc2,wholereport_respacc3,wholereport_respacc4,wholereport_respacc5,wholereport_respacc_total,wholereport_respcolorind0,wholereport_respcolorind1,wholereport_respcolorind2,wholereport_respcolorind3,wholereport_respcolorind4,wholereport_respcolorind5,wholereport_resporder0,wholereport_resporder1,wholereport_resporder2,wholereport_resporder3,wholereport_resporder4,wholereport_resporder5,wholereport_rts0,wholereport_rts1,wholereport_rts2,wholereport_rts3,wholereport_rts4,wholereport_rts5,time_blockstart,time_encarray_offset,time_encarray_onset,time_response,time_iti_offset,time_iti_onset,time_memprobe_offset,time_memprobe_onset
1,1,1,1,1.0,1.0,0.5029092649929225,0,3,7,6,4,2,5,nan,nan,nan,nan,nan,nan,nan,nan,nan,nan,nan,nan,0.0,nan,nan,nan,nan,nan,nan,nan,nan,nan,nan,nan,nan,nan,nan,nan,nan,nan,nan,869.9690231489949,870.9940831118729,nan,871.4969923768658,nan,nan,nan,nan
1,2,1,1,1.0,1.0,0.31878182920627296,0,2,5,8,3,7,0,nan,nan,nan,nan,nan,nan,nan,nan,nan,nan,nan,nan,0.0,nan,nan,nan,nan,nan,nan,nan,nan,nan,nan,nan,nan,nan,nan,nan,nan,nan,nan,869.9690231489949,871.9942216686904,nan,872.3130034978967,nan,nan,nan,nan
1,3,0,0,0.0,1.0,0.4785805740393698,0,6,2,3,7,1,4,nan,nan,nan,nan,nan,nan,nan,nan,nan,nan,nan,nan,0.0,nan,nan,nan,nan,nan,nan,nan,nan,nan,nan,nan,nan,nan,nan,nan,nan,nan,nan,869.9690231489949,872.9943676379044,nan,873.4729482119437,nan,nan,nan,nan
1,4,1,1,1.0,1.0,0.4144470258615911,0,4,7,2,5,6,3,nan,nan,nan,nan,nan,nan,nan,nan,nan,nan,nan,nan,0.0,nan,nan,nan,nan,nan,nan,nan,nan,nan,nan,nan,nan,nan,nan,nan,nan,nan,nan,869.9690231489949,873.9944788254797,nan,874.4089258513413,nan,nan,nan,nan
1,5,1,1,1.0,1.0,0.38229529303498566,0,3,5,0,6,4,2,nan,nan,nan,nan,nan,nan,nan,nan,nan,nan,nan,nan,0.0,nan,nan,nan,nan,nan,nan,nan,nan,nan,nan,nan,nan,nan,nan,nan,nan,nan,nan,869.9690231489949,874.9946076890919,nan,875.3769029821269,nan,nan,nan,nan
1,6,1,1,1.0,1.0,0.32613189658150077,0,8,3,1,7,2,6,nan,nan,nan,nan,nan,nan,nan,nan,nan,nan,nan,nan,0.0,nan,nan,nan,nan,nan,nan,nan,nan,nan,nan,nan,nan,nan,nan,nan,nan,nan,nan,869.9690231489949,875.9947402586695,nan,876.320872155251,nan,nan,nan,nan
1,7,1,1,1.0,1.0,0.3019771140534431,0,1,6,2,0,8,4,nan,nan,nan,nan,nan,nan,nan,nan,nan,nan,nan,nan,0.0,nan,nan,nan,nan,nan,nan,nan,nan,nan,nan,nan,nan,nan,nan,nan,nan,nan,nan,869.9690231489949,876.9948736838996,nan,877.2968507979531,nan,nan,nan,nan
1,8,1,1,1.0,1.0,0.3898261112626642,0,0,8,3,5,7,2,nan,nan,nan,nan,nan,nan,nan,nan,nan,nan,nan,nan,0.0,nan,nan,nan,nan,nan,nan,nan,nan,nan,nan,nan,nan,nan,nan,nan,nan,nan,nan,869.9690231489949,877.9949965602718,nan,878.3848226715345,nan,nan,nan,nan
1,9,1,1,1.0,1.0,0.3416682181414217,0,2,0,7,8,6,3,nan,nan,nan,nan,nan,nan,nan,nan,nan,nan,nan,nan,0.0,nan,nan,nan,nan,nan,nan,nan,nan,nan,nan,nan,nan,nan,nan,nan,nan,nan,nan,869.9690231489949,878.9951795921661,nan,879.3368478103075,nan,nan,nan,nan
1,10,1,1,1.0,1.0,0.3335267237853259,0,7,1,4,5,8,0,nan,nan,nan,nan,nan,nan,nan,nan,nan,nan,nan,nan,0.0,nan,nan,nan,nan,nan,nan,nan,nan,nan,nan,nan,nan,nan,nan,nan,nan,nan,nan,869.9690231489949,879.995250010863,nan,880.3287767346483,nan,nan,nan,nan
1,11,1,1,1.0,1.0,0.2933871631976217,0,0,5,7,8,3,6,nan,nan,nan,nan,nan,nan,nan,nan,nan,nan,nan,nan,0.0,nan,nan,nan,nan,nan,nan,nan,nan,nan,nan,nan,nan,nan,nan,nan,nan,nan,nan,869.9690231489949,880.9953740278725,nan,881.2887611910701,nan,nan,nan,nan
1,12,1,1,1.0,1.0,0.30124185094609857,0,3,7,8,4,2,1,nan,nan,nan,nan,nan,nan,nan,nan,nan,nan,nan,nan,0.0,nan,nan,nan,nan,nan,nan,nan,nan,nan,nan,nan,nan,nan,nan,nan,nan,nan,nan,869.9690231489949,881.9955014658626,nan,882.2967433168087,nan,nan,nan,nan
1,13,1,1,1.0,1.0,0.3010750694666058,0,1,2,3,0,5,6,nan,nan,nan,nan,nan,nan,nan,nan,nan,nan,nan,nan,0.0,nan,nan,nan,nan,nan,nan,nan,nan,nan,nan,nan,nan,nan,nan,nan,nan,nan,nan,869.9690231489949,882.995629474055,nan,883.2967045435216,nan,nan,nan,nan
1,14,1,1,1.0,1.0,0.24494075262919068,0,2,3,1,7,8,4,nan,nan,nan,nan,nan,nan,nan,nan,nan,nan,nan,nan,0.0,nan,nan,nan,nan,nan,nan,nan,nan,nan,nan,nan,nan,nan,nan,nan,nan,nan,nan,869.9690231489949,883.9957566270605,nan,884.2406973796897,nan,nan,nan,nan
1,15,1,1,1.0,1.0,0.2367704634089023,0,3,7,0,2,6,5,nan,nan,nan,nan,nan,nan,nan,nan,nan,nan,nan,nan,0.0,nan,nan,nan,nan,nan,nan,nan,nan,nan,nan,nan,nan,nan,nan,nan,nan,nan,nan,869.9690231489949,884.9958874862641,nan,885.232657949673,nan,nan,nan,nan
1,16,1,1,1.0,1.0,0.22862526285462081,0,0,1,6,7,2,3,nan,nan,nan,nan,nan,nan,nan,nan,nan,nan,nan,nan,0.0,nan,nan,nan,nan,nan,nan,nan,nan,nan,nan,nan,nan,nan,nan,nan,nan,nan,nan,869.9690231489949,885.9960260430817,nan,886.2246513059363,nan,nan,nan,nan
1,17,1,1,1.0,1.0,0.05243405234068632,0,7,8,3,4,1,2,nan,nan,nan,nan,nan,nan,nan,nan,nan,nan,nan,nan,0.0,nan,nan,nan,nan,nan,nan,nan,nan,nan,nan,nan,nan,nan,nan,nan,nan,nan,nan,869.9690231489949,886.9961856969167,nan,887.0486197492573,nan,nan,nan,nan
1,18,1,1,1.0,1.0,0.19632128882221878,0,5,3,8,2,7,1,nan,nan,nan,nan,nan,nan,nan,nan,nan,nan,nan,nan,0.0,nan,nan,nan,nan,nan,nan,nan,nan,nan,nan,nan,nan,nan,nan,nan,nan,nan,nan,869.9690231489949,887.9962840550579,nan,888.1926053438801,nan,nan,nan,nan
1,19,1,1,1.0,1.0,0.05217889114283025,0,3,8,0,7,5,2,nan,nan,nan,nan,nan,nan,nan,nan,nan,nan,nan,nan,0.0,nan,nan,nan,nan,nan,nan,nan,nan,nan,nan,nan,nan,nan,nan,nan,nan,nan,nan,869.9690231489949,888.9964120632503,nan,889.0485909543931,nan,nan,nan,nan
1,20,1,1,nan,nan,nan,0,1,5,6,4,2,8,nan,nan,nan,nan,nan,nan,nan,nan,nan,nan,nan,nan,0.0,nan,nan,nan,nan,nan,nan,nan,nan,nan,nan,nan,nan,nan,nan,nan,nan,nan,nan,869.9690231489949,889.9965386460535,nan,nan,nan,nan,nan,nan
1,21,0,0,0.0,1.0,0.619833521079272,0,6,2,8,0,1,4,nan,nan,nan,nan,nan,nan,nan,nan,nan,nan,nan,nan,0.0,nan,nan,nan,nan,nan,nan,nan,nan,nan,nan,nan,nan,nan,nan,nan,nan,nan,nan,869.9690231489949,890.9966578162275,nan,891.6164913373068,nan,nan,nan,nan
1,22,1,1,1.0,1.0,0.4677050062455237,0,5,3,4,8,7,6,nan,nan,nan,nan,nan,nan,nan,nan,nan,nan,nan,nan,0.0,nan,nan,nan,nan,nan,nan,nan,nan,nan,nan,nan,nan,nan,nan,nan,nan,nan,nan,869.9690231489949,891.9967966582626,nan,892.4645016645081,nan,nan,nan,nan
1,23,0,0,1.0,0.0,0.499562804820016,0,2,6,0,3,5,4,nan,nan,nan,nan,nan,nan,nan,nan,nan,nan,nan,nan,0.0,nan,nan,nan,nan,nan,nan,nan,nan,nan,nan,nan,nan,nan,nan,nan,nan,nan,nan,869.9690231489949,892.9969252366573,nan,893.4964880414773,nan,nan,nan,nan
1,24,1,1,1.0,1.0,0.7233171979896724,0,1,7,8,4,3,0,nan,nan,nan,nan,nan,nan,nan,nan,nan,nan,nan,nan,0.0,nan,nan,nan,nan,nan,nan,nan,nan,nan,nan,nan,nan,nan,nan,nan,nan,nan,nan,869.9690231489949,893.9971336419694,nan,894.7204508399591,nan,nan,nan,nan
1,25,1,1,1.0,1.0,0.4432571451179683,0,4,2,1,8,5,3,nan,nan,nan,nan,nan,nan,nan,nan,nan,nan,nan,nan,0.0,nan,nan,nan,nan,nan,nan,nan,nan,nan,nan,nan,nan,nan,nan,nan,nan,nan,nan,869.9690231489949,894.9971727002412,nan,895.4404298453592,nan,nan,nan,nan
1,26,1,1,1.0,1.0,0.29910733504220843,0,1,3,5,4,6,2,nan,nan,nan,nan,nan,nan,nan,nan,nan,nan,nan,nan,0.0,nan,nan,nan,nan,nan,nan,nan,nan,nan,nan,nan,nan,nan,nan,nan,nan,nan,nan,869.9690231489949,895.9972981426399,nan,896.2964054776821,nan,nan,nan,nan
1,27,0,0,0.0,1.0,0.4829556616023183,0,5,4,6,7,0,8,nan,nan,nan,nan,nan,nan,nan,nan,nan,nan,nan,nan,0.0,nan,nan,nan,nan,nan,nan,nan,nan,nan,nan,nan,nan,nan,nan,nan,nan,nan,nan,869.9690231489949,896.9974324228242,nan,897.4803880844265,nan,nan,nan,nan
1,28,1,1,1.0,1.0,0.37098067719489336,0,3,6,4,2,1,0,nan,nan,nan,nan,nan,nan,nan,nan,nan,nan,nan,nan,0.0,nan,nan,nan,nan,nan,nan,nan,nan,nan,nan,nan,nan,nan,nan,nan,nan,nan,nan,869.9690231489949,897.9975550142117,nan,898.3685356914066,nan,nan,nan,nan
1,29,1,1,1.0,1.0,0.3066874749492854,1,5,7,0,8,2,3,1.0,1.0,1.0,1.0,1.0,1.0,1.0,0.0,0.0,0.0,0.0,0.0,1.0,5.0,4.0,1.0,2.0,7.0,8.0,1.0,6.0,5.0,4.0,3.0,2.0,1.7874627199489623,7.291368396487087,5.139818627387285,4.531786952167749,3.637220117263496,2.845484944526106,869.9690231489949,898.9976813120302,899.8060988937505,899.3043687869795,908.1654938280117,909.1761857939418,900.8312298455276,908.1571741485968
1,30,1,1,nan,nan,nan,0,4,3,8,1,0,7,nan,nan,nan,nan,nan,nan,nan,nan,nan,nan,nan,nan,0.0,nan,nan,nan,nan,nan,nan,nan,nan,nan,nan,nan,nan,nan,nan,nan,nan,nan,nan,869.9690231489949,909.382354878122,nan,nan,nan,nan,nan,nan
1,31,1,1,1.0,1.0,0.44959369488060474,0,1,6,7,5,3,4,nan,nan,nan,nan,nan,nan,nan,nan,nan,nan,nan,nan,0.0,nan,nan,nan,nan,nan,nan,nan,nan,nan,nan,nan,nan,nan,nan,nan,nan,nan,nan,869.9690231489949,910.3824421176687,nan,910.8320358125493,nan,nan,nan,nan
1,32,1,1,1.0,1.0,0.5614440923091024,0,3,7,0,2,5,1,nan,nan,nan,nan,nan,nan,nan,nan,nan,nan,nan,nan,0.0,nan,nan,nan,nan,nan,nan,nan,nan,nan,nan,nan,nan,nan,nan,nan,nan,nan,nan,869.9690231489949,911.3826026269235,nan,911.9440467192326,nan,nan,nan,nan
1,33,1,1,1.0,1.0,0.5372998588718474,0,1,8,6,7,3,0,nan,nan,nan,nan,nan,nan,nan,nan,nan,nan,nan,nan,0.0,nan,nan,nan,nan,nan,nan,nan,nan,nan,nan,nan,nan,nan,nan,nan,nan,nan,nan,869.9690231489949,912.3827337711118,nan,912.9200336299837,nan,nan,nan,nan
1,34,1,1,1.0,1.0,0.4091402436606586,0,2,5,0,6,7,3,nan,nan,nan,nan,nan,nan,nan,nan,nan,nan,nan,nan,0.0,nan,nan,nan,nan,nan,nan,nan,nan,nan,nan,nan,nan,nan,nan,nan,nan,nan,nan,869.9690231489949,913.3828614943195,nan,913.7920017379802,nan,nan,nan,nan
1,35,1,1,1.0,1.0,0.5289907278493047,0,8,3,1,5,4,7,nan,nan,nan,nan,nan,nan,nan,nan,nan,nan,nan,nan,0.0,nan,nan,nan,nan,nan,nan,nan,nan,nan,nan,nan,nan,nan,nan,nan,nan,nan,nan,869.9690231489949,914.3829969149083,nan,914.9119876427576,nan,nan,nan,nan
1,36,1,1,1.0,1.0,0.5368476961739361,0,1,7,0,2,6,8,nan,nan,nan,nan,nan,nan,nan,nan,nan,nan,nan,nan,0.0,nan,nan,nan,nan,nan,nan,nan,nan,nan,nan,nan,nan,nan,nan,nan,nan,nan,nan,869.9690231489949,915.3831183658913,nan,915.9199660620652,nan,nan,nan,nan
1,37,0,0,0.0,1.0,0.6566842107567936,0,0,5,1,7,2,3,nan,nan,nan,nan,nan,nan,nan,nan,nan,nan,nan,nan,0.0,nan,nan,nan,nan,nan,nan,nan,nan,nan,nan,nan,nan,nan,nan,nan,nan,nan,nan,869.9690231489949,916.3832486548927,nan,917.0399328656495,nan,nan,nan,nan
1,38,1,1,1.0,1.0,0.5045400157105178,0,6,4,7,1,8,0,nan,nan,nan,nan,nan,nan,nan,nan,nan,nan,nan,nan,0.0,nan,nan,nan,nan,nan,nan,nan,nan,nan,nan,nan,nan,nan,nan,nan,nan,nan,nan,869.9690231489949,917.3833692506887,nan,917.8879092663992,nan,nan,nan,nan
1,39,1,1,1.0,1.0,0.3843941716477275,1,2,6,0,8,5,4,1.0,1.0,1.0,1.0,1.0,1.0,0.0,0.0,0.0,0.0,0.0,0.0,0.0,4.0,2.0,1.0,7.0,4.0,6.0,1.0,3.0,4.0,5.0,6.0,2.0,1.5308181948494166,3.2587228768970817,4.62658830685541,5.3059496455825865,6.017876676982269,2.3787515461444855,869.9690231489949,918.3835003951099,919.1919077131897,918.7678945667576,926.259480377892,927.2561803883873,920.2003856212832,926.2511584174354
1,40,1,1,nan,nan,nan,0,3,8,1,6,4,0,nan,nan,nan,nan,nan,nan,nan,nan,nan,nan,nan,nan,0.0,nan,nan,nan,nan,nan,nan,nan,nan,nan,nan,nan,nan,nan,nan,nan,nan,nan,nan,869.9690231489949,927.4596684272401,nan,nan,nan,nan,nan,nan
1,41,1,1,1.0,1.0,0.755828722147271,0,4,6,3,0,1,7,nan,nan,nan,nan,nan,nan,nan,nan,nan,nan,nan,nan,0.0,nan,nan,nan,nan,nan,nan,nan,nan,nan,nan,nan,nan,nan,nan,nan,nan,nan,nan,869.9690231489949,928.4597858870402,nan,929.2156146091875,nan,nan,nan,nan
1,42,1,1,1.0,1.0,0.6437448309734464,0,8,7,2,3,5,4,nan,nan,nan,nan,nan,nan,nan,nan,nan,nan,nan,nan,0.0,nan,nan,nan,nan,nan,nan,nan,nan,nan,nan,nan,nan,nan,nan,nan,nan,nan,nan,869.9690231489949,929.4598950787913,nan,930.1036399097648,nan,nan,nan,nan
1,43,1,1,nan,nan,nan,0,4,5,0,6,7,1,nan,nan,nan,nan,nan,nan,nan,nan,nan,nan,nan,nan,0.0,nan,nan,nan,nan,nan,nan,nan,nan,nan,nan,nan,nan,nan,nan,nan,nan,nan,nan,869.9690231489949,930.4600515966304,nan,nan,nan,nan,nan,nan
1,44,1,1,1.0,1.0,0.46746267448179424,1,5,8,3,1,0,7,1.0,1.0,1.0,1.0,1.0,1.0,0.0,0.0,0.0,0.0,0.0,1.0,1.0,8.0,3.0,5.0,2.0,4.0,7.0,1.0,3.0,4.0,5.0,6.0,2.0,0.8689771629869938,3.4604977725539356,4.252831932622939,4.987767659127712,5.667745376005769,1.6290064936038107,869.9690231489949,931.4601471039932,932.2685931953602,931.927609778475,939.0027839650866,940.0011038926896,933.2937201557215,938.9944543072488
1,45,1,1,1.0,1.0,0.5244297573808581,0,0,7,8,3,1,2,nan,nan,nan,nan,nan,nan,nan,nan,nan,nan,nan,nan,0.0,nan,nan,nan,nan,nan,nan,nan,nan,nan,nan,nan,nan,nan,nan,nan,nan,nan,nan,869.9690231489949,940.2029628916644,nan,940.7273926490452,nan,nan,nan,nan
1,46,0,0,0.0,1.0,0.5482495517935604,0,5,2,3,6,7,8,nan,nan,nan,nan,nan,nan,nan,nan,nan,nan,nan,nan,0.0,nan,nan,nan,nan,nan,nan,nan,nan,nan,nan,nan,nan,nan,nan,nan,nan,nan,nan,869.9690231489949,941.2030889040325,nan,941.751338455826,nan,nan,nan,nan
1,47,1,1,1.0,1.0,0.5161032355390489,0,7,8,5,4,0,2,nan,nan,nan,nan,nan,nan,nan,nan,nan,nan,nan,nan,0.0,nan,nan,nan,nan,nan,nan,nan,nan,nan,nan,nan,nan,nan,nan,nan,nan,nan,nan,869.9690231489949,942.20321748266,nan,942.719320718199,nan,nan,nan,nan
1,48,1,1,1.0,1.0,0.5479265376925468,0,0,2,7,3,6,4,nan,nan,nan,nan,nan,nan,nan,nan,nan,nan,nan,nan,0.0,nan,nan,nan,nan,nan,nan,nan,nan,nan,nan,nan,nan,nan,nan,nan,nan,nan,nan,869.9690231489949,943.2033737152815,nan,943.751300252974,nan,nan,nan,nan
1,49,1,1,1.0,1.0,0.5797760682180524,0,4,5,1,2,0,6,nan,nan,nan,nan,nan,nan,nan,nan,nan,nan,nan,nan,0.0,nan,nan,nan,nan,nan,nan,nan,nan,nan,nan,nan,nan,nan,nan,nan,nan,nan,nan,869.9690231489949,944.2035060001072,nan,944.7832820683252,nan,nan,nan,nan
1,50,0,0,0.0,1.0,0.7796496564988047,0,8,2,0,1,5,3,nan,nan,nan,nan,nan,nan,nan,nan,nan,nan,nan,nan,0.0,nan,nan,nan,nan,nan,nan,nan,nan,nan,nan,nan,nan,nan,nan,nan,nan,nan,nan,869.9690231489949,945.203602362657,nan,945.9832520191558,nan,nan,nan,nan
1,51,1,1,nan,nan,nan,0,7,8,2,5,6,0,nan,nan,nan,nan,nan,nan,nan,nan,nan,nan,nan,nan,0.0,nan,nan,nan,nan,nan,nan,nan,nan,nan,nan,nan,nan,nan,nan,nan,nan,nan,nan,869.9690231489949,946.20373379183,nan,nan,nan,nan,nan,nan
1,52,1,1,nan,nan,nan,0,6,3,7,0,4,2,nan,nan,nan,nan,nan,nan,nan,nan,nan,nan,nan,nan,0.0,nan,nan,nan,nan,nan,nan,nan,nan,nan,nan,nan,nan,nan,nan,nan,nan,nan,nan,869.9690231489949,947.2038512516301,nan,nan,nan,nan,nan,nan
1,53,0,0,nan,nan,nan,0,1,8,5,7,6,3,nan,nan,nan,nan,nan,nan,nan,nan,nan,nan,nan,nan,0.0,nan,nan,nan,nan,nan,nan,nan,nan,nan,nan,nan,nan,nan,nan,nan,nan,nan,nan,869.9690231489949,948.2039861022495,nan,nan,nan,nan,nan,nan
1,54,1,1,1.0,1.0,0.6430255330633372,0,2,5,8,0,4,7,nan,nan,nan,nan,nan,nan,nan,nan,nan,nan,nan,nan,0.0,nan,nan,nan,nan,nan,nan,nan,nan,nan,nan,nan,nan,nan,nan,nan,nan,nan,nan,869.9690231489949,949.2041115444154,nan,949.8471370774787,nan,nan,nan,nan
1,55,1,1,1.0,1.0,0.6188946987967938,0,0,7,5,4,3,8,nan,nan,nan,nan,nan,nan,nan,nan,nan,nan,nan,nan,0.0,nan,nan,nan,nan,nan,nan,nan,nan,nan,nan,nan,nan,nan,nan,nan,nan,nan,nan,869.9690231489949,950.2042523820419,nan,950.8231470808387,nan,nan,nan,nan
1,56,1,1,1.0,1.0,0.4663559307809919,0,2,8,7,0,1,5,nan,nan,nan,nan,nan,nan,nan,nan,nan,nan,nan,nan,0.0,nan,nan,nan,nan,nan,nan,nan,nan,nan,nan,nan,nan,nan,nan,nan,nan,nan,nan,869.9690231489949,951.2127972876187,nan,951.6791532183997,nan,nan,nan,nan
1,57,1,1,1.0,1.0,0.5062691245693713,0,6,5,3,8,2,4,nan,nan,nan,nan,nan,nan,nan,nan,nan,nan,nan,nan,0.0,nan,nan,nan,nan,nan,nan,nan,nan,nan,nan,nan,nan,nan,nan,nan,nan,nan,nan,869.9690231489949,952.2128372013103,nan,952.7191063258797,nan,nan,nan,nan
1,58,1,1,1.0,1.0,0.44211533456109464,0,8,7,1,5,6,0,nan,nan,nan,nan,nan,nan,nan,nan,nan,nan,nan,nan,0.0,nan,nan,nan,nan,nan,nan,nan,nan,nan,nan,nan,nan,nan,nan,nan,nan,nan,nan,869.9690231489949,953.2129643540829,nan,953.655079688644,nan,nan,nan,nan
1,59,0,0,0.0,1.0,0.6976263166870922,0,6,0,2,1,8,3,nan,nan,nan,nan,nan,nan,nan,nan,nan,nan,nan,nan,0.0,nan,nan,nan,nan,nan,nan,nan,nan,nan,nan,nan,nan,nan,nan,nan,nan,nan,nan,869.9690231489949,954.2214271521661,nan,954.9190534688532,nan,nan,nan,nan
1,60,1,1,1.0,1.0,0.633152648806572,0,1,6,0,5,3,8,nan,nan,nan,nan,nan,nan,nan,nan,nan,nan,nan,nan,0.0,nan,nan,nan,nan,nan,nan,nan,nan,nan,nan,nan,nan,nan,nan,nan,nan,nan,nan,869.9690231489949,955.229891090421,nan,955.8630437392276,nan,nan,nan,nan
1,61,1,1,1.0,1.0,0.441003744257614,0,4,7,5,6,1,2,nan,nan,nan,nan,nan,nan,nan,nan,nan,nan,nan,nan,0.0,nan,nan,nan,nan,nan,nan,nan,nan,nan,nan,nan,nan,nan,nan,nan,nan,nan,nan,869.9690231489949,956.2300136818085,nan,956.6710174260661,nan,nan,nan,nan
1,62,1,1,1.0,1.0,0.560848526423797,0,2,1,7,0,6,3,nan,nan,nan,nan,nan,nan,nan,nan,nan,nan,nan,nan,0.0,nan,nan,nan,nan,nan,nan,nan,nan,nan,nan,nan,nan,nan,nan,nan,nan,nan,nan,869.9690231489949,957.2301445410121,nan,957.7909930674359,nan,nan,nan,nan
1,63,1,1,nan,nan,nan,0,6,4,3,8,2,0,nan,nan,nan,nan,nan,nan,nan,nan,nan,nan,nan,nan,0.0,nan,nan,nan,nan,nan,nan,nan,nan,nan,nan,nan,nan,nan,nan,nan,nan,nan,nan,869.9690231489949,958.2302708385978,nan,nan,nan,nan,nan,nan
1,64,1,1,1.0,1.0,0.6805630195885897,0,0,2,6,4,7,5,nan,nan,nan,nan,nan,nan,nan,nan,nan,nan,nan,nan,0.0,nan,nan,nan,nan,nan,nan,nan,nan,nan,nan,nan,nan,nan,nan,nan,nan,nan,nan,869.9690231489949,959.2304005573969,nan,959.9109635769855,nan,nan,nan,nan
1,65,1,1,1.0,1.0,0.4883836095687002,0,6,5,4,1,0,8,nan,nan,nan,nan,nan,nan,nan,nan,nan,nan,nan,nan,0.0,nan,nan,nan,nan,nan,nan,nan,nan,nan,nan,nan,nan,nan,nan,nan,nan,nan,nan,869.9690231489949,960.2305382590275,nan,960.7189218685962,nan,nan,nan,nan
1,66,1,1,1.0,1.0,0.41623315401375294,0,8,3,5,7,1,2,nan,nan,nan,nan,nan,nan,nan,nan,nan,nan,nan,nan,0.0,nan,nan,nan,nan,nan,nan,nan,nan,nan,nan,nan,nan,nan,nan,nan,nan,nan,nan,869.9690231489949,961.2306588545907,nan,961.6468920086045,nan,nan,nan,nan
1,67,1,1,1.0,1.0,0.400101266335696,0,7,0,8,3,2,6,nan,nan,nan,nan,nan,nan,nan,nan,nan,nan,nan,nan,0.0,nan,nan,nan,nan,nan,nan,nan,nan,nan,nan,nan,nan,nan,nan,nan,nan,nan,nan,869.9690231489949,962.2307825863827,nan,962.6308838527184,nan,nan,nan,nan
1,68,1,1,1.0,1.0,0.3199376093689352,0,4,8,7,0,5,1,nan,nan,nan,nan,nan,nan,nan,nan,nan,nan,nan,nan,0.0,nan,nan,nan,nan,nan,nan,nan,nan,nan,nan,nan,nan,nan,nan,nan,nan,nan,nan,869.9690231489949,963.2309088842012,nan,963.5508464935701,nan,nan,nan,nan
1,69,1,1,1.0,1.0,0.311794689623639,0,3,7,2,6,8,0,nan,nan,nan,nan,nan,nan,nan,nan,nan,nan,nan,nan,0.0,nan,nan,nan,nan,nan,nan,nan,nan,nan,nan,nan,nan,nan,nan,nan,nan,nan,nan,869.9690231489949,964.2310343263671,nan,964.5428290159907,nan,nan,nan,nan
1,70,1,1,1.0,1.0,0.2636387920938432,0,2,5,0,8,3,7,nan,nan,nan,nan,nan,nan,nan,nan,nan,nan,nan,nan,0.0,nan,nan,nan,nan,nan,nan,nan,nan,nan,nan,nan,nan,nan,nan,nan,nan,nan,nan,869.9690231489949,965.2311720279977,nan,965.4948108200915,nan,nan,nan,nan
1,71,1,1,1.0,1.0,0.2474920793902129,0,4,2,5,7,6,0,nan,nan,nan,nan,nan,nan,nan,nan,nan,nan,nan,nan,0.0,nan,nan,nan,nan,nan,nan,nan,nan,nan,nan,nan,nan,nan,nan,nan,nan,nan,nan,869.9690231489949,966.2312943341676,nan,966.4787864135578,nan,nan,nan,nan
1,72,1,1,1.0,1.0,0.23933718539774418,0,3,0,1,8,2,5,nan,nan,nan,nan,nan,nan,nan,nan,nan,nan,nan,nan,0.0,nan,nan,nan,nan,nan,nan,nan,nan,nan,nan,nan,nan,nan,nan,nan,nan,nan,nan,869.9690231489949,967.231424623169,nan,967.4707618085667,nan,nan,nan,nan
1,73,1,1,1.0,1.0,0.3031793653499335,0,6,7,8,1,5,2,nan,nan,nan,nan,nan,nan,nan,nan,nan,nan,nan,nan,0.0,nan,nan,nan,nan,nan,nan,nan,nan,nan,nan,nan,nan,nan,nan,nan,nan,nan,nan,869.9690231489949,968.2315691669937,nan,968.5347485323437,nan,nan,nan,nan
1,74,1,1,1.0,1.0,0.26077328948304057,0,5,0,3,2,6,8,nan,nan,nan,nan,nan,nan,nan,nan,nan,nan,nan,nan,0.0,nan,nan,nan,nan,nan,nan,nan,nan,nan,nan,nan,nan,nan,nan,nan,nan,nan,nan,869.9690231489949,969.2339730989188,nan,969.4947463884018,nan,nan,nan,nan
1,75,1,1,1.0,1.0,0.278533932287246,0,6,3,2,8,4,0,nan,nan,nan,nan,nan,nan,nan,nan,nan,nan,nan,nan,0.0,nan,nan,nan,nan,nan,nan,nan,nan,nan,nan,nan,nan,nan,nan,nan,nan,nan,nan,869.9690231489949,970.2401551266667,nan,970.5186890589539,nan,nan,nan,nan
1,76,1,1,1.0,1.0,0.25439796643331647,0,2,0,1,5,7,3,nan,nan,nan,nan,nan,nan,nan,nan,nan,nan,nan,nan,0.0,nan,nan,nan,nan,nan,nan,nan,nan,nan,nan,nan,nan,nan,nan,nan,nan,nan,nan,869.9690231489949,971.2402703054249,nan,971.4946682718582,nan,nan,nan,nan
1,77,1,1,1.0,1.0,0.25424800580367446,0,5,7,2,4,6,8,nan,nan,nan,nan,nan,nan,nan,nan,nan,nan,nan,nan,0.0,nan,nan,nan,nan,nan,nan,nan,nan,nan,nan,nan,nan,nan,nan,nan,nan,nan,nan,869.9690231489949,972.240407721838,nan,972.4946557276417,nan,nan,nan,nan
1,78,1,1,1.0,1.0,0.26209984230808914,0,8,6,5,2,3,4,nan,nan,nan,nan,nan,nan,nan,nan,nan,nan,nan,nan,0.0,nan,nan,nan,nan,nan,nan,nan,nan,nan,nan,nan,nan,nan,nan,nan,nan,nan,nan,869.9690231489949,973.2405334494542,nan,973.5026332917623,nan,nan,nan,nan
1,79,1,1,1.0,1.0,0.2939479476772249,0,1,7,3,0,4,8,nan,nan,nan,nan,nan,nan,nan,nan,nan,nan,nan,nan,0.0,nan,nan,nan,nan,nan,nan,nan,nan,nan,nan,nan,nan,nan,nan,nan,nan,nan,nan,869.9690231489949,974.2406546152197,nan,974.5346025628969,nan,nan,nan,nan
1,80,1,1,1.0,1.0,0.2938053996767849,0,0,3,7,4,2,5,nan,nan,nan,nan,nan,nan,nan,nan,nan,nan,nan,nan,0.0,nan,nan,nan,nan,nan,nan,nan,nan,nan,nan,nan,nan,nan,nan,nan,nan,nan,nan,869.9690231489949,975.2407789172139,nan,975.5345843168907,nan,nan,nan,nan
1,81,1,1,1.0,1.0,0.25364417186938226,0,8,2,0,7,6,1,nan,nan,nan,nan,nan,nan,nan,nan,nan,nan,nan,nan,0.0,nan,nan,nan,nan,nan,nan,nan,nan,nan,nan,nan,nan,nan,nan,nan,nan,nan,nan,869.9690231489949,976.240910916822,nan,976.4945550886914,nan,nan,nan,nan
1,82,1,1,1.0,1.0,0.277498462703079,0,5,4,6,3,0,8,nan,nan,nan,nan,nan,nan,nan,nan,nan,nan,nan,nan,0.0,nan,nan,nan,nan,nan,nan,nan,nan,nan,nan,nan,nan,nan,nan,nan,nan,nan,nan,869.9690231489949,977.241034648614,nan,977.5185331113171,nan,nan,nan,nan
1,83,1,1,1.0,1.0,0.26133863534778357,0,3,8,2,1,6,7,nan,nan,nan,nan,nan,nan,nan,nan,nan,nan,nan,nan,0.0,nan,nan,nan,nan,nan,nan,nan,nan,nan,nan,nan,nan,nan,nan,nan,nan,nan,nan,869.9690231489949,978.2411769116297,nan,978.5025155469775,nan,nan,nan,nan
1,84,1,1,1.0,1.0,0.24520589224994183,0,7,4,8,0,2,5,nan,nan,nan,nan,nan,nan,nan,nan,nan,nan,nan,nan,0.0,nan,nan,nan,nan,nan,nan,nan,nan,nan,nan,nan,nan,nan,nan,nan,nan,nan,nan,869.9690231489949,979.2412915204186,nan,979.4864974126685,nan,nan,nan,nan
1,85,1,1,1.0,1.0,0.2530534523539245,1,0,5,1,6,8,3,1.0,1.0,1.0,1.0,1.0,1.0,1.0,0.0,0.0,0.0,0.0,1.0,2.0,0.0,7.0,2.0,4.0,6.0,3.0,1.0,6.0,5.0,4.0,3.0,2.0,1.040850305231288,8.182022569933906,6.397943657590076,5.551183762494475,3.207565200747922,1.9505403572693467,869.9690231489949,980.2414178180043,981.0498402463272,980.4944712703582,990.2843421988655,991.2927642278373,982.0666583608836,990.276023944607
1,86,1,1,1.0,1.0,0.6493224543519318,0,2,0,6,4,7,5,nan,nan,nan,nan,nan,nan,nan,nan,nan,nan,nan,nan,0.0,nan,nan,nan,nan,nan,nan,nan,nan,nan,nan,nan,nan,nan,nan,nan,nan,nan,nan,869.9690231489949,991.4928778673057,nan,992.1422003216576,nan,nan,nan,nan
1,87,1,1,1.0,1.0,0.3292020980734378,0,5,7,2,1,6,3,nan,nan,nan,nan,nan,nan,nan,nan,nan,nan,nan,nan,0.0,nan,nan,nan,nan,nan,nan,nan,nan,nan,nan,nan,nan,nan,nan,nan,nan,nan,nan,869.9690231489949,992.4929614006542,nan,992.8221634987276,nan,nan,nan,nan
1,88,1,1,1.0,1.0,0.2730637900531292,0,6,3,1,8,5,4,nan,nan,nan,nan,nan,nan,nan,nan,nan,nan,nan,nan,0.0,nan,nan,nan,nan,nan,nan,nan,nan,nan,nan,nan,nan,nan,nan,nan,nan,nan,nan,869.9690231489949,993.4931284668855,nan,993.7661922569387,nan,nan,nan,nan
1,89,1,1,1.0,1.0,0.2728921619709581,0,5,0,6,4,2,8,nan,nan,nan,nan,nan,nan,nan,nan,nan,nan,nan,nan,0.0,nan,nan,nan,nan,nan,nan,nan,nan,nan,nan,nan,nan,nan,nan,nan,nan,nan,nan,869.9690231489949,994.4932561900932,nan,994.7661483520642,nan,nan,nan,nan
1,90,1,1,1.0,1.0,0.4087305604480207,0,8,3,7,2,5,6,nan,nan,nan,nan,nan,nan,nan,nan,nan,nan,nan,nan,0.0,nan,nan,nan,nan,nan,nan,nan,nan,nan,nan,nan,nan,nan,nan,nan,nan,nan,nan,869.9690231489949,995.4933864790946,nan,995.9021170395426,nan,nan,nan,nan
1,91,1,1,1.0,1.0,0.3046202417463064,0,4,5,1,3,8,2,nan,nan,nan,nan,nan,nan,nan,nan,nan,nan,nan,nan,0.0,nan,nan,nan,nan,nan,nan,nan,nan,nan,nan,nan,nan,nan,nan,nan,nan,nan,nan,869.9690231489949,996.4934674464166,nan,996.7980876881629,nan,nan,nan,nan
1,92,1,1,1.0,1.0,0.2804372350219637,1,8,6,0,1,2,3,1.0,1.0,1.0,1.0,1.0,1.0,1.0,0.0,0.0,0.0,0.0,1.0,2.0,8.0,1.0,7.0,2.0,0.0,3.0,1.0,3.0,4.0,5.0,6.0,2.0,1.0339994416572154,3.409028200665489,4.401058619376272,5.249253974296153,6.1372430676128715,1.8101093429140747,869.9690231489949,997.4936305214651,998.3020486733876,997.774067756487,1005.5029651438817,1006.5024177590385,999.3271876079962,1005.4946377666201
1,93,1,1,nan,nan,nan,0,1,0,7,5,3,8,nan,nan,nan,nan,nan,nan,nan,nan,nan,nan,nan,nan,0.0,nan,nan,nan,nan,nan,nan,nan,nan,nan,nan,nan,nan,nan,nan,nan,nan,nan,nan,869.9690231489949,1006.7031403640285,nan,nan,nan,nan,nan,nan
1,94,1,1,1.0,1.0,0.5025523244403303,0,4,3,5,6,2,7,nan,nan,nan,nan,nan,nan,nan,nan,nan,nan,nan,nan,0.0,nan,nan,nan,nan,nan,nan,nan,nan,nan,nan,nan,nan,nan,nan,nan,nan,nan,nan,869.9690231489949,1007.7032427135855,nan,1008.2057950380258,nan,nan,nan,nan
1,95,1,1,1.0,1.0,0.39040029514580965,0,2,8,7,0,5,4,nan,nan,nan,nan,nan,nan,nan,nan,nan,nan,nan,nan,0.0,nan,nan,nan,nan,nan,nan,nan,nan,nan,nan,nan,nan,nan,nan,nan,nan,nan,nan,869.9690231489949,1008.703402652638,nan,1009.0938029477838,nan,nan,nan,nan
1,96,1,1,1.0,1.0,0.31027797725982964,0,1,7,6,4,3,0,nan,nan,nan,nan,nan,nan,nan,nan,nan,nan,nan,nan,0.0,nan,nan,nan,nan,nan,nan,nan,nan,nan,nan,nan,nan,nan,nan,nan,nan,nan,nan,869.9690231489949,1009.7035018661991,nan,1010.0137798434589,nan,nan,nan,nan
1,97,1,1,1.0,1.0,0.27808889700099826,0,0,4,7,2,1,3,nan,nan,nan,nan,nan,nan,nan,nan,nan,nan,nan,nan,0.0,nan,nan,nan,nan,nan,nan,nan,nan,nan,nan,nan,nan,nan,nan,nan,nan,nan,nan,869.9690231489949,1010.7036606648471,nan,1010.9817495618481,nan,nan,nan,nan
1,98,1,1,1.0,1.0,0.31797842774540186,0,5,0,4,3,7,6,nan,nan,nan,nan,nan,nan,nan,nan,nan,nan,nan,nan,0.0,nan,nan,nan,nan,nan,nan,nan,nan,nan,nan,nan,nan,nan,nan,nan,nan,nan,nan,869.9690231489949,1011.703754746588,nan,1012.0217331743333,nan,nan,nan,nan
1,99,0,0,1.0,0.0,0.2537964133080095,0,3,6,8,0,2,7,nan,nan,nan,nan,nan,nan,nan,nan,nan,nan,nan,nan,0.0,nan,nan,nan,nan,nan,nan,nan,nan,nan,nan,nan,nan,nan,nan,nan,nan,nan,nan,869.9690231489949,1012.7039084134158,nan,1012.9577048267238,nan,nan,nan,nan
1,100,1,1,1.0,1.0,0.4616347362753004,0,2,5,7,4,0,8,nan,nan,nan,nan,nan,nan,nan,nan,nan,nan,nan,nan,0.0,nan,nan,nan,nan,nan,nan,nan,nan,nan,nan,nan,nan,nan,nan,nan,nan,nan,nan,869.9690231489949,1013.7040404130239,nan,1014.1656751492992,nan,nan,nan,nan
1,101,1,1,1.0,1.0,0.34948156657628715,0,6,7,2,0,3,1,nan,nan,nan,nan,nan,nan,nan,nan,nan,nan,nan,nan,0.0,nan,nan,nan,nan,nan,nan,nan,nan,nan,nan,nan,nan,nan,nan,nan,nan,nan,nan,869.9690231489949,1014.704174693441,nan,1015.0536562600173,nan,nan,nan,nan
1,102,1,1,1.0,1.0,0.30137042934075,0,0,1,8,7,5,3,nan,nan,nan,nan,nan,nan,nan,nan,nan,nan,nan,nan,0.0,nan,nan,nan,nan,nan,nan,nan,nan,nan,nan,nan,nan,nan,nan,nan,nan,nan,nan,869.9690231489949,1015.7042713409755,nan,1016.0056417703163,nan,nan,nan,nan
1,103,1,1,1.0,1.0,0.3171824391465634,0,1,3,7,5,6,0,nan,nan,nan,nan,nan,nan,nan,nan,nan,nan,nan,nan,0.0,nan,nan,nan,nan,nan,nan,nan,nan,nan,nan,nan,nan,nan,nan,nan,nan,nan,nan,869.9690231489949,1016.7044267184101,nan,1017.0216091575567,nan,nan,nan,nan
1,104,1,1,1.0,1.0,0.2690405114553869,0,3,4,0,6,8,2,nan,nan,nan,nan,nan,nan,nan,nan,nan,nan,nan,nan,0.0,nan,nan,nan,nan,nan,nan,nan,nan,nan,nan,nan,nan,nan,nan,nan,nan,nan,nan,869.9690231489949,1017.7045481693931,nan,1017.9735886808485,nan,nan,nan,nan
1,105,1,1,1.0,1.0,0.26888513402082026,0,4,0,5,8,3,1,nan,nan,nan,nan,nan,nan,nan,nan,nan,nan,nan,nan,0.0,nan,nan,nan,nan,nan,nan,nan,nan,nan,nan,nan,nan,nan,nan,nan,nan,nan,nan,869.9690231489949,1018.7046784583945,nan,1018.9735635924153,nan,nan,nan,nan
1,106,1,1,nan,nan,nan,0,0,7,2,1,5,3,nan,nan,nan,nan,nan,nan,nan,nan,nan,nan,nan,nan,0.0,nan,nan,nan,nan,nan,nan,nan,nan,nan,nan,nan,nan,nan,nan,nan,nan,nan,nan,869.9690231489949,1019.7048127388116,nan,nan,nan,nan,nan,nan
1,107,1,1,1.0,1.0,0.42859692429192364,1,3,1,5,6,2,4,1.0,1.0,1.0,1.0,1.0,1.0,0.0,0.0,1.0,0.0,0.0,0.0,1.0,2.0,8.0,5.0,1.0,6.0,7.0,3.0,2.0,1.0,6.0,5.0,4.0,3.3987176939845085,2.7274399751331657,0.9590926754754037,7.053135674213991,6.309318628627807,5.380932817934081,869.9690231489949,1020.7049341897946,1021.5133546225261,1021.1335311140865,1029.6310597569682,1030.6350816101767,1022.5384864294901,1029.6227246823255
1,108,1,1,1.0,1.0,0.5977231638971716,0,6,4,2,7,8,0,nan,nan,nan,nan,nan,nan,nan,nan,nan,nan,nan,nan,0.0,nan,nan,nan,nan,nan,nan,nan,nan,nan,nan,nan,nan,nan,nan,nan,nan,nan,nan,869.9690231489949,1030.8395709074102,nan,1031.4372940713074,nan,nan,nan,nan
1,109,0,0,0.0,1.0,0.48554889718070626,0,5,6,7,1,4,2,nan,nan,nan,nan,nan,nan,nan,nan,nan,nan,nan,nan,0.0,nan,nan,nan,nan,nan,nan,nan,nan,nan,nan,nan,nan,nan,nan,nan,nan,nan,nan,869.9690231489949,1031.8397000560071,nan,1032.3252489531878,nan,nan,nan,nan
1,110,1,1,1.0,1.0,0.30940387211740017,0,6,3,0,4,1,8,nan,nan,nan,nan,nan,nan,nan,nan,nan,nan,nan,nan,0.0,nan,nan,nan,nan,nan,nan,nan,nan,nan,nan,nan,nan,nan,nan,nan,nan,nan,nan,869.9690231489949,1032.8398323406,nan,1033.1492362127174,nan,nan,nan,nan
1,111,1,1,1.0,1.0,0.285251370863989,0,4,5,3,8,0,7,nan,nan,nan,nan,nan,nan,nan,nan,nan,nan,nan,nan,0.0,nan,nan,nan,nan,nan,nan,nan,nan,nan,nan,nan,nan,nan,nan,nan,nan,nan,nan,869.9690231489949,1033.8399509405717,nan,1034.1252023114357,nan,nan,nan,nan
1,112,1,1,1.0,1.0,0.40511354384943843,0,5,6,2,1,3,8,nan,nan,nan,nan,nan,nan,nan,nan,nan,nan,nan,nan,0.0,nan,nan,nan,nan,nan,nan,nan,nan,nan,nan,nan,nan,nan,nan,nan,nan,nan,nan,869.9690231489949,1034.8400840805843,nan,1035.2451976244338,nan,nan,nan,nan
1,113,1,1,1.0,1.0,0.6449413800146431,0,2,3,7,0,5,1,nan,nan,nan,nan,nan,nan,nan,nan,nan,nan,nan,nan,0.0,nan,nan,nan,nan,nan,nan,nan,nan,nan,nan,nan,nan,nan,nan,nan,nan,nan,nan,869.9690231489949,1035.840212658979,nan,1036.4851540389936,nan,nan,nan,nan
1,114,1,1,1.0,1.0,0.4767950160894543,1,4,0,1,3,6,8,1.0,1.0,1.0,1.0,1.0,1.0,1.0,0.0,1.0,0.0,1.0,1.0,4.0,4.0,3.0,1.0,6.0,6.0,8.0,2.0,6.0,5.0,1.0,4.0,3.0,2.405854223994538,8.237419912824407,7.0456456248648465,1.3032899824902415,6.037687732372433,4.190639605047181,869.9690231489949,1036.8403392417822,1037.648755683098,1037.3171342578717,1046.941600308055,1047.950698015513,1038.665557262022,1046.933263237588
1,115,1,1,1.0,1.0,0.3584481298457831,0,1,8,7,2,3,6,nan,nan,nan,nan,nan,nan,nan,nan,nan,nan,nan,nan,0.0,nan,nan,nan,nan,nan,nan,nan,nan,nan,nan,nan,nan,nan,nan,nan,nan,nan,nan,869.9690231489949,1048.1584553711582,nan,1048.516903501004,nan,nan,nan,nan
1,116,1,1,1.0,1.0,0.34228231525048614,0,7,0,6,1,8,4,nan,nan,nan,nan,nan,nan,nan,nan,nan,nan,nan,nan,0.0,nan,nan,nan,nan,nan,nan,nan,nan,nan,nan,nan,nan,nan,nan,nan,nan,nan,nan,869.9690231489949,1049.1585782477632,nan,1049.5008605630137,nan,nan,nan,nan
1,117,1,1,1.0,1.0,0.39013230451382697,0,5,6,2,8,3,1,nan,nan,nan,nan,nan,nan,nan,nan,nan,nan,nan,nan,0.0,nan,nan,nan,nan,nan,nan,nan,nan,nan,nan,nan,nan,nan,nan,nan,nan,nan,nan,869.9690231489949,1050.1587073963601,nan,1050.548839700874,nan,nan,nan,nan
1,118,0,0,0.0,1.0,0.7819734765216708,0,8,5,1,2,4,7,nan,nan,nan,nan,nan,nan,nan,nan,nan,nan,nan,nan,0.0,nan,nan,nan,nan,nan,nan,nan,nan,nan,nan,nan,nan,nan,nan,nan,nan,nan,nan,869.9690231489949,1051.158842816949,nan,1051.9408162934706,nan,nan,nan,nan
1,119,1,1,1.0,1.0,0.6858184842858464,0,5,6,3,0,7,4,nan,nan,nan,nan,nan,nan,nan,nan,nan,nan,nan,nan,0.0,nan,nan,nan,nan,nan,nan,nan,nan,nan,nan,nan,nan,nan,nan,nan,nan,nan,nan,869.9690231489949,1052.1589639829472,nan,1052.844782467233,nan,nan,nan,nan
1,120,0,0,0.0,1.0,0.7976503507234156,0,3,7,2,5,0,1,nan,nan,nan,nan,nan,nan,nan,nan,nan,nan,nan,nan,0.0,nan,nan,nan,nan,nan,nan,nan,nan,nan,nan,nan,nan,nan,nan,nan,nan,nan,nan,869.9690231489949,1053.159107671352,nan,1053.9567580220755,nan,nan,nan,nan
1,121,1,1,1.0,1.0,0.5011479402892292,0,1,2,0,4,3,6,nan,nan,nan,nan,nan,nan,nan,nan,nan,nan,nan,nan,0.0,nan,nan,nan,nan,nan,nan,nan,nan,nan,nan,nan,nan,nan,nan,nan,nan,nan,nan,869.9690231489949,1054.1675696140155,nan,1054.6687175543047,nan,nan,nan,nan
1,122,1,1,1.0,1.0,0.3490524967201054,0,2,0,7,1,8,3,nan,nan,nan,nan,nan,nan,nan,nan,nan,nan,nan,nan,0.0,nan,nan,nan,nan,nan,nan,nan,nan,nan,nan,nan,nan,nan,nan,nan,nan,nan,nan,869.9690231489949,1055.1676773806103,nan,1055.5167298773304,nan,nan,nan,nan
1,123,1,1,1.0,1.0,0.3408910457510501,0,1,8,3,0,5,2,nan,nan,nan,nan,nan,nan,nan,nan,nan,nan,nan,nan,0.0,nan,nan,nan,nan,nan,nan,nan,nan,nan,nan,nan,nan,nan,nan,nan,nan,nan,nan,869.9690231489949,1056.1678176478017,nan,1056.5087086935528,nan,nan,nan,nan
1,124,1,1,1.0,1.0,0.49273617449216545,0,5,6,2,4,7,0,nan,nan,nan,nan,nan,nan,nan,nan,nan,nan,nan,nan,0.0,nan,nan,nan,nan,nan,nan,nan,nan,nan,nan,nan,nan,nan,nan,nan,nan,nan,nan,869.9690231489949,1057.167947936803,nan,1057.6606841112953,nan,nan,nan,nan
1,125,1,1,1.0,1.0,0.48458242090418935,0,6,0,4,7,5,2,nan,nan,nan,nan,nan,nan,nan,nan,nan,nan,nan,nan,0.0,nan,nan,nan,nan,nan,nan,nan,nan,nan,nan,nan,nan,nan,nan,nan,nan,nan,nan,869.9690231489949,1058.1680673921946,nan,1058.6526498130988,nan,nan,nan,nan
1,126,1,1,1.0,1.0,0.4924294108059257,0,8,3,2,4,0,6,nan,nan,nan,nan,nan,nan,nan,nan,nan,nan,nan,nan,0.0,nan,nan,nan,nan,nan,nan,nan,nan,nan,nan,nan,nan,nan,nan,nan,nan,nan,nan,869.9690231489949,1059.1681973962113,nan,1059.6606268070173,nan,nan,nan,nan
1,127,1,1,1.0,1.0,0.4042827731464058,0,7,0,6,3,4,2,nan,nan,nan,nan,nan,nan,nan,nan,nan,nan,nan,nan,0.0,nan,nan,nan,nan,nan,nan,nan,nan,nan,nan,nan,nan,nan,nan,nan,nan,nan,nan,869.9690231489949,1060.1683248342015,nan,1060.572607607348,nan,nan,nan,nan
1,128,1,1,1.0,1.0,0.6281537706963718,0,3,4,0,2,5,1,nan,nan,nan,nan,nan,nan,nan,nan,nan,nan,nan,nan,0.0,nan,nan,nan,nan,nan,nan,nan,nan,nan,nan,nan,nan,nan,nan,nan,nan,nan,nan,869.9690231489949,1061.168450561585,nan,1061.7966043322813,nan,nan,nan,nan
1,129,1,1,nan,nan,nan,0,1,8,7,6,3,0,nan,nan,nan,nan,nan,nan,nan,nan,nan,nan,nan,nan,0.0,nan,nan,nan,nan,nan,nan,nan,nan,nan,nan,nan,nan,nan,nan,nan,nan,nan,nan,869.9690231489949,1062.168584842002,nan,nan,nan,nan,nan,nan
1,130,1,1,1.0,1.0,0.6278509984258562,0,6,4,5,1,7,3,nan,nan,nan,nan,nan,nan,nan,nan,nan,nan,nan,nan,0.0,nan,nan,nan,nan,nan,nan,nan,nan,nan,nan,nan,nan,nan,nan,nan,nan,nan,nan,869.9690231489949,1063.168707148172,nan,1063.7965581465978,nan,nan,nan,nan
1,131,1,1,1.0,1.0,0.6756838818546385,0,4,0,1,5,3,2,nan,nan,nan,nan,nan,nan,nan,nan,nan,nan,nan,nan,0.0,nan,nan,nan,nan,nan,nan,nan,nan,nan,nan,nan,nan,nan,nan,nan,nan,nan,nan,869.9690231489949,1064.1688337309752,nan,1064.8445176128298,nan,nan,nan,nan
1,132,1,1,1.0,1.0,0.5155222094617784,0,1,4,2,0,8,3,nan,nan,nan,nan,nan,nan,nan,nan,nan,nan,nan,nan,0.0,nan,nan,nan,nan,nan,nan,nan,nan,nan,nan,nan,nan,nan,nan,nan,nan,nan,nan,869.9690231489949,1065.1689765641931,nan,1065.684498773655,nan,nan,nan,nan
1,133,0,0,0.0,1.0,0.5153816568199545,0,0,3,4,1,7,2,nan,nan,nan,nan,nan,nan,nan,nan,nan,nan,nan,nan,0.0,nan,nan,nan,nan,nan,nan,nan,nan,nan,nan,nan,nan,nan,nan,nan,nan,nan,nan,869.9690231489949,1066.169091172982,nan,1066.684472829802,nan,nan,nan,nan
1,134,1,1,1.0,1.0,0.459244774421677,0,4,2,3,6,5,8,nan,nan,nan,nan,nan,nan,nan,nan,nan,nan,nan,nan,0.0,nan,nan,nan,nan,nan,nan,nan,nan,nan,nan,nan,nan,nan,nan,nan,nan,nan,nan,869.9690231489949,1067.1692151897587,nan,1067.6284599641804,nan,nan,nan,nan
1,135,1,1,1.0,1.0,0.5630620138254017,0,5,4,7,0,3,6,nan,nan,nan,nan,nan,nan,nan,nan,nan,nan,nan,nan,0.0,nan,nan,nan,nan,nan,nan,nan,nan,nan,nan,nan,nan,nan,nan,nan,nan,nan,nan,869.9690231489949,1068.1693537465762,nan,1068.7324157604016,nan,nan,nan,nan
1,136,1,1,1.0,1.0,0.5549233704805374,0,8,0,5,2,4,7,nan,nan,nan,nan,nan,nan,nan,nan,nan,nan,nan,nan,0.0,nan,nan,nan,nan,nan,nan,nan,nan,nan,nan,nan,nan,nan,nan,nan,nan,nan,nan,869.9690231489949,1069.169487456791,nan,1069.7244108272716,nan,nan,nan,nan
1,137,0,0,0.0,1.0,0.5627669391687959,0,7,8,4,3,2,6,nan,nan,nan,nan,nan,nan,nan,nan,nan,nan,nan,nan,0.0,nan,nan,nan,nan,nan,nan,nan,nan,nan,nan,nan,nan,nan,nan,nan,nan,nan,nan,869.9690231489949,1070.1696071971674,nan,1070.7323741363361,nan,nan,nan,nan
1,138,1,1,1.0,1.0,0.4346230044029653,0,4,2,8,6,5,1,nan,nan,nan,nan,nan,nan,nan,nan,nan,nan,nan,nan,0.0,nan,nan,nan,nan,nan,nan,nan,nan,nan,nan,nan,nan,nan,nan,nan,nan,nan,nan,869.9690231489949,1071.169738056371,nan,1071.604361060774,nan,nan,nan,nan
1,139,1,1,1.0,1.0,0.30646994640119374,0,0,7,5,1,8,6,nan,nan,nan,nan,nan,nan,nan,nan,nan,nan,nan,nan,0.0,nan,nan,nan,nan,nan,nan,nan,nan,nan,nan,nan,nan,nan,nan,nan,nan,nan,nan,869.9690231489949,1072.1698657795787,nan,1072.4763357259799,nan,nan,nan,nan
1,140,1,1,1.0,1.0,0.26632040785625577,0,3,6,7,2,5,4,nan,nan,nan,nan,nan,nan,nan,nan,nan,nan,nan,nan,0.0,nan,nan,nan,nan,nan,nan,nan,nan,nan,nan,nan,nan,nan,nan,nan,nan,nan,nan,869.9690231489949,1073.1699880857486,nan,1073.4363084936049,nan,nan,nan,nan
1,141,1,1,1.0,1.0,0.4181629705708474,0,6,1,2,0,7,8,nan,nan,nan,nan,nan,nan,nan,nan,nan,nan,nan,nan,0.0,nan,nan,nan,nan,nan,nan,nan,nan,nan,nan,nan,nan,nan,nan,nan,nan,nan,nan,869.9690231489949,1074.170122081181,nan,1074.5882850517519,nan,nan,nan,nan
1,142,1,1,1.0,1.0,0.3060029586777091,0,2,7,4,1,0,5,nan,nan,nan,nan,nan,nan,nan,nan,nan,nan,nan,nan,0.0,nan,nan,nan,nan,nan,nan,nan,nan,nan,nan,nan,nan,nan,nan,nan,nan,nan,nan,869.9690231489949,1075.170248948969,nan,1075.4762519076467,nan,nan,nan,nan
1,143,0,0,1.0,0.0,0.2498521062079817,0,8,4,2,5,6,0,nan,nan,nan,nan,nan,nan,nan,nan,nan,nan,nan,nan,0.0,nan,nan,nan,nan,nan,nan,nan,nan,nan,nan,nan,nan,nan,nan,nan,nan,nan,nan,869.9690231489949,1076.17037496157,nan,1076.420227067778,nan,nan,nan,nan
1,144,1,1,1.0,1.0,0.4817203392740339,0,1,2,6,7,3,4,nan,nan,nan,nan,nan,nan,nan,nan,nan,nan,nan,nan,0.0,nan,nan,nan,nan,nan,nan,nan,nan,nan,nan,nan,nan,nan,nan,nan,nan,nan,nan,869.9690231489949,1077.1704969827551,nan,1077.6522173220292,nan,nan,nan,nan
1,145,1,1,1.0,1.0,0.36157335503958166,0,5,4,0,8,7,1,nan,nan,nan,nan,nan,nan,nan,nan,nan,nan,nan,nan,0.0,nan,nan,nan,nan,nan,nan,nan,nan,nan,nan,nan,nan,nan,nan,nan,nan,nan,nan,869.9690231489949,1078.1706267015543,nan,1078.5322000565939,nan,nan,nan,nan
1,146,1,1,1.0,1.0,0.321412697667256,0,2,1,4,5,8,7,nan,nan,nan,nan,nan,nan,nan,nan,nan,nan,nan,nan,0.0,nan,nan,nan,nan,nan,nan,nan,nan,nan,nan,nan,nan,nan,nan,nan,nan,nan,nan,869.9690231489949,1079.170755279949,nan,1079.4921679776162,nan,nan,nan,nan
1,147,1,1,nan,nan,nan,0,3,5,2,7,1,6,nan,nan,nan,nan,nan,nan,nan,nan,nan,nan,nan,nan,0.0,nan,nan,nan,nan,nan,nan,nan,nan,nan,nan,nan,nan,nan,nan,nan,nan,nan,nan,869.9690231489949,1080.179225205211,nan,nan,nan,nan,nan,nan
1,148,1,1,1.0,1.0,0.7607634535524994,0,2,7,0,1,8,3,nan,nan,nan,nan,nan,nan,nan,nan,nan,nan,nan,nan,0.0,nan,nan,nan,nan,nan,nan,nan,nan,nan,nan,nan,nan,nan,nan,nan,nan,nan,nan,869.9690231489949,1081.1793201423716,nan,1081.940083595924,nan,nan,nan,nan
1,149,0,0,0.0,1.0,0.5126176485791802,0,8,3,1,0,4,6,nan,nan,nan,nan,nan,nan,nan,nan,nan,nan,nan,nan,0.0,nan,nan,nan,nan,nan,nan,nan,nan,nan,nan,nan,nan,nan,nan,nan,nan,nan,nan,869.9690231489949,1082.1794758047909,nan,1082.69209345337,nan,nan,nan,nan
1,150,1,1,1.0,1.0,0.4884597302880138,0,4,2,7,1,5,0,nan,nan,nan,nan,nan,nan,nan,nan,nan,nan,nan,nan,0.0,nan,nan,nan,nan,nan,nan,nan,nan,nan,nan,nan,nan,nan,nan,nan,nan,nan,nan,869.9690231489949,1083.1796080896165,nan,1083.6680678199045,nan,nan,nan,nan
1,151,1,1,1.0,1.0,0.384322042344138,1,8,1,2,6,7,4,1.0,1.0,1.0,1.0,1.0,1.0,0.0,1.0,0.0,0.0,0.0,0.0,1.0,6.0,1.0,0.0,4.0,2.0,3.0,2.0,1.0,6.0,5.0,4.0,3.0,2.506485797697678,1.5692543049808592,6.4486340610310435,5.393101012101397,4.41774872597307,3.177957097068429,869.9690231489949,1084.1797269748058,1084.9881411353126,1084.56404901715,1092.4974334207363,1093.5016260466073,1086.013289477909,1092.4891060434747
1,152,1,1,nan,nan,nan,0,7,8,6,4,1,3,nan,nan,nan,nan,nan,nan,nan,nan,nan,nan,nan,nan,0.0,nan,nan,nan,nan,nan,nan,nan,nan,nan,nan,nan,nan,nan,nan,nan,nan,nan,nan,869.9690231489949,1093.7059528387617,nan,nan,nan,nan,nan,nan
1,153,1,1,1.0,1.0,0.385678245453164,0,0,1,5,7,2,6,nan,nan,nan,nan,nan,nan,nan,nan,nan,nan,nan,nan,0.0,nan,nan,nan,nan,nan,nan,nan,nan,nan,nan,nan,nan,nan,nan,nan,nan,nan,nan,869.9690231489949,1094.70608997019,nan,1095.0917682156432,nan,nan,nan,nan
1,154,1,1,1.0,1.0,0.5295902851503342,0,7,4,2,0,8,1,nan,nan,nan,nan,nan,nan,nan,nan,nan,nan,nan,nan,0.0,nan,nan,nan,nan,nan,nan,nan,nan,nan,nan,nan,nan,nan,nan,nan,nan,nan,nan,869.9690231489949,1095.7061834817287,nan,1096.235773766879,nan,nan,nan,nan
1,155,1,1,1.0,1.0,0.2654314774554223,0,0,5,6,7,2,8,nan,nan,nan,nan,nan,nan,nan,nan,nan,nan,nan,nan,0.0,nan,nan,nan,nan,nan,nan,nan,nan,nan,nan,nan,nan,nan,nan,nan,nan,nan,nan,869.9690231489949,1096.7063323019538,nan,1096.9717637794092,nan,nan,nan,nan
1,156,1,1,1.0,1.0,0.4013240442145616,1,1,0,2,5,4,7,1.0,1.0,1.0,1.0,1.0,1.0,0.0,1.0,0.0,0.0,0.0,0.0,1.0,5.0,0.0,3.0,8.0,1.0,6.0,2.0,1.0,6.0,5.0,4.0,3.0,2.3077149619348347,1.5732579121831805,6.690128569956869,6.042370723793283,4.938987971050665,3.1148476146627218,869.9690231489949,1097.7064232476987,1098.5148784620687,1098.1077472919133,1106.2575280384626,1107.260569445556,1099.5316931554116,1106.2491978104226
1,157,1,1,1.0,1.0,0.5214262683875859,0,7,1,6,0,5,4,nan,nan,nan,nan,nan,nan,nan,nan,nan,nan,nan,nan,0.0,nan,nan,nan,nan,nan,nan,nan,nan,nan,nan,nan,nan,nan,nan,nan,nan,nan,nan,869.9690231489949,1107.4660813829396,nan,1107.9875076513272,nan,nan,nan,nan
1,158,1,1,1.0,1.0,0.3933105580508709,0,1,8,0,6,3,7,nan,nan,nan,nan,nan,nan,nan,nan,nan,nan,nan,nan,0.0,nan,nan,nan,nan,nan,nan,nan,nan,nan,nan,nan,nan,nan,nan,nan,nan,nan,nan,869.9690231489949,1108.4661843026988,nan,1108.8594948607497,nan,nan,nan,nan
1,159,1,1,1.0,1.0,0.32915790821425617,0,5,6,3,8,7,4,nan,nan,nan,nan,nan,nan,nan,nan,nan,nan,nan,nan,0.0,nan,nan,nan,nan,nan,nan,nan,nan,nan,nan,nan,nan,nan,nan,nan,nan,nan,nan,869.9690231489949,1109.4663034731057,nan,1109.79546138132,nan,nan,nan,nan
1,160,1,1,1.0,1.0,0.3049974243622273,0,1,4,6,2,8,0,nan,nan,nan,nan,nan,nan,nan,nan,nan,nan,nan,nan,0.0,nan,nan,nan,nan,nan,nan,nan,nan,nan,nan,nan,nan,nan,nan,nan,nan,nan,nan,869.9690231489949,1110.4664371830877,nan,1110.77143460745,nan,nan,nan,nan
1,161,1,1,1.0,1.0,0.31286579626612365,0,0,7,8,5,6,2,nan,nan,nan,nan,nan,nan,nan,nan,nan,nan,nan,nan,0.0,nan,nan,nan,nan,nan,nan,nan,nan,nan,nan,nan,nan,nan,nan,nan,nan,nan,nan,869.9690231489949,1111.4665589192882,nan,1111.7794247155543,nan,nan,nan,nan
1,162,1,1,1.0,1.0,0.6086854010354728,0,6,5,0,8,2,1,nan,nan,nan,nan,nan,nan,nan,nan,nan,nan,nan,nan,0.0,nan,nan,nan,nan,nan,nan,nan,nan,nan,nan,nan,nan,nan,nan,nan,nan,nan,nan,869.9690231489949,1112.46669348469,nan,1113.0753788857255,nan,nan,nan,nan
1,163,1,1,1.0,1.0,0.6245575663633645,0,8,0,4,2,7,6,nan,nan,nan,nan,nan,nan,nan,nan,nan,nan,nan,nan,0.0,nan,nan,nan,nan,nan,nan,nan,nan,nan,nan,nan,nan,nan,nan,nan,nan,nan,nan,869.9690231489949,1113.4668197822757,nan,1114.091377348639,nan,nan,nan,nan
1,164,1,1,1.0,1.0,0.6244463787879795,0,4,6,2,3,8,7,nan,nan,nan,nan,nan,nan,nan,nan,nan,nan,nan,nan,0.0,nan,nan,nan,nan,nan,nan,nan,nan,nan,nan,nan,nan,nan,nan,nan,nan,nan,nan,869.9690231489949,1114.4669155746233,nan,1115.0913619534113,nan,nan,nan,nan
1,165,1,1,1.0,1.0,0.4882604479789734,0,8,5,4,7,3,0,nan,nan,nan,nan,nan,nan,nan,nan,nan,nan,nan,nan,0.0,nan,nan,nan,nan,nan,nan,nan,nan,nan,nan,nan,nan,nan,nan,nan,nan,nan,nan,869.9690231489949,1115.4670983215328,nan,1115.9553587695118,nan,nan,nan,nan
1,166,1,1,1.0,1.0,0.6080949667375535,0,4,3,8,1,2,7,nan,nan,nan,nan,nan,nan,nan,nan,nan,nan,nan,nan,0.0,nan,nan,nan,nan,nan,nan,nan,nan,nan,nan,nan,nan,nan,nan,nan,nan,nan,nan,869.9690231489949,1116.4672055176925,nan,1117.07530048443,nan,nan,nan,nan
1,167,0,0,0.0,1.0,0.6079575503244996,0,8,0,4,2,7,6,nan,nan,nan,nan,nan,nan,nan,nan,nan,nan,nan,nan,0.0,nan,nan,nan,nan,nan,nan,nan,nan,nan,nan,nan,nan,nan,nan,nan,nan,nan,nan,869.9690231489949,1117.4673292494845,nan,1118.075286799809,nan,nan,nan,nan
1,168,1,1,1.0,1.0,0.5357894187327474,0,5,2,1,0,6,3,nan,nan,nan,nan,nan,nan,nan,nan,nan,nan,nan,nan,0.0,nan,nan,nan,nan,nan,nan,nan,nan,nan,nan,nan,nan,nan,nan,nan,nan,nan,nan,869.9690231489949,1118.4674529812764,nan,1119.0032424000092,nan,nan,nan,nan
1,169,1,1,1.0,1.0,0.4796462641097605,0,2,0,3,6,5,8,nan,nan,nan,nan,nan,nan,nan,nan,nan,nan,nan,nan,0.0,nan,nan,nan,nan,nan,nan,nan,nan,nan,nan,nan,nan,nan,nan,nan,nan,nan,nan,869.9690231489949,1119.4675866912585,nan,1119.9472329553682,nan,nan,nan,nan
1,170,1,1,1.0,1.0,0.4235079556237906,0,5,3,8,2,7,4,nan,nan,nan,nan,nan,nan,nan,nan,nan,nan,nan,nan,0.0,nan,nan,nan,nan,nan,nan,nan,nan,nan,nan,nan,nan,nan,nan,nan,nan,nan,nan,869.9690231489949,1120.467712989077,nan,1120.8912209447008,nan,nan,nan,nan
1,171,1,1,1.0,1.0,0.5913578195031732,0,0,5,2,6,4,3,nan,nan,nan,nan,nan,nan,nan,nan,nan,nan,nan,nan,0.0,nan,nan,nan,nan,nan,nan,nan,nan,nan,nan,nan,nan,nan,nan,nan,nan,nan,nan,869.9690231489949,1121.4678347250447,nan,1122.0591925445478,nan,nan,nan,nan
1,172,1,1,1.0,1.0,0.5271983274724334,0,5,8,0,1,2,4,nan,nan,nan,nan,nan,nan,nan,nan,nan,nan,nan,nan,0.0,nan,nan,nan,nan,nan,nan,nan,nan,nan,nan,nan,nan,nan,nan,nan,nan,nan,nan,869.9690231489949,1122.4679618780501,nan,1122.9951602055226,nan,nan,nan,nan
1,173,1,1,1.0,1.0,0.3990618051029742,0,8,2,3,5,6,7,nan,nan,nan,nan,nan,nan,nan,nan,nan,nan,nan,nan,0.0,nan,nan,nan,nan,nan,nan,nan,nan,nan,nan,nan,nan,nan,nan,nan,nan,nan,nan,869.9690231489949,1123.4680918820668,nan,1123.8671536871698,nan,nan,nan,nan
1,174,1,1,1.0,1.0,0.3509281452279538,0,3,0,8,2,5,1,nan,nan,nan,nan,nan,nan,nan,nan,nan,nan,nan,nan,0.0,nan,nan,nan,nan,nan,nan,nan,nan,nan,nan,nan,nan,nan,nan,nan,nan,nan,nan,869.9690231489949,1124.4682235964574,nan,1124.8191517416853,nan,nan,nan,nan
1,175,1,1,1.0,1.0,0.47074441774748266,0,8,1,3,5,6,7,nan,nan,nan,nan,nan,nan,nan,nan,nan,nan,nan,nan,0.0,nan,nan,nan,nan,nan,nan,nan,nan,nan,nan,nan,nan,nan,nan,nan,nan,nan,nan,869.9690231489949,1125.4683484686539,nan,1125.9390928864013,nan,nan,nan,nan
1,176,1,1,nan,nan,nan,1,1,0,2,6,5,3,1.0,1.0,1.0,1.0,1.0,1.0,1.0,1.0,1.0,1.0,0.0,0.0,4.0,1.0,0.0,2.0,6.0,4.0,0.0,1.0,5.0,6.0,2.0,4.0,3.0,0.85906265466474,9.800497607095167,10.399801344843581,2.121959056239575,8.88043689285405,4.393072502454743,869.9690231489949,1126.4684864552692,1127.2769077431876,nan,1138.720025476301,1139.7234540439676,1128.285353720421,1138.7116864100099
1,177,1,1,1.0,1.0,0.42623062524944544,0,5,1,0,2,3,4,nan,nan,nan,nan,nan,nan,nan,nan,nan,nan,nan,nan,0.0,nan,nan,nan,nan,nan,nan,nan,nan,nan,nan,nan,nan,nan,nan,nan,nan,nan,nan,869.9690231489949,1139.9285389073193,nan,1140.3547695325688,nan,nan,nan,nan
1,178,0,0,1.0,0.0,0.258040071465075,0,3,0,4,7,2,8,nan,nan,nan,nan,nan,nan,nan,nan,nan,nan,nan,nan,0.0,nan,nan,nan,nan,nan,nan,nan,nan,nan,nan,nan,nan,nan,nan,nan,nan,nan,nan,869.9690231489949,1140.928692003945,nan,1141.18673207541,nan,nan,nan,nan
1,179,1,1,1.0,1.0,0.4819290298037231,0,8,6,0,1,5,2,nan,nan,nan,nan,nan,nan,nan,nan,nan,nan,nan,nan,0.0,nan,nan,nan,nan,nan,nan,nan,nan,nan,nan,nan,nan,nan,nan,nan,nan,nan,nan,869.9690231489949,1141.9287926428951,nan,1142.4107216726989,nan,nan,nan,nan
1,180,1,1,1.0,1.0,0.3137701218947768,0,2,0,4,5,6,8,nan,nan,nan,nan,nan,nan,nan,nan,nan,nan,nan,nan,0.0,nan,nan,nan,nan,nan,nan,nan,nan,nan,nan,nan,nan,nan,nan,nan,nan,nan,nan,869.9690231489949,1142.9289223616943,nan,1143.242692483589,nan,nan,nan,nan
1,181,1,1,1.0,1.0,0.27366790920495987,0,0,6,1,2,7,5,nan,nan,nan,nan,nan,nan,nan,nan,nan,nan,nan,nan,0.0,nan,nan,nan,nan,nan,nan,nan,nan,nan,nan,nan,nan,nan,nan,nan,nan,nan,nan,869.9690231489949,1143.9290093160234,nan,1144.2026772252284,nan,nan,nan,nan
1,182,1,1,1.0,1.0,0.28147555561736226,0,7,5,3,0,8,1,nan,nan,nan,nan,nan,nan,nan,nan,nan,nan,nan,nan,0.0,nan,nan,nan,nan,nan,nan,nan,nan,nan,nan,nan,nan,nan,nan,nan,nan,nan,nan,869.9690231489949,1144.9291698252782,nan,1145.2106453808956,nan,nan,nan,nan
1,183,1,1,1.0,1.0,0.2733229424338788,0,5,0,2,3,6,4,nan,nan,nan,nan,nan,nan,nan,nan,nan,nan,nan,nan,0.0,nan,nan,nan,nan,nan,nan,nan,nan,nan,nan,nan,nan,nan,nan,nan,nan,nan,nan,869.9690231489949,1145.9292986888904,nan,1146.2026216313243,nan,nan,nan,nan
1,184,1,1,1.0,1.0,0.24911570269614458,0,6,8,1,0,7,2,nan,nan,nan,nan,nan,nan,nan,nan,nan,nan,nan,nan,0.0,nan,nan,nan,nan,nan,nan,nan,nan,nan,nan,nan,nan,nan,nan,nan,nan,nan,nan,869.9690231489949,1146.9294802951626,nan,1147.1785959978588,nan,nan,nan,nan
1,185,1,1,1.0,1.0,0.3290119390003383,0,0,1,2,3,4,8,nan,nan,nan,nan,nan,nan,nan,nan,nan,nan,nan,nan,0.0,nan,nan,nan,nan,nan,nan,nan,nan,nan,nan,nan,nan,nan,nan,nan,nan,nan,nan,869.9690231489949,1147.9295569860842,nan,1148.2585689250845,nan,nan,nan,nan
1,186,1,1,1.0,1.0,0.29687303537502885,0,3,8,6,5,0,7,nan,nan,nan,nan,nan,nan,nan,nan,nan,nan,nan,nan,0.0,nan,nan,nan,nan,nan,nan,nan,nan,nan,nan,nan,nan,nan,nan,nan,nan,nan,nan,869.9690231489949,1148.9296835688874,nan,1149.2265566042624,nan,nan,nan,nan
1,187,1,1,1.0,1.0,0.30469807307235897,0,1,0,4,8,3,5,nan,nan,nan,nan,nan,nan,nan,nan,nan,nan,nan,nan,0.0,nan,nan,nan,nan,nan,nan,nan,nan,nan,nan,nan,nan,nan,nan,nan,nan,nan,nan,869.9690231489949,1149.929832103895,nan,1150.2345301769674,nan,nan,nan,nan
1,188,1,1,1.0,1.0,0.3445599495898932,0,7,6,5,1,2,3,nan,nan,nan,nan,nan,nan,nan,nan,nan,nan,nan,nan,0.0,nan,nan,nan,nan,nan,nan,nan,nan,nan,nan,nan,nan,nan,nan,nan,nan,nan,nan,869.9690231489949,1150.9299452872947,nan,1151.2745052368846,nan,nan,nan,nan
1,189,1,1,1.0,1.0,0.36840939382091165,0,0,4,1,2,8,6,nan,nan,nan,nan,nan,nan,nan,nan,nan,nan,nan,nan,0.0,nan,nan,nan,nan,nan,nan,nan,nan,nan,nan,nan,nan,nan,nan,nan,nan,nan,nan,869.9690231489949,1151.9300712996628,nan,1152.2984806934837,nan,nan,nan,nan
1,190,1,1,1.0,1.0,0.2722660906147212,0,5,0,6,8,3,7,nan,nan,nan,nan,nan,nan,nan,nan,nan,nan,nan,nan,0.0,nan,nan,nan,nan,nan,nan,nan,nan,nan,nan,nan,nan,nan,nan,nan,nan,nan,nan,869.9690231489949,1152.9301975974813,nan,1153.202463688096,nan,nan,nan,nan
1,191,1,1,1.0,1.0,0.2721144196111709,0,6,5,3,0,7,2,nan,nan,nan,nan,nan,nan,nan,nan,nan,nan,nan,nan,0.0,nan,nan,nan,nan,nan,nan,nan,nan,nan,nan,nan,nan,nan,nan,nan,nan,nan,nan,869.9690231489949,1153.9303301670589,nan,1154.20244458667,nan,nan,nan,nan
1,192,1,1,1.0,1.0,0.2159695541486144,0,1,3,5,7,2,4,nan,nan,nan,nan,nan,nan,nan,nan,nan,nan,nan,nan,0.0,nan,nan,nan,nan,nan,nan,nan,nan,nan,nan,nan,nan,nan,nan,nan,nan,nan,nan,869.9690231489949,1154.930448482046,nan,1155.1464180361945,nan,nan,nan,nan
1,193,1,1,1.0,1.0,0.2718016686849296,0,2,1,7,5,0,6,nan,nan,nan,nan,nan,nan,nan,nan,nan,nan,nan,nan,0.0,nan,nan,nan,nan,nan,nan,nan,nan,nan,nan,nan,nan,nan,nan,nan,nan,nan,nan,869.9690231489949,1155.9305944514927,nan,1156.2023961201776,nan,nan,nan,nan
1,194,0,0,1.0,0.0,0.5996504148934036,0,7,2,5,4,1,8,nan,nan,nan,nan,nan,nan,nan,nan,nan,nan,nan,nan,0.0,nan,nan,nan,nan,nan,nan,nan,nan,nan,nan,nan,nan,nan,nan,nan,nan,nan,nan,869.9690231489949,1156.9307113408577,nan,1157.530361755751,nan,nan,nan,nan
1,195,1,1,1.0,1.0,0.5675548459403217,0,8,7,4,0,3,1,nan,nan,nan,nan,nan,nan,nan,nan,nan,nan,nan,nan,0.0,nan,nan,nan,nan,nan,nan,nan,nan,nan,nan,nan,nan,nan,nan,nan,nan,nan,nan,869.9690231489949,1157.9307997208089,nan,1158.4983545667492,nan,nan,nan,nan
1,196,1,1,1.0,1.0,0.46332877851091325,0,0,6,2,4,1,5,nan,nan,nan,nan,nan,nan,nan,nan,nan,nan,nan,nan,0.0,nan,nan,nan,nan,nan,nan,nan,nan,nan,nan,nan,nan,nan,nan,nan,nan,nan,nan,869.9690231489949,1158.930981327081,nan,1159.394310105592,nan,nan,nan,nan
1,197,1,1,1.0,1.0,0.5111921671777964,0,2,5,0,1,8,7,nan,nan,nan,nan,nan,nan,nan,nan,nan,nan,nan,nan,0.0,nan,nan,nan,nan,nan,nan,nan,nan,nan,nan,nan,nan,nan,nan,nan,nan,nan,nan,869.9690231489949,1159.9310993568506,nan,1160.4422915240284,nan,nan,nan,nan
1,198,1,1,1.0,1.0,0.3910397661384195,0,6,0,8,7,2,4,nan,nan,nan,nan,nan,nan,nan,nan,nan,nan,nan,nan,0.0,nan,nan,nan,nan,nan,nan,nan,nan,nan,nan,nan,nan,nan,nan,nan,nan,nan,nan,869.9690231489949,1160.9312208078336,nan,1161.322260573972,nan,nan,nan,nan
1,199,1,1,1.0,1.0,0.44690723274834454,0,7,2,3,6,1,5,nan,nan,nan,nan,nan,nan,nan,nan,nan,nan,nan,nan,0.0,nan,nan,nan,nan,nan,nan,nan,nan,nan,nan,nan,nan,nan,nan,nan,nan,nan,nan,869.9690231489949,1161.9313473906368,nan,1162.3782546233851,nan,nan,nan,nan
1,200,1,1,nan,nan,nan,0,8,1,6,5,4,0,nan,nan,nan,nan,nan,nan,nan,nan,nan,nan,nan,nan,0.0,nan,nan,nan,nan,nan,nan,nan,nan,nan,nan,nan,nan,nan,nan,nan,nan,nan,nan,869.9690231489949,1162.9314796754625,nan,nan,nan,nan,nan,nan
1,201,1,1,1.0,1.0,0.6626045198645443,0,6,5,7,0,2,4,nan,nan,nan,nan,nan,nan,nan,nan,nan,nan,nan,nan,0.0,nan,nan,nan,nan,nan,nan,nan,nan,nan,nan,nan,nan,nan,nan,nan,nan,nan,nan,869.9690231489949,1163.9316102494486,nan,1164.594214769313,nan,nan,nan,nan
1,202,1,1,1.0,1.0,0.5424307365901768,0,5,2,3,4,8,0,nan,nan,nan,nan,nan,nan,nan,nan,nan,nan,nan,nan,0.0,nan,nan,nan,nan,nan,nan,nan,nan,nan,nan,nan,nan,nan,nan,nan,nan,nan,nan,869.9690231489949,1164.9317342662252,nan,1165.4741650028154,nan,nan,nan,nan
1,203,1,1,1.0,1.0,0.4542886605486274,0,4,0,1,6,5,7,nan,nan,nan,nan,nan,nan,nan,nan,nan,nan,nan,nan,0.0,nan,nan,nan,nan,nan,nan,nan,nan,nan,nan,nan,nan,nan,nan,nan,nan,nan,nan,869.9690231489949,1165.9318659808487,nan,1166.3861546413973,nan,nan,nan,nan
1,204,0,0,0.0,1.0,0.7501236605457962,0,2,6,7,8,1,3,nan,nan,nan,nan,nan,nan,nan,nan,nan,nan,nan,nan,0.0,nan,nan,nan,nan,nan,nan,nan,nan,nan,nan,nan,nan,nan,nan,nan,nan,nan,nan,869.9690231489949,1166.9320102394558,nan,1167.6821339000016,nan,nan,nan,nan
1,205,1,1,1.0,1.0,0.40600161883048713,0,3,7,5,4,6,1,nan,nan,nan,nan,nan,nan,nan,nan,nan,nan,nan,nan,0.0,nan,nan,nan,nan,nan,nan,nan,nan,nan,nan,nan,nan,nan,nan,nan,nan,nan,nan,869.9690231489949,1167.9321191462222,nan,1168.3381207650527,nan,nan,nan,nan
1,206,1,1,1.0,1.0,0.2778360166121274,0,7,8,6,1,4,2,nan,nan,nan,nan,nan,nan,nan,nan,nan,nan,nan,nan,0.0,nan,nan,nan,nan,nan,nan,nan,nan,nan,nan,nan,nan,nan,nan,nan,nan,nan,nan,869.9690231489949,1168.9322517160326,nan,1169.2100877326448,nan,nan,nan,nan
1,207,1,1,1.0,1.0,0.29366513225249946,0,0,6,5,3,1,4,nan,nan,nan,nan,nan,nan,nan,nan,nan,nan,nan,nan,0.0,nan,nan,nan,nan,nan,nan,nan,nan,nan,nan,nan,nan,nan,nan,nan,nan,nan,nan,869.9690231489949,1169.9323854262475,nan,1170.2260505585,nan,nan,nan,nan
1,208,1,1,1.0,1.0,0.35753411101177335,0,4,8,2,6,5,3,nan,nan,nan,nan,nan,nan,nan,nan,nan,nan,nan,nan,0.0,nan,nan,nan,nan,nan,nan,nan,nan,nan,nan,nan,nan,nan,nan,nan,nan,nan,nan,869.9690231489949,1170.9325037412345,nan,1171.2900378522463,nan,nan,nan,nan
1,209,1,1,1.0,1.0,0.2613816848024726,0,3,4,5,1,6,7,nan,nan,nan,nan,nan,nan,nan,nan,nan,nan,nan,nan,0.0,nan,nan,nan,nan,nan,nan,nan,nan,nan,nan,nan,nan,nan,nan,nan,nan,nan,nan,869.9690231489949,1171.932631749427,nan,1172.1940134342294,nan,nan,nan,nan
1,210,1,1,1.0,1.0,0.3492380944080651,0,2,7,8,0,5,3,nan,nan,nan,nan,nan,nan,nan,nan,nan,nan,nan,nan,0.0,nan,nan,nan,nan,nan,nan,nan,nan,nan,nan,nan,nan,nan,nan,nan,nan,nan,nan,869.9690231489949,1172.9327603278216,nan,1173.2819984222297,nan,nan,nan,nan
1,211,1,1,1.0,1.0,0.24509185389615595,0,5,0,3,7,6,1,nan,nan,nan,nan,nan,nan,nan,nan,nan,nan,nan,nan,0.0,nan,nan,nan,nan,nan,nan,nan,nan,nan,nan,nan,nan,nan,nan,nan,nan,nan,nan,869.9690231489949,1173.9328920422122,nan,1174.1779838961083,nan,nan,nan,nan
1,212,1,1,1.0,1.0,0.3809342433232814,0,1,4,0,8,7,2,nan,nan,nan,nan,nan,nan,nan,nan,nan,nan,nan,nan,0.0,nan,nan,nan,nan,nan,nan,nan,nan,nan,nan,nan,nan,nan,nan,nan,nan,nan,nan,869.9690231489949,1174.9330171996262,nan,1175.3139514429495,nan,nan,nan,nan
1,213,1,1,1.0,1.0,0.3647721353918314,0,3,1,5,4,0,7,nan,nan,nan,nan,nan,nan,nan,nan,nan,nan,nan,nan,0.0,nan,nan,nan,nan,nan,nan,nan,nan,nan,nan,nan,nan,nan,nan,nan,nan,nan,nan,869.9690231489949,1175.9331454928033,nan,1176.2979176281951,nan,nan,nan,nan
1,214,1,1,1.0,1.0,0.41263238806277514,0,7,2,8,6,3,0,nan,nan,nan,nan,nan,nan,nan,nan,nan,nan,nan,nan,0.0,nan,nan,nan,nan,nan,nan,nan,nan,nan,nan,nan,nan,nan,nan,nan,nan,nan,nan,869.9690231489949,1176.9332715054043,nan,1177.345903893467,nan,nan,nan,nan
1,215,1,1,1.0,1.0,0.3245005754288286,0,1,7,3,2,4,6,nan,nan,nan,nan,nan,nan,nan,nan,nan,nan,nan,nan,0.0,nan,nan,nan,nan,nan,nan,nan,nan,nan,nan,nan,nan,nan,nan,nan,nan,nan,nan,869.9690231489949,1177.933396092616,nan,1178.2578966680449,nan,nan,nan,nan
1,216,1,1,1.0,1.0,0.2923439962323755,0,5,0,4,3,2,7,nan,nan,nan,nan,nan,nan,nan,nan,nan,nan,nan,nan,0.0,nan,nan,nan,nan,nan,nan,nan,nan,nan,nan,nan,nan,nan,nan,nan,nan,nan,nan,869.9690231489949,1178.9335226751864,nan,1179.2258666714188,nan,nan,nan,nan
1,217,0,0,1.0,0.0,0.21217862865887582,0,3,5,6,1,7,4,nan,nan,nan,nan,nan,nan,nan,nan,nan,nan,nan,nan,0.0,nan,nan,nan,nan,nan,nan,nan,nan,nan,nan,nan,nan,nan,nan,nan,nan,nan,nan,869.9690231489949,1179.9336583812255,nan,1180.1458370098844,nan,nan,nan,nan
1,218,1,1,1.0,1.0,0.3560373557265848,0,4,8,1,5,0,6,nan,nan,nan,nan,nan,nan,nan,nan,nan,nan,nan,nan,0.0,nan,nan,nan,nan,nan,nan,nan,nan,nan,nan,nan,nan,nan,nan,nan,nan,nan,nan,869.9690231489949,1180.9337789767887,nan,1181.2898163325153,nan,nan,nan,nan
1,219,1,1,1.0,1.0,0.31589009752497077,0,1,4,5,6,2,3,nan,nan,nan,nan,nan,nan,nan,nan,nan,nan,nan,nan,0.0,nan,nan,nan,nan,nan,nan,nan,nan,nan,nan,nan,nan,nan,nan,nan,nan,nan,nan,869.9690231489949,1181.9339052746072,nan,1182.2497953721322,nan,nan,nan,nan
1,220,1,1,1.0,1.0,0.2677159539889544,0,0,7,2,3,1,8,nan,nan,nan,nan,nan,nan,nan,nan,nan,nan,nan,nan,0.0,nan,nan,nan,nan,nan,nan,nan,nan,nan,nan,nan,nan,nan,nan,nan,nan,nan,nan,869.9690231489949,1182.934042120818,nan,1183.201758074807,nan,nan,nan,nan
1,221,1,1,1.0,1.0,0.25961095187813044,0,6,5,0,4,8,3,nan,nan,nan,nan,nan,nan,nan,nan,nan,nan,nan,nan,0.0,nan,nan,nan,nan,nan,nan,nan,nan,nan,nan,nan,nan,nan,nan,nan,nan,nan,nan,869.9690231489949,1183.934126224136,nan,1184.193737176014,nan,nan,nan,nan
1,222,0,0,1.0,0.0,0.267428862163797,0,7,8,6,2,4,1,nan,nan,nan,nan,nan,nan,nan,nan,nan,nan,nan,nan,0.0,nan,nan,nan,nan,nan,nan,nan,nan,nan,nan,nan,nan,nan,nan,nan,nan,nan,nan,869.9690231489949,1184.9343012731988,nan,1185.2017301353626,nan,nan,nan,nan
1,223,1,1,1.0,1.0,0.4672633921727538,0,8,4,0,5,7,2,nan,nan,nan,nan,nan,nan,nan,nan,nan,nan,nan,nan,0.0,nan,nan,nan,nan,nan,nan,nan,nan,nan,nan,nan,nan,nan,nan,nan,nan,nan,nan,869.9690231489949,1185.934424720006,nan,1186.4016881121788,nan,nan,nan,nan
1,224,1,1,1.0,1.0,0.43512334837578237,0,5,1,8,7,2,3,nan,nan,nan,nan,nan,nan,nan,nan,nan,nan,nan,nan,0.0,nan,nan,nan,nan,nan,nan,nan,nan,nan,nan,nan,nan,nan,nan,nan,nan,nan,nan,869.9690231489949,1186.9345527281985,nan,1187.3696760765743,nan,nan,nan,nan
1,225,1,1,1.0,1.0,0.24297900521196425,0,3,8,7,4,1,2,nan,nan,nan,nan,nan,nan,nan,nan,nan,nan,nan,nan,0.0,nan,nan,nan,nan,nan,nan,nan,nan,nan,nan,nan,nan,nan,nan,nan,nan,nan,nan,869.9690231489949,1187.934677600395,nan,1188.177656605607,nan,nan,nan,nan
1,226,1,1,1.0,1.0,0.5548629299737513,0,5,0,2,3,8,7,nan,nan,nan,nan,nan,nan,nan,nan,nan,nan,nan,nan,0.0,nan,nan,nan,nan,nan,nan,nan,nan,nan,nan,nan,nan,nan,nan,nan,nan,nan,nan,869.9690231489949,1188.9347696863115,nan,1189.4896326162852,nan,nan,nan,nan
1,227,1,1,1.0,1.0,0.4986701684538275,0,7,5,3,2,4,8,nan,nan,nan,nan,nan,nan,nan,nan,nan,nan,nan,nan,0.0,nan,nan,nan,nan,nan,nan,nan,nan,nan,nan,nan,nan,nan,nan,nan,nan,nan,nan,869.9690231489949,1189.9349339017645,nan,1190.4336040702183,nan,nan,nan,nan
1,228,1,1,1.0,1.0,0.3865566272288561,0,0,3,1,7,6,5,nan,nan,nan,nan,nan,nan,nan,nan,nan,nan,nan,nan,0.0,nan,nan,nan,nan,nan,nan,nan,nan,nan,nan,nan,nan,nan,nan,nan,nan,nan,nan,869.9690231489949,1190.9350259879138,nan,1191.3215826151427,nan,nan,nan,nan
1,229,1,1,1.0,1.0,0.258360234554857,0,6,5,3,1,0,7,nan,nan,nan,nan,nan,nan,nan,nan,nan,nan,nan,nan,0.0,nan,nan,nan,nan,nan,nan,nan,nan,nan,nan,nan,nan,nan,nan,nan,nan,nan,nan,869.9690231489949,1191.9351916289888,nan,1192.1935518635437,nan,nan,nan,nan
1,230,1,1,1.0,1.0,0.5222541878465563,0,3,0,2,7,5,6,nan,nan,nan,nan,nan,nan,nan,nan,nan,nan,nan,nan,0.0,nan,nan,nan,nan,nan,nan,nan,nan,nan,nan,nan,nan,nan,nan,nan,nan,nan,nan,869.9690231489949,1192.9352797237225,nan,1193.457533911569,nan,nan,nan,nan
1,231,1,1,1.0,1.0,0.3300633740145713,1,0,2,7,3,1,8,1.0,1.0,1.0,1.0,1.0,1.0,1.0,1.0,0.0,0.0,0.0,0.0,2.0,0.0,2.0,0.0,1.0,8.0,7.0,2.0,1.0,6.0,5.0,4.0,3.0,2.2276254303287715,0.9793581743724644,6.075411387020722,5.444066818803549,4.596525759901851,3.5650753639638424,869.9690231489949,1193.935453347396,1194.7438683630899,1194.2655167214107,1201.8697651689872,1202.8708445436787,1195.7523354373407,1201.861435225932
1,232,1,1,nan,nan,nan,0,7,4,5,6,8,1,nan,nan,nan,nan,nan,nan,nan,nan,nan,nan,nan,nan,0.0,nan,nan,nan,nan,nan,nan,nan,nan,nan,nan,nan,nan,nan,nan,nan,nan,nan,nan,869.9690231489949,1203.0782919996418,nan,nan,nan,nan,nan,nan
1,233,1,1,1.0,1.0,0.43482827371917665,0,8,2,3,7,5,6,nan,nan,nan,nan,nan,nan,nan,nan,nan,nan,nan,nan,0.0,nan,nan,nan,nan,nan,nan,nan,nan,nan,nan,nan,nan,nan,nan,nan,nan,nan,nan,869.9690231489949,1204.0784182972275,nan,1204.5132465709466,nan,nan,nan,nan
1,234,0,0,1.0,0.0,0.258700639475137,0,1,7,8,0,4,2,nan,nan,nan,nan,nan,nan,nan,nan,nan,nan,nan,nan,0.0,nan,nan,nan,nan,nan,nan,nan,nan,nan,nan,nan,nan,nan,nan,nan,nan,nan,nan,869.9690231489949,1205.0785540030338,nan,1205.337254642509,nan,nan,nan,nan
1,235,1,1,1.0,1.0,0.3225533680524677,0,2,5,7,6,3,4,nan,nan,nan,nan,nan,nan,nan,nan,nan,nan,nan,nan,0.0,nan,nan,nan,nan,nan,nan,nan,nan,nan,nan,nan,nan,nan,nan,nan,nan,nan,nan,869.9690231489949,1206.0786700372119,nan,1206.4012234052643,nan,nan,nan,nan
1,236,1,1,1.0,1.0,0.29840742354281247,0,7,8,4,2,5,3,nan,nan,nan,nan,nan,nan,nan,nan,nan,nan,nan,nan,0.0,nan,nan,nan,nan,nan,nan,nan,nan,nan,nan,nan,nan,nan,nan,nan,nan,nan,nan,869.9690231489949,1207.078801181633,nan,1207.3772086051758,nan,nan,nan,nan
1,237,1,1,1.0,1.0,0.3302321508526802,0,8,7,6,1,0,5,nan,nan,nan,nan,nan,nan,nan,nan,nan,nan,nan,nan,0.0,nan,nan,nan,nan,nan,nan,nan,nan,nan,nan,nan,nan,nan,nan,nan,nan,nan,nan,869.9690231489949,1208.0789337514434,nan,1208.409165902296,nan,nan,nan,nan
1,238,1,1,1.0,1.0,0.2660954666789621,0,3,8,2,7,4,6,nan,nan,nan,nan,nan,nan,nan,nan,nan,nan,nan,nan,0.0,nan,nan,nan,nan,nan,nan,nan,nan,nan,nan,nan,nan,nan,nan,nan,nan,nan,nan,869.9690231489949,1209.079063185025,nan,1209.345158651704,nan,nan,nan,nan
1,239,1,1,1.0,1.0,0.32193870027549565,0,2,0,3,1,5,8,nan,nan,nan,nan,nan,nan,nan,nan,nan,nan,nan,nan,0.0,nan,nan,nan,nan,nan,nan,nan,nan,nan,nan,nan,nan,nan,nan,nan,nan,nan,nan,869.9690231489949,1210.0791834956035,nan,1210.401122195879,nan,nan,nan,nan
1,240,1,1,1.0,1.0,0.3377929045818746,0,8,5,1,3,7,2,nan,nan,nan,nan,nan,nan,nan,nan,nan,nan,nan,nan,0.0,nan,nan,nan,nan,nan,nan,nan,nan,nan,nan,nan,nan,nan,nan,nan,nan,nan,nan,869.9690231489949,1211.0793246182147,nan,1211.4171175227966,nan,nan,nan,nan
1,241,1,1,1.0,1.0,0.2736981292255223,0,5,4,7,1,3,8,nan,nan,nan,nan,nan,nan,nan,nan,nan,nan,nan,nan,0.0,nan,nan,nan,nan,nan,nan,nan,nan,nan,nan,nan,nan,nan,nan,nan,nan,nan,nan,869.9690231489949,1212.0793876245152,nan,1212.3530857537407,nan,nan,nan,nan
1,242,1,1,1.0,1.0,0.28951042401604354,0,7,5,8,2,6,3,nan,nan,nan,nan,nan,nan,nan,nan,nan,nan,nan,nan,0.0,nan,nan,nan,nan,nan,nan,nan,nan,nan,nan,nan,nan,nan,nan,nan,nan,nan,nan,869.9690231489949,1213.0795646694023,nan,1213.3690750934184,nan,nan,nan,nan
1,243,1,1,1.0,1.0,0.37737424625083804,0,5,7,0,4,2,1,nan,nan,nan,nan,nan,nan,nan,nan,nan,nan,nan,nan,0.0,nan,nan,nan,nan,nan,nan,nan,nan,nan,nan,nan,nan,nan,nan,nan,nan,nan,nan,869.9690231489949,1214.0796604617499,nan,1214.4570347080007,nan,nan,nan,nan
1,244,1,1,1.0,1.0,0.2732126102782786,0,2,3,8,6,4,5,nan,nan,nan,nan,nan,nan,nan,nan,nan,nan,nan,nan,0.0,nan,nan,nan,nan,nan,nan,nan,nan,nan,nan,nan,nan,nan,nan,nan,nan,nan,nan,869.9690231489949,1215.079819260398,nan,1215.3530318706762,nan,nan,nan,nan
1,245,1,1,1.0,1.0,0.24105945182964206,1,8,2,1,7,6,3,1.0,1.0,1.0,1.0,1.0,1.0,0.0,0.0,0.0,0.0,0.0,0.0,0.0,7.0,0.0,5.0,3.0,1.0,8.0,2.0,3.0,4.0,5.0,6.0,1.0,2.978692759294063,4.065770856104791,5.497992209391668,6.594748469535261,7.9216461344622076,0.9322711024433374,869.9690231489949,1216.0799475538079,1216.888368271524,1216.3210070056375,1225.8645196827129,1226.8631078859325,1217.9051715610549,1225.856175769819
1,246,1,1,1.0,1.0,0.8000423081684858,0,7,5,8,6,2,4,nan,nan,nan,nan,nan,nan,nan,nan,nan,nan,nan,nan,0.0,nan,nan,nan,nan,nan,nan,nan,nan,nan,nan,nan,nan,nan,nan,nan,nan,nan,nan,869.9690231489949,1227.0646894860547,nan,1227.8647317942232,nan,nan,nan,nan
1,247,1,1,1.0,1.0,0.31158343330025673,0,6,8,7,2,4,0,nan,nan,nan,nan,nan,nan,nan,nan,nan,nan,nan,nan,0.0,nan,nan,nan,nan,nan,nan,nan,nan,nan,nan,nan,nan,nan,nan,nan,nan,nan,nan,869.9690231489949,1228.0731277656741,nan,1228.3847111989744,nan,nan,nan,nan
1,248,1,1,1.0,1.0,0.27903228043578565,0,3,0,6,1,5,4,nan,nan,nan,nan,nan,nan,nan,nan,nan,nan,nan,nan,0.0,nan,nan,nan,nan,nan,nan,nan,nan,nan,nan,nan,nan,nan,nan,nan,nan,nan,nan,869.9690231489949,1229.0816569910385,nan,1229.3606892714743,nan,nan,nan,nan
1,249,1,1,1.0,1.0,0.24695267714560032,0,8,6,7,5,4,1,nan,nan,nan,nan,nan,nan,nan,nan,nan,nan,nan,nan,0.0,nan,nan,nan,nan,nan,nan,nan,nan,nan,nan,nan,nan,nan,nan,nan,nan,nan,nan,869.9690231489949,1230.0817316861358,nan,1230.3286843632814,nan,nan,nan,nan
1,250,1,1,1.0,1.0,0.2384459744207561,0,1,4,3,0,7,8,nan,nan,nan,nan,nan,nan,nan,nan,nan,nan,nan,nan,0.0,nan,nan,nan,nan,nan,nan,nan,nan,nan,nan,nan,nan,nan,nan,nan,nan,nan,nan,869.9690231489949,1231.0902056028135,nan,1231.3286515772343,nan,nan,nan,nan
1,251,1,1,1.0,1.0,0.20629053539596498,0,5,2,6,1,3,0,nan,nan,nan,nan,nan,nan,nan,nan,nan,nan,nan,nan,0.0,nan,nan,nan,nan,nan,nan,nan,nan,nan,nan,nan,nan,nan,nan,nan,nan,nan,nan,869.9690231489949,1232.0903398832306,nan,1232.2966304186266,nan,nan,nan,nan
1,252,1,1,1.0,1.0,0.030134961707517505,0,3,1,0,6,8,7,nan,nan,nan,nan,nan,nan,nan,nan,nan,nan,nan,nan,0.0,nan,nan,nan,nan,nan,nan,nan,nan,nan,nan,nan,nan,nan,nan,nan,nan,nan,nan,869.9690231489949,1233.090467891423,nan,1233.1206028531305,nan,nan,nan,nan
1,253,1,1,1.0,1.0,0.23002052423544228,0,6,0,4,3,2,5,nan,nan,nan,nan,nan,nan,nan,nan,nan,nan,nan,nan,0.0,nan,nan,nan,nan,nan,nan,nan,nan,nan,nan,nan,nan,nan,nan,nan,nan,nan,nan,869.9690231489949,1234.0905696707778,nan,1234.3205901950132,nan,nan,nan,nan
1,254,1,1,1.0,1.0,0.16582653555087745,0,1,3,5,7,6,8,nan,nan,nan,nan,nan,nan,nan,nan,nan,nan,nan,nan,0.0,nan,nan,nan,nan,nan,nan,nan,nan,nan,nan,nan,nan,nan,nan,nan,nan,nan,nan,869.9690231489949,1235.0907307502348,nan,1235.2565572857857,nan,nan,nan,nan
1,255,1,1,1.0,1.0,0.053724683122709394,0,8,2,1,0,4,5,nan,nan,nan,nan,nan,nan,nan,nan,nan,nan,nan,nan,0.0,nan,nan,nan,nan,nan,nan,nan,nan,nan,nan,nan,nan,nan,nan,nan,nan,nan,nan,869.9690231489949,1236.0908456440084,nan,1236.144570327131,nan,nan,nan,nan
1,256,1,1,1.0,1.0,0.11767405923455954,0,3,8,0,6,5,7,nan,nan,nan,nan,nan,nan,nan,nan,nan,nan,nan,nan,0.0,nan,nan,nan,nan,nan,nan,nan,nan,nan,nan,nan,nan,nan,nan,nan,nan,nan,nan,869.9690231489949,1237.090984200826,nan,1237.2086582600605,nan,nan,nan,nan
1,257,0,0,1.0,0.0,0.15705611859448254,0,2,0,3,5,6,1,nan,nan,nan,nan,nan,nan,nan,nan,nan,nan,nan,nan,0.0,nan,nan,nan,nan,nan,nan,nan,nan,nan,nan,nan,nan,nan,nan,nan,nan,nan,nan,869.9690231489949,1238.0994367352687,nan,1238.2564928538632,nan,nan,nan,nan
1,258,1,1,1.0,1.0,0.4289039729628712,0,6,4,2,0,7,8,nan,nan,nan,nan,nan,nan,nan,nan,nan,nan,nan,nan,0.0,nan,nan,nan,nan,nan,nan,nan,nan,nan,nan,nan,nan,nan,nan,nan,nan,nan,nan,869.9690231489949,1239.099563318072,nan,1239.5284672910348,nan,nan,nan,nan
1,259,1,1,1.0,1.0,0.29274227540008724,1,5,2,6,1,0,3,1.0,1.0,1.0,1.0,1.0,1.0,1.0,0.0,0.0,1.0,0.0,0.0,2.0,5.0,8.0,3.0,1.0,2.0,0.0,2.0,4.0,5.0,1.0,6.0,3.0,2.079653619322926,3.886618350399658,4.797592476010323,1.006734544178471,5.5410842266865075,2.9982190034352243,869.9690231489949,1240.0996910412796,1240.9081071973778,1240.3924333166797,1247.5172880957834,1248.5154255616944,1241.9332444213796,1247.50895444653
1,260,0,0,nan,nan,nan,0,1,8,4,7,6,5,nan,nan,nan,nan,nan,nan,nan,nan,nan,nan,nan,nan,0.0,nan,nan,nan,nan,nan,nan,nan,nan,nan,nan,nan,nan,nan,nan,nan,nan,nan,nan,869.9690231489949,1248.717445925111,nan,nan,nan,nan,nan,nan
1,261,1,1,1.0,1.0,0.41859888285398483,0,7,6,5,0,8,2,nan,nan,nan,nan,nan,nan,nan,nan,nan,nan,nan,nan,0.0,nan,nan,nan,nan,nan,nan,nan,nan,nan,nan,nan,nan,nan,nan,nan,nan,nan,nan,869.9690231489949,1249.7175953155383,nan,1250.1361941983923,nan,nan,nan,nan
1,262,1,1,1.0,1.0,0.2504567955620587,0,0,8,4,1,3,7,nan,nan,nan,nan,nan,nan,nan,nan,nan,nan,nan,nan,0.0,nan,nan,nan,nan,nan,nan,nan,nan,nan,nan,nan,nan,nan,nan,nan,nan,nan,nan,869.9690231489949,1250.7177415699698,nan,1250.9681983655319,nan,nan,nan,nan
1,263,1,1,1.0,1.0,0.22631313209421933,0,4,5,3,0,7,1,nan,nan,nan,nan,nan,nan,nan,nan,nan,nan,nan,nan,0.0,nan,nan,nan,nan,nan,nan,nan,nan,nan,nan,nan,nan,nan,nan,nan,nan,nan,nan,869.9690231489949,1251.717856748728,nan,1251.9441698808223,nan,nan,nan,nan
1,264,1,1,1.0,1.0,0.2101892267819494,0,5,1,2,3,4,6,nan,nan,nan,nan,nan,nan,nan,nan,nan,nan,nan,nan,0.0,nan,nan,nan,nan,nan,nan,nan,nan,nan,nan,nan,nan,nan,nan,nan,nan,nan,nan,869.9690231489949,1252.7179699321277,nan,1252.9281591589097,nan,nan,nan,nan
1,265,1,1,1.0,1.0,0.25002458947710693,0,2,5,1,4,6,0,nan,nan,nan,nan,nan,nan,nan,nan,nan,nan,nan,nan,0.0,nan,nan,nan,nan,nan,nan,nan,nan,nan,nan,nan,nan,nan,nan,nan,nan,nan,nan,869.9690231489949,1253.7181027869228,nan,1253.9681273764,nan,nan,nan,nan
1,266,1,1,1.0,1.0,0.24987377366051078,0,5,4,6,8,1,3,nan,nan,nan,nan,nan,nan,nan,nan,nan,nan,nan,nan,0.0,nan,nan,nan,nan,nan,nan,nan,nan,nan,nan,nan,nan,nan,nan,nan,nan,nan,nan,869.9690231489949,1254.718227944104,nan,1254.9681017177645,nan,nan,nan,nan
1,267,1,1,1.0,1.0,0.26573481992818415,0,4,3,8,1,6,2,nan,nan,nan,nan,nan,nan,nan,nan,nan,nan,nan,nan,0.0,nan,nan,nan,nan,nan,nan,nan,nan,nan,nan,nan,nan,nan,nan,nan,nan,nan,nan,869.9690231489949,1255.7183602289297,nan,1255.9840950488579,nan,nan,nan,nan
1,268,1,1,1.0,1.0,0.23356854729354382,0,8,7,2,6,0,4,nan,nan,nan,nan,nan,nan,nan,nan,nan,nan,nan,nan,0.0,nan,nan,nan,nan,nan,nan,nan,nan,nan,nan,nan,nan,nan,nan,nan,nan,nan,nan,869.9690231489949,1256.7184853861108,nan,1256.9520539334044,nan,nan,nan,nan
1,269,1,1,1.0,1.0,0.28145075240172446,0,5,4,0,7,1,3,nan,nan,nan,nan,nan,nan,nan,nan,nan,nan,nan,nan,0.0,nan,nan,nan,nan,nan,nan,nan,nan,nan,nan,nan,nan,nan,nan,nan,nan,nan,nan,869.9690231489949,1257.7185828890651,nan,1258.0000336414669,nan,nan,nan,nan
1,270,1,1,1.0,1.0,0.33726804214529693,0,2,1,6,3,8,7,nan,nan,nan,nan,nan,nan,nan,nan,nan,nan,nan,nan,0.0,nan,nan,nan,nan,nan,nan,nan,nan,nan,nan,nan,nan,nan,nan,nan,nan,nan,nan,869.9690231489949,1258.7187428281177,nan,1259.056010870263,nan,nan,nan,nan
1,271,1,1,1.0,1.0,0.25711778504773974,0,7,8,2,6,4,0,nan,nan,nan,nan,nan,nan,nan,nan,nan,nan,nan,nan,0.0,nan,nan,nan,nan,nan,nan,nan,nan,nan,nan,nan,nan,nan,nan,nan,nan,nan,nan,869.9690231489949,1259.7188705510926,nan,1259.9759883361403,nan,nan,nan,nan
1,272,1,1,1.0,1.0,0.2409722125157714,0,2,3,7,4,8,6,nan,nan,nan,nan,nan,nan,nan,nan,nan,nan,nan,nan,0.0,nan,nan,nan,nan,nan,nan,nan,nan,nan,nan,nan,nan,nan,nan,nan,nan,nan,nan,869.9690231489949,1260.7189988445025,nan,1260.9599710570183,nan,nan,nan,nan
1,273,1,1,1.0,1.0,0.27281860704533756,0,3,8,2,1,6,4,nan,nan,nan,nan,nan,nan,nan,nan,nan,nan,nan,nan,0.0,nan,nan,nan,nan,nan,nan,nan,nan,nan,nan,nan,nan,nan,nan,nan,nan,nan,nan,869.9690231489949,1261.7191294187214,nan,1261.9919480257668,nan,nan,nan,nan
1,274,0,0,1.0,0.0,0.28066274616867304,0,5,3,7,6,2,0,nan,nan,nan,nan,nan,nan,nan,nan,nan,nan,nan,nan,0.0,nan,nan,nan,nan,nan,nan,nan,nan,nan,nan,nan,nan,nan,nan,nan,nan,nan,nan,869.9690231489949,1262.7192568567116,nan,1262.9999196028803,nan,nan,nan,nan
1,275,1,1,1.0,1.0,0.3844985170289874,0,0,1,4,2,3,6,nan,nan,nan,nan,nan,nan,nan,nan,nan,nan,nan,nan,0.0,nan,nan,nan,nan,nan,nan,nan,nan,nan,nan,nan,nan,nan,nan,nan,nan,nan,nan,869.9690231489949,1263.7193865755107,nan,1264.1038850925397,nan,nan,nan,nan
1,276,1,1,1.0,1.0,0.41635118378326297,0,3,4,8,1,0,5,nan,nan,nan,nan,nan,nan,nan,nan,nan,nan,nan,nan,0.0,nan,nan,nan,nan,nan,nan,nan,nan,nan,nan,nan,nan,nan,nan,nan,nan,nan,nan,869.9690231489949,1264.7195145837031,nan,1265.1358657674864,nan,nan,nan,nan
1,277,1,1,1.0,1.0,0.5041921981610358,0,4,1,2,0,8,7,nan,nan,nan,nan,nan,nan,nan,nan,nan,nan,nan,nan,0.0,nan,nan,nan,nan,nan,nan,nan,nan,nan,nan,nan,nan,nan,nan,nan,nan,nan,nan,869.9690231489949,1265.7196437323,nan,1266.223835930461,nan,nan,nan,nan
1,278,1,1,nan,nan,nan,0,5,8,0,1,7,6,nan,nan,nan,nan,nan,nan,nan,nan,nan,nan,nan,nan,0.0,nan,nan,nan,nan,nan,nan,nan,nan,nan,nan,nan,nan,nan,nan,nan,nan,nan,nan,869.9690231489949,1266.719762902474,nan,nan,nan,nan,nan,nan
1,279,1,1,nan,nan,nan,1,3,7,6,5,4,8,1.0,1.0,1.0,1.0,1.0,1.0,1.0,0.0,0.0,1.0,0.0,0.0,2.0,3.0,3.0,7.0,5.0,2.0,0.0,2.0,6.0,5.0,1.0,4.0,3.0,1.3542153052985668,4.609164647758007,3.769981756573543,0.7234888256061822,3.0494756081607193,2.338690957520157,869.9690231489949,1267.7198963277042,1268.5283150495961,nan,1274.1873629933689,1275.19083061954,1269.5367909620982,1274.1790287739132
1,280,1,1,nan,nan,nan,0,2,0,7,3,6,5,nan,nan,nan,nan,nan,nan,nan,nan,nan,nan,nan,nan,0.0,nan,nan,nan,nan,nan,nan,nan,nan,nan,nan,nan,nan,nan,nan,nan,nan,nan,nan,869.9690231489949,1275.395885547623,nan,nan,nan,nan,nan,nan
1,281,1,1,1.0,1.0,0.47555114096030593,0,4,7,1,8,2,3,nan,nan,nan,nan,nan,nan,nan,nan,nan,nan,nan,nan,0.0,nan,nan,nan,nan,nan,nan,nan,nan,nan,nan,nan,nan,nan,nan,nan,nan,nan,nan,869.9690231489949,1276.396006998606,nan,1276.8715581395663,nan,nan,nan,nan
1,282,1,1,1.0,1.0,0.28341934201307595,0,1,8,2,5,7,6,nan,nan,nan,nan,nan,nan,nan,nan,nan,nan,nan,nan,0.0,nan,nan,nan,nan,nan,nan,nan,nan,nan,nan,nan,nan,nan,nan,nan,nan,nan,nan,869.9690231489949,1277.3961372876074,nan,1277.6795566296205,nan,nan,nan,nan
1,283,1,1,1.0,1.0,0.42728804727084935,0,0,3,1,2,5,8,nan,nan,nan,nan,nan,nan,nan,nan,nan,nan,nan,nan,0.0,nan,nan,nan,nan,nan,nan,nan,nan,nan,nan,nan,nan,nan,nan,nan,nan,nan,nan,869.9690231489949,1278.3962652957998,nan,1278.8235533430707,nan,nan,nan,nan
1,284,1,1,1.0,1.0,0.5951567273586988,0,1,0,2,7,4,5,nan,nan,nan,nan,nan,nan,nan,nan,nan,nan,nan,nan,0.0,nan,nan,nan,nan,nan,nan,nan,nan,nan,nan,nan,nan,nan,nan,nan,nan,nan,nan,869.9690231489949,1279.3963588073384,nan,1279.991515534697,nan,nan,nan,nan
1,285,1,1,1.0,1.0,0.49133293074555695,0,0,5,8,2,3,1,nan,nan,nan,nan,nan,nan,nan,nan,nan,nan,nan,nan,0.0,nan,nan,nan,nan,nan,nan,nan,nan,nan,nan,nan,nan,nan,nan,nan,nan,nan,nan,869.9690231489949,1280.3965267289896,nan,1280.887859659735,nan,nan,nan,nan
1,286,1,1,1.0,1.0,0.49082888034172356,0,3,8,2,4,7,0,nan,nan,nan,nan,nan,nan,nan,nan,nan,nan,nan,nan,0.0,nan,nan,nan,nan,nan,nan,nan,nan,nan,nan,nan,nan,nan,nan,nan,nan,nan,nan,869.9690231489949,1281.3966604392044,nan,1281.8874893195461,nan,nan,nan,nan
1,287,1,1,1.0,1.0,0.4826811137609184,0,7,0,5,3,4,6,nan,nan,nan,nan,nan,nan,nan,nan,nan,nan,nan,nan,0.0,nan,nan,nan,nan,nan,nan,nan,nan,nan,nan,nan,nan,nan,nan,nan,nan,nan,nan,869.9690231489949,1282.3967816052027,nan,1282.8794627189636,nan,nan,nan,nan
1,288,0,0,0.0,1.0,0.5625285988207906,0,4,6,0,2,1,7,nan,nan,nan,nan,nan,nan,nan,nan,nan,nan,nan,nan,0.0,nan,nan,nan,nan,nan,nan,nan,nan,nan,nan,nan,nan,nan,nan,nan,nan,nan,nan,869.9690231489949,1283.3969084729906,nan,1283.9594370718114,nan,nan,nan,nan
1,289,1,1,1.0,1.0,0.3703885320574045,0,7,4,8,3,6,2,nan,nan,nan,nan,nan,nan,nan,nan,nan,nan,nan,nan,0.0,nan,nan,nan,nan,nan,nan,nan,nan,nan,nan,nan,nan,nan,nan,nan,nan,nan,nan,869.9690231489949,1284.3970316345803,nan,1284.7674201666377,nan,nan,nan,nan
1,290,1,1,1.0,1.0,0.42621865100227296,0,2,3,1,6,0,8,nan,nan,nan,nan,nan,nan,nan,nan,nan,nan,nan,nan,0.0,nan,nan,nan,nan,nan,nan,nan,nan,nan,nan,nan,nan,nan,nan,nan,nan,nan,nan,869.9690231489949,1285.397175323218,nan,1285.8233939742204,nan,nan,nan,nan
1,291,1,1,1.0,1.0,0.4820935302414,0,6,8,4,5,1,0,nan,nan,nan,nan,nan,nan,nan,nan,nan,nan,nan,nan,0.0,nan,nan,nan,nan,nan,nan,nan,nan,nan,nan,nan,nan,nan,nan,nan,nan,nan,nan,869.9690231489949,1286.3972896467894,nan,1286.8793831770308,nan,nan,nan,nan
1,292,1,1,1.0,1.0,0.5059227326419204,0,1,5,6,2,7,3,nan,nan,nan,nan,nan,nan,nan,nan,nan,nan,nan,nan,0.0,nan,nan,nan,nan,nan,nan,nan,nan,nan,nan,nan,nan,nan,nan,nan,nan,nan,nan,869.9690231489949,1287.3974242121913,nan,1287.9033469448332,nan,nan,nan,nan
1,293,0,0,0.0,1.0,0.6977577460929751,0,8,7,3,4,0,2,nan,nan,nan,nan,nan,nan,nan,nan,nan,nan,nan,nan,0.0,nan,nan,nan,nan,nan,nan,nan,nan,nan,nan,nan,nan,nan,nan,nan,nan,nan,nan,869.9690231489949,1288.3975573522039,nan,1289.0953150982969,nan,nan,nan,nan
1,294,1,1,nan,nan,nan,0,2,0,7,8,6,5,nan,nan,nan,nan,nan,nan,nan,nan,nan,nan,nan,nan,0.0,nan,nan,nan,nan,nan,nan,nan,nan,nan,nan,nan,nan,nan,nan,nan,nan,nan,nan,869.9690231489949,1289.3976790881716,nan,nan,nan,nan,nan,nan
1,295,1,1,nan,nan,nan,0,3,5,8,1,7,4,nan,nan,nan,nan,nan,nan,nan,nan,nan,nan,nan,nan,0.0,nan,nan,nan,nan,nan,nan,nan,nan,nan,nan,nan,nan,nan,nan,nan,nan,nan,nan,869.9690231489949,1290.3978088069707,nan,nan,nan,nan,nan,nan
1,296,1,1,1.0,1.0,0.5933309707324952,0,0,1,4,3,6,5,nan,nan,nan,nan,nan,nan,nan,nan,nan,nan,nan,nan,0.0,nan,nan,nan,nan,nan,nan,nan,nan,nan,nan,nan,nan,nan,nan,nan,nan,nan,nan,869.9690231489949,1291.3979359599762,nan,1291.9912669307087,nan,nan,nan,nan
1,297,1,1,1.0,1.0,0.705150862922892,0,2,3,5,8,0,4,nan,nan,nan,nan,nan,nan,nan,nan,nan,nan,nan,nan,0.0,nan,nan,nan,nan,nan,nan,nan,nan,nan,nan,nan,nan,nan,nan,nan,nan,nan,nan,869.9690231489949,1292.3980662489776,nan,1293.1032171119004,nan,nan,nan,nan
1,298,1,1,nan,nan,nan,0,7,6,1,5,4,8,nan,nan,nan,nan,nan,nan,nan,nan,nan,nan,nan,nan,0.0,nan,nan,nan,nan,nan,nan,nan,nan,nan,nan,nan,nan,nan,nan,nan,nan,nan,nan,869.9690231489949,1293.3981891255826,nan,nan,nan,nan,nan,nan
1,299,0,0,0.0,1.0,0.648836080217734,0,4,5,7,2,3,1,nan,nan,nan,nan,nan,nan,nan,nan,nan,nan,nan,nan,0.0,nan,nan,nan,nan,nan,nan,nan,nan,nan,nan,nan,nan,nan,nan,nan,nan,nan,nan,869.9690231489949,1294.3983291077893,nan,1295.047165188007,nan,nan,nan,nan
1,300,1,1,1.0,1.0,0.5527118786703795,0,5,4,2,6,1,0,nan,nan,nan,nan,nan,nan,nan,nan,nan,nan,nan,nan,0.0,nan,nan,nan,nan,nan,nan,nan,nan,nan,nan,nan,nan,nan,nan,nan,nan,nan,nan,869.9690231489949,1295.3984448567498,nan,1295.9511567354202,nan,nan,nan,nan
1,301,1,1,1.0,1.0,0.5685623763129115,0,7,6,4,8,0,3,nan,nan,nan,nan,nan,nan,nan,nan,nan,nan,nan,nan,0.0,nan,nan,nan,nan,nan,nan,nan,nan,nan,nan,nan,nan,nan,nan,nan,nan,nan,nan,869.9690231489949,1296.398570584366,nan,1296.967132960679,nan,nan,nan,nan
1,302,1,1,1.0,1.0,0.480417734477669,0,1,2,3,5,7,8,nan,nan,nan,nan,nan,nan,nan,nan,nan,nan,nan,nan,0.0,nan,nan,nan,nan,nan,nan,nan,nan,nan,nan,nan,nan,nan,nan,nan,nan,nan,nan,869.9690231489949,1297.3987008733675,nan,1297.8791186078452,nan,nan,nan,nan
1,303,1,1,1.0,1.0,0.37625666870735586,0,5,7,4,1,0,3,nan,nan,nan,nan,nan,nan,nan,nan,nan,nan,nan,nan,0.0,nan,nan,nan,nan,nan,nan,nan,nan,nan,nan,nan,nan,nan,nan,nan,nan,nan,nan,869.9690231489949,1298.39882888156,nan,1298.7750855502672,nan,nan,nan,nan
1,304,1,1,1.0,1.0,0.3041047875303775,0,4,6,1,5,8,7,nan,nan,nan,nan,nan,nan,nan,nan,nan,nan,nan,nan,0.0,nan,nan,nan,nan,nan,nan,nan,nan,nan,nan,nan,nan,nan,nan,nan,nan,nan,nan,869.9690231489949,1299.3989603109658,nan,1299.7030650984962,nan,nan,nan,nan
1,305,1,1,nan,nan,nan,0,1,5,3,0,4,8,nan,nan,nan,nan,nan,nan,nan,nan,nan,nan,nan,nan,0.0,nan,nan,nan,nan,nan,nan,nan,nan,nan,nan,nan,nan,nan,nan,nan,nan,nan,nan,869.9690231489949,1300.3990883191582,nan,nan,nan,nan,nan,nan
1,306,1,1,1.0,1.0,0.5837779645808041,0,5,0,4,8,3,6,nan,nan,nan,nan,nan,nan,nan,nan,nan,nan,nan,nan,0.0,nan,nan,nan,nan,nan,nan,nan,nan,nan,nan,nan,nan,nan,nan,nan,nan,nan,nan,869.9690231489949,1301.3992131913546,nan,1301.9829911559355,nan,nan,nan,nan
1,307,1,1,1.0,1.0,0.5276205551344901,0,7,6,5,2,0,1,nan,nan,nan,nan,nan,nan,nan,nan,nan,nan,nan,nan,0.0,nan,nan,nan,nan,nan,nan,nan,nan,nan,nan,nan,nan,nan,nan,nan,nan,nan,nan,869.9690231489949,1302.3993674283847,nan,1302.9269879835192,nan,nan,nan,nan
1,308,1,1,1.0,1.0,0.5034905762877315,0,4,3,7,1,8,2,nan,nan,nan,nan,nan,nan,nan,nan,nan,nan,nan,nan,0.0,nan,nan,nan,nan,nan,nan,nan,nan,nan,nan,nan,nan,nan,nan,nan,nan,nan,nan,869.9690231489949,1303.3994729139376,nan,1303.9029634902254,nan,nan,nan,nan
1,309,1,1,nan,nan,nan,0,6,8,1,0,3,4,nan,nan,nan,nan,nan,nan,nan,nan,nan,nan,nan,nan,0.0,nan,nan,nan,nan,nan,nan,nan,nan,nan,nan,nan,nan,nan,nan,nan,nan,nan,nan,869.9690231489949,1304.3995975011494,nan,nan,nan,nan,nan,nan
1,310,1,1,1.0,1.0,0.05522143864072859,0,5,2,7,8,0,3,nan,nan,nan,nan,nan,nan,nan,nan,nan,nan,nan,nan,0.0,nan,nan,nan,nan,nan,nan,nan,nan,nan,nan,nan,nan,nan,nan,nan,nan,nan,nan,869.9690231489949,1305.3997312111314,nan,1305.4549526497722,nan,nan,nan,nan
1,311,0,0,0.0,1.0,0.6150493202731013,0,8,7,2,1,4,5,nan,nan,nan,nan,nan,nan,nan,nan,nan,nan,nan,nan,0.0,nan,nan,nan,nan,nan,nan,nan,nan,nan,nan,nan,nan,nan,nan,nan,nan,nan,nan,869.9690231489949,1306.3998577939346,nan,1307.0149071142077,nan,nan,nan,nan
1,312,1,1,1.0,1.0,0.4629068358335644,0,3,0,1,5,6,7,nan,nan,nan,nan,nan,nan,nan,nan,nan,nan,nan,nan,0.0,nan,nan,nan,nan,nan,nan,nan,nan,nan,nan,nan,nan,nan,nan,nan,nan,nan,nan,869.9690231489949,1307.3999818109442,nan,1307.8628886467777,nan,nan,nan,nan
1,313,0,0,0.0,1.0,0.5987403877079487,0,2,6,0,4,5,1,nan,nan,nan,nan,nan,nan,nan,nan,nan,nan,nan,nan,0.0,nan,nan,nan,nan,nan,nan,nan,nan,nan,nan,nan,nan,nan,nan,nan,nan,nan,nan,869.9690231489949,1308.4001160911284,nan,1308.9988564788364,nan,nan,nan,nan
1,314,1,1,1.0,1.0,0.5425849736202508,0,3,2,6,0,7,8,nan,nan,nan,nan,nan,nan,nan,nan,nan,nan,nan,nan,0.0,nan,nan,nan,nan,nan,nan,nan,nan,nan,nan,nan,nan,nan,nan,nan,nan,nan,nan,869.9690231489949,1309.4002352615353,nan,1309.9428202351555,nan,nan,nan,nan
1,315,1,1,0.0,0.0,0.5824351611081511,0,8,6,7,5,0,2,nan,nan,nan,nan,nan,nan,nan,nan,nan,nan,nan,nan,0.0,nan,nan,nan,nan,nan,nan,nan,nan,nan,nan,nan,nan,nan,nan,nan,nan,nan,nan,869.9690231489949,1310.4003649803344,nan,1310.9828001414426,nan,nan,nan,nan
1,316,1,1,nan,nan,nan,1,3,4,8,2,6,1,1.0,1.0,1.0,1.0,1.0,1.0,0.0,0.0,1.0,1.0,0.0,0.0,2.0,1.0,5.0,8.0,2.0,0.0,4.0,5.0,6.0,2.0,1.0,3.0,4.0,4.288005400914699,5.28766784700565,2.0971528289373964,1.2646913677453995,2.936514475615695,3.712571633979678,869.9690231489949,1311.4004909929354,1312.208909144625,nan,1318.5430123331025,1319.5406739732716,1313.2173770742957,1318.5347066230606
1,317,1,1,nan,nan,nan,0,5,3,0,6,1,7,nan,nan,nan,nan,nan,nan,nan,nan,nan,nan,nan,nan,0.0,nan,nan,nan,nan,nan,nan,nan,nan,nan,nan,nan,nan,nan,nan,nan,nan,nan,nan,869.9690231489949,1319.7432286071125,nan,nan,nan,nan,nan,nan
1,318,1,1,1.0,1.0,0.6471662714611739,0,1,7,6,5,4,0,nan,nan,nan,nan,nan,nan,nan,nan,nan,nan,nan,nan,0.0,nan,nan,nan,nan,nan,nan,nan,nan,nan,nan,nan,nan,nan,nan,nan,nan,nan,nan,869.9690231489949,1320.7433569002897,nan,1321.3905231717508,nan,nan,nan,nan
1,319,1,1,1.0,1.0,0.4390930288936943,1,7,4,3,0,8,6,1.0,1.0,1.0,1.0,1.0,1.0,1.0,0.0,0.0,1.0,0.0,0.0,2.0,7.0,0.0,6.0,0.0,5.0,0.0,1.0,4.0,3.0,2.0,6.0,5.0,0.9286803149152547,3.504412862705067,2.6420325424987823,1.8489454430527985,5.320428830338642,4.704518804559484,869.9690231489949,1321.7434717940632,1322.5518939374015,1322.182564822957,1328.919371921569,1329.9300151357893,1323.5603678540792,1328.911038842285
1,320,1,1,1.0,1.0,0.7981395756360143,0,5,7,6,2,1,0,nan,nan,nan,nan,nan,nan,nan,nan,nan,nan,nan,nan,0.0,nan,nan,nan,nan,nan,nan,nan,nan,nan,nan,nan,nan,nan,nan,nan,nan,nan,nan,869.9690231489949,1330.1362212826498,nan,1330.9343608582858,nan,nan,nan,nan
1,321,1,1,1.0,1.0,0.5096361115574837,0,3,5,0,7,4,6,nan,nan,nan,nan,nan,nan,nan,nan,nan,nan,nan,nan,0.0,nan,nan,nan,nan,nan,nan,nan,nan,nan,nan,nan,nan,nan,nan,nan,nan,nan,nan,869.9690231489949,1331.1447028969415,nan,1331.654339008499,nan,nan,nan,nan
1,322,1,1,nan,nan,nan,0,7,8,1,2,0,5,nan,nan,nan,nan,nan,nan,nan,nan,nan,nan,nan,nan,0.0,nan,nan,nan,nan,nan,nan,nan,nan,nan,nan,nan,nan,nan,nan,nan,nan,nan,nan,869.9690231489949,1332.1448229225352,nan,nan,nan,nan,nan,nan
1,323,1,1,1.0,1.0,0.38135903677903116,0,2,3,4,8,6,1,nan,nan,nan,nan,nan,nan,nan,nan,nan,nan,nan,nan,0.0,nan,nan,nan,nan,nan,nan,nan,nan,nan,nan,nan,nan,nan,nan,nan,nan,nan,nan,869.9690231489949,1333.1449175744783,nan,1333.5262766112573,nan,nan,nan,nan
1,324,1,1,1.0,1.0,0.2211905219592154,0,6,2,5,4,7,0,nan,nan,nan,nan,nan,nan,nan,nan,nan,nan,nan,nan,0.0,nan,nan,nan,nan,nan,nan,nan,nan,nan,nan,nan,nan,nan,nan,nan,nan,nan,nan,869.9690231489949,1334.1450692457147,nan,1334.366259767674,nan,nan,nan,nan
1,325,1,1,1.0,1.0,0.29304191190749407,0,3,6,4,7,1,5,nan,nan,nan,nan,nan,nan,nan,nan,nan,nan,nan,nan,0.0,nan,nan,nan,nan,nan,nan,nan,nan,nan,nan,nan,nan,nan,nan,nan,nan,nan,nan,869.9690231489949,1335.145195828285,nan,1335.4382377401926,nan,nan,nan,nan
1,326,1,1,1.0,1.0,0.24490083917044103,0,6,7,1,8,3,2,nan,nan,nan,nan,nan,nan,nan,nan,nan,nan,nan,nan,0.0,nan,nan,nan,nan,nan,nan,nan,nan,nan,nan,nan,nan,nan,nan,nan,nan,nan,nan,869.9690231489949,1336.1453224110883,nan,1336.3902232502587,nan,nan,nan,nan
1,327,1,1,1.0,1.0,0.24473776412196457,0,7,8,6,3,4,5,nan,nan,nan,nan,nan,nan,nan,nan,nan,nan,nan,nan,0.0,nan,nan,nan,nan,nan,nan,nan,nan,nan,nan,nan,nan,nan,nan,nan,nan,nan,nan,869.9690231489949,1337.145452415105,nan,1337.390190179227,nan,nan,nan,nan
1,328,1,1,1.0,1.0,0.22862611804157495,0,1,0,4,5,2,3,nan,nan,nan,nan,nan,nan,nan,nan,nan,nan,nan,nan,0.0,nan,nan,nan,nan,nan,nan,nan,nan,nan,nan,nan,nan,nan,nan,nan,nan,nan,nan,869.9690231489949,1338.145549347857,nan,1338.3741754658986,nan,nan,nan,nan
1,329,1,1,1.0,1.0,0.25243678921833634,0,5,4,1,0,3,8,nan,nan,nan,nan,nan,nan,nan,nan,nan,nan,nan,nan,0.0,nan,nan,nan,nan,nan,nan,nan,nan,nan,nan,nan,nan,nan,nan,nan,nan,nan,nan,869.9690231489949,1339.1457138482947,nan,1339.398150637513,nan,nan,nan,nan
1,330,1,1,1.0,1.0,0.2042894447222352,1,2,3,6,8,1,0,1.0,1.0,1.0,1.0,1.0,1.0,1.0,1.0,0.0,1.0,1.0,1.0,5.0,2.0,3.0,5.0,8.0,1.0,0.0,2.0,3.0,4.0,1.0,5.0,6.0,1.383353000273928,2.446422854438424,3.2453772351145744,0.7432405811268836,3.8859141627326608,4.941004742169753,869.9690231489949,1340.145844992483,1340.954253736185,1340.3501344372053,1346.9550120923668,1347.9632143122144,1341.9710647233296,1346.9466784431133
1,331,1,1,1.0,1.0,0.3624086871277541,0,5,2,8,6,7,3,nan,nan,nan,nan,nan,nan,nan,nan,nan,nan,nan,nan,0.0,nan,nan,nan,nan,nan,nan,nan,nan,nan,nan,nan,nan,nan,nan,nan,nan,nan,nan,869.9690231489949,1348.1635329360142,nan,1348.525941623142,nan,nan,nan,nan
1,332,1,1,1.0,1.0,0.2662340234965086,0,6,7,2,3,5,4,nan,nan,nan,nan,nan,nan,nan,nan,nan,nan,nan,nan,0.0,nan,nan,nan,nan,nan,nan,nan,nan,nan,nan,nan,nan,nan,nan,nan,nan,nan,nan,869.9690231489949,1349.163668356603,nan,1349.4299023800995,nan,nan,nan,nan
1,333,1,1,1.0,1.0,0.2501075523905456,0,1,8,6,2,7,5,nan,nan,nan,nan,nan,nan,nan,nan,nan,nan,nan,nan,0.0,nan,nan,nan,nan,nan,nan,nan,nan,nan,nan,nan,nan,nan,nan,nan,nan,nan,nan,869.9690231489949,1350.1637923736125,nan,1350.413899926003,nan,nan,nan,nan
1,334,1,1,1.0,1.0,0.32194440229795873,0,6,1,8,0,3,2,nan,nan,nan,nan,nan,nan,nan,nan,nan,nan,nan,nan,0.0,nan,nan,nan,nan,nan,nan,nan,nan,nan,nan,nan,nan,nan,nan,nan,nan,nan,nan,869.9690231489949,1351.1639192414004,nan,1351.4858636436984,nan,nan,nan,nan
1,335,1,1,1.0,1.0,0.34579726750962436,0,8,4,5,1,0,7,nan,nan,nan,nan,nan,nan,nan,nan,nan,nan,nan,nan,0.0,nan,nan,nan,nan,nan,nan,nan,nan,nan,nan,nan,nan,nan,nan,nan,nan,nan,nan,869.9690231489949,1352.164044113597,nan,1352.5098413811065,nan,nan,nan,nan
1,336,1,1,1.0,1.0,0.27365365414880216,0,6,0,1,3,2,5,nan,nan,nan,nan,nan,nan,nan,nan,nan,nan,nan,nan,0.0,nan,nan,nan,nan,nan,nan,nan,nan,nan,nan,nan,nan,nan,nan,nan,nan,nan,nan,869.9690231489949,1353.1641681303736,nan,1353.4378217845224,nan,nan,nan,nan
1,337,1,1,1.0,1.0,0.377169547136873,0,5,8,7,1,0,2,nan,nan,nan,nan,nan,nan,nan,nan,nan,nan,nan,nan,0.0,nan,nan,nan,nan,nan,nan,nan,nan,nan,nan,nan,nan,nan,nan,nan,nan,nan,nan,869.9690231489949,1354.1727050533518,nan,1354.5498746004887,nan,nan,nan,nan
1,338,1,1,1.0,1.0,0.393020044779405,0,1,7,0,4,8,6,nan,nan,nan,nan,nan,nan,nan,nan,nan,nan,nan,nan,0.0,nan,nan,nan,nan,nan,nan,nan,nan,nan,nan,nan,nan,nan,nan,nan,nan,nan,nan,869.9690231489949,1355.1727637832519,nan,1355.5657838280313,nan,nan,nan,nan
1,339,1,1,1.0,1.0,0.44087687646970153,0,5,2,6,7,3,0,nan,nan,nan,nan,nan,nan,nan,nan,nan,nan,nan,nan,0.0,nan,nan,nan,nan,nan,nan,nan,nan,nan,nan,nan,nan,nan,nan,nan,nan,nan,nan,869.9690231489949,1356.1729097524658,nan,1356.6137866289355,nan,nan,nan,nan
1,340,1,1,1.0,1.0,0.4567011452745646,0,6,0,8,1,7,3,nan,nan,nan,nan,nan,nan,nan,nan,nan,nan,nan,nan,0.0,nan,nan,nan,nan,nan,nan,nan,nan,nan,nan,nan,nan,nan,nan,nan,nan,nan,nan,869.9690231489949,1357.1730471688788,nan,1357.6297483141534,nan,nan,nan,nan
1,341,1,1,1.0,1.0,0.3766173154581338,1,5,7,3,2,8,6,1.0,1.0,1.0,1.0,1.0,1.0,0.0,0.0,0.0,1.0,0.0,0.0,1.0,7.0,0.0,4.0,2.0,2.0,8.0,2.0,6.0,5.0,1.0,4.0,3.0,1.530442723305896,4.9290880027692765,4.337244379101321,0.7391799548640847,3.632992424769327,2.9535934533923864,869.9690231489949,1358.1731212940067,1358.9815605429467,1358.5497386094648,1364.9739980790764,1365.9808130203746,1360.0067051793449,1364.9656182441395
1,342,1,1,1.0,1.0,0.7109947665594518,0,7,3,0,4,5,2,nan,nan,nan,nan,nan,nan,nan,nan,nan,nan,nan,nan,0.0,nan,nan,nan,nan,nan,nan,nan,nan,nan,nan,nan,nan,nan,nan,nan,nan,nan,nan,869.9690231489949,1366.1825058080722,nan,1366.8935005746316,nan,nan,nan,nan
1,343,1,1,1.0,1.0,0.42284909822046757,0,0,7,1,2,8,3,nan,nan,nan,nan,nan,nan,nan,nan,nan,nan,nan,nan,0.0,nan,nan,nan,nan,nan,nan,nan,nan,nan,nan,nan,nan,nan,nan,nan,nan,nan,nan,869.9690231489949,1367.1826355268713,nan,1367.6054846250918,nan,nan,nan,nan
1,344,1,1,1.0,1.0,0.5027350711170584,1,1,8,6,3,5,0,1.0,1.0,1.0,1.0,1.0,1.0,0.0,0.0,0.0,0.0,1.0,0.0,1.0,8.0,7.0,4.0,0.0,5.0,1.0,4.0,5.0,6.0,3.0,1.0,2.0,3.4883799033705145,4.376192237017676,5.008010064950213,2.456050555454567,0.881606072653085,1.6248668956104666,869.9690231489949,1368.182760114083,1368.9911848229822,1368.6854951852001,1375.0502781542018,1376.0581861548126,1369.9996464806609,1375.0419467857573
1,345,1,1,1.0,1.0,0.43449585139751434,0,7,0,5,2,6,4,nan,nan,nan,nan,nan,nan,nan,nan,nan,nan,nan,nan,0.0,nan,nan,nan,nan,nan,nan,nan,nan,nan,nan,nan,nan,nan,nan,nan,nan,nan,nan,869.9690231489949,1376.2587987126317,nan,1376.6932945640292,nan,nan,nan,nan
1,346,1,1,1.0,1.0,0.634332662448287,0,4,3,7,1,8,5,nan,nan,nan,nan,nan,nan,nan,nan,nan,nan,nan,nan,0.0,nan,nan,nan,nan,nan,nan,nan,nan,nan,nan,nan,nan,nan,nan,nan,nan,nan,nan,869.9690231489949,1377.2589201636147,nan,1377.893252826063,nan,nan,nan,nan
1,347,0,0,nan,nan,nan,0,7,5,8,3,0,2,nan,nan,nan,nan,nan,nan,nan,nan,nan,nan,nan,nan,0.0,nan,nan,nan,nan,nan,nan,nan,nan,nan,nan,nan,nan,nan,nan,nan,nan,nan,nan,869.9690231489949,1378.2590473166201,nan,nan,nan,nan,nan,nan
1,348,1,1,0.0,0.0,0.02606321661733091,0,8,7,2,4,1,5,nan,nan,nan,nan,nan,nan,nan,nan,nan,nan,nan,nan,0.0,nan,nan,nan,nan,nan,nan,nan,nan,nan,nan,nan,nan,nan,nan,nan,nan,nan,nan,869.9690231489949,1379.259190149838,nan,1379.2852533664554,nan,nan,nan,nan
1,349,1,1,1.0,1.0,0.6498438955750316,0,1,6,5,7,3,2,nan,nan,nan,nan,nan,nan,nan,nan,nan,nan,nan,nan,0.0,nan,nan,nan,nan,nan,nan,nan,nan,nan,nan,nan,nan,nan,nan,nan,nan,nan,nan,869.9690231489949,1380.2593235748354,nan,1380.9091674704105,nan,nan,nan,nan
1,350,0,0,0.0,1.0,0.6337285432964563,0,5,8,6,0,2,4,nan,nan,nan,nan,nan,nan,nan,nan,nan,nan,nan,nan,0.0,nan,nan,nan,nan,nan,nan,nan,nan,nan,nan,nan,nan,nan,nan,nan,nan,nan,nan,869.9690231489949,1381.2594418898225,nan,1381.893170433119,nan,nan,nan,nan
1,351,1,1,1.0,1.0,0.681594782974571,0,7,4,0,3,5,8,nan,nan,nan,nan,nan,nan,nan,nan,nan,nan,nan,nan,0.0,nan,nan,nan,nan,nan,nan,nan,nan,nan,nan,nan,nan,nan,nan,nan,nan,nan,nan,869.9690231489949,1382.2595730340108,nan,1382.9411678169854,nan,nan,nan,nan
1,352,1,1,nan,nan,nan,1,2,1,5,7,4,6,1.0,1.0,1.0,1.0,1.0,1.0,1.0,0.0,0.0,1.0,0.0,0.0,2.0,2.0,8.0,4.0,7.0,1.0,0.0,2.0,3.0,4.0,1.0,5.0,6.0,1.6262732755858451,2.5312809061724693,3.418373371940106,0.8262440818361938,4.978760612430051,5.682407307438552,869.9690231489949,1383.2597001870163,1384.068112066714,nan,1390.8022934284527,1391.7982393593993,1385.084904522635,1390.7939649110194
1,353,1,1,1.0,1.0,0.7224308336153626,0,8,0,6,4,2,1,nan,nan,nan,nan,nan,nan,nan,nan,nan,nan,nan,nan,0.0,nan,nan,nan,nan,nan,nan,nan,nan,nan,nan,nan,nan,nan,nan,nan,nan,nan,nan,869.9690231489949,1392.002481192816,nan,1392.7249120264314,nan,nan,nan,nan
1,354,1,1,1.0,1.0,0.4179728114977479,0,5,6,7,1,0,3,nan,nan,nan,nan,nan,nan,nan,nan,nan,nan,nan,nan,0.0,nan,nan,nan,nan,nan,nan,nan,nan,nan,nan,nan,nan,nan,nan,nan,nan,nan,nan,869.9690231489949,1393.0109126302414,nan,1393.428885441739,nan,nan,nan,nan
1,355,1,1,1.0,1.0,0.2978127128444612,0,6,7,3,2,4,0,nan,nan,nan,nan,nan,nan,nan,nan,nan,nan,nan,nan,0.0,nan,nan,nan,nan,nan,nan,nan,nan,nan,nan,nan,nan,nan,nan,nan,nan,nan,nan,869.9690231489949,1394.0110628760885,nan,1394.308875588933,nan,nan,nan,nan
1,356,1,1,1.0,1.0,0.7936424668878317,0,1,4,0,5,3,8,nan,nan,nan,nan,nan,nan,nan,nan,nan,nan,nan,nan,0.0,nan,nan,nan,nan,nan,nan,nan,nan,nan,nan,nan,nan,nan,nan,nan,nan,nan,nan,869.9690231489949,1395.0111897438765,nan,1395.8048322107643,nan,nan,nan,nan
1,357,1,1,1.0,1.0,0.44150237762369215,0,3,0,8,4,5,2,nan,nan,nan,nan,nan,nan,nan,nan,nan,nan,nan,nan,0.0,nan,nan,nan,nan,nan,nan,nan,nan,nan,nan,nan,nan,nan,nan,nan,nan,nan,nan,869.9690231489949,1396.0113188924734,nan,1396.452821270097,nan,nan,nan,nan
1,358,1,1,1.0,1.0,0.6413454604335129,0,5,3,1,6,8,4,nan,nan,nan,nan,nan,nan,nan,nan,nan,nan,nan,nan,0.0,nan,nan,nan,nan,nan,nan,nan,nan,nan,nan,nan,nan,nan,nan,nan,nan,nan,nan,869.9690231489949,1397.0114508920815,nan,1397.652796352515,nan,nan,nan,nan
1,359,1,1,1.0,1.0,0.7212114767171443,0,6,5,0,4,1,2,nan,nan,nan,nan,nan,nan,nan,nan,nan,nan,nan,nan,0.0,nan,nan,nan,nan,nan,nan,nan,nan,nan,nan,nan,nan,nan,nan,nan,nan,nan,nan,869.9690231489949,1398.0115760492627,nan,1398.7327875259798,nan,nan,nan,nan
1,360,0,0,0.0,1.0,0.6170529767405242,0,2,0,6,1,4,7,nan,nan,nan,nan,nan,nan,nan,nan,nan,nan,nan,nan,0.0,nan,nan,nan,nan,nan,nan,nan,nan,nan,nan,nan,nan,nan,nan,nan,nan,nan,nan,869.9690231489949,1399.011705483077,nan,1399.6287584598176,nan,nan,nan,nan
1,361,1,1,1.0,1.0,0.672905903775245,0,0,7,8,2,3,6,nan,nan,nan,nan,nan,nan,nan,nan,nan,nan,nan,nan,0.0,nan,nan,nan,nan,nan,nan,nan,nan,nan,nan,nan,nan,nan,nan,nan,nan,nan,nan,869.9690231489949,1400.011832350865,nan,1400.6847382546403,nan,nan,nan,nan
1,362,1,1,nan,nan,nan,0,5,6,0,7,4,1,nan,nan,nan,nan,nan,nan,nan,nan,nan,nan,nan,nan,0.0,nan,nan,nan,nan,nan,nan,nan,nan,nan,nan,nan,nan,nan,nan,nan,nan,nan,nan,869.9690231489949,1401.0119714778848,nan,nan,nan,nan,nan,nan
1,363,1,1,nan,nan,nan,0,7,1,2,4,5,3,nan,nan,nan,nan,nan,nan,nan,nan,nan,nan,nan,nan,0.0,nan,nan,nan,nan,nan,nan,nan,nan,nan,nan,nan,nan,nan,nan,nan,nan,nan,nan,869.9690231489949,1402.0120937840547,nan,nan,nan,nan,nan,nan
1,364,1,1,nan,nan,nan,0,6,0,1,2,7,4,nan,nan,nan,nan,nan,nan,nan,nan,nan,nan,nan,nan,0.0,nan,nan,nan,nan,nan,nan,nan,nan,nan,nan,nan,nan,nan,nan,nan,nan,nan,nan,869.9690231489949,1403.0121764619835,nan,nan,nan,nan,nan,nan
1,365,1,1,nan,nan,nan,0,4,1,0,8,3,2,nan,nan,nan,nan,nan,nan,nan,nan,nan,nan,nan,nan,0.0,nan,nan,nan,nan,nan,nan,nan,nan,nan,nan,nan,nan,nan,nan,nan,nan,nan,nan,869.9690231489949,1404.0123452390544,nan,nan,nan,nan,nan,nan
1,366,1,1,nan,nan,nan,0,3,7,4,2,6,0,nan,nan,nan,nan,nan,nan,nan,nan,nan,nan,nan,nan,0.0,nan,nan,nan,nan,nan,nan,nan,nan,nan,nan,nan,nan,nan,nan,nan,nan,nan,nan,869.9690231489949,1405.012472962262,nan,nan,nan,nan,nan,nan
1,367,1,1,1.0,1.0,0.5759891343768686,0,4,2,3,6,1,5,nan,nan,nan,nan,nan,nan,nan,nan,nan,nan,nan,nan,0.0,nan,nan,nan,nan,nan,nan,nan,nan,nan,nan,nan,nan,nan,nan,nan,nan,nan,nan,869.9690231489949,1406.012598974863,nan,1406.58858810924,nan,nan,nan,nan
1,368,0,0,0.0,1.0,0.7198281895834953,0,5,4,6,0,2,8,nan,nan,nan,nan,nan,nan,nan,nan,nan,nan,nan,nan,0.0,nan,nan,nan,nan,nan,nan,nan,nan,nan,nan,nan,nan,nan,nan,nan,nan,nan,nan,869.9690231489949,1407.0127341104671,nan,1407.7325623000506,nan,nan,nan,nan
1,369,1,1,nan,nan,nan,0,4,7,3,1,8,5,nan,nan,nan,nan,nan,nan,nan,nan,nan,nan,nan,nan,0.0,nan,nan,nan,nan,nan,nan,nan,nan,nan,nan,nan,nan,nan,nan,nan,nan,nan,nan,869.9690231489949,1408.01286639506,nan,nan,nan,nan,nan,nan
1,370,0,0,0.0,1.0,0.6475311943795532,0,3,1,0,7,6,8,nan,nan,nan,nan,nan,nan,nan,nan,nan,nan,nan,nan,0.0,nan,nan,nan,nan,nan,nan,nan,nan,nan,nan,nan,nan,nan,nan,nan,nan,nan,nan,869.9690231489949,1409.012984710047,nan,1409.6605159044266,nan,nan,nan,nan
1,371,1,1,nan,nan,nan,0,4,0,6,3,8,1,nan,nan,nan,nan,nan,nan,nan,nan,nan,nan,nan,nan,0.0,nan,nan,nan,nan,nan,nan,nan,nan,nan,nan,nan,nan,nan,nan,nan,nan,nan,nan,869.9690231489949,1410.013119845651,nan,nan,nan,nan,nan,nan
1,372,1,1,1.0,1.0,0.039263174403458834,0,1,2,8,0,6,3,nan,nan,nan,nan,nan,nan,nan,nan,nan,nan,nan,nan,0.0,nan,nan,nan,nan,nan,nan,nan,nan,nan,nan,nan,nan,nan,nan,nan,nan,nan,nan,869.9690231489949,1411.0132469986565,nan,1411.05251017306,nan,nan,nan,nan
1,373,1,1,nan,nan,nan,0,5,4,6,2,3,0,nan,nan,nan,nan,nan,nan,nan,nan,nan,nan,nan,nan,0.0,nan,nan,nan,nan,nan,nan,nan,nan,nan,nan,nan,nan,nan,nan,nan,nan,nan,nan,869.9690231489949,1412.013368164422,nan,nan,nan,nan,nan,nan
1,374,1,1,1.0,1.0,0.7989059144165367,0,2,5,0,3,4,1,nan,nan,nan,nan,nan,nan,nan,nan,nan,nan,nan,nan,0.0,nan,nan,nan,nan,nan,nan,nan,nan,nan,nan,nan,nan,nan,nan,nan,nan,nan,nan,869.9690231489949,1413.0134944622405,nan,1413.812400376657,nan,nan,nan,nan
1,375,1,1,1.0,1.0,0.670452079968527,0,4,8,6,1,3,2,nan,nan,nan,nan,nan,nan,nan,nan,nan,nan,nan,nan,0.0,nan,nan,nan,nan,nan,nan,nan,nan,nan,nan,nan,nan,nan,nan,nan,nan,nan,nan,869.9690231489949,1414.0219603960868,nan,1414.6924124760553,nan,nan,nan,nan
1,376,1,1,1.0,1.0,0.6463457641657442,0,8,0,7,2,1,6,nan,nan,nan,nan,nan,nan,nan,nan,nan,nan,nan,nan,0.0,nan,nan,nan,nan,nan,nan,nan,nan,nan,nan,nan,nan,nan,nan,nan,nan,nan,nan,869.9690231489949,1415.0220952467062,nan,1415.668441010872,nan,nan,nan,nan
1,377,1,1,nan,nan,nan,0,7,8,3,0,2,1,nan,nan,nan,nan,nan,nan,nan,nan,nan,nan,nan,nan,0.0,nan,nan,nan,nan,nan,nan,nan,nan,nan,nan,nan,nan,nan,nan,nan,nan,nan,nan,869.9690231489949,1416.0222172678914,nan,nan,nan,nan,nan,nan
1,378,1,1,1.0,1.0,0.7819629278965294,0,3,2,1,5,4,6,nan,nan,nan,nan,nan,nan,nan,nan,nan,nan,nan,nan,0.0,nan,nan,nan,nan,nan,nan,nan,nan,nan,nan,nan,nan,nan,nan,nan,nan,nan,nan,869.9690231489949,1417.0223429952748,nan,1417.8043059231713,nan,nan,nan,nan
1,379,1,1,1.0,1.0,0.74985167873092,0,4,0,2,7,1,5,nan,nan,nan,nan,nan,nan,nan,nan,nan,nan,nan,nan,0.0,nan,nan,nan,nan,nan,nan,nan,nan,nan,nan,nan,nan,nan,nan,nan,nan,nan,nan,869.9690231489949,1418.0224778458942,nan,1418.772329524625,nan,nan,nan,nan
1,380,1,1,1.0,1.0,0.7896850456018001,0,3,8,7,5,6,2,nan,nan,nan,nan,nan,nan,nan,nan,nan,nan,nan,nan,0.0,nan,nan,nan,nan,nan,nan,nan,nan,nan,nan,nan,nan,nan,nan,nan,nan,nan,nan,869.9690231489949,1419.022601007484,nan,1419.8122860530857,nan,nan,nan,nan
1,381,1,1,1.0,1.0,0.7255258387885988,0,1,5,2,4,8,0,nan,nan,nan,nan,nan,nan,nan,nan,nan,nan,nan,nan,0.0,nan,nan,nan,nan,nan,nan,nan,nan,nan,nan,nan,nan,nan,nan,nan,nan,nan,nan,869.9690231489949,1420.0227404194884,nan,1420.748266258277,nan,nan,nan,nan
1,382,1,1,nan,nan,nan,0,5,6,3,8,7,1,nan,nan,nan,nan,nan,nan,nan,nan,nan,nan,nan,nan,0.0,nan,nan,nan,nan,nan,nan,nan,nan,nan,nan,nan,nan,nan,nan,nan,nan,nan,nan,869.9690231489949,1421.0228205316234,nan,nan,nan,nan,nan,nan
1,383,1,1,1.0,1.0,0.453266020398587,0,6,7,0,5,1,4,nan,nan,nan,nan,nan,nan,nan,nan,nan,nan,nan,nan,0.0,nan,nan,nan,nan,nan,nan,nan,nan,nan,nan,nan,nan,nan,nan,nan,nan,nan,nan,869.9690231489949,1422.0229850320611,nan,1422.4762510524597,nan,nan,nan,nan
1,384,1,1,1.0,1.0,0.4612375972792506,0,5,4,8,1,2,3,nan,nan,nan,nan,nan,nan,nan,nan,nan,nan,nan,nan,0.0,nan,nan,nan,nan,nan,nan,nan,nan,nan,nan,nan,nan,nan,nan,nan,nan,nan,nan,869.9690231489949,1423.023077403428,nan,1423.4843150007073,nan,nan,nan,nan
1,385,1,1,1.0,1.0,0.36493036383762956,0,6,1,0,8,4,7,nan,nan,nan,nan,nan,nan,nan,nan,nan,nan,nan,nan,0.0,nan,nan,nan,nan,nan,nan,nan,nan,nan,nan,nan,nan,nan,nan,nan,nan,nan,nan,869.9690231489949,1424.0232476058882,nan,1424.3881779697258,nan,nan,nan,nan
1,386,1,1,1.0,1.0,0.5327953377272934,0,8,0,2,4,5,3,nan,nan,nan,nan,nan,nan,nan,nan,nan,nan,nan,nan,0.0,nan,nan,nan,nan,nan,nan,nan,nan,nan,nan,nan,nan,nan,nan,nan,nan,nan,nan,869.9690231489949,1425.023374473676,nan,1425.5561698114034,nan,nan,nan,nan
