block,trial,freq_trials,correct_response,actual_response,acc,rts,probe_trials,fast_rt_trigger,slow_rt_trigger,rt_triggered,rts_runningavg,rts_runningstd,rts_runningfastthresh,rts_runningslowthresh,rts_runningstd,rts_trailingavg,trials_colorind0,trials_colorind1,trials_colorind2,trials_colorind3,trials_colorind4,trials_colorind5,wholereport_resp0,wholereport_resp1,wholereport_resp2,wholereport_resp3,wholereport_resp4,wholereport_resp5,wholereport_respacc0,wholereport_respacc1,wholereport_respacc2,wholereport_respacc3,wholereport_respacc4,wholereport_respacc5,wholereport_respacc_total,wholereport_respcolorind0,wholereport_respcolorind1,wholereport_respcolorind2,wholereport_respcolorind3,wholereport_respcolorind4,wholereport_respcolorind5,wholereport_resporder0,wholereport_resporder1,wholereport_resporder2,wholereport_resporder3,wholereport_resporder4,wholereport_resporder5,wholereport_rts0,wholereport_rts1,wholereport_rts2,wholereport_rts3,wholereport_rts4,wholereport_rts5,time_blockstart,time_encarray_offset,time_encarray_onset,time_response,time_iti_offset,time_iti_onset,time_memprobe_offset,time_memprobe_onset
1,1,1,1,1.0,1.0,0.3377069240086712,0,nan,nan,nan,nan,nan,nan,nan,nan,nan,7,6,3,0,1,4,nan,nan,nan,nan,nan,nan,nan,nan,nan,nan,nan,nan,0.0,nan,nan,nan,nan,nan,nan,nan,nan,nan,nan,nan,nan,nan,nan,nan,nan,nan,nan,240.3771596160077,241.39942775163217,nan,241.73713467564085,nan,nan,nan,nan
1,2,1,1,1.0,1.0,0.36892428030841984,0,nan,nan,nan,nan,nan,nan,nan,nan,nan,4,6,1,0,8,3,nan,nan,nan,nan,nan,nan,nan,nan,nan,nan,nan,nan,0.0,nan,nan,nan,nan,nan,nan,nan,nan,nan,nan,nan,nan,nan,nan,nan,nan,nan,nan,240.3771596160077,242.41621488163946,nan,242.78513916194788,nan,nan,nan,nan
1,3,1,1,1.0,1.0,0.3760902140638791,0,nan,nan,nan,nan,nan,nan,nan,nan,nan,5,7,0,8,2,1,nan,nan,nan,nan,nan,nan,nan,nan,nan,nan,nan,nan,0.0,nan,nan,nan,nan,nan,nan,nan,nan,nan,nan,nan,nan,nan,nan,nan,nan,nan,nan,240.3771596160077,243.43301997281378,nan,243.80911018687766,nan,nan,nan,nan
1,4,1,1,1.0,1.0,0.3432988326821942,0,nan,nan,nan,nan,nan,nan,nan,nan,nan,6,5,8,2,1,0,nan,nan,nan,nan,nan,nan,nan,nan,nan,nan,nan,nan,0.0,nan,nan,nan,nan,nan,nan,nan,nan,nan,nan,nan,nan,nan,nan,nan,nan,nan,nan,240.3771596160077,244.44979427341605,nan,244.79309310609824,nan,nan,nan,nan
1,5,1,1,1.0,1.0,0.39844701514812186,0,nan,nan,nan,nan,nan,nan,nan,nan,nan,4,0,1,7,2,5,nan,nan,nan,nan,nan,nan,nan,nan,nan,nan,nan,nan,0.0,nan,nan,nan,nan,nan,nan,nan,nan,nan,nan,nan,nan,nan,nan,nan,nan,nan,nan,240.3771596160077,245.46661019828753,nan,245.86505721343565,nan,nan,nan,nan
1,6,1,1,1.0,1.0,0.4216388677305076,0,nan,nan,nan,nan,nan,nan,nan,nan,nan,1,7,0,5,6,8,nan,nan,nan,nan,nan,nan,nan,nan,nan,nan,nan,nan,0.0,nan,nan,nan,nan,nan,nan,nan,nan,nan,nan,nan,nan,nan,nan,nan,nan,nan,nan,240.3771596160077,246.4834036004322,nan,246.90504246816272,nan,nan,nan,nan
1,7,0,0,0.0,1.0,0.42880793756921776,0,nan,nan,nan,nan,nan,nan,nan,nan,nan,7,3,1,6,4,0,nan,nan,nan,nan,nan,nan,nan,nan,nan,nan,nan,nan,0.0,nan,nan,nan,nan,nan,nan,nan,nan,nan,nan,nan,nan,nan,nan,nan,nan,nan,nan,240.3771596160077,247.50021382336854,nan,247.92902176093776,nan,nan,nan,nan
1,8,1,1,1.0,1.0,0.4919907468720339,0,nan,nan,nan,nan,nan,nan,nan,nan,nan,8,5,6,2,3,4,nan,nan,nan,nan,nan,nan,nan,nan,nan,nan,nan,nan,0.0,nan,nan,nan,nan,nan,nan,nan,nan,nan,nan,nan,nan,nan,nan,nan,nan,nan,nan,240.3771596160077,248.51702005491825,nan,249.00901080179028,nan,nan,nan,nan
1,9,1,1,0.0,0.0,0.4591865360853262,0,0.0,0.0,0.0,nan,nan,nan,nan,nan,nan,7,6,4,3,5,1,nan,nan,nan,nan,nan,nan,nan,nan,nan,nan,nan,nan,0.0,nan,nan,nan,nan,nan,nan,nan,nan,nan,nan,nan,nan,nan,nan,nan,nan,nan,nan,240.3771596160077,249.5338131719618,nan,249.99299970804714,nan,nan,nan,nan
1,10,1,1,1.0,1.0,0.46637527766870335,0,nan,nan,nan,nan,nan,nan,nan,nan,nan,8,1,6,4,0,7,nan,nan,nan,nan,nan,nan,nan,nan,nan,nan,nan,nan,0.0,nan,nan,nan,nan,nan,nan,nan,nan,nan,nan,nan,nan,nan,nan,nan,nan,nan,nan,240.3771596160077,250.55059089374845,nan,251.01696617141715,nan,nan,nan,nan
1,11,0,0,0.0,1.0,0.4655427920515649,0,nan,nan,nan,nan,nan,nan,nan,nan,nan,4,6,3,7,2,0,nan,nan,nan,nan,nan,nan,nan,nan,nan,nan,nan,nan,0.0,nan,nan,nan,nan,nan,nan,nan,nan,nan,nan,nan,nan,nan,nan,nan,nan,nan,nan,240.3771596160077,251.5674014017568,nan,252.03294419380836,nan,nan,nan,nan
1,12,1,1,1.0,1.0,0.4007192447897978,0,nan,nan,nan,nan,nan,nan,nan,nan,nan,3,2,5,0,1,4,nan,nan,nan,nan,nan,nan,nan,nan,nan,nan,nan,nan,0.0,nan,nan,nan,nan,nan,nan,nan,nan,nan,nan,nan,nan,nan,nan,nan,nan,nan,nan,240.3771596160077,252.58421105449088,nan,252.98493029928068,nan,nan,nan,nan
1,13,1,1,1.0,1.0,0.4639319893612992,0,nan,nan,nan,nan,nan,nan,nan,nan,nan,6,8,2,4,7,1,nan,nan,nan,nan,nan,nan,nan,nan,nan,nan,nan,nan,0.0,nan,nan,nan,nan,nan,nan,nan,nan,nan,nan,nan,nan,nan,nan,nan,nan,nan,nan,240.3771596160077,253.6009921974328,nan,254.0649241867941,nan,nan,nan,nan
1,14,1,1,1.0,1.0,0.5430948167049792,0,nan,nan,nan,nan,nan,nan,nan,nan,nan,8,2,3,5,1,4,nan,nan,nan,nan,nan,nan,nan,nan,nan,nan,nan,nan,0.0,nan,nan,nan,nan,nan,nan,nan,nan,nan,nan,nan,nan,nan,nan,nan,nan,nan,nan,240.3771596160077,254.6177932972205,nan,255.16088811392547,nan,nan,nan,nan
1,15,1,1,1.0,1.0,0.6382924008939881,0,nan,nan,nan,nan,nan,nan,nan,nan,nan,3,4,7,8,0,1,nan,nan,nan,nan,nan,nan,nan,nan,nan,nan,nan,nan,0.0,nan,nan,nan,nan,nan,nan,nan,nan,nan,nan,nan,nan,nan,nan,nan,nan,nan,nan,240.3771596160077,255.63457529546577,nan,256.27286769635975,nan,nan,nan,nan
1,16,1,1,1.0,1.0,0.5414597806811798,0,nan,nan,nan,nan,nan,nan,nan,nan,nan,8,2,3,1,5,4,nan,nan,nan,nan,nan,nan,nan,nan,nan,nan,nan,nan,0.0,nan,nan,nan,nan,nan,nan,nan,nan,nan,nan,nan,nan,nan,nan,nan,nan,nan,nan,240.3771596160077,256.6514029093669,nan,257.19286269004806,nan,nan,nan,nan
1,17,1,1,1.0,1.0,0.5086424553883262,0,nan,nan,nan,nan,nan,nan,nan,nan,nan,4,5,6,8,7,2,nan,nan,nan,nan,nan,nan,nan,nan,nan,nan,nan,nan,0.0,nan,nan,nan,nan,nan,nan,nan,nan,nan,nan,nan,nan,nan,nan,nan,nan,nan,nan,240.3771596160077,257.66819232015405,nan,258.1768347755424,nan,nan,nan,nan
1,18,1,1,1.0,1.0,0.4518404204864055,0,nan,nan,nan,nan,nan,nan,nan,nan,nan,5,3,7,2,1,8,nan,nan,nan,nan,nan,nan,nan,nan,nan,nan,nan,nan,0.0,nan,nan,nan,nan,nan,nan,nan,nan,nan,nan,nan,nan,nan,nan,nan,nan,nan,nan,240.3771596160077,258.6849774544535,nan,259.1368178749399,nan,nan,nan,nan
1,19,1,1,1.0,1.0,0.5230353338993154,0,nan,nan,nan,nan,nan,nan,nan,nan,nan,7,6,0,8,2,4,nan,nan,nan,nan,nan,nan,nan,nan,nan,nan,nan,nan,0.0,nan,nan,nan,nan,nan,nan,nan,nan,nan,nan,nan,nan,nan,nan,nan,nan,nan,nan,240.3771596160077,259.70177427778253,nan,260.22480961168185,nan,nan,nan,nan
1,20,1,1,1.0,1.0,0.47421632311306894,0,nan,nan,nan,nan,nan,nan,nan,nan,nan,1,4,6,3,0,8,nan,nan,nan,nan,nan,nan,nan,nan,nan,nan,nan,nan,0.0,nan,nan,nan,nan,nan,nan,nan,nan,nan,nan,nan,nan,nan,nan,nan,nan,nan,nan,240.3771596160077,260.7185750924691,nan,261.1927914155822,nan,nan,nan,nan
1,21,1,1,1.0,1.0,0.44139814254594967,0,nan,nan,nan,nan,nan,nan,nan,nan,nan,3,0,8,2,6,4,nan,nan,nan,nan,nan,nan,nan,nan,nan,nan,nan,nan,0.0,nan,nan,nan,nan,nan,nan,nan,nan,nan,nan,nan,nan,nan,nan,nan,nan,nan,nan,240.3771596160077,261.7353870259831,nan,262.176785168529,nan,nan,nan,nan
1,22,0,0,0.0,1.0,0.5525777404545806,0,nan,nan,nan,nan,nan,nan,nan,nan,nan,6,1,4,8,2,7,nan,nan,nan,nan,nan,nan,nan,nan,nan,nan,nan,nan,0.0,nan,nan,nan,nan,nan,nan,nan,nan,nan,nan,nan,nan,nan,nan,nan,nan,nan,nan,240.3771596160077,262.75218014305574,nan,263.3047578835103,nan,nan,nan,nan
1,23,1,1,1.0,1.0,0.5277491412998643,0,nan,nan,nan,nan,nan,nan,nan,nan,nan,7,4,2,1,3,8,nan,nan,nan,nan,nan,nan,nan,nan,nan,nan,nan,nan,0.0,nan,nan,nan,nan,nan,nan,nan,nan,nan,nan,nan,nan,nan,nan,nan,nan,nan,nan,240.3771596160077,263.76899264674284,nan,264.2967417880427,nan,nan,nan,nan
1,24,0,0,0.0,1.0,0.5829931165790185,0,nan,nan,nan,nan,nan,nan,nan,nan,nan,8,7,0,6,2,5,nan,nan,nan,nan,nan,nan,nan,nan,nan,nan,nan,nan,0.0,nan,nan,nan,nan,nan,nan,nan,nan,nan,nan,nan,nan,nan,nan,nan,nan,nan,nan,240.3771596160077,264.78573330582003,nan,265.36872642239905,nan,nan,nan,nan
1,25,1,1,1.0,1.0,0.49412584444507957,0,nan,nan,nan,nan,nan,nan,nan,nan,nan,1,8,6,4,3,7,nan,nan,nan,nan,nan,nan,nan,nan,nan,nan,nan,nan,0.0,nan,nan,nan,nan,nan,nan,nan,nan,nan,nan,nan,nan,nan,nan,nan,nan,nan,nan,240.3771596160077,265.80257460440043,nan,266.2967004488455,nan,nan,nan,nan
1,26,1,1,1.0,1.0,0.4213717310631182,0,nan,nan,nan,nan,nan,nan,nan,nan,nan,0,7,3,6,5,1,nan,nan,nan,nan,nan,nan,nan,nan,nan,nan,nan,nan,0.0,nan,nan,nan,nan,nan,nan,nan,nan,nan,nan,nan,nan,nan,nan,nan,nan,nan,nan,240.3771596160077,266.81931811443064,nan,267.24068984549376,nan,nan,nan,nan
1,27,1,1,1.0,1.0,0.3965103456284851,0,nan,nan,nan,nan,nan,nan,nan,nan,nan,7,8,6,2,4,5,nan,nan,nan,nan,nan,nan,nan,nan,nan,nan,nan,nan,0.0,nan,nan,nan,nan,nan,nan,nan,nan,nan,nan,nan,nan,nan,nan,nan,nan,nan,nan,240.3771596160077,267.83615057499264,nan,268.23266092062113,nan,nan,nan,nan
1,28,1,1,1.0,1.0,0.45169787158374675,0,nan,nan,nan,nan,nan,nan,nan,nan,nan,8,2,7,3,5,6,nan,nan,nan,nan,nan,nan,nan,nan,nan,nan,nan,nan,0.0,nan,nan,nan,nan,nan,nan,nan,nan,nan,nan,nan,nan,nan,nan,nan,nan,nan,nan,240.3771596160077,268.8529539555602,nan,269.30465182714397,nan,nan,nan,nan
1,29,1,1,1.0,1.0,0.3868880090303719,0,nan,nan,nan,nan,nan,nan,nan,nan,nan,2,1,8,5,0,4,nan,nan,nan,nan,nan,nan,nan,nan,nan,nan,nan,nan,0.0,nan,nan,nan,nan,nan,nan,nan,nan,nan,nan,nan,nan,nan,nan,nan,nan,nan,nan,240.3771596160077,269.86974678750266,nan,270.25663479653304,nan,nan,nan,nan
1,30,1,1,1.0,1.0,0.4020663319970481,0,nan,nan,nan,nan,nan,nan,nan,nan,nan,0,5,3,6,4,8,nan,nan,nan,nan,nan,nan,nan,nan,nan,nan,nan,nan,0.0,nan,nan,nan,nan,nan,nan,nan,nan,nan,nan,nan,nan,nan,nan,nan,nan,nan,nan,240.3771596160077,270.88654389593285,nan,271.2886102279299,nan,nan,nan,nan
1,31,1,1,1.0,1.0,0.34527741160127334,0,nan,nan,nan,nan,nan,nan,nan,nan,nan,1,0,4,3,8,5,nan,nan,nan,nan,nan,nan,nan,nan,nan,nan,nan,nan,0.0,nan,nan,nan,nan,nan,nan,nan,nan,nan,nan,nan,nan,nan,nan,nan,nan,nan,nan,240.3771596160077,271.9033404341608,nan,272.24861784576206,nan,nan,nan,nan
1,32,1,1,1.0,1.0,0.3284332620096393,0,nan,nan,nan,nan,nan,nan,nan,nan,nan,8,7,6,0,4,2,nan,nan,nan,nan,nan,nan,nan,nan,nan,nan,nan,nan,0.0,nan,nan,nan,nan,nan,nan,nan,nan,nan,nan,nan,nan,nan,nan,nan,nan,nan,nan,240.3771596160077,272.9201378276921,nan,273.2485710897017,nan,nan,nan,nan
1,33,1,1,1.0,1.0,0.3436187124752905,0,nan,nan,nan,nan,nan,nan,nan,nan,nan,4,8,2,1,0,5,nan,nan,nan,nan,nan,nan,nan,nan,nan,nan,nan,nan,0.0,nan,nan,nan,nan,nan,nan,nan,nan,nan,nan,nan,nan,nan,nan,nan,nan,nan,nan,240.3771596160077,273.93693579139654,nan,274.2805545038718,nan,nan,nan,nan
1,34,0,0,1.0,0.0,0.3588030225073453,0,0.0,0.0,0.0,nan,nan,nan,nan,nan,nan,0,6,3,2,7,8,nan,nan,nan,nan,nan,nan,nan,nan,nan,nan,nan,nan,0.0,nan,nan,nan,nan,nan,nan,nan,nan,nan,nan,nan,nan,nan,nan,nan,nan,nan,nan,240.3771596160077,274.9537328998267,nan,275.31253592233406,nan,nan,nan,nan
1,35,1,1,1.0,1.0,0.4139651747245807,0,nan,nan,nan,nan,nan,nan,nan,nan,nan,7,0,6,4,5,3,nan,nan,nan,nan,nan,nan,nan,nan,nan,nan,nan,nan,0.0,nan,nan,nan,nan,nan,nan,nan,nan,nan,nan,nan,nan,nan,nan,nan,nan,nan,nan,240.3771596160077,275.9705377058999,nan,276.3845028806245,nan,nan,nan,nan
1,36,1,1,1.0,1.0,0.39718602746143006,0,nan,nan,nan,nan,nan,nan,nan,nan,nan,2,5,7,6,3,4,nan,nan,nan,nan,nan,nan,nan,nan,nan,nan,nan,nan,0.0,nan,nan,nan,nan,nan,nan,nan,nan,nan,nan,nan,nan,nan,nan,nan,nan,nan,nan,240.3771596160077,276.9873282570625,nan,277.3845142845239,nan,nan,nan,nan
1,37,1,1,1.0,1.0,0.452386952994857,0,nan,nan,nan,nan,nan,nan,nan,nan,nan,0,3,6,1,2,7,nan,nan,nan,nan,nan,nan,nan,nan,nan,nan,nan,nan,0.0,nan,nan,nan,nan,nan,nan,nan,nan,nan,nan,nan,nan,nan,nan,nan,nan,nan,nan,240.3771596160077,278.00410284276586,nan,278.4564897957607,nan,nan,nan,nan
1,38,1,1,1.0,1.0,0.4355331101396587,0,nan,nan,nan,nan,nan,nan,nan,nan,nan,5,4,2,3,6,1,nan,nan,nan,nan,nan,nan,nan,nan,nan,nan,nan,nan,0.0,nan,nan,nan,nan,nan,nan,nan,nan,nan,nan,nan,nan,nan,nan,nan,nan,nan,nan,240.3771596160077,279.02093330762,nan,279.45646641775966,nan,nan,nan,nan
1,39,0,0,0.0,1.0,0.466738207207527,0,nan,nan,nan,nan,nan,nan,nan,nan,nan,4,1,0,8,2,6,nan,nan,nan,nan,nan,nan,nan,nan,nan,nan,nan,nan,0.0,nan,nan,nan,nan,nan,nan,nan,nan,nan,nan,nan,nan,nan,nan,nan,nan,nan,nan,240.3771596160077,280.03771131450776,nan,280.5044495217153,nan,nan,nan,nan
1,40,1,1,1.0,1.0,0.5298967831768095,0,nan,nan,nan,nan,nan,nan,nan,nan,nan,3,5,7,2,6,4,nan,nan,nan,nan,nan,nan,nan,nan,nan,nan,nan,nan,0.0,nan,nan,nan,nan,nan,nan,nan,nan,nan,nan,nan,nan,nan,nan,nan,nan,nan,nan,240.3771596160077,281.0545352221234,nan,281.5844320053002,nan,nan,nan,nan
1,41,0,0,1.0,0.0,0.48109402297995985,0,0.0,0.0,0.0,nan,nan,nan,nan,nan,nan,1,8,3,5,4,0,nan,nan,nan,nan,nan,nan,nan,nan,nan,nan,nan,nan,0.0,nan,nan,nan,nan,nan,nan,nan,nan,nan,nan,nan,nan,nan,nan,nan,nan,nan,nan,240.3771596160077,282.0713254881848,nan,282.55241951116477,nan,nan,nan,nan
1,42,1,1,1.0,1.0,0.39227949394262396,0,nan,nan,nan,nan,nan,nan,nan,nan,nan,3,0,7,8,6,5,nan,nan,nan,nan,nan,nan,nan,nan,nan,nan,nan,nan,0.0,nan,nan,nan,nan,nan,nan,nan,nan,nan,nan,nan,nan,nan,nan,nan,nan,nan,nan,240.3771596160077,283.08811347349547,nan,283.4803929674381,nan,nan,nan,nan
1,43,1,1,1.0,1.0,0.42346178321167827,0,nan,nan,nan,nan,nan,nan,nan,nan,nan,4,3,2,7,1,6,nan,nan,nan,nan,nan,nan,nan,nan,nan,nan,nan,nan,0.0,nan,nan,nan,nan,nan,nan,nan,nan,nan,nan,nan,nan,nan,nan,nan,nan,nan,nan,240.3771596160077,284.1049111520988,nan,284.5283729353105,nan,nan,nan,nan
1,44,1,1,1.0,1.0,0.4306411165744066,1,nan,nan,nan,nan,nan,nan,nan,nan,nan,3,5,6,1,2,0,1.0,1.0,1.0,1.0,1.0,1.0,0.0,1.0,0.0,0.0,0.0,1.0,2.0,2.0,5.0,8.0,4.0,3.0,0.0,6.0,1.0,2.0,3.0,4.0,5.0,9.11336344727897,2.634299605881097,3.8264772058464587,5.081686798366718,7.066271274001338,7.953918213432189,240.3771596160077,285.1217088307312,285.93013364245417,285.55234994730563,296.1064198897802,297.1103359934932,286.95525902847294,296.09809075688827
1,45,1,1,1.0,1.0,0.49257662289892323,0,nan,nan,nan,nan,nan,nan,nan,nan,nan,0,3,8,4,1,6,nan,nan,nan,nan,nan,nan,nan,nan,nan,nan,nan,nan,0.0,nan,nan,nan,nan,nan,nan,nan,nan,nan,nan,nan,nan,nan,nan,nan,nan,nan,nan,240.3771596160077,297.3315764655126,nan,297.82415308841155,nan,nan,nan,nan
1,46,1,1,1.0,1.0,0.3077223306754604,0,nan,nan,nan,nan,nan,nan,nan,nan,nan,6,0,1,8,5,2,nan,nan,nan,nan,nan,nan,nan,nan,nan,nan,nan,nan,0.0,nan,nan,nan,nan,nan,nan,nan,nan,nan,nan,nan,nan,nan,nan,nan,nan,nan,nan,240.3771596160077,298.34841063665226,nan,298.6561329673277,nan,nan,nan,nan
1,47,1,1,1.0,1.0,0.3468919205479324,0,nan,nan,nan,nan,nan,nan,nan,nan,nan,1,4,8,3,6,7,nan,nan,nan,nan,nan,nan,nan,nan,nan,nan,nan,nan,0.0,nan,nan,nan,nan,nan,nan,nan,nan,nan,nan,nan,nan,nan,nan,nan,nan,nan,nan,240.3771596160077,299.3652057494037,nan,299.7120976699516,nan,nan,nan,nan
1,48,1,1,1.0,1.0,0.3380812574469019,0,nan,nan,nan,nan,nan,nan,nan,nan,nan,4,6,3,7,8,5,nan,nan,nan,nan,nan,nan,nan,nan,nan,nan,nan,nan,0.0,nan,nan,nan,nan,nan,nan,nan,nan,nan,nan,nan,nan,nan,nan,nan,nan,nan,nan,240.3771596160077,300.382000862126,nan,300.7200821195729,nan,nan,nan,nan
1,49,1,1,1.0,1.0,0.3532624313957058,0,nan,nan,nan,nan,nan,nan,nan,nan,nan,0,3,1,4,5,2,nan,nan,nan,nan,nan,nan,nan,nan,nan,nan,nan,nan,0.0,nan,nan,nan,nan,nan,nan,nan,nan,nan,nan,nan,nan,nan,nan,nan,nan,nan,nan,240.3771596160077,301.3988008215383,nan,301.752063252934,nan,nan,nan,nan
1,50,1,1,1.0,1.0,0.4564718346227892,0,nan,nan,nan,nan,nan,nan,nan,nan,nan,2,6,5,0,4,8,nan,nan,nan,nan,nan,nan,nan,nan,nan,nan,nan,nan,0.0,nan,nan,nan,nan,nan,nan,nan,nan,nan,nan,nan,nan,nan,nan,nan,nan,nan,nan,240.3771596160077,302.41559850014164,nan,302.87207033476443,nan,nan,nan,nan
1,51,1,1,1.0,1.0,0.36763421262730844,0,nan,nan,nan,nan,nan,nan,nan,nan,nan,1,7,8,4,0,3,nan,nan,nan,nan,nan,nan,nan,nan,nan,nan,nan,nan,0.0,nan,nan,nan,nan,nan,nan,nan,nan,nan,nan,nan,nan,nan,nan,nan,nan,nan,nan,240.3771596160077,303.43239731917856,nan,303.80003153180587,nan,nan,nan,nan
1,52,1,1,1.0,1.0,0.3828227991471067,0,nan,nan,nan,nan,nan,nan,nan,nan,nan,7,8,2,5,4,0,nan,nan,nan,nan,nan,nan,nan,nan,nan,nan,nan,nan,0.0,nan,nan,nan,nan,nan,nan,nan,nan,nan,nan,nan,nan,nan,nan,nan,nan,nan,nan,240.3771596160077,304.4491935723054,nan,304.8320163714525,nan,nan,nan,nan
1,53,0,0,0.0,1.0,0.48599713534349576,0,nan,nan,nan,nan,nan,nan,nan,nan,nan,3,7,8,6,2,1,nan,nan,nan,nan,nan,nan,nan,nan,nan,nan,nan,nan,0.0,nan,nan,nan,nan,nan,nan,nan,nan,nan,nan,nan,nan,nan,nan,nan,nan,nan,nan,240.3771596160077,305.46599923365284,nan,305.95199636899633,nan,nan,nan,nan
1,54,1,1,1.0,1.0,0.4051955656905193,0,nan,nan,nan,nan,nan,nan,nan,nan,nan,4,0,6,1,7,2,nan,nan,nan,nan,nan,nan,nan,nan,nan,nan,nan,nan,0.0,nan,nan,nan,nan,nan,nan,nan,nan,nan,nan,nan,nan,nan,nan,nan,nan,nan,nan,240.3771596160077,306.4827857934579,nan,306.8879813591484,nan,nan,nan,nan
1,55,1,1,1.0,1.0,0.34037458430975676,0,nan,nan,nan,nan,nan,nan,nan,nan,nan,8,3,0,7,1,4,nan,nan,nan,nan,nan,nan,nan,nan,nan,nan,nan,nan,0.0,nan,nan,nan,nan,nan,nan,nan,nan,nan,nan,nan,nan,nan,nan,nan,nan,nan,nan,240.3771596160077,307.49958546776907,nan,307.8399600520788,nan,nan,nan,nan
1,56,1,1,1.0,1.0,0.44354635462514125,1,nan,nan,nan,nan,nan,nan,nan,nan,nan,2,1,7,5,4,3,1.0,1.0,1.0,1.0,1.0,1.0,0.0,0.0,0.0,0.0,0.0,0.0,0.0,3.0,0.0,8.0,2.0,3.0,6.0,1.0,4.0,3.0,2.0,5.0,6.0,1.8725689708662685,5.983797605644213,4.808776337333256,3.8811715125630144,7.311461958830478,10.66276890426525,240.3771596160077,308.5163868526579,309.32479940517806,308.95993320728303,321.034630262322,322.0387168545276,310.3332611085498,321.02629485729267
1,57,1,1,1.0,1.0,0.28382771197357215,0,nan,nan,nan,nan,nan,nan,nan,nan,nan,0,5,2,1,7,6,nan,nan,nan,nan,nan,nan,nan,nan,nan,nan,nan,nan,0.0,nan,nan,nan,nan,nan,nan,nan,nan,nan,nan,nan,nan,nan,nan,nan,nan,nan,nan,240.3771596160077,322.2598980262119,nan,322.54372573818546,nan,nan,nan,nan
1,58,1,1,1.0,1.0,0.33077591081382707,0,nan,nan,nan,nan,nan,nan,nan,nan,nan,3,2,5,6,4,0,nan,nan,nan,nan,nan,nan,nan,nan,nan,nan,nan,nan,0.0,nan,nan,nan,nan,nan,nan,nan,nan,nan,nan,nan,nan,nan,nan,nan,nan,nan,nan,240.3771596160077,323.2849236280017,nan,323.61569953881553,nan,nan,nan,nan
1,59,1,1,1.0,1.0,0.3379144752107095,1,nan,nan,nan,nan,nan,nan,nan,nan,nan,8,1,3,5,0,4,1.0,1.0,1.0,1.0,1.0,1.0,0.0,0.0,0.0,0.0,0.0,0.0,0.0,1.0,2.0,1.0,3.0,4.0,2.0,6.0,1.0,2.0,4.0,3.0,5.0,6.796602375223301,1.0635634148784447,1.7990011882793624,4.780845018540276,3.846105620759772,5.82922355318442,240.3771596160077,324.30175295248046,325.1101523904945,324.63966742769117,332.9612064541434,333.97251200833125,326.1269503541989,332.95283997344086
1,60,1,1,1.0,1.0,0.3248327616311144,0,nan,nan,nan,nan,nan,nan,nan,nan,nan,1,6,8,2,7,5,nan,nan,nan,nan,nan,nan,nan,nan,nan,nan,nan,nan,0.0,nan,nan,nan,nan,nan,nan,nan,nan,nan,nan,nan,nan,nan,nan,nan,nan,nan,nan,240.3771596160077,334.19467477180297,nan,334.5195075334341,nan,nan,nan,nan
1,61,1,1,1.0,1.0,0.3639752672170289,0,nan,nan,nan,nan,nan,nan,nan,nan,nan,0,1,6,4,5,2,nan,nan,nan,nan,nan,nan,nan,nan,nan,nan,nan,nan,0.0,nan,nan,nan,nan,nan,nan,nan,nan,nan,nan,nan,nan,nan,nan,nan,nan,nan,nan,240.3771596160077,335.2114852798113,nan,335.57546054702834,nan,nan,nan,nan
1,62,0,0,0.0,1.0,0.507155955361668,0,nan,nan,nan,nan,nan,nan,nan,nan,nan,8,4,5,0,2,6,nan,nan,nan,nan,nan,nan,nan,nan,nan,nan,nan,nan,0.0,nan,nan,nan,nan,nan,nan,nan,nan,nan,nan,nan,nan,nan,nan,nan,nan,nan,nan,240.3771596160077,336.22828552432475,nan,336.7354414796864,nan,nan,nan,nan
1,63,1,1,1.0,1.0,0.5063457073410973,0,nan,nan,nan,nan,nan,nan,nan,nan,nan,1,0,4,3,7,5,nan,nan,nan,nan,nan,nan,nan,nan,nan,nan,nan,nan,0.0,nan,nan,nan,nan,nan,nan,nan,nan,nan,nan,nan,nan,nan,nan,nan,nan,nan,nan,240.3771596160077,337.24508519863593,nan,337.75143090597703,nan,nan,nan,nan
1,64,1,1,1.0,1.0,0.4255495545803569,0,nan,nan,nan,nan,nan,nan,nan,nan,nan,7,4,8,2,1,6,nan,nan,nan,nan,nan,nan,nan,nan,nan,nan,nan,nan,0.0,nan,nan,nan,nan,nan,nan,nan,nan,nan,nan,nan,nan,nan,nan,nan,nan,nan,nan,240.3771596160077,338.26187546469737,nan,338.6874250192777,nan,nan,nan,nan
1,65,1,1,1.0,1.0,0.34476252491003834,0,nan,nan,nan,nan,nan,nan,nan,nan,nan,8,3,6,5,2,0,nan,nan,nan,nan,nan,nan,nan,nan,nan,nan,nan,nan,0.0,nan,nan,nan,nan,nan,nan,nan,nan,nan,nan,nan,nan,nan,nan,nan,nan,nan,nan,240.3771596160077,339.27863094885834,nan,339.6233934737684,nan,nan,nan,nan
1,66,1,1,1.0,1.0,0.4398703032929916,1,nan,nan,nan,nan,nan,nan,nan,nan,nan,7,8,0,3,6,5,1.0,1.0,1.0,1.0,1.0,1.0,1.0,1.0,1.0,0.0,1.0,0.0,4.0,7.0,8.0,0.0,4.0,6.0,3.0,3.0,2.0,1.0,6.0,5.0,4.0,3.3811769294552505,2.285044224379817,1.4940058182983194,7.5632629217871,6.259786838083528,5.338996991660679,240.3771596160077,340.29551501211245,341.10388651053654,340.73538531540544,349.71331674823887,350.71106133935973,342.1123904083797,349.7049898961268
1,67,1,1,1.0,1.0,0.32503261519013904,0,nan,nan,nan,nan,nan,nan,nan,nan,nan,4,7,2,8,3,6,nan,nan,nan,nan,nan,nan,nan,nan,nan,nan,nan,nan,0.0,nan,nan,nan,nan,nan,nan,nan,nan,nan,nan,nan,nan,nan,nan,nan,nan,nan,nan,240.3771596160077,350.9301678541815,nan,351.25520046937163,nan,nan,nan,nan
1,68,1,1,1.0,1.0,0.40421083781984635,0,nan,nan,nan,nan,nan,nan,nan,nan,nan,3,4,1,5,2,7,nan,nan,nan,nan,nan,nan,nan,nan,nan,nan,nan,nan,0.0,nan,nan,nan,nan,nan,nan,nan,nan,nan,nan,nan,nan,nan,nan,nan,nan,nan,nan,240.3771596160077,351.94695697986754,nan,352.3511678176874,nan,nan,nan,nan
1,69,1,1,1.0,1.0,0.5154009843827225,0,nan,nan,nan,nan,nan,nan,nan,nan,nan,1,3,5,8,4,6,nan,nan,nan,nan,nan,nan,nan,nan,nan,nan,nan,nan,0.0,nan,nan,nan,nan,nan,nan,nan,nan,nan,nan,nan,nan,nan,nan,nan,nan,nan,nan,240.3771596160077,352.9637577945832,nan,353.47915877896594,nan,nan,nan,nan
1,70,1,1,1.0,1.0,0.5625761211267672,0,nan,nan,nan,nan,nan,nan,nan,nan,nan,4,7,8,2,0,5,nan,nan,nan,nan,nan,nan,nan,nan,nan,nan,nan,nan,0.0,nan,nan,nan,nan,nan,nan,nan,nan,nan,nan,nan,nan,nan,nan,nan,nan,nan,nan,240.3771596160077,353.9805523371033,nan,354.54312845823006,nan,nan,nan,nan
1,71,1,1,1.0,1.0,0.5377748913306277,0,nan,nan,nan,nan,nan,nan,nan,nan,nan,6,5,0,4,3,1,nan,nan,nan,nan,nan,nan,nan,nan,nan,nan,nan,nan,0.0,nan,nan,nan,nan,nan,nan,nan,nan,nan,nan,nan,nan,nan,nan,nan,nan,nan,nan,240.3771596160077,354.99735429219436,nan,355.535129183525,nan,nan,nan,nan
1,72,1,1,1.0,1.0,0.616951118252473,0,nan,nan,nan,nan,nan,nan,nan,nan,nan,2,8,3,7,4,6,nan,nan,nan,nan,nan,nan,nan,nan,nan,nan,nan,nan,0.0,nan,nan,nan,nan,nan,nan,nan,nan,nan,nan,nan,nan,nan,nan,nan,nan,nan,nan,240.3771596160077,356.0141522559279,nan,356.6311033741804,nan,nan,nan,nan
1,73,1,1,1.0,1.0,0.7121130652376451,0,nan,nan,nan,nan,nan,nan,nan,nan,nan,6,7,4,8,1,2,nan,nan,nan,nan,nan,nan,nan,nan,nan,nan,nan,nan,0.0,nan,nan,nan,nan,nan,nan,nan,nan,nan,nan,nan,nan,nan,nan,nan,nan,nan,nan,240.3771596160077,357.03095991295413,nan,357.7430729781918,nan,nan,nan,nan
1,74,1,1,1.0,1.0,0.7353573758446146,0,nan,nan,nan,nan,nan,nan,nan,nan,nan,1,5,7,0,4,6,nan,nan,nan,nan,nan,nan,nan,nan,nan,nan,nan,nan,0.0,nan,nan,nan,nan,nan,nan,nan,nan,nan,nan,nan,nan,nan,nan,nan,nan,nan,nan,240.3771596160077,358.04770855474635,nan,358.78306593059096,nan,nan,nan,nan
1,75,1,1,nan,nan,nan,0,nan,nan,nan,nan,nan,nan,nan,nan,nan,3,2,8,6,5,4,nan,nan,nan,nan,nan,nan,nan,nan,nan,nan,nan,nan,0.0,nan,nan,nan,nan,nan,nan,nan,nan,nan,nan,nan,nan,nan,nan,nan,nan,nan,nan,240.3771596160077,359.0645518490346,nan,nan,nan,nan,nan,nan
1,76,1,1,nan,nan,nan,0,nan,nan,nan,nan,nan,nan,nan,nan,nan,4,8,0,1,6,5,nan,nan,nan,nan,nan,nan,nan,nan,nan,nan,nan,nan,0.0,nan,nan,nan,nan,nan,nan,nan,nan,nan,nan,nan,nan,nan,nan,nan,nan,nan,nan,240.3771596160077,360.08133213667315,nan,nan,nan,nan,nan,nan
1,77,0,0,0.0,1.0,0.5808366366836708,0,nan,nan,nan,nan,nan,nan,nan,nan,nan,1,7,4,5,8,0,nan,nan,nan,nan,nan,nan,nan,nan,nan,nan,nan,nan,0.0,nan,nan,nan,nan,nan,nan,nan,nan,nan,nan,nan,nan,nan,nan,nan,nan,nan,nan,240.3771596160077,361.09814834664576,nan,361.6789849833294,nan,nan,nan,nan
1,78,1,1,1.0,1.0,0.4200605661899317,0,nan,nan,nan,nan,nan,nan,nan,nan,nan,3,6,7,0,2,4,nan,nan,nan,nan,nan,nan,nan,nan,nan,nan,nan,nan,0.0,nan,nan,nan,nan,nan,nan,nan,nan,nan,nan,nan,nan,nan,nan,nan,nan,nan,nan,240.3771596160077,362.1149337660754,nan,362.53499433226534,nan,nan,nan,nan
1,79,1,1,1.0,1.0,0.35525840127957053,0,nan,nan,nan,nan,nan,nan,nan,nan,nan,4,5,1,6,0,2,nan,nan,nan,nan,nan,nan,nan,nan,nan,nan,nan,nan,0.0,nan,nan,nan,nan,nan,nan,nan,nan,nan,nan,nan,nan,nan,nan,nan,nan,nan,nan,240.3771596160077,363.13172659801785,nan,363.4869849992974,nan,nan,nan,nan
1,80,1,1,1.0,1.0,0.4264715609315317,0,nan,nan,nan,nan,nan,nan,nan,nan,nan,2,3,8,4,7,6,nan,nan,nan,nan,nan,nan,nan,nan,nan,nan,nan,nan,0.0,nan,nan,nan,nan,nan,nan,nan,nan,nan,nan,nan,nan,nan,nan,nan,nan,nan,nan,240.3771596160077,364.14851885978715,nan,364.5749904207187,nan,nan,nan,nan
1,81,1,1,1.0,1.0,0.4892751901061274,0,0.0,0.0,0.0,0.44022521719326063,0.090024605543099,0.35020061165016164,0.5302498227363597,0.090024605543099,0.4236683841057432,8,0,4,7,5,3,nan,nan,nan,nan,nan,nan,nan,nan,nan,nan,nan,nan,0.0,nan,nan,nan,nan,nan,nan,nan,nan,nan,nan,nan,nan,nan,nan,nan,nan,nan,nan,240.3771596160077,365.1736604963953,nan,365.66293568650144,nan,nan,nan,nan
1,82,1,1,1.0,1.0,0.5364605903450865,0,0.0,0.0,0.0,0.44084610292633486,0.08962092844860642,0.35122517447772844,0.5304670313749413,0.08962092844860642,0.48406911379424855,2,3,5,1,4,0,nan,nan,nan,nan,nan,nan,nan,nan,nan,nan,nan,nan,0.0,nan,nan,nan,nan,nan,nan,nan,nan,nan,nan,nan,nan,nan,nan,nan,nan,nan,nan,240.3771596160077,366.1904587452009,nan,366.726919335546,nan,nan,nan,nan
1,83,1,1,1.0,1.0,0.503636992914835,0,0.0,0.0,0.0,0.4420412840190693,0.08969035678655932,0.35235092723250994,0.5317316408056286,0.08969035678655932,0.5097909244553497,7,0,2,5,8,4,nan,nan,nan,nan,nan,nan,nan,nan,nan,nan,nan,nan,0.0,nan,nan,nan,nan,nan,nan,nan,nan,nan,nan,nan,nan,nan,nan,nan,nan,nan,nan,240.3771596160077,367.2072549983277,nan,367.71089199124253,nan,nan,nan,nan
1,84,1,1,1.0,1.0,0.5588148255483247,0,0.0,1.0,0.0,0.4428017248696343,0.08939411969372735,0.35340760517590697,0.5321958445633617,0.08939411969372735,0.5329708029360821,1,5,3,7,0,8,nan,nan,nan,nan,nan,nan,nan,nan,nan,nan,nan,nan,0.0,nan,nan,nan,nan,nan,nan,nan,nan,nan,nan,nan,nan,nan,nan,nan,nan,nan,nan,240.3771596160077,368.22405438753776,nan,368.7828692130861,nan,nan,nan,nan
1,85,1,1,1.0,1.0,0.6700249289569911,1,0.0,0.0,1.0,0.44421651878035,0.0897551482592865,0.3544613705210635,0.5339716670396365,0.0897551482592865,0.5774922491400503,0,6,2,5,8,7,1.0,1.0,1.0,1.0,1.0,1.0,0.0,0.0,0.0,0.0,0.0,0.0,0.0,7.0,4.0,5.0,2.0,3.0,0.0,2.0,1.0,3.0,4.0,5.0,6.0,3.2092606615042314,2.3630843364808243,4.506962088838918,5.57817011672887,7.145275016751839,9.23322826527874,240.3771596160077,369.2408523512422,370.04927317160764,369.9108772801992,380.3422522385954,381.3489178256714,371.0660651482758,380.33393222882296
1,86,1,1,1.0,1.0,0.3112204809731338,0,0.0,0.0,0.0,0.44693710203549025,0.09255190741095644,0.35438519462453383,0.5394890094464467,0.09255190741095644,0.5133534118261499,8,1,5,0,7,4,nan,nan,nan,nan,nan,nan,nan,nan,nan,nan,nan,nan,0.0,nan,nan,nan,nan,nan,nan,nan,nan,nan,nan,nan,nan,nan,nan,nan,nan,nan,nan,240.3771596160077,381.5674413154484,nan,381.8786617964215,nan,nan,nan,nan
1,87,1,1,1.0,1.0,0.7103959210508037,0,0.0,0.0,0.0,0.4453214279752241,0.09316943981755989,0.35215198815766424,0.538490867792784,0.09316943981755989,0.5638804436603095,2,4,0,3,6,7,nan,nan,nan,nan,nan,nan,nan,nan,nan,nan,nan,nan,0.0,nan,nan,nan,nan,nan,nan,nan,nan,nan,nan,nan,nan,nan,nan,nan,nan,nan,nan,240.3771596160077,382.5842338623188,nan,383.2946297833696,nan,nan,nan,nan
1,88,1,1,nan,nan,nan,0,0.0,0.0,0.0,0.4484399514231721,0.09692954294952177,0.35151040847365034,0.5453694943726939,0.09692954294952177,0.5108082010119688,1,5,6,8,7,2,nan,nan,nan,nan,nan,nan,nan,nan,nan,nan,nan,nan,0.0,nan,nan,nan,nan,nan,nan,nan,nan,nan,nan,nan,nan,nan,nan,nan,nan,nan,nan,240.3771596160077,383.601041234273,nan,nan,nan,nan,nan,nan
1,89,1,1,nan,nan,nan,0,0.0,0.0,0.0,0.4484399514231721,0.09692954294952179,0.35151040847365034,0.5453694943726939,0.09692954294952179,0.7103959210508037,5,4,2,7,6,3,nan,nan,nan,nan,nan,nan,nan,nan,nan,nan,nan,nan,0.0,nan,nan,nan,nan,nan,nan,nan,nan,nan,nan,nan,nan,nan,nan,nan,nan,nan,nan,240.3771596160077,384.6178223772149,nan,nan,nan,nan,nan,nan
1,90,1,1,nan,nan,nan,0,0.0,0.0,0.0,0.4484399514231721,0.09692954294952179,0.35151040847365034,0.5453694943726939,0.09692954294952179,nan,2,6,4,0,7,1,nan,nan,nan,nan,nan,nan,nan,nan,nan,nan,nan,nan,0.0,nan,nan,nan,nan,nan,nan,nan,nan,nan,nan,nan,nan,nan,nan,nan,nan,nan,nan,240.3771596160077,385.63462404720485,nan,nan,nan,nan,nan,nan
1,91,1,1,1.0,1.0,0.051188173703849316,0,0.0,0.0,0.0,0.4484399514231721,0.09692954294952179,0.35151040847365034,0.5453694943726939,0.09692954294952179,0.051188173703849316,1,5,0,7,6,8,nan,nan,nan,nan,nan,nan,nan,nan,nan,nan,nan,nan,0.0,nan,nan,nan,nan,nan,nan,nan,nan,nan,nan,nan,nan,nan,nan,nan,nan,nan,nan,240.3771596160077,386.65140148386126,nan,386.7025896575651,nan,nan,nan,nan
1,92,1,1,1.0,1.0,0.02632935412111692,0,0.0,0.0,0.0,0.4438207447055056,0.10535529986421624,0.3384654448412894,0.5491760445697218,0.10535529986421624,0.03875876391248312,7,3,2,4,0,5,nan,nan,nan,nan,nan,nan,nan,nan,nan,nan,nan,nan,0.0,nan,nan,nan,nan,nan,nan,nan,nan,nan,nan,nan,nan,nan,nan,nan,nan,nan,nan,240.3771596160077,387.6682219703216,nan,387.6945513244427,nan,nan,nan,nan
1,93,1,1,1.0,1.0,0.7054434867750388,0,1.0,0.0,0.0,0.43902199308959305,0.11380933822977682,0.3252126548598162,0.5528313313193699,0.11380933822977682,0.2609870048666683,8,1,6,5,3,2,nan,nan,nan,nan,nan,nan,nan,nan,nan,nan,nan,nan,0.0,nan,nan,nan,nan,nan,nan,nan,nan,nan,nan,nan,nan,nan,nan,nan,nan,nan,nan,240.3771596160077,388.68503475910984,nan,389.3904782458849,nan,nan,nan,nan
1,94,1,1,1.0,1.0,0.46469120486290194,1,0.0,0.0,1.0,0.4420495100632913,0.1166310720160219,0.3254184380472694,0.5586805820793131,0.1166310720160219,0.39882134858635254,6,3,0,8,4,1,1.0,1.0,1.0,1.0,1.0,1.0,1.0,0.0,1.0,1.0,0.0,0.0,3.0,6.0,8.0,0.0,8.0,2.0,4.0,3.0,1.0,2.0,6.0,5.0,4.0,2.7715260260156356,0.98072282562498,1.8686594244209118,5.4675923602771945,4.907880902086617,4.1887242100492585,240.3771596160077,389.701816472254,390.5102381479228,390.1665076771169,397.04439970941166,398.0406369883567,391.53537322726334,397.03606744046556
1,95,1,1,1.0,1.0,0.29714063988649286,0,0.0,0.0,0.0,0.44230391112845546,0.1159985421604196,0.32630536896803586,0.5583024532888751,0.1159985421604196,0.48909177717481117,3,7,4,6,0,5,nan,nan,nan,nan,nan,nan,nan,nan,nan,nan,nan,nan,0.0,nan,nan,nan,nan,nan,nan,nan,nan,nan,nan,nan,nan,nan,nan,nan,nan,nan,nan,240.3771596160077,398.2612533812644,nan,398.5583940211509,nan,nan,nan,nan
1,96,1,1,1.0,1.0,0.4559463993355166,0,0.0,0.0,0.0,0.44069098589243366,0.11635158102022954,0.32433940487220414,0.5570425669126632,0.11635158102022954,0.40592608136163716,4,2,6,0,5,8,nan,nan,nan,nan,nan,nan,nan,nan,nan,nan,nan,nan,0.0,nan,nan,nan,nan,nan,nan,nan,nan,nan,nan,nan,nan,nan,nan,nan,nan,nan,nan,240.3771596160077,399.28638332884293,nan,399.74232972817845,nan,nan,nan,nan
1,97,1,1,1.0,1.0,0.5591284331458155,0,0.0,0.0,0.0,0.4408586277984016,0.11572144969731404,0.32513717810108755,0.5565800774957157,0.11572144969731404,0.43740515745594166,7,1,3,2,6,0,nan,nan,nan,nan,nan,nan,nan,nan,nan,nan,nan,nan,0.0,nan,nan,nan,nan,nan,nan,nan,nan,nan,nan,nan,nan,nan,nan,nan,nan,nan,nan,240.3771596160077,400.3031830031541,nan,400.86231143629993,nan,nan,nan,nan
1,98,1,1,1.0,1.0,0.7023133977781981,0,0.0,1.0,0.0,0.4421441691608735,0.1157423118328786,0.3264018573279949,0.5578864809937522,0.1157423118328786,0.5724627434198434,2,3,5,8,1,6,nan,nan,nan,nan,nan,nan,nan,nan,nan,nan,nan,nan,0.0,nan,nan,nan,nan,nan,nan,nan,nan,nan,nan,nan,nan,nan,nan,nan,nan,nan,nan,240.3771596160077,401.31997840097756,nan,402.02229179875576,nan,nan,nan,nan
1,99,1,1,1.0,1.0,0.789490039809607,1,0.0,0.0,1.0,0.44494168774815657,0.11820422513603693,0.32673746261211967,0.5631459128841935,0.11820422513603693,0.6836439569112068,1,6,0,4,5,8,1.0,1.0,1.0,1.0,1.0,1.0,0.0,1.0,1.0,0.0,0.0,0.0,2.0,8.0,6.0,0.0,5.0,7.0,2.0,3.0,2.0,1.0,4.0,5.0,6.0,3.5858292697521392,2.6261421018862166,1.4411786172131542,4.328511378815165,5.440344991162419,6.383844304655213,240.3771596160077,402.33677607961,403.14518749172566,403.1262661194196,410.5961386921117,411.596802399843,404.1703311240126,410.58780699333875
1,100,1,1,1.0,1.0,0.7051153391657863,0,0.0,0.0,0.0,0.4486070957488103,0.12277244426879438,0.3258346514800159,0.5713795400176047,0.12277244426879438,0.7323062589178638,7,2,1,3,4,0,nan,nan,nan,nan,nan,nan,nan,nan,nan,nan,nan,nan,0.0,nan,nan,nan,nan,nan,nan,nan,nan,nan,nan,nan,nan,nan,nan,nan,nan,nan,nan,240.3771596160077,411.8130054784415,nan,412.51812081760727,nan,nan,nan,nan
1,101,1,1,1.0,1.0,0.5522954936313909,0,0.0,0.0,0.0,0.45130718252162055,0.12489881180879826,0.3264083707128223,0.5762059943304189,0.12489881180879826,0.6823002908689281,5,6,8,4,2,3,nan,nan,nan,nan,nan,nan,nan,nan,nan,nan,nan,nan,0.0,nan,nan,nan,nan,nan,nan,nan,nan,nan,nan,nan,nan,nan,nan,nan,nan,nan,nan,240.3771596160077,412.8297903276398,nan,413.3820858212712,nan,nan,nan,nan
1,102,1,1,1.0,1.0,0.49548690146184526,0,0.0,1.0,0.0,0.4523591440956807,0.12466894311898277,0.3276902009766979,0.5770280872146635,0.12466894311898277,0.5842992447530074,0,1,2,5,8,7,nan,nan,nan,nan,nan,nan,nan,nan,nan,nan,nan,nan,0.0,nan,nan,nan,nan,nan,nan,nan,nan,nan,nan,nan,nan,nan,nan,nan,nan,nan,nan,240.3771596160077,413.8465902870521,nan,414.34207718851394,nan,nan,nan,nan
1,103,1,1,1.0,1.0,0.45467543325503357,1,0.0,0.0,1.0,0.452803760151002,0.12410113868775216,0.3287026214632498,0.5769048988387542,0.12410113868775216,0.5008192761160899,3,8,0,4,7,6,1.0,1.0,1.0,1.0,1.0,1.0,0.0,1.0,1.0,0.0,0.0,0.0,2.0,6.0,8.0,0.0,3.0,2.0,4.0,1.0,2.0,3.0,6.0,4.0,5.0,1.219436373008648,2.5071813290414866,3.619203961250605,6.777595188468695,4.777917063882342,5.537422225315822,240.3771596160077,414.86338596997666,415.67180023310357,415.3180614032317,423.5144744164718,424.5133978870872,416.69694814184913,423.5061373008357
1,104,0,0,0.0,1.0,0.4985765065648593,0,0.0,0.0,0.0,0.45282285885614515,0.1234664893766955,0.32935636947944963,0.5762893482328406,0.1234664893766955,0.4829129470939127,1,5,7,6,2,0,nan,nan,nan,nan,nan,nan,nan,nan,nan,nan,nan,nan,0.0,nan,nan,nan,nan,nan,nan,nan,nan,nan,nan,nan,nan,nan,nan,nan,nan,nan,nan,240.3771596160077,424.7313263777178,nan,425.22990288428264,nan,nan,nan,nan
1,105,1,1,1.0,1.0,0.49775257383589633,0,0.0,0.0,0.0,0.4532850169138089,0.12292650768059751,0.3303585092332114,0.5762115245944064,0.12292650768059751,0.4836681712185964,4,6,3,7,0,8,nan,nan,nan,nan,nan,nan,nan,nan,nan,nan,nan,nan,0.0,nan,nan,nan,nan,nan,nan,nan,nan,nan,nan,nan,nan,nan,nan,nan,nan,nan,nan,240.3771596160077,425.7481203500647,nan,426.2458729239006,nan,nan,nan,nan
1,106,1,1,1.0,1.0,0.47290886446717195,0,0.0,0.0,0.0,0.4537296924830298,0.12239033020409272,0.33133936227893707,0.5761200226871225,0.12239033020409272,0.48974598162264255,8,0,4,2,6,5,nan,nan,nan,nan,nan,nan,nan,nan,nan,nan,nan,nan,0.0,nan,nan,nan,nan,nan,nan,nan,nan,nan,nan,nan,nan,nan,nan,nan,nan,nan,nan,240.3771596160077,426.7649191690725,nan,427.2378280335397,nan,nan,nan,nan
1,107,1,1,1.0,1.0,0.5361002267163713,0,0.0,0.0,0.0,0.453919585274952,0.1217977341071878,0.3321218511677642,0.5757173193821399,0.1217977341071878,0.5022538883398132,4,1,2,0,3,8,nan,nan,nan,nan,nan,nan,nan,nan,nan,nan,nan,nan,0.0,nan,nan,nan,nan,nan,nan,nan,nan,nan,nan,nan,nan,nan,nan,nan,nan,nan,nan,240.3771596160077,427.7817139966937,nan,428.3178142234101,nan,nan,nan,nan
1,108,1,1,1.0,1.0,0.4712903641629964,0,0.0,0.0,0.0,0.4547252778381032,0.121469391645823,0.3332558861922802,0.5761946694839262,0.121469391645823,0.4934331517821799,6,7,3,2,5,0,nan,nan,nan,nan,nan,nan,nan,nan,nan,nan,nan,nan,0.0,nan,nan,nan,nan,nan,nan,nan,nan,nan,nan,nan,nan,nan,nan,nan,nan,nan,nan,240.3771596160077,428.7985111051239,nan,429.2698014692869,nan,nan,nan,nan
1,109,1,1,1.0,1.0,0.4864775251480751,0,0.0,0.0,0.0,0.45488610391892736,0.12088920848033861,0.33399689543858874,0.5757753123992659,0.12088920848033861,0.4979560386758142,1,4,5,6,2,3,nan,nan,nan,nan,nan,nan,nan,nan,nan,nan,nan,nan,0.0,nan,nan,nan,nan,nan,nan,nan,nan,nan,nan,nan,nan,nan,nan,nan,nan,nan,nan,240.3771596160077,429.8153084986552,nan,430.3017860238033,nan,nan,nan,nan
1,110,1,1,1.0,1.0,0.5096705181640573,0,0.0,0.0,0.0,0.45518986758459223,0.12034609931243205,0.33484376827216017,0.5755359668970242,0.12034609931243205,0.4891461358250429,2,5,0,1,4,8,nan,nan,nan,nan,nan,nan,nan,nan,nan,nan,nan,nan,0.0,nan,nan,nan,nan,nan,nan,nan,nan,nan,nan,nan,nan,nan,nan,nan,nan,nan,nan,240.3771596160077,430.8321093133418,nan,431.34177983150585,nan,nan,nan,nan
1,111,1,1,nan,nan,nan,0,0.0,0.0,0.0,0.45570873092344427,0.11988847872386776,0.3358202521995765,0.5755972096473121,0.11988847872386776,0.4980740216560662,6,7,4,3,2,5,nan,nan,nan,nan,nan,nan,nan,nan,nan,nan,nan,nan,0.0,nan,nan,nan,nan,nan,nan,nan,nan,nan,nan,nan,nan,nan,nan,nan,nan,nan,nan,240.3771596160077,431.84890357078984,nan,nan,nan,nan,nan,nan
1,112,1,1,1.0,1.0,0.764015694061527,0,0.0,0.0,0.0,0.45570873092344427,0.11988847872386776,0.3358202521995765,0.5755972096473121,0.11988847872386776,0.6368431061127922,2,3,6,7,1,8,nan,nan,nan,nan,nan,nan,nan,nan,nan,nan,nan,nan,0.0,nan,nan,nan,nan,nan,nan,nan,nan,nan,nan,nan,nan,nan,nan,nan,nan,nan,nan,240.3771596160077,432.8656975431368,nan,433.6297132371983,nan,nan,nan,nan
1,113,1,1,nan,nan,nan,0,0.0,0.0,0.0,0.45861728717946393,0.12298747539772983,0.3356298117817341,0.5816047625771937,0.12298747539772983,0.764015694061527,0,6,8,4,3,2,nan,nan,nan,nan,nan,nan,nan,nan,nan,nan,nan,nan,0.0,nan,nan,nan,nan,nan,nan,nan,nan,nan,nan,nan,nan,nan,nan,nan,nan,nan,nan,240.3771596160077,433.882461580215,nan,nan,nan,nan,nan,nan
1,114,1,1,nan,nan,nan,0,0.0,0.0,0.0,0.45861728717946393,0.12298747539772983,0.3356298117817341,0.5816047625771937,0.12298747539772983,0.764015694061527,3,2,4,1,8,6,nan,nan,nan,nan,nan,nan,nan,nan,nan,nan,nan,nan,0.0,nan,nan,nan,nan,nan,nan,nan,nan,nan,nan,nan,nan,nan,nan,nan,nan,nan,nan,240.3771596160077,434.8992934705748,nan,nan,nan,nan,nan,nan
1,115,1,1,1.0,1.0,0.08161980038858019,0,0.0,0.0,0.0,0.45861728717946393,0.12298747539772983,0.3356298117817341,0.5816047625771937,0.12298747539772983,0.08161980038858019,0,1,6,5,7,2,nan,nan,nan,nan,nan,nan,nan,nan,nan,nan,nan,nan,0.0,nan,nan,nan,nan,nan,nan,nan,nan,nan,nan,nan,nan,nan,nan,nan,nan,nan,nan,240.3771596160077,435.9160937150591,nan,435.9977135154477,nan,nan,nan,nan
1,116,1,1,1.0,1.0,0.5607677456282545,0,0.0,0.0,0.0,0.4550939461814183,0.12767314574466568,0.3274208004367526,0.582767091926084,0.12767314574466568,0.32119377300841734,6,2,7,1,4,8,nan,nan,nan,nan,nan,nan,nan,nan,nan,nan,nan,nan,0.0,nan,nan,nan,nan,nan,nan,nan,nan,nan,nan,nan,nan,nan,nan,nan,nan,nan,nan,240.3771596160077,436.9328882576083,nan,437.49365600323654,nan,nan,nan,nan
1,117,1,1,1.0,1.0,0.3759536521974951,0,0.0,0.0,0.0,0.45607240728740756,0.12748310685585426,0.3285893004315533,0.5835555141432618,0.12748310685585426,0.33944706607144326,2,6,5,8,0,4,nan,nan,nan,nan,nan,nan,nan,nan,nan,nan,nan,nan,0.0,nan,nan,nan,nan,nan,nan,nan,nan,nan,nan,nan,nan,nan,nan,nan,nan,nan,nan,240.3771596160077,437.9496885021217,nan,438.3256421543192,nan,nan,nan,nan
1,118,1,1,1.0,1.0,0.3511321804544423,0,0.0,0.0,0.0,0.45533737283704134,0.1271266766374106,0.3282106961996307,0.582464049474452,0.1271266766374106,0.4292845260933973,4,2,8,6,3,7,nan,nan,nan,nan,nan,nan,nan,nan,nan,nan,nan,nan,0.0,nan,nan,nan,nan,nan,nan,nan,nan,nan,nan,nan,nan,nan,nan,nan,nan,nan,nan,240.3771596160077,438.9664907423139,nan,439.31762292276835,nan,nan,nan,nan
1,119,1,1,1.0,1.0,0.3823275842296425,0,0.0,0.0,0.0,0.4543900529062905,0.12693340863213542,0.32745664427415505,0.581323461538426,0.12693340863213542,0.36980447229386,2,0,1,7,8,5,nan,nan,nan,nan,nan,nan,nan,nan,nan,nan,nan,nan,0.0,nan,nan,nan,nan,nan,nan,nan,nan,nan,nan,nan,nan,nan,nan,nan,nan,nan,nan,240.3771596160077,439.98328357425635,nan,440.365611158486,nan,nan,nan,nan
1,120,1,1,1.0,1.0,0.6695140336523764,0,0.0,0.0,0.0,0.45374084147677113,0.12654366267730655,0.3271971787994646,0.5802845041540776,0.12654366267730655,0.4676579327788204,1,7,3,4,0,2,nan,nan,nan,nan,nan,nan,nan,nan,nan,nan,nan,nan,0.0,nan,nan,nan,nan,nan,nan,nan,nan,nan,nan,nan,nan,nan,nan,nan,nan,nan,nan,240.3771596160077,441.0000803975854,nan,441.6695944312378,nan,nan,nan,nan
1,121,1,1,1.0,1.0,0.38869068256462924,0,0.0,0.0,0.0,0.4556673878354819,0.1276021479465576,0.3280652398889243,0.5832695357820394,0.1276021479465576,0.48017743348221603,5,1,4,0,6,8,nan,nan,nan,nan,nan,nan,nan,nan,nan,nan,nan,nan,0.0,nan,nan,nan,nan,nan,nan,nan,nan,nan,nan,nan,nan,nan,nan,nan,nan,nan,nan,240.3771596160077,442.016878646391,nan,442.4055693289556,nan,nan,nan,nan
1,122,1,1,1.0,1.0,0.2598709419253282,0,0.0,0.0,0.0,0.4550746736295451,0.12719105185690607,0.3278836217726391,0.5822657254864512,0.12719105185690607,0.4393585527141113,6,0,5,4,8,2,nan,nan,nan,nan,nan,nan,nan,nan,nan,nan,nan,nan,0.0,nan,nan,nan,nan,nan,nan,nan,nan,nan,nan,nan,nan,nan,nan,nan,nan,nan,nan,240.3771596160077,443.0336800312798,nan,443.29355097320513,nan,nan,nan,nan
1,123,1,1,1.0,1.0,0.11472364896326326,0,1.0,0.0,0.0,0.4533623601935432,0.1279334716735642,0.325428888519979,0.5812958318671074,0.1279334716735642,0.2544284244844069,4,6,1,3,2,7,nan,nan,nan,nan,nan,nan,nan,nan,nan,nan,nan,nan,0.0,nan,nan,nan,nan,nan,nan,nan,nan,nan,nan,nan,nan,nan,nan,nan,nan,nan,nan,240.3771596160077,444.05881254476844,nan,444.1735361937317,nan,nan,nan,nan
1,124,1,1,1.0,1.0,0.065972776588751,1,0.0,0.0,1.0,0.4504176757480625,0.13119895063490347,0.3192187251131591,0.581616626382966,0.13119895063490347,0.14685578915911415,7,4,6,0,1,8,1.0,1.0,1.0,1.0,1.0,1.0,1.0,0.0,0.0,1.0,0.0,0.0,2.0,7.0,6.0,4.0,0.0,8.0,3.0,1.0,3.0,4.0,2.0,5.0,6.0,0.9684160079050343,3.7585295566823334,4.813691994000692,2.389283971133409,5.63788670671056,6.836926041083643,240.3771596160077,445.0756179210148,445.88404045195784,445.14159069760353,453.7683611550892,454.7768852948793,446.89249417258543,453.76003059669165
1,125,1,1,1.0,1.0,0.5237891325377859,0,0.0,0.0,0.0,0.447103495582896,0.13538061591865605,0.31172287966423995,0.5824841115015521,0.13538061591865605,0.23482851936326674,8,0,2,5,3,6,nan,nan,nan,nan,nan,nan,nan,nan,nan,nan,nan,nan,0.0,nan,nan,nan,nan,nan,nan,nan,nan,nan,nan,nan,nan,nan,nan,nan,nan,nan,nan,240.3771596160077,454.9935553637042,nan,455.517344496242,nan,nan,nan,nan
1,126,0,0,1.0,0.0,0.3069582685129717,0,0.0,0.0,0.0,0.4477589283773823,0.13498553641892105,0.3127733919584612,0.5827444647963034,0.13498553641892105,0.2989067258798362,3,1,5,2,4,0,nan,nan,nan,nan,nan,nan,nan,nan,nan,nan,nan,nan,0.0,nan,nan,nan,nan,nan,nan,nan,nan,nan,nan,nan,nan,nan,nan,nan,nan,nan,nan,240.3771596160077,456.0103638760629,nan,456.3173221445759,nan,nan,nan,nan
1,127,1,1,1.0,1.0,0.23417450496344827,0,0.0,0.0,0.0,0.44656570244632793,0.13503059724729266,0.31153510519903527,0.5815962996936206,0.13503059724729266,0.35497396867140196,5,7,0,1,8,4,nan,nan,nan,nan,nan,nan,nan,nan,nan,nan,nan,nan,0.0,nan,nan,nan,nan,nan,nan,nan,nan,nan,nan,nan,nan,nan,nan,nan,nan,nan,nan,240.3771596160077,457.0271495805646,nan,457.26132408552803,nan,nan,nan,nan
1,128,1,1,1.0,1.0,0.2573526728374418,0,0.0,0.0,0.0,0.4447809024674802,0.135852610560393,0.3089282919070872,0.5806335130278732,0.135852610560393,0.2661618154379539,8,0,6,4,5,3,nan,nan,nan,nan,nan,nan,nan,nan,nan,nan,nan,nan,0.0,nan,nan,nan,nan,nan,nan,nan,nan,nan,nan,nan,nan,nan,nan,nan,nan,nan,nan,240.3771596160077,458.043936995673,nan,458.30128966851044,nan,nan,nan,nan
1,129,1,1,1.0,1.0,0.328553003113484,0,1.0,0.0,0.0,0.44321900055389657,0.13635408808455635,0.3068649124693402,0.5795730886384529,0.13635408808455635,0.2733600603047914,5,7,4,2,1,8,nan,nan,nan,nan,nan,nan,nan,nan,nan,nan,nan,nan,0.0,nan,nan,nan,nan,nan,nan,nan,nan,nan,nan,nan,nan,nan,nan,nan,nan,nan,nan,240.3771596160077,459.0607398060383,nan,459.3892928091518,nan,nan,nan,nan
1,130,1,1,1.0,1.0,0.3037266846804414,1,0.0,0.0,1.0,0.4422713476824882,0.13618570536665422,0.306085642315834,0.5784570530491424,0.13618570536665422,0.29654412021045573,6,0,5,8,2,7,1.0,1.0,1.0,1.0,1.0,1.0,1.0,0.0,0.0,0.0,0.0,0.0,1.0,6.0,5.0,3.0,0.0,8.0,2.0,2.0,1.0,3.0,4.0,5.0,6.0,1.699786005570786,0.9495949900301639,2.5945717944705393,4.266817635478219,5.403056476730853,6.146656030614395,240.3771596160077,460.0775343485875,460.88596315166797,460.38126103326795,468.0868741532613,469.09743674247875,461.90275541343726,468.07853276116657
1,131,1,1,1.0,1.0,0.27669228363083676,0,0.0,0.0,0.0,0.44113573569066816,0.13620047298241922,0.30493526270824894,0.5773362086730873,0.13620047298241922,0.3029906571415874,5,2,8,7,4,1,nan,nan,nan,nan,nan,nan,nan,nan,nan,nan,nan,nan,0.0,nan,nan,nan,nan,nan,nan,nan,nan,nan,nan,nan,nan,nan,nan,nan,nan,nan,nan,240.3771596160077,469.32042258340516,nan,469.597114867036,nan,nan,nan,nan
1,132,1,1,1.0,1.0,0.4198706910246983,0,0.0,0.0,0.0,0.43979879705603536,0.13644711285748198,0.3033516841985534,0.5762459099135173,0.13644711285748198,0.3334298864453255,7,3,2,0,5,6,nan,nan,nan,nan,nan,nan,nan,nan,nan,nan,nan,nan,0.0,nan,nan,nan,nan,nan,nan,nan,nan,nan,nan,nan,nan,nan,nan,nan,nan,nan,nan,240.3771596160077,470.33719317772193,nan,470.7570638687466,nan,nan,nan,nan
1,133,1,1,1.0,1.0,0.41905673674773425,0,0.0,0.0,0.0,0.4396380865235246,0.1359074971059829,0.3037305894175417,0.5755455836295075,0.1359074971059829,0.3718732371344231,0,1,3,5,7,2,nan,nan,nan,nan,nan,nan,nan,nan,nan,nan,nan,nan,0.0,nan,nan,nan,nan,nan,nan,nan,nan,nan,nan,nan,nan,nan,nan,nan,nan,nan,nan,240.3771596160077,471.3539891457476,nan,471.77304588249535,nan,nan,nan,nan
1,134,1,1,1.0,1.0,0.3382551671238616,0,0.0,0.0,0.0,0.4394734357253183,0.13537519201552126,0.304098243709797,0.5748486277408396,0.13537519201552126,0.3923941982987647,1,7,5,6,4,0,nan,nan,nan,nan,nan,nan,nan,nan,nan,nan,nan,nan,0.0,nan,nan,nan,nan,nan,nan,nan,nan,nan,nan,nan,nan,nan,nan,nan,nan,nan,nan,240.3771596160077,472.3707836882968,nan,472.70903885542066,nan,nan,nan,nan
1,135,1,1,1.0,1.0,0.20944768568733707,0,0.0,0.0,0.0,0.4386701161332432,0.1351357093882582,0.303534406744985,0.5738058255215014,0.1351357093882582,0.3222531965196443,4,5,3,2,7,8,nan,nan,nan,nan,nan,nan,nan,nan,nan,nan,nan,nan,0.0,nan,nan,nan,nan,nan,nan,nan,nan,nan,nan,nan,nan,nan,nan,nan,nan,nan,nan,240.3771596160077,473.3875796563225,nan,473.5970273420098,nan,nan,nan,nan
1,136,0,0,1.0,0.0,0.09659712939173914,0,0.0,0.0,0.0,0.4368652151061101,0.13611882120506918,0.3007463939010409,0.5729840363111793,0.13611882120506918,0.2147666607343126,0,1,5,3,4,2,nan,nan,nan,nan,nan,nan,nan,nan,nan,nan,nan,nan,0.0,nan,nan,nan,nan,nan,nan,nan,nan,nan,nan,nan,nan,nan,nan,nan,nan,nan,nan,240.3771596160077,474.4044275121705,nan,474.50102464156225,nan,nan,nan,nan
1,137,1,1,1.0,1.0,0.2718065622902941,0,0.0,0.0,0.0,0.4342068706864666,0.1388562704838508,0.2953506002026158,0.5730631411703173,0.1388562704838508,0.1926171257897901,4,0,8,1,6,7,nan,nan,nan,nan,nan,nan,nan,nan,nan,nan,nan,nan,0.0,nan,nan,nan,nan,nan,nan,nan,nan,nan,nan,nan,nan,nan,nan,nan,nan,nan,nan,240.3771596160077,475.4211772943381,nan,475.6929838566284,nan,nan,nan,nan
1,138,1,1,1.0,1.0,0.3829987045028247,0,0.0,0.0,0.0,0.4329479535671164,0.13904841565993303,0.2938995379071834,0.5719963692270494,0.13904841565993303,0.2504674653949526,2,3,1,7,4,8,nan,nan,nan,nan,nan,nan,nan,nan,nan,nan,nan,nan,0.0,nan,nan,nan,nan,nan,nan,nan,nan,nan,nan,nan,nan,nan,nan,nan,nan,nan,nan,240.3771596160077,476.4379778239527,nan,476.8209765284555,nan,nan,nan,nan
1,139,1,1,1.0,1.0,0.37417036533588544,0,0.0,0.0,0.0,0.43256372857431413,0.13858130966538584,0.2939824189089283,0.5711450382397,0.13858130966538584,0.34299187737633474,3,4,5,0,8,2,nan,nan,nan,nan,nan,nan,nan,nan,nan,nan,nan,nan,0.0,nan,nan,nan,nan,nan,nan,nan,nan,nan,nan,nan,nan,nan,nan,nan,nan,nan,nan,240.3771596160077,477.45477094099624,nan,477.8289413063321,nan,nan,nan,nan
1,140,1,1,1.0,1.0,0.34936856536660343,0,0.0,0.0,0.0,0.4321179777098987,0.13814488125696758,0.2939730964529311,0.5702628589668662,0.13814488125696758,0.3688458784017712,8,6,3,7,2,1,nan,nan,nan,nan,nan,nan,nan,nan,nan,nan,nan,nan,0.0,nan,nan,nan,nan,nan,nan,nan,nan,nan,nan,nan,nan,nan,nan,nan,nan,nan,nan,240.3771596160077,478.47156690902193,nan,478.82093547438853,nan,nan,nan,nan
1,141,1,1,1.0,1.0,0.4045398407324683,0,0.0,0.0,0.0,0.43149108822244947,0.13780752571588117,0.2936835625065683,0.5692986139383307,0.13780752571588117,0.3760262571449857,5,1,6,4,8,0,nan,nan,nan,nan,nan,nan,nan,nan,nan,nan,nan,nan,0.0,nan,nan,nan,nan,nan,nan,nan,nan,nan,nan,nan,nan,nan,nan,nan,nan,nan,nan,240.3771596160077,479.4883685790119,nan,479.89290841974434,nan,nan,nan,nan
1,142,1,1,1.0,1.0,0.39572632662020624,0,0.0,0.0,0.0,0.43128844726387816,0.1373082141718089,0.2939802330920692,0.5685966614356871,0.1373082141718089,0.38321157757309265,3,8,7,0,2,4,nan,nan,nan,nan,nan,nan,nan,nan,nan,nan,nan,nan,0.0,nan,nan,nan,nan,nan,nan,nan,nan,nan,nan,nan,nan,nan,nan,nan,nan,nan,nan,240.3771596160077,480.50517424038844,nan,480.90090056700865,nan,nan,nan,nan
1,143,1,1,1.0,1.0,0.458914837858174,0,0.0,0.0,0.0,0.4310230583038508,0.13682914506742622,0.2941939132364246,0.567852203371277,0.13682914506742622,0.4197270017369495,1,0,3,8,4,5,nan,nan,nan,nan,nan,nan,nan,nan,nan,nan,nan,nan,0.0,nan,nan,nan,nan,nan,nan,nan,nan,nan,nan,nan,nan,nan,nan,nan,nan,nan,nan,240.3771596160077,481.5219536727527,nan,481.9808685106109,nan,nan,nan,nan
1,144,1,1,1.0,1.0,0.5701035589445382,0,0.0,0.0,0.0,0.43122966407832725,0.13634240640029904,0.2948872576780282,0.5675720704786262,0.13634240640029904,0.4749149078076395,0,2,6,7,5,8,nan,nan,nan,nan,nan,nan,nan,nan,nan,nan,nan,nan,0.0,nan,nan,nan,nan,nan,nan,nan,nan,nan,nan,nan,nan,nan,nan,nan,nan,nan,nan,240.3771596160077,482.53876389565994,nan,483.1088674546045,nan,nan,nan,nan
1,145,1,1,1.0,1.0,0.48127848128206097,0,0.0,0.0,0.0,0.43225079565822583,0.13635736840419393,0.2958934272540319,0.5686081640624198,0.13635736840419393,0.5034322926949244,3,4,0,8,6,7,nan,nan,nan,nan,nan,nan,nan,nan,nan,nan,nan,nan,0.0,nan,nan,nan,nan,nan,nan,nan,nan,nan,nan,nan,nan,nan,nan,nan,nan,nan,nan,240.3771596160077,483.5555572978046,nan,484.0368357790867,nan,nan,nan,nan
1,146,1,1,1.0,1.0,0.5444635713356547,0,0.0,0.0,0.0,0.432608661976648,0.13592288790318954,0.2966857740734584,0.5685315498798376,0.13592288790318954,0.531948537187418,5,7,6,2,8,4,nan,nan,nan,nan,nan,nan,nan,nan,nan,nan,nan,nan,0.0,nan,nan,nan,nan,nan,nan,nan,nan,nan,nan,nan,nan,nan,nan,nan,nan,nan,nan,240.3771596160077,484.5723666654376,nan,485.11683023677324,nan,nan,nan,nan
1,147,1,1,1.0,1.0,0.5676608407811727,0,0.0,0.0,0.0,0.4334192047980901,0.13576141068273348,0.29765779411535664,0.5691806154808235,0.13576141068273348,0.5311342977996295,6,8,5,1,0,3,nan,nan,nan,nan,nan,nan,nan,nan,nan,nan,nan,nan,0.0,nan,nan,nan,nan,nan,nan,nan,nan,nan,nan,nan,nan,nan,nan,nan,nan,nan,nan,240.3771596160077,485.589151514665,nan,486.15681235544616,nan,nan,nan,nan
1,148,1,1,1.0,1.0,0.6228221377532464,0,0.0,1.0,0.0,0.434384971963436,0.1357471024025382,0.2986378695608978,0.5701320743659742,0.1357471024025382,0.5783155166233579,5,2,1,7,6,4,nan,nan,nan,nan,nan,nan,nan,nan,nan,nan,nan,nan,0.0,nan,nan,nan,nan,nan,nan,nan,nan,nan,nan,nan,nan,nan,nan,nan,nan,nan,nan,240.3771596160077,486.60595689091133,nan,487.2287790286646,nan,nan,nan,nan
1,149,1,1,1.0,1.0,0.5499981753819156,1,0.0,0.0,1.0,0.4357309517190775,0.13618910881894483,0.29954184290013264,0.5719200605380224,0.13618910881894483,0.5801603846387783,4,7,5,0,8,1,1.0,1.0,1.0,1.0,1.0,1.0,0.0,0.0,1.0,0.0,0.0,0.0,1.0,1.0,2.0,5.0,7.0,4.0,0.0,4.0,2.0,1.0,3.0,6.0,5.0,3.546096326550469,1.7851725183718372,1.0972882065107115,2.634305022744229,5.776440257177455,4.5290235285356175,240.3771596160077,487.6227537142404,488.4311679773673,488.1727518896223,495.2737004671071,496.2721846019849,489.45629821004695,495.2653753255727
1,150,1,1,1.0,1.0,0.38607633553328924,0,0.0,0.0,0.0,0.4365413575606579,0.13604365867090676,0.3004976988897512,0.5725850162315647,0.13604365867090676,0.5196322162228171,0,2,7,8,1,5,nan,nan,nan,nan,nan,nan,nan,nan,nan,nan,nan,nan,0.0,nan,nan,nan,nan,nan,nan,nan,nan,nan,nan,nan,nan,nan,nan,nan,nan,nan,nan,240.3771596160077,496.49056069616927,nan,496.87663703170256,nan,nan,nan,nan
1,151,1,1,1.0,1.0,0.28923858352936804,0,0.0,0.0,0.0,0.43618597008159193,0.13562945195951615,0.3005565181220758,0.571815422041108,0.13562945195951615,0.408437698148191,5,3,6,2,8,7,nan,nan,nan,nan,nan,nan,nan,nan,nan,nan,nan,nan,0.0,nan,nan,nan,nan,nan,nan,nan,nan,nan,nan,nan,nan,nan,nan,nan,nan,nan,nan,240.3771596160077,497.5073612257838,nan,497.7965998093132,nan,nan,nan,nan
1,152,1,1,1.0,1.0,0.29642304868320934,0,0.0,0.0,0.0,0.43515836597982815,0.1357079850522447,0.29945038092758347,0.5708663510320728,0.1357079850522447,0.3239126559152889,1,0,4,5,3,8,nan,nan,nan,nan,nan,nan,nan,nan,nan,nan,nan,nan,0.0,nan,nan,nan,nan,nan,nan,nan,nan,nan,nan,nan,nan,nan,nan,nan,nan,nan,nan,240.3771596160077,498.52415491302963,nan,498.82057796171284,nan,nan,nan,nan
1,153,1,1,1.0,1.0,0.33560974441934377,0,0.0,0.0,0.0,0.4341949262763794,0.1357258216074091,0.2984691046689703,0.5699207478837884,0.1357258216074091,0.30709045887730707,8,7,1,3,4,2,nan,nan,nan,nan,nan,nan,nan,nan,nan,nan,nan,nan,0.0,nan,nan,nan,nan,nan,nan,nan,nan,nan,nan,nan,nan,nan,nan,nan,nan,nan,nan,240.3771596160077,499.54094888537657,nan,499.8765586297959,nan,nan,nan,nan
1,154,1,1,1.0,1.0,0.3908009766309988,0,0.0,0.0,0.0,0.4335150284704688,0.1355028391604281,0.2980121893100407,0.5690178676308969,0.1355028391604281,0.340944589911184,2,3,0,1,6,5,nan,nan,nan,nan,nan,nan,nan,nan,nan,nan,nan,nan,0.0,nan,nan,nan,nan,nan,nan,nan,nan,nan,nan,nan,nan,nan,nan,nan,nan,nan,nan,240.3771596160077,500.5577377259615,nan,500.9485387025925,nan,nan,nan,nan
1,155,1,1,1.0,1.0,0.3979862970591057,0,0.0,0.0,0.0,0.4332224664715683,0.13508393660761803,0.2981385298639503,0.5683064030791863,0.13508393660761803,0.37479900603648275,4,6,7,8,3,2,nan,nan,nan,nan,nan,nan,nan,nan,nan,nan,nan,nan,0.0,nan,nan,nan,nan,nan,nan,nan,nan,nan,nan,nan,nan,nan,nan,nan,nan,nan,nan,240.3771596160077,501.57453454929055,nan,501.97252084634965,nan,nan,nan,nan
1,156,1,1,1.0,1.0,0.4131600584660191,0,0.0,0.0,0.0,0.4329827646388305,0.13465483592424582,0.2983279287145847,0.5676376005630763,0.13465483592424582,0.40064911071870785,5,1,6,3,8,4,nan,nan,nan,nan,nan,nan,nan,nan,nan,nan,nan,nan,0.0,nan,nan,nan,nan,nan,nan,nan,nan,nan,nan,nan,nan,nan,nan,nan,nan,nan,nan,240.3771596160077,502.59134448712575,nan,503.0045045455918,nan,nan,nan,nan
1,157,1,1,1.0,1.0,0.5323380758345593,0,0.0,0.0,0.0,0.4328488274349601,0.13420897470284243,0.2986398527321177,0.5670578021378025,0.13420897470284243,0.4478281437865614,4,8,0,6,2,7,nan,nan,nan,nan,nan,nan,nan,nan,nan,nan,nan,nan,0.0,nan,nan,nan,nan,nan,nan,nan,nan,nan,nan,nan,nan,nan,nan,nan,nan,nan,nan,240.3771596160077,503.6081524292531,nan,504.14049050508766,nan,nan,nan,nan
1,158,1,1,1.0,1.0,0.3555415034061298,0,0.0,0.0,0.0,0.4335165405114675,0.13400428011073975,0.29951226040072776,0.5675208206222072,0.13400428011073975,0.4336798792355694,3,4,1,5,0,6,nan,nan,nan,nan,nan,nan,nan,nan,nan,nan,nan,nan,0.0,nan,nan,nan,nan,nan,nan,nan,nan,nan,nan,nan,nan,nan,nan,nan,nan,nan,nan,240.3771596160077,504.6249475420045,nan,504.98048904541065,nan,nan,nan,nan
1,159,1,1,1.0,1.0,0.3707058565923944,0,0.0,0.0,0.0,0.43299670693076525,0.1337075038652276,0.29928920306553763,0.5667042107959929,0.1337075038652276,0.4195284786110278,4,6,7,2,3,5,nan,nan,nan,nan,nan,nan,nan,nan,nan,nan,nan,nan,0.0,nan,nan,nan,nan,nan,nan,nan,nan,nan,nan,nan,nan,nan,nan,nan,nan,nan,nan,240.3771596160077,505.64173752296483,nan,506.0124433795572,nan,nan,nan,nan
1,160,1,1,1.0,1.0,0.40990452643018216,0,0.0,0.0,0.0,0.43258418474309396,0.13335976691458806,0.2992244178285059,0.5659439516576821,0.13335976691458806,0.37871729547623545,6,1,4,3,8,0,nan,nan,nan,nan,nan,nan,nan,nan,nan,nan,nan,nan,0.0,nan,nan,nan,nan,nan,nan,nan,nan,nan,nan,nan,nan,nan,nan,nan,nan,nan,nan,240.3771596160077,506.65853263571626,nan,507.06843716214644,nan,nan,nan,nan
1,161,0,0,0.0,1.0,0.6970792868523858,0,0.0,0.0,0.0,0.4324349764647195,0.13293300462091998,0.29950197184379956,0.5653679810856395,0.13293300462091998,0.49256322329165414,0,6,7,2,3,5,nan,nan,nan,nan,nan,nan,nan,nan,nan,nan,nan,nan,0.0,nan,nan,nan,nan,nan,nan,nan,nan,nan,nan,nan,nan,nan,nan,nan,nan,nan,nan,240.3771596160077,507.6753254676587,nan,508.3724047545111,nan,nan,nan,nan
1,162,1,1,1.0,1.0,0.5922568001551554,0,0.0,0.0,0.0,0.4341646778398023,0.1342030161564543,0.299961661683348,0.5683676939962565,0.1342030161564543,0.5664135378125744,6,8,2,4,5,0,nan,nan,nan,nan,nan,nan,nan,nan,nan,nan,nan,nan,0.0,nan,nan,nan,nan,nan,nan,nan,nan,nan,nan,nan,nan,nan,nan,nan,nan,nan,nan,240.3771596160077,508.6921257121721,nan,509.2843825123273,nan,nan,nan,nan
1,163,1,1,1.0,1.0,0.5274147215241101,0,0.0,0.0,0.0,0.43519125006262926,0.1343679191820092,0.3008233308806201,0.5695591692446385,0.1343679191820092,0.6055836028438838,0,5,1,6,3,4,nan,nan,nan,nan,nan,nan,nan,nan,nan,nan,nan,nan,0.0,nan,nan,nan,nan,nan,nan,nan,nan,nan,nan,nan,nan,nan,nan,nan,nan,nan,nan,240.3771596160077,509.7089678660559,nan,510.23638258758,nan,nan,nan,nan
1,164,1,1,1.0,1.0,0.4626658699125983,0,0.0,0.0,0.0,0.4357862402010904,0.13413714462947401,0.3016490955716164,0.5699233848305645,0.13413714462947401,0.5274457971972879,2,0,6,5,4,3,nan,nan,nan,nan,nan,nan,nan,nan,nan,nan,nan,nan,0.0,nan,nan,nan,nan,nan,nan,nan,nan,nan,nan,nan,nan,nan,nan,nan,nan,nan,nan,240.3771596160077,510.72572335018776,nan,511.18838922010036,nan,nan,nan,nan
1,165,1,1,1.0,1.0,0.42181562836049125,0,0.0,0.0,0.0,0.43595854551975394,0.13372373421078765,0.3022348113089663,0.5696822797305416,0.13372373421078765,0.4706320732657332,7,4,5,6,1,2,nan,nan,nan,nan,nan,nan,nan,nan,nan,nan,nan,nan,0.0,nan,nan,nan,nan,nan,nan,nan,nan,nan,nan,nan,nan,nan,nan,nan,nan,nan,nan,240.3771596160077,511.7425213139213,nan,512.1643369422818,nan,nan,nan,nan
1,166,1,1,1.0,1.0,0.3490116228640545,0,0.0,0.0,0.0,0.4358684632448542,0.1333019305081153,0.30256653273673884,0.5691703937529695,0.1333019305081153,0.41116437371238135,0,1,3,8,5,4,nan,nan,nan,nan,nan,nan,nan,nan,nan,nan,nan,nan,0.0,nan,nan,nan,nan,nan,nan,nan,nan,nan,nan,nan,nan,nan,nan,nan,nan,nan,nan,240.3771596160077,512.7593167117448,nan,513.1083283346088,nan,nan,nan,nan
1,167,1,1,1.0,1.0,0.38818605939741246,0,0.0,0.0,0.0,0.43531873640700103,0.13305782738057204,0.302260909026429,0.5683765637875731,0.13305782738057204,0.3863377702073194,7,2,5,6,1,8,nan,nan,nan,nan,nan,nan,nan,nan,nan,nan,nan,nan,0.0,nan,nan,nan,nan,nan,nan,nan,nan,nan,nan,nan,nan,nan,nan,nan,nan,nan,nan,240.3771596160077,513.7761112542939,nan,514.1642973136913,nan,nan,nan,nan
1,168,1,1,1.0,1.0,0.40337863730383106,0,0.0,0.0,0.0,0.4350223044761231,0.13269107298451352,0.30233123149160956,0.5677133774606367,0.13269107298451352,0.380192106521766,5,8,4,3,7,1,nan,nan,nan,nan,nan,nan,nan,nan,nan,nan,nan,nan,0.0,nan,nan,nan,nan,nan,nan,nan,nan,nan,nan,nan,nan,nan,nan,nan,nan,nan,nan,240.3771596160077,514.7929137795581,nan,515.196292416862,nan,nan,nan,nan
1,169,1,1,1.0,1.0,0.3945625572814606,0,0.0,0.0,0.0,0.4348245315562963,0.13229926961549424,0.3025252619408021,0.5671238011717905,0.13229926961549424,0.395375751327568,4,7,6,5,0,2,nan,nan,nan,nan,nan,nan,nan,nan,nan,nan,nan,nan,0.0,nan,nan,nan,nan,nan,nan,nan,nan,nan,nan,nan,nan,nan,nan,nan,nan,nan,nan,240.3771596160077,515.8097100327141,nan,516.2042725899955,nan,nan,nan,nan
1,170,1,1,1.0,1.0,0.48173492288333364,0,0.0,0.0,0.0,0.4345744571819184,0.13192569046641273,0.30264876671550567,0.5665001476483311,0.13192569046641273,0.4265587058228751,6,3,1,7,8,5,nan,nan,nan,nan,nan,nan,nan,nan,nan,nan,nan,nan,0.0,nan,nan,nan,nan,nan,nan,nan,nan,nan,nan,nan,nan,nan,nan,nan,nan,nan,nan,240.3771596160077,516.826506570942,nan,517.3082414938253,nan,nan,nan,nan
1,171,1,1,1.0,1.0,0.4969229392008856,0,0.0,0.0,0.0,0.4348655711677296,0.13156974437995367,0.30329582678777595,0.5664353155476833,0.13156974437995367,0.45774013978855993,4,5,7,0,6,3,nan,nan,nan,nan,nan,nan,nan,nan,nan,nan,nan,nan,0.0,nan,nan,nan,nan,nan,nan,nan,nan,nan,nan,nan,nan,nan,nan,nan,nan,nan,nan,240.3771596160077,517.8433053899498,nan,518.3402283291507,nan,nan,nan,nan
1,172,1,1,1.0,1.0,0.48810486352886073,0,0.0,0.0,0.0,0.4352462912170128,0.13125501585527388,0.3039912753617389,0.5665013070722866,0.13125501585527388,0.4889209085376933,3,2,8,4,1,7,nan,nan,nan,nan,nan,nan,nan,nan,nan,nan,nan,nan,0.0,nan,nan,nan,nan,nan,nan,nan,nan,nan,nan,nan,nan,nan,nan,nan,nan,nan,nan,240.3771596160077,518.8601036387554,nan,519.3482085022843,nan,nan,nan,nan
1,173,1,1,1.0,1.0,0.35129155017784797,0,0.0,0.0,0.0,0.43556859958476796,0.13091892155385246,0.30464967803091547,0.5664875211386204,0.13091892155385246,0.44543978430253145,1,0,4,2,5,6,nan,nan,nan,nan,nan,nan,nan,nan,nan,nan,nan,nan,0.0,nan,nan,nan,nan,nan,nan,nan,nan,nan,nan,nan,nan,nan,nan,nan,nan,nan,nan,240.3771596160077,519.87689932168,nan,520.2281908718578,nan,nan,nan,nan
1,174,1,1,1.0,1.0,0.2944858089904301,0,0.0,0.0,0.0,0.43505782958836237,0.13068539308337115,0.30437243650499124,0.5657432226717335,0.13068539308337115,0.37796074089904624,4,8,0,3,1,7,nan,nan,nan,nan,nan,nan,nan,nan,nan,nan,nan,nan,0.0,nan,nan,nan,nan,nan,nan,nan,nan,nan,nan,nan,nan,nan,nan,nan,nan,nan,nan,240.3771596160077,520.893693579128,nan,521.1881793881184,nan,nan,nan,nan
1,175,1,1,1.0,1.0,0.27765848019043915,0,0.0,0.0,0.0,0.43421101018717,0.1307444469585909,0.3034665632285791,0.5649554571457609,0.1307444469585909,0.3078119464529057,5,3,6,0,2,4,nan,nan,nan,nan,nan,nan,nan,nan,nan,nan,nan,nan,0.0,nan,nan,nan,nan,nan,nan,nan,nan,nan,nan,nan,nan,nan,nan,nan,nan,nan,nan,240.3771596160077,521.9104955342191,nan,522.1881540144095,nan,nan,nan,nan
1,176,0,0,0.0,1.0,0.5968477303977124,0,0.0,0.0,0.0,0.4332735698877884,0.13091077237647047,0.30236279751131795,0.564184342264259,0.13091077237647047,0.3896640065261939,7,1,4,5,3,2,nan,nan,nan,nan,nan,nan,nan,nan,nan,nan,nan,nan,0.0,nan,nan,nan,nan,nan,nan,nan,nan,nan,nan,nan,nan,nan,nan,nan,nan,nan,nan,240.3771596160077,522.9272940681258,nan,523.5241417985235,nan,nan,nan,nan
1,177,1,1,1.0,1.0,0.4120276499306783,0,0.0,0.0,0.0,0.43424722560510937,0.13112565550274258,0.3031215701023668,0.565372881107852,0.13112565550274258,0.4288446201729433,2,8,6,0,5,7,nan,nan,nan,nan,nan,nan,nan,nan,nan,nan,nan,nan,0.0,nan,nan,nan,nan,nan,nan,nan,nan,nan,nan,nan,nan,nan,nan,nan,nan,nan,nan,240.3771596160077,523.9440897510794,nan,524.3561174010101,nan,nan,nan,nan
1,178,1,1,1.0,1.0,0.3312152465514373,0,0.0,0.0,0.0,0.4341157488259707,0.13074824024740245,0.30336750857856826,0.5648639890733731,0.13074824024740245,0.44669687562660937,8,4,3,1,0,2,nan,nan,nan,nan,nan,nan,nan,nan,nan,nan,nan,nan,0.0,nan,nan,nan,nan,nan,nan,nan,nan,nan,nan,nan,nan,nan,nan,nan,nan,nan,nan,240.3771596160077,524.9608894253906,nan,525.2921046719421,nan,nan,nan,nan
1,179,1,1,1.0,1.0,0.44239256373839453,0,0.0,0.0,0.0,0.43351045175376757,0.13060039008572777,0.3029100616680398,0.5641108418394953,0.13060039008572777,0.39521182007350336,5,6,1,2,3,4,nan,nan,nan,nan,nan,nan,nan,nan,nan,nan,nan,nan,0.0,nan,nan,nan,nan,nan,nan,nan,nan,nan,nan,nan,nan,nan,nan,nan,nan,nan,nan,240.3771596160077,525.977687103994,nan,526.4200796677324,nan,nan,nan,nan
1,180,0,0,0.0,1.0,0.5695977953728288,0,0.0,0.0,0.0,0.4335623939291163,0.13021971877407845,0.3033426751550378,0.5637821127031948,0.13021971877407845,0.44773520188755356,3,1,0,7,2,5,nan,nan,nan,nan,nan,nan,nan,nan,nan,nan,nan,nan,0.0,nan,nan,nan,nan,nan,nan,nan,nan,nan,nan,nan,nan,nan,nan,nan,nan,nan,nan,240.3771596160077,526.9944850677275,nan,527.5640828631003,nan,nan,nan,nan
1,181,1,1,1.0,1.0,0.47277116222539917,0,0.0,0.0,0.0,0.4343532974258821,0.13025188012571712,0.30410141730016493,0.5646051775515992,0.13025188012571712,0.49492050711220753,8,5,4,0,3,6,nan,nan,nan,nan,nan,nan,nan,nan,nan,nan,nan,nan,0.0,nan,nan,nan,nan,nan,nan,nan,nan,nan,nan,nan,nan,nan,nan,nan,nan,nan,nan,240.3771596160077,528.0112838867353,nan,528.4840550489607,nan,nan,nan,nan
1,182,1,1,1.0,1.0,0.4399652408610564,0,0.0,0.0,0.0,0.43457536600853824,0.12990753475626418,0.30466783125227404,0.5644829007648025,0.12990753475626418,0.4941113994864281,6,1,0,4,7,2,nan,nan,nan,nan,nan,nan,nan,nan,nan,nan,nan,nan,0.0,nan,nan,nan,nan,nan,nan,nan,nan,nan,nan,nan,nan,nan,nan,nan,nan,nan,nan,240.3771596160077,529.0280770037789,nan,529.46804224464,nan,nan,nan,nan
1,183,1,1,1.0,1.0,0.39912896914756857,0,0.0,0.0,0.0,0.4346063423007941,0.1295343401025211,0.305072002198273,0.5641406824033152,0.1295343401025211,0.43728845741134137,3,4,2,8,5,0,nan,nan,nan,nan,nan,nan,nan,nan,nan,nan,nan,nan,0.0,nan,nan,nan,nan,nan,nan,nan,nan,nan,nan,nan,nan,nan,nan,nan,nan,nan,nan,240.3771596160077,530.0448732569057,nan,530.4440022260533,nan,nan,nan,nan
1,184,0,0,1.0,0.0,0.35833061538869515,0,0.0,0.0,0.0,0.4344036144542042,0.1291913913098995,0.30521222314430474,0.5635950057641037,0.1291913913098995,0.39914160846577335,1,2,7,5,4,8,nan,nan,nan,nan,nan,nan,nan,nan,nan,nan,nan,nan,0.0,nan,nan,nan,nan,nan,nan,nan,nan,nan,nan,nan,nan,nan,nan,nan,nan,nan,nan,240.3771596160077,531.061670650437,nan,531.4200012658257,nan,nan,nan,nan
1,185,1,1,1.0,1.0,0.2855023765587248,0,0.0,0.0,0.0,0.4339713815049684,0.12895068093366213,0.30502070057130626,0.5629220624386305,0.12895068093366213,0.34765398703166284,7,5,2,6,3,4,nan,nan,nan,nan,nan,nan,nan,nan,nan,nan,nan,nan,0.0,nan,nan,nan,nan,nan,nan,nan,nan,nan,nan,nan,nan,nan,nan,nan,nan,nan,nan,240.3771596160077,532.0784728906292,nan,532.3639752671879,nan,nan,nan,nan
1,186,1,1,1.0,1.0,0.3486740670632571,0,0.0,0.0,0.0,0.43313257356741897,0.12906651936207866,0.3040660542053403,0.5621990929294977,0.12906651936207866,0.33083568633689237,8,2,3,5,0,1,nan,nan,nan,nan,nan,nan,nan,nan,nan,nan,nan,nan,0.0,nan,nan,nan,nan,nan,nan,nan,nan,nan,nan,nan,nan,nan,nan,nan,nan,nan,nan,240.3771596160077,533.0952851092152,nan,533.4439591762784,nan,nan,nan,nan
1,187,0,0,0.0,1.0,0.4918764226604253,0,0.0,0.0,0.0,0.4326580875758226,0.12885817962739068,0.3037999079484319,0.5615162672032132,0.12885817962739068,0.37535095542746905,6,5,1,7,2,3,nan,nan,nan,nan,nan,nan,nan,nan,nan,nan,nan,nan,0.0,nan,nan,nan,nan,nan,nan,nan,nan,nan,nan,nan,nan,nan,nan,nan,nan,nan,nan,240.3771596160077,534.1120662521571,nan,534.6039426748175,nan,nan,nan,nan
1,188,1,1,1.0,1.0,0.3310396263259463,0,0.0,0.0,0.0,0.43298891626344604,0.1285735196376775,0.30441539662576855,0.5615624359011235,0.1285735196376775,0.39053003868320957,3,4,0,8,1,5,nan,nan,nan,nan,nan,nan,nan,nan,nan,nan,nan,nan,0.0,nan,nan,nan,nan,nan,nan,nan,nan,nan,nan,nan,nan,nan,nan,nan,nan,nan,nan,240.3771596160077,535.1288784707722,nan,535.4599180970981,nan,nan,nan,nan
1,189,1,1,0.0,0.0,0.37024542363360524,0,0.0,0.0,0.0,0.4324225313193488,0.12843960441017277,0.30398292690917605,0.5608621357295216,0.12843960441017277,0.3977204908733256,7,0,8,6,5,1,nan,nan,nan,nan,nan,nan,nan,nan,nan,nan,nan,nan,0.0,nan,nan,nan,nan,nan,nan,nan,nan,nan,nan,nan,nan,nan,nan,nan,nan,nan,nan,240.3771596160077,536.145659328613,nan,536.5159047522466,nan,nan,nan,nan
1,190,1,1,1.0,1.0,0.3854360058030579,0,0.0,0.0,0.0,0.43207901138738336,0.12816719894442147,0.3039118124429619,0.5602462103318049,0.12816719894442147,0.36224035192086984,4,1,0,3,2,7,nan,nan,nan,nan,nan,nan,nan,nan,nan,nan,nan,nan,0.0,nan,nan,nan,nan,nan,nan,nan,nan,nan,nan,nan,nan,nan,nan,nan,nan,nan,nan,240.3771596160077,537.1624592880253,nan,537.5478952938283,nan,nan,nan,nan
1,191,1,1,1.0,1.0,0.36861580444383435,0,0.0,0.0,0.0,0.43182273113692005,0.12786110266335607,0.303961628473564,0.5596838338002761,0.12786110266335607,0.3747657446268325,7,3,2,5,8,4,nan,nan,nan,nan,nan,nan,nan,nan,nan,nan,nan,nan,0.0,nan,nan,nan,nan,nan,nan,nan,nan,nan,nan,nan,nan,nan,nan,nan,nan,nan,nan,240.3771596160077,538.1792569666577,nan,538.5478727711015,nan,nan,nan,nan
1,192,1,1,1.0,1.0,0.4078176103939768,0,0.0,0.0,0.0,0.4314773380948813,0.12759638574437376,0.30388095235050755,0.5590737238392551,0.12759638574437376,0.3872898068802897,3,5,8,7,6,0,nan,nan,nan,nan,nan,nan,nan,nan,nan,nan,nan,nan,0.0,nan,nan,nan,nan,nan,nan,nan,nan,nan,nan,nan,nan,nan,nan,nan,nan,nan,nan,240.3771596160077,539.1960523644811,nan,539.6038699748751,nan,nan,nan,nan
1,193,1,1,1.0,1.0,0.41497042967239395,0,0.0,0.0,0.0,0.43134875261824596,0.12726107262169045,0.3040876799965555,0.5586098252399364,0.12726107262169045,0.397134614836735,6,1,7,4,2,8,nan,nan,nan,nan,nan,nan,nan,nan,nan,nan,nan,nan,0.0,nan,nan,nan,nan,nan,nan,nan,nan,nan,nan,nan,nan,nan,nan,nan,nan,nan,nan,240.3771596160077,540.212856315251,nan,540.6278267449234,nan,nan,nan,nan
1,194,0,0,0.0,1.0,0.4941760216606781,0,0.0,0.0,0.0,0.431260221142863,0.12692233911424664,0.30433788202861634,0.5581825602571097,0.12692233911424664,0.4389880205756829,2,3,4,8,0,7,nan,nan,nan,nan,nan,nan,nan,nan,nan,nan,nan,nan,0.0,nan,nan,nan,nan,nan,nan,nan,nan,nan,nan,nan,nan,nan,nan,nan,nan,nan,nan,240.3771596160077,541.2296468664426,nan,541.7238228881033,nan,nan,nan,nan
1,195,1,1,1.0,1.0,0.4053589267714415,0,0.0,0.0,0.0,0.43159847813489427,0.12666427446096148,0.30493420367393276,0.5582627525958558,0.12666427446096148,0.43816845936817117,6,8,0,2,7,4,nan,nan,nan,nan,nan,nan,nan,nan,nan,nan,nan,nan,0.0,nan,nan,nan,nan,nan,nan,nan,nan,nan,nan,nan,nan,nan,nan,nan,nan,nan,nan,240.3771596160077,542.2464468258258,nan,542.6518057525973,nan,nan,nan,nan
1,196,0,0,0.0,1.0,0.5082088216149714,0,0.0,0.0,0.0,0.43145815967840523,0.12633964026145514,0.3051185194169501,0.5577977999398603,0.12633964026145514,0.4692479233490303,2,0,6,5,1,8,nan,nan,nan,nan,nan,nan,nan,nan,nan,nan,nan,nan,0.0,nan,nan,nan,nan,nan,nan,nan,nan,nan,nan,nan,nan,nan,nan,nan,nan,nan,nan,240.3771596160077,543.2715844710474,nan,543.7797932926624,nan,nan,nan,nan
1,197,1,1,1.0,1.0,0.3793905064521823,0,0.0,0.0,0.0,0.4318664078801955,0.1261267960028303,0.3057396118773652,0.5579932038830258,0.1261267960028303,0.4309860849461984,1,7,0,8,4,6,nan,nan,nan,nan,nan,nan,nan,nan,nan,nan,nan,nan,0.0,nan,nan,nan,nan,nan,nan,nan,nan,nan,nan,nan,nan,nan,nan,nan,nan,nan,nan,240.3771596160077,544.2883753073402,nan,544.6677658137924,nan,nan,nan,nan
1,198,1,1,1.0,1.0,0.3865721206238959,0,0.0,0.0,0.0,0.43158875760808957,0.12585027764043535,0.30573847996765424,0.5574390352485249,0.12585027764043535,0.4247238162303499,2,1,6,7,3,8,nan,nan,nan,nan,nan,nan,nan,nan,nan,nan,nan,nan,0.0,nan,nan,nan,nan,nan,nan,nan,nan,nan,nan,nan,nan,nan,nan,nan,nan,nan,nan,240.3771596160077,545.3051727008424,nan,545.6917448214663,nan,nan,nan,nan
1,199,1,1,1.0,1.0,0.42575995676452294,0,0.0,0.0,0.0,0.4313518279397517,0.125560911870641,0.3057909160691107,0.5569127398103927,0.125560911870641,0.39724086128020036,1,5,3,0,7,6,nan,nan,nan,nan,nan,nan,nan,nan,nan,nan,nan,nan,0.0,nan,nan,nan,nan,nan,nan,nan,nan,nan,nan,nan,nan,nan,nan,nan,nan,nan,nan,240.3771596160077,546.3219706645759,nan,546.7477306213405,nan,nan,nan,nan
1,200,1,1,1.0,1.0,0.44094398169545457,0,0.0,0.0,0.0,0.43132255112731593,0.12523243723979327,0.30609011388752266,0.5565549883671093,0.12523243723979327,0.41775868636129115,7,6,0,4,2,3,nan,nan,nan,nan,nan,nan,nan,nan,nan,nan,nan,nan,0.0,nan,nan,nan,nan,nan,nan,nan,nan,nan,nan,nan,nan,nan,nan,nan,nan,nan,nan,240.3771596160077,547.3387691984826,nan,547.7797131801781,nan,nan,nan,nan
1,201,1,1,1.0,1.0,0.5681150016316678,0,0.0,0.0,0.0,0.43137266274485836,0.12490780531621347,0.3064648574286449,0.5562804680610718,0.12490780531621347,0.47827298003054847,5,0,2,3,1,7,nan,nan,nan,nan,nan,nan,nan,nan,nan,nan,nan,nan,0.0,nan,nan,nan,nan,nan,nan,nan,nan,nan,nan,nan,nan,nan,nan,nan,nan,nan,nan,240.3771596160077,548.3555782810145,nan,548.9236932826461,nan,nan,nan,nan
1,202,1,1,1.0,1.0,0.431330768216867,0,0.0,0.0,0.0,0.43208117227276926,0.12497000409311859,0.3071111681796507,0.5570511763658879,0.12497000409311859,0.4801299171813298,0,4,1,5,3,6,nan,nan,nan,nan,nan,nan,nan,nan,nan,nan,nan,nan,0.0,nan,nan,nan,nan,nan,nan,nan,nan,nan,nan,nan,nan,nan,nan,nan,nan,nan,nan,240.3771596160077,549.3723668364983,nan,549.8036976047151,nan,nan,nan,nan
1,203,1,1,1.0,1.0,0.31848962017102167,0,0.0,0.0,0.0,0.43207730421062546,0.12464751190236235,0.3074297923082631,0.5567248161129879,0.12464751190236235,0.4393117966731855,3,0,5,1,2,8,nan,nan,nan,nan,nan,nan,nan,nan,nan,nan,nan,nan,0.0,nan,nan,nan,nan,nan,nan,nan,nan,nan,nan,nan,nan,nan,nan,nan,nan,nan,nan,240.3771596160077,550.3891610939463,nan,550.7076507141173,nan,nan,nan,nan
1,204,1,1,1.0,1.0,0.3416672178427689,0,0.0,0.0,0.0,0.4314948032668326,0.12459193759941743,0.30690286566741515,0.55608674086625,0.12459193759941743,0.36382920207688585,4,2,0,6,5,3,nan,nan,nan,nan,nan,nan,nan,nan,nan,nan,nan,nan,0.0,nan,nan,nan,nan,nan,nan,nan,nan,nan,nan,nan,nan,nan,nan,nan,nan,nan,nan,240.3771596160077,551.4059892780497,nan,551.7476564958924,nan,nan,nan,nan
1,205,1,1,1.0,1.0,0.3328482868964784,0,0.0,0.0,0.0,0.431036499259567,0.12443837617476251,0.3065981230848045,0.5554748754343295,0.12443837617476251,0.33100170830342296,6,1,2,3,8,7,nan,nan,nan,nan,nan,nan,nan,nan,nan,nan,nan,nan,0.0,nan,nan,nan,nan,nan,nan,nan,nan,nan,nan,nan,nan,nan,nan,nan,nan,nan,nan,240.3771596160077,552.4227555959078,nan,552.7556038828043,nan,nan,nan,nan
1,206,1,1,1.0,1.0,0.32403847909881733,0,0.0,0.0,0.0,0.4305380819379269,0.12431812478340634,0.30621995715452055,0.5548562067213333,0.12431812478340634,0.3328513279460215,7,5,3,0,6,8,nan,nan,nan,nan,nan,nan,nan,nan,nan,nan,nan,nan,0.0,nan,nan,nan,nan,nan,nan,nan,nan,nan,nan,nan,nan,nan,nan,nan,nan,nan,nan,240.3771596160077,553.4395584062731,nan,553.763596885372,nan,nan,nan,nan
1,207,1,1,1.0,1.0,0.6992297797405627,0,0.0,0.0,0.0,0.43000020515591125,0.12423338909400164,0.3057668160619096,0.5542335942499129,0.12423338909400164,0.4520388485786195,8,3,0,4,2,7,nan,nan,nan,nan,nan,nan,nan,nan,nan,nan,nan,nan,0.0,nan,nan,nan,nan,nan,nan,nan,nan,nan,nan,nan,nan,nan,nan,nan,nan,nan,nan,240.3771596160077,554.4563523786201,nan,555.1555821583606,nan,nan,nan,nan
1,208,1,1,nan,nan,nan,0,0.0,0.0,0.0,0.43135311759100997,0.12537460337299924,0.3059785142180107,0.5567277209640092,0.12537460337299924,0.51163412941969,1,2,8,3,7,4,nan,nan,nan,nan,nan,nan,nan,nan,nan,nan,nan,nan,0.0,nan,nan,nan,nan,nan,nan,nan,nan,nan,nan,nan,nan,nan,nan,nan,nan,nan,nan,240.3771596160077,555.4731737203547,nan,nan,nan,nan,nan,nan
1,209,0,0,0.0,1.0,0.681572531175334,0,0.0,0.0,0.0,0.43135311759100997,0.12537460337299924,0.3059785142180107,0.5567277209640092,0.12537460337299924,0.6904011554579483,2,6,0,1,4,5,nan,nan,nan,nan,nan,nan,nan,nan,nan,nan,nan,nan,0.0,nan,nan,nan,nan,nan,nan,nan,nan,nan,nan,nan,nan,nan,nan,nan,nan,nan,nan,240.3771596160077,556.4899448848737,nan,557.171517416049,nan,nan,nan,nan
1,210,1,1,1.0,1.0,0.4887791199143976,0,0.0,0.0,0.0,0.4326042146589316,0.1262999633645285,0.3063042512944031,0.5589041780234602,0.1262999633645285,0.5851758255448658,1,3,2,6,0,8,nan,nan,nan,nan,nan,nan,nan,nan,nan,nan,nan,nan,0.0,nan,nan,nan,nan,nan,nan,nan,nan,nan,nan,nan,nan,nan,nan,nan,nan,nan,nan,240.3771596160077,557.5067439889826,nan,557.995523108897,nan,nan,nan,nan
1,211,0,0,0.0,1.0,0.6079779494029935,0,0.0,0.0,0.0,0.43288369179950603,0.1260473746039612,0.3068363171955448,0.5589310664034672,0.1260473746039612,0.5927765334975751,4,5,7,2,8,1,nan,nan,nan,nan,nan,nan,nan,nan,nan,nan,nan,nan,0.0,nan,nan,nan,nan,nan,nan,nan,nan,nan,nan,nan,nan,nan,nan,nan,nan,nan,nan,240.3771596160077,558.5235419527162,nan,559.1315199021192,nan,nan,nan,nan
1,212,1,1,1.0,1.0,0.60714660413214,0,0.0,0.0,0.0,0.4337504950549689,0.1263341141484101,0.30741638090655876,0.560084609203379,0.1263341141484101,0.5679678911498437,5,4,8,6,2,3,nan,nan,nan,nan,nan,nan,nan,nan,nan,nan,nan,nan,0.0,nan,nan,nan,nan,nan,nan,nan,nan,nan,nan,nan,nan,nan,nan,nan,nan,nan,nan,240.3771596160077,559.540340771724,nan,560.1474873758561,nan,nan,nan,nan
1,213,1,1,1.0,1.0,0.49433653175947256,0,0.0,0.0,0.0,0.4346046630799796,0.12660594771900752,0.30799871536097206,0.5612106107989872,0.12660594771900752,0.5698203617648687,2,7,1,3,8,0,nan,nan,nan,nan,nan,nan,nan,nan,nan,nan,nan,nan,0.0,nan,nan,nan,nan,nan,nan,nan,nan,nan,nan,nan,nan,nan,nan,nan,nan,nan,nan,240.3771596160077,560.5571361695474,nan,561.0514727013069,nan,nan,nan,nan
1,214,1,1,1.0,1.0,0.48552216234384105,0,0.0,0.0,0.0,0.43489746635782023,0.12636414087105138,0.3085333254867688,0.5612616072288716,0.12636414087105138,0.5290017660784846,5,8,7,6,0,2,nan,nan,nan,nan,nan,nan,nan,nan,nan,nan,nan,nan,0.0,nan,nan,nan,nan,nan,nan,nan,nan,nan,nan,nan,nan,nan,nan,nan,nan,nan,nan,240.3771596160077,561.5739298568224,nan,562.0594520191662,nan,nan,nan,nan
1,215,1,1,1.0,1.0,0.6526909813110251,0,0.0,0.0,0.0,0.4351444160943374,0.12610489559550564,0.30903952049883177,0.561249311689843,0.12610489559550564,0.5441832251381129,4,6,5,7,2,1,nan,nan,nan,nan,nan,nan,nan,nan,nan,nan,nan,nan,0.0,nan,nan,nan,nan,nan,nan,nan,nan,nan,nan,nan,nan,nan,nan,nan,nan,nan,nan,240.3771596160077,562.5907335224911,nan,563.2434245038021,nan,nan,nan,nan
1,216,1,1,1.0,1.0,0.6358884560468141,0,0.0,1.0,0.0,0.436200467381797,0.12670388094154508,0.3094965864402519,0.5629043483233421,0.12670388094154508,0.5913671999005601,1,2,8,0,7,3,nan,nan,nan,nan,nan,nan,nan,nan,nan,nan,nan,nan,0.0,nan,nan,nan,nan,nan,nan,nan,nan,nan,nan,nan,nan,nan,nan,nan,nan,nan,nan,240.3771596160077,563.6075323414989,nan,564.2434207975457,nan,nan,nan,nan
1,217,1,1,1.0,1.0,0.7790711398993153,1,0.0,0.0,1.0,0.4371651436555411,0.1271535377642755,0.31001160589126564,0.5643186814198166,0.1271535377642755,0.6892168590857182,3,4,2,8,0,6,1.0,1.0,1.0,1.0,1.0,1.0,0.0,1.0,1.0,0.0,1.0,0.0,3.0,8.0,4.0,2.0,3.0,0.0,2.0,3.0,2.0,1.0,4.0,5.0,6.0,2.911235933279386,2.0554024896991905,1.1742954092333093,5.462591174291447,6.03814323770348,7.149936081055785,240.3771596160077,564.6243308754056,565.4327525510453,565.4034020153049,573.6421261113137,574.6452661787334,566.4495448128146,573.6338032505591
1,218,1,1,1.0,1.0,0.4479117724986281,0,0.0,0.0,0.0,0.4388089224836361,0.12903335661433316,0.309775565869303,0.5678422790979692,0.12903335661433316,0.6209571228149192,7,3,1,2,5,0,nan,nan,nan,nan,nan,nan,nan,nan,nan,nan,nan,nan,0.0,nan,nan,nan,nan,nan,nan,nan,nan,nan,nan,nan,nan,nan,nan,nan,nan,nan,nan,240.3771596160077,574.8673217454343,nan,575.3152335179329,nan,nan,nan,nan
1,219,1,1,1.0,1.0,0.3590747207053937,0,0.0,0.0,0.0,0.43885247678992795,0.12872582685127348,0.31012664993865446,0.5675783036412014,0.12872582685127348,0.5286858777011124,3,7,6,0,4,8,nan,nan,nan,nan,nan,nan,nan,nan,nan,nan,nan,nan,0.0,nan,nan,nan,nan,nan,nan,nan,nan,nan,nan,nan,nan,nan,nan,nan,nan,nan,nan,240.3771596160077,575.8841117264237,nan,576.2431864471291,nan,nan,nan,nan
1,220,1,1,1.0,1.0,0.39827652665553614,0,0.0,0.0,0.0,0.43847258271333495,0.12853635634408042,0.30993622636925455,0.5670089390574153,0.12853635634408042,0.401754339953186,5,8,1,4,0,2,nan,nan,nan,nan,nan,nan,nan,nan,nan,nan,nan,nan,0.0,nan,nan,nan,nan,nan,nan,nan,nan,nan,nan,nan,nan,nan,nan,nan,nan,nan,nan,240.3771596160077,576.900909405027,nan,577.2991859316826,nan,nan,nan,nan
1,221,1,1,1.0,1.0,0.3814614570583217,0,0.0,0.0,0.0,0.4382820800779899,0.12826111908106452,0.3100209609969254,0.5665431991590544,0.12826111908106452,0.3796042348064172,2,4,5,8,3,7,nan,nan,nan,nan,nan,nan,nan,nan,nan,nan,nan,nan,0.0,nan,nan,nan,nan,nan,nan,nan,nan,nan,nan,nan,nan,nan,nan,nan,nan,nan,nan,240.3771596160077,577.9177079389337,nan,578.2991693959921,nan,nan,nan,nan
1,222,1,1,1.0,1.0,0.38063296279869974,0,0.0,0.0,0.0,0.43801405827129336,0.12801747280814252,0.30999658546315084,0.5660315310794359,0.12801747280814252,0.38679031550418586,6,1,0,5,2,4,nan,nan,nan,nan,nan,nan,nan,nan,nan,nan,nan,nan,0.0,nan,nan,nan,nan,nan,nan,nan,nan,nan,nan,nan,nan,nan,nan,nan,nan,nan,nan,240.3771596160077,578.9345044771617,nan,579.3151374399604,nan,nan,nan,nan
1,223,1,1,1.0,1.0,0.33183105787611566,0,0.0,0.0,0.0,0.4377446634568681,0.12777682791012823,0.30996783554673984,0.5655214913669964,0.12777682791012823,0.3646418259110457,3,0,8,2,6,1,nan,nan,nan,nan,nan,nan,nan,nan,nan,nan,nan,nan,0.0,nan,nan,nan,nan,nan,nan,nan,nan,nan,nan,nan,nan,nan,nan,nan,nan,nan,nan,240.3771596160077,579.9513021557941,nan,580.2831332136702,nan,nan,nan,nan
1,224,0,0,0.0,1.0,0.4986933966865763,0,0.0,0.0,0.0,0.4372497400663038,0.1276824103555839,0.3095673297107199,0.5649321504218877,0.1276824103555839,0.4037191391204639,8,6,3,1,5,2,nan,nan,nan,nan,nan,nan,nan,nan,nan,nan,nan,nan,0.0,nan,nan,nan,nan,nan,nan,nan,nan,nan,nan,nan,nan,nan,nan,nan,nan,nan,nan,240.3771596160077,580.976425261033,nan,581.4751186577196,nan,nan,nan,nan
1,225,1,1,1.0,1.0,0.34585587508627214,0,0.0,0.0,0.0,0.43753552451570044,0.12745371283722373,0.3100818116784767,0.5649892373529242,0.12745371283722373,0.3921267765496547,4,1,6,0,3,8,nan,nan,nan,nan,nan,nan,nan,nan,nan,nan,nan,nan,0.0,nan,nan,nan,nan,nan,nan,nan,nan,nan,nan,nan,nan,nan,nan,nan,nan,nan,nan,240.3771596160077,581.9932312074816,nan,582.3390870825679,nan,nan,nan,nan
1,226,1,1,1.0,1.0,0.32903795447782613,0,0.0,0.0,0.0,0.4371110816942679,0.1273105484684522,0.3098005332258157,0.5644216301627201,0.1273105484684522,0.3911957420835582,2,4,5,6,7,1,nan,nan,nan,nan,nan,nan,nan,nan,nan,nan,nan,nan,0.0,nan,nan,nan,nan,nan,nan,nan,nan,nan,nan,nan,nan,nan,nan,nan,nan,nan,nan,240.3771596160077,583.0100294563163,nan,583.3390674107941,nan,nan,nan,nan
1,227,1,1,1.0,1.0,0.3122362845169846,0,0.0,0.0,0.0,0.4366130488499525,0.12722759350499055,0.309385455344962,0.563840642354943,0.12722759350499055,0.32904337136036094,3,7,4,1,6,2,nan,nan,nan,nan,nan,nan,nan,nan,nan,nan,nan,nan,0.0,nan,nan,nan,nan,nan,nan,nan,nan,nan,nan,nan,nan,nan,nan,nan,nan,nan,nan,240.3771596160077,584.0268268498185,nan,584.3390631343354,nan,nan,nan,nan
1,228,1,1,1.0,1.0,0.3114217600377742,0,0.0,0.0,0.0,0.4360425132337462,0.1272133827793577,0.30882913045438853,0.5632558960131039,0.1272133827793577,0.31756533301086165,8,0,5,7,4,6,nan,nan,nan,nan,nan,nan,nan,nan,nan,nan,nan,nan,0.0,nan,nan,nan,nan,nan,nan,nan,nan,nan,nan,nan,nan,nan,nan,nan,nan,nan,nan,240.3771596160077,585.0436245284509,nan,585.3550462884887,nan,nan,nan,nan
1,229,1,1,1.0,1.0,0.3026210753596388,0,0.0,0.0,0.0,0.43547346869860476,0.12720039154919938,0.3082730771494054,0.5626738602478041,0.12720039154919938,0.3087597066381325,3,1,8,4,0,5,nan,nan,nan,nan,nan,nan,nan,nan,nan,nan,nan,nan,0.0,nan,nan,nan,nan,nan,nan,nan,nan,nan,nan,nan,nan,nan,nan,nan,nan,nan,nan,240.3771596160077,586.0604167901911,nan,586.3630378655507,nan,nan,nan,nan
1,230,1,1,1.0,1.0,0.2617830930103082,0,1.0,0.0,0.0,0.4348695941834277,0.12722521739187778,0.3076443767915499,0.5620948115753055,0.12722521739187778,0.29194197613590706,2,6,7,5,3,0,nan,nan,nan,nan,nan,nan,nan,nan,nan,nan,nan,nan,0.0,nan,nan,nan,nan,nan,nan,nan,nan,nan,nan,nan,nan,nan,nan,nan,nan,nan,nan,240.3771596160077,587.0772193154844,nan,587.3390024084947,nan,nan,nan,nan
1,231,0,0,0.0,1.0,0.5409554426150862,1,0.0,0.0,1.0,0.4340863973455402,0.12746749533280058,0.30661890201273967,0.5615538926783408,0.12746749533280058,0.3684532036616777,7,5,6,2,0,1,1.0,1.0,1.0,1.0,1.0,1.0,1.0,1.0,1.0,0.0,0.0,0.0,3.0,7.0,5.0,6.0,0.0,1.0,4.0,3.0,2.0,1.0,4.0,5.0,6.0,3.0567347518226597,2.0741274296015035,1.2405130848637782,5.472119428624865,6.456615809031064,7.919960496859858,240.3771596160077,588.0940349552839,588.902437529352,588.634990397899,597.8702525510453,598.8716481048905,589.9109003731282,597.8619316859986
1,232,1,1,1.0,1.0,0.35534279022249393,0,0.0,0.0,0.0,0.434567789441349,0.1273812683328223,0.30718652110852673,0.5619490577741713,0.1273812683328223,0.3860271086159628,8,2,1,5,4,0,nan,nan,nan,nan,nan,nan,nan,nan,nan,nan,nan,nan,0.0,nan,nan,nan,nan,nan,nan,nan,nan,nan,nan,nan,nan,nan,nan,nan,nan,nan,nan,240.3771596160077,599.0954387769452,nan,599.4507815671677,nan,nan,nan,nan
1,233,1,1,1.0,1.0,0.2985495933389757,0,0.0,0.0,0.0,0.43421252038655594,0.12720552354627485,0.3070069968402811,0.5614180439328308,0.12720552354627485,0.3982826087255186,6,4,0,2,3,8,nan,nan,nan,nan,nan,nan,nan,nan,nan,nan,nan,nan,0.0,nan,nan,nan,nan,nan,nan,nan,nan,nan,nan,nan,nan,nan,nan,nan,nan,nan,nan,240.3771596160077,600.1122296132089,nan,600.4107792065479,nan,nan,nan,nan
1,234,1,1,1.0,1.0,0.3617534998629708,0,0.0,0.0,0.0,0.4336068823193792,0.12724308764824932,0.3063637946711299,0.5608499699676286,0.12724308764824932,0.3385486278081468,2,5,8,6,4,7,nan,nan,nan,nan,nan,nan,nan,nan,nan,nan,nan,nan,0.0,nan,nan,nan,nan,nan,nan,nan,nan,nan,nan,nan,nan,nan,nan,nan,nan,nan,nan,240.3771596160077,601.1289990671503,nan,601.4907525670133,nan,nan,nan,nan
1,235,1,1,1.0,1.0,0.36890232778387144,0,0.0,0.0,0.0,0.4332875339529063,0.1270499449239352,0.30623758902897114,0.5603374788768415,0.1270499449239352,0.3430684736619393,8,6,3,2,7,0,nan,nan,nan,nan,nan,nan,nan,nan,nan,nan,nan,nan,0.0,nan,nan,nan,nan,nan,nan,nan,nan,nan,nan,nan,nan,nan,nan,nan,nan,nan,nan,240.3771596160077,602.1458454974927,nan,602.5147478252766,nan,nan,nan,nan
1,236,1,1,1.0,1.0,0.34409739170223475,0,0.0,0.0,0.0,0.433002643660123,0.12684055606337855,0.30616208759674446,0.5598431997235015,0.12684055606337855,0.358251073116359,0,1,5,3,2,4,nan,nan,nan,nan,nan,nan,nan,nan,nan,nan,nan,nan,0.0,nan,nan,nan,nan,nan,nan,nan,nan,nan,nan,nan,nan,nan,nan,nan,nan,nan,nan,240.3771596160077,603.1626232192793,nan,603.5067206109816,nan,nan,nan,nan
1,237,1,1,1.0,1.0,0.3592534770432394,0,0.0,0.0,0.0,0.43261099056779745,0.12669774552209137,0.30591324504570605,0.5593087360898888,0.12669774552209137,0.3574177321764485,7,5,6,8,1,0,nan,nan,nan,nan,nan,nan,nan,nan,nan,nan,nan,nan,0.0,nan,nan,nan,nan,nan,nan,nan,nan,nan,nan,nan,nan,nan,nan,nan,nan,nan,nan,240.3771596160077,604.1794593860977,nan,604.538712863141,nan,nan,nan,nan
1,238,1,1,1.0,1.0,0.33447163391974755,0,0.0,0.0,0.0,0.4322892470874266,0.12651249976408604,0.3057767473233406,0.5588017468515126,0.12651249976408604,0.34594083422174055,8,1,7,3,4,2,nan,nan,nan,nan,nan,nan,nan,nan,nan,nan,nan,nan,0.0,nan,nan,nan,nan,nan,nan,nan,nan,nan,nan,nan,nan,nan,nan,nan,nan,nan,nan,240.3771596160077,605.1962177212117,nan,605.5306893551315,nan,nan,nan,nan
1,239,1,1,1.0,1.0,0.4536271285323892,0,0.0,0.0,0.0,0.4318620959382228,0.12640063454312458,0.3054614613950982,0.5582627304813473,0.12640063454312458,0.3824507464984587,5,4,0,1,2,3,nan,nan,nan,nan,nan,nan,nan,nan,nan,nan,nan,nan,0.0,nan,nan,nan,nan,nan,nan,nan,nan,nan,nan,nan,nan,nan,nan,nan,nan,nan,nan,240.3771596160077,606.2130530327559,nan,606.6666801612882,nan,nan,nan,nan
1,240,1,1,1.0,1.0,0.46088286812300794,0,0.0,0.0,0.0,0.43195672651471917,0.12613368049262141,0.30582304602209776,0.5580904070073406,0.12613368049262141,0.41632721019171487,8,3,1,6,5,0,nan,nan,nan,nan,nan,nan,nan,nan,nan,nan,nan,nan,0.0,nan,nan,nan,nan,nan,nan,nan,nan,nan,nan,nan,nan,nan,nan,nan,nan,nan,nan,240.3771596160077,607.2297797220235,nan,607.6906625901465,nan,nan,nan,nan
1,241,1,1,1.0,1.0,0.33201580127933994,0,0.0,0.0,0.0,0.4320819479069628,0.12587469428995152,0.3062072536170113,0.5579566421969143,0.12587469428995152,0.415508599311579,3,7,5,0,2,4,nan,nan,nan,nan,nan,nan,nan,nan,nan,nan,nan,nan,0.0,nan,nan,nan,nan,nan,nan,nan,nan,nan,nan,nan,nan,nan,nan,nan,nan,nan,nan,240.3771596160077,608.2466247268603,nan,608.5786405281397,nan,nan,nan,nan
1,242,1,1,1.0,1.0,0.3468693978211377,0,0.0,0.0,0.0,0.43165062830942996,0.12577407571454588,0.3058765525948841,0.5574247040239758,0.12577407571454588,0.37992268907449517,7,3,4,5,6,2,nan,nan,nan,nan,nan,nan,nan,nan,nan,nan,nan,nan,0.0,nan,nan,nan,nan,nan,nan,nan,nan,nan,nan,nan,nan,nan,nan,nan,nan,nan,nan,240.3771596160077,609.2717518234858,nan,609.618621221307,nan,nan,nan,nan
1,243,1,1,1.0,1.0,0.3220673127507325,0,0.0,0.0,0.0,0.43128676036742014,0.12562619823509966,0.3056605621323205,0.5569129586025198,0.12562619823509966,0.33365083728373673,0,4,8,2,1,5,nan,nan,nan,nan,nan,nan,nan,nan,nan,nan,nan,nan,0.0,nan,nan,nan,nan,nan,nan,nan,nan,nan,nan,nan,nan,nan,nan,nan,nan,nan,nan,240.3771596160077,610.2885446554283,nan,610.610611968179,nan,nan,nan,nan
1,244,1,1,1.0,1.0,0.32122855496709235,0,0.0,0.0,0.0,0.43082001059128044,0.1255597777361433,0.30526023285513715,0.5563797883274237,0.1255597777361433,0.33005508851298754,6,2,3,5,0,8,nan,nan,nan,nan,nan,nan,nan,nan,nan,nan,nan,nan,0.0,nan,nan,nan,nan,nan,nan,nan,nan,nan,nan,nan,nan,nan,nan,nan,nan,nan,nan,240.3771596160077,611.3053511720791,nan,611.6265797270462,nan,nan,nan,nan
1,245,1,1,1.0,1.0,0.5844206013716757,0,0.0,0.0,0.0,0.430353663971603,0.12549526567769329,0.3048583982939097,0.5558489296492963,0.12549526567769329,0.40923882302983355,8,1,2,3,6,7,nan,nan,nan,nan,nan,nan,nan,nan,nan,nan,nan,nan,0.0,nan,nan,nan,nan,nan,nan,nan,nan,nan,nan,nan,nan,nan,nan,nan,nan,nan,nan,240.3771596160077,612.322144859354,nan,612.9065654607257,nan,nan,nan,nan
1,246,1,1,1.0,1.0,0.48759909998625517,0,0.0,0.0,0.0,0.43100648997753555,0.1256283451964164,0.30537814478111913,0.556634835173952,0.1256283451964164,0.4644160854416744,7,6,8,2,5,4,nan,nan,nan,nan,nan,nan,nan,nan,nan,nan,nan,nan,0.0,nan,nan,nan,nan,nan,nan,nan,nan,nan,nan,nan,nan,nan,nan,nan,nan,nan,nan,240.3771596160077,613.3389482399216,nan,613.8265473399078,nan,nan,nan,nan
1,247,1,1,1.0,1.0,0.37478075979743153,0,0.0,0.0,0.0,0.43124527736153856,0.1254166852988264,0.3058285920627122,0.5566619626603649,0.1254166852988264,0.4822668203851208,2,5,1,7,8,0,nan,nan,nan,nan,nan,nan,nan,nan,nan,nan,nan,nan,0.0,nan,nan,nan,nan,nan,nan,nan,nan,nan,nan,nan,nan,nan,nan,nan,nan,nan,nan,240.3771596160077,614.3557456334238,nan,614.7305263932212,nan,nan,nan,nan
1,248,1,1,1.0,1.0,0.30996804623282515,0,0.0,0.0,0.0,0.43100803148942046,0.12520620972932905,0.3058018217600914,0.5562142412187495,0.12520620972932905,0.3907826353388373,6,4,8,3,1,7,nan,nan,nan,nan,nan,nan,nan,nan,nan,nan,nan,nan,0.0,nan,nan,nan,nan,nan,nan,nan,nan,nan,nan,nan,nan,nan,nan,nan,nan,nan,nan,240.3771596160077,615.3725313379546,nan,615.6824993841874,nan,nan,nan,nan
1,249,1,1,1.0,1.0,0.2691676968242973,0,0.0,0.0,0.0,0.43050158803646404,0.12518804228193398,0.30531354575453007,0.555689630318398,0.12518804228193398,0.31797216761818464,4,3,0,8,2,1,nan,nan,nan,nan,nan,nan,nan,nan,nan,nan,nan,nan,0.0,nan,nan,nan,nan,nan,nan,nan,nan,nan,nan,nan,nan,nan,nan,nan,nan,nan,nan,240.3771596160077,616.3893275910814,nan,616.6584952879057,nan,nan,nan,nan
1,250,1,1,1.0,1.0,0.1403525177447591,0,1.0,0.0,0.0,0.42982936348974665,0.12535847181206272,0.30447089167768393,0.5551878353018094,0.12535847181206272,0.23982942026729384,0,5,2,6,7,3,nan,nan,nan,nan,nan,nan,nan,nan,nan,nan,nan,nan,0.0,nan,nan,nan,nan,nan,nan,nan,nan,nan,nan,nan,nan,nan,nan,nan,nan,nan,nan,240.3771596160077,617.4061301163747,nan,617.5464826341195,nan,nan,nan,nan
1,251,1,1,1.0,1.0,0.17952581390272826,1,0.0,0.0,1.0,0.4286282147522156,0.12647451137581503,0.3021537033764006,0.5551027261280306,0.12647451137581503,0.19634867615726156,8,7,4,3,0,1,1.0,1.0,1.0,1.0,1.0,1.0,1.0,1.0,0.0,1.0,0.0,0.0,3.0,8.0,7.0,0.0,3.0,5.0,2.0,3.0,1.0,4.0,2.0,5.0,6.0,3.5998911496717483,1.2472761754179373,4.711252640001476,2.3850311668938957,6.0550147566827945,6.854725838551531,240.3771596160077,618.4229283651803,619.2313349306351,618.602454179083,627.1323595152062,628.1367551534204,620.2398094634118,627.1240161274036
1,252,1,1,1.0,1.0,0.33275306422729045,0,0.0,0.0,0.0,0.4275988659883747,0.12722050684449884,0.3003783591438759,0.5548193728328735,0.12722050684449884,0.21754379862492593,7,0,5,2,8,4,nan,nan,nan,nan,nan,nan,nan,nan,nan,nan,nan,nan,0.0,nan,nan,nan,nan,nan,nan,nan,nan,nan,nan,nan,nan,nan,nan,nan,nan,nan,nan,240.3771596160077,628.3575391838385,nan,628.6902922480658,nan,nan,nan,nan
1,253,1,1,1.0,1.0,0.36392680057906546,0,0.0,0.0,0.0,0.4272085540469711,0.12710357702696903,0.30010497702000205,0.5543121310739402,0.12710357702696903,0.29206855956969474,2,4,6,7,3,5,nan,nan,nan,nan,nan,nan,nan,nan,nan,nan,nan,nan,0.0,nan,nan,nan,nan,nan,nan,nan,nan,nan,nan,nan,nan,nan,nan,nan,nan,nan,nan,240.3771596160077,629.3743300201022,nan,629.7382568206813,nan,nan,nan,nan
1,254,1,1,1.0,1.0,0.49108470598002896,0,0.0,0.0,0.0,0.42694920259833213,0.1269072650376626,0.30004193756066955,0.5538564676359947,0.1269072650376626,0.3959215235954616,3,1,5,0,7,6,nan,nan,nan,nan,nan,nan,nan,nan,nan,nan,nan,nan,0.0,nan,nan,nan,nan,nan,nan,nan,nan,nan,nan,nan,nan,nan,nan,nan,nan,nan,nan,240.3771596160077,630.3911319751933,nan,630.8822166811733,nan,nan,nan,nan
1,255,1,1,1.0,1.0,0.4902904234768357,0,0.0,0.0,0.0,0.4272109801631554,0.12671400112509476,0.3004969790380606,0.5539249812882502,0.12671400112509476,0.4484339766786434,1,0,6,5,4,7,nan,nan,nan,nan,nan,nan,nan,nan,nan,nan,nan,nan,0.0,nan,nan,nan,nan,nan,nan,nan,nan,nan,nan,nan,nan,nan,nan,nan,nan,nan,nan,240.3771596160077,631.407925377338,nan,631.8982158008148,nan,nan,nan,nan
1,256,1,1,1.0,1.0,0.465473798365565,0,0.0,0.0,0.0,0.4274674006644305,0.12651986847381386,0.30094753219061665,0.5539872691382444,0.12651986847381386,0.4822829759408099,4,5,7,2,8,1,nan,nan,nan,nan,nan,nan,nan,nan,nan,nan,nan,nan,0.0,nan,nan,nan,nan,nan,nan,nan,nan,nan,nan,nan,nan,nan,nan,nan,nan,nan,nan,240.3771596160077,632.4247267622559,nan,632.8902005606215,nan,nan,nan,nan
1,257,1,1,1.0,1.0,0.43265903895371594,0,0.0,0.0,0.0,0.4276212727199007,0.12628655817070567,0.301334714549195,0.5539078308906064,0.12628655817070567,0.4628077535987056,7,4,0,5,2,6,nan,nan,nan,nan,nan,nan,nan,nan,nan,nan,nan,nan,0.0,nan,nan,nan,nan,nan,nan,nan,nan,nan,nan,nan,nan,nan,nan,nan,nan,nan,nan,240.3771596160077,633.4415233004838,nan,633.8741823394375,nan,nan,nan,nan
1,258,0,0,1.0,0.0,0.4558363515534438,0,0.0,0.0,0.0,0.42764158629342414,0.12603209534390977,0.3016094909495144,0.5536736816373339,0.12603209534390977,0.4513230629575749,2,5,1,0,3,4,nan,nan,nan,nan,nan,nan,nan,nan,nan,nan,nan,nan,0.0,nan,nan,nan,nan,nan,nan,nan,nan,nan,nan,nan,nan,nan,nan,nan,nan,nan,nan,240.3771596160077,634.4583221194916,nan,634.9141584710451,nan,nan,nan,nan
1,259,1,1,1.0,1.0,0.4230424043198582,0,0.0,0.0,0.0,0.4277548182824202,0.12579140376959919,0.301963414512821,0.5535462220520193,0.12579140376959919,0.43717926494233933,6,1,7,8,0,5,nan,nan,nan,nan,nan,nan,nan,nan,nan,nan,nan,nan,0.0,nan,nan,nan,nan,nan,nan,nan,nan,nan,nan,nan,nan,nan,nan,nan,nan,nan,nan,240.3771596160077,635.4751140961307,nan,635.8981565004506,nan,nan,nan,nan
1,260,1,1,1.0,1.0,0.3582000405876897,0,0.0,0.0,0.0,0.42773596862656993,0.12553992124160712,0.3021960473849628,0.5532758898681771,0.12553992124160712,0.4123595988203306,7,0,2,5,8,1,nan,nan,nan,nan,nan,nan,nan,nan,nan,nan,nan,nan,0.0,nan,nan,nan,nan,nan,nan,nan,nan,nan,nan,nan,nan,nan,nan,nan,nan,nan,nan,240.3771596160077,636.4919177618285,nan,636.8501178024162,nan,nan,nan,nan
1,261,1,1,1.0,1.0,0.4053783133858815,0,0.0,0.0,0.0,0.4274589330566939,0.12536614006382274,0.3020927929928712,0.5528250731205167,0.12536614006382274,0.39554025276447646,6,3,8,4,2,5,nan,nan,nan,nan,nan,nan,nan,nan,nan,nan,nan,nan,0.0,nan,nan,nan,nan,nan,nan,nan,nan,nan,nan,nan,nan,nan,nan,nan,nan,nan,nan,240.3771596160077,637.5087165808363,nan,637.9140948942222,nan,nan,nan,nan
1,262,1,1,1.0,1.0,0.39656679501058534,0,0.0,0.0,0.0,0.42737131155006375,0.12512485124751938,0.3022464603025444,0.5524961627975831,0.12512485124751938,0.38671504966138553,7,0,4,2,6,3,nan,nan,nan,nan,nan,nan,nan,nan,nan,nan,nan,nan,0.0,nan,nan,nan,nan,nan,nan,nan,nan,nan,nan,nan,nan,nan,nan,nan,nan,nan,nan,240.3771596160077,638.5255096978799,nan,638.9220764928905,nan,nan,nan,nan
1,263,0,0,0.0,1.0,0.507765779591864,0,0.0,0.0,0.0,0.42724955456769426,0.12489228124362901,0.30235727332406526,0.5521418358113233,0.12489228124362901,0.43657029599611025,3,5,6,0,7,8,nan,nan,nan,nan,nan,nan,nan,nan,nan,nan,nan,nan,0.0,nan,nan,nan,nan,nan,nan,nan,nan,nan,nan,nan,nan,nan,nan,nan,nan,nan,nan,240.3771596160077,639.5423085168877,nan,640.0500742964796,nan,nan,nan,nan
1,264,1,1,1.0,1.0,0.39494715427281335,0,0.0,0.0,0.0,0.42756654757960044,0.12474812519244512,0.30281842238715534,0.5523146727720456,0.12474812519244512,0.4330932429584209,8,7,1,4,2,6,nan,nan,nan,nan,nan,nan,nan,nan,nan,nan,nan,nan,0.0,nan,nan,nan,nan,nan,nan,nan,nan,nan,nan,nan,nan,nan,nan,nan,nan,nan,nan,240.3771596160077,640.5591073358955,nan,640.9540544901683,nan,nan,nan,nan
1,265,1,1,1.0,1.0,0.3621201356581878,0,0.0,0.0,0.0,0.42743862839016206,0.12451997108719834,0.30291865730296375,0.5519585994773604,0.12451997108719834,0.4216110231742884,0,3,6,5,7,8,nan,nan,nan,nan,nan,nan,nan,nan,nan,nan,nan,nan,0.0,nan,nan,nan,nan,nan,nan,nan,nan,nan,nan,nan,nan,nan,nan,nan,nan,nan,nan,240.3771596160077,641.575902448647,nan,641.9380225843051,nan,nan,nan,nan
1,266,1,1,1.0,1.0,0.377318415499758,0,0.0,0.0,0.0,0.4271834780279278,0.12434330242038472,0.30284017560754306,0.5515267804483125,0.12434330242038472,0.3781285684769197,1,5,4,6,3,2,nan,nan,nan,nan,nan,nan,nan,nan,nan,nan,nan,nan,0.0,nan,nan,nan,nan,nan,nan,nan,nan,nan,nan,nan,nan,nan,nan,nan,nan,nan,nan,240.3771596160077,642.5927006974525,nan,642.9700191129523,nan,nan,nan,nan
1,267,1,1,1.0,1.0,0.3845020253502298,0,0.0,0.0,0.0,0.42698945054727344,0.12413997692154716,0.3028494736257263,0.5511294274688205,0.12413997692154716,0.3746468588360585,2,7,5,4,6,3,nan,nan,nan,nan,nan,nan,nan,nan,nan,nan,nan,nan,0.0,nan,nan,nan,nan,nan,nan,nan,nan,nan,nan,nan,nan,nan,nan,nan,nan,nan,nan,240.3771596160077,643.6094998015615,nan,643.9940018269117,nan,nan,nan,nan
1,268,1,1,1.0,1.0,0.42378223314881325,0,0.0,0.0,0.0,0.42682477060464924,0.12392728533585422,0.302897485268795,0.5507520559405035,0.12392728533585422,0.3952008913329337,4,8,7,0,1,5,nan,nan,nan,nan,nan,nan,nan,nan,nan,nan,nan,nan,0.0,nan,nan,nan,nan,nan,nan,nan,nan,nan,nan,nan,nan,nan,nan,nan,nan,nan,nan,240.3771596160077,644.6262969099917,nan,645.0500791431405,nan,nan,nan,nan
1,269,1,1,1.0,1.0,0.43091281480155885,0,0.0,0.0,0.0,0.42681302335578497,0.1236879560214981,0.3031250673342869,0.550500979377283,0.1236879560214981,0.41306569110020064,7,6,1,4,5,8,nan,nan,nan,nan,nan,nan,nan,nan,nan,nan,nan,nan,0.0,nan,nan,nan,nan,nan,nan,nan,nan,nan,nan,nan,nan,nan,nan,nan,nan,nan,nan,240.3771596160077,645.6430600917665,nan,646.0739729065681,nan,nan,nan,nan
1,270,0,0,1.0,0.0,0.4860450317792129,0,0.0,0.0,0.0,0.42682879178442257,0.12345012624256912,0.30337866554185344,0.5502789180269917,0.12345012624256912,0.44691335990986164,4,1,6,7,8,3,nan,nan,nan,nan,nan,nan,nan,nan,nan,nan,nan,nan,0.0,nan,nan,nan,nan,nan,nan,nan,nan,nan,nan,nan,nan,nan,nan,nan,nan,nan,nan,240.3771596160077,646.6598931225308,nan,647.14593815431,nan,nan,nan,nan
1,271,1,1,1.0,1.0,0.45322998726624064,0,0.0,0.0,0.0,0.4270556739299965,0.12326770360043218,0.3037879703295643,0.5503233775304287,0.12326770360043218,0.45672927794900414,6,7,1,8,2,0,nan,nan,nan,nan,nan,nan,nan,nan,nan,nan,nan,nan,0.0,nan,nan,nan,nan,nan,nan,nan,nan,nan,nan,nan,nan,nan,nan,nan,nan,nan,nan,240.3771596160077,647.6766993540805,nan,648.1299293413467,nan,nan,nan,nan
1,272,1,1,1.0,1.0,0.42041152162710205,0,0.0,0.0,0.0,0.42715557588929515,0.12304282072546385,0.3041127551638313,0.550198396614759,0.12304282072546385,0.45322884689085186,1,2,6,4,0,8,nan,nan,nan,nan,nan,nan,nan,nan,nan,nan,nan,nan,0.0,nan,nan,nan,nan,nan,nan,nan,nan,nan,nan,nan,nan,nan,nan,nan,nan,nan,nan,240.3771596160077,648.6934921860229,nan,649.11390370765,nan,nan,nan,nan
1,273,1,1,1.0,1.0,0.4595848177559674,0,0.0,0.0,0.0,0.4271299330974237,0.12280937763973478,0.30432055545768893,0.5499393107371585,0.12280937763973478,0.44440877554977004,5,8,1,6,7,0,nan,nan,nan,nan,nan,nan,nan,nan,nan,nan,nan,nan,0.0,nan,nan,nan,nan,nan,nan,nan,nan,nan,nan,nan,nan,nan,nan,nan,nan,nan,nan,240.3771596160077,649.7103024089593,nan,650.1698872267152,nan,nan,nan,nan
1,274,0,0,0.0,1.0,0.49879432132001966,0,0.0,0.0,0.0,0.4272528682665848,0.12259277564154587,0.30466009262503896,0.5498456439081307,0.12259277564154587,0.4595968869010297,4,3,5,2,0,6,nan,nan,nan,nan,nan,nan,nan,nan,nan,nan,nan,nan,0.0,nan,nan,nan,nan,nan,nan,nan,nan,nan,nan,nan,nan,nan,nan,nan,nan,nan,nan,240.3771596160077,650.7270864028833,nan,651.2258807242033,nan,nan,nan,nan
1,275,1,1,1.0,1.0,0.4339867395174224,0,0.0,0.0,0.0,0.4275228360139563,0.12243984840386296,0.30508298761009334,0.5499626844178193,0.12243984840386296,0.4641219595311365,6,0,8,5,2,4,nan,nan,nan,nan,nan,nan,nan,nan,nan,nan,nan,nan,0.0,nan,nan,nan,nan,nan,nan,nan,nan,nan,nan,nan,nan,nan,nan,nan,nan,nan,nan,240.3771596160077,651.7438703968073,nan,652.1778571363247,nan,nan,nan,nan
