block,trial,time,setsize,freqtrials,trials_colorind,trials_colordeg,colorrgb0,colorrgb1,colorrgb2,correct_response,actual_response,acc,rts,probe_trials,rt_triggered_fast,rt_triggered_slow,rt_strailingavg,rts_runningavg,rts_runningstd,rts_runningslowthresh,rts_runningfastthresh,wm_respdeg,wm_respind,wm_resprgb0,wm_resprgb1,wm_resprgb2,wm_respcolorminusorigcolor,wm_rts,time_blockstart,time_encarray_onset,time_response,time_encarray_offest,time_memprobe_onset,time_memprobe_offset
0,0,1358,6,1,259,182,0.44882283482,0.268906983076,0.655011783756,1,1.0,1.0,0.382668325678,0,nan,nan,nan,nan,nan,nan,nan,nan,nan,0.0,0.0,0.0,nan,nan,200.45984095,201.477160878,201.859829204,201.977207635,nan,nan
0,1,1359,6,0,99,69,1.0,-0.267176270739,-0.468793303331,0,0.0,1.0,0.438463520957,0,nan,nan,nan,nan,nan,nan,nan,nan,nan,0.0,0.0,0.0,nan,nan,200.45984095,202.477344481,202.915808002,202.977345906,nan,nan
0,2,1400,6,1,259,182,0.44882283482,0.268906983076,0.655011783756,1,1.0,1.0,0.310023896862,0,nan,nan,nan,nan,nan,nan,nan,nan,nan,0.0,0.0,0.0,nan,nan,200.45984095,203.485740303,203.7957642,203.985805875,nan,nan
0,3,1401,6,1,483,339,0.606025706087,0.319314454546,-1.0,1,1.0,1.0,0.324524215888,0,nan,nan,nan,nan,nan,nan,nan,nan,nan,0.0,0.0,0.0,nan,nan,200.45984095,204.519218675,204.843742891,205.019238346,nan,nan
0,4,1402,6,1,120,84,1.0,-0.310161497659,-0.240162905937,1,1.0,1.0,0.300382486079,0,nan,nan,nan,nan,nan,nan,nan,nan,nan,0.0,0.0,0.0,nan,nan,200.45984095,205.519355236,205.819737722,206.019370061,nan,nan
0,5,1404,6,1,385,270,-0.0879796604702,0.477733444059,-0.233926720364,1,1.0,1.0,0.267924476648,0,nan,nan,nan,nan,nan,nan,nan,nan,nan,0.0,0.0,0.0,nan,nan,200.45984095,206.527811784,206.79573626,207.027853408,nan,nan
0,6,1405,6,1,15,10,0.965734432428,0.145352784795,-1.0,1,1.0,1.0,0.243786738254,0,nan,nan,nan,nan,nan,nan,nan,nan,nan,0.0,0.0,0.0,nan,nan,200.45984095,207.52791898,207.771705718,208.027985978,nan,nan
0,7,1406,6,1,367,258,-0.15309091083,0.477560897992,-0.0350816338538,1,1.0,1.0,0.211316754576,0,nan,nan,nan,nan,nan,nan,nan,nan,nan,0.0,0.0,0.0,nan,nan,200.45984095,208.536401757,208.747718511,209.036431692,nan,nan
0,8,1407,6,1,53,37,1.0,-0.049257555853,-1.0,1,1.0,1.0,0.25884613255,0,nan,nan,nan,nan,nan,nan,nan,nan,nan,0.0,0.0,0.0,nan,nan,200.45984095,209.544848896,209.803695028,210.044909336,nan,nan
0,9,1408,6,0,419,294,0.107894673663,0.454841969249,-0.678098861371,0,1.0,0.0,0.210682698991,0,0.0,0.0,nan,nan,nan,nan,nan,nan,nan,0.0,0.0,0.0,nan,nan,200.45984095,210.544977474,210.755660173,211.045045898,nan,nan
0,10,1409,6,1,85,59,1.0,-0.212156452387,-0.638781227021,1,1.0,1.0,0.33024069597,0,nan,nan,nan,nan,nan,nan,nan,nan,nan,0.0,0.0,0.0,nan,nan,200.45984095,211.553405512,211.883646208,212.053463957,nan,nan
0,11,1410,6,0,398,279,-0.0220377755791,0.472608796233,-0.387943383198,0,0.0,1.0,0.426009628456,0,nan,nan,nan,nan,nan,nan,nan,nan,nan,0.0,0.0,0.0,nan,nan,200.45984095,212.553598523,212.979608151,213.053629599,nan,nan
0,12,1411,6,1,470,330,0.497741612616,0.357740777197,-1.0,1,1.0,1.0,0.305554716149,0,nan,nan,nan,nan,nan,nan,nan,nan,nan,0.0,0.0,0.0,nan,nan,200.45984095,213.562016297,213.867571014,214.062075597,nan,nan
0,13,1412,6,1,425,298,0.149162615564,0.447529597292,-0.791715667876,1,1.0,1.0,0.353441035375,0,nan,nan,nan,nan,nan,nan,nan,nan,nan,0.0,0.0,0.0,nan,nan,200.45984095,214.562135753,214.915576788,215.062179088,nan,nan
0,14,1413,6,1,21,14,1.0,0.116713997928,-1.0,1,1.0,1.0,0.488938520895,0,nan,nan,nan,nan,nan,nan,nan,nan,nan,0.0,0.0,0.0,nan,nan,200.45984095,215.570607411,216.059545932,216.078954766,nan,nan
0,15,1414,6,1,407,286,0.0305886347219,0.46645515455,-0.502577406972,1,1.0,1.0,0.504466614919,0,nan,nan,nan,nan,nan,nan,nan,nan,nan,0.0,0.0,0.0,nan,nan,200.45984095,216.579047708,217.083514323,217.079144641,nan,nan
0,16,1415,6,1,209,146,0.967301840512,0.0304835193525,0.52804999659,1,1.0,1.0,0.328008956509,0,nan,nan,nan,nan,nan,nan,nan,nan,nan,0.0,0.0,0.0,nan,nan,200.45984095,217.587503685,217.915512641,218.087562415,nan,nan
0,17,1416,6,1,368,258,-0.150457169737,0.477793263397,-0.0457341785459,1,1.0,1.0,0.271510711871,0,nan,nan,nan,nan,nan,nan,nan,nan,nan,0.0,0.0,0.0,nan,nan,200.45984095,218.595975913,218.867486625,219.096047757,nan,nan
0,18,1417,6,1,483,339,0.606025706087,0.319314454546,-1.0,1,1.0,1.0,0.31138010323,0,nan,nan,nan,nan,nan,nan,nan,nan,nan,0.0,0.0,0.0,nan,nan,200.45984095,219.596121597,219.907501701,220.096176051,nan,nan
0,19,1418,6,1,131,92,1.0,-0.308451667147,-0.125800503078,1,1.0,1.0,0.438896583393,0,nan,nan,nan,nan,nan,nan,nan,nan,nan,0.0,0.0,0.0,nan,nan,200.45984095,220.604554767,221.04345135,221.104605514,nan,nan
0,20,1419,6,0,76,53,1.0,-0.169674511773,-0.773365826749,0,0.0,1.0,0.470708563225,0,nan,nan,nan,nan,nan,nan,nan,nan,nan,0.0,0.0,0.0,nan,nan,200.45984095,221.604732667,222.075441231,222.104762318,nan,nan
0,21,1420,6,1,327,229,-0.128086156831,0.445480682368,0.344176439252,1,1.0,1.0,0.374244278995,0,nan,nan,nan,nan,nan,nan,nan,nan,nan,0.0,0.0,0.0,nan,nan,200.45984095,222.61318893,222.987433209,223.113223997,nan,nan
0,22,1421,6,1,474,333,0.530901762182,0.346545376391,-1.0,1,1.0,1.0,0.357785628643,0,nan,nan,nan,nan,nan,nan,nan,nan,nan,0.0,0.0,0.0,nan,nan,200.45984095,223.621632933,223.979418562,224.121669711,nan,nan
0,23,1422,6,1,188,132,1.0,-0.0857393506835,0.392804289229,1,1.0,1.0,0.333300357219,0,nan,nan,nan,nan,nan,nan,nan,nan,nan,0.0,0.0,0.0,nan,nan,200.45984095,224.630079217,224.963379574,225.130117135,nan,nan
0,24,1423,6,1,402,282,0.000724920831492,0.470139955471,-0.437811562499,1,1.0,1.0,0.276808954775,0,nan,nan,nan,nan,nan,nan,nan,nan,nan,0.0,0.0,0.0,nan,nan,200.45984095,225.638542322,225.915351277,226.13861046,nan,nan
0,25,1429,6,1,104,73,1.0,-0.282351481576,-0.412644567278,1,1.0,1.0,0.332293394487,1,nan,nan,nan,nan,nan,nan,nan,16.3268535106,105.0,1.0,-0.285049837405,-0.401580786678,0.548146489435,2.88400628581,200.45984095,226.647021107,226.979314501,227.147062731,228.47219905,231.364221409
0,26,1430,6,1,243,170,0.622151010882,0.20168048164,0.647463484622,1,1.0,1.0,0.414129065583,0,nan,nan,nan,nan,nan,nan,nan,nan,nan,0.0,0.0,0.0,nan,nan,200.45984095,232.581065624,232.99519469,233.081107819,nan,nan
0,27,1431,6,1,510,358,0.830554458933,0.220436700166,-1.0,1,1.0,1.0,0.325966236414,0,nan,nan,nan,nan,nan,nan,nan,nan,nan,0.0,0.0,0.0,nan,nan,200.45984095,233.581221572,233.907187809,234.081239819,nan,nan
0,28,1432,6,0,406,285,0.0244967455079,0.467245700284,-0.489366101921,0,0.0,1.0,0.429793150863,0,nan,nan,nan,nan,nan,nan,nan,nan,nan,0.0,0.0,0.0,nan,nan,200.45984095,234.581380941,235.011174092,235.081404035,nan,nan
0,29,1433,6,1,264,185,0.394966959701,0.287889713878,0.650717615019,1,1.0,1.0,0.357355987653,0,nan,nan,nan,nan,nan,nan,nan,nan,nan,0.0,0.0,0.0,nan,nan,200.45984095,235.589791303,235.947147291,236.089867139,nan,nan
0,30,1434,6,1,479,336,0.572572153349,0.331768222426,-1.0,1,1.0,1.0,0.418176302919,0,nan,nan,nan,nan,nan,nan,nan,nan,nan,0.0,0.0,0.0,nan,nan,200.45984095,236.664945156,237.083121459,237.164979083,nan,nan
0,31,1435,6,1,50,35,1.0,-0.033148730948,-1.0,1,1.0,1.0,0.441700227326,0,nan,nan,nan,nan,nan,nan,nan,nan,nan,0.0,0.0,0.0,nan,nan,200.45984095,237.673379751,238.115079978,238.173426792,nan,nan
0,32,1436,6,0,195,137,1.0,-0.0469245268387,0.442396054288,0,0.0,1.0,0.481545670656,0,nan,nan,nan,nan,nan,nan,nan,nan,nan,0.0,0.0,0.0,nan,nan,200.45984095,238.673563638,239.155109309,239.173575613,nan,nan
0,33,1437,6,1,429,301,0.177531820842,0.442080780324,-0.901885199234,1,1.0,1.0,0.433078323491,0,nan,nan,nan,nan,nan,nan,nan,nan,nan,0.0,0.0,0.0,nan,nan,200.45984095,239.681991676,240.11507,240.182015339,nan,nan
0,34,1438,6,1,247,173,0.578947625354,0.219392674348,0.6523805853,1,1.0,1.0,0.504592342535,0,nan,nan,nan,nan,nan,nan,nan,nan,nan,0.0,0.0,0.0,nan,nan,200.45984095,240.690429693,241.195022035,241.190521779,nan,nan
0,35,1439,6,1,478,336,0.56422249903,0.334793662244,-1.0,1,1.0,1.0,0.344138034852,0,nan,nan,nan,nan,nan,nan,nan,nan,nan,0.0,0.0,0.0,nan,nan,200.45984095,241.698879113,242.043017148,242.198943259,nan,nan
0,36,1440,6,1,413,290,0.0683106243366,0.461143133648,-0.585495598612,1,nan,nan,nan,0,nan,nan,nan,nan,nan,nan,nan,nan,nan,0.0,0.0,0.0,nan,nan,200.45984095,242.707351911,nan,243.207430027,nan,nan
0,37,1441,6,1,246,172,0.589768841079,0.215019897151,0.651339528662,1,1.0,1.0,0.167164351093,0,nan,nan,nan,nan,nan,nan,nan,nan,nan,0.0,0.0,0.0,nan,nan,200.45984095,243.715814445,243.882978796,244.215852078,nan,nan
0,38,1442,6,1,487,342,0.639529740128,0.306295026098,-1.0,1,1.0,1.0,0.366975730751,0,nan,nan,nan,nan,nan,nan,nan,nan,nan,0.0,0.0,0.0,nan,nan,200.45984095,244.715971819,245.08294755,245.215979801,nan,nan
0,39,1446,6,1,331,232,-0.143297839787,0.450801753776,0.311166711333,1,1.0,1.0,0.350510523189,1,nan,nan,nan,nan,nan,nan,nan,-139.830419958,327.0,-0.128086156831,0.445480682368,0.344176439252,-2.90395504171,1.50049521332,200.45984095,245.724402423,246.074912946,246.224451459,247.549611156,249.058134702
0,40,1447,6,1,411,288,0.0555201669072,0.463022710015,-0.557054760163,1,1.0,1.0,0.503847099142,0,nan,nan,nan,nan,nan,nan,nan,nan,nan,0.0,0.0,0.0,nan,nan,200.45984095,250.2749735,250.778820599,250.775060455,nan,nan
0,41,1448,6,1,150,105,1.0,-0.266152531622,0.0638227105866,1,1.0,1.0,0.343377111014,0,nan,nan,nan,nan,nan,nan,nan,nan,nan,0.0,0.0,0.0,nan,nan,200.45984095,251.283434894,251.626812005,251.783477089,nan,nan
0,42,1449,6,1,104,73,1.0,-0.282351481576,-0.412644567278,1,1.0,1.0,0.318904383574,0,nan,nan,nan,nan,nan,nan,nan,nan,nan,0.0,0.0,0.0,nan,nan,200.45984095,252.291888591,252.610792974,252.791949317,nan,nan
0,43,1450,6,1,192,135,1.0,-0.0635997558896,0.421658406928,1,1.0,1.0,0.35839374084,0,nan,nan,nan,nan,nan,nan,nan,nan,nan,0.0,0.0,0.0,nan,nan,200.45984095,253.300375929,253.65876967,253.800399022,nan,nan
0,44,1451,6,1,407,286,0.0305886347219,0.46645515455,-0.502577406972,1,1.0,1.0,0.350259637926,0,nan,nan,nan,nan,nan,nan,nan,nan,nan,0.0,0.0,0.0,nan,nan,200.45984095,254.3004951,254.650754737,254.800536153,nan,nan
0,45,1456,6,1,331,232,-0.143297839787,0.450801753776,0.311166711333,1,1.0,1.0,0.301766061923,1,nan,nan,nan,nan,nan,nan,nan,-145.702847596,335.0,-0.155595990888,0.455627721073,0.276893227044,2.96847259616,1.38379702461,200.45984095,255.308953928,255.61071999,255.808987854,257.134178912,258.526002843
0,46,1457,6,1,110,77,1.0,-0.296722754836,-0.346921960777,1,1.0,1.0,0.524137168191,0,nan,nan,nan,nan,nan,nan,nan,nan,nan,0.0,0.0,0.0,nan,nan,200.45984095,259.73450398,260.258641148,260.234586658,nan,nan
0,47,1458,6,0,45,31,1.0,-0.0063957592436,-1.0,0,0.0,1.0,0.435951246182,0,nan,nan,nan,nan,nan,nan,nan,nan,nan,0.0,0.0,0.0,nan,nan,200.45984095,260.734671332,261.170622578,261.234696705,nan,nan
0,48,1459,6,1,244,171,0.611372359265,0.206163547436,0.648880721676,1,1.0,1.0,0.395815574098,0,nan,nan,nan,nan,nan,nan,nan,nan,nan,0.0,0.0,0.0,nan,nan,200.45984095,261.734781379,262.130596953,262.234794494,nan,nan
0,49,1500,6,1,403,283,0.00657627305109,0.469456436931,-0.450524507496,1,1.0,1.0,0.379654565128,0,nan,nan,nan,nan,nan,nan,nan,nan,nan,0.0,0.0,0.0,nan,nan,200.45984095,262.734919651,263.114574216,263.234924213,nan,nan
0,50,1501,6,1,473,332,0.522594813828,0.349396171415,-1.0,1,1.0,1.0,0.387537497329,0,nan,nan,nan,nan,nan,nan,nan,nan,nan,0.0,0.0,0.0,nan,nan,200.45984095,263.735023141,264.122560639,264.235049085,nan,nan
0,51,1502,6,1,75,52,1.0,-0.164714458691,-0.791355921409,1,1.0,1.0,0.291394802975,0,nan,nan,nan,nan,nan,nan,nan,nan,nan,0.0,0.0,0.0,nan,nan,200.45984095,264.735150295,265.026545098,265.2351808,nan,nan
0,52,1503,6,1,193,135,1.0,-0.0580453890011,0.428658791268,1,1.0,1.0,0.26354196528,0,nan,nan,nan,nan,nan,nan,nan,nan,nan,0.0,0.0,0.0,nan,nan,200.45984095,265.771046859,266.034588824,266.276977732,nan,nan
0,53,1504,6,1,423,297,0.135229581944,0.450080889006,-0.750039916123,1,1.0,1.0,0.265408495441,0,nan,nan,nan,nan,nan,nan,nan,nan,nan,0.0,0.0,0.0,nan,nan,200.45984095,266.777084074,267.042492569,267.277102035,nan,nan
0,54,1505,6,1,26,18,1.0,0.0920921692153,-1.0,1,1.0,1.0,0.272906261729,0,nan,nan,nan,nan,nan,nan,nan,nan,nan,0.0,0.0,0.0,nan,nan,200.45984095,267.785528932,268.058435194,268.285572837,nan,nan
0,55,1506,6,1,425,298,0.149162615564,0.447529597292,-0.791715667876,1,1.0,1.0,0.376813288312,0,nan,nan,nan,nan,nan,nan,nan,nan,nan,0.0,0.0,0.0,nan,nan,200.45984095,268.785653804,269.162467093,269.285707973,nan,nan
0,56,1507,6,1,371,260,-0.14179360683,0.478331938097,-0.0779732583494,1,1.0,1.0,0.302971167024,0,nan,nan,nan,nan,nan,nan,nan,nan,nan,0.0,0.0,0.0,nan,nan,200.45984095,269.827470694,270.130441861,270.327486374,nan,nan
0,57,1511,6,1,208,146,0.97651257568,0.025020743352,0.522574479073,1,1.0,1.0,0.286509095458,1,nan,nan,nan,nan,nan,nan,nan,-50.4118691523,200.0,1.0,-0.0191209939188,0.47515178387,-5.83813084768,1.23379009683,200.45984095,270.835915837,271.122424933,271.335958887,272.66112058,273.902946421
0,58,1512,6,1,16,11,0.973419431522,0.140652110383,-1.0,1,1.0,1.0,0.426508262986,0,nan,nan,nan,nan,nan,nan,nan,nan,nan,0.0,0.0,0.0,nan,nan,200.45984095,275.11980318,275.546311443,275.619821712,nan,nan
0,59,1513,6,1,457,321,0.391639248186,0.390358177281,-1.0,1,1.0,1.0,0.322363750776,0,nan,nan,nan,nan,nan,nan,nan,nan,nan,0.0,0.0,0.0,nan,nan,200.45984095,276.119911517,276.442275268,276.619965116,nan,nan
0,60,1514,6,1,204,143,1.0,0.00303256528985,0.499654420455,1,1.0,1.0,0.265903708991,0,nan,nan,nan,nan,nan,nan,nan,nan,nan,0.0,0.0,0.0,nan,nan,200.45984095,277.128378328,277.394282037,277.628410544,nan,nan
0,61,1515,6,1,146,102,1.0,-0.278792578557,0.0248813210997,1,1.0,1.0,0.249739278806,0,nan,nan,nan,nan,nan,nan,nan,nan,nan,0.0,0.0,0.0,nan,nan,200.45984095,278.128535132,278.37827441,278.62854511,nan,nan
0,62,1516,6,1,30,21,1.0,0.071945658744,-1.0,1,1.0,1.0,0.273585648043,0,nan,nan,nan,nan,nan,nan,nan,nan,nan,0.0,0.0,0.0,nan,nan,200.45984095,279.128650881,279.402236529,279.628704479,nan,nan
0,63,1517,6,1,229,161,0.770397026975,0.135265939772,0.614681466938,1,1.0,1.0,0.249457602855,0,nan,nan,nan,nan,nan,nan,nan,nan,nan,0.0,0.0,0.0,nan,nan,200.45984095,280.128754371,280.378211974,280.628800842,nan,nan
0,64,1518,6,1,152,106,1.0,-0.259184487343,0.0830625546756,1,1.0,1.0,0.305324642686,0,nan,nan,nan,nan,nan,nan,nan,nan,nan,0.0,0.0,0.0,nan,nan,200.45984095,281.128878389,281.434203031,281.628922864,nan,nan
0,65,1519,6,1,495,348,0.706485112283,0.278551693791,-1.0,1,1.0,1.0,0.313144283602,0,nan,nan,nan,nan,nan,nan,nan,nan,nan,0.0,0.0,0.0,nan,nan,200.45984095,282.129022648,282.442166931,282.629049732,nan,nan
0,66,1520,6,1,82,57,1.0,-0.198479155091,-0.679872484948,1,1.0,1.0,0.281003872165,0,nan,nan,nan,nan,nan,nan,nan,nan,nan,0.0,0.0,0.0,nan,nan,200.45984095,283.129163201,283.410167073,283.629193136,nan,nan
0,67,1521,6,1,302,212,0.027086081288,0.400300843718,0.517770016443,1,1.0,1.0,0.20885978872,0,nan,nan,nan,nan,nan,nan,nan,nan,nan,0.0,0.0,0.0,nan,nan,200.45984095,284.129292064,284.338151853,284.629299477,nan,nan
0,68,1522,6,1,211,148,0.948675772315,0.0413606888024,0.538689155053,1,1.0,1.0,0.216432250571,0,nan,nan,nan,nan,nan,nan,nan,nan,nan,0.0,0.0,0.0,nan,nan,200.45984095,285.137718391,285.354150642,285.63777313,nan,nan
0,69,1523,6,1,484,340,0.614398947124,0.316112737715,-1.0,1,1.0,1.0,0.192268283106,0,nan,nan,nan,nan,nan,nan,nan,nan,nan,0.0,0.0,0.0,nan,nan,200.45984095,286.137854098,286.330122381,286.637897147,nan,nan
0,70,1524,6,1,140,98,1.0,-0.294209249228,-0.0345777392028,1,1.0,1.0,0.215822142782,0,nan,nan,nan,nan,nan,nan,nan,nan,nan,0.0,0.0,0.0,nan,nan,200.45984095,287.14631036,287.362132503,287.646349989,nan,nan
0,71,1525,6,1,405,284,0.018463324075,0.468009379796,-0.476293327428,1,1.0,1.0,0.215604613768,0,nan,nan,nan,nan,nan,nan,nan,nan,nan,0.0,0.0,0.0,nan,nan,200.45984095,288.146462887,288.362067501,288.646474861,nan,nan
0,72,1526,6,1,87,61,1.0,-0.220959007447,-0.612675615602,1,1.0,1.0,0.239134525182,0,nan,nan,nan,nan,nan,nan,nan,nan,nan,0.0,0.0,0.0,nan,nan,200.45984095,289.154894631,289.394029156,289.654944238,nan,nan
0,73,1527,6,1,277,194,0.258470646878,0.33263615818,0.624824240443,1,1.0,1.0,0.25464095152,0,nan,nan,nan,nan,nan,nan,nan,nan,nan,0.0,0.0,0.0,nan,nan,200.45984095,290.163358306,290.417999258,290.663392232,nan,nan
0,74,1528,6,1,118,82,1.0,-0.308588151016,-0.261285249573,1,1.0,1.0,0.262540134368,0,nan,nan,nan,nan,nan,nan,nan,nan,nan,0.0,0.0,0.0,nan,nan,200.45984095,291.163478902,291.426019036,291.663521382,nan,nan
0,75,1529,6,1,245,172,0.600577697281,0.210610106048,0.650172825369,1,1.0,1.0,0.222037542611,0,nan,nan,nan,nan,nan,nan,nan,nan,nan,0.0,0.0,0.0,nan,nan,200.45984095,292.17196567,292.394003212,292.671975648,nan,nan
0,76,1530,6,1,460,323,0.415848916989,0.383334931935,-1.0,1,1.0,1.0,0.237547960365,0,nan,nan,nan,nan,nan,nan,nan,nan,nan,0.0,0.0,0.0,nan,nan,200.45984095,293.180419366,293.417967327,293.680483798,nan,nan
0,77,1531,6,1,277,194,0.258470646878,0.33263615818,0.624824240443,1,1.0,1.0,0.237383459462,0,nan,nan,nan,nan,nan,nan,nan,nan,nan,0.0,0.0,0.0,nan,nan,200.45984095,294.180549371,294.41793283,294.680577595,nan,nan
0,78,1532,6,0,406,285,0.0244967455079,0.467245700284,-0.489366101921,0,1.0,0.0,0.229237382766,0,0.0,0.0,nan,nan,nan,nan,nan,nan,nan,0.0,0.0,0.0,nan,nan,200.45984095,295.180689068,295.409926451,295.680729267,nan,nan
0,79,1533,6,1,79,55,1.0,-0.184296021705,-0.724170777997,1,1.0,1.0,0.356791780563,0,nan,nan,nan,nan,nan,nan,nan,nan,nan,0.0,0.0,0.0,nan,nan,200.45984095,296.189109408,296.545901189,296.689162436,nan,nan
0,80,1534,6,1,449,315,0.328095008353,0.407646248688,-1.0,1,1.0,1.0,0.289635754423,0,0.0,0.0,0.291888305917,0.329390569192,0.0850605582812,0.414451127473,0.244330010911,nan,nan,0.0,0.0,0.0,nan,nan,200.45984095,297.264256704,297.553892458,297.764299183,nan,nan
0,81,1535,6,1,330,232,-0.139766326074,0.449518327743,0.319540245599,1,1.0,1.0,0.345459744567,0,0.0,0.0,0.330629093184,0.328893634008,0.0846425777287,0.413536211736,0.244251056279,nan,nan,0.0,0.0,0.0,nan,nan,200.45984095,298.264405809,298.609865554,298.764430043,nan,nan
0,82,1536,6,1,205,144,1.0,0.00854800403903,0.505535240796,1,1.0,1.0,0.384943114594,0,0.0,0.0,0.340012871195,0.329098153891,0.0841383579151,0.413236511806,0.244959795976,nan,nan,0.0,0.0,0.0,nan,nan,200.45984095,299.272890011,299.657833126,299.772874901,nan,nan
0,83,1537,6,1,66,46,1.0,-0.118568705386,-1.0,1,1.0,1.0,0.472496121423,0,0.0,0.0,0.400966326861,0.329779189997,0.0838480734312,0.413627263428,0.245931116566,nan,nan,0.0,0.0,0.0,nan,nan,200.45984095,300.281316053,300.753812175,300.781361099,nan,nan
0,84,1538,6,1,439,308,0.251144291643,0.426392204401,-1.0,1,1.0,1.0,0.360339242732,0,0.0,0.0,0.405926159583,0.331498671099,0.084783471603,0.416282142702,0.246715199496,nan,nan,0.0,0.0,0.0,nan,nan,200.45984095,301.281445773,301.641785015,301.781502222,nan,nan
0,85,1539,6,1,135,94,1.0,-0.303502321856,-0.0849788702499,1,1.0,1.0,0.383888825774,0,0.0,0.0,0.405574729977,0.331842011237,0.0843353250411,0.416177336278,0.247506686196,nan,nan,0.0,0.0,0.0,nan,nan,200.45984095,302.289888065,302.673776891,302.78993026,nan,nan
0,86,1540,6,1,226,158,0.801265930663,0.120208988367,0.60458276857,1,1.0,1.0,0.415693678195,0,0.0,0.0,0.386640582234,0.332454326702,0.084025385101,0.416479711803,0.248428941601,nan,nan,0.0,0.0,0.0,nan,nan,200.45984095,303.290040307,303.705733985,303.790051996,nan,nan
0,87,1541,6,0,372,261,-0.138660017671,0.478458869494,-0.0888123791441,0,0.0,1.0,0.471474048449,0,0.0,0.0,0.423685517473,0.333422226138,0.0840107119645,0.417432938103,0.249411514174,nan,nan,0.0,0.0,0.0,nan,nan,200.45984095,304.29023959,304.761713638,304.790204238,nan,nan
0,88,1542,6,1,210,147,0.958022500947,0.0359304984579,0.533421856807,1,1.0,1.0,0.391424795147,0,0.0,0.0,0.426197507263,0.335009028694,0.0848128447352,0.419821873429,0.250196183958,nan,nan,0.0,0.0,0.0,nan,nan,200.45984095,305.290284635,305.68170943,305.790308013,nan,nan
0,89,1543,6,1,276,194,0.268710435127,0.329430325417,0.627563005949,1,1.0,1.0,0.431256553624,0,0.0,0.0,0.431385132407,0.335650116949,0.0845413153575,0.420191432306,0.251108801591,nan,nan,0.0,0.0,0.0,nan,nan,200.45984095,306.290422052,306.721678606,306.790452557,nan,nan
0,90,1544,6,1,367,258,-0.15309091083,0.477560897992,-0.0350816338538,1,1.0,1.0,0.335136667127,0,0.0,0.0,0.385939338633,0.336724346574,0.0846668606938,0.421391207268,0.25205748588,nan,nan,0.0,0.0,0.0,nan,nan,200.45984095,307.290523261,307.625659928,307.790572013,nan,nan
0,91,1545,6,1,102,71,1.0,-0.276610342793,-0.434926949461,1,1.0,1.0,0.279022163013,0,0.0,0.0,0.348471794588,0.336706705691,0.0841953398285,0.42090204552,0.252511365863,nan,nan,0.0,0.0,0.0,nan,nan,200.45984095,308.290649559,308.569671722,308.790686622,nan,nan
0,92,1546,6,1,204,143,1.0,0.00303256528985,0.499654420455,1,1.0,1.0,0.342521819752,0,0.0,0.0,0.318893549964,0.336072809618,0.0839471257487,0.420019935367,0.252125683869,nan,nan,0.0,0.0,0.0,nan,nan,200.45984095,309.299102401,309.64162422,309.799155144,nan,nan
0,93,1547,6,1,415,291,0.0813077335083,0.459153678902,-0.614968023274,1,1.0,1.0,0.317316393368,0,0.0,0.0,0.312953458711,0.336142907554,0.0834923226439,0.419635230198,0.25265058491,nan,nan,0.0,0.0,0.0,nan,nan,200.45984095,310.324273616,310.641590009,310.824291577,nan,nan
0,94,1548,6,1,327,229,-0.128086156831,0.445480682368,0.344176439252,1,1.0,1.0,0.316875062883,0,0.0,0.0,0.325571092001,0.335940471918,0.0830649232416,0.41900539516,0.252875548676,nan,nan,0.0,0.0,0.0,nan,nan,200.45984095,311.332705075,311.649580138,311.83274955,nan,nan
0,95,1549,6,1,83,58,1.0,-0.203097876184,-0.665876706514,1,1.0,1.0,0.364715481875,0,0.0,0.0,0.332968979375,0.335737648418,0.0826450562236,0.418382704641,0.253092592194,nan,nan,0.0,0.0,0.0,nan,nan,200.45984095,312.332847908,312.69756339,312.832884401,nan,nan
0,96,1550,6,1,285,200,0.178734351563,0.356878681702,0.598527012995,1,1.0,1.0,0.380555186421,0,0.0,0.0,0.35404857706,0.336042678243,0.0822621084122,0.418304786656,0.253780569831,nan,nan,0.0,0.0,0.0,nan,nan,200.45984095,313.332985895,313.713541082,313.832991597,nan,nan
0,97,1551,6,1,449,315,0.328095008353,0.407646248688,-1.0,1,1.0,1.0,0.324075758457,0,0.0,0.0,0.356448808918,0.336506350204,0.081957236043,0.418463586247,0.254549114161,nan,nan,0.0,0.0,0.0,nan,nan,200.45984095,314.341446434,314.665522192,314.841457268,nan,nan
0,98,1552,6,0,235,165,0.707591924495,0.164537776567,0.631659631194,0,1.0,0.0,0.331935027614,0,0.0,0.0,0.345521990831,0.336378199773,0.081543349198,0.417921548971,0.254834850575,nan,nan,0.0,0.0,0.0,nan,nan,200.45984095,315.341576153,315.673511181,315.841608939,nan,nan
0,99,1553,6,1,470,330,0.497741612616,0.357740777197,-1.0,1,1.0,1.0,0.539467119379,0,0.0,0.0,0.39849263515,0.336332861282,0.0811274738171,0.417460335099,0.255205387465,nan,nan,0.0,0.0,0.0,nan,nan,200.45984095,316.349998489,316.889465608,316.850081737,nan,nan
0,100,1554,6,1,54,37,1.0,-0.0546292063271,-1.0,1,1.0,1.0,0.443283085944,0,0.0,0.0,0.438228410979,0.338384722475,0.08323327874,0.421618001215,0.255151443735,nan,nan,0.0,0.0,0.0,nan,nan,200.45984095,317.350158143,317.793441229,317.850161279,nan,nan
0,101,1555,6,1,200,140,1.0,-0.0191209939188,0.47515178387,1,1.0,1.0,0.331170112127,0,0.0,1.0,0.43797343915,0.339433706109,0.0834711758802,0.42290488199,0.255962530229,nan,nan,0.0,0.0,0.0,nan,nan,200.45984095,318.350280735,318.681450847,318.850309245,nan,nan
0,102,1600,6,0,430,302,0.184725017221,0.440645728776,-0.941904167281,0,0.0,1.0,0.450939936331,1,0.0,0.0,0.408464378134,0.339351888347,0.083060954068,0.422412842415,0.256290934279,129.656944241,456.0,0.383612429175,0.392633185378,-1.0,17.9993057586,1.59229359962,200.45984095,319.350477167,319.801417103,319.850519361,321.175610065,322.775801707
0,103,1601,6,1,95,66,1.0,-0.253175017597,-0.514975443931,1,1.0,1.0,0.408659479581,0,0.0,0.0,0.396923176013,0.340445888818,0.083380838199,0.423826727017,0.257065050619,nan,nan,0.0,0.0,0.0,nan,nan,200.45984095,323.992631953,324.401291433,324.492681275,nan,nan
0,104,1602,6,1,319,224,-0.0891891826932,0.433308674125,0.406137099325,1,1.0,1.0,0.384185326751,0,0.0,0.0,0.414594914221,0.341108156689,0.0832442344445,0.424352391134,0.257863922245,nan,nan,0.0,0.0,0.0,nan,nan,200.45984095,325.001128129,325.385313456,325.501131835,nan,nan
0,105,1603,6,1,170,119,1.0,-0.180990482069,0.247815061387,1,1.0,1.0,0.488049018662,0,0.0,1.0,0.426964608332,0.341522360247,0.0829496409086,0.424472001156,0.258572719339,nan,nan,0.0,0.0,0.0,nan,nan,200.45984095,326.001230194,326.489279212,326.509590378,nan,nan
0,106,1607,6,0,465,326,0.456588679398,0.37096152752,-1.0,0,0.0,1.0,0.471501417691,1,0.0,0.0,0.447911921035,0.342917852232,0.0837713696542,0.426689221887,0.259146482578,121.297699842,467.0,0.473005185182,0.365775667588,-1.0,1.74917515812,1.40878463723,200.45984095,327.009782819,327.481284237,327.509744046,328.834915432,330.251732107
0,107,1608,6,1,274,192,0.289344050657,0.322900892411,0.632670269059,1,1.0,1.0,0.396886113565,0,0.0,0.0,0.45214551664,0.344130904737,0.0842967693338,0.42842767407,0.259834135403,nan,nan,0.0,0.0,0.0,nan,nan,200.45984095,331.460256621,331.857142735,331.960282851,nan,nan
0,108,1609,6,1,423,297,0.135229581944,0.450080889006,-0.750039916123,1,1.0,1.0,0.380417769775,0,0.0,0.0,0.416268433677,0.344623944071,0.0840553503441,0.428679294416,0.260568593727,nan,nan,0.0,0.0,0.0,nan,nan,200.45984095,332.46871716,332.84913493,332.968767908,nan,nan
0,109,1610,6,1,335,235,-0.155595990888,0.455627721073,0.276893227044,1,1.0,1.0,0.30026702187,0,0.0,0.0,0.359190301737,0.344955368384,0.0837355095597,0.428690877943,0.261219858824,nan,nan,0.0,0.0,0.0,nan,nan,200.45984095,333.468865981,333.769133003,333.96887767,nan,nan
0,110,1611,6,0,388,272,-0.0739633693698,0.476941921698,-0.268577162136,0,0.0,1.0,0.44412469212,0,0.0,0.0,0.374936494588,0.344545383553,0.0834593439111,0.428004727464,0.261086039642,nan,nan,0.0,0.0,0.0,nan,nan,200.45984095,334.469001117,334.913125809,334.969026491,nan,nan
0,111,1612,6,1,470,330,0.497741612616,0.357740777197,-1.0,1,1.0,1.0,0.347625911701,0,0.0,0.0,0.36400587523,0.345450649995,0.0836149867097,0.429065636704,0.261835663285,nan,nan,0.0,0.0,0.0,nan,nan,200.45984095,335.477424308,335.82505022,335.977461941,nan,nan
0,112,1613,6,1,149,104,1.0,-0.269478519393,0.0541436597792,1,1.0,1.0,0.33919046144,0,0.0,0.0,0.376980355087,0.345470246947,0.0832377442433,0.42870799119,0.262232502704,nan,nan,0.0,0.0,0.0,nan,nan,200.45984095,336.485874869,336.82506533,336.985927041,nan,nan
0,113,1615,6,1,95,66,1.0,-0.253175017597,-0.514975443931,1,1.0,1.0,0.280992468353,0,0.0,0.0,0.322602947165,0.345414177434,0.0828674195524,0.428281596986,0.262546757881,nan,nan,0.0,0.0,0.0,nan,nan,200.45984095,337.536041109,337.817033577,338.036050802,nan,nan
0,114,1616,6,1,224,157,0.821619416966,0.11002478857,0.597264883709,1,1.0,1.0,0.264542655786,0,0.0,0.0,0.294908528527,0.344844073813,0.0827202590759,0.427564332889,0.262123814737,nan,nan,0.0,0.0,0.0,nan,nan,200.45984095,338.544487678,338.809030334,339.044524455,nan,nan
0,115,1617,6,1,10,7,0.926811495151,0.168400576072,-1.0,1,1.0,1.0,0.304374414496,0,0.0,0.0,0.283303179545,0.34413967541,0.0826963488081,0.426836024218,0.261443326602,nan,nan,0.0,0.0,0.0,nan,nan,200.45984095,339.544630797,339.849005211,340.044644766,nan,nan
0,116,1618,6,1,502,352,0.764740937618,0.25241357569,-1.0,1,1.0,1.0,0.279835829744,0,0.0,0.0,0.282917633342,0.343793890532,0.0824187474375,0.42621263797,0.261375143095,nan,nan,0.0,0.0,0.0,nan,nan,200.45984095,340.553129824,340.832965653,341.05310388,nan,nan
0,117,1619,6,1,135,94,1.0,-0.303502321856,-0.0849788702499,1,1.0,1.0,0.35974253458,0,0.0,0.0,0.314650926273,0.343242527939,0.0822754578206,0.42551798576,0.260967070119,nan,nan,0.0,0.0,0.0,nan,nan,200.45984095,341.553216208,341.912958743,342.053226757,nan,nan
0,118,1620,6,1,418,293,0.101175887384,0.455961754156,-0.661679309199,1,1.0,1.0,0.39156990964,0,0.0,0.0,0.343716091321,0.343383553637,0.0819371780725,0.425320731709,0.261446375564,nan,nan,0.0,0.0,0.0,nan,nan,200.45984095,342.553366169,342.944936079,343.053357901,nan,nan
0,119,1621,6,1,209,146,0.967301840512,0.0304835193525,0.52804999659,1,1.0,1.0,0.383291262668,0,0.0,0.0,0.378201235629,0.343791912586,0.0817087262824,0.425500638868,0.262083186304,nan,nan,0.0,0.0,0.0,nan,nan,200.45984095,343.561781377,343.94507264,344.061814164,nan,nan
0,120,1622,6,0,109,76,1.0,-0.294638327523,-0.357773695079,0,0.0,1.0,0.510964830872,0,0.0,0.0,0.428608667726,0.344123839898,0.0814445405945,0.425568380492,0.262679299303,nan,nan,0.0,0.0,0.0,nan,nan,200.45984095,344.561943027,345.072907858,345.061988928,nan,nan
0,121,1623,6,1,389,273,-0.0691208065164,0.476626077068,-0.280234315682,1,1.0,1.0,0.454829799943,0,0.0,0.0,0.449695297827,0.345514181489,0.0825104195554,0.428024601045,0.263003761934,nan,nan,0.0,0.0,0.0,nan,nan,200.45984095,345.56203996,346.01686976,346.062068185,nan,nan
0,122,1624,6,1,56,39,1.0,-0.0653675053377,-1.0,1,1.0,1.0,0.382404325763,0,0.0,0.0,0.449399652192,0.346417616352,0.0827626031012,0.429180219454,0.263655013251,nan,nan,0.0,0.0,0.0,nan,nan,200.45984095,346.570482253,346.952886579,347.07053129,nan,nan
0,123,1625,6,1,358,251,-0.170583909915,0.474268316859,0.0585874414746,1,1.0,1.0,0.349889011588,0,0.0,0.0,0.395707712431,0.34671258938,0.0824865559472,0.429199145328,0.264226033433,nan,nan,0.0,0.0,0.0,nan,nan,200.45984095,347.578947639,347.92883665,348.079014066,nan,nan
0,124,1626,6,1,12,8,0.942476689623,0.159273951266,-1.0,1,1.0,1.0,0.48572205659,0,0.0,0.0,0.406005131314,0.346738413951,0.0821510556368,0.428889469588,0.264587358314,nan,nan,0.0,0.0,0.0,nan,nan,200.45984095,348.579097315,349.064819371,349.079108718,nan,nan
0,125,1627,6,1,510,358,0.830554458933,0.220436700166,-1.0,1,1.0,1.0,0.373253566911,0,0.0,0.0,0.402954878363,0.347859249779,0.0827580312822,0.430617281061,0.265101218497,nan,nan,0.0,0.0,0.0,nan,nan,200.45984095,349.587535901,349.960789468,350.087584082,nan,nan
0,126,1628,6,0,412,289,0.0618891196837,0.462096609288,-0.571158935758,0,0.0,1.0,0.437026347034,0,0.0,0.0,0.432000656845,0.348062404316,0.0824573726646,0.430519776981,0.265605031651,nan,nan,0.0,0.0,0.0,nan,nan,200.45984095,350.587741456,351.024767803,351.087732333,nan,nan
0,127,1629,6,1,212,149,0.93926288676,0.0467731277665,0.543851001166,1,1.0,1.0,0.396618692437,0,0.0,0.0,0.402299535461,0.348768467353,0.082508011025,0.431276478378,0.266260456328,nan,nan,0.0,0.0,0.0,nan,nan,200.45984095,351.596126729,351.992745422,352.096164647,nan,nan
0,128,1630,6,1,53,37,1.0,-0.049257555853,-1.0,1,1.0,1.0,0.364455473144,0,0.0,0.0,0.399366837538,0.349145240779,0.0822912856267,0.431436526406,0.266853955152,nan,nan,0.0,0.0,0.0,nan,nan,200.45984095,352.596284103,352.960739576,353.096308621,nan,nan
0,129,1631,6,1,192,135,1.0,-0.0635997558896,0.421658406928,1,1.0,1.0,0.404313460691,0,0.0,0.0,0.388462542091,0.34926485197,0.081980287483,0.431245139453,0.267284564487,nan,nan,0.0,0.0,0.0,nan,nan,200.45984095,353.596399282,354.000712743,354.096412396,nan,nan
0,130,1632,6,1,453,318,0.359670421306,0.39926174925,-1.0,1,1.0,1.0,0.324168414809,0,0.0,0.0,0.364312449548,0.349691585371,0.0818045080743,0.431496093445,0.267887077296,nan,nan,0.0,0.0,0.0,nan,nan,200.45984095,354.596514176,354.920682591,355.096545822,nan,nan
0,131,1633,6,1,47,33,1.0,-0.0170755915744,-1.0,1,1.0,1.0,0.291702137562,0,0.0,0.0,0.340061337687,0.349495253289,0.0815197722143,0.431015025504,0.267975481075,nan,nan,0.0,0.0,0.0,nan,nan,200.45984095,355.604965877,355.896668014,356.105008926,nan,nan
0,132,1634,6,1,336,236,-0.158211608236,0.456758111158,0.268135266647,1,1.0,1.0,0.379217226291,0,0.0,0.0,0.33169592622,0.349054084467,0.0813636672552,0.430417751722,0.267690417212,nan,nan,0.0,0.0,0.0,nan,nan,200.45984095,356.613433258,356.992650484,357.113470036,nan,nan
0,133,1635,6,1,431,303,0.191957257768,0.43918128748,-0.982298765802,1,1.0,1.0,0.451055400539,0,0.0,0.0,0.373991588131,0.349282593117,0.081097070265,0.430379663382,0.268185522852,nan,nan,0.0,0.0,0.0,nan,nan,200.45984095,357.613564688,358.064620088,358.113586925,nan,nan
0,134,1636,6,1,370,260,-0.144805996584,0.478178727438,-0.0671803333712,1,1.0,1.0,0.394588801544,0,0.0,0.0,0.408287142791,0.350047802195,0.0812685523614,0.431316354557,0.268779249834,nan,nan,0.0,0.0,0.0,nan,nan,200.45984095,358.622029503,359.016618305,359.122083386,nan,nan
0,135,1637,6,1,456,320,0.383612429175,0.392633185378,-1.0,1,1.0,1.0,0.38610146381,0,0.0,0.0,0.410581888631,0.350380197713,0.0810554406077,0.431435638321,0.269324757105,nan,nan,0.0,0.0,0.0,nan,nan,200.45984095,359.630474932,360.016576396,360.130516271,nan,nan
0,136,1638,6,1,159,111,1.0,-0.231765974528,0.149055008463,1,1.0,1.0,0.374133376172,0,0.0,0.0,0.384941213842,0.350644799684,0.0808127453056,0.43145754499,0.269832054378,nan,nan,0.0,0.0,0.0,nan,nan,200.45984095,360.658439242,361.032572618,361.163981528,nan,nan
0,137,1639,6,1,205,144,1.0,0.00854800403903,0.505535240796,1,1.0,1.0,0.392533822451,0,0.0,0.0,0.384256220811,0.350817509805,0.0805400946016,0.431357604407,0.270277415204,nan,nan,0.0,0.0,0.0,nan,nan,200.45984095,361.664067627,362.05660145,362.164112958,nan,nan
0,138,1640,6,1,94,66,1.0,-0.249439013202,-0.526745155233,1,1.0,1.0,0.344303961378,0,0.0,0.0,0.37032372,0.351122008438,0.0803241461459,0.431446154584,0.270797862292,nan,nan,0.0,0.0,0.0,nan,nan,200.45984095,362.664217303,363.008521265,363.164253226,nan,nan
0,139,1641,6,1,246,172,0.589768841079,0.215019897151,0.651339528662,1,1.0,1.0,0.336216614582,0,0.0,0.0,0.35768479947,0.3510726023,0.0800346766838,0.431107278983,0.271037925616,nan,nan,0.0,0.0,0.0,nan,nan,200.45984095,363.664333908,364.000550522,364.164380664,nan,nan
0,140,1642,6,1,448,315,0.32026743599,0.409662251776,-1.0,1,1.0,1.0,0.384018830024,0,0.0,0.0,0.354846468661,0.35096572469,0.0797561454171,0.430721870107,0.271209579273,nan,nan,0.0,0.0,0.0,nan,nan,200.45984095,364.664477882,365.048496712,365.164504681,nan,nan
0,141,1643,6,1,390,274,-0.0641960347588,0.476284203309,-0.291947553613,1,1.0,1.0,0.310164734721,0,0.0,0.0,0.343466726442,0.3512018183,0.0795195233828,0.430721341682,0.271682294917,nan,nan,0.0,0.0,0.0,nan,nan,200.45984095,365.706285648,366.016450383,366.206287358,nan,nan
0,142,1644,6,1,155,108,1.0,-0.2479831371,0.111611878621,1,1.0,1.0,0.366046884796,0,0.0,0.0,0.353410149847,0.350910775154,0.0793118337217,0.430222608875,0.271598941432,nan,nan,0.0,0.0,0.0,nan,nan,200.45984095,366.706397976,367.072444861,367.206432473,nan,nan
0,143,1645,6,1,449,315,0.328095008353,0.407646248688,-1.0,1,1.0,1.0,0.285916093737,0,0.0,0.0,0.320709237751,0.351017367475,0.0790422079684,0.430059575444,0.271975159507,nan,nan,0.0,0.0,0.0,nan,nan,200.45984095,367.706523989,367.992440083,368.206542805,nan,nan
0,144,1646,6,1,85,59,1.0,-0.212156452387,-0.638781227021,1,1.0,1.0,0.333448037272,0,0.0,0.0,0.328470338602,0.350562113813,0.0789519535758,0.429514067388,0.271610160237,nan,nan,0.0,0.0,0.0,nan,nan,200.45984095,368.714988519,369.048436556,369.215003629,nan,nan
0,145,1647,6,1,362,254,-0.164239727892,0.476000155386,0.0174578511848,1,1.0,1.0,0.341263401788,0,0.0,0.0,0.320209177599,0.350443266059,0.0786901724614,0.42913343852,0.271753093598,nan,nan,0.0,0.0,0.0,nan,nan,200.45984095,369.715113962,370.056377364,370.215118523,nan,nan
0,146,1648,6,1,218,153,0.881467392804,0.0788246127756,0.572559633417,1,1.0,1.0,0.308793703327,0,0.0,0.0,0.327835047462,0.35037995665,0.0784220375248,0.428801994175,0.271957919125,nan,nan,0.0,0.0,0.0,nan,nan,200.45984095,370.723551693,371.032345396,371.223581343,nan,nan
0,147,1649,6,1,69,48,1.0,-0.134207199312,-0.939648005704,1,1.0,1.0,0.284319550265,0,0.0,0.0,0.311458885126,0.350095119299,0.0782282350462,0.428323354345,0.271866884252,nan,nan,0.0,0.0,0.0,nan,nan,200.45984095,371.732004819,372.01632437,372.232041027,nan,nan
0,148,1650,6,1,8,5,0.91102658764,0.177400941622,-1.0,1,1.0,1.0,0.26817194093,0,0.0,0.0,0.287095064841,0.349647666448,0.0781489455601,0.427796612008,0.271498720888,nan,nan,0.0,0.0,0.0,nan,nan,200.45984095,372.732132258,373.000304199,373.232174737,nan,nan
0,149,1651,6,1,150,105,1.0,-0.266152531622,0.0638227105866,1,1.0,1.0,0.364035525359,0,0.0,0.0,0.305509005518,0.349097154789,0.0781699604146,0.427267115204,0.270927194375,nan,nan,0.0,0.0,0.0,nan,nan,200.45984095,373.732261407,374.096296932,374.23230189,nan,nan
0,150,1652,6,1,436,306,0.228681708805,0.431413732101,-1.0,1,1.0,1.0,0.347877082182,0,0.0,0.0,0.32669484949,0.34919741231,0.0779167503806,0.42711416269,0.271280661929,nan,nan,0.0,0.0,0.0,nan,nan,200.45984095,374.732411368,375.08028845,375.232428188,nan,nan
0,151,1653,6,1,126,88,1.0,-0.311411754845,-0.177408431044,1,1.0,1.0,0.371409559622,0,0.0,0.0,0.361107389055,0.349188610109,0.0776566678889,0.426845277998,0.27153194222,nan,nan,0.0,0.0,0.0,nan,nan,200.45984095,375.740838835,376.112248395,376.240892148,nan,nan
0,152,1654,6,1,418,293,0.101175887384,0.455961754156,-0.661679309199,1,1.0,1.0,0.243273563916,0,0.0,0.0,0.320853401907,0.349335768715,0.0774200810207,0.426755849736,0.271915687694,nan,nan,0.0,0.0,0.0,nan,nan,200.45984095,376.741003336,376.9842769,377.241020727,nan,nan
0,153,1655,6,1,169,118,1.0,-0.185917379452,0.239118302078,1,1.0,1.0,0.27476851549,0,0.0,0.0,0.296483879676,0.348637991052,0.0776399158982,0.42627790695,0.270998075154,nan,nan,0.0,0.0,0.0,nan,nan,200.45984095,377.749437931,378.024206447,378.249477275,nan,nan
0,154,1656,6,1,99,69,1.0,-0.267176270739,-0.468793303331,1,1.0,1.0,0.386611502152,0,0.0,0.0,0.301551193853,0.348155184022,0.0776143654962,0.425769549518,0.270540818526,nan,nan,0.0,0.0,0.0,nan,nan,200.45984095,378.749584756,379.136196258,379.24960956,nan,nan
0,155,1657,6,1,444,312,0.289241202529,0.417409780569,-1.0,1,1.0,1.0,0.354153492721,0,0.0,0.0,0.338511170121,0.348404900373,0.0774235992972,0.425828499671,0.270981301076,nan,nan,0.0,0.0,0.0,nan,nan,200.45984095,379.758029615,380.112183108,380.258062116,nan,nan
0,156,1658,6,1,213,149,0.929785093221,0.0521668813814,0.548906519778,1,1.0,1.0,0.31368539785,0,0.0,0.0,0.351483464241,0.348441988066,0.0771748140115,0.425616802078,0.271267174054,nan,nan,0.0,0.0,0.0,nan,nan,200.45984095,380.766482171,381.080167569,381.266518093,nan,nan
0,157,1659,6,1,457,321,0.391639248186,0.390358177281,-1.0,1,1.0,1.0,0.321190576535,0,0.0,0.0,0.329676489035,0.348219189411,0.0769770538607,0.425196243271,0.27124213555,nan,nan,0.0,0.0,0.0,nan,nan,200.45984095,381.774937863,382.09612844,382.274984619,nan,nan
0,158,1700,6,1,338,237,-0.162891363375,0.458928707883,0.250399161362,1,1.0,1.0,0.34504663921,0,0.0,0.0,0.326640871198,0.348047032641,0.0767616343945,0.424808667035,0.271285398246,nan,nan,0.0,0.0,0.0,nan,nan,200.45984095,382.775095522,383.120142161,383.275115764,nan,nan
0,159,1701,6,1,204,143,1.0,0.00303256528985,0.499654420455,1,1.0,1.0,0.384878682671,0,0.0,0.0,0.350371966138,0.348028042809,0.0765187021992,0.424546745008,0.27150934061,nan,nan,0.0,0.0,0.0,nan,nan,200.45984095,383.775203574,384.160082256,384.275229517,nan,nan
0,160,1702,6,1,278,195,0.248285521772,0.335802812283,0.621962573991,1,1.0,1.0,0.280760684283,0,0.0,0.0,0.336895335388,0.34825980784,0.076333309626,0.424593117466,0.271926498214,nan,nan,0.0,0.0,0.0,nan,nan,200.45984095,384.775324455,385.056085139,385.275361802,nan,nan
0,161,1703,6,1,220,154,0.861731547614,0.0893272636146,0.581247684387,1,1.0,1.0,0.248275590828,0,0.0,0.0,0.304638319261,0.347837938317,0.0762801066405,0.424118044958,0.271557831677,nan,nan,0.0,0.0,0.0,nan,nan,200.45984095,385.783778436,386.032054027,386.283814929,nan,nan
0,162,1704,6,1,66,46,1.0,-0.118568705386,-1.0,1,1.0,1.0,0.295766195282,0,0.0,0.0,0.274934156798,0.347219538644,0.0764441028589,0.423663641502,0.270775435785,nan,nan,0.0,0.0,0.0,nan,nan,200.45984095,386.792264634,387.088030829,387.292286301,nan,nan
0,163,1705,6,1,482,338,0.597655625539,0.322480811492,-1.0,1,1.0,1.0,0.287626105594,0,0.0,0.0,0.277222630568,0.346901925413,0.0763142845004,0.423216209913,0.270587640912,nan,nan,0.0,0.0,0.0,nan,nan,200.45984095,387.792396919,388.080023024,388.292431131,nan,nan
0,164,1706,6,1,348,244,-0.175384772129,0.468017843042,0.157582163916,1,1.0,1.0,0.271471083397,0,0.0,0.0,0.284954461424,0.346538270077,0.0762204990661,0.422758769143,0.270317771011,nan,nan,0.0,0.0,0.0,nan,nan,200.45984095,388.792523502,389.063994586,389.292541178,nan,nan
0,165,1707,6,1,175,123,1.0,-0.155629953633,0.290361762956,1,1.0,1.0,0.279322655173,0,0.0,0.0,0.279473281388,0.346080543329,0.0762121450276,0.422292688356,0.269868398301,nan,nan,0.0,0.0,0.0,nan,nan,200.45984095,389.792664055,390.07198671,390.292664055,nan,nan
0,166,1708,6,1,55,38,1.0,-0.0599996532909,-1.0,1,1.0,1.0,0.246852956479,0,1.0,0.0,0.265882231683,0.345675950067,0.076157306818,0.421833256885,0.269518643249,nan,nan,0.0,0.0,0.0,nan,nan,200.45984095,390.80108411,391.047937067,391.301155669,nan,nan
0,167,1713,6,1,504,354,0.78128615449,0.244628286196,-1.0,1,1.0,1.0,0.254712511087,1,0.0,0.0,0.260296040913,0.345080630829,0.0763116821744,0.421392313003,0.268768948654,55.0315777324,50.0,1.0,-0.033148730948,-1.0,40.5934222676,1.99220316717,200.45984095,391.801240058,392.055952569,392.301275695,393.626438813,395.62666233
0,168,1714,6,1,165,116,1.0,-0.205056383665,0.203745440608,1,1.0,1.0,0.532313750358,0,0.0,0.0,0.344626405975,0.344539504363,0.0764016328676,0.420941137231,0.268137871495,nan,nan,0.0,0.0,0.0,nan,nan,200.45984095,396.843514243,397.375827993,397.343598061,nan,nan
0,169,1715,6,1,336,236,-0.158211608236,0.456758111158,0.268135266647,1,1.0,1.0,0.299857052276,0,0.0,0.0,0.362294437907,0.345657208208,0.077531225613,0.423188433821,0.268125982595,nan,nan,0.0,0.0,0.0,nan,nan,200.45984095,397.85198419,398.151841242,398.352020682,nan,nan
0,170,1716,6,1,429,301,0.177531820842,0.442080780324,-0.901885199234,1,1.0,1.0,0.259713682812,0,0.0,0.0,0.363961495149,0.345386201368,0.0773812707986,0.422767472167,0.26800493057,nan,nan,0.0,0.0,0.0,nan,nan,200.45984095,398.85210336,399.111817043,399.352140708,nan,nan
0,171,1717,6,0,272,191,0.310166696092,0.316214117232,0.637281430288,0,1.0,0.0,0.243478263495,0,0.0,0.0,0.267682999528,0.344882245377,0.0774309987383,0.422313244115,0.267451246639,nan,nan,0.0,0.0,0.0,nan,nan,200.45984095,399.852288388,400.095766652,400.352346548,nan,nan
0,172,1718,6,1,0,0,0.846831709088,0.212097570855,-1.0,1,1.0,1.0,0.587365412852,0,0.0,0.0,0.36351911972,0.344289239635,0.0775904588302,0.421879698465,0.266698780805,nan,nan,0.0,0.0,0.0,nan,nan,200.45984095,400.852370211,401.439735624,401.352454315,nan,nan
0,173,1719,6,1,115,80,1.0,-0.305166285737,-0.293172749504,1,1.0,1.0,0.47489777836,0,0.0,0.0,0.435247151569,0.3457024732,0.0795412085363,0.425243681736,0.266161264664,nan,nan,0.0,0.0,0.0,nan,nan,200.45984095,401.860825618,402.335723397,402.360873515,nan,nan
0,174,1720,6,1,305,214,0.00361192545304,0.406859252708,0.500196907155,1,1.0,1.0,0.330721369712,0,0.0,1.0,0.464328186975,0.346449266872,0.0799134361065,0.426362702978,0.266535830765,nan,nan,0.0,0.0,0.0,nan,nan,200.45984095,402.860975009,403.191696379,403.360984417,nan,nan
0,175,1725,6,0,364,255,-0.160194321586,0.476704516321,-0.00341124574885,0,0.0,1.0,0.474561364157,1,0.0,0.0,0.42672683741,0.346358876658,0.0796923377412,0.426051214399,0.266666538917,-150.809688482,342.0,-0.170052622031,0.462913557708,0.21407524247,-15.1278115182,1.84218797134,200.45984095,403.861107294,404.335668658,404.361130957,405.686279821,407.536502681
0,176,1726,6,1,85,59,1.0,-0.212156452387,-0.638781227021,1,1.0,1.0,0.558557215147,0,0.0,0.0,0.454613316339,0.347091462301,0.0800497385155,0.427141200816,0.267041723785,nan,nan,0.0,0.0,0.0,nan,nan,200.45984095,408.745014651,409.303571866,409.245110159,nan,nan
0,177,1727,6,1,426,299,0.156193047225,0.446210853967,-0.81485970128,1,1.0,1.0,0.326049199793,0,0.0,0.0,0.453055926366,0.34829297226,0.0813891046214,0.429682076882,0.266903867639,nan,nan,0.0,0.0,0.0,nan,nan,200.45984095,409.753488019,410.079537219,410.253526222,nan,nan
0,178,1728,6,0,359,252,-0.169222339917,0.474741883077,0.0483828026834,0,0.0,1.0,0.397915028501,0,0.0,0.0,0.427507147814,0.348167301229,0.0811759889009,0.42934329013,0.266991312328,nan,nan,0.0,0.0,0.0,nan,nan,200.45984095,410.753666775,411.151581804,411.253692149,nan,nan
0,179,1729,6,1,306,215,-0.00395437407881,0.408974006242,0.494128827808,1,1.0,1.0,0.325752128614,0,0.0,0.0,0.349905452303,0.348446782843,0.081032997877,0.42947978072,0.267413784966,nan,nan,0.0,0.0,0.0,nan,nan,200.45984095,411.753744322,412.07949645,412.253799916,nan,nan
0,180,1730,6,1,76,53,1.0,-0.169674511773,-0.773365826749,1,1.0,1.0,0.325614141533,0,0.0,0.0,0.349760432883,0.348319997065,0.0808240343482,0.429144031414,0.267495962717,nan,nan,0.0,0.0,0.0,nan,nan,200.45984095,412.753895993,413.079510135,413.253909393,nan,nan
0,181,1731,6,1,341,239,-0.168535884224,0.46196150489,0.223260112086,1,1.0,1.0,0.285134357633,0,0.0,0.0,0.312166875927,0.348193853424,0.0806168779629,0.428810731386,0.267576975461,nan,nan,0.0,0.0,0.0,nan,nan,200.45984095,413.762346269,414.047480626,414.262365085,nan,nan
0,182,1732,6,1,155,108,1.0,-0.2479831371,0.111611878621,1,1.0,1.0,0.284978409531,0,0.0,0.0,0.298575636232,0.347845458419,0.0805296387784,0.428375097198,0.267315819641,nan,nan,0.0,0.0,0.0,nan,nan,200.45984095,414.762474562,415.047452972,415.262498796,nan,nan
0,183,1733,6,1,462,324,0.432089675478,0.378486360879,-1.0,1,1.0,1.0,0.276523287641,0,0.0,0.0,0.282212018268,0.347500035074,0.0804424462449,0.427942481319,0.267057588829,nan,nan,0.0,0.0,0.0,nan,nan,200.45984095,415.77090089,416.047424177,416.27094565,nan,nan
0,184,1734,6,1,400,281,-0.0107874812989,0.471427301814,-0.412692688905,1,1.0,1.0,0.300352836028,0,0.0,0.0,0.2872848444,0.347112183995,0.0803928140564,0.427504998051,0.266719369938,nan,nan,0.0,0.0,0.0,nan,nan,200.45984095,416.771043153,417.071395989,417.27107993,nan,nan
0,185,1735,6,0,182,127,1.0,-0.118523835432,0.347089474713,0,0.0,1.0,0.492206302937,0,0.0,0.0,0.356360808869,0.346858057104,0.0802477274097,0.427105784513,0.266610329694,nan,nan,0.0,0.0,0.0,nan,nan,200.45984095,417.771196535,418.263402838,418.279563562,nan,nan
0,186,1736,6,1,120,84,1.0,-0.310161497659,-0.240162905937,1,1.0,1.0,0.380094469758,0,0.0,0.0,0.390884536241,0.347643723297,0.0807370206849,0.428380743982,0.266906702612,nan,nan,0.0,0.0,0.0,nan,nan,200.45984095,418.771280639,419.151375108,419.271324259,nan,nan
0,187,1737,6,0,23,16,1.0,0.106943944166,-1.0,0,0.0,1.0,0.44387722807,0,0.0,0.0,0.438726000255,0.347818189676,0.0805546529749,0.428372842651,0.267263536701,nan,nan,0.0,0.0,0.0,nan,nan,200.45984095,419.771471084,420.215348312,420.271502729,nan,nan
0,188,1738,6,1,98,68,1.0,-0.263822910468,-0.480217789416,1,1.0,1.0,0.307757945964,0,0.0,0.0,0.377243214597,0.348331874373,0.0806438558636,0.428975730237,0.26768801851,nan,nan,0.0,0.0,0.0,nan,nan,200.45984095,420.771547775,421.079305721,421.271611351,nan,nan
0,189,1739,6,1,327,229,-0.128086156831,0.445480682368,0.344176439252,1,1.0,1.0,0.33929708763,0,0.0,0.0,0.363644087221,0.348116055605,0.0804832206449,0.42859927625,0.26763283496,nan,nan,0.0,0.0,0.0,nan,nan,200.45984095,421.780014016,422.119311103,422.280043666,nan,nan
0,190,1740,6,1,126,88,1.0,-0.311411754845,-0.177408431044,1,1.0,1.0,0.331153861713,0,0.0,0.0,0.326069631769,0.348069394399,0.0802725693297,0.428341963729,0.267796825069,nan,nan,0.0,0.0,0.0,nan,nan,200.45984095,422.780137463,423.111291324,423.280174525,nan,nan
0,191,1741,6,1,431,303,0.191957257768,0.43918128748,-0.982298765802,1,1.0,1.0,0.338966660202,0,0.0,0.0,0.336472536515,0.34798036528,0.0800704021594,0.428050767439,0.26790996312,nan,nan,0.0,0.0,0.0,nan,nan,200.45984095,423.780289704,424.119256364,424.280305099,nan,nan
0,192,1742,6,1,477,335,0.555879874869,0.337784025865,-1.0,1,1.0,1.0,0.298818443902,0,0.0,0.0,0.322979655272,0.347933173106,0.0798631679575,0.427796341064,0.268070005149,nan,nan,0.0,0.0,0.0,nan,nan,200.45984095,424.780407164,425.079225608,425.280429972,nan,nan
0,193,1743,6,1,111,78,1.0,-0.298677811705,-0.336106236365,1,1.0,1.0,0.298388232477,0,0.0,0.0,0.31205777886,0.347677367225,0.0797333342587,0.427410701484,0.267944032967,nan,nan,0.0,0.0,0.0,nan,nan,200.45984095,425.788834917,426.087223149,426.288894502,nan,nan
0,194,1744,6,1,308,216,-0.0186828559465,0.413097475488,0.481682330771,1,1.0,1.0,0.266233851202,0,0.0,0.0,0.287813509194,0.347421983107,0.0796051952638,0.427027178371,0.267816787844,nan,nan,0.0,0.0,0.0,nan,nan,200.45984095,426.788963496,427.055197347,427.289007401,nan,nan
0,195,1745,6,1,444,312,0.289241202529,0.417409780569,-1.0,1,1.0,1.0,0.234088593395,0,1.0,0.0,0.266236892358,0.347003487582,0.0796123354912,0.426615823073,0.267391152091,nan,nan,0.0,0.0,0.0,nan,nan,200.45984095,427.789103193,428.023191787,428.289127711,nan,nan
0,196,1750,6,1,249,175,0.557275547736,0.228026269286,0.654084877906,1,1.0,1.0,0.185957945883,1,0.0,0.0,0.22876013016,0.346424436843,0.0798164702037,0.426240907046,0.266607966639,-92.2679545359,259.0,0.44882283482,0.268906983076,0.655011783756,7.18982953591,1.9089802138,200.45984095,428.789216662,428.975174608,429.289282804,430.614426251,432.531332732
0,197,1751,6,1,112,78,1.0,-0.300501516081,-0.325324861792,1,1.0,1.0,0.347166620428,0,0.0,0.0,0.255737719902,0.345605730256,0.0804292869266,0.426035017183,0.265176443329,nan,nan,0.0,0.0,0.0,nan,nan,200.45984095,433.739861808,434.087028428,434.239883475,nan,nan
0,198,1752,6,1,160,112,1.0,-0.227501418013,0.158297521075,1,1.0,1.0,0.298700413899,0,0.0,0.0,0.277274993404,0.345613653556,0.0802249686544,0.425838622211,0.265388684902,nan,nan,0.0,0.0,0.0,nan,nan,200.45984095,434.7483041,435.047004514,435.248349146,nan,nan
0,199,1753,6,1,449,315,0.328095008353,0.407646248688,-1.0,1,1.0,1.0,0.298530495958,0,0.0,0.0,0.314799176762,0.345376718003,0.0800911954636,0.425467913466,0.265285522539,nan,nan,0.0,0.0,0.0,nan,nan,200.45984095,435.748446079,436.046976575,436.248471738,nan,nan
0,200,1754,6,1,383,269,-0.0968787136249,0.478131214543,-0.211081409456,1,1.0,1.0,0.257406677818,0,0.0,0.0,0.284879195892,0.345141309852,0.0799583515807,0.425099661432,0.265182958271,nan,nan,0.0,0.0,0.0,nan,nan,200.45984095,436.773626132,437.03103281,437.273600758,nan,nan
0,201,1755,6,1,112,78,1.0,-0.300501516081,-0.325324861792,1,1.0,1.0,0.305269049015,0,0.0,0.0,0.28706874093,0.344702636692,0.0799979105459,0.424700547237,0.264704726146,nan,nan,0.0,0.0,0.0,nan,nan,200.45984095,437.773717078,438.078986127,438.27373846,nan,nan
0,202,1756,6,1,208,146,0.97651257568,0.025020743352,0.522574479073,1,1.0,1.0,0.305108824279,0,0.0,0.0,0.289261517037,0.344506449688,0.0798468811349,0.424353330823,0.264659568553,nan,nan,0.0,0.0,0.0,nan,nan,200.45984095,438.773845657,439.078954481,439.273861907,nan,nan
0,203,1757,6,0,450,316,0.335949728395,0.405598329481,-1.0,0,1.0,0.0,0.168973006541,0,0.0,0.0,0.259783626612,0.344311411939,0.0796969786713,0.42400839061,0.264614433267,nan,nan,0.0,0.0,0.0,nan,nan,200.45984095,439.773974805,439.942947812,440.274014434,nan,nan
0,204,1758,6,1,330,232,-0.139766326074,0.449518327743,0.319540245599,1,1.0,1.0,0.232839298435,0,0.0,0.0,0.235640376418,0.343447675951,0.0804426488175,0.423890324769,0.263005027134,nan,nan,0.0,0.0,0.0,nan,nan,200.45984095,440.774078866,441.006918164,441.274108801,nan,nan
0,205,1759,6,1,37,26,1.0,0.0358565504353,-1.0,1,1.0,1.0,0.272363437107,0,0.0,0.0,0.224725247361,0.342905478022,0.0806162311099,0.423521709132,0.262289246913,nan,nan,0.0,0.0,0.0,nan,nan,200.45984095,441.78252629,442.054889727,442.282566774,nan,nan
0,206,1800,6,1,266,187,0.373577590308,0.295207490188,0.648113769863,1,1.0,1.0,0.375903258566,0,0.0,0.0,0.293701998036,0.342561370506,0.0805694112517,0.423130781757,0.261991959254,nan,nan,0.0,0.0,0.0,nan,nan,200.45984095,442.790986544,443.166889803,443.291024747,nan,nan
0,207,1801,6,0,171,120,1.0,-0.176011872558,0.256450910142,0,0.0,1.0,0.463690900244,0,0.0,0.0,0.370652531972,0.342723224331,0.0804070180311,0.423130242362,0.2623162063,nan,nan,0.0,0.0,0.0,nan,nan,200.45984095,443.791153896,444.254844796,444.291182691,nan,nan
0,208,1802,6,1,504,354,0.78128615449,0.244628286196,-1.0,1,1.0,1.0,0.48759086756,0,0.0,0.0,0.44239500879,0.343307609239,0.0806498942904,0.423957503529,0.262657714949,nan,nan,0.0,0.0,0.0,nan,nan,200.45984095,444.791251684,445.278842552,445.299608733,nan,nan
0,209,1803,6,1,325,228,-0.119404900653,0.442631039184,0.360186421743,1,1.0,1.0,0.335069384193,0,0.0,0.0,0.428783717332,0.34400127875,0.0810724243432,0.425073703093,0.262928854407,nan,nan,0.0,0.0,0.0,nan,nan,200.45984095,445.799756983,446.134826367,446.299751282,nan,nan
0,210,1804,6,1,16,11,0.973419431522,0.140652110383,-1.0,1,1.0,1.0,0.299912076211,0,0.0,0.0,0.374190775988,0.343958542413,0.0808805871136,0.424839129526,0.263077955299,nan,nan,0.0,0.0,0.0,nan,nan,200.45984095,446.874838706,447.174750783,447.37490884,nan,nan
0,211,1805,6,1,373,262,-0.135407706169,0.478559568072,-0.0996974893599,1,1.0,1.0,0.315802813275,0,0.0,0.0,0.316928091226,0.343748797335,0.0807447403968,0.424493537732,0.263004056939,nan,nan,0.0,0.0,0.0,nan,nan,200.45984095,447.874976123,448.190778936,448.375016037,nan,nan
0,212,1806,6,1,304,213,0.0113092810281,0.404708921832,0.506160370659,1,1.0,1.0,0.291341489647,0,0.0,0.0,0.302352126377,0.343616351913,0.0805760371537,0.424192389067,0.26304031476,nan,nan,0.0,0.0,0.0,nan,nan,200.45984095,448.88343039,449.17477188,449.383468023,nan,nan
0,213,1807,6,1,361,253,-0.166047812515,0.475607712818,0.0278173107143,1,1.0,1.0,0.331176099367,0,0.0,0.0,0.31277346743,0.343369772374,0.0804655322726,0.423835304647,0.262904240102,nan,nan,0.0,0.0,0.0,nan,nan,200.45984095,449.883568947,450.214745046,450.383595746,nan,nan
0,214,1808,6,1,493,346,0.689769084006,0.285700779988,-1.0,1,1.0,1.0,0.315035902429,0,0.0,0.0,0.312517830481,0.343312525083,0.0802807511174,0.423593276201,0.263031773966,nan,nan,0.0,0.0,0.0,nan,nan,200.45984095,450.883689543,451.198725445,451.383720904,nan,nan
0,215,1809,6,0,47,33,1.0,-0.0170755915744,-1.0,0,0.0,1.0,0.418845140375,0,0.0,0.0,0.355019047391,0.343180391333,0.0801161720198,0.423296563352,0.263064219313,nan,nan,0.0,0.0,0.0,nan,nan,200.45984095,451.883850623,452.302695763,452.383872861,nan,nan
0,216,1810,6,1,463,325,0.440238315199,0.376011795327,-1.0,1,1.0,1.0,0.322726964252,0,0.0,0.0,0.352202669019,0.343532320398,0.0800952672211,0.423627587619,0.263437053177,nan,nan,0.0,0.0,0.0,nan,nan,200.45984095,452.883955254,453.206682218,453.383987184,nan,nan
0,217,1811,6,1,276,194,0.268710435127,0.329430325417,0.627563005949,1,1.0,1.0,0.298608327284,0,0.0,0.0,0.346726810637,0.343435999305,0.0799221265242,0.423358125829,0.26351387278,nan,nan,0.0,0.0,0.0,nan,nan,200.45984095,453.884071003,454.18267933,454.384118899,nan,nan
0,218,1812,6,1,490,344,0.664660387652,0.296157848571,-1.0,1,1.0,1.0,0.298461502651,0,0.0,0.0,0.306598931396,0.343229420171,0.0797955412138,0.423024961385,0.263433878957,nan,nan,0.0,0.0,0.0,nan,nan,200.45984095,454.884200152,455.182661654,455.384259452,nan,nan
0,219,1813,6,1,221,155,0.851781464038,0.0945411604707,0.585422935822,1,1.0,1.0,0.353963332949,0,0.0,0.0,0.317011054295,0.343024062751,0.0796697666718,0.422693829423,0.263354296079,nan,nan,0.0,0.0,0.0,nan,nan,200.45984095,455.892668103,456.246631436,456.39268806,nan,nan
0,220,1814,6,1,428,300,0.170378320166,0.443486568519,-0.86866140055,1,1.0,1.0,0.28146686987,0,0.0,0.0,0.311297235157,0.343074013757,0.0794910855258,0.422565099282,0.263582928231,nan,nan,0.0,0.0,0.0,nan,nan,200.45984095,456.901109255,457.182576125,457.401154301,nan,nan
0,221,1815,6,1,326,229,-0.12383419111,0.444071765824,0.352223541474,1,1.0,1.0,0.401333341608,0,0.0,0.0,0.345587848142,0.342793981284,0.0794184128145,0.422212394099,0.26337556847,nan,nan,0.0,0.0,0.0,nan,nan,200.45984095,457.901230137,458.302563478,458.401279173,nan,nan
0,222,1816,6,1,181,127,1.0,-0.123914391386,0.3392011262,1,1.0,1.0,0.488849285757,0,0.0,0.0,0.390549832412,0.343058865268,0.0793358715933,0.422394736861,0.263722993674,nan,nan,0.0,0.0,0.0,nan,nan,200.45984095,458.909686114,459.3985354,459.41807937,nan,nan
0,223,1817,6,1,507,356,0.805995650865,0.232688349973,-1.0,1,1.0,1.0,0.36067195097,0,0.0,0.0,0.416951526112,0.343715578873,0.0797567529237,0.423472331797,0.26395882595,nan,nan,0.0,0.0,0.0,nan,nan,200.45984095,459.909856602,460.270528553,460.409868576,nan,nan
0,224,1818,6,1,40,28,1.0,0.0201165467467,-1.0,1,1.0,1.0,0.312548430869,0,0.0,0.0,0.387356555865,0.343791616417,0.0795857894742,0.423377405891,0.264205826942,nan,nan,0.0,0.0,0.0,nan,nan,200.45984095,460.909986036,461.222534467,461.40999687,nan,nan
0,225,1819,6,1,350,246,-0.175756816429,0.469490941964,0.138247479403,1,1.0,1.0,0.328369889408,0,0.0,0.0,0.333863423749,0.34365213791,0.0794352557433,0.423087393653,0.264216882166,nan,nan,0.0,0.0,0.0,nan,nan,200.45984095,461.910089526,462.238459416,462.410109768,nan,nan
0,226,1820,6,0,262,184,0.416452475899,0.2804144186,0.652815538838,0,0.0,1.0,0.472214730456,0,0.0,0.0,0.371044350245,0.343584216805,0.0792650551183,0.422849271923,0.264319161687,nan,nan,0.0,0.0,0.0,nan,nan,200.45984095,462.910235781,463.382450511,463.410266001,nan,nan
0,227,1821,6,1,480,337,0.580928072941,0.32870764083,-1.0,1,1.0,1.0,0.264095908729,0,0.0,0.0,0.354893509531,0.34415337837,0.0795489528738,0.423702331244,0.264604425496,nan,nan,0.0,0.0,0.0,nan,nan,200.45984095,463.910338986,464.174434895,464.4103655,nan,nan
0,228,1822,6,1,38,26,1.0,0.0306259494545,-1.0,1,1.0,1.0,0.263938820455,0,0.0,0.0,0.333416486547,0.343800702292,0.0795504183971,0.423351120689,0.264250283895,nan,nan,0.0,0.0,0.0,nan,nan,200.45984095,464.910464429,465.174403249,465.410493509,nan,nan
0,229,1823,6,1,291,204,0.122027637739,0.373441943191,0.573791926984,1,1.0,1.0,0.279467199231,0,0.0,0.0,0.269167309472,0.343450430881,0.0795510159903,0.423001446871,0.26389941489,nan,nan,0.0,0.0,0.0,nan,nan,200.45984095,465.918916415,466.198383614,466.418955473,nan,nan
0,230,1824,6,1,200,140,1.0,-0.0191209939188,0.47515178387,1,1.0,1.0,0.286635963712,0,0.0,0.0,0.276680661133,0.343171028122,0.0794891715434,0.422660199666,0.263681856579,nan,nan,0.0,0.0,0.0,nan,nan,200.45984095,466.935731436,467.2223674,467.435777622,nan,nan
0,231,1825,6,1,145,101,1.0,-0.281667413287,0.0150551701241,1,1.0,1.0,0.294164520456,0,0.0,0.0,0.286755894466,0.342925223495,0.0794033544042,0.422328577899,0.26352186909,nan,nan,0.0,0.0,0.0,nan,nan,200.45984095,467.94419112,468.23835564,468.444215638,nan,nan
0,232,1826,6,1,409,287,0.0429436170054,0.464793150178,-0.529461854507,1,1.0,1.0,0.310019050259,0,0.0,0.0,0.296939844809,0.3427141382,0.0792959449988,0.422010083199,0.263418193201,nan,nan,0.0,0.0,0.0,nan,nan,200.45984095,468.944304303,469.254323354,469.444343932,nan,nan
0,233,1827,6,1,358,251,-0.170583909915,0.474268316859,0.0585874414746,1,1.0,1.0,0.285889009247,0,0.0,0.0,0.296690859987,0.342573211097,0.07915384936,0.421727060457,0.263419361737,nan,nan,0.0,0.0,0.0,nan,nan,200.45984095,469.944423474,470.230312483,470.444462532,nan,nan
0,234,1828,6,1,63,44,1.0,-0.102744642793,-1.0,1,1.0,1.0,0.277750059962,0,0.0,0.0,0.291219373156,0.342329931261,0.0790706833815,0.421400614642,0.263259247879,nan,nan,0.0,0.0,0.0,nan,nan,200.45984095,470.944547776,471.222297836,471.444601945,nan,nan
0,235,1829,6,1,510,358,0.830554458933,0.220436700166,-1.0,1,1.0,1.0,0.237658292986,0,0.0,0.0,0.267099120732,0.342053948905,0.0790139292864,0.421067878191,0.263040019618,nan,nan,0.0,0.0,0.0,nan,nan,200.45984095,471.94467607,472.182334363,472.444711992,nan,nan
0,236,1830,6,1,467,328,0.473005185182,0.365775667588,-1.0,1,1.0,1.0,0.237125731772,0,1.0,0.0,0.250844694907,0.341609712071,0.0791379381694,0.42074765024,0.262471773902,nan,nan,0.0,0.0,0.0,nan,nan,200.45984095,472.953130052,473.190255783,473.453175667,nan,nan
0,237,1831,6,0,403,283,0.00657627305109,0.469456436931,-0.450524507496,0,1.0,0.0,0.292968253372,0,0.0,0.0,0.255917426044,0.341166983341,0.0792612008777,0.420428184218,0.261905782463,nan,nan,0.0,0.0,0.0,nan,nan,200.45984095,473.953271175,474.246239428,474.453337032,nan,nan
0,238,1832,6,1,129,90,1.0,-0.310070485259,-0.146368003411,1,1.0,1.0,0.332823960111,0,0.0,0.0,0.287639315085,0.340963613172,0.0791554864419,0.420119099614,0.26180812673,nan,nan,0.0,0.0,0.0,nan,nan,200.45984095,474.953400038,475.286223999,475.45343425,nan,nan
0,239,1833,6,1,42,29,1.0,0.00954878589686,-1.0,1,1.0,1.0,0.324652509298,0,0.0,0.0,0.316814907594,0.340929412949,0.078990773065,0.419920186014,0.261938639884,nan,nan,0.0,0.0,0.0,nan,nan,200.45984095,475.953541447,476.278193956,476.453563969,nan,nan
0,240,1834,6,1,507,356,0.805995650865,0.232688349973,-1.0,1,1.0,1.0,0.24421039247,0,0.0,0.0,0.300562287293,0.34086130875,0.0788323489785,0.419693657728,0.262028959771,nan,nan,0.0,0.0,0.0,nan,nan,200.45984095,476.961976042,477.206186434,477.462018521,nan,nan
0,241,1835,6,1,164,115,1.0,-0.209685835145,0.194761549991,1,1.0,1.0,0.268017703434,0,0.0,0.0,0.278960201734,0.340458596599,0.0789139129259,0.419372509525,0.261544683673,nan,nan,0.0,0.0,0.0,nan,nan,200.45984095,477.962129994,478.230147697,478.462155368,nan,nan
0,242,1836,6,1,211,148,0.948675772315,0.0413606888024,0.538689155053,1,1.0,1.0,0.251571312314,0,1.0,0.0,0.254599802739,0.34015801198,0.0788875786353,0.419045590615,0.261270433344,nan,nan,0.0,0.0,0.0,nan,nan,200.45984095,478.970556606,479.222127919,479.470604503,nan,nan
0,243,1841,6,1,500,351,0.748145934353,0.260058294274,-1.0,1,1.0,1.0,0.243406418944,1,0.0,0.0,0.254331811564,0.339791951237,0.0789292611531,0.41872121239,0.260862690084,96.8090501796,502.0,0.764740937618,0.25241357569,-1.0,1.62844982039,2.12561773392,200.45984095,479.97069944,480.214105859,480.470727379,481.795895915,483.929523449
0,244,1842,6,1,347,243,-0.174938837379,0.46723881498,0.167157479366,1,1.0,1.0,0.380011221394,0,0.0,0.0,0.291662984217,0.339395302956,0.0790080055353,0.418403308492,0.260387297421,nan,nan,0.0,0.0,0.0,nan,nan,200.45984095,485.138024016,485.518035237,485.638049959,nan,nan
0,245,1843,6,1,390,274,-0.0641960347588,0.476284203309,-0.291947553613,1,1.0,1.0,0.291807338363,0,0.0,0.0,0.3050749929,0.339561761638,0.0788886243345,0.418450385973,0.260673137304,nan,nan,0.0,0.0,0.0,nan,nan,200.45984095,486.138178823,486.429986161,486.638175972,nan,nan
0,246,1844,6,1,238,167,0.675741828754,0.178727669763,0.638511091232,1,1.0,1.0,0.331350008491,0,0.0,0.0,0.334389522749,0.339366845625,0.0787863152132,0.418153160838,0.260580530412,nan,nan,0.0,0.0,0.0,nan,nan,200.45984095,487.146598878,487.477948887,487.646635086,nan,nan
0,247,1845,6,1,292,205,0.112881669716,0.376069582356,0.569261850688,1,1.0,1.0,0.339214979671,0,0.0,0.0,0.320790775508,0.339334256856,0.0786276719869,0.417961928843,0.260706584869,nan,nan,0.0,0.0,0.0,nan,nan,200.45984095,488.146751405,488.485966385,488.646801867,nan,nan
0,248,1846,6,1,155,108,1.0,-0.2479831371,0.111611878621,1,1.0,1.0,0.363060208503,0,0.0,0.0,0.344541732222,0.339333773953,0.0784683455991,0.417802119552,0.260865428354,nan,nan,0.0,0.0,0.0,nan,nan,200.45984095,489.146874567,489.509934776,489.646895664,nan,nan
0,249,1847,6,1,263,184,0.405698801511,0.284171736334,0.651829885785,1,1.0,1.0,0.290525827324,0,0.0,0.0,0.330933671833,0.33942944506,0.0783244169805,0.41775386204,0.261105028079,nan,nan,0.0,0.0,0.0,nan,nan,200.45984095,490.155370743,490.44589657,490.655360765,nan,nan
0,250,1848,6,1,131,92,1.0,-0.308451667147,-0.125800503078,1,1.0,1.0,0.33010299434,0,0.0,0.0,0.327896343389,0.339233044988,0.0782281470415,0.41746119203,0.261004897947,nan,nan,0.0,0.0,0.0,nan,nan,200.45984095,491.163791368,491.493894363,491.663819593,nan,nan
0,251,1849,6,1,335,235,-0.155595990888,0.455627721073,0.276893227044,1,1.0,1.0,0.305932184448,0,0.0,0.0,0.308853668704,0.339196524786,0.0780736608285,0.417270185614,0.261122863957,nan,nan,0.0,0.0,0.0,nan,nan,200.45984095,492.163926504,492.469858689,492.66394361,nan,nan
0,252,1850,6,1,425,298,0.149162615564,0.447529597292,-0.791715667876,1,1.0,1.0,0.249792876886,0,0.0,0.0,0.295276018558,0.339063997533,0.0779461515191,0.417010149053,0.261117846014,nan,nan,0.0,0.0,0.0,nan,nan,200.45984095,493.164043394,493.413836271,493.664074755,nan,nan
0,253,1851,6,1,280,196,0.228089347314,0.342018854333,0.61587222022,1,1.0,1.0,0.249626380391,0,0.0,0.0,0.268450480575,0.338709747055,0.0779935372104,0.416703284265,0.260716209844,nan,nan,0.0,0.0,0.0,nan,nan,200.45984095,494.164179385,494.413805766,494.664195066,nan,nan
0,254,1852,6,1,174,122,1.0,-0.160790688716,0.281981279739,1,1.0,1.0,0.2415065323,0,1.0,0.0,0.246975263193,0.338357638886,0.0780396783789,0.416397317265,0.260317960507,nan,nan,0.0,0.0,0.0,nan,nan,200.45984095,495.164289718,495.40579625,495.664319653,nan,nan
0,255,1857,6,1,510,358,0.830554458933,0.220436700166,-1.0,1,1.0,1.0,0.217363947537,1,0.0,0.0,0.236165620076,0.337976335317,0.0781216906512,0.416098025968,0.259854644666,99.1351883594,499.0,0.739831889234,0.263827757734,-1.0,-7.72893835941,2.00056249648,200.45984095,496.164411454,496.381775402,496.664441675,497.989609354,499.998198757
0,256,1858,6,1,111,78,1.0,-0.298677811705,-0.336106236365,1,1.0,1.0,0.350968389073,0,0.0,0.0,0.269946289637,0.337503345561,0.0783319215078,0.415835267069,0.259171424053,nan,nan,0.0,0.0,0.0,nan,nan,200.45984095,501.206719565,501.557687955,501.706749786,nan,nan
0,257,1859,6,1,485,341,0.622774561467,0.312875618285,-1.0,1,1.0,1.0,0.254798895447,0,0.0,0.0,0.274377077352,0.337555943387,0.0781832915179,0.415739234905,0.259372651869,nan,nan,0.0,0.0,0.0,nan,nan,200.45984095,502.206833319,502.461632215,502.706951349,nan,nan
0,258,1900,6,1,85,59,1.0,-0.212156452387,-0.638781227021,1,1.0,1.0,0.254658342572,0,0.0,0.0,0.286808542364,0.337233931527,0.0782009436689,0.415434875196,0.259032987859,nan,nan,0.0,0.0,0.0,nan,nan,200.45984095,503.206961613,503.461619955,503.707038304,nan,nan
0,259,1901,6,1,144,101,1.0,-0.284423189345,0.00519445478499,1,1.0,1.0,0.26251704176,0,1.0,0.0,0.257324759926,0.336913871105,0.0782177171568,0.415131588262,0.258696153948,nan,nan,0.0,0.0,0.0,nan,nan,200.45984095,504.20709903,504.469616071,504.707131531,nan,nan
0,260,1906,6,1,46,32,1.0,-0.0117313672748,-1.0,1,1.0,1.0,0.366387860849,1,0.0,0.0,0.294521081727,0.33662662466,0.0782027961541,0.414829420814,0.258423828506,75.2849283494,21.0,1.0,0.116713997928,-1.0,-17.6286783494,1.60895267338,200.45984095,505.207227893,505.573615754,505.707252982,507.03244461,508.64932355
0,261,1907,6,1,356,250,-0.17284377641,0.473239407326,0.0788368070227,1,1.0,1.0,0.379357779166,0,0.0,0.0,0.336087560592,0.336741090953,0.0780739972481,0.414815088201,0.258667093705,nan,nan,0.0,0.0,0.0,nan,nan,200.45984095,509.866127852,510.245485632,510.366186867,nan,nan
0,262,1908,6,0,216,151,0.900975005756,0.0682271079607,0.563426584804,0,0.0,1.0,0.52313533728,0,0.0,0.0,0.422960325765,0.336904373283,0.0779687523518,0.414873125635,0.258935620931,nan,nan,0.0,0.0,0.0,nan,nan,200.45984095,510.866326565,511.389461902,511.366375602,nan,nan
0,263,1909,6,1,377,265,-0.121259861678,0.478700828387,-0.143695900877,1,1.0,1.0,0.307049479801,0,0.0,0.0,0.403180865416,0.337615178489,0.0786625213535,0.416277699843,0.258952657136,nan,nan,0.0,0.0,0.0,nan,nan,200.45984095,511.866404967,512.173454446,512.366437468,nan,nan
0,264,1910,6,1,316,222,-0.0718215561597,0.428203514031,0.427892255365,1,1.0,1.0,0.282877244754,0,0.0,0.0,0.371020687278,0.337498959103,0.0785353637431,0.416034322846,0.258963595359,nan,nan,0.0,0.0,0.0,nan,nan,200.45984095,512.866549511,513.149426755,513.366560059,nan,nan
0,265,1911,6,1,450,316,0.335949728395,0.405598329481,-1.0,1,1.0,1.0,0.282429357292,0,0.0,0.0,0.290785360616,0.337292058669,0.0784582622502,0.41575032092,0.258833796419,nan,nan,0.0,0.0,0.0,nan,nan,200.45984095,513.874984961,514.157414319,514.375044261,nan,nan
0,266,1912,6,0,112,78,1.0,-0.300501516081,-0.325324861792,0,0.0,1.0,0.450240308186,0,0.0,0.0,0.338515636744,0.337085029608,0.0783823014166,0.415467331024,0.258702728191,nan,nan,0.0,0.0,0.0,nan,nan,200.45984095,514.875144616,515.325384924,515.375168279,nan,nan
0,267,1913,6,1,344,241,-0.172543464245,0.464730234515,0.195503824632,1,1.0,1.0,0.274118779227,0,0.0,0.0,0.335596148235,0.337510425392,0.0785407095429,0.416051134935,0.258969715849,nan,nan,0.0,0.0,0.0,nan,nan,200.45984095,515.87524611,516.149364889,516.375273479,nan,nan
0,268,1914,6,1,185,130,1.0,-0.102214474652,0.370299946716,1,1.0,1.0,0.369963547681,0,0.0,0.0,0.364774211698,0.337273003496,0.0784890675133,0.415762071009,0.258783935983,nan,nan,0.0,0.0,0.0,nan,nan,200.45984095,516.875387803,517.245351351,517.375401773,nan,nan
0,269,1915,6,1,120,84,1.0,-0.310161497659,-0.240162905937,1,1.0,1.0,0.250179183437,0,0.0,0.0,0.298087170115,0.337394983138,0.078367846435,0.415762829573,0.259027136704,nan,nan,0.0,0.0,0.0,nan,nan,200.45984095,517.915162828,518.165342011,518.417215811,nan,nan
0,270,1916,6,1,467,328,0.473005185182,0.365775667588,-1.0,1,1.0,1.0,0.184019000968,0,0.0,0.0,0.268053910695,0.337070760835,0.0784019171659,0.415472678001,0.258668843669,nan,nan,0.0,0.0,0.0,nan,nan,200.45984095,518.917277677,519.101296678,519.417320442,nan,nan
0,271,1917,6,1,180,126,1.0,-0.129278616986,0.331238955499,1,1.0,1.0,0.231861415552,0,1.0,0.0,0.222019866652,0.336503902465,0.0788069274084,0.415310829873,0.257696975056,nan,nan,0.0,0.0,0.0,nan,nan,200.45984095,519.917418515,520.149279931,520.417461565,nan,nan
0,272,1918,6,0,490,344,0.664660387652,0.296157848571,-1.0,0,1.0,0.0,0.255355404923,0,0.0,0.0,0.223745273814,0.336117767827,0.078916865782,0.415034633609,0.257200902045,nan,nan,0.0,0.0,0.0,nan,nan,200.45984095,520.925915546,521.181270951,521.42594206,nan,nan
0,273,1919,6,1,285,200,0.178734351563,0.356878681702,0.598527012995,1,1.0,1.0,0.367244577268,0,0.0,0.0,0.284820465914,0.335820847375,0.0789231712062,0.414744018581,0.256897676169,nan,nan,0.0,0.0,0.0,nan,nan,200.45984095,521.926002786,522.293247363,522.426052108,nan,nan
0,274,1920,6,1,505,355,0.789537956352,0.240683140511,-1.0,1,1.0,1.0,0.295073409565,0,0.0,0.0,0.305891130585,0.335935952613,0.0788013602513,0.414737312864,0.257134592361,nan,nan,0.0,0.0,0.0,nan,nan,200.45984095,522.926159875,523.221233284,523.426161015,nan,nan
0,275,1921,6,1,393,276,-0.0489456633786,0.475102171109,-0.327443230616,1,1.0,1.0,0.278938344447,0,0.0,0.0,0.313752110427,0.335786819244,0.078696017264,0.414482836508,0.25709080198,nan,nan,0.0,0.0,0.0,nan,nan,200.45984095,523.926255382,524.205193726,524.42629216,nan,nan
0,276,1922,6,1,260,182,0.438016636947,0.272781976488,0.654406567654,1,1.0,1.0,0.286788775586,0,0.0,0.0,0.286933509866,0.335580097517,0.0786272979609,0.414207395478,0.256952799556,nan,nan,0.0,0.0,0.0,nan,nan,200.45984095,524.926407054,525.213195829,525.426440695,nan,nan
0,277,1923,6,1,34,23,1.0,0.0514419701458,-1.0,1,1.0,1.0,0.286637104116,0,0.0,0.0,0.28412140805,0.335403317365,0.0785394589171,0.413942776283,0.256863858448,nan,nan,0.0,0.0,0.0,nan,nan,200.45984095,525.926533637,526.213170741,526.426544755,nan,nan
0,278,1924,6,1,96,67,1.0,-0.25681952169,-0.503302481145,1,1.0,1.0,0.350491991965,0,0.0,0.0,0.307972623889,0.335227266054,0.0784521013639,0.413679367418,0.25677516469,nan,nan,0.0,0.0,0.0,nan,nan,200.45984095,526.926632565,527.277124557,527.426696997,nan,nan
0,279,1925,6,1,5,3,0.88714030954,0.190659852496,-1.0,1,1.0,1.0,0.462334693642,0,0.0,0.0,0.366487929908,0.33528217514,0.0783162054818,0.413598380622,0.256965969658,nan,nan,0.0,0.0,0.0,nan,nan,200.45984095,527.926786518,528.389121211,528.426812747,nan,nan
0,280,1926,6,1,268,188,0.35230222188,0.302367520405,0.645005310408,1,1.0,1.0,0.350190644385,0,0.0,0.0,0.387672443331,0.335737560511,0.0785435860554,0.414281146566,0.257193974456,nan,nan,0.0,0.0,0.0,nan,nan,200.45984095,528.926902267,529.277092912,529.426928496,nan,nan
0,281,1927,6,1,13,9,0.950262168777,0.154664060346,-1.0,1,1.0,1.0,0.310039291857,0,0.0,0.0,0.374188209961,0.335789178668,0.0784079447871,0.414197123455,0.257381233881,nan,nan,0.0,0.0,0.0,nan,nan,200.45984095,529.927026284,530.237065576,530.427054509,nan,nan
0,282,1928,6,1,202,142,1.0,-0.00802826454356,0.487596984314,1,1.0,1.0,0.349893573206,0,0.0,0.0,0.336707836483,0.33569754206,0.0782833234366,0.413980865496,0.257414218623,nan,nan,0.0,0.0,0.0,nan,nan,200.45984095,530.927150587,531.27704416,531.427184798,nan,nan
0,283,1929,6,1,282,198,0.208142307666,0.34807905204,0.609295500931,1,1.0,1.0,0.309731957503,0,0.0,0.0,0.323221607522,0.335747882596,0.0781489561355,0.413896838731,0.25759892646,nan,nan,0.0,0.0,0.0,nan,nan,200.45984095,531.927290569,532.237022527,532.427305679,nan,nan
0,284,1930,6,1,374,262,-0.132039125116,0.478634076427,-0.110628443238,1,1.0,1.0,0.285611895146,0,0.0,0.0,0.315079141951,0.335655953532,0.0780260347067,0.413681988239,0.257629918825,nan,nan,0.0,0.0,0.0,nan,nan,200.45984095,532.92741088,533.213022775,533.427443951,nan,nan
0,285,1931,6,1,254,178,0.503011129055,0.248947817922,0.65613358125,1,1.0,1.0,0.365432500606,0,0.0,0.0,0.320258784418,0.335479742059,0.077944932744,0.413424674803,0.257534809315,nan,nan,0.0,0.0,0.0,nan,nan,200.45984095,533.927550008,534.292982508,534.427565403,nan,nan
0,286,1932,6,0,61,42,1.0,-0.0921163965413,-1.0,0,0.0,1.0,0.541275204858,0,0.0,0.0,0.39743986687,0.335584839457,0.077828222484,0.413413061941,0.257756616973,nan,nan,0.0,0.0,0.0,nan,nan,200.45984095,534.927682292,535.468957497,535.42771907,nan,nan
0,287,1933,6,1,350,246,-0.175756816429,0.469490941964,0.138247479403,1,1.0,1.0,0.317178121302,0,0.0,0.0,0.407961942255,0.336304036539,0.0786350287563,0.414939065295,0.257669007783,nan,nan,0.0,0.0,0.0,nan,nan,200.45984095,535.927777515,536.244955636,536.427802603,nan,nan
0,288,1934,6,0,138,97,1.0,-0.29832987918,-0.0546508148191,0,0.0,1.0,0.405005676439,0,0.0,0.0,0.421153000866,0.336237395719,0.0785060041614,0.414743399881,0.257731391558,nan,nan,0.0,0.0,0.0,nan,nan,200.45984095,536.927931182,537.332936859,537.427964539,nan,nan
0,289,1935,6,1,230,161,0.760023132926,0.140224214653,0.61781109556,1,1.0,1.0,0.284880621359,0,0.0,0.0,0.3356881397,0.336476174472,0.0784739198955,0.414950094367,0.258002254576,nan,nan,0.0,0.0,0.0,nan,nan,200.45984095,537.928022698,538.21290332,538.428060616,nan,nan
0,290,1936,6,1,59,41,1.0,-0.0814409933332,-1.0,1,1.0,1.0,0.268787750276,0,0.0,0.0,0.319558016025,0.336297643146,0.078396601675,0.414694244821,0.257901041471,nan,nan,0.0,0.0,0.0,nan,nan,200.45984095,538.928177221,539.196964971,539.428198603,nan,nan
0,291,1937,6,1,281,197,0.218083397074,0.345068392493,0.612644422055,1,1.0,1.0,0.276596557582,0,0.0,0.0,0.276754976405,0.336064850412,0.0783613142896,0.414426164702,0.257703536123,nan,nan,0.0,0.0,0.0,nan,nan,200.45984095,539.928280711,540.204877269,540.42832205,nan,nan
0,292,1938,6,1,219,153,0.871627318206,0.0840881726889,0.576959667802,1,1.0,1.0,0.260428420966,0,0.0,0.0,0.268604242941,0.335860492018,0.0783039290222,0.41416442104,0.257556562995,nan,nan,0.0,0.0,0.0,nan,nan,200.45984095,540.928420124,541.188848545,541.428455761,nan,nan
0,293,1939,6,1,67,47,1.0,-0.12380466598,-1.0,1,1.0,1.0,0.276363348123,0,0.0,0.0,0.271129442224,0.335602163007,0.0782938474778,0.413896010485,0.257308315529,nan,nan,0.0,0.0,0.0,nan,nan,200.45984095,541.928531596,542.204894945,542.428570085,nan,nan
0,294,1940,6,1,368,258,-0.150457169737,0.477793263397,-0.0457341785459,1,1.0,1.0,0.315812221495,0,0.0,0.0,0.284201330195,0.335399982751,0.0782364451118,0.413636427863,0.25716353764,nan,nan,0.0,0.0,0.0,nan,nan,200.45984095,542.937015798,543.25282802,543.437031194,nan,nan
0,295,1941,6,1,38,26,1.0,0.0306259494545,-1.0,1,1.0,1.0,0.259717104025,0,0.0,0.0,0.283964224548,0.335333357713,0.0781116022867,0.41344496,0.257221755426,nan,nan,0.0,0.0,0.0,nan,nan,200.45984095,543.937130692,544.196847796,544.437163764,nan,nan
0,296,1942,6,1,210,147,0.958022500947,0.0359304984579,0.533421856807,1,1.0,1.0,0.259529225063,0,0.0,0.0,0.278352850194,0.33507703143,0.0781028575283,0.413179888958,0.256974173901,nan,nan,0.0,0.0,0.0,nan,nan,200.45984095,544.937238174,545.196767399,545.437281224,nan,nan
0,297,1943,6,1,343,241,-0.171388175652,0.463836419185,0.204822810802,1,1.0,1.0,0.243365079863,0,1.0,0.0,0.254203802984,0.334821802354,0.0780939492566,0.412915751611,0.256727853097,nan,nan,0.0,0.0,0.0,nan,nan,200.45984095,545.937381008,546.180746088,546.437406666,nan,nan
0,298,1948,6,1,434,305,0.213881816697,0.43461034373,-1.0,1,1.0,1.0,0.275242346572,1,0.0,0.0,0.259378883832,0.334513867261,0.0781421691246,0.412656036386,0.256371698137,138.761437477,443.0,0.281558783006,0.419268214519,-1.0,6.08231252298,1.97557146288,200.45984095,546.937497327,547.212739674,547.437546079,548.76271832,550.746298158
0,299,1949,6,1,242,170,0.632911854383,0.197161183215,0.645921401967,1,0.0,0.0,0.449736256851,0,0.0,0.0,0.322781227762,0.334314969541,0.0780862177739,0.412401187315,0.256228751767,nan,nan,0.0,0.0,0.0,nan,nan,200.45984095,551.95489024,552.404626497,552.454837498,nan,nan
0,300,1950,6,1,118,82,1.0,-0.308588151016,-0.261285249573,1,1.0,1.0,0.345661308151,0,0.0,0.0,0.356879970524,0.334700993913,0.0782398299286,0.412940823842,0.256461163985,nan,nan,0.0,0.0,0.0,nan,nan,200.45984095,552.95494726,553.300608568,553.454982042,nan,nan
0,301,1951,6,1,367,258,-0.15309091083,0.477560897992,-0.0350816338538,1,1.0,1.0,0.289493490942,0,0.0,0.0,0.361630351981,0.334737528294,0.0781118760337,0.412849404328,0.25662565226,nan,nan,0.0,0.0,0.0,nan,nan,200.45984095,553.955090379,554.24458387,554.455080115,nan,nan
0,302,1952,6,1,126,88,1.0,-0.311411754845,-0.177408431044,1,1.0,1.0,0.313385190675,0,0.0,0.0,0.316179996589,0.334587215878,0.0780254617149,0.412612677593,0.256561754163,nan,nan,0.0,0.0,0.0,nan,nan,200.45984095,554.95518161,555.2685668,555.455207839,nan,nan
0,303,1953,6,1,257,180,0.470472903111,0.261039853404,0.655841377839,1,1.0,1.0,0.241240822012,0,0.0,0.0,0.281373167876,0.334517010496,0.0779056955131,0.412422706009,0.256611314983,nan,nan,0.0,0.0,0.0,nan,nan,200.45984095,555.955310188,556.19655101,556.455337273,nan,nan
0,304,1954,6,1,140,98,1.0,-0.294209249228,-0.0345777392028,1,1.0,1.0,0.329165310133,0,0.0,0.0,0.294597107607,0.33420916829,0.0779607996992,0.412169967989,0.256248368591,nan,nan,0.0,0.0,0.0,nan,nan,200.45984095,556.955427363,557.284592673,557.455489229,nan,nan
0,305,1955,6,1,500,351,0.748145934353,0.260058294274,-1.0,1,1.0,1.0,0.328951487318,0,0.0,0.0,0.299785873154,0.334192576651,0.07783300491,0.412025581561,0.256359571741,nan,nan,0.0,0.0,0.0,nan,nan,200.45984095,557.955573618,558.284525105,558.455596426,nan,nan
0,306,1956,6,1,231,162,0.749609680972,0.145151270079,0.620821461523,1,1.0,1.0,0.304467641283,0,0.0,0.0,0.320861479578,0.334175392752,0.0777058826721,0.411881275424,0.25646951008,nan,nan,0.0,0.0,0.0,nan,nan,200.45984095,558.964021042,559.268488684,559.464077207,nan,nan
0,307,1957,6,1,456,320,0.383612429175,0.392633185378,-1.0,1,1.0,1.0,0.296322134556,0,0.0,0.0,0.309913754386,0.334078308597,0.0775973339426,0.411675642539,0.256480974654,nan,nan,0.0,0.0,0.0,nan,nan,200.45984095,559.964143349,560.260465484,560.464212628,nan,nan
0,308,1958,6,1,165,116,1.0,-0.205056383665,0.203745440608,1,1.0,1.0,0.360151648754,0,0.0,0.0,0.320313808198,0.333955324316,0.0775007162555,0.411456040572,0.256454608061,nan,nan,0.0,0.0,0.0,nan,nan,200.45984095,560.964291029,561.324442678,561.464312127,nan,nan
0,309,1959,6,1,51,35,1.0,-0.0385160204876,-1.0,1,1.0,1.0,0.271694884636,0,0.0,0.0,0.309389555982,0.334040377318,0.0773891509837,0.411429528301,0.256651226334,nan,nan,0.0,0.0,0.0,nan,nan,200.45984095,561.972718497,562.244413382,562.472767534,nan,nan
0,310,2000,6,1,369,259,-0.147694689129,0.477999187239,-0.0564338676883,1,1.0,1.0,0.239565021824,0,0.0,0.0,0.290470518405,0.333838611969,0.0773449222808,0.41118353425,0.256493689689,nan,nan,0.0,0.0,0.0,nan,nan,200.45984095,562.972852492,563.212417514,563.472886419,nan,nan
0,311,2001,6,1,266,187,0.373577590308,0.295207490188,0.648113769863,1,1.0,1.0,0.303404514445,0,0.0,0.0,0.271554806968,0.333534503614,0.0774048859469,0.410939389561,0.256129617667,nan,nan,0.0,0.0,0.0,nan,nan,200.45984095,563.97297822,564.276382735,564.473023836,nan,nan
0,312,2002,6,0,197,138,1.0,-0.035797595552,0.455774741445,0,1.0,0.0,0.287216991419,0,0.0,0.0,0.276728842563,0.33343762262,0.0772991635135,0.410736786133,0.256138459106,nan,nan,0.0,0.0,0.0,nan,nan,200.45984095,564.973157261,565.260374253,565.473188907,nan,nan
0,313,2003,6,1,354,248,-0.174470673547,0.472100788149,0.0988677247603,1,1.0,1.0,0.391047896817,0,0.0,0.0,0.327223134227,0.333289479571,0.0772193942136,0.410508873785,0.256070085358,nan,nan,0.0,0.0,0.0,nan,nan,200.45984095,565.97322768,566.364275577,566.473265028,nan,nan
0,314,2004,6,1,57,40,1.0,-0.0707313323512,-1.0,1,1.0,1.0,0.334603250492,0,0.0,0.0,0.33762271291,0.333474011256,0.0771648136022,0.410638824858,0.256309197653,nan,nan,0.0,0.0,0.0,nan,nan,200.45984095,566.981711882,567.316315133,567.481726137,nan,nan
0,315,2005,6,1,140,98,1.0,-0.294209249228,-0.0345777392028,1,1.0,1.0,0.31811181386,0,0.0,0.0,0.347920987057,0.333477607559,0.0770418679819,0.410519475541,0.256435739577,nan,nan,0.0,0.0,0.0,nan,nan,200.45984095,567.990177268,568.308289082,568.490198365,nan,nan
0,316,2006,6,1,65,45,1.0,-0.113312155659,-1.0,1,1.0,1.0,0.355974122416,0,0.0,0.0,0.336229728923,0.333428827261,0.0769243387624,0.410353166024,0.256504488499,nan,nan,0.0,0.0,0.0,nan,nan,200.45984095,569.040304449,569.396278572,569.540330963,nan,nan
0,317,2007,6,1,479,336,0.572572153349,0.331768222426,-1.0,1,1.0,1.0,0.355845258571,0,0.0,0.0,0.343310398282,0.333500173132,0.0768129644921,0.410313137624,0.25668720864,nan,nan,0.0,0.0,0.0,nan,nan,200.45984095,570.040413927,570.396259185,570.540450419,nan,nan
0,318,2008,6,1,436,306,0.228681708805,0.431413732101,-1.0,1,1.0,1.0,0.267697254429,0,0.0,0.0,0.326505545139,0.333570662361,0.0767019485766,0.410272610937,0.256868713784,nan,nan,0.0,0.0,0.0,nan,nan,200.45984095,571.04054279,571.308240045,571.540588691,nan,nan
0,319,2009,6,1,91,63,1.0,-0.237709898716,-0.562722318432,1,1.0,1.0,0.27555338759,0,0.0,0.0,0.29969863353,0.333363513279,0.0766700138684,0.410033527148,0.256693499411,nan,nan,0.0,0.0,0.0,nan,nan,200.45984095,572.040675931,572.316229319,572.54073181,nan,nan
0,320,2010,6,1,497,349,0.723174939644,0.271260599794,-1.0,1,1.0,1.0,0.267375379801,0,0.0,0.0,0.27020867394,0.333182290315,0.07661793173,0.409800222045,0.256564358585,nan,nan,0.0,0.0,0.0,nan,nan,200.45984095,573.040821045,573.308196425,573.540833304,nan,nan
0,321,2011,6,0,54,37,1.0,-0.0546292063271,-1.0,0,1.0,0.0,0.26725421357,0,0.0,0.0,0.270060993653,0.332976643719,0.0765862482978,0.409562892017,0.256390395421,nan,nan,0.0,0.0,0.0,nan,nan,200.45984095,574.040953045,574.308207259,574.540980129,nan,nan
0,322,2012,6,1,157,110,1.0,-0.240048375319,0.130425901556,1,1.0,1.0,0.323062808486,0,0.0,0.0,0.285897467285,0.332771900946,0.0765545247569,0.409326425703,0.256217376189,nan,nan,0.0,0.0,0.0,nan,nan,200.45984095,575.041042281,575.364105089,575.541109849,nan,nan
0,323,2013,6,1,205,144,1.0,0.00854800403903,0.505535240796,1,1.0,1.0,0.282988147344,0,0.0,0.0,0.291101723133,0.332741748485,0.0764374678951,0.40917921638,0.25630428059,nan,nan,0.0,0.0,0.0,nan,nan,200.45984095,576.041185114,576.324173261,576.541209062,nan,nan
0,324,2014,6,1,317,222,-0.077772836126,0.429938605076,0.420733606481,1,1.0,1.0,0.330818017479,0,0.0,0.0,0.31228965777,0.332587712568,0.0763690892968,0.408956801865,0.256218623272,nan,nan,0.0,0.0,0.0,nan,nan,200.45984095,577.041299153,577.37211717,577.5413633,nan,nan
0,325,2015,6,1,396,278,-0.0330153705648,0.473684876347,-0.363523780775,1,1.0,1.0,0.314665276092,0,0.0,0.0,0.309490480305,0.332582250546,0.0762512078747,0.408833458421,0.256331042672,nan,nan,0.0,0.0,0.0,nan,nan,200.45984095,578.041436855,578.356102131,578.541464794,nan,nan
0,326,2016,6,1,144,101,1.0,-0.284423189345,0.00519445478499,1,1.0,1.0,0.434492119588,0,0.0,0.0,0.359991804386,0.332527121394,0.076140274631,0.408667396025,0.256386846763,nan,nan,0.0,0.0,0.0,nan,nan,200.45984095,579.041572276,579.476064395,579.541588241,nan,nan
0,327,2017,6,1,15,10,0.965734432428,0.145352784795,-1.0,1,1.0,1.0,0.354019212071,0,0.0,0.0,0.367725535917,0.332839897462,0.0762322277475,0.40907212521,0.256607669715,nan,nan,0.0,0.0,0.0,nan,nan,200.45984095,580.050028253,580.404047465,580.55006161,nan,nan
0,328,2018,6,1,278,195,0.248285521772,0.335802812283,0.621962573991,1,1.0,1.0,0.289547374239,0,0.0,0.0,0.359352901966,0.332904666009,0.0761245583598,0.409029224368,0.256780107649,nan,nan,0.0,0.0,0.0,nan,nan,200.45984095,581.058485941,581.348033315,581.558539539,nan,nan
0,329,2019,6,1,355,249,-0.173737462994,0.472683863687,0.0888799762457,1,1.0,1.0,0.273411168484,0,0.0,0.0,0.305659251598,0.332772479143,0.0760460035177,0.408818482661,0.256726475626,nan,nan,0.0,0.0,0.0,nan,nan,200.45984095,582.058611669,582.332022837,582.558643315,nan,nan
0,330,2020,6,1,34,23,1.0,0.0514419701458,-1.0,1,1.0,1.0,0.272924793186,0,0.0,0.0,0.278627778636,0.332592049628,0.0760006259014,0.408592675529,0.256591423726,nan,nan,0.0,0.0,0.0,nan,nan,200.45984095,583.067059378,583.339984172,583.567096726,nan,nan
0,331,2021,6,1,84,59,1.0,-0.20765784414,-0.652191087791,1,1.0,1.0,0.352430366678,0,0.0,0.0,0.299588776116,0.33241123976,0.0759562213078,0.408367461068,0.256455018452,nan,nan,0.0,0.0,0.0,nan,nan,200.45984095,584.075531036,584.427961403,584.575555554,nan,nan
0,332,2022,6,1,447,314,0.312467642152,0.411646472288,-1.0,1,1.0,1.0,0.279963838402,0,0.0,0.0,0.301772999422,0.332471720506,0.0758493547509,0.408321075257,0.256622365755,nan,nan,0.0,0.0,0.0,nan,nan,200.45984095,585.083979316,585.363943154,585.584028352,nan,nan
0,333,2023,6,1,17,11,0.981069150956,0.135921910835,-1.0,1,1.0,1.0,0.279790784465,0,0.0,0.0,0.304061663182,0.332313564234,0.0757896784857,0.40810324272,0.256523885749,nan,nan,0.0,0.0,0.0,nan,nan,200.45984095,586.084129847,586.363920631,586.584148093,nan,nan
0,334,2024,6,1,69,48,1.0,-0.134207199312,-0.939648005704,1,1.0,1.0,0.295365063706,0,0.0,0.0,0.285039895525,0.332155838169,0.0757303454586,0.407886183628,0.25642549271,nan,nan,0.0,0.0,0.0,nan,nan,200.45984095,587.092584399,587.387949463,587.592611768,nan,nan
0,335,2025,6,1,260,182,0.438016636947,0.272781976488,0.654406567654,1,1.0,1.0,0.407171843341,0,0.0,0.0,0.327442563837,0.33204568615,0.0756436035239,0.407689289673,0.256402082626,nan,nan,0.0,0.0,0.0,nan,nan,200.45984095,588.092715258,588.499887102,588.592730653,nan,nan
0,336,2026,6,1,128,90,1.0,-0.310663006781,-0.156689791083,1,1.0,1.0,0.446703965077,0,0.0,0.0,0.383080290708,0.332269943335,0.0756417317452,0.40791167508,0.25662821159,nan,nan,0.0,0.0,0.0,nan,nan,200.45984095,589.101168385,589.54787235,589.601214285,nan,nan
0,337,2027,6,1,178,125,1.0,-0.139919655122,0.315097826042,1,1.0,1.0,0.342205647379,0,0.0,0.0,0.398693818599,0.332610520781,0.0757858855644,0.408396406345,0.256824635217,nan,nan,0.0,0.0,0.0,nan,nan,200.45984095,590.109620085,590.451825733,590.609671973,nan,nan
0,338,2028,6,0,400,281,-0.0107874812989,0.471427301814,-0.412692688905,0,0.0,1.0,0.438054691767,0,0.0,0.0,0.408988101408,0.332638992967,0.0756751597705,0.408314152737,0.256963833196,nan,nan,0.0,0.0,0.0,nan,nan,200.45984095,591.109778885,591.547833576,591.609805969,nan,nan
0,339,2029,6,1,505,355,0.789537956352,0.240683140511,-1.0,1,1.0,1.0,0.317551598186,0,0.0,0.0,0.365937312444,0.332950873732,0.0757797247154,0.408730598448,0.257171149017,nan,nan,0.0,0.0,0.0,nan,nan,200.45984095,592.118236002,592.4357876,592.618248261,nan,nan
0,340,2030,6,1,105,73,1.0,-0.285049837405,-0.401580786678,1,1.0,1.0,0.281932147918,0,0.0,0.0,0.345846145957,0.332905448141,0.0756724811999,0.408577929341,0.257232966941,nan,nan,0.0,0.0,0.0,nan,nan,200.45984095,593.15383179,593.435763937,593.660040062,nan,nan
0,341,2031,6,1,166,116,1.0,-0.20036215083,0.21267421211,1,1.0,1.0,0.291606914951,0,0.0,0.0,0.297030220351,0.33275552667,0.0756115189375,0.408367045607,0.257144007732,nan,nan,0.0,0.0,0.0,nan,nan,200.45984095,594.160146403,594.451753318,594.660167215,nan,nan
0,342,2032,6,1,375,263,-0.128556699755,0.478682433309,-0.121605159467,1,1.0,1.0,0.323491309304,0,0.0,0.0,0.299010124058,0.332634856254,0.0755333499876,0.408168206242,0.257101506266,nan,nan,0.0,0.0,0.0,nan,nan,200.45984095,595.160278688,595.483769997,595.660289522,nan,nan
0,343,2033,6,1,286,201,0.169078956243,0.359734776014,0.594698705761,1,1.0,1.0,0.243312907172,0,0.0,0.0,0.286137043809,0.332608120737,0.0754244560962,0.408032576833,0.25718366464,nan,nan,0.0,0.0,0.0,nan,nan,200.45984095,596.160396148,596.403709055,596.660419241,nan,nan
0,344,2034,6,1,352,247,-0.17544712699,0.470851603012,0.118673592819,1,1.0,1.0,0.267188926227,0,0.0,0.0,0.277997714235,0.332347784837,0.0754681521439,0.407815936981,0.256879632693,nan,nan,0.0,0.0,0.0,nan,nan,200.45984095,597.160524727,597.427713653,597.660557798,nan,nan
0,345,2035,6,1,59,41,1.0,-0.0814409933332,-1.0,1,1.0,1.0,0.266694853315,0,0.0,0.0,0.259065562238,0.33215836955,0.0754399872504,0.407598356801,0.2567183823,nan,nan,0.0,0.0,0.0,nan,nan,200.45984095,598.168977283,598.435672136,598.669003227,nan,nan
0,346,2036,6,1,108,75,1.0,-0.292426609412,-0.368663285579,1,1.0,1.0,0.290229611332,0,0.0,0.0,0.274704463625,0.331968620228,0.0754127384573,0.407381358685,0.256555881771,nan,nan,0.0,0.0,0.0,nan,nan,200.45984095,599.177434971,599.467664582,599.677497407,nan,nan
0,347,2037,6,1,231,162,0.749609680972,0.145151270079,0.620821461523,1,1.0,1.0,0.322063543601,0,0.0,0.0,0.292996002749,0.331847987254,0.0753370096263,0.40718499688,0.256510977628,nan,nan,0.0,0.0,0.0,nan,nan,200.45984095,600.177588638,600.499652182,600.677605174,nan,nan
0,348,2038,6,1,355,249,-0.173737462994,0.472683863687,0.0888799762457,1,1.0,1.0,0.27360817045,0,0.0,0.0,0.295300441794,0.33181979001,0.0752302049403,0.40704999495,0.25658958507,nan,nan,0.0,0.0,0.0,nan,nan,200.45984095,601.186027225,601.459635395,601.686056875,nan,nan
0,349,2039,6,0,5,3,0.88714030954,0.190659852496,-1.0,0,0.0,1.0,0.417388579808,0,0.0,0.0,0.33768676462,0.331652515241,0.0751866339056,0.406839149147,0.256465881336,nan,nan,0.0,0.0,0.0,nan,nan,200.45984095,602.18621995,602.60360853,602.686216244,nan,nan
0,350,2040,6,1,125,87,1.0,-0.311567427947,-0.187805059354,1,1.0,1.0,0.288947245106,0,0.0,0.0,0.326647998455,0.331898177317,0.0752185739985,0.407116751316,0.256679603319,nan,nan,0.0,0.0,0.0,nan,nan,200.45984095,603.194621759,603.483569004,603.694652835,nan,nan
0,351,2041,6,1,448,315,0.32026743599,0.409662251776,-1.0,1,1.0,1.0,0.296816207701,0,0.0,0.0,0.334384010872,0.331775460368,0.0751460204045,0.406921480773,0.256629439964,nan,nan,0.0,0.0,0.0,nan,nan,200.45984095,604.194742355,604.491558563,604.694779988,nan,nan
0,352,2042,6,1,258,181,0.459642287315,0.26499291187,0.655490062901,1,1.0,1.0,0.27265138505,0,0.0,0.0,0.286138279286,0.331675861358,0.0750620294556,0.406737890813,0.256613831902,nan,nan,0.0,0.0,0.0,nan,nan,200.45984095,605.194872359,605.467523744,605.694898588,nan,nan
0,353,2043,6,0,109,76,1.0,-0.294638327523,-0.357773695079,0,0.0,1.0,0.440494267037,0,0.0,0.0,0.336653953263,0.331508178187,0.0750211370358,0.406529315222,0.256487041151,nan,nan,0.0,0.0,0.0,nan,nan,200.45984095,606.195024316,606.635518583,606.695047124,nan,nan
0,354,2044,6,1,236,165,0.697004556276,0.169301754335,0.634065852989,1,1.0,1.0,0.336371136829,0,0.0,0.0,0.349838929639,0.331816920648,0.0751384088623,0.40695532951,0.256678511786,nan,nan,0.0,0.0,0.0,nan,nan,200.45984095,607.195126951,607.531498088,607.695147478,nan,nan
0,355,2045,6,1,350,246,-0.175756816429,0.469490941964,0.138247479403,1,1.0,1.0,0.312200897606,0,0.0,0.0,0.363022100491,0.331829785665,0.0750325954401,0.406862381105,0.256797190225,nan,nan,0.0,0.0,0.0,nan,nan,200.45984095,608.195262942,608.50746384,608.695295728,nan,nan
0,356,2046,6,1,415,291,0.0813077335083,0.459153678902,-0.614968023274,1,1.0,1.0,0.256069287658,0,0.0,0.0,0.301547107364,0.331774493023,0.0749340630698,0.406708556093,0.256840429953,nan,nan,0.0,0.0,0.0,nan,nan,200.45984095,609.19538753,609.451456817,609.695399504,nan,nan
0,357,2047,6,1,78,54,1.0,-0.179467652321,-0.739907630878,1,1.0,1.0,0.25563508505,0,0.0,0.0,0.274635090105,0.331561837952,0.0749359385756,0.406497776527,0.256625899376,nan,nan,0.0,0.0,0.0,nan,nan,200.45984095,610.203821554,610.459456639,610.703893684,nan,nan
0,358,2048,6,1,169,118,1.0,-0.185917379452,0.239118302078,1,1.0,1.0,0.223490967415,0,1.0,0.0,0.245065113374,0.331349157972,0.0749384304632,0.406287588435,0.256410727508,nan,nan,0.0,0.0,0.0,nan,nan,200.45984095,611.203960967,611.427451934,611.704026824,nan,nan
0,359,2053,6,1,90,63,1.0,-0.233635786423,-0.574971871003,1,1.0,1.0,0.343314674683,1,0.0,0.0,0.274146909049,0.33104787811,0.0750498939885,0.406097772098,0.255997984121,50.614427099,56.0,1.0,-0.0653675053377,-1.0,-23.895677099,1.62550569093,200.45984095,612.20408869,612.547403365,612.704118625,614.029303411,615.662822324
0,360,2054,6,1,142,99,1.0,-0.289568116499,-0.0146273521697,1,1.0,1.0,0.355946752941,0,0.0,0.0,0.30758413168,0.331082047459,0.0749480833039,0.406030130763,0.256133964156,nan,nan,0.0,0.0,0.0,nan,nan,200.45984095,616.871344557,617.22729131,617.37138276,nan,nan
0,361,2055,6,1,416,292,0.087881616042,0.458117504295,-0.630165317015,1,1.0,1.0,0.299475307344,0,0.0,0.0,0.332912244989,0.331151116086,0.0748553566284,0.406006472714,0.256295759457,nan,nan,0.0,0.0,0.0,nan,nan,200.45984095,617.879801105,618.179276412,618.379841589,nan,nan
0,362,2056,6,1,248,174,0.568115903494,0.223728204869,0.653295769881,1,1.0,1.0,0.291006500833,0,0.0,0.0,0.315476187039,0.331063371463,0.0747701439376,0.405833515401,0.256293227526,nan,nan,0.0,0.0,0.0,nan,nan,200.45984095,618.888266491,619.179272991,619.388297566,nan,nan
0,363,2057,6,1,452,317,0.351738073422,0.401406211611,-1.0,1,1.0,1.0,0.282825642033,0,0.0,0.0,0.291102483403,0.330952717124,0.0746963926227,0.405649109747,0.256256324502,nan,nan,0.0,0.0,0.0,nan,nan,200.45984095,619.888395925,620.171221567,620.388427285,nan,nan
0,364,2058,6,1,340,239,-0.166837174664,0.460980112934,0.232376404312,1,1.0,1.0,0.314692075131,0,0.0,0.0,0.296174739332,0.33082013565,0.0746360743036,0.405456209954,0.256184061347,nan,nan,0.0,0.0,0.0,nan,nan,200.45984095,620.888523078,621.203215153,621.38854389,nan,nan
0,365,2059,6,1,14,9,0.95801504718,0.150023555696,-1.0,1,1.0,1.0,0.306514637778,0,0.0,0.0,0.301344118314,0.330775827792,0.0745382622075,0.405314089999,0.256237565584,nan,nan,0.0,0.0,0.0,nan,nan,200.45984095,621.888660209,622.195174847,622.388670188,nan,nan
0,366,2100,6,1,392,275,-0.0541067903503,0.475522277549,-0.315549842675,1,1.0,1.0,0.346372340107,0,0.0,0.0,0.322526351005,0.330709358778,0.074446886734,0.405156245512,0.256262472044,nan,nan,0.0,0.0,0.0,nan,nan,200.45984095,622.888780806,623.235153146,623.388809885,nan,nan
0,367,2101,6,1,31,21,1.0,0.0668515730764,-1.0,1,1.0,1.0,0.266261505662,0,0.0,0.0,0.306382827849,0.330752153809,0.0743496093343,0.405101763143,0.256402544475,nan,nan,0.0,0.0,0.0,nan,nan,200.45984095,623.888894274,624.15515578,624.388950153,nan,nan
0,368,2102,6,1,498,350,0.731507943485,0.267561876527,-1.0,1,1.0,1.0,0.24211008288,0,0.0,0.0,0.284914642883,0.330576429972,0.0743243148142,0.404900744786,0.256252115158,nan,nan,0.0,0.0,0.0,nan,nan,200.45984095,624.889036823,625.131146905,625.38905735,nan,nan
0,369,2103,6,1,403,283,0.00657627305109,0.469456436931,-0.450524507496,1,1.0,1.0,0.265667933971,0,0.0,0.0,0.258013174171,0.33033603229,0.0743659998575,0.404702032147,0.255970032432,nan,nan,0.0,0.0,0.0,nan,nan,200.45984095,625.897489949,626.163157883,626.397520739,nan,nan
0,370,2104,6,1,51,35,1.0,-0.0385160204876,-1.0,1,1.0,1.0,0.25715949852,0,1.0,0.0,0.25497917179,0.330160779991,0.0743412213124,0.404502001303,0.255819558678,nan,nan,0.0,0.0,0.0,nan,nan,200.45984095,626.905944501,627.163103999,627.405982134,nan,nan
0,371,2109,6,1,494,347,0.698129958021,0.282143999684,-1.0,1,1.0,1.0,0.296712147305,1,0.0,0.0,0.273179859932,0.32996347923,0.0743373705735,0.404300849804,0.255626108657,96.6452782103,503.0,0.773020196022,0.248538461814,-1.0,6.01097178973,1.95886677364,200.45984095,627.914385653,628.2110978,628.414438966,629.739626888,631.706524559
0,372,2110,6,0,54,37,1.0,-0.0546292063271,-1.0,0,1.0,0.0,0.311575394822,0,0.0,0.0,0.288482346882,0.329873852998,0.0742571331483,0.404130986147,0.25561671985,nan,nan,0.0,0.0,0.0,nan,nan,200.45984095,632.923397284,633.234972679,633.423432922,nan,nan
0,373,2111,6,1,6,4,0.895129075663,0.186272780825,-1.0,1,1.0,1.0,0.327451306861,0,0.0,0.0,0.311912949663,0.329824663595,0.0741633102412,0.403987973836,0.255661353354,nan,nan,0.0,0.0,0.0,nan,nan,200.45984095,633.923494217,634.250945524,634.423532135,nan,nan
0,374,2112,6,1,304,213,0.0113092810281,0.404708921832,0.506160370659,1,1.0,1.0,0.247271764325,0,0.0,0.0,0.295432822003,0.329818300708,0.0740639305701,0.403882231278,0.255754370138,nan,nan,0.0,0.0,0.0,nan,nan,200.45984095,634.923632775,635.170904539,635.423653587,nan,nan
0,375,2113,6,1,144,101,1.0,-0.284423189345,0.00519445478499,1,1.0,1.0,0.35954781319,0,0.0,0.0,0.311423628125,0.329597588044,0.074087577518,0.403685165562,0.255510010526,nan,nan,0.0,0.0,0.0,nan,nan,200.45984095,635.963352205,636.322900018,636.465451659,nan,nan
0,376,2114,6,0,387,272,-0.0787219327085,0.477231755363,-0.256974454483,0,0.0,1.0,0.469338386785,0,0.0,0.0,0.358719321433,0.329677455311,0.0740048481877,0.403682303499,0.255672607123,nan,nan,0.0,0.0,0.0,nan,nan,200.45984095,636.965535763,637.43487415,637.46560219,nan,nan
0,377,2115,6,1,85,59,1.0,-0.212156452387,-0.638781227021,1,1.0,1.0,0.333198862383,0,0.0,0.0,0.387361687453,0.330048893959,0.0742555675888,0.404304461547,0.25579332637,nan,nan,0.0,0.0,0.0,nan,nan,200.45984095,637.965661491,638.298860353,638.465714519,nan,nan
0,378,2116,6,1,328,230,-0.132159558243,0.44685796506,0.336046158271,1,1.0,1.0,0.324679308804,0,0.0,0.0,0.375738852657,0.330057249312,0.0741571969948,0.404214446307,0.255900052318,nan,nan,0.0,0.0,0.0,nan,nan,200.45984095,638.974150539,639.298829848,639.474170211,nan,nan
0,379,2117,6,1,142,99,1.0,-0.289568116499,-0.0146273521697,1,1.0,1.0,0.356529491488,0,0.0,0.0,0.338135887558,0.330043021957,0.0740595557082,0.404102577665,0.255983466248,nan,nan,0.0,0.0,0.0,nan,nan,200.45984095,639.974297649,640.330827141,640.47430107,nan,nan
0,380,2118,6,0,266,187,0.373577590308,0.295207490188,0.648113769863,0,0.0,1.0,0.444363888586,0,0.0,0.0,0.375190896293,0.330112907101,0.0739742664968,0.404087173597,0.256138640604,nan,nan,0.0,0.0,0.0,nan,nan,200.45984095,640.974421952,641.41878584,641.474448751,nan,nan
0,381,2119,6,1,159,111,1.0,-0.231765974528,0.149055008463,1,1.0,1.0,0.356242113281,0,0.0,0.0,0.385711831118,0.330413567578,0.074108379797,0.404521947375,0.256305187781,nan,nan,0.0,0.0,0.0,nan,nan,200.45984095,641.974529433,642.330771547,642.474543973,nan,nan
0,382,2120,6,1,508,357,0.814199817736,0.228638933499,-1.0,1,1.0,1.0,0.284081209218,0,0.0,0.0,0.361562403695,0.330481359037,0.0740228578259,0.404504216863,0.256458501211,nan,nan,0.0,0.0,0.0,nan,nan,200.45984095,642.974675118,643.258756327,643.47466799,nan,nan
0,383,2121,6,1,389,273,-0.0691208065164,0.476626077068,-0.280234315682,1,1.0,1.0,0.275964497589,0,0.0,0.0,0.305429273363,0.330359892676,0.073963915852,0.404323808528,0.256395976824,nan,nan,0.0,0.0,0.0,nan,nan,200.45984095,643.974759792,644.250724289,644.47480056,nan,nan
0,384,2122,6,1,438,307,0.243622561222,0.428096439079,-1.0,1,1.0,1.0,0.283804665087,0,0.0,0.0,0.281283457298,0.330217868146,0.0739194321396,0.404137300285,0.256298436006,nan,nan,0.0,0.0,0.0,nan,nan,200.45984095,644.974890651,645.258695316,645.474929139,nan,nan
0,385,2123,6,1,243,170,0.622151010882,0.20168048164,0.647463484622,1,1.0,1.0,0.307669565547,0,0.0,0.0,0.289146242741,0.330097000429,0.073861006731,0.40395800716,0.256235993698,nan,nan,0.0,0.0,0.0,nan,nan,200.45984095,645.975027213,646.282696778,646.475053727,nan,nan
0,386,2124,6,1,109,76,1.0,-0.294638327523,-0.357773695079,1,1.0,1.0,0.299522633664,0,0.0,0.0,0.296998954766,0.330038747352,0.0737738530469,0.403812600399,0.256264894305,nan,nan,0.0,0.0,0.0,nan,nan,200.45984095,646.975155221,647.274677855,647.475183731,nan,nan
0,387,2125,6,1,18,12,0.988682696815,0.131162580546,-1.0,1,1.0,1.0,0.259367574938,0,0.0,0.0,0.28885325805,0.329959690062,0.0736945568733,0.403654246936,0.256265133189,nan,nan,0.0,0.0,0.0,nan,nan,200.45984095,647.975279238,648.234646813,648.475301476,nan,nan
0,388,2126,6,0,178,125,1.0,-0.139919655122,0.315097826042,0,1.0,0.0,0.283201399958,0,0.0,0.0,0.280697202853,0.329777281496,0.0736864827821,0.403463764278,0.256090798714,nan,nan,0.0,0.0,0.0,nan,nan,200.45984095,648.975438037,649.258639437,649.475465122,nan,nan
0,389,2127,6,1,285,200,0.178734351563,0.356878681702,0.598527012995,1,1.0,1.0,0.243095092941,0,0.0,0.0,0.261888022612,0.329657240564,0.0736293438843,0.403286584449,0.25602789668,nan,nan,0.0,0.0,0.0,nan,nan,200.45984095,649.975536966,650.218632059,650.47557916,nan,nan
