block,trial,freq_trials,correct_response,actual_response,acc,rts,probe_trials,fast_rt_trigger,slow_rt_trigger,rt_triggered,rts_runningavg,rts_runningstd,rts_runningfastthresh,rts_runningslowthresh,rts_runningstd,rts_trailingavg,trials_colorind,trials_colorrgb0,trials_colorrgb1,trials_colorrgb2,wm_respdeg,wm_respdeg_in_colorspace,wm_respcolorminusorigcolor,wm_resptexind,wm_resptexrgb0,wm_resptexrgb1,wm_resptexrgb2,wm_rts,time_blockstart,time_encarray_offset,time_encarray_onset,time_response,time_iti_offset,time_iti_onset,time_memprobe_offset,time_memprobe_onset
1,1,1,1,1.0,1.0,0.403904642793,0,nan,nan,nan,nan,nan,nan,nan,nan,nan,394,-0.0437090198531,0.474655926729,-0.339401417396,nan,nan,nan,nan,nan,nan,nan,nan,3179.00361903,3180.02372413,nan,3180.42762877,nan,nan,nan,nan
1,2,1,1,1.0,1.0,0.398080664454,0,nan,nan,nan,nan,nan,nan,nan,nan,nan,351,-0.175686286722,0.4701852659,0.128489978773,nan,nan,nan,nan,nan,nan,nan,nan,3179.00361903,3180.96553823,nan,3181.36361889,nan,nan,nan,nan
1,3,1,1,1.0,1.0,0.392257541418,0,nan,nan,nan,nan,nan,nan,nan,nan,nan,467,0.473005185182,0.365775667588,-1.0,nan,nan,nan,nan,nan,nan,nan,nan,3179.00361903,3181.90732895,nan,3182.29958649,nan,nan,nan,nan
1,4,1,1,1.0,1.0,0.266456701676,0,nan,nan,nan,nan,nan,nan,nan,nan,nan,75,1.0,-0.164714458691,-0.791355921409,nan,nan,nan,nan,nan,nan,nan,nan,3179.00361903,3182.84911568,nan,3183.11557239,nan,nan,nan,nan
1,5,1,1,1.0,1.0,0.284644802334,0,nan,nan,nan,nan,nan,nan,nan,nan,nan,497,0.723174939644,0.271260599794,-1.0,nan,nan,nan,nan,nan,nan,nan,nan,3179.00361903,3183.79090241,nan,3184.07554722,nan,nan,nan,nan
1,6,1,1,1.0,1.0,0.270850058994,0,nan,nan,nan,nan,nan,nan,nan,nan,nan,268,0.35230222188,0.302367520405,0.645005310408,nan,nan,nan,nan,nan,nan,nan,nan,3179.00361903,3184.73269086,nan,3185.00354091,nan,nan,nan,nan
1,7,1,1,1.0,1.0,0.21705124469,0,nan,nan,nan,nan,nan,nan,nan,nan,nan,121,1.0,-0.310732805591,-0.229640808446,nan,nan,nan,nan,nan,nan,nan,nan,3179.00361903,3185.67446875,nan,3185.89151999,nan,nan,nan,nan
1,8,1,1,1.0,1.0,0.275245697354,0,nan,nan,nan,nan,nan,nan,nan,nan,nan,1,0.854939129564,0.207877072944,-1.0,nan,nan,nan,nan,nan,nan,nan,nan,3179.00361903,3186.6162609,nan,3186.89150659,nan,nan,nan,nan
1,9,1,1,1.0,1.0,0.269454505178,0,nan,nan,nan,nan,nan,nan,nan,nan,nan,310,-0.032854544558,0.417080732083,0.468828018046,nan,nan,nan,nan,nan,nan,nan,nan,3179.00361903,3187.55804278,nan,3187.82749729,nan,nan,nan,nan
1,10,1,1,1.0,1.0,0.223631587578,0,nan,nan,nan,nan,nan,nan,nan,nan,nan,51,1.0,-0.0385160204876,-1.0,nan,nan,nan,nan,nan,nan,nan,nan,3179.00361903,3188.49984747,nan,3188.72347906,nan,nan,nan,nan
1,11,1,1,1.0,1.0,0.233838089509,0,nan,nan,nan,nan,nan,nan,nan,nan,nan,413,0.0683106243366,0.461143133648,-0.585495598612,nan,nan,nan,nan,nan,nan,nan,nan,3179.00361903,3189.44163363,nan,3189.67547172,nan,nan,nan,nan
1,12,1,1,1.0,1.0,0.220021393732,0,nan,nan,nan,nan,nan,nan,nan,nan,nan,497,0.723174939644,0.271260599794,-1.0,nan,nan,nan,nan,nan,nan,nan,nan,3179.00361903,3190.38341922,nan,3190.60344062,nan,nan,nan,nan
1,13,1,1,1.0,1.0,0.0942225495819,0,nan,nan,nan,nan,nan,nan,nan,nan,nan,186,1.0,-0.0967386681424,0.377881386018,nan,nan,nan,nan,nan,nan,nan,nan,3179.00361903,3191.3252071,nan,3191.41942964,nan,nan,nan,nan
1,14,1,1,1.0,1.0,0.184452304267,0,nan,nan,nan,nan,nan,nan,nan,nan,nan,446,0.304696255059,0.41359904426,-1.0,nan,nan,nan,nan,nan,nan,nan,nan,3179.00361903,3192.26695904,nan,3192.45141135,nan,nan,nan,nan
1,15,1,1,1.0,1.0,0.226611144841,0,nan,nan,nan,nan,nan,nan,nan,nan,nan,325,-0.119404900653,0.442631039184,0.360186421743,nan,nan,nan,nan,nan,nan,nan,nan,3179.00361903,3193.20878084,nan,3193.43539199,nan,nan,nan,nan
1,16,1,1,1.0,1.0,0.20480686333,0,nan,nan,nan,nan,nan,nan,nan,nan,nan,1,0.854939129564,0.207877072944,-1.0,nan,nan,nan,nan,nan,nan,nan,nan,3179.00361903,3194.15057499,nan,3194.35538185,nan,nan,nan,nan
1,17,0,0,1.0,0.0,0.0950410654768,0,0.0,0.0,0.0,nan,nan,nan,nan,nan,nan,58,1.0,-0.0760896648475,-1.0,nan,nan,nan,nan,nan,nan,nan,nan,3179.00361903,3195.09235231,nan,3195.18739337,nan,nan,nan,nan
1,18,1,1,1.0,1.0,0.521189325489,0,nan,nan,nan,nan,nan,nan,nan,nan,nan,11,0.934659501434,0.163852895862,-1.0,nan,nan,nan,nan,nan,nan,nan,nan,3179.00361903,3196.03413961,nan,3196.55532893,nan,nan,nan,nan
1,19,1,1,1.0,1.0,0.43538371881,1,nan,nan,nan,nan,nan,nan,nan,nan,nan,330,-0.139766326074,0.449518327743,0.319540245599,-159.281460096,249.281460096,17.2502100955,355.0,-0.173737462994,0.472683863687,0.0888799762457,2.01723245275,3179.00361903,3196.97593204,3197.78434459,3197.41131576,3200.83478809,3201.84116744,3198.80110293,3200.82636032
1,20,1,1,1.0,1.0,0.578312665573,0,nan,nan,nan,nan,nan,nan,nan,nan,nan,106,1.0,-0.287630069369,-0.390564445695,nan,nan,nan,nan,nan,nan,nan,nan,3179.00361903,3201.98489922,nan,3202.56321189,nan,nan,nan,nan
1,21,1,1,1.0,1.0,0.324516303022,0,nan,nan,nan,nan,nan,nan,nan,nan,nan,350,-0.175756816429,0.469490941964,0.138247479403,nan,nan,nan,nan,nan,nan,nan,nan,3179.00361903,3202.92669166,nan,3203.25120796,nan,nan,nan,nan
1,22,0,0,0.0,1.0,0.438716797507,0,nan,nan,nan,nan,nan,nan,nan,nan,nan,155,1.0,-0.2479831371,0.111611878621,nan,nan,nan,nan,nan,nan,nan,nan,3179.00361903,3203.8684915,nan,3204.3072083,nan,nan,nan,nan
1,23,1,1,1.0,1.0,0.368904323434,0,nan,nan,nan,nan,nan,nan,nan,nan,nan,458,0.399688045963,0.388050214986,-1.0,nan,nan,nan,nan,nan,nan,nan,nan,3179.00361903,3204.81026968,nan,3205.179174,nan,nan,nan,nan
1,24,1,1,1.0,1.0,0.371099006501,0,nan,nan,nan,nan,nan,nan,nan,nan,nan,505,0.789537956352,0.240683140511,-1.0,nan,nan,nan,nan,nan,nan,nan,nan,3179.00361903,3205.75207808,nan,3206.12317708,nan,nan,nan,nan
1,25,1,1,1.0,1.0,0.333322689752,0,nan,nan,nan,nan,nan,nan,nan,nan,nan,325,-0.119404900653,0.442631039184,0.360186421743,nan,nan,nan,nan,nan,nan,nan,nan,3179.00361903,3206.69386424,nan,3207.02718693,nan,nan,nan,nan
1,26,1,1,1.0,1.0,0.335188940051,0,nan,nan,nan,nan,nan,nan,nan,nan,nan,281,0.218083397074,0.345068392493,0.612644422055,nan,nan,nan,nan,nan,nan,nan,nan,3179.00361903,3207.64394931,nan,3207.97913825,nan,nan,nan,nan
1,27,1,1,1.0,1.0,0.505354137043,0,nan,nan,nan,nan,nan,nan,nan,nan,nan,104,1.0,-0.282351481576,-0.412644567278,nan,nan,nan,nan,nan,nan,nan,nan,3179.00361903,3208.58579819,nan,3209.09115233,nan,nan,nan,nan
1,28,0,0,0.0,1.0,0.427582872217,0,nan,nan,nan,nan,nan,nan,nan,nan,nan,245,0.600577697281,0.210610106048,0.650172825369,nan,nan,nan,nan,nan,nan,nan,nan,3179.00361903,3209.52750424,nan,3209.95508711,nan,nan,nan,nan
1,29,1,1,1.0,1.0,0.413743083598,0,nan,nan,nan,nan,nan,nan,nan,nan,nan,90,1.0,-0.233635786423,-0.574971871003,nan,nan,nan,nan,nan,nan,nan,nan,3179.00361903,3210.46933744,nan,3210.88308053,nan,nan,nan,nan
1,30,1,1,1.0,1.0,0.303927393514,0,nan,nan,nan,nan,nan,nan,nan,nan,nan,355,-0.173737462994,0.472683863687,0.0888799762457,nan,nan,nan,nan,nan,nan,nan,nan,3179.00361903,3211.4111256,nan,3211.71505299,nan,nan,nan,nan
1,31,1,1,1.0,1.0,0.266145089758,0,nan,nan,nan,nan,nan,nan,nan,nan,nan,291,0.122027637739,0.373441943191,0.573791926984,nan,nan,nan,nan,nan,nan,nan,nan,3179.00361903,3212.35291461,nan,3212.6190597,nan,nan,nan,nan
1,32,1,1,1.0,1.0,0.284345164546,0,nan,nan,nan,nan,nan,nan,nan,nan,nan,445,0.296953900578,0.415520102116,-1.0,nan,nan,nan,nan,nan,nan,nan,nan,3179.00361903,3213.29470106,nan,3213.57904622,nan,nan,nan,nan
1,33,1,1,1.0,1.0,0.262533470523,1,nan,nan,nan,nan,nan,nan,nan,nan,nan,365,-0.157962026257,0.477016591838,-0.0139196855225,176.054813771,273.945186229,17.304561229,390.0,-0.0641960347588,0.476284203309,-0.291947553613,1.80057293258,3179.00361903,3214.23649235,3215.04490034,3214.49902582,3217.88689514,3218.89168877,3216.07000263,3217.87856344
1,34,1,1,1.0,1.0,0.389794581337,0,nan,nan,nan,nan,nan,nan,nan,nan,nan,502,0.764740937618,0.25241357569,-1.0,nan,nan,nan,nan,nan,nan,nan,nan,3179.00361903,3219.03711375,nan,3219.42690833,nan,nan,nan,nan
1,35,1,1,1.0,1.0,0.352046774351,1,nan,nan,nan,nan,nan,nan,nan,nan,nan,204,1.0,0.00303256528985,0.499654420455,-58.8462084118,148.846208412,5.40870841183,212.0,0.93926288676,0.0467731277665,0.543851001166,1.55895309802,3179.00361903,3219.97887397,3220.7873136,3220.33092074,3223.38761358,3224.39840054,3221.81240905,3223.37928359
1,36,1,1,1.0,1.0,0.417033682577,0,nan,nan,nan,nan,nan,nan,nan,nan,nan,403,0.00657627305109,0.469456436931,-0.450524507496,nan,nan,nan,nan,nan,nan,nan,nan,3179.00361903,3224.53779884,nan,3224.95483252,nan,nan,nan,nan
1,37,1,1,1.0,1.0,0.347180724726,0,nan,nan,nan,nan,nan,nan,nan,nan,nan,329,-0.136053278316,0.448203788942,0.3278337444,nan,nan,nan,nan,nan,nan,nan,nan,3179.00361903,3225.47961408,nan,3225.8267948,nan,nan,nan,nan
1,38,1,1,1.0,1.0,0.285418842919,0,nan,nan,nan,nan,nan,nan,nan,nan,nan,259,0.44882283482,0.268906983076,0.655011783756,nan,nan,nan,nan,nan,nan,nan,nan,3179.00361903,3226.42138656,nan,3226.7068054,nan,nan,nan,nan
1,39,1,1,1.0,1.0,0.447597594699,0,nan,nan,nan,nan,nan,nan,nan,nan,nan,63,1.0,-0.102744642793,-1.0,nan,nan,nan,nan,nan,nan,nan,nan,3179.00361903,3227.36319039,nan,3227.81078799,nan,nan,nan,nan
1,40,1,1,1.0,1.0,0.329788902192,0,nan,nan,nan,nan,nan,nan,nan,nan,nan,294,0.0948761993654,0.381212130724,0.559858230992,nan,nan,nan,nan,nan,nan,nan,nan,3179.00361903,3228.30497769,nan,3228.6347666,nan,nan,nan,nan
1,41,1,1,1.0,1.0,0.291989207384,0,nan,nan,nan,nan,nan,nan,nan,nan,nan,384,-0.0924750057551,0.477945316949,-0.222479273925,nan,nan,nan,nan,nan,nan,nan,nan,3179.00361903,3229.24676442,nan,3229.53875363,nan,nan,nan,nan
1,42,1,1,1.0,1.0,0.286163518438,0,nan,nan,nan,nan,nan,nan,nan,nan,nan,507,0.805995650865,0.232688349973,-1.0,nan,nan,nan,nan,nan,nan,nan,nan,3179.00361903,3230.18857681,nan,3230.47474033,nan,nan,nan,nan
1,43,1,1,1.0,1.0,0.248380074278,0,nan,nan,nan,nan,nan,nan,nan,nan,nan,48,1.0,-0.0224273256894,-1.0,nan,nan,nan,nan,nan,nan,nan,nan,3179.00361903,3231.13033789,nan,3231.37871796,nan,nan,nan,nan
1,44,1,1,1.0,1.0,0.258561487542,0,nan,nan,nan,nan,nan,nan,nan,nan,nan,123,1.0,-0.311441137266,-0.208672863777,nan,nan,nan,nan,nan,nan,nan,nan,3179.00361903,3232.07213146,nan,3232.33069295,nan,nan,nan,nan
1,45,1,1,1.0,1.0,0.252740645432,0,nan,nan,nan,nan,nan,nan,nan,nan,nan,64,1.0,-0.108036866323,-1.0,nan,nan,nan,nan,nan,nan,nan,nan,3179.00361903,3233.013939,nan,3233.26667965,nan,nan,nan,nan
1,46,0,0,0.0,1.0,0.390960061224,0,nan,nan,nan,nan,nan,nan,nan,nan,nan,265,0.384259149088,0.291568309415,0.649478858709,nan,nan,nan,nan,nan,nan,nan,nan,3179.00361903,3233.9557072,nan,3234.34666726,nan,nan,nan,nan
1,47,1,1,1.0,1.0,0.409155289293,0,nan,nan,nan,nan,nan,nan,nan,nan,nan,145,1.0,-0.281667413287,0.0150551701241,nan,nan,nan,nan,nan,nan,nan,nan,3179.00361903,3234.89749336,nan,3235.30664865,nan,nan,nan,nan
1,48,1,1,1.0,1.0,0.427346811281,0,nan,nan,nan,nan,nan,nan,nan,nan,nan,102,1.0,-0.276610342793,-0.434926949461,nan,nan,nan,nan,nan,nan,nan,nan,3179.00361903,3235.83928922,nan,3236.26663603,nan,nan,nan,nan
1,49,1,1,1.0,1.0,0.285557400435,0,nan,nan,nan,nan,nan,nan,nan,nan,nan,473,0.522594813828,0.349396171415,-1.0,nan,nan,nan,nan,nan,nan,nan,nan,3179.00361903,3236.78107139,nan,3237.06662879,nan,nan,nan,nan
1,50,1,1,1.0,1.0,0.247736608377,0,nan,nan,nan,nan,nan,nan,nan,nan,nan,62,1.0,-0.0974372467467,-1.0,nan,nan,nan,nan,nan,nan,nan,nan,3179.00361903,3237.72285812,nan,3237.97059473,nan,nan,nan,nan
1,51,1,1,1.0,1.0,0.289941349649,0,nan,nan,nan,nan,nan,nan,nan,nan,nan,365,-0.157962026257,0.477016591838,-0.0139196855225,nan,nan,nan,nan,nan,nan,nan,nan,3179.00361903,3238.66464627,nan,3238.95458762,nan,nan,nan,nan
1,52,1,1,1.0,1.0,0.292130045593,0,nan,nan,nan,nan,nan,nan,nan,nan,nan,468,0.481236483515,0.363131620867,-1.0,nan,nan,nan,nan,nan,nan,nan,nan,3179.00361903,3239.60644042,nan,3239.89857046,nan,nan,nan,nan
1,53,1,1,1.0,1.0,0.254326644586,0,nan,nan,nan,nan,nan,nan,nan,nan,nan,304,0.0113092810281,0.404708921832,0.506160370659,nan,nan,nan,nan,nan,nan,nan,nan,3179.00361903,3240.54822544,nan,3240.80255208,nan,nan,nan,nan
1,54,1,1,1.0,1.0,0.296523688245,0,nan,nan,nan,nan,nan,nan,nan,nan,nan,52,1.0,-0.0438860552364,-1.0,nan,nan,nan,nan,nan,nan,nan,nan,3179.00361903,3241.49001559,nan,3241.78653928,nan,nan,nan,nan
1,55,1,1,1.0,1.0,0.282718966482,0,nan,nan,nan,nan,nan,nan,nan,nan,nan,356,-0.17284377641,0.473239407326,0.0788368070227,nan,nan,nan,nan,nan,nan,nan,nan,3179.00361903,3242.43180289,nan,3242.71452186,nan,nan,nan,nan
1,56,1,1,1.0,1.0,0.276903826278,0,nan,nan,nan,nan,nan,nan,nan,nan,nan,426,0.156193047225,0.446210853967,-0.81485970128,nan,nan,nan,nan,nan,nan,nan,nan,3179.00361903,3243.37359618,nan,3243.6505,nan,nan,nan,nan
1,57,1,1,1.0,1.0,0.295108177466,0,nan,nan,nan,nan,nan,nan,nan,nan,nan,313,-0.0530221528698,0.42279583272,0.448797959603,nan,nan,nan,nan,nan,nan,nan,nan,3179.00361903,3244.31537977,nan,3244.61048795,nan,nan,nan,nan
1,58,1,1,1.0,1.0,0.281292907195,0,nan,nan,nan,nan,nan,nan,nan,nan,nan,501,0.7564492333,0.256253544744,-1.0,nan,nan,nan,nan,nan,nan,nan,nan,3179.00361903,3245.25716394,nan,3245.53845685,nan,nan,nan,nan
1,59,1,1,1.0,1.0,0.363487749943,0,nan,nan,nan,nan,nan,nan,nan,nan,nan,456,0.383612429175,0.392633185378,-1.0,nan,nan,nan,nan,nan,nan,nan,nan,3179.00361903,3246.19895495,nan,3246.5624427,nan,nan,nan,nan
1,60,1,1,1.0,1.0,0.32569119113,0,nan,nan,nan,nan,nan,nan,nan,nan,nan,394,-0.0437090198531,0.474655926729,-0.339401417396,nan,nan,nan,nan,nan,nan,nan,nan,3179.00361903,3247.1407451,nan,3247.46643629,nan,nan,nan,nan
1,61,1,1,1.0,1.0,0.239878171938,0,nan,nan,nan,nan,nan,nan,nan,nan,nan,165,1.0,-0.205056383665,0.203745440608,nan,nan,nan,nan,nan,nan,nan,nan,3179.00361903,3248.08253981,nan,3248.32241798,nan,nan,nan,nan
1,62,1,1,1.0,1.0,0.242076846422,0,nan,nan,nan,nan,nan,nan,nan,nan,nan,389,-0.0691208065164,0.476626077068,-0.280234315682,nan,nan,nan,nan,nan,nan,nan,nan,3179.00361903,3249.02432227,nan,3249.26639911,nan,nan,nan,nan
1,63,0,0,0.0,1.0,0.45226407575,0,nan,nan,nan,nan,nan,nan,nan,nan,nan,40,1.0,0.0201165467467,-1.0,nan,nan,nan,nan,nan,nan,nan,nan,3179.00361903,3249.96611783,nan,3250.41838191,nan,nan,nan,nan
1,64,1,1,1.0,1.0,0.350467902492,0,nan,nan,nan,nan,nan,nan,nan,nan,nan,173,1.0,-0.165909522591,0.273535192888,nan,nan,nan,nan,nan,nan,nan,nan,3179.00361903,3250.90790171,nan,3251.25836962,nan,nan,nan,nan
1,65,1,1,1.0,1.0,0.336663465947,1,nan,nan,nan,nan,nan,nan,nan,nan,nan,295,0.0860222946478,0.38372732295,0.554986075565,-131.496468355,221.496468355,14.0745933552,315.0,-0.0657111424032,0.426434809442,0.434956515233,1.47548158723,3179.00361903,3251.84969073,3252.65809729,3252.18635419,3255.17505719,3256.17505976,3253.68320101,3255.16672777
1,66,1,1,1.0,1.0,0.397332567722,0,nan,nan,nan,nan,nan,nan,nan,nan,nan,369,-0.147694689129,0.477999187239,-0.0564338676883,nan,nan,nan,nan,nan,nan,nan,nan,3179.00361903,3256.31693869,nan,3256.71427126,nan,nan,nan,nan
1,67,1,1,1.0,1.0,0.399537799414,0,nan,nan,nan,nan,nan,nan,nan,nan,nan,429,0.177531820842,0.442080780324,-0.901885199234,nan,nan,nan,nan,nan,nan,nan,nan,3179.00361903,3257.2587163,nan,3257.6582541,nan,nan,nan,nan
1,68,0,0,0.0,1.0,0.433724734583,0,nan,nan,nan,nan,nan,nan,nan,nan,nan,133,1.0,-0.306259573676,-0.105336427414,nan,nan,nan,nan,nan,nan,nan,nan,3179.00361903,3258.20050559,nan,3258.63423033,nan,nan,nan,nan
1,69,1,1,1.0,1.0,0.435917992145,0,nan,nan,nan,nan,nan,nan,nan,nan,nan,376,-0.124962824795,0.478704673615,-0.132627625282,nan,nan,nan,nan,nan,nan,nan,nan,3179.00361903,3259.1423043,nan,3259.57822229,nan,nan,nan,nan
1,70,1,1,1.0,1.0,0.318117567571,0,nan,nan,nan,nan,nan,nan,nan,nan,nan,429,0.177531820842,0.442080780324,-0.901885199234,nan,nan,nan,nan,nan,nan,nan,nan,3179.00361903,3260.08409017,nan,3260.40220774,nan,nan,nan,nan
1,71,1,1,1.0,1.0,0.360306913499,0,nan,nan,nan,nan,nan,nan,nan,nan,nan,250,0.546428449327,0.232286661223,0.654747725831,nan,nan,nan,nan,nan,nan,nan,nan,3179.00361903,3261.02587918,nan,3261.3861861,nan,nan,nan,nan
1,72,1,1,1.0,1.0,0.47450227628,0,nan,nan,nan,nan,nan,nan,nan,nan,nan,431,0.191957257768,0.43918128748,-0.982298765802,nan,nan,nan,nan,nan,nan,nan,nan,3179.00361903,3261.96766991,nan,3262.44217218,nan,nan,nan,nan
1,73,1,1,1.0,1.0,0.420705457451,0,nan,nan,nan,nan,nan,nan,nan,nan,nan,127,1.0,-0.31111021432,-0.167036648065,nan,nan,nan,nan,nan,nan,nan,nan,3179.00361903,3262.90945293,nan,3263.33015839,nan,nan,nan,nan
1,74,1,1,1.0,1.0,0.406892182888,0,nan,nan,nan,nan,nan,nan,nan,nan,nan,511,0.838703193994,0.216284169582,-1.0,nan,nan,nan,nan,nan,nan,nan,nan,3179.00361903,3263.85123995,nan,3264.25813213,nan,nan,nan,nan
1,75,1,1,1.0,1.0,0.329089272069,0,nan,nan,nan,nan,nan,nan,nan,nan,nan,76,1.0,-0.169674511773,-0.773365826749,nan,nan,nan,nan,nan,nan,nan,nan,3179.00361903,3264.79303324,nan,3265.12212251,nan,nan,nan,nan
1,76,1,1,1.0,1.0,0.299289137125,0,nan,nan,nan,nan,nan,nan,nan,nan,nan,454,0.367627362238,0.397084843583,-1.0,nan,nan,nan,nan,nan,nan,nan,nan,3179.00361903,3265.73481968,nan,3266.03410882,nan,nan,nan,nan
1,77,1,1,1.0,1.0,0.333458396257,0,nan,nan,nan,nan,nan,nan,nan,nan,nan,68,1.0,-0.129018143495,-0.972903198114,nan,nan,nan,nan,nan,nan,nan,nan,3179.00361903,3266.67661497,nan,3267.01007336,nan,nan,nan,nan
1,78,1,1,1.0,1.0,0.239684020402,0,nan,nan,nan,nan,nan,nan,nan,nan,nan,427,0.163265173604,0.444863218481,-0.840208708629,nan,nan,nan,nan,nan,nan,nan,nan,3179.00361903,3267.61839656,nan,3267.85808058,nan,nan,nan,nan
1,79,0,0,1.0,0.0,0.28187080042,0,0.0,0.0,0.0,nan,nan,nan,nan,nan,nan,113,1.0,-0.302191989669,-0.314576349441,nan,nan,nan,nan,nan,nan,nan,nan,3179.00361903,3268.56018387,nan,3268.84205467,nan,nan,nan,nan
1,80,1,1,1.0,1.0,0.444053543732,0,nan,nan,nan,nan,nan,nan,nan,nan,nan,283,0.19826868328,0.351050922538,0.605825948857,nan,nan,nan,nan,nan,nan,nan,nan,3179.00361903,3269.50196946,nan,3269.946023,nan,nan,nan,nan
1,81,1,1,1.0,1.0,0.414259395679,0,0.0,0.0,0.0,0.328153071446,0.0892083032491,0.238944768197,0.417361374695,0.0892083032491,0.38006124661,198,1.0,-0.0302354974571,0.462326941081,nan,nan,nan,nan,nan,nan,nan,nan,3179.00361903,3270.44376388,nan,3270.85802328,nan,nan,nan,nan
1,82,1,1,1.0,1.0,0.344457755331,0,0.0,0.0,0.0,0.329216112486,0.0891643283877,0.240051784098,0.418380440874,0.0891643283877,0.400923564914,318,-0.0835627602325,0.431640264478,0.413481556053,nan,nan,nan,nan,nan,nan,nan,nan,3179.00361903,3271.38555404,nan,3271.73001179,nan,nan,nan,nan
1,83,0,0,0.0,1.0,0.434642464505,0,0.0,0.0,0.0,0.329401986179,0.0886347636378,0.240767222542,0.418036749817,0.0886347636378,0.397786538505,407,0.0305886347219,0.46645515455,-0.502577406972,nan,nan,nan,nan,nan,nan,nan,nan,3179.00361903,3272.32734305,nan,3272.76198551,nan,nan,nan,nan
1,84,1,1,1.0,1.0,0.388824963593,0,0.0,0.0,0.0,0.33066994375,0.0888442570217,0.241825686728,0.419514200771,0.0888442570217,0.389308394476,504,0.78128615449,0.244628286196,-1.0,nan,nan,nan,nan,nan,nan,nan,nan,3179.00361903,3273.26913035,nan,3273.65795531,nan,nan,nan,nan
1,85,1,1,1.0,1.0,0.367039498524,0,0.0,0.0,0.0,0.331362265414,0.0885387869557,0.242823478459,0.41990105237,0.0885387869557,0.396835642207,55,1.0,-0.0599996532909,-1.0,nan,nan,nan,nan,nan,nan,nan,nan,3179.00361903,3274.21091794,nan,3274.57795743,nan,nan,nan,nan
1,86,1,1,1.0,1.0,0.361226924229,0,0.0,0.0,0.0,0.331781997569,0.0881004574275,0.243681540141,0.419882454996,0.0881004574275,0.372363795449,419,0.107894673663,0.454841969249,-0.678098861371,nan,nan,nan,nan,nan,nan,nan,nan,3179.00361903,3275.15270695,nan,3275.51393387,nan,nan,nan,nan
1,87,1,1,1.0,1.0,0.31542595895,0,0.0,0.0,0.0,0.332124380437,0.0876436112623,0.244480769175,0.419767991699,0.0876436112623,0.347897460568,283,0.19826868328,0.351050922538,0.605825948857,nan,nan,nan,nan,nan,nan,nan,nan,3179.00361903,3276.09449453,nan,3276.40992049,nan,nan,nan,nan
1,88,1,1,1.0,1.0,0.317620642018,0,0.0,0.0,0.0,0.331932444558,0.0871566337008,0.244775810857,0.419089078258,0.0871566337008,0.331424508399,222,0.841778467246,0.0997291618919,0.589484691865,nan,nan,nan,nan,nan,nan,nan,nan,3179.00361903,3277.03628697,nan,3277.35390761,nan,nan,nan,nan
1,89,1,1,1.0,1.0,0.263822112582,0,0.0,0.0,0.0,0.331769810438,0.0866732864592,0.245096523979,0.418443096897,0.0866732864592,0.29895623785,75,1.0,-0.164714458691,-0.791355921409,nan,nan,nan,nan,nan,nan,nan,nan,3179.00361903,3277.97807256,nan,3278.24189467,nan,nan,nan,nan
1,90,1,1,1.0,1.0,0.346006406704,0,0.0,0.0,0.0,0.331006353159,0.086482041392,0.244524311767,0.417488394551,0.086482041392,0.309149720434,480,0.580928072941,0.32870764083,-1.0,nan,nan,nan,nan,nan,nan,nan,nan,3179.00361903,3278.91985872,nan,3279.26586512,nan,nan,nan,nan
1,91,1,1,1.0,1.0,0.380210162723,0,0.0,0.0,0.0,0.33117302042,0.0860146157867,0.245158404633,0.417187636207,0.0860146157867,0.330012894003,186,1.0,-0.0967386681424,0.377881386018,nan,nan,nan,nan,nan,nan,nan,nan,3179.00361903,3279.86165115,nan,3280.24186131,nan,nan,nan,nan
1,92,1,1,1.0,1.0,0.358398183598,0,0.0,0.0,0.0,0.331711890116,0.0856933254418,0.246018564674,0.417405215558,0.0856933254418,0.361538251008,502,0.764740937618,0.25241357569,-1.0,nan,nan,nan,nan,nan,nan,nan,nan,3179.00361903,3280.8034413,nan,3281.16183949,nan,nan,nan,nan
1,93,0,0,0.0,1.0,0.448589735199,0,0.0,0.0,0.0,0.332001958523,0.085271236403,0.24673072212,0.417273194926,0.085271236403,0.39573269384,432,0.199227897075,0.437687328843,-1.0,nan,nan,nan,nan,nan,nan,nan,nan,3179.00361903,3281.7452229,nan,3282.19381264,nan,nan,nan,nan
1,94,1,1,1.0,1.0,0.338794287061,0,0.0,0.0,0.0,0.33325559053,0.0856597079227,0.247595882608,0.418915298453,0.0856597079227,0.381927401953,511,0.838703193994,0.216284169582,-1.0,nan,nan,nan,nan,nan,nan,nan,nan,3179.00361903,3282.68701961,nan,3283.0258139,nan,nan,nan,nan
1,95,1,1,1.0,1.0,0.316984873847,0,0.0,0.0,0.0,0.333314512834,0.0852047476462,0.248109765188,0.41851926048,0.0852047476462,0.368122965369,291,0.122027637739,0.373441943191,0.573791926984,nan,nan,nan,nan,nan,nan,nan,nan,3179.00361903,3283.6288072,nan,3283.94579207,nan,nan,nan,nan
1,96,0,0,0.0,1.0,0.479180161259,0,0.0,0.0,0.0,0.333142621897,0.0847714983265,0.248371123571,0.417914120224,0.0847714983265,0.378319774056,236,0.697004556276,0.169301754335,0.634065852989,nan,nan,nan,nan,nan,nan,nan,nan,3179.00361903,3284.57058994,nan,3285.0497701,nan,nan,nan,nan
1,97,1,1,1.0,1.0,0.401375540067,0,0.0,0.0,0.0,0.334663846266,0.0856223822744,0.249041463991,0.42028622854,0.0856223822744,0.399180191724,475,0.539218753276,0.343659807328,-1.0,nan,nan,nan,nan,nan,nan,nan,nan,3179.00361903,3285.51237724,nan,3285.91375278,nan,nan,nan,nan
1,98,1,1,1.0,1.0,0.331575040007,0,0.0,0.0,0.0,0.335351595686,0.0854460120386,0.249905583648,0.420797607725,0.0854460120386,0.404043580444,112,1.0,-0.300501516081,-0.325324861792,nan,nan,nan,nan,nan,nan,nan,nan,3179.00361903,3286.45416511,nan,3286.78574015,nan,nan,nan,nan
1,99,1,1,1.0,1.0,0.301762930932,0,0.0,0.0,0.0,0.335313059404,0.085009792428,0.250303266976,0.420322851832,0.085009792428,0.344904503669,65,1.0,-0.113312155659,-1.0,nan,nan,nan,nan,nan,nan,nan,nan,3179.00361903,3287.39595954,nan,3287.69772247,nan,nan,nan,nan
1,100,1,1,1.0,1.0,0.343960829778,0,0.0,0.0,0.0,0.334974169217,0.0846458691087,0.250328300109,0.419620038326,0.0846458691087,0.325766266906,289,0.140592130943,0.368073254824,0.582505265782,nan,nan,nan,nan,nan,nan,nan,nan,3179.00361903,3288.33774541,nan,3288.68170624,nan,nan,nan,nan
1,101,1,1,1.0,1.0,0.258144389605,0,0.0,0.0,0.0,0.335064035823,0.0842263227873,0.250837713036,0.41929035861,0.0842263227873,0.301289383438,192,1.0,-0.0635997558896,0.421658406928,nan,nan,nan,nan,nan,nan,nan,nan,3179.00361903,3289.27953414,nan,3289.53767853,nan,nan,nan,nan
1,102,0,0,1.0,0.0,0.20435697888,0,0.0,0.0,0.0,0.334302455167,0.0841536428729,0.250148812294,0.41845609804,0.0841536428729,0.268820732754,304,0.0113092810281,0.404708921832,0.506160370659,nan,nan,nan,nan,nan,nan,nan,nan,3179.00361903,3290.22132686,nan,3290.42568384,nan,nan,nan,nan
1,103,1,1,1.0,1.0,0.326551331324,0,0.0,0.0,0.0,0.33302847991,0.0847132230327,0.248315256877,0.417741702942,0.0847132230327,0.263017566603,74,1.0,-0.159715158178,-0.810443278181,nan,nan,nan,nan,nan,nan,nan,nan,3179.00361903,3291.16310789,nan,3291.48965922,nan,nan,nan,nan
1,104,1,1,1.0,1.0,0.232725067646,0,0.0,0.0,0.0,0.332965594972,0.0843033831399,0.248662211832,0.417268978112,0.0843033831399,0.254544459283,9,0.918933560847,0.172916688009,-1.0,nan,nan,nan,nan,nan,nan,nan,nan,3179.00361903,3292.10491742,nan,3292.33764249,nan,nan,nan,nan
1,105,1,1,1.0,1.0,0.314936446026,0,0.0,0.0,0.0,0.332001743748,0.0844654440308,0.247536299717,0.416467187778,0.0844654440308,0.291404281665,219,0.871627318206,0.0840881726889,0.576959667802,nan,nan,nan,nan,nan,nan,nan,nan,3179.00361903,3293.04669019,nan,3293.36162663,nan,nan,nan,nan
1,106,1,1,1.0,1.0,0.277125632274,0,0.0,0.0,0.0,0.331839217103,0.0840786037725,0.24776061333,0.415917820875,0.0840786037725,0.274929048649,349,-0.175656888649,0.468768509344,0.147945183432,nan,nan,nan,nan,nan,nan,nan,nan,3179.00361903,3293.98848034,nan,3294.26560597,nan,nan,nan,nan
1,107,1,1,1.0,1.0,0.263323761639,0,0.0,0.0,0.0,0.331323051208,0.0838480518317,0.247474999376,0.41517110304,0.0838480518317,0.285128613313,29,1.0,0.0770173926463,-1.0,nan,nan,nan,nan,nan,nan,nan,nan,3179.00361903,3294.93026365,nan,3295.19358741,nan,nan,nan,nan
1,108,1,1,1.0,1.0,0.257523731561,0,0.0,0.0,0.0,0.330687543829,0.083711411459,0.24697613237,0.414398955288,0.083711411459,0.265991041825,353,-0.175041255135,0.471490071959,0.108799216003,nan,nan,nan,nan,nan,nan,nan,nan,3179.00361903,3295.8720538,nan,3296.12957753,nan,nan,nan,nan
1,109,1,1,1.0,1.0,0.235719735152,0,0.0,0.0,0.0,0.330010101123,0.0836171069928,0.24639299413,0.413627208115,0.0836171069928,0.252189076118,165,1.0,-0.205056383665,0.203745440608,nan,nan,nan,nan,nan,nan,nan,nan,3179.00361903,3296.81384224,nan,3297.04956198,nan,nan,nan,nan
1,110,1,1,1.0,1.0,0.389872127911,0,0.0,0.0,0.0,0.329145051894,0.0837167422749,0.245428309619,0.412861794168,0.0837167422749,0.294371864875,99,1.0,-0.267176270739,-0.468793303331,nan,nan,nan,nan,nan,nan,nan,nan,3179.00361903,3297.75565406,nan,3298.14552619,nan,nan,nan,nan
1,111,1,1,1.0,1.0,0.264107210445,0,0.0,0.0,0.0,0.329697116221,0.083534423098,0.246162693123,0.413231539319,0.083534423098,0.296566357836,179,1.0,-0.13461441766,0.323204131591,nan,nan,nan,nan,nan,nan,nan,nan,3179.00361903,3298.69741713,nan,3298.96152434,nan,nan,nan,nan
1,112,1,1,1.0,1.0,0.298294430715,0,0.0,0.0,0.0,0.329106216169,0.0833879061659,0.245718310003,0.412494122335,0.0833879061659,0.31742458969,294,0.0948761993654,0.381212130724,0.559858230992,nan,nan,nan,nan,nan,nan,nan,nan,3179.00361903,3299.63920642,nan,3299.93750086,nan,nan,nan,nan
1,113,1,1,1.0,1.0,0.28443867655,0,0.0,0.0,0.0,0.328831110942,0.0830653868388,0.245765724103,0.41189649778,0.0830653868388,0.282280105903,34,1.0,0.0514419701458,-1.0,nan,nan,nan,nan,nan,nan,nan,nan,3179.00361903,3300.58103991,nan,3300.86547859,nan,nan,nan,nan
1,114,1,1,1.0,1.0,0.318688903586,0,0.0,0.0,0.0,0.32843825754,0.0828014684721,0.245636789068,0.411239726012,0.0828014684721,0.300474003617,454,0.367627362238,0.397084843583,-1.0,nan,nan,nan,nan,nan,nan,nan,nan,3179.00361903,3301.52277589,nan,3301.8414648,nan,nan,nan,nan
1,115,1,1,1.0,1.0,0.192899182555,0,0.0,0.0,0.0,0.328352736891,0.0824425166882,0.245910220203,0.410795253579,0.0824425166882,0.26534225423,320,-0.0946500390753,0.43494401576,0.398701238857,nan,nan,nan,nan,nan,nan,nan,nan,3179.00361903,3302.46455892,nan,3302.6574581,nan,nan,nan,nan
1,116,1,1,1.0,1.0,0.307075158576,0,0.0,0.0,0.0,0.327174879897,0.0830410970055,0.244133782892,0.410215976902,0.0830410970055,0.272887748239,411,0.0555201669072,0.463022710015,-0.557054760163,nan,nan,nan,nan,nan,nan,nan,nan,3179.00361903,3303.40636817,nan,3303.71344333,nan,nan,nan,nan
1,117,1,1,1.0,1.0,0.2212618544,0,1.0,0.0,0.0,0.327001606437,0.0827032632948,0.244298343143,0.409704869732,0.0827032632948,0.240412065177,280,0.228089347314,0.342018854333,0.61587222022,nan,nan,nan,nan,nan,nan,nan,nan,3179.00361903,3304.34814949,nan,3304.56941134,nan,nan,nan,nan
1,118,1,1,1.0,1.0,0.103472263319,1,0.0,0.0,1.0,0.326097847873,0.082922349841,0.243175498032,0.409020197714,0.082922349841,0.210603092099,45,1.0,-0.0063957592436,-1.0,41.8420552036,48.1579447964,16.5173197964,68.0,1.0,-0.129018143495,-0.972903198114,1.30879116245,3179.00361903,3305.28993907,3306.09836958,3305.39341133,3308.44861197,3309.44813301,3307.12345277,3308.44028398
1,119,1,1,1.0,1.0,0.362869372708,0,0.0,0.0,0.0,0.324211190377,0.0850547040688,0.239156486308,0.409265894445,0.0850547040688,0.229201163476,150,1.0,-0.266152531622,0.0638227105866,nan,nan,nan,nan,nan,nan,nan,nan,3179.00361903,3309.59045783,nan,3309.95332721,nan,nan,nan,nan
1,120,1,1,1.0,1.0,0.245028179022,0,0.0,0.0,0.0,0.324536049052,0.0847700603835,0.239765988668,0.409306109435,0.0847700603835,0.237123271683,336,-0.158211608236,0.456758111158,0.268135266647,nan,nan,nan,nan,nan,nan,nan,nan,3179.00361903,3310.53228733,nan,3310.77731551,nan,nan,nan,nan
1,121,1,1,1.0,1.0,0.263225117815,0,0.0,0.0,0.0,0.323873483468,0.0847249685537,0.239148514914,0.408598452022,0.0847249685537,0.290374223182,12,0.942476689623,0.159273951266,-1.0,nan,nan,nan,nan,nan,nan,nan,nan,3179.00361903,3311.47407121,nan,3311.73729633,nan,nan,nan,nan
1,122,1,1,1.0,1.0,0.305405340623,0,0.0,0.0,0.0,0.323372257306,0.0845526028885,0.238819654417,0.407924860194,0.0845526028885,0.27121954582,90,1.0,-0.233635786423,-0.574971871003,nan,nan,nan,nan,nan,nan,nan,nan,3179.00361903,3312.41586307,nan,3312.72126841,nan,nan,nan,nan
1,123,1,1,1.0,1.0,0.21163410088,0,0.0,0.0,0.0,0.323224987497,0.0842209440771,0.23900404342,0.407445931574,0.0842209440771,0.260088186439,480,0.580928072941,0.32870764083,-1.0,nan,nan,nan,nan,nan,nan,nan,nan,3179.00361903,3313.35764952,nan,3313.56928362,nan,nan,nan,nan
1,124,1,1,1.0,1.0,0.0857961984584,0,1.0,0.0,0.0,0.322317744516,0.0844743532215,0.237843391295,0.406792097738,0.0844743532215,0.200945213321,108,1.0,-0.292426609412,-0.368663285579,nan,nan,nan,nan,nan,nan,nan,nan,3179.00361903,3314.29943796,nan,3314.38523416,nan,nan,nan,nan
1,125,0,0,1.0,0.0,0.208004520624,0,0.0,0.0,0.0,0.320410312693,0.0867518245762,0.233658488117,0.407162137269,0.0867518245762,0.168478273321,65,1.0,-0.113312155659,-1.0,nan,nan,nan,nan,nan,nan,nan,nan,3179.00361903,3315.24122897,nan,3315.44923349,nan,nan,nan,nan
1,126,1,1,1.0,1.0,0.266193841468,0,0.0,0.0,0.0,0.319511066357,0.0869824343618,0.232528631995,0.406493500718,0.0869824343618,0.186664853517,482,0.597655625539,0.322480811492,-1.0,nan,nan,nan,nan,nan,nan,nan,nan,3179.00361903,3316.1830137,nan,3316.44920754,nan,nan,nan,nan
1,127,0,0,0.0,1.0,0.484368656529,0,0.0,0.0,0.0,0.319087913778,0.0867656555146,0.232322258264,0.405853569293,0.0867656555146,0.31952233954,133,1.0,-0.306259573676,-0.105336427414,nan,nan,nan,nan,nan,nan,nan,nan,3179.00361903,3317.12480642,nan,3317.60917508,nan,nan,nan,nan
1,128,1,1,1.0,1.0,0.350573958945,0,0.0,0.0,0.0,0.320389336949,0.087649344982,0.232739991967,0.408038681931,0.087649344982,0.367045485647,84,1.0,-0.20765784414,-0.652191087791,nan,nan,nan,nan,nan,nan,nan,nan,3179.00361903,3318.066594,nan,3318.41716796,nan,nan,nan,nan
1,129,0,0,0.0,1.0,0.392787538236,0,0.0,0.0,0.0,0.320625154309,0.0873467304129,0.233278423896,0.407971884722,0.0873467304129,0.40924338457,219,0.871627318206,0.0840881726889,0.576959667802,nan,nan,nan,nan,nan,nan,nan,nan,3179.00361903,3319.00837874,nan,3319.40116628,nan,nan,nan,nan
1,130,1,1,1.0,1.0,0.434964339947,0,0.0,0.0,0.0,0.321184552634,0.0872373937632,0.233947158871,0.408421946397,0.0872373937632,0.392775279043,297,0.0686262056446,0.388646276542,0.544904663634,nan,nan,nan,nan,nan,nan,nan,nan,3179.00361903,3319.95017431,nan,3320.38513865,nan,nan,nan,nan
1,131,1,1,1.0,1.0,0.429168871371,0,0.0,0.0,0.0,0.322059781767,0.087467931131,0.234591850636,0.409527712898,0.087467931131,0.418973583185,176,1.0,-0.150429669724,0.298675466069,nan,nan,nan,nan,nan,nan,nan,nan,3179.00361903,3320.89195733,nan,3321.3211262,nan,nan,nan,nan
1,132,1,1,1.0,1.0,0.343360128812,0,0.0,0.0,0.0,0.322877408405,0.0876307245413,0.235246683864,0.410508132946,0.0876307245413,0.402497780044,428,0.170378320166,0.443486568519,-0.86866140055,nan,nan,nan,nan,nan,nan,nan,nan,3179.00361903,3321.8337472,nan,3322.17710733,nan,nan,nan,nan
1,133,1,1,1.0,1.0,0.353557222523,0,0.0,0.0,0.0,0.323032580529,0.0873162231205,0.235716357409,0.41034880365,0.0873162231205,0.375362074235,349,-0.175656888649,0.468768509344,0.147945183432,nan,nan,nan,nan,nan,nan,nan,nan,3179.00361903,3322.77553678,nan,3323.129094,nan,nan,nan,nan
1,134,0,0,1.0,0.0,0.203760554432,0,0.0,0.0,0.0,0.323262089116,0.0870273036554,0.23623478546,0.410289392771,0.0870273036554,0.300225968589,260,0.438016636947,0.272781976488,0.654406567654,nan,nan,nan,nan,nan,nan,nan,nan,3179.00361903,3323.71732494,nan,3323.92108549,nan,nan,nan,nan
1,135,1,1,1.0,1.0,0.293947544182,0,0.0,0.0,0.0,0.322370286618,0.0873098362314,0.235060450387,0.40968012285,0.0873098362314,0.283755107045,326,-0.12383419111,0.444071765824,0.352223541474,nan,nan,nan,nan,nan,nan,nan,nan,3179.00361903,3324.65910825,nan,3324.95305579,nan,nan,nan,nan
1,136,1,1,1.0,1.0,0.368147958885,0,0.0,0.0,0.0,0.322159747785,0.0870200008328,0.235139746953,0.409179748618,0.0870200008328,0.288618685833,494,0.698129958021,0.282143999684,-1.0,nan,nan,nan,nan,nan,nan,nan,nan,3179.00361903,3325.60090182,nan,3325.96904978,nan,nan,nan,nan
1,137,1,1,1.0,1.0,0.306331623578,0,0.0,0.0,0.0,0.322497896396,0.0867884614805,0.235709434916,0.409286357877,0.0867884614805,0.322809042215,218,0.881467392804,0.0788246127756,0.572559633417,nan,nan,nan,nan,nan,nan,nan,nan,3179.00361903,3326.54268713,nan,3326.84901875,nan,nan,nan,nan
1,138,1,1,1.0,1.0,0.268534209463,0,0.0,0.0,0.0,0.322379894405,0.0864820845124,0.235897809893,0.408861978917,0.0864820845124,0.314337930642,120,1.0,-0.310161497659,-0.240162905937,nan,nan,nan,nan,nan,nan,nan,nan,3179.00361903,3327.48447728,nan,3327.75301149,nan,nan,nan,nan
1,139,1,1,1.0,1.0,0.294735554606,0,0.0,0.0,0.0,0.321989708282,0.0862891174453,0.235700590837,0.408278825728,0.0862891174453,0.289867129216,160,1.0,-0.227501418013,0.158297521075,nan,nan,nan,nan,nan,nan,nan,nan,3179.00361903,3328.42626458,nan,3328.72100013,nan,nan,nan,nan
1,140,1,1,1.0,1.0,0.232914657681,0,0.0,0.0,0.0,0.321793635234,0.0860090120774,0.235784623157,0.407802647312,0.0860090120774,0.26539480725,220,0.861731547614,0.0893272636146,0.581247684387,nan,nan,nan,nan,nan,nan,nan,nan,3179.00361903,3329.36805701,nan,3329.60097167,nan,nan,nan,nan
1,141,1,1,1.0,1.0,0.307112506474,0,0.0,0.0,0.0,0.321158785395,0.0860275088845,0.23513127651,0.407186294279,0.0860275088845,0.278254239587,322,-0.105067232891,0.43811622051,0.383559350674,nan,nan,nan,nan,nan,nan,nan,nan,3179.00361903,3330.30984403,nan,3330.61695654,nan,nan,nan,nan
1,142,1,1,1.0,1.0,0.261320664315,0,0.0,0.0,0.0,0.321059166395,0.0857300074313,0.235329158964,0.406789173826,0.0857300074313,0.267115942823,161,1.0,-0.223158351501,0.167490545043,nan,nan,nan,nan,nan,nan,nan,nan,3179.00361903,3331.25163133,nan,3331.51295199,nan,nan,nan,nan
1,143,1,1,1.0,1.0,0.271510345628,0,0.0,0.0,0.0,0.320638472719,0.0855735403845,0.235064932334,0.406212013103,0.0855735403845,0.279981172139,352,-0.17544712699,0.470851603012,0.118673592819,nan,nan,nan,nan,nan,nan,nan,nan,3179.00361903,3332.19341949,nan,3332.46492983,nan,nan,nan,nan
1,144,1,1,1.0,1.0,0.281699741841,0,0.0,0.0,0.0,0.320294919382,0.085372022993,0.234922896389,0.405666942375,0.085372022993,0.271510250595,486,0.631151757674,0.309603058574,-1.0,nan,nan,nan,nan,nan,nan,nan,nan,3179.00361903,3333.13520764,nan,3333.41690738,nan,nan,nan,nan
1,145,1,1,1.0,1.0,0.251904453384,0,0.0,0.0,0.0,0.320026897316,0.0851354278035,0.234891469513,0.405162325119,0.0851354278035,0.268371513618,331,-0.143297839787,0.450801753776,0.311166711333,nan,nan,nan,nan,nan,nan,nan,nan,3179.00361903,3334.07699808,nan,3334.32890253,nan,nan,nan,nan
1,146,1,1,0.0,0.0,0.382081829943,0,0.0,0.0,0.0,0.319557087358,0.0850284567559,0.234528630602,0.404585544114,0.0850284567559,0.305228675056,35,1.0,0.0462653595507,-1.0,nan,nan,nan,nan,nan,nan,nan,nan,3179.00361903,3335.01879051,nan,3335.40087234,nan,nan,nan,nan
1,147,1,1,1.0,1.0,0.352289107395,0,0.0,0.0,0.0,0.319985339019,0.0848935329823,0.235091806037,0.404878872002,0.0848935329823,0.328758463574,386,-0.0833946583454,0.477495592553,-0.245424736514,nan,nan,nan,nan,nan,nan,nan,nan,3179.00361903,3335.96057382,nan,3336.31286293,nan,nan,nan,nan
1,148,1,1,1.0,1.0,0.282472356921,0,0.0,0.0,0.0,0.320205092546,0.0846459444142,0.235559148132,0.40485103696,0.0846459444142,0.338947764753,299,0.0516645560415,0.393417669654,0.534378752182,nan,nan,nan,nan,nan,nan,nan,nan,3179.00361903,3336.90236711,nan,3337.18483947,nan,nan,nan,nan
1,149,1,1,1.0,1.0,0.24467864912,0,0.0,0.0,0.0,0.319950141629,0.0844161073032,0.235534034326,0.404366248933,0.0844161073032,0.293146704479,168,1.0,-0.190790017254,0.230361799274,nan,nan,nan,nan,nan,nan,nan,nan,3179.00361903,3337.84414985,nan,3338.0888285,nan,nan,nan,nan
1,150,1,1,1.0,1.0,0.222877503722,0,0.0,0.0,0.0,0.319444963827,0.0843565256518,0.235088438175,0.403801489479,0.0843565256518,0.250009503254,229,0.770397026975,0.135265939772,0.614681466938,nan,nan,nan,nan,nan,nan,nan,nan,3179.00361903,3338.78593658,nan,3339.00881408,nan,nan,nan,nan
1,151,1,1,1.0,1.0,0.305073201773,0,0.0,0.0,0.0,0.31880118076,0.0844413246163,0.234359856144,0.403242505376,0.0844413246163,0.257543118205,472,0.51429864939,0.352212277195,-1.0,nan,nan,nan,nan,nan,nan,nan,nan,3179.00361903,3339.72772816,nan,3340.03280136,nan,nan,nan,nan
1,152,1,1,1.0,1.0,0.243240615702,0,0.0,0.0,0.0,0.318710266992,0.0841686183984,0.234541648593,0.40287888539,0.0841686183984,0.257063773732,54,1.0,-0.0546292063271,-1.0,nan,nan,nan,nan,nan,nan,nan,nan,3179.00361903,3340.66952601,nan,3340.91276662,nan,nan,nan,nan
1,153,1,1,1.0,1.0,0.253454245161,0,0.0,0.0,0.0,0.318213756128,0.0841128628357,0.234100893292,0.402326618964,0.0841128628357,0.267256020879,420,0.1146601879,0.45369410126,-0.695047497311,nan,nan,nan,nan,nan,nan,nan,nan,3179.00361903,3341.61130647,nan,3341.86476071,nan,nan,nan,nan
1,154,1,1,1.0,1.0,0.0236693914048,0,1.0,0.0,0.0,0.31779049135,0.0839997815665,0.233790709784,0.401790272917,0.0839997815665,0.173454750756,155,1.0,-0.2479831371,0.111611878621,nan,nan,nan,nan,nan,nan,nan,nan,3179.00361903,3342.55309491,nan,3342.5767643,nan,nan,nan,nan
1,155,1,1,1.0,1.0,0.497826699284,1,0.0,0.0,1.0,0.315880614078,0.086995591455,0.228885022623,0.402876205533,0.086995591455,0.258316778617,15,0.965734432428,0.145352784795,-1.0,115.651528465,334.348471535,-36.1984034651,476.0,0.547545041103,0.340739382997,-1.0,1.8923376539,3179.00361903,3343.49488905,3344.30329533,3343.99271575,3347.23699925,3348.24468891,3345.32839534,3347.22866756
1,156,1,1,1.0,1.0,0.349440695136,0,0.0,0.0,0.0,0.317054459789,0.0879295419149,0.229124917874,0.404984001704,0.0879295419149,0.290312261942,492,0.681403316433,0.289222019555,-1.0,nan,nan,nan,nan,nan,nan,nan,nan,3179.00361903,3348.38718223,nan,3348.73662293,nan,nan,nan,nan
1,157,1,1,1.0,1.0,0.295635323389,0,0.0,0.0,0.0,0.317262063862,0.0876853647422,0.22957669912,0.404947428604,0.0876853647422,0.380967572603,116,1.0,-0.306446923025,-0.282515442494,nan,nan,nan,nan,nan,nan,nan,nan,3179.00361903,3349.32897153,nan,3349.62460685,nan,nan,nan,nan
1,158,1,1,1.0,1.0,0.209846252459,0,0.0,0.0,0.0,0.317124313923,0.0874225974102,0.229701716512,0.404546911333,0.0874225974102,0.284974090328,419,0.107894673663,0.454841969249,-0.678098861371,nan,nan,nan,nan,nan,nan,nan,nan,3179.00361903,3350.27075655,nan,3350.4806028,nan,nan,nan,nan
1,159,1,1,1.0,1.0,0.260019477922,0,0.0,0.0,0.0,0.31644533885,0.0875597914267,0.228885547423,0.404005130277,0.0875597914267,0.255167017924,353,-0.175041255135,0.471490071959,0.108799216003,nan,nan,nan,nan,nan,nan,nan,nan,3179.00361903,3351.21254869,nan,3351.47256817,nan,nan,nan,nan
1,160,1,1,1.0,1.0,0.254211465013,0,0.0,0.0,0.0,0.316090459221,0.0873979243307,0.228692534891,0.403488383552,0.0873979243307,0.241359065132,89,1.0,-0.229484098413,-0.587370487375,nan,nan,nan,nan,nan,nan,nan,nan,3179.00361903,3352.15433828,nan,3352.40854974,nan,nan,nan,nan
1,161,0,0,0.0,1.0,0.400433861883,0,0.0,0.0,0.0,0.315703715508,0.0872607525539,0.228442962954,0.402964468062,0.0872607525539,0.304888268273,44,1.0,-0.00106984144607,-1.0,nan,nan,nan,nan,nan,nan,nan,nan,3179.00361903,3353.09612301,nan,3353.49655687,nan,nan,nan,nan
1,162,1,1,1.0,1.0,0.338600135408,0,0.0,0.0,0.0,0.316229989709,0.0872436737538,0.228986315955,0.403473663463,0.0872436737538,0.331081820768,128,1.0,-0.310663006781,-0.156689791083,nan,nan,nan,nan,nan,nan,nan,nan,3179.00361903,3354.03792941,nan,3354.37652955,nan,nan,nan,nan
1,163,1,1,1.0,1.0,0.332792692818,0,0.0,0.0,0.0,0.316368077028,0.086991633293,0.229376443735,0.403359710321,0.086991633293,0.35727556337,205,1.0,0.00854800403903,0.505535240796,nan,nan,nan,nan,nan,nan,nan,nan,3179.00361903,3354.97970645,nan,3355.31249914,nan,nan,nan,nan
1,164,1,1,1.0,1.0,0.279000720708,0,0.0,0.0,0.0,0.316468841542,0.0867338600318,0.22973498151,0.403202701574,0.0867338600318,0.316797849645,109,1.0,-0.294638327523,-0.357773695079,nan,nan,nan,nan,nan,nan,nan,nan,3179.00361903,3355.92149261,nan,3356.20049333,nan,nan,nan,nan
1,165,1,1,1.0,1.0,0.273194988607,0,0.0,0.0,0.0,0.316240377391,0.0865182055967,0.229722171794,0.402758582987,0.0865182055967,0.294996134044,278,0.248285521772,0.335802812283,0.621962573991,nan,nan,nan,nan,nan,nan,nan,nan,3179.00361903,3356.86328105,nan,3357.13647604,nan,nan,nan,nan
1,166,1,1,1.0,1.0,0.227402006276,0,0.0,0.0,0.0,0.315979496246,0.0863203076395,0.229659188607,0.402299803886,0.0863203076395,0.259865905197,470,0.497741612616,0.357740777197,-1.0,nan,nan,nan,nan,nan,nan,nan,nan,3179.00361903,3357.80506664,nan,3358.03246865,nan,nan,nan,nan
1,167,1,1,1.0,1.0,0.245603791554,0,0.0,0.0,0.0,0.315445896909,0.0863324327974,0.229113464112,0.401778329707,0.0863324327974,0.248733595479,243,0.622151010882,0.20168048164,0.647463484622,nan,nan,nan,nan,nan,nan,nan,nan,3179.00361903,3358.74685737,nan,3358.99246116,nan,nan,nan,nan
1,168,1,1,1.0,1.0,0.271792877582,0,0.0,0.0,0.0,0.31502768071,0.0862420586201,0.228785622089,0.40126973933,0.0862420586201,0.248266225137,511,0.838703193994,0.216284169582,-1.0,nan,nan,nan,nan,nan,nan,nan,nan,3179.00361903,3359.68864695,nan,3359.96043983,nan,nan,nan,nan
1,169,1,1,1.0,1.0,0.473974275053,0,0.0,0.0,0.0,0.314770330691,0.0860492936821,0.228721037009,0.400819624373,0.0860492936821,0.330456981397,26,1.0,0.0920921692153,-1.0,nan,nan,nan,nan,nan,nan,nan,nan,3179.00361903,3360.63043625,nan,3361.10441052,nan,nan,nan,nan
1,170,1,1,1.0,1.0,0.300159255625,0,0.0,0.0,0.0,0.315712365865,0.0866588468167,0.229053519048,0.402371212681,0.0866588468167,0.348642136087,277,0.258470646878,0.33263615818,0.624824240443,nan,nan,nan,nan,nan,nan,nan,nan,3179.00361903,3361.5722398,nan,3361.87239905,nan,nan,nan,nan
1,171,1,1,1.0,1.0,0.198381328606,0,0.0,0.0,0.0,0.315620876981,0.0864117773476,0.229209099633,0.402032654328,0.0864117773476,0.324171619761,201,1.0,-0.0135712615467,0.48142235136,nan,nan,nan,nan,nan,nan,nan,nan,3179.00361903,3362.51400771,nan,3362.71238904,nan,nan,nan,nan
1,172,1,1,1.0,1.0,0.288586849929,0,0.0,0.0,0.0,0.314935265587,0.086621240655,0.228314024932,0.401556506242,0.086621240655,0.262375811387,480,0.580928072941,0.32870764083,-1.0,nan,nan,nan,nan,nan,nan,nan,nan,3179.00361903,3363.45579159,nan,3363.74437844,nan,nan,nan,nan
1,173,1,1,1.0,1.0,0.282771709608,0,0.0,0.0,0.0,0.314782077124,0.0863922951119,0.228389782012,0.401174372236,0.0863922951119,0.256579962714,298,0.0600896634305,0.391050340636,0.53969689008,nan,nan,nan,nan,nan,nan,nan,nan,3179.00361903,3364.3975903,nan,3364.68036201,nan,nan,nan,nan
1,174,1,1,1.0,1.0,0.388954397989,0,0.0,0.0,0.0,0.314597046098,0.0861764176977,0.2284206284,0.400773463795,0.0861764176977,0.320104319175,328,-0.132159558243,0.44685796506,0.336046158271,nan,nan,nan,nan,nan,nan,nan,nan,3179.00361903,3365.33937503,nan,3365.72832943,nan,nan,nan,nan
1,175,1,1,1.0,1.0,0.423152737203,0,0.0,0.0,0.0,0.3150243872,0.0861120664231,0.228912320777,0.401136453624,0.0861120664231,0.364959614933,471,0.506014005179,0.354993781952,-1.0,nan,nan,nan,nan,nan,nan,nan,nan,3179.00361903,3366.2811649,nan,3366.70431764,nan,nan,nan,nan
1,176,1,1,1.0,1.0,0.361352652311,0,0.0,0.0,0.0,0.315642263486,0.0862516265449,0.229390636941,0.401893890031,0.0862516265449,0.391153262501,333,-0.149813480994,0.453275949072,0.294183738108,nan,nan,nan,nan,nan,nan,nan,nan,3179.00361903,3367.22295049,nan,3367.58430314,nan,nan,nan,nan
1,177,0,0,0.0,1.0,0.499539566925,0,0.0,0.0,0.0,0.315901981605,0.0860748421406,0.229827139464,0.401976823745,0.0860748421406,0.42801498548,235,0.707591924495,0.164537776567,0.631659631194,nan,nan,nan,nan,nan,nan,nan,nan,3179.00361903,3368.16474007,nan,3368.66427964,nan,nan,nan,nan
1,178,1,1,1.0,1.0,0.301709332503,0,0.0,0.0,0.0,0.316939482087,0.0869279474923,0.230011534594,0.403867429579,0.0869279474923,0.38753385058,352,-0.17544712699,0.470851603012,0.118673592819,nan,nan,nan,nan,nan,nan,nan,nan,3179.00361903,3369.10654676,nan,3369.40825609,nan,nan,nan,nan
1,179,1,1,1.0,1.0,0.351941573201,0,0.0,0.0,0.0,0.316853919448,0.0866908980131,0.230163021435,0.403544817462,0.0866908980131,0.38439682421,216,0.900975005756,0.0682271079607,0.563426584804,nan,nan,nan,nan,nan,nan,nan,nan,3179.00361903,3370.04832123,nan,3370.4002628,nan,nan,nan,nan
1,180,1,1,1.0,1.0,0.322128893924,0,0.0,0.0,0.0,0.31704993986,0.0864879545864,0.230561985274,0.403537894447,0.0864879545864,0.325259933209,308,-0.0186828559465,0.413097475488,0.481682330771,nan,nan,nan,nan,nan,nan,nan,nan,3179.00361903,3370.99010283,nan,3371.31223172,nan,nan,nan,nan
1,181,1,1,1.0,1.0,0.308308206731,0,0.0,0.0,0.0,0.317078156272,0.0862482018529,0.230829954419,0.403326358125,0.0862482018529,0.327459557952,9,0.918933560847,0.172916688009,-1.0,nan,nan,nan,nan,nan,nan,nan,nan,3179.00361903,3371.9319041,nan,3372.24021231,nan,nan,nan,nan
1,182,0,0,0.0,1.0,0.438517514151,0,0.0,0.0,0.0,0.317029703512,0.0860120737124,0.2310176298,0.403041777224,0.0860120737124,0.356318204935,196,1.0,-0.0413610816081,0.449130757868,nan,nan,nan,nan,nan,nan,nan,nan,3179.00361903,3372.87368313,nan,3373.31220065,nan,nan,nan,nan
1,183,1,1,1.0,1.0,0.280741813127,0,0.0,0.0,0.0,0.317697218955,0.086244289454,0.231452929501,0.403941508409,0.086244289454,0.342522511336,317,-0.077772836126,0.429938605076,0.420733606481,nan,nan,nan,nan,nan,nan,nan,nan,3179.00361903,3373.81547699,nan,3374.0962188,nan,nan,nan,nan
1,184,1,1,1.0,1.0,0.370898867724,0,0.0,0.0,0.0,0.317495276847,0.0860514631098,0.231443813737,0.403546739957,0.0860514631098,0.363386065001,48,1.0,-0.0224273256894,-1.0,nan,nan,nan,nan,nan,nan,nan,nan,3179.00361903,3374.75727712,nan,3375.12817599,nan,nan,nan,nan
1,185,1,1,1.0,1.0,0.293092535925,0,0.0,0.0,0.0,0.317785513754,0.0859070776219,0.231878436132,0.403692591376,0.0859070776219,0.314911072259,268,0.35230222188,0.302367520405,0.645005310408,nan,nan,nan,nan,nan,nan,nan,nan,3179.00361903,3375.69905387,nan,3375.99214641,nan,nan,nan,nan
1,186,0,0,0.0,1.0,0.407276494778,0,0.0,0.0,0.0,0.317652038198,0.0856937106583,0.23195832754,0.403345748856,0.0856937106583,0.357089299476,51,1.0,-0.0385160204876,-1.0,nan,nan,nan,nan,nan,nan,nan,nan,3179.00361903,3376.64085714,nan,3377.04813364,nan,nan,nan,nan
1,187,1,1,1.0,1.0,0.353480816353,0,0.0,0.0,0.0,0.318133890115,0.0857139712732,0.232419918842,0.403847861388,0.0857139712732,0.351283282352,454,0.367627362238,0.397084843583,-1.0,nan,nan,nan,nan,nan,nan,nan,nan,3179.00361903,3377.58262876,nan,3377.93610958,nan,nan,nan,nan
1,188,1,1,1.0,1.0,0.331680526258,0,0.0,0.0,0.0,0.318322911111,0.0855233435928,0.232799567518,0.403846254704,0.0855233435928,0.364145945796,501,0.7564492333,0.256253544744,-1.0,nan,nan,nan,nan,nan,nan,nan,nan,3179.00361903,3378.5244172,nan,3378.85609773,nan,nan,nan,nan
1,189,1,1,1.0,1.0,0.205874554696,0,0.0,0.0,0.0,0.318393962255,0.0853011182853,0.23309284397,0.403695080541,0.0853011182853,0.297011965769,165,1.0,-0.205056383665,0.203745440608,nan,nan,nan,nan,nan,nan,nan,nan,3179.00361903,3379.46620964,nan,3379.67208419,nan,nan,nan,nan
1,190,1,1,1.0,1.0,0.160072449013,0,0.0,0.0,0.0,0.317798621475,0.0854658698072,0.232332751667,0.403264491282,0.0854658698072,0.232542509989,68,1.0,-0.129018143495,-0.972903198114,nan,nan,nan,nan,nan,nan,nan,nan,3179.00361903,3380.40799751,nan,3380.56806996,nan,nan,nan,nan
1,191,1,1,1.0,1.0,0.274262109771,0,1.0,0.0,0.0,0.316968483725,0.086001255422,0.230967228303,0.402969739147,0.086001255422,0.213403037827,385,-0.0879796604702,0.477733444059,-0.233926720364,nan,nan,nan,nan,nan,nan,nan,nan,3179.00361903,3381.34979108,nan,3381.62405319,nan,nan,nan,nan
1,192,1,1,1.0,1.0,0.252461534576,1,0.0,0.0,1.0,0.316744890144,0.085831178295,0.230913711849,0.402576068439,0.085831178295,0.22893203112,152,1.0,-0.259184487343,0.0830625546756,-30.8695201376,120.869520138,13.9945201376,172.0,1.0,-0.170984061773,0.265024678188,1.90881402732,3179.00361903,3382.29157895,3383.09998153,3382.54404049,3386.05034999,3387.05682712,3384.12508353,3386.04201857
1,193,1,1,1.0,1.0,0.383414377226,0,0.0,0.0,0.0,0.316410081,0.0857323275079,0.230677753492,0.402142408508,0.0857323275079,0.303379340524,252,0.524721685615,0.240693665738,0.655694012224,nan,nan,nan,nan,nan,nan,nan,nan,3179.00361903,3387.20054151,nan,3387.58395589,nan,nan,nan,nan
1,194,1,1,1.0,1.0,0.353647883749,0,0.0,0.0,0.0,0.31675725352,0.0856451425022,0.231112111017,0.402402396022,0.0856451425022,0.329841265183,377,-0.121259861678,0.478700828387,-0.143695900877,nan,nan,nan,nan,nan,nan,nan,nan,3179.00361903,3388.14228691,nan,3388.49593479,nan,nan,nan,nan
1,195,1,1,1.0,1.0,0.275793370209,0,0.0,0.0,0.0,0.316947411407,0.0854649610895,0.231482450318,0.402412372497,0.0854649610895,0.337618543728,217,0.891250405156,0.0735373331823,0.568048345461,nan,nan,nan,nan,nan,nan,nan,nan,3179.00361903,3389.08411754,nan,3389.35991091,nan,nan,nan,nan
1,196,1,1,1.0,1.0,0.302000702475,0,0.0,0.0,0.0,0.316736365042,0.0852962056768,0.231440159365,0.402032570719,0.0852962056768,0.310480652144,491,0.673033477965,0.292707709811,-1.0,nan,nan,nan,nan,nan,nan,nan,nan,3179.00361903,3390.02590826,nan,3390.32790897,nan,nan,nan,nan
1,197,0,0,0.0,1.0,0.440176783362,0,0.0,0.0,0.0,0.31666118309,0.0850848123978,0.231576370693,0.401745995488,0.0850848123978,0.339323618682,198,1.0,-0.0302354974571,0.462326941081,nan,nan,nan,nan,nan,nan,nan,nan,3179.00361903,3390.96769699,nan,3391.40787377,nan,nan,nan,nan
1,198,1,1,1.0,1.0,0.33838203561,0,0.0,0.0,0.0,0.317288165833,0.0853213103007,0.231966855532,0.402609476134,0.0853213103007,0.360186507149,11,0.934659501434,0.163852895862,-1.0,nan,nan,nan,nan,nan,nan,nan,nan,3179.00361903,3391.90948572,nan,3392.24786775,nan,nan,nan,nan
1,199,1,1,1.0,1.0,0.356567000272,0,0.0,0.0,0.0,0.317394700529,0.0851187146162,0.232275985913,0.402513415145,0.0851187146162,0.378375273081,478,0.56422249903,0.334793662244,-1.0,nan,nan,nan,nan,nan,nan,nan,nan,3179.00361903,3392.85127644,nan,3393.20784344,nan,nan,nan,nan
1,200,1,1,1.0,1.0,0.326764869504,0,0.0,0.0,0.0,0.317591546256,0.0849497481546,0.232641798101,0.402541294411,0.0849497481546,0.340571301795,414,0.0747837862165,0.460162189034,-0.600089175003,nan,nan,nan,nan,nan,nan,nan,nan,3179.00361903,3393.79305889,nan,3394.11982376,nan,nan,nan,nan
1,201,1,1,1.0,1.0,0.28895206016,0,0.0,0.0,0.0,0.317637412872,0.0847395778755,0.232897834997,0.402376990748,0.0847395778755,0.324094643312,511,0.838703193994,0.216284169582,-1.0,nan,nan,nan,nan,nan,nan,nan,nan,3179.00361903,3394.73485104,nan,3395.0238031,nan,nan,nan,nan
1,202,0,0,1.0,0.0,0.251188857947,0,0.0,0.0,0.0,0.317494699675,0.0845526115288,0.232942088146,0.402047311204,0.0845526115288,0.28896859587,455,0.375608248681,0.394875365091,-1.0,nan,nan,nan,nan,nan,nan,nan,nan,3179.00361903,3395.67661981,nan,3395.92780867,nan,nan,nan,nan
1,203,1,1,1.0,1.0,0.221347098588,0,0.0,0.0,0.0,0.317166452933,0.084471351619,0.232695101315,0.401637804552,0.084471351619,0.253829338898,229,0.770397026975,0.135265939772,0.614681466938,nan,nan,nan,nan,nan,nan,nan,nan,3179.00361903,3396.61842564,nan,3396.83977274,nan,nan,nan,nan
1,204,1,1,1.0,1.0,0.391553919995,0,0.0,0.0,0.0,0.31669443641,0.0845296691349,0.232164767275,0.401224105545,0.0845296691349,0.288029958843,85,1.0,-0.212156452387,-0.638781227021,nan,nan,nan,nan,nan,nan,nan,nan,3179.00361903,3397.56021352,nan,3397.95176744,nan,nan,nan,nan
1,205,0,0,1.0,0.0,0.193760463153,0,0.0,0.0,0.0,0.317061394662,0.0844841689452,0.232577225717,0.401545563608,0.0844841689452,0.268887160579,435,0.221263830514,0.433027056876,-1.0,nan,nan,nan,nan,nan,nan,nan,nan,3179.00361903,3398.50200167,nan,3398.69576213,nan,nan,nan,nan
1,206,1,1,1.0,1.0,0.211942291586,0,0.0,0.0,0.0,0.316459926704,0.0847145628576,0.231745363846,0.401174489562,0.0847145628576,0.265752224911,17,0.981069150956,0.135921910835,-1.0,nan,nan,nan,nan,nan,nan,nan,nan,3179.00361903,3399.44379296,nan,3399.65573526,nan,nan,nan,nan
1,207,1,1,1.0,1.0,0.318142371019,0,0.0,0.0,0.0,0.315952559543,0.0848203448377,0.231132214705,0.400772904381,0.0848203448377,0.241281708586,209,0.967301840512,0.0304835193525,0.52804999659,nan,nan,nan,nan,nan,nan,nan,nan,3179.00361903,3400.38557912,nan,3400.7037215,nan,nan,nan,nan
1,208,1,1,1.0,1.0,0.328324354719,0,0.0,0.0,0.0,0.315963138343,0.0846153529649,0.231347785378,0.400578491307,0.0846153529649,0.286136339108,270,0.331159066004,0.309369715406,0.641393874915,nan,nan,nan,nan,nan,nan,nan,nan,3179.00361903,3401.3273727,nan,3401.65569705,nan,nan,nan,nan
1,209,1,1,1.0,1.0,0.386527645402,0,0.0,0.0,0.0,0.316022567267,0.0844160359536,0.231606531314,0.400438603221,0.0844160359536,0.344331457047,86,1.0,-0.21659106269,-0.625617802914,nan,nan,nan,nan,nan,nan,nan,nan,3179.00361903,3402.26915829,nan,3402.65568593,nan,nan,nan,nan
1,210,1,1,1.0,1.0,0.316731421859,0,0.0,0.0,0.0,0.316359912139,0.0843542638882,0.232005648251,0.400714176027,0.0843542638882,0.34386114066,146,1.0,-0.278792578557,0.0248813210997,nan,nan,nan,nan,nan,nan,nan,nan,3179.00361903,3403.21094217,nan,3403.52767359,nan,nan,nan,nan
1,211,1,1,1.0,1.0,0.262904667878,0,0.0,0.0,0.0,0.316361681233,0.0841531846188,0.232208496614,0.400514865852,0.0841531846188,0.322054578379,114,1.0,-0.303747463913,-0.303859371662,nan,nan,nan,nan,nan,nan,nan,nan,3179.00361903,3404.1527346,nan,3404.41563927,nan,nan,nan,nan
1,212,1,1,1.0,1.0,0.401095573907,0,0.0,0.0,0.0,0.316108330459,0.0840337719859,0.232074558473,0.400142102445,0.0840337719859,0.326910554548,188,1.0,-0.0857393506835,0.392804289229,nan,nan,nan,nan,nan,nan,nan,nan,3179.00361903,3405.0945239,nan,3405.49561947,nan,nan,nan,nan
1,213,1,1,1.0,1.0,0.2672908979,0,0.0,0.0,0.0,0.316509213682,0.0840373387252,0.232471874957,0.400546552408,0.0840373387252,0.310430379895,316,-0.0718215561597,0.428203514031,0.427892255365,nan,nan,nan,nan,nan,nan,nan,nan,3179.00361903,3406.03631348,nan,3406.30360438,nan,nan,nan,nan
1,214,0,0,0.0,1.0,0.397484809975,0,0.0,0.0,0.0,0.316278141777,0.0839073158813,0.232370825896,0.400185457659,0.0839073158813,0.355290427261,3,0.871087178923,0.199335109687,-1.0,nan,nan,nan,nan,nan,nan,nan,nan,3179.00361903,3406.97809907,nan,3407.37558388,nan,nan,nan,nan
1,215,1,1,1.0,1.0,0.271697369753,0,0.0,0.0,0.0,0.316657612189,0.0838940399973,0.232763572192,0.400551652187,0.0838940399973,0.312157692543,298,0.0600896634305,0.391050340636,0.53969689008,nan,nan,nan,nan,nan,nan,nan,nan,3179.00361903,3407.91988609,nan,3408.19158346,nan,nan,nan,nan
1,216,1,1,1.0,1.0,0.313898689928,0,0.0,0.0,0.0,0.316448494783,0.0837545958504,0.232693898932,0.400203090633,0.0837545958504,0.327693623219,4,0.879126049628,0.195014037372,-1.0,nan,nan,nan,nan,nan,nan,nan,nan,3179.00361903,3408.86167481,nan,3409.1755735,nan,nan,nan,nan
1,217,1,1,1.0,1.0,0.292083859909,0,0.0,0.0,0.0,0.316436690131,0.0835606738286,0.232876016302,0.399997363959,0.0835606738286,0.292559973197,285,0.178734351563,0.356878681702,0.598527012995,nan,nan,nan,nan,nan,nan,nan,nan,3179.00361903,3409.8034681,nan,3410.09555196,nan,nan,nan,nan
1,218,1,1,1.0,1.0,0.294274551445,0,0.0,0.0,0.0,0.316324465107,0.0833842294334,0.232940235673,0.39970869454,0.0833842294334,0.300085700427,192,1.0,-0.0635997558896,0.421658406928,nan,nan,nan,nan,nan,nan,nan,nan,3179.00361903,3410.74525683,nan,3411.03953138,nan,nan,nan,nan
1,219,0,0,0.0,1.0,0.432477716706,0,0.0,0.0,0.0,0.316223318714,0.0832061030443,0.233017215669,0.399429421758,0.0832061030443,0.339612042687,334,-0.152796554809,0.454467054946,0.285576400052,nan,nan,nan,nan,nan,nan,nan,nan,3179.00361903,3411.68704213,nan,3412.11951985,nan,nan,nan,nan
1,220,1,1,1.0,1.0,0.314670164604,0,0.0,0.0,0.0,0.316754160714,0.0833850914045,0.233369069309,0.400139252118,0.0833850914045,0.347140810918,164,1.0,-0.209685835145,0.194761549991,nan,nan,nan,nan,nan,nan,nan,nan,3179.00361903,3412.62883314,nan,3412.9435033,nan,nan,nan,nan
1,221,1,1,1.0,1.0,0.308856449788,0,0.0,0.0,0.0,0.316744688004,0.0831954820918,0.233549205912,0.399940170096,0.0831954820918,0.352001443699,342,-0.170052622031,0.462913557708,0.21407524247,nan,nan,nan,nan,nan,nan,nan,nan,3179.00361903,3413.57061959,nan,3413.87947604,nan,nan,nan,nan
1,222,1,1,1.0,1.0,0.27905260853,0,0.0,0.0,0.0,0.316708994618,0.0830087319087,0.23370026271,0.399717726527,0.0830087319087,0.300859740974,441,0.266287261384,0.422891888867,-1.0,nan,nan,nan,nan,nan,nan,nan,nan,3179.00361903,3414.5124123,nan,3414.79146491,nan,nan,nan,nan
1,223,0,0,1.0,0.0,0.265264422516,0,0.0,0.0,0.0,0.316539371258,0.0828599429316,0.233679428326,0.399399314189,0.0828599429316,0.284391160278,334,-0.152796554809,0.454467054946,0.285576400052,nan,nan,nan,nan,nan,nan,nan,nan,3179.00361903,3415.45418991,nan,3415.71945433,nan,nan,nan,nan
1,224,1,1,1.0,1.0,0.291448091739,0,0.0,0.0,0.0,0.316309438752,0.0827449022248,0.233564536527,0.399054340977,0.0827449022248,0.278588374262,21,1.0,0.116713997928,-1.0,nan,nan,nan,nan,nan,nan,nan,nan,3179.00361903,3416.39598691,nan,3416.687435,nan,nan,nan,nan
1,225,1,1,1.0,1.0,0.365635676892,0,0.0,0.0,0.0,0.316198450596,0.0825766318746,0.233621818721,0.39877508247,0.0825766318746,0.307449397049,85,1.0,-0.212156452387,-0.638781227021,nan,nan,nan,nan,nan,nan,nan,nan,3179.00361903,3417.33776708,nan,3417.70340276,nan,nan,nan,nan
1,226,1,1,1.0,1.0,0.391829324537,0,0.0,0.0,0.0,0.316418171602,0.0824585230811,0.23395964852,0.398876694683,0.0824585230811,0.349637697722,15,0.965734432428,0.145352784795,-1.0,nan,nan,nan,nan,nan,nan,nan,nan,3179.00361903,3418.2795655,nan,3418.67139482,nan,nan,nan,nan
1,227,1,1,1.0,1.0,0.410013433779,0,0.0,0.0,0.0,0.316751849269,0.0824279917828,0.234684879053,0.399640507455,0.0824279917828,0.389159478402,219,0.871627318206,0.0840881726889,0.576959667802,nan,nan,nan,nan,nan,nan,nan,nan,3179.00361903,3419.22135109,nan,3419.63136452,nan,nan,nan,nan
1,228,1,1,nan,nan,nan,0,0.0,0.0,0.0,0.317162693254,0.0824778142006,0.234684879053,0.399640507455,0.0824778142006,0.400921379158,154,1.0,-0.251813147593,0.102138173725,nan,nan,nan,nan,nan,nan,nan,nan,3179.00361903,3420.16313925,nan,nan,nan,nan,nan,nan
1,229,1,1,1.0,1.0,0.126428910182,0,0.0,0.0,0.0,0.317162693254,0.0824778142006,0.234684879053,0.399640507455,0.0824778142006,0.26822117198,115,1.0,-0.305166285737,-0.293172749504,nan,nan,nan,nan,nan,nan,nan,nan,3179.00361903,3421.1049351,nan,3421.23136401,nan,nan,nan,nan
1,230,1,1,1.0,1.0,0.456604690175,0,0.0,0.0,0.0,0.316326141574,0.0832563076466,0.233069833927,0.399582449221,0.0832563076466,0.291516800178,265,0.384259149088,0.291568309415,0.649478858709,nan,nan,nan,nan,nan,nan,nan,nan,3179.00361903,3422.04671556,nan,3422.50332025,nan,nan,nan,nan
1,231,0,0,0.0,1.0,0.450805800501,0,0.0,0.0,0.0,0.316938711655,0.083587672006,0.233351039649,0.400526383661,0.083587672006,0.344613133619,164,1.0,-0.209685835145,0.194761549991,nan,nan,nan,nan,nan,nan,nan,nan,3179.00361903,3422.9885097,nan,3423.4393155,nan,nan,nan,nan
1,232,1,1,1.0,1.0,0.276981372852,0,0.0,0.0,0.0,0.317520742476,0.0838695242731,0.233651218203,0.401390266749,0.0838695242731,0.394797287843,491,0.673033477965,0.292707709811,-1.0,nan,nan,nan,nan,nan,nan,nan,nan,3179.00361903,3423.93031924,nan,3424.20730061,nan,nan,nan,nan
1,233,1,1,1.0,1.0,0.423197497497,0,0.0,0.0,0.0,0.31734524737,0.083730102875,0.233615144495,0.401075350245,0.083730102875,0.38366155695,106,1.0,-0.287630069369,-0.390564445695,nan,nan,nan,nan,nan,nan,nan,nan,3179.00361903,3424.87208687,nan,3425.29528437,nan,nan,nan,nan
1,234,1,1,1.0,1.0,0.32938805467,0,0.0,0.0,0.0,0.317801507068,0.0838367425772,0.233964764491,0.401638249646,0.0838367425772,0.343188975006,158,1.0,-0.235949227405,0.139764106,nan,nan,nan,nan,nan,nan,nan,nan,3179.00361903,3425.81387588,nan,3426.14326394,nan,nan,nan,nan
1,235,1,1,1.0,1.0,0.315603004652,0,0.0,0.0,0.0,0.317851234741,0.0836600707774,0.234191163963,0.401511305518,0.0836600707774,0.356062852273,506,0.797774742377,0.236703125255,-1.0,nan,nan,nan,nan,nan,nan,nan,nan,3179.00361903,3426.75565406,nan,3427.07125706,nan,nan,nan,nan
1,236,1,1,1.0,1.0,0.309775320115,0,0.0,0.0,0.0,0.31784162692,0.0834812473705,0.234360379549,0.40132287429,0.0834812473705,0.318255459812,47,1.0,-0.0170755915744,-1.0,nan,nan,nan,nan,nan,nan,nan,nan,3179.00361903,3427.69744934,nan,3428.00722466,nan,nan,nan,nan
1,237,1,1,1.0,1.0,0.303973009228,0,0.0,0.0,0.0,0.31780730221,0.083305093085,0.234502209125,0.401112395295,0.083305093085,0.309783777998,308,-0.0186828559465,0.413097475488,0.481682330771,nan,nan,nan,nan,nan,nan,nan,nan,3179.00361903,3428.63924121,nan,3428.94321422,nan,nan,nan,nan
1,238,1,1,1.0,1.0,0.290168857784,0,0.0,0.0,0.0,0.317748682324,0.083133268855,0.234615413469,0.400881951179,0.083133268855,0.301305729042,150,1.0,-0.266152531622,0.0638227105866,nan,nan,nan,nan,nan,nan,nan,nan,3179.00361903,3429.58102765,nan,3429.87119651,nan,nan,nan,nan
1,239,1,1,1.0,1.0,0.340350065962,0,0.0,0.0,0.0,0.317632311757,0.0829769570323,0.234912274102,0.400543254909,0.0829769570323,0.311497310991,499,0.739831889234,0.263827757734,-1.0,nan,nan,nan,nan,nan,nan,nan,nan,3179.00361903,3430.52281894,nan,3430.86316901,nan,nan,nan,nan
1,240,1,1,nan,nan,nan,0,0.0,0.0,0.0,0.317727764505,0.0828154904036,0.234912274102,0.400543254909,0.0828154904036,0.315259461873,17,0.981069150956,0.135921910835,-1.0,nan,nan,nan,nan,nan,nan,nan,nan,3179.00361903,3431.46461565,nan,nan,nan,nan,nan,nan
1,241,1,1,1.0,1.0,0.0887734750286,0,0.0,0.0,0.0,0.317727764505,0.0828154904036,0.234912274102,0.400543254909,0.0828154904036,0.214561770495,453,0.359670421306,0.39926174925,-1.0,nan,nan,nan,nan,nan,nan,nan,nan,3179.00361903,3432.40639469,nan,3432.49516816,nan,nan,nan,nan
1,242,1,1,1.0,1.0,0.41093772091,0,0.0,0.0,0.0,0.316769796767,0.083953095919,0.232816700848,0.400722892686,0.083953095919,0.249855597969,2,0.863024578927,0.203622855609,-1.0,nan,nan,nan,nan,nan,nan,nan,nan,3179.00361903,3433.34818142,nan,3433.75911914,nan,nan,nan,nan
1,243,1,1,1.0,1.0,0.317137686303,0,0.0,0.0,0.0,0.317162163118,0.0839973184778,0.23316484464,0.401159481595,0.0839973184778,0.272282960747,62,1.0,-0.0974372467467,-1.0,nan,nan,nan,nan,nan,nan,nan,nan,3179.00361903,3434.28996701,nan,3434.60710469,nan,nan,nan,nan
1,244,1,1,1.0,1.0,0.279346259311,0,0.0,0.0,0.0,0.317162061554,0.0838228690447,0.233339192509,0.400984930599,0.0838228690447,0.335807222174,196,1.0,-0.0413610816081,0.449130757868,nan,nan,nan,nan,nan,nan,nan,nan,3179.00361903,3435.2317583,nan,3435.51110456,nan,nan,nan,nan
1,245,1,1,1.0,1.0,0.329538586317,0,0.0,0.0,0.0,0.317005797908,0.0836846700667,0.233321127842,0.400690467975,0.0836846700667,0.30867417731,277,0.258470646878,0.33263615818,0.624824240443,nan,nan,nan,nan,nan,nan,nan,nan,3179.00361903,3436.17354503,nan,3436.50308362,nan,nan,nan,nan
1,246,1,1,1.0,1.0,0.387724486063,0,0.0,0.0,0.0,0.317057373169,0.0835161558362,0.233541217333,0.400573529006,0.0835161558362,0.332203110564,70,1.0,-0.13936984996,-0.906436913284,nan,nan,nan,nan,nan,nan,nan,nan,3179.00361903,3437.11533433,nan,3437.50305881,nan,nan,nan,nan
1,247,1,1,1.0,1.0,0.309961774154,0,0.0,0.0,0.0,0.317346992485,0.0834670300988,0.233879962386,0.400814022583,0.0834670300988,0.342408282178,429,0.177531820842,0.442080780324,-0.901885199234,nan,nan,nan,nan,nan,nan,nan,nan,3179.00361903,3438.05711792,nan,3438.3670797,nan,nan,nan,nan
1,248,1,1,1.0,1.0,0.296080646222,0,0.0,0.0,0.0,0.317316848736,0.0832978458826,0.234019002854,0.400614694619,0.0832978458826,0.331255635479,74,1.0,-0.159715158178,-0.810443278181,nan,nan,nan,nan,nan,nan,nan,nan,3179.00361903,3438.99893544,nan,3439.29501609,nan,nan,nan,nan
1,249,1,1,1.0,1.0,0.274314282695,0,0.0,0.0,0.0,0.31723052271,0.0831393499036,0.234091172806,0.400369872613,0.0831393499036,0.293452234357,371,-0.14179360683,0.478331938097,-0.0779732583494,nan,nan,nan,nan,nan,nan,nan,nan,3179.00361903,3439.94070136,nan,3440.21501565,nan,nan,nan,nan
1,250,1,1,1.0,1.0,0.244509015931,0,0.0,0.0,0.0,0.31705677275,0.0830156225615,0.234041150189,0.400072395312,0.0830156225615,0.271634648282,91,1.0,-0.237709898716,-0.562722318432,nan,nan,nan,nan,nan,nan,nan,nan,3179.00361903,3440.88249408,nan,3441.1270031,nan,nan,nan,nan
1,251,1,1,1.0,1.0,0.262698827311,0,0.0,0.0,0.0,0.316764241473,0.0829755495244,0.233788691948,0.399739790997,0.0829755495244,0.260507375312,507,0.805995650865,0.232688349973,-1.0,nan,nan,nan,nan,nan,nan,nan,nan,3179.00361903,3441.82427568,nan,3442.08697451,nan,nan,nan,nan
1,252,1,1,1.0,1.0,0.272905329242,0,0.0,0.0,0.0,0.316547111295,0.0828793311845,0.233667780111,0.39942644248,0.0828793311845,0.260037724162,234,0.71814774995,0.15974031316,0.62913160129,nan,nan,nan,nan,nan,nan,nan,nan,3179.00361903,3442.76606327,nan,3443.0389686,nan,nan,nan,nan
1,253,1,1,1.0,1.0,0.243092364864,0,0.0,0.0,0.0,0.316372544167,0.0827592626255,0.233613281542,0.399131806793,0.0827592626255,0.259565507139,125,1.0,-0.311567427947,-0.187805059354,nan,nan,nan,nan,nan,nan,nan,nan,3179.00361903,3443.70785399,nan,3443.95094635,nan,nan,nan,nan
1,254,1,1,1.0,1.0,0.261286737747,0,0.0,0.0,0.0,0.316080591262,0.0827231372822,0.233232476481,0.398493834188,0.0827231372822,0.259094810618,494,0.698129958021,0.282143999684,-1.0,nan,nan,nan,nan,nan,nan,nan,nan,3179.00361903,3444.6496487,nan,3444.91093544,nan,nan,nan,nan
1,255,1,1,nan,nan,nan,0,0.0,0.0,0.0,0.315863155335,0.0826306788536,0.233232476481,0.398493834188,0.0826306788536,0.252189551305,2,0.863024578927,0.203622855609,-1.0,nan,nan,nan,nan,nan,nan,nan,nan,3179.00361903,3445.59143087,nan,nan,nan,nan,nan,nan
1,256,1,1,1.0,1.0,0.497637679451,0,0.0,0.0,0.0,0.315863155335,0.0826306788536,0.233232476481,0.398493834188,0.0826306788536,0.379462208599,309,-0.0258396312562,0.415106541901,0.475305697888,nan,nan,nan,nan,nan,nan,nan,nan,3179.00361903,3446.53324212,nan,3447.0308798,nan,nan,nan,nan
1,257,1,1,1.0,1.0,0.35587449756,0,0.0,0.0,0.0,0.316581631715,0.083252183844,0.233329447871,0.399833815559,0.083252183844,0.426756088505,162,1.0,-0.218739557155,0.176632971453,nan,nan,nan,nan,nan,nan,nan,nan,3179.00361903,3447.47500661,nan,3447.83088111,nan,nan,nan,nan
1,258,1,1,1.0,1.0,0.238060103147,0,0.0,0.0,0.0,0.316736328037,0.0831245663747,0.233611761662,0.399860894412,0.0831245663747,0.363857426719,212,0.93926288676,0.0467731277665,0.543851001166,nan,nan,nan,nan,nan,nan,nan,nan,3179.00361903,3448.41680133,nan,3448.65486143,nan,nan,nan,nan
1,259,1,1,1.0,1.0,0.240296125412,0,0.0,0.0,0.0,0.316427793822,0.0831070142138,0.233320779608,0.399534808036,0.0831070142138,0.278076908706,9,0.918933560847,0.172916688009,-1.0,nan,nan,nan,nan,nan,nan,nan,nan,3179.00361903,3449.35858635,nan,3449.59888247,nan,nan,nan,nan
1,260,1,1,1.0,1.0,0.250459577655,0,0.0,0.0,0.0,0.316130404492,0.0830803738795,0.233050030613,0.399210778371,0.0830803738795,0.242938602072,294,0.0948761993654,0.381212130724,0.559858230992,nan,nan,nan,nan,nan,nan,nan,nan,3179.00361903,3450.30037707,nan,3450.55083665,nan,nan,nan,nan
1,261,1,1,1.0,1.0,0.244652705267,0,0.0,0.0,0.0,0.315874875983,0.0830193146825,0.2328555613,0.398894190665,0.0830193146825,0.245136136111,86,1.0,-0.21659106269,-0.625617802914,nan,nan,nan,nan,nan,nan,nan,nan,3179.00361903,3451.24216608,nan,3451.48681879,nan,nan,nan,nan
1,262,1,1,1.0,1.0,0.518826434738,0,0.0,0.0,0.0,0.315598821058,0.082976368057,0.232622453001,0.398575189115,0.082976368057,0.337979572553,129,1.0,-0.310070485259,-0.146368003411,nan,nan,nan,nan,nan,nan,nan,nan,3179.00361903,3452.18395224,nan,3452.70277868,nan,nan,nan,nan
1,263,1,1,1.0,1.0,0.249032092863,0,0.0,0.0,0.0,0.316383483659,0.083769587304,0.232613896355,0.400153070963,0.083769587304,0.337503744289,414,0.0747837862165,0.460162189034,-0.600089175003,nan,nan,nan,nan,nan,nan,nan,nan,3179.00361903,3453.12574496,nan,3453.37477705,nan,nan,nan,nan
1,264,1,1,1.0,1.0,0.187219748856,0,0.0,0.0,0.0,0.316124439848,0.0837122083727,0.232412231475,0.399836648221,0.0837122083727,0.318359425485,197,1.0,-0.035797595552,0.455774741445,nan,nan,nan,nan,nan,nan,nan,nan,3179.00361903,3454.06755421,nan,3454.25477396,nan,nan,nan,nan
1,265,1,1,1.0,1.0,0.269429986831,0,0.0,0.0,0.0,0.315630552143,0.0839303568005,0.231700195343,0.399560908944,0.0839303568005,0.235227276183,70,1.0,-0.13936984996,-0.906436913284,nan,nan,nan,nan,nan,nan,nan,nan,3179.00361903,3455.00932612,nan,3455.27875611,nan,nan,nan,nan
1,266,1,1,1.0,1.0,0.24761886301,0,0.0,0.0,0.0,0.315454214108,0.083818458319,0.231635755789,0.399272672426,0.083818458319,0.234756199565,484,0.614398947124,0.316112737715,-1.0,nan,nan,nan,nan,nan,nan,nan,nan,3179.00361903,3455.9511214,nan,3456.19874027,nan,nan,nan,nan
1,267,0,0,1.0,0.0,0.217821578961,0,0.0,0.0,0.0,0.315196285016,0.0837630651372,0.231433219879,0.398959350153,0.0837630651372,0.244956809601,65,1.0,-0.113312155659,-1.0,nan,nan,nan,nan,nan,nan,nan,nan,3179.00361903,3456.89289531,nan,3457.11071688,nan,nan,nan,nan
1,268,1,1,1.0,1.0,0.260013205814,0,0.0,0.0,0.0,0.314827441432,0.0838179835267,0.231009457906,0.398645424959,0.0838179835267,0.241817882595,262,0.416452475899,0.2804144186,0.652815538838,nan,nan,nan,nan,nan,nan,nan,nan,3179.00361903,3457.83468261,nan,3458.09469581,nan,nan,nan,nan
1,269,1,1,1.0,1.0,0.26221587148,0,0.0,0.0,0.0,0.31462059526,0.083727167296,0.230893427964,0.398347762556,0.083727167296,0.246683552085,52,1.0,-0.0438860552364,-1.0,nan,nan,nan,nan,nan,nan,nan,nan,3179.00361903,3458.77647361,nan,3459.03868949,nan,nan,nan,nan
1,270,1,1,1.0,1.0,0.296395109151,0,0.0,0.0,0.0,0.31442358502,0.0836311527921,0.230792432228,0.398054737813,0.0836311527921,0.272874728815,8,0.91102658764,0.177400941622,-1.0,nan,nan,nan,nan,nan,nan,nan,nan,3179.00361903,3459.7182612,nan,3460.01465631,nan,nan,nan,nan
1,271,1,1,1.0,1.0,0.274608218577,0,0.0,0.0,0.0,0.314356062639,0.0834816572158,0.230874405423,0.397837719855,0.0834816572158,0.27773973307,409,0.0429436170054,0.464793150178,-0.529461854507,nan,nan,nan,nan,nan,nan,nan,nan,3179.00361903,3460.66004936,nan,3460.93465757,nan,nan,nan,nan
1,272,1,1,1.0,1.0,0.276769830263,0,0.0,0.0,0.0,0.314207749788,0.0833609967636,0.230846753024,0.397568746552,0.0833609967636,0.282591052664,33,1.0,0.0565990290419,-1.0,nan,nan,nan,nan,nan,nan,nan,nan,3179.00361903,3461.60186346,nan,3461.87863329,nan,nan,nan,nan
1,273,1,1,1.0,1.0,0.278969359933,0,0.0,0.0,0.0,0.314068575366,0.0832370944447,0.230831480921,0.397305669811,0.0832370944447,0.276782469591,275,0.279002393219,0.326185254474,0.630178474337,nan,nan,nan,nan,nan,nan,nan,nan,3179.00361903,3462.54363622,nan,3462.82260558,nan,nan,nan,nan
1,274,0,0,1.0,0.0,0.265173476422,0,0.0,0.0,0.0,0.313938578272,0.0831101618105,0.230828416461,0.397048740082,0.0831101618105,0.27363755554,331,-0.143297839787,0.450801753776,0.311166711333,nan,nan,nan,nan,nan,nan,nan,nan,3179.00361903,3463.48541696,nan,3463.75059044,nan,nan,nan,nan
1,275,1,1,1.0,1.0,0.307366813766,0,0.0,0.0,0.0,0.313758633246,0.083009357697,0.230749275549,0.396767990943,0.083009357697,0.28383655004,199,1.0,-0.0246761787097,0.468786302982,nan,nan,nan,nan,nan,nan,nan,nan,3179.00361903,3464.42721053,nan,3464.73457735,nan,nan,nan,nan
1,276,1,1,1.0,1.0,0.389567073202,0,0.0,0.0,0.0,0.31373513391,0.0828575295276,0.230877604383,0.396592663438,0.0828575295276,0.320702454463,503,0.773020196022,0.248538461814,-1.0,nan,nan,nan,nan,nan,nan,nan,nan,3179.00361903,3465.36899185,nan,3465.75855892,nan,nan,nan,nan
1,277,1,1,1.0,1.0,0.319756309735,0,0.0,0.0,0.0,0.314012906581,0.0828324163955,0.231180490186,0.396845322977,0.0828324163955,0.338896732234,173,1.0,-0.165909522591,0.273535192888,nan,nan,nan,nan,nan,nan,nan,nan,3179.00361903,3466.31078485,nan,3466.63054116,nan,nan,nan,nan
1,278,1,1,1.0,1.0,0.329960816191,0,0.0,0.0,0.0,0.314033867907,0.0826818495583,0.231352018349,0.396715717465,0.0826818495583,0.346428066376,12,0.942476689623,0.159273951266,-1.0,nan,nan,nan,nan,nan,nan,nan,nan,3179.00361903,3467.25256417,nan,3467.58252499,nan,nan,nan,nan
1,279,1,1,1.0,1.0,0.372146455804,0,0.0,0.0,0.0,0.314091784082,0.0825369498469,0.231554834235,0.396628733929,0.0825369498469,0.34062119391,203,1.0,-0.00249325098487,0.493674673203,nan,nan,nan,nan,nan,nan,nan,nan,3179.00361903,3468.19436459,nan,3468.56651104,nan,nan,nan,nan
1,280,1,1,1.0,1.0,0.286306637456,0,0.0,0.0,0.0,0.314302127096,0.0824610988275,0.231841028268,0.396763225923,0.0824610988275,0.32947130315,273,0.299732959835,0.319577193062,0.635038033336,nan,nan,nan,nan,nan,nan,nan,nan,3179.00361903,3469.13618866,nan,3469.4224953,nan,nan,nan,nan
1,281,1,1,1.0,1.0,0.256547841709,0,0.0,0.0,0.0,0.314201060346,0.0823292407688,0.231871819578,0.396530301115,0.0823292407688,0.305000311656,430,0.184725017221,0.440645728776,-0.941904167281,nan,nan,nan,nan,nan,nan,nan,nan,3179.00361903,3470.07793605,nan,3470.33448389,nan,nan,nan,nan
1,282,1,1,1.0,1.0,0.530727558187,0,0.0,0.0,0.0,0.313993674668,0.0822534841813,0.231740190486,0.396247158849,0.0822534841813,0.357860679117,495,0.706485112283,0.278551693791,-1.0,nan,nan,nan,nan,nan,nan,nan,nan,3179.00361903,3471.0197282,nan,3471.55045576,nan,nan,nan,nan
1,283,1,1,1.0,1.0,0.508931259508,0,0.0,1.0,0.0,0.314770498623,0.083121276981,0.231649221642,0.397891775604,0.083121276981,0.432068886468,16,0.973419431522,0.140652110383,-1.0,nan,nan,nan,nan,nan,nan,nan,nan,3179.00361903,3471.96151407,nan,3472.47044533,nan,nan,nan,nan
1,284,1,1,1.0,1.0,0.255119786714,1,0.0,0.0,1.0,0.315463929912,0.0837772490763,0.231686680836,0.399241178988,0.0837772490763,0.431592868137,319,-0.0891891826932,0.433308674125,0.406137099325,-133.622016754,223.622016754,-0.674858246305,318.0,-0.0835627602325,0.431640264478,0.413481556053,1.52552708879,3179.00361903,3472.90330081,3473.71171222,3473.15842059,3476.27036083,3477.27009113,3474.72847625,3476.26203027
1,285,0,0,0.0,1.0,0.378139212145,0,0.0,0.0,0.0,0.315249182071,0.0837052136887,0.231543968383,0.39895439576,0.0837052136887,0.380730086123,133,1.0,-0.306259573676,-0.105336427414,nan,nan,nan,nan,nan,nan,nan,nan,3179.00361903,3477.41221695,nan,3477.79035617,nan,nan,nan,nan
1,286,1,1,1.0,1.0,0.596310891211,0,0.0,0.0,0.0,0.315472196362,0.0836402562849,0.231831940078,0.399112452647,0.0836402562849,0.409856630024,434,0.213881816697,0.43461034373,-1.0,nan,nan,nan,nan,nan,nan,nan,nan,3179.00361903,3478.35400169,nan,3478.95031258,nan,nan,nan,nan
1,287,0,0,0.0,1.0,0.61449785158,0,0.0,0.0,0.0,0.316464559242,0.0851391908687,0.231325368373,0.40160375011,0.0851391908687,0.529649318312,284,0.188465149253,0.353984098999,0.602236276499,nan,nan,nan,nan,nan,nan,nan,nan,3179.00361903,3479.29579441,nan,3479.91029226,nan,nan,nan,nan
1,288,1,1,1.0,1.0,0.488683612086,0,0.0,0.0,0.0,0.317513972243,0.08680332389,0.230710648353,0.404317296133,0.08680332389,0.566497451626,35,1.0,0.0462653595507,-1.0,nan,nan,nan,nan,nan,nan,nan,nan,3179.00361903,3480.2375837,nan,3480.72626732,nan,nan,nan,nan
1,289,1,1,1.0,1.0,0.410904364428,0,0.0,0.0,0.0,0.31811456747,0.0872400254355,0.230874542035,0.405354592906,0.0872400254355,0.504695276031,213,0.929785093221,0.0521668813814,0.548906519778,nan,nan,nan,nan,nan,nan,nan,nan,3179.00361903,3481.17936987,nan,3481.59027423,nan,nan,nan,nan
1,290,1,1,1.0,1.0,0.205101654516,0,0.0,0.0,0.0,0.31843900732,0.087259442003,0.231179565317,0.405698449323,0.087259442003,0.36822987701,94,1.0,-0.249439013202,-0.526745155233,nan,nan,nan,nan,nan,nan,nan,nan,3179.00361903,3482.12117028,nan,3482.32627194,nan,nan,nan,nan
1,291,1,1,1.0,1.0,0.319295591675,0,0.0,0.0,0.0,0.318044103652,0.0873629283904,0.230681175261,0.405407032042,0.0873629283904,0.311767203539,392,-0.0541067903503,0.475522277549,-0.315549842675,nan,nan,nan,nan,nan,nan,nan,nan,3179.00361903,3483.06294988,nan,3483.38224548,nan,nan,nan,nan
1,292,1,1,1.0,1.0,0.257501493907,0,0.0,0.0,0.0,0.318048449096,0.0872111558217,0.230837293274,0.405259604918,0.0872111558217,0.260632913366,308,-0.0186828559465,0.413097475488,0.481682330771,nan,nan,nan,nan,nan,nan,nan,nan,3179.00361903,3484.00472977,nan,3484.26223127,nan,nan,nan,nan
1,293,1,1,1.0,1.0,0.243691070238,0,0.0,0.0,0.0,0.317838944061,0.0871327097122,0.230706234349,0.404971653773,0.0871327097122,0.27349605194,147,1.0,-0.275801134503,0.0346720467303,nan,nan,nan,nan,nan,nan,nan,nan,3179.00361903,3484.94652705,nan,3485.19021812,nan,nan,nan,nan
1,294,1,1,1.0,1.0,0.229882927495,0,0.0,0.0,0.0,0.317583261737,0.0870908855303,0.230492376207,0.404674147268,0.0870908855303,0.243691830547,263,0.405698801511,0.284171736334,0.651829885785,nan,nan,nan,nan,nan,nan,nan,nan,3179.00361903,3485.88831378,nan,3486.11819671,nan,nan,nan,nan
1,295,1,1,1.0,1.0,0.23211894976,0,0.0,0.0,0.0,0.317281886018,0.0870924657179,0.2301894203,0.404374351736,0.0870924657179,0.235230982498,19,0.99625917486,0.126374530333,-1.0,nan,nan,nan,nan,nan,nan,nan,nan,3179.00361903,3486.83006687,nan,3487.06218582,nan,nan,nan,nan
1,296,1,1,1.0,1.0,0.258262134972,0,0.0,0.0,0.0,0.316990232127,0.0870854423138,0.229904789813,0.404075674441,0.0870854423138,0.240088004076,388,-0.0739633693698,0.476941921698,-0.268577162136,nan,nan,nan,nan,nan,nan,nan,nan,3179.00361903,3487.77189295,nan,3488.03015508,nan,nan,nan,nan
1,297,1,1,1.0,1.0,0.380476444028,0,0.0,0.0,0.0,0.316789794935,0.0870041484809,0.229785646454,0.403793943416,0.0870041484809,0.29028584292,145,1.0,-0.281667413287,0.0150551701241,nan,nan,nan,nan,nan,nan,nan,nan,3179.00361903,3488.71368025,nan,3489.09415669,nan,nan,nan,nan
1,298,1,1,1.0,1.0,0.286663865088,0,0.0,0.0,0.0,0.317006416191,0.0869351681241,0.230071248067,0.403941584315,0.0869351681241,0.308467481363,320,-0.0946500390753,0.43494401576,0.398701238857,nan,nan,nan,nan,nan,nan,nan,nan,3179.00361903,3489.6554704,nan,3489.94213427,nan,nan,nan,nan
1,299,1,1,1.0,1.0,0.44085389073,0,0.0,0.0,0.0,0.316903560085,0.0868056126784,0.230097947407,0.403709172764,0.0868056126784,0.369331399949,68,1.0,-0.129018143495,-0.972903198114,nan,nan,nan,nan,nan,nan,nan,nan,3179.00361903,3490.5972597,nan,3491.03811359,nan,nan,nan,nan
1,300,1,1,1.0,1.0,0.307094830321,0,0.0,0.0,0.0,0.317322311202,0.0869568086696,0.230365502533,0.404279119872,0.0869568086696,0.344870862047,189,1.0,-0.0802194643608,0.400143472992,nan,nan,nan,nan,nan,nan,nan,nan,3179.00361903,3491.53901535,nan,3491.84611018,nan,nan,nan,nan
1,301,1,1,1.0,1.0,0.269253226114,0,0.0,0.0,0.0,0.31728787524,0.0868123149706,0.230475560269,0.40410019021,0.0868123149706,0.339067315722,132,1.0,-0.307426825298,-0.115555361894,nan,nan,nan,nan,nan,nan,nan,nan,3179.00361903,3492.48083658,nan,3492.75008981,nan,nan,nan,nan
1,302,1,1,1.0,1.0,0.239439121331,0,0.0,0.0,0.0,0.317126685142,0.0867110425433,0.230415642599,0.403837727685,0.0867110425433,0.271929059255,393,-0.0489456633786,0.475102171109,-0.327443230616,nan,nan,nan,nan,nan,nan,nan,nan,3179.00361903,3493.42262901,nan,3493.66206813,nan,nan,nan,nan
1,303,0,0,1.0,0.0,0.257635775022,0,0.0,0.0,0.0,0.316866860514,0.0866820398226,0.230184820691,0.403548900337,0.0866820398226,0.255442707489,102,1.0,-0.276610342793,-0.434926949461,nan,nan,nan,nan,nan,nan,nan,nan,3179.00361903,3494.36441318,nan,3494.62204895,nan,nan,nan,nan
1,304,1,1,1.0,1.0,0.243832193781,0,0.0,0.0,0.0,0.316669423562,0.086604766216,0.230064657346,0.403274189778,0.086604766216,0.246969030045,205,1.0,0.00854800403903,0.505535240796,nan,nan,nan,nan,nan,nan,nan,nan,3179.00361903,3495.3062039,nan,3495.55003609,nan,nan,nan,nan
1,305,1,1,1.0,1.0,0.294015397551,0,0.0,0.0,0.0,0.31642743941,0.0865623140051,0.229865125405,0.402989753415,0.0865623140051,0.265161122118,446,0.304696255059,0.41359904426,-1.0,nan,nan,nan,nan,nan,nan,nan,nan,3179.00361903,3496.24798863,nan,3496.54200403,nan,nan,nan,nan
1,306,1,1,1.0,1.0,0.312226876267,0,0.0,0.0,0.0,0.316353227351,0.0864284708341,0.229924756517,0.402781698185,0.0864284708341,0.283358155866,14,0.95801504718,0.150023555696,-1.0,nan,nan,nan,nan,nan,nan,nan,nan,3179.00361903,3497.18977651,nan,3497.50200338,nan,nan,nan,nan
1,307,1,1,1.0,1.0,0.314414431923,0,0.0,0.0,0.0,0.316339609031,0.0862860562782,0.230053552752,0.402625665309,0.0862860562782,0.30688556858,406,0.0244967455079,0.467245700284,-0.489366101921,nan,nan,nan,nan,nan,nan,nan,nan,3179.00361903,3498.13156808,nan,3498.44598252,nan,nan,nan,nan
1,308,1,1,1.0,1.0,0.340608079452,0,0.0,0.0,0.0,0.316333276211,0.0861440920526,0.230189184159,0.402477368264,0.0861440920526,0.322416462547,292,0.112881669716,0.376069582356,0.569261850688,nan,nan,nan,nan,nan,nan,nan,nan,3179.00361903,3499.07335567,nan,3499.41396375,nan,nan,nan,nan
1,309,1,1,1.0,1.0,0.262801462435,0,0.0,0.0,0.0,0.31641286573,0.0860139510435,0.230398914687,0.402426816774,0.0860139510435,0.305941324603,394,-0.0437090198531,0.474655926729,-0.339401417396,nan,nan,nan,nan,nan,nan,nan,nan,3179.00361903,3500.01514326,nan,3500.27794472,nan,nan,nan,nan
1,310,1,1,1.0,1.0,0.240997751127,0,0.0,0.0,0.0,0.316237665066,0.0859277839542,0.230309881111,0.40216544902,0.0859277839542,0.281469097671,186,1.0,-0.0967386681424,0.377881386018,nan,nan,nan,nan,nan,nan,nan,nan,3179.00361903,3500.95693369,nan,3501.19793144,nan,nan,nan,nan
1,311,1,1,1.0,1.0,0.219195465324,0,0.0,0.0,0.0,0.315992583913,0.0858947793115,0.230097804601,0.401887363224,0.0858947793115,0.240998226296,109,1.0,-0.294638327523,-0.357773695079,nan,nan,nan,nan,nan,nan,nan,nan,3179.00361903,3501.89872955,nan,3502.11792501,nan,nan,nan,nan
1,312,1,1,1.0,1.0,0.245383410947,0,0.0,0.0,0.0,0.315678307554,0.0859318400011,0.229746467553,0.401610147555,0.0859318400011,0.235192209133,416,0.087881616042,0.458117504295,-0.630165317015,nan,nan,nan,nan,nan,nan,nan,nan,3179.00361903,3502.84051257,nan,3503.08589598,nan,nan,nan,nan
1,313,1,1,1.0,1.0,0.311587116797,0,0.0,0.0,0.0,0.315450815979,0.0858855256744,0.229565290305,0.401336341653,0.0858855256744,0.25872199769,102,1.0,-0.276610342793,-0.434926949461,nan,nan,nan,nan,nan,nan,nan,nan,3179.00361903,3503.7822993,nan,3504.09388642,nan,nan,nan,nan
1,314,1,1,1.0,1.0,0.265776458196,0,0.0,0.0,0.0,0.315438352433,0.0857471686321,0.229691183801,0.401185521065,0.0857471686321,0.274248995314,473,0.522594813828,0.349396171415,-1.0,nan,nan,nan,nan,nan,nan,nan,nan,3179.00361903,3504.72409031,nan,3504.98986677,nan,nan,nan,nan
1,315,1,1,1.0,1.0,0.315906348755,0,0.0,0.0,0.0,0.315278667886,0.0856553555822,0.229623312304,0.400934023468,0.0856553555822,0.297756641249,293,0.103830259013,0.378659598285,0.564617056734,nan,nan,nan,nan,nan,nan,nan,nan,3179.00361903,3505.66594062,nan,3505.98184697,nan,nan,nan,nan
1,316,1,1,1.0,1.0,0.358174381778,0,0.0,0.0,0.0,0.315280679683,0.0855179845764,0.229762695107,0.40079866426,0.0855179845764,0.313285729576,90,1.0,-0.233635786423,-0.574971871003,nan,nan,nan,nan,nan,nan,nan,nan,3179.00361903,3506.60766463,nan,3506.96583901,nan,nan,nan,nan
1,317,1,1,1.0,1.0,0.296346927527,0,0.0,0.0,0.0,0.315417720265,0.0854155713321,0.230002148933,0.400833291597,0.0854155713321,0.32347588602,331,-0.143297839787,0.450801753776,0.311166711333,nan,nan,nan,nan,nan,nan,nan,nan,3179.00361903,3507.54945449,nan,3507.84580142,nan,nan,nan,nan
1,318,1,1,1.0,1.0,0.30654288095,0,0.0,0.0,0.0,0.315356985257,0.0852862199128,0.230070765344,0.400643205169,0.0852862199128,0.320354730085,382,-0.1011887567,0.478291136399,-0.199732273247,nan,nan,nan,nan,nan,nan,nan,nan,3179.00361903,3508.49124607,nan,3508.79778895,nan,nan,nan,nan
1,319,1,1,1.0,1.0,0.380740444642,0,0.0,0.0,0.0,0.315329003973,0.0851521809358,0.230176823037,0.400481184909,0.0851521809358,0.327876751039,75,1.0,-0.164714458691,-0.791355921409,nan,nan,nan,nan,nan,nan,nan,nan,3179.00361903,3509.43303052,nan,3509.81377097,nan,nan,nan,nan
1,320,1,1,1.0,1.0,0.318936938653,0,0.0,0.0,0.0,0.315536002203,0.0850966818123,0.230439320391,0.400632684015,0.0850966818123,0.335406754748,185,1.0,-0.102214474652,0.370299946716,nan,nan,nan,nan,nan,nan,nan,nan,3179.00361903,3510.37481469,nan,3510.69375163,nan,nan,nan,nan
1,321,1,1,1.0,1.0,0.32114245533,0,0.0,0.0,0.0,0.315546730709,0.0849625679429,0.230584162766,0.400509298652,0.0849625679429,0.340273279541,461,0.423959648591,0.380927367285,-1.0,nan,nan,nan,nan,nan,nan,nan,nan,3179.00361903,3511.31660683,nan,3511.63774929,nan,nan,nan,nan
1,322,1,1,1.0,1.0,0.331338123651,0,0.0,0.0,0.0,0.315564327327,0.0848294523635,0.230734874964,0.400393779691,0.0848294523635,0.323805839211,4,0.879126049628,0.195014037372,-1.0,nan,nan,nan,nan,nan,nan,nan,nan,3179.00361903,3512.25839442,nan,3512.58973254,nan,nan,nan,nan
1,323,1,1,1.0,1.0,0.325534102274,0,0.0,0.0,0.0,0.315613774965,0.0847009764621,0.230912798503,0.400314751427,0.0847009764621,0.326004893752,156,1.0,-0.244060613314,0.121041471254,nan,nan,nan,nan,nan,nan,nan,nan,3179.00361903,3513.20018286,nan,3513.52571696,nan,nan,nan,nan
1,324,1,1,1.0,1.0,0.223729946301,0,0.0,0.0,0.0,0.315644775988,0.0845703402187,0.231074435769,0.400215116206,0.0845703402187,0.293534057409,85,1.0,-0.212156452387,-0.638781227021,nan,nan,nan,nan,nan,nan,nan,nan,3179.00361903,3514.14197444,nan,3514.36570439,nan,nan,nan,nan
1,325,1,1,1.0,1.0,0.249912475003,0,0.0,0.0,0.0,0.315358436954,0.0845937257753,0.230764711179,0.39995216273,0.0845937257753,0.266392174526,448,0.32026743599,0.409662251776,-1.0,nan,nan,nan,nan,nan,nan,nan,nan,3179.00361903,3515.08376174,nan,3515.33367422,nan,nan,nan,nan
1,326,1,1,1.0,1.0,0.284102546284,0,0.0,0.0,0.0,0.315155188625,0.0845407298577,0.230614458768,0.399695918483,0.0845407298577,0.252581655863,377,-0.121259861678,0.478700828387,-0.143695900877,nan,nan,nan,nan,nan,nan,nan,nan,3179.00361903,3516.02555531,nan,3516.30965786,nan,nan,nan,nan
1,327,0,0,0.0,1.0,0.422279767576,0,0.0,0.0,0.0,0.315059050414,0.0844273874692,0.230631662945,0.399486437883,0.0844273874692,0.318764929621,223,0.83172397378,0.104890589731,0.593432239612,nan,nan,nan,nan,nan,nan,nan,nan,3179.00361903,3516.967362,nan,3517.38964177,nan,nan,nan,nan
1,328,1,1,1.0,1.0,0.296506582294,0,0.0,0.0,0.0,0.315389978553,0.0845065479357,0.230883430617,0.399896526489,0.0845065479357,0.334296298718,28,1.0,0.082066132397,-1.0,nan,nan,nan,nan,nan,nan,nan,nan,3179.00361903,3517.90912763,nan,3518.20563422,nan,nan,nan,nan
1,329,1,1,1.0,1.0,0.282696443843,0,0.0,0.0,0.0,0.315331875795,0.0843829191271,0.230948956668,0.399714794923,0.0843829191271,0.333827597904,251,0.535576518695,0.236509187076,0.655284151108,nan,nan,nan,nan,nan,nan,nan,nan,3179.00361903,3518.85091722,nan,3519.13361366,nan,nan,nan,nan
1,330,1,1,1.0,1.0,0.276890711742,0,0.0,0.0,0.0,0.315231767108,0.0842727248568,0.230959042252,0.399504491965,0.0842727248568,0.285364579293,80,1.0,-0.189075709245,-0.708965549488,nan,nan,nan,nan,nan,nan,nan,nan,3179.00361903,3519.79270794,nan,3520.06959865,nan,nan,nan,nan
1,331,1,1,1.0,1.0,0.279072850477,0,0.0,0.0,0.0,0.315114516175,0.0841703962622,0.230944119912,0.399284912437,0.0841703962622,0.279553335354,188,1.0,-0.0857393506835,0.392804289229,nan,nan,nan,nan,nan,nan,nan,nan,3179.00361903,3520.7344941,nan,3521.01356695,nan,nan,nan,nan
1,332,1,1,1.0,1.0,0.321288710576,0,0.0,0.0,0.0,0.315004633047,0.0840654765274,0.23093915652,0.399070109575,0.0840654765274,0.292417424265,499,0.739831889234,0.263827757734,-1.0,nan,nan,nan,nan,nan,nan,nan,nan,3179.00361903,3521.67625346,nan,3521.99754217,nan,nan,nan,nan
1,333,1,1,1.0,1.0,0.603452306474,0,0.0,1.0,0.0,0.315023733587,0.08393833303,0.231085400557,0.398962066617,0.08393833303,0.401271289176,2,0.863024578927,0.203622855609,-1.0,nan,nan,nan,nan,nan,nan,nan,nan,3179.00361903,3522.61806728,nan,3523.22151958,nan,nan,nan,nan
1,334,1,1,1.0,1.0,0.381665587076,1,0.0,0.0,1.0,0.315897759566,0.0852972652578,0.230600494308,0.401195024823,0.0852972652578,0.435468868042,207,0.985653507947,0.0195431921708,0.51699622314,-92.0247650816,182.024765082,36.4778900816,259.0,0.44882283482,0.268906983076,0.655011783756,2.5256151841,3179.00361903,3523.55986056,3524.36827198,3523.94152615,3527.91869067,3528.92082691,3525.37670032,3527.9103547
1,335,1,1,1.0,1.0,0.39284740889,0,0.0,0.0,0.0,0.316096453908,0.0852447707532,0.230851683155,0.401341224662,0.0852447707532,0.45932176748,130,1.0,-0.309333154106,-0.136071487739,nan,nan,nan,nan,nan,nan,nan,nan,3179.00361903,3529.06056818,nan,3529.45341559,nan,nan,nan,nan
1,336,1,1,1.0,1.0,0.259051000583,0,0.0,0.0,0.0,0.316327631484,0.0852201445334,0.23110748695,0.401547776017,0.0852201445334,0.344521332183,406,0.0244967455079,0.467245700284,-0.489366101921,nan,nan,nan,nan,nan,nan,nan,nan,3179.00361903,3530.00235747,nan,3530.26140847,nan,nan,nan,nan
1,337,1,1,1.0,1.0,0.293216268299,0,0.0,0.0,0.0,0.316155629589,0.0851497851456,0.231005844444,0.401305414735,0.0851497851456,0.315038225924,164,1.0,-0.209685835145,0.194761549991,nan,nan,nan,nan,nan,nan,nan,nan,3179.00361903,3530.94417243,nan,3531.2373887,nan,nan,nan,nan
1,338,1,1,1.0,1.0,0.239447389147,0,0.0,0.0,0.0,0.316086948867,0.0850314567884,0.231055492078,0.401118405655,0.0850314567884,0.26390488601,48,1.0,-0.0224273256894,-1.0,nan,nan,nan,nan,nan,nan,nan,nan,3179.00361903,3531.88593664,nan,3532.12538403,nan,nan,nan,nan
1,339,1,1,1.0,1.0,0.257644898142,0,0.0,0.0,0.0,0.315858174062,0.0850073313056,0.230850842756,0.400865505367,0.0850073313056,0.263436185196,345,-0.173519535469,0.465595146217,0.186119282857,nan,nan,nan,nan,nan,nan,nan,nan,3179.00361903,3532.82772907,nan,3533.08537397,nan,nan,nan,nan
1,340,1,1,1.0,1.0,0.275836990215,0,0.0,0.0,0.0,0.315684920264,0.0849399514027,0.230744968861,0.400624871667,0.0849399514027,0.257643092501,401,-0.00506340639596,0.470796889516,-0.425203102762,nan,nan,nan,nan,nan,nan,nan,nan,3179.00361903,3533.76951324,nan,3534.04535023,nan,nan,nan,nan
1,341,1,1,1.0,1.0,0.22203446948,0,0.0,0.0,0.0,0.315566677148,0.0848415241377,0.230725153011,0.400408201286,0.0848415241377,0.251838785945,301,0.0351599448551,0.39804275895,0.523414514543,nan,nan,nan,nan,nan,nan,nan,nan,3179.00361903,3534.7113031,nan,3534.93333757,nan,nan,nan,nan
1,342,1,1,1.0,1.0,0.208236305043,0,0.0,0.0,0.0,0.31528995464,0.0848680976727,0.230421856968,0.400158052313,0.0848680976727,0.235369254913,58,1.0,-0.0760896648475,-1.0,nan,nan,nan,nan,nan,nan,nan,nan,3179.00361903,3535.65308869,nan,3535.861325,nan,nan,nan,nan
1,343,1,1,1.0,1.0,0.194402503432,0,1.0,0.0,0.0,0.314974162164,0.0849414764698,0.230032685694,0.399915638633,0.0849414764698,0.208224425985,466,0.464789014893,0.368385601135,-1.0,nan,nan,nan,nan,nan,nan,nan,nan,3179.00361903,3536.59489994,nan,3536.78930245,nan,nan,nan,nan
1,344,1,1,1.0,1.0,0.196620564442,1,0.0,0.0,1.0,0.314619539638,0.085067416474,0.229552123164,0.399686956112,0.085067416474,0.199753124306,380,-0.109519508899,0.478533032186,-0.177177385375,-170.811163923,260.811163923,-6.37633607736,371.0,-0.14179360683,0.478331938097,-0.0779732583494,1.68386585801,3179.00361903,3537.53667128,3538.34508012,3537.73329184,3541.0537455,3542.05580904,3539.35351189,3541.04541181
1,345,1,1,1.0,1.0,0.337572928052,0,0.0,0.0,0.0,0.314273501588,0.0851819020248,0.229091599563,0.399455403612,0.0851819020248,0.242865331975,267,0.362924526182,0.298807232282,0.646622522267,nan,nan,nan,nan,nan,nan,nan,nan,3179.00361903,3542.19560334,nan,3542.53317626,nan,nan,nan,nan
1,346,0,0,0.0,1.0,0.579764953931,0,0.0,0.0,0.0,0.314341628566,0.0850665790067,0.229275049559,0.399408207572,0.0850665790067,0.371319482142,412,0.0618891196837,0.462096609288,-0.571158935758,nan,nan,nan,nan,nan,nan,nan,nan,3179.00361903,3543.13739634,nan,3543.71716129,nan,nan,nan,nan
1,347,1,1,1.0,1.0,0.477964219055,0,0.0,0.0,0.0,0.315115457503,0.0861395330332,0.228975924469,0.401254990536,0.0861395330332,0.465100700346,99,1.0,-0.267176270739,-0.468793303331,nan,nan,nan,nan,nan,nan,nan,nan,3179.00361903,3544.07918934,nan,3544.55715356,nan,nan,nan,nan
1,348,1,1,1.0,1.0,0.320177969523,0,0.0,0.0,0.0,0.315588855065,0.0864599180523,0.229128937013,0.402048773117,0.0864599180523,0.459302380836,285,0.178734351563,0.356878681702,0.598527012995,nan,nan,nan,nan,nan,nan,nan,nan,3179.00361903,3545.02097835,nan,3545.34115632,nan,nan,nan,nan
1,349,1,1,1.0,1.0,0.298359147971,0,0.0,0.0,0.0,0.315602156846,0.0863348753941,0.229267281452,0.40193703224,0.0863348753941,0.365500445516,97,1.0,-0.260369742894,-0.491718830742,nan,nan,nan,nan,nan,nan,nan,nan,3179.00361903,3545.96276109,nan,3546.26112024,nan,nan,nan,nan
1,350,1,1,1.0,1.0,0.252561318805,0,0.0,0.0,0.0,0.31555232156,0.086214993009,0.229337328551,0.401767314569,0.086214993009,0.290366145433,293,0.103830259013,0.378659598285,0.564617056734,nan,nan,nan,nan,nan,nan,nan,nan,3179.00361903,3546.90454754,nan,3547.15710886,nan,nan,nan,nan
1,351,1,1,1.0,1.0,0.238763724687,0,0.0,0.0,0.0,0.315370791293,0.0861568686669,0.229213922626,0.40152765996,0.0861568686669,0.263228063821,26,1.0,0.0920921692153,-1.0,nan,nan,nan,nan,nan,nan,nan,nan,3179.00361903,3547.84633969,nan,3548.08510341,nan,nan,nan,nan
1,352,1,1,1.0,1.0,0.240968956263,0,0.0,0.0,0.0,0.315150656044,0.0861306623542,0.22901999369,0.401281318398,0.0861306623542,0.244097999918,307,-0.0113868739462,0.411053355611,0.487957006857,nan,nan,nan,nan,nan,nan,nan,nan,3179.00361903,3548.78812186,nan,3549.02909081,nan,nan,nan,nan
1,353,0,0,1.0,0.0,0.259145367891,0,0.0,0.0,0.0,0.314938101031,0.0860985312822,0.228839569748,0.401036632313,0.0860985312822,0.246292682947,372,-0.138660017671,0.478458869494,-0.0888123791441,nan,nan,nan,nan,nan,nan,nan,nan,3179.00361903,3549.72991457,nan,3549.98905994,nan,nan,nan,nan
1,354,1,1,1.0,1.0,0.205384186353,0,0.0,0.0,0.0,0.314778693222,0.086027005051,0.228751688171,0.400805698273,0.086027005051,0.235166170169,31,1.0,0.0668515730764,-1.0,nan,nan,nan,nan,nan,nan,nan,nan,3179.00361903,3550.67168676,nan,3550.87707095,nan,nan,nan,nan
1,355,1,1,1.0,1.0,0.247552150046,0,0.0,0.0,0.0,0.31446702796,0.0861020236118,0.228365004348,0.400569051572,0.0861020236118,0.237360568096,443,0.281558783006,0.419268214519,-1.0,nan,nan,nan,nan,nan,nan,nan,nan,3179.00361903,3551.61348946,nan,3551.86104161,nan,nan,nan,nan
1,356,1,1,1.0,1.0,0.297731932718,0,0.0,0.0,0.0,0.314276928875,0.0860533645117,0.228223564363,0.400330293387,0.0860533645117,0.250222756372,358,-0.170583909915,0.474268316859,0.0585874414746,nan,nan,nan,nan,nan,nan,nan,nan,3179.00361903,3552.55527448,nan,3552.85300641,nan,nan,nan,nan
1,357,1,1,1.0,1.0,0.267925240449,0,0.0,0.0,0.0,0.314230059197,0.0859358886278,0.22829417057,0.400165947825,0.0859358886278,0.271069774404,106,1.0,-0.287630069369,-0.390564445695,nan,nan,nan,nan,nan,nan,nan,nan,3179.00361903,3553.49706834,nan,3553.76499358,nan,nan,nan,nan
1,358,1,1,1.0,1.0,0.246124380268,0,0.0,0.0,0.0,0.314099254625,0.0858496080925,0.228249646532,0.399948862717,0.0858496080925,0.270593851145,23,1.0,0.106943944166,-1.0,nan,nan,nan,nan,nan,nan,nan,nan,3179.00361903,3554.43885707,nan,3554.68498145,nan,nan,nan,nan
1,359,0,0,0.0,1.0,0.504298419808,0,0.0,0.0,0.0,0.313907776105,0.0858042730481,0.228103503057,0.399712049153,0.0858042730481,0.339449346842,436,0.228681708805,0.431413732101,-1.0,nan,nan,nan,nan,nan,nan,nan,nan,3179.00361903,3555.3806475,nan,3555.88494592,nan,nan,nan,nan
1,360,1,1,1.0,1.0,0.354539954686,0,0.0,0.0,0.0,0.314442581284,0.0862741463893,0.228168434895,0.400716727674,0.0862741463893,0.368320918254,152,1.0,-0.259184487343,0.0830625546756,nan,nan,nan,nan,nan,nan,nan,nan,3179.00361903,3556.32243138,nan,3556.67697134,nan,nan,nan,nan
1,361,1,1,1.0,1.0,0.340710429591,0,0.0,0.0,0.0,0.314554898857,0.0861792897425,0.228375609114,0.400734188599,0.0861792897425,0.399849601362,219,0.871627318206,0.0840881726889,0.576959667802,nan,nan,nan,nan,nan,nan,nan,nan,3179.00361903,3557.26422011,nan,3557.60493054,nan,nan,nan,nan
1,362,1,1,1.0,1.0,0.286907908856,0,0.0,0.0,0.0,0.314627958999,0.086069914155,0.228558044844,0.400697873154,0.086069914155,0.327386097711,25,1.0,0.0970682892709,-1.0,nan,nan,nan,nan,nan,nan,nan,nan,3179.00361903,3558.20601026,nan,3558.49291817,nan,nan,nan,nan
1,363,1,1,1.0,1.0,0.273093208787,0,0.0,0.0,0.0,0.314550744374,0.0859623718403,0.228588372534,0.400513116214,0.0859623718403,0.300237182411,380,-0.109519508899,0.478533032186,-0.177177385375,nan,nan,nan,nan,nan,nan,nan,nan,3179.00361903,3559.14780013,nan,3559.42089334,nan,nan,nan,nan
1,364,1,1,1.0,1.0,0.291297559976,0,0.0,0.0,0.0,0.314435584553,0.0858706229308,0.228564961622,0.400306207484,0.0858706229308,0.283766225873,25,1.0,0.0970682892709,-1.0,nan,nan,nan,nan,nan,nan,nan,nan,3179.00361903,3560.08958486,nan,3560.38088242,nan,nan,nan,nan
1,365,1,1,1.0,1.0,0.285494393902,0,0.0,0.0,0.0,0.314371490302,0.0857602288364,0.228611261466,0.400131719139,0.0857602288364,0.283295054222,207,0.985653507947,0.0195431921708,0.51699622314,nan,nan,nan,nan,nan,nan,nan,nan,3179.00361903,3561.0313753,nan,3561.31686969,nan,nan,nan,nan
1,366,0,0,0.0,1.0,0.40768389951,0,0.0,0.0,0.0,0.314291719318,0.085655104153,0.228636615165,0.399946823471,0.085655104153,0.328158617796,318,-0.0835627602325,0.431640264478,0.413481556053,nan,nan,nan,nan,nan,nan,nan,nan,3179.00361903,3561.97316374,nan,3562.38084764,nan,nan,nan,nan
1,367,1,1,1.0,1.0,0.377868654323,0,0.0,0.0,0.0,0.314548998051,0.0856769918666,0.228872006184,0.400225989918,0.0856769918666,0.357015649245,61,1.0,-0.0921163965413,-1.0,nan,nan,nan,nan,nan,nan,nan,nan,3179.00361903,3562.91495389,nan,3563.29282255,nan,nan,nan,nan
1,368,1,1,1.0,1.0,0.412064712611,0,0.0,0.0,0.0,0.314722953151,0.0856233911634,0.229099561987,0.400346344314,0.0856233911634,0.399205755481,298,0.0600896634305,0.391050340636,0.53969689008,nan,nan,nan,nan,nan,nan,nan,nan,3179.00361903,3563.85674547,nan,3564.26881018,nan,nan,nan,nan
1,369,1,1,1.0,1.0,0.326257965644,0,0.0,0.0,0.0,0.314989642903,0.0856572711961,0.229332371706,0.400646914099,0.0856572711961,0.372063777526,362,-0.164239727892,0.476000155386,0.0174578511848,nan,nan,nan,nan,nan,nan,nan,nan,3179.00361903,3564.7985322,nan,3565.12479017,nan,nan,nan,nan
1,370,1,1,1.0,1.0,0.296460396494,0,0.0,0.0,0.0,0.31502043067,0.0855421953188,0.229478235351,0.400562625988,0.0855421953188,0.344927691583,238,0.675741828754,0.178727669763,0.638511091232,nan,nan,nan,nan,nan,nan,nan,nan,3179.00361903,3565.74031922,nan,3566.03677961,nan,nan,nan,nan
1,371,1,1,1.0,1.0,0.290665783221,0,0.0,0.0,0.0,0.314969858369,0.0854310519855,0.229538806384,0.400400910355,0.0854310519855,0.304461381786,148,1.0,-0.272695592461,0.0444264621409,nan,nan,nan,nan,nan,nan,nan,nan,3179.00361903,3566.68209455,nan,3566.97276033,nan,nan,nan,nan
1,372,0,0,0.0,1.0,0.516835881746,0,0.0,0.0,0.0,0.314903814687,0.0853242792402,0.229579535447,0.400228093927,0.0853242792402,0.36798735382,34,1.0,0.0514419701458,-1.0,nan,nan,nan,nan,nan,nan,nan,nan,3179.00361903,3567.62390209,nan,3568.14073797,nan,nan,nan,nan
1,373,1,1,1.0,1.0,0.431053368025,0,0.0,0.0,0.0,0.315451056061,0.0858528340177,0.229598222043,0.401303890079,0.0858528340177,0.412851677664,267,0.362924526182,0.298807232282,0.646622522267,nan,nan,nan,nan,nan,nan,nan,nan,3179.00361903,3568.5656834,nan,3568.99673677,nan,nan,nan,nan
1,374,1,1,1.0,1.0,0.489228719147,0,0.0,0.0,0.0,0.315763494742,0.0859465490255,0.229816945717,0.401710043768,0.0859465490255,0.479039322973,121,1.0,-0.310732805591,-0.229640808446,nan,nan,nan,nan,nan,nan,nan,nan,3179.00361903,3569.50747584,nan,3569.99670455,nan,nan,nan,nan
1,375,1,1,1.0,1.0,0.387437962694,0,0.0,1.0,0.0,0.316231055994,0.0863005547847,0.229930501209,0.402531610779,0.0863005547847,0.435906683289,20,1.0,0.121558187834,-1.0,nan,nan,nan,nan,nan,nan,nan,nan,3179.00361903,3570.44925686,nan,3570.83669483,nan,nan,nan,nan
1,376,0,0,1.0,0.0,0.38962551835,0,0.0,0.0,0.0,0.31642247241,0.0862633082911,0.230159164119,0.402685780701,0.0862633082911,0.422097400064,64,1.0,-0.108036866323,-1.0,nan,nan,nan,nan,nan,nan,nan,nan,3179.00361903,3571.39105044,nan,3571.78067596,nan,nan,nan,nan
