block,trial,time,setsize,freqtrials,colorind,colordeg,colorrgb,correctresp,actualresp,acc,rts,probe_trials,fast_rt_trigger,slow_rt_trigger,rt_trailingavg,rt_runningavg,rt_runningstd,rt_runningslowthresh,rt_runningfastthresh,wm_mousepos,wm_respdeg,wm_colorind,wm_colorrgb,wm_colorhsv,wm_degdiff,wm_rts,timeBlockStart,timeEncArrayOnset,timeResponse,timeProbeOnset,timeProbeOffset
0,0,19:22:15:489000,6,1,394,277.03125,[-0.04370902  0.47465593 -0.33940142],1,1,1,0.403904643,0,nan,nan,nan,nan,nan,nan,nan,nan,nan,nan,[ nan  nan  nan],nan,nan,nan,3179.003619,3180.023724,3180.427629,nan,nan
0,1,19:22:16:425000,6,1,351,246.796875,[-0.17568629  0.47018527  0.12848998],1,1,1,0.398080664,0,nan,nan,nan,nan,nan,nan,nan,nan,nan,nan,[ nan  nan  nan],nan,nan,nan,3179.003619,3180.965538,3181.363619,nan,nan
0,2,19:22:17:361000,6,1,467,328.359375,[ 0.47300519  0.36577567 -1.        ],1,1,1,0.392257541,0,nan,nan,nan,nan,nan,nan,nan,nan,nan,nan,[ nan  nan  nan],nan,nan,nan,3179.003619,3181.907329,3182.299586,nan,nan
0,3,19:22:18:313000,6,1,75,52.734375,[ 1.         -0.16471446 -0.79135592],1,1,1,0.266456702,0,nan,nan,nan,nan,nan,nan,nan,nan,nan,nan,[ nan  nan  nan],nan,nan,nan,3179.003619,3182.849116,3183.115572,nan,nan
0,4,19:22:19:249000,6,1,497,349.453125,[ 0.72317494  0.2712606  -1.        ],1,1,1,0.284644802,0,nan,nan,nan,nan,nan,nan,nan,nan,nan,nan,[ nan  nan  nan],nan,nan,nan,3179.003619,3183.790902,3184.075547,nan,nan
0,5,19:22:20:185000,6,1,268,188.4375,[ 0.35230222  0.30236752  0.64500531],1,1,1,0.270850059,0,nan,nan,nan,nan,nan,nan,nan,nan,nan,nan,[ nan  nan  nan],nan,nan,nan,3179.003619,3184.732691,3185.003541,nan,nan
0,6,19:22:21:137000,6,1,121,85.078125,[ 1.         -0.31073281 -0.22964081],1,1,1,0.217051245,0,nan,nan,nan,nan,nan,nan,nan,nan,nan,nan,[ nan  nan  nan],nan,nan,nan,3179.003619,3185.674469,3185.89152,nan,nan
0,7,19:22:22:073000,6,1,1,0.703125,[ 0.85493913  0.20787707 -1.        ],1,1,1,0.275245697,0,nan,nan,nan,nan,nan,nan,nan,nan,nan,nan,[ nan  nan  nan],nan,nan,nan,3179.003619,3186.616261,3186.891507,nan,nan
0,8,19:22:23:024000,6,1,310,217.96875,[-0.03285454  0.41708073  0.46882802],1,1,1,0.269454505,0,nan,nan,nan,nan,nan,nan,nan,nan,nan,nan,[ nan  nan  nan],nan,nan,nan,3179.003619,3187.558043,3187.827497,nan,nan
0,9,19:22:23:960000,6,1,51,35.859375,[ 1.         -0.03851602 -1.        ],1,1,1,0.223631588,0,nan,nan,nan,nan,nan,nan,nan,nan,nan,nan,[ nan  nan  nan],nan,nan,nan,3179.003619,3188.499847,3188.723479,nan,nan
0,10,19:22:24:896000,6,1,413,290.390625,[ 0.06831062  0.46114313 -0.5854956 ],1,1,1,0.23383809,0,nan,nan,nan,nan,nan,nan,nan,nan,nan,nan,[ nan  nan  nan],nan,nan,nan,3179.003619,3189.441634,3189.675472,nan,nan
0,11,19:22:25:848000,6,1,497,349.453125,[ 0.72317494  0.2712606  -1.        ],1,1,1,0.220021394,0,nan,nan,nan,nan,nan,nan,nan,nan,nan,nan,[ nan  nan  nan],nan,nan,nan,3179.003619,3190.383419,3190.603441,nan,nan
0,12,19:22:26:784000,6,1,186,130.78125,[ 1.         -0.09673867  0.37788139],1,1,1,0.09422255,0,nan,nan,nan,nan,nan,nan,nan,nan,nan,nan,[ nan  nan  nan],nan,nan,nan,3179.003619,3191.325207,3191.41943,nan,nan
0,13,19:22:27:720000,6,1,446,313.59375,[ 0.30469626  0.41359904 -1.        ],1,1,1,0.184452304,0,nan,nan,nan,nan,nan,nan,nan,nan,nan,nan,[ nan  nan  nan],nan,nan,nan,3179.003619,3192.266959,3192.451411,nan,nan
0,14,19:22:28:671000,6,1,325,228.515625,[-0.1194049   0.44263104  0.36018642],1,1,1,0.226611145,0,nan,nan,nan,nan,nan,nan,nan,nan,nan,nan,[ nan  nan  nan],nan,nan,nan,3179.003619,3193.208781,3193.435392,nan,nan
0,15,19:22:29:607000,6,1,1,0.703125,[ 0.85493913  0.20787707 -1.        ],1,1,1,0.204806863,0,nan,nan,nan,nan,nan,nan,nan,nan,nan,nan,[ nan  nan  nan],nan,nan,nan,3179.003619,3194.150575,3194.355382,nan,nan
0,16,19:22:30:559000,6,0,58,40.78125,[ 1.         -0.07608966 -1.        ],0,1,0,0.095041065,0,0,0,nan,nan,nan,nan,nan,nan,nan,nan,[ nan  nan  nan],nan,nan,nan,3179.003619,3195.092352,3195.187393,nan,nan
0,17,19:22:31:495000,6,1,11,7.734375,[ 0.9346595  0.1638529 -1.       ],1,1,1,0.521189325,0,nan,nan,nan,nan,nan,nan,nan,nan,nan,nan,[ nan  nan  nan],nan,nan,nan,3179.003619,3196.03414,3196.555329,nan,nan
0,18,19:22:36:503000,6,1,330,232.03125,[-0.13976633  0.44951833  0.31954025],1,1,1,0.435383719,1,nan,nan,nan,nan,nan,nan,nan,nan,-159.2814601,355,[-0.17373746  0.47268386  0.08887998],nan,17.2502101,2.017232453,3179.003619,3196.975932,3197.411316,3198.801103,3200.82636
0,19,19:22:37:439000,6,1,106,74.53125,[ 1.         -0.28763007 -0.39056445],1,1,1,0.578312666,0,nan,nan,nan,nan,nan,nan,nan,nan,nan,nan,[ nan  nan  nan],nan,nan,nan,3179.003619,3201.984899,3202.563212,nan,nan
0,20,19:22:38:390000,6,1,350,246.09375,[-0.17575682  0.46949094  0.13824748],1,1,1,0.324516303,0,nan,nan,nan,nan,nan,nan,nan,nan,nan,nan,[ nan  nan  nan],nan,nan,nan,3179.003619,3202.926692,3203.251208,nan,nan
0,21,19:22:39:326000,6,0,155,108.984375,[ 1.         -0.24798314  0.11161188],0,0,1,0.438716798,0,nan,nan,nan,nan,nan,nan,nan,nan,nan,nan,[ nan  nan  nan],nan,nan,nan,3179.003619,3203.868492,3204.307208,nan,nan
0,22,19:22:40:262000,6,1,458,322.03125,[ 0.39968805  0.38805021 -1.        ],1,1,1,0.368904323,0,nan,nan,nan,nan,nan,nan,nan,nan,nan,nan,[ nan  nan  nan],nan,nan,nan,3179.003619,3204.81027,3205.179174,nan,nan
0,23,19:22:41:214000,6,1,505,355.078125,[ 0.78953796  0.24068314 -1.        ],1,1,1,0.371099007,0,nan,nan,nan,nan,nan,nan,nan,nan,nan,nan,[ nan  nan  nan],nan,nan,nan,3179.003619,3205.752078,3206.123177,nan,nan
0,24,19:22:42:165000,6,1,325,228.515625,[-0.1194049   0.44263104  0.36018642],1,1,1,0.33332269,0,nan,nan,nan,nan,nan,nan,nan,nan,nan,nan,[ nan  nan  nan],nan,nan,nan,3179.003619,3206.693864,3207.027187,nan,nan
0,25,19:22:43:101000,6,1,281,197.578125,[ 0.2180834   0.34506839  0.61264442],1,1,1,0.33518894,0,nan,nan,nan,nan,nan,nan,nan,nan,nan,nan,[ nan  nan  nan],nan,nan,nan,3179.003619,3207.643949,3207.979138,nan,nan
0,26,19:22:44:053000,6,1,104,73.125,[ 1.         -0.28235148 -0.41264457],1,1,1,0.505354137,0,nan,nan,nan,nan,nan,nan,nan,nan,nan,nan,[ nan  nan  nan],nan,nan,nan,3179.003619,3208.585798,3209.091152,nan,nan
0,27,19:22:44:989000,6,0,245,172.265625,[ 0.6005777   0.21061011  0.65017283],0,0,1,0.427582872,0,nan,nan,nan,nan,nan,nan,nan,nan,nan,nan,[ nan  nan  nan],nan,nan,nan,3179.003619,3209.527504,3209.955087,nan,nan
0,28,19:22:45:925000,6,1,90,63.28125,[ 1.         -0.23363579 -0.57497187],1,1,1,0.413743084,0,nan,nan,nan,nan,nan,nan,nan,nan,nan,nan,[ nan  nan  nan],nan,nan,nan,3179.003619,3210.469337,3210.883081,nan,nan
0,29,19:22:46:877000,6,1,355,249.609375,[-0.17373746  0.47268386  0.08887998],1,1,1,0.303927394,0,nan,nan,nan,nan,nan,nan,nan,nan,nan,nan,[ nan  nan  nan],nan,nan,nan,3179.003619,3211.411126,3211.715053,nan,nan
0,30,19:22:47:813000,6,1,291,204.609375,[ 0.12202764  0.37344194  0.57379193],1,1,1,0.26614509,0,nan,nan,nan,nan,nan,nan,nan,nan,nan,nan,[ nan  nan  nan],nan,nan,nan,3179.003619,3212.352915,3212.61906,nan,nan
0,31,19:22:48:749000,6,1,445,312.890625,[ 0.2969539  0.4155201 -1.       ],1,1,1,0.284345165,0,nan,nan,nan,nan,nan,nan,nan,nan,nan,nan,[ nan  nan  nan],nan,nan,nan,3179.003619,3213.294701,3213.579046,nan,nan
0,32,19:22:53:553000,6,1,365,256.640625,[-0.15796203  0.47701659 -0.01391969],1,1,1,0.262533471,1,nan,nan,nan,nan,nan,nan,nan,nan,176.0548138,390,[-0.06419603  0.4762842  -0.29194755],nan,17.30456123,1.800572933,3179.003619,3214.236492,3214.499026,3216.070003,3217.878563
0,33,19:22:54:489000,6,1,502,352.96875,[ 0.76474094  0.25241358 -1.        ],1,1,1,0.389794581,0,nan,nan,nan,nan,nan,nan,nan,nan,nan,nan,[ nan  nan  nan],nan,nan,nan,3179.003619,3219.037114,3219.426908,nan,nan
0,34,19:22:59:060000,6,1,204,143.4375,[ 1.          0.00303257  0.49965442],1,1,1,0.352046774,1,nan,nan,nan,nan,nan,nan,nan,nan,-58.84620841,212,[ 0.93926289  0.04677313  0.543851  ],nan,5.408708412,1.558953098,3179.003619,3219.978874,3220.330921,3221.812409,3223.379284
0,35,19:22:59:996000,6,1,403,283.359375,[ 0.00657627  0.46945644 -0.45052451],1,1,1,0.417033683,0,nan,nan,nan,nan,nan,nan,nan,nan,nan,nan,[ nan  nan  nan],nan,nan,nan,3179.003619,3224.537799,3224.954833,nan,nan
0,36,19:23:00:932000,6,1,329,231.328125,[-0.13605328  0.44820379  0.32783374],1,1,1,0.347180725,0,nan,nan,nan,nan,nan,nan,nan,nan,nan,nan,[ nan  nan  nan],nan,nan,nan,3179.003619,3225.479614,3225.826795,nan,nan
0,37,19:23:01:884000,6,1,259,182.109375,[ 0.44882283  0.26890698  0.65501178],1,1,1,0.285418843,0,nan,nan,nan,nan,nan,nan,nan,nan,nan,nan,[ nan  nan  nan],nan,nan,nan,3179.003619,3226.421387,3226.706805,nan,nan
0,38,19:23:02:820000,6,1,63,44.296875,[ 1.         -0.10274464 -1.        ],1,1,1,0.447597595,0,nan,nan,nan,nan,nan,nan,nan,nan,nan,nan,[ nan  nan  nan],nan,nan,nan,3179.003619,3227.36319,3227.810788,nan,nan
0,39,19:23:03:771000,6,1,294,206.71875,[ 0.0948762   0.38121213  0.55985823],1,1,1,0.329788902,0,nan,nan,nan,nan,nan,nan,nan,nan,nan,nan,[ nan  nan  nan],nan,nan,nan,3179.003619,3228.304978,3228.634767,nan,nan
0,40,19:23:04:707000,6,1,384,270,[-0.09247501  0.47794532 -0.22247927],1,1,1,0.291989207,0,nan,nan,nan,nan,nan,nan,nan,nan,nan,nan,[ nan  nan  nan],nan,nan,nan,3179.003619,3229.246764,3229.538754,nan,nan
0,41,19:23:05:643000,6,1,507,356.484375,[ 0.80599565  0.23268835 -1.        ],1,1,1,0.286163518,0,nan,nan,nan,nan,nan,nan,nan,nan,nan,nan,[ nan  nan  nan],nan,nan,nan,3179.003619,3230.188577,3230.47474,nan,nan
0,42,19:23:06:595000,6,1,48,33.75,[ 1.         -0.02242733 -1.        ],1,1,1,0.248380074,0,nan,nan,nan,nan,nan,nan,nan,nan,nan,nan,[ nan  nan  nan],nan,nan,nan,3179.003619,3231.130338,3231.378718,nan,nan
0,43,19:23:07:531000,6,1,123,86.484375,[ 1.         -0.31144114 -0.20867286],1,1,1,0.258561488,0,nan,nan,nan,nan,nan,nan,nan,nan,nan,nan,[ nan  nan  nan],nan,nan,nan,3179.003619,3232.072131,3232.330693,nan,nan
0,44,19:23:08:467000,6,1,64,45,[ 1.         -0.10803687 -1.        ],1,1,1,0.252740645,0,nan,nan,nan,nan,nan,nan,nan,nan,nan,nan,[ nan  nan  nan],nan,nan,nan,3179.003619,3233.013939,3233.26668,nan,nan
0,45,19:23:09:419000,6,0,265,186.328125,[ 0.38425915  0.29156831  0.64947886],0,0,1,0.390960061,0,nan,nan,nan,nan,nan,nan,nan,nan,nan,nan,[ nan  nan  nan],nan,nan,nan,3179.003619,3233.955707,3234.346667,nan,nan
0,46,19:23:10:355000,6,1,145,101.953125,[ 1.         -0.28166741  0.01505517],1,1,1,0.409155289,0,nan,nan,nan,nan,nan,nan,nan,nan,nan,nan,[ nan  nan  nan],nan,nan,nan,3179.003619,3234.897493,3235.306649,nan,nan
0,47,19:23:11:306000,6,1,102,71.71875,[ 1.         -0.27661034 -0.43492695],1,1,1,0.427346811,0,nan,nan,nan,nan,nan,nan,nan,nan,nan,nan,[ nan  nan  nan],nan,nan,nan,3179.003619,3235.839289,3236.266636,nan,nan
0,48,19:23:12:242000,6,1,473,332.578125,[ 0.52259481  0.34939617 -1.        ],1,1,1,0.2855574,0,nan,nan,nan,nan,nan,nan,nan,nan,nan,nan,[ nan  nan  nan],nan,nan,nan,3179.003619,3236.781071,3237.066629,nan,nan
0,49,19:23:13:178000,6,1,62,43.59375,[ 1.         -0.09743725 -1.        ],1,1,1,0.247736608,0,nan,nan,nan,nan,nan,nan,nan,nan,nan,nan,[ nan  nan  nan],nan,nan,nan,3179.003619,3237.722858,3237.970595,nan,nan
0,50,19:23:14:130000,6,1,365,256.640625,[-0.15796203  0.47701659 -0.01391969],1,1,1,0.28994135,0,nan,nan,nan,nan,nan,nan,nan,nan,nan,nan,[ nan  nan  nan],nan,nan,nan,3179.003619,3238.664646,3238.954588,nan,nan
0,51,19:23:15:066000,6,1,468,329.0625,[ 0.48123648  0.36313162 -1.        ],1,1,1,0.292130046,0,nan,nan,nan,nan,nan,nan,nan,nan,nan,nan,[ nan  nan  nan],nan,nan,nan,3179.003619,3239.60644,3239.89857,nan,nan
0,52,19:23:16:002000,6,1,304,213.75,[ 0.01130928  0.40470892  0.50616037],1,1,1,0.254326645,0,nan,nan,nan,nan,nan,nan,nan,nan,nan,nan,[ nan  nan  nan],nan,nan,nan,3179.003619,3240.548225,3240.802552,nan,nan
0,53,19:23:16:953000,6,1,52,36.5625,[ 1.         -0.04388606 -1.        ],1,1,1,0.296523688,0,nan,nan,nan,nan,nan,nan,nan,nan,nan,nan,[ nan  nan  nan],nan,nan,nan,3179.003619,3241.490016,3241.786539,nan,nan
0,54,19:23:17:889000,6,1,356,250.3125,[-0.17284378  0.47323941  0.07883681],1,1,1,0.282718966,0,nan,nan,nan,nan,nan,nan,nan,nan,nan,nan,[ nan  nan  nan],nan,nan,nan,3179.003619,3242.431803,3242.714522,nan,nan
0,55,19:23:18:841000,6,1,426,299.53125,[ 0.15619305  0.44621085 -0.8148597 ],1,1,1,0.276903826,0,nan,nan,nan,nan,nan,nan,nan,nan,nan,nan,[ nan  nan  nan],nan,nan,nan,3179.003619,3243.373596,3243.6505,nan,nan
0,56,19:23:19:777000,6,1,313,220.078125,[-0.05302215  0.42279583  0.44879796],1,1,1,0.295108177,0,nan,nan,nan,nan,nan,nan,nan,nan,nan,nan,[ nan  nan  nan],nan,nan,nan,3179.003619,3244.31538,3244.610488,nan,nan
0,57,19:23:20:713000,6,1,501,352.265625,[ 0.75644923  0.25625354 -1.        ],1,1,1,0.281292907,0,nan,nan,nan,nan,nan,nan,nan,nan,nan,nan,[ nan  nan  nan],nan,nan,nan,3179.003619,3245.257164,3245.538457,nan,nan
0,58,19:23:21:665000,6,1,456,320.625,[ 0.38361243  0.39263319 -1.        ],1,1,1,0.36348775,0,nan,nan,nan,nan,nan,nan,nan,nan,nan,nan,[ nan  nan  nan],nan,nan,nan,3179.003619,3246.198955,3246.562443,nan,nan
0,59,19:23:22:601000,6,1,394,277.03125,[-0.04370902  0.47465593 -0.33940142],1,1,1,0.325691191,0,nan,nan,nan,nan,nan,nan,nan,nan,nan,nan,[ nan  nan  nan],nan,nan,nan,3179.003619,3247.140745,3247.466436,nan,nan
0,60,19:23:23:537000,6,1,165,116.015625,[ 1.         -0.20505638  0.20374544],1,1,1,0.239878172,0,nan,nan,nan,nan,nan,nan,nan,nan,nan,nan,[ nan  nan  nan],nan,nan,nan,3179.003619,3248.08254,3248.322418,nan,nan
0,61,19:23:24:488000,6,1,389,273.515625,[-0.06912081  0.47662608 -0.28023432],1,1,1,0.242076846,0,nan,nan,nan,nan,nan,nan,nan,nan,nan,nan,[ nan  nan  nan],nan,nan,nan,3179.003619,3249.024322,3249.266399,nan,nan
0,62,19:23:25:424000,6,0,40,28.125,[ 1.          0.02011655 -1.        ],0,0,1,0.452264076,0,nan,nan,nan,nan,nan,nan,nan,nan,nan,nan,[ nan  nan  nan],nan,nan,nan,3179.003619,3249.966118,3250.418382,nan,nan
0,63,19:23:26:360000,6,1,173,121.640625,[ 1.         -0.16590952  0.27353519],1,1,1,0.350467902,0,nan,nan,nan,nan,nan,nan,nan,nan,nan,nan,[ nan  nan  nan],nan,nan,nan,3179.003619,3250.907902,3251.25837,nan,nan
0,64,19:23:30:838000,6,1,295,207.421875,[ 0.08602229  0.38372732  0.55498608],1,1,1,0.336663466,1,nan,nan,nan,nan,nan,nan,nan,nan,-131.4964684,315,[-0.06571114  0.42643481  0.43495652],nan,14.07459336,1.475481587,3179.003619,3251.849691,3252.186354,3253.683201,3255.166728
0,65,19:23:31:774000,6,1,369,259.453125,[-0.14769469  0.47799919 -0.05643387],1,1,1,0.397332568,0,nan,nan,nan,nan,nan,nan,nan,nan,nan,nan,[ nan  nan  nan],nan,nan,nan,3179.003619,3256.316939,3256.714271,nan,nan
0,66,19:23:32:725000,6,1,429,301.640625,[ 0.17753182  0.44208078 -0.9018852 ],1,1,1,0.399537799,0,nan,nan,nan,nan,nan,nan,nan,nan,nan,nan,[ nan  nan  nan],nan,nan,nan,3179.003619,3257.258716,3257.658254,nan,nan
0,67,19:23:33:661000,6,0,133,93.515625,[ 1.         -0.30625957 -0.10533643],0,0,1,0.433724735,0,nan,nan,nan,nan,nan,nan,nan,nan,nan,nan,[ nan  nan  nan],nan,nan,nan,3179.003619,3258.200506,3258.63423,nan,nan
0,68,19:23:34:597000,6,1,376,264.375,[-0.12496282  0.47870467 -0.13262763],1,1,1,0.435917992,0,nan,nan,nan,nan,nan,nan,nan,nan,nan,nan,[ nan  nan  nan],nan,nan,nan,3179.003619,3259.142304,3259.578222,nan,nan
0,69,19:23:35:549000,6,1,429,301.640625,[ 0.17753182  0.44208078 -0.9018852 ],1,1,1,0.318117568,0,nan,nan,nan,nan,nan,nan,nan,nan,nan,nan,[ nan  nan  nan],nan,nan,nan,3179.003619,3260.08409,3260.402208,nan,nan
0,70,19:23:36:485000,6,1,250,175.78125,[ 0.54642845  0.23228666  0.65474773],1,1,1,0.360306913,0,nan,nan,nan,nan,nan,nan,nan,nan,nan,nan,[ nan  nan  nan],nan,nan,nan,3179.003619,3261.025879,3261.386186,nan,nan
0,71,19:23:37:421000,6,1,431,303.046875,[ 0.19195726  0.43918129 -0.98229877],1,1,1,0.474502276,0,nan,nan,nan,nan,nan,nan,nan,nan,nan,nan,[ nan  nan  nan],nan,nan,nan,3179.003619,3261.96767,3262.442172,nan,nan
0,72,19:23:38:372000,6,1,127,89.296875,[ 1.         -0.31111021 -0.16703665],1,1,1,0.420705457,0,nan,nan,nan,nan,nan,nan,nan,nan,nan,nan,[ nan  nan  nan],nan,nan,nan,3179.003619,3262.909453,3263.330158,nan,nan
0,73,19:23:39:308000,6,1,511,359.296875,[ 0.83870319  0.21628417 -1.        ],1,1,1,0.406892183,0,nan,nan,nan,nan,nan,nan,nan,nan,nan,nan,[ nan  nan  nan],nan,nan,nan,3179.003619,3263.85124,3264.258132,nan,nan
0,74,19:23:40:260000,6,1,76,53.4375,[ 1.         -0.16967451 -0.77336583],1,1,1,0.329089272,0,nan,nan,nan,nan,nan,nan,nan,nan,nan,nan,[ nan  nan  nan],nan,nan,nan,3179.003619,3264.793033,3265.122123,nan,nan
0,75,19:23:41:196000,6,1,454,319.21875,[ 0.36762736  0.39708484 -1.        ],1,1,1,0.299289137,0,nan,nan,nan,nan,nan,nan,nan,nan,nan,nan,[ nan  nan  nan],nan,nan,nan,3179.003619,3265.73482,3266.034109,nan,nan
0,76,19:23:42:132000,6,1,68,47.8125,[ 1.         -0.12901814 -0.9729032 ],1,1,1,0.333458396,0,nan,nan,nan,nan,nan,nan,nan,nan,nan,nan,[ nan  nan  nan],nan,nan,nan,3179.003619,3266.676615,3267.010073,nan,nan
0,77,19:23:43:084000,6,1,427,300.234375,[ 0.16326517  0.44486322 -0.84020871],1,1,1,0.23968402,0,nan,nan,nan,nan,nan,nan,nan,nan,nan,nan,[ nan  nan  nan],nan,nan,nan,3179.003619,3267.618397,3267.858081,nan,nan
0,78,19:23:44:020000,6,0,113,79.453125,[ 1.         -0.30219199 -0.31457635],0,1,0,0.2818708,0,0,0,nan,nan,nan,nan,nan,nan,nan,nan,[ nan  nan  nan],nan,nan,nan,3179.003619,3268.560184,3268.842055,nan,nan
0,79,19:23:44:956000,6,1,283,198.984375,[ 0.19826868  0.35105092  0.60582595],1,1,1,0.444053544,0,nan,nan,nan,nan,nan,nan,nan,nan,nan,nan,[ nan  nan  nan],nan,nan,nan,3179.003619,3269.501969,3269.946023,nan,nan
0,80,19:23:45:907000,6,1,198,139.21875,[ 1.         -0.0302355   0.46232694],1,1,1,0.414259396,0,0,0,0.380061247,0.328153071,0.089208303,0.417361375,0.238944768,nan,nan,nan,[ nan  nan  nan],nan,nan,nan,3179.003619,3270.443764,3270.858023,nan,nan
0,81,19:23:46:843000,6,1,318,223.59375,[-0.08356276  0.43164026  0.41348156],1,1,1,0.344457755,0,0,0,0.400923565,0.329216112,0.089164328,0.418380441,0.240051784,nan,nan,nan,[ nan  nan  nan],nan,nan,nan,3179.003619,3271.385554,3271.730012,nan,nan
0,82,19:23:47:795000,6,0,407,286.171875,[ 0.03058863  0.46645515 -0.50257741],0,0,1,0.434642465,0,0,0,0.397786539,0.329401986,0.088634764,0.41803675,0.240767223,nan,nan,nan,[ nan  nan  nan],nan,nan,nan,3179.003619,3272.327343,3272.761986,nan,nan
0,83,19:23:48:731000,6,1,504,354.375,[ 0.78128615  0.24462829 -1.        ],1,1,1,0.388824964,0,0,0,0.389308394,0.330669944,0.088844257,0.419514201,0.241825687,nan,nan,nan,[ nan  nan  nan],nan,nan,nan,3179.003619,3273.26913,3273.657955,nan,nan
0,84,19:23:49:667000,6,1,55,38.671875,[ 1.         -0.05999965 -1.        ],1,1,1,0.367039499,0,0,0,0.396835642,0.331362265,0.088538787,0.419901052,0.242823478,nan,nan,nan,[ nan  nan  nan],nan,nan,nan,3179.003619,3274.210918,3274.577957,nan,nan
0,85,19:23:50:618000,6,1,419,294.609375,[ 0.10789467  0.45484197 -0.67809886],1,1,1,0.361226924,0,0,0,0.372363795,0.331781998,0.088100457,0.419882455,0.24368154,nan,nan,nan,[ nan  nan  nan],nan,nan,nan,3179.003619,3275.152707,3275.513934,nan,nan
0,86,19:23:51:554000,6,1,283,198.984375,[ 0.19826868  0.35105092  0.60582595],1,1,1,0.315425959,0,0,0,0.347897461,0.33212438,0.087643611,0.419767992,0.244480769,nan,nan,nan,[ nan  nan  nan],nan,nan,nan,3179.003619,3276.094495,3276.40992,nan,nan
0,87,19:23:52:490000,6,1,222,156.09375,[ 0.84177847  0.09972916  0.58948469],1,1,1,0.317620642,0,0,0,0.331424508,0.331932445,0.087156634,0.419089078,0.244775811,nan,nan,nan,[ nan  nan  nan],nan,nan,nan,3179.003619,3277.036287,3277.353908,nan,nan
0,88,19:23:53:442000,6,1,75,52.734375,[ 1.         -0.16471446 -0.79135592],1,1,1,0.263822113,0,0,0,0.298956238,0.33176981,0.086673286,0.418443097,0.245096524,nan,nan,nan,[ nan  nan  nan],nan,nan,nan,3179.003619,3277.978073,3278.241895,nan,nan
0,89,19:23:54:378000,6,1,480,337.5,[ 0.58092807  0.32870764 -1.        ],1,1,1,0.346006407,0,0,0,0.30914972,0.331006353,0.086482041,0.417488395,0.244524312,nan,nan,nan,[ nan  nan  nan],nan,nan,nan,3179.003619,3278.919859,3279.265865,nan,nan
0,90,19:23:55:330000,6,1,186,130.78125,[ 1.         -0.09673867  0.37788139],1,1,1,0.380210163,0,0,0,0.330012894,0.33117302,0.086014616,0.417187636,0.245158405,nan,nan,nan,[ nan  nan  nan],nan,nan,nan,3179.003619,3279.861651,3280.241861,nan,nan
0,91,19:23:56:266000,6,1,502,352.96875,[ 0.76474094  0.25241358 -1.        ],1,1,1,0.358398184,0,0,0,0.361538251,0.33171189,0.085693325,0.417405216,0.246018565,nan,nan,nan,[ nan  nan  nan],nan,nan,nan,3179.003619,3280.803441,3281.161839,nan,nan
0,92,19:23:57:202000,6,0,432,303.75,[ 0.1992279   0.43768733 -1.        ],0,0,1,0.448589735,0,0,0,0.395732694,0.332001959,0.085271236,0.417273195,0.246730722,nan,nan,nan,[ nan  nan  nan],nan,nan,nan,3179.003619,3281.745223,3282.193813,nan,nan
0,93,19:23:58:153000,6,1,511,359.296875,[ 0.83870319  0.21628417 -1.        ],1,1,1,0.338794287,0,0,0,0.381927402,0.333255591,0.085659708,0.418915298,0.247595883,nan,nan,nan,[ nan  nan  nan],nan,nan,nan,3179.003619,3282.68702,3283.025814,nan,nan
0,94,19:23:59:089000,6,1,291,204.609375,[ 0.12202764  0.37344194  0.57379193],1,1,1,0.316984874,0,0,0,0.368122965,0.333314513,0.085204748,0.41851926,0.248109765,nan,nan,nan,[ nan  nan  nan],nan,nan,nan,3179.003619,3283.628807,3283.945792,nan,nan
0,95,19:24:00:025000,6,0,236,165.9375,[ 0.69700456  0.16930175  0.63406585],0,0,1,0.479180161,0,0,0,0.378319774,0.333142622,0.084771498,0.41791412,0.248371124,nan,nan,nan,[ nan  nan  nan],nan,nan,nan,3179.003619,3284.57059,3285.04977,nan,nan
0,96,19:24:00:977000,6,1,475,333.984375,[ 0.53921875  0.34365981 -1.        ],1,1,1,0.40137554,0,0,0,0.399180192,0.334663846,0.085622382,0.420286229,0.249041464,nan,nan,nan,[ nan  nan  nan],nan,nan,nan,3179.003619,3285.512377,3285.913753,nan,nan
0,97,19:24:01:913000,6,1,112,78.75,[ 1.         -0.30050152 -0.32532486],1,1,1,0.33157504,0,0,0,0.40404358,0.335351596,0.085446012,0.420797608,0.249905584,nan,nan,nan,[ nan  nan  nan],nan,nan,nan,3179.003619,3286.454165,3286.78574,nan,nan
0,98,19:24:02:864000,6,1,65,45.703125,[ 1.         -0.11331216 -1.        ],1,1,1,0.301762931,0,0,0,0.344904504,0.335313059,0.085009792,0.420322852,0.250303267,nan,nan,nan,[ nan  nan  nan],nan,nan,nan,3179.003619,3287.39596,3287.697722,nan,nan
0,99,19:24:03:800000,6,1,289,203.203125,[ 0.14059213  0.36807325  0.58250527],1,1,1,0.34396083,0,0,0,0.325766267,0.334974169,0.084645869,0.419620038,0.2503283,nan,nan,nan,[ nan  nan  nan],nan,nan,nan,3179.003619,3288.337745,3288.681706,nan,nan
0,100,19:24:04:736000,6,1,192,135,[ 1.         -0.06359976  0.42165841],1,1,1,0.25814439,0,0,0,0.301289383,0.335064036,0.084226323,0.419290359,0.250837713,nan,nan,nan,[ nan  nan  nan],nan,nan,nan,3179.003619,3289.279534,3289.537679,nan,nan
0,101,19:24:05:688000,6,0,304,213.75,[ 0.01130928  0.40470892  0.50616037],0,1,0,0.204356979,0,0,0,0.268820733,0.334302455,0.084153643,0.418456098,0.250148812,nan,nan,nan,[ nan  nan  nan],nan,nan,nan,3179.003619,3290.221327,3290.425684,nan,nan
0,102,19:24:06:624000,6,1,74,52.03125,[ 1.         -0.15971516 -0.81044328],1,1,1,0.326551331,0,0,0,0.263017567,0.33302848,0.084713223,0.417741703,0.248315257,nan,nan,nan,[ nan  nan  nan],nan,nan,nan,3179.003619,3291.163108,3291.489659,nan,nan
0,103,19:24:07:560000,6,1,9,6.328125,[ 0.91893356  0.17291669 -1.        ],1,1,1,0.232725068,0,0,0,0.254544459,0.332965595,0.084303383,0.417268978,0.248662212,nan,nan,nan,[ nan  nan  nan],nan,nan,nan,3179.003619,3292.104917,3292.337642,nan,nan
0,104,19:24:08:512000,6,1,219,153.984375,[ 0.87162732  0.08408817  0.57695967],1,1,1,0.314936446,0,0,0,0.291404282,0.332001744,0.084465444,0.416467188,0.2475363,nan,nan,nan,[ nan  nan  nan],nan,nan,nan,3179.003619,3293.04669,3293.361627,nan,nan
0,105,19:24:09:448000,6,1,349,245.390625,[-0.17565689  0.46876851  0.14794518],1,1,1,0.277125632,0,0,0,0.274929049,0.331839217,0.084078604,0.415917821,0.247760613,nan,nan,nan,[ nan  nan  nan],nan,nan,nan,3179.003619,3293.98848,3294.265606,nan,nan
0,106,19:24:10:384000,6,1,29,20.390625,[ 1.          0.07701739 -1.        ],1,1,1,0.263323762,0,0,0,0.285128613,0.331323051,0.083848052,0.415171103,0.247474999,nan,nan,nan,[ nan  nan  nan],nan,nan,nan,3179.003619,3294.930264,3295.193587,nan,nan
0,107,19:24:11:335000,6,1,353,248.203125,[-0.17504126  0.47149007  0.10879922],1,1,1,0.257523732,0,0,0,0.265991042,0.330687544,0.083711411,0.414398955,0.246976132,nan,nan,nan,[ nan  nan  nan],nan,nan,nan,3179.003619,3295.872054,3296.129578,nan,nan
0,108,19:24:12:271000,6,1,165,116.015625,[ 1.         -0.20505638  0.20374544],1,1,1,0.235719735,0,0,0,0.252189076,0.330010101,0.083617107,0.413627208,0.246392994,nan,nan,nan,[ nan  nan  nan],nan,nan,nan,3179.003619,3296.813842,3297.049562,nan,nan
0,109,19:24:13:223000,6,1,99,69.609375,[ 1.         -0.26717627 -0.4687933 ],1,1,1,0.389872128,0,0,0,0.294371865,0.329145052,0.083716742,0.412861794,0.24542831,nan,nan,nan,[ nan  nan  nan],nan,nan,nan,3179.003619,3297.755654,3298.145526,nan,nan
0,110,19:24:14:159000,6,1,179,125.859375,[ 1.         -0.13461442  0.32320413],1,1,1,0.26410721,0,0,0,0.296566358,0.329697116,0.083534423,0.413231539,0.246162693,nan,nan,nan,[ nan  nan  nan],nan,nan,nan,3179.003619,3298.697417,3298.961524,nan,nan
0,111,19:24:15:095000,6,1,294,206.71875,[ 0.0948762   0.38121213  0.55985823],1,1,1,0.298294431,0,0,0,0.31742459,0.329106216,0.083387906,0.412494122,0.24571831,nan,nan,nan,[ nan  nan  nan],nan,nan,nan,3179.003619,3299.639206,3299.937501,nan,nan
0,112,19:24:16:046000,6,1,34,23.90625,[ 1.          0.05144197 -1.        ],1,1,1,0.284438677,0,0,0,0.282280106,0.328831111,0.083065387,0.411896498,0.245765724,nan,nan,nan,[ nan  nan  nan],nan,nan,nan,3179.003619,3300.58104,3300.865479,nan,nan
0,113,19:24:16:982000,6,1,454,319.21875,[ 0.36762736  0.39708484 -1.        ],1,1,1,0.318688904,0,0,0,0.300474004,0.328438258,0.082801468,0.411239726,0.245636789,nan,nan,nan,[ nan  nan  nan],nan,nan,nan,3179.003619,3301.522776,3301.841465,nan,nan
0,114,19:24:17:918000,6,1,320,225,[-0.09465004  0.43494402  0.39870124],1,1,1,0.192899183,0,0,0,0.265342254,0.328352737,0.082442517,0.410795254,0.24591022,nan,nan,nan,[ nan  nan  nan],nan,nan,nan,3179.003619,3302.464559,3302.657458,nan,nan
0,115,19:24:18:870000,6,1,411,288.984375,[ 0.05552017  0.46302271 -0.55705476],1,1,1,0.307075159,0,0,0,0.272887748,0.32717488,0.083041097,0.410215977,0.244133783,nan,nan,nan,[ nan  nan  nan],nan,nan,nan,3179.003619,3303.406368,3303.713443,nan,nan
0,116,19:24:19:806000,6,1,280,196.875,[ 0.22808935  0.34201885  0.61587222],1,1,1,0.221261854,0,1,0,0.240412065,0.327001606,0.082703263,0.40970487,0.244298343,nan,nan,nan,[ nan  nan  nan],nan,nan,nan,3179.003619,3304.348149,3304.569411,nan,nan
0,117,19:24:24:112000,6,1,45,31.640625,[ 1.         -0.00639576 -1.        ],1,1,1,0.103472263,1,0,0,0.210603092,0.326097848,0.08292235,0.409020198,0.243175498,nan,41.8420552,68,[ 1.         -0.12901814 -0.9729032 ],nan,16.5173198,1.308791162,3179.003619,3305.289939,3305.393411,3307.123453,3308.440284
0,118,19:24:25:048000,6,1,150,105.46875,[ 1.         -0.26615253  0.06382271],1,1,1,0.362869373,0,0,0,0.229201163,0.32421119,0.085054704,0.409265894,0.239156486,nan,nan,nan,[ nan  nan  nan],nan,nan,nan,3179.003619,3309.590458,3309.953327,nan,nan
0,119,19:24:25:999000,6,1,336,236.25,[-0.15821161  0.45675811  0.26813527],1,1,1,0.245028179,0,0,0,0.237123272,0.324536049,0.08477006,0.409306109,0.239765989,nan,nan,nan,[ nan  nan  nan],nan,nan,nan,3179.003619,3310.532287,3310.777316,nan,nan
0,120,19:24:26:935000,6,1,12,8.4375,[ 0.94247669  0.15927395 -1.        ],1,1,1,0.263225118,0,0,0,0.290374223,0.323873483,0.084724969,0.408598452,0.239148515,nan,nan,nan,[ nan  nan  nan],nan,nan,nan,3179.003619,3311.474071,3311.737296,nan,nan
0,121,19:24:27:871000,6,1,90,63.28125,[ 1.         -0.23363579 -0.57497187],1,1,1,0.305405341,0,0,0,0.271219546,0.323372257,0.084552603,0.40792486,0.238819654,nan,nan,nan,[ nan  nan  nan],nan,nan,nan,3179.003619,3312.415863,3312.721268,nan,nan
0,122,19:24:28:823000,6,1,480,337.5,[ 0.58092807  0.32870764 -1.        ],1,1,1,0.211634101,0,0,0,0.260088186,0.323224987,0.084220944,0.407445932,0.239004043,nan,nan,nan,[ nan  nan  nan],nan,nan,nan,3179.003619,3313.35765,3313.569284,nan,nan
0,123,19:24:29:759000,6,1,108,75.9375,[ 1.         -0.29242661 -0.36866329],1,1,1,0.085796198,0,1,0,0.200945213,0.322317745,0.084474353,0.406792098,0.237843391,nan,nan,nan,[ nan  nan  nan],nan,nan,nan,3179.003619,3314.299438,3314.385234,nan,nan
0,124,19:24:30:710000,6,0,65,45.703125,[ 1.         -0.11331216 -1.        ],0,1,0,0.208004521,0,0,0,0.168478273,0.320410313,0.086751825,0.407162137,0.233658488,nan,nan,nan,[ nan  nan  nan],nan,nan,nan,3179.003619,3315.241229,3315.449233,nan,nan
0,125,19:24:31:646000,6,1,482,338.90625,[ 0.59765563  0.32248081 -1.        ],1,1,1,0.266193841,0,0,0,0.186664854,0.319511066,0.086982434,0.406493501,0.232528632,nan,nan,nan,[ nan  nan  nan],nan,nan,nan,3179.003619,3316.183014,3316.449208,nan,nan
0,126,19:24:32:582000,6,0,133,93.515625,[ 1.         -0.30625957 -0.10533643],0,0,1,0.484368657,0,0,0,0.31952234,0.319087914,0.086765656,0.405853569,0.232322258,nan,nan,nan,[ nan  nan  nan],nan,nan,nan,3179.003619,3317.124806,3317.609175,nan,nan
0,127,19:24:33:534000,6,1,84,59.0625,[ 1.         -0.20765784 -0.65219109],1,1,1,0.350573959,0,0,0,0.367045486,0.320389337,0.087649345,0.408038682,0.232739992,nan,nan,nan,[ nan  nan  nan],nan,nan,nan,3179.003619,3318.066594,3318.417168,nan,nan
0,128,19:24:34:470000,6,0,219,153.984375,[ 0.87162732  0.08408817  0.57695967],0,0,1,0.392787538,0,0,0,0.409243385,0.320625154,0.08734673,0.407971885,0.233278424,nan,nan,nan,[ nan  nan  nan],nan,nan,nan,3179.003619,3319.008379,3319.401166,nan,nan
0,129,19:24:35:406000,6,1,297,208.828125,[ 0.06862621  0.38864628  0.54490466],1,1,1,0.43496434,0,0,0,0.392775279,0.321184553,0.087237394,0.408421946,0.233947159,nan,nan,nan,[ nan  nan  nan],nan,nan,nan,3179.003619,3319.950174,3320.385139,nan,nan
0,130,19:24:36:358000,6,1,176,123.75,[ 1.         -0.15042967  0.29867547],1,1,1,0.429168871,0,0,0,0.418973583,0.322059782,0.087467931,0.409527713,0.234591851,nan,nan,nan,[ nan  nan  nan],nan,nan,nan,3179.003619,3320.891957,3321.321126,nan,nan
0,131,19:24:37:294000,6,1,428,300.9375,[ 0.17037832  0.44348657 -0.8686614 ],1,1,1,0.343360129,0,0,0,0.40249778,0.322877408,0.087630725,0.410508133,0.235246684,nan,nan,nan,[ nan  nan  nan],nan,nan,nan,3179.003619,3321.833747,3322.177107,nan,nan
0,132,19:24:38:230000,6,1,349,245.390625,[-0.17565689  0.46876851  0.14794518],1,1,1,0.353557223,0,0,0,0.375362074,0.323032581,0.087316223,0.410348804,0.235716357,nan,nan,nan,[ nan  nan  nan],nan,nan,nan,3179.003619,3322.775537,3323.129094,nan,nan
0,133,19:24:39:181000,6,0,260,182.8125,[ 0.43801664  0.27278198  0.65440657],0,1,0,0.203760554,0,0,0,0.300225969,0.323262089,0.087027304,0.410289393,0.236234785,nan,nan,nan,[ nan  nan  nan],nan,nan,nan,3179.003619,3323.717325,3323.921085,nan,nan
0,134,19:24:40:117000,6,1,326,229.21875,[-0.12383419  0.44407177  0.35222354],1,1,1,0.293947544,0,0,0,0.283755107,0.322370287,0.087309836,0.409680123,0.23506045,nan,nan,nan,[ nan  nan  nan],nan,nan,nan,3179.003619,3324.659108,3324.953056,nan,nan
0,135,19:24:41:069000,6,1,494,347.34375,[ 0.69812996  0.282144   -1.        ],1,1,1,0.368147959,0,0,0,0.288618686,0.322159748,0.087020001,0.409179749,0.235139747,nan,nan,nan,[ nan  nan  nan],nan,nan,nan,3179.003619,3325.600902,3325.96905,nan,nan
0,136,19:24:42:005000,6,1,218,153.28125,[ 0.88146739  0.07882461  0.57255963],1,1,1,0.306331624,0,0,0,0.322809042,0.322497896,0.086788461,0.409286358,0.235709435,nan,nan,nan,[ nan  nan  nan],nan,nan,nan,3179.003619,3326.542687,3326.849019,nan,nan
0,137,19:24:42:941000,6,1,120,84.375,[ 1.         -0.3101615  -0.24016291],1,1,1,0.268534209,0,0,0,0.314337931,0.322379894,0.086482085,0.408861979,0.23589781,nan,nan,nan,[ nan  nan  nan],nan,nan,nan,3179.003619,3327.484477,3327.753011,nan,nan
0,138,19:24:43:892000,6,1,160,112.5,[ 1.         -0.22750142  0.15829752],1,1,1,0.294735555,0,0,0,0.289867129,0.321989708,0.086289117,0.408278826,0.235700591,nan,nan,nan,[ nan  nan  nan],nan,nan,nan,3179.003619,3328.426265,3328.721,nan,nan
0,139,19:24:44:828000,6,1,220,154.6875,[ 0.86173155  0.08932726  0.58124768],1,1,1,0.232914658,0,0,0,0.265394807,0.321793635,0.086009012,0.407802647,0.235784623,nan,nan,nan,[ nan  nan  nan],nan,nan,nan,3179.003619,3329.368057,3329.600972,nan,nan
0,140,19:24:45:764000,6,1,322,226.40625,[-0.10506723  0.43811622  0.38355935],1,1,1,0.307112506,0,0,0,0.27825424,0.321158785,0.086027509,0.407186294,0.235131277,nan,nan,nan,[ nan  nan  nan],nan,nan,nan,3179.003619,3330.309844,3330.616957,nan,nan
0,141,19:24:46:716000,6,1,161,113.203125,[ 1.         -0.22315835  0.16749055],1,1,1,0.261320664,0,0,0,0.267115943,0.321059166,0.085730007,0.406789174,0.235329159,nan,nan,nan,[ nan  nan  nan],nan,nan,nan,3179.003619,3331.251631,3331.512952,nan,nan
0,142,19:24:47:652000,6,1,352,247.5,[-0.17544713  0.4708516   0.11867359],1,1,1,0.271510346,0,0,0,0.279981172,0.320638473,0.08557354,0.406212013,0.235064932,nan,nan,nan,[ nan  nan  nan],nan,nan,nan,3179.003619,3332.193419,3332.46493,nan,nan
0,143,19:24:48:604000,6,1,486,341.71875,[ 0.63115176  0.30960306 -1.        ],1,1,1,0.281699742,0,0,0,0.271510251,0.320294919,0.085372023,0.405666942,0.234922896,nan,nan,nan,[ nan  nan  nan],nan,nan,nan,3179.003619,3333.135208,3333.416907,nan,nan
0,144,19:24:49:540000,6,1,331,232.734375,[-0.14329784  0.45080175  0.31116671],1,1,1,0.251904453,0,0,0,0.268371514,0.320026897,0.085135428,0.405162325,0.23489147,nan,nan,nan,[ nan  nan  nan],nan,nan,nan,3179.003619,3334.076998,3334.328903,nan,nan
0,145,19:24:50:476000,6,1,35,24.609375,[ 1.          0.04626536 -1.        ],1,0,0,0.38208183,0,0,0,0.305228675,0.319557087,0.085028457,0.404585544,0.234528631,nan,nan,nan,[ nan  nan  nan],nan,nan,nan,3179.003619,3335.018791,3335.400872,nan,nan
0,146,19:24:51:427000,6,1,386,271.40625,[-0.08339466  0.47749559 -0.24542474],1,1,1,0.352289107,0,0,0,0.328758464,0.319985339,0.084893533,0.404878872,0.235091806,nan,nan,nan,[ nan  nan  nan],nan,nan,nan,3179.003619,3335.960574,3336.312863,nan,nan
0,147,19:24:52:363000,6,1,299,210.234375,[ 0.05166456  0.39341767  0.53437875],1,1,1,0.282472357,0,0,0,0.338947765,0.320205093,0.084645944,0.404851037,0.235559148,nan,nan,nan,[ nan  nan  nan],nan,nan,nan,3179.003619,3336.902367,3337.184839,nan,nan
0,148,19:24:53:299000,6,1,168,118.125,[ 1.         -0.19079002  0.2303618 ],1,1,1,0.244678649,0,0,0,0.293146704,0.319950142,0.084416107,0.404366249,0.235534034,nan,nan,nan,[ nan  nan  nan],nan,nan,nan,3179.003619,3337.84415,3338.088829,nan,nan
0,149,19:24:54:251000,6,1,229,161.015625,[ 0.77039703  0.13526594  0.61468147],1,1,1,0.222877504,0,0,0,0.250009503,0.319444964,0.084356526,0.403801489,0.235088438,nan,nan,nan,[ nan  nan  nan],nan,nan,nan,3179.003619,3338.785937,3339.008814,nan,nan
0,150,19:24:55:187000,6,1,472,331.875,[ 0.51429865  0.35221228 -1.        ],1,1,1,0.305073202,0,0,0,0.257543118,0.318801181,0.084441325,0.403242505,0.234359856,nan,nan,nan,[ nan  nan  nan],nan,nan,nan,3179.003619,3339.727728,3340.032801,nan,nan
0,151,19:24:56:138000,6,1,54,37.96875,[ 1.         -0.05462921 -1.        ],1,1,1,0.243240616,0,0,0,0.257063774,0.318710267,0.084168618,0.402878885,0.234541649,nan,nan,nan,[ nan  nan  nan],nan,nan,nan,3179.003619,3340.669526,3340.912767,nan,nan
0,152,19:24:57:074000,6,1,420,295.3125,[ 0.11466019  0.4536941  -0.6950475 ],1,1,1,0.253454245,0,0,0,0.267256021,0.318213756,0.084112863,0.402326619,0.234100893,nan,nan,nan,[ nan  nan  nan],nan,nan,nan,3179.003619,3341.611306,3341.864761,nan,nan
0,153,19:24:58:010000,6,1,155,108.984375,[ 1.         -0.24798314  0.11161188],1,1,1,0.023669391,0,1,0,0.173454751,0.317790491,0.083999782,0.401790273,0.23379071,nan,nan,nan,[ nan  nan  nan],nan,nan,nan,3179.003619,3342.553095,3342.576764,nan,nan
0,154,19:25:02:909000,6,1,15,10.546875,[ 0.96573443  0.14535278 -1.        ],1,1,1,0.497826699,1,0,0,0.258316779,0.315880614,0.086995591,0.402876206,0.228885023,nan,115.6515285,476,[ 0.54754504  0.34073938 -1.        ],nan,-36.19840347,1.892337654,3179.003619,3343.494889,3343.992716,3345.328395,3347.228668
0,155,19:25:03:845000,6,1,492,345.9375,[ 0.68140332  0.28922202 -1.        ],1,1,1,0.349440695,0,0,0,0.290312262,0.31705446,0.087929542,0.404984002,0.229124918,nan,nan,nan,[ nan  nan  nan],nan,nan,nan,3179.003619,3348.387182,3348.736623,nan,nan
0,156,19:25:04:796000,6,1,116,81.5625,[ 1.         -0.30644692 -0.28251544],1,1,1,0.295635323,0,0,0,0.380967573,0.317262064,0.087685365,0.404947429,0.229576699,nan,nan,nan,[ nan  nan  nan],nan,nan,nan,3179.003619,3349.328972,3349.624607,nan,nan
0,157,19:25:05:732000,6,1,419,294.609375,[ 0.10789467  0.45484197 -0.67809886],1,1,1,0.209846252,0,0,0,0.28497409,0.317124314,0.087422597,0.404546911,0.229701717,nan,nan,nan,[ nan  nan  nan],nan,nan,nan,3179.003619,3350.270757,3350.480603,nan,nan
0,158,19:25:06:668000,6,1,353,248.203125,[-0.17504126  0.47149007  0.10879922],1,1,1,0.260019478,0,0,0,0.255167018,0.316445339,0.087559791,0.40400513,0.228885547,nan,nan,nan,[ nan  nan  nan],nan,nan,nan,3179.003619,3351.212549,3351.472568,nan,nan
0,159,19:25:07:620000,6,1,89,62.578125,[ 1.         -0.2294841  -0.58737049],1,1,1,0.254211465,0,0,0,0.241359065,0.316090459,0.087397924,0.403488384,0.228692535,nan,nan,nan,[ nan  nan  nan],nan,nan,nan,3179.003619,3352.154338,3352.40855,nan,nan
0,160,19:25:08:556000,6,0,44,30.9375,[ 1.         -0.00106984 -1.        ],0,0,1,0.400433862,0,0,0,0.304888268,0.315703716,0.087260753,0.402964468,0.228442963,nan,nan,nan,[ nan  nan  nan],nan,nan,nan,3179.003619,3353.096123,3353.496557,nan,nan
0,161,19:25:09:492000,6,1,128,90,[ 1.         -0.31066301 -0.15668979],1,1,1,0.338600135,0,0,0,0.331081821,0.31622999,0.087243674,0.403473663,0.228986316,nan,nan,nan,[ nan  nan  nan],nan,nan,nan,3179.003619,3354.037929,3354.37653,nan,nan
0,162,19:25:10:444000,6,1,205,144.140625,[ 1.          0.008548    0.50553524],1,1,1,0.332792693,0,0,0,0.357275563,0.316368077,0.086991633,0.40335971,0.229376444,nan,nan,nan,[ nan  nan  nan],nan,nan,nan,3179.003619,3354.979706,3355.312499,nan,nan
0,163,19:25:11:380000,6,1,109,76.640625,[ 1.         -0.29463833 -0.3577737 ],1,1,1,0.279000721,0,0,0,0.31679785,0.316468842,0.08673386,0.403202702,0.229734982,nan,nan,nan,[ nan  nan  nan],nan,nan,nan,3179.003619,3355.921493,3356.200493,nan,nan
0,164,19:25:12:331000,6,1,278,195.46875,[ 0.24828552  0.33580281  0.62196257],1,1,1,0.273194989,0,0,0,0.294996134,0.316240377,0.086518206,0.402758583,0.229722172,nan,nan,nan,[ nan  nan  nan],nan,nan,nan,3179.003619,3356.863281,3357.136476,nan,nan
0,165,19:25:13:267000,6,1,470,330.46875,[ 0.49774161  0.35774078 -1.        ],1,1,1,0.227402006,0,0,0,0.259865905,0.315979496,0.086320308,0.402299804,0.229659189,nan,nan,nan,[ nan  nan  nan],nan,nan,nan,3179.003619,3357.805067,3358.032469,nan,nan
0,166,19:25:14:203000,6,1,243,170.859375,[ 0.62215101  0.20168048  0.64746348],1,1,1,0.245603792,0,0,0,0.248733595,0.315445897,0.086332433,0.40177833,0.229113464,nan,nan,nan,[ nan  nan  nan],nan,nan,nan,3179.003619,3358.746857,3358.992461,nan,nan
0,167,19:25:15:155000,6,1,511,359.296875,[ 0.83870319  0.21628417 -1.        ],1,1,1,0.271792878,0,0,0,0.248266225,0.315027681,0.086242059,0.401269739,0.228785622,nan,nan,nan,[ nan  nan  nan],nan,nan,nan,3179.003619,3359.688647,3359.96044,nan,nan
0,168,19:25:16:091000,6,1,26,18.28125,[ 1.          0.09209217 -1.        ],1,1,1,0.473974275,0,0,0,0.330456981,0.314770331,0.086049294,0.400819624,0.228721037,nan,nan,nan,[ nan  nan  nan],nan,nan,nan,3179.003619,3360.630436,3361.104411,nan,nan
0,169,19:25:17:027000,6,1,277,194.765625,[ 0.25847065  0.33263616  0.62482424],1,1,1,0.300159256,0,0,0,0.348642136,0.315712366,0.086658847,0.402371213,0.229053519,nan,nan,nan,[ nan  nan  nan],nan,nan,nan,3179.003619,3361.57224,3361.872399,nan,nan
0,170,19:25:17:979000,6,1,201,141.328125,[ 1.         -0.01357126  0.48142235],1,1,1,0.198381329,0,0,0,0.32417162,0.315620877,0.086411777,0.402032654,0.2292091,nan,nan,nan,[ nan  nan  nan],nan,nan,nan,3179.003619,3362.514008,3362.712389,nan,nan
0,171,19:25:18:915000,6,1,480,337.5,[ 0.58092807  0.32870764 -1.        ],1,1,1,0.28858685,0,0,0,0.262375811,0.314935266,0.086621241,0.401556506,0.228314025,nan,nan,nan,[ nan  nan  nan],nan,nan,nan,3179.003619,3363.455792,3363.744378,nan,nan
0,172,19:25:19:866000,6,1,298,209.53125,[ 0.06008966  0.39105034  0.53969689],1,1,1,0.28277171,0,0,0,0.256579963,0.314782077,0.086392295,0.401174372,0.228389782,nan,nan,nan,[ nan  nan  nan],nan,nan,nan,3179.003619,3364.39759,3364.680362,nan,nan
0,173,19:25:20:802000,6,1,328,230.625,[-0.13215956  0.44685797  0.33604616],1,1,1,0.388954398,0,0,0,0.320104319,0.314597046,0.086176418,0.400773464,0.228420628,nan,nan,nan,[ nan  nan  nan],nan,nan,nan,3179.003619,3365.339375,3365.728329,nan,nan
0,174,19:25:21:738000,6,1,471,331.171875,[ 0.50601401  0.35499378 -1.        ],1,1,1,0.423152737,0,0,0,0.364959615,0.315024387,0.086112066,0.401136454,0.228912321,nan,nan,nan,[ nan  nan  nan],nan,nan,nan,3179.003619,3366.281165,3366.704318,nan,nan
0,175,19:25:22:690000,6,1,333,234.140625,[-0.14981348  0.45327595  0.29418374],1,1,1,0.361352652,0,0,0,0.391153263,0.315642263,0.086251627,0.40189389,0.229390637,nan,nan,nan,[ nan  nan  nan],nan,nan,nan,3179.003619,3367.22295,3367.584303,nan,nan
0,176,19:25:23:626000,6,0,235,165.234375,[ 0.70759192  0.16453778  0.63165963],0,0,1,0.499539567,0,0,0,0.428014985,0.315901982,0.086074842,0.401976824,0.229827139,nan,nan,nan,[ nan  nan  nan],nan,nan,nan,3179.003619,3368.16474,3368.66428,nan,nan
0,177,19:25:24:562000,6,1,352,247.5,[-0.17544713  0.4708516   0.11867359],1,1,1,0.301709333,0,0,0,0.387533851,0.316939482,0.086927947,0.40386743,0.230011535,nan,nan,nan,[ nan  nan  nan],nan,nan,nan,3179.003619,3369.106547,3369.408256,nan,nan
0,178,19:25:25:513000,6,1,216,151.875,[ 0.90097501  0.06822711  0.56342658],1,1,1,0.351941573,0,0,0,0.384396824,0.316853919,0.086690898,0.403544817,0.230163021,nan,nan,nan,[ nan  nan  nan],nan,nan,nan,3179.003619,3370.048321,3370.400263,nan,nan
0,179,19:25:26:449000,6,1,308,216.5625,[-0.01868286  0.41309748  0.48168233],1,1,1,0.322128894,0,0,0,0.325259933,0.31704994,0.086487955,0.403537894,0.230561985,nan,nan,nan,[ nan  nan  nan],nan,nan,nan,3179.003619,3370.990103,3371.312232,nan,nan
0,180,19:25:27:401000,6,1,9,6.328125,[ 0.91893356  0.17291669 -1.        ],1,1,1,0.308308207,0,0,0,0.327459558,0.317078156,0.086248202,0.403326358,0.230829954,nan,nan,nan,[ nan  nan  nan],nan,nan,nan,3179.003619,3371.931904,3372.240212,nan,nan
0,181,19:25:28:337000,6,0,196,137.8125,[ 1.         -0.04136108  0.44913076],0,0,1,0.438517514,0,0,0,0.356318205,0.317029704,0.086012074,0.403041777,0.23101763,nan,nan,nan,[ nan  nan  nan],nan,nan,nan,3179.003619,3372.873683,3373.312201,nan,nan
0,182,19:25:29:273000,6,1,317,222.890625,[-0.07777284  0.42993861  0.42073361],1,1,1,0.280741813,0,0,0,0.342522511,0.317697219,0.086244289,0.403941508,0.23145293,nan,nan,nan,[ nan  nan  nan],nan,nan,nan,3179.003619,3373.815477,3374.096219,nan,nan
0,183,19:25:30:225000,6,1,48,33.75,[ 1.         -0.02242733 -1.        ],1,1,1,0.370898868,0,0,0,0.363386065,0.317495277,0.086051463,0.40354674,0.231443814,nan,nan,nan,[ nan  nan  nan],nan,nan,nan,3179.003619,3374.757277,3375.128176,nan,nan
0,184,19:25:31:161000,6,1,268,188.4375,[ 0.35230222  0.30236752  0.64500531],1,1,1,0.293092536,0,0,0,0.314911072,0.317785514,0.085907078,0.403692591,0.231878436,nan,nan,nan,[ nan  nan  nan],nan,nan,nan,3179.003619,3375.699054,3375.992146,nan,nan
0,185,19:25:32:097000,6,0,51,35.859375,[ 1.         -0.03851602 -1.        ],0,0,1,0.407276495,0,0,0,0.357089299,0.317652038,0.085693711,0.403345749,0.231958328,nan,nan,nan,[ nan  nan  nan],nan,nan,nan,3179.003619,3376.640857,3377.048134,nan,nan
0,186,19:25:33:048000,6,1,454,319.21875,[ 0.36762736  0.39708484 -1.        ],1,1,1,0.353480816,0,0,0,0.351283282,0.31813389,0.085713971,0.403847861,0.232419919,nan,nan,nan,[ nan  nan  nan],nan,nan,nan,3179.003619,3377.582629,3377.93611,nan,nan
0,187,19:25:33:984000,6,1,501,352.265625,[ 0.75644923  0.25625354 -1.        ],1,1,1,0.331680526,0,0,0,0.364145946,0.318322911,0.085523344,0.403846255,0.232799568,nan,nan,nan,[ nan  nan  nan],nan,nan,nan,3179.003619,3378.524417,3378.856098,nan,nan
0,188,19:25:34:936000,6,1,165,116.015625,[ 1.         -0.20505638  0.20374544],1,1,1,0.205874555,0,0,0,0.297011966,0.318393962,0.085301118,0.403695081,0.233092844,nan,nan,nan,[ nan  nan  nan],nan,nan,nan,3179.003619,3379.46621,3379.672084,nan,nan
0,189,19:25:35:872000,6,1,68,47.8125,[ 1.         -0.12901814 -0.9729032 ],1,1,1,0.160072449,0,0,0,0.23254251,0.317798621,0.08546587,0.403264491,0.232332752,nan,nan,nan,[ nan  nan  nan],nan,nan,nan,3179.003619,3380.407998,3380.56807,nan,nan
0,190,19:25:36:808000,6,1,385,270.703125,[-0.08797966  0.47773344 -0.23392672],1,1,1,0.27426211,0,1,0,0.213403038,0.316968484,0.086001255,0.402969739,0.230967228,nan,nan,nan,[ nan  nan  nan],nan,nan,nan,3179.003619,3381.349791,3381.624053,nan,nan
0,191,19:25:41:722000,6,1,152,106.875,[ 1.         -0.25918449  0.08306255],1,1,1,0.252461535,1,0,0,0.228932031,0.31674489,0.085831178,0.402576068,0.230913712,nan,-30.86952014,172,[ 1.         -0.17098406  0.26502468],nan,13.99452014,1.908814027,3179.003619,3382.291579,3382.54404,3384.125084,3386.042019
0,192,19:25:42:658000,6,1,252,177.1875,[ 0.52472169  0.24069367  0.65569401],1,1,1,0.383414377,0,0,0,0.303379341,0.316410081,0.085732328,0.402142409,0.230677753,nan,nan,nan,[ nan  nan  nan],nan,nan,nan,3179.003619,3387.200542,3387.583956,nan,nan
0,193,19:25:43:609000,6,1,377,265.078125,[-0.12125986  0.47870083 -0.1436959 ],1,1,1,0.353647884,0,0,0,0.329841265,0.316757254,0.085645143,0.402402396,0.231112111,nan,nan,nan,[ nan  nan  nan],nan,nan,nan,3179.003619,3388.142287,3388.495935,nan,nan
0,194,19:25:44:545000,6,1,217,152.578125,[ 0.89125041  0.07353733  0.56804835],1,1,1,0.27579337,0,0,0,0.337618544,0.316947411,0.085464961,0.402412372,0.23148245,nan,nan,nan,[ nan  nan  nan],nan,nan,nan,3179.003619,3389.084118,3389.359911,nan,nan
0,195,19:25:45:481000,6,1,491,345.234375,[ 0.67303348  0.29270771 -1.        ],1,1,1,0.302000702,0,0,0,0.310480652,0.316736365,0.085296206,0.402032571,0.231440159,nan,nan,nan,[ nan  nan  nan],nan,nan,nan,3179.003619,3390.025908,3390.327909,nan,nan
0,196,19:25:46:433000,6,0,198,139.21875,[ 1.         -0.0302355   0.46232694],0,0,1,0.440176783,0,0,0,0.339323619,0.316661183,0.085084812,0.401745995,0.231576371,nan,nan,nan,[ nan  nan  nan],nan,nan,nan,3179.003619,3390.967697,3391.407874,nan,nan
0,197,19:25:47:369000,6,1,11,7.734375,[ 0.9346595  0.1638529 -1.       ],1,1,1,0.338382036,0,0,0,0.360186507,0.317288166,0.08532131,0.402609476,0.231966856,nan,nan,nan,[ nan  nan  nan],nan,nan,nan,3179.003619,3391.909486,3392.247868,nan,nan
0,198,19:25:48:321000,6,1,478,336.09375,[ 0.5642225   0.33479366 -1.        ],1,1,1,0.356567,0,0,0,0.378375273,0.317394701,0.085118715,0.402513415,0.232275986,nan,nan,nan,[ nan  nan  nan],nan,nan,nan,3179.003619,3392.851276,3393.207843,nan,nan
0,199,19:25:49:257000,6,1,414,291.09375,[ 0.07478379  0.46016219 -0.60008918],1,1,1,0.32676487,0,0,0,0.340571302,0.317591546,0.084949748,0.402541294,0.232641798,nan,nan,nan,[ nan  nan  nan],nan,nan,nan,3179.003619,3393.793059,3394.119824,nan,nan
0,200,19:25:50:193000,6,1,511,359.296875,[ 0.83870319  0.21628417 -1.        ],1,1,1,0.28895206,0,0,0,0.324094643,0.317637413,0.084739578,0.402376991,0.232897835,nan,nan,nan,[ nan  nan  nan],nan,nan,nan,3179.003619,3394.734851,3395.023803,nan,nan
0,201,19:25:51:144000,6,0,455,319.921875,[ 0.37560825  0.39487537 -1.        ],0,1,0,0.251188858,0,0,0,0.288968596,0.3174947,0.084552612,0.402047311,0.232942088,nan,nan,nan,[ nan  nan  nan],nan,nan,nan,3179.003619,3395.67662,3395.927809,nan,nan
0,202,19:25:52:080000,6,1,229,161.015625,[ 0.77039703  0.13526594  0.61468147],1,1,1,0.221347099,0,0,0,0.253829339,0.317166453,0.084471352,0.401637805,0.232695101,nan,nan,nan,[ nan  nan  nan],nan,nan,nan,3179.003619,3396.618426,3396.839773,nan,nan
0,203,19:25:53:016000,6,1,85,59.765625,[ 1.         -0.21215645 -0.63878123],1,1,1,0.39155392,0,0,0,0.288029959,0.316694436,0.084529669,0.401224106,0.232164767,nan,nan,nan,[ nan  nan  nan],nan,nan,nan,3179.003619,3397.560214,3397.951767,nan,nan
0,204,19:25:53:968000,6,0,435,305.859375,[ 0.22126383  0.43302706 -1.        ],0,1,0,0.193760463,0,0,0,0.268887161,0.317061395,0.084484169,0.401545564,0.232577226,nan,nan,nan,[ nan  nan  nan],nan,nan,nan,3179.003619,3398.502002,3398.695762,nan,nan
0,205,19:25:54:904000,6,1,17,11.953125,[ 0.98106915  0.13592191 -1.        ],1,1,1,0.211942292,0,0,0,0.265752225,0.316459927,0.084714563,0.40117449,0.231745364,nan,nan,nan,[ nan  nan  nan],nan,nan,nan,3179.003619,3399.443793,3399.655735,nan,nan
0,206,19:25:55:855000,6,1,209,146.953125,[ 0.96730184  0.03048352  0.52805   ],1,1,1,0.318142371,0,0,0,0.241281709,0.31595256,0.084820345,0.400772904,0.231132215,nan,nan,nan,[ nan  nan  nan],nan,nan,nan,3179.003619,3400.385579,3400.703722,nan,nan
0,207,19:25:56:791000,6,1,270,189.84375,[ 0.33115907  0.30936972  0.64139387],1,1,1,0.328324355,0,0,0,0.286136339,0.315963138,0.084615353,0.400578491,0.231347785,nan,nan,nan,[ nan  nan  nan],nan,nan,nan,3179.003619,3401.327373,3401.655697,nan,nan
0,208,19:25:57:727000,6,1,86,60.46875,[ 1.         -0.21659106 -0.6256178 ],1,1,1,0.386527645,0,0,0,0.344331457,0.316022567,0.084416036,0.400438603,0.231606531,nan,nan,nan,[ nan  nan  nan],nan,nan,nan,3179.003619,3402.269158,3402.655686,nan,nan
0,209,19:25:58:679000,6,1,146,102.65625,[ 1.         -0.27879258  0.02488132],1,1,1,0.316731422,0,0,0,0.343861141,0.316359912,0.084354264,0.400714176,0.232005648,nan,nan,nan,[ nan  nan  nan],nan,nan,nan,3179.003619,3403.210942,3403.527674,nan,nan
0,210,19:25:59:615000,6,1,114,80.15625,[ 1.         -0.30374746 -0.30385937],1,1,1,0.262904668,0,0,0,0.322054578,0.316361681,0.084153185,0.400514866,0.232208497,nan,nan,nan,[ nan  nan  nan],nan,nan,nan,3179.003619,3404.152735,3404.415639,nan,nan
0,211,19:26:00:551000,6,1,188,132.1875,[ 1.         -0.08573935  0.39280429],1,1,1,0.401095574,0,0,0,0.326910555,0.31610833,0.084033772,0.400142102,0.232074558,nan,nan,nan,[ nan  nan  nan],nan,nan,nan,3179.003619,3405.094524,3405.495619,nan,nan
0,212,19:26:01:503000,6,1,316,222.1875,[-0.07182156  0.42820351  0.42789226],1,1,1,0.267290898,0,0,0,0.31043038,0.316509214,0.084037339,0.400546552,0.232471875,nan,nan,nan,[ nan  nan  nan],nan,nan,nan,3179.003619,3406.036313,3406.303604,nan,nan
0,213,19:26:02:439000,6,0,3,2.109375,[ 0.87108718  0.19933511 -1.        ],0,0,1,0.39748481,0,0,0,0.355290427,0.316278142,0.083907316,0.400185458,0.232370826,nan,nan,nan,[ nan  nan  nan],nan,nan,nan,3179.003619,3406.978099,3407.375584,nan,nan
0,214,19:26:03:390000,6,1,298,209.53125,[ 0.06008966  0.39105034  0.53969689],1,1,1,0.27169737,0,0,0,0.312157693,0.316657612,0.08389404,0.400551652,0.232763572,nan,nan,nan,[ nan  nan  nan],nan,nan,nan,3179.003619,3407.919886,3408.191583,nan,nan
0,215,19:26:04:326000,6,1,4,2.8125,[ 0.87912605  0.19501404 -1.        ],1,1,1,0.31389869,0,0,0,0.327693623,0.316448495,0.083754596,0.400203091,0.232693899,nan,nan,nan,[ nan  nan  nan],nan,nan,nan,3179.003619,3408.861675,3409.175574,nan,nan
0,216,19:26:05:262000,6,1,285,200.390625,[ 0.17873435  0.35687868  0.59852701],1,1,1,0.29208386,0,0,0,0.292559973,0.31643669,0.083560674,0.399997364,0.232876016,nan,nan,nan,[ nan  nan  nan],nan,nan,nan,3179.003619,3409.803468,3410.095552,nan,nan
0,217,19:26:06:214000,6,1,192,135,[ 1.         -0.06359976  0.42165841],1,1,1,0.294274551,0,0,0,0.3000857,0.316324465,0.083384229,0.399708695,0.232940236,nan,nan,nan,[ nan  nan  nan],nan,nan,nan,3179.003619,3410.745257,3411.039531,nan,nan
0,218,19:26:07:150000,6,0,334,234.84375,[-0.15279655  0.45446705  0.2855764 ],0,0,1,0.432477717,0,0,0,0.339612043,0.316223319,0.083206103,0.399429422,0.233017216,nan,nan,nan,[ nan  nan  nan],nan,nan,nan,3179.003619,3411.687042,3412.11952,nan,nan
0,219,19:26:08:086000,6,1,164,115.3125,[ 1.         -0.20968584  0.19476155],1,1,1,0.314670165,0,0,0,0.347140811,0.316754161,0.083385091,0.400139252,0.233369069,nan,nan,nan,[ nan  nan  nan],nan,nan,nan,3179.003619,3412.628833,3412.943503,nan,nan
0,220,19:26:09:037000,6,1,342,240.46875,[-0.17005262  0.46291356  0.21407524],1,1,1,0.30885645,0,0,0,0.352001444,0.316744688,0.083195482,0.39994017,0.233549206,nan,nan,nan,[ nan  nan  nan],nan,nan,nan,3179.003619,3413.57062,3413.879476,nan,nan
0,221,19:26:09:973000,6,1,441,310.078125,[ 0.26628726  0.42289189 -1.        ],1,1,1,0.279052609,0,0,0,0.300859741,0.316708995,0.083008732,0.399717727,0.233700263,nan,nan,nan,[ nan  nan  nan],nan,nan,nan,3179.003619,3414.512412,3414.791465,nan,nan
0,222,19:26:10:909000,6,0,334,234.84375,[-0.15279655  0.45446705  0.2855764 ],0,1,0,0.265264423,0,0,0,0.28439116,0.316539371,0.082859943,0.399399314,0.233679428,nan,nan,nan,[ nan  nan  nan],nan,nan,nan,3179.003619,3415.45419,3415.719454,nan,nan
0,223,19:26:11:861000,6,1,21,14.765625,[ 1.        0.116714 -1.      ],1,1,1,0.291448092,0,0,0,0.278588374,0.316309439,0.082744902,0.399054341,0.233564537,nan,nan,nan,[ nan  nan  nan],nan,nan,nan,3179.003619,3416.395987,3416.687435,nan,nan
0,224,19:26:12:797000,6,1,85,59.765625,[ 1.         -0.21215645 -0.63878123],1,1,1,0.365635677,0,0,0,0.307449397,0.316198451,0.082576632,0.398775082,0.233621819,nan,nan,nan,[ nan  nan  nan],nan,nan,nan,3179.003619,3417.337767,3417.703403,nan,nan
0,225,19:26:13:749000,6,1,15,10.546875,[ 0.96573443  0.14535278 -1.        ],1,1,1,0.391829325,0,0,0,0.349637698,0.316418172,0.082458523,0.398876695,0.233959649,nan,nan,nan,[ nan  nan  nan],nan,nan,nan,3179.003619,3418.279566,3418.671395,nan,nan
0,226,19:26:14:685000,6,1,219,153.984375,[ 0.87162732  0.08408817  0.57695967],1,1,1,0.410013434,0,0,0,0.389159478,0.316751849,0.082427992,0.399179841,0.234323857,nan,nan,nan,[ nan  nan  nan],nan,nan,nan,3179.003619,3419.221351,3419.631365,nan,nan
0,227,19:26:15:621000,6,1,154,108.28125,[ 1.         -0.25181315  0.10213817],1,nan,nan,nan,0,0,0,0.400921379,0.317162693,0.082477814,0.399640507,0.234684879,nan,nan,nan,[ nan  nan  nan],nan,nan,nan,3179.003619,3420.163139,nan,nan,nan
0,228,19:26:16:572000,6,1,115,80.859375,[ 1.         -0.30516629 -0.29317275],1,1,1,0.12642891,0,0,0,0.268221172,0.317162693,0.082477814,0.399640507,0.234684879,nan,nan,nan,[ nan  nan  nan],nan,nan,nan,3179.003619,3421.104935,3421.231364,nan,nan
0,229,19:26:17:508000,6,1,265,186.328125,[ 0.38425915  0.29156831  0.64947886],1,1,1,0.45660469,0,0,0,0.2915168,0.316326142,0.083256308,0.399582449,0.233069834,nan,nan,nan,[ nan  nan  nan],nan,nan,nan,3179.003619,3422.046716,3422.50332,nan,nan
0,230,19:26:18:444000,6,0,164,115.3125,[ 1.         -0.20968584  0.19476155],0,0,1,0.450805801,0,0,0,0.344613134,0.316938712,0.083587672,0.400526384,0.23335104,nan,nan,nan,[ nan  nan  nan],nan,nan,nan,3179.003619,3422.98851,3423.439316,nan,nan
0,231,19:26:19:396000,6,1,491,345.234375,[ 0.67303348  0.29270771 -1.        ],1,1,1,0.276981373,0,0,0,0.394797288,0.317520742,0.083869524,0.401390267,0.233651218,nan,nan,nan,[ nan  nan  nan],nan,nan,nan,3179.003619,3423.930319,3424.207301,nan,nan
0,232,19:26:20:332000,6,1,106,74.53125,[ 1.         -0.28763007 -0.39056445],1,1,1,0.423197497,0,0,0,0.383661557,0.317345247,0.083730103,0.40107535,0.233615144,nan,nan,nan,[ nan  nan  nan],nan,nan,nan,3179.003619,3424.872087,3425.295284,nan,nan
0,233,19:26:21:283000,6,1,158,111.09375,[ 1.         -0.23594923  0.13976411],1,1,1,0.329388055,0,0,0,0.343188975,0.317801507,0.083836743,0.40163825,0.233964764,nan,nan,nan,[ nan  nan  nan],nan,nan,nan,3179.003619,3425.813876,3426.143264,nan,nan
0,234,19:26:22:219000,6,1,506,355.78125,[ 0.79777474  0.23670313 -1.        ],1,1,1,0.315603005,0,0,0,0.356062852,0.317851235,0.083660071,0.401511306,0.234191164,nan,nan,nan,[ nan  nan  nan],nan,nan,nan,3179.003619,3426.755654,3427.071257,nan,nan
0,235,19:26:23:155000,6,1,47,33.046875,[ 1.         -0.01707559 -1.        ],1,1,1,0.30977532,0,0,0,0.31825546,0.317841627,0.083481247,0.401322874,0.23436038,nan,nan,nan,[ nan  nan  nan],nan,nan,nan,3179.003619,3427.697449,3428.007225,nan,nan
0,236,19:26:24:107000,6,1,308,216.5625,[-0.01868286  0.41309748  0.48168233],1,1,1,0.303973009,0,0,0,0.309783778,0.317807302,0.083305093,0.401112395,0.234502209,nan,nan,nan,[ nan  nan  nan],nan,nan,nan,3179.003619,3428.639241,3428.943214,nan,nan
0,237,19:26:25:043000,6,1,150,105.46875,[ 1.         -0.26615253  0.06382271],1,1,1,0.290168858,0,0,0,0.301305729,0.317748682,0.083133269,0.400881951,0.234615413,nan,nan,nan,[ nan  nan  nan],nan,nan,nan,3179.003619,3429.581028,3429.871197,nan,nan
0,238,19:26:25:979000,6,1,499,350.859375,[ 0.73983189  0.26382776 -1.        ],1,1,1,0.340350066,0,0,0,0.311497311,0.317632312,0.082976957,0.400609269,0.234655355,nan,nan,nan,[ nan  nan  nan],nan,nan,nan,3179.003619,3430.522819,3430.863169,nan,nan
0,239,19:26:26:931000,6,1,17,11.953125,[ 0.98106915  0.13592191 -1.        ],1,nan,nan,nan,0,0,0,0.315259462,0.317727765,0.08281549,0.400543255,0.234912274,nan,nan,nan,[ nan  nan  nan],nan,nan,nan,3179.003619,3431.464616,nan,nan,nan
0,240,19:26:27:867000,6,1,453,318.515625,[ 0.35967042  0.39926175 -1.        ],1,1,1,0.088773475,0,0,0,0.21456177,0.317727765,0.08281549,0.400543255,0.234912274,nan,nan,nan,[ nan  nan  nan],nan,nan,nan,3179.003619,3432.406395,3432.495168,nan,nan
0,241,19:26:28:818000,6,1,2,1.40625,[ 0.86302458  0.20362286 -1.        ],1,1,1,0.410937721,0,0,0,0.249855598,0.316769797,0.083953096,0.400722893,0.232816701,nan,nan,nan,[ nan  nan  nan],nan,nan,nan,3179.003619,3433.348181,3433.759119,nan,nan
0,242,19:26:29:754000,6,1,62,43.59375,[ 1.         -0.09743725 -1.        ],1,1,1,0.317137686,0,0,0,0.272282961,0.317162163,0.083997318,0.401159482,0.233164845,nan,nan,nan,[ nan  nan  nan],nan,nan,nan,3179.003619,3434.289967,3434.607105,nan,nan
0,243,19:26:30:690000,6,1,196,137.8125,[ 1.         -0.04136108  0.44913076],1,1,1,0.279346259,0,0,0,0.335807222,0.317162062,0.083822869,0.400984931,0.233339193,nan,nan,nan,[ nan  nan  nan],nan,nan,nan,3179.003619,3435.231758,3435.511105,nan,nan
0,244,19:26:31:642000,6,1,277,194.765625,[ 0.25847065  0.33263616  0.62482424],1,1,1,0.329538586,0,0,0,0.308674177,0.317005798,0.08368467,0.400690468,0.233321128,nan,nan,nan,[ nan  nan  nan],nan,nan,nan,3179.003619,3436.173545,3436.503084,nan,nan
0,245,19:26:32:578000,6,1,70,49.21875,[ 1.         -0.13936985 -0.90643691],1,1,1,0.387724486,0,0,0,0.332203111,0.317057373,0.083516156,0.400573529,0.233541217,nan,nan,nan,[ nan  nan  nan],nan,nan,nan,3179.003619,3437.115334,3437.503059,nan,nan
0,246,19:26:33:514000,6,1,429,301.640625,[ 0.17753182  0.44208078 -0.9018852 ],1,1,1,0.309961774,0,0,0,0.342408282,0.317346992,0.08346703,0.400814023,0.233879962,nan,nan,nan,[ nan  nan  nan],nan,nan,nan,3179.003619,3438.057118,3438.36708,nan,nan
0,247,19:26:34:465000,6,1,74,52.03125,[ 1.         -0.15971516 -0.81044328],1,1,1,0.296080646,0,0,0,0.331255635,0.317316849,0.083297846,0.400614695,0.234019003,nan,nan,nan,[ nan  nan  nan],nan,nan,nan,3179.003619,3438.998935,3439.295016,nan,nan
0,248,19:26:35:401000,6,1,371,260.859375,[-0.14179361  0.47833194 -0.07797326],1,1,1,0.274314283,0,0,0,0.293452234,0.317230523,0.08313935,0.400369873,0.234091173,nan,nan,nan,[ nan  nan  nan],nan,nan,nan,3179.003619,3439.940701,3440.215016,nan,nan
0,249,19:26:36:353000,6,1,91,63.984375,[ 1.         -0.2377099  -0.56272232],1,1,1,0.244509016,0,0,0,0.271634648,0.317056773,0.083015623,0.400072395,0.23404115,nan,nan,nan,[ nan  nan  nan],nan,nan,nan,3179.003619,3440.882494,3441.127003,nan,nan
0,250,19:26:37:289000,6,1,507,356.484375,[ 0.80599565  0.23268835 -1.        ],1,1,1,0.262698827,0,0,0,0.260507375,0.316764241,0.08297555,0.399739791,0.233788692,nan,nan,nan,[ nan  nan  nan],nan,nan,nan,3179.003619,3441.824276,3442.086975,nan,nan
0,251,19:26:38:225000,6,1,234,164.53125,[ 0.71814775  0.15974031  0.6291316 ],1,1,1,0.272905329,0,0,0,0.260037724,0.316547111,0.082879331,0.399426442,0.23366778,nan,nan,nan,[ nan  nan  nan],nan,nan,nan,3179.003619,3442.766063,3443.038969,nan,nan
0,252,19:26:39:177000,6,1,125,87.890625,[ 1.         -0.31156743 -0.18780506],1,1,1,0.243092365,0,0,0,0.259565507,0.316372544,0.082759263,0.399131807,0.233613282,nan,nan,nan,[ nan  nan  nan],nan,nan,nan,3179.003619,3443.707854,3443.950946,nan,nan
0,253,19:26:40:113000,6,1,494,347.34375,[ 0.69812996  0.282144   -1.        ],1,1,1,0.261286738,0,0,0,0.259094811,0.316080591,0.082723137,0.398803729,0.233357454,nan,nan,nan,[ nan  nan  nan],nan,nan,nan,3179.003619,3444.649649,3444.910935,nan,nan
0,254,19:26:41:049000,6,1,2,1.40625,[ 0.86302458  0.20362286 -1.        ],1,nan,nan,nan,0,0,0,0.252189551,0.315863155,0.082630679,0.398493834,0.233232476,nan,nan,nan,[ nan  nan  nan],nan,nan,nan,3179.003619,3445.591431,nan,nan,nan
0,255,19:26:42:000000,6,1,309,217.265625,[-0.02583963  0.41510654  0.4753057 ],1,1,1,0.497637679,0,0,0,0.379462209,0.315863155,0.082630679,0.398493834,0.233232476,nan,nan,nan,[ nan  nan  nan],nan,nan,nan,3179.003619,3446.533242,3447.03088,nan,nan
0,256,19:26:42:936000,6,1,162,113.90625,[ 1.         -0.21873956  0.17663297],1,1,1,0.355874498,0,0,0,0.426756089,0.316581632,0.083252184,0.399833816,0.233329448,nan,nan,nan,[ nan  nan  nan],nan,nan,nan,3179.003619,3447.475007,3447.830881,nan,nan
0,257,19:26:43:888000,6,1,212,149.0625,[ 0.93926289  0.04677313  0.543851  ],1,1,1,0.238060103,0,0,0,0.363857427,0.316736328,0.083124566,0.399860894,0.233611762,nan,nan,nan,[ nan  nan  nan],nan,nan,nan,3179.003619,3448.416801,3448.654861,nan,nan
0,258,19:26:44:824000,6,1,9,6.328125,[ 0.91893356  0.17291669 -1.        ],1,1,1,0.240296125,0,0,0,0.278076909,0.316427794,0.083107014,0.399534808,0.23332078,nan,nan,nan,[ nan  nan  nan],nan,nan,nan,3179.003619,3449.358586,3449.598882,nan,nan
0,259,19:26:45:760000,6,1,294,206.71875,[ 0.0948762   0.38121213  0.55985823],1,1,1,0.250459578,0,0,0,0.242938602,0.316130404,0.083080374,0.399210778,0.233050031,nan,nan,nan,[ nan  nan  nan],nan,nan,nan,3179.003619,3450.300377,3450.550837,nan,nan
0,260,19:26:46:711000,6,1,86,60.46875,[ 1.         -0.21659106 -0.6256178 ],1,1,1,0.244652705,0,0,0,0.245136136,0.315874876,0.083019315,0.398894191,0.232855561,nan,nan,nan,[ nan  nan  nan],nan,nan,nan,3179.003619,3451.242166,3451.486819,nan,nan
0,261,19:26:47:647000,6,1,129,90.703125,[ 1.         -0.31007049 -0.146368  ],1,1,1,0.518826435,0,0,0,0.337979573,0.315598821,0.082976368,0.398575189,0.232622453,nan,nan,nan,[ nan  nan  nan],nan,nan,nan,3179.003619,3452.183952,3452.702779,nan,nan
0,262,19:26:48:583000,6,1,414,291.09375,[ 0.07478379  0.46016219 -0.60008918],1,1,1,0.249032093,0,0,0,0.337503744,0.316383484,0.083769587,0.400153071,0.232613896,nan,nan,nan,[ nan  nan  nan],nan,nan,nan,3179.003619,3453.125745,3453.374777,nan,nan
0,263,19:26:49:535000,6,1,197,138.515625,[ 1.         -0.0357976   0.45577474],1,1,1,0.187219749,0,0,0,0.318359425,0.31612444,0.083712208,0.399836648,0.232412231,nan,nan,nan,[ nan  nan  nan],nan,nan,nan,3179.003619,3454.067554,3454.254774,nan,nan
0,264,19:26:50:471000,6,1,70,49.21875,[ 1.         -0.13936985 -0.90643691],1,1,1,0.269429987,0,0,0,0.235227276,0.315630552,0.083930357,0.399560909,0.231700195,nan,nan,nan,[ nan  nan  nan],nan,nan,nan,3179.003619,3455.009326,3455.278756,nan,nan
0,265,19:26:51:407000,6,1,484,340.3125,[ 0.61439895  0.31611274 -1.        ],1,1,1,0.247618863,0,0,0,0.2347562,0.315454214,0.083818458,0.399272672,0.231635756,nan,nan,nan,[ nan  nan  nan],nan,nan,nan,3179.003619,3455.951121,3456.19874,nan,nan
0,266,19:26:52:359000,6,0,65,45.703125,[ 1.         -0.11331216 -1.        ],0,1,0,0.217821579,0,0,0,0.24495681,0.315196285,0.083763065,0.39895935,0.23143322,nan,nan,nan,[ nan  nan  nan],nan,nan,nan,3179.003619,3456.892895,3457.110717,nan,nan
0,267,19:26:53:295000,6,1,262,184.21875,[ 0.41645248  0.28041442  0.65281554],1,1,1,0.260013206,0,0,0,0.241817883,0.314827441,0.083817984,0.398645425,0.231009458,nan,nan,nan,[ nan  nan  nan],nan,nan,nan,3179.003619,3457.834683,3458.094696,nan,nan
0,268,19:26:54:246000,6,1,52,36.5625,[ 1.         -0.04388606 -1.        ],1,1,1,0.262215871,0,0,0,0.246683552,0.314620595,0.083727167,0.398347763,0.230893428,nan,nan,nan,[ nan  nan  nan],nan,nan,nan,3179.003619,3458.776474,3459.038689,nan,nan
0,269,19:26:55:182000,6,1,8,5.625,[ 0.91102659  0.17740094 -1.        ],1,1,1,0.296395109,0,0,0,0.272874729,0.314423585,0.083631153,0.398054738,0.230792432,nan,nan,nan,[ nan  nan  nan],nan,nan,nan,3179.003619,3459.718261,3460.014656,nan,nan
0,270,19:26:56:118000,6,1,409,287.578125,[ 0.04294362  0.46479315 -0.52946185],1,1,1,0.274608219,0,0,0,0.277739733,0.314356063,0.083481657,0.39783772,0.230874405,nan,nan,nan,[ nan  nan  nan],nan,nan,nan,3179.003619,3460.660049,3460.934658,nan,nan
0,271,19:26:57:070000,6,1,33,23.203125,[ 1.          0.05659903 -1.        ],1,1,1,0.27676983,0,0,0,0.282591053,0.31420775,0.083360997,0.397568747,0.230846753,nan,nan,nan,[ nan  nan  nan],nan,nan,nan,3179.003619,3461.601863,3461.878633,nan,nan
0,272,19:26:58:006000,6,1,275,193.359375,[ 0.27900239  0.32618525  0.63017847],1,1,1,0.27896936,0,0,0,0.27678247,0.314068575,0.083237094,0.39730567,0.230831481,nan,nan,nan,[ nan  nan  nan],nan,nan,nan,3179.003619,3462.543636,3462.822606,nan,nan
0,273,19:26:58:942000,6,0,331,232.734375,[-0.14329784  0.45080175  0.31116671],0,1,0,0.265173476,0,0,0,0.273637556,0.313938578,0.083110162,0.39704874,0.230828416,nan,nan,nan,[ nan  nan  nan],nan,nan,nan,3179.003619,3463.485417,3463.75059,nan,nan
0,274,19:26:59:893000,6,1,199,139.921875,[ 1.         -0.02467618  0.4687863 ],1,1,1,0.307366814,0,0,0,0.28383655,0.313758633,0.083009358,0.396767991,0.230749276,nan,nan,nan,[ nan  nan  nan],nan,nan,nan,3179.003619,3464.427211,3464.734577,nan,nan
0,275,19:27:00:829000,6,1,503,353.671875,[ 0.7730202   0.24853846 -1.        ],1,1,1,0.389567073,0,0,0,0.320702454,0.313735134,0.08285753,0.396592663,0.230877604,nan,nan,nan,[ nan  nan  nan],nan,nan,nan,3179.003619,3465.368992,3465.758559,nan,nan
0,276,19:27:01:781000,6,1,173,121.640625,[ 1.         -0.16590952  0.27353519],1,1,1,0.31975631,0,0,0,0.338896732,0.314012907,0.082832416,0.396845323,0.23118049,nan,nan,nan,[ nan  nan  nan],nan,nan,nan,3179.003619,3466.310785,3466.630541,nan,nan
0,277,19:27:02:717000,6,1,12,8.4375,[ 0.94247669  0.15927395 -1.        ],1,1,1,0.329960816,0,0,0,0.346428066,0.314033868,0.08268185,0.396715717,0.231352018,nan,nan,nan,[ nan  nan  nan],nan,nan,nan,3179.003619,3467.252564,3467.582525,nan,nan
0,278,19:27:03:653000,6,1,203,142.734375,[ 1.         -0.00249325  0.49367467],1,1,1,0.372146456,0,0,0,0.340621194,0.314091784,0.08253695,0.396628734,0.231554834,nan,nan,nan,[ nan  nan  nan],nan,nan,nan,3179.003619,3468.194365,3468.566511,nan,nan
0,279,19:27:04:605000,6,1,273,191.953125,[ 0.29973296  0.31957719  0.63503803],1,1,1,0.286306637,0,0,0,0.329471303,0.314302127,0.082461099,0.396763226,0.231841028,nan,nan,nan,[ nan  nan  nan],nan,nan,nan,3179.003619,3469.136189,3469.422495,nan,nan
0,280,19:27:05:541000,6,1,430,302.34375,[ 0.18472502  0.44064573 -0.94190417],1,1,1,0.256547842,0,0,0,0.305000312,0.31420106,0.082329241,0.396530301,0.23187182,nan,nan,nan,[ nan  nan  nan],nan,nan,nan,3179.003619,3470.077936,3470.334484,nan,nan
0,281,19:27:06:477000,6,1,495,348.046875,[ 0.70648511  0.27855169 -1.        ],1,1,1,0.530727558,0,0,0,0.357860679,0.313993675,0.082253484,0.396247159,0.23174019,nan,nan,nan,[ nan  nan  nan],nan,nan,nan,3179.003619,3471.019728,3471.550456,nan,nan
0,282,19:27:07:428000,6,1,16,11.25,[ 0.97341943  0.14065211 -1.        ],1,1,1,0.50893126,0,0,1,0.432068886,0.314770499,0.083121277,0.397891776,0.231649222,nan,nan,nan,[ nan  nan  nan],nan,nan,nan,3179.003619,3471.961514,3472.470445,nan,nan
0,283,19:27:11:937000,6,1,319,224.296875,[-0.08918918  0.43330867  0.4061371 ],1,1,1,0.255119787,1,0,0,0.431592868,0.31546393,0.083777249,0.399241179,0.231686681,nan,-133.6220168,318,[-0.08356276  0.43164026  0.41348156],nan,-0.674858246,1.525527089,3179.003619,3472.903301,3473.158421,3474.728476,3476.26203
0,284,19:27:12:873000,6,0,133,93.515625,[ 1.         -0.30625957 -0.10533643],0,0,1,0.378139212,0,0,0,0.380730086,0.315249182,0.083705214,0.398954396,0.231543968,nan,nan,nan,[ nan  nan  nan],nan,nan,nan,3179.003619,3477.412217,3477.790356,nan,nan
0,285,19:27:13:824000,6,1,434,305.15625,[ 0.21388182  0.43461034 -1.        ],1,1,1,0.596310891,0,0,0,0.40985663,0.315472196,0.083640256,0.399112453,0.23183194,nan,nan,nan,[ nan  nan  nan],nan,nan,nan,3179.003619,3478.354002,3478.950313,nan,nan
0,286,19:27:14:760000,6,0,284,199.6875,[ 0.18846515  0.3539841   0.60223628],0,0,1,0.614497852,0,0,0,0.529649318,0.316464559,0.085139191,0.40160375,0.231325368,nan,nan,nan,[ nan  nan  nan],nan,nan,nan,3179.003619,3479.295794,3479.910292,nan,nan
0,287,19:27:15:696000,6,1,35,24.609375,[ 1.          0.04626536 -1.        ],1,1,1,0.488683612,0,0,0,0.566497452,0.317513972,0.086803324,0.404317296,0.230710648,nan,nan,nan,[ nan  nan  nan],nan,nan,nan,3179.003619,3480.237584,3480.726267,nan,nan
0,288,19:27:16:648000,6,1,213,149.765625,[ 0.92978509  0.05216688  0.54890652],1,1,1,0.410904364,0,0,0,0.504695276,0.318114567,0.087240025,0.405354593,0.230874542,nan,nan,nan,[ nan  nan  nan],nan,nan,nan,3179.003619,3481.17937,3481.590274,nan,nan
0,289,19:27:17:584000,6,1,94,66.09375,[ 1.         -0.24943901 -0.52674516],1,1,1,0.205101655,0,0,0,0.368229877,0.318439007,0.087259442,0.405698449,0.231179565,nan,nan,nan,[ nan  nan  nan],nan,nan,nan,3179.003619,3482.12117,3482.326272,nan,nan
0,290,19:27:18:536000,6,1,392,275.625,[-0.05410679  0.47552228 -0.31554984],1,1,1,0.319295592,0,0,0,0.311767204,0.318044104,0.087362928,0.405407032,0.230681175,nan,nan,nan,[ nan  nan  nan],nan,nan,nan,3179.003619,3483.06295,3483.382245,nan,nan
0,291,19:27:19:472000,6,1,308,216.5625,[-0.01868286  0.41309748  0.48168233],1,1,1,0.257501494,0,0,0,0.260632913,0.318048449,0.087211156,0.405259605,0.230837293,nan,nan,nan,[ nan  nan  nan],nan,nan,nan,3179.003619,3484.00473,3484.262231,nan,nan
0,292,19:27:20:408000,6,1,147,103.359375,[ 1.         -0.27580113  0.03467205],1,1,1,0.24369107,0,0,0,0.273496052,0.317838944,0.08713271,0.404971654,0.230706234,nan,nan,nan,[ nan  nan  nan],nan,nan,nan,3179.003619,3484.946527,3485.190218,nan,nan
0,293,19:27:21:359000,6,1,263,184.921875,[ 0.4056988   0.28417174  0.65182989],1,1,1,0.229882927,0,0,0,0.243691831,0.317583262,0.087090886,0.404674147,0.230492376,nan,nan,nan,[ nan  nan  nan],nan,nan,nan,3179.003619,3485.888314,3486.118197,nan,nan
0,294,19:27:22:295000,6,1,19,13.359375,[ 0.99625917  0.12637453 -1.        ],1,1,1,0.23211895,0,0,0,0.235230982,0.317281886,0.087092466,0.404374352,0.23018942,nan,nan,nan,[ nan  nan  nan],nan,nan,nan,3179.003619,3486.830067,3487.062186,nan,nan
0,295,19:27:23:231000,6,1,388,272.8125,[-0.07396337  0.47694192 -0.26857716],1,1,1,0.258262135,0,0,0,0.240088004,0.316990232,0.087085442,0.404075674,0.22990479,nan,nan,nan,[ nan  nan  nan],nan,nan,nan,3179.003619,3487.771893,3488.030155,nan,nan
0,296,19:27:24:183000,6,1,145,101.953125,[ 1.         -0.28166741  0.01505517],1,1,1,0.380476444,0,0,0,0.290285843,0.316789795,0.087004148,0.403793943,0.229785646,nan,nan,nan,[ nan  nan  nan],nan,nan,nan,3179.003619,3488.71368,3489.094157,nan,nan
0,297,19:27:25:119000,6,1,320,225,[-0.09465004  0.43494402  0.39870124],1,1,1,0.286663865,0,0,0,0.308467481,0.317006416,0.086935168,0.403941584,0.230071248,nan,nan,nan,[ nan  nan  nan],nan,nan,nan,3179.003619,3489.65547,3489.942134,nan,nan
0,298,19:27:26:055000,6,1,68,47.8125,[ 1.         -0.12901814 -0.9729032 ],1,1,1,0.440853891,0,0,0,0.3693314,0.31690356,0.086805613,0.403709173,0.230097947,nan,nan,nan,[ nan  nan  nan],nan,nan,nan,3179.003619,3490.59726,3491.038114,nan,nan
0,299,19:27:27:006000,6,1,189,132.890625,[ 1.         -0.08021946  0.40014347],1,1,1,0.30709483,0,0,0,0.344870862,0.317322311,0.086956809,0.40427912,0.230365503,nan,nan,nan,[ nan  nan  nan],nan,nan,nan,3179.003619,3491.539015,3491.84611,nan,nan
0,300,19:27:27:942000,6,1,132,92.8125,[ 1.         -0.30742683 -0.11555536],1,1,1,0.269253226,0,0,0,0.339067316,0.317287875,0.086812315,0.40410019,0.23047556,nan,nan,nan,[ nan  nan  nan],nan,nan,nan,3179.003619,3492.480837,3492.75009,nan,nan
0,301,19:27:28:894000,6,1,393,276.328125,[-0.04894566  0.47510217 -0.32744323],1,1,1,0.239439121,0,0,0,0.271929059,0.317126685,0.086711043,0.403837728,0.230415643,nan,nan,nan,[ nan  nan  nan],nan,nan,nan,3179.003619,3493.422629,3493.662068,nan,nan
0,302,19:27:29:830000,6,0,102,71.71875,[ 1.         -0.27661034 -0.43492695],0,1,0,0.257635775,0,0,0,0.255442707,0.316866861,0.08668204,0.4035489,0.230184821,nan,nan,nan,[ nan  nan  nan],nan,nan,nan,3179.003619,3494.364413,3494.622049,nan,nan
0,303,19:27:30:766000,6,1,205,144.140625,[ 1.          0.008548    0.50553524],1,1,1,0.243832194,0,0,0,0.24696903,0.316669424,0.086604766,0.40327419,0.230064657,nan,nan,nan,[ nan  nan  nan],nan,nan,nan,3179.003619,3495.306204,3495.550036,nan,nan
0,304,19:27:31:718000,6,1,446,313.59375,[ 0.30469626  0.41359904 -1.        ],1,1,1,0.294015398,0,0,0,0.265161122,0.316427439,0.086562314,0.402989753,0.229865125,nan,nan,nan,[ nan  nan  nan],nan,nan,nan,3179.003619,3496.247989,3496.542004,nan,nan
0,305,19:27:32:654000,6,1,14,9.84375,[ 0.95801505  0.15002356 -1.        ],1,1,1,0.312226876,0,0,0,0.283358156,0.316353227,0.086428471,0.402781698,0.229924757,nan,nan,nan,[ nan  nan  nan],nan,nan,nan,3179.003619,3497.189777,3497.502003,nan,nan
0,306,19:27:33:590000,6,1,406,285.46875,[ 0.02449675  0.4672457  -0.4893661 ],1,1,1,0.314414432,0,0,0,0.306885569,0.316339609,0.086286056,0.402625665,0.230053553,nan,nan,nan,[ nan  nan  nan],nan,nan,nan,3179.003619,3498.131568,3498.445983,nan,nan
0,307,19:27:34:541000,6,1,292,205.3125,[ 0.11288167  0.37606958  0.56926185],1,1,1,0.340608079,0,0,0,0.322416463,0.316333276,0.086144092,0.402477368,0.230189184,nan,nan,nan,[ nan  nan  nan],nan,nan,nan,3179.003619,3499.073356,3499.413964,nan,nan
0,308,19:27:35:477000,6,1,394,277.03125,[-0.04370902  0.47465593 -0.33940142],1,1,1,0.262801462,0,0,0,0.305941325,0.316412866,0.086013951,0.402426817,0.230398915,nan,nan,nan,[ nan  nan  nan],nan,nan,nan,3179.003619,3500.015143,3500.277945,nan,nan
0,309,19:27:36:429000,6,1,186,130.78125,[ 1.         -0.09673867  0.37788139],1,1,1,0.240997751,0,0,0,0.281469098,0.316237665,0.085927784,0.402165449,0.230309881,nan,nan,nan,[ nan  nan  nan],nan,nan,nan,3179.003619,3500.956934,3501.197931,nan,nan
0,310,19:27:37:365000,6,1,109,76.640625,[ 1.         -0.29463833 -0.3577737 ],1,1,1,0.219195465,0,0,0,0.240998226,0.315992584,0.085894779,0.401887363,0.230097805,nan,nan,nan,[ nan  nan  nan],nan,nan,nan,3179.003619,3501.89873,3502.117925,nan,nan
0,311,19:27:38:301000,6,1,416,292.5,[ 0.08788162  0.4581175  -0.63016532],1,1,1,0.245383411,0,0,0,0.235192209,0.315678308,0.08593184,0.401610148,0.229746468,nan,nan,nan,[ nan  nan  nan],nan,nan,nan,3179.003619,3502.840513,3503.085896,nan,nan
0,312,19:27:39:252000,6,1,102,71.71875,[ 1.         -0.27661034 -0.43492695],1,1,1,0.311587117,0,0,0,0.258721998,0.315450816,0.085885526,0.401336342,0.22956529,nan,nan,nan,[ nan  nan  nan],nan,nan,nan,3179.003619,3503.782299,3504.093886,nan,nan
0,313,19:27:40:188000,6,1,473,332.578125,[ 0.52259481  0.34939617 -1.        ],1,1,1,0.265776458,0,0,0,0.274248995,0.315438352,0.085747169,0.401185521,0.229691184,nan,nan,nan,[ nan  nan  nan],nan,nan,nan,3179.003619,3504.72409,3504.989867,nan,nan
0,314,19:27:41:124000,6,1,293,206.015625,[ 0.10383026  0.3786596   0.56461706],1,1,1,0.315906349,0,0,0,0.297756641,0.315278668,0.085655356,0.400934023,0.229623312,nan,nan,nan,[ nan  nan  nan],nan,nan,nan,3179.003619,3505.665941,3505.981847,nan,nan
0,315,19:27:42:076000,6,1,90,63.28125,[ 1.         -0.23363579 -0.57497187],1,1,1,0.358174382,0,0,0,0.31328573,0.31528068,0.085517985,0.400798664,0.229762695,nan,nan,nan,[ nan  nan  nan],nan,nan,nan,3179.003619,3506.607665,3506.965839,nan,nan
0,316,19:27:43:012000,6,1,331,232.734375,[-0.14329784  0.45080175  0.31116671],1,1,1,0.296346928,0,0,0,0.323475886,0.31541772,0.085415571,0.400833292,0.230002149,nan,nan,nan,[ nan  nan  nan],nan,nan,nan,3179.003619,3507.549454,3507.845801,nan,nan
0,317,19:27:43:964000,6,1,382,268.59375,[-0.10118876  0.47829114 -0.19973227],1,1,1,0.306542881,0,0,0,0.32035473,0.315356985,0.08528622,0.400643205,0.230070765,nan,nan,nan,[ nan  nan  nan],nan,nan,nan,3179.003619,3508.491246,3508.797789,nan,nan
0,318,19:27:44:900000,6,1,75,52.734375,[ 1.         -0.16471446 -0.79135592],1,1,1,0.380740445,0,0,0,0.327876751,0.315329004,0.085152181,0.400481185,0.230176823,nan,nan,nan,[ nan  nan  nan],nan,nan,nan,3179.003619,3509.433031,3509.813771,nan,nan
0,319,19:27:45:836000,6,1,185,130.078125,[ 1.         -0.10221447  0.37029995],1,1,1,0.318936939,0,0,0,0.335406755,0.315536002,0.085096682,0.400632684,0.23043932,nan,nan,nan,[ nan  nan  nan],nan,nan,nan,3179.003619,3510.374815,3510.693752,nan,nan
0,320,19:27:46:787000,6,1,461,324.140625,[ 0.42395965  0.38092737 -1.        ],1,1,1,0.321142455,0,0,0,0.34027328,0.315546731,0.084962568,0.400509299,0.230584163,nan,nan,nan,[ nan  nan  nan],nan,nan,nan,3179.003619,3511.316607,3511.637749,nan,nan
0,321,19:27:47:723000,6,1,4,2.8125,[ 0.87912605  0.19501404 -1.        ],1,1,1,0.331338124,0,0,0,0.323805839,0.315564327,0.084829452,0.40039378,0.230734875,nan,nan,nan,[ nan  nan  nan],nan,nan,nan,3179.003619,3512.258394,3512.589733,nan,nan
0,322,19:27:48:659000,6,1,156,109.6875,[ 1.         -0.24406061  0.12104147],1,1,1,0.325534102,0,0,0,0.326004894,0.315613775,0.084700976,0.400314751,0.230912799,nan,nan,nan,[ nan  nan  nan],nan,nan,nan,3179.003619,3513.200183,3513.525717,nan,nan
0,323,19:27:49:611000,6,1,85,59.765625,[ 1.         -0.21215645 -0.63878123],1,1,1,0.223729946,0,0,0,0.293534057,0.315644776,0.08457034,0.400215116,0.231074436,nan,nan,nan,[ nan  nan  nan],nan,nan,nan,3179.003619,3514.141974,3514.365704,nan,nan
0,324,19:27:50:547000,6,1,448,315,[ 0.32026744  0.40966225 -1.        ],1,1,1,0.249912475,0,0,0,0.266392175,0.315358437,0.084593726,0.399952163,0.230764711,nan,nan,nan,[ nan  nan  nan],nan,nan,nan,3179.003619,3515.083762,3515.333674,nan,nan
0,325,19:27:51:483000,6,1,377,265.078125,[-0.12125986  0.47870083 -0.1436959 ],1,1,1,0.284102546,0,0,0,0.252581656,0.315155189,0.08454073,0.399695918,0.230614459,nan,nan,nan,[ nan  nan  nan],nan,nan,nan,3179.003619,3516.025555,3516.309658,nan,nan
0,326,19:27:52:434000,6,0,223,156.796875,[ 0.83172397  0.10489059  0.59343224],0,0,1,0.422279768,0,0,0,0.31876493,0.31505905,0.084427387,0.399486438,0.230631663,nan,nan,nan,[ nan  nan  nan],nan,nan,nan,3179.003619,3516.967362,3517.389642,nan,nan
0,327,19:27:53:370000,6,1,28,19.6875,[ 1.          0.08206613 -1.        ],1,1,1,0.296506582,0,0,0,0.334296299,0.315389979,0.084506548,0.399896526,0.230883431,nan,nan,nan,[ nan  nan  nan],nan,nan,nan,3179.003619,3517.909128,3518.205634,nan,nan
0,328,19:27:54:322000,6,1,251,176.484375,[ 0.53557652  0.23650919  0.65528415],1,1,1,0.282696444,0,0,0,0.333827598,0.315331876,0.084382919,0.399714795,0.230948957,nan,nan,nan,[ nan  nan  nan],nan,nan,nan,3179.003619,3518.850917,3519.133614,nan,nan
0,329,19:27:55:258000,6,1,80,56.25,[ 1.         -0.18907571 -0.70896555],1,1,1,0.276890712,0,0,0,0.285364579,0.315231767,0.084272725,0.399504492,0.230959042,nan,nan,nan,[ nan  nan  nan],nan,nan,nan,3179.003619,3519.792708,3520.069599,nan,nan
0,330,19:27:56:194000,6,1,188,132.1875,[ 1.         -0.08573935  0.39280429],1,1,1,0.27907285,0,0,0,0.279553335,0.315114516,0.084170396,0.399284912,0.23094412,nan,nan,nan,[ nan  nan  nan],nan,nan,nan,3179.003619,3520.734494,3521.013567,nan,nan
0,331,19:27:57:146000,6,1,499,350.859375,[ 0.73983189  0.26382776 -1.        ],1,1,1,0.321288711,0,0,0,0.292417424,0.315004633,0.084065477,0.39907011,0.230939157,nan,nan,nan,[ nan  nan  nan],nan,nan,nan,3179.003619,3521.676253,3521.997542,nan,nan
0,332,19:27:58:082000,6,1,2,1.40625,[ 0.86302458  0.20362286 -1.        ],1,1,1,0.603452306,0,0,1,0.401271289,0.315023734,0.083938333,0.398962067,0.231085401,nan,nan,nan,[ nan  nan  nan],nan,nan,nan,3179.003619,3522.618067,3523.22152,nan,nan
0,333,19:28:03:588000,6,1,207,145.546875,[ 0.98565351  0.01954319  0.51699622],1,1,1,0.381665587,1,0,0,0.435468868,0.31589776,0.085297265,0.401195025,0.230600494,nan,-92.02476508,259,[ 0.44882283  0.26890698  0.65501178],nan,36.47789008,2.525615184,3179.003619,3523.559861,3523.941526,3525.3767,3527.910355
0,334,19:28:04:524000,6,1,130,91.40625,[ 1.         -0.30933315 -0.13607149],1,1,1,0.392847409,0,0,0,0.459321767,0.316096454,0.085244771,0.401341225,0.230851683,nan,nan,nan,[ nan  nan  nan],nan,nan,nan,3179.003619,3529.060568,3529.453416,nan,nan
0,335,19:28:05:460000,6,1,406,285.46875,[ 0.02449675  0.4672457  -0.4893661 ],1,1,1,0.259051001,0,0,0,0.344521332,0.316327631,0.085220145,0.401547776,0.231107487,nan,nan,nan,[ nan  nan  nan],nan,nan,nan,3179.003619,3530.002357,3530.261408,nan,nan
0,336,19:28:06:412000,6,1,164,115.3125,[ 1.         -0.20968584  0.19476155],1,1,1,0.293216268,0,0,0,0.315038226,0.31615563,0.085149785,0.401305415,0.231005844,nan,nan,nan,[ nan  nan  nan],nan,nan,nan,3179.003619,3530.944172,3531.237389,nan,nan
0,337,19:28:07:348000,6,1,48,33.75,[ 1.         -0.02242733 -1.        ],1,1,1,0.239447389,0,0,0,0.263904886,0.316086949,0.085031457,0.401118406,0.231055492,nan,nan,nan,[ nan  nan  nan],nan,nan,nan,3179.003619,3531.885937,3532.125384,nan,nan
0,338,19:28:08:300000,6,1,345,242.578125,[-0.17351954  0.46559515  0.18611928],1,1,1,0.257644898,0,0,0,0.263436185,0.315858174,0.085007331,0.400865505,0.230850843,nan,nan,nan,[ nan  nan  nan],nan,nan,nan,3179.003619,3532.827729,3533.085374,nan,nan
0,339,19:28:09:236000,6,1,401,281.953125,[-0.00506341  0.47079689 -0.4252031 ],1,1,1,0.27583699,0,0,0,0.257643093,0.31568492,0.084939951,0.400624872,0.230744969,nan,nan,nan,[ nan  nan  nan],nan,nan,nan,3179.003619,3533.769513,3534.04535,nan,nan
0,340,19:28:10:172000,6,1,301,211.640625,[ 0.03515994  0.39804276  0.52341451],1,1,1,0.222034469,0,0,0,0.251838786,0.315566677,0.084841524,0.400408201,0.230725153,nan,nan,nan,[ nan  nan  nan],nan,nan,nan,3179.003619,3534.711303,3534.933338,nan,nan
0,341,19:28:11:123000,6,1,58,40.78125,[ 1.         -0.07608966 -1.        ],1,1,1,0.208236305,0,0,0,0.235369255,0.315289955,0.084868098,0.400158052,0.230421857,nan,nan,nan,[ nan  nan  nan],nan,nan,nan,3179.003619,3535.653089,3535.861325,nan,nan
0,342,19:28:12:059000,6,1,466,327.65625,[ 0.46478901  0.3683856  -1.        ],1,1,1,0.194402503,0,1,0,0.208224426,0.314974162,0.084941476,0.399915639,0.230032686,nan,nan,nan,[ nan  nan  nan],nan,nan,nan,3179.003619,3536.5949,3536.789302,nan,nan
0,343,19:28:16:724000,6,1,380,267.1875,[-0.10951951  0.47853303 -0.17717739],1,1,1,0.196620564,1,0,0,0.199753124,0.31461954,0.085067416,0.399686956,0.229552123,nan,-170.8111639,371,[-0.14179361  0.47833194 -0.07797326],nan,-6.376336077,1.683865858,3179.003619,3537.536671,3537.733292,3539.353512,3541.045412
0,344,19:28:17:660000,6,1,267,187.734375,[ 0.36292453  0.29880723  0.64662252],1,1,1,0.337572928,0,0,0,0.242865332,0.314273502,0.085181902,0.399455404,0.2290916,nan,nan,nan,[ nan  nan  nan],nan,nan,nan,3179.003619,3542.195603,3542.533176,nan,nan
0,345,19:28:18:596000,6,0,412,289.6875,[ 0.06188912  0.46209661 -0.57115894],0,0,1,0.579764954,0,0,0,0.371319482,0.314341629,0.085066579,0.399408208,0.22927505,nan,nan,nan,[ nan  nan  nan],nan,nan,nan,3179.003619,3543.137396,3543.717161,nan,nan
0,346,19:28:19:547000,6,1,99,69.609375,[ 1.         -0.26717627 -0.4687933 ],1,1,1,0.477964219,0,0,0,0.4651007,0.315115458,0.086139533,0.401254991,0.228975924,nan,nan,nan,[ nan  nan  nan],nan,nan,nan,3179.003619,3544.079189,3544.557154,nan,nan
0,347,19:28:20:483000,6,1,285,200.390625,[ 0.17873435  0.35687868  0.59852701],1,1,1,0.32017797,0,0,0,0.459302381,0.315588855,0.086459918,0.402048773,0.229128937,nan,nan,nan,[ nan  nan  nan],nan,nan,nan,3179.003619,3545.020978,3545.341156,nan,nan
0,348,19:28:21:435000,6,1,97,68.203125,[ 1.         -0.26036974 -0.49171883],1,1,1,0.298359148,0,0,0,0.365500446,0.315602157,0.086334875,0.401937032,0.229267281,nan,nan,nan,[ nan  nan  nan],nan,nan,nan,3179.003619,3545.962761,3546.26112,nan,nan
0,349,19:28:22:371000,6,1,293,206.015625,[ 0.10383026  0.3786596   0.56461706],1,1,1,0.252561319,0,0,0,0.290366145,0.315552322,0.086214993,0.401767315,0.229337329,nan,nan,nan,[ nan  nan  nan],nan,nan,nan,3179.003619,3546.904548,3547.157109,nan,nan
0,350,19:28:23:307000,6,1,26,18.28125,[ 1.          0.09209217 -1.        ],1,1,1,0.238763725,0,0,0,0.263228064,0.315370791,0.086156869,0.40152766,0.229213923,nan,nan,nan,[ nan  nan  nan],nan,nan,nan,3179.003619,3547.84634,3548.085103,nan,nan
0,351,19:28:24:258000,6,1,307,215.859375,[-0.01138687  0.41105336  0.48795701],1,1,1,0.240968956,0,0,0,0.244098,0.315150656,0.086130662,0.401281318,0.229019994,nan,nan,nan,[ nan  nan  nan],nan,nan,nan,3179.003619,3548.788122,3549.029091,nan,nan
0,352,19:28:25:194000,6,0,372,261.5625,[-0.13866002  0.47845887 -0.08881238],0,1,0,0.259145368,0,0,0,0.246292683,0.314938101,0.086098531,0.401036632,0.22883957,nan,nan,nan,[ nan  nan  nan],nan,nan,nan,3179.003619,3549.729915,3549.98906,nan,nan
0,353,19:28:26:130000,6,1,31,21.796875,[ 1.          0.06685157 -1.        ],1,1,1,0.205384186,0,0,0,0.23516617,0.314778693,0.086027005,0.400805698,0.228751688,nan,nan,nan,[ nan  nan  nan],nan,nan,nan,3179.003619,3550.671687,3550.877071,nan,nan
0,354,19:28:27:082000,6,1,443,311.484375,[ 0.28155878  0.41926821 -1.        ],1,1,1,0.24755215,0,0,0,0.237360568,0.314467028,0.086102024,0.400569052,0.228365004,nan,nan,nan,[ nan  nan  nan],nan,nan,nan,3179.003619,3551.613489,3551.861042,nan,nan
0,355,19:28:28:018000,6,1,358,251.71875,[-0.17058391  0.47426832  0.05858744],1,1,1,0.297731933,0,0,0,0.250222756,0.314276929,0.086053365,0.400330293,0.228223564,nan,nan,nan,[ nan  nan  nan],nan,nan,nan,3179.003619,3552.555274,3552.853006,nan,nan
0,356,19:28:28:970000,6,1,106,74.53125,[ 1.         -0.28763007 -0.39056445],1,1,1,0.26792524,0,0,0,0.271069774,0.314230059,0.085935889,0.400165948,0.228294171,nan,nan,nan,[ nan  nan  nan],nan,nan,nan,3179.003619,3553.497068,3553.764994,nan,nan
0,357,19:28:29:906000,6,1,23,16.171875,[ 1.          0.10694394 -1.        ],1,1,1,0.24612438,0,0,0,0.270593851,0.314099255,0.085849608,0.399948863,0.228249647,nan,nan,nan,[ nan  nan  nan],nan,nan,nan,3179.003619,3554.438857,3554.684981,nan,nan
0,358,19:28:30:842000,6,0,436,306.5625,[ 0.22868171  0.43141373 -1.        ],0,0,1,0.50429842,0,0,0,0.339449347,0.313907776,0.085804273,0.399712049,0.228103503,nan,nan,nan,[ nan  nan  nan],nan,nan,nan,3179.003619,3555.380648,3555.884946,nan,nan
0,359,19:28:31:793000,6,1,152,106.875,[ 1.         -0.25918449  0.08306255],1,1,1,0.354539955,0,0,0,0.368320918,0.314442581,0.086274146,0.400716728,0.228168435,nan,nan,nan,[ nan  nan  nan],nan,nan,nan,3179.003619,3556.322431,3556.676971,nan,nan
0,360,19:28:32:729000,6,1,219,153.984375,[ 0.87162732  0.08408817  0.57695967],1,1,1,0.34071043,0,0,0,0.399849601,0.314554899,0.08617929,0.400734189,0.228375609,nan,nan,nan,[ nan  nan  nan],nan,nan,nan,3179.003619,3557.26422,3557.604931,nan,nan
0,361,19:28:33:665000,6,1,25,17.578125,[ 1.          0.09706829 -1.        ],1,1,1,0.286907909,0,0,0,0.327386098,0.314627959,0.086069914,0.400697873,0.228558045,nan,nan,nan,[ nan  nan  nan],nan,nan,nan,3179.003619,3558.20601,3558.492918,nan,nan
0,362,19:28:34:617000,6,1,380,267.1875,[-0.10951951  0.47853303 -0.17717739],1,1,1,0.273093209,0,0,0,0.300237182,0.314550744,0.085962372,0.400513116,0.228588373,nan,nan,nan,[ nan  nan  nan],nan,nan,nan,3179.003619,3559.1478,3559.420893,nan,nan
0,363,19:28:35:553000,6,1,25,17.578125,[ 1.          0.09706829 -1.        ],1,1,1,0.29129756,0,0,0,0.283766226,0.314435585,0.085870623,0.400306207,0.228564962,nan,nan,nan,[ nan  nan  nan],nan,nan,nan,3179.003619,3560.089585,3560.380882,nan,nan
0,364,19:28:36:504000,6,1,207,145.546875,[ 0.98565351  0.01954319  0.51699622],1,1,1,0.285494394,0,0,0,0.283295054,0.31437149,0.085760229,0.400131719,0.228611261,nan,nan,nan,[ nan  nan  nan],nan,nan,nan,3179.003619,3561.031375,3561.31687,nan,nan
0,365,19:28:37:440000,6,0,318,223.59375,[-0.08356276  0.43164026  0.41348156],0,0,1,0.4076839,0,0,0,0.328158618,0.314291719,0.085655104,0.399946823,0.228636615,nan,nan,nan,[ nan  nan  nan],nan,nan,nan,3179.003619,3561.973164,3562.380848,nan,nan
0,366,19:28:38:376000,6,1,61,42.890625,[ 1.        -0.0921164 -1.       ],1,1,1,0.377868654,0,0,0,0.357015649,0.314548998,0.085676992,0.40022599,0.228872006,nan,nan,nan,[ nan  nan  nan],nan,nan,nan,3179.003619,3562.914954,3563.292823,nan,nan
0,367,19:28:39:328000,6,1,298,209.53125,[ 0.06008966  0.39105034  0.53969689],1,1,1,0.412064713,0,0,0,0.399205755,0.314722953,0.085623391,0.400346344,0.229099562,nan,nan,nan,[ nan  nan  nan],nan,nan,nan,3179.003619,3563.856745,3564.26881,nan,nan
0,368,19:28:40:264000,6,1,362,254.53125,[-0.16423973  0.47600016  0.01745785],1,1,1,0.326257966,0,0,0,0.372063778,0.314989643,0.085657271,0.400646914,0.229332372,nan,nan,nan,[ nan  nan  nan],nan,nan,nan,3179.003619,3564.798532,3565.12479,nan,nan
0,369,19:28:41:200000,6,1,238,167.34375,[ 0.67574183  0.17872767  0.63851109],1,1,1,0.296460396,0,0,0,0.344927692,0.315020431,0.085542195,0.400562626,0.229478235,nan,nan,nan,[ nan  nan  nan],nan,nan,nan,3179.003619,3565.740319,3566.03678,nan,nan
0,370,19:28:42:152000,6,1,148,104.0625,[ 1.         -0.27269559  0.04442646],1,1,1,0.290665783,0,0,0,0.304461382,0.314969858,0.085431052,0.40040091,0.229538806,nan,nan,nan,[ nan  nan  nan],nan,nan,nan,3179.003619,3566.682095,3566.97276,nan,nan
0,371,19:28:43:088000,6,0,34,23.90625,[ 1.          0.05144197 -1.        ],0,0,1,0.516835882,0,0,0,0.367987354,0.314903815,0.085324279,0.400228094,0.229579535,nan,nan,nan,[ nan  nan  nan],nan,nan,nan,3179.003619,3567.623902,3568.140738,nan,nan
0,372,19:28:44:024000,6,1,267,187.734375,[ 0.36292453  0.29880723  0.64662252],1,1,1,0.431053368,0,0,0,0.412851678,0.315451056,0.085852834,0.40130389,0.229598222,nan,nan,nan,[ nan  nan  nan],nan,nan,nan,3179.003619,3568.565683,3568.996737,nan,nan
0,373,19:28:44:975000,6,1,121,85.078125,[ 1.         -0.31073281 -0.22964081],1,1,1,0.489228719,0,0,0,0.479039323,0.315763495,0.085946549,0.401710044,0.229816946,nan,nan,nan,[ nan  nan  nan],nan,nan,nan,3179.003619,3569.507476,3569.996705,nan,nan
0,374,19:28:45:911000,6,1,20,14.0625,[ 1.          0.12155819 -1.        ],1,1,1,0.387437963,0,0,1,0.435906683,0.316231056,0.086300555,0.402531611,0.229930501,nan,nan,nan,[ nan  nan  nan],nan,nan,nan,3179.003619,3570.449257,3570.836695,nan,nan
0,375,19:28:46:863000,6,0,64,45,[ 1.         -0.10803687 -1.        ],0,1,0,0.389625518,0,0,0,0.4220974,0.316422472,0.086263308,0.402685781,0.230159164,nan,nan,nan,[ nan  nan  nan],nan,nan,nan,3179.003619,3571.39105,3571.780676,nan,nan
0,376,19:28:47:799000,6,1,5,3.515625,[ 0.88714031  0.19065985 -1.        ],1,1,1,0.231835847,0,0,0,0.336299776,0.316618727,0.086230715,0.402849443,0.230388012,nan,nan,nan,[ nan  nan  nan],nan,nan,nan,3179.003619,3572.332841,3572.564677,nan,nan
0,377,19:28:48:735000,6,1,142,99.84375,[ 1.         -0.28956812 -0.01462735],1,1,1,0.258026074,0,0,0,0.29316248,0.316392035,0.086226579,0.402618614,0.230165456,nan,nan,nan,[ nan  nan  nan],nan,nan,nan,3179.003619,3573.274627,3573.532653,nan,nan
0,378,19:28:49:686000,6,1,236,165.9375,[ 0.69700456  0.16930175  0.63406585],1,1,1,0.28421573,0,0,0,0.258025884,0.316236392,0.086164123,0.402400516,0.230072269,nan,nan,nan,[ nan  nan  nan],nan,nan,nan,3179.003619,3574.216414,3574.50063,nan,nan
0,379,19:28:50:622000,6,0,396,278.4375,[-0.03301537  0.47368488 -0.36352378],0,0,1,0.422393807,0,0,0,0.321545204,0.316151231,0.086065268,0.4022165,0.230085963,nan,nan,nan,[ nan  nan  nan],nan,nan,nan,3179.003619,3575.158204,3575.580598,nan,nan
0,380,19:28:51:558000,6,1,173,121.640625,[ 1.         -0.16590952  0.27353519],1,1,1,0.360604271,0,0,0,0.355737936,0.316433042,0.086124581,0.402557623,0.230308461,nan,nan,nan,[ nan  nan  nan],nan,nan,nan,3179.003619,3576.099989,3576.460593,nan,nan
0,381,19:28:52:510000,6,0,378,265.78125,[-0.11745014  0.47867092 -0.15481012],0,0,1,0.514786314,0,0,0,0.432594797,0.316549897,0.086040505,0.402590402,0.230509391,nan,nan,nan,[ nan  nan  nan],nan,nan,nan,3179.003619,3577.041783,3577.556569,nan,nan
0,382,19:28:53:446000,6,1,169,118.828125,[ 1.         -0.18591738  0.2391183 ],1,1,1,0.428991826,0,0,0,0.434794137,0.317072948,0.086526585,0.403599533,0.230546363,nan,nan,nan,[ nan  nan  nan],nan,nan,nan,3179.003619,3577.983568,3578.41256,nan,nan
0,383,19:28:54:398000,6,1,379,266.484375,[-0.11353594  0.47861499 -0.16597052],1,1,1,0.287185309,0,0,0,0.410321149,0.317367471,0.086602677,0.403970148,0.230764794,nan,nan,nan,[ nan  nan  nan],nan,nan,nan,3179.003619,3578.925359,3579.212545,nan,nan
0,384,19:28:55:334000,6,1,130,91.40625,[ 1.         -0.30933315 -0.13607149],1,1,1,0.265386159,0,0,0,0.327187765,0.317288253,0.086502735,0.403790989,0.230785518,nan,nan,nan,[ nan  nan  nan],nan,nan,nan,3179.003619,3579.867145,3580.132531,nan,nan
0,385,19:28:56:270000,6,1,192,135,[ 1.         -0.06359976  0.42165841],1,1,1,0.25958955,0,0,0,0.27072034,0.317152384,0.086430136,0.40358252,0.230722248,nan,nan,nan,[ nan  nan  nan],nan,nan,nan,3179.003619,3580.808935,3581.068525,nan,nan
0,386,19:28:57:221000,6,1,27,18.984375,[ 1.          0.08709126 -1.        ],1,1,1,0.437780821,0,0,0,0.320918844,0.317002089,0.086367198,0.403369287,0.230634891,nan,nan,nan,[ nan  nan  nan],nan,nan,nan,3179.003619,3581.750718,3582.188499,nan,nan
0,387,19:28:58:157000,6,1,508,357.1875,[ 0.81419982  0.22863893 -1.        ],1,1,1,0.479970452,0,0,0,0.392446941,0.317316617,0.086474025,0.403790642,0.230842592,nan,nan,nan,[ nan  nan  nan],nan,nan,nan,3179.003619,3582.692512,3583.172483,nan,nan
0,388,19:28:59:093000,6,1,285,200.390625,[ 0.17873435  0.35687868  0.59852701],1,1,1,0.386159869,0,0,1,0.434637048,0.317739095,0.086757555,0.404496649,0.23098154,nan,nan,nan,[ nan  nan  nan],nan,nan,nan,3179.003619,3583.6343,3584.020459,nan,nan
0,389,19:29:03:820000,6,1,13,9.140625,[ 0.95026217  0.15466406 -1.        ],1,1,1,0.228362786,1,0,0,0.364831036,0.31791635,0.086714879,0.404631229,0.231201472,nan,-126.5876547,308,[-0.01868286  0.41309748  0.48168233],nan,-152.5529703,1.717105983,3179.003619,3584.576087,3584.80445,3586.409602,3588.13482
0,390,19:29:04:756000,6,1,95,66.796875,[ 1.         -0.25317502 -0.51497544],1,1,1,0.462966933,0,0,0,0.359163196,0.317684946,0.086722025,0.404406971,0.230962921,nan,nan,nan,[ nan  nan  nan],nan,nan,nan,3179.003619,3589.293369,3589.756336,nan,nan
0,391,19:29:05:708000,6,1,401,281.953125,[-0.00506341  0.47079689 -0.4252031 ],1,1,1,0.321154429,0,0,0,0.337494716,0.318059384,0.08692287,0.404982254,0.231136515,nan,nan,nan,[ nan  nan  nan],nan,nan,nan,3179.003619,3590.235202,3590.556357,nan,nan
0,392,19:29:06:644000,6,1,185,130.078125,[ 1.         -0.10221447  0.37029995],1,1,1,0.291397344,0,0,0,0.358506236,0.31806734,0.086811213,0.404878553,0.231256127,nan,nan,nan,[ nan  nan  nan],nan,nan,nan,3179.003619,3591.176942,3591.468339,nan,nan
0,393,19:29:07:580000,6,1,39,27.421875,[ 1.          0.02537899 -1.        ],1,1,1,0.325590837,0,0,0,0.312714204,0.317998956,0.086710336,0.404709291,0.23128862,nan,nan,nan,[ nan  nan  nan],nan,nan,nan,3179.003619,3592.118734,3592.444325,nan,nan
0,394,19:29:08:531000,6,1,344,241.875,[-0.17254346  0.46473023  0.19550382],1,1,1,0.287784014,0,0,0,0.301590732,0.318018372,0.086600231,0.404618603,0.231418142,nan,nan,nan,[ nan  nan  nan],nan,nan,nan,3179.003619,3593.060523,3593.348307,nan,nan
0,395,19:29:09:467000,6,1,108,75.9375,[ 1.         -0.29242661 -0.36866329],1,1,1,0.289969004,0,0,0,0.301114618,0.317941244,0.086503146,0.40444439,0.231438098,nan,nan,nan,[ nan  nan  nan],nan,nan,nan,3179.003619,3594.002309,3594.292278,nan,nan
0,396,19:29:10:403000,6,1,480,337.5,[ 0.58092807  0.32870764 -1.        ],1,1,1,0.25215648,0,0,0,0.2766365,0.317870068,0.086404514,0.404274582,0.231465554,nan,nan,nan,[ nan  nan  nan],nan,nan,nan,3179.003619,3594.944107,3595.196263,nan,nan
0,397,19:29:11:355000,6,1,115,80.859375,[ 1.         -0.30516629 -0.29317275],1,1,1,0.302367053,0,0,0,0.281497512,0.317703282,0.086358113,0.404061395,0.231345169,nan,nan,nan,[ nan  nan  nan],nan,nan,nan,3179.003619,3595.885884,3596.188252,nan,nan
0,398,19:29:12:291000,6,1,254,178.59375,[ 0.50301113  0.24894782  0.65613358],1,1,1,0.424558269,0,0,0,0.326360601,0.317664456,0.086252173,0.403916629,0.231412283,nan,nan,nan,[ nan  nan  nan],nan,nan,nan,3179.003619,3596.827676,3597.252234,nan,nan
0,399,19:29:13:243000,6,1,386,271.40625,[-0.08339466  0.47749559 -0.24542474],1,1,1,0.330725163,0,0,0,0.352550162,0.31793439,0.086310094,0.404244484,0.231624296,nan,nan,nan,[ nan  nan  nan],nan,nan,nan,3179.003619,3597.769481,3598.100206,nan,nan
0,400,19:29:14:179000,6,1,182,127.96875,[ 1.         -0.11852384  0.34708947],1,1,1,0.324937393,0,0,0,0.360073609,0.317966609,0.086203707,0.404170315,0.231762902,nan,nan,nan,[ nan  nan  nan],nan,nan,nan,3179.003619,3598.711251,3599.036188,nan,nan
0,401,19:29:15:115000,6,1,433,304.453125,[ 0.2065363   0.43616372 -1.        ],1,1,1,0.391092917,0,0,0,0.348918491,0.317984123,0.08609605,0.404080173,0.231888074,nan,nan,nan,[ nan  nan  nan],nan,nan,nan,3179.003619,3599.653081,3600.044174,nan,nan
0,402,19:29:16:066000,6,1,122,85.78125,[ 1.         -0.31115954 -0.21914422],1,1,1,0.337358534,0,0,0,0.351129615,0.318167353,0.086065755,0.404233108,0.232101598,nan,nan,nan,[ nan  nan  nan],nan,nan,nan,3179.003619,3600.594827,3600.932186,nan,nan
0,403,19:29:17:002000,6,1,304,213.75,[ 0.01130928  0.40470892  0.50616037],1,1,1,0.299529189,0,0,0,0.342660214,0.318215331,0.085963447,0.404178779,0.232251884,nan,nan,nan,[ nan  nan  nan],nan,nan,nan,3179.003619,3601.536621,3601.836151,nan,nan
0,404,19:29:17:938000,6,1,37,26.015625,[ 1.          0.03585655 -1.        ],1,1,1,0.285723613,0,0,0,0.307537112,0.318168732,0.085861252,0.404029985,0.23230748,nan,nan,nan,[ nan  nan  nan],nan,nan,nan,3179.003619,3602.478409,3602.764133,nan,nan
0,405,19:29:18:890000,6,1,225,158.203125,[ 0.81146625  0.11513113  0.60098195],1,1,1,0.327915239,0,0,0,0.304389347,0.318088023,0.085769622,0.403857645,0.232318401,nan,nan,nan,[ nan  nan  nan],nan,nan,nan,3179.003619,3603.420199,3603.748114,nan,nan
0,406,19:29:19:826000,6,1,481,338.203125,[ 0.58928949  0.32561186 -1.        ],1,1,1,0.306109247,0,0,0,0.3065827,0.318112408,0.085664537,0.403776945,0.232447871,nan,nan,nan,[ nan  nan  nan],nan,nan,nan,3179.003619,3604.361982,3604.668091,nan,nan
0,407,19:29:20:777000,6,1,318,223.59375,[-0.08356276  0.43164026  0.41348156],1,1,1,0.308290531,0,0,0,0.314105006,0.318082697,0.08556053,0.403643227,0.232522167,nan,nan,nan,[ nan  nan  nan],nan,nan,nan,3179.003619,3605.303797,3605.612087,nan,nan
0,408,19:29:21:713000,6,1,30,21.09375,[ 1.          0.07194566 -1.        ],1,1,1,0.310505456,0,0,0,0.308301744,0.318058519,0.085456216,0.403514736,0.232602303,nan,nan,nan,[ nan  nan  nan],nan,nan,nan,3179.003619,3606.245562,3606.556067,nan,nan
0,409,19:29:22:649000,6,0,148,104.0625,[ 1.         -0.27269559  0.04442646],0,0,1,0.448698072,0,0,0,0.355831353,0.318039916,0.085351731,0.403391647,0.232688185,nan,nan,nan,[ nan  nan  nan],nan,nan,nan,3179.003619,3607.187347,3607.636046,nan,nan
0,410,19:29:23:601000,6,1,211,148.359375,[ 0.94867577  0.04136069  0.53868916],1,1,1,0.338880387,0,0,0,0.366027972,0.318360943,0.085491875,0.403852818,0.232869068,nan,nan,nan,[ nan  nan  nan],nan,nan,nan,3179.003619,3608.129143,3608.468023,nan,nan
0,411,19:29:24:537000,6,1,429,301.640625,[ 0.17753182  0.44208078 -0.9018852 ],1,1,1,0.325097332,0,0,0,0.37089193,0.318411236,0.085393069,0.403804305,0.233018166,nan,nan,nan,[ nan  nan  nan],nan,nan,nan,3179.003619,3609.070928,3609.396025,nan,nan
0,412,19:29:25:473000,6,1,288,202.5,[ 0.15000513  0.36533195  0.58668724],1,1,1,0.279287529,0,0,0,0.314421749,0.318427583,0.085289252,0.403716835,0.233138331,nan,nan,nan,[ nan  nan  nan],nan,nan,nan,3179.003619,3610.012719,3610.292007,nan,nan
0,413,19:29:26:425000,6,1,196,137.8125,[ 1.         -0.04136108  0.44913076],1,1,1,0.305496002,0,0,0,0.303293621,0.31833212,0.085207052,0.403539172,0.233125067,nan,nan,nan,[ nan  nan  nan],nan,nan,nan,3179.003619,3610.954473,3611.259969,nan,nan
0,414,19:29:27:361000,6,1,393,276.328125,[-0.04894566  0.47510217 -0.32744323],1,1,1,0.299664611,0,0,0,0.294816047,0.318300888,0.085105681,0.403406569,0.233195208,nan,nan,nan,[ nan  nan  nan],nan,nan,nan,3179.003619,3611.896292,3612.195957,nan,nan
