block,trial,freq_trials,correct_response,actual_response,acc,rts,probe_trials,fast_rt_trigger,slow_rt_trigger,rt_triggered,rts_runningavg,rts_runningstd,rts_runningfastthresh,rts_runningslowthresh,rts_runningstd,rts_trailingavg,trials_colorind,trials_colorrgb0,trials_colorrgb1,trials_colorrgb2,wm_respdeg,wm_respdeg_in_colorspace,wm_respcolorminusorigcolor,wm_resptexind,wm_resptexrgb0,wm_resptexrgb1,wm_resptexrgb2,wm_rts,time_blockstart,time_encarray_offset,time_encarray_onset,time_response,time_iti_offset,time_iti_onset,time_memprobe_offset,time_memprobe_onset
1,1,1,1,1.0,1.0,0.359494500328,0,nan,nan,nan,nan,nan,nan,nan,nan,nan,111,1.0,-0.298677811705,-0.336106236365,nan,nan,nan,nan,0.0,0.0,0.0,nan,93.2389891259,94.2554697287,94.755508787,94.6149642291,nan,nan,nan,nan
1,2,1,1,1.0,1.0,0.310336648487,0,nan,nan,nan,nan,nan,nan,nan,nan,nan,441,0.266287261384,0.422891888867,-1.0,nan,nan,nan,nan,0.0,0.0,0.0,nan,93.2389891259,95.2726442576,95.7723104092,95.5829809061,nan,nan,nan,nan
1,3,1,1,1.0,1.0,0.286229415331,0,nan,nan,nan,nan,nan,nan,nan,nan,nan,485,0.622774561467,0.312875618285,-1.0,nan,nan,nan,nan,0.0,0.0,0.0,nan,93.2389891259,96.2807373065,96.7807698078,96.5669667218,nan,nan,nan,nan
1,4,1,1,1.0,1.0,0.389739871491,0,nan,nan,nan,nan,nan,nan,nan,nan,nan,114,1.0,-0.303747463913,-0.303859371662,nan,nan,nan,nan,0.0,0.0,0.0,nan,93.2389891259,97.2892006966,97.7892682645,97.6789405681,nan,nan,nan,nan
1,5,1,1,1.0,1.0,0.341275375802,0,nan,nan,nan,nan,nan,nan,nan,nan,nan,364,-0.160194321586,0.476704516321,-0.00341124574885,nan,nan,nan,nan,0.0,0.0,0.0,nan,93.2389891259,98.297674635,98.7977088466,98.6389500108,nan,nan,nan,nan
1,6,1,1,1.0,1.0,0.396775495727,0,nan,nan,nan,nan,nan,nan,nan,nan,nan,56,1.0,-0.0653675053377,-1.0,nan,nan,nan,nan,0.0,0.0,0.0,nan,93.2389891259,99.306115502,99.8061633985,99.7028909978,nan,nan,nan,nan
1,7,1,1,1.0,1.0,0.348584407941,0,nan,nan,nan,nan,nan,nan,nan,nan,nan,505,0.789537956352,0.240683140511,-1.0,nan,nan,nan,nan,0.0,0.0,0.0,nan,93.2389891259,100.306277152,100.806323053,100.65486156,nan,nan,nan,nan
1,8,1,1,1.0,1.0,0.31642945623,0,nan,nan,nan,nan,nan,nan,nan,nan,nan,192,1.0,-0.0635997558896,0.421658406928,nan,nan,nan,nan,0.0,0.0,0.0,nan,93.2389891259,101.306384919,101.806431389,101.622814375,nan,nan,nan,nan
1,9,1,1,1.0,1.0,0.30798516795,0,nan,nan,nan,nan,nan,nan,nan,nan,nan,408,0.036737934283,0.465637664749,-0.515938449969,nan,nan,nan,nan,0.0,0.0,0.0,nan,93.2389891259,102.314842036,102.814914736,102.622827204,nan,nan,nan,nan
1,10,0,0,1.0,0.0,0.259783816524,0,0.0,0.0,0.0,nan,nan,nan,nan,nan,nan,365,-0.157962026257,0.477016591838,-0.0139196855225,nan,nan,nan,nan,0.0,0.0,0.0,nan,93.2389891259,103.315014235,103.815058995,103.574798052,nan,nan,nan,nan
1,11,1,1,1.0,1.0,0.337950859684,0,nan,nan,nan,nan,nan,nan,nan,nan,nan,63,1.0,-0.102744642793,-1.0,nan,nan,nan,nan,0.0,0.0,0.0,nan,93.2389891259,104.356820575,104.856851936,104.694771435,nan,nan,nan,nan
1,12,1,1,1.0,1.0,0.329503150191,0,nan,nan,nan,nan,nan,nan,nan,nan,nan,109,1.0,-0.294638327523,-0.357773695079,nan,nan,nan,nan,0.0,0.0,0.0,nan,93.2389891259,105.365253175,105.865300216,105.694756325,nan,nan,nan,nan
1,13,1,1,1.0,1.0,0.312980923336,0,nan,nan,nan,nan,nan,nan,nan,nan,nan,184,1.0,-0.107671891867,0.362640045218,nan,nan,nan,nan,0.0,0.0,0.0,nan,93.2389891259,106.373744789,106.873757618,106.686725712,nan,nan,nan,nan
1,14,1,1,1.0,1.0,0.302510165144,0,nan,nan,nan,nan,nan,nan,nan,nan,nan,375,-0.128556699755,0.478682433309,-0.121605159467,nan,nan,nan,nan,0.0,0.0,0.0,nan,93.2389891259,107.432193668,107.932217046,107.734703833,nan,nan,nan,nan
1,15,1,1,1.0,1.0,0.326003584079,0,nan,nan,nan,nan,nan,nan,nan,nan,nan,90,1.0,-0.233635786423,-0.574971871003,nan,nan,nan,nan,0.0,0.0,0.0,nan,93.2389891259,108.440672168,108.940682716,108.766675752,nan,nan,nan,nan
1,16,1,1,1.0,1.0,0.301545396913,0,nan,nan,nan,nan,nan,nan,nan,nan,nan,363,-0.162287729338,0.476365729747,0.00704812682028,nan,nan,nan,nan,0.0,0.0,0.0,nan,93.2389891259,109.449122443,109.949156085,109.75066784,nan,nan,nan,nan
1,17,1,1,1.0,1.0,0.293064330705,0,nan,nan,nan,nan,nan,nan,nan,nan,nan,313,-0.0530221528698,0.42279583272,0.448797959603,nan,nan,nan,nan,0.0,0.0,0.0,nan,93.2389891259,110.457584693,110.957641427,110.750649023,nan,nan,nan,nan
1,18,1,1,1.0,1.0,0.308554221876,0,nan,nan,nan,nan,nan,nan,nan,nan,nan,2,0.863024578927,0.203622855609,-1.0,nan,nan,nan,nan,0.0,0.0,0.0,nan,93.2389891259,111.466064618,111.966089706,111.77461884,nan,nan,nan,nan
1,19,1,1,1.0,1.0,0.308073833585,0,nan,nan,nan,nan,nan,nan,nan,nan,nan,85,1.0,-0.212156452387,-0.638781227021,nan,nan,nan,nan,0.0,0.0,0.0,nan,93.2389891259,112.474530573,112.974545399,112.782604407,nan,nan,nan,nan
1,20,1,1,1.0,1.0,0.323617037386,0,nan,nan,nan,nan,nan,nan,nan,nan,nan,480,0.580928072941,0.32870764083,-1.0,nan,nan,nan,nan,0.0,0.0,0.0,nan,93.2389891259,113.482975717,113.983039579,113.806592755,nan,nan,nan,nan
1,21,1,1,1.0,1.0,0.283105892595,0,nan,nan,nan,nan,nan,nan,nan,nan,nan,77,1.0,-0.174593022316,-0.756267193339,nan,nan,nan,nan,0.0,0.0,0.0,nan,93.2389891259,114.491443384,114.991482442,114.774549276,nan,nan,nan,nan
1,22,1,1,1.0,1.0,0.306675147265,0,nan,nan,nan,nan,nan,nan,nan,nan,nan,323,-0.11001989341,0.43965344528,0.375855360355,nan,nan,nan,nan,0.0,0.0,0.0,nan,93.2389891259,115.499921883,115.999944121,115.806597031,nan,nan,nan,nan
1,23,1,1,1.0,1.0,0.354447142687,0,nan,nan,nan,nan,nan,nan,nan,nan,nan,8,0.91102658764,0.177400941622,-1.0,nan,nan,nan,nan,0.0,0.0,0.0,nan,93.2389891259,116.500053028,117.000097503,116.854500171,nan,nan,nan,nan
1,24,1,1,1.0,1.0,0.282335845754,0,nan,nan,nan,nan,nan,nan,nan,nan,nan,85,1.0,-0.212156452387,-0.638781227021,nan,nan,nan,nan,0.0,0.0,0.0,nan,93.2389891259,117.500193866,118.000194721,117.782529712,nan,nan,nan,nan
1,25,1,1,1.0,1.0,0.314163505565,0,nan,nan,nan,nan,nan,nan,nan,nan,nan,265,0.384259149088,0.291568309415,0.649478858709,nan,nan,nan,nan,0.0,0.0,0.0,nan,93.2389891259,118.50033955,119.00032387,118.814503056,nan,nan,nan,nan
1,26,1,1,1.0,1.0,0.25771885924,0,nan,nan,nan,nan,nan,nan,nan,nan,nan,507,0.805995650865,0.232688349973,-1.0,nan,nan,nan,nan,0.0,0.0,0.0,nan,93.2389891259,119.508777567,120.008800945,119.766496426,nan,nan,nan,nan
1,27,1,1,1.0,1.0,0.249553965405,0,nan,nan,nan,nan,nan,nan,nan,nan,nan,350,-0.175756816429,0.469490941964,0.138247479403,nan,nan,nan,nan,0.0,0.0,0.0,nan,93.2389891259,120.508904435,121.008920685,120.758458401,nan,nan,nan,nan
1,28,1,1,1.0,1.0,0.23306395486,0,nan,nan,nan,nan,nan,nan,nan,nan,nan,62,1.0,-0.0974372467467,-1.0,nan,nan,nan,nan,0.0,0.0,0.0,nan,93.2389891259,121.517362408,122.017413155,121.750426363,nan,nan,nan,nan
1,29,1,1,1.0,1.0,0.256631784141,0,nan,nan,nan,nan,nan,nan,nan,nan,nan,182,1.0,-0.118523835432,0.347089474713,nan,nan,nan,nan,0.0,0.0,0.0,nan,93.2389891259,122.525822091,123.025875975,122.782453876,nan,nan,nan,nan
1,30,1,1,1.0,1.0,0.163061805069,0,nan,nan,nan,nan,nan,nan,nan,nan,nan,425,0.149162615564,0.447529597292,-0.791715667876,nan,nan,nan,nan,0.0,0.0,0.0,nan,93.2389891259,123.579367871,124.084378737,123.742429676,nan,nan,nan,nan
1,31,1,1,1.0,1.0,0.245938080363,1,nan,nan,nan,nan,nan,nan,nan,nan,nan,301,0.0351599448551,0.39804275895,0.523414514543,166.274805482,283.725194518,72.0845695177,404.0,0.0124894593597,0.468746268022,-0.463349101315,1.81723685144,93.2389891259,124.584427488,125.084479091,124.830365568,128.24320343,129.243079983,126.409615695,128.234876317
1,32,1,1,1.0,1.0,0.466870016884,0,nan,nan,nan,nan,nan,nan,nan,nan,nan,152,1.0,-0.259184487343,0.0830625546756,nan,nan,nan,nan,0.0,0.0,0.0,nan,93.2389891259,129.44339741,129.943406248,129.910267427,nan,nan,nan,nan
1,33,1,1,1.0,1.0,0.370402311906,0,nan,nan,nan,nan,nan,nan,nan,nan,nan,6,0.895129075663,0.186272780825,-1.0,nan,nan,nan,nan,0.0,0.0,0.0,nan,93.2389891259,130.451844264,130.951901284,130.822246576,nan,nan,nan,nan
1,34,1,1,1.0,1.0,0.322264821734,0,nan,nan,nan,nan,nan,nan,nan,nan,nan,430,0.184725017221,0.440645728776,-0.941904167281,nan,nan,nan,nan,0.0,0.0,0.0,nan,93.2389891259,131.451981111,131.952003919,131.774245933,nan,nan,nan,nan
1,35,1,1,1.0,1.0,0.281791024841,0,nan,nan,nan,nan,nan,nan,nan,nan,nan,232,0.739158239773,0.150046616059,0.623712016981,nan,nan,nan,nan,0.0,0.0,0.0,nan,93.2389891259,132.460433667,132.960467879,132.742224692,nan,nan,nan,nan
1,36,0,0,1.0,0.0,0.281592882238,0,0.0,0.0,0.0,nan,nan,nan,nan,nan,nan,182,1.0,-0.118523835432,0.347089474713,nan,nan,nan,nan,0.0,0.0,0.0,nan,93.2389891259,133.460586194,133.960626393,133.742179076,nan,nan,nan,nan
1,37,1,1,1.0,1.0,0.281133876182,0,nan,nan,nan,nan,nan,nan,nan,nan,nan,5,0.88714030954,0.190659852496,-1.0,nan,nan,nan,nan,0.0,0.0,0.0,nan,93.2389891259,134.469014802,134.969053005,134.750148678,nan,nan,nan,nan
1,38,1,1,1.0,1.0,0.408980783541,0,nan,nan,nan,nan,nan,nan,nan,nan,nan,269,0.34171296506,0.305888347675,0.643262349404,nan,nan,nan,nan,0.0,0.0,0.0,nan,93.2389891259,135.469166189,135.969182154,135.878146972,nan,nan,nan,nan
1,39,1,1,1.0,1.0,0.328502174467,0,nan,nan,nan,nan,nan,nan,nan,nan,nan,109,1.0,-0.294638327523,-0.357773695079,nan,nan,nan,nan,0.0,0.0,0.0,nan,93.2389891259,136.477631859,136.977657232,136.806134033,nan,nan,nan,nan
1,40,1,1,1.0,1.0,0.296370600816,1,nan,nan,nan,nan,nan,nan,nan,nan,nan,488,0.647907709101,0.302951493728,-1.0,105.622100263,344.377899737,1.25289973729,490.0,0.664660387652,0.296157848571,-1.0,0.875393505208,93.2389891259,137.477765569,137.977778684,137.77413617,140.194730096,141.194544213,139.302954916,140.18639671
1,41,0,0,0.0,1.0,0.459044388961,0,nan,nan,nan,nan,nan,nan,nan,nan,nan,254,0.503011129055,0.248947817922,0.65613358125,nan,nan,nan,nan,0.0,0.0,0.0,nan,93.2389891259,141.394971402,141.895013596,141.854015791,nan,nan,nan,nan
1,42,1,1,1.0,1.0,0.410617525689,0,nan,nan,nan,nan,nan,nan,nan,nan,nan,124,1.0,-0.311577186586,-0.198226518473,nan,nan,nan,nan,0.0,0.0,0.0,nan,93.2389891259,142.403379198,142.903427665,142.813996724,nan,nan,nan,nan
1,43,1,1,1.0,1.0,0.402449781541,0,nan,nan,nan,nan,nan,nan,nan,nan,nan,305,0.00361192545304,0.406859252708,0.500196907155,nan,nan,nan,nan,0.0,0.0,0.0,nan,93.2389891259,143.403520036,143.903573919,143.805969818,nan,nan,nan,nan
1,44,1,1,1.0,1.0,0.378294367343,0,nan,nan,nan,nan,nan,nan,nan,nan,nan,181,1.0,-0.123914391386,0.3392011262,nan,nan,nan,nan,0.0,0.0,0.0,nan,93.2389891259,144.403654031,144.903682826,144.781948399,nan,nan,nan,nan
1,45,1,1,1.0,1.0,0.394159730989,0,nan,nan,nan,nan,nan,nan,nan,nan,nan,123,1.0,-0.311441137266,-0.208672863777,nan,nan,nan,nan,0.0,0.0,0.0,nan,93.2389891259,145.403777193,145.903805703,145.797936924,nan,nan,nan,nan
1,46,0,0,0.0,1.0,0.537975206971,0,nan,nan,nan,nan,nan,nan,nan,nan,nan,439,0.251144291643,0.426392204401,-1.0,nan,nan,nan,nan,0.0,0.0,0.0,nan,93.2389891259,146.403938843,146.903988165,146.94191405,nan,nan,nan,nan
1,47,1,1,1.0,1.0,0.417527421843,0,nan,nan,nan,nan,nan,nan,nan,nan,nan,327,-0.128086156831,0.445480682368,0.344176439252,nan,nan,nan,nan,0.0,0.0,0.0,nan,93.2389891259,147.412373438,147.912408506,147.82990086,nan,nan,nan,nan
1,48,0,0,0.0,1.0,0.40135500906,0,nan,nan,nan,nan,nan,nan,nan,nan,nan,459,0.407758158413,0.385709174134,-1.0,nan,nan,nan,nan,0.0,0.0,0.0,nan,93.2389891259,148.412533093,148.912563598,148.813888102,nan,nan,nan,nan
1,49,1,1,1.0,1.0,0.344825118314,0,nan,nan,nan,nan,nan,nan,nan,nan,nan,130,1.0,-0.309333154106,-0.136071487739,nan,nan,nan,nan,0.0,0.0,0.0,nan,93.2389891259,149.421042954,149.921006176,149.765868072,nan,nan,nan,nan
1,50,1,1,1.0,1.0,0.384435072076,0,nan,nan,nan,nan,nan,nan,nan,nan,nan,462,0.432089675478,0.378486360879,-1.0,nan,nan,nan,nan,0.0,0.0,0.0,nan,93.2389891259,150.429425376,150.92946643,150.813860448,nan,nan,nan,nan
1,51,1,1,1.0,1.0,0.512200441677,1,nan,nan,nan,nan,nan,nan,nan,nan,nan,98,1.0,-0.263822910468,-0.480217789416,169.976818347,280.023181653,-148.883068347,398.0,-0.0220377755791,0.472608796233,-0.387943383198,1.38383608265,93.2389891259,151.429585885,151.929634352,151.941786327,154.65496334,155.655089923,153.254772667,154.646635371
1,52,1,1,1.0,1.0,0.564855578355,0,nan,nan,nan,nan,nan,nan,nan,nan,nan,341,-0.168535884224,0.46196150489,0.223260112086,nan,nan,nan,nan,0.0,0.0,0.0,nan,93.2389891259,155.896850477,156.39684734,156.461706055,nan,nan,nan,nan
1,53,0,0,0.0,1.0,0.476731522009,0,nan,nan,nan,nan,nan,nan,nan,nan,nan,500,0.748145934353,0.260058294274,-1.0,nan,nan,nan,nan,0.0,0.0,0.0,nan,93.2389891259,156.896965941,157.396997016,157.373697463,nan,nan,nan,nan
1,54,1,1,1.0,1.0,0.316616194788,0,nan,nan,nan,nan,nan,nan,nan,nan,nan,289,0.140592130943,0.368073254824,0.582505265782,nan,nan,nan,nan,0.0,0.0,0.0,nan,93.2389891259,157.897072852,158.397103073,158.213689047,nan,nan,nan,nan
1,55,1,1,1.0,1.0,0.332482413389,0,nan,nan,nan,nan,nan,nan,nan,nan,nan,407,0.0305886347219,0.46645515455,-0.502577406972,nan,nan,nan,nan,0.0,0.0,0.0,nan,93.2389891259,158.897197725,159.397231936,159.229680138,nan,nan,nan,nan
1,56,0,0,0.0,1.0,0.436256870162,0,nan,nan,nan,nan,nan,nan,nan,nan,nan,239,0.665069831863,0.183388857662,0.640549267122,nan,nan,nan,nan,0.0,0.0,0.0,nan,93.2389891259,159.897396152,160.397385889,160.333653022,nan,nan,nan,nan
1,57,1,1,1.0,1.0,0.34017347591,0,nan,nan,nan,nan,nan,nan,nan,nan,nan,18,0.988682696815,0.131162580546,-1.0,nan,nan,nan,nan,0.0,0.0,0.0,nan,93.2389891259,160.897461724,161.397496792,161.2376352,nan,nan,nan,nan
1,58,1,1,1.0,1.0,0.356011469848,0,nan,nan,nan,nan,nan,nan,nan,nan,nan,122,1.0,-0.311159539646,-0.219144224573,nan,nan,nan,nan,0.0,0.0,0.0,nan,93.2389891259,161.897591444,162.397620238,162.253602914,nan,nan,nan,nan
1,59,1,1,1.0,1.0,0.363855629228,0,nan,nan,nan,nan,nan,nan,nan,nan,nan,414,0.0747837862165,0.460162189034,-0.600089175003,nan,nan,nan,nan,0.0,0.0,0.0,nan,93.2389891259,162.897731426,163.397777042,163.261587055,nan,nan,nan,nan
1,60,1,1,1.0,1.0,0.323721097782,0,nan,nan,nan,nan,nan,nan,nan,nan,nan,147,1.0,-0.275801134503,0.0346720467303,nan,nan,nan,nan,0.0,0.0,0.0,nan,93.2389891259,163.897848601,164.397887089,164.221569699,nan,nan,nan,nan
1,61,1,1,1.0,1.0,0.331571814138,0,nan,nan,nan,nan,nan,nan,nan,nan,nan,197,1.0,-0.035797595552,0.455774741445,nan,nan,nan,nan,0.0,0.0,0.0,nan,93.2389891259,164.89797889,165.398017379,165.229550704,nan,nan,nan,nan
1,62,1,1,1.0,1.0,0.387398655061,0,nan,nan,nan,nan,nan,nan,nan,nan,nan,20,1.0,0.121558187834,-1.0,nan,nan,nan,nan,0.0,0.0,0.0,nan,93.2389891259,165.898115452,166.398169905,166.285514107,nan,nan,nan,nan
1,63,1,1,1.0,1.0,0.363262912259,0,nan,nan,nan,nan,nan,nan,nan,nan,nan,464,0.448404880525,0.373503555275,-1.0,nan,nan,nan,nan,0.0,0.0,0.0,nan,93.2389891259,166.898243175,167.398288506,167.261506088,nan,nan,nan,nan
1,64,1,1,1.0,1.0,0.323089322541,0,nan,nan,nan,nan,nan,nan,nan,nan,nan,277,0.258470646878,0.33263615818,0.624824240443,nan,nan,nan,nan,0.0,0.0,0.0,nan,93.2389891259,167.898372324,168.398400549,168.221461647,nan,nan,nan,nan
1,65,1,1,1.0,1.0,0.306960244663,0,nan,nan,nan,nan,nan,nan,nan,nan,nan,45,1.0,-0.0063957592436,-1.0,nan,nan,nan,nan,0.0,0.0,0.0,nan,93.2389891259,168.898502613,169.398525706,169.205462858,nan,nan,nan,nan
1,66,0,0,0.0,1.0,0.458777823485,0,nan,nan,nan,nan,nan,nan,nan,nan,nan,159,1.0,-0.231765974528,0.149055008463,nan,nan,nan,nan,0.0,0.0,0.0,nan,93.2389891259,169.898663979,170.398688497,170.357441802,nan,nan,nan,nan
1,67,1,1,1.0,1.0,0.354622762185,0,nan,nan,nan,nan,nan,nan,nan,nan,nan,506,0.797774742377,0.236703125255,-1.0,nan,nan,nan,nan,0.0,0.0,0.0,nan,93.2389891259,170.898761767,171.398787711,171.253384529,nan,nan,nan,nan
1,68,1,1,1.0,1.0,0.282142264303,0,nan,nan,nan,nan,nan,nan,nan,nan,nan,20,1.0,0.121558187834,-1.0,nan,nan,nan,nan,0.0,0.0,0.0,nan,93.2389891259,171.907229433,172.407272198,172.189371698,nan,nan,nan,nan
1,69,1,1,1.0,1.0,0.265721247066,0,nan,nan,nan,nan,nan,nan,nan,nan,nan,402,0.000724920831492,0.470139955471,-0.437811562499,nan,nan,nan,nan,0.0,0.0,0.0,nan,93.2389891259,172.915691112,173.415745281,173.181412359,nan,nan,nan,nan
1,70,1,1,1.0,1.0,0.265536219347,0,nan,nan,nan,nan,nan,nan,nan,nan,nan,78,1.0,-0.179467652321,-0.739907630878,nan,nan,nan,nan,0.0,0.0,0.0,nan,93.2389891259,173.91581627,174.415856753,174.181352489,nan,nan,nan,nan
1,71,1,1,1.0,1.0,0.393356041983,1,nan,nan,nan,nan,nan,nan,nan,nan,nan,291,0.122027637739,0.373441943191,0.573791926984,-122.252583024,212.252583024,7.64320802401,302.0,0.027086081288,0.400300843718,0.517770016443,1.03377373191,93.2389891259,174.91594827,175.415979345,175.309304312,177.791285041,178.790873931,176.741150732,177.78295194
1,72,1,1,0.0,0.0,0.421760827769,0,0.0,0.0,0.0,nan,nan,nan,nan,nan,nan,80,1.0,-0.189075709245,-0.708965549488,nan,nan,nan,nan,0.0,0.0,0.0,nan,93.2389891259,178.991472178,179.49150582,179.413233006,nan,nan,nan,nan
1,73,1,1,1.0,1.0,0.548570836894,0,nan,nan,nan,nan,nan,nan,nan,nan,nan,164,1.0,-0.209685835145,0.194761549991,nan,nan,nan,nan,0.0,0.0,0.0,nan,93.2389891259,180.01664653,180.516686158,180.565217366,nan,nan,nan,nan
1,74,1,1,1.0,1.0,0.340465415269,0,nan,nan,nan,nan,nan,nan,nan,nan,nan,280,0.228089347314,0.342018854333,0.61587222022,nan,nan,nan,nan,0.0,0.0,0.0,nan,93.2389891259,181.016734054,181.51678138,181.35719947,nan,nan,nan,nan
1,75,1,1,1.0,1.0,0.268299379386,0,nan,nan,nan,nan,nan,nan,nan,nan,nan,393,-0.0489456633786,0.475102171109,-0.327443230616,nan,nan,nan,nan,0.0,0.0,0.0,nan,93.2389891259,182.016866624,182.516905398,182.285166004,nan,nan,nan,nan
1,76,1,1,1.0,1.0,0.204193891026,0,nan,nan,nan,nan,nan,nan,nan,nan,nan,24,1.0,0.102019060141,-1.0,nan,nan,nan,nan,0.0,0.0,0.0,nan,93.2389891259,183.016999479,183.517058495,183.22119337,nan,nan,nan,nan
1,77,1,1,1.0,1.0,0.243991723284,0,nan,nan,nan,nan,nan,nan,nan,nan,nan,362,-0.164239727892,0.476000155386,0.0174578511848,nan,nan,nan,nan,0.0,0.0,0.0,nan,93.2389891259,184.017132905,184.517156568,184.261124628,nan,nan,nan,nan
1,78,1,1,1.0,1.0,0.273912084289,0,nan,nan,nan,nan,nan,nan,nan,nan,nan,490,0.664660387652,0.296157848571,-1.0,nan,nan,nan,nan,0.0,0.0,0.0,nan,93.2389891259,185.067258661,185.567328225,185.341170745,nan,nan,nan,nan
1,79,1,1,1.0,1.0,0.23371682642,0,nan,nan,nan,nan,nan,nan,nan,nan,nan,277,0.258470646878,0.33263615818,0.624824240443,nan,nan,nan,nan,0.0,0.0,0.0,nan,93.2389891259,186.067397504,186.567434851,186.30111433,nan,nan,nan,nan
1,80,1,1,1.0,1.0,0.265258534346,0,nan,nan,nan,nan,nan,nan,nan,nan,nan,385,-0.0879796604702,0.477733444059,-0.233926720364,nan,nan,nan,nan,0.0,0.0,0.0,nan,93.2389891259,187.075842077,187.575892824,187.341100611,nan,nan,nan,nan
1,81,1,1,1.0,1.0,0.33705736557,0,0.0,0.0,0.0,0.339140490949,0.0767352826585,0.26240520829,0.415875773607,0.0767352826585,0.278677575445,485,0.622774561467,0.312875618285,-1.0,nan,nan,nan,nan,0.0,0.0,0.0,nan,93.2389891259,188.075988617,188.576019977,188.413045982,nan,nan,nan,nan
1,82,0,0,1.0,0.0,0.272890581284,0,0.0,0.0,0.0,0.339114773352,0.0762604839352,0.262854289416,0.415375257287,0.0762604839352,0.291735493733,320,-0.0946500390753,0.43494401576,0.398701238857,nan,nan,nan,nan,0.0,0.0,0.0,nan,93.2389891259,189.076153973,189.576177636,189.349044554,nan,nan,nan,nan
1,83,1,1,1.0,1.0,0.264801239129,0,0.0,0.0,0.0,0.338307161253,0.0761417752048,0.262165386048,0.414448936458,0.0761417752048,0.291583061994,411,0.0555201669072,0.463022710015,-0.557054760163,nan,nan,nan,nan,0.0,0.0,0.0,nan,93.2389891259,190.07624891,190.576282837,190.341050149,nan,nan,nan,nan
1,84,1,1,1.0,1.0,0.304597360082,0,0.0,0.0,0.0,0.337421547734,0.0761054086008,0.261316139133,0.413526956334,0.0761054086008,0.280763060165,293,0.103830259013,0.378659598285,0.564617056734,nan,nan,nan,nan,0.0,0.0,0.0,nan,93.2389891259,191.076382051,191.576414552,191.380979411,nan,nan,nan,nan
1,85,1,1,1.0,1.0,0.320473557804,0,0.0,0.0,0.0,0.337030783595,0.0757347625644,0.261296021031,0.412765546159,0.0757347625644,0.296624052338,35,1.0,0.0462653595507,-1.0,nan,nan,nan,nan,0.0,0.0,0.0,nan,93.2389891259,192.076507778,192.576548262,192.396981336,nan,nan,nan,nan
1,86,1,1,1.0,1.0,0.36032755347,0,0.0,0.0,0.0,0.336835992703,0.0753091100205,0.261526882683,0.412145102724,0.0753091100205,0.328466157118,218,0.881467392804,0.0788246127756,0.572559633417,nan,nan,nan,nan,0.0,0.0,0.0,nan,93.2389891259,193.076642344,193.57667285,193.436969898,nan,nan,nan,nan
1,87,1,1,1.0,1.0,0.278451113496,0,0.0,0.0,0.0,0.337109150387,0.0749123294533,0.262196820933,0.41202147984,0.0749123294533,0.31975074159,414,0.0747837862165,0.460162189034,-0.600089175003,nan,nan,nan,nan,0.0,0.0,0.0,nan,93.2389891259,194.118464935,194.618476339,194.396916049,nan,nan,nan,nan
1,88,1,1,1.0,1.0,0.326331160497,0,0.0,0.0,0.0,0.336434920078,0.0747425410279,0.26169237905,0.411177461105,0.0747425410279,0.321703275821,339,-0.164955840019,0.45996923152,0.241423096872,nan,nan,nan,nan,0.0,0.0,0.0,nan,93.2389891259,195.118569851,195.618600071,195.444901011,nan,nan,nan,nan
1,89,0,0,0.0,1.0,0.47014293028,0,0.0,0.0,0.0,0.336320104628,0.0743243699412,0.261995734687,0.410644474569,0.0743243699412,0.358308401424,162,1.0,-0.218739557155,0.176632971453,nan,nan,nan,nan,0.0,0.0,0.0,nan,93.2389891259,196.118732641,196.618759726,196.588875572,nan,nan,nan,nan
1,90,1,1,1.0,1.0,0.318047096953,0,0.0,0.0,0.0,0.337823731882,0.0752396308229,0.262584101059,0.413063362705,0.0752396308229,0.371507062577,378,-0.117450136118,0.478670924818,-0.154810124165,nan,nan,nan,nan,0.0,0.0,0.0,nan,93.2389891259,197.118835276,197.618866922,197.436882373,nan,nan,nan,nan
1,91,1,1,0.0,0.0,0.60552039044,0,0.0,0.0,0.0,0.337603991494,0.0748491781066,0.262754813388,0.412453169601,0.0748491781066,0.464570139224,82,1.0,-0.198479155091,-0.679872484948,nan,nan,nan,nan,0.0,0.0,0.0,nan,93.2389891259,198.127299236,198.62736709,198.732819627,nan,nan,nan,nan
1,92,1,1,1.0,1.0,0.54138240125,0,0.0,1.0,0.0,0.340548127746,0.0795043965978,0.261043731149,0.420052524344,0.0795043965978,0.488316629548,198,1.0,-0.0302354974571,0.462326941081,nan,nan,nan,nan,0.0,0.0,0.0,nan,93.2389891259,199.127422683,199.627495953,199.668805085,nan,nan,nan,nan
1,93,1,1,1.0,1.0,0.332893808838,1,0.0,0.0,1.0,0.34273110898,0.0817673232607,0.260963785719,0.424498432241,0.0817673232607,0.493265533509,306,-0.00395437407881,0.408974006242,0.494128827808,-126.339396329,216.339396329,1.18314632917,308.0,-0.0186828559465,0.413097475488,0.481682330771,2.88411804382,93.2389891259,200.13589092,200.635919714,200.468784729,204.861463665,205.860856409,201.96110279,204.853143964
1,94,1,1,1.0,1.0,0.446984215174,0,0.0,0.0,0.0,0.342625331559,0.0813328542648,0.261292477294,0.423958185824,0.0813328542648,0.440420141754,404,0.0124894593597,0.468746268022,-0.463349101315,nan,nan,nan,nan,0.0,0.0,0.0,nan,93.2389891259,206.061666769,206.561685015,206.508650984,nan,nan,nan,nan
1,95,1,1,1.0,1.0,0.358842198271,0,0.0,0.0,0.0,0.343735532449,0.0816044561824,0.262131076266,0.425339988631,0.0816044561824,0.379573407428,133,1.0,-0.306259573676,-0.105336427414,nan,nan,nan,nan,0.0,0.0,0.0,nan,93.2389891259,207.061799339,207.561823002,207.420641537,nan,nan,nan,nan
1,96,1,1,1.0,1.0,0.350677305367,0,0.0,0.0,0.0,0.343894549984,0.0811884625195,0.262706087464,0.425083012503,0.0811884625195,0.385501239604,293,0.103830259013,0.378659598285,0.564617056734,nan,nan,nan,nan,0.0,0.0,0.0,nan,93.2389891259,208.061941602,208.561948444,208.412618907,nan,nan,nan,nan
1,97,1,1,1.0,1.0,0.334561055992,0,0.0,0.0,0.0,0.343965203686,0.08076743484,0.263197768846,0.424732638526,0.08076743484,0.34802685321,216,0.900975005756,0.0682271079607,0.563426584804,nan,nan,nan,nan,0.0,0.0,0.0,nan,93.2389891259,209.062045092,209.562077593,209.396606148,nan,nan,nan,nan
1,98,1,1,0.0,0.0,0.502409640234,0,0.0,0.0,0.0,0.343868253709,0.0803556440966,0.263512609613,0.424223897806,0.0803556440966,0.395882667198,37,1.0,0.0358565504353,-1.0,nan,nan,nan,nan,0.0,0.0,0.0,nan,93.2389891259,210.062180228,210.562255209,210.564589868,nan,nan,nan,nan
1,99,1,1,1.0,1.0,0.398255719803,0,0.0,0.0,0.0,0.34548602296,0.0815169165531,0.263969106407,0.427002939513,0.0815169165531,0.411742138676,466,0.464789014893,0.368385601135,-1.0,nan,nan,nan,nan,0.0,0.0,0.0,nan,93.2389891259,211.062299684,211.562336461,211.460555403,nan,nan,nan,nan
1,100,1,1,1.0,1.0,0.309756475501,0,0.0,0.0,0.0,0.3460190502,0.0812756418766,0.264743408324,0.427294692077,0.0812756418766,0.403473945179,169,1.0,-0.185917379452,0.239118302078,nan,nan,nan,nan,0.0,0.0,0.0,nan,93.2389891259,212.070778469,212.570816672,212.380534945,nan,nan,nan,nan
1,101,1,1,1.0,1.0,0.285261796322,0,0.0,0.0,0.0,0.345656424453,0.0809486930632,0.26470773139,0.426605117517,0.0809486930632,0.331091330542,407,0.0305886347219,0.46645515455,-0.502577406972,nan,nan,nan,nan,0.0,0.0,0.0,nan,93.2389891259,213.079288614,213.579279492,213.364550411,nan,nan,nan,nan
1,102,1,1,1.0,1.0,0.285169424489,0,0.0,0.0,0.0,0.345058457838,0.0807686151182,0.26428984272,0.425827072957,0.0807686151182,0.293395898771,238,0.675741828754,0.178727669763,0.638511091232,nan,nan,nan,nan,0.0,0.0,0.0,nan,93.2389891259,214.079365876,214.579400658,214.364535301,nan,nan,nan,nan
1,103,1,1,1.0,1.0,0.373028055299,0,0.0,0.0,0.0,0.344471310453,0.0805880361763,0.263883274276,0.425059346629,0.0805880361763,0.31448642537,82,1.0,-0.198479155091,-0.679872484948,nan,nan,nan,nan,0.0,0.0,0.0,nan,93.2389891259,215.079499586,215.579547768,215.452527642,nan,nan,nan,nan
1,104,0,0,0.0,1.0,0.500791429542,0,0.0,0.0,0.0,0.344748560403,0.0802447464297,0.264503813973,0.424993306832,0.0802447464297,0.386329636443,379,-0.113535935895,0.478614986251,-0.165970515924,nan,nan,nan,nan,0.0,0.0,0.0,nan,93.2389891259,216.079652398,216.579739923,216.580443828,nan,nan,nan,nan
1,105,1,1,1.0,1.0,0.340100775938,0,0.0,0.0,0.0,0.346248972606,0.081296870465,0.264952102141,0.427545843071,0.081296870465,0.404640086927,233,0.728670395113,0.154909781369,0.626482233315,nan,nan,nan,nan,0.0,0.0,0.0,nan,93.2389891259,217.08834073,217.588124626,217.428441506,nan,nan,nan,nan
1,106,1,1,1.0,1.0,0.443873806857,0,0.0,0.0,0.0,0.346190418352,0.0809110198892,0.265279398463,0.427101438241,0.0809110198892,0.428255337446,278,0.248285521772,0.335802812283,0.621962573991,nan,nan,nan,nan,0.0,0.0,0.0,nan,93.2389891259,218.096566349,218.596580604,218.540440156,nan,nan,nan,nan
1,107,1,1,1.0,1.0,0.347071683034,0,0.0,0.0,0.0,0.347111959753,0.081080224932,0.266031734821,0.428192184685,0.081080224932,0.377015421943,469,0.489482198204,0.360453357602,-1.0,nan,nan,nan,nan,0.0,0.0,0.0,nan,93.2389891259,219.113348584,219.613383081,219.460420267,nan,nan,nan,nan
1,108,1,1,1.0,1.0,0.282939110883,0,0.0,0.0,0.0,0.347111583335,0.0807004560757,0.266411127259,0.427812039411,0.0807004560757,0.357961533591,394,-0.0437090198531,0.474655926729,-0.339401417396,nan,nan,nan,nan,0.0,0.0,0.0,nan,93.2389891259,220.113482295,220.613519358,220.396421405,nan,nan,nan,nan
1,109,1,1,1.0,1.0,0.274507652037,0,0.0,0.0,0.0,0.346517393775,0.0805607823189,0.265956611456,0.427078176094,0.0805607823189,0.301506148651,29,1.0,0.0770173926463,-1.0,nan,nan,nan,nan,0.0,0.0,0.0,nan,93.2389891259,221.121941693,221.622002989,221.396449345,nan,nan,nan,nan
1,110,1,1,1.0,1.0,0.281946402974,0,0.0,0.0,0.0,0.345856753943,0.0804837502756,0.265373003667,0.426340504218,0.0804837502756,0.279797721965,239,0.665069831863,0.183388857662,0.640549267122,nan,nan,nan,nan,0.0,0.0,0.0,nan,93.2389891259,222.130392824,222.630442146,222.412339227,nan,nan,nan,nan
1,111,1,1,1.0,1.0,0.281482264865,0,0.0,0.0,0.0,0.345275750752,0.0803463815563,0.264929369196,0.425622132308,0.0803463815563,0.279312106625,378,-0.117450136118,0.478670924818,-0.154810124165,nan,nan,nan,nan,0.0,0.0,0.0,nan,93.2389891259,223.138865052,223.638925207,223.420347317,nan,nan,nan,nan
1,112,1,1,1.0,1.0,0.257259282749,0,0.0,0.0,0.0,0.344701034663,0.0802104472375,0.264490587425,0.4249114819,0.0802104472375,0.273562650196,321,-0.0999433513493,0.43654647086,0.391174984052,nan,nan,nan,nan,0.0,0.0,0.0,nan,93.2389891259,224.139042952,224.63903497,224.396302235,nan,nan,nan,nan
1,113,0,0,1.0,0.0,0.273122365586,0,0.0,0.0,0.0,0.343920304735,0.0802740979893,0.263646206746,0.424194402724,0.0802740979893,0.2706213044,448,0.32026743599,0.409662251776,-1.0,nan,nan,nan,nan,0.0,0.0,0.0,nan,93.2389891259,225.139159842,225.639201181,225.412282208,nan,nan,nan,nan
1,114,1,1,1.0,1.0,0.153013845906,0,0.0,0.0,0.0,0.3432937743,0.0801927016309,0.263101072669,0.423486475931,0.0801927016309,0.22779849808,31,1.0,0.0668515730764,-1.0,nan,nan,nan,nan,0.0,0.0,0.0,nan,93.2389891259,226.139274451,226.639298684,226.292288297,nan,nan,nan,nan
1,115,1,1,1.0,1.0,0.216867023613,0,0.0,0.0,0.0,0.341624652121,0.0817879742973,0.259836677824,0.423412626419,0.0817879742973,0.214334411702,337,-0.160643365934,0.457858386897,0.259303564052,nan,nan,nan,nan,0.0,0.0,0.0,nan,93.2389891259,227.139402459,227.639440663,227.356269483,nan,nan,nan,nan
1,116,1,1,1.0,1.0,0.296724976972,0,1.0,0.0,0.0,0.340539803178,0.082251270111,0.258288533067,0.422791073289,0.082251270111,0.22220194883,454,0.367627362238,0.397084843583,-1.0,nan,nan,nan,nan,0.0,0.0,0.0,nan,93.2389891259,228.139526477,228.639559548,228.436251454,nan,nan,nan,nan
1,117,1,1,1.0,1.0,0.36055278033,1,0.0,0.0,1.0,0.340162089159,0.0819960787819,0.258166010377,0.422158167941,0.0819960787819,0.291381593638,83,1.0,-0.203097876184,-0.665876706514,46.7357045889,43.2642954111,-15.0950795889,62.0,1.0,-0.0974372467467,-1.0,1.83384717302,93.2389891259,229.139651634,229.63971236,229.500204415,232.815105751,233.814906754,230.964862364,232.806768944
1,118,0,0,1.0,0.0,0.300789604895,0,0.0,0.0,0.0,0.34033636857,0.0816664903787,0.258669878192,0.422002858949,0.0816664903787,0.319355787399,460,0.415848916989,0.383334931935,-1.0,nan,nan,nan,nan,0.0,0.0,0.0,nan,93.2389891259,234.015313416,234.515379558,234.316103021,nan,nan,nan,nan
1,119,1,1,1.0,1.0,0.660642472096,0,0.0,0.0,0.0,0.340001226505,0.0814004707787,0.258600755727,0.421401697284,0.0814004707787,0.440661619107,193,1.0,-0.0580453890011,0.428658791268,nan,nan,nan,nan,0.0,0.0,0.0,nan,93.2389891259,235.015430876,235.515490176,235.676073348,nan,nan,nan,nan
1,120,1,1,1.0,1.0,0.340529561974,0,0.0,0.0,0.0,0.342695690754,0.086180345196,0.256515345558,0.42887603595,0.086180345196,0.433987212988,13,0.950262168777,0.154664060346,-1.0,nan,nan,nan,nan,0.0,0.0,0.0,nan,93.2389891259,236.015550046,236.515598228,236.356079608,nan,nan,nan,nan
1,121,1,1,1.0,1.0,0.340034633409,0,0.0,1.0,0.0,0.342677639681,0.0858207351056,0.256856904575,0.428498374786,0.0858207351056,0.44706888916,119,1.0,-0.309446327048,-0.250710895617,nan,nan,nan,nan,0.0,0.0,0.0,nan,93.2389891259,237.024019423,237.524064754,237.364054057,nan,nan,nan,nan
1,122,1,1,1.0,1.0,0.347896468826,1,0.0,0.0,1.0,0.342655796654,0.0854657031709,0.257190093483,0.428121499825,0.0854657031709,0.342820221403,399,-0.0164460389312,0.472031251936,-0.400274523968,-179.268604247,269.268604247,-11.2782707531,383.0,-0.0968787136249,0.478131214543,-0.211081409456,1.20044686086,93.2389891259,238.024138309,238.524179933,238.372034777,241.066208364,242.066157617,239.849338205,241.057832784
1,123,1,1,1.0,1.0,0.51352671301,0,0.0,0.0,0.0,0.342698752983,0.0851160247748,0.257582728208,0.427814777758,0.0851160247748,0.400485938415,475,0.539218753276,0.343659807328,-1.0,nan,nan,nan,nan,0.0,0.0,0.0,nan,93.2389891259,242.266371553,242.766431139,242.779898266,nan,nan,nan,nan
1,124,1,1,1.0,1.0,0.361140650231,0,0.0,0.0,0.0,0.344087598187,0.0861461668856,0.257941431301,0.430233765072,0.0861461668856,0.407521277356,91,1.0,-0.237709898716,-0.562722318432,nan,nan,nan,nan,0.0,0.0,0.0,nan,93.2389891259,243.274815842,243.774860887,243.635956492,nan,nan,nan,nan
1,125,1,1,1.0,1.0,0.360567035154,0,0.0,0.0,0.0,0.3442251228,0.0858116559055,0.258413466894,0.430036778705,0.0858116559055,0.411744799465,212,0.93926288676,0.0467731277665,0.543851001166,nan,nan,nan,nan,0.0,0.0,0.0,nan,93.2389891259,244.283290065,244.783332259,244.643857101,nan,nan,nan,nan
1,126,1,1,1.0,1.0,0.312467748765,0,0.0,0.0,0.0,0.344355858099,0.0854801178053,0.258875740293,0.429835975904,0.0854801178053,0.344725144717,291,0.122027637739,0.373441943191,0.573791926984,nan,nan,nan,nan,0.0,0.0,0.0,nan,93.2389891259,245.283423205,245.783455422,245.595890954,nan,nan,nan,nan
1,127,1,1,1.0,1.0,0.264327407815,0,0.0,0.0,0.0,0.344102777866,0.0851872400259,0.25891553784,0.429290017892,0.0851872400259,0.312454063911,79,1.0,-0.184296021705,-0.724170777997,nan,nan,nan,nan,0.0,0.0,0.0,nan,93.2389891259,246.283549218,246.783588562,246.547876626,nan,nan,nan,nan
1,128,0,0,1.0,0.0,0.256142557599,0,0.0,0.0,0.0,0.343474625346,0.0851436533824,0.258330971963,0.428618278728,0.0851436533824,0.277645904726,428,0.170378320166,0.443486568519,-0.86866140055,nan,nan,nan,nan,0.0,0.0,0.0,nan,93.2389891259,247.283708588,247.783751637,247.539851145,nan,nan,nan,nan
1,129,1,1,1.0,1.0,0.264027200174,0,0.0,0.0,0.0,0.342792343567,0.0851582351747,0.257634108392,0.427950578741,0.0851582351747,0.261499055196,323,-0.11001989341,0.43965344528,0.375855360355,nan,nan,nan,nan,0.0,0.0,0.0,nan,93.2389891259,248.283811223,248.783843439,248.547838423,nan,nan,nan,nan
1,130,1,1,1.0,1.0,0.247861344833,0,0.0,0.0,0.0,0.34218176106,0.0851083330396,0.25707342802,0.427290094099,0.0851083330396,0.256010367535,219,0.871627318206,0.0840881726889,0.576959667802,nan,nan,nan,nan,0.0,0.0,0.0,nan,93.2389891259,249.283946929,249.783976009,249.531808273,nan,nan,nan,nan
1,131,1,1,1.0,1.0,0.31171594793,0,0.0,0.0,0.0,0.341456219396,0.0851799075728,0.256276311824,0.426636126969,0.0851799075728,0.274534830979,131,1.0,-0.308451667147,-0.125800503078,nan,nan,nan,nan,0.0,0.0,0.0,nan,93.2389891259,250.284073512,250.784103732,250.59578946,nan,nan,nan,nan
1,132,1,1,1.0,1.0,0.311569692567,0,0.0,0.0,0.0,0.341229194423,0.0848936423498,0.256335552073,0.426122836773,0.0848936423498,0.290382328443,310,-0.032854544558,0.417080732083,0.468828018046,nan,nan,nan,nan,0.0,0.0,0.0,nan,93.2389891259,251.28420152,251.784234877,251.595771213,nan,nan,nan,nan
1,133,1,1,1.0,1.0,0.239058974665,0,0.0,0.0,0.0,0.341004501227,0.0846105569904,0.256393944237,0.425615058218,0.0846105569904,0.287448205054,8,0.91102658764,0.177400941622,-1.0,nan,nan,nan,nan,0.0,0.0,0.0,nan,93.2389891259,252.292664625,252.792714517,252.5317236,nan,nan,nan,nan
1,134,1,1,1.0,1.0,0.254906091839,0,0.0,0.0,0.0,0.340237993509,0.0847506589285,0.25548733458,0.424988652437,0.0847506589285,0.268511586357,486,0.631151757674,0.309603058574,-1.0,nan,nan,nan,nan,0.0,0.0,0.0,nan,93.2389891259,253.292791208,253.792818008,253.5476973,nan,nan,nan,nan
1,135,1,1,1.0,1.0,0.278768711723,0,0.0,0.0,0.0,0.339601188273,0.0847526189774,0.254848569295,0.42435380725,0.0847526189774,0.257577926076,312,-0.0464483572634,0.420925197877,0.455573212045,nan,nan,nan,nan,0.0,0.0,0.0,nan,93.2389891259,254.292916651,254.792950292,254.571685363,nan,nan,nan,nan
1,136,1,1,1.0,1.0,0.25463439431,0,0.0,0.0,0.0,0.339150577335,0.0845990998628,0.254551477472,0.423749677198,0.0845990998628,0.262769732624,60,1.0,-0.0867837676833,-1.0,nan,nan,nan,nan,0.0,0.0,0.0,nan,93.2389891259,255.293058059,255.793084003,255.547692453,nan,nan,nan,nan
1,137,0,0,1.0,0.0,0.302459702827,0,0.0,0.0,0.0,0.338529134813,0.0845962079537,0.253932926859,0.423125342767,0.0845962079537,0.278620936287,128,1.0,-0.310663006781,-0.156689791083,nan,nan,nan,nan,0.0,0.0,0.0,nan,93.2389891259,256.293211726,256.793240521,256.595671429,nan,nan,nan,nan
1,138,1,1,1.0,1.0,0.158348866738,0,0.0,0.0,0.0,0.338265854287,0.0843428011269,0.253923053161,0.422608655414,0.0843428011269,0.238480987959,503,0.773020196022,0.248538461814,-1.0,nan,nan,nan,nan,0.0,0.0,0.0,nan,93.2389891259,257.293306093,257.793366249,257.45165496,nan,nan,nan,nan
1,139,1,1,1.0,1.0,0.222217438743,0,0.0,0.0,0.0,0.336962108001,0.085410923438,0.251551184563,0.422373031439,0.085410923438,0.227675336103,385,-0.0879796604702,0.477733444059,-0.233926720364,nan,nan,nan,nan,0.0,0.0,0.0,nan,93.2389891259,258.293431821,258.793476011,258.51564926,nan,nan,nan,nan
1,140,1,1,1.0,1.0,0.261689690407,0,1.0,0.0,0.0,0.336136606783,0.0856538618753,0.250482744908,0.421790468659,0.0856538618753,0.214085331963,475,0.539218753276,0.343659807328,-1.0,nan,nan,nan,nan,0.0,0.0,0.0,nan,93.2389891259,259.301917734,259.801941967,259.563607424,nan,nan,nan,nan
1,141,1,1,1.0,1.0,0.253530784044,1,0.0,0.0,1.0,0.335604843095,0.0855773642768,0.250027478818,0.421182207372,0.0855773642768,0.245812637731,319,-0.0891891826932,0.433308674125,0.406137099325,-133.085048986,223.085048986,-1.21182601404,317.0,-0.077772836126,0.429938605076,0.420733606481,1.3087922777,93.2389891259,260.302034908,260.802065699,260.555565692,263.452426432,264.45196543,262.127264739,263.444089056
1,142,1,1,1.0,1.0,0.294893513434,0,0.0,0.0,0.0,0.33502275757,0.0855510430262,0.249471714543,0.420573800596,0.0855510430262,0.270037995962,450,0.335949728395,0.405598329481,-1.0,nan,nan,nan,nan,0.0,0.0,0.0,nan,93.2389891259,264.65259789,265.152625829,264.947491403,nan,nan,nan,nan
1,143,1,1,1.0,1.0,0.422740420792,0,0.0,0.0,0.0,0.334740157259,0.0853152947446,0.249424862514,0.420055452003,0.0853152947446,0.323721572757,256,0.481312611765,0.257047908656,0.656065722404,nan,nan,nan,nan,0.0,0.0,0.0,nan,93.2389891259,265.652725613,266.152751557,266.075466034,nan,nan,nan,nan
1,144,1,1,1.0,1.0,0.334535682574,0,0.0,0.0,0.0,0.335355543717,0.0853321451197,0.250023398597,0.420687688837,0.0853321451197,0.3507232056,142,1.0,-0.289568116499,-0.0146273521697,nan,nan,nan,nan,0.0,0.0,0.0,nan,93.2389891259,266.652891824,267.152885552,266.987427507,nan,nan,nan,nan
1,145,1,1,1.0,1.0,0.32642267691,0,0.0,0.0,0.0,0.335349850237,0.0850353640152,0.250314486222,0.420385214252,0.0850353640152,0.361232926759,261,0.427225806086,0.276617811781,0.653674462902,nan,nan,nan,nan,0.0,0.0,0.0,nan,93.2389891259,267.652988472,268.153029812,267.979411149,nan,nan,nan,nan
1,146,1,1,1.0,1.0,0.310259671882,0,0.0,0.0,0.0,0.335288283524,0.0847448517808,0.250543431743,0.420033135305,0.0847448517808,0.323739343788,468,0.481236483515,0.363131620867,-1.0,nan,nan,nan,nan,0.0,0.0,0.0,nan,93.2389891259,268.653135868,269.153160386,268.96339554,nan,nan,nan,nan
1,147,1,1,1.0,1.0,0.325796603691,0,0.0,0.0,0.0,0.335116854677,0.0844793553755,0.250637499302,0.419596210053,0.0844793553755,0.320826317494,182,1.0,-0.118523835432,0.347089474713,nan,nan,nan,nan,0.0,0.0,0.0,nan,93.2389891259,269.661576735,270.161616934,269.987373339,nan,nan,nan,nan
1,148,1,1,1.0,1.0,0.269635628909,0,0.0,0.0,0.0,0.33505345161,0.0841950057864,0.250858445823,0.419248457396,0.0841950057864,0.301897301494,428,0.170378320166,0.443486568519,-0.86866140055,nan,nan,nan,nan,0.0,0.0,0.0,nan,93.2389891259,270.661723845,271.16175264,270.931359474,nan,nan,nan,nan
1,149,1,1,1.0,1.0,0.269495646469,0,0.0,0.0,0.0,0.334611439294,0.0840810431503,0.250530396144,0.418692482444,0.0840810431503,0.288309293023,161,1.0,-0.223158351501,0.167490545043,nan,nan,nan,nan,0.0,0.0,0.0,nan,93.2389891259,271.661850998,272.161876087,271.931346645,nan,nan,nan,nan
1,150,1,1,1.0,1.0,0.27737829322,0,0.0,0.0,0.0,0.33417442055,0.0839669013811,0.250207519169,0.418141321931,0.0839669013811,0.272169856199,323,-0.11001989341,0.43965344528,0.375855360355,nan,nan,nan,nan,0.0,0.0,0.0,nan,93.2389891259,272.66197473,273.162012078,272.939353024,nan,nan,nan,nan
1,151,1,1,1.0,1.0,0.260848083999,0,0.0,0.0,0.0,0.333795779701,0.083814077312,0.249981702389,0.417609857013,0.083814077312,0.269240674563,169,1.0,-0.185917379452,0.239118302078,nan,nan,nan,nan,0.0,0.0,0.0,nan,93.2389891259,273.670430422,274.170468055,273.931278506,nan,nan,nan,nan
1,152,0,0,0.0,1.0,0.452702976298,0,0.0,0.0,0.0,0.333312682379,0.0837453590222,0.249567323357,0.417058041401,0.0837453590222,0.330309784506,441,0.266287261384,0.422891888867,-1.0,nan,nan,nan,nan,0.0,0.0,0.0,nan,93.2389891259,274.670591217,275.170621153,275.123294193,nan,nan,nan,nan
1,153,1,1,1.0,1.0,0.40456862282,0,0.0,0.0,0.0,0.334098144839,0.0840256197032,0.250072525136,0.418123764542,0.0840256197032,0.372706561039,496,0.714833717156,0.274923884212,-1.0,nan,nan,nan,nan,0.0,0.0,0.0,nan,93.2389891259,275.670691286,276.170722362,276.075259909,nan,nan,nan,nan
1,154,1,1,1.0,1.0,0.324092294089,0,0.0,0.0,0.0,0.334558736198,0.0839428670738,0.250615869124,0.418501603272,0.0839428670738,0.393787964402,145,1.0,-0.281667413287,0.0150551701241,nan,nan,nan,nan,0.0,0.0,0.0,nan,93.2389891259,276.679150685,277.179207134,277.003242979,nan,nan,nan,nan
1,155,0,0,0.0,1.0,0.475906166248,0,0.0,0.0,0.0,0.334490772288,0.0836741045821,0.250816667706,0.41816487687,0.0836741045821,0.401522361053,81,1.0,-0.193804253699,-0.694219169772,nan,nan,nan,nan,0.0,0.0,0.0,nan,93.2389891259,277.67929922,278.179341129,278.155205387,nan,nan,nan,nan
1,156,1,1,1.0,1.0,0.347461980768,0,0.0,0.0,0.0,0.335403129669,0.0841687277006,0.251234401968,0.419571857369,0.0841687277006,0.382486813702,416,0.087881616042,0.458117504295,-0.630165317015,nan,nan,nan,nan,0.0,0.0,0.0,nan,93.2389891259,278.687747215,279.187810506,279.035209196,nan,nan,nan,nan
1,157,0,0,0.0,1.0,0.500188163947,0,0.0,0.0,0.0,0.335480429996,0.0839040418696,0.251576388127,0.419384471866,0.0839040418696,0.441185436988,313,-0.0530221528698,0.42279583272,0.448797959603,nan,nan,nan,nan,0.0,0.0,0.0,nan,93.2389891259,279.687964459,280.187988407,280.188152623,nan,nan,nan,nan
1,158,1,1,1.0,1.0,0.363159137312,0,0.0,0.0,0.0,0.336529523843,0.0846566090856,0.251872914758,0.421186132929,0.0846566090856,0.403603094009,49,1.0,-0.027785429985,-1.0,nan,nan,nan,nan,0.0,0.0,0.0,nan,93.2389891259,280.688016917,281.188045141,281.051176054,nan,nan,nan,nan
1,159,1,1,1.0,1.0,0.298950443976,0,0.0,0.0,0.0,0.336698065701,0.0844147033215,0.252283362379,0.421112769022,0.0844147033215,0.387432581745,477,0.555879874869,0.337784025865,-1.0,nan,nan,nan,nan,0.0,0.0,0.0,nan,93.2389891259,281.688170299,282.188176571,281.987120743,nan,nan,nan,nan
1,160,1,1,1.0,1.0,0.346838473808,0,0.0,0.0,0.0,0.336460659275,0.084201726145,0.25225893313,0.42066238542,0.084201726145,0.336316018365,239,0.665069831863,0.183388857662,0.640549267122,nan,nan,nan,nan,0.0,0.0,0.0,nan,93.2389891259,282.688287474,283.188313988,283.035125948,nan,nan,nan,nan
1,161,1,1,1.0,1.0,0.410664852243,0,0.0,0.0,0.0,0.336525520615,0.0839421677762,0.252583352839,0.420467688392,0.0839421677762,0.352151256676,339,-0.164955840019,0.45996923152,0.241423096872,nan,nan,nan,nan,0.0,0.0,0.0,nan,93.2389891259,283.688414627,284.188459102,284.099079479,nan,nan,nan,nan
1,162,1,1,1.0,1.0,0.346546249464,0,0.0,0.0,0.0,0.336986013358,0.0838835522646,0.253102461094,0.420869565623,0.0838835522646,0.368016525172,507,0.805995650865,0.232688349973,-1.0,nan,nan,nan,nan,0.0,0.0,0.0,nan,93.2389891259,284.688542065,285.188562592,285.035088315,nan,nan,nan,nan
1,163,1,1,1.0,1.0,0.306399173103,0,0.0,0.0,0.0,0.337045027162,0.0836276040859,0.253417423076,0.420672631247,0.0836276040859,0.35453675827,114,1.0,-0.303747463913,-0.303859371662,nan,nan,nan,nan,0.0,0.0,0.0,nan,93.2389891259,285.688659525,286.188697728,285.995058699,nan,nan,nan,nan
1,164,1,1,1.0,1.0,0.322244865354,0,0.0,0.0,0.0,0.336857015787,0.0834050190982,0.253451996689,0.420262034885,0.0834050190982,0.325063429307,15,0.965734432428,0.145352784795,-1.0,nan,nan,nan,nan,0.0,0.0,0.0,nan,93.2389891259,286.688803499,287.188839707,287.011048364,nan,nan,nan,nan
1,165,1,1,1.0,1.0,0.33006450627,0,0.0,0.0,0.0,0.336767917309,0.0831581273024,0.253609790006,0.419926044611,0.0831581273024,0.319569514909,499,0.739831889234,0.263827757734,-1.0,nan,nan,nan,nan,0.0,0.0,0.0,nan,93.2389891259,287.688936925,288.188948899,288.019001431,nan,nan,nan,nan
1,166,1,1,1.0,1.0,0.329606925137,0,0.0,0.0,0.0,0.336727290575,0.0829073824895,0.253819908086,0.419634673065,0.0829073824895,0.327305432254,184,1.0,-0.107671891867,0.362640045218,nan,nan,nan,nan,0.0,0.0,0.0,nan,93.2389891259,288.697373515,289.197427684,289.026980441,nan,nan,nan,nan
1,167,1,1,1.0,1.0,0.361414628569,0,0.0,0.0,0.0,0.336684396807,0.0826591205889,0.254025276219,0.419343517396,0.0826591205889,0.340362019992,297,0.0686262056446,0.388646276542,0.544904663634,nan,nan,nan,nan,0.0,0.0,0.0,nan,93.2389891259,289.697525187,290.197565956,290.058939815,nan,nan,nan,nan
1,168,1,1,1.0,1.0,0.672969781794,0,0.0,1.0,0.0,0.336832482028,0.0824333495287,0.254399132499,0.419265831556,0.0824333495287,0.4546637785,120,1.0,-0.310161497659,-0.240162905937,nan,nan,nan,nan,0.0,0.0,0.0,nan,93.2389891259,290.70598373,291.206047307,291.378953512,nan,nan,nan,nan
1,169,1,1,1.0,1.0,0.456831465941,1,0.0,0.0,1.0,0.338833299288,0.0861588950548,0.252674404233,0.424992194343,0.0861588950548,0.497071958768,59,1.0,-0.0814409933332,-1.0,49.7636416907,40.2363583093,-1.24801669073,57.0,1.0,-0.0707313323512,-1.0,1.62550398009,93.2389891259,291.706108888,292.206134547,292.162940354,295.173183034,296.173109194,293.531314486,295.164861337
1,170,1,1,1.0,1.0,0.317110838369,0,0.0,0.0,0.0,0.339531513292,0.0863789933258,0.253152519966,0.425910506618,0.0863789933258,0.482304028701,275,0.279002393219,0.326185254474,0.630178474337,nan,nan,nan,nan,0.0,0.0,0.0,nan,93.2389891259,296.381707549,296.881753164,296.698818387,nan,nan,nan,nan
1,171,1,1,1.0,1.0,0.419909122866,0,0.0,0.0,0.0,0.339399626969,0.0861416269582,0.253258000011,0.425541253927,0.0861416269582,0.397950475725,91,1.0,-0.237709898716,-0.562722318432,nan,nan,nan,nan,0.0,0.0,0.0,nan,93.2389891259,297.406863939,297.906879049,297.826773061,nan,nan,nan,nan
1,172,1,1,1.0,1.0,0.299479868729,0,0.0,0.0,0.0,0.339870442734,0.0861084742229,0.253761968511,0.425978916957,0.0861084742229,0.345499943321,423,0.135229581944,0.450080889006,-0.750039916123,nan,nan,nan,nan,0.0,0.0,0.0,nan,93.2389891259,298.415303666,298.915354983,298.714783534,nan,nan,nan,nan
1,173,1,1,1.0,1.0,0.251290491316,0,0.0,0.0,0.0,0.339635613816,0.0859126912659,0.25372292255,0.425548305082,0.0859126912659,0.323559827637,149,1.0,-0.269478519393,0.0541436597792,nan,nan,nan,nan,0.0,0.0,0.0,nan,93.2389891259,299.415459614,299.915497817,299.666750105,nan,nan,nan,nan
1,174,1,1,1.0,1.0,0.234828134999,0,0.0,0.0,0.0,0.339124948368,0.0859254319618,0.253199516406,0.42505038033,0.0859254319618,0.261866165015,349,-0.175656888649,0.468768509344,0.147945183432,nan,nan,nan,nan,0.0,0.0,0.0,nan,93.2389891259,300.423913025,300.923939254,300.65874116,nan,nan,nan,nan
1,175,1,1,1.0,1.0,0.266332780011,0,1.0,0.0,0.0,0.338525541394,0.0860401344617,0.252485406933,0.424565675856,0.0860401344617,0.250817135442,294,0.0948761993654,0.381212130724,0.559858230992,nan,nan,nan,nan,0.0,0.0,0.0,nan,93.2389891259,301.432360734,301.932399793,301.698693514,nan,nan,nan,nan
1,176,1,1,1.0,1.0,0.289870959241,1,0.0,0.0,1.0,0.338113011329,0.0859663534698,0.25214665786,0.424079364799,0.0859663534698,0.263677291417,81,1.0,-0.193804253699,-0.694219169772,46.0609116903,43.9390883097,-13.0140366903,62.0,1.0,-0.0974372467467,-1.0,0.950424480718,93.2389891259,302.44082555,302.940868314,302.730696509,305.232852983,306.232456698,304.266039986,305.224496505
1,177,1,1,1.0,1.0,0.321264416445,0,0.0,0.0,0.0,0.337838908761,0.0857984394683,0.252040469292,0.423637348229,0.0857984394683,0.292489385232,321,-0.0999433513493,0.43654647086,0.391174984052,nan,nan,nan,nan,0.0,0.0,0.0,nan,93.2389891259,306.441352694,306.941391753,306.762617111,nan,nan,nan,nan
1,178,1,1,1.0,1.0,0.353140257765,0,0.0,0.0,0.0,0.337745267561,0.0855647464107,0.25218052115,0.423310013972,0.0855647464107,0.32142521115,367,-0.15309091083,0.477560897992,-0.0350816338538,nan,nan,nan,nan,0.0,0.0,0.0,nan,93.2389891259,307.441489541,307.941542569,307.794629799,nan,nan,nan,nan
1,179,1,1,1.0,1.0,0.328956048936,0,0.0,0.0,0.0,0.33783175627,0.0853318158537,0.252499940416,0.423163572124,0.0853318158537,0.334453574382,439,0.251144291643,0.426392204401,-1.0,nan,nan,nan,nan,0.0,0.0,0.0,nan,93.2389891259,308.441625817,308.941645489,308.770581866,nan,nan,nan,nan
1,180,1,1,1.0,1.0,0.288559798151,0,0.0,0.0,0.0,0.337782171313,0.0850956965059,0.252686474807,0.422877867819,0.0850956965059,0.323552034951,496,0.714833717156,0.274923884212,-1.0,nan,nan,nan,nan,0.0,0.0,0.0,nan,93.2389891259,309.450064974,309.950117432,309.738624772,nan,nan,nan,nan
1,181,1,1,1.0,1.0,0.27230898384,0,0.0,0.0,0.0,0.337508713684,0.0849378225433,0.252570891141,0.422446536228,0.0849378225433,0.296608276976,268,0.35230222188,0.302367520405,0.645005310408,nan,nan,nan,nan,0.0,0.0,0.0,nan,93.2389891259,310.450221777,310.950249146,310.722530761,nan,nan,nan,nan
1,182,1,1,1.0,1.0,0.255853184499,0,0.0,0.0,0.0,0.337148494182,0.0848406235526,0.25230787063,0.421989117735,0.0848406235526,0.272240655497,374,-0.132039125116,0.478634076427,-0.110628443238,nan,nan,nan,nan,0.0,0.0,0.0,nan,93.2389891259,311.458662359,311.95870769,311.714515544,nan,nan,nan,nan
1,183,1,1,1.0,1.0,0.279692710843,0,0.0,0.0,0.0,0.336701816657,0.0848203725417,0.251881444115,0.421522189198,0.0848203725417,0.269284959727,152,1.0,-0.259184487343,0.0830625546756,nan,nan,nan,nan,0.0,0.0,0.0,nan,93.2389891259,312.458803767,312.958835413,312.738496478,nan,nan,nan,nan
1,184,0,0,0.0,1.0,0.439465921838,0,0.0,0.0,0.0,0.336390291488,0.0846926451227,0.251697646366,0.421082936611,0.0846926451227,0.32500393906,478,0.56422249903,0.334793662244,-1.0,nan,nan,nan,nan,0.0,0.0,0.0,nan,93.2389891259,313.459013029,313.958992502,313.89847895,nan,nan,nan,nan
1,185,1,1,1.0,1.0,0.335103880614,0,0.0,0.0,0.0,0.336950485131,0.0848014727778,0.252149012354,0.421751957909,0.0848014727778,0.351420837765,166,1.0,-0.20036215083,0.21267421211,nan,nan,nan,nan,0.0,0.0,0.0,nan,93.2389891259,314.467384617,314.967431088,314.802488498,nan,nan,nan,nan
1,186,1,1,1.0,1.0,0.318592202384,0,0.0,0.0,0.0,0.336940503485,0.0845720774317,0.252368426054,0.421512580917,0.0845720774317,0.364387334945,287,0.159501648714,0.36255249221,0.590751920292,nan,nan,nan,nan,0.0,0.0,0.0,nan,93.2389891259,315.475874236,315.975895048,315.794466438,nan,nan,nan,nan
1,187,1,1,1.0,1.0,0.270096630789,0,0.0,0.0,0.0,0.336841856705,0.0843550981996,0.252486758506,0.421196954905,0.0843550981996,0.307930904596,345,-0.173519535469,0.465595146217,0.186119282857,nan,nan,nan,nan,0.0,0.0,0.0,nan,93.2389891259,316.484330213,316.984362999,316.754426844,nan,nan,nan,nan
1,188,1,1,1.0,1.0,0.365600137971,0,0.0,0.0,0.0,0.336484930363,0.0842699591304,0.252214971233,0.420754889494,0.0842699591304,0.318096323715,149,1.0,-0.269478519393,0.0541436597792,nan,nan,nan,nan,0.0,0.0,0.0,nan,93.2389891259,317.492797309,317.992819832,317.858397447,nan,nan,nan,nan
1,189,1,1,1.0,1.0,0.421125631779,0,0.0,0.0,0.0,0.336639798489,0.0840722159974,0.252567582492,0.420712014486,0.0840722159974,0.352274133513,19,0.99625917486,0.126374530333,-1.0,nan,nan,nan,nan,0.0,0.0,0.0,nan,93.2389891259,318.501239032,319.001285788,318.922364663,nan,nan,nan,nan
1,190,1,1,1.0,1.0,0.308642031625,0,0.0,0.0,0.0,0.33708681348,0.0840732214286,0.253013592051,0.421160034909,0.0840732214286,0.365122600459,157,1.0,-0.240048375319,0.130425901556,nan,nan,nan,nan,0.0,0.0,0.0,nan,93.2389891259,319.509712685,320.00975545,319.818354717,nan,nan,nan,nan
1,191,0,0,1.0,0.0,0.340433769394,0,0.0,0.0,0.0,0.336937104102,0.0838769395341,0.253060164568,0.420814043636,0.0838769395341,0.356733810933,348,-0.175384772129,0.468017843042,0.157582163916,nan,nan,nan,nan,0.0,0.0,0.0,nan,93.2389891259,320.509886309,321.009920236,320.850320078,nan,nan,nan,nan
1,192,1,1,1.0,1.0,0.65991290845,0,0.0,0.0,0.0,0.33695541125,0.0836574588332,0.253297952417,0.420612870083,0.0836574588332,0.436329569823,476,0.547545041103,0.340739382997,-1.0,nan,nan,nan,nan,0.0,0.0,0.0,nan,93.2389891259,321.518379349,322.018384481,322.178292258,nan,nan,nan,nan
1,193,1,1,1.0,1.0,0.355518822093,0,0.0,0.0,0.0,0.338637481548,0.086617131007,0.252020350541,0.425254612555,0.086617131007,0.451955166645,77,1.0,-0.174593022316,-0.756267193339,nan,nan,nan,nan,0.0,0.0,0.0,nan,93.2389891259,322.526766903,323.026804251,322.882285725,nan,nan,nan,nan
1,194,1,1,1.0,1.0,0.29937039176,0,0.0,1.0,0.0,0.338724949634,0.0864009439351,0.252324005699,0.425125893569,0.0864009439351,0.438267374101,18,0.988682696815,0.131162580546,-1.0,nan,nan,nan,nan,0.0,0.0,0.0,nan,93.2389891259,323.526908026,324.026944804,323.826278418,nan,nan,nan,nan
1,195,1,1,1.0,1.0,0.290886760224,1,0.0,0.0,1.0,0.338522091088,0.0862240416219,0.252298049466,0.42474613271,0.0862240416219,0.315258658025,150,1.0,-0.266152531622,0.0638227105866,43.1159497689,46.8840502311,-58.5846997689,67.0,1.0,-0.12380466598,-1.0,1.54213819327,93.2389891259,324.535374837,325.035417601,324.826261597,327.919106004,328.919269365,326.360600962,327.910789439
1,196,1,1,1.0,1.0,0.27455440769,0,0.0,0.0,0.0,0.33827780734,0.0860699490966,0.252207858243,0.424347756436,0.0860699490966,0.288270519891,270,0.331159066004,0.309369715406,0.641393874915,nan,nan,nan,nan,0.0,0.0,0.0,nan,93.2389891259,329.127615409,329.627664445,329.402169817,nan,nan,nan,nan
1,197,1,1,1.0,1.0,0.28237404814,0,0.0,0.0,0.0,0.337952687954,0.0859700648174,0.251982623137,0.423922752771,0.0859700648174,0.282605072018,226,0.801265930663,0.120208988367,0.60458276857,nan,nan,nan,nan,0.0,0.0,0.0,nan,93.2389891259,330.127770502,330.627789318,330.41014455,nan,nan,nan,nan
1,198,1,1,1.0,1.0,0.250203416683,0,0.0,0.0,0.0,0.337670562879,0.0858425044056,0.251828058473,0.423513067284,0.0858425044056,0.269043957504,113,1.0,-0.302191989669,-0.314576349441,nan,nan,nan,nan,0.0,0.0,0.0,nan,93.2389891259,331.12788454,331.627920177,331.378087957,nan,nan,nan,nan
1,199,1,1,1.0,1.0,0.250064289663,0,0.0,0.0,0.0,0.337228809615,0.0858496503644,0.251379159251,0.423078459979,0.0858496503644,0.260880584829,188,1.0,-0.0857393506835,0.392804289229,nan,nan,nan,nan,0.0,0.0,0.0,nan,93.2389891259,332.12801711,332.62806073,332.3780814,nan,nan,nan,nan
1,200,1,1,1.0,1.0,0.233952031936,0,1.0,0.0,0.0,0.336790796952,0.0858551907797,0.250935606172,0.422645987732,0.0858551907797,0.244739912761,239,0.665069831863,0.183388857662,0.640549267122,nan,nan,nan,nan,0.0,0.0,0.0,nan,93.2389891259,333.12814797,333.628187599,333.362100002,nan,nan,nan,nan
1,201,1,1,1.0,1.0,0.281787604094,1,0.0,0.0,1.0,0.336276603127,0.0859469189532,0.250329684174,0.42222352208,0.0859469189532,0.255267975231,66,1.0,-0.118568705386,-1.0,47.1210963967,42.8789036033,-3.52734639666,61.0,1.0,-0.0921163965413,-1.0,1.12543669716,93.2389891259,334.1282794,334.628313041,334.410067004,337.095303084,338.094626834,335.953488419,337.086992791
1,202,0,0,1.0,0.0,0.266436555423,0,0.0,0.0,0.0,0.336005513579,0.0858185304859,0.250186983094,0.421824044065,0.0858185304859,0.260725397151,329,-0.136053278316,0.448203788942,0.3278337444,nan,nan,nan,nan,0.0,0.0,0.0,nan,93.2389891259,338.295531561,338.795561781,338.561968116,nan,nan,nan,nan
1,203,1,1,1.0,1.0,0.281997435261,0,0.0,0.0,0.0,0.335661112797,0.085744980382,0.249916132415,0.421406093179,0.085744980382,0.276740531592,169,1.0,-0.185917379452,0.239118302078,nan,nan,nan,nan,0.0,0.0,0.0,nan,93.2389891259,339.303965871,339.803985828,339.585963306,nan,nan,nan,nan
1,204,1,1,1.0,1.0,0.273896688595,0,0.0,0.0,0.0,0.335396759705,0.0856160043159,0.249780755389,0.421012764021,0.0856160043159,0.274110226426,27,1.0,0.0870912575778,-1.0,nan,nan,nan,nan,0.0,0.0,0.0,nan,93.2389891259,340.304085326,340.804116687,340.577982015,nan,nan,nan,nan
1,205,1,1,1.0,1.0,0.265352331102,0,0.0,0.0,0.0,0.335095288768,0.0855138464265,0.249581442342,0.420609135195,0.0855138464265,0.273748818319,492,0.681403316433,0.289222019555,-1.0,nan,nan,nan,nan,0.0,0.0,0.0,nan,93.2389891259,341.312537597,341.812582643,341.577889929,nan,nan,nan,nan
1,206,1,1,1.0,1.0,0.265201230068,0,0.0,0.0,0.0,0.334755079219,0.0854433034319,0.249311775787,0.420198382651,0.0854433034319,0.268150083255,85,1.0,-0.212156452387,-0.638781227021,nan,nan,nan,nan,0.0,0.0,0.0,nan,93.2389891259,342.312677865,342.812711507,342.577879095,nan,nan,nan,nan
1,207,1,1,1.0,1.0,0.273043963592,0,0.0,0.0,0.0,0.334417439174,0.0853726458699,0.249044793304,0.419790085044,0.0853726458699,0.267865841587,503,0.773020196022,0.248538461814,-1.0,nan,nan,nan,nan,0.0,0.0,0.0,nan,93.2389891259,343.312804163,343.812860042,343.585848127,nan,nan,nan,nan
1,208,1,1,1.0,1.0,0.29692140827,0,0.0,0.0,0.0,0.334120948954,0.0852724299027,0.248848519051,0.419393378857,0.0852724299027,0.27838886731,91,1.0,-0.237709898716,-0.562722318432,nan,nan,nan,nan,0.0,0.0,0.0,nan,93.2389891259,344.312943005,344.812968094,344.609864414,nan,nan,nan,nan
1,209,1,1,1.0,1.0,0.304777826648,0,0.0,0.0,0.0,0.333942105009,0.0851061081016,0.248835996907,0.41904821311,0.0851061081016,0.29158106617,191,1.0,-0.0691479807067,0.414571651978,nan,nan,nan,nan,0.0,0.0,0.0,nan,93.2389891259,345.313064456,345.813098668,345.617842283,nan,nan,nan,nan
1,210,1,1,1.0,1.0,0.272589519154,0,0.0,0.0,0.0,0.333802563007,0.0849261094489,0.248876453558,0.418728672456,0.0849261094489,0.291429584691,502,0.764740937618,0.25241357569,-1.0,nan,nan,nan,nan,0.0,0.0,0.0,nan,93.2389891259,346.313196457,346.813246633,346.585785976,nan,nan,nan,nan
1,211,1,1,1.0,1.0,0.272455238272,0,0.0,0.0,0.0,0.333511072322,0.0848283983088,0.248682674013,0.418339470631,0.0848283983088,0.283274194691,66,1.0,-0.118568705386,-1.0,nan,nan,nan,nan,0.0,0.0,0.0,nan,93.2389891259,347.31333815,347.813362668,347.585793388,nan,nan,nan,nan
1,212,1,1,1.0,1.0,0.288280688226,0,0.0,0.0,0.0,0.333221708179,0.0847309695959,0.248490738584,0.417952677775,0.0847309695959,0.277775148551,440,0.258699398066,0.424657399123,-1.0,nan,nan,nan,nan,0.0,0.0,0.0,nan,93.2389891259,348.313466158,348.813486115,348.601746846,nan,nan,nan,nan
1,213,1,1,1.0,1.0,0.272144767456,0,0.0,0.0,0.0,0.333009722236,0.084586963162,0.248422759074,0.417596685398,0.084586963162,0.277626897984,83,1.0,-0.203097876184,-0.665876706514,nan,nan,nan,nan,0.0,0.0,0.0,nan,93.2389891259,349.31360158,349.813622106,349.585746347,nan,nan,nan,nan
1,214,1,1,1.0,1.0,0.303683624603,0,0.0,0.0,0.0,0.332723971275,0.0844906714838,0.248233299791,0.417214642759,0.0844906714838,0.288036360095,379,-0.113535935895,0.478614986251,-0.165970515924,nan,nan,nan,nan,0.0,0.0,0.0,nan,93.2389891259,350.32208179,350.822117142,350.625765414,nan,nan,nan,nan
1,215,1,1,1.0,1.0,0.26949479105,0,0.0,0.0,0.0,0.33258826872,0.0843162956618,0.248271973058,0.416904564382,0.0843162956618,0.281774394369,144,1.0,-0.284423189345,0.00519445478499,nan,nan,nan,nan,0.0,0.0,0.0,nan,93.2389891259,351.37217533,351.872216099,351.641670121,nan,nan,nan,nan
1,216,1,1,1.0,1.0,0.261042234488,0,0.0,0.0,0.0,0.332294810685,0.0842294524653,0.248065358219,0.41652426315,0.0842294524653,0.278073550047,7,0.9030914636,0.181853060355,-1.0,nan,nan,nan,nan,0.0,0.0,0.0,nan,93.2389891259,352.380635869,352.880679489,352.641678104,nan,nan,nan,nan
1,217,1,1,1.0,1.0,0.276895339135,0,0.0,0.0,0.0,0.331964937647,0.0841733376831,0.247791599964,0.41613827533,0.0841733376831,0.269144121557,127,1.0,-0.31111021432,-0.167036648065,nan,nan,nan,nan,0.0,0.0,0.0,nan,93.2389891259,353.380778703,353.880812059,353.657674042,nan,nan,nan,nan
1,218,1,1,1.0,1.0,0.284720681608,0,0.0,0.0,0.0,0.331711160695,0.0840619492066,0.247649211488,0.415773109902,0.0840619492066,0.27421941841,235,0.707591924495,0.164537776567,0.631659631194,nan,nan,nan,nan,0.0,0.0,0.0,nan,93.2389891259,354.380919541,354.88094748,354.665640222,nan,nan,nan,nan
1,219,1,1,1.0,1.0,0.0605548904277,0,1.0,0.0,0.0,0.331495608039,0.0839290118689,0.24756659617,0.415424619908,0.0839290118689,0.207390303724,430,0.184725017221,0.440645728776,-0.941904167281,nan,nan,nan,nan,0.0,0.0,0.0,nan,93.2389891259,355.381056387,355.881105709,355.441611277,nan,nan,nan,nan
1,220,1,1,1.0,1.0,0.188062532339,1,0.0,0.0,1.0,0.330258435812,0.0857063826363,0.244552053176,0.415964818448,0.0857063826363,0.177779368125,262,0.416452475899,0.2804144186,0.652815538838,-88.703936502,178.703936502,-5.51481349802,254.0,0.503011129055,0.248947817922,0.65613358125,2.31725167623,93.2389891259,356.389508658,356.889532892,356.57757119,360.548345326,361.548474474,358.21470941,360.540004242
1,221,1,1,1.0,1.0,0.348929660395,0,0.0,0.0,0.0,0.329612090796,0.0860446678063,0.24356742299,0.415656758603,0.0860446678063,0.199182361054,144,1.0,-0.284423189345,0.00519445478499,nan,nan,nan,nan,0.0,0.0,0.0,nan,93.2389891259,361.748535885,362.248557552,362.097465545,nan,nan,nan,nan
1,222,1,1,1.0,1.0,0.30082096532,0,0.0,0.0,0.0,0.329699500614,0.0858595651409,0.243839935473,0.415559065754,0.0858595651409,0.279271052685,335,-0.155595990888,0.455627721073,0.276893227044,nan,nan,nan,nan,0.0,0.0,0.0,nan,93.2389891259,362.748659902,363.248698675,363.049480867,nan,nan,nan,nan
1,223,1,1,1.0,1.0,0.244646590669,0,0.0,0.0,0.0,0.329569417121,0.0856877939174,0.243881623204,0.415257211039,0.0856877939174,0.298132405461,507,0.805995650865,0.232688349973,-1.0,nan,nan,nan,nan,0.0,0.0,0.0,nan,93.2389891259,363.748797033,364.248819841,363.993443624,nan,nan,nan,nan
1,224,1,1,1.0,1.0,0.252520685084,0,0.0,0.0,0.0,0.329188597272,0.0856835325426,0.243505064729,0.414872129814,0.0856835325426,0.265996080358,76,1.0,-0.169674511773,-0.773365826749,nan,nan,nan,nan,0.0,0.0,0.0,nan,93.2389891259,364.748917629,365.248958969,365.001438315,nan,nan,nan,nan
1,225,1,1,1.0,1.0,0.252330525313,0,0.0,0.0,0.0,0.328846329807,0.0856447093023,0.243201620504,0.414491039109,0.0856447093023,0.249832600355,14,0.95801504718,0.150023555696,-1.0,nan,nan,nan,nan,0.0,0.0,0.0,nan,93.2389891259,365.749054761,366.24907985,366.001385286,nan,nan,nan,nan
1,226,1,1,1.0,1.0,0.228183664382,0,0.0,0.0,0.0,0.328506259564,0.0856056146507,0.242900644914,0.414111874215,0.0856056146507,0.244344958259,269,0.34171296506,0.305888347675,0.643262349404,nan,nan,nan,nan,0.0,0.0,0.0,nan,93.2389891259,366.749181914,367.249208713,366.977365579,nan,nan,nan,nan
1,227,1,1,1.0,1.0,0.228093573358,0,1.0,0.0,0.0,0.328062354276,0.0856751523962,0.24238720188,0.413737506672,0.0856751523962,0.236202587684,479,0.572572153349,0.331768222426,-1.0,nan,nan,nan,nan,0.0,0.0,0.0,nan,93.2389891259,367.749309638,368.249350977,367.977403211,nan,nan,nan,nan
1,228,1,1,1.0,1.0,0.259907548781,1,0.0,0.0,1.0,0.327621963171,0.0857422144167,0.241879748754,0.413364177587,0.0857422144167,0.238728262174,290,0.131265381085,0.370776544741,0.578206616232,-117.143776743,207.143776743,3.23752674269,295.0,0.0860222946478,0.38372732295,0.554986075565,2.07554186974,93.2389891259,368.749454467,369.249491245,369.009362016,372.666581613,373.665862313,370.574664626,372.658252789
1,229,1,1,1.0,1.0,0.262453180272,0,0.0,0.0,0.0,0.327324970125,0.0856709135019,0.241654056623,0.412995883627,0.0856709135019,0.250151434137,224,0.821619416966,0.11002478857,0.597264883709,nan,nan,nan,nan,0.0,0.0,0.0,nan,93.2389891259,373.866772457,374.366816647,374.129225637,nan,nan,nan,nan
1,230,0,0,0.0,1.0,0.406288042665,0,0.0,0.0,0.0,0.3270416872,0.0855906069578,0.241451080242,0.412632294158,0.0855906069578,0.309549590573,107,1.0,-0.290089771429,-0.379592780214,nan,nan,nan,nan,0.0,0.0,0.0,nan,93.2389891259,374.866924698,375.366960336,375.273212741,nan,nan,nan,nan
1,231,1,1,1.0,1.0,0.350166411139,0,0.0,0.0,0.0,0.327386236571,0.0855633477107,0.241822888861,0.412949584282,0.0855633477107,0.339635878025,202,1.0,-0.00802826454356,0.487596984314,nan,nan,nan,nan,0.0,0.0,0.0,nan,93.2389891259,375.867037597,376.367080077,376.217204008,nan,nan,nan,nan
1,232,1,1,1.0,1.0,0.294030239806,0,0.0,0.0,0.0,0.327484852046,0.0853910429093,0.242093809136,0.412875894955,0.0853910429093,0.350161564536,65,1.0,-0.113312155659,-1.0,nan,nan,nan,nan,0.0,0.0,0.0,nan,93.2389891259,376.867152491,377.367199247,377.161182731,nan,nan,nan,nan
1,233,1,1,1.0,1.0,0.26985857496,0,0.0,0.0,0.0,0.327340651131,0.0852349937547,0.242105657376,0.412575644886,0.0852349937547,0.304685075302,205,1.0,0.00854800403903,0.505535240796,nan,nan,nan,nan,0.0,0.0,0.0,nan,93.2389891259,377.8672805,378.367322124,378.137139075,nan,nan,nan,nan
1,234,1,1,1.0,1.0,0.341715565417,0,0.0,0.0,0.0,0.327093946941,0.0851348582607,0.241959088681,0.412228805202,0.0851348582607,0.301868126728,438,0.243622561222,0.428096439079,-1.0,nan,nan,nan,nan,0.0,0.0,0.0,nan,93.2389891259,378.867415065,379.367448992,379.209130631,nan,nan,nan,nan
1,235,1,1,1.0,1.0,0.309586272575,0,0.0,0.0,0.0,0.32715643249,0.0849581055958,0.242198326895,0.412114538086,0.0849581055958,0.307053470984,327,-0.128086156831,0.445480682368,0.344176439252,nan,nan,nan,nan,0.0,0.0,0.0,nan,93.2389891259,379.86754564,380.367577856,380.177131913,nan,nan,nan,nan
1,236,1,1,1.0,1.0,0.301387452986,0,0.0,0.0,0.0,0.327081665852,0.0847848653737,0.242296800479,0.411866531226,0.0847848653737,0.317563096993,258,0.459642287315,0.26499291187,0.655490062901,nan,nan,nan,nan,0.0,0.0,0.0,nan,93.2389891259,380.867675929,381.367709286,381.169063382,nan,nan,nan,nan
1,237,1,1,1.0,1.0,0.293275873177,0,0.0,0.0,0.0,0.326972792069,0.0846215063448,0.242351285724,0.411594298414,0.0846215063448,0.301416532913,366,-0.155593376329,0.477302029306,-0.0244766492797,nan,nan,nan,nan,0.0,0.0,0.0,nan,93.2389891259,381.867806219,382.367834443,382.161082092,nan,nan,nan,nan
1,238,1,1,1.0,1.0,0.261121206917,0,0.0,0.0,0.0,0.326830610977,0.0844710355219,0.242359575455,0.411301646499,0.0844710355219,0.285261511027,179,1.0,-0.13461441766,0.323204131591,nan,nan,nan,nan,0.0,0.0,0.0,nan,93.2389891259,382.86794221,383.367964732,383.129063417,nan,nan,nan,nan
1,239,1,1,1.0,1.0,0.347937522456,0,0.0,0.0,0.0,0.326554521044,0.0844004788774,0.242154042166,0.410954999921,0.0844004788774,0.30077820085,497,0.723174939644,0.271260599794,-1.0,nan,nan,nan,nan,0.0,0.0,0.0,nan,93.2389891259,383.893103161,384.393097459,384.241040684,nan,nan,nan,nan
1,240,1,1,1.0,1.0,0.331817282364,0,0.0,0.0,0.0,0.326643989669,0.0842350327718,0.242408956897,0.410879022441,0.0842350327718,0.313625337246,353,-0.175041255135,0.471490071959,0.108799216003,nan,nan,nan,nan,0.0,0.0,0.0,nan,93.2389891259,384.893216345,385.39323117,385.225033627,nan,nan,nan,nan
1,241,1,1,1.0,1.0,0.435629656538,0,0.0,0.0,0.0,0.326665545055,0.0840600204654,0.24260552459,0.41072556552,0.0840600204654,0.371794820453,502,0.764740937618,0.25241357569,-1.0,nan,nan,nan,nan,0.0,0.0,0.0,nan,93.2389891259,385.893352336,386.393359749,386.328981993,nan,nan,nan,nan
1,242,1,1,1.0,1.0,0.347473955248,0,0.0,0.0,0.0,0.327117678298,0.0841773666135,0.242940311684,0.411295044911,0.0841773666135,0.37164029805,33,1.0,0.0565990290419,-1.0,nan,nan,nan,nan,0.0,0.0,0.0,nan,93.2389891259,386.893460388,387.393500871,387.240934343,nan,nan,nan,nan
1,243,1,1,1.0,1.0,0.347335397732,0,0.0,0.0,0.0,0.327201795145,0.0840134155647,0.24318837958,0.411215210709,0.0840134155647,0.376813003172,197,1.0,-0.035797595552,0.455774741445,nan,nan,nan,nan,0.0,0.0,0.0,nan,93.2389891259,387.893588111,388.393616621,388.240923509,nan,nan,nan,nan
1,244,1,1,1.0,1.0,0.331176669337,0,0.0,0.0,0.0,0.327284649476,0.0838502771221,0.243434372354,0.411134926598,0.0838502771221,0.341995340772,107,1.0,-0.290089771429,-0.379592780214,nan,nan,nan,nan,0.0,0.0,0.0,nan,93.2389891259,388.893721537,389.393754323,389.224898206,nan,nan,nan,nan
1,245,1,1,1.0,1.0,0.29103415506,0,0.0,0.0,0.0,0.327300600377,0.0836786458033,0.243621954574,0.410979246181,0.0836786458033,0.323182074043,243,0.622151010882,0.20168048164,0.647463484622,nan,nan,nan,nan,0.0,0.0,0.0,nan,93.2389891259,389.893850971,390.393888603,390.184885126,nan,nan,nan,nan
1,246,1,1,1.0,1.0,0.114936003927,0,0.0,0.0,0.0,0.32715257407,0.0835397041851,0.243612869885,0.410692278255,0.0835397041851,0.245715609441,187,1.0,-0.0912463489427,0.385383214542,nan,nan,nan,nan,0.0,0.0,0.0,nan,93.2389891259,390.893986962,391.394041986,391.008922966,nan,nan,nan,nan
1,247,0,0,1.0,0.0,0.274732023012,0,0.0,0.0,0.0,0.326289905086,0.0844561495146,0.241833755571,0.4107460546,0.0844561495146,0.226900727333,31,1.0,0.0668515730764,-1.0,nan,nan,nan,nan,0.0,0.0,0.0,nan,93.2389891259,391.894134357,392.394137493,392.16886638,nan,nan,nan,nan
1,248,1,1,1.0,1.0,0.202620155644,0,0.0,0.0,0.0,0.326081168721,0.0843485727519,0.241732595969,0.410429741473,0.0843485727519,0.197429394194,414,0.0747837862165,0.460162189034,-0.600089175003,nan,nan,nan,nan,0.0,0.0,0.0,nan,93.2389891259,392.894237848,393.3942732,393.096858003,nan,nan,nan,nan
1,249,1,1,1.0,1.0,0.290436021984,0,0.0,0.0,0.0,0.325583342055,0.0845411606592,0.241042181396,0.410124502715,0.0845411606592,0.255929400213,260,0.438016636947,0.272781976488,0.654406567654,nan,nan,nan,nan,0.0,0.0,0.0,nan,93.2389891259,393.894372128,394.39440805,394.18480815,nan,nan,nan,nan
1,250,0,0,0.0,1.0,0.426303563174,0,0.0,0.0,0.0,0.325442188159,0.0844005062566,0.241041681903,0.409842694416,0.0844005062566,0.306453246934,451,0.343830962376,0.403518361206,-1.0,nan,nan,nan,nan,0.0,0.0,0.0,nan,93.2389891259,394.894497856,395.394557726,395.320801419,nan,nan,nan,nan
1,251,1,1,1.0,1.0,0.314199713059,0,0.0,0.0,0.0,0.32584563366,0.0844717761987,0.241373857461,0.410317409858,0.0844717761987,0.343646432739,196,1.0,-0.0413610816081,0.449130757868,nan,nan,nan,nan,0.0,0.0,0.0,nan,93.2389891259,395.894629856,396.394666348,396.208829569,nan,nan,nan,nan
1,252,1,1,1.0,1.0,0.314043764956,0,0.0,0.0,0.0,0.325799235569,0.0843065297518,0.241492705818,0.410105765321,0.0843065297518,0.351515680396,16,0.973419431522,0.140652110383,-1.0,nan,nan,nan,nan,0.0,0.0,0.0,nan,93.2389891259,396.894756154,397.394795212,397.208799919,nan,nan,nan,nan
1,253,1,1,1.0,1.0,0.321853712201,0,0.0,0.0,0.0,0.325752586877,0.0841423343746,0.241610252502,0.409894921251,0.0841423343746,0.316699063405,110,1.0,-0.296722754836,-0.346921960777,nan,nan,nan,nan,0.0,0.0,0.0,nan,93.2389891259,397.894884448,398.394923506,398.21673816,nan,nan,nan,nan
1,254,1,1,1.0,1.0,0.377705356572,0,0.0,0.0,0.0,0.325737176305,0.0839762368634,0.241760939441,0.409713413168,0.0839762368634,0.337867611243,270,0.331159066004,0.309369715406,0.641393874915,nan,nan,nan,nan,0.0,0.0,0.0,nan,93.2389891259,398.895006184,399.39505465,399.272711541,nan,nan,nan,nan
1,255,1,1,1.0,1.0,0.393549623434,0,0.0,0.0,0.0,0.32594177544,0.0838739252046,0.242067850235,0.409815700644,0.0838739252046,0.364369564069,100,1.0,-0.270427092546,-0.457439896749,nan,nan,nan,nan,0.0,0.0,0.0,nan,93.2389891259,399.895153294,400.395206607,400.288702917,nan,nan,nan,nan
1,256,1,1,1.0,1.0,0.441402586177,0,0.0,0.0,0.0,0.326206904255,0.0838158829524,0.242391021303,0.410022787208,0.0838158829524,0.404219188727,161,1.0,-0.223158351501,0.167490545043,nan,nan,nan,nan,0.0,0.0,0.0,nan,93.2389891259,400.895277026,401.395329769,401.336679612,nan,nan,nan,nan
1,257,1,1,1.0,1.0,0.42524927482,0,0.0,1.0,0.0,0.326656887388,0.0839600741928,0.242696813195,0.410616961581,0.0839600741928,0.420067161477,282,0.208142307666,0.34807905204,0.609295500931,nan,nan,nan,nan,0.0,0.0,0.0,nan,93.2389891259,401.895406175,402.395432404,402.32065545,nan,nan,nan,nan
1,258,1,1,1.0,1.0,0.473084276542,1,0.0,0.0,1.0,0.327040515354,0.0840210719129,0.243019443442,0.411061587267,0.0840210719129,0.446578712513,230,0.760023132926,0.140224214653,0.61781109556,-77.9574248571,167.957424857,6.23867485712,239.0,0.665069831863,0.183388857662,0.640549267122,1.84221420018,93.2389891259,402.8955396,403.395565829,403.368623877,406.579306576,407.579076502,404.720745198,406.57098716
1,259,1,1,1.0,1.0,0.442998844199,0,0.0,0.0,0.0,0.327606576444,0.0843476569366,0.243258919508,0.411954233381,0.0843476569366,0.44711079852,439,0.251144291643,0.426392204401,-1.0,nan,nan,nan,nan,0.0,0.0,0.0,nan,93.2389891259,407.829511133,408.329556748,408.272509977,nan,nan,nan,nan
1,260,1,1,1.0,1.0,0.490528222173,0,0.0,0.0,0.0,0.328052106436,0.0844882845883,0.243563821847,0.412540391024,0.0844882845883,0.468870447638,119,1.0,-0.309446327048,-0.250710895617,nan,nan,nan,nan,0.0,0.0,0.0,nan,93.2389891259,408.837972527,409.346338699,409.328500749,nan,nan,nan,nan
1,261,1,1,1.0,1.0,0.394049968105,0,0.0,1.0,0.0,0.328677014573,0.0849232446615,0.243753769912,0.413600259235,0.0849232446615,0.442525678159,294,0.0948761993654,0.381212130724,0.559858230992,nan,nan,nan,nan,0.0,0.0,0.0,nan,93.2389891259,409.846438483,410.346471269,410.240488451,nan,nan,nan,nan
1,262,1,1,1.0,1.0,0.36188560864,1,0.0,0.0,1.0,0.328927485659,0.0848565658141,0.244070919845,0.413784051473,0.0848565658141,0.415487932973,470,0.497741612616,0.357740777197,-1.0,158.869807432,291.130192568,-39.3385574321,414.0,0.0747837862165,0.460162189034,-0.600089175003,1.30887581129,93.2389891259,410.846574189,411.346597852,411.208459798,413.996932927,414.99634249,412.67177665,413.988615506
1,263,1,1,1.0,1.0,0.46725432761,0,0.0,0.0,0.0,0.329053280022,0.084718849952,0.24433443007,0.413772129974,0.084718849952,0.407729968118,168,1.0,-0.190790017254,0.230361799274,nan,nan,nan,nan,0.0,0.0,0.0,nan,93.2389891259,415.19712206,415.697159408,415.664376387,nan,nan,nan,nan
1,264,1,1,1.0,1.0,0.36274631694,0,0.0,0.0,0.0,0.32957875929,0.0849843464564,0.244594412834,0.414563105747,0.0849843464564,0.39729541773,100,1.0,-0.270427092546,-0.457439896749,nan,nan,nan,nan,0.0,0.0,0.0,nan,93.2389891259,416.205610253,416.70563135,416.56835657,nan,nan,nan,nan
1,265,1,1,1.0,1.0,0.298600344919,0,0.0,0.0,0.0,0.329704393978,0.0848477047956,0.244856689183,0.414552098774,0.0848477047956,0.376200329823,287,0.159501648714,0.36255249221,0.590751920292,nan,nan,nan,nan,0.0,0.0,0.0,nan,93.2389891259,417.205739117,417.705777605,417.504339462,nan,nan,nan,nan
1,266,1,1,1.0,1.0,0.258465242572,0,0.0,0.0,0.0,0.329587020208,0.0847089339581,0.24487808625,0.414295954166,0.0847089339581,0.306603968143,362,-0.164239727892,0.476000155386,0.0174578511848,nan,nan,nan,nan,0.0,0.0,0.0,nan,93.2389891259,418.205856292,418.705899911,418.464321535,nan,nan,nan,nan
1,267,1,1,1.0,1.0,0.282292795833,0,0.0,0.0,0.0,0.329319645104,0.0846615157116,0.244658129393,0.413981160816,0.0846615157116,0.279786127775,35,1.0,0.0462653595507,-1.0,nan,nan,nan,nan,0.0,0.0,0.0,nan,93.2389891259,419.205988577,419.706020223,419.488281372,nan,nan,nan,nan
1,268,1,1,1.0,1.0,0.266165713314,0,0.0,0.0,0.0,0.329143514583,0.0845516365557,0.244591878027,0.413695151139,0.0845516365557,0.268974583906,406,0.0244967455079,0.467245700284,-0.489366101921,nan,nan,nan,nan,0.0,0.0,0.0,nan,93.2389891259,420.206116586,420.706144525,420.472282299,nan,nan,nan,nan
1,269,1,1,1.0,1.0,0.226017497014,0,0.0,0.0,0.0,0.328908522787,0.0844810510945,0.244427471693,0.413389573882,0.0844810510945,0.25815866872,72,1.0,-0.149607777062,-0.853203742106,nan,nan,nan,nan,0.0,0.0,0.0,nan,93.2389891259,421.20624773,421.706314728,421.432265227,nan,nan,nan,nan
1,270,0,0,1.0,0.0,0.185829652473,0,0.0,0.0,0.0,0.328526028267,0.0845560474982,0.243969980769,0.413082075766,0.0845560474982,0.226004287601,11,0.934659501434,0.163852895862,-1.0,nan,nan,nan,nan,0.0,0.0,0.0,nan,93.2389891259,422.206405674,422.70643846,422.392235326,nan,nan,nan,nan
1,271,1,1,1.0,1.0,0.0977241280489,0,0.0,0.0,0.0,0.327997523172,0.0848432740352,0.243154249137,0.412840797207,0.0848432740352,0.169857092512,60,1.0,-0.0867837676833,-1.0,nan,nan,nan,nan,0.0,0.0,0.0,nan,93.2389891259,423.206504032,423.706567609,423.30422816,nan,nan,nan,nan
1,272,1,1,1.0,1.0,0.249558242504,0,0.0,0.0,0.0,0.327147805847,0.0858298557076,0.241317950139,0.412977661554,0.0858298557076,0.177704007675,509,0.822386376617,0.224555004187,-1.0,nan,nan,nan,nan,0.0,0.0,0.0,nan,93.2389891259,424.206644585,424.706692766,424.456202827,nan,nan,nan,nan
1,273,1,1,1.0,1.0,0.305396487471,0,1.0,0.0,0.0,0.326862550099,0.0858005357628,0.241062014336,0.412663085862,0.0858005357628,0.217559619341,109,1.0,-0.294638327523,-0.357773695079,nan,nan,nan,nan,0.0,0.0,0.0,nan,93.2389891259,425.206779151,425.706813362,425.512175638,nan,nan,nan,nan
1,274,0,0,0.0,1.0,0.50021325238,1,0.0,0.0,1.0,0.326783919833,0.0856530652436,0.24113085459,0.412436985077,0.0856530652436,0.351722660785,408,0.036737934283,0.465637664749,-0.515938449969,-172.490668926,262.490668926,-24.3843310738,373.0,-0.135407706169,0.478559568072,-0.0996974893599,1.10044708941,93.2389891259,426.206920559,426.706972447,426.707133811,429.148908164,430.148892484,428.03209337,429.140575349
1,275,1,1,1.0,1.0,0.314957500901,0,0.0,0.0,0.0,0.327416873602,0.0861338745709,0.241282999031,0.413550748172,0.0861338745709,0.373522413584,48,1.0,-0.0224273256894,-1.0,nan,nan,nan,nan,0.0,0.0,0.0,nan,93.2389891259,430.34909188,430.84914947,430.664049381,nan,nan,nan,nan
1,276,0,0,0.0,1.0,0.354793820996,0,0.0,0.0,0.0,0.327371566792,0.0859803957145,0.241391171077,0.413351962506,0.0859803957145,0.389988191426,355,-0.173737462994,0.472683863687,0.0888799762457,nan,nan,nan,nan,0.0,0.0,0.0,nan,93.2389891259,431.349251535,431.849281755,431.704045356,nan,nan,nan,nan
1,277,1,1,1.0,1.0,0.330640401691,0,0.0,0.0,0.0,0.327470922785,0.0858403067052,0.24163061608,0.41331122949,0.0858403067052,0.333463907863,82,1.0,-0.198479155091,-0.679872484948,nan,nan,nan,nan,0.0,0.0,0.0,nan,93.2389891259,432.349366714,432.849395794,432.680007116,nan,nan,nan,nan
1,278,1,1,1.0,1.0,0.546502173413,0,0.0,0.0,0.0,0.327482364947,0.0856854310643,0.241796933883,0.413167796012,0.0856854310643,0.410645465367,496,0.714833717156,0.274923884212,-1.0,nan,nan,nan,nan,0.0,0.0,0.0,nan,93.2389891259,433.349499854,433.849565142,433.896002028,nan,nan,nan,nan
1,279,1,1,1.0,1.0,0.402072883677,0,0.0,1.0,0.0,0.328270205985,0.0865304290365,0.241739776949,0.414800635021,0.0865304290365,0.426405152927,56,1.0,-0.0653675053377,-1.0,nan,nan,nan,nan,0.0,0.0,0.0,nan,93.2389891259,434.357937015,434.857981775,434.760009899,nan,nan,nan,nan
1,280,1,1,1.0,1.0,0.305883433204,1,0.0,0.0,1.0,0.328534731712,0.08648775006,0.242046981651,0.415022481772,0.08648775006,0.418152830098,233,0.728670395113,0.154909781369,0.626482233315,-83.5712522512,173.571252251,9.74312725117,247.0,0.578947625354,0.219392674348,0.6523805853,1.57544237049,93.2389891259,435.358082415,435.858109214,435.663965848,438.775172213,439.775237215,437.18333762,438.766839683
1,281,0,0,0.0,1.0,0.376488847658,0,0.0,0.0,0.0,0.328453834217,0.086343743526,0.242110090691,0.414797577743,0.086343743526,0.361481721513,302,0.027086081288,0.400300843718,0.517770016443,nan,nan,nan,nan,0.0,0.0,0.0,nan,93.2389891259,439.975373035,440.475407817,440.351861883,nan,nan,nan,nan
1,282,1,1,1.0,1.0,0.312355135102,0,0.0,0.0,0.0,0.328624777325,0.086237422089,0.242387355236,0.414862199414,0.086237422089,0.331575805321,172,1.0,-0.170984061773,0.265024678188,nan,nan,nan,nan,0.0,0.0,0.0,nan,93.2389891259,440.975511877,441.475509027,441.287867012,nan,nan,nan,nan
1,283,1,1,1.0,1.0,0.368222175166,0,0.0,0.0,0.0,0.328567083558,0.0860898155188,0.24247726804,0.414656899077,0.0860898155188,0.352355385975,481,0.589289488337,0.325611856148,-1.0,nan,nan,nan,nan,0.0,0.0,0.0,nan,93.2389891259,441.975617078,442.475656422,442.343839253,nan,nan,nan,nan
1,284,1,1,0.0,0.0,0.400073213037,0,0.0,0.0,0.0,0.328707207557,0.0859697879471,0.24273741961,0.414676995504,0.0859697879471,0.360216841102,115,1.0,-0.305166285737,-0.293172749504,nan,nan,nan,nan,0.0,0.0,0.0,nan,93.2389891259,442.97573853,443.47576875,443.375811743,nan,nan,nan,nan
1,285,1,1,1.0,1.0,0.335907569155,0,0.0,0.0,0.0,0.328958496309,0.0859223533708,0.243036142938,0.41488084968,0.0859223533708,0.368067652453,494,0.698129958021,0.282143999684,-1.0,nan,nan,nan,nan,0.0,0.0,0.0,nan,93.2389891259,443.975859696,444.475907592,444.311767265,nan,nan,nan,nan
1,286,1,1,1.0,1.0,0.287769794464,0,0.0,0.0,0.0,0.32898287902,0.085772464192,0.243210414828,0.414755343212,0.085772464192,0.341250192219,12,0.942476689623,0.159273951266,-1.0,nan,nan,nan,nan,0.0,0.0,0.0,nan,93.2389891259,444.975990841,445.476022772,445.263760635,nan,nan,nan,nan
1,287,1,1,1.0,1.0,0.31961028371,0,0.0,0.0,0.0,0.328838777326,0.0856569334171,0.243181843909,0.414495710743,0.0856569334171,0.314429215776,426,0.156193047225,0.446210853967,-0.81485970128,nan,nan,nan,nan,0.0,0.0,0.0,nan,93.2389891259,445.97612113,446.476151635,446.295731414,nan,nan,nan,nan
1,288,1,1,1.0,1.0,0.375479319133,0,0.0,0.0,0.0,0.328806622296,0.0855093042125,0.243297318084,0.414315926509,0.0855093042125,0.327619799102,82,1.0,-0.198479155091,-0.679872484948,nan,nan,nan,nan,0.0,0.0,0.0,nan,93.2389891259,446.97625199,447.476283635,447.351731309,nan,nan,nan,nan
1,289,0,0,0.0,1.0,0.431269668043,0,0.0,0.0,0.0,0.328968680271,0.0854048604571,0.243563819814,0.414373540728,0.0854048604571,0.375453090295,198,1.0,-0.0302354974571,0.462326941081,nan,nan,nan,nan,0.0,0.0,0.0,nan,93.2389891259,447.976417631,448.476449847,448.407687299,nan,nan,nan,nan
1,290,1,1,1.0,1.0,0.343194078654,0,0.0,0.0,0.0,0.329322662928,0.0854683505224,0.243854312406,0.41479101345,0.0854683505224,0.383314355277,130,1.0,-0.309333154106,-0.136071487739,nan,nan,nan,nan,0.0,0.0,0.0,nan,93.2389891259,448.976525398,449.476551911,449.319719476,nan,nan,nan,nan
1,291,1,1,1.0,1.0,0.303033317905,0,0.0,0.0,0.0,0.329370495396,0.0853247388354,0.244045756561,0.414695234231,0.0853247388354,0.359165688201,325,-0.119404900653,0.442631039184,0.360186421743,nan,nan,nan,nan,0.0,0.0,0.0,nan,93.2389891259,449.976643713,450.476689613,450.279677031,nan,nan,nan,nan
1,292,1,1,1.0,1.0,0.318915217184,0,0.0,0.0,0.0,0.329279989631,0.0851919496277,0.244088040004,0.414471939259,0.0851919496277,0.321714204581,384,-0.0924750057551,0.477945316949,-0.222479273925,nan,nan,nan,nan,0.0,0.0,0.0,nan,93.2389891259,450.976768585,451.476803937,451.295683803,nan,nan,nan,nan
1,293,1,1,1.0,1.0,0.38274872303,0,0.0,0.0,0.0,0.329244493835,0.0850481034409,0.244196390394,0.414292597276,0.0850481034409,0.33489908604,11,0.934659501434,0.163852895862,-1.0,nan,nan,nan,nan,0.0,0.0,0.0,nan,93.2389891259,451.976897734,452.476930805,452.359646457,nan,nan,nan,nan
1,294,0,0,1.0,0.0,0.326564369723,0,0.0,0.0,0.0,0.329427102126,0.0849601685976,0.244466933529,0.414387270724,0.0849601685976,0.342742769979,437,0.23613482661,0.429770237144,-1.0,nan,nan,nan,nan,0.0,0.0,0.0,nan,93.2389891259,452.97706081,453.477104144,453.303625179,nan,nan,nan,nan
1,295,1,1,1.0,1.0,0.302090787329,0,0.0,0.0,0.0,0.329417364941,0.0848157192077,0.244601645733,0.414233084149,0.0848157192077,0.337134626694,353,-0.175041255135,0.471490071959,0.108799216003,nan,nan,nan,nan,0.0,0.0,0.0,nan,93.2389891259,453.985488562,454.485525055,454.28757935,nan,nan,nan,nan
1,296,1,1,1.0,1.0,0.277923969086,0,0.0,0.0,0.0,0.329324732475,0.0846867376122,0.244637994862,0.414011470087,0.0846867376122,0.302193042046,48,1.0,-0.0224273256894,-1.0,nan,nan,nan,nan,0.0,0.0,0.0,nan,93.2389891259,454.985637668,455.48565905,455.263561637,nan,nan,nan,nan
1,297,1,1,1.0,1.0,0.405760042835,0,0.0,0.0,0.0,0.329151081247,0.0845961581705,0.244554923076,0.413747239417,0.0845961581705,0.32859159975,479,0.572572153349,0.331768222426,-1.0,nan,nan,nan,nan,0.0,0.0,0.0,nan,93.2389891259,455.985772519,456.485779361,456.391532562,nan,nan,nan,nan
1,298,1,1,1.0,1.0,0.333629359026,0,0.0,0.0,0.0,0.329409023879,0.0845701375591,0.244838886319,0.413979161438,0.0845701375591,0.339104456982,58,1.0,-0.0760896648475,-1.0,nan,nan,nan,nan,0.0,0.0,0.0,nan,93.2389891259,456.985880856,457.485917918,457.319510215,nan,nan,nan,nan
1,299,1,1,1.0,1.0,0.277470094617,0,0.0,0.0,0.0,0.329423186077,0.0844284748912,0.244994711186,0.413851660968,0.0844284748912,0.338953165493,296,0.0772713571413,0.386205321608,0.550001308524,nan,nan,nan,nan,0.0,0.0,0.0,nan,93.2389891259,457.986013711,458.486052484,458.263483806,nan,nan,nan,nan
1,300,1,1,1.0,1.0,0.293304097839,0,0.0,0.0,0.0,0.329249429918,0.0843405260014,0.244908903917,0.41358995592,0.0843405260014,0.301467850494,347,-0.174938837379,0.46723881498,0.167157479366,nan,nan,nan,nan,0.0,0.0,0.0,nan,93.2389891259,458.986160251,459.486204726,459.279464349,nan,nan,nan,nan
1,301,1,1,1.0,1.0,0.309141521808,0,0.0,0.0,0.0,0.329129612145,0.0842253274168,0.244904284728,0.413354939562,0.0842253274168,0.293305238088,123,1.0,-0.311441137266,-0.208672863777,nan,nan,nan,nan,0.0,0.0,0.0,nan,93.2389891259,459.986307076,460.486300233,460.295448598,nan,nan,nan,nan
1,302,1,1,1.0,1.0,0.260699263308,0,0.0,0.0,0.0,0.329063206529,0.0840931679563,0.244970038573,0.413156374485,0.0840931679563,0.287714960985,206,0.994723455659,0.014051917983,0.511316161583,nan,nan,nan,nan,0.0,0.0,0.0,nan,93.2389891259,460.994746232,461.494788712,461.255445496,nan,nan,nan,nan
1,303,0,0,1.0,0.0,0.260529345367,0,0.0,0.0,0.0,0.328836835856,0.0840456373014,0.244791198555,0.412882473157,0.0840456373014,0.276790043494,412,0.0618891196837,0.462096609288,-0.571158935758,nan,nan,nan,nan,0.0,0.0,0.0,nan,93.2389891259,461.994898474,462.494929265,462.25542782,nan,nan,nan,nan
1,304,1,1,1.0,1.0,0.244415377267,0,0.0,0.0,0.0,0.328611398594,0.0839982436819,0.244613154912,0.412609642276,0.0839982436819,0.255214661981,123,1.0,-0.311441137266,-0.208672863777,nan,nan,nan,nan,0.0,0.0,0.0,nan,93.2389891259,462.994999113,463.495028479,463.239414491,nan,nan,nan,nan
1,305,1,1,1.0,1.0,0.32425109297,0,0.0,0.0,0.0,0.328334437997,0.0839984384321,0.244335999565,0.412332876429,0.0839984384321,0.276398605201,405,0.018463324075,0.468009379796,-0.476293327428,nan,nan,nan,nan,0.0,0.0,0.0,nan,93.2389891259,463.995127122,464.495160764,464.319378215,nan,nan,nan,nan
1,306,1,1,1.0,1.0,0.356084739789,0,0.0,0.0,0.0,0.328321049981,0.0838609478935,0.244460102087,0.412181997874,0.0838609478935,0.308250403342,63,1.0,-0.102744642793,-1.0,nan,nan,nan,nan,0.0,0.0,0.0,nan,93.2389891259,464.995263969,465.495295044,465.351348708,nan,nan,nan,nan
1,307,1,1,1.0,1.0,0.299946858082,0,0.0,0.0,0.0,0.328411780993,0.083738801238,0.244672979755,0.412150582231,0.083738801238,0.326760896947,221,0.851781464038,0.0945411604707,0.585422935822,nan,nan,nan,nan,0.0,0.0,0.0,nan,93.2389891259,465.995393973,466.495423908,466.295340831,nan,nan,nan,nan
1,308,1,1,1.0,1.0,0.299832534045,0,0.0,0.0,0.0,0.328319061375,0.083618039281,0.244701022094,0.411937100656,0.083618039281,0.318621377305,462,0.432089675478,0.378486360879,-1.0,nan,nan,nan,nan,0.0,0.0,0.0,nan,93.2389891259,466.995511433,467.495549921,467.295343967,nan,nan,nan,nan
1,309,1,1,1.0,1.0,0.267640234903,0,0.0,0.0,0.0,0.32822657265,0.0834979125442,0.244728660105,0.411724485194,0.0834979125442,0.289139875676,358,-0.170583909915,0.474268316859,0.0585874414746,nan,nan,nan,nan,0.0,0.0,0.0,nan,93.2389891259,467.995646854,468.495682206,468.263287089,nan,nan,nan,nan
1,310,1,1,1.0,1.0,0.267506524455,0,0.0,0.0,0.0,0.328030500359,0.0834336830615,0.244596817298,0.411464183421,0.0834336830615,0.278326431134,38,1.0,0.0306259494545,-1.0,nan,nan,nan,nan,0.0,0.0,0.0,nan,93.2389891259,468.995769446,469.495836728,469.26327597,nan,nan,nan,nan
1,311,1,1,1.0,1.0,0.29936041357,0,0.0,0.0,0.0,0.327835261727,0.083369674053,0.244465587674,0.41120493578,0.083369674053,0.278169057642,496,0.714833717156,0.274923884212,-1.0,nan,nan,nan,nan,0.0,0.0,0.0,nan,93.2389891259,469.995909713,470.495936797,470.295270127,nan,nan,nan,nan
1,312,0,0,1.0,0.0,0.283148657065,0,0.0,0.0,0.0,0.32774370273,0.0832511406192,0.244492562111,0.410994843349,0.0832511406192,0.283338531697,20,1.0,0.121558187834,-1.0,nan,nan,nan,nan,0.0,0.0,0.0,nan,93.2389891259,470.996067657,471.496095596,471.279216314,nan,nan,nan,nan
1,313,1,1,1.0,1.0,0.147062730975,0,0.0,0.0,0.0,0.327600769891,0.083155830409,0.244444939482,0.4107566003,0.083155830409,0.243190600537,422,0.128328379107,0.451313674078,-0.730894888444,nan,nan,nan,nan,0.0,0.0,0.0,nan,93.2389891259,471.99616402,472.496221894,472.143226751,nan,nan,nan,nan
1,314,1,1,1.0,1.0,0.274893958122,0,0.0,0.0,0.0,0.327023971045,0.0836456888283,0.243378282217,0.410669659873,0.0836456888283,0.235035115387,283,0.19826868328,0.351050922538,0.605825948857,nan,nan,nan,nan,0.0,0.0,0.0,nan,93.2389891259,472.996288322,473.496323104,473.27118228,nan,nan,nan,nan
1,315,1,1,1.0,1.0,0.298750020564,0,1.0,0.0,0.0,0.326857951895,0.0835640240055,0.24329392789,0.410421975901,0.0835640240055,0.240235569887,124,1.0,-0.311577186586,-0.198226518473,nan,nan,nan,nan,0.0,0.0,0.0,nan,93.2389891259,473.996421462,474.496449117,474.295171483,nan,nan,nan,nan
1,316,1,1,1.0,1.0,0.362600632012,1,0.0,0.0,1.0,0.326768720367,0.0834462592121,0.243322461155,0.410214979579,0.0834462592121,0.312081536899,383,-0.0968787136249,0.478131214543,-0.211081409456,-60.0352346638,150.035234664,-119.261640336,213.0,0.929785093221,0.0521668813814,0.548906519778,1.95047380263,93.2389891259,474.996548045,475.49660535,475.359148677,478.788669561,479.788679254,476.821779017,478.78033589
1,317,1,1,1.0,1.0,0.490155030042,0,0.0,0.0,0.0,0.326882112493,0.0833384226207,0.243543689872,0.410220535114,0.0833384226207,0.383835227539,260,0.438016636947,0.272781976488,0.654406567654,nan,nan,nan,nan,0.0,0.0,0.0,nan,93.2389891259,479.988854133,480.497231138,480.479009163,nan,nan,nan,nan
1,318,1,1,1.0,1.0,0.361684330273,0,0.0,0.0,0.0,0.327397169015,0.0837090959343,0.243688073081,0.411106264949,0.0837090959343,0.404813330776,166,1.0,-0.20036215083,0.21267421211,nan,nan,nan,nan,0.0,0.0,0.0,nan,93.2389891259,480.997336909,481.497360572,481.359021239,nan,nan,nan,nan
1,319,1,1,1.0,1.0,0.29752438888,0,0.0,0.0,0.0,0.327504990277,0.0835994183084,0.243905571968,0.411104408585,0.0835994183084,0.383121249732,314,-0.0594438881467,0.42463230952,0.441925406839,nan,nan,nan,nan,0.0,0.0,0.0,nan,93.2389891259,481.997456935,482.497496278,482.294981324,nan,nan,nan,nan
1,320,1,1,1.0,1.0,0.289396557957,0,0.0,0.0,0.0,0.3274110072,0.0834851059603,0.24392590124,0.410896113161,0.0834851059603,0.316201759037,251,0.535576518695,0.236509187076,0.655284151108,nan,nan,nan,nan,0.0,0.0,0.0,nan,93.2389891259,482.997585514,483.497621436,483.286982072,nan,nan,nan,nan
1,321,1,1,1.0,1.0,0.265218906105,0,0.0,0.0,0.0,0.327292212046,0.0833815580818,0.243910653965,0.410673770128,0.0833815580818,0.284046617647,363,-0.162287729338,0.476365729747,0.00704812682028,nan,nan,nan,nan,0.0,0.0,0.0,nan,93.2389891259,483.99772293,484.497755146,484.262941836,nan,nan,nan,nan
1,322,1,1,1.0,1.0,0.289081810974,0,0.0,0.0,0.0,0.327098837262,0.0833234145793,0.243775422682,0.410422251841,0.0833234145793,0.281232425012,247,0.578947625354,0.219392674348,0.6523805853,nan,nan,nan,nan,0.0,0.0,0.0,nan,93.2389891259,484.997851509,485.497887431,485.28693332,nan,nan,nan,nan
1,323,1,1,1.0,1.0,0.280930602457,0,0.0,0.0,0.0,0.326980771963,0.0832208177399,0.243759954223,0.410201589702,0.0832208177399,0.278410439845,172,1.0,-0.170984061773,0.265024678188,nan,nan,nan,nan,0.0,0.0,0.0,nan,93.2389891259,485.997976381,486.498033401,486.278906984,nan,nan,nan,nan
1,324,1,1,1.0,1.0,0.280776364729,0,0.0,0.0,0.0,0.326838201778,0.0831312681881,0.24370693359,0.409969469966,0.0831312681881,0.283596259387,26,1.0,0.0920921692153,-1.0,nan,nan,nan,nan,0.0,0.0,0.0,nan,93.2389891259,486.998108096,487.498146014,487.278884461,nan,nan,nan,nan
1,325,1,1,1.0,1.0,0.280668313149,0,0.0,0.0,0.0,0.326696035615,0.0830421960239,0.243653839591,0.409738231638,0.0830421960239,0.280791760112,407,0.0305886347219,0.46645515455,-0.502577406972,nan,nan,nan,nan,0.0,0.0,0.0,nan,93.2389891259,487.998226697,488.498276874,488.27889501,nan,nan,nan,nan
1,326,1,1,1.0,1.0,0.280479578767,0,0.0,0.0,0.0,0.326554411853,0.0829535195237,0.243600892329,0.409507931377,0.0829535195237,0.280641418882,134,1.0,-0.304950998219,-0.095144111098,nan,nan,nan,nan,0.0,0.0,0.0,nan,93.2389891259,488.998365824,489.498397755,489.278845403,nan,nan,nan,nan
1,327,1,1,1.0,1.0,0.296366324648,0,0.0,0.0,0.0,0.326413078009,0.0828653734614,0.243547704548,0.409278451471,0.0828653734614,0.285838072188,479,0.572572153349,0.331768222426,-1.0,nan,nan,nan,nan,0.0,0.0,0.0,nan,93.2389891259,489.998494118,490.498532606,490.294860442,nan,nan,nan,nan
1,328,1,1,1.0,1.0,0.280175380409,0,0.0,0.0,0.0,0.326321191913,0.0827552026371,0.243565989276,0.409076394551,0.0827552026371,0.285673761275,95,1.0,-0.253175017597,-0.514975443931,nan,nan,nan,nan,0.0,0.0,0.0,nan,93.2389891259,490.99863182,491.498654342,491.2788072,nan,nan,nan,nan
1,329,1,1,1.0,1.0,0.296046445612,0,0.0,0.0,0.0,0.326180503464,0.0826681112208,0.243512392243,0.408848614685,0.0826681112208,0.29086271689,387,-0.0787219327085,0.477231755363,-0.256974454483,nan,nan,nan,nan,0.0,0.0,0.0,nan,93.2389891259,491.99875099,492.498785487,492.294797436,nan,nan,nan,nan
1,330,1,1,1.0,1.0,0.279901117086,0,0.0,0.0,0.0,0.326088910583,0.0825590467591,0.243529863824,0.408647957342,0.0825590467591,0.285374314369,304,0.0113092810281,0.404708921832,0.506160370659,nan,nan,nan,nan,0.0,0.0,0.0,nan,93.2389891259,492.998878143,493.498922048,493.27877926,nan,nan,nan,nan
1,331,1,1,1.0,1.0,0.271730236243,0,0.0,0.0,0.0,0.325948947572,0.0824729450232,0.243476002549,0.408421892595,0.0824729450232,0.282559266314,490,0.664660387652,0.296157848571,-1.0,nan,nan,nan,nan,0.0,0.0,0.0,nan,93.2389891259,493.99901328,494.499046636,494.270743516,nan,nan,nan,nan
1,332,0,0,1.0,0.0,0.287568516098,0,0.0,0.0,0.0,0.325785144819,0.0824020133203,0.243383131499,0.408187158139,0.0824020133203,0.279733289809,67,1.0,-0.12380466598,-1.0,nan,nan,nan,nan,0.0,0.0,0.0,nan,93.2389891259,494.999173504,495.499206005,495.28674202,nan,nan,nan,nan
1,333,1,1,1.0,1.0,0.183474465739,0,0.0,0.0,0.0,0.325670034491,0.0823044688566,0.243365565635,0.407974503348,0.0823044688566,0.247591072693,292,0.112881669716,0.376069582356,0.569261850688,nan,nan,nan,nan,0.0,0.0,0.0,nan,93.2389891259,495.999271007,496.499330022,496.182745473,nan,nan,nan,nan
1,334,1,1,1.0,1.0,0.199308753945,0,0.0,0.0,0.0,0.325243020771,0.0825482906706,0.242694730101,0.407791311442,0.0825482906706,0.223450578594,395,-0.0383984177995,0.474183508328,-0.351427224487,nan,nan,nan,nan,0.0,0.0,0.0,nan,93.2389891259,496.999407283,497.4994854,497.198716037,nan,nan,nan,nan
1,335,1,1,1.0,1.0,0.207159184851,0,1.0,0.0,0.0,0.324865972068,0.0827113028656,0.242154669203,0.407577274934,0.0827113028656,0.196647468178,136,1.0,-0.301914900238,-0.074841205769,nan,nan,nan,nan,0.0,0.0,0.0,nan,93.2389891259,497.999530445,498.499593452,498.20668963,nan,nan,nan,nan
1,336,0,0,1.0,0.0,0.22296581883,0,0.0,0.0,0.0,0.324514608524,0.082837024737,0.241677583787,0.407351633261,0.082837024737,0.209811252542,458,0.399688045963,0.388050214986,-1.0,nan,nan,nan,nan,0.0,0.0,0.0,nan,93.2389891259,498.999695231,499.49972203,499.22266105,nan,nan,nan,nan
1,337,1,1,1.0,1.0,0.262873128057,0,0.0,0.0,0.0,0.324212379984,0.0828984302024,0.241313949781,0.407110810186,0.0828984302024,0.230999377246,178,1.0,-0.139919655122,0.315097826042,nan,nan,nan,nan,0.0,0.0,0.0,nan,93.2389891259,499.999791879,500.499843197,500.262665007,nan,nan,nan,nan
1,338,1,1,1.0,1.0,0.214719957672,0,0.0,0.0,0.0,0.324030364399,0.0828425564817,0.241187807918,0.406872920881,0.0828425564817,0.233519634853,409,0.0429436170054,0.464793150178,-0.529461854507,nan,nan,nan,nan,0.0,0.0,0.0,nan,93.2389891259,500.999919603,501.499981469,501.21463956,nan,nan,nan,nan
1,339,1,1,1.0,1.0,0.238546940032,0,1.0,0.0,0.0,0.323706960829,0.0829326928572,0.240774267972,0.406639653686,0.0829326928572,0.23871334192,343,-0.171388175652,0.463836419185,0.204822810802,nan,nan,nan,nan,0.0,0.0,0.0,nan,93.2389891259,502.000049037,502.500106056,502.238595977,nan,nan,nan,nan
1,340,1,1,1.0,1.0,0.230377200525,1,0.0,0.0,1.0,0.323455751328,0.0829389706713,0.240516780657,0.406394722,0.0829389706713,0.227881366077,403,0.00657627305109,0.469456436931,-0.450524507496,110.797162279,339.202837721,55.8434627208,482.0,0.597655625539,0.322480811492,-1.0,1.75886095734,93.2389891259,503.000182177,503.500245184,503.230559377,506.60062442,507.600660057,504.825385209,506.592285902
1,341,1,1,1.0,1.0,0.565658411477,0,0.0,0.0,0.0,0.323181990885,0.0829701582354,0.240211832649,0.40615214912,0.0829701582354,0.344860850678,106,1.0,-0.287630069369,-0.390564445695,nan,nan,nan,nan,0.0,0.0,0.0,nan,93.2389891259,507.80080386,508.300871428,508.366462271,nan,nan,nan,nan
1,342,1,1,1.0,1.0,0.405502600595,0,0.0,0.0,0.0,0.323893065432,0.0838795119203,0.240013553512,0.407772577352,0.0838795119203,0.400512737532,21,1.0,0.116713997928,-1.0,nan,nan,nan,nan,0.0,0.0,0.0,nan,93.2389891259,508.800947263,509.300967791,509.206449864,nan,nan,nan,nan
1,343,1,1,1.0,1.0,0.46135709621,0,0.0,1.0,0.0,0.324131689804,0.083872624665,0.240259065139,0.408004314469,0.083872624665,0.477506036094,333,-0.149813480994,0.453275949072,0.294183738108,nan,nan,nan,nan,0.0,0.0,0.0,nan,93.2389891259,509.801065294,510.301092378,510.26242239,nan,nan,nan,nan
1,344,1,1,1.0,1.0,0.292861341964,1,0.0,0.0,1.0,0.324531763875,0.0840764434785,0.240455320396,0.408608207353,0.0840764434785,0.38657367959,17,0.981069150956,0.135921910835,-1.0,51.1411106169,38.8588893831,26.9057643831,55.0,1.0,-0.0599996532909,-1.0,1.13377122348,93.2389891259,510.809529254,511.3095609,511.102390596,513.784872924,514.784927377,512.634727724,513.776538398
1,345,1,1,1.0,1.0,0.429247190244,0,0.0,0.0,0.0,0.324439698695,0.083971463232,0.240468235463,0.408411161927,0.083971463232,0.394488542806,121,1.0,-0.310732805591,-0.229640808446,nan,nan,nan,nan,0.0,0.0,0.0,nan,93.2389891259,514.985064623,515.485092848,515.414311813,nan,nan,nan,nan
1,346,1,1,1.0,1.0,0.509079199284,0,0.0,0.0,0.0,0.324743488525,0.0840387739026,0.240704714623,0.408782262428,0.0840387739026,0.410395910498,475,0.539218753276,0.343659807328,-1.0,nan,nan,nan,nan,0.0,0.0,0.0,nan,93.2389891259,515.985196623,516.485267327,516.494275822,nan,nan,nan,nan
1,347,1,1,1.0,1.0,0.380947479978,0,0.0,1.0,0.0,0.325276250695,0.084498679766,0.240777570929,0.409774930461,0.084498679766,0.439757956502,132,1.0,-0.307426825298,-0.115555361894,nan,nan,nan,nan,0.0,0.0,0.0,nan,93.2389891259,516.985325772,517.485368536,517.366273252,nan,nan,nan,nan
1,348,1,1,1.0,1.0,0.444784692023,1,0.0,0.0,1.0,0.325436686515,0.0844295940739,0.241007092441,0.409866280588,0.0844295940739,0.444937123762,340,-0.166837174664,0.460980112934,0.232376404312,-141.379248168,231.379248168,-7.68325183239,329.0,-0.136053278316,0.448203788942,0.3278337444,0.800404438749,93.2389891259,517.985470316,518.485507664,518.430255008,520.627434942,521.62716467,519.810657667,520.619101271
1,349,1,1,1.0,1.0,0.338561252225,0,0.0,0.0,0.0,0.325779640553,0.0845499014541,0.241229739099,0.410329542007,0.0845499014541,0.388097808075,55,1.0,-0.0599996532909,-1.0,nan,nan,nan,nan,0.0,0.0,0.0,nan,93.2389891259,521.827622365,522.327658858,522.166183617,nan,nan,nan,nan
1,350,0,0,0.0,1.0,0.490391945466,0,0.0,0.0,0.0,0.325816264083,0.0844314471144,0.241384816968,0.410247711197,0.0844314471144,0.424579296572,439,0.251144291643,0.426392204401,-1.0,nan,nan,nan,nan,0.0,0.0,0.0,nan,93.2389891259,522.8277843,523.336138783,523.318176246,nan,nan,nan,nan
1,351,1,1,1.0,1.0,0.346255165059,0,0.0,0.0,0.0,0.326286480315,0.0847671321264,0.241519348189,0.411053612441,0.0847671321264,0.391736120917,282,0.208142307666,0.34807905204,0.609295500931,nan,nan,nan,nan,0.0,0.0,0.0,nan,93.2389891259,523.827878952,524.32791459,524.174134118,nan,nan,nan,nan
1,352,1,1,1.0,1.0,0.354114434682,0,0.0,0.0,0.0,0.326343371155,0.0846529861998,0.241690384955,0.410996357355,0.0846529861998,0.396920515069,348,-0.175384772129,0.468017843042,0.157582163916,nan,nan,nan,nan,0.0,0.0,0.0,nan,93.2389891259,524.828010667,525.328045164,525.182125102,nan,nan,nan,nan
1,353,1,1,1.0,1.0,0.281950394157,0,0.0,0.0,0.0,0.326422266222,0.0845455766414,0.24187668958,0.410967842863,0.0845455766414,0.327439997966,19,0.99625917486,0.126374530333,-1.0,nan,nan,nan,nan,0.0,0.0,0.0,nan,93.2389891259,525.828145803,526.328169466,526.110096198,nan,nan,nan,nan
1,354,1,1,1.0,1.0,0.257812940981,0,0.0,0.0,0.0,0.326296283581,0.0844588194264,0.241837464155,0.410755103008,0.0844588194264,0.297959256607,219,0.871627318206,0.0840881726889,0.576959667802,nan,nan,nan,nan,0.0,0.0,0.0,nan,93.2389891259,526.828269535,527.328303747,527.086082476,nan,nan,nan,nan
1,355,0,0,1.0,0.0,0.289640886243,0,0.0,0.0,0.0,0.326102827811,0.084417727455,0.241685100356,0.410520555266,0.084417727455,0.276468073794,373,-0.135407706169,0.478559568072,-0.0996974893599,nan,nan,nan,nan,0.0,0.0,0.0,nan,93.2389891259,527.828423203,528.328460835,528.118064089,nan,nan,nan,nan
1,356,1,1,1.0,1.0,0.209574812092,0,0.0,0.0,0.0,0.326000118117,0.0843208925551,0.241679225561,0.410321010672,0.0843208925551,0.252342879772,61,1.0,-0.0921163965413,-1.0,nan,nan,nan,nan,0.0,0.0,0.0,nan,93.2389891259,528.828516429,529.328583427,529.038091241,nan,nan,nan,nan
1,357,1,1,1.0,1.0,0.249366941862,0,0.0,0.0,0.0,0.32567308074,0.0844275396306,0.24124554111,0.410100620371,0.0844275396306,0.249527546732,189,1.0,-0.0802194643608,0.400143472992,nan,nan,nan,nan,0.0,0.0,0.0,nan,93.2389891259,529.828656412,530.328714857,530.078023354,nan,nan,nan,nan
1,358,1,1,1.0,1.0,0.273229276761,0,0.0,0.0,0.0,0.325459338054,0.0844056113549,0.241053726699,0.409864949409,0.0844056113549,0.244057010238,361,-0.166047812515,0.475607712818,0.0278173107143,nan,nan,nan,nan,0.0,0.0,0.0,nan,93.2389891259,530.828778434,531.328825475,531.10200771,nan,nan,nan,nan
1,359,1,1,1.0,1.0,0.328992826398,0,0.0,0.0,0.0,0.325313444028,0.0843327083493,0.240980735679,0.409646152377,0.0843327083493,0.283863015007,425,0.149162615564,0.447529597292,-0.791715667876,nan,nan,nan,nan,0.0,0.0,0.0,nan,93.2389891259,531.828986839,532.328959755,532.157979666,nan,nan,nan,nan
