block,trial,freq_trials,correct_response,actual_response,acc,rts,probe_trials,fast_rt_trigger,slow_rt_trigger,rt_triggered,rts_runningavg,rts_runningstd,rts_runningfastthresh,rts_runningslowthresh,rts_runningstd,rts_trailingavg,trials_colorind0,trials_colorind1,trials_colorind2,trials_colorind3,trials_colorind4,trials_colorind5,wholereport_resp0,wholereport_resp1,wholereport_resp2,wholereport_resp3,wholereport_resp4,wholereport_resp5,wholereport_respacc0,wholereport_respacc1,wholereport_respacc2,wholereport_respacc3,wholereport_respacc4,wholereport_respacc5,wholereport_respacc_total,wholereport_respcolorind0,wholereport_respcolorind1,wholereport_respcolorind2,wholereport_respcolorind3,wholereport_respcolorind4,wholereport_respcolorind5,wholereport_resporder0,wholereport_resporder1,wholereport_resporder2,wholereport_resporder3,wholereport_resporder4,wholereport_resporder5,wholereport_rts0,wholereport_rts1,wholereport_rts2,wholereport_rts3,wholereport_rts4,wholereport_rts5,time_blockstart,time_encarray_offset,time_encarray_onset,time_response,time_iti_offset,time_iti_onset,time_memprobe_offset,time_memprobe_onset
1,1,1,1,1.0,1.0,0.423592290841043,0,nan,nan,nan,nan,nan,nan,nan,nan,nan,3,8,6,4,0,5,nan,nan,nan,nan,nan,nan,nan,nan,nan,nan,nan,nan,0.0,nan,nan,nan,nan,nan,nan,nan,nan,nan,nan,nan,nan,nan,nan,nan,nan,nan,nan,257.32063235668465,258.3370066182688,nan,258.76059890910983,nan,nan,nan,nan
1,2,1,1,1.0,1.0,0.598420049296692,0,nan,nan,nan,nan,nan,nan,nan,nan,nan,3,5,7,6,4,2,nan,nan,nan,nan,nan,nan,nan,nan,nan,nan,nan,nan,0.0,nan,nan,nan,nan,nan,nan,nan,nan,nan,nan,nan,nan,nan,nan,nan,nan,nan,nan,257.32063235668465,259.36217498243786,nan,259.96059503173456,nan,nan,nan,nan
1,3,1,1,1.0,1.0,0.7252896442078054,0,nan,nan,nan,nan,nan,nan,nan,nan,nan,4,8,0,5,3,7,nan,nan,nan,nan,nan,nan,nan,nan,nan,nan,nan,nan,0.0,nan,nan,nan,nan,nan,nan,nan,nan,nan,nan,nan,nan,nan,nan,nan,nan,nan,nan,257.32063235668465,260.38726922124624,nan,261.11255886545405,nan,nan,nan,nan
1,4,1,1,1.0,1.0,0.628156237769872,0,nan,nan,nan,nan,nan,nan,nan,nan,nan,0,6,3,1,7,8,nan,nan,nan,nan,nan,nan,nan,nan,nan,nan,nan,nan,0.0,nan,nan,nan,nan,nan,nan,nan,nan,nan,nan,nan,nan,nan,nan,nan,nan,nan,nan,257.32063235668465,261.41239681630395,nan,262.0405530540738,nan,nan,nan,nan
1,5,1,1,1.0,1.0,0.563001592643559,0,nan,nan,nan,nan,nan,nan,nan,nan,nan,1,3,8,7,5,0,nan,nan,nan,nan,nan,nan,nan,nan,nan,nan,nan,nan,0.0,nan,nan,nan,nan,nan,nan,nan,nan,nan,nan,nan,nan,nan,nan,nan,nan,nan,nan,257.32063235668465,262.43748991470784,nan,263.0004915073514,nan,nan,nan,nan
1,6,1,1,1.0,1.0,0.4818775234743953,0,nan,nan,nan,nan,nan,nan,nan,nan,nan,5,8,4,2,0,1,nan,nan,nan,nan,nan,nan,nan,nan,nan,nan,nan,nan,0.0,nan,nan,nan,nan,nan,nan,nan,nan,nan,nan,nan,nan,nan,nan,nan,nan,nan,nan,257.32063235668465,263.4626266330015,nan,263.9445041564759,nan,nan,nan,nan
1,7,1,1,1.0,1.0,0.39272198639810085,0,nan,nan,nan,nan,nan,nan,nan,nan,nan,0,3,7,8,5,2,nan,nan,nan,nan,nan,nan,nan,nan,nan,nan,nan,nan,0.0,nan,nan,nan,nan,nan,nan,nan,nan,nan,nan,nan,nan,nan,nan,nan,nan,nan,nan,257.32063235668465,264.4877590748947,nan,264.8804810612928,nan,nan,nan,nan
1,8,1,1,1.0,1.0,0.519589870935306,0,nan,nan,nan,nan,nan,nan,nan,nan,nan,6,5,8,7,0,4,nan,nan,nan,nan,nan,nan,nan,nan,nan,nan,nan,nan,0.0,nan,nan,nan,nan,nan,nan,nan,nan,nan,nan,nan,nan,nan,nan,nan,nan,nan,nan,257.32063235668465,265.51290320558473,nan,266.03249307652004,nan,nan,nan,nan
1,9,1,1,1.0,1.0,0.4224593152757734,0,nan,nan,nan,nan,nan,nan,nan,nan,nan,0,2,5,8,4,1,nan,nan,nan,nan,nan,nan,nan,nan,nan,nan,nan,nan,0.0,nan,nan,nan,nan,nan,nan,nan,nan,nan,nan,nan,nan,nan,nan,nan,nan,nan,nan,257.32063235668465,266.5380122694187,nan,266.96047158469446,nan,nan,nan,nan
1,10,1,1,1.0,1.0,0.4532919868361205,0,nan,nan,nan,nan,nan,nan,nan,nan,nan,3,1,7,0,2,6,nan,nan,nan,nan,nan,nan,nan,nan,nan,nan,nan,nan,0.0,nan,nan,nan,nan,nan,nan,nan,nan,nan,nan,nan,nan,nan,nan,nan,nan,nan,nan,257.32063235668465,267.5631424305029,nan,268.01643441733904,nan,nan,nan,nan
1,11,1,1,1.0,1.0,0.5001297190319747,1,nan,nan,nan,nan,nan,nan,nan,nan,nan,1,6,3,8,0,2,1.0,1.0,1.0,1.0,1.0,1.0,0.0,1.0,1.0,1.0,1.0,0.0,4.0,5.0,6.0,3.0,8.0,0.0,1.0,4.0,3.0,2.0,1.0,6.0,5.0,6.16001411806792,5.023547017481178,4.057242062874138,3.105617323424667,8.166781465755776,7.28746303007938,257.32063235668465,268.5882683151867,269.39668483496644,269.0883980342187,278.622803541366,279.6228993339464,270.4134790445678,278.61447357712314
1,12,1,1,1.0,1.0,0.592163595603779,0,nan,nan,nan,nan,nan,nan,nan,nan,nan,4,7,0,5,6,1,nan,nan,nan,nan,nan,nan,nan,nan,nan,nan,nan,nan,0.0,nan,nan,nan,nan,nan,nan,nan,nan,nan,nan,nan,nan,nan,nan,nan,nan,nan,nan,257.32063235668465,279.8480147840455,nan,280.4401783796493,nan,nan,nan,nan
1,13,0,0,0.0,1.0,0.7189969830214977,0,nan,nan,nan,nan,nan,nan,nan,nan,nan,3,0,7,4,2,6,nan,nan,nan,nan,nan,nan,nan,nan,nan,nan,nan,nan,0.0,nan,nan,nan,nan,nan,nan,nan,nan,nan,nan,nan,nan,nan,nan,nan,nan,nan,nan,257.32063235668465,280.8731355369091,nan,281.5921325199306,nan,nan,nan,nan
1,14,1,1,1.0,1.0,0.5579670644365251,0,nan,nan,nan,nan,nan,nan,nan,nan,nan,2,1,8,6,7,4,nan,nan,nan,nan,nan,nan,nan,nan,nan,nan,nan,nan,0.0,nan,nan,nan,nan,nan,nan,nan,nan,nan,nan,nan,nan,nan,nan,nan,nan,nan,nan,257.32063235668465,281.89824460074306,nan,282.4562116651796,nan,nan,nan,nan
1,15,1,1,1.0,1.0,0.5327274261508137,0,nan,nan,nan,nan,nan,nan,nan,nan,nan,4,6,7,8,0,5,nan,nan,nan,nan,nan,nan,nan,nan,nan,nan,nan,nan,0.0,nan,nan,nan,nan,nan,nan,nan,nan,nan,nan,nan,nan,nan,nan,nan,nan,nan,nan,257.32063235668465,282.92337077041157,nan,283.4560981965624,nan,nan,nan,nan
1,16,1,1,1.0,1.0,0.49159134877845645,0,nan,nan,nan,nan,nan,nan,nan,nan,nan,8,4,0,5,6,7,nan,nan,nan,nan,nan,nan,nan,nan,nan,nan,nan,nan,0.0,nan,nan,nan,nan,nan,nan,nan,nan,nan,nan,nan,nan,nan,nan,nan,nan,nan,nan,257.32063235668465,283.9484986506868,nan,284.4400899994653,nan,nan,nan,nan
1,17,1,1,1.0,1.0,0.39444910432212055,0,nan,nan,nan,nan,nan,nan,nan,nan,nan,0,1,6,3,4,5,nan,nan,nan,nan,nan,nan,nan,nan,nan,nan,nan,nan,0.0,nan,nan,nan,nan,nan,nan,nan,nan,nan,nan,nan,nan,nan,nan,nan,nan,nan,nan,257.32063235668465,284.9736248203553,nan,285.36807392467745,nan,nan,nan,nan
1,18,1,1,1.0,1.0,0.5132470326498151,1,nan,nan,nan,nan,nan,nan,nan,nan,nan,3,7,4,2,8,1,1.0,1.0,1.0,1.0,1.0,1.0,0.0,1.0,1.0,1.0,0.0,1.0,4.0,6.0,7.0,4.0,2.0,3.0,1.0,4.0,3.0,2.0,1.0,6.0,5.0,5.900764287915081,4.989366736728698,4.07911356491968,2.270568181294948,8.932442842284217,7.500532846199349,257.32063235668465,285.9987869122997,286.80719003267586,286.5120339449495,296.7917431916576,297.79158011614345,287.8156477205921,296.7834599830676
1,19,0,0,nan,nan,nan,0,nan,nan,nan,nan,nan,nan,nan,nan,nan,1,4,3,5,6,2,nan,nan,nan,nan,nan,nan,nan,nan,nan,nan,nan,nan,0.0,nan,nan,nan,nan,nan,nan,nan,nan,nan,nan,nan,nan,nan,nan,nan,nan,nan,nan,257.32063235668465,298.0169438854791,nan,nan,nan,nan,nan,nan
1,20,1,1,nan,nan,nan,0,nan,nan,nan,nan,nan,nan,nan,nan,nan,0,3,5,2,7,8,nan,nan,nan,nan,nan,nan,nan,nan,nan,nan,nan,nan,0.0,nan,nan,nan,nan,nan,nan,nan,nan,nan,nan,nan,nan,nan,nan,nan,nan,nan,nan,257.32063235668465,299.0420823143795,nan,nan,nan,nan,nan,nan
1,21,1,1,nan,nan,nan,0,nan,nan,nan,nan,nan,nan,nan,nan,nan,8,0,3,5,2,6,nan,nan,nan,nan,nan,nan,nan,nan,nan,nan,nan,nan,0.0,nan,nan,nan,nan,nan,nan,nan,nan,nan,nan,nan,nan,nan,nan,nan,nan,nan,nan,257.32063235668465,300.0672005014494,nan,nan,nan,nan,nan,nan
1,22,1,1,1.0,1.0,0.7233846262097359,0,nan,nan,nan,nan,nan,nan,nan,nan,nan,1,5,4,6,3,8,nan,nan,nan,nan,nan,nan,nan,nan,nan,nan,nan,nan,0.0,nan,nan,nan,nan,nan,nan,nan,nan,nan,nan,nan,nan,nan,nan,nan,nan,nan,nan,257.32063235668465,301.09230557386763,nan,301.81569020007737,nan,nan,nan,nan
1,23,1,1,1.0,1.0,0.7382786641828716,0,nan,nan,nan,nan,nan,nan,nan,nan,nan,4,8,7,3,1,5,nan,nan,nan,nan,nan,nan,nan,nan,nan,nan,nan,nan,0.0,nan,nan,nan,nan,nan,nan,nan,nan,nan,nan,nan,nan,nan,nan,nan,nan,nan,nan,257.32063235668465,302.1174388709478,nan,302.8557175351307,nan,nan,nan,nan
1,24,1,1,1.0,1.0,0.777089775307104,0,nan,nan,nan,nan,nan,nan,nan,nan,nan,3,2,5,1,7,6,nan,nan,nan,nan,nan,nan,nan,nan,nan,nan,nan,nan,0.0,nan,nan,nan,nan,nan,nan,nan,nan,nan,nan,nan,nan,nan,nan,nan,nan,nan,nan,257.32063235668465,303.14259298029356,nan,303.91968275560066,nan,nan,nan,nan
1,25,1,1,1.0,1.0,0.7039287509396672,0,nan,nan,nan,nan,nan,nan,nan,nan,nan,4,0,2,6,3,8,nan,nan,nan,nan,nan,nan,nan,nan,nan,nan,nan,nan,0.0,nan,nan,nan,nan,nan,nan,nan,nan,nan,nan,nan,nan,nan,nan,nan,nan,nan,nan,257.32063235668465,304.16772770276293,nan,304.8716564537026,nan,nan,nan,nan
1,26,0,0,0.0,1.0,0.7667792420834303,0,nan,nan,nan,nan,nan,nan,nan,nan,nan,8,2,0,5,4,7,nan,nan,nan,nan,nan,nan,nan,nan,nan,nan,nan,nan,0.0,nan,nan,nan,nan,nan,nan,nan,nan,nan,nan,nan,nan,nan,nan,nan,nan,nan,nan,257.32063235668465,305.19284788542427,nan,305.9596271275077,nan,nan,nan,nan
1,27,1,1,1.0,1.0,0.6616451579611748,0,nan,nan,nan,nan,nan,nan,nan,nan,nan,1,0,3,2,5,8,nan,nan,nan,nan,nan,nan,nan,nan,nan,nan,nan,nan,0.0,nan,nan,nan,nan,nan,nan,nan,nan,nan,nan,nan,nan,nan,nan,nan,nan,nan,nan,257.32063235668465,306.2179880249314,nan,306.8796331828926,nan,nan,nan,nan
1,28,1,1,1.0,1.0,0.684485990088433,1,nan,nan,nan,nan,nan,nan,nan,nan,nan,6,3,8,5,2,0,1.0,1.0,1.0,1.0,1.0,1.0,0.0,1.0,1.0,1.0,1.0,0.0,4.0,4.0,3.0,8.0,5.0,2.0,1.0,4.0,3.0,2.0,1.0,6.0,5.0,5.591907578287646,4.080302134389058,3.1539301476441324,1.8161580439191312,9.375908960355446,8.064327863743529,257.32063235668465,307.24310592678376,308.0515153191518,307.9275919168722,318.47782059316523,319.4773339324165,309.0599827005062,318.469445298193
1,29,1,1,nan,nan,nan,0,nan,nan,nan,nan,nan,nan,nan,nan,nan,4,5,2,8,0,1,nan,nan,nan,nan,nan,nan,nan,nan,nan,nan,nan,nan,0.0,nan,nan,nan,nan,nan,nan,nan,nan,nan,nan,nan,nan,nan,nan,nan,nan,nan,nan,257.32063235668465,319.70299562835135,nan,nan,nan,nan,nan,nan
1,30,1,1,1.0,1.0,0.6151535334065557,0,nan,nan,nan,nan,nan,nan,nan,nan,nan,8,1,3,6,7,2,nan,nan,nan,nan,nan,nan,nan,nan,nan,nan,nan,nan,0.0,nan,nan,nan,nan,nan,nan,nan,nan,nan,nan,nan,nan,nan,nan,nan,nan,nan,nan,257.32063235668465,320.72811951721087,nan,321.3432730506174,nan,nan,nan,nan
1,31,1,1,1.0,1.0,0.766046542674303,0,nan,nan,nan,nan,nan,nan,nan,nan,nan,0,4,7,3,5,8,nan,nan,nan,nan,nan,nan,nan,nan,nan,nan,nan,nan,0.0,nan,nan,nan,nan,nan,nan,nan,nan,nan,nan,nan,nan,nan,nan,nan,nan,nan,nan,257.32063235668465,321.75325138890184,nan,322.51929793157615,nan,nan,nan,nan
1,32,1,1,nan,nan,nan,0,nan,nan,nan,nan,nan,nan,nan,nan,nan,8,7,5,2,1,6,nan,nan,nan,nan,nan,nan,nan,nan,nan,nan,nan,nan,0.0,nan,nan,nan,nan,nan,nan,nan,nan,nan,nan,nan,nan,nan,nan,nan,nan,nan,nan,257.32063235668465,322.77839894080535,nan,nan,nan,nan,nan,nan
1,33,1,1,1.0,1.0,0.6597595263738185,0,nan,nan,nan,nan,nan,nan,nan,nan,nan,4,2,3,6,7,5,nan,nan,nan,nan,nan,nan,nan,nan,nan,nan,nan,nan,0.0,nan,nan,nan,nan,nan,nan,nan,nan,nan,nan,nan,nan,nan,nan,nan,nan,nan,nan,257.32063235668465,323.8035062942654,nan,324.4632658206392,nan,nan,nan,nan
1,34,1,1,nan,nan,nan,0,nan,nan,nan,nan,nan,nan,nan,nan,nan,8,7,0,4,5,3,nan,nan,nan,nan,nan,nan,nan,nan,nan,nan,nan,nan,0.0,nan,nan,nan,nan,nan,nan,nan,nan,nan,nan,nan,nan,nan,nan,nan,nan,nan,nan,257.32063235668465,324.82861564308405,nan,nan,nan,nan,nan,nan
1,35,1,1,nan,nan,nan,0,nan,nan,nan,nan,nan,nan,nan,nan,nan,3,4,1,8,7,5,nan,nan,nan,nan,nan,nan,nan,nan,nan,nan,nan,nan,0.0,nan,nan,nan,nan,nan,nan,nan,nan,nan,nan,nan,nan,nan,nan,nan,nan,nan,nan,257.32063235668465,325.8537369661499,nan,nan,nan,nan,nan,nan
1,36,0,0,1.0,0.0,0.04033837583847344,0,nan,nan,nan,nan,nan,nan,nan,nan,nan,5,8,3,4,2,0,nan,nan,nan,nan,nan,nan,nan,nan,nan,nan,nan,nan,0.0,nan,nan,nan,nan,nan,nan,nan,nan,nan,nan,nan,nan,nan,nan,nan,nan,nan,nan,257.32063235668465,326.8788694080431,nan,326.9192077838816,nan,nan,nan,nan
1,37,1,1,1.0,1.0,0.5431770868599415,0,nan,nan,nan,nan,nan,nan,nan,nan,nan,2,1,5,6,0,8,nan,nan,nan,nan,nan,nan,nan,nan,nan,nan,nan,nan,0.0,nan,nan,nan,nan,nan,nan,nan,nan,nan,nan,nan,nan,nan,nan,nan,nan,nan,nan,257.32063235668465,327.9039932969026,nan,328.44717038376257,nan,nan,nan,nan
1,38,1,1,1.0,1.0,0.605989659903571,0,nan,nan,nan,nan,nan,nan,nan,nan,nan,4,2,6,1,7,5,nan,nan,nan,nan,nan,nan,nan,nan,nan,nan,nan,nan,0.0,nan,nan,nan,nan,nan,nan,nan,nan,nan,nan,nan,nan,nan,nan,nan,nan,nan,nan,257.32063235668465,328.9291582398582,nan,329.5351478997618,nan,nan,nan,nan
1,39,1,1,1.0,1.0,0.5248738590162247,0,nan,nan,nan,nan,nan,nan,nan,nan,nan,8,0,1,5,4,2,nan,nan,nan,nan,nan,nan,nan,nan,nan,nan,nan,nan,0.0,nan,nan,nan,nan,nan,nan,nan,nan,nan,nan,nan,nan,nan,nan,nan,nan,nan,nan,257.32063235668465,329.9542564698495,nan,330.4791303288657,nan,nan,nan,nan
1,40,1,1,1.0,1.0,0.5396940568462014,0,nan,nan,nan,nan,nan,nan,nan,nan,nan,4,6,5,0,8,3,nan,nan,nan,nan,nan,nan,nan,nan,nan,nan,nan,nan,0.0,nan,nan,nan,nan,nan,nan,nan,nan,nan,nan,nan,nan,nan,nan,nan,nan,nan,nan,257.32063235668465,330.97940858337097,nan,331.51910264021717,nan,nan,nan,nan
1,41,0,0,0.0,1.0,0.7065476521383971,0,nan,nan,nan,nan,nan,nan,nan,nan,nan,0,1,3,8,2,7,nan,nan,nan,nan,nan,nan,nan,nan,nan,nan,nan,nan,0.0,nan,nan,nan,nan,nan,nan,nan,nan,nan,nan,nan,nan,nan,nan,nan,nan,nan,nan,257.32063235668465,332.00453418283723,nan,332.71108183497563,nan,nan,nan,nan
1,42,1,1,1.0,1.0,0.6014235464390367,0,nan,nan,nan,nan,nan,nan,nan,nan,nan,2,7,5,0,1,8,nan,nan,nan,nan,nan,nan,nan,nan,nan,nan,nan,nan,0.0,nan,nan,nan,nan,nan,nan,nan,nan,nan,nan,nan,nan,nan,nan,nan,nan,nan,nan,257.32063235668465,333.0296403958928,nan,333.6310639423318,nan,nan,nan,nan
1,43,1,1,nan,nan,nan,0,nan,nan,nan,nan,nan,nan,nan,nan,nan,4,8,7,3,2,0,nan,nan,nan,nan,nan,nan,nan,nan,nan,nan,nan,nan,0.0,nan,nan,nan,nan,nan,nan,nan,nan,nan,nan,nan,nan,nan,nan,nan,nan,nan,nan,257.32063235668465,334.0547933646012,nan,nan,nan,nan,nan,nan
1,44,1,1,1.0,1.0,0.7271022910717875,0,nan,nan,nan,nan,nan,nan,nan,nan,nan,7,5,3,6,1,4,nan,nan,nan,nan,nan,nan,nan,nan,nan,nan,nan,nan,0.0,nan,nan,nan,nan,nan,nan,nan,nan,nan,nan,nan,nan,nan,nan,nan,nan,nan,nan,257.32063235668465,335.07991867908277,nan,335.80702097015455,nan,nan,nan,nan
1,45,1,1,nan,nan,nan,0,nan,nan,nan,nan,nan,nan,nan,nan,nan,5,4,2,7,3,0,nan,nan,nan,nan,nan,nan,nan,nan,nan,nan,nan,nan,0.0,nan,nan,nan,nan,nan,nan,nan,nan,nan,nan,nan,nan,nan,nan,nan,nan,nan,nan,257.32063235668465,336.10504570393823,nan,nan,nan,nan,nan,nan
1,46,1,1,nan,nan,nan,0,nan,nan,nan,nan,nan,nan,nan,nan,nan,6,3,7,5,1,2,nan,nan,nan,nan,nan,nan,nan,nan,nan,nan,nan,nan,0.0,nan,nan,nan,nan,nan,nan,nan,nan,nan,nan,nan,nan,nan,nan,nan,nan,nan,nan,257.32063235668465,337.1301584742032,nan,nan,nan,nan,nan,nan
1,47,0,0,nan,nan,nan,0,nan,nan,nan,nan,nan,nan,nan,nan,nan,8,0,4,1,2,5,nan,nan,nan,nan,nan,nan,nan,nan,nan,nan,nan,nan,0.0,nan,nan,nan,nan,nan,nan,nan,nan,nan,nan,nan,nan,nan,nan,nan,nan,nan,nan,257.32063235668465,338.15530003909953,nan,nan,nan,nan,nan,nan
1,48,1,1,1.0,1.0,0.7945035006850958,0,nan,nan,nan,nan,nan,nan,nan,nan,nan,2,6,1,0,8,7,nan,nan,nan,nan,nan,nan,nan,nan,nan,nan,nan,nan,0.0,nan,nan,nan,nan,nan,nan,nan,nan,nan,nan,nan,nan,nan,nan,nan,nan,nan,nan,257.32063235668465,339.1804299149662,nan,339.9749334156513,nan,nan,nan,nan
1,49,1,1,nan,nan,nan,0,nan,nan,nan,nan,nan,nan,nan,nan,nan,8,3,6,7,0,5,nan,nan,nan,nan,nan,nan,nan,nan,nan,nan,nan,nan,0.0,nan,nan,nan,nan,nan,nan,nan,nan,nan,nan,nan,nan,nan,nan,nan,nan,nan,nan,257.32063235668465,340.2055694842711,nan,nan,nan,nan,nan,nan
1,50,1,1,1.0,1.0,0.7522039422765374,0,nan,nan,nan,nan,nan,nan,nan,nan,nan,7,2,8,1,5,0,nan,nan,nan,nan,nan,nan,nan,nan,nan,nan,nan,nan,0.0,nan,nan,nan,nan,nan,nan,nan,nan,nan,nan,nan,nan,nan,nan,nan,nan,nan,nan,257.32063235668465,341.2306754121091,nan,341.98287935438566,nan,nan,nan,nan
1,51,0,0,0.0,1.0,0.7350550722330809,0,nan,nan,nan,nan,nan,nan,nan,nan,nan,6,4,1,7,3,8,nan,nan,nan,nan,nan,nan,nan,nan,nan,nan,nan,nan,0.0,nan,nan,nan,nan,nan,nan,nan,nan,nan,nan,nan,nan,nan,nan,nan,nan,nan,nan,257.32063235668465,342.2558166917879,nan,342.990871764021,nan,nan,nan,nan
1,52,1,1,1.0,1.0,0.6938807917758822,0,nan,nan,nan,nan,nan,nan,nan,nan,nan,8,0,7,5,2,3,nan,nan,nan,nan,nan,nan,nan,nan,nan,nan,nan,nan,0.0,nan,nan,nan,nan,nan,nan,nan,nan,nan,nan,nan,nan,nan,nan,nan,nan,nan,nan,257.32063235668465,343.2809528398793,nan,343.9748336316552,nan,nan,nan,nan
1,53,1,1,1.0,1.0,0.6767108242493123,0,nan,nan,nan,nan,nan,nan,nan,nan,nan,3,8,5,7,0,1,nan,nan,nan,nan,nan,nan,nan,nan,nan,nan,nan,nan,0.0,nan,nan,nan,nan,nan,nan,nan,nan,nan,nan,nan,nan,nan,nan,nan,nan,nan,nan,257.32063235668465,344.30612063384615,nan,344.98283145809546,nan,nan,nan,nan
1,54,1,1,1.0,1.0,0.6192526579834521,0,nan,nan,nan,nan,nan,nan,nan,nan,nan,2,7,3,1,8,6,nan,nan,nan,nan,nan,nan,nan,nan,nan,nan,nan,nan,0.0,nan,nan,nan,nan,nan,nan,nan,nan,nan,nan,nan,nan,nan,nan,nan,nan,nan,nan,257.32063235668465,345.3395645087585,nan,345.95881716674194,nan,nan,nan,nan
1,55,1,1,1.0,1.0,0.7221698276698589,0,nan,nan,nan,nan,nan,nan,nan,nan,nan,8,6,5,3,1,4,nan,nan,nan,nan,nan,nan,nan,nan,nan,nan,nan,nan,0.0,nan,nan,nan,nan,nan,nan,nan,nan,nan,nan,nan,nan,nan,nan,nan,nan,nan,nan,257.32063235668465,346.3646262465045,nan,347.08679607417434,nan,nan,nan,nan
1,56,1,1,1.0,1.0,0.6329669645056129,0,nan,nan,nan,nan,nan,nan,nan,nan,nan,4,5,2,7,0,3,nan,nan,nan,nan,nan,nan,nan,nan,nan,nan,nan,nan,0.0,nan,nan,nan,nan,nan,nan,nan,nan,nan,nan,nan,nan,nan,nan,nan,nan,nan,nan,257.32063235668465,347.3898025932722,nan,348.0227695577778,nan,nan,nan,nan
1,57,1,1,1.0,1.0,0.4958250392228365,0,nan,nan,nan,nan,nan,nan,nan,nan,nan,1,0,7,3,8,5,nan,nan,nan,nan,nan,nan,nan,nan,nan,nan,nan,nan,0.0,nan,nan,nan,nan,nan,nan,nan,nan,nan,nan,nan,nan,nan,nan,nan,nan,nan,nan,257.32063235668465,348.4149327543564,nan,348.91075779357925,nan,nan,nan,nan
1,58,1,1,1.0,1.0,0.46263917721807957,0,nan,nan,nan,nan,nan,nan,nan,nan,nan,2,3,8,5,4,6,nan,nan,nan,nan,nan,nan,nan,nan,nan,nan,nan,nan,0.0,nan,nan,nan,nan,nan,nan,nan,nan,nan,nan,nan,nan,nan,nan,nan,nan,nan,nan,257.32063235668465,349.44008344225585,nan,349.90272261947393,nan,nan,nan,nan
1,59,1,1,1.0,1.0,0.453527761856094,0,nan,nan,nan,nan,nan,nan,nan,nan,nan,6,0,4,3,7,2,nan,nan,nan,nan,nan,nan,nan,nan,nan,nan,nan,nan,0.0,nan,nan,nan,nan,nan,nan,nan,nan,nan,nan,nan,nan,nan,nan,nan,nan,nan,nan,257.32063235668465,350.46517625567503,nan,350.9187040175311,nan,nan,nan,nan
1,60,1,1,1.0,1.0,0.5165034106466919,0,nan,nan,nan,nan,nan,nan,nan,nan,nan,3,5,8,4,2,0,nan,nan,nan,nan,nan,nan,nan,nan,nan,nan,nan,nan,0.0,nan,nan,nan,nan,nan,nan,nan,nan,nan,nan,nan,nan,nan,nan,nan,nan,nan,nan,257.32063235668465,351.4902856044937,nan,352.0067890151404,nan,nan,nan,nan
1,61,1,1,1.0,1.0,0.4013313460163772,0,nan,nan,nan,nan,nan,nan,nan,nan,nan,0,8,2,3,1,5,nan,nan,nan,nan,nan,nan,nan,nan,nan,nan,nan,nan,0.0,nan,nan,nan,nan,nan,nan,nan,nan,nan,nan,nan,nan,nan,nan,nan,nan,nan,nan,257.32063235668465,352.5173396002501,nan,352.9186709462665,nan,nan,nan,nan
1,62,1,1,1.0,1.0,0.689805330010131,0,nan,nan,nan,nan,nan,nan,nan,nan,nan,1,4,5,7,2,8,nan,nan,nan,nan,nan,nan,nan,nan,nan,nan,nan,nan,0.0,nan,nan,nan,nan,nan,nan,nan,nan,nan,nan,nan,nan,nan,nan,nan,nan,nan,nan,257.32063235668465,353.5488761761226,nan,354.2386815061327,nan,nan,nan,nan
1,63,1,1,1.0,1.0,0.5286362839397043,0,nan,nan,nan,nan,nan,nan,nan,nan,nan,4,8,0,1,7,5,nan,nan,nan,nan,nan,nan,nan,nan,nan,nan,nan,nan,0.0,nan,nan,nan,nan,nan,nan,nan,nan,nan,nan,nan,nan,nan,nan,nan,nan,nan,nan,257.32063235668465,354.5740251536481,nan,355.1026614375878,nan,nan,nan,nan
1,64,1,1,1.0,1.0,0.5194849551189691,0,nan,nan,nan,nan,nan,nan,nan,nan,nan,8,7,2,5,6,3,nan,nan,nan,nan,nan,nan,nan,nan,nan,nan,nan,nan,0.0,nan,nan,nan,nan,nan,nan,nan,nan,nan,nan,nan,nan,nan,nan,nan,nan,nan,nan,257.32063235668465,355.5991570253391,nan,356.11864198045805,nan,nan,nan,nan
1,65,1,1,1.0,1.0,0.5823291742708534,0,nan,nan,nan,nan,nan,nan,nan,nan,nan,2,1,5,8,3,6,nan,nan,nan,nan,nan,nan,nan,nan,nan,nan,nan,nan,0.0,nan,nan,nan,nan,nan,nan,nan,nan,nan,nan,nan,nan,nan,nan,nan,nan,nan,nan,257.32063235668465,356.6242846203968,nan,357.20661379466765,nan,nan,nan,nan
1,66,1,1,1.0,1.0,0.6131507267709821,0,nan,nan,nan,nan,nan,nan,nan,nan,nan,3,5,8,2,6,7,nan,nan,nan,nan,nan,nan,nan,nan,nan,nan,nan,nan,0.0,nan,nan,nan,nan,nan,nan,nan,nan,nan,nan,nan,nan,nan,nan,nan,nan,nan,nan,257.32063235668465,357.64942019828595,nan,358.26257092505693,nan,nan,nan,nan
1,67,1,1,1.0,1.0,0.6199850724078715,0,nan,nan,nan,nan,nan,nan,nan,nan,nan,6,3,0,8,2,5,nan,nan,nan,nan,nan,nan,nan,nan,nan,nan,nan,nan,0.0,nan,nan,nan,nan,nan,nan,nan,nan,nan,nan,nan,nan,nan,nan,nan,nan,nan,nan,257.32063235668465,358.6745457977522,nan,359.2945308701601,nan,nan,nan,nan
1,68,1,1,1.0,1.0,0.45083787152543664,0,nan,nan,nan,nan,nan,nan,nan,nan,nan,2,6,3,1,5,0,nan,nan,nan,nan,nan,nan,nan,nan,nan,nan,nan,nan,0.0,nan,nan,nan,nan,nan,nan,nan,nan,nan,nan,nan,nan,nan,nan,nan,nan,nan,nan,257.32063235668465,359.6996865074616,nan,360.15052437898703,nan,nan,nan,nan
1,69,1,1,1.0,1.0,0.649697597604245,0,nan,nan,nan,nan,nan,nan,nan,nan,nan,5,1,6,0,3,8,nan,nan,nan,nan,nan,nan,nan,nan,nan,nan,nan,nan,0.0,nan,nan,nan,nan,nan,nan,nan,nan,nan,nan,nan,nan,nan,nan,nan,nan,nan,nan,257.32063235668465,360.724797566887,nan,361.37449516449124,nan,nan,nan,nan
1,70,1,1,nan,nan,nan,0,nan,nan,nan,nan,nan,nan,nan,nan,nan,1,4,5,6,7,3,nan,nan,nan,nan,nan,nan,nan,nan,nan,nan,nan,nan,0.0,nan,nan,nan,nan,nan,nan,nan,nan,nan,nan,nan,nan,nan,nan,nan,nan,nan,nan,257.32063235668465,361.7499613694381,nan,nan,nan,nan,nan,nan
1,71,1,1,1.0,1.0,0.7674041744321585,0,nan,nan,nan,nan,nan,nan,nan,nan,nan,6,5,2,8,1,7,nan,nan,nan,nan,nan,nan,nan,nan,nan,nan,nan,nan,0.0,nan,nan,nan,nan,nan,nan,nan,nan,nan,nan,nan,nan,nan,nan,nan,nan,nan,nan,257.32063235668465,362.77503223042004,nan,363.5424364048522,nan,nan,nan,nan
1,72,0,0,0.0,1.0,0.7742459326982498,0,nan,nan,nan,nan,nan,nan,nan,nan,nan,7,3,4,0,2,1,nan,nan,nan,nan,nan,nan,nan,nan,nan,nan,nan,nan,0.0,nan,nan,nan,nan,nan,nan,nan,nan,nan,nan,nan,nan,nan,nan,nan,nan,nan,nan,257.32063235668465,363.80018862034194,nan,364.5744345530402,nan,nan,nan,nan
1,73,1,1,nan,nan,nan,0,nan,nan,nan,nan,nan,nan,nan,nan,nan,2,7,3,6,8,5,nan,nan,nan,nan,nan,nan,nan,nan,nan,nan,nan,nan,0.0,nan,nan,nan,nan,nan,nan,nan,nan,nan,nan,nan,nan,nan,nan,nan,nan,nan,nan,257.32063235668465,364.82528856093995,nan,nan,nan,nan,nan,nan
1,74,1,1,nan,nan,nan,0,nan,nan,nan,nan,nan,nan,nan,nan,nan,4,1,8,5,0,3,nan,nan,nan,nan,nan,nan,nan,nan,nan,nan,nan,nan,0.0,nan,nan,nan,nan,nan,nan,nan,nan,nan,nan,nan,nan,nan,nan,nan,nan,nan,nan,257.32063235668465,365.85041701141745,nan,nan,nan,nan,nan,nan
1,75,0,0,nan,nan,nan,0,nan,nan,nan,nan,nan,nan,nan,nan,nan,5,3,6,4,8,1,nan,nan,nan,nan,nan,nan,nan,nan,nan,nan,nan,nan,0.0,nan,nan,nan,nan,nan,nan,nan,nan,nan,nan,nan,nan,nan,nan,nan,nan,nan,nan,257.32063235668465,366.87554175569676,nan,nan,nan,nan,nan,nan
1,76,1,1,nan,nan,nan,0,nan,nan,nan,nan,nan,nan,nan,nan,nan,2,4,0,1,7,6,nan,nan,nan,nan,nan,nan,nan,nan,nan,nan,nan,nan,0.0,nan,nan,nan,nan,nan,nan,nan,nan,nan,nan,nan,nan,nan,nan,nan,nan,nan,nan,257.32063235668465,367.9006784739904,nan,nan,nan,nan,nan,nan
1,77,0,0,nan,nan,nan,0,nan,nan,nan,nan,nan,nan,nan,nan,nan,7,5,1,3,8,0,nan,nan,nan,nan,nan,nan,nan,nan,nan,nan,nan,nan,0.0,nan,nan,nan,nan,nan,nan,nan,nan,nan,nan,nan,nan,nan,nan,nan,nan,nan,nan,257.32063235668465,368.9258260258939,nan,nan,nan,nan,nan,nan
1,78,1,1,nan,nan,nan,1,nan,nan,nan,nan,nan,nan,nan,nan,nan,2,1,4,0,5,3,1.0,1.0,1.0,1.0,1.0,1.0,0.0,0.0,0.0,1.0,0.0,0.0,1.0,4.0,6.0,5.0,0.0,1.0,2.0,4.0,3.0,2.0,1.0,6.0,5.0,6.883326899725944,5.659596165874973,4.627521896967664,2.780325626488775,10.546893041348085,8.379401113837957,257.32063235668465,369.9509507701732,370.7593781237956,nan,382.3524699951522,383.3526125436183,371.7678226970602,382.344138890272
1,79,1,1,1.0,1.0,0.7403929436113685,0,nan,nan,nan,nan,nan,nan,nan,nan,nan,3,0,8,2,4,1,nan,nan,nan,nan,nan,nan,nan,nan,nan,nan,nan,nan,0.0,nan,nan,nan,nan,nan,nan,nan,nan,nan,nan,nan,nan,nan,nan,nan,nan,nan,nan,257.32063235668465,383.57764930673875,nan,384.3180422503501,nan,nan,nan,nan
1,80,1,1,1.0,1.0,0.6192335565574467,0,nan,nan,nan,nan,nan,nan,nan,nan,nan,4,8,5,7,0,6,nan,nan,nan,nan,nan,nan,nan,nan,nan,nan,nan,nan,0.0,nan,nan,nan,nan,nan,nan,nan,nan,nan,nan,nan,nan,nan,nan,nan,nan,nan,nan,257.32063235668465,384.60277148522437,nan,385.2220050417818,nan,nan,nan,nan
1,81,1,1,1.0,1.0,0.6980645905714482,0,0.0,0.0,0.0,0.5968384433491919,0.13357436861198216,0.46326407473720976,0.730412811961174,0.13357436861198216,0.6858970302467545,6,0,1,4,5,7,nan,nan,nan,nan,nan,nan,nan,nan,nan,nan,nan,nan,0.0,nan,nan,nan,nan,nan,nan,nan,nan,nan,nan,nan,nan,nan,nan,nan,nan,nan,nan,257.32063235668465,385.62792388373055,nan,386.325988474302,nan,nan,nan,nan
1,82,1,1,1.0,1.0,0.6328805803786963,0,0.0,0.0,0.0,0.5984711231430992,0.1331049968737843,0.46536612626931495,0.7315761200168835,0.1331049968737843,0.6500595758358637,0,4,7,3,2,5,nan,nan,nan,nan,nan,nan,nan,nan,nan,nan,nan,nan,0.0,nan,nan,nan,nan,nan,nan,nan,nan,nan,nan,nan,nan,nan,nan,nan,nan,nan,nan,257.32063235668465,386.6530785630457,nan,387.2859591434244,nan,nan,nan,nan
1,83,1,1,1.0,1.0,0.7437610796187073,0,0.0,0.0,0.0,0.5990173050039818,0.13211439901323682,0.4669029059907449,0.7311317040172186,0.13211439901323682,0.6915687501896173,4,8,1,5,6,2,nan,nan,nan,nan,nan,nan,nan,nan,nan,nan,nan,nan,0.0,nan,nan,nan,nan,nan,nan,nan,nan,nan,nan,nan,nan,nan,nan,nan,nan,nan,nan,257.32063235668465,387.6781625384465,nan,388.4219236180652,nan,nan,nan,nan
1,84,1,1,1.0,1.0,0.6142854129429907,0,0.0,0.0,0.0,0.6012789264823368,0.13230167430546058,0.46897725217687625,0.7335806007877974,0.13230167430546058,0.6636423576467981,5,4,2,7,3,0,nan,nan,nan,nan,nan,nan,nan,nan,nan,nan,nan,nan,0.0,nan,nan,nan,nan,nan,nan,nan,nan,nan,nan,nan,nan,nan,nan,nan,nan,nan,nan,257.32063235668465,388.7116628626827,nan,389.3259482756257,nan,nan,nan,nan
1,85,1,1,1.0,1.0,0.5251512583345175,0,0.0,0.0,0.0,0.6014790262740392,0.13128978398551588,0.47018924228852327,0.7327688102595551,0.13128978398551588,0.6277325836320718,6,3,1,5,8,7,nan,nan,nan,nan,nan,nan,nan,nan,nan,nan,nan,nan,0.0,nan,nan,nan,nan,nan,nan,nan,nan,nan,nan,nan,nan,nan,nan,nan,nan,nan,nan,257.32063235668465,389.7367898875382,nan,390.2619411458727,nan,nan,nan,nan
1,86,1,1,1.0,1.0,0.46796792559325695,0,0.0,0.0,0.0,0.6003225449416222,0.13062455661241176,0.4696979883292104,0.730947101554034,0.13062455661241176,0.5358015322902551,8,6,4,3,5,1,nan,nan,nan,nan,nan,nan,nan,nan,nan,nan,nan,nan,0.0,nan,nan,nan,nan,nan,nan,nan,nan,nan,nan,nan,nan,nan,nan,nan,nan,nan,nan,257.32063235668465,390.7619260356296,nan,391.22989396122284,nan,nan,nan,nan
1,87,1,1,1.0,1.0,0.5148201980628073,0,0.0,0.0,0.0,0.5983471028617958,0.13063561161814946,0.46771149124364636,0.7289827144799452,0.13063561161814946,0.5026464606635273,4,2,3,8,7,0,nan,nan,nan,nan,nan,nan,nan,nan,nan,nan,nan,nan,0.0,nan,nan,nan,nan,nan,nan,nan,nan,nan,nan,nan,nan,nan,nan,nan,nan,nan,nan,257.32063235668465,391.78704935428686,nan,392.3018695523497,nan,nan,nan,nan
1,88,1,1,1.0,1.0,0.513634194387123,0,0.0,0.0,0.0,0.5971187660265166,0.13006070795086272,0.46705805807565387,0.7271794739773794,0.13006070795086272,0.4988074393477291,7,1,0,2,6,3,nan,nan,nan,nan,nan,nan,nan,nan,nan,nan,nan,nan,0.0,nan,nan,nan,nan,nan,nan,nan,nan,nan,nan,nan,nan,nan,nan,nan,nan,nan,nan,257.32063235668465,392.81220431881957,nan,393.3258385132067,nan,nan,nan,nan
1,89,1,1,1.0,1.0,0.4645236684009433,0,0.0,0.0,0.0,0.5959088446984094,0.1294997191603598,0.46640912553804964,0.7254085638587693,0.1294997191603598,0.49765935361695784,8,6,4,3,5,1,nan,nan,nan,nan,nan,nan,nan,nan,nan,nan,nan,nan,0.0,nan,nan,nan,nan,nan,nan,nan,nan,nan,nan,nan,nan,nan,nan,nan,nan,nan,nan,257.32063235668465,393.83730482985266,nan,394.3018284982536,nan,nan,nan,nan
1,90,1,1,1.0,1.0,0.4713506014086306,0,0.0,0.0,0.0,0.5940319136084456,0.12951324779169973,0.46451866581674595,0.7235451614001454,0.12951324779169973,0.48316948806556564,2,0,6,1,3,7,nan,nan,nan,nan,nan,nan,nan,nan,nan,nan,nan,nan,0.0,nan,nan,nan,nan,nan,nan,nan,nan,nan,nan,nan,nan,nan,nan,nan,nan,nan,nan,257.32063235668465,394.8624386971351,nan,395.3337892985437,nan,nan,nan,nan
1,91,1,1,1.0,1.0,0.5582558675669134,0,0.0,0.0,0.0,0.5923040078028144,0.1294079920774793,0.4628960157253351,0.7217119998802938,0.1294079920774793,0.49804337912549573,3,6,8,5,4,2,nan,nan,nan,nan,nan,nan,nan,nan,nan,nan,nan,nan,0.0,nan,nan,nan,nan,nan,nan,nan,nan,nan,nan,nan,nan,nan,nan,nan,nan,nan,nan,257.32063235668465,395.8875688582193,nan,396.4458247257862,nan,nan,nan,nan
1,92,1,1,1.0,1.0,0.6930582870263606,0,0.0,0.0,0.0,0.5918311169662047,0.12856794529656906,0.46326317166963565,0.7203990622627738,0.12856794529656906,0.5742215853339682,4,5,0,6,7,3,nan,nan,nan,nan,nan,nan,nan,nan,nan,nan,nan,nan,0.0,nan,nan,nan,nan,nan,nan,nan,nan,nan,nan,nan,nan,nan,nan,nan,nan,nan,nan,257.32063235668465,396.91269303206354,nan,397.6057513190899,nan,nan,nan,nan
1,93,1,1,1.0,1.0,0.6759293733630329,0,0.0,0.0,0.0,0.5932177905286726,0.12822530273446156,0.4649924877942111,0.7214430932631342,0.12822530273446156,0.642414509318769,3,2,7,1,8,4,nan,nan,nan,nan,nan,nan,nan,nan,nan,nan,nan,nan,0.0,nan,nan,nan,nan,nan,nan,nan,nan,nan,nan,nan,nan,nan,nan,nan,nan,nan,nan,257.32063235668465,397.9378129297402,nan,398.6137423031032,nan,nan,nan,nan
1,94,1,1,nan,nan,nan,0,0.0,0.0,0.0,0.0,0.0,0.0,0.0,0.0,0.0,4,6,0,2,5,1,nan,nan,nan,nan,nan,nan,nan,nan,nan,nan,nan,nan,0.0,nan,nan,nan,nan,nan,nan,nan,nan,nan,nan,nan,nan,nan,nan,nan,nan,nan,nan,257.32063235668465,398.9629430908244,nan,nan,nan,nan,nan,nan
1,95,1,1,nan,nan,nan,0,0.0,0.0,0.0,0.0,0.0,0.0,0.0,0.0,0.0,2,7,3,4,0,5,nan,nan,nan,nan,nan,nan,nan,nan,nan,nan,nan,nan,0.0,nan,nan,nan,nan,nan,nan,nan,nan,nan,nan,nan,nan,nan,nan,nan,nan,nan,nan,257.32063235668465,399.9880310574081,nan,nan,nan,nan,nan,nan
1,96,1,1,nan,nan,nan,0,0.0,0.0,0.0,0.0,0.0,0.0,0.0,0.0,0.0,8,1,6,7,5,2,nan,nan,nan,nan,nan,nan,nan,nan,nan,nan,nan,nan,0.0,nan,nan,nan,nan,nan,nan,nan,nan,nan,nan,nan,nan,nan,nan,nan,nan,nan,nan,257.32063235668465,401.01321738259867,nan,nan,nan,nan,nan,nan
1,97,1,1,nan,nan,nan,0,0.0,0.0,0.0,0.0,0.0,0.0,0.0,0.0,0.0,5,6,3,4,1,8,nan,nan,nan,nan,nan,nan,nan,nan,nan,nan,nan,nan,0.0,nan,nan,nan,nan,nan,nan,nan,nan,nan,nan,nan,nan,nan,nan,nan,nan,nan,nan,257.32063235668465,402.03829537075944,nan,nan,nan,nan,nan,nan
1,98,1,1,1.0,1.0,0.07820553099736571,1,1.0,0.0,1.0,0.5943355146210288,0.12771351598794614,0.46662199863308274,0.722049030608975,0.12771351598794614,0.07820553099736571,0,4,2,8,5,7,1.0,1.0,1.0,1.0,1.0,1.0,0.0,0.0,0.0,0.0,0.0,0.0,0.0,1.0,8.0,6.0,4.0,2.0,3.0,4.0,3.0,2.0,1.0,6.0,5.0,6.937505024718121,5.601304660784081,4.258548206184059,2.988150798017159,11.921338598942384,10.281143284635618,257.32063235668465,403.06343893148005,403.8718999265693,403.1416444624774,416.8401041973848,417.8398581587244,404.8803293898236,416.8317753733136
1,99,1,1,nan,nan,nan,0,0.0,0.0,0.0,0.0,0.0,0.0,0.0,0.0,0.0,5,3,8,6,2,1,nan,nan,nan,nan,nan,nan,nan,nan,nan,nan,nan,nan,0.0,nan,nan,nan,nan,nan,nan,nan,nan,nan,nan,nan,nan,nan,nan,nan,nan,nan,nan,257.32063235668465,418.06532769906335,nan,nan,nan,nan,nan,nan
1,100,1,1,nan,nan,nan,0,0.0,0.0,0.0,0.0,0.0,0.0,0.0,0.0,0.0,8,6,5,4,1,7,nan,nan,nan,nan,nan,nan,nan,nan,nan,nan,nan,nan,0.0,nan,nan,nan,nan,nan,nan,nan,nan,nan,nan,nan,nan,nan,nan,nan,nan,nan,nan,257.32063235668465,419.09043220151216,nan,nan,nan,nan,nan,nan
1,101,1,1,nan,nan,nan,0,0.0,0.0,0.0,0.0,0.0,0.0,0.0,0.0,0.0,5,1,3,6,7,8,nan,nan,nan,nan,nan,nan,nan,nan,nan,nan,nan,nan,0.0,nan,nan,nan,nan,nan,nan,nan,nan,nan,nan,nan,nan,nan,nan,nan,nan,nan,nan,257.32063235668465,420.11557063041255,nan,nan,nan,nan,nan,nan
1,102,1,1,nan,nan,nan,0,0.0,0.0,0.0,0.0,0.0,0.0,0.0,0.0,0.0,0,5,8,4,1,3,nan,nan,nan,nan,nan,nan,nan,nan,nan,nan,nan,nan,0.0,nan,nan,nan,nan,nan,nan,nan,nan,nan,nan,nan,nan,nan,nan,nan,nan,nan,nan,257.32063235668465,421.14066372881643,nan,nan,nan,nan,nan,nan
1,103,1,1,1.0,1.0,0.6953812572173774,0,0.0,0.0,0.0,0.5874537815060467,0.13999205746420873,0.4474617240418379,0.7274458389702554,0.13999205746420873,0.6953812572173774,6,4,3,2,5,1,nan,nan,nan,nan,nan,nan,nan,nan,nan,nan,nan,nan,0.0,nan,nan,nan,nan,nan,nan,nan,nan,nan,nan,nan,nan,nan,nan,nan,nan,nan,nan,257.32063235668465,422.16581641254015,nan,422.86119766975753,nan,nan,nan,nan
1,104,1,1,nan,nan,nan,0,0.0,0.0,0.0,0.0,0.0,0.0,0.0,0.0,0.0,8,5,2,0,3,6,nan,nan,nan,nan,nan,nan,nan,nan,nan,nan,nan,nan,0.0,nan,nan,nan,nan,nan,nan,nan,nan,nan,nan,nan,nan,nan,nan,nan,nan,nan,nan,257.32063235668465,423.19092718698084,nan,nan,nan,nan,nan,nan
1,105,1,1,1.0,1.0,0.05313609563745558,1,1.0,0.0,1.0,0.5888738798706694,0.13961075040896548,0.44926312946170394,0.7284846302796348,0.13961075040896548,0.3742586764274165,2,0,7,8,6,4,1.0,1.0,1.0,1.0,1.0,1.0,0.0,0.0,0.0,0.0,0.0,0.0,0.0,3.0,6.0,2.0,0.0,7.0,1.0,6.0,3.0,2.0,1.0,4.0,5.0,11.440395908430219,5.761422554031014,3.8401583656668663,2.7450708150863647,7.832964227534831,10.416730290744454,257.32063235668465,424.21607131767087,425.0244673106354,424.2692074133083,437.5093534628395,438.50859025819227,426.0329515126068,437.5010274897795
1,106,1,1,1.0,1.0,0.6943181306123734,0,0.0,0.0,0.0,0.5819162463091991,0.15138390992271905,0.4305323363864801,0.7333001562319181,0.15138390992271905,0.37372711312491447,1,7,2,4,5,3,nan,nan,nan,nan,nan,nan,nan,nan,nan,nan,nan,nan,0.0,nan,nan,nan,nan,nan,nan,nan,nan,nan,nan,nan,nan,nan,nan,nan,nan,nan,nan,257.32063235668465,438.73457154771313,nan,439.4288896783255,nan,nan,nan,nan
1,107,0,0,0.0,1.0,0.6131880744360387,0,0.0,0.0,0.0,0.5833572961079577,0.1509409800182089,0.43241631608974884,0.7342982761261666,0.1509409800182089,0.45354743356195587,5,4,6,1,0,2,nan,nan,nan,nan,nan,nan,nan,nan,nan,nan,nan,nan,0.0,nan,nan,nan,nan,nan,nan,nan,nan,nan,nan,nan,nan,nan,nan,nan,nan,nan,nan,257.32063235668465,439.7596945813857,nan,440.37288265582174,nan,nan,nan,nan
1,108,1,1,1.0,1.0,0.6200309731066227,0,0.0,0.0,0.0,0.5837349008969208,0.1500196868136581,0.43371521408326275,0.7337545877105789,0.1500196868136581,0.6425123927183449,4,6,7,2,5,3,nan,nan,nan,nan,nan,nan,nan,nan,nan,nan,nan,nan,0.0,nan,nan,nan,nan,nan,nan,nan,nan,nan,nan,nan,nan,nan,nan,nan,nan,nan,nan,257.32063235668465,440.78481390862726,nan,441.4048448817339,nan,nan,nan,nan
1,109,1,1,nan,nan,nan,0,0.0,0.0,0.0,0.0,0.0,0.0,0.0,0.0,0.0,1,7,2,0,4,6,nan,nan,nan,nan,nan,nan,nan,nan,nan,nan,nan,nan,0.0,nan,nan,nan,nan,nan,nan,nan,nan,nan,nan,nan,nan,nan,nan,nan,nan,nan,nan,257.32063235668465,441.8099566139281,nan,nan,nan,nan,nan,nan
1,110,1,1,1.0,1.0,0.48972823983058333,0,0.0,0.0,0.0,0.5841886017995421,0.14913364582644092,0.4350549559731012,0.7333222476259831,0.14913364582644092,0.554879606468603,7,5,4,6,3,1,nan,nan,nan,nan,nan,nan,nan,nan,nan,nan,nan,nan,0.0,nan,nan,nan,nan,nan,nan,nan,nan,nan,nan,nan,nan,nan,nan,nan,nan,nan,nan,257.32063235668465,442.8350756561849,nan,443.3248038960155,nan,nan,nan,nan
1,111,1,1,1.0,1.0,0.5686208545230329,0,0.0,0.0,0.0,0.5830224244912834,0.14857679345618846,0.4344456310350949,0.7315992179474718,0.14857679345618846,0.5291745471768081,5,8,3,1,6,2,nan,nan,nan,nan,nan,nan,nan,nan,nan,nan,nan,nan,0.0,nan,nan,nan,nan,nan,nan,nan,nan,nan,nan,nan,nan,nan,nan,nan,nan,nan,nan,257.32063235668465,443.86017673742026,nan,444.4287975919433,nan,nan,nan,nan
1,112,1,1,1.0,1.0,0.6154491789638996,0,0.0,0.0,0.0,0.5828467955892315,0.14767651793028716,0.43517027765894434,0.7305233135195186,0.14767651793028716,0.5579327577725053,0,4,5,6,2,7,nan,nan,nan,nan,nan,nan,nan,nan,nan,nan,nan,nan,0.0,nan,nan,nan,nan,nan,nan,nan,nan,nan,nan,nan,nan,nan,nan,nan,nan,nan,nan,257.32063235668465,444.88535336917266,nan,445.50080254813656,nan,nan,nan,nan
1,113,0,0,0.0,1.0,0.638263211818412,0,0.0,0.0,0.0,0.5832395953889263,0.1468272951927032,0.4364123001962231,0.7300668905816295,0.1468272951927032,0.6074444151017815,4,1,2,3,5,6,nan,nan,nan,nan,nan,nan,nan,nan,nan,nan,nan,nan,0.0,nan,nan,nan,nan,nan,nan,nan,nan,nan,nan,nan,nan,nan,nan,nan,nan,nan,nan,257.32063235668465,445.9104746922385,nan,446.5487379040569,nan,nan,nan,nan
1,114,1,1,1.0,1.0,0.5970900719985366,0,0.0,0.0,0.0,0.5838946384416582,0.14607266165037658,0.43782197679128165,0.7299673000920348,0.14607266165037658,0.6169341542602828,6,3,8,4,0,7,nan,nan,nan,nan,nan,nan,nan,nan,nan,nan,nan,nan,0.0,nan,nan,nan,nan,nan,nan,nan,nan,nan,nan,nan,nan,nan,nan,nan,nan,nan,nan,257.32063235668465,446.9356250951532,nan,447.53271516715176,nan,nan,nan,nan
1,115,1,1,1.0,1.0,0.6439822579268366,0,0.0,0.0,0.0,0.5840498788364451,0.1452178387785651,0.43883204005788,0.7292677176150102,0.1452178387785651,0.6264451805812618,2,0,4,1,8,5,nan,nan,nan,nan,nan,nan,nan,nan,nan,nan,nan,nan,0.0,nan,nan,nan,nan,nan,nan,nan,nan,nan,nan,nan,nan,nan,nan,nan,nan,nan,nan,257.32063235668465,447.96071847877465,nan,448.6047007367015,nan,nan,nan,nan
1,116,1,1,1.0,1.0,0.49885419523343444,0,0.0,0.0,0.0,0.5847467669654031,0.1445139762838955,0.44023279068150756,0.7292607432492986,0.1445139762838955,0.5799755083862692,0,7,8,5,6,2,nan,nan,nan,nan,nan,nan,nan,nan,nan,nan,nan,nan,0.0,nan,nan,nan,nan,nan,nan,nan,nan,nan,nan,nan,nan,nan,nan,nan,nan,nan,nan,257.32063235668465,448.98582697240636,nan,449.4846811676398,nan,nan,nan,nan
1,117,1,1,1.0,1.0,0.5936914305202663,0,0.0,0.0,0.0,0.5837594960259552,0.14397244380326862,0.4397870522226866,0.7277319398292239,0.14397244380326862,0.5788426278935125,7,1,2,3,8,5,nan,nan,nan,nan,nan,nan,nan,nan,nan,nan,nan,nan,0.0,nan,nan,nan,nan,nan,nan,nan,nan,nan,nan,nan,nan,nan,nan,nan,nan,nan,nan,257.32063235668465,450.0109750945121,nan,450.60466652503237,nan,nan,nan,nan
1,118,1,1,1.0,1.0,0.6965222156140953,0,0.0,0.0,0.0,0.583872358917936,0.14315595200743225,0.44071640691050373,0.7270283109253682,0.14315595200743225,0.5963559471225987,8,2,5,6,3,0,nan,nan,nan,nan,nan,nan,nan,nan,nan,nan,nan,nan,0.0,nan,nan,nan,nan,nan,nan,nan,nan,nan,nan,nan,nan,nan,nan,nan,nan,nan,nan,257.32063235668465,451.03610411519185,nan,451.73262633080594,nan,nan,nan,nan
1,119,1,1,1.0,1.0,0.6793964381795377,0,0.0,0.0,0.0,0.5851380876448592,0.1428437720668525,0.4422943155780067,0.7279818597117117,0.1428437720668525,0.6565366947712997,5,3,8,2,6,1,nan,nan,nan,nan,nan,nan,nan,nan,nan,nan,nan,nan,0.0,nan,nan,nan,nan,nan,nan,nan,nan,nan,nan,nan,nan,nan,nan,nan,nan,nan,nan,257.32063235668465,452.06121004302986,nan,452.7406064812094,nan,nan,nan,nan
1,120,0,0,nan,nan,nan,0,0.0,0.0,0.0,0.0,0.0,0.0,0.0,0.0,0.0,4,5,3,7,1,8,nan,nan,nan,nan,nan,nan,nan,nan,nan,nan,nan,nan,0.0,nan,nan,nan,nan,nan,nan,nan,nan,nan,nan,nan,nan,nan,nan,nan,nan,nan,nan,257.32063235668465,453.0863518931437,nan,nan,nan,nan,nan,nan
1,121,1,1,1.0,1.0,0.7651014460716397,0,0.0,0.0,0.0,0.5861854026508,0.14239118515507837,0.4437942174957216,0.7285765878058783,0.14239118515507837,0.7222489421255887,0,3,5,6,7,1,nan,nan,nan,nan,nan,nan,nan,nan,nan,nan,nan,nan,0.0,nan,nan,nan,nan,nan,nan,nan,nan,nan,nan,nan,nan,nan,nan,nan,nan,nan,nan,257.32063235668465,454.1114609569777,nan,454.8765624030493,nan,nan,nan,nan
1,122,1,1,1.0,1.0,0.6999294101260602,1,0.0,1.0,1.0,0.588151513018062,0.14282978599354895,0.44532172702451306,0.7309812990116109,0.14282978599354895,0.73251542809885,6,2,0,1,5,3,1.0,1.0,1.0,1.0,1.0,1.0,0.0,1.0,1.0,1.0,0.0,0.0,3.0,3.0,2.0,0.0,1.0,4.0,8.0,4.0,3.0,2.0,1.0,6.0,5.0,5.296105460962281,4.472496691625565,3.0642397690098733,2.128505481639877,7.19930932414718,6.175425892230123,257.32063235668465,455.13661820208654,455.9450287350919,455.8365476122126,464.1960321338847,465.1955403415486,456.9534887035843,464.1877167094499
1,123,1,1,nan,nan,nan,0,0.0,0.0,0.0,0.0,0.0,0.0,0.0,0.0,0.0,0,4,5,7,8,2,nan,nan,nan,nan,nan,nan,nan,nan,nan,nan,nan,nan,0.0,nan,nan,nan,nan,nan,nan,nan,nan,nan,nan,nan,nan,nan,nan,nan,nan,nan,nan,257.32063235668465,465.4212356789503,nan,nan,nan,nan,nan,nan
1,124,1,1,nan,nan,nan,0,0.0,0.0,0.0,0.0,0.0,0.0,0.0,0.0,0.0,4,6,7,2,1,5,nan,nan,nan,nan,nan,nan,nan,nan,nan,nan,nan,nan,0.0,nan,nan,nan,nan,nan,nan,nan,nan,nan,nan,nan,nan,nan,nan,nan,nan,nan,nan,257.32063235668465,466.44635814242065,nan,nan,nan,nan,nan,nan
1,125,1,1,1.0,1.0,0.6928028401453048,0,0.0,0.0,0.0,0.5893664901605402,0.14252345869019695,0.44684303147034327,0.7318899488507371,0.14252345869019695,0.6928028401453048,3,5,8,6,7,4,nan,nan,nan,nan,nan,nan,nan,nan,nan,nan,nan,nan,0.0,nan,nan,nan,nan,nan,nan,nan,nan,nan,nan,nan,nan,nan,nan,nan,nan,nan,nan,257.32063235668465,467.47149058408104,nan,468.16429342422634,nan,nan,nan,nan
1,126,1,1,nan,nan,nan,0,0.0,0.0,0.0,0.0,0.0,0.0,0.0,0.0,0.0,2,3,4,1,0,8,nan,nan,nan,nan,nan,nan,nan,nan,nan,nan,nan,nan,0.0,nan,nan,nan,nan,nan,nan,nan,nan,nan,nan,nan,nan,nan,nan,nan,nan,nan,nan,257.32063235668465,468.49664070201106,nan,nan,nan,nan,nan,nan
1,127,1,1,nan,nan,nan,0,0.0,0.0,0.0,0.0,0.0,0.0,0.0,0.0,0.0,5,4,7,2,8,6,nan,nan,nan,nan,nan,nan,nan,nan,nan,nan,nan,nan,0.0,nan,nan,nan,nan,nan,nan,nan,nan,nan,nan,nan,nan,nan,nan,nan,nan,nan,nan,257.32063235668465,469.52174605964683,nan,nan,nan,nan,nan,nan
1,128,1,1,nan,nan,nan,0,0.0,0.0,0.0,0.0,0.0,0.0,0.0,0.0,0.0,8,6,5,3,4,1,nan,nan,nan,nan,nan,nan,nan,nan,nan,nan,nan,nan,0.0,nan,nan,nan,nan,nan,nan,nan,nan,nan,nan,nan,nan,nan,nan,nan,nan,nan,nan,257.32063235668465,470.5468713741284,nan,nan,nan,nan,nan,nan
1,129,1,1,nan,nan,nan,0,0.0,0.0,0.0,0.0,0.0,0.0,0.0,0.0,0.0,7,4,0,1,6,2,nan,nan,nan,nan,nan,nan,nan,nan,nan,nan,nan,nan,0.0,nan,nan,nan,nan,nan,nan,nan,nan,nan,nan,nan,nan,nan,nan,nan,nan,nan,nan,257.32063235668465,471.57201065821573,nan,nan,nan,nan,nan,nan
1,130,1,1,1.0,1.0,0.7110444870777428,0,0.0,0.0,0.0,0.5904787089775807,0.1421559862668224,0.4483227227107583,0.7326346952444032,0.1421559862668224,0.7110444870777428,5,0,1,7,8,4,nan,nan,nan,nan,nan,nan,nan,nan,nan,nan,nan,nan,0.0,nan,nan,nan,nan,nan,nan,nan,nan,nan,nan,nan,nan,nan,nan,nan,nan,nan,nan,257.32063235668465,472.59713055565953,nan,473.3081750427373,nan,nan,nan,nan
1,131,1,1,1.0,1.0,0.6058995693456382,0,0.0,0.0,0.0,0.5917613236382208,0.1419377912709823,0.4498235323672385,0.733699114909203,0.1419377912709823,0.6584720282116905,1,2,0,4,6,7,nan,nan,nan,nan,nan,nan,nan,nan,nan,nan,nan,nan,0.0,nan,nan,nan,nan,nan,nan,nan,nan,nan,nan,nan,nan,nan,nan,nan,nan,nan,nan,257.32063235668465,473.6222746865824,nan,474.228174255928,nan,nan,nan,nan
1,132,1,1,1.0,1.0,0.5887860513757914,0,0.0,0.0,0.0,0.5919101472772462,0.1411961467131038,0.45071400056414246,0.73310629399035,0.1411961467131038,0.6352433692663908,4,3,8,6,5,2,nan,nan,nan,nan,nan,nan,nan,nan,nan,nan,nan,nan,0.0,nan,nan,nan,nan,nan,nan,nan,nan,nan,nan,nan,nan,nan,nan,nan,nan,nan,nan,257.32063235668465,474.64737177616917,nan,475.23615782754496,nan,nan,nan,nan
1,133,0,0,1.0,0.0,0.5636248146183789,0,0.0,0.0,0.0,0.591877604611606,0.14045918311835606,0.45141842149324996,0.732336787729962,0.14045918311835606,0.5861034784466028,7,8,3,5,6,1,nan,nan,nan,nan,nan,nan,nan,nan,nan,nan,nan,nan,0.0,nan,nan,nan,nan,nan,nan,nan,nan,nan,nan,nan,nan,nan,nan,nan,nan,nan,nan,257.32063235668465,475.67252018349245,nan,476.23614499811083,nan,nan,nan,nan
1,134,1,1,nan,nan,nan,0,0.0,0.0,0.0,0.0,0.0,0.0,0.0,0.0,0.0,8,6,5,3,4,0,nan,nan,nan,nan,nan,nan,nan,nan,nan,nan,nan,nan,0.0,nan,nan,nan,nan,nan,nan,nan,nan,nan,nan,nan,nan,nan,nan,nan,nan,nan,nan,257.32063235668465,476.69762354553677,nan,nan,nan,nan,nan,nan
1,135,0,0,0.0,1.0,0.6253192373551428,0,0.0,0.0,0.0,0.5915863387353872,0.13976243005072223,0.45182390868466504,0.7313487687861094,0.13976243005072223,0.5944720259867609,5,4,0,8,1,3,nan,nan,nan,nan,nan,nan,nan,nan,nan,nan,nan,nan,0.0,nan,nan,nan,nan,nan,nan,nan,nan,nan,nan,nan,nan,nan,nan,nan,nan,nan,nan,257.32063235668465,477.7227827864699,nan,478.34810202382505,nan,nan,nan,nan
1,136,1,1,1.0,1.0,0.672212848905474,0,0.0,0.0,0.0,0.5919305519866092,0.13908884885927533,0.45284170312733385,0.7310194008458845,0.13908884885927533,0.6487660431303084,7,8,3,0,6,4,nan,nan,nan,nan,nan,nan,nan,nan,nan,nan,nan,nan,0.0,nan,nan,nan,nan,nan,nan,nan,nan,nan,nan,nan,nan,nan,nan,nan,nan,nan,nan,257.32063235668465,478.747858208837,nan,479.42007105774246,nan,nan,nan,nan
1,137,1,1,nan,nan,nan,0,0.0,0.0,0.0,0.0,0.0,0.0,0.0,0.0,0.0,8,3,2,4,0,7,nan,nan,nan,nan,nan,nan,nan,nan,nan,nan,nan,nan,0.0,nan,nan,nan,nan,nan,nan,nan,nan,nan,nan,nan,nan,nan,nan,nan,nan,nan,nan,257.32063235668465,479.77304310840555,nan,nan,nan,nan,nan,nan
1,138,1,1,nan,nan,nan,0,0.0,0.0,0.0,0.0,0.0,0.0,0.0,0.0,0.0,5,8,7,3,6,1,nan,nan,nan,nan,nan,nan,nan,nan,nan,nan,nan,nan,0.0,nan,nan,nan,nan,nan,nan,nan,nan,nan,nan,nan,nan,nan,nan,nan,nan,nan,nan,257.32063235668465,480.7981344962027,nan,nan,nan,nan,nan,nan
1,139,1,1,1.0,1.0,0.6687221210449934,0,0.0,0.0,0.0,0.592741484278719,0.138617252108803,0.454124232169916,0.731358736387522,0.138617252108803,0.6687221210449934,4,3,6,2,5,0,nan,nan,nan,nan,nan,nan,nan,nan,nan,nan,nan,nan,0.0,nan,nan,nan,nan,nan,nan,nan,nan,nan,nan,nan,nan,nan,nan,nan,nan,nan,nan,257.32063235668465,481.82328746514395,nan,482.49200958618894,nan,nan,nan,nan
1,140,1,1,1.0,1.0,0.4275759512092918,0,0.0,0.0,0.0,0.5935012906463817,0.138129462542541,0.4553718281038407,0.7316307531889227,0.138129462542541,0.5481490361271426,3,6,5,8,1,2,nan,nan,nan,nan,nan,nan,nan,nan,nan,nan,nan,nan,0.0,nan,nan,nan,nan,nan,nan,nan,nan,nan,nan,nan,nan,nan,nan,nan,nan,nan,nan,257.32063235668465,482.84840109059587,nan,483.27597704180516,nan,nan,nan,nan
1,141,1,1,1.0,1.0,0.4184368816204369,0,0.0,0.0,0.0,0.5918584655034402,0.13842227951850308,0.4534361859849372,0.7302807450219433,0.13842227951850308,0.504911651291574,4,5,0,6,2,8,nan,nan,nan,nan,nan,nan,nan,nan,nan,nan,nan,nan,0.0,nan,nan,nan,nan,nan,nan,nan,nan,nan,nan,nan,nan,nan,nan,nan,nan,nan,nan,257.32063235668465,483.8735363832675,nan,484.29197326488793,nan,nan,nan,nan
1,142,1,1,1.0,1.0,0.3132580374367535,1,1.0,0.0,1.0,0.590158253896744,0.13879783812464547,0.45136041577209857,0.7289560920213896,0.13879783812464547,0.38642362342216074,8,1,6,0,7,5,1.0,1.0,1.0,1.0,1.0,1.0,0.0,0.0,1.0,1.0,0.0,0.0,2.0,5.0,7.0,6.0,0.0,1.0,8.0,4.0,3.0,2.0,1.0,6.0,5.0,7.300794166279957,4.58180459565483,3.7403544555418193,2.7506453171372414,11.860403674654663,8.604645427782089,257.32063235668465,484.8986890669912,485.7070887661539,485.21194710442796,498.617012365954,499.6167680376675,486.71553191402927,498.6086815460585
1,143,1,1,nan,nan,nan,0,0.0,0.0,0.0,0.0,0.0,0.0,0.0,0.0,0.0,6,3,1,5,2,4,nan,nan,nan,nan,nan,nan,nan,nan,nan,nan,nan,nan,0.0,nan,nan,nan,nan,nan,nan,nan,nan,nan,nan,nan,nan,nan,nan,nan,nan,nan,nan,257.32063235668465,499.84222446382046,nan,nan,nan,nan,nan,nan
1,144,1,1,nan,nan,nan,0,0.0,0.0,0.0,0.0,0.0,0.0,0.0,0.0,0.0,4,1,3,7,8,2,nan,nan,nan,nan,nan,nan,nan,nan,nan,nan,nan,nan,0.0,nan,nan,nan,nan,nan,nan,nan,nan,nan,nan,nan,nan,nan,nan,nan,nan,nan,nan,257.32063235668465,500.86732782563195,nan,nan,nan,nan,nan,nan
1,145,1,1,nan,nan,nan,0,0.0,0.0,0.0,0.0,0.0,0.0,0.0,0.0,0.0,3,5,8,0,7,4,nan,nan,nan,nan,nan,nan,nan,nan,nan,nan,nan,nan,0.0,nan,nan,nan,nan,nan,nan,nan,nan,nan,nan,nan,nan,nan,nan,nan,nan,nan,nan,257.32063235668465,501.8924785137642,nan,nan,nan,nan,nan,nan
1,146,1,1,nan,nan,nan,0,0.0,0.0,0.0,0.0,0.0,0.0,0.0,0.0,0.0,7,4,6,3,1,2,nan,nan,nan,nan,nan,nan,nan,nan,nan,nan,nan,nan,0.0,nan,nan,nan,nan,nan,nan,nan,nan,nan,nan,nan,nan,nan,nan,nan,nan,nan,nan,257.32063235668465,502.91762663586996,nan,nan,nan,nan,nan,nan
1,147,1,1,nan,nan,nan,0,0.0,0.0,0.0,0.0,0.0,0.0,0.0,0.0,0.0,3,2,1,8,6,5,nan,nan,nan,nan,nan,nan,nan,nan,nan,nan,nan,nan,0.0,nan,nan,nan,nan,nan,nan,nan,nan,nan,nan,nan,nan,nan,nan,nan,nan,nan,nan,257.32063235668465,503.94275252055377,nan,nan,nan,nan,nan,nan
1,148,1,1,nan,nan,nan,0,0.0,0.0,0.0,0.0,0.0,0.0,0.0,0.0,0.0,0,4,7,6,2,3,nan,nan,nan,nan,nan,nan,nan,nan,nan,nan,nan,nan,0.0,nan,nan,nan,nan,nan,nan,nan,nan,nan,nan,nan,nan,nan,nan,nan,nan,nan,nan,257.32063235668465,504.96791233168915,nan,nan,nan,nan,nan,nan
1,149,0,0,1.0,0.0,0.22656431305222213,0,0.0,0.0,0.0,0.5874699022806277,0.14076569361109983,0.44670420866952787,0.7282355958917275,0.14076569361109983,0.22656431305222213,4,3,1,7,0,6,nan,nan,nan,nan,nan,nan,nan,nan,nan,nan,nan,nan,0.0,nan,nan,nan,nan,nan,nan,nan,nan,nan,nan,nan,nan,nan,nan,nan,nan,nan,nan,257.32063235668465,505.99296779721044,nan,506.21953211026266,nan,nan,nan,nan
1,150,1,1,1.0,1.0,0.7293725186027586,0,0.0,0.0,0.0,0.5839996562303545,0.14444666983725565,0.4395529863930989,0.7284463260676102,0.14444666983725565,0.4779684158274904,2,4,0,6,1,3,nan,nan,nan,nan,nan,nan,nan,nan,nan,nan,nan,nan,0.0,nan,nan,nan,nan,nan,nan,nan,nan,nan,nan,nan,nan,nan,nan,nan,nan,nan,nan,257.32063235668465,507.01809396687895,nan,507.7474664854817,nan,nan,nan,nan
1,151,1,1,nan,nan,nan,0,0.0,0.0,0.0,0.0,0.0,0.0,0.0,0.0,0.0,8,1,2,5,3,4,nan,nan,nan,nan,nan,nan,nan,nan,nan,nan,nan,nan,0.0,nan,nan,nan,nan,nan,nan,nan,nan,nan,nan,nan,nan,nan,nan,nan,nan,nan,nan,257.32063235668465,508.04323781258427,nan,nan,nan,nan,nan,nan
1,152,1,1,1.0,1.0,0.23111531673930585,0,0.0,0.0,0.0,0.5853841596815202,0.144448883834231,0.44093527584728925,0.7298330435157512,0.144448883834231,0.48024391767103225,4,5,7,1,2,0,nan,nan,nan,nan,nan,nan,nan,nan,nan,nan,nan,nan,0.0,nan,nan,nan,nan,nan,nan,nan,nan,nan,nan,nan,nan,nan,nan,nan,nan,nan,nan,257.32063235668465,509.06834202981554,nan,509.29945734655485,nan,nan,nan,nan
1,153,1,1,1.0,1.0,0.6779301844071597,0,0.0,0.0,0.0,0.582042000785839,0.14778866204294375,0.4342533387428953,0.7298306628287827,0.14778866204294375,0.45452275057323277,2,1,8,7,5,6,nan,nan,nan,nan,nan,nan,nan,nan,nan,nan,nan,nan,0.0,nan,nan,nan,nan,nan,nan,nan,nan,nan,nan,nan,nan,nan,nan,nan,nan,nan,nan,257.32063235668465,510.09349613892846,nan,510.7714263233356,nan,nan,nan,nan
1,154,1,1,nan,nan,nan,0,0.0,0.0,0.0,0.0,0.0,0.0,0.0,0.0,0.0,3,0,7,5,8,2,nan,nan,nan,nan,nan,nan,nan,nan,nan,nan,nan,nan,0.0,nan,nan,nan,nan,nan,nan,nan,nan,nan,nan,nan,nan,nan,nan,nan,nan,nan,nan,257.32063235668465,511.11862430442125,nan,nan,nan,nan,nan,nan
1,155,1,1,1.0,1.0,0.04364493093453348,1,1.0,0.0,1.0,0.5829381520346364,0.14738551419638166,0.4355526378382547,0.7303236662310181,0.14738551419638166,0.3607875576708466,8,7,4,2,5,1,1.0,1.0,1.0,1.0,1.0,1.0,1.0,1.0,1.0,0.0,0.0,1.0,4.0,8.0,7.0,4.0,3.0,6.0,1.0,4.0,2.0,1.0,3.0,6.0,5.0,5.83110083360225,3.440880288137123,2.48185528581962,4.735481007024646,8.270445874426514,7.086846251040697,257.32063235668465,512.1437439168803,512.9521709852852,512.1873888478149,522.2783034334425,523.2776360213757,513.9689643396996,522.2699743241537
1,156,1,1,nan,nan,nan,0,0.0,0.0,0.0,0.0,0.0,0.0,0.0,0.0,0.0,5,6,0,1,3,2,nan,nan,nan,nan,nan,nan,nan,nan,nan,nan,nan,nan,0.0,nan,nan,nan,nan,nan,nan,nan,nan,nan,nan,nan,nan,nan,nan,nan,nan,nan,nan,257.32063235668465,523.5035004210658,nan,nan,nan,nan,nan,nan
1,157,1,1,nan,nan,nan,0,0.0,0.0,0.0,0.0,0.0,0.0,0.0,0.0,0.0,3,7,4,6,2,0,nan,nan,nan,nan,nan,nan,nan,nan,nan,nan,nan,nan,0.0,nan,nan,nan,nan,nan,nan,nan,nan,nan,nan,nan,nan,nan,nan,nan,nan,nan,nan,257.32063235668465,524.5286402755883,nan,nan,nan,nan,nan,nan
1,158,1,1,1.0,1.0,0.08939986512996256,1,1.0,0.0,1.0,0.5779446962837095,0.15552928298608482,0.42241541329762466,0.7334739792697943,0.15552928298608482,0.08939986512996256,5,4,2,7,1,6,1.0,1.0,1.0,1.0,1.0,1.0,0.0,1.0,0.0,0.0,0.0,0.0,1.0,6.0,4.0,5.0,8.0,2.0,3.0,6.0,1.0,2.0,3.0,4.0,5.0,7.764663537032902,2.5332220694981515,3.270983567694202,4.158605738775805,5.28515260387212,6.581171110039577,257.32063235668465,525.5537638792302,526.3621792588383,525.6431637443602,535.171608443372,536.1710915623698,527.3706235471182,535.163271066267
1,159,1,1,nan,nan,nan,0,0.0,0.0,0.0,0.0,0.0,0.0,0.0,0.0,0.0,6,1,3,0,4,7,nan,nan,nan,nan,nan,nan,nan,nan,nan,nan,nan,nan,0.0,nan,nan,nan,nan,nan,nan,nan,nan,nan,nan,nan,nan,nan,nan,nan,nan,nan,nan,257.32063235668465,536.3968276686501,nan,nan,nan,nan,nan,nan
1,160,0,0,nan,nan,nan,0,0.0,0.0,0.0,0.0,0.0,0.0,0.0,0.0,0.0,8,7,6,2,0,5,nan,nan,nan,nan,nan,nan,nan,nan,nan,nan,nan,nan,0.0,nan,nan,nan,nan,nan,nan,nan,nan,nan,nan,nan,nan,nan,nan,nan,nan,nan,nan,257.32063235668465,537.4219144948293,nan,nan,nan,nan,nan,nan
1,161,1,1,1.0,1.0,0.6917548235505819,0,0.0,0.0,0.0,0.5734626336125742,0.16166952964890904,0.4117931039636652,0.7351321632614832,0.16166952964890904,0.6917548235505819,2,5,1,0,3,4,nan,nan,nan,nan,nan,nan,nan,nan,nan,nan,nan,nan,0.0,nan,nan,nan,nan,nan,nan,nan,nan,nan,nan,nan,nan,nan,nan,nan,nan,nan,nan,257.32063235668465,538.4470512131229,nan,539.1388060366735,nan,nan,nan,nan
1,162,1,1,1.0,1.0,0.7626116939354688,0,0.0,0.0,0.0,0.5745380171574652,0.1613241470334529,0.41321387012401234,0.7358621641909181,0.1613241470334529,0.7271832587430254,3,4,0,1,6,8,nan,nan,nan,nan,nan,nan,nan,nan,nan,nan,nan,nan,0.0,nan,nan,nan,nan,nan,nan,nan,nan,nan,nan,nan,nan,nan,nan,nan,nan,nan,nan,257.32063235668465,539.4722098838538,nan,540.2348215777893,nan,nan,nan,nan
1,163,1,1,1.0,1.0,0.6654474968090653,0,0.0,0.0,0.0,0.5762323746059157,0.16157601869238555,0.4146563559135301,0.7378083932983013,0.16157601869238555,0.7066046714317054,7,5,2,4,3,1,nan,nan,nan,nan,nan,nan,nan,nan,nan,nan,nan,nan,0.0,nan,nan,nan,nan,nan,nan,nan,nan,nan,nan,nan,nan,nan,nan,nan,nan,nan,nan,257.32063235668465,540.497351448983,nan,541.162798945792,nan,nan,nan,nan
1,164,1,1,1.0,1.0,0.7283518712501973,0,0.0,0.0,0.0,0.5770289381970153,0.16107186068594165,0.41595707751107364,0.7381007988829569,0.16107186068594165,0.7188036873315772,3,6,1,5,4,0,nan,nan,nan,nan,nan,nan,nan,nan,nan,nan,nan,nan,0.0,nan,nan,nan,nan,nan,nan,nan,nan,nan,nan,nan,nan,nan,nan,nan,nan,nan,nan,257.32063235668465,541.5224342837464,nan,542.2507861549966,nan,nan,nan,nan
1,165,1,1,1.0,1.0,0.7991987632121891,0,0.0,0.0,0.0,0.5783680791974859,0.16098260636723258,0.4173854728302533,0.7393506855647185,0.16098260636723258,0.7309993770904839,6,2,4,1,0,7,nan,nan,nan,nan,nan,nan,nan,nan,nan,nan,nan,nan,0.0,nan,nan,nan,nan,nan,nan,nan,nan,nan,nan,nan,nan,nan,nan,nan,nan,nan,nan,257.32063235668465,542.547561879037,nan,543.3467606422491,nan,nan,nan,nan
1,166,1,1,1.0,1.0,0.5897106206975877,0,0.0,0.0,0.0,0.5803051904607728,0.1615923658214481,0.4187128246393247,0.7418975562822209,0.1615923658214481,0.7057537517199913,5,6,8,4,2,1,nan,nan,nan,nan,nan,nan,nan,nan,nan,nan,nan,nan,0.0,nan,nan,nan,nan,nan,nan,nan,nan,nan,nan,nan,nan,nan,nan,nan,nan,nan,nan,257.32063235668465,543.5810294169933,nan,544.1707400376908,nan,nan,nan,nan
1,167,1,1,1.0,1.0,0.6365574765950441,0,0.0,0.0,0.0,0.5803869768106581,0.16089062608801427,0.4194963507226438,0.7412776028986724,0.16089062608801427,0.6751556201682737,8,2,6,5,7,3,nan,nan,nan,nan,nan,nan,nan,nan,nan,nan,nan,nan,0.0,nan,nan,nan,nan,nan,nan,nan,nan,nan,nan,nan,nan,nan,nan,nan,nan,nan,nan,257.32063235668465,544.6061564418487,nan,545.2427139184438,nan,nan,nan,nan
1,168,1,1,1.0,1.0,0.7634133866522461,0,0.0,0.0,0.0,0.5808712052570753,0.16027977117174064,0.4205914340853346,0.7411509764288159,0.16027977117174064,0.6632271613149593,5,1,7,0,3,8,nan,nan,nan,nan,nan,nan,nan,nan,nan,nan,nan,nan,0.0,nan,nan,nan,nan,nan,nan,nan,nan,nan,nan,nan,nan,nan,nan,nan,nan,nan,nan,257.32063235668465,545.6312817563303,nan,546.3946951429825,nan,nan,nan,nan
1,169,0,0,0.0,1.0,0.7622433484066278,0,0.0,0.0,0.0,0.5824313948416493,0.1604755495132485,0.4219558453284008,0.7429069443548978,0.1604755495132485,0.720738070551306,0,6,3,7,2,4,nan,nan,nan,nan,nan,nan,nan,nan,nan,nan,nan,nan,0.0,nan,nan,nan,nan,nan,nan,nan,nan,nan,nan,nan,nan,nan,nan,nan,nan,nan,nan,257.32063235668465,546.6564241766464,nan,547.418667525053,nan,nan,nan,nan
1,170,1,1,1.0,1.0,0.5370705940295011,0,0.0,0.0,0.0,0.5839552249566068,0.16064196870179218,0.42331325625481464,0.7445971936583989,0.16064196870179218,0.6875757763627917,1,3,7,5,6,0,nan,nan,nan,nan,nan,nan,nan,nan,nan,nan,nan,nan,0.0,nan,nan,nan,nan,nan,nan,nan,nan,nan,nan,nan,nan,nan,nan,nan,nan,nan,nan,257.32063235668465,547.6815988128074,nan,548.2186694068369,nan,nan,nan,nan
1,171,1,1,1.0,1.0,0.7759505277499557,0,0.0,0.0,0.0,0.583561236461421,0.16002282046821534,0.42353841599320563,0.7435840569296364,0.16002282046821534,0.6917548233953615,3,5,2,8,1,4,nan,nan,nan,nan,nan,nan,nan,nan,nan,nan,nan,nan,0.0,nan,nan,nan,nan,nan,nan,nan,nan,nan,nan,nan,nan,nan,nan,nan,nan,nan,nan,257.32063235668465,548.7067004640121,nan,549.4826509917621,nan,nan,nan,nan
1,172,1,1,1.0,1.0,0.6468275259248912,0,0.0,0.0,0.0,0.5851644805554922,0.16031152635335785,0.4248529542021343,0.7454760069088501,0.16031152635335785,0.653282882568116,8,4,3,2,5,0,nan,nan,nan,nan,nan,nan,nan,nan,nan,nan,nan,nan,0.0,nan,nan,nan,nan,nan,nan,nan,nan,nan,nan,nan,nan,nan,nan,nan,nan,nan,nan,257.32063235668465,549.7317944178358,nan,550.3786219437607,nan,nan,nan,nan
1,173,1,1,1.0,1.0,0.5336973262019455,0,0.0,0.0,0.0,0.5856740925006938,0.15974528187264153,0.42592881062805227,0.7454193743733353,0.15974528187264153,0.6521584599589308,2,7,4,6,1,5,nan,nan,nan,nan,nan,nan,nan,nan,nan,nan,nan,nan,0.0,nan,nan,nan,nan,nan,nan,nan,nan,nan,nan,nan,nan,nan,nan,nan,nan,nan,nan,257.32063235668465,550.7569211577065,nan,551.2906184839085,nan,nan,nan,nan
1,174,1,1,1.0,1.0,0.6205008127726614,0,0.0,0.0,0.0,0.5852480534326713,0.15915825212689408,0.4260898013057772,0.7444063055595653,0.15915825212689408,0.6003418882998327,0,3,2,7,4,8,nan,nan,nan,nan,nan,nan,nan,nan,nan,nan,nan,nan,0.0,nan,nan,nan,nan,nan,nan,nan,nan,nan,nan,nan,nan,nan,nan,nan,nan,nan,nan,257.32063235668465,551.7820823942311,nan,552.4025832070038,nan,nan,nan,nan
1,175,1,1,1.0,1.0,0.6353441034443676,0,0.0,0.0,0.0,0.5855346612321833,0.15854155563517036,0.426993105597013,0.7440762168673537,0.15854155563517036,0.5965140808063248,1,8,7,0,2,6,nan,nan,nan,nan,nan,nan,nan,nan,nan,nan,nan,nan,0.0,nan,nan,nan,nan,nan,nan,nan,nan,nan,nan,nan,nan,nan,nan,nan,nan,nan,nan,257.32063235668465,552.807196019683,nan,553.4425401231274,nan,nan,nan,nan
1,176,1,1,1.0,1.0,0.714198230067268,0,0.0,0.0,0.0,0.5859363502822816,0.1579638135062441,0.4279725367760375,0.7439001637885257,0.1579638135062441,0.6566810487614324,3,5,2,6,0,4,nan,nan,nan,nan,nan,nan,nan,nan,nan,nan,nan,nan,0.0,nan,nan,nan,nan,nan,nan,nan,nan,nan,nan,nan,nan,nan,nan,nan,nan,nan,nan,257.32063235668465,553.8323350187857,nan,554.5465332488529,nan,nan,nan,nan
1,177,1,1,1.0,1.0,0.593026869231835,0,0.0,0.0,0.0,0.5869624453205615,0.15774505334189162,0.4292173919786699,0.7447074986624531,0.15774505334189162,0.6475230675811569,7,6,5,0,8,1,nan,nan,nan,nan,nan,nan,nan,nan,nan,nan,nan,nan,0.0,nan,nan,nan,nan,nan,nan,nan,nan,nan,nan,nan,nan,nan,nan,nan,nan,nan,nan,257.32063235668465,554.8574683158658,nan,555.4504951850977,nan,nan,nan,nan
1,178,1,1,1.0,1.0,0.4879361200146377,0,0.0,0.0,0.0,0.5870105756690637,0.1571187554373793,0.4298918202316844,0.744129331106443,0.1571187554373793,0.5983870731045803,4,2,0,5,7,6,nan,nan,nan,nan,nan,nan,nan,nan,nan,nan,nan,nan,0.0,nan,nan,nan,nan,nan,nan,nan,nan,nan,nan,nan,nan,nan,nan,nan,nan,nan,nan,257.32063235668465,555.882555142045,nan,556.3704912620597,nan,nan,nan,nan
1,179,1,1,1.0,1.0,0.4227398505900055,0,0.0,0.0,0.0,0.5862304618450132,0.15674375185012548,0.4294867099948877,0.7429742136951386,0.15674375185012548,0.5012342799454927,3,5,2,8,1,7,nan,nan,nan,nan,nan,nan,nan,nan,nan,nan,nan,nan,0.0,nan,nan,nan,nan,nan,nan,nan,nan,nan,nan,nan,nan,nan,nan,nan,nan,nan,nan,257.32063235668465,556.9076958517544,nan,557.3304357023444,nan,nan,nan,nan
1,180,1,1,1.0,1.0,0.28563242219388485,1,1.0,0.0,1.0,0.5849531914445834,0.15679238446471713,0.42816080697986625,0.7417455759093005,0.15679238446471713,0.39876946426617604,1,7,3,2,6,5,1.0,1.0,1.0,1.0,1.0,1.0,0.0,1.0,1.0,1.0,0.0,0.0,3.0,4.0,7.0,3.0,2.0,0.0,2.0,4.0,3.0,2.0,1.0,6.0,5.0,7.681247573113069,4.690902383532375,3.5145197056699544,2.5226834586355835,11.464783391915262,8.969570741057396,257.32063235668465,557.9327989285812,558.7412396816071,558.2184313507751,571.251120573841,572.250383883249,559.7497039267328,571.2428088556044
1,181,1,1,nan,nan,nan,0,0.0,0.0,0.0,0.0,0.0,0.0,0.0,0.0,0.0,5,6,4,0,1,3,nan,nan,nan,nan,nan,nan,nan,nan,nan,nan,nan,nan,0.0,nan,nan,nan,nan,nan,nan,nan,nan,nan,nan,nan,nan,nan,nan,nan,nan,nan,nan,257.32063235668465,572.476340654539,nan,nan,nan,nan,nan,nan
1,182,1,1,1.0,1.0,0.01272530504502356,0,0.0,0.0,0.0,0.5826328754038803,0.1583742853086785,0.42425859009520184,0.7410071607125588,0.1583742853086785,0.1491788636194542,6,1,8,2,7,5,nan,nan,nan,nan,nan,nan,nan,nan,nan,nan,nan,nan,0.0,nan,nan,nan,nan,nan,nan,nan,nan,nan,nan,nan,nan,nan,nan,nan,nan,nan,nan,257.32063235668465,573.5014129409101,nan,573.5141382459551,nan,nan,nan,nan
1,183,1,1,1.0,1.0,0.4035702128894627,1,1.0,0.0,1.0,0.5782489710165044,0.16543480371251335,0.41281416730399106,0.7436837747290177,0.16543480371251335,0.20814775896724313,8,7,0,5,1,3,1.0,1.0,1.0,1.0,1.0,1.0,1.0,0.0,1.0,1.0,0.0,0.0,3.0,8.0,6.0,0.0,5.0,7.0,1.0,4.0,3.0,2.0,1.0,6.0,5.0,6.214592804433778,4.663947316352278,3.7348728952929378,2.793553842464462,8.502894019708037,7.079487612238154,257.32063235668465,574.5265325533692,575.3349701703992,574.9301027662586,584.8861428028904,585.885868539568,576.3434828820173,584.8778114130255
1,184,0,0,0.0,1.0,0.6985429832711816,0,0.0,0.0,0.0,0.5769155453819469,0.16550195228959952,0.4114135930923474,0.7424174976715464,0.16550195228959952,0.37161283373522264,4,8,7,6,0,5,nan,nan,nan,nan,nan,nan,nan,nan,nan,nan,nan,nan,0.0,nan,nan,nan,nan,nan,nan,nan,nan,nan,nan,nan,nan,nan,nan,nan,nan,nan,nan,257.32063235668465,586.1113560411613,nan,586.8098990244325,nan,nan,nan,nan
1,185,1,1,nan,nan,nan,0,0.0,0.0,0.0,0.0,0.0,0.0,0.0,0.0,0.0,3,1,4,8,2,0,nan,nan,nan,nan,nan,nan,nan,nan,nan,nan,nan,nan,0.0,nan,nan,nan,nan,nan,nan,nan,nan,nan,nan,nan,nan,nan,nan,nan,nan,nan,nan,257.32063235668465,587.1364636796061,nan,nan,nan,nan,nan,nan
1,186,1,1,nan,nan,nan,0,0.0,0.0,0.0,0.0,0.0,0.0,0.0,0.0,0.0,2,8,6,7,1,5,nan,nan,nan,nan,nan,nan,nan,nan,nan,nan,nan,nan,0.0,nan,nan,nan,nan,nan,nan,nan,nan,nan,nan,nan,nan,nan,nan,nan,nan,nan,nan,257.32063235668465,588.1615490803961,nan,nan,nan,nan,nan,nan
1,187,1,1,nan,nan,nan,0,0.0,0.0,0.0,0.0,0.0,0.0,0.0,0.0,0.0,6,0,1,4,8,7,nan,nan,nan,nan,nan,nan,nan,nan,nan,nan,nan,nan,0.0,nan,nan,nan,nan,nan,nan,nan,nan,nan,nan,nan,nan,nan,nan,nan,nan,nan,nan,257.32063235668465,589.1867168741301,nan,nan,nan,nan,nan,nan
1,188,0,0,0.0,1.0,0.7018732014112175,0,0.0,0.0,0.0,0.5778369653659562,0.16521080581873146,0.4126261595472247,0.7430477711846877,0.16521080581873146,0.7018732014112175,5,1,7,3,6,0,nan,nan,nan,nan,nan,nan,nan,nan,nan,nan,nan,nan,0.0,nan,nan,nan,nan,nan,nan,nan,nan,nan,nan,nan,nan,nan,nan,nan,nan,nan,nan,257.32063235668465,590.2118467502296,nan,590.9137199516408,nan,nan,nan,nan
1,189,1,1,1.0,1.0,0.49273629835806787,0,0.0,0.0,0.0,0.578769568644492,0.164936941212429,0.41383262743206306,0.743706509856921,0.164936941212429,0.5973047498846427,1,0,8,2,7,5,nan,nan,nan,nan,nan,nan,nan,nan,nan,nan,nan,nan,0.0,nan,nan,nan,nan,nan,nan,nan,nan,nan,nan,nan,nan,nan,nan,nan,nan,nan,nan,257.32063235668465,591.2370091271587,nan,591.7297454255167,nan,nan,nan,nan
1,190,1,1,1.0,1.0,0.6116143390536308,0,0.0,0.0,0.0,0.5781275293139964,0.16448708985154045,0.4136404394624559,0.7426146191655368,0.16448708985154045,0.6020746129409721,4,6,5,0,1,8,nan,nan,nan,nan,nan,nan,nan,nan,nan,nan,nan,nan,0.0,nan,nan,nan,nan,nan,nan,nan,nan,nan,nan,nan,nan,nan,nan,nan,nan,nan,nan,257.32063235668465,592.2621139145922,nan,592.8737282536458,nan,nan,nan,nan
1,191,1,1,1.0,1.0,0.6904590574558824,0,0.0,0.0,0.0,0.5783755797565121,0.1639018998723325,0.4144736798841796,0.7422774796288446,0.1639018998723325,0.5982698982891937,1,3,6,7,5,2,nan,nan,nan,nan,nan,nan,nan,nan,nan,nan,nan,nan,0.0,nan,nan,nan,nan,nan,nan,nan,nan,nan,nan,nan,nan,nan,nan,nan,nan,nan,nan,257.32063235668465,593.2872460712679,nan,593.9777051287238,nan,nan,nan,nan
1,192,1,1,0.0,0.0,0.6013015250209719,0,0.0,0.0,0.0,0.5791997229748899,0.1635787217994291,0.41562100117546075,0.742778444774319,0.1635787217994291,0.6344583071768284,4,1,7,2,8,0,nan,nan,nan,nan,nan,nan,nan,nan,nan,nan,nan,nan,0.0,nan,nan,nan,nan,nan,nan,nan,nan,nan,nan,nan,nan,nan,nan,nan,nan,nan,nan,257.32063235668465,594.312379368348,nan,594.913680893369,nan,nan,nan,nan
1,193,1,1,1.0,1.0,0.6401630982290953,0,0.0,0.0,0.0,0.579361049997124,0.1629914843216546,0.4163695656754694,0.7423525343187787,0.1629914843216546,0.6439745602353165,1,2,3,0,4,6,nan,nan,nan,nan,nan,nan,nan,nan,nan,nan,nan,nan,0.0,nan,nan,nan,nan,nan,nan,nan,nan,nan,nan,nan,nan,nan,nan,nan,nan,nan,nan,257.32063235668465,595.3375058232341,nan,595.9776689214632,nan,nan,nan,nan
1,194,1,1,1.0,1.0,0.47899462236091495,0,0.0,0.0,0.0,0.5798016445495296,0.16248172210977255,0.41731992243975713,0.7422833666593022,0.16248172210977255,0.5734864152036607,2,1,7,6,5,4,nan,nan,nan,nan,nan,nan,nan,nan,nan,nan,nan,nan,0.0,nan,nan,nan,nan,nan,nan,nan,nan,nan,nan,nan,nan,nan,nan,nan,nan,nan,nan,257.32063235668465,596.3626419713255,nan,596.8416365936864,nan,nan,nan,nan
1,195,1,1,1.0,1.0,0.5178727314341813,0,0.0,0.0,0.0,0.579076414174072,0.16212020875664623,0.41695620541742573,0.7411966229307182,0.16212020875664623,0.5456768173413972,4,0,8,7,3,5,nan,nan,nan,nan,nan,nan,nan,nan,nan,nan,nan,nan,0.0,nan,nan,nan,nan,nan,nan,nan,nan,nan,nan,nan,nan,nan,nan,nan,nan,nan,nan,257.32063235668465,597.3877781194169,nan,597.9056508508511,nan,nan,nan,nan
1,196,1,1,1.0,1.0,0.46039517875760794,0,0.0,0.0,0.0,0.5786392450116442,0.1616223743473105,0.4170168706643337,0.7402616193589547,0.1616223743473105,0.48575417751756805,7,3,2,8,0,6,nan,nan,nan,nan,nan,nan,nan,nan,nan,nan,nan,nan,0.0,nan,nan,nan,nan,nan,nan,nan,nan,nan,nan,nan,nan,nan,nan,nan,nan,nan,nan,257.32063235668465,598.4212288365234,nan,598.881624015281,nan,nan,nan,nan
1,197,1,1,1.0,1.0,0.49921113648451865,0,0.0,0.0,0.0,0.5778006346126794,0.1613536128831634,0.416447021729516,0.7391542474958428,0.1613536128831634,0.4924930155587693,4,8,5,0,6,3,nan,nan,nan,nan,nan,nan,nan,nan,nan,nan,nan,nan,0.0,nan,nan,nan,nan,nan,nan,nan,nan,nan,nan,nan,nan,nan,nan,nan,nan,nan,nan,257.32063235668465,599.446353295818,nan,599.9455644323025,nan,nan,nan,nan
1,198,1,1,1.0,1.0,0.4660785875748843,0,0.0,0.0,0.0,0.5772471874427627,0.1609187131235486,0.4163284743192141,0.7381659005663113,0.1609187131235486,0.47522830093900365,5,6,7,4,8,2,nan,nan,nan,nan,nan,nan,nan,nan,nan,nan,nan,nan,0.0,nan,nan,nan,nan,nan,nan,nan,nan,nan,nan,nan,nan,nan,nan,nan,nan,nan,nan,257.32063235668465,600.4714848822914,nan,600.9375634698663,nan,nan,nan,nan
1,199,1,1,1.0,1.0,0.5368924082722515,0,0.0,0.0,0.0,0.5764697846464839,0.160622439016896,0.4158473456295879,0.7370922236633799,0.160622439016896,0.5007273774438848,6,7,1,5,4,8,nan,nan,nan,nan,nan,nan,nan,nan,nan,nan,nan,nan,0.0,nan,nan,nan,nan,nan,nan,nan,nan,nan,nan,nan,nan,nan,nan,nan,nan,nan,nan,257.32063235668465,601.4966387064196,nan,602.0335311146919,nan,nan,nan,nan
1,200,1,1,1.0,1.0,0.4637998070102185,0,0.0,0.0,0.0,0.5761949417549962,0.16009748989787492,0.41609745185712127,0.7362924316528712,0.16009748989787492,0.4889236009524514,1,2,5,3,8,7,nan,nan,nan,nan,nan,nan,nan,nan,nan,nan,nan,nan,0.0,nan,nan,nan,nan,nan,nan,nan,nan,nan,nan,nan,nan,nan,nan,nan,nan,nan,nan,257.32063235668465,602.5217440640554,nan,602.9855438710656,nan,nan,nan,nan
1,201,1,1,1.0,1.0,0.3506502208765596,0,0.0,0.0,0.0,0.5754198028946873,0.15981539452816673,0.4156044083665206,0.735235197422854,0.15981539452816673,0.45044747871967655,7,3,4,2,6,8,nan,nan,nan,nan,nan,nan,nan,nan,nan,nan,nan,nan,0.0,nan,nan,nan,nan,nan,nan,nan,nan,nan,nan,nan,nan,nan,nan,nan,nan,nan,nan,257.32063235668465,603.5468699485064,nan,603.8975201693829,nan,nan,nan,nan
1,202,1,1,1.0,1.0,0.4855350328143686,0,0.0,0.0,0.0,0.5738802852096316,0.16034241134406949,0.4135378738655622,0.7342226965537011,0.16034241134406949,0.4333283535670489,1,2,6,3,8,0,nan,nan,nan,nan,nan,nan,nan,nan,nan,nan,nan,nan,0.0,nan,nan,nan,nan,nan,nan,nan,nan,nan,nan,nan,nan,nan,nan,nan,nan,nan,nan,257.32063235668465,604.5719644725323,nan,605.0574995053466,nan,nan,nan,nan
1,203,1,1,1.0,1.0,0.4923297499772161,0,0.0,0.0,0.0,0.5732792970980993,0.15996101491497575,0.4133182821831236,0.733240312013075,0.15996101491497575,0.4428383345560481,3,1,8,6,7,5,nan,nan,nan,nan,nan,nan,nan,nan,nan,nan,nan,nan,0.0,nan,nan,nan,nan,nan,nan,nan,nan,nan,nan,nan,nan,nan,nan,nan,nan,nan,nan,257.32063235668465,605.5971228580456,nan,606.0894526080228,nan,nan,nan,nan
1,204,1,1,1.0,1.0,0.4832280280534178,0,0.0,0.0,0.0,0.5727323406986339,0.15955755799394578,0.4131747827046881,0.7322898986925797,0.15955755799394578,0.48703093694833416,0,4,2,7,3,6,nan,nan,nan,nan,nan,nan,nan,nan,nan,nan,nan,nan,0.0,nan,nan,nan,nan,nan,nan,nan,nan,nan,nan,nan,nan,nan,nan,nan,nan,nan,nan,257.32063235668465,606.6222039824352,nan,607.1054320104886,nan,nan,nan,nan
1,205,1,1,1.0,1.0,0.4260395634919405,0,0.0,0.0,0.0,0.5721316406137666,0.15918905595954988,0.41294258465421674,0.7313206965733166,0.15918905595954988,0.46719911384085816,3,5,0,4,8,1,nan,nan,nan,nan,nan,nan,nan,nan,nan,nan,nan,nan,0.0,nan,nan,nan,nan,nan,nan,nan,nan,nan,nan,nan,nan,nan,nan,nan,nan,nan,nan,257.32063235668465,607.6473729165737,nan,608.0734124800656,nan,nan,nan,nan
1,206,0,0,0.0,1.0,0.512895222986117,0,0.0,0.0,0.0,0.5711576934329544,0.1591023315162861,0.4120553619166683,0.7302600249492406,0.1591023315162861,0.4740542715104918,8,6,3,1,7,0,nan,nan,nan,nan,nan,nan,nan,nan,nan,nan,nan,nan,0.0,nan,nan,nan,nan,nan,nan,nan,nan,nan,nan,nan,nan,nan,nan,nan,nan,nan,nan,257.32063235668465,608.6725173324812,nan,609.1854125554673,nan,nan,nan,nan
1,207,1,1,1.0,1.0,0.519714173162356,0,0.0,0.0,0.0,0.5707718492578099,0.15864502461951382,0.4121268246382961,0.7294168738773237,0.15864502461951382,0.48621631988013786,1,5,0,8,3,7,nan,nan,nan,nan,nan,nan,nan,nan,nan,nan,nan,nan,0.0,nan,nan,nan,nan,nan,nan,nan,nan,nan,nan,nan,nan,nan,nan,nan,nan,nan,nan,257.32063235668465,609.6976606079843,nan,610.2173747811466,nan,nan,nan,nan
1,208,1,1,1.0,1.0,0.6545622078701854,0,0.0,0.0,0.0,0.5704359434940239,0.1581761708348444,0.41225977265917957,0.7286121143288683,0.1581761708348444,0.5623905346728861,0,7,4,5,6,3,nan,nan,nan,nan,nan,nan,nan,nan,nan,nan,nan,nan,0.0,nan,nan,nan,nan,nan,nan,nan,nan,nan,nan,nan,nan,nan,nan,nan,nan,nan,nan,257.32063235668465,610.7227611190174,nan,611.3773233268876,nan,nan,nan,nan
1,209,1,1,nan,nan,nan,0,0.0,0.0,0.0,0.0,0.0,0.0,0.0,0.0,0.0,7,3,0,2,8,4,nan,nan,nan,nan,nan,nan,nan,nan,nan,nan,nan,nan,0.0,nan,nan,nan,nan,nan,nan,nan,nan,nan,nan,nan,nan,nan,nan,nan,nan,nan,nan,257.32063235668465,611.7478861482814,nan,nan,nan,nan,nan,nan
1,210,1,1,1.0,1.0,0.5802947217598557,0,0.0,0.0,0.0,0.5709857883592276,0.15780407988213485,0.4131817084770928,0.7287898682413625,0.15780407988213485,0.6174284648150206,1,8,3,7,0,5,nan,nan,nan,nan,nan,nan,nan,nan,nan,nan,nan,nan,0.0,nan,nan,nan,nan,nan,nan,nan,nan,nan,nan,nan,nan,nan,nan,nan,nan,nan,nan,257.32063235668465,612.773003765149,nan,613.3532984869089,nan,nan,nan,nan
1,211,1,1,1.0,1.0,0.5871441776398569,0,0.0,0.0,0.0,0.5710462359787122,0.15729267163140676,0.4137535643473054,0.728338907610119,0.15729267163140676,0.5837194496998563,0,4,2,1,8,6,nan,nan,nan,nan,nan,nan,nan,nan,nan,nan,nan,nan,0.0,nan,nan,nan,nan,nan,nan,nan,nan,nan,nan,nan,nan,nan,nan,nan,nan,nan,nan,257.32063235668465,613.7981538828462,nan,614.3852980604861,nan,nan,nan,nan
1,212,1,1,1.0,1.0,0.5139654772356153,0,0.0,0.0,0.0,0.5711500936668487,0.15678975222372274,0.41436034144312595,0.7279398458905714,0.15678975222372274,0.5604681255451093,6,2,0,5,3,1,nan,nan,nan,nan,nan,nan,nan,nan,nan,nan,nan,nan,0.0,nan,nan,nan,nan,nan,nan,nan,nan,nan,nan,nan,nan,nan,nan,nan,nan,nan,nan,257.32063235668465,614.8232789121103,nan,615.3372443893459,nan,nan,nan,nan
1,213,1,1,1.0,1.0,0.5288566641975194,0,0.0,0.0,0.0,0.5707835256128023,0.15635303189009597,0.41443049372270635,0.7271365575028983,0.15635303189009597,0.5433221063576639,0,8,1,7,6,4,nan,nan,nan,nan,nan,nan,nan,nan,nan,nan,nan,nan,0.0,nan,nan,nan,nan,nan,nan,nan,nan,nan,nan,nan,nan,nan,nan,nan,nan,nan,nan,257.32063235668465,615.848384269746,nan,616.3772409339435,nan,nan,nan,nan
1,214,1,1,nan,nan,nan,0,0.0,0.0,0.0,0.0,0.0,0.0,0.0,0.0,0.0,1,7,5,3,0,2,nan,nan,nan,nan,nan,nan,nan,nan,nan,nan,nan,nan,0.0,nan,nan,nan,nan,nan,nan,nan,nan,nan,nan,nan,nan,nan,nan,nan,nan,nan,nan,257.32063235668465,616.8735269750468,nan,nan,nan,nan,nan,nan
1,215,1,1,nan,nan,nan,0,0.0,0.0,0.0,0.0,0.0,0.0,0.0,0.0,0.0,6,8,3,7,5,4,nan,nan,nan,nan,nan,nan,nan,nan,nan,nan,nan,nan,0.0,nan,nan,nan,nan,nan,nan,nan,nan,nan,nan,nan,nan,nan,nan,nan,nan,nan,nan,257.32063235668465,617.8986528597306,nan,nan,nan,nan,nan,nan
1,216,1,1,nan,nan,nan,0,0.0,0.0,0.0,0.0,0.0,0.0,0.0,0.0,0.0,0,2,4,1,7,6,nan,nan,nan,nan,nan,nan,nan,nan,nan,nan,nan,nan,0.0,nan,nan,nan,nan,nan,nan,nan,nan,nan,nan,nan,nan,nan,nan,nan,nan,nan,nan,257.32063235668465,618.9237593577709,nan,nan,nan,nan,nan,nan
1,217,1,1,nan,nan,nan,0,0.0,0.0,0.0,0.0,0.0,0.0,0.0,0.0,0.0,4,3,7,2,8,1,nan,nan,nan,nan,nan,nan,nan,nan,nan,nan,nan,nan,0.0,nan,nan,nan,nan,nan,nan,nan,nan,nan,nan,nan,nan,nan,nan,nan,nan,nan,nan,257.32063235668465,619.9489097606856,nan,nan,nan,nan,nan,nan
1,218,1,1,nan,nan,nan,0,0.0,0.0,0.0,0.0,0.0,0.0,0.0,0.0,0.0,3,7,8,1,4,0,nan,nan,nan,nan,nan,nan,nan,nan,nan,nan,nan,nan,0.0,nan,nan,nan,nan,nan,nan,nan,nan,nan,nan,nan,nan,nan,nan,nan,nan,nan,nan,257.32063235668465,620.9739971570671,nan,nan,nan,nan,nan,nan
1,219,1,1,nan,nan,nan,0,0.0,0.0,0.0,0.0,0.0,0.0,0.0,0.0,0.0,0,2,6,8,3,5,nan,nan,nan,nan,nan,nan,nan,nan,nan,nan,nan,nan,0.0,nan,nan,nan,nan,nan,nan,nan,nan,nan,nan,nan,nan,nan,nan,nan,nan,nan,nan,257.32063235668465,621.9991464195773,nan,nan,nan,nan,nan,nan
1,220,1,1,1.0,1.0,0.7927678299602121,1,0.0,1.0,1.0,0.5705164755400934,0.15588998398568366,0.4146264915544098,0.7264064595257771,0.15588998398568366,0.7927678299602121,3,6,8,7,0,4,1.0,1.0,1.0,1.0,1.0,1.0,0.0,1.0,1.0,0.0,0.0,1.0,3.0,7.0,6.0,8.0,2.0,1.0,4.0,4.0,3.0,2.0,1.0,6.0,5.0,8.03610981721431,5.427821704884991,4.477448541438207,3.575380789814517,10.243833209155127,9.148101624567062,257.32063235668465,623.024305945728,623.8326893942431,623.8170737756882,635.1257850860711,636.1257026928943,624.8411861404311,635.117450845195
1,221,1,1,nan,nan,nan,0,0.0,0.0,0.0,0.0,0.0,0.0,0.0,0.0,0.0,6,2,1,4,8,7,nan,nan,nan,nan,nan,nan,nan,nan,nan,nan,nan,nan,0.0,nan,nan,nan,nan,nan,nan,nan,nan,nan,nan,nan,nan,nan,nan,nan,nan,nan,nan,257.32063235668465,636.3509946181439,nan,nan,nan,nan,nan,nan
1,222,1,1,1.0,1.0,0.14465964818373322,0,0.0,0.0,0.0,0.571923129681993,0.15639223469588387,0.4155308949861091,0.7283153643778768,0.15639223469588387,0.46871373907197267,8,6,4,5,1,0,nan,nan,nan,nan,nan,nan,nan,nan,nan,nan,nan,nan,0.0,nan,nan,nan,nan,nan,nan,nan,nan,nan,nan,nan,nan,nan,nan,nan,nan,nan,nan,257.32063235668465,637.3761455912609,nan,637.5208052394446,nan,nan,nan,nan
1,223,1,1,1.0,1.0,0.5995533100795001,1,1.0,0.0,1.0,0.5692359379744567,0.1595168383552678,0.4097190996191889,0.7287527763297246,0.1595168383552678,0.37210647913161665,4,8,0,3,2,7,1.0,1.0,1.0,1.0,1.0,1.0,0.0,0.0,1.0,0.0,0.0,0.0,1.0,8.0,2.0,0.0,7.0,8.0,2.0,4.0,3.0,2.0,1.0,6.0,5.0,9.275574484607205,5.755410143407062,4.339236932108179,2.8449528419878334,12.874447268201038,10.282347819535062,257.32063235668465,638.4012483828701,639.2096780173015,639.0008016929496,653.1363761548419,654.1363140037283,640.2264411512297,653.1280421989504
1,224,1,1,nan,nan,nan,0,0.0,0.0,0.0,0.0,0.0,0.0,0.0,0.0,0.0,8,7,5,6,4,3,nan,nan,nan,nan,nan,nan,nan,nan,nan,nan,nan,nan,0.0,nan,nan,nan,nan,nan,nan,nan,nan,nan,nan,nan,nan,nan,nan,nan,nan,nan,nan,257.32063235668465,654.3615939547308,nan,nan,nan,nan,nan,nan
1,225,1,1,nan,nan,nan,0,0.0,0.0,0.0,0.0,0.0,0.0,0.0,0.0,0.0,4,1,2,0,6,7,nan,nan,nan,nan,nan,nan,nan,nan,nan,nan,nan,nan,0.0,nan,nan,nan,nan,nan,nan,nan,nan,nan,nan,nan,nan,nan,nan,nan,nan,nan,nan,257.32063235668465,655.3866770747118,nan,nan,nan,nan,nan,nan
1,226,0,0,1.0,0.0,0.19662114419043064,0,0.0,0.0,0.0,0.5694254215501132,0.15903551591755624,0.41038990563255695,0.7284609374676695,0.15903551591755624,0.19662114419043064,6,5,3,7,4,0,nan,nan,nan,nan,nan,nan,nan,nan,nan,nan,nan,nan,0.0,nan,nan,nan,nan,nan,nan,nan,nan,nan,nan,nan,nan,nan,nan,nan,nan,nan,nan,257.32063235668465,656.4118320392445,nan,656.6084531834349,nan,nan,nan,nan
1,227,1,1,1.0,1.0,0.41946608177386224,1,1.0,0.0,1.0,0.5671098670323512,0.16122371772513047,0.4058861493072208,0.7283335847574817,0.16122371772513047,0.30804361298214644,0,6,8,4,2,1,1.0,1.0,1.0,1.0,1.0,1.0,0.0,1.0,1.0,0.0,0.0,0.0,2.0,5.0,6.0,8.0,5.0,5.0,5.0,3.0,2.0,1.0,6.0,5.0,4.0,6.399727675132453,3.366419791476801,2.4473636792972684,9.350091715576127,8.318833679426461,7.35032777604647,257.32063235668465,657.4369182952214,658.2453616142739,657.8563843769953,668.6550086699426,669.6548926352989,659.2621284546331,668.6466829818673
1,228,1,1,nan,nan,nan,0,0.0,0.0,0.0,0.0,0.0,0.0,0.0,0.0,0.0,3,2,5,1,4,7,nan,nan,nan,nan,nan,nan,nan,nan,nan,nan,nan,nan,0.0,nan,nan,nan,nan,nan,nan,nan,nan,nan,nan,nan,nan,nan,nan,nan,nan,nan,nan,257.32063235668465,669.8801509190816,nan,nan,nan,nan,nan,nan
1,229,1,1,1.0,1.0,0.7908114944584668,0,0.0,0.0,0.0,0.5661984856418667,0.16114082407660724,0.40505766156525946,0.7273393097184739,0.16114082407660724,0.6051387881161645,5,6,1,3,8,4,nan,nan,nan,nan,nan,nan,nan,nan,nan,nan,nan,nan,0.0,nan,nan,nan,nan,nan,nan,nan,nan,nan,nan,nan,nan,nan,nan,nan,nan,nan,nan,257.32063235668465,670.9053013219964,nan,671.6961128164548,nan,nan,nan,nan
1,230,1,1,1.0,1.0,0.3736182062420994,0,0.0,0.0,0.0,0.567576479560987,0.16160036764581143,0.4059761119151756,0.7291768472067984,0.16160036764581143,0.5822148503502831,3,1,7,4,6,5,nan,nan,nan,nan,nan,nan,nan,nan,nan,nan,nan,nan,0.0,nan,nan,nan,nan,nan,nan,nan,nan,nan,nan,nan,nan,nan,nan,nan,nan,nan,nan,257.32063235668465,671.930483940756,nan,672.304102146998,nan,nan,nan,nan
1,231,1,1,1.0,1.0,0.4365285674575716,0,0.0,0.0,0.0,0.566393807162701,0.1618129579454312,0.40458084921726983,0.7282067651081323,0.1618129579454312,0.5336527560527126,6,2,1,3,4,0,nan,nan,nan,nan,nan,nan,nan,nan,nan,nan,nan,nan,0.0,nan,nan,nan,nan,nan,nan,nan,nan,nan,nan,nan,nan,nan,nan,nan,nan,nan,nan,257.32063235668465,672.9555465339217,nan,673.3920751013793,nan,nan,nan,nan
1,232,1,1,1.0,1.0,0.34738443442620337,1,1.0,0.0,1.0,0.5656067451038821,0.16163643902410577,0.40397030607977635,0.7272431841279878,0.16163643902410577,0.38584373604195815,4,7,8,0,6,1,1.0,1.0,1.0,1.0,1.0,1.0,0.0,0.0,1.0,0.0,0.0,0.0,1.0,3.0,5.0,8.0,6.0,7.0,0.0,6.0,3.0,2.0,1.0,4.0,5.0,7.638857068959624,4.248667884385213,3.424356921110302,2.5842664083465934,5.166368930367753,6.446992768440396,257.32063235668465,673.9806855330244,674.789132558275,674.3280699674506,683.4734879739117,684.473418410169,675.7975694339257,683.4651545882225
1,233,1,1,1.0,1.0,0.7891436768695712,0,0.0,0.0,0.0,0.5642921528708841,0.16203115762560122,0.40226099524528286,0.7263233104964852,0.16203115762560122,0.5243522262511154,1,8,4,6,5,3,nan,nan,nan,nan,nan,nan,nan,nan,nan,nan,nan,nan,0.0,nan,nan,nan,nan,nan,nan,nan,nan,nan,nan,nan,nan,nan,nan,nan,nan,nan,nan,257.32063235668465,684.698690948775,nan,685.4878346256446,nan,nan,nan,nan
1,234,1,1,nan,nan,nan,0,0.0,0.0,0.0,0.0,0.0,0.0,0.0,0.0,0.0,8,3,7,4,1,6,nan,nan,nan,nan,nan,nan,nan,nan,nan,nan,nan,nan,0.0,nan,nan,nan,nan,nan,nan,nan,nan,nan,nan,nan,nan,nan,nan,nan,nan,nan,nan,257.32063235668465,685.7238387856632,nan,nan,nan,nan,nan,nan
1,235,1,1,nan,nan,nan,0,0.0,0.0,0.0,0.0,0.0,0.0,0.0,0.0,0.0,2,1,6,7,3,0,nan,nan,nan,nan,nan,nan,nan,nan,nan,nan,nan,nan,0.0,nan,nan,nan,nan,nan,nan,nan,nan,nan,nan,nan,nan,nan,nan,nan,nan,nan,nan,257.32063235668465,686.7489170590416,nan,nan,nan,nan,nan,nan
1,236,1,1,1.0,1.0,0.0017045950517058372,1,1.0,0.0,1.0,0.5656385691822534,0.16247404964553547,0.40316451953671795,0.7281126188277889,0.16247404964553547,0.0017045950517058372,8,3,0,6,5,4,1.0,1.0,1.0,1.0,1.0,1.0,0.0,1.0,1.0,1.0,0.0,0.0,3.0,7.0,3.0,0.0,6.0,8.0,1.0,4.0,3.0,2.0,1.0,6.0,5.0,8.574229283025488,4.782689650775865,3.700832312228158,2.5596534132491797,11.540604086359963,9.661106609739363,257.32063235668465,687.7740777255967,688.5824751439504,687.7757823206484,701.1673915733118,702.1670286448207,689.590965332929,701.1590576176532
1,237,1,1,nan,nan,nan,0,0.0,0.0,0.0,0.0,0.0,0.0,0.0,0.0,0.0,1,4,5,0,7,8,nan,nan,nan,nan,nan,nan,nan,nan,nan,nan,nan,nan,0.0,nan,nan,nan,nan,nan,nan,nan,nan,nan,nan,nan,nan,nan,nan,nan,nan,nan,nan,257.32063235668465,702.3925811487716,nan,nan,nan,nan,nan,nan
1,238,1,1,1.0,1.0,0.029731056420132518,0,0.0,0.0,0.0,0.5622818193362382,0.16769735972150232,0.39458445961473587,0.7299791790577406,0.16769735972150232,0.015717825735919178,6,1,7,2,3,0,nan,nan,nan,nan,nan,nan,nan,nan,nan,nan,nan,nan,0.0,nan,nan,nan,nan,nan,nan,nan,nan,nan,nan,nan,nan,nan,nan,nan,nan,nan,nan,257.32063235668465,703.417733262293,nan,703.4474643187132,nan,nan,nan,nan
1,239,1,1,1.0,1.0,0.39657564274966717,1,1.0,0.0,1.0,0.5591306313899891,0.17211692902458334,0.3870137023654058,0.7312475604145724,0.17211692902458334,0.21315334958489984,1,8,5,3,4,6,1.0,1.0,1.0,1.0,1.0,1.0,0.0,0.0,1.0,1.0,0.0,0.0,2.0,2.0,6.0,5.0,3.0,1.0,7.0,6.0,3.0,2.0,1.0,5.0,4.0,17.343682734994218,4.760226572398096,3.9047473785467446,2.8322107165586203,11.688225322635844,7.777144799241796,257.32063235668465,704.4428283562884,705.2512411698699,704.839403999038,723.645216728095,724.644836978754,706.2597421924584,723.6368722235784
1,240,1,1,1.0,1.0,0.5605930930469185,0,0.0,0.0,0.0,0.5581744255744578,0.172059579023126,0.3861148465513319,0.7302340045975838,0.172059579023126,0.3289665974055727,5,6,2,1,3,4,nan,nan,nan,nan,nan,nan,nan,nan,nan,nan,nan,nan,0.0,nan,nan,nan,nan,nan,nan,nan,nan,nan,nan,nan,nan,nan,nan,nan,nan,nan,nan,257.32063235668465,724.8704202729277,nan,725.4310133659746,nan,nan,nan,nan
1,241,1,1,1.0,1.0,0.7514860681258142,0,0.0,0.0,0.0,0.5581885698286827,0.17155584227945905,0.3866327275492236,0.7297444121081418,0.17155584227945905,0.5695516013074666,7,4,3,2,6,8,nan,nan,nan,nan,nan,nan,nan,nan,nan,nan,nan,nan,0.0,nan,nan,nan,nan,nan,nan,nan,nan,nan,nan,nan,nan,nan,nan,nan,nan,nan,nan,257.32063235668465,725.8955213541631,nan,726.6470074222889,nan,nan,nan,nan
1,242,1,1,1.0,1.0,0.6783909010700881,0,0.0,0.0,0.0,0.559312392493201,0.17168652632312606,0.3876258661700749,0.7309989188163271,0.17168652632312606,0.663490020747607,4,5,2,3,8,7,nan,nan,nan,nan,nan,nan,nan,nan,nan,nan,nan,nan,0.0,nan,nan,nan,nan,nan,nan,nan,nan,nan,nan,nan,nan,nan,nan,nan,nan,nan,nan,257.32063235668465,726.9206221501809,nan,727.599013051251,nan,nan,nan,nan
1,243,1,1,1.0,1.0,0.749227529624477,0,0.0,0.0,0.0,0.5600007075716801,0.1714274483600983,0.3885732592115818,0.7314281559317783,0.1714274483600983,0.7263681662734598,7,4,6,0,2,3,nan,nan,nan,nan,nan,nan,nan,nan,nan,nan,nan,nan,0.0,nan,nan,nan,nan,nan,nan,nan,nan,nan,nan,nan,nan,nan,nan,nan,nan,nan,nan,257.32063235668465,727.9457483198494,nan,728.6949758494738,nan,nan,nan,nan
1,244,1,1,1.0,1.0,0.5640721316449344,0,0.0,0.0,0.0,0.5610882180432478,0.17153157316186216,0.38955664488138564,0.73261979120511,0.17153157316186216,0.6638968541131666,1,2,3,6,5,8,nan,nan,nan,nan,nan,nan,nan,nan,nan,nan,nan,nan,0.0,nan,nan,nan,nan,nan,nan,nan,nan,nan,nan,nan,nan,nan,nan,nan,nan,nan,nan,257.32063235668465,728.9708736343309,nan,729.5349457659759,nan,nan,nan,nan
1,245,1,1,1.0,1.0,0.47488951054401696,0,0.0,0.0,0.0,0.5611052689781146,0.1710409286985771,0.3900643402795375,0.7321461976766918,0.1710409286985771,0.5960630572711428,3,6,8,5,4,2,nan,nan,nan,nan,nan,nan,nan,nan,nan,nan,nan,nan,0.0,nan,nan,nan,nan,nan,nan,nan,nan,nan,nan,nan,nan,nan,nan,nan,nan,nan,nan,257.32063235668465,729.9960080718156,nan,730.4708975823596,nan,nan,nan,nan
1,246,1,1,1.0,1.0,0.5537094257306308,0,0.0,0.0,0.0,0.5606154067142846,0.17067739037366128,0.3899380163406233,0.7312927970879458,0.17067739037366128,0.530890355973194,7,4,2,8,1,3,nan,nan,nan,nan,nan,nan,nan,nan,nan,nan,nan,nan,0.0,nan,nan,nan,nan,nan,nan,nan,nan,nan,nan,nan,nan,nan,nan,nan,nan,nan,nan,257.32063235668465,731.0211730145384,nan,731.574882440269,nan,nan,nan,nan
1,247,0,0,1.0,0.0,0.42460467014461756,0,0.0,0.0,0.0,0.560576389872569,0.17019535505293248,0.3903810348196365,0.7307717449255015,0.17019535505293248,0.48440120213975507,2,3,1,0,4,5,nan,nan,nan,nan,nan,nan,nan,nan,nan,nan,nan,nan,0.0,nan,nan,nan,nan,nan,nan,nan,nan,nan,nan,nan,nan,nan,nan,nan,nan,nan,nan,257.32063235668465,732.0462626919616,nan,732.4708673621062,nan,nan,nan,nan
1,248,1,1,nan,nan,nan,0,0.0,0.0,0.0,0.0,0.0,0.0,0.0,0.0,0.0,8,7,6,4,2,1,nan,nan,nan,nan,nan,nan,nan,nan,nan,nan,nan,nan,0.0,nan,nan,nan,nan,nan,nan,nan,nan,nan,nan,nan,nan,nan,nan,nan,nan,nan,nan,257.32063235668465,733.071417941479,nan,nan,nan,nan,nan,nan
1,249,1,1,1.0,1.0,0.014304457232356071,1,1.0,0.0,1.0,0.5598125038066816,0.1700206144756038,0.3897918893310778,0.7298331182822854,0.1700206144756038,0.21945456368848681,1,5,3,8,0,4,1.0,1.0,1.0,1.0,1.0,1.0,0.0,0.0,1.0,1.0,0.0,0.0,2.0,0.0,1.0,3.0,8.0,4.0,8.0,4.0,3.0,2.0,1.0,6.0,5.0,7.842897007474676,6.819575501838699,4.882114381995052,3.4025207706727087,9.537541289115325,8.673896061489359,257.32063235668465,734.0965338477399,734.9049375380855,734.1108383049723,745.4896344430745,746.4896273156628,735.913399502635,745.4812987765763
1,250,1,1,nan,nan,nan,0,0.0,0.0,0.0,0.0,0.0,0.0,0.0,0.0,0.0,4,3,2,1,8,7,nan,nan,nan,nan,nan,nan,nan,nan,nan,nan,nan,nan,0.0,nan,nan,nan,nan,nan,nan,nan,nan,nan,nan,nan,nan,nan,nan,nan,nan,nan,nan,257.32063235668465,746.7147940830328,nan,nan,nan,nan,nan,nan
1,251,1,1,1.0,1.0,0.11459559854120016,0,0.0,0.0,0.0,0.5567649728202329,0.17435218067036956,0.3824127921498633,0.7311171534906025,0.17435218067036956,0.06445002788677812,2,5,6,0,7,3,nan,nan,nan,nan,nan,nan,nan,nan,nan,nan,nan,nan,0.0,nan,nan,nan,nan,nan,nan,nan,nan,nan,nan,nan,nan,nan,nan,nan,nan,nan,nan,257.32063235668465,747.7399390691426,nan,747.8545346676838,nan,nan,nan,nan
1,252,0,0,1.0,0.0,0.3294236077927053,0,0.0,0.0,0.0,0.5543084762964605,0.17694619094087674,0.3773622853555838,0.7312546672373372,0.17694619094087674,0.22200960316695273,0,7,5,6,3,2,nan,nan,nan,nan,nan,nan,nan,nan,nan,nan,nan,nan,0.0,nan,nan,nan,nan,nan,nan,nan,nan,nan,nan,nan,nan,nan,nan,nan,nan,nan,nan,257.32063235668465,748.7650732216425,nan,749.0944968294352,nan,nan,nan,nan
1,253,1,1,1.0,1.0,0.5682741766795516,1,1.0,0.0,1.0,0.5530660184594232,0.17724231317702457,0.3758237052823986,0.7303083316364477,0.17724231317702457,0.33743112767115235,8,2,6,4,0,7,1.0,1.0,1.0,1.0,1.0,1.0,0.0,1.0,1.0,0.0,0.0,0.0,2.0,3.0,2.0,6.0,0.0,8.0,5.0,4.0,3.0,2.0,1.0,6.0,5.0,6.684741436969489,4.004825551994145,3.1169969704933465,2.4218261148780584,8.65183069347404,7.547971278196201,257.32063235668465,749.7902167821303,750.5986130600795,750.3584909588099,760.2997749445494,761.2991594199557,751.6070747394115,760.291440988658
1,254,1,1,nan,nan,nan,0,0.0,0.0,0.0,0.0,0.0,0.0,0.0,0.0,0.0,1,3,8,6,7,5,nan,nan,nan,nan,nan,nan,nan,nan,nan,nan,nan,nan,0.0,nan,nan,nan,nan,nan,nan,nan,nan,nan,nan,nan,nan,nan,nan,nan,nan,nan,nan,257.32063235668465,761.5250127010513,nan,nan,nan,nan,nan,nan
1,255,1,1,1.0,1.0,0.46410372061654925,0,0.0,0.0,0.0,0.5531495797683249,0.17675828810486593,0.37639129166345897,0.7299078678731908,0.17675828810486593,0.5161889486480504,5,0,1,4,8,3,nan,nan,nan,nan,nan,nan,nan,nan,nan,nan,nan,nan,0.0,nan,nan,nan,nan,nan,nan,nan,nan,nan,nan,nan,nan,nan,nan,nan,nan,nan,nan,257.32063235668465,762.5501018082723,nan,763.0142055288889,nan,nan,nan,nan
1,256,1,1,1.0,1.0,0.3830098717007786,0,0.0,0.0,0.0,0.552662990374053,0.17639686773990457,0.3762661226341484,0.7290598581139576,0.17639686773990457,0.42355679615866393,7,6,4,8,2,1,nan,nan,nan,nan,nan,nan,nan,nan,nan,nan,nan,nan,0.0,nan,nan,nan,nan,nan,nan,nan,nan,nan,nan,nan,nan,nan,nan,nan,nan,nan,nan,257.32063235668465,763.575231684139,nan,763.9582415558398,nan,nan,nan,nan
1,257,1,1,1.0,1.0,0.5258064111694694,0,0.0,0.0,0.0,0.5517409625551765,0.176358503624855,0.37538245893032146,0.7280994661800315,0.176358503624855,0.4576400011622657,5,7,2,4,0,3,nan,nan,nan,nan,nan,nan,nan,nan,nan,nan,nan,nan,0.0,nan,nan,nan,nan,nan,nan,nan,nan,nan,nan,nan,nan,nan,nan,nan,nan,nan,nan,257.32063235668465,764.6003761000466,nan,765.126182511216,nan,nan,nan,nan
1,258,1,1,1.0,1.0,0.6046819200273603,0,0.0,0.0,0.0,0.5516007757909294,0.17589149260532014,0.37570928318560926,0.7274922683962495,0.17589149260532014,0.5044994009658694,7,1,4,0,3,2,nan,nan,nan,nan,nan,nan,nan,nan,nan,nan,nan,nan,0.0,nan,nan,nan,nan,nan,nan,nan,nan,nan,nan,nan,nan,nan,nan,nan,nan,nan,nan,257.32063235668465,765.6254860193003,nan,766.2301679393277,nan,nan,nan,nan
1,259,0,0,0.0,1.0,0.6115322310943156,0,0.0,0.0,0.0,0.5518861582868242,0.1754609694684383,0.3764251888183859,0.7273471277552626,0.1754609694684383,0.5806735207637151,6,0,8,3,4,7,nan,nan,nan,nan,nan,nan,nan,nan,nan,nan,nan,nan,0.0,nan,nan,nan,nan,nan,nan,nan,nan,nan,nan,nan,nan,nan,nan,nan,nan,nan,nan,257.32063235668465,766.650616750354,nan,767.2621489814483,nan,nan,nan,nan
1,260,1,1,1.0,1.0,0.5223584480118006,0,0.0,0.0,0.0,0.552205121243014,0.17504525412093666,0.3771598671220774,0.7272503753639507,0.17504525412093666,0.5795241997111589,3,6,2,1,0,8,nan,nan,nan,nan,nan,nan,nan,nan,nan,nan,nan,nan,0.0,nan,nan,nan,nan,nan,nan,nan,nan,nan,nan,nan,nan,nan,nan,nan,nan,nan,nan,257.32063235668465,767.6757452008314,nan,768.1981036488432,nan,nan,nan,nan
1,261,1,1,1.0,1.0,0.4412181281950325,0,0.0,0.0,0.0,0.552046362342848,0.17459258579371004,0.3774537765491379,0.726638948136558,0.17459258579371004,0.5250362691003829,7,3,5,6,1,0,nan,nan,nan,nan,nan,nan,nan,nan,nan,nan,nan,nan,0.0,nan,nan,nan,nan,nan,nan,nan,nan,nan,nan,nan,nan,nan,nan,nan,nan,nan,nan,257.32063235668465,768.7008767875377,nan,769.1420949157327,nan,nan,nan,nan
1,262,1,1,1.0,1.0,0.4160714317113161,0,0.0,0.0,0.0,0.5514599695695791,0.1743156120050888,0.3771443575644903,0.7257755815746679,0.1743156120050888,0.45988266930604976,3,2,8,0,5,4,nan,nan,nan,nan,nan,nan,nan,nan,nan,nan,nan,nan,0.0,nan,nan,nan,nan,nan,nan,nan,nan,nan,nan,nan,nan,nan,nan,nan,nan,nan,nan,257.32063235668465,769.7260180672165,nan,770.1420894989278,nan,nan,nan,nan
1,263,1,1,1.0,1.0,0.4708944463636726,0,0.0,0.0,0.0,0.5507473983176935,0.17413205577905255,0.37661534253864093,0.724879454096746,0.17413205577905255,0.44272800209000707,7,8,4,6,1,3,nan,nan,nan,nan,nan,nan,nan,nan,nan,nan,nan,nan,0.0,nan,nan,nan,nan,nan,nan,nan,nan,nan,nan,nan,nan,nan,nan,nan,nan,nan,nan,257.32063235668465,770.751167899929,nan,771.2220623462927,nan,nan,nan,nan
1,264,1,1,1.0,1.0,0.4057532006409019,0,0.0,0.0,0.0,0.5503293200352117,0.1737711974431859,0.3765581225920258,0.7241005174783977,0.1737711974431859,0.43090635957196355,6,0,5,4,3,1,nan,nan,nan,nan,nan,nan,nan,nan,nan,nan,nan,nan,0.0,nan,nan,nan,nan,nan,nan,nan,nan,nan,nan,nan,nan,nan,nan,nan,nan,nan,nan,257.32063235668465,771.7762903633993,nan,772.1820435640402,nan,nan,nan,nan
1,265,1,1,1.0,1.0,0.48466520197689533,0,0.0,0.0,0.0,0.5495763194133664,0.17363022458859198,0.37594609482477437,0.7232065440019584,0.17363022458859198,0.45377094966049,0,1,4,8,7,2,nan,nan,nan,nan,nan,nan,nan,nan,nan,nan,nan,nan,0.0,nan,nan,nan,nan,nan,nan,nan,nan,nan,nan,nan,nan,nan,nan,nan,nan,nan,nan,257.32063235668465,772.8013429781422,nan,773.2860081801191,nan,nan,nan,nan
1,266,1,1,1.0,1.0,0.7154814519453794,0,0.0,0.0,0.0,0.5492399923800168,0.17324251414963052,0.3759974782303862,0.7224825065296473,0.17324251414963052,0.5352999515210589,5,0,7,1,6,4,nan,nan,nan,nan,nan,nan,nan,nan,nan,nan,nan,nan,0.0,nan,nan,nan,nan,nan,nan,nan,nan,nan,nan,nan,nan,nan,nan,nan,nan,nan,nan,257.32063235668465,773.8265139078721,nan,774.5419953598175,nan,nan,nan,nan
1,267,1,1,nan,nan,nan,0,0.0,0.0,0.0,0.0,0.0,0.0,0.0,0.0,0.0,2,7,8,4,1,5,nan,nan,nan,nan,nan,nan,nan,nan,nan,nan,nan,nan,0.0,nan,nan,nan,nan,nan,nan,nan,nan,nan,nan,nan,nan,nan,nan,nan,nan,nan,nan,257.32063235668465,774.8516452093609,nan,nan,nan,nan,nan,nan
1,268,0,0,nan,nan,nan,0,0.0,0.0,0.0,0.0,0.0,0.0,0.0,0.0,0.0,1,3,5,2,4,8,nan,nan,nan,nan,nan,nan,nan,nan,nan,nan,nan,nan,0.0,nan,nan,nan,nan,nan,nan,nan,nan,nan,nan,nan,nan,nan,nan,nan,nan,nan,nan,257.32063235668465,775.8767460053787,nan,nan,nan,nan,nan,nan
1,269,1,1,1.0,1.0,0.760037267813459,1,0.0,1.0,1.0,0.5500969071200444,0.17320503208292165,0.3768918750371228,0.723301939202966,0.17320503208292165,0.760037267813459,5,2,7,3,0,4,1.0,1.0,1.0,1.0,1.0,1.0,1.0,0.0,1.0,1.0,0.0,0.0,3.0,5.0,5.0,7.0,3.0,1.0,0.0,3.0,4.0,2.0,1.0,5.0,6.0,7.507416798733175,14.84308973303996,5.900340063730255,4.245274944696575,16.43554469780065,17.290897878818214,257.32063235668465,776.901870749658,777.7102918310557,777.6619080174714,796.0459262775257,797.0454307787586,778.7187865816522,796.0375387233216
1,270,1,1,1.0,1.0,0.34243058878928423,0,0.0,0.0,0.0,0.5511735243543696,0.17340992871603678,0.37776359563833284,0.7245834530704064,0.17340992871603678,0.5512339283013716,7,3,8,6,1,2,nan,nan,nan,nan,nan,nan,nan,nan,nan,nan,nan,nan,0.0,nan,nan,nan,nan,nan,nan,nan,nan,nan,nan,nan,nan,nan,nan,nan,nan,nan,nan,257.32063235668465,797.2711206993554,nan,797.6135512881447,nan,nan,nan,nan
1,271,1,1,nan,nan,nan,0,0.0,0.0,0.0,0.0,0.0,0.0,0.0,0.0,0.0,4,0,6,3,5,8,nan,nan,nan,nan,nan,nan,nan,nan,nan,nan,nan,nan,0.0,nan,nan,nan,nan,nan,nan,nan,nan,nan,nan,nan,nan,nan,nan,nan,nan,nan,nan,257.32063235668465,798.2962517156266,nan,nan,nan,nan,nan,nan
1,272,1,1,nan,nan,nan,0,0.0,0.0,0.0,0.0,0.0,0.0,0.0,0.0,0.0,6,5,0,2,7,1,nan,nan,nan,nan,nan,nan,nan,nan,nan,nan,nan,nan,0.0,nan,nan,nan,nan,nan,nan,nan,nan,nan,nan,nan,nan,nan,nan,nan,nan,nan,nan,257.32063235668465,799.3213721835054,nan,nan,nan,nan,nan,nan
1,273,1,1,1.0,1.0,0.7149183852598071,0,0.0,0.0,0.0,0.5501085093769967,0.17360518421573026,0.3765033251612665,0.723713693592727,0.17360518421573026,0.7149183852598071,3,4,6,7,5,0,nan,nan,nan,nan,nan,nan,nan,nan,nan,nan,nan,nan,0.0,nan,nan,nan,nan,nan,nan,nan,nan,nan,nan,nan,nan,nan,nan,nan,nan,nan,nan,257.32063235668465,800.3464989233762,nan,801.061417308636,nan,nan,nan,nan
1,274,1,1,1.0,1.0,0.6577826635912061,0,0.0,0.0,0.0,0.5509451077317318,0.17355964718621855,0.37738546054551325,0.7245047549179503,0.17355964718621855,0.6863505244255066,6,2,3,0,4,8,nan,nan,nan,nan,nan,nan,nan,nan,nan,nan,nan,nan,0.0,nan,nan,nan,nan,nan,nan,nan,nan,nan,nan,nan,nan,nan,nan,nan,nan,nan,nan,257.32063235668465,801.3716441944707,nan,802.0294268580619,nan,nan,nan,nan
1,275,0,0,0.0,1.0,0.768640355207026,0,0.0,0.0,0.0,0.5514846913471837,0.17328638624761616,0.37819830509956753,0.7247710775947999,0.17328638624761616,0.7137804680193464,1,8,6,4,7,2,nan,nan,nan,nan,nan,nan,nan,nan,nan,nan,nan,nan,0.0,nan,nan,nan,nan,nan,nan,nan,nan,nan,nan,nan,nan,nan,nan,nan,nan,nan,nan,257.32063235668465,802.3967598155141,nan,803.1654001707211,nan,nan,nan,nan
1,276,1,1,1.0,1.0,0.6074733049608767,0,0.0,0.0,0.0,0.5525759258389417,0.1735311305834139,0.37904479525552776,0.7261070564223555,0.1735311305834139,0.6779654412530363,2,4,0,5,8,6,nan,nan,nan,nan,nan,nan,nan,nan,nan,nan,nan,nan,0.0,nan,nan,nan,nan,nan,nan,nan,nan,nan,nan,nan,nan,nan,nan,nan,nan,nan,nan,257.32063235668465,803.4219048016239,nan,804.0293781065848,nan,nan,nan,nan
1,277,1,1,1.0,1.0,0.7343411892652512,0,0.0,0.0,0.0,0.5528504127345514,0.1731400626177156,0.37971035011683574,0.725990475352267,0.1731400626177156,0.7034849498110513,5,8,7,4,6,1,nan,nan,nan,nan,nan,nan,nan,nan,nan,nan,nan,nan,0.0,nan,nan,nan,nan,nan,nan,nan,nan,nan,nan,nan,nan,nan,nan,nan,nan,nan,nan,257.32063235668465,804.4470073082484,nan,805.1813484975137,nan,nan,nan,nan
1,278,1,1,1.0,1.0,0.7252018342260271,0,0.0,0.0,0.0,0.5537533519212713,0.1731802512422322,0.38057310067903904,0.7269336031635035,0.1731802512422322,0.689005442817385,3,0,5,8,1,2,nan,nan,nan,nan,nan,nan,nan,nan,nan,nan,nan,nan,0.0,nan,nan,nan,nan,nan,nan,nan,nan,nan,nan,nan,nan,nan,nan,nan,nan,nan,nan,257.32063235668465,805.4721354737412,nan,806.1973373079672,nan,nan,nan,nan
1,279,1,1,1.0,1.0,0.7480321179609746,1,0.0,1.0,1.0,0.5546021067841661,0.17316964079837852,0.3814324659857876,0.7277717475825446,0.17316964079837852,0.7358583804840843,6,1,4,7,2,5,1.0,1.0,1.0,1.0,1.0,1.0,0.0,0.0,1.0,1.0,1.0,0.0,3.0,1.0,6.0,4.0,7.0,2.0,0.0,4.0,3.0,2.0,1.0,6.0,5.0,6.096132145961747,4.888360002310947,3.76924305036664,2.6718881234992296,8.607085573021322,7.6315933673176914,257.32063235668465,806.4972707664128,807.3056978348177,807.2453028843738,816.9652509510051,817.9651779662818,808.3224595433567,816.956918990938
1,280,0,0,0.0,1.0,0.5346897488925606,0,0.0,0.0,0.0,0.5555549639820814,0.17327263186978686,0.3822823321122945,0.7288275958518682,0.17327263186978686,0.6693079003598541,1,8,5,6,4,7,nan,nan,nan,nan,nan,nan,nan,nan,nan,nan,nan,nan,0.0,nan,nan,nan,nan,nan,nan,nan,nan,nan,nan,nan,nan,nan,nan,nan,nan,nan,nan,257.32063235668465,818.1904006127734,nan,818.7250903616659,nan,nan,nan,nan
1,281,1,1,1.0,1.0,0.5414884572383016,0,0.0,0.0,0.0,0.5554526835159563,0.17285356532051258,0.3825991181954438,0.7283062488364689,0.17285356532051258,0.6080701080306122,3,5,4,2,0,1,nan,nan,nan,nan,nan,nan,nan,nan,nan,nan,nan,nan,0.0,nan,nan,nan,nan,nan,nan,nan,nan,nan,nan,nan,nan,nan,nan,nan,nan,nan,nan,257.32063235668465,819.2155686917249,nan,819.7570571489632,nan,nan,nan,nan
1,282,1,1,1.0,1.0,0.6043198469560593,0,0.0,0.0,0.0,0.5553845653389922,0.17243420063368517,0.38295036470530697,0.7278187659726774,0.17243420063368517,0.5601660176956406,0,8,5,3,1,7,nan,nan,nan,nan,nan,nan,nan,nan,nan,nan,nan,nan,0.0,nan,nan,nan,nan,nan,nan,nan,nan,nan,nan,nan,nan,nan,nan,nan,nan,nan,nan,257.32063235668465,820.2407045545988,nan,820.8450244015548,nan,nan,nan,nan
1,283,1,1,1.0,1.0,0.7952176686376333,0,0.0,0.0,0.0,0.5556221152497546,0.17204878392890713,0.3835733313208475,0.7276708991786617,0.17204878392890713,0.6470086576106647,2,7,8,5,0,4,nan,nan,nan,nan,nan,nan,nan,nan,nan,nan,nan,nan,0.0,nan,nan,nan,nan,nan,nan,nan,nan,nan,nan,nan,nan,nan,nan,nan,nan,nan,nan,257.32063235668465,821.2657933766022,nan,822.0610110452399,nan,nan,nan,nan
1,284,1,1,1.0,1.0,0.5377439931035042,0,0.0,0.0,0.0,0.556779581691242,0.17243482588693776,0.3843447558043042,0.7292144075781797,0.17243482588693776,0.6457605028990656,1,0,6,4,7,2,nan,nan,nan,nan,nan,nan,nan,nan,nan,nan,nan,nan,0.0,nan,nan,nan,nan,nan,nan,nan,nan,nan,nan,nan,nan,nan,nan,nan,nan,nan,nan,257.32063235668465,822.2992606295738,nan,822.8370046226773,nan,nan,nan,nan
1,285,1,1,1.0,1.0,0.6885617368388921,0,0.0,0.0,0.0,0.5566880644384162,0.1720248588857596,0.38466320555265665,0.7287129233241758,0.1720248588857596,0.6738411328600099,0,8,2,7,4,1,nan,nan,nan,nan,nan,nan,nan,nan,nan,nan,nan,nan,0.0,nan,nan,nan,nan,nan,nan,nan,nan,nan,nan,nan,nan,nan,nan,nan,nan,nan,nan,257.32063235668465,823.3243956372607,nan,824.0129573740996,nan,nan,nan,nan
1,286,1,1,1.0,1.0,0.7034158613532782,0,0.0,0.0,0.0,0.5573190389475094,0.17185392551026468,0.38546511343724477,0.7291729644577741,0.17185392551026468,0.6432405304318914,5,7,6,4,0,2,nan,nan,nan,nan,nan,nan,nan,nan,nan,nan,nan,nan,0.0,nan,nan,nan,nan,nan,nan,nan,nan,nan,nan,nan,nan,nan,nan,nan,nan,nan,nan,257.32063235668465,824.3495161049068,nan,825.0529319662601,nan,nan,nan,nan
1,287,1,1,1.0,1.0,0.7902609719894826,0,0.0,0.0,0.0,0.5580147381018227,0.17173901753419726,0.3862757205676254,0.72975375563602,0.17173901753419726,0.7274128567272177,8,2,3,5,1,4,nan,nan,nan,nan,nan,nan,nan,nan,nan,nan,nan,nan,0.0,nan,nan,nan,nan,nan,nan,nan,nan,nan,nan,nan,nan,nan,nan,nan,nan,nan,nan,257.32063235668465,825.3746485468,nan,826.1649095187895,nan,nan,nan,nan
1,288,1,1,nan,nan,nan,0,0.0,0.0,0.0,0.0,0.0,0.0,0.0,0.0,0.0,4,6,0,2,3,1,nan,nan,nan,nan,nan,nan,nan,nan,nan,nan,nan,nan,0.0,nan,nan,nan,nan,nan,nan,nan,nan,nan,nan,nan,nan,nan,nan,nan,nan,nan,nan,257.32063235668465,826.3998000901192,nan,nan,nan,nan,nan,nan
1,289,1,1,1.0,1.0,0.739961021579802,1,0.0,1.0,1.0,0.5591154311534229,0.17207244715150774,0.38704298400191517,0.7311878783049306,0.17207244715150774,0.7651109967846423,6,4,5,3,1,8,1.0,1.0,1.0,1.0,1.0,1.0,0.0,1.0,1.0,1.0,0.0,0.0,3.0,1.0,4.0,5.0,3.0,6.0,0.0,4.0,3.0,2.0,1.0,6.0,5.0,6.296387706883252,5.127438648603857,3.640593024669215,2.615511045092717,10.503382961265743,8.847810939652845,257.32063235668465,827.4249299659859,828.2333051469177,828.1648909875657,839.7847400684841,840.7840221943334,829.241725486936,839.7764457412995
1,290,1,1,1.0,1.0,0.5226318561471999,0,0.0,0.0,0.0,0.5599684763912832,0.1721127656564374,0.3878557107348458,0.7320812420477206,0.1721127656564374,0.631296438863501,0,5,3,6,8,1,nan,nan,nan,nan,nan,nan,nan,nan,nan,nan,nan,nan,0.0,nan,nan,nan,nan,nan,nan,nan,nan,nan,nan,nan,nan,nan,nan,nan,nan,nan,nan,257.32063235668465,841.0099721231963,nan,841.5326039793435,nan,nan,nan,nan
1,291,1,1,nan,nan,nan,0,0.0,0.0,0.0,0.0,0.0,0.0,0.0,0.0,0.0,3,4,2,7,6,5,nan,nan,nan,nan,nan,nan,nan,nan,nan,nan,nan,nan,0.0,nan,nan,nan,nan,nan,nan,nan,nan,nan,nan,nan,nan,nan,nan,nan,nan,nan,nan,257.32063235668465,842.0350635112263,nan,nan,nan,nan,nan,nan
