block,trial,setsize,freq_trials,correct_response,actual_response,acc,rts,probe_trials,timeBlockStart,timeEncArrayOnset,timeResponse,timeWholeReportOnset,timeWholeReportOffset,colorind1,colorind2,colorind3,colorind4,colorind5,colorind6,wholereportResp1,wholereportResp2,wholereportResp3,wholereportResp4,wholereportResp5,wholereportResp6,wholereport_respacc1,wholereport_respacc2,wholereport_respacc3,wholereport_respacc4,wholereport_respacc5,wholereport_respacc6,wholereportRespOrder1,wholereportRespOrder2,wholereportRespOrder3,wholereportRespOrder4,wholereportRespOrder5,wholereportRespOrder6,wholereportRespColorInd1,wholereportRespColorInd2,wholereportRespColorInd3,wholereportRespColorInd4,wholereportRespColorInd5,wholereportRespColorInd6,wholereport_rts1,wholereport_rts2,wholereport_rts3,wholereport_rts4,wholereport_rts5,wholereport_rts6
1,1,6,1,1,1,1,0.423592291,0,257.3206324,258.3370066,258.7605989,nan,nan,3,8,6,4,0,5,nan,nan,nan,nan,nan,nan,0,0,0,0,0,0,nan,nan,nan,nan,nan,nan,nan,nan,nan,nan,nan,nan,nan,nan,nan,nan,nan,nan
1,2,6,1,1,1,1,0.598420049,0,257.3206324,259.362175,259.960595,nan,nan,3,5,7,6,4,2,nan,nan,nan,nan,nan,nan,0,0,0,0,0,0,nan,nan,nan,nan,nan,nan,nan,nan,nan,nan,nan,nan,nan,nan,nan,nan,nan,nan
1,3,6,1,1,1,1,0.725289644,0,257.3206324,260.3872692,261.1125589,nan,nan,4,8,0,5,3,7,nan,nan,nan,nan,nan,nan,0,0,0,0,0,0,nan,nan,nan,nan,nan,nan,nan,nan,nan,nan,nan,nan,nan,nan,nan,nan,nan,nan
1,4,6,1,1,1,1,0.628156238,0,257.3206324,261.4123968,262.0405531,nan,nan,0,6,3,1,7,8,nan,nan,nan,nan,nan,nan,0,0,0,0,0,0,nan,nan,nan,nan,nan,nan,nan,nan,nan,nan,nan,nan,nan,nan,nan,nan,nan,nan
1,5,6,1,1,1,1,0.563001593,0,257.3206324,262.4374899,263.0004915,nan,nan,1,3,8,7,5,0,nan,nan,nan,nan,nan,nan,0,0,0,0,0,0,nan,nan,nan,nan,nan,nan,nan,nan,nan,nan,nan,nan,nan,nan,nan,nan,nan,nan
1,6,6,1,1,1,1,0.481877523,0,257.3206324,263.4626266,263.9445042,nan,nan,5,8,4,2,0,1,nan,nan,nan,nan,nan,nan,0,0,0,0,0,0,nan,nan,nan,nan,nan,nan,nan,nan,nan,nan,nan,nan,nan,nan,nan,nan,nan,nan
1,7,6,1,1,1,1,0.392721986,0,257.3206324,264.4877591,264.8804811,nan,nan,0,3,7,8,5,2,nan,nan,nan,nan,nan,nan,0,0,0,0,0,0,nan,nan,nan,nan,nan,nan,nan,nan,nan,nan,nan,nan,nan,nan,nan,nan,nan,nan
1,8,6,1,1,1,1,0.519589871,0,257.3206324,265.5129032,266.0324931,nan,nan,6,5,8,7,0,4,nan,nan,nan,nan,nan,nan,0,0,0,0,0,0,nan,nan,nan,nan,nan,nan,nan,nan,nan,nan,nan,nan,nan,nan,nan,nan,nan,nan
1,9,6,1,1,1,1,0.422459315,0,257.3206324,266.5380123,266.9604716,nan,nan,0,2,5,8,4,1,nan,nan,nan,nan,nan,nan,0,0,0,0,0,0,nan,nan,nan,nan,nan,nan,nan,nan,nan,nan,nan,nan,nan,nan,nan,nan,nan,nan
1,10,6,1,1,1,1,0.453291987,0,257.3206324,267.5631424,268.0164344,nan,nan,3,1,7,0,2,6,nan,nan,nan,nan,nan,nan,0,0,0,0,0,0,nan,nan,nan,nan,nan,nan,nan,nan,nan,nan,nan,nan,nan,nan,nan,nan,nan,nan
1,11,6,1,1,1,1,0.500129719,1,257.3206324,268.5882683,269.088398,270.413479,278.6144736,1,6,3,8,0,2,1,1,1,1,1,1,0,1,1,1,1,0,4,3,2,1,6,5,5,6,3,8,0,1,6.160014118,5.023547017,4.057242063,3.105617323,8.166781466,7.28746303
1,12,6,1,1,1,1,0.592163596,0,257.3206324,279.8480148,280.4401784,nan,nan,4,7,0,5,6,1,nan,nan,nan,nan,nan,nan,0,0,0,0,0,0,nan,nan,nan,nan,nan,nan,nan,nan,nan,nan,nan,nan,nan,nan,nan,nan,nan,nan
1,13,6,0,0,0,1,0.718996983,0,257.3206324,280.8731355,281.5921325,nan,nan,3,0,7,4,2,6,nan,nan,nan,nan,nan,nan,0,0,0,0,0,0,nan,nan,nan,nan,nan,nan,nan,nan,nan,nan,nan,nan,nan,nan,nan,nan,nan,nan
1,14,6,1,1,1,1,0.557967064,0,257.3206324,281.8982446,282.4562117,nan,nan,2,1,8,6,7,4,nan,nan,nan,nan,nan,nan,0,0,0,0,0,0,nan,nan,nan,nan,nan,nan,nan,nan,nan,nan,nan,nan,nan,nan,nan,nan,nan,nan
1,15,6,1,1,1,1,0.532727426,0,257.3206324,282.9233708,283.4560982,nan,nan,4,6,7,8,0,5,nan,nan,nan,nan,nan,nan,0,0,0,0,0,0,nan,nan,nan,nan,nan,nan,nan,nan,nan,nan,nan,nan,nan,nan,nan,nan,nan,nan
1,16,6,1,1,1,1,0.491591349,0,257.3206324,283.9484987,284.44009,nan,nan,8,4,0,5,6,7,nan,nan,nan,nan,nan,nan,0,0,0,0,0,0,nan,nan,nan,nan,nan,nan,nan,nan,nan,nan,nan,nan,nan,nan,nan,nan,nan,nan
1,17,6,1,1,1,1,0.394449104,0,257.3206324,284.9736248,285.3680739,nan,nan,0,1,6,3,4,5,nan,nan,nan,nan,nan,nan,0,0,0,0,0,0,nan,nan,nan,nan,nan,nan,nan,nan,nan,nan,nan,nan,nan,nan,nan,nan,nan,nan
1,18,6,1,1,1,1,0.513247033,1,257.3206324,285.9987869,286.5120339,287.8156477,296.78346,3,7,4,2,8,1,1,1,1,1,1,1,0,1,1,1,0,1,4,3,2,1,6,5,6,7,4,2,3,1,5.900764288,4.989366737,4.079113565,2.270568181,8.932442842,7.500532846
1,19,6,0,0,nan,nan,nan,0,257.3206324,298.0169439,nan,nan,nan,1,4,3,5,6,2,nan,nan,nan,nan,nan,nan,0,0,0,0,0,0,nan,nan,nan,nan,nan,nan,nan,nan,nan,nan,nan,nan,nan,nan,nan,nan,nan,nan
1,20,6,1,1,nan,nan,nan,0,257.3206324,299.0420823,nan,nan,nan,0,3,5,2,7,8,nan,nan,nan,nan,nan,nan,0,0,0,0,0,0,nan,nan,nan,nan,nan,nan,nan,nan,nan,nan,nan,nan,nan,nan,nan,nan,nan,nan
1,21,6,1,1,nan,nan,nan,0,257.3206324,300.0672005,nan,nan,nan,8,0,3,5,2,6,nan,nan,nan,nan,nan,nan,0,0,0,0,0,0,nan,nan,nan,nan,nan,nan,nan,nan,nan,nan,nan,nan,nan,nan,nan,nan,nan,nan
1,22,6,1,1,1,1,0.723384626,0,257.3206324,301.0923056,301.8156902,nan,nan,1,5,4,6,3,8,nan,nan,nan,nan,nan,nan,0,0,0,0,0,0,nan,nan,nan,nan,nan,nan,nan,nan,nan,nan,nan,nan,nan,nan,nan,nan,nan,nan
1,23,6,1,1,1,1,0.738278664,0,257.3206324,302.1174389,302.8557175,nan,nan,4,8,7,3,1,5,nan,nan,nan,nan,nan,nan,0,0,0,0,0,0,nan,nan,nan,nan,nan,nan,nan,nan,nan,nan,nan,nan,nan,nan,nan,nan,nan,nan
1,24,6,1,1,1,1,0.777089775,0,257.3206324,303.142593,303.9196828,nan,nan,3,2,5,1,7,6,nan,nan,nan,nan,nan,nan,0,0,0,0,0,0,nan,nan,nan,nan,nan,nan,nan,nan,nan,nan,nan,nan,nan,nan,nan,nan,nan,nan
1,25,6,1,1,1,1,0.703928751,0,257.3206324,304.1677277,304.8716565,nan,nan,4,0,2,6,3,8,nan,nan,nan,nan,nan,nan,0,0,0,0,0,0,nan,nan,nan,nan,nan,nan,nan,nan,nan,nan,nan,nan,nan,nan,nan,nan,nan,nan
1,26,6,0,0,0,1,0.766779242,0,257.3206324,305.1928479,305.9596271,nan,nan,8,2,0,5,4,7,nan,nan,nan,nan,nan,nan,0,0,0,0,0,0,nan,nan,nan,nan,nan,nan,nan,nan,nan,nan,nan,nan,nan,nan,nan,nan,nan,nan
1,27,6,1,1,1,1,0.661645158,0,257.3206324,306.217988,306.8796332,nan,nan,1,0,3,2,5,8,nan,nan,nan,nan,nan,nan,0,0,0,0,0,0,nan,nan,nan,nan,nan,nan,nan,nan,nan,nan,nan,nan,nan,nan,nan,nan,nan,nan
1,28,6,1,1,1,1,0.68448599,1,257.3206324,307.2431059,307.9275919,309.0599827,318.4694453,6,3,8,5,2,0,1,1,1,1,1,1,0,1,1,1,1,0,4,3,2,1,6,5,4,3,8,5,2,1,5.591907578,4.080302134,3.153930148,1.816158044,9.37590896,8.064327864
1,29,6,1,1,nan,nan,nan,0,257.3206324,319.7029956,nan,nan,nan,4,5,2,8,0,1,nan,nan,nan,nan,nan,nan,0,0,0,0,0,0,nan,nan,nan,nan,nan,nan,nan,nan,nan,nan,nan,nan,nan,nan,nan,nan,nan,nan
1,30,6,1,1,1,1,0.615153533,0,257.3206324,320.7281195,321.3432731,nan,nan,8,1,3,6,7,2,nan,nan,nan,nan,nan,nan,0,0,0,0,0,0,nan,nan,nan,nan,nan,nan,nan,nan,nan,nan,nan,nan,nan,nan,nan,nan,nan,nan
1,31,6,1,1,1,1,0.766046543,0,257.3206324,321.7532514,322.5192979,nan,nan,0,4,7,3,5,8,nan,nan,nan,nan,nan,nan,0,0,0,0,0,0,nan,nan,nan,nan,nan,nan,nan,nan,nan,nan,nan,nan,nan,nan,nan,nan,nan,nan
1,32,6,1,1,nan,nan,nan,0,257.3206324,322.7783989,nan,nan,nan,8,7,5,2,1,6,nan,nan,nan,nan,nan,nan,0,0,0,0,0,0,nan,nan,nan,nan,nan,nan,nan,nan,nan,nan,nan,nan,nan,nan,nan,nan,nan,nan
1,33,6,1,1,1,1,0.659759526,0,257.3206324,323.8035063,324.4632658,nan,nan,4,2,3,6,7,5,nan,nan,nan,nan,nan,nan,0,0,0,0,0,0,nan,nan,nan,nan,nan,nan,nan,nan,nan,nan,nan,nan,nan,nan,nan,nan,nan,nan
1,34,6,1,1,nan,nan,nan,0,257.3206324,324.8286156,nan,nan,nan,8,7,0,4,5,3,nan,nan,nan,nan,nan,nan,0,0,0,0,0,0,nan,nan,nan,nan,nan,nan,nan,nan,nan,nan,nan,nan,nan,nan,nan,nan,nan,nan
1,35,6,1,1,nan,nan,nan,0,257.3206324,325.853737,nan,nan,nan,3,4,1,8,7,5,nan,nan,nan,nan,nan,nan,0,0,0,0,0,0,nan,nan,nan,nan,nan,nan,nan,nan,nan,nan,nan,nan,nan,nan,nan,nan,nan,nan
1,36,6,0,0,1,0,0.040338376,0,257.3206324,326.8788694,326.9192078,nan,nan,5,8,3,4,2,0,nan,nan,nan,nan,nan,nan,0,0,0,0,0,0,nan,nan,nan,nan,nan,nan,nan,nan,nan,nan,nan,nan,nan,nan,nan,nan,nan,nan
1,37,6,1,1,1,1,0.543177087,0,257.3206324,327.9039933,328.4471704,nan,nan,2,1,5,6,0,8,nan,nan,nan,nan,nan,nan,0,0,0,0,0,0,nan,nan,nan,nan,nan,nan,nan,nan,nan,nan,nan,nan,nan,nan,nan,nan,nan,nan
1,38,6,1,1,1,1,0.60598966,0,257.3206324,328.9291582,329.5351479,nan,nan,4,2,6,1,7,5,nan,nan,nan,nan,nan,nan,0,0,0,0,0,0,nan,nan,nan,nan,nan,nan,nan,nan,nan,nan,nan,nan,nan,nan,nan,nan,nan,nan
1,39,6,1,1,1,1,0.524873859,0,257.3206324,329.9542565,330.4791303,nan,nan,8,0,1,5,4,2,nan,nan,nan,nan,nan,nan,0,0,0,0,0,0,nan,nan,nan,nan,nan,nan,nan,nan,nan,nan,nan,nan,nan,nan,nan,nan,nan,nan
1,40,6,1,1,1,1,0.539694057,0,257.3206324,330.9794086,331.5191026,nan,nan,4,6,5,0,8,3,nan,nan,nan,nan,nan,nan,0,0,0,0,0,0,nan,nan,nan,nan,nan,nan,nan,nan,nan,nan,nan,nan,nan,nan,nan,nan,nan,nan
1,41,6,0,0,0,1,0.706547652,0,257.3206324,332.0045342,332.7110818,nan,nan,0,1,3,8,2,7,nan,nan,nan,nan,nan,nan,0,0,0,0,0,0,nan,nan,nan,nan,nan,nan,nan,nan,nan,nan,nan,nan,nan,nan,nan,nan,nan,nan
1,42,6,1,1,1,1,0.601423546,0,257.3206324,333.0296404,333.6310639,nan,nan,2,7,5,0,1,8,nan,nan,nan,nan,nan,nan,0,0,0,0,0,0,nan,nan,nan,nan,nan,nan,nan,nan,nan,nan,nan,nan,nan,nan,nan,nan,nan,nan
1,43,6,1,1,nan,nan,nan,0,257.3206324,334.0547934,nan,nan,nan,4,8,7,3,2,0,nan,nan,nan,nan,nan,nan,0,0,0,0,0,0,nan,nan,nan,nan,nan,nan,nan,nan,nan,nan,nan,nan,nan,nan,nan,nan,nan,nan
1,44,6,1,1,1,1,0.727102291,0,257.3206324,335.0799187,335.807021,nan,nan,7,5,3,6,1,4,nan,nan,nan,nan,nan,nan,0,0,0,0,0,0,nan,nan,nan,nan,nan,nan,nan,nan,nan,nan,nan,nan,nan,nan,nan,nan,nan,nan
1,45,6,1,1,nan,nan,nan,0,257.3206324,336.1050457,nan,nan,nan,5,4,2,7,3,0,nan,nan,nan,nan,nan,nan,0,0,0,0,0,0,nan,nan,nan,nan,nan,nan,nan,nan,nan,nan,nan,nan,nan,nan,nan,nan,nan,nan
1,46,6,1,1,nan,nan,nan,0,257.3206324,337.1301585,nan,nan,nan,6,3,7,5,1,2,nan,nan,nan,nan,nan,nan,0,0,0,0,0,0,nan,nan,nan,nan,nan,nan,nan,nan,nan,nan,nan,nan,nan,nan,nan,nan,nan,nan
1,47,6,0,0,nan,nan,nan,0,257.3206324,338.1553,nan,nan,nan,8,0,4,1,2,5,nan,nan,nan,nan,nan,nan,0,0,0,0,0,0,nan,nan,nan,nan,nan,nan,nan,nan,nan,nan,nan,nan,nan,nan,nan,nan,nan,nan
1,48,6,1,1,1,1,0.794503501,0,257.3206324,339.1804299,339.9749334,nan,nan,2,6,1,0,8,7,nan,nan,nan,nan,nan,nan,0,0,0,0,0,0,nan,nan,nan,nan,nan,nan,nan,nan,nan,nan,nan,nan,nan,nan,nan,nan,nan,nan
1,49,6,1,1,nan,nan,nan,0,257.3206324,340.2055695,nan,nan,nan,8,3,6,7,0,5,nan,nan,nan,nan,nan,nan,0,0,0,0,0,0,nan,nan,nan,nan,nan,nan,nan,nan,nan,nan,nan,nan,nan,nan,nan,nan,nan,nan
1,50,6,1,1,1,1,0.752203942,0,257.3206324,341.2306754,341.9828794,nan,nan,7,2,8,1,5,0,nan,nan,nan,nan,nan,nan,0,0,0,0,0,0,nan,nan,nan,nan,nan,nan,nan,nan,nan,nan,nan,nan,nan,nan,nan,nan,nan,nan
1,51,6,0,0,0,1,0.735055072,0,257.3206324,342.2558167,342.9908718,nan,nan,6,4,1,7,3,8,nan,nan,nan,nan,nan,nan,0,0,0,0,0,0,nan,nan,nan,nan,nan,nan,nan,nan,nan,nan,nan,nan,nan,nan,nan,nan,nan,nan
1,52,6,1,1,1,1,0.693880792,0,257.3206324,343.2809528,343.9748336,nan,nan,8,0,7,5,2,3,nan,nan,nan,nan,nan,nan,0,0,0,0,0,0,nan,nan,nan,nan,nan,nan,nan,nan,nan,nan,nan,nan,nan,nan,nan,nan,nan,nan
1,53,6,1,1,1,1,0.676710824,0,257.3206324,344.3061206,344.9828315,nan,nan,3,8,5,7,0,1,nan,nan,nan,nan,nan,nan,0,0,0,0,0,0,nan,nan,nan,nan,nan,nan,nan,nan,nan,nan,nan,nan,nan,nan,nan,nan,nan,nan
1,54,6,1,1,1,1,0.619252658,0,257.3206324,345.3395645,345.9588172,nan,nan,2,7,3,1,8,6,nan,nan,nan,nan,nan,nan,0,0,0,0,0,0,nan,nan,nan,nan,nan,nan,nan,nan,nan,nan,nan,nan,nan,nan,nan,nan,nan,nan
1,55,6,1,1,1,1,0.722169828,0,257.3206324,346.3646262,347.0867961,nan,nan,8,6,5,3,1,4,nan,nan,nan,nan,nan,nan,0,0,0,0,0,0,nan,nan,nan,nan,nan,nan,nan,nan,nan,nan,nan,nan,nan,nan,nan,nan,nan,nan
1,56,6,1,1,1,1,0.632966965,0,257.3206324,347.3898026,348.0227696,nan,nan,4,5,2,7,0,3,nan,nan,nan,nan,nan,nan,0,0,0,0,0,0,nan,nan,nan,nan,nan,nan,nan,nan,nan,nan,nan,nan,nan,nan,nan,nan,nan,nan
1,57,6,1,1,1,1,0.495825039,0,257.3206324,348.4149328,348.9107578,nan,nan,1,0,7,3,8,5,nan,nan,nan,nan,nan,nan,0,0,0,0,0,0,nan,nan,nan,nan,nan,nan,nan,nan,nan,nan,nan,nan,nan,nan,nan,nan,nan,nan
1,58,6,1,1,1,1,0.462639177,0,257.3206324,349.4400834,349.9027226,nan,nan,2,3,8,5,4,6,nan,nan,nan,nan,nan,nan,0,0,0,0,0,0,nan,nan,nan,nan,nan,nan,nan,nan,nan,nan,nan,nan,nan,nan,nan,nan,nan,nan
1,59,6,1,1,1,1,0.453527762,0,257.3206324,350.4651763,350.918704,nan,nan,6,0,4,3,7,2,nan,nan,nan,nan,nan,nan,0,0,0,0,0,0,nan,nan,nan,nan,nan,nan,nan,nan,nan,nan,nan,nan,nan,nan,nan,nan,nan,nan
1,60,6,1,1,1,1,0.516503411,0,257.3206324,351.4902856,352.006789,nan,nan,3,5,8,4,2,0,nan,nan,nan,nan,nan,nan,0,0,0,0,0,0,nan,nan,nan,nan,nan,nan,nan,nan,nan,nan,nan,nan,nan,nan,nan,nan,nan,nan
1,61,6,1,1,1,1,0.401331346,0,257.3206324,352.5173396,352.9186709,nan,nan,0,8,2,3,1,5,nan,nan,nan,nan,nan,nan,0,0,0,0,0,0,nan,nan,nan,nan,nan,nan,nan,nan,nan,nan,nan,nan,nan,nan,nan,nan,nan,nan
1,62,6,1,1,1,1,0.68980533,0,257.3206324,353.5488762,354.2386815,nan,nan,1,4,5,7,2,8,nan,nan,nan,nan,nan,nan,0,0,0,0,0,0,nan,nan,nan,nan,nan,nan,nan,nan,nan,nan,nan,nan,nan,nan,nan,nan,nan,nan
1,63,6,1,1,1,1,0.528636284,0,257.3206324,354.5740252,355.1026614,nan,nan,4,8,0,1,7,5,nan,nan,nan,nan,nan,nan,0,0,0,0,0,0,nan,nan,nan,nan,nan,nan,nan,nan,nan,nan,nan,nan,nan,nan,nan,nan,nan,nan
1,64,6,1,1,1,1,0.519484955,0,257.3206324,355.599157,356.118642,nan,nan,8,7,2,5,6,3,nan,nan,nan,nan,nan,nan,0,0,0,0,0,0,nan,nan,nan,nan,nan,nan,nan,nan,nan,nan,nan,nan,nan,nan,nan,nan,nan,nan
1,65,6,1,1,1,1,0.582329174,0,257.3206324,356.6242846,357.2066138,nan,nan,2,1,5,8,3,6,nan,nan,nan,nan,nan,nan,0,0,0,0,0,0,nan,nan,nan,nan,nan,nan,nan,nan,nan,nan,nan,nan,nan,nan,nan,nan,nan,nan
1,66,6,1,1,1,1,0.613150727,0,257.3206324,357.6494202,358.2625709,nan,nan,3,5,8,2,6,7,nan,nan,nan,nan,nan,nan,0,0,0,0,0,0,nan,nan,nan,nan,nan,nan,nan,nan,nan,nan,nan,nan,nan,nan,nan,nan,nan,nan
1,67,6,1,1,1,1,0.619985072,0,257.3206324,358.6745458,359.2945309,nan,nan,6,3,0,8,2,5,nan,nan,nan,nan,nan,nan,0,0,0,0,0,0,nan,nan,nan,nan,nan,nan,nan,nan,nan,nan,nan,nan,nan,nan,nan,nan,nan,nan
1,68,6,1,1,1,1,0.450837872,0,257.3206324,359.6996865,360.1505244,nan,nan,2,6,3,1,5,0,nan,nan,nan,nan,nan,nan,0,0,0,0,0,0,nan,nan,nan,nan,nan,nan,nan,nan,nan,nan,nan,nan,nan,nan,nan,nan,nan,nan
1,69,6,1,1,1,1,0.649697598,0,257.3206324,360.7247976,361.3744952,nan,nan,5,1,6,0,3,8,nan,nan,nan,nan,nan,nan,0,0,0,0,0,0,nan,nan,nan,nan,nan,nan,nan,nan,nan,nan,nan,nan,nan,nan,nan,nan,nan,nan
1,70,6,1,1,nan,nan,nan,0,257.3206324,361.7499614,nan,nan,nan,1,4,5,6,7,3,nan,nan,nan,nan,nan,nan,0,0,0,0,0,0,nan,nan,nan,nan,nan,nan,nan,nan,nan,nan,nan,nan,nan,nan,nan,nan,nan,nan
1,71,6,1,1,1,1,0.767404174,0,257.3206324,362.7750322,363.5424364,nan,nan,6,5,2,8,1,7,nan,nan,nan,nan,nan,nan,0,0,0,0,0,0,nan,nan,nan,nan,nan,nan,nan,nan,nan,nan,nan,nan,nan,nan,nan,nan,nan,nan
1,72,6,0,0,0,1,0.774245933,0,257.3206324,363.8001886,364.5744346,nan,nan,7,3,4,0,2,1,nan,nan,nan,nan,nan,nan,0,0,0,0,0,0,nan,nan,nan,nan,nan,nan,nan,nan,nan,nan,nan,nan,nan,nan,nan,nan,nan,nan
1,73,6,1,1,nan,nan,nan,0,257.3206324,364.8252886,nan,nan,nan,2,7,3,6,8,5,nan,nan,nan,nan,nan,nan,0,0,0,0,0,0,nan,nan,nan,nan,nan,nan,nan,nan,nan,nan,nan,nan,nan,nan,nan,nan,nan,nan
1,74,6,1,1,nan,nan,nan,0,257.3206324,365.850417,nan,nan,nan,4,1,8,5,0,3,nan,nan,nan,nan,nan,nan,0,0,0,0,0,0,nan,nan,nan,nan,nan,nan,nan,nan,nan,nan,nan,nan,nan,nan,nan,nan,nan,nan
1,75,6,0,0,nan,nan,nan,0,257.3206324,366.8755418,nan,nan,nan,5,3,6,4,8,1,nan,nan,nan,nan,nan,nan,0,0,0,0,0,0,nan,nan,nan,nan,nan,nan,nan,nan,nan,nan,nan,nan,nan,nan,nan,nan,nan,nan
1,76,6,1,1,nan,nan,nan,0,257.3206324,367.9006785,nan,nan,nan,2,4,0,1,7,6,nan,nan,nan,nan,nan,nan,0,0,0,0,0,0,nan,nan,nan,nan,nan,nan,nan,nan,nan,nan,nan,nan,nan,nan,nan,nan,nan,nan
1,77,6,0,0,nan,nan,nan,0,257.3206324,368.925826,nan,nan,nan,7,5,1,3,8,0,nan,nan,nan,nan,nan,nan,0,0,0,0,0,0,nan,nan,nan,nan,nan,nan,nan,nan,nan,nan,nan,nan,nan,nan,nan,nan,nan,nan
1,78,6,1,1,nan,nan,nan,1,257.3206324,369.9509508,nan,371.7678227,382.3441389,2,1,4,0,5,3,1,1,1,1,1,1,0,0,0,1,0,0,4,3,2,1,6,5,4,6,5,0,1,2,6.8833269,5.659596166,4.627521897,2.780325626,10.54689304,8.379401114
1,79,6,1,1,1,1,0.740392944,0,257.3206324,383.5776493,384.3180423,nan,nan,3,0,8,2,4,1,nan,nan,nan,nan,nan,nan,0,0,0,0,0,0,nan,nan,nan,nan,nan,nan,nan,nan,nan,nan,nan,nan,nan,nan,nan,nan,nan,nan
1,80,6,1,1,1,1,0.619233557,0,257.3206324,384.6027715,385.222005,nan,nan,4,8,5,7,0,6,nan,nan,nan,nan,nan,nan,0,0,0,0,0,0,nan,nan,nan,nan,nan,nan,nan,nan,nan,nan,nan,nan,nan,nan,nan,nan,nan,nan
1,81,6,1,1,1,1,0.698064591,0,257.3206324,385.6279239,386.3259885,nan,nan,6,0,1,4,5,7,nan,nan,nan,nan,nan,nan,0,0,0,0,0,0,nan,nan,nan,nan,nan,nan,nan,nan,nan,nan,nan,nan,nan,nan,nan,nan,nan,nan
1,82,6,1,1,1,1,0.63288058,0,257.3206324,386.6530786,387.2859591,nan,nan,0,4,7,3,2,5,nan,nan,nan,nan,nan,nan,0,0,0,0,0,0,nan,nan,nan,nan,nan,nan,nan,nan,nan,nan,nan,nan,nan,nan,nan,nan,nan,nan
1,83,6,1,1,1,1,0.74376108,0,257.3206324,387.6781625,388.4219236,nan,nan,4,8,1,5,6,2,nan,nan,nan,nan,nan,nan,0,0,0,0,0,0,nan,nan,nan,nan,nan,nan,nan,nan,nan,nan,nan,nan,nan,nan,nan,nan,nan,nan
1,84,6,1,1,1,1,0.614285413,0,257.3206324,388.7116629,389.3259483,nan,nan,5,4,2,7,3,0,nan,nan,nan,nan,nan,nan,0,0,0,0,0,0,nan,nan,nan,nan,nan,nan,nan,nan,nan,nan,nan,nan,nan,nan,nan,nan,nan,nan
1,85,6,1,1,1,1,0.525151258,0,257.3206324,389.7367899,390.2619411,nan,nan,6,3,1,5,8,7,nan,nan,nan,nan,nan,nan,0,0,0,0,0,0,nan,nan,nan,nan,nan,nan,nan,nan,nan,nan,nan,nan,nan,nan,nan,nan,nan,nan
1,86,6,1,1,1,1,0.467967926,0,257.3206324,390.761926,391.229894,nan,nan,8,6,4,3,5,1,nan,nan,nan,nan,nan,nan,0,0,0,0,0,0,nan,nan,nan,nan,nan,nan,nan,nan,nan,nan,nan,nan,nan,nan,nan,nan,nan,nan
1,87,6,1,1,1,1,0.514820198,0,257.3206324,391.7870494,392.3018696,nan,nan,4,2,3,8,7,0,nan,nan,nan,nan,nan,nan,0,0,0,0,0,0,nan,nan,nan,nan,nan,nan,nan,nan,nan,nan,nan,nan,nan,nan,nan,nan,nan,nan
1,88,6,1,1,1,1,0.513634194,0,257.3206324,392.8122043,393.3258385,nan,nan,7,1,0,2,6,3,nan,nan,nan,nan,nan,nan,0,0,0,0,0,0,nan,nan,nan,nan,nan,nan,nan,nan,nan,nan,nan,nan,nan,nan,nan,nan,nan,nan
1,89,6,1,1,1,1,0.464523668,0,257.3206324,393.8373048,394.3018285,nan,nan,8,6,4,3,5,1,nan,nan,nan,nan,nan,nan,0,0,0,0,0,0,nan,nan,nan,nan,nan,nan,nan,nan,nan,nan,nan,nan,nan,nan,nan,nan,nan,nan
1,90,6,1,1,1,1,0.471350601,0,257.3206324,394.8624387,395.3337893,nan,nan,2,0,6,1,3,7,nan,nan,nan,nan,nan,nan,0,0,0,0,0,0,nan,nan,nan,nan,nan,nan,nan,nan,nan,nan,nan,nan,nan,nan,nan,nan,nan,nan
1,91,6,1,1,1,1,0.558255868,0,257.3206324,395.8875689,396.4458247,nan,nan,3,6,8,5,4,2,nan,nan,nan,nan,nan,nan,0,0,0,0,0,0,nan,nan,nan,nan,nan,nan,nan,nan,nan,nan,nan,nan,nan,nan,nan,nan,nan,nan
1,92,6,1,1,1,1,0.693058287,0,257.3206324,396.912693,397.6057513,nan,nan,4,5,0,6,7,3,nan,nan,nan,nan,nan,nan,0,0,0,0,0,0,nan,nan,nan,nan,nan,nan,nan,nan,nan,nan,nan,nan,nan,nan,nan,nan,nan,nan
1,93,6,1,1,1,1,0.675929373,0,257.3206324,397.9378129,398.6137423,nan,nan,3,2,7,1,8,4,nan,nan,nan,nan,nan,nan,0,0,0,0,0,0,nan,nan,nan,nan,nan,nan,nan,nan,nan,nan,nan,nan,nan,nan,nan,nan,nan,nan
1,94,6,1,1,nan,nan,nan,0,257.3206324,398.9629431,nan,nan,nan,4,6,0,2,5,1,nan,nan,nan,nan,nan,nan,0,0,0,0,0,0,nan,nan,nan,nan,nan,nan,nan,nan,nan,nan,nan,nan,nan,nan,nan,nan,nan,nan
1,95,6,1,1,nan,nan,nan,0,257.3206324,399.9880311,nan,nan,nan,2,7,3,4,0,5,nan,nan,nan,nan,nan,nan,0,0,0,0,0,0,nan,nan,nan,nan,nan,nan,nan,nan,nan,nan,nan,nan,nan,nan,nan,nan,nan,nan
1,96,6,1,1,nan,nan,nan,0,257.3206324,401.0132174,nan,nan,nan,8,1,6,7,5,2,nan,nan,nan,nan,nan,nan,0,0,0,0,0,0,nan,nan,nan,nan,nan,nan,nan,nan,nan,nan,nan,nan,nan,nan,nan,nan,nan,nan
1,97,6,1,1,nan,nan,nan,0,257.3206324,402.0382954,nan,nan,nan,5,6,3,4,1,8,nan,nan,nan,nan,nan,nan,0,0,0,0,0,0,nan,nan,nan,nan,nan,nan,nan,nan,nan,nan,nan,nan,nan,nan,nan,nan,nan,nan
1,98,6,1,1,1,1,0.078205531,1,257.3206324,403.0634389,403.1416445,404.8803294,416.8317754,0,4,2,8,5,7,1,1,1,1,1,1,0,0,0,0,0,0,4,3,2,1,6,5,1,8,6,4,2,3,6.937505025,5.601304661,4.258548206,2.988150798,11.9213386,10.28114328
1,99,6,1,1,nan,nan,nan,0,257.3206324,418.0653277,nan,nan,nan,5,3,8,6,2,1,nan,nan,nan,nan,nan,nan,0,0,0,0,0,0,nan,nan,nan,nan,nan,nan,nan,nan,nan,nan,nan,nan,nan,nan,nan,nan,nan,nan
1,100,6,1,1,nan,nan,nan,0,257.3206324,419.0904322,nan,nan,nan,8,6,5,4,1,7,nan,nan,nan,nan,nan,nan,0,0,0,0,0,0,nan,nan,nan,nan,nan,nan,nan,nan,nan,nan,nan,nan,nan,nan,nan,nan,nan,nan
1,101,6,1,1,nan,nan,nan,0,257.3206324,420.1155706,nan,nan,nan,5,1,3,6,7,8,nan,nan,nan,nan,nan,nan,0,0,0,0,0,0,nan,nan,nan,nan,nan,nan,nan,nan,nan,nan,nan,nan,nan,nan,nan,nan,nan,nan
1,102,6,1,1,nan,nan,nan,0,257.3206324,421.1406637,nan,nan,nan,0,5,8,4,1,3,nan,nan,nan,nan,nan,nan,0,0,0,0,0,0,nan,nan,nan,nan,nan,nan,nan,nan,nan,nan,nan,nan,nan,nan,nan,nan,nan,nan
1,103,6,1,1,1,1,0.695381257,0,257.3206324,422.1658164,422.8611977,nan,nan,6,4,3,2,5,1,nan,nan,nan,nan,nan,nan,0,0,0,0,0,0,nan,nan,nan,nan,nan,nan,nan,nan,nan,nan,nan,nan,nan,nan,nan,nan,nan,nan
1,104,6,1,1,nan,nan,nan,0,257.3206324,423.1909272,nan,nan,nan,8,5,2,0,3,6,nan,nan,nan,nan,nan,nan,0,0,0,0,0,0,nan,nan,nan,nan,nan,nan,nan,nan,nan,nan,nan,nan,nan,nan,nan,nan,nan,nan
1,105,6,1,1,1,1,0.053136096,1,257.3206324,424.2160713,424.2692074,426.0329515,437.5010275,2,0,7,8,6,4,1,1,1,1,1,1,0,0,0,0,0,0,6,3,2,1,4,5,3,6,2,0,7,1,11.44039591,5.761422554,3.840158366,2.745070815,7.832964228,10.41673029
1,106,6,1,1,1,1,0.694318131,0,257.3206324,438.7345715,439.4288897,nan,nan,1,7,2,4,5,3,nan,nan,nan,nan,nan,nan,0,0,0,0,0,0,nan,nan,nan,nan,nan,nan,nan,nan,nan,nan,nan,nan,nan,nan,nan,nan,nan,nan
1,107,6,0,0,0,1,0.613188074,0,257.3206324,439.7596946,440.3728827,nan,nan,5,4,6,1,0,2,nan,nan,nan,nan,nan,nan,0,0,0,0,0,0,nan,nan,nan,nan,nan,nan,nan,nan,nan,nan,nan,nan,nan,nan,nan,nan,nan,nan
1,108,6,1,1,1,1,0.620030973,0,257.3206324,440.7848139,441.4048449,nan,nan,4,6,7,2,5,3,nan,nan,nan,nan,nan,nan,0,0,0,0,0,0,nan,nan,nan,nan,nan,nan,nan,nan,nan,nan,nan,nan,nan,nan,nan,nan,nan,nan
1,109,6,1,1,nan,nan,nan,0,257.3206324,441.8099566,nan,nan,nan,1,7,2,0,4,6,nan,nan,nan,nan,nan,nan,0,0,0,0,0,0,nan,nan,nan,nan,nan,nan,nan,nan,nan,nan,nan,nan,nan,nan,nan,nan,nan,nan
1,110,6,1,1,1,1,0.48972824,0,257.3206324,442.8350757,443.3248039,nan,nan,7,5,4,6,3,1,nan,nan,nan,nan,nan,nan,0,0,0,0,0,0,nan,nan,nan,nan,nan,nan,nan,nan,nan,nan,nan,nan,nan,nan,nan,nan,nan,nan
1,111,6,1,1,1,1,0.568620855,0,257.3206324,443.8601767,444.4287976,nan,nan,5,8,3,1,6,2,nan,nan,nan,nan,nan,nan,0,0,0,0,0,0,nan,nan,nan,nan,nan,nan,nan,nan,nan,nan,nan,nan,nan,nan,nan,nan,nan,nan
1,112,6,1,1,1,1,0.615449179,0,257.3206324,444.8853534,445.5008025,nan,nan,0,4,5,6,2,7,nan,nan,nan,nan,nan,nan,0,0,0,0,0,0,nan,nan,nan,nan,nan,nan,nan,nan,nan,nan,nan,nan,nan,nan,nan,nan,nan,nan
1,113,6,0,0,0,1,0.638263212,0,257.3206324,445.9104747,446.5487379,nan,nan,4,1,2,3,5,6,nan,nan,nan,nan,nan,nan,0,0,0,0,0,0,nan,nan,nan,nan,nan,nan,nan,nan,nan,nan,nan,nan,nan,nan,nan,nan,nan,nan
1,114,6,1,1,1,1,0.597090072,0,257.3206324,446.9356251,447.5327152,nan,nan,6,3,8,4,0,7,nan,nan,nan,nan,nan,nan,0,0,0,0,0,0,nan,nan,nan,nan,nan,nan,nan,nan,nan,nan,nan,nan,nan,nan,nan,nan,nan,nan
1,115,6,1,1,1,1,0.643982258,0,257.3206324,447.9607185,448.6047007,nan,nan,2,0,4,1,8,5,nan,nan,nan,nan,nan,nan,0,0,0,0,0,0,nan,nan,nan,nan,nan,nan,nan,nan,nan,nan,nan,nan,nan,nan,nan,nan,nan,nan
1,116,6,1,1,1,1,0.498854195,0,257.3206324,448.985827,449.4846812,nan,nan,0,7,8,5,6,2,nan,nan,nan,nan,nan,nan,0,0,0,0,0,0,nan,nan,nan,nan,nan,nan,nan,nan,nan,nan,nan,nan,nan,nan,nan,nan,nan,nan
1,117,6,1,1,1,1,0.593691431,0,257.3206324,450.0109751,450.6046665,nan,nan,7,1,2,3,8,5,nan,nan,nan,nan,nan,nan,0,0,0,0,0,0,nan,nan,nan,nan,nan,nan,nan,nan,nan,nan,nan,nan,nan,nan,nan,nan,nan,nan
1,118,6,1,1,1,1,0.696522216,0,257.3206324,451.0361041,451.7326263,nan,nan,8,2,5,6,3,0,nan,nan,nan,nan,nan,nan,0,0,0,0,0,0,nan,nan,nan,nan,nan,nan,nan,nan,nan,nan,nan,nan,nan,nan,nan,nan,nan,nan
1,119,6,1,1,1,1,0.679396438,0,257.3206324,452.06121,452.7406065,nan,nan,5,3,8,2,6,1,nan,nan,nan,nan,nan,nan,0,0,0,0,0,0,nan,nan,nan,nan,nan,nan,nan,nan,nan,nan,nan,nan,nan,nan,nan,nan,nan,nan
1,120,6,0,0,nan,nan,nan,0,257.3206324,453.0863519,nan,nan,nan,4,5,3,7,1,8,nan,nan,nan,nan,nan,nan,0,0,0,0,0,0,nan,nan,nan,nan,nan,nan,nan,nan,nan,nan,nan,nan,nan,nan,nan,nan,nan,nan
1,121,6,1,1,1,1,0.765101446,0,257.3206324,454.111461,454.8765624,nan,nan,0,3,5,6,7,1,nan,nan,nan,nan,nan,nan,0,0,0,0,0,0,nan,nan,nan,nan,nan,nan,nan,nan,nan,nan,nan,nan,nan,nan,nan,nan,nan,nan
1,122,6,1,1,1,1,0.69992941,1,257.3206324,455.1366182,455.8365476,456.9534887,464.1877167,6,2,0,1,5,3,1,1,1,1,1,1,0,1,1,1,0,0,4,3,2,1,6,5,3,2,0,1,4,8,5.296105461,4.472496692,3.064239769,2.128505482,7.199309324,6.175425892
1,123,6,1,1,nan,nan,nan,0,257.3206324,465.4212357,nan,nan,nan,0,4,5,7,8,2,nan,nan,nan,nan,nan,nan,0,0,0,0,0,0,nan,nan,nan,nan,nan,nan,nan,nan,nan,nan,nan,nan,nan,nan,nan,nan,nan,nan
1,124,6,1,1,nan,nan,nan,0,257.3206324,466.4463581,nan,nan,nan,4,6,7,2,1,5,nan,nan,nan,nan,nan,nan,0,0,0,0,0,0,nan,nan,nan,nan,nan,nan,nan,nan,nan,nan,nan,nan,nan,nan,nan,nan,nan,nan
1,125,6,1,1,1,1,0.69280284,0,257.3206324,467.4714906,468.1642934,nan,nan,3,5,8,6,7,4,nan,nan,nan,nan,nan,nan,0,0,0,0,0,0,nan,nan,nan,nan,nan,nan,nan,nan,nan,nan,nan,nan,nan,nan,nan,nan,nan,nan
1,126,6,1,1,nan,nan,nan,0,257.3206324,468.4966407,nan,nan,nan,2,3,4,1,0,8,nan,nan,nan,nan,nan,nan,0,0,0,0,0,0,nan,nan,nan,nan,nan,nan,nan,nan,nan,nan,nan,nan,nan,nan,nan,nan,nan,nan
1,127,6,1,1,nan,nan,nan,0,257.3206324,469.5217461,nan,nan,nan,5,4,7,2,8,6,nan,nan,nan,nan,nan,nan,0,0,0,0,0,0,nan,nan,nan,nan,nan,nan,nan,nan,nan,nan,nan,nan,nan,nan,nan,nan,nan,nan
1,128,6,1,1,nan,nan,nan,0,257.3206324,470.5468714,nan,nan,nan,8,6,5,3,4,1,nan,nan,nan,nan,nan,nan,0,0,0,0,0,0,nan,nan,nan,nan,nan,nan,nan,nan,nan,nan,nan,nan,nan,nan,nan,nan,nan,nan
1,129,6,1,1,nan,nan,nan,0,257.3206324,471.5720107,nan,nan,nan,7,4,0,1,6,2,nan,nan,nan,nan,nan,nan,0,0,0,0,0,0,nan,nan,nan,nan,nan,nan,nan,nan,nan,nan,nan,nan,nan,nan,nan,nan,nan,nan
1,130,6,1,1,1,1,0.711044487,0,257.3206324,472.5971306,473.308175,nan,nan,5,0,1,7,8,4,nan,nan,nan,nan,nan,nan,0,0,0,0,0,0,nan,nan,nan,nan,nan,nan,nan,nan,nan,nan,nan,nan,nan,nan,nan,nan,nan,nan
1,131,6,1,1,1,1,0.605899569,0,257.3206324,473.6222747,474.2281743,nan,nan,1,2,0,4,6,7,nan,nan,nan,nan,nan,nan,0,0,0,0,0,0,nan,nan,nan,nan,nan,nan,nan,nan,nan,nan,nan,nan,nan,nan,nan,nan,nan,nan
1,132,6,1,1,1,1,0.588786051,0,257.3206324,474.6473718,475.2361578,nan,nan,4,3,8,6,5,2,nan,nan,nan,nan,nan,nan,0,0,0,0,0,0,nan,nan,nan,nan,nan,nan,nan,nan,nan,nan,nan,nan,nan,nan,nan,nan,nan,nan
1,133,6,0,0,1,0,0.563624815,0,257.3206324,475.6725202,476.236145,nan,nan,7,8,3,5,6,1,nan,nan,nan,nan,nan,nan,0,0,0,0,0,0,nan,nan,nan,nan,nan,nan,nan,nan,nan,nan,nan,nan,nan,nan,nan,nan,nan,nan
1,134,6,1,1,nan,nan,nan,0,257.3206324,476.6976235,nan,nan,nan,8,6,5,3,4,0,nan,nan,nan,nan,nan,nan,0,0,0,0,0,0,nan,nan,nan,nan,nan,nan,nan,nan,nan,nan,nan,nan,nan,nan,nan,nan,nan,nan
1,135,6,0,0,0,1,0.625319237,0,257.3206324,477.7227828,478.348102,nan,nan,5,4,0,8,1,3,nan,nan,nan,nan,nan,nan,0,0,0,0,0,0,nan,nan,nan,nan,nan,nan,nan,nan,nan,nan,nan,nan,nan,nan,nan,nan,nan,nan
1,136,6,1,1,1,1,0.672212849,0,257.3206324,478.7478582,479.4200711,nan,nan,7,8,3,0,6,4,nan,nan,nan,nan,nan,nan,0,0,0,0,0,0,nan,nan,nan,nan,nan,nan,nan,nan,nan,nan,nan,nan,nan,nan,nan,nan,nan,nan
1,137,6,1,1,nan,nan,nan,0,257.3206324,479.7730431,nan,nan,nan,8,3,2,4,0,7,nan,nan,nan,nan,nan,nan,0,0,0,0,0,0,nan,nan,nan,nan,nan,nan,nan,nan,nan,nan,nan,nan,nan,nan,nan,nan,nan,nan
1,138,6,1,1,nan,nan,nan,0,257.3206324,480.7981345,nan,nan,nan,5,8,7,3,6,1,nan,nan,nan,nan,nan,nan,0,0,0,0,0,0,nan,nan,nan,nan,nan,nan,nan,nan,nan,nan,nan,nan,nan,nan,nan,nan,nan,nan
1,139,6,1,1,1,1,0.668722121,0,257.3206324,481.8232875,482.4920096,nan,nan,4,3,6,2,5,0,nan,nan,nan,nan,nan,nan,0,0,0,0,0,0,nan,nan,nan,nan,nan,nan,nan,nan,nan,nan,nan,nan,nan,nan,nan,nan,nan,nan
1,140,6,1,1,1,1,0.427575951,0,257.3206324,482.8484011,483.275977,nan,nan,3,6,5,8,1,2,nan,nan,nan,nan,nan,nan,0,0,0,0,0,0,nan,nan,nan,nan,nan,nan,nan,nan,nan,nan,nan,nan,nan,nan,nan,nan,nan,nan
1,141,6,1,1,1,1,0.418436882,0,257.3206324,483.8735364,484.2919733,nan,nan,4,5,0,6,2,8,nan,nan,nan,nan,nan,nan,0,0,0,0,0,0,nan,nan,nan,nan,nan,nan,nan,nan,nan,nan,nan,nan,nan,nan,nan,nan,nan,nan
1,142,6,1,1,1,1,0.313258037,1,257.3206324,484.8986891,485.2119471,486.7155319,498.6086815,8,1,6,0,7,5,1,1,1,1,1,1,0,0,1,1,0,0,4,3,2,1,6,5,5,7,6,0,1,8,7.300794166,4.581804596,3.740354456,2.750645317,11.86040367,8.604645428
1,143,6,1,1,nan,nan,nan,0,257.3206324,499.8422245,nan,nan,nan,6,3,1,5,2,4,nan,nan,nan,nan,nan,nan,0,0,0,0,0,0,nan,nan,nan,nan,nan,nan,nan,nan,nan,nan,nan,nan,nan,nan,nan,nan,nan,nan
1,144,6,1,1,nan,nan,nan,0,257.3206324,500.8673278,nan,nan,nan,4,1,3,7,8,2,nan,nan,nan,nan,nan,nan,0,0,0,0,0,0,nan,nan,nan,nan,nan,nan,nan,nan,nan,nan,nan,nan,nan,nan,nan,nan,nan,nan
1,145,6,1,1,nan,nan,nan,0,257.3206324,501.8924785,nan,nan,nan,3,5,8,0,7,4,nan,nan,nan,nan,nan,nan,0,0,0,0,0,0,nan,nan,nan,nan,nan,nan,nan,nan,nan,nan,nan,nan,nan,nan,nan,nan,nan,nan
1,146,6,1,1,nan,nan,nan,0,257.3206324,502.9176266,nan,nan,nan,7,4,6,3,1,2,nan,nan,nan,nan,nan,nan,0,0,0,0,0,0,nan,nan,nan,nan,nan,nan,nan,nan,nan,nan,nan,nan,nan,nan,nan,nan,nan,nan
1,147,6,1,1,nan,nan,nan,0,257.3206324,503.9427525,nan,nan,nan,3,2,1,8,6,5,nan,nan,nan,nan,nan,nan,0,0,0,0,0,0,nan,nan,nan,nan,nan,nan,nan,nan,nan,nan,nan,nan,nan,nan,nan,nan,nan,nan
1,148,6,1,1,nan,nan,nan,0,257.3206324,504.9679123,nan,nan,nan,0,4,7,6,2,3,nan,nan,nan,nan,nan,nan,0,0,0,0,0,0,nan,nan,nan,nan,nan,nan,nan,nan,nan,nan,nan,nan,nan,nan,nan,nan,nan,nan
1,149,6,0,0,1,0,0.226564313,0,257.3206324,505.9929678,506.2195321,nan,nan,4,3,1,7,0,6,nan,nan,nan,nan,nan,nan,0,0,0,0,0,0,nan,nan,nan,nan,nan,nan,nan,nan,nan,nan,nan,nan,nan,nan,nan,nan,nan,nan
1,150,6,1,1,1,1,0.729372519,0,257.3206324,507.018094,507.7474665,nan,nan,2,4,0,6,1,3,nan,nan,nan,nan,nan,nan,0,0,0,0,0,0,nan,nan,nan,nan,nan,nan,nan,nan,nan,nan,nan,nan,nan,nan,nan,nan,nan,nan
1,151,6,1,1,nan,nan,nan,0,257.3206324,508.0432378,nan,nan,nan,8,1,2,5,3,4,nan,nan,nan,nan,nan,nan,0,0,0,0,0,0,nan,nan,nan,nan,nan,nan,nan,nan,nan,nan,nan,nan,nan,nan,nan,nan,nan,nan
1,152,6,1,1,1,1,0.231115317,0,257.3206324,509.068342,509.2994573,nan,nan,4,5,7,1,2,0,nan,nan,nan,nan,nan,nan,0,0,0,0,0,0,nan,nan,nan,nan,nan,nan,nan,nan,nan,nan,nan,nan,nan,nan,nan,nan,nan,nan
1,153,6,1,1,1,1,0.677930184,0,257.3206324,510.0934961,510.7714263,nan,nan,2,1,8,7,5,6,nan,nan,nan,nan,nan,nan,0,0,0,0,0,0,nan,nan,nan,nan,nan,nan,nan,nan,nan,nan,nan,nan,nan,nan,nan,nan,nan,nan
1,154,6,1,1,nan,nan,nan,0,257.3206324,511.1186243,nan,nan,nan,3,0,7,5,8,2,nan,nan,nan,nan,nan,nan,0,0,0,0,0,0,nan,nan,nan,nan,nan,nan,nan,nan,nan,nan,nan,nan,nan,nan,nan,nan,nan,nan
1,155,6,1,1,1,1,0.043644931,1,257.3206324,512.1437439,512.1873888,513.9689643,522.2699743,8,7,4,2,5,1,1,1,1,1,1,1,1,1,1,0,0,1,4,2,1,3,6,5,8,7,4,3,6,1,5.831100834,3.440880288,2.481855286,4.735481007,8.270445874,7.086846251
1,156,6,1,1,nan,nan,nan,0,257.3206324,523.5035004,nan,nan,nan,5,6,0,1,3,2,nan,nan,nan,nan,nan,nan,0,0,0,0,0,0,nan,nan,nan,nan,nan,nan,nan,nan,nan,nan,nan,nan,nan,nan,nan,nan,nan,nan
1,157,6,1,1,nan,nan,nan,0,257.3206324,524.5286403,nan,nan,nan,3,7,4,6,2,0,nan,nan,nan,nan,nan,nan,0,0,0,0,0,0,nan,nan,nan,nan,nan,nan,nan,nan,nan,nan,nan,nan,nan,nan,nan,nan,nan,nan
1,158,6,1,1,1,1,0.089399865,1,257.3206324,525.5537639,525.6431637,527.3706235,535.1632711,5,4,2,7,1,6,1,1,1,1,1,1,0,1,0,0,0,0,6,1,2,3,4,5,6,4,5,8,2,3,7.764663537,2.533222069,3.270983568,4.158605739,5.285152604,6.58117111
1,159,6,1,1,nan,nan,nan,0,257.3206324,536.3968277,nan,nan,nan,6,1,3,0,4,7,nan,nan,nan,nan,nan,nan,0,0,0,0,0,0,nan,nan,nan,nan,nan,nan,nan,nan,nan,nan,nan,nan,nan,nan,nan,nan,nan,nan
1,160,6,0,0,nan,nan,nan,0,257.3206324,537.4219145,nan,nan,nan,8,7,6,2,0,5,nan,nan,nan,nan,nan,nan,0,0,0,0,0,0,nan,nan,nan,nan,nan,nan,nan,nan,nan,nan,nan,nan,nan,nan,nan,nan,nan,nan
1,161,6,1,1,1,1,0.691754824,0,257.3206324,538.4470512,539.138806,nan,nan,2,5,1,0,3,4,nan,nan,nan,nan,nan,nan,0,0,0,0,0,0,nan,nan,nan,nan,nan,nan,nan,nan,nan,nan,nan,nan,nan,nan,nan,nan,nan,nan
1,162,6,1,1,1,1,0.762611694,0,257.3206324,539.4722099,540.2348216,nan,nan,3,4,0,1,6,8,nan,nan,nan,nan,nan,nan,0,0,0,0,0,0,nan,nan,nan,nan,nan,nan,nan,nan,nan,nan,nan,nan,nan,nan,nan,nan,nan,nan
1,163,6,1,1,1,1,0.665447497,0,257.3206324,540.4973514,541.1627989,nan,nan,7,5,2,4,3,1,nan,nan,nan,nan,nan,nan,0,0,0,0,0,0,nan,nan,nan,nan,nan,nan,nan,nan,nan,nan,nan,nan,nan,nan,nan,nan,nan,nan
1,164,6,1,1,1,1,0.728351871,0,257.3206324,541.5224343,542.2507862,nan,nan,3,6,1,5,4,0,nan,nan,nan,nan,nan,nan,0,0,0,0,0,0,nan,nan,nan,nan,nan,nan,nan,nan,nan,nan,nan,nan,nan,nan,nan,nan,nan,nan
1,165,6,1,1,1,1,0.799198763,0,257.3206324,542.5475619,543.3467606,nan,nan,6,2,4,1,0,7,nan,nan,nan,nan,nan,nan,0,0,0,0,0,0,nan,nan,nan,nan,nan,nan,nan,nan,nan,nan,nan,nan,nan,nan,nan,nan,nan,nan
1,166,6,1,1,1,1,0.589710621,0,257.3206324,543.5810294,544.17074,nan,nan,5,6,8,4,2,1,nan,nan,nan,nan,nan,nan,0,0,0,0,0,0,nan,nan,nan,nan,nan,nan,nan,nan,nan,nan,nan,nan,nan,nan,nan,nan,nan,nan
1,167,6,1,1,1,1,0.636557477,0,257.3206324,544.6061564,545.2427139,nan,nan,8,2,6,5,7,3,nan,nan,nan,nan,nan,nan,0,0,0,0,0,0,nan,nan,nan,nan,nan,nan,nan,nan,nan,nan,nan,nan,nan,nan,nan,nan,nan,nan
1,168,6,1,1,1,1,0.763413387,0,257.3206324,545.6312818,546.3946951,nan,nan,5,1,7,0,3,8,nan,nan,nan,nan,nan,nan,0,0,0,0,0,0,nan,nan,nan,nan,nan,nan,nan,nan,nan,nan,nan,nan,nan,nan,nan,nan,nan,nan
1,169,6,0,0,0,1,0.762243348,0,257.3206324,546.6564242,547.4186675,nan,nan,0,6,3,7,2,4,nan,nan,nan,nan,nan,nan,0,0,0,0,0,0,nan,nan,nan,nan,nan,nan,nan,nan,nan,nan,nan,nan,nan,nan,nan,nan,nan,nan
1,170,6,1,1,1,1,0.537070594,0,257.3206324,547.6815988,548.2186694,nan,nan,1,3,7,5,6,0,nan,nan,nan,nan,nan,nan,0,0,0,0,0,0,nan,nan,nan,nan,nan,nan,nan,nan,nan,nan,nan,nan,nan,nan,nan,nan,nan,nan
1,171,6,1,1,1,1,0.775950528,0,257.3206324,548.7067005,549.482651,nan,nan,3,5,2,8,1,4,nan,nan,nan,nan,nan,nan,0,0,0,0,0,0,nan,nan,nan,nan,nan,nan,nan,nan,nan,nan,nan,nan,nan,nan,nan,nan,nan,nan
1,172,6,1,1,1,1,0.646827526,0,257.3206324,549.7317944,550.3786219,nan,nan,8,4,3,2,5,0,nan,nan,nan,nan,nan,nan,0,0,0,0,0,0,nan,nan,nan,nan,nan,nan,nan,nan,nan,nan,nan,nan,nan,nan,nan,nan,nan,nan
1,173,6,1,1,1,1,0.533697326,0,257.3206324,550.7569212,551.2906185,nan,nan,2,7,4,6,1,5,nan,nan,nan,nan,nan,nan,0,0,0,0,0,0,nan,nan,nan,nan,nan,nan,nan,nan,nan,nan,nan,nan,nan,nan,nan,nan,nan,nan
1,174,6,1,1,1,1,0.620500813,0,257.3206324,551.7820824,552.4025832,nan,nan,0,3,2,7,4,8,nan,nan,nan,nan,nan,nan,0,0,0,0,0,0,nan,nan,nan,nan,nan,nan,nan,nan,nan,nan,nan,nan,nan,nan,nan,nan,nan,nan
1,175,6,1,1,1,1,0.635344103,0,257.3206324,552.807196,553.4425401,nan,nan,1,8,7,0,2,6,nan,nan,nan,nan,nan,nan,0,0,0,0,0,0,nan,nan,nan,nan,nan,nan,nan,nan,nan,nan,nan,nan,nan,nan,nan,nan,nan,nan
1,176,6,1,1,1,1,0.71419823,0,257.3206324,553.832335,554.5465332,nan,nan,3,5,2,6,0,4,nan,nan,nan,nan,nan,nan,0,0,0,0,0,0,nan,nan,nan,nan,nan,nan,nan,nan,nan,nan,nan,nan,nan,nan,nan,nan,nan,nan
1,177,6,1,1,1,1,0.593026869,0,257.3206324,554.8574683,555.4504952,nan,nan,7,6,5,0,8,1,nan,nan,nan,nan,nan,nan,0,0,0,0,0,0,nan,nan,nan,nan,nan,nan,nan,nan,nan,nan,nan,nan,nan,nan,nan,nan,nan,nan
1,178,6,1,1,1,1,0.48793612,0,257.3206324,555.8825551,556.3704913,nan,nan,4,2,0,5,7,6,nan,nan,nan,nan,nan,nan,0,0,0,0,0,0,nan,nan,nan,nan,nan,nan,nan,nan,nan,nan,nan,nan,nan,nan,nan,nan,nan,nan
1,179,6,1,1,1,1,0.422739851,0,257.3206324,556.9076959,557.3304357,nan,nan,3,5,2,8,1,7,nan,nan,nan,nan,nan,nan,0,0,0,0,0,0,nan,nan,nan,nan,nan,nan,nan,nan,nan,nan,nan,nan,nan,nan,nan,nan,nan,nan
1,180,6,1,1,1,1,0.285632422,1,257.3206324,557.9327989,558.2184314,559.7497039,571.2428089,1,7,3,2,6,5,1,1,1,1,1,1,0,1,1,1,0,0,4,3,2,1,6,5,4,7,3,2,0,2,7.681247573,4.690902384,3.514519706,2.522683459,11.46478339,8.969570741
1,181,6,1,1,nan,nan,nan,0,257.3206324,572.4763407,nan,nan,nan,5,6,4,0,1,3,nan,nan,nan,nan,nan,nan,0,0,0,0,0,0,nan,nan,nan,nan,nan,nan,nan,nan,nan,nan,nan,nan,nan,nan,nan,nan,nan,nan
1,182,6,1,1,1,1,0.012725305,0,257.3206324,573.5014129,573.5141382,nan,nan,6,1,8,2,7,5,nan,nan,nan,nan,nan,nan,0,0,0,0,0,0,nan,nan,nan,nan,nan,nan,nan,nan,nan,nan,nan,nan,nan,nan,nan,nan,nan,nan
1,183,6,1,1,1,1,0.403570213,1,257.3206324,574.5265326,574.9301028,576.3434829,584.8778114,8,7,0,5,1,3,1,1,1,1,1,1,1,0,1,1,0,0,4,3,2,1,6,5,8,6,0,5,7,1,6.214592804,4.663947316,3.734872895,2.793553842,8.50289402,7.079487612
1,184,6,0,0,0,1,0.698542983,0,257.3206324,586.111356,586.809899,nan,nan,4,8,7,6,0,5,nan,nan,nan,nan,nan,nan,0,0,0,0,0,0,nan,nan,nan,nan,nan,nan,nan,nan,nan,nan,nan,nan,nan,nan,nan,nan,nan,nan
1,185,6,1,1,nan,nan,nan,0,257.3206324,587.1364637,nan,nan,nan,3,1,4,8,2,0,nan,nan,nan,nan,nan,nan,0,0,0,0,0,0,nan,nan,nan,nan,nan,nan,nan,nan,nan,nan,nan,nan,nan,nan,nan,nan,nan,nan
1,186,6,1,1,nan,nan,nan,0,257.3206324,588.1615491,nan,nan,nan,2,8,6,7,1,5,nan,nan,nan,nan,nan,nan,0,0,0,0,0,0,nan,nan,nan,nan,nan,nan,nan,nan,nan,nan,nan,nan,nan,nan,nan,nan,nan,nan
1,187,6,1,1,nan,nan,nan,0,257.3206324,589.1867169,nan,nan,nan,6,0,1,4,8,7,nan,nan,nan,nan,nan,nan,0,0,0,0,0,0,nan,nan,nan,nan,nan,nan,nan,nan,nan,nan,nan,nan,nan,nan,nan,nan,nan,nan
1,188,6,0,0,0,1,0.701873201,0,257.3206324,590.2118468,590.91372,nan,nan,5,1,7,3,6,0,nan,nan,nan,nan,nan,nan,0,0,0,0,0,0,nan,nan,nan,nan,nan,nan,nan,nan,nan,nan,nan,nan,nan,nan,nan,nan,nan,nan
1,189,6,1,1,1,1,0.492736298,0,257.3206324,591.2370091,591.7297454,nan,nan,1,0,8,2,7,5,nan,nan,nan,nan,nan,nan,0,0,0,0,0,0,nan,nan,nan,nan,nan,nan,nan,nan,nan,nan,nan,nan,nan,nan,nan,nan,nan,nan
1,190,6,1,1,1,1,0.611614339,0,257.3206324,592.2621139,592.8737283,nan,nan,4,6,5,0,1,8,nan,nan,nan,nan,nan,nan,0,0,0,0,0,0,nan,nan,nan,nan,nan,nan,nan,nan,nan,nan,nan,nan,nan,nan,nan,nan,nan,nan
1,191,6,1,1,1,1,0.690459057,0,257.3206324,593.2872461,593.9777051,nan,nan,1,3,6,7,5,2,nan,nan,nan,nan,nan,nan,0,0,0,0,0,0,nan,nan,nan,nan,nan,nan,nan,nan,nan,nan,nan,nan,nan,nan,nan,nan,nan,nan
1,192,6,1,1,0,0,0.601301525,0,257.3206324,594.3123794,594.9136809,nan,nan,4,1,7,2,8,0,nan,nan,nan,nan,nan,nan,0,0,0,0,0,0,nan,nan,nan,nan,nan,nan,nan,nan,nan,nan,nan,nan,nan,nan,nan,nan,nan,nan
1,193,6,1,1,1,1,0.640163098,0,257.3206324,595.3375058,595.9776689,nan,nan,1,2,3,0,4,6,nan,nan,nan,nan,nan,nan,0,0,0,0,0,0,nan,nan,nan,nan,nan,nan,nan,nan,nan,nan,nan,nan,nan,nan,nan,nan,nan,nan
1,194,6,1,1,1,1,0.478994622,0,257.3206324,596.362642,596.8416366,nan,nan,2,1,7,6,5,4,nan,nan,nan,nan,nan,nan,0,0,0,0,0,0,nan,nan,nan,nan,nan,nan,nan,nan,nan,nan,nan,nan,nan,nan,nan,nan,nan,nan
1,195,6,1,1,1,1,0.517872731,0,257.3206324,597.3877781,597.9056509,nan,nan,4,0,8,7,3,5,nan,nan,nan,nan,nan,nan,0,0,0,0,0,0,nan,nan,nan,nan,nan,nan,nan,nan,nan,nan,nan,nan,nan,nan,nan,nan,nan,nan
1,196,6,1,1,1,1,0.460395179,0,257.3206324,598.4212288,598.881624,nan,nan,7,3,2,8,0,6,nan,nan,nan,nan,nan,nan,0,0,0,0,0,0,nan,nan,nan,nan,nan,nan,nan,nan,nan,nan,nan,nan,nan,nan,nan,nan,nan,nan
1,197,6,1,1,1,1,0.499211136,0,257.3206324,599.4463533,599.9455644,nan,nan,4,8,5,0,6,3,nan,nan,nan,nan,nan,nan,0,0,0,0,0,0,nan,nan,nan,nan,nan,nan,nan,nan,nan,nan,nan,nan,nan,nan,nan,nan,nan,nan
1,198,6,1,1,1,1,0.466078588,0,257.3206324,600.4714849,600.9375635,nan,nan,5,6,7,4,8,2,nan,nan,nan,nan,nan,nan,0,0,0,0,0,0,nan,nan,nan,nan,nan,nan,nan,nan,nan,nan,nan,nan,nan,nan,nan,nan,nan,nan
1,199,6,1,1,1,1,0.536892408,0,257.3206324,601.4966387,602.0335311,nan,nan,6,7,1,5,4,8,nan,nan,nan,nan,nan,nan,0,0,0,0,0,0,nan,nan,nan,nan,nan,nan,nan,nan,nan,nan,nan,nan,nan,nan,nan,nan,nan,nan
1,200,6,1,1,1,1,0.463799807,0,257.3206324,602.5217441,602.9855439,nan,nan,1,2,5,3,8,7,nan,nan,nan,nan,nan,nan,0,0,0,0,0,0,nan,nan,nan,nan,nan,nan,nan,nan,nan,nan,nan,nan,nan,nan,nan,nan,nan,nan
1,201,6,1,1,1,1,0.350650221,0,257.3206324,603.5468699,603.8975202,nan,nan,7,3,4,2,6,8,nan,nan,nan,nan,nan,nan,0,0,0,0,0,0,nan,nan,nan,nan,nan,nan,nan,nan,nan,nan,nan,nan,nan,nan,nan,nan,nan,nan
1,202,6,1,1,1,1,0.485535033,0,257.3206324,604.5719645,605.0574995,nan,nan,1,2,6,3,8,0,nan,nan,nan,nan,nan,nan,0,0,0,0,0,0,nan,nan,nan,nan,nan,nan,nan,nan,nan,nan,nan,nan,nan,nan,nan,nan,nan,nan
1,203,6,1,1,1,1,0.49232975,0,257.3206324,605.5971229,606.0894526,nan,nan,3,1,8,6,7,5,nan,nan,nan,nan,nan,nan,0,0,0,0,0,0,nan,nan,nan,nan,nan,nan,nan,nan,nan,nan,nan,nan,nan,nan,nan,nan,nan,nan
1,204,6,1,1,1,1,0.483228028,0,257.3206324,606.622204,607.105432,nan,nan,0,4,2,7,3,6,nan,nan,nan,nan,nan,nan,0,0,0,0,0,0,nan,nan,nan,nan,nan,nan,nan,nan,nan,nan,nan,nan,nan,nan,nan,nan,nan,nan
1,205,6,1,1,1,1,0.426039563,0,257.3206324,607.6473729,608.0734125,nan,nan,3,5,0,4,8,1,nan,nan,nan,nan,nan,nan,0,0,0,0,0,0,nan,nan,nan,nan,nan,nan,nan,nan,nan,nan,nan,nan,nan,nan,nan,nan,nan,nan
1,206,6,0,0,0,1,0.512895223,0,257.3206324,608.6725173,609.1854126,nan,nan,8,6,3,1,7,0,nan,nan,nan,nan,nan,nan,0,0,0,0,0,0,nan,nan,nan,nan,nan,nan,nan,nan,nan,nan,nan,nan,nan,nan,nan,nan,nan,nan
1,207,6,1,1,1,1,0.519714173,0,257.3206324,609.6976606,610.2173748,nan,nan,1,5,0,8,3,7,nan,nan,nan,nan,nan,nan,0,0,0,0,0,0,nan,nan,nan,nan,nan,nan,nan,nan,nan,nan,nan,nan,nan,nan,nan,nan,nan,nan
1,208,6,1,1,1,1,0.654562208,0,257.3206324,610.7227611,611.3773233,nan,nan,0,7,4,5,6,3,nan,nan,nan,nan,nan,nan,0,0,0,0,0,0,nan,nan,nan,nan,nan,nan,nan,nan,nan,nan,nan,nan,nan,nan,nan,nan,nan,nan
1,209,6,1,1,nan,nan,nan,0,257.3206324,611.7478861,nan,nan,nan,7,3,0,2,8,4,nan,nan,nan,nan,nan,nan,0,0,0,0,0,0,nan,nan,nan,nan,nan,nan,nan,nan,nan,nan,nan,nan,nan,nan,nan,nan,nan,nan
1,210,6,1,1,1,1,0.580294722,0,257.3206324,612.7730038,613.3532985,nan,nan,1,8,3,7,0,5,nan,nan,nan,nan,nan,nan,0,0,0,0,0,0,nan,nan,nan,nan,nan,nan,nan,nan,nan,nan,nan,nan,nan,nan,nan,nan,nan,nan
1,211,6,1,1,1,1,0.587144178,0,257.3206324,613.7981539,614.3852981,nan,nan,0,4,2,1,8,6,nan,nan,nan,nan,nan,nan,0,0,0,0,0,0,nan,nan,nan,nan,nan,nan,nan,nan,nan,nan,nan,nan,nan,nan,nan,nan,nan,nan
1,212,6,1,1,1,1,0.513965477,0,257.3206324,614.8232789,615.3372444,nan,nan,6,2,0,5,3,1,nan,nan,nan,nan,nan,nan,0,0,0,0,0,0,nan,nan,nan,nan,nan,nan,nan,nan,nan,nan,nan,nan,nan,nan,nan,nan,nan,nan
1,213,6,1,1,1,1,0.528856664,0,257.3206324,615.8483843,616.3772409,nan,nan,0,8,1,7,6,4,nan,nan,nan,nan,nan,nan,0,0,0,0,0,0,nan,nan,nan,nan,nan,nan,nan,nan,nan,nan,nan,nan,nan,nan,nan,nan,nan,nan
1,214,6,1,1,nan,nan,nan,0,257.3206324,616.873527,nan,nan,nan,1,7,5,3,0,2,nan,nan,nan,nan,nan,nan,0,0,0,0,0,0,nan,nan,nan,nan,nan,nan,nan,nan,nan,nan,nan,nan,nan,nan,nan,nan,nan,nan
1,215,6,1,1,nan,nan,nan,0,257.3206324,617.8986529,nan,nan,nan,6,8,3,7,5,4,nan,nan,nan,nan,nan,nan,0,0,0,0,0,0,nan,nan,nan,nan,nan,nan,nan,nan,nan,nan,nan,nan,nan,nan,nan,nan,nan,nan
1,216,6,1,1,nan,nan,nan,0,257.3206324,618.9237594,nan,nan,nan,0,2,4,1,7,6,nan,nan,nan,nan,nan,nan,0,0,0,0,0,0,nan,nan,nan,nan,nan,nan,nan,nan,nan,nan,nan,nan,nan,nan,nan,nan,nan,nan
1,217,6,1,1,nan,nan,nan,0,257.3206324,619.9489098,nan,nan,nan,4,3,7,2,8,1,nan,nan,nan,nan,nan,nan,0,0,0,0,0,0,nan,nan,nan,nan,nan,nan,nan,nan,nan,nan,nan,nan,nan,nan,nan,nan,nan,nan
1,218,6,1,1,nan,nan,nan,0,257.3206324,620.9739972,nan,nan,nan,3,7,8,1,4,0,nan,nan,nan,nan,nan,nan,0,0,0,0,0,0,nan,nan,nan,nan,nan,nan,nan,nan,nan,nan,nan,nan,nan,nan,nan,nan,nan,nan
1,219,6,1,1,nan,nan,nan,0,257.3206324,621.9991464,nan,nan,nan,0,2,6,8,3,5,nan,nan,nan,nan,nan,nan,0,0,0,0,0,0,nan,nan,nan,nan,nan,nan,nan,nan,nan,nan,nan,nan,nan,nan,nan,nan,nan,nan
1,220,6,1,1,1,1,0.79276783,1,257.3206324,623.0243059,623.8170738,624.8411861,635.1174508,3,6,8,7,0,4,1,1,1,1,1,1,0,1,1,0,0,1,4,3,2,1,6,5,7,6,8,2,1,4,8.036109817,5.427821705,4.477448541,3.57538079,10.24383321,9.148101625
1,221,6,1,1,nan,nan,nan,0,257.3206324,636.3509946,nan,nan,nan,6,2,1,4,8,7,nan,nan,nan,nan,nan,nan,0,0,0,0,0,0,nan,nan,nan,nan,nan,nan,nan,nan,nan,nan,nan,nan,nan,nan,nan,nan,nan,nan
1,222,6,1,1,1,1,0.144659648,0,257.3206324,637.3761456,637.5208052,nan,nan,8,6,4,5,1,0,nan,nan,nan,nan,nan,nan,0,0,0,0,0,0,nan,nan,nan,nan,nan,nan,nan,nan,nan,nan,nan,nan,nan,nan,nan,nan,nan,nan
1,223,6,1,1,1,1,0.59955331,1,257.3206324,638.4012484,639.0008017,640.2264412,653.1280422,4,8,0,3,2,7,1,1,1,1,1,1,0,0,1,0,0,0,4,3,2,1,6,5,8,2,0,7,8,2,9.275574485,5.755410143,4.339236932,2.844952842,12.87444727,10.28234782
1,224,6,1,1,nan,nan,nan,0,257.3206324,654.361594,nan,nan,nan,8,7,5,6,4,3,nan,nan,nan,nan,nan,nan,0,0,0,0,0,0,nan,nan,nan,nan,nan,nan,nan,nan,nan,nan,nan,nan,nan,nan,nan,nan,nan,nan
1,225,6,1,1,nan,nan,nan,0,257.3206324,655.3866771,nan,nan,nan,4,1,2,0,6,7,nan,nan,nan,nan,nan,nan,0,0,0,0,0,0,nan,nan,nan,nan,nan,nan,nan,nan,nan,nan,nan,nan,nan,nan,nan,nan,nan,nan
1,226,6,0,0,1,0,0.196621144,0,257.3206324,656.411832,656.6084532,nan,nan,6,5,3,7,4,0,nan,nan,nan,nan,nan,nan,0,0,0,0,0,0,nan,nan,nan,nan,nan,nan,nan,nan,nan,nan,nan,nan,nan,nan,nan,nan,nan,nan
1,227,6,1,1,1,1,0.419466082,1,257.3206324,657.4369183,657.8563844,659.2621285,668.646683,0,6,8,4,2,1,1,1,1,1,1,1,0,1,1,0,0,0,3,2,1,6,5,4,5,6,8,5,5,5,6.399727675,3.366419791,2.447363679,9.350091716,8.318833679,7.350327776
1,228,6,1,1,nan,nan,nan,0,257.3206324,669.8801509,nan,nan,nan,3,2,5,1,4,7,nan,nan,nan,nan,nan,nan,0,0,0,0,0,0,nan,nan,nan,nan,nan,nan,nan,nan,nan,nan,nan,nan,nan,nan,nan,nan,nan,nan
1,229,6,1,1,1,1,0.790811494,0,257.3206324,670.9053013,671.6961128,nan,nan,5,6,1,3,8,4,nan,nan,nan,nan,nan,nan,0,0,0,0,0,0,nan,nan,nan,nan,nan,nan,nan,nan,nan,nan,nan,nan,nan,nan,nan,nan,nan,nan
1,230,6,1,1,1,1,0.373618206,0,257.3206324,671.9304839,672.3041021,nan,nan,3,1,7,4,6,5,nan,nan,nan,nan,nan,nan,0,0,0,0,0,0,nan,nan,nan,nan,nan,nan,nan,nan,nan,nan,nan,nan,nan,nan,nan,nan,nan,nan
1,231,6,1,1,1,1,0.436528567,0,257.3206324,672.9555465,673.3920751,nan,nan,6,2,1,3,4,0,nan,nan,nan,nan,nan,nan,0,0,0,0,0,0,nan,nan,nan,nan,nan,nan,nan,nan,nan,nan,nan,nan,nan,nan,nan,nan,nan,nan
1,232,6,1,1,1,1,0.347384434,1,257.3206324,673.9806855,674.32807,675.7975694,683.4651546,4,7,8,0,6,1,1,1,1,1,1,1,0,0,1,0,0,0,6,3,2,1,4,5,3,5,8,6,7,0,7.638857069,4.248667884,3.424356921,2.584266408,5.16636893,6.446992768
1,233,6,1,1,1,1,0.789143677,0,257.3206324,684.6986909,685.4878346,nan,nan,1,8,4,6,5,3,nan,nan,nan,nan,nan,nan,0,0,0,0,0,0,nan,nan,nan,nan,nan,nan,nan,nan,nan,nan,nan,nan,nan,nan,nan,nan,nan,nan
1,234,6,1,1,nan,nan,nan,0,257.3206324,685.7238388,nan,nan,nan,8,3,7,4,1,6,nan,nan,nan,nan,nan,nan,0,0,0,0,0,0,nan,nan,nan,nan,nan,nan,nan,nan,nan,nan,nan,nan,nan,nan,nan,nan,nan,nan
1,235,6,1,1,nan,nan,nan,0,257.3206324,686.7489171,nan,nan,nan,2,1,6,7,3,0,nan,nan,nan,nan,nan,nan,0,0,0,0,0,0,nan,nan,nan,nan,nan,nan,nan,nan,nan,nan,nan,nan,nan,nan,nan,nan,nan,nan
1,236,6,1,1,1,1,0.001704595,1,257.3206324,687.7740777,687.7757823,689.5909653,701.1590576,8,3,0,6,5,4,1,1,1,1,1,1,0,1,1,1,0,0,4,3,2,1,6,5,7,3,0,6,8,1,8.574229283,4.782689651,3.700832312,2.559653413,11.54060409,9.66110661
1,237,6,1,1,nan,nan,nan,0,257.3206324,702.3925811,nan,nan,nan,1,4,5,0,7,8,nan,nan,nan,nan,nan,nan,0,0,0,0,0,0,nan,nan,nan,nan,nan,nan,nan,nan,nan,nan,nan,nan,nan,nan,nan,nan,nan,nan
1,238,6,1,1,1,1,0.029731056,0,257.3206324,703.4177333,703.4474643,nan,nan,6,1,7,2,3,0,nan,nan,nan,nan,nan,nan,0,0,0,0,0,0,nan,nan,nan,nan,nan,nan,nan,nan,nan,nan,nan,nan,nan,nan,nan,nan,nan,nan
1,239,6,1,1,1,1,0.396575643,1,257.3206324,704.4428284,704.839404,706.2597422,723.6368722,1,8,5,3,4,6,1,1,1,1,1,1,0,0,1,1,0,0,6,3,2,1,5,4,2,6,5,3,1,7,17.34368273,4.760226572,3.904747379,2.832210717,11.68822532,7.777144799
1,240,6,1,1,1,1,0.560593093,0,257.3206324,724.8704203,725.4310134,nan,nan,5,6,2,1,3,4,nan,nan,nan,nan,nan,nan,0,0,0,0,0,0,nan,nan,nan,nan,nan,nan,nan,nan,nan,nan,nan,nan,nan,nan,nan,nan,nan,nan
1,241,6,1,1,1,1,0.751486068,0,257.3206324,725.8955214,726.6470074,nan,nan,7,4,3,2,6,8,nan,nan,nan,nan,nan,nan,0,0,0,0,0,0,nan,nan,nan,nan,nan,nan,nan,nan,nan,nan,nan,nan,nan,nan,nan,nan,nan,nan
1,242,6,1,1,1,1,0.678390901,0,257.3206324,726.9206222,727.5990131,nan,nan,4,5,2,3,8,7,nan,nan,nan,nan,nan,nan,0,0,0,0,0,0,nan,nan,nan,nan,nan,nan,nan,nan,nan,nan,nan,nan,nan,nan,nan,nan,nan,nan
1,243,6,1,1,1,1,0.74922753,0,257.3206324,727.9457483,728.6949758,nan,nan,7,4,6,0,2,3,nan,nan,nan,nan,nan,nan,0,0,0,0,0,0,nan,nan,nan,nan,nan,nan,nan,nan,nan,nan,nan,nan,nan,nan,nan,nan,nan,nan
1,244,6,1,1,1,1,0.564072132,0,257.3206324,728.9708736,729.5349458,nan,nan,1,2,3,6,5,8,nan,nan,nan,nan,nan,nan,0,0,0,0,0,0,nan,nan,nan,nan,nan,nan,nan,nan,nan,nan,nan,nan,nan,nan,nan,nan,nan,nan
1,245,6,1,1,1,1,0.474889511,0,257.3206324,729.9960081,730.4708976,nan,nan,3,6,8,5,4,2,nan,nan,nan,nan,nan,nan,0,0,0,0,0,0,nan,nan,nan,nan,nan,nan,nan,nan,nan,nan,nan,nan,nan,nan,nan,nan,nan,nan
1,246,6,1,1,1,1,0.553709426,0,257.3206324,731.021173,731.5748824,nan,nan,7,4,2,8,1,3,nan,nan,nan,nan,nan,nan,0,0,0,0,0,0,nan,nan,nan,nan,nan,nan,nan,nan,nan,nan,nan,nan,nan,nan,nan,nan,nan,nan
1,247,6,0,0,1,0,0.42460467,0,257.3206324,732.0462627,732.4708674,nan,nan,2,3,1,0,4,5,nan,nan,nan,nan,nan,nan,0,0,0,0,0,0,nan,nan,nan,nan,nan,nan,nan,nan,nan,nan,nan,nan,nan,nan,nan,nan,nan,nan
1,248,6,1,1,nan,nan,nan,0,257.3206324,733.0714179,nan,nan,nan,8,7,6,4,2,1,nan,nan,nan,nan,nan,nan,0,0,0,0,0,0,nan,nan,nan,nan,nan,nan,nan,nan,nan,nan,nan,nan,nan,nan,nan,nan,nan,nan
1,249,6,1,1,1,1,0.014304457,1,257.3206324,734.0965338,734.1108383,735.9133995,745.4812988,1,5,3,8,0,4,1,1,1,1,1,1,0,0,1,1,0,0,4,3,2,1,6,5,0,1,3,8,4,8,7.842897007,6.819575502,4.882114382,3.402520771,9.537541289,8.673896061
1,250,6,1,1,nan,nan,nan,0,257.3206324,746.7147941,nan,nan,nan,4,3,2,1,8,7,nan,nan,nan,nan,nan,nan,0,0,0,0,0,0,nan,nan,nan,nan,nan,nan,nan,nan,nan,nan,nan,nan,nan,nan,nan,nan,nan,nan
1,251,6,1,1,1,1,0.114595599,0,257.3206324,747.7399391,747.8545347,nan,nan,2,5,6,0,7,3,nan,nan,nan,nan,nan,nan,0,0,0,0,0,0,nan,nan,nan,nan,nan,nan,nan,nan,nan,nan,nan,nan,nan,nan,nan,nan,nan,nan
1,252,6,0,0,1,0,0.329423608,0,257.3206324,748.7650732,749.0944968,nan,nan,0,7,5,6,3,2,nan,nan,nan,nan,nan,nan,0,0,0,0,0,0,nan,nan,nan,nan,nan,nan,nan,nan,nan,nan,nan,nan,nan,nan,nan,nan,nan,nan
1,253,6,1,1,1,1,0.568274177,1,257.3206324,749.7902168,750.358491,751.6070747,760.291441,8,2,6,4,0,7,1,1,1,1,1,1,0,1,1,0,0,0,4,3,2,1,6,5,3,2,6,0,8,5,6.684741437,4.004825552,3.11699697,2.421826115,8.651830693,7.547971278
1,254,6,1,1,nan,nan,nan,0,257.3206324,761.5250127,nan,nan,nan,1,3,8,6,7,5,nan,nan,nan,nan,nan,nan,0,0,0,0,0,0,nan,nan,nan,nan,nan,nan,nan,nan,nan,nan,nan,nan,nan,nan,nan,nan,nan,nan
1,255,6,1,1,1,1,0.464103721,0,257.3206324,762.5501018,763.0142055,nan,nan,5,0,1,4,8,3,nan,nan,nan,nan,nan,nan,0,0,0,0,0,0,nan,nan,nan,nan,nan,nan,nan,nan,nan,nan,nan,nan,nan,nan,nan,nan,nan,nan
1,256,6,1,1,1,1,0.383009872,0,257.3206324,763.5752317,763.9582416,nan,nan,7,6,4,8,2,1,nan,nan,nan,nan,nan,nan,0,0,0,0,0,0,nan,nan,nan,nan,nan,nan,nan,nan,nan,nan,nan,nan,nan,nan,nan,nan,nan,nan
1,257,6,1,1,1,1,0.525806411,0,257.3206324,764.6003761,765.1261825,nan,nan,5,7,2,4,0,3,nan,nan,nan,nan,nan,nan,0,0,0,0,0,0,nan,nan,nan,nan,nan,nan,nan,nan,nan,nan,nan,nan,nan,nan,nan,nan,nan,nan
1,258,6,1,1,1,1,0.60468192,0,257.3206324,765.625486,766.2301679,nan,nan,7,1,4,0,3,2,nan,nan,nan,nan,nan,nan,0,0,0,0,0,0,nan,nan,nan,nan,nan,nan,nan,nan,nan,nan,nan,nan,nan,nan,nan,nan,nan,nan
1,259,6,0,0,0,1,0.611532231,0,257.3206324,766.6506168,767.262149,nan,nan,6,0,8,3,4,7,nan,nan,nan,nan,nan,nan,0,0,0,0,0,0,nan,nan,nan,nan,nan,nan,nan,nan,nan,nan,nan,nan,nan,nan,nan,nan,nan,nan
1,260,6,1,1,1,1,0.522358448,0,257.3206324,767.6757452,768.1981036,nan,nan,3,6,2,1,0,8,nan,nan,nan,nan,nan,nan,0,0,0,0,0,0,nan,nan,nan,nan,nan,nan,nan,nan,nan,nan,nan,nan,nan,nan,nan,nan,nan,nan
1,261,6,1,1,1,1,0.441218128,0,257.3206324,768.7008768,769.1420949,nan,nan,7,3,5,6,1,0,nan,nan,nan,nan,nan,nan,0,0,0,0,0,0,nan,nan,nan,nan,nan,nan,nan,nan,nan,nan,nan,nan,nan,nan,nan,nan,nan,nan
1,262,6,1,1,1,1,0.416071432,0,257.3206324,769.7260181,770.1420895,nan,nan,3,2,8,0,5,4,nan,nan,nan,nan,nan,nan,0,0,0,0,0,0,nan,nan,nan,nan,nan,nan,nan,nan,nan,nan,nan,nan,nan,nan,nan,nan,nan,nan
1,263,6,1,1,1,1,0.470894446,0,257.3206324,770.7511679,771.2220623,nan,nan,7,8,4,6,1,3,nan,nan,nan,nan,nan,nan,0,0,0,0,0,0,nan,nan,nan,nan,nan,nan,nan,nan,nan,nan,nan,nan,nan,nan,nan,nan,nan,nan
1,264,6,1,1,1,1,0.405753201,0,257.3206324,771.7762904,772.1820436,nan,nan,6,0,5,4,3,1,nan,nan,nan,nan,nan,nan,0,0,0,0,0,0,nan,nan,nan,nan,nan,nan,nan,nan,nan,nan,nan,nan,nan,nan,nan,nan,nan,nan
1,265,6,1,1,1,1,0.484665202,0,257.3206324,772.801343,773.2860082,nan,nan,0,1,4,8,7,2,nan,nan,nan,nan,nan,nan,0,0,0,0,0,0,nan,nan,nan,nan,nan,nan,nan,nan,nan,nan,nan,nan,nan,nan,nan,nan,nan,nan
1,266,6,1,1,1,1,0.715481452,0,257.3206324,773.8265139,774.5419954,nan,nan,5,0,7,1,6,4,nan,nan,nan,nan,nan,nan,0,0,0,0,0,0,nan,nan,nan,nan,nan,nan,nan,nan,nan,nan,nan,nan,nan,nan,nan,nan,nan,nan
1,267,6,1,1,nan,nan,nan,0,257.3206324,774.8516452,nan,nan,nan,2,7,8,4,1,5,nan,nan,nan,nan,nan,nan,0,0,0,0,0,0,nan,nan,nan,nan,nan,nan,nan,nan,nan,nan,nan,nan,nan,nan,nan,nan,nan,nan
1,268,6,0,0,nan,nan,nan,0,257.3206324,775.876746,nan,nan,nan,1,3,5,2,4,8,nan,nan,nan,nan,nan,nan,0,0,0,0,0,0,nan,nan,nan,nan,nan,nan,nan,nan,nan,nan,nan,nan,nan,nan,nan,nan,nan,nan
1,269,6,1,1,1,1,0.760037268,1,257.3206324,776.9018707,777.661908,778.7187866,796.0375387,5,2,7,3,0,4,1,1,1,1,1,1,1,0,1,1,0,0,3,4,2,1,5,6,5,5,7,3,1,0,7.507416799,14.84308973,5.900340064,4.245274945,16.4355447,17.29089788
1,270,6,1,1,1,1,0.342430589,0,257.3206324,797.2711207,797.6135513,nan,nan,7,3,8,6,1,2,nan,nan,nan,nan,nan,nan,0,0,0,0,0,0,nan,nan,nan,nan,nan,nan,nan,nan,nan,nan,nan,nan,nan,nan,nan,nan,nan,nan
1,271,6,1,1,nan,nan,nan,0,257.3206324,798.2962517,nan,nan,nan,4,0,6,3,5,8,nan,nan,nan,nan,nan,nan,0,0,0,0,0,0,nan,nan,nan,nan,nan,nan,nan,nan,nan,nan,nan,nan,nan,nan,nan,nan,nan,nan
1,272,6,1,1,nan,nan,nan,0,257.3206324,799.3213722,nan,nan,nan,6,5,0,2,7,1,nan,nan,nan,nan,nan,nan,0,0,0,0,0,0,nan,nan,nan,nan,nan,nan,nan,nan,nan,nan,nan,nan,nan,nan,nan,nan,nan,nan
1,273,6,1,1,1,1,0.714918385,0,257.3206324,800.3464989,801.0614173,nan,nan,3,4,6,7,5,0,nan,nan,nan,nan,nan,nan,0,0,0,0,0,0,nan,nan,nan,nan,nan,nan,nan,nan,nan,nan,nan,nan,nan,nan,nan,nan,nan,nan
1,274,6,1,1,1,1,0.657782664,0,257.3206324,801.3716442,802.0294269,nan,nan,6,2,3,0,4,8,nan,nan,nan,nan,nan,nan,0,0,0,0,0,0,nan,nan,nan,nan,nan,nan,nan,nan,nan,nan,nan,nan,nan,nan,nan,nan,nan,nan
1,275,6,0,0,0,1,0.768640355,0,257.3206324,802.3967598,803.1654002,nan,nan,1,8,6,4,7,2,nan,nan,nan,nan,nan,nan,0,0,0,0,0,0,nan,nan,nan,nan,nan,nan,nan,nan,nan,nan,nan,nan,nan,nan,nan,nan,nan,nan
1,276,6,1,1,1,1,0.607473305,0,257.3206324,803.4219048,804.0293781,nan,nan,2,4,0,5,8,6,nan,nan,nan,nan,nan,nan,0,0,0,0,0,0,nan,nan,nan,nan,nan,nan,nan,nan,nan,nan,nan,nan,nan,nan,nan,nan,nan,nan
1,277,6,1,1,1,1,0.734341189,0,257.3206324,804.4470073,805.1813485,nan,nan,5,8,7,4,6,1,nan,nan,nan,nan,nan,nan,0,0,0,0,0,0,nan,nan,nan,nan,nan,nan,nan,nan,nan,nan,nan,nan,nan,nan,nan,nan,nan,nan
1,278,6,1,1,1,1,0.725201834,0,257.3206324,805.4721355,806.1973373,nan,nan,3,0,5,8,1,2,nan,nan,nan,nan,nan,nan,0,0,0,0,0,0,nan,nan,nan,nan,nan,nan,nan,nan,nan,nan,nan,nan,nan,nan,nan,nan,nan,nan
1,279,6,1,1,1,1,0.748032118,1,257.3206324,806.4972708,807.2453029,808.3224595,816.956919,6,1,4,7,2,5,1,1,1,1,1,1,0,0,1,1,1,0,4,3,2,1,6,5,1,6,4,7,2,0,6.096132146,4.888360002,3.76924305,2.671888123,8.607085573,7.631593367
1,280,6,0,0,0,1,0.534689749,0,257.3206324,818.1904006,818.7250904,nan,nan,1,8,5,6,4,7,nan,nan,nan,nan,nan,nan,0,0,0,0,0,0,nan,nan,nan,nan,nan,nan,nan,nan,nan,nan,nan,nan,nan,nan,nan,nan,nan,nan
1,281,6,1,1,1,1,0.541488457,0,257.3206324,819.2155687,819.7570571,nan,nan,3,5,4,2,0,1,nan,nan,nan,nan,nan,nan,0,0,0,0,0,0,nan,nan,nan,nan,nan,nan,nan,nan,nan,nan,nan,nan,nan,nan,nan,nan,nan,nan
1,282,6,1,1,1,1,0.604319847,0,257.3206324,820.2407046,820.8450244,nan,nan,0,8,5,3,1,7,nan,nan,nan,nan,nan,nan,0,0,0,0,0,0,nan,nan,nan,nan,nan,nan,nan,nan,nan,nan,nan,nan,nan,nan,nan,nan,nan,nan
1,283,6,1,1,1,1,0.795217669,0,257.3206324,821.2657934,822.061011,nan,nan,2,7,8,5,0,4,nan,nan,nan,nan,nan,nan,0,0,0,0,0,0,nan,nan,nan,nan,nan,nan,nan,nan,nan,nan,nan,nan,nan,nan,nan,nan,nan,nan
1,284,6,1,1,1,1,0.537743993,0,257.3206324,822.2992606,822.8370046,nan,nan,1,0,6,4,7,2,nan,nan,nan,nan,nan,nan,0,0,0,0,0,0,nan,nan,nan,nan,nan,nan,nan,nan,nan,nan,nan,nan,nan,nan,nan,nan,nan,nan
1,285,6,1,1,1,1,0.688561737,0,257.3206324,823.3243956,824.0129574,nan,nan,0,8,2,7,4,1,nan,nan,nan,nan,nan,nan,0,0,0,0,0,0,nan,nan,nan,nan,nan,nan,nan,nan,nan,nan,nan,nan,nan,nan,nan,nan,nan,nan
1,286,6,1,1,1,1,0.703415861,0,257.3206324,824.3495161,825.052932,nan,nan,5,7,6,4,0,2,nan,nan,nan,nan,nan,nan,0,0,0,0,0,0,nan,nan,nan,nan,nan,nan,nan,nan,nan,nan,nan,nan,nan,nan,nan,nan,nan,nan
1,287,6,1,1,1,1,0.790260972,0,257.3206324,825.3746485,826.1649095,nan,nan,8,2,3,5,1,4,nan,nan,nan,nan,nan,nan,0,0,0,0,0,0,nan,nan,nan,nan,nan,nan,nan,nan,nan,nan,nan,nan,nan,nan,nan,nan,nan,nan
1,288,6,1,1,nan,nan,nan,0,257.3206324,826.3998001,nan,nan,nan,4,6,0,2,3,1,nan,nan,nan,nan,nan,nan,0,0,0,0,0,0,nan,nan,nan,nan,nan,nan,nan,nan,nan,nan,nan,nan,nan,nan,nan,nan,nan,nan
1,289,6,1,1,1,1,0.739961022,1,257.3206324,827.42493,828.164891,829.2417255,839.7764457,6,4,5,3,1,8,1,1,1,1,1,1,0,1,1,1,0,0,4,3,2,1,6,5,1,4,5,3,6,0,6.296387707,5.127438649,3.640593025,2.615511045,10.50338296,8.84781094
1,290,6,1,1,1,1,0.522631856,0,257.3206324,841.0099721,841.532604,nan,nan,0,5,3,6,8,1,nan,nan,nan,nan,nan,nan,0,0,0,0,0,0,nan,nan,nan,nan,nan,nan,nan,nan,nan,nan,nan,nan,nan,nan,nan,nan,nan,nan
1,291,6,1,1,nan,nan,nan,0,257.3206324,842.0350635,nan,nan,nan,3,4,2,7,6,5,nan,nan,nan,nan,nan,nan,0,0,0,0,0,0,nan,nan,nan,nan,nan,nan,nan,nan,nan,nan,nan,nan,nan,nan,nan,nan,nan,nan
1,292,6,1,1,nan,nan,nan,0,257.3206324,843.0602153,nan,nan,nan,6,0,7,8,1,4,nan,nan,nan,nan,nan,nan,0,0,0,0,0,0,nan,nan,nan,nan,nan,nan,nan,nan,nan,nan,nan,nan,nan,nan,nan,nan,nan,nan
1,293,6,1,1,1,1,0.023236547,1,257.3206324,844.0852967,844.1085333,845.9021864,858.4370874,2,5,3,4,7,1,1,1,1,1,1,1,0,0,1,1,0,1,4,3,2,1,6,5,6,2,3,4,8,1,9.803082355,7.588285706,6.524030257,5.100658346,12.5066057,11.09081993
1,294,6,1,1,1,1,0.565601677,0,257.3206324,859.6706328,860.2362345,nan,nan,8,7,2,3,6,5,nan,nan,nan,nan,nan,nan,0,0,0,0,0,0,nan,nan,nan,nan,nan,nan,nan,nan,nan,nan,nan,nan,nan,nan,nan,nan,nan,nan
1,295,6,1,1,1,1,0.60446211,0,257.3206324,860.6957288,861.3001909,nan,nan,1,0,5,8,4,7,nan,nan,nan,nan,nan,nan,0,0,0,0,0,0,nan,nan,nan,nan,nan,nan,nan,nan,nan,nan,nan,nan,nan,nan,nan,nan,nan,nan
1,296,6,0,0,0,1,0.787348991,0,257.3206324,861.7208381,862.5081871,nan,nan,4,5,3,1,6,0,nan,nan,nan,nan,nan,nan,0,0,0,0,0,0,nan,nan,nan,nan,nan,nan,nan,nan,nan,nan,nan,nan,nan,nan,nan,nan,nan,nan
1,297,6,1,1,nan,nan,nan,0,257.3206324,862.7459817,nan,nan,nan,0,2,7,4,1,8,nan,nan,nan,nan,nan,nan,0,0,0,0,0,0,nan,nan,nan,nan,nan,nan,nan,nan,nan,nan,nan,nan,nan,nan,nan,nan,nan,nan
1,298,6,1,1,1,1,0.705050893,1,257.3206324,863.7710862,864.4761371,865.5879724,875.5475419,3,8,2,1,6,7,1,1,1,1,1,1,1,0,1,0,0,0,4,3,2,1,6,5,3,1,2,8,1,8,7.813508923,6.437391841,5.212499337,3.359111045,9.924510873,8.924990122
1,299,6,0,0,0,1,0.750790432,0,257.3206324,876.7810777,877.5318681,nan,nan,4,1,5,2,0,8,nan,nan,nan,nan,nan,nan,0,0,0,0,0,0,nan,nan,nan,nan,nan,nan,nan,nan,nan,nan,nan,nan,nan,nan,nan,nan,nan,nan
1,300,6,1,1,nan,nan,nan,0,257.3206324,877.8061865,nan,nan,nan,1,3,2,0,7,6,nan,nan,nan,nan,nan,nan,0,0,0,0,0,0,nan,nan,nan,nan,nan,nan,nan,nan,nan,nan,nan,nan,nan,nan,nan,nan,nan,nan
1,301,6,1,1,1,1,0.028490599,0,257.3206324,878.8313489,878.8598395,nan,nan,5,4,1,3,0,8,nan,nan,nan,nan,nan,nan,0,0,0,0,0,0,nan,nan,nan,nan,nan,nan,nan,nan,nan,nan,nan,nan,nan,nan,nan,nan,nan,nan
1,302,6,1,1,1,1,0.499360242,1,257.3206324,879.8564622,880.3558225,881.6733581,890.4494198,2,5,0,6,4,1,1,1,1,1,1,1,0,1,1,1,0,0,4,3,2,1,6,5,8,5,0,6,2,7,6.926828142,4.568231127,3.687929962,2.49445971,8.742508078,7.91127667
1,303,6,1,1,1,1,0.520618216,0,257.3206324,891.6829673,892.2035855,nan,nan,1,0,2,5,3,7,nan,nan,nan,nan,nan,nan,0,0,0,0,0,0,nan,nan,nan,nan,nan,nan,nan,nan,nan,nan,nan,nan,nan,nan,nan,nan,nan,nan
1,304,6,0,0,nan,nan,nan,0,257.3206324,892.7080532,nan,nan,nan,3,1,0,6,5,4,nan,nan,nan,nan,nan,nan,0,0,0,0,0,0,nan,nan,nan,nan,nan,nan,nan,nan,nan,nan,nan,nan,nan,nan,nan,nan,nan,nan
1,305,6,1,1,1,1,0.534307719,0,257.3206324,893.7332008,894.2675085,nan,nan,6,2,7,3,8,1,nan,nan,nan,nan,nan,nan,0,0,0,0,0,0,nan,nan,nan,nan,nan,nan,nan,nan,nan,nan,nan,nan,nan,nan,nan,nan,nan,nan
1,306,6,1,1,nan,nan,nan,0,257.3206324,894.7583196,nan,nan,nan,4,0,6,7,1,5,nan,nan,nan,nan,nan,nan,0,0,0,0,0,0,nan,nan,nan,nan,nan,nan,nan,nan,nan,nan,nan,nan,nan,nan,nan,nan,nan,nan
1,307,6,1,1,1,1,0.419980397,0,257.3206324,895.7834634,896.2034438,nan,nan,0,4,7,5,8,6,nan,nan,nan,nan,nan,nan,0,0,0,0,0,0,nan,nan,nan,nan,nan,nan,nan,nan,nan,nan,nan,nan,nan,nan,nan,nan,nan,nan
1,308,6,1,1,1,1,0.706840732,0,257.3206324,896.8086181,897.5154588,nan,nan,6,2,4,0,3,8,nan,nan,nan,nan,nan,nan,0,0,0,0,0,0,nan,nan,nan,nan,nan,nan,nan,nan,nan,nan,nan,nan,nan,nan,nan,nan,nan,nan
1,309,6,1,1,nan,nan,nan,0,257.3206324,897.8337445,nan,nan,nan,5,8,2,6,7,0,nan,nan,nan,nan,nan,nan,0,0,0,0,0,0,nan,nan,nan,nan,nan,nan,nan,nan,nan,nan,nan,nan,nan,nan,nan,nan,nan,nan
1,310,6,1,1,1,1,0.784567585,1,257.3206324,898.8588214,899.643389,900.6757093,917.0944538,6,4,8,0,1,3,1,1,1,1,1,1,0,1,1,1,0,0,4,3,2,1,6,5,3,4,8,0,6,2,9.876535889,5.285284318,3.987991144,2.654190726,16.38756173,14.72426387
1,311,6,1,1,1,1,0.563074577,0,257.3206324,918.3279519,918.8910265,nan,nan,7,0,3,5,8,1,nan,nan,nan,nan,nan,nan,0,0,0,0,0,0,nan,nan,nan,nan,nan,nan,nan,nan,nan,nan,nan,nan,nan,nan,nan,nan,nan,nan
1,312,6,1,1,1,1,0.705935549,0,257.3206324,919.3530664,920.059002,nan,nan,6,2,7,4,0,8,nan,nan,nan,nan,nan,nan,0,0,0,0,0,0,nan,nan,nan,nan,nan,nan,nan,nan,nan,nan,nan,nan,nan,nan,nan,nan,nan,nan
1,313,6,1,1,1,1,0.752796374,0,257.3206324,920.3782054,921.1310018,nan,nan,3,5,1,7,2,6,nan,nan,nan,nan,nan,nan,0,0,0,0,0,0,nan,nan,nan,nan,nan,nan,nan,nan,nan,nan,nan,nan,nan,nan,nan,nan,nan,nan
1,314,6,0,0,0,1,0.583657156,0,257.3206324,921.4033233,921.9869805,nan,nan,0,3,5,2,1,4,nan,nan,nan,nan,nan,nan,0,0,0,0,0,0,nan,nan,nan,nan,nan,nan,nan,nan,nan,nan,nan,nan,nan,nan,nan,nan,nan,nan
1,315,6,1,1,1,1,0.638509536,0,257.3206324,922.4284452,923.0669547,nan,nan,8,1,6,0,4,2,nan,nan,nan,nan,nan,nan,0,0,0,0,0,0,nan,nan,nan,nan,nan,nan,nan,nan,nan,nan,nan,nan,nan,nan,nan,nan,nan,nan
1,316,6,1,1,nan,nan,nan,0,257.3206324,923.4535848,nan,nan,nan,6,5,4,2,8,1,nan,nan,nan,nan,nan,nan,0,0,0,0,0,0,nan,nan,nan,nan,nan,nan,nan,nan,nan,nan,nan,nan,nan,nan,nan,nan,nan,nan
1,317,6,1,1,nan,nan,nan,0,257.3206324,924.4787041,nan,nan,nan,2,1,7,6,3,0,nan,nan,nan,nan,nan,nan,0,0,0,0,0,0,nan,nan,nan,nan,nan,nan,nan,nan,nan,nan,nan,nan,nan,nan,nan,nan,nan,nan
1,318,6,1,1,1,1,0.035068073,1,257.3206324,925.5038226,925.5388907,927.3207165,934.5716443,1,6,2,5,7,8,1,1,1,1,1,1,0,0,1,0,0,0,4,3,2,1,6,5,0,7,2,6,6,1,5.094086005,3.966267892,3.200943785,2.318429412,7.222244523,6.086623305
1,319,6,1,1,1,1,0.533515434,0,257.3206324,935.8051519,936.3386673,nan,nan,2,3,1,0,4,7,nan,nan,nan,nan,nan,nan,0,0,0,0,0,0,nan,nan,nan,nan,nan,nan,nan,nan,nan,nan,nan,nan,nan,nan,nan,nan,nan,nan
1,320,6,1,1,1,1,0.628380324,0,257.3206324,936.8302638,937.4586441,nan,nan,0,1,3,7,2,4,nan,nan,nan,nan,nan,nan,0,0,0,0,0,0,nan,nan,nan,nan,nan,nan,nan,nan,nan,nan,nan,nan,nan,nan,nan,nan,nan,nan
1,321,6,1,1,1,1,0.755219128,0,257.3206324,937.8553888,938.6106079,nan,nan,4,5,8,6,0,7,nan,nan,nan,nan,nan,nan,0,0,0,0,0,0,nan,nan,nan,nan,nan,nan,nan,nan,nan,nan,nan,nan,nan,nan,nan,nan,nan,nan
1,322,6,1,1,1,1,0.786117087,0,257.3206324,938.8805207,939.6666378,nan,nan,5,0,3,8,7,1,nan,nan,nan,nan,nan,nan,0,0,0,0,0,0,nan,nan,nan,nan,nan,nan,nan,nan,nan,nan,nan,nan,nan,nan,nan,nan,nan,nan
1,323,6,1,1,1,1,0.784949615,1,257.3206324,939.905642,940.6905916,941.7225333,951.4070538,8,1,6,0,3,7,1,1,1,1,1,1,0,1,1,1,0,0,4,3,2,1,6,5,3,1,6,0,4,5,5.804924937,4.732126556,4.022642405,2.669109568,9.652199324,6.836874048
1,324,6,1,1,1,1,0.585697025,0,257.3206324,952.6406076,953.2263046,nan,nan,3,5,0,4,1,8,nan,nan,nan,nan,nan,nan,0,0,0,0,0,0,nan,nan,nan,nan,nan,nan,nan,nan,nan,nan,nan,nan,nan,nan,nan,nan,nan,nan
1,325,6,1,1,1,1,0.704557675,0,257.3206324,953.6657374,954.3702951,nan,nan,6,2,1,7,5,4,nan,nan,nan,nan,nan,nan,0,0,0,0,0,0,nan,nan,nan,nan,nan,nan,nan,nan,nan,nan,nan,nan,nan,nan,nan,nan,nan,nan
1,326,6,1,1,1,1,0.64739658,0,257.3206324,954.690867,955.3382636,nan,nan,5,1,8,6,3,7,nan,nan,nan,nan,nan,nan,0,0,0,0,0,0,nan,nan,nan,nan,nan,nan,nan,nan,nan,nan,nan,nan,nan,nan,nan,nan,nan,nan
1,327,6,1,1,1,1,0.798232285,0,257.3206324,955.7159952,956.5142275,nan,nan,0,3,1,5,7,6,nan,nan,nan,nan,nan,nan,0,0,0,0,0,0,nan,nan,nan,nan,nan,nan,nan,nan,nan,nan,nan,nan,nan,nan,nan,nan,nan,nan
1,328,6,1,1,nan,nan,nan,0,257.3206324,956.7494094,nan,nan,nan,7,8,4,6,3,1,nan,nan,nan,nan,nan,nan,0,0,0,0,0,0,nan,nan,nan,nan,nan,nan,nan,nan,nan,nan,nan,nan,nan,nan,nan,nan,nan,nan
1,329,6,1,1,1,1,0.659635224,0,257.3206324,957.7745832,958.4342184,nan,nan,2,7,3,8,5,4,nan,nan,nan,nan,nan,nan,0,0,0,0,0,0,nan,nan,nan,nan,nan,nan,nan,nan,nan,nan,nan,nan,nan,nan,nan,nan,nan,nan
1,330,6,1,1,1,1,0.610467109,0,257.3206324,958.7997025,959.4101696,nan,nan,1,5,7,4,8,6,nan,nan,nan,nan,nan,nan,0,0,0,0,0,0,nan,nan,nan,nan,nan,nan,nan,nan,nan,nan,nan,nan,nan,nan,nan,nan,nan,nan
1,331,6,1,1,1,1,0.721323089,0,257.3206324,959.8248424,960.5461655,nan,nan,6,3,4,1,7,0,nan,nan,nan,nan,nan,nan,0,0,0,0,0,0,nan,nan,nan,nan,nan,nan,nan,nan,nan,nan,nan,nan,nan,nan,nan,nan,nan,nan
1,332,6,1,1,nan,nan,nan,0,257.3206324,960.8499697,nan,nan,nan,1,4,0,3,5,6,nan,nan,nan,nan,nan,nan,0,0,0,0,0,0,nan,nan,nan,nan,nan,nan,nan,nan,nan,nan,nan,nan,nan,nan,nan,nan,nan,nan
1,333,6,1,1,nan,nan,nan,0,257.3206324,961.8750939,nan,nan,nan,5,7,1,8,6,4,nan,nan,nan,nan,nan,nan,0,0,0,0,0,0,nan,nan,nan,nan,nan,nan,nan,nan,nan,nan,nan,nan,nan,nan,nan,nan,nan,nan
1,334,6,1,1,1,1,0.701894869,0,257.3206324,962.9001824,963.6020773,nan,nan,7,2,5,1,4,0,nan,nan,nan,nan,nan,nan,0,0,0,0,0,0,nan,nan,nan,nan,nan,nan,nan,nan,nan,nan,nan,nan,nan,nan,nan,nan,nan,nan
1,335,6,1,1,nan,nan,nan,0,257.3206324,963.9252957,nan,nan,nan,2,7,4,6,0,5,nan,nan,nan,nan,nan,nan,0,0,0,0,0,0,nan,nan,nan,nan,nan,nan,nan,nan,nan,nan,nan,nan,nan,nan,nan,nan,nan,nan
1,336,6,0,0,nan,nan,nan,0,257.3206324,964.9504404,nan,nan,nan,4,1,6,2,3,7,nan,nan,nan,nan,nan,nan,0,0,0,0,0,0,nan,nan,nan,nan,nan,nan,nan,nan,nan,nan,nan,nan,nan,nan,nan,nan,nan,nan
1,337,6,1,1,1,1,0.490460084,0,257.3206324,965.9755777,966.4660378,nan,nan,8,3,0,4,5,6,nan,nan,nan,nan,nan,nan,0,0,0,0,0,0,nan,nan,nan,nan,nan,nan,nan,nan,nan,nan,nan,nan,nan,nan,nan,nan,nan,nan
1,338,6,1,1,1,1,0.593258653,0,257.3206324,967.0007247,967.5939834,nan,nan,7,2,4,8,6,5,nan,nan,nan,nan,nan,nan,0,0,0,0,0,0,nan,nan,nan,nan,nan,nan,nan,nan,nan,nan,nan,nan,nan,nan,nan,nan,nan,nan
1,339,6,1,1,1,1,0.424144524,0,257.3206324,968.0258378,968.4499823,nan,nan,5,4,3,2,0,1,nan,nan,nan,nan,nan,nan,0,0,0,0,0,0,nan,nan,nan,nan,nan,nan,nan,nan,nan,nan,nan,nan,nan,nan,nan,nan,nan,nan
1,340,6,1,1,1,1,0.454950396,0,257.3206324,969.051013,969.5059634,nan,nan,1,5,0,6,7,2,nan,nan,nan,nan,nan,nan,0,0,0,0,0,0,nan,nan,nan,nan,nan,nan,nan,nan,nan,nan,nan,nan,nan,nan,nan,nan,nan,nan
1,341,6,1,1,1,1,0.58980955,0,257.3206324,970.0761417,970.6659513,nan,nan,2,6,5,0,8,1,nan,nan,nan,nan,nan,nan,0,0,0,0,0,0,nan,nan,nan,nan,nan,nan,nan,nan,nan,nan,nan,nan,nan,nan,nan,nan,nan,nan
1,342,6,1,1,1,1,0.636717131,0,257.3206324,971.1012248,971.737942,nan,nan,7,5,0,8,1,3,nan,nan,nan,nan,nan,nan,0,0,0,0,0,0,nan,nan,nan,nan,nan,nan,nan,nan,nan,nan,nan,nan,nan,nan,nan,nan,nan,nan
1,343,6,1,1,1,1,0.619543742,0,257.3206324,972.1263459,972.7458896,nan,nan,6,3,1,7,8,0,nan,nan,nan,nan,nan,nan,0,0,0,0,0,0,nan,nan,nan,nan,nan,nan,nan,nan,nan,nan,nan,nan,nan,nan,nan,nan,nan,nan
1,344,6,1,1,1,1,0.738412375,0,257.3206324,973.1514726,973.889885,nan,nan,1,7,6,8,4,5,nan,nan,nan,nan,nan,nan,0,0,0,0,0,0,nan,nan,nan,nan,nan,nan,nan,nan,nan,nan,nan,nan,nan,nan,nan,nan,nan,nan
1,345,6,1,1,1,1,0.673288235,0,257.3206324,974.1765808,974.8498691,nan,nan,8,4,3,2,0,7,nan,nan,nan,nan,nan,nan,0,0,0,0,0,0,nan,nan,nan,nan,nan,nan,nan,nan,nan,nan,nan,nan,nan,nan,nan,nan,nan,nan
1,346,6,1,1,1,1,0.752093895,0,257.3206324,975.2017518,975.9538456,nan,nan,6,0,7,4,5,3,nan,nan,nan,nan,nan,nan,0,0,0,0,0,0,nan,nan,nan,nan,nan,nan,nan,nan,nan,nan,nan,nan,nan,nan,nan,nan,nan,nan
1,347,6,1,1,nan,nan,nan,0,257.3206324,976.2268326,nan,nan,nan,1,3,5,6,7,8,nan,nan,nan,nan,nan,nan,0,0,0,0,0,0,nan,nan,nan,nan,nan,nan,nan,nan,nan,nan,nan,nan,nan,nan,nan,nan,nan,nan
1,348,6,1,1,nan,nan,nan,0,257.3206324,977.2519941,nan,nan,nan,8,1,2,7,3,5,nan,nan,nan,nan,nan,nan,0,0,0,0,0,0,nan,nan,nan,nan,nan,nan,nan,nan,nan,nan,nan,nan,nan,nan,nan,nan,nan,nan
1,349,6,0,0,0,1,0.628647745,0,257.3206324,978.2771143,978.905762,nan,nan,4,5,7,2,1,3,nan,nan,nan,nan,nan,nan,0,0,0,0,0,0,nan,nan,nan,nan,nan,nan,nan,nan,nan,nan,nan,nan,nan,nan,nan,nan,nan,nan
1,350,6,1,1,1,1,0.555514945,0,257.3206324,979.3022425,979.8577574,nan,nan,5,3,0,1,8,2,nan,nan,nan,nan,nan,nan,0,0,0,0,0,0,nan,nan,nan,nan,nan,nan,nan,nan,nan,nan,nan,nan,nan,nan,nan,nan,nan,nan
1,351,6,1,1,1,1,0.610341666,0,257.3206324,980.3273943,980.937736,nan,nan,3,6,2,8,1,7,nan,nan,nan,nan,nan,nan,0,0,0,0,0,0,nan,nan,nan,nan,nan,nan,nan,nan,nan,nan,nan,nan,nan,nan,nan,nan,nan,nan
1,352,6,1,1,1,1,0.593220165,0,257.3206324,981.3525073,981.9457275,nan,nan,7,0,5,1,4,8,nan,nan,nan,nan,nan,nan,0,0,0,0,0,0,nan,nan,nan,nan,nan,nan,nan,nan,nan,nan,nan,nan,nan,nan,nan,nan,nan,nan
1,353,6,1,1,1,1,0.560051979,0,257.3206324,982.3776369,982.9376889,nan,nan,1,4,8,7,6,0,nan,nan,nan,nan,nan,nan,0,0,0,0,0,0,nan,nan,nan,nan,nan,nan,nan,nan,nan,nan,nan,nan,nan,nan,nan,nan,nan,nan
1,354,6,1,1,1,1,0.438892307,0,257.3206324,983.4027688,983.8416611,nan,nan,2,3,0,8,4,5,nan,nan,nan,nan,nan,nan,0,0,0,0,0,0,nan,nan,nan,nan,nan,nan,nan,nan,nan,nan,nan,nan,nan,nan,nan,nan,nan,nan
1,355,6,0,0,0,1,0.669761585,0,257.3206324,984.427893,985.0976546,nan,nan,3,5,1,7,8,4,nan,nan,nan,nan,nan,nan,0,0,0,0,0,0,nan,nan,nan,nan,nan,nan,nan,nan,nan,nan,nan,nan,nan,nan,nan,nan,nan,nan
1,356,6,1,1,1,1,0.62059518,0,257.3206324,985.4530251,986.0736203,nan,nan,7,0,8,4,6,2,nan,nan,nan,nan,nan,nan,0,0,0,0,0,0,nan,nan,nan,nan,nan,nan,nan,nan,nan,nan,nan,nan,nan,nan,nan,nan,nan,nan
1,357,6,1,1,1,1,0.69142126,0,257.3206324,986.4781861,987.1696073,nan,nan,1,7,5,6,8,4,nan,nan,nan,nan,nan,nan,0,0,0,0,0,0,nan,nan,nan,nan,nan,nan,nan,nan,nan,nan,nan,nan,nan,nan,nan,nan,nan,nan
1,358,6,1,1,1,1,0.55433778,0,257.3206324,987.5032552,988.057593,nan,nan,6,8,0,5,3,7,nan,nan,nan,nan,nan,nan,0,0,0,0,0,0,nan,nan,nan,nan,nan,nan,nan,nan,nan,nan,nan,nan,nan,nan,nan,nan,nan,nan
1,359,6,1,1,1,1,0.585162468,0,257.3206324,988.5284079,989.1135704,nan,nan,0,7,6,2,1,4,nan,nan,nan,nan,nan,nan,0,0,0,0,0,0,nan,nan,nan,nan,nan,nan,nan,nan,nan,nan,nan,nan,nan,nan,nan,nan,nan,nan
1,360,6,0,0,0,1,0.656001663,0,257.3206324,989.5535341,990.2095358,nan,nan,2,3,7,4,6,1,nan,nan,nan,nan,nan,nan,0,0,0,0,0,0,nan,nan,nan,nan,nan,nan,nan,nan,nan,nan,nan,nan,nan,nan,nan,nan,nan,nan
1,361,6,1,1,1,1,0.702872466,0,257.3206324,990.578658,991.2815304,nan,nan,0,5,6,8,4,3,nan,nan,nan,nan,nan,nan,0,0,0,0,0,0,nan,nan,nan,nan,nan,nan,nan,nan,nan,nan,nan,nan,nan,nan,nan,nan,nan,nan
1,362,6,1,1,nan,nan,nan,0,257.3206324,991.6038181,nan,nan,nan,7,3,4,6,0,1,nan,nan,nan,nan,nan,nan,0,0,0,0,0,0,nan,nan,nan,nan,nan,nan,nan,nan,nan,nan,nan,nan,nan,nan,nan,nan,nan,nan
1,363,6,1,1,1,1,0.668566743,0,257.3206324,992.6288587,993.2974255,nan,nan,4,0,8,2,5,3,nan,nan,nan,nan,nan,nan,0,0,0,0,0,0,nan,nan,nan,nan,nan,nan,nan,nan,nan,nan,nan,nan,nan,nan,nan,nan,nan,nan
1,364,6,1,1,1,1,0.515420612,0,257.3206324,993.6540764,994.169497,nan,nan,1,7,2,3,4,5,nan,nan,nan,nan,nan,nan,0,0,0,0,0,0,nan,nan,nan,nan,nan,nan,nan,nan,nan,nan,nan,nan,nan,nan,nan,nan,nan,nan
1,365,6,1,1,1,1,0.498269461,0,257.3206324,994.6792046,995.177474,nan,nan,5,3,0,6,2,1,nan,nan,nan,nan,nan,nan,0,0,0,0,0,0,nan,nan,nan,nan,nan,nan,nan,nan,nan,nan,nan,nan,nan,nan,nan,nan,nan,nan
1,366,6,0,0,0,1,0.705090521,0,257.3206324,995.704335,996.4094255,nan,nan,8,2,5,7,1,4,nan,nan,nan,nan,nan,nan,0,0,0,0,0,0,nan,nan,nan,nan,nan,nan,nan,nan,nan,nan,nan,nan,nan,nan,nan,nan,nan,nan
1,367,6,1,1,1,1,0.58397789,0,257.3206324,996.7294318,997.3134097,nan,nan,2,5,8,1,7,6,nan,nan,nan,nan,nan,nan,0,0,0,0,0,0,nan,nan,nan,nan,nan,nan,nan,nan,nan,nan,nan,nan,nan,nan,nan,nan,nan,nan
1,368,6,1,1,1,1,0.694777137,0,257.3206324,997.7546096,998.4493867,nan,nan,1,6,2,5,3,7,nan,nan,nan,nan,nan,nan,0,0,0,0,0,0,nan,nan,nan,nan,nan,nan,nan,nan,nan,nan,nan,nan,nan,nan,nan,nan,nan,nan
1,369,6,1,1,1,1,0.74964092,0,257.3206324,998.7797189,999.5293599,nan,nan,4,7,0,6,1,2,nan,nan,nan,nan,nan,nan,0,0,0,0,0,0,nan,nan,nan,nan,nan,nan,nan,nan,nan,nan,nan,nan,nan,nan,nan,nan,nan,nan
1,370,6,1,1,nan,nan,nan,0,257.3206324,999.8048175,nan,nan,nan,6,8,2,0,5,3,nan,nan,nan,nan,nan,nan,0,0,0,0,0,0,nan,nan,nan,nan,nan,nan,nan,nan,nan,nan,nan,nan,nan,nan,nan,nan,nan,nan
1,371,6,1,1,1,1,0.651288439,0,257.3206324,1000.829974,1001.481263,nan,nan,4,1,0,8,3,7,nan,nan,nan,nan,nan,nan,0,0,0,0,0,0,nan,nan,nan,nan,nan,nan,nan,nan,nan,nan,nan,nan,nan,nan,nan,nan,nan,nan
1,372,6,1,1,1,1,0.570204854,0,257.3206324,1001.855102,1002.425307,nan,nan,3,2,6,0,7,5,nan,nan,nan,nan,nan,nan,0,0,0,0,0,0,nan,nan,nan,nan,nan,nan,nan,nan,nan,nan,nan,nan,nan,nan,nan,nan,nan,nan
1,373,6,1,1,1,1,0.657061083,0,257.3206324,1002.880206,1003.537267,nan,nan,0,3,7,4,8,6,nan,nan,nan,nan,nan,nan,0,0,0,0,0,0,nan,nan,nan,nan,nan,nan,nan,nan,nan,nan,nan,nan,nan,nan,nan,nan,nan,nan
1,374,6,1,1,1,1,0.687896035,0,257.3206324,1003.905353,1004.593249,nan,nan,5,1,0,2,7,3,nan,nan,nan,nan,nan,nan,0,0,0,0,0,0,nan,nan,nan,nan,nan,nan,nan,nan,nan,nan,nan,nan,nan,nan,nan,nan,nan,nan
1,375,6,1,1,1,1,0.774748844,0,257.3206324,1004.930464,1005.705213,nan,nan,4,8,3,5,2,7,nan,nan,nan,nan,nan,nan,0,0,0,0,0,0,nan,nan,nan,nan,nan,nan,nan,nan,nan,nan,nan,nan,nan,nan,nan,nan,nan,nan
1,376,6,0,0,0,1,0.669626164,0,257.3206324,1005.955591,1006.625217,nan,nan,1,3,6,0,7,8,nan,nan,nan,nan,nan,nan,0,0,0,0,0,0,nan,nan,nan,nan,nan,nan,nan,nan,nan,nan,nan,nan,nan,nan,nan,nan,nan,nan
1,377,6,1,1,1,1,0.6364805,0,257.3206324,1006.980719,1007.6172,nan,nan,5,0,2,3,6,1,nan,nan,nan,nan,nan,nan,0,0,0,0,0,0,nan,nan,nan,nan,nan,nan,nan,nan,nan,nan,nan,nan,nan,nan,nan,nan,nan,nan
1,378,6,1,1,1,1,0.707331384,0,257.3206324,1008.005843,1008.713174,nan,nan,1,6,4,0,3,7,nan,nan,nan,nan,nan,nan,0,0,0,0,0,0,nan,nan,nan,nan,nan,nan,nan,nan,nan,nan,nan,nan,nan,nan,nan,nan,nan,nan
1,379,6,1,1,1,1,0.714185116,0,257.3206324,1009.030982,1009.745167,nan,nan,5,4,7,3,2,1,nan,nan,nan,nan,nan,nan,0,0,0,0,0,0,nan,nan,nan,nan,nan,nan,nan,nan,nan,nan,nan,nan,nan,nan,nan,nan,nan,nan
1,380,6,1,1,1,1,0.729013011,0,257.3206324,1010.05613,1010.785143,nan,nan,1,7,6,0,5,8,nan,nan,nan,nan,nan,nan,0,0,0,0,0,0,nan,nan,nan,nan,nan,nan,nan,nan,nan,nan,nan,nan,nan,nan,nan,nan,nan,nan
1,381,6,0,0,0,1,0.751864962,0,257.3206324,1011.081259,1011.833124,nan,nan,5,1,3,4,8,6,nan,nan,nan,nan,nan,nan,0,0,0,0,0,0,nan,nan,nan,nan,nan,nan,nan,nan,nan,nan,nan,nan,nan,nan,nan,nan,nan,nan
1,382,6,1,1,1,1,0.726724538,0,257.3206324,1012.106357,1012.833081,nan,nan,6,2,8,0,1,7,nan,nan,nan,nan,nan,nan,0,0,0,0,0,0,nan,nan,nan,nan,nan,nan,nan,nan,nan,nan,nan,nan,nan,nan,nan,nan,nan,nan
1,383,6,1,1,1,1,0.749569076,0,257.3206324,1013.131486,1013.881056,nan,nan,4,8,5,2,3,1,nan,nan,nan,nan,nan,nan,0,0,0,0,0,0,nan,nan,nan,nan,nan,nan,nan,nan,nan,nan,nan,nan,nan,nan,nan,nan,nan,nan
1,384,6,1,1,1,1,0.72436707,0,257.3206324,1014.156651,1014.881018,nan,nan,2,7,3,5,6,8,nan,nan,nan,nan,nan,nan,0,0,0,0,0,0,nan,nan,nan,nan,nan,nan,nan,nan,nan,nan,nan,nan,nan,nan,nan,nan,nan,nan
1,385,6,1,1,nan,nan,nan,0,257.3206324,1015.181746,nan,nan,nan,7,1,8,3,4,0,nan,nan,nan,nan,nan,nan,0,0,0,0,0,0,nan,nan,nan,nan,nan,nan,nan,nan,nan,nan,nan,nan,nan,nan,nan,nan,nan,nan
1,386,6,1,1,1,1,0.554127663,0,257.3206324,1016.206842,1016.76097,nan,nan,0,3,5,2,7,8,nan,nan,nan,nan,nan,nan,0,0,0,0,0,0,nan,nan,nan,nan,nan,nan,nan,nan,nan,nan,nan,nan,nan,nan,nan,nan,nan,nan
1,387,6,1,1,1,1,0.449002132,0,257.3206324,1017.231998,1017.681,nan,nan,4,8,2,7,3,0,nan,nan,nan,nan,nan,nan,0,0,0,0,0,0,nan,nan,nan,nan,nan,nan,nan,nan,nan,nan,nan,nan,nan,nan,nan,nan,nan,nan
1,388,6,1,1,1,1,0.599832705,0,257.3206324,1018.257124,1018.856957,nan,nan,7,1,4,6,8,5,nan,nan,nan,nan,nan,nan,0,0,0,0,0,0,nan,nan,nan,nan,nan,nan,nan,nan,nan,nan,nan,nan,nan,nan,nan,nan,nan,nan
1,389,6,1,1,1,1,0.62268209,0,257.3206324,1019.282251,1019.904933,nan,nan,3,2,5,1,4,7,nan,nan,nan,nan,nan,nan,0,0,0,0,0,0,nan,nan,nan,nan,nan,nan,nan,nan,nan,nan,nan,nan,nan,nan,nan,nan,nan,nan
1,390,6,0,0,0,1,0.573527944,0,257.3206324,1020.307388,1020.880916,nan,nan,2,1,0,6,8,4,nan,nan,nan,nan,nan,nan,0,0,0,0,0,0,nan,nan,nan,nan,nan,nan,nan,nan,nan,nan,nan,nan,nan,nan,nan,nan,nan,nan
1,391,6,1,1,1,1,0.564370343,0,257.3206324,1021.3325,1021.896871,nan,nan,6,5,7,3,2,8,nan,nan,nan,nan,nan,nan,0,0,0,0,0,0,nan,nan,nan,nan,nan,nan,nan,nan,nan,nan,nan,nan,nan,nan,nan,nan,nan,nan
1,392,6,1,1,1,1,0.691220267,0,257.3206324,1022.357648,1023.048868,nan,nan,4,2,0,6,3,7,nan,nan,nan,nan,nan,nan,0,0,0,0,0,0,nan,nan,nan,nan,nan,nan,nan,nan,nan,nan,nan,nan,nan,nan,nan,nan,nan,nan
1,393,6,1,1,1,1,0.60208155,0,257.3206324,1023.382769,1023.984851,nan,nan,7,8,6,5,1,2,nan,nan,nan,nan,nan,nan,0,0,0,0,0,0,nan,nan,nan,nan,nan,nan,nan,nan,nan,nan,nan,nan,nan,nan,nan,nan,nan,nan
1,394,6,1,1,1,1,0.552935672,0,257.3206324,1024.407897,1024.960833,nan,nan,1,5,0,6,4,3,nan,nan,nan,nan,nan,nan,0,0,0,0,0,0,nan,nan,nan,nan,nan,nan,nan,nan,nan,nan,nan,nan,nan,nan,nan,nan,nan,nan
1,395,6,1,1,1,1,0.51182725,0,257.3206324,1025.432969,1025.944796,nan,nan,3,2,7,5,8,0,nan,nan,nan,nan,nan,nan,0,0,0,0,0,0,nan,nan,nan,nan,nan,nan,nan,nan,nan,nan,nan,nan,nan,nan,nan,nan,nan,nan
1,396,6,1,1,1,1,0.518606286,0,257.3206324,1026.458172,1026.976779,nan,nan,6,5,2,8,1,7,nan,nan,nan,nan,nan,nan,0,0,0,0,0,0,nan,nan,nan,nan,nan,nan,nan,nan,nan,nan,nan,nan,nan,nan,nan,nan,nan,nan
1,397,6,1,1,1,1,0.405519136,0,257.3206324,1027.483258,1027.888777,nan,nan,1,2,4,3,7,6,nan,nan,nan,nan,nan,nan,0,0,0,0,0,0,nan,nan,nan,nan,nan,nan,nan,nan,nan,nan,nan,nan,nan,nan,nan,nan,nan,nan
1,398,6,1,1,1,1,0.276350234,1,257.3206324,1028.508413,1028.784763,1030.333613,1041.843367,5,7,2,0,1,3,1,1,1,1,1,1,0,0,1,1,0,0,4,3,2,1,6,5,1,0,2,0,3,5,7.752448556,5.095208432,3.601236523,2.168404523,11.47907702,9.367940499
1,399,6,1,1,1,1,0.523549583,0,257.3206324,1043.076903,1043.600453,nan,nan,2,8,1,7,3,6,nan,nan,nan,nan,nan,nan,0,0,0,0,0,0,nan,nan,nan,nan,nan,nan,nan,nan,nan,nan,nan,nan,nan,nan,nan,nan,nan,nan
1,400,6,1,1,1,1,0.61038272,0,257.3206324,1044.102041,1044.712424,nan,nan,7,0,4,5,6,2,nan,nan,nan,nan,nan,nan,0,0,0,0,0,0,nan,nan,nan,nan,nan,nan,nan,nan,nan,nan,nan,nan,nan,nan,nan,nan,nan,nan
1,401,6,1,1,1,1,0.569232388,0,257.3206324,1045.12717,1045.696403,nan,nan,5,7,1,3,4,6,nan,nan,nan,nan,nan,nan,0,0,0,0,0,0,nan,nan,nan,nan,nan,nan,nan,nan,nan,nan,nan,nan,nan,nan,nan,nan,nan,nan
1,402,6,1,1,1,1,0.552110602,0,257.3206324,1046.152288,1046.704398,nan,nan,6,4,0,2,5,1,nan,nan,nan,nan,nan,nan,0,0,0,0,0,0,nan,nan,nan,nan,nan,nan,nan,nan,nan,nan,nan,nan,nan,nan,nan,nan,nan,nan
1,403,6,1,1,1,1,0.542965545,0,257.3206324,1047.177416,1047.720381,nan,nan,5,0,3,6,7,8,nan,nan,nan,nan,nan,nan,0,0,0,0,0,0,nan,nan,nan,nan,nan,nan,nan,nan,nan,nan,nan,nan,nan,nan,nan,nan,nan,nan
1,404,6,1,1,1,1,0.525841478,0,257.3206324,1048.202542,1048.728384,nan,nan,4,2,6,0,5,7,nan,nan,nan,nan,nan,nan,0,0,0,0,0,0,nan,nan,nan,nan,nan,nan,nan,nan,nan,nan,nan,nan,nan,nan,nan,nan,nan,nan
1,405,6,1,1,1,1,0.49263851,0,257.3206324,1049.227685,1049.720323,nan,nan,7,6,2,8,4,3,nan,nan,nan,nan,nan,nan,0,0,0,0,0,0,nan,nan,nan,nan,nan,nan,nan,nan,nan,nan,nan,nan,nan,nan,nan,nan,nan,nan
1,406,6,1,1,1,1,0.435496516,0,257.3206324,1050.252795,1050.688291,nan,nan,3,0,6,1,7,8,nan,nan,nan,nan,nan,nan,0,0,0,0,0,0,nan,nan,nan,nan,nan,nan,nan,nan,nan,nan,nan,nan,nan,nan,nan,nan,nan,nan
1,407,6,0,0,0,1,0.762347409,0,257.3206324,1051.277929,1052.040276,nan,nan,2,4,1,0,6,3,nan,nan,nan,nan,nan,nan,0,0,0,0,0,0,nan,nan,nan,nan,nan,nan,nan,nan,nan,nan,nan,nan,nan,nan,nan,nan,nan,nan
1,408,6,1,1,1,1,0.377177072,0,257.3206324,1052.303078,1052.680255,nan,nan,7,0,2,8,3,4,nan,nan,nan,nan,nan,nan,0,0,0,0,0,0,nan,nan,nan,nan,nan,nan,nan,nan,nan,nan,nan,nan,nan,nan,nan,nan,nan,nan
1,409,6,1,1,1,1,0.368046555,0,257.3206324,1053.328205,1053.696252,nan,nan,0,5,3,6,7,8,nan,nan,nan,nan,nan,nan,0,0,0,0,0,0,nan,nan,nan,nan,nan,nan,nan,nan,nan,nan,nan,nan,nan,nan,nan,nan,nan,nan
1,410,6,1,1,1,1,0.574890993,0,257.3206324,1054.353309,1054.9282,nan,nan,5,8,4,3,1,0,nan,nan,nan,nan,nan,nan,0,0,0,0,0,0,nan,nan,nan,nan,nan,nan,nan,nan,nan,nan,nan,nan,nan,nan,nan,nan,nan,nan
1,411,6,1,1,1,1,0.717712906,0,257.3206324,1055.378486,1056.096199,nan,nan,2,1,7,8,3,5,nan,nan,nan,nan,nan,nan,0,0,0,0,0,0,nan,nan,nan,nan,nan,nan,nan,nan,nan,nan,nan,nan,nan,nan,nan,nan,nan,nan
1,412,6,1,1,1,1,0.780563397,0,257.3206324,1056.403612,1057.184175,nan,nan,5,2,3,0,8,4,nan,nan,nan,nan,nan,nan,0,0,0,0,0,0,nan,nan,nan,nan,nan,nan,nan,nan,nan,nan,nan,nan,nan,nan,nan,nan,nan,nan
1,413,6,1,1,1,1,0.643418051,0,257.3206324,1057.428732,1058.07215,nan,nan,0,5,8,6,3,1,nan,nan,nan,nan,nan,nan,0,0,0,0,0,0,nan,nan,nan,nan,nan,nan,nan,nan,nan,nan,nan,nan,nan,nan,nan,nan,nan,nan
1,414,6,1,1,1,1,0.786276171,0,257.3206324,1058.453856,1059.240133,nan,nan,6,3,2,1,7,0,nan,nan,nan,nan,nan,nan,0,0,0,0,0,0,nan,nan,nan,nan,nan,nan,nan,nan,nan,nan,nan,nan,nan,nan,nan,nan,nan,nan
1,415,6,0,0,nan,nan,nan,0,257.3206324,1059.478961,nan,nan,nan,3,7,6,5,4,8,nan,nan,nan,nan,nan,nan,0,0,0,0,0,0,nan,nan,nan,nan,nan,nan,nan,nan,nan,nan,nan,nan,nan,nan,nan,nan,nan,nan
1,416,6,1,1,1,1,0.495960175,0,257.3206324,1060.50408,1061.00004,nan,nan,8,1,2,7,0,3,nan,nan,nan,nan,nan,nan,0,0,0,0,0,0,nan,nan,nan,nan,nan,nan,nan,nan,nan,nan,nan,nan,nan,nan,nan,nan,nan,nan
1,417,6,1,1,1,1,0.438861231,0,257.3206324,1061.529213,1061.968075,nan,nan,6,7,5,2,1,4,nan,nan,nan,nan,nan,nan,0,0,0,0,0,0,nan,nan,nan,nan,nan,nan,nan,nan,nan,nan,nan,nan,nan,nan,nan,nan,nan,nan
1,418,6,1,1,1,1,0.32572533,0,257.3206324,1062.554341,1062.880067,nan,nan,2,1,6,7,5,3,nan,nan,nan,nan,nan,nan,0,0,0,0,0,0,nan,nan,nan,nan,nan,nan,nan,nan,nan,nan,nan,nan,nan,nan,nan,nan,nan,nan
1,419,6,1,1,1,1,0.436579885,0,257.3206324,1063.57949,1064.01607,nan,nan,3,6,4,0,1,8,nan,nan,nan,nan,nan,nan,0,0,0,0,0,0,nan,nan,nan,nan,nan,nan,nan,nan,nan,nan,nan,nan,nan,nan,nan,nan,nan,nan
1,420,6,0,0,0,1,0.595413701,0,257.3206324,1064.6046,1065.200014,nan,nan,7,8,0,1,4,2,nan,nan,nan,nan,nan,nan,0,0,0,0,0,0,nan,nan,nan,nan,nan,nan,nan,nan,nan,nan,nan,nan,nan,nan,nan,nan,nan,nan
1,421,6,1,1,1,1,0.370297966,0,257.3206324,1065.629727,1066.000025,nan,nan,2,5,7,0,8,4,nan,nan,nan,nan,nan,nan,0,0,0,0,0,0,nan,nan,nan,nan,nan,nan,nan,nan,nan,nan,nan,nan,nan,nan,nan,nan,nan,nan
1,422,6,1,1,1,1,0.401115813,0,257.3206324,1066.654854,1067.05597,nan,nan,0,8,1,3,7,5,nan,nan,nan,nan,nan,nan,0,0,0,0,0,0,nan,nan,nan,nan,nan,nan,nan,nan,nan,nan,nan,nan,nan,nan,nan,nan,nan,nan
1,423,6,1,1,1,1,0.383937292,0,257.3206324,1067.679986,1068.063924,nan,nan,1,0,8,5,4,3,nan,nan,nan,nan,nan,nan,0,0,0,0,0,0,nan,nan,nan,nan,nan,nan,nan,nan,nan,nan,nan,nan,nan,nan,nan,nan,nan,nan
1,424,6,1,1,1,1,0.654770329,0,257.3206324,1068.705154,1069.359924,nan,nan,0,1,2,7,3,6,nan,nan,nan,nan,nan,nan,0,0,0,0,0,0,nan,nan,nan,nan,nan,nan,nan,nan,nan,nan,nan,nan,nan,nan,nan,nan,nan,nan
1,425,6,1,1,1,1,0.773645804,0,257.3206324,1069.730241,1070.503886,nan,nan,2,5,3,6,7,1,nan,nan,nan,nan,nan,nan,0,0,0,0,0,0,nan,nan,nan,nan,nan,nan,nan,nan,nan,nan,nan,nan,nan,nan,nan,nan,nan,nan
1,426,6,1,1,1,1,0.732510866,0,257.3206324,1070.755377,1071.487888,nan,nan,8,0,2,4,5,6,nan,nan,nan,nan,nan,nan,0,0,0,0,0,0,nan,nan,nan,nan,nan,nan,nan,nan,nan,nan,nan,nan,nan,nan,nan,nan,nan,nan
1,427,6,1,1,nan,nan,nan,0,257.3206324,1071.780495,nan,nan,nan,7,4,1,2,6,8,nan,nan,nan,nan,nan,nan,0,0,0,0,0,0,nan,nan,nan,nan,nan,nan,nan,nan,nan,nan,nan,nan,nan,nan,nan,nan,nan,nan
1,428,6,1,1,nan,nan,nan,0,257.3206324,1072.805619,nan,nan,nan,0,2,6,8,3,4,nan,nan,nan,nan,nan,nan,0,0,0,0,0,0,nan,nan,nan,nan,nan,nan,nan,nan,nan,nan,nan,nan,nan,nan,nan,nan,nan,nan
1,429,6,1,1,1,1,0.609037917,0,257.3206324,1073.830746,1074.439784,nan,nan,1,3,4,6,0,5,nan,nan,nan,nan,nan,nan,0,0,0,0,0,0,nan,nan,nan,nan,nan,nan,nan,nan,nan,nan,nan,nan,nan,nan,nan,nan,nan,nan
1,430,6,0,0,0,1,0.479895244,0,257.3206324,1074.855903,1075.335798,nan,nan,8,5,7,2,6,0,nan,nan,nan,nan,nan,nan,0,0,0,0,0,0,nan,nan,nan,nan,nan,nan,nan,nan,nan,nan,nan,nan,nan,nan,nan,nan,nan,nan
1,431,6,1,1,1,1,0.654747236,0,257.3206324,1075.881022,1076.535769,nan,nan,0,7,1,5,4,2,nan,nan,nan,nan,nan,nan,0,0,0,0,0,0,nan,nan,nan,nan,nan,nan,nan,nan,nan,nan,nan,nan,nan,nan,nan,nan,nan,nan
1,432,6,1,1,nan,nan,nan,0,257.3206324,1076.906112,nan,nan,nan,7,8,5,2,0,3,nan,nan,nan,nan,nan,nan,0,0,0,0,0,0,nan,nan,nan,nan,nan,nan,nan,nan,nan,nan,nan,nan,nan,nan,nan,nan,nan,nan
1,433,6,1,1,1,1,0.700468528,0,257.3206324,1077.931256,1078.631725,nan,nan,5,2,0,4,1,7,nan,nan,nan,nan,nan,nan,0,0,0,0,0,0,nan,nan,nan,nan,nan,nan,nan,nan,nan,nan,nan,nan,nan,nan,nan,nan,nan,nan
1,434,6,1,1,1,1,0.755308079,0,257.3206324,1078.956405,1079.711713,nan,nan,2,1,5,8,3,6,nan,nan,nan,nan,nan,nan,0,0,0,0,0,0,nan,nan,nan,nan,nan,nan,nan,nan,nan,nan,nan,nan,nan,nan,nan,nan,nan,nan
1,435,6,1,1,nan,nan,nan,0,257.3206324,1079.981517,nan,nan,nan,8,6,4,5,0,2,nan,nan,nan,nan,nan,nan,0,0,0,0,0,0,nan,nan,nan,nan,nan,nan,nan,nan,nan,nan,nan,nan,nan,nan,nan,nan,nan,nan
1,436,6,1,1,1,1,0.697025127,0,257.3206324,1081.006645,1081.70367,nan,nan,7,8,0,1,4,3,nan,nan,nan,nan,nan,nan,0,0,0,0,0,0,nan,nan,nan,nan,nan,nan,nan,nan,nan,nan,nan,nan,nan,nan,nan,nan,nan,nan
1,437,6,1,1,1,1,0.623866953,0,257.3206324,1082.031773,1082.65564,nan,nan,0,5,3,8,2,4,nan,nan,nan,nan,nan,nan,0,0,0,0,0,0,nan,nan,nan,nan,nan,nan,nan,nan,nan,nan,nan,nan,nan,nan,nan,nan,nan,nan
1,438,6,1,1,1,1,0.318749291,0,257.3206324,1083.056909,1083.375658,nan,nan,8,6,2,3,1,5,nan,nan,nan,nan,nan,nan,0,0,0,0,0,0,nan,nan,nan,nan,nan,nan,nan,nan,nan,nan,nan,nan,nan,nan,nan,nan,nan,nan
1,439,6,1,1,1,1,0.365594721,0,257.3206324,1084.082034,1084.447628,nan,nan,6,1,4,2,5,7,nan,nan,nan,nan,nan,nan,0,0,0,0,0,0,nan,nan,nan,nan,nan,nan,nan,nan,nan,nan,nan,nan,nan,nan,nan,nan,nan,nan
1,440,6,1,1,1,1,0.508424331,0,257.3206324,1085.107163,1085.615587,nan,nan,2,4,3,6,0,5,nan,nan,nan,nan,nan,nan,0,0,0,0,0,0,nan,nan,nan,nan,nan,nan,nan,nan,nan,nan,nan,nan,nan,nan,nan,nan,nan,nan
1,441,6,1,1,1,1,0.651270763,0,257.3206324,1086.132296,1086.783567,nan,nan,8,7,4,5,6,2,nan,nan,nan,nan,nan,nan,0,0,0,0,0,0,nan,nan,nan,nan,nan,nan,nan,nan,nan,nan,nan,nan,nan,nan,nan,nan,nan,nan
1,442,6,1,1,1,1,0.482123277,0,257.3206324,1087.157422,1087.639546,nan,nan,7,5,3,4,8,1,nan,nan,nan,nan,nan,nan,0,0,0,0,0,0,nan,nan,nan,nan,nan,nan,nan,nan,nan,nan,nan,nan,nan,nan,nan,nan,nan,nan
1,443,6,1,1,1,1,0.664967393,0,257.3206324,1088.18255,1088.847518,nan,nan,1,3,0,6,5,2,nan,nan,nan,nan,nan,nan,0,0,0,0,0,0,nan,nan,nan,nan,nan,nan,nan,nan,nan,nan,nan,nan,nan,nan,nan,nan,nan,nan
1,444,6,1,1,1,1,0.559783988,0,257.3206324,1089.207693,1089.767477,nan,nan,6,2,8,3,1,7,nan,nan,nan,nan,nan,nan,0,0,0,0,0,0,nan,nan,nan,nan,nan,nan,nan,nan,nan,nan,nan,nan,nan,nan,nan,nan,nan,nan
1,445,6,1,1,nan,nan,nan,0,257.3206324,1090.232833,nan,nan,nan,5,0,2,7,3,1,nan,nan,nan,nan,nan,nan,0,0,0,0,0,0,nan,nan,nan,nan,nan,nan,nan,nan,nan,nan,nan,nan,nan,nan,nan,nan,nan,nan
1,446,6,1,1,1,1,0.581456777,0,257.3206324,1091.257961,1091.839417,nan,nan,2,7,5,4,6,0,nan,nan,nan,nan,nan,nan,0,0,0,0,0,0,nan,nan,nan,nan,nan,nan,nan,nan,nan,nan,nan,nan,nan,nan,nan,nan,nan,nan
1,447,6,1,1,1,1,0.612338771,0,257.3206324,1092.283097,1092.895436,nan,nan,1,3,2,8,7,4,nan,nan,nan,nan,nan,nan,0,0,0,0,0,0,nan,nan,nan,nan,nan,nan,nan,nan,nan,nan,nan,nan,nan,nan,nan,nan,nan,nan
1,448,6,1,1,1,1,0.403195595,0,257.3206324,1093.308225,1093.71142,nan,nan,4,6,7,1,0,5,nan,nan,nan,nan,nan,nan,0,0,0,0,0,0,nan,nan,nan,nan,nan,nan,nan,nan,nan,nan,nan,nan,nan,nan,nan,nan,nan,nan
1,449,6,1,1,1,1,0.610085079,0,257.3206324,1094.333303,1094.943389,nan,nan,1,8,0,4,3,2,nan,nan,nan,nan,nan,nan,0,0,0,0,0,0,nan,nan,nan,nan,nan,nan,nan,nan,nan,nan,nan,nan,nan,nan,nan,nan,nan,nan
1,450,6,1,1,1,1,0.464953025,0,257.3206324,1095.358421,1095.823374,nan,nan,6,3,8,5,7,4,nan,nan,nan,nan,nan,nan,0,0,0,0,0,0,nan,nan,nan,nan,nan,nan,nan,nan,nan,nan,nan,nan,nan,nan,nan,nan,nan,nan
1,451,6,0,0,0,1,0.639775936,0,257.3206324,1096.383576,1097.023352,nan,nan,5,4,0,3,1,7,nan,nan,nan,nan,nan,nan,0,0,0,0,0,0,nan,nan,nan,nan,nan,nan,nan,nan,nan,nan,nan,nan,nan,nan,nan,nan,nan,nan
1,452,6,1,1,1,1,0.486633797,0,257.3206324,1097.408703,1097.895337,nan,nan,3,7,2,4,0,6,nan,nan,nan,nan,nan,nan,0,0,0,0,0,0,nan,nan,nan,nan,nan,nan,nan,nan,nan,nan,nan,nan,nan,nan,nan,nan,nan,nan
1,453,6,1,1,1,1,0.46946497,0,257.3206324,1098.433833,1098.903298,nan,nan,7,0,8,1,3,5,nan,nan,nan,nan,nan,nan,0,0,0,0,0,0,nan,nan,nan,nan,nan,nan,nan,nan,nan,nan,nan,nan,nan,nan,nan,nan,nan,nan
1,454,6,1,1,1,1,0.396350131,0,257.3206324,1099.458931,1099.855281,nan,nan,8,5,7,2,0,4,nan,nan,nan,nan,nan,nan,0,0,0,0,0,0,nan,nan,nan,nan,nan,nan,nan,nan,nan,nan,nan,nan,nan,nan,nan,nan,nan,nan
1,455,6,1,1,1,1,0.363147163,0,257.3206324,1100.484097,1100.847244,nan,nan,4,1,0,5,7,8,nan,nan,nan,nan,nan,nan,0,0,0,0,0,0,nan,nan,nan,nan,nan,nan,nan,nan,nan,nan,nan,nan,nan,nan,nan,nan,nan,nan
1,456,6,1,1,1,1,0.55404527,0,257.3206324,1101.509218,1102.063264,nan,nan,3,0,2,7,8,1,nan,nan,nan,nan,nan,nan,0,0,0,0,0,0,nan,nan,nan,nan,nan,nan,nan,nan,nan,nan,nan,nan,nan,nan,nan,nan,nan,nan
1,457,6,1,1,1,1,0.632852641,0,257.3206324,1102.534366,1103.167218,nan,nan,7,5,8,4,2,0,nan,nan,nan,nan,nan,nan,0,0,0,0,0,0,nan,nan,nan,nan,nan,nan,nan,nan,nan,nan,nan,nan,nan,nan,nan,nan,nan,nan
1,458,6,1,1,1,1,0.551668131,0,257.3206324,1103.559507,1104.111175,nan,nan,5,1,4,2,0,3,nan,nan,nan,nan,nan,nan,0,0,0,0,0,0,nan,nan,nan,nan,nan,nan,nan,nan,nan,nan,nan,nan,nan,nan,nan,nan,nan,nan
1,459,6,1,1,1,1,0.710555546,0,257.3206324,1104.584612,1105.295167,nan,nan,3,7,5,6,2,1,nan,nan,nan,nan,nan,nan,0,0,0,0,0,0,nan,nan,nan,nan,nan,nan,nan,nan,nan,nan,nan,nan,nan,nan,nan,nan,nan,nan
1,460,6,0,0,1,0,0.413447969,0,257.3206324,1105.609708,1106.023156,nan,nan,8,0,4,5,7,3,nan,nan,nan,nan,nan,nan,0,0,0,0,0,0,nan,nan,nan,nan,nan,nan,nan,nan,nan,nan,nan,nan,nan,nan,nan,nan,nan,nan
1,461,6,1,1,1,1,0.684298681,0,257.3206324,1106.634833,1107.319132,nan,nan,5,3,0,1,8,6,nan,nan,nan,nan,nan,nan,0,0,0,0,0,0,nan,nan,nan,nan,nan,nan,nan,nan,nan,nan,nan,nan,nan,nan,nan,nan,nan,nan
1,462,6,1,1,1,1,0.611160179,0,257.3206324,1107.659964,1108.271124,nan,nan,4,2,1,8,5,7,nan,nan,nan,nan,nan,nan,0,0,0,0,0,0,nan,nan,nan,nan,nan,nan,nan,nan,nan,nan,nan,nan,nan,nan,nan,nan,nan,nan
1,463,6,1,1,1,1,0.666011704,0,257.3206324,1108.685089,1109.351101,nan,nan,0,8,7,6,2,3,nan,nan,nan,nan,nan,nan,0,0,0,0,0,0,nan,nan,nan,nan,nan,nan,nan,nan,nan,nan,nan,nan,nan,nan,nan,nan,nan,nan
1,464,6,1,1,1,1,0.736863728,0,257.3206324,1109.71022,1110.447084,nan,nan,7,3,1,4,6,5,nan,nan,nan,nan,nan,nan,0,0,0,0,0,0,nan,nan,nan,nan,nan,nan,nan,nan,nan,nan,nan,nan,nan,nan,nan,nan,nan,nan
1,465,6,1,1,1,1,0.751719563,0,257.3206324,1110.735343,1111.487062,nan,nan,2,4,3,1,8,7,nan,nan,nan,nan,nan,nan,0,0,0,0,0,0,nan,nan,nan,nan,nan,nan,nan,nan,nan,nan,nan,nan,nan,nan,nan,nan,nan,nan
1,466,6,1,1,nan,nan,nan,0,257.3206324,1111.760477,nan,nan,nan,8,6,0,2,4,3,nan,nan,nan,nan,nan,nan,0,0,0,0,0,0,nan,nan,nan,nan,nan,nan,nan,nan,nan,nan,nan,nan,nan,nan,nan,nan,nan,nan
1,467,6,1,1,1,1,0.645393773,0,257.3206324,1112.785626,1113.43102,nan,nan,6,8,4,0,2,5,nan,nan,nan,nan,nan,nan,0,0,0,0,0,0,nan,nan,nan,nan,nan,nan,nan,nan,nan,nan,nan,nan,nan,nan,nan,nan,nan,nan
1,468,6,1,1,1,1,0.652257199,0,257.3206324,1113.810734,1114.462992,nan,nan,2,4,0,1,7,6,nan,nan,nan,nan,nan,nan,0,0,0,0,0,0,nan,nan,nan,nan,nan,nan,nan,nan,nan,nan,nan,nan,nan,nan,nan,nan,nan,nan
1,469,6,1,1,1,1,0.675108864,0,257.3206324,1114.835875,1115.510984,nan,nan,4,2,6,3,8,1,nan,nan,nan,nan,nan,nan,0,0,0,0,0,0,nan,nan,nan,nan,nan,nan,nan,nan,nan,nan,nan,nan,nan,nan,nan,nan,nan,nan
1,470,6,1,1,1,1,0.521940496,0,257.3206324,1115.861012,1116.382953,nan,nan,3,5,8,6,4,7,nan,nan,nan,nan,nan,nan,0,0,0,0,0,0,nan,nan,nan,nan,nan,nan,nan,nan,nan,nan,nan,nan,nan,nan,nan,nan,nan,nan
1,471,6,1,1,1,1,0.592947327,0,257.3206324,1116.886143,1117.47909,nan,nan,8,4,3,5,1,0,nan,nan,nan,nan,nan,nan,0,0,0,0,0,0,nan,nan,nan,nan,nan,nan,nan,nan,nan,nan,nan,nan,nan,nan,nan,nan,nan,nan
1,472,6,1,1,1,1,0.607667171,0,257.3206324,1117.911272,1118.518939,nan,nan,4,2,0,7,8,5,nan,nan,nan,nan,nan,nan,0,0,0,0,0,0,nan,nan,nan,nan,nan,nan,nan,nan,nan,nan,nan,nan,nan,nan,nan,nan,nan,nan
1,473,6,1,1,1,1,0.766487873,0,257.3206324,1118.936397,1119.702884,nan,nan,7,8,5,3,2,6,nan,nan,nan,nan,nan,nan,0,0,0,0,0,0,nan,nan,nan,nan,nan,nan,nan,nan,nan,nan,nan,nan,nan,nan,nan,nan,nan,nan
1,474,6,0,0,0,1,0.773359851,0,257.3206324,1119.961508,1120.734868,nan,nan,6,3,4,7,8,0,nan,nan,nan,nan,nan,nan,0,0,0,0,0,0,nan,nan,nan,nan,nan,nan,nan,nan,nan,nan,nan,nan,nan,nan,nan,nan,nan,nan
1,475,6,1,1,1,1,0.484195933,0,257.3206324,1120.986656,1121.470852,nan,nan,8,6,7,1,4,3,nan,nan,nan,nan,nan,nan,0,0,0,0,0,0,nan,nan,nan,nan,nan,nan,nan,nan,nan,nan,nan,nan,nan,nan,nan,nan,nan,nan
1,476,6,1,1,1,1,0.763066424,0,257.3206324,1122.01176,1122.774826,nan,nan,2,3,5,6,0,1,nan,nan,nan,nan,nan,nan,0,0,0,0,0,0,nan,nan,nan,nan,nan,nan,nan,nan,nan,nan,nan,nan,nan,nan,nan,nan,nan,nan
1,477,6,1,1,1,1,0.705882235,0,257.3206324,1123.036912,1123.742794,nan,nan,8,7,3,2,5,6,nan,nan,nan,nan,nan,nan,0,0,0,0,0,0,nan,nan,nan,nan,nan,nan,nan,nan,nan,nan,nan,nan,nan,nan,nan,nan,nan,nan
1,478,6,1,1,nan,nan,nan,0,257.3206324,1124.062014,nan,nan,nan,1,4,7,5,3,0,nan,nan,nan,nan,nan,nan,0,0,0,0,0,0,nan,nan,nan,nan,nan,nan,nan,nan,nan,nan,nan,nan,nan,nan,nan,nan,nan,nan
1,479,6,1,1,1,1,0.487579179,0,257.3206324,1125.087167,1125.574746,nan,nan,8,7,0,3,6,1,nan,nan,nan,nan,nan,nan,0,0,0,0,0,0,nan,nan,nan,nan,nan,nan,nan,nan,nan,nan,nan,nan,nan,nan,nan,nan,nan,nan
1,480,6,1,1,1,1,0.558459712,0,257.3206324,1126.112276,1126.670735,nan,nan,6,0,2,4,3,7,nan,nan,nan,nan,nan,nan,0,0,0,0,0,0,nan,nan,nan,nan,nan,nan,nan,nan,nan,nan,nan,nan,nan,nan,nan,nan,nan,nan
1,481,6,0,0,0,1,0.573313551,0,257.3206324,1127.137404,1127.710717,nan,nan,5,1,0,3,4,2,nan,nan,nan,nan,nan,nan,0,0,0,0,0,0,nan,nan,nan,nan,nan,nan,nan,nan,nan,nan,nan,nan,nan,nan,nan,nan,nan,nan
1,482,6,1,1,1,1,0.572161474,0,257.3206324,1128.162532,1128.734694,nan,nan,2,3,5,7,0,6,nan,nan,nan,nan,nan,nan,0,0,0,0,0,0,nan,nan,nan,nan,nan,nan,nan,nan,nan,nan,nan,nan,nan,nan,nan,nan,nan,nan
1,483,6,1,1,1,1,0.706968455,0,257.3206324,1129.187686,1129.894655,nan,nan,7,8,4,2,6,5,nan,nan,nan,nan,nan,nan,0,0,0,0,0,0,nan,nan,nan,nan,nan,nan,nan,nan,nan,nan,nan,nan,nan,nan,nan,nan,nan,nan
1,484,6,1,1,1,1,0.657807467,0,257.3206324,1130.212824,1130.870632,nan,nan,3,2,1,0,4,6,nan,nan,nan,nan,nan,nan,0,0,0,0,0,0,nan,nan,nan,nan,nan,nan,nan,nan,nan,nan,nan,nan,nan,nan,nan,nan,nan,nan
1,485,6,1,1,1,1,0.672689816,0,257.3206324,1131.237941,1131.910631,nan,nan,4,8,2,3,6,0,nan,nan,nan,nan,nan,nan,0,0,0,0,0,0,nan,nan,nan,nan,nan,nan,nan,nan,nan,nan,nan,nan,nan,nan,nan,nan,nan,nan
1,486,6,1,1,1,1,0.671529186,0,257.3206324,1132.263071,1132.9346,nan,nan,2,3,8,1,4,6,nan,nan,nan,nan,nan,nan,0,0,0,0,0,0,nan,nan,nan,nan,nan,nan,nan,nan,nan,nan,nan,nan,nan,nan,nan,nan,nan,nan
1,487,6,1,1,1,1,0.486398592,0,257.3206324,1133.288198,1133.774597,nan,nan,6,5,4,8,0,3,nan,nan,nan,nan,nan,nan,0,0,0,0,0,0,nan,nan,nan,nan,nan,nan,nan,nan,nan,nan,nan,nan,nan,nan,nan,nan,nan,nan
1,488,6,1,1,1,1,0.621261452,0,257.3206324,1134.313338,1134.9346,nan,nan,4,2,7,6,3,1,nan,nan,nan,nan,nan,nan,0,0,0,0,0,0,nan,nan,nan,nan,nan,nan,nan,nan,nan,nan,nan,nan,nan,nan,nan,nan,nan,nan
1,489,6,1,1,1,1,0.524136028,0,257.3206324,1135.338445,1135.862581,nan,nan,5,3,4,8,6,0,nan,nan,nan,nan,nan,nan,0,0,0,0,0,0,nan,nan,nan,nan,nan,nan,nan,nan,nan,nan,nan,nan,nan,nan,nan,nan,nan,nan
1,490,6,1,1,1,1,0.586932921,0,257.3206324,1136.363609,1136.950542,nan,nan,4,0,1,5,2,7,nan,nan,nan,nan,nan,nan,0,0,0,0,0,0,nan,nan,nan,nan,nan,nan,nan,nan,nan,nan,nan,nan,nan,nan,nan,nan,nan,nan
1,491,6,1,1,1,1,0.505774355,0,257.3206324,1137.388737,1137.894511,nan,nan,7,1,2,3,5,8,nan,nan,nan,nan,nan,nan,0,0,0,0,0,0,nan,nan,nan,nan,nan,nan,nan,nan,nan,nan,nan,nan,nan,nan,nan,nan,nan,nan
1,492,6,1,1,1,1,0.416628796,0,257.3206324,1138.413853,1138.830481,nan,nan,0,2,4,7,3,5,nan,nan,nan,nan,nan,nan,0,0,0,0,0,0,nan,nan,nan,nan,nan,nan,nan,nan,nan,nan,nan,nan,nan,nan,nan,nan,nan,nan
1,493,6,1,1,1,1,0.311465632,0,257.3206324,1139.439,1139.750465,nan,nan,4,5,0,2,1,3,nan,nan,nan,nan,nan,nan,0,0,0,0,0,0,nan,nan,nan,nan,nan,nan,nan,nan,nan,nan,nan,nan,nan,nan,nan,nan,nan,nan
1,494,6,1,1,1,1,0.262327452,0,257.3206324,1140.464128,1140.726455,nan,nan,3,1,6,8,7,5,nan,nan,nan,nan,nan,nan,0,0,0,0,0,0,nan,nan,nan,nan,nan,nan,nan,nan,nan,nan,nan,nan,nan,nan,nan,nan,nan,nan
1,495,6,0,0,0,1,0.54920974,0,257.3206324,1141.489201,1142.038411,nan,nan,6,0,2,5,1,7,nan,nan,nan,nan,nan,nan,0,0,0,0,0,0,nan,nan,nan,nan,nan,nan,nan,nan,nan,nan,nan,nan,nan,nan,nan,nan,nan,nan
1,496,6,1,1,1,1,0.451986813,0,257.3206324,1142.514407,1142.966393,nan,nan,2,8,5,3,0,1,nan,nan,nan,nan,nan,nan,0,0,0,0,0,0,nan,nan,nan,nan,nan,nan,nan,nan,nan,nan,nan,nan,nan,nan,nan,nan,nan,nan
1,497,6,1,1,1,1,0.418861961,0,257.3206324,1143.53951,1143.958372,nan,nan,6,0,8,4,7,2,nan,nan,nan,nan,nan,nan,0,0,0,0,0,0,nan,nan,nan,nan,nan,nan,nan,nan,nan,nan,nan,nan,nan,nan,nan,nan,nan,nan
1,498,6,1,1,1,1,0.449708317,0,257.3206324,1144.564648,1145.014356,nan,nan,3,1,0,7,4,6,nan,nan,nan,nan,nan,nan,0,0,0,0,0,0,nan,nan,nan,nan,nan,nan,nan,nan,nan,nan,nan,nan,nan,nan,nan,nan,nan,nan
1,499,6,0,0,0,1,0.560600791,0,257.3206324,1145.589745,1146.150346,nan,nan,6,5,4,8,1,0,nan,nan,nan,nan,nan,nan,0,0,0,0,0,0,nan,nan,nan,nan,nan,nan,nan,nan,nan,nan,nan,nan,nan,nan,nan,nan,nan,nan
1,500,6,1,1,1,1,0.591430611,0,257.3206324,1146.614867,1147.206298,nan,nan,5,4,2,6,7,1,nan,nan,nan,nan,nan,nan,0,0,0,0,0,0,nan,nan,nan,nan,nan,nan,nan,nan,nan,nan,nan,nan,nan,nan,nan,nan,nan,nan
1,501,6,1,1,1,1,0.526283663,0,257.3206324,1147.640027,1148.16631,nan,nan,8,6,1,3,0,7,nan,nan,nan,nan,nan,nan,0,0,0,0,0,0,nan,nan,nan,nan,nan,nan,nan,nan,nan,nan,nan,nan,nan,nan,nan,nan,nan,nan
1,502,6,1,1,1,1,0.597092638,0,257.3206324,1148.665177,1149.26227,nan,nan,0,1,5,6,8,4,nan,nan,nan,nan,nan,nan,0,0,0,0,0,0,nan,nan,nan,nan,nan,nan,nan,nan,nan,nan,nan,nan,nan,nan,nan,nan,nan,nan
1,503,6,1,1,1,1,0.492003314,0,257.3206324,1149.690249,1150.182252,nan,nan,4,5,0,2,7,3,nan,nan,nan,nan,nan,nan,0,0,0,0,0,0,nan,nan,nan,nan,nan,nan,nan,nan,nan,nan,nan,nan,nan,nan,nan,nan,nan,nan
1,504,6,1,1,1,1,0.514862962,0,257.3206324,1150.715382,1151.230245,nan,nan,0,7,6,5,3,4,nan,nan,nan,nan,nan,nan,0,0,0,0,0,0,nan,nan,nan,nan,nan,nan,nan,nan,nan,nan,nan,nan,nan,nan,nan,nan,nan,nan
1,505,6,1,1,1,1,0.489729665,0,257.3206324,1151.740502,1152.230231,nan,nan,7,6,2,8,1,0,nan,nan,nan,nan,nan,nan,0,0,0,0,0,0,nan,nan,nan,nan,nan,nan,nan,nan,nan,nan,nan,nan,nan,nan,nan,nan,nan,nan
1,506,6,1,1,1,1,0.416577479,0,257.3206324,1152.765668,1153.182245,nan,nan,0,2,1,7,5,3,nan,nan,nan,nan,nan,nan,0,0,0,0,0,0,nan,nan,nan,nan,nan,nan,nan,nan,nan,nan,nan,nan,nan,nan,nan,nan,nan,nan
1,507,6,0,0,0,1,0.583445044,0,257.3206324,1153.790757,1154.374202,nan,nan,1,3,6,4,2,8,nan,nan,nan,nan,nan,nan,0,0,0,0,0,0,nan,nan,nan,nan,nan,nan,nan,nan,nan,nan,nan,nan,nan,nan,nan,nan,nan,nan
1,508,6,1,1,1,1,0.534223615,0,257.3206324,1154.815929,1155.350153,nan,nan,7,5,0,8,6,4,nan,nan,nan,nan,nan,nan,0,0,0,0,0,0,nan,nan,nan,nan,nan,nan,nan,nan,nan,nan,nan,nan,nan,nan,nan,nan,nan,nan
1,509,6,1,1,1,1,0.621134583,0,257.3206324,1155.841007,1156.462141,nan,nan,3,7,4,5,1,8,nan,nan,nan,nan,nan,nan,0,0,0,0,0,0,nan,nan,nan,nan,nan,nan,nan,nan,nan,nan,nan,nan,nan,nan,nan,nan,nan,nan
1,510,6,1,1,1,1,0.731944379,0,257.3206324,1156.866163,1157.598108,nan,nan,2,3,8,0,4,1,nan,nan,nan,nan,nan,nan,0,0,0,0,0,0,nan,nan,nan,nan,nan,nan,nan,nan,nan,nan,nan,nan,nan,nan,nan,nan,nan,nan
1,511,6,1,1,1,1,0.730818246,0,257.3206324,1157.891269,1158.622088,nan,nan,0,5,1,4,6,7,nan,nan,nan,nan,nan,nan,0,0,0,0,0,0,nan,nan,nan,nan,nan,nan,nan,nan,nan,nan,nan,nan,nan,nan,nan,nan,nan,nan
1,512,6,1,1,nan,nan,nan,0,257.3206324,1158.916406,nan,nan,nan,7,4,8,1,2,6,nan,nan,nan,nan,nan,nan,0,0,0,0,0,0,nan,nan,nan,nan,nan,nan,nan,nan,nan,nan,nan,nan,nan,nan,nan,nan,nan,nan
