block,trial,freq_trials,correct_response,actual_response,acc,rts,probe_trials,fast_rt_trigger,slow_rt_trigger,rt_triggered,rts_runningavg,rts_runningstd,rts_runningfastthresh,rts_runningslowthresh,rts_runningstd,rts_trailingavg,trials_colorind,trials_colorrgb0,trials_colorrgb1,trials_colorrgb2,wm_respdeg,wm_respdeg_in_colorspace,wm_respcolorminusorigcolor,wm_resptexind,wm_resptexrgb0,wm_resptexrgb1,wm_resptexrgb2,wm_rts,time_blockstart,time_encarray_offset,time_encarray_onset,time_response,time_iti_offset,time_iti_onset,time_memprobe_offset,time_memprobe_onset
1,1,1,1,1.0,1.0,0.752057468751,0,nan,nan,nan,nan,nan,nan,nan,nan,nan,126,1.0,-0.311411754845,-0.177408431044,nan,nan,nan,nan,nan,nan,nan,nan,278.651339796,279.667215097,nan,280.419272566,nan,nan,nan,nan
1,2,0,0,0.0,1.0,0.657315698918,0,nan,nan,nan,nan,nan,nan,nan,nan,nan,449,0.328095008353,0.407646248688,-1.0,nan,nan,nan,nan,nan,nan,nan,nan,278.651339796,280.609938969,nan,281.267254668,nan,nan,nan,nan
1,3,1,1,1.0,1.0,0.42043974949,0,nan,nan,nan,nan,nan,nan,nan,nan,nan,72,1.0,-0.149607777062,-0.853203742106,nan,nan,nan,nan,nan,nan,nan,nan,278.651339796,281.550802874,nan,281.971242623,nan,nan,nan,nan
1,4,1,1,1.0,1.0,0.390616968274,0,nan,nan,nan,nan,nan,nan,nan,nan,nan,218,0.881467392804,0.0788246127756,0.572559633417,nan,nan,nan,nan,nan,nan,nan,nan,278.651339796,282.492615579,nan,282.883232547,nan,nan,nan,nan
1,5,1,1,1.0,1.0,0.336797633208,0,nan,nan,nan,nan,nan,nan,nan,nan,nan,459,0.407758158413,0.385709174134,-1.0,nan,nan,nan,nan,nan,nan,nan,nan,278.651339796,283.434410893,nan,283.771208526,nan,nan,nan,nan
1,6,1,1,1.0,1.0,0.290991499322,0,nan,nan,nan,nan,nan,nan,nan,nan,nan,302,0.027086081288,0.400300843718,0.517770016443,nan,nan,nan,nan,nan,nan,nan,nan,278.651339796,284.376203926,nan,284.667195425,nan,nan,nan,nan
1,7,1,1,1.0,1.0,0.33316921303,0,nan,nan,nan,nan,nan,nan,nan,nan,nan,153,1.0,-0.255547855702,0.0926213922694,nan,nan,nan,nan,nan,nan,nan,nan,278.651339796,285.31798356,nan,285.651152773,nan,nan,nan,nan
1,8,1,1,1.0,1.0,0.335350769805,0,nan,nan,nan,nan,nan,nan,nan,nan,nan,19,0.99625917486,0.126374530333,-1.0,nan,nan,nan,nan,nan,nan,nan,nan,278.651339796,286.259791988,nan,286.595142758,nan,nan,nan,nan
1,9,1,1,1.0,1.0,0.289542925078,0,nan,nan,nan,nan,nan,nan,nan,nan,nan,437,0.23613482661,0.429770237144,-1.0,nan,nan,nan,nan,nan,nan,nan,nan,278.651339796,287.20156763,nan,287.491110555,nan,nan,nan,nan
1,10,1,1,1.0,1.0,0.323754193494,0,nan,nan,nan,nan,nan,nan,nan,nan,nan,492,0.681403316433,0.289222019555,-1.0,nan,nan,nan,nan,nan,nan,nan,nan,278.651339796,288.143340707,nan,288.4670949,nan,nan,nan,nan
1,11,1,1,1.0,1.0,0.373930853326,0,nan,nan,nan,nan,nan,nan,nan,nan,nan,135,1.0,-0.303502321856,-0.0849788702499,nan,nan,nan,nan,nan,nan,nan,nan,278.651339796,289.085153412,nan,289.459084265,nan,nan,nan,nan
1,12,1,1,1.0,1.0,0.32009042101,0,nan,nan,nan,nan,nan,nan,nan,nan,nan,380,-0.109519508899,0.478533032186,-0.177177385375,nan,nan,nan,nan,nan,nan,nan,nan,278.651339796,290.026957849,nan,290.34704827,nan,nan,nan,nan
1,13,1,1,1.0,1.0,0.330273204716,0,nan,nan,nan,nan,nan,nan,nan,nan,nan,429,0.177531820842,0.442080780324,-0.901885199234,nan,nan,nan,nan,nan,nan,nan,nan,278.651339796,290.968766562,nan,291.299039767,nan,nan,nan,nan
1,14,1,1,1.0,1.0,0.236463129753,1,nan,nan,nan,nan,nan,nan,nan,nan,nan,289,0.140592130943,0.368073254824,0.582505265782,-100.690238276,190.690238276,-12.5128867235,271.0,0.320642857732,0.312811632898,0.639400143054,2.35062081134,278.651339796,291.910537643,292.718966629,292.147000773,296.102792889,297.105213356,293.735724873,296.094373995
1,15,1,1,1.0,1.0,0.582292328123,0,nan,nan,nan,nan,nan,nan,nan,nan,nan,465,0.456588679398,0.37096152752,-1.0,nan,nan,nan,nan,nan,nan,nan,nan,278.651339796,297.244587233,nan,297.826879561,nan,nan,nan,nan
1,16,1,1,1.0,1.0,0.376477618469,0,nan,nan,nan,nan,nan,nan,nan,nan,nan,394,-0.0437090198531,0.474655926729,-0.339401417396,nan,nan,nan,nan,nan,nan,nan,nan,278.651339796,298.186383117,nan,298.562860736,nan,nan,nan,nan
1,17,1,1,1.0,1.0,0.282661841484,0,nan,nan,nan,nan,nan,nan,nan,nan,nan,336,-0.158211608236,0.456758111158,0.268135266647,nan,nan,nan,nan,nan,nan,nan,nan,278.651339796,299.128176721,nan,299.410838562,nan,nan,nan,nan
1,18,1,1,1.0,1.0,0.252858731663,0,nan,nan,nan,nan,nan,nan,nan,nan,nan,468,0.481236483515,0.363131620867,-1.0,nan,nan,nan,nan,nan,nan,nan,nan,278.651339796,300.06997232,nan,300.322831052,nan,nan,nan,nan
1,19,1,1,1.0,1.0,0.239014171297,0,nan,nan,nan,nan,nan,nan,nan,nan,nan,260,0.438016636947,0.272781976488,0.654406567654,nan,nan,nan,nan,nan,nan,nan,nan,278.651339796,301.011783599,nan,301.250797771,nan,nan,nan,nan
1,20,1,1,1.0,1.0,0.241232220316,0,nan,nan,nan,nan,nan,nan,nan,nan,nan,69,1.0,-0.134207199312,-0.939648005704,nan,nan,nan,nan,nan,nan,nan,nan,278.651339796,301.953555536,nan,302.194787756,nan,nan,nan,nan
1,21,0,0,0.0,1.0,0.371373824775,0,nan,nan,nan,nan,nan,nan,nan,nan,nan,163,1.0,-0.214247802105,0.185723682048,nan,nan,nan,nan,nan,nan,nan,nan,278.651339796,302.895377934,nan,303.266751758,nan,nan,nan,nan
1,22,1,1,1.0,1.0,0.469538460486,0,nan,nan,nan,nan,nan,nan,nan,nan,nan,1,0.854939129564,0.207877072944,-1.0,nan,nan,nan,nan,nan,nan,nan,nan,278.651339796,303.837198621,nan,304.306737082,nan,nan,nan,nan
1,23,1,1,1.0,1.0,0.471788155148,0,nan,nan,nan,nan,nan,nan,nan,nan,nan,379,-0.113535935895,0.478614986251,-0.165970515924,nan,nan,nan,nan,nan,nan,nan,nan,278.651339796,304.7789181,nan,305.250706255,nan,nan,nan,nan
1,24,1,1,1.0,1.0,0.321949534118,0,nan,nan,nan,nan,nan,nan,nan,nan,nan,304,0.0113092810281,0.404708921832,0.506160370659,nan,nan,nan,nan,nan,nan,nan,nan,278.651339796,305.720738787,nan,306.042688321,nan,nan,nan,nan
1,25,1,1,1.0,1.0,0.300163046457,0,nan,nan,nan,nan,nan,nan,nan,nan,nan,459,0.407758158413,0.385709174134,-1.0,nan,nan,nan,nan,nan,nan,nan,nan,278.651339796,306.662510438,nan,306.962673485,nan,nan,nan,nan
1,26,1,1,1.0,1.0,0.302334910026,0,nan,nan,nan,nan,nan,nan,nan,nan,nan,12,0.942476689623,0.159273951266,-1.0,nan,nan,nan,nan,nan,nan,nan,nan,278.651339796,307.604320577,nan,307.906655487,nan,nan,nan,nan
1,27,1,1,1.0,1.0,0.288510021288,0,nan,nan,nan,nan,nan,nan,nan,nan,nan,131,1.0,-0.308451667147,-0.125800503078,nan,nan,nan,nan,nan,nan,nan,nan,278.651339796,308.546119027,nan,308.834629048,nan,nan,nan,nan
1,28,1,1,1.0,1.0,0.266687041381,0,nan,nan,nan,nan,nan,nan,nan,nan,nan,390,-0.0641960347588,0.476284203309,-0.291947553613,nan,nan,nan,nan,nan,nan,nan,nan,278.651339796,309.487908069,nan,309.75459511,nan,nan,nan,nan
1,29,0,0,1.0,0.0,0.300908858422,0,0.0,0.0,0.0,nan,nan,nan,nan,nan,nan,116,1.0,-0.306446923025,-0.282515442494,nan,nan,nan,nan,nan,nan,nan,nan,278.651339796,310.429703953,nan,310.730612812,nan,nan,nan,nan
1,30,1,1,1.0,1.0,0.591057613026,0,nan,nan,nan,nan,nan,nan,nan,nan,nan,11,0.934659501434,0.163852895862,-1.0,nan,nan,nan,nan,nan,nan,nan,nan,278.651339796,311.371496986,nan,311.962554599,nan,nan,nan,nan
1,31,1,1,1.0,1.0,0.465238353238,0,nan,nan,nan,nan,nan,nan,nan,nan,nan,322,-0.105067232891,0.43811622051,0.383559350674,nan,nan,nan,nan,nan,nan,nan,nan,278.651339796,312.313293726,nan,312.778532079,nan,nan,nan,nan
1,32,1,1,1.0,1.0,0.331426704535,0,nan,nan,nan,nan,nan,nan,nan,nan,nan,449,0.328095008353,0.407646248688,-1.0,nan,nan,nan,nan,nan,nan,nan,nan,278.651339796,313.255085048,nan,313.586511753,nan,nan,nan,nan
1,33,1,1,1.0,1.0,0.397614656482,0,nan,nan,nan,nan,nan,nan,nan,nan,nan,40,1.0,0.0201165467467,-1.0,nan,nan,nan,nan,nan,nan,nan,nan,278.651339796,314.196880933,nan,314.594495589,nan,nan,nan,nan
1,34,1,1,1.0,1.0,0.487794030458,0,nan,nan,nan,nan,nan,nan,nan,nan,nan,407,0.0305886347219,0.46645515455,-0.502577406972,nan,nan,nan,nan,nan,nan,nan,nan,278.651339796,315.13867026,nan,315.62646429,nan,nan,nan,nan
1,35,1,1,1.0,1.0,0.473993945168,0,nan,nan,nan,nan,nan,nan,nan,nan,nan,64,1.0,-0.108036866323,-1.0,nan,nan,nan,nan,nan,nan,nan,nan,278.651339796,316.08045588,nan,316.554449826,nan,nan,nan,nan
1,36,0,0,0.0,1.0,0.51616481645,0,nan,nan,nan,nan,nan,nan,nan,nan,nan,158,1.0,-0.235949227405,0.139764106,nan,nan,nan,nan,nan,nan,nan,nan,278.651339796,317.022252905,nan,317.538417721,nan,nan,nan,nan
1,37,1,1,1.0,1.0,0.438347502146,0,nan,nan,nan,nan,nan,nan,nan,nan,nan,88,1.0,-0.225257592204,-0.599932847766,nan,nan,nan,nan,nan,nan,nan,nan,278.651339796,317.964052781,nan,318.402400283,nan,nan,nan,nan
1,38,1,1,1.0,1.0,0.5845374614,0,nan,nan,nan,nan,nan,nan,nan,nan,nan,317,-0.077772836126,0.429938605076,0.420733606481,nan,nan,nan,nan,nan,nan,nan,nan,278.651339796,318.905844958,nan,319.49038242,nan,nan,nan,nan
1,39,1,1,1.0,1.0,0.42672013538,0,nan,nan,nan,nan,nan,nan,nan,nan,nan,126,1.0,-0.311411754845,-0.177408431044,nan,nan,nan,nan,nan,nan,nan,nan,278.651339796,319.847645119,nan,320.274365254,nan,nan,nan,nan
1,40,1,1,1.0,1.0,0.420908447821,0,nan,nan,nan,nan,nan,nan,nan,nan,nan,253,0.513865899396,0.244839928328,0.655977188727,nan,nan,nan,nan,nan,nan,nan,nan,278.651339796,320.789428174,nan,321.210336622,nan,nan,nan,nan
1,41,1,1,1.0,1.0,0.415091913659,0,nan,nan,nan,nan,nan,nan,nan,nan,nan,64,1.0,-0.108036866323,-1.0,nan,nan,nan,nan,nan,nan,nan,nan,278.651339796,321.731228334,nan,322.146320248,nan,nan,nan,nan
1,42,1,1,1.0,1.0,0.329257691978,0,nan,nan,nan,nan,nan,nan,nan,nan,nan,261,0.427225806086,0.276617811781,0.653674462902,nan,nan,nan,nan,nan,nan,nan,nan,278.651339796,322.673025359,nan,323.002283051,nan,nan,nan,nan
1,43,1,1,1.0,1.0,0.379462861456,0,nan,nan,nan,nan,nan,nan,nan,nan,nan,120,1.0,-0.310161497659,-0.240162905937,nan,nan,nan,nan,nan,nan,nan,nan,278.651339796,323.614815541,nan,323.994278403,nan,nan,nan,nan
1,44,1,1,1.0,1.0,0.349650058663,0,nan,nan,nan,nan,nan,nan,nan,nan,nan,407,0.0305886347219,0.46645515455,-0.502577406972,nan,nan,nan,nan,nan,nan,nan,nan,278.651339796,324.556610285,nan,324.906260344,nan,nan,nan,nan
1,45,1,1,1.0,1.0,0.35187837109,0,nan,nan,nan,nan,nan,nan,nan,nan,nan,153,1.0,-0.255547855702,0.0926213922694,nan,nan,nan,nan,nan,nan,nan,nan,278.651339796,325.49836255,nan,325.850240921,nan,nan,nan,nan
1,46,1,1,1.0,1.0,0.330018613953,0,nan,nan,nan,nan,nan,nan,nan,nan,nan,308,-0.0186828559465,0.413097475488,0.481682330771,nan,nan,nan,nan,nan,nan,nan,nan,278.651339796,326.440201483,nan,326.770220097,nan,nan,nan,nan
1,47,1,1,1.0,1.0,0.30808672728,0,nan,nan,nan,nan,nan,nan,nan,nan,nan,498,0.731507943485,0.267561876527,-1.0,nan,nan,nan,nan,nan,nan,nan,nan,278.651339796,327.381984538,nan,327.690071265,nan,nan,nan,nan
1,48,1,1,1.0,1.0,0.31038032705,1,nan,nan,nan,nan,nan,nan,nan,nan,nan,202,1.0,-0.00802826454356,0.487596984314,-43.3750236425,133.375023642,-8.65622635752,190.0,1.0,-0.0746884387243,0.407399635172,2.31741764373,278.651339796,328.323783273,329.132195723,328.6341636,332.482642911,333.487605297,330.148966797,332.474312398
1,49,1,1,1.0,1.0,0.569208119297,0,nan,nan,nan,nan,nan,nan,nan,nan,nan,82,1.0,-0.198479155091,-0.679872484948,nan,nan,nan,nan,nan,nan,nan,nan,278.651339796,333.632835907,nan,334.202044026,nan,nan,nan,nan
1,50,1,1,1.0,1.0,0.467392825987,0,nan,nan,nan,nan,nan,nan,nan,nan,nan,149,1.0,-0.269478519393,0.0541436597792,nan,nan,nan,nan,nan,nan,nan,nan,278.651339796,334.574629795,nan,335.042022621,nan,nan,nan,nan
1,51,1,1,1.0,1.0,0.309577210806,0,nan,nan,nan,nan,nan,nan,nan,nan,nan,379,-0.113535935895,0.478614986251,-0.165970515924,nan,nan,nan,nan,nan,nan,nan,nan,278.651339796,335.516419978,nan,335.825997188,nan,nan,nan,nan
1,52,1,1,1.0,1.0,0.247767482186,0,nan,nan,nan,nan,nan,nan,nan,nan,nan,129,1.0,-0.310070485259,-0.146368003411,nan,nan,nan,nan,nan,nan,nan,nan,278.651339796,336.458212156,nan,336.705979638,nan,nan,nan,nan
1,53,1,1,1.0,1.0,0.281964780763,0,nan,nan,nan,nan,nan,nan,nan,nan,nan,42,1.0,0.00954878589686,-1.0,nan,nan,nan,nan,nan,nan,nan,nan,278.651339796,337.40000747,nan,337.68197225,nan,nan,nan,nan
1,54,1,1,1.0,1.0,0.284125525737,1,nan,nan,nan,nan,nan,nan,nan,nan,nan,110,1.0,-0.296722754836,-0.346921960777,-20.7255588656,110.725558866,33.3818088656,157.0,1.0,-0.240048375319,0.130425901556,1.78383458476,278.651339796,338.341809626,339.150215804,338.625935151,341.967327966,342.972189998,340.167011111,341.958889687
1,55,1,1,1.0,1.0,0.49237923394,0,nan,nan,nan,nan,nan,nan,nan,nan,nan,357,-0.1717918326,0.473767524415,0.068739031695,nan,nan,nan,nan,nan,nan,nan,nan,278.651339796,343.117445412,nan,343.609824646,nan,nan,nan,nan
1,56,1,1,1.0,1.0,0.422577971593,0,nan,nan,nan,nan,nan,nan,nan,nan,nan,131,1.0,-0.308451667147,-0.125800503078,nan,nan,nan,nan,nan,nan,nan,nan,278.651339796,344.059220199,nan,344.481798171,nan,nan,nan,nan
1,57,1,1,1.0,1.0,0.408749946859,0,nan,nan,nan,nan,nan,nan,nan,nan,nan,73,1.0,-0.1546788618,-0.830916872461,nan,nan,nan,nan,nan,nan,nan,nan,278.651339796,345.001029198,nan,345.409779144,nan,nan,nan,nan
1,58,0,0,0.0,1.0,0.538929469185,0,nan,nan,nan,nan,nan,nan,nan,nan,nan,260,0.438016636947,0.272781976488,0.654406567654,nan,nan,nan,nan,nan,nan,nan,nan,278.651339796,345.942826222,nan,346.481755691,nan,nan,nan,nan
1,59,1,1,1.0,1.0,0.4291186505,0,nan,nan,nan,nan,nan,nan,nan,nan,nan,352,-0.17544712699,0.470851603012,0.118673592819,nan,nan,nan,nan,nan,nan,nan,nan,278.651339796,346.884615549,nan,347.3137342,nan,nan,nan,nan
1,60,1,1,1.0,1.0,0.503281885991,0,nan,nan,nan,nan,nan,nan,nan,nan,nan,74,1.0,-0.159715158178,-0.810443278181,nan,nan,nan,nan,nan,nan,nan,nan,278.651339796,347.826430249,nan,348.329712135,nan,nan,nan,nan
1,61,1,1,1.0,1.0,0.34549877164,0,nan,nan,nan,nan,nan,nan,nan,nan,nan,386,-0.0833946583454,0.477495592553,-0.245424736514,nan,nan,nan,nan,nan,nan,nan,nan,278.651339796,348.768204466,nan,349.113703238,nan,nan,nan,nan
1,62,1,1,1.0,1.0,0.403658412397,0,nan,nan,nan,nan,nan,nan,nan,nan,nan,311,-0.0397249783266,0.419020224334,0.462250212202,nan,nan,nan,nan,nan,nan,nan,nan,278.651339796,349.710009759,nan,350.113668171,nan,nan,nan,nan
1,63,0,0,1.0,0.0,0.389847493498,0,0.0,0.0,0.0,nan,nan,nan,nan,nan,nan,16,0.973419431522,0.140652110383,-1.0,nan,nan,nan,nan,nan,nan,nan,nan,278.651339796,350.651794524,nan,351.041642018,nan,nan,nan,nan
1,64,1,1,1.0,1.0,0.504028267926,0,nan,nan,nan,nan,nan,nan,nan,nan,nan,470,0.497741612616,0.357740777197,-1.0,nan,nan,nan,nan,nan,nan,nan,nan,278.651339796,351.593578434,nan,352.097606702,nan,nan,nan,nan
1,65,1,1,1.0,1.0,0.466216518776,0,nan,nan,nan,nan,nan,nan,nan,nan,nan,335,-0.155595990888,0.455627721073,0.276893227044,nan,nan,nan,nan,nan,nan,nan,nan,278.651339796,352.535373748,nan,353.001590267,nan,nan,nan,nan
1,66,1,1,1.0,1.0,0.356418244075,0,nan,nan,nan,nan,nan,nan,nan,nan,nan,492,0.681403316433,0.289222019555,-1.0,nan,nan,nan,nan,nan,nan,nan,nan,278.651339796,353.477167352,nan,353.833585596,nan,nan,nan,nan
1,67,1,1,1.0,1.0,0.454588866793,0,nan,nan,nan,nan,nan,nan,nan,nan,nan,129,1.0,-0.310070485259,-0.146368003411,nan,nan,nan,nan,nan,nan,nan,nan,278.651339796,354.418965517,nan,354.873554384,nan,nan,nan,nan
1,68,1,1,1.0,1.0,0.424776634201,0,nan,nan,nan,nan,nan,nan,nan,nan,nan,467,0.473005185182,0.365775667588,-1.0,nan,nan,nan,nan,nan,nan,nan,nan,278.651339796,355.360760831,nan,355.785537465,nan,nan,nan,nan
1,69,0,0,0.0,1.0,0.442952092038,0,nan,nan,nan,nan,nan,nan,nan,nan,nan,235,0.707591924495,0.164537776567,0.631659631194,nan,nan,nan,nan,nan,nan,nan,nan,278.651339796,356.302557285,nan,356.745509377,nan,nan,nan,nan
1,70,1,1,1.0,1.0,0.341140219942,0,nan,nan,nan,nan,nan,nan,nan,nan,nan,417,0.0945046041228,0.457053563907,-0.645720198395,nan,nan,nan,nan,nan,nan,nan,nan,278.651339796,357.244350033,nan,357.585490253,nan,nan,nan,nan
1,71,1,1,1.0,1.0,0.439317684853,0,nan,nan,nan,nan,nan,nan,nan,nan,nan,275,0.279002393219,0.326185254474,0.630178474337,nan,nan,nan,nan,nan,nan,nan,nan,278.651339796,358.186157036,nan,358.625474721,nan,nan,nan,nan
1,72,1,1,1.0,1.0,0.457508252934,0,nan,nan,nan,nan,nan,nan,nan,nan,nan,210,0.958022500947,0.0359304984579,0.533421856807,nan,nan,nan,nan,nan,nan,nan,nan,278.651339796,359.127935529,nan,359.585443782,nan,nan,nan,nan
1,73,1,1,1.0,1.0,0.459355961997,1,nan,nan,nan,nan,nan,nan,nan,nan,nan,158,1.0,-0.235949227405,0.139764106,-8.28579702395,98.285797024,-12.807952976,140.0,1.0,-0.294209249228,-0.0345777392028,2.68399443827,278.651339796,360.078055655,360.886488632,360.537411617,364.611937209,365.609286954,361.911578245,364.603609832
1,74,1,1,nan,nan,nan,0,nan,nan,nan,nan,nan,nan,nan,nan,nan,320,-0.0946500390753,0.43494401576,0.398701238857,nan,nan,nan,nan,nan,nan,nan,nan,278.651339796,365.753824495,nan,nan,nan,nan,nan,nan
1,75,0,0,1.0,0.0,0.137717467966,0,0.0,0.0,0.0,nan,nan,nan,nan,nan,nan,389,-0.0691208065164,0.476626077068,-0.280234315682,nan,nan,nan,nan,nan,nan,nan,nan,278.651339796,366.695616103,nan,366.833333571,nan,nan,nan,nan
1,76,1,1,1.0,1.0,0.427835432114,0,nan,nan,nan,nan,nan,nan,nan,nan,nan,463,0.440238315199,0.376011795327,-1.0,nan,nan,nan,nan,nan,nan,nan,nan,278.651339796,367.637410277,nan,368.065245709,nan,nan,nan,nan
1,77,1,1,1.0,1.0,0.406024711672,0,nan,nan,nan,nan,nan,nan,nan,nan,nan,163,1.0,-0.214247802105,0.185723682048,nan,nan,nan,nan,nan,nan,nan,nan,278.651339796,368.579212718,nan,368.98523743,nan,nan,nan,nan
1,78,1,1,1.0,1.0,0.336208909517,0,nan,nan,nan,nan,nan,nan,nan,nan,nan,459,0.407758158413,0.385709174134,-1.0,nan,nan,nan,nan,nan,nan,nan,nan,278.651339796,369.521000334,nan,369.857209244,nan,nan,nan,nan
1,79,1,1,1.0,1.0,0.314401324838,0,nan,nan,nan,nan,nan,nan,nan,nan,nan,316,-0.0718215561597,0.428203514031,0.427892255365,nan,nan,nan,nan,nan,nan,nan,nan,278.651339796,370.462793368,nan,370.777194693,nan,nan,nan,nan
1,80,1,1,1.0,1.0,0.324577836553,0,nan,nan,nan,nan,nan,nan,nan,nan,nan,19,0.99625917486,0.126374530333,-1.0,nan,nan,nan,nan,nan,nan,nan,nan,278.651339796,371.404590962,nan,371.729168799,nan,nan,nan,nan
1,81,1,1,1.0,1.0,0.366773796268,0,0.0,0.0,0.0,0.38928304974,0.104107616969,0.28517543277,0.493390666709,0.104107616969,0.335250985886,73,1.0,-0.1546788618,-0.830916872461,nan,nan,nan,nan,nan,nan,nan,nan,278.651339796,372.346380289,nan,372.713154086,nan,nan,nan,nan
1,82,1,1,1.0,1.0,0.320944854524,0,0.0,0.0,0.0,0.389001684071,0.103485120315,0.285516563756,0.492486804387,0.103485120315,0.337432162448,470,0.497741612616,0.357740777197,-1.0,nan,nan,nan,nan,nan,nan,nan,nan,278.651339796,373.288175603,nan,373.609120458,nan,nan,nan,nan
1,83,1,1,1.0,1.0,0.291134617524,0,0.0,0.0,0.0,0.388161476299,0.103118543812,0.285042932487,0.491280020111,0.103118543812,0.326284422772,215,0.910639861846,0.0628947364355,0.558695148714,nan,nan,nan,nan,nan,nan,nan,nan,278.651339796,374.229972058,nan,374.521106675,nan,nan,nan,nan
1,84,1,1,1.0,1.0,0.293326152721,0,0.0,0.0,0.0,0.386978221924,0.103039630321,0.283938591603,0.490017852245,0.103039630321,0.301801874923,312,-0.0464483572634,0.420925197877,0.455573212045,nan,nan,nan,nan,nan,nan,nan,nan,278.651339796,375.171762525,nan,375.465088678,nan,nan,nan,nan
1,85,1,1,1.0,1.0,0.359510683455,0,0.0,0.0,0.0,0.385849883741,0.102925438156,0.282924445584,0.488775321897,0.102925438156,0.314657151233,398,-0.0220377755791,0.472608796233,-0.387943383198,nan,nan,nan,nan,nan,nan,nan,nan,278.651339796,376.113554988,nan,376.473065672,nan,nan,nan,nan
1,86,1,1,1.0,1.0,0.361693380633,0,0.0,0.0,0.0,0.385536321832,0.102350826266,0.283185495567,0.487887148098,0.102350826266,0.338176738936,432,0.199227897075,0.437687328843,-1.0,nan,nan,nan,nan,nan,nan,nan,nan,278.651339796,377.055348306,nan,377.417041687,nan,nan,nan,nan
1,87,0,0,0.0,1.0,0.515856342157,0,0.0,0.0,0.0,0.385255816642,0.101779455647,0.283476360994,0.487035272289,0.101779455647,0.412353468748,212,0.93926288676,0.0467731277665,0.543851001166,nan,nan,nan,nan,nan,nan,nan,nan,278.651339796,377.997145331,nan,378.513001673,nan,nan,nan,nan
1,88,1,1,1.0,1.0,0.478057992645,0,0.0,0.0,0.0,0.386774427404,0.10215002995,0.284624397454,0.488924457353,0.10215002995,0.451869238478,365,-0.157962026257,0.477016591838,-0.0139196855225,nan,nan,nan,nan,nan,nan,nan,nan,278.651339796,378.938936654,nan,379.416994646,nan,nan,nan,nan
1,89,1,1,1.0,1.0,0.488251610193,0,0.0,0.0,0.0,0.387823663786,0.102026307879,0.285797355906,0.489849971665,0.102026307879,0.494055314998,187,1.0,-0.0912463489427,0.385383214542,nan,nan,nan,nan,nan,nan,nan,nan,278.651339796,379.880723129,nan,380.36897474,nan,nan,nan,nan
1,90,0,0,0.0,1.0,0.450420474168,0,0.0,0.0,0.0,0.388964890449,0.102001901376,0.286962989073,0.490966791826,0.102001901376,0.472243359002,98,1.0,-0.263822910468,-0.480217789416,nan,nan,nan,nan,nan,nan,nan,nan,278.651339796,380.82252386,nan,381.272944335,nan,nan,nan,nan
1,91,1,1,1.0,1.0,0.404626314295,0,0.0,0.0,0.0,0.389655402626,0.101633870691,0.288021531935,0.491289273317,0.101633870691,0.447766132886,246,0.589768841079,0.215019897151,0.651339528662,nan,nan,nan,nan,nan,nan,nan,nan,278.651339796,381.764317464,nan,382.168943778,nan,nan,nan,nan
1,92,1,1,1.0,1.0,0.358808206394,0,0.0,0.0,0.0,0.389821746089,0.101079843284,0.288741902805,0.490901589373,0.101079843284,0.404618331619,353,-0.175041255135,0.471490071959,0.108799216003,nan,nan,nan,nan,nan,nan,nan,nan,278.651339796,382.706106221,nan,383.064914427,nan,nan,nan,nan
1,93,1,1,1.0,1.0,0.352976276772,0,0.0,0.0,0.0,0.389480937961,0.100574907551,0.28890603041,0.490055845512,0.100574907551,0.372136932487,300,0.0433537089178,0.395748422077,0.528951029102,nan,nan,nan,nan,nan,nan,nan,nan,278.651339796,383.64790125,nan,384.000877526,nan,nan,nan,nan
1,94,1,1,1.0,1.0,0.339153098641,0,0.0,0.0,0.0,0.389084148165,0.100098402685,0.28898574548,0.48918255085,0.100098402685,0.350312527269,405,0.018463324075,0.468009379796,-0.476293327428,nan,nan,nan,nan,nan,nan,nan,nan,278.651339796,384.58970141,nan,384.928854509,nan,nan,nan,nan
1,95,1,1,1.0,1.0,0.333360512508,0,0.0,0.0,0.0,0.388547255159,0.0996918802744,0.288855374885,0.488239135434,0.0996918802744,0.34182996264,252,0.524721685615,0.240693665738,0.655694012224,nan,nan,nan,nan,nan,nan,nan,nan,278.651339796,385.53148418,nan,385.864844692,nan,nan,nan,nan
1,96,1,1,1.0,1.0,0.351494916482,0,0.0,0.0,0.0,0.387960162152,0.0993216877138,0.288638474439,0.487281849866,0.0993216877138,0.341336175877,501,0.7564492333,0.256253544744,-1.0,nan,nan,nan,nan,nan,nan,nan,nan,278.651339796,386.473320548,nan,386.824815464,nan,nan,nan,nan
1,97,1,1,1.0,1.0,0.313713102369,0,0.0,0.0,0.0,0.387576317461,0.0988676252839,0.288708692177,0.486443942745,0.0988676252839,0.33285617712,60,1.0,-0.0867837676833,-1.0,nan,nan,nan,nan,nan,nan,nan,nan,278.651339796,387.415069961,nan,387.728783064,nan,nan,nan,nan
1,98,1,1,1.0,1.0,0.307891151402,0,0.0,0.0,0.0,0.386806908971,0.0986368359945,0.288170072976,0.485443744965,0.0986368359945,0.324366390084,412,0.0618891196837,0.462096609288,-0.571158935758,nan,nan,nan,nan,nan,nan,nan,nan,278.651339796,388.356869267,nan,388.664760418,nan,nan,nan,nan
1,99,1,1,1.0,1.0,0.278105432633,0,0.0,0.0,0.0,0.38599334446,0.0984503189155,0.287543025544,0.484443663375,0.0984503189155,0.299903228801,210,0.958022500947,0.0359304984579,0.533421856807,nan,nan,nan,nan,nan,nan,nan,nan,278.651339796,389.298658594,nan,389.576764026,nan,nan,nan,nan
1,100,1,1,1.0,1.0,0.312290186994,0,0.0,0.0,0.0,0.3848924474,0.0985450358873,0.286347411513,0.483437483287,0.0985450358873,0.299428923676,137,1.0,-0.300190217086,-0.0647316600203,nan,nan,nan,nan,nan,nan,nan,nan,278.651339796,390.240444499,nan,390.552734686,nan,nan,nan,nan
1,101,1,1,1.0,1.0,0.298529730178,0,0.0,0.0,0.0,0.384159091234,0.0983144823485,0.285844608886,0.482473573583,0.0983144823485,0.296308449935,33,1.0,0.0565990290419,-1.0,nan,nan,nan,nan,nan,nan,nan,nan,278.651339796,391.182241239,nan,391.480770969,nan,nan,nan,nan
1,102,1,1,1.0,1.0,0.34064757335,0,0.0,0.0,0.0,0.383302797624,0.0981920093545,0.285110788269,0.481494806978,0.0981920093545,0.317155830174,123,1.0,-0.311441137266,-0.208672863777,nan,nan,nan,nan,nan,nan,nan,nan,278.651339796,392.124039689,nan,392.464687262,nan,nan,nan,nan
1,103,1,1,1.0,1.0,0.310833344935,0,0.0,0.0,0.0,0.382880468671,0.0977959344216,0.285084534249,0.480676403092,0.0977959344216,0.316670216154,202,1.0,-0.00802826454356,0.487596984314,nan,nan,nan,nan,nan,nan,nan,nan,278.651339796,393.065831582,nan,393.376664927,nan,nan,nan,nan
1,104,0,0,0.0,1.0,0.552998685511,0,0.0,0.0,0.0,0.38217412432,0.0975739248,0.28460019952,0.47974804912,0.0975739248,0.401493201265,133,1.0,-0.306259573676,-0.105336427414,nan,nan,nan,nan,nan,nan,nan,nan,278.651339796,394.007630887,nan,394.560629572,nan,nan,nan,nan
1,105,1,1,1.0,1.0,0.411208047066,0,0.0,0.0,0.0,0.383832615206,0.0985332303818,0.285299384824,0.482365845588,0.0985332303818,0.42501335917,80,1.0,-0.189075709245,-0.708965549488,nan,nan,nan,nan,nan,nan,nan,nan,278.651339796,394.949421069,nan,395.360629116,nan,nan,nan,nan
1,106,1,1,1.0,1.0,0.421416489407,0,0.0,0.0,0.0,0.384095840512,0.0980947515739,0.286001088938,0.482190592086,0.0980947515739,0.461874407328,451,0.343830962376,0.403518361206,-1.0,nan,nan,nan,nan,nan,nan,nan,nan,278.651339796,395.891189014,nan,396.312605503,nan,nan,nan,nan
1,107,1,1,1.0,1.0,0.327575053787,0,0.0,0.0,0.0,0.384451275263,0.0976937837647,0.286757491499,0.482145059028,0.0976937837647,0.386733196753,2,0.863024578927,0.203622855609,-1.0,nan,nan,nan,nan,nan,nan,nan,nan,278.651339796,396.833005425,nan,397.160580479,nan,nan,nan,nan
1,108,1,1,1.0,1.0,0.273674466182,0,0.0,0.0,0.0,0.383914707136,0.0973872014256,0.286527505711,0.481301908562,0.0973872014256,0.340888669792,434,0.213881816697,0.43461034373,-1.0,nan,nan,nan,nan,nan,nan,nan,nan,278.651339796,397.774885698,nan,398.048560164,nan,nan,nan,nan
1,109,0,0,1.0,0.0,0.243951468728,0,0.0,0.0,0.0,0.382884424511,0.0975097231807,0.28537470133,0.480394147691,0.0975097231807,0.281733662899,321,-0.0999433513493,0.43654647086,0.391174984052,nan,nan,nan,nan,nan,nan,nan,nan,278.651339796,398.716595483,nan,398.960546952,nan,nan,nan,nan
1,110,1,1,1.0,1.0,0.358134238748,0,0.0,0.0,0.0,0.381598008253,0.0979651900984,0.283632818155,0.479563198352,0.0979651900984,0.291920057886,222,0.841778467246,0.0997291618919,0.589484691865,nan,nan,nan,nan,nan,nan,nan,nan,278.651339796,399.658383669,nan,400.016517908,nan,nan,nan,nan
1,111,1,1,1.0,1.0,0.408340833848,0,0.0,0.0,0.0,0.381382744313,0.0975404302176,0.283842314095,0.47892317453,0.0975404302176,0.336808847108,406,0.0244967455079,0.467245700284,-0.489366101921,nan,nan,nan,nan,nan,nan,nan,nan,278.651339796,400.600150759,nan,401.008491593,nan,nan,nan,nan
1,112,0,0,0.0,1.0,0.474477183307,0,0.0,0.0,0.0,0.381627817854,0.097129758773,0.284498059081,0.478757576627,0.097129758773,0.413650751968,76,1.0,-0.169674511773,-0.773365826749,nan,nan,nan,nan,nan,nan,nan,nan,278.651339796,401.541985986,nan,402.01646317,nan,nan,nan,nan
1,113,1,1,1.0,1.0,0.412699100329,0,0.0,0.0,0.0,0.382464298624,0.0970884356907,0.285375862933,0.479552734315,0.0970884356907,0.431839039161,362,-0.164239727892,0.476000155386,0.0174578511848,nan,nan,nan,nan,nan,nan,nan,nan,278.651339796,402.483758778,nan,402.896457878,nan,nan,nan,nan
1,114,1,1,1.0,1.0,0.414855568903,0,0.0,0.0,0.0,0.382734252211,0.096695870033,0.286038382178,0.479430122244,0.096695870033,0.434010617513,404,0.0124894593597,0.468746268022,-0.463349101315,nan,nan,nan,nan,nan,nan,nan,nan,278.651339796,403.425569772,nan,403.840425341,nan,nan,nan,nan
1,115,1,1,1.0,1.0,0.385051033692,0,0.0,0.0,0.0,0.38301851165,0.0963140545033,0.286704457147,0.479332566154,0.0963140545033,0.404201900975,471,0.506014005179,0.354993781952,-1.0,nan,nan,nan,nan,nan,nan,nan,nan,278.651339796,404.367359954,nan,404.752410988,nan,nan,nan,nan
1,116,0,0,0.0,1.0,0.515198625159,0,0.0,0.0,0.0,0.383036340791,0.0958908812701,0.287145459521,0.478927222061,0.0958908812701,0.438368409251,291,0.122027637739,0.373441943191,0.573791926984,nan,nan,nan,nan,nan,nan,nan,nan,278.651339796,405.309166957,nan,405.824365582,nan,nan,nan,nan
1,117,1,1,1.0,1.0,0.477436767891,0,0.0,0.0,0.0,0.384185578046,0.09625834578,0.287927232266,0.480443923826,0.09625834578,0.459228808914,122,1.0,-0.311159539646,-0.219144224573,nan,nan,nan,nan,nan,nan,nan,nan,278.651339796,406.250911524,nan,406.728348292,nan,nan,nan,nan
1,118,1,1,1.0,1.0,0.343598034699,0,0.0,0.0,0.0,0.384989467614,0.096229465833,0.288760001781,0.481218933447,0.096229465833,0.445411142583,290,0.131265381085,0.370776544741,0.578206616232,nan,nan,nan,nan,nan,nan,nan,nan,278.651339796,407.192733352,nan,407.536331387,nan,nan,nan,nan
1,119,1,1,1.0,1.0,0.361790028168,0,0.0,0.0,0.0,0.384635694683,0.0958930751808,0.288742619502,0.480528769864,0.0958930751808,0.394274943586,183,1.0,-0.113108999915,0.354902835149,nan,nan,nan,nan,nan,nan,nan,nan,278.651339796,408.13452439,nan,408.496314418,nan,nan,nan,nan
1,120,1,1,1.0,1.0,0.315986460308,0,0.0,0.0,0.0,0.38444208734,0.0955088459788,0.288933241361,0.479950933319,0.0955088459788,0.340458174391,460,0.415848916989,0.383334931935,-1.0,nan,nan,nan,nan,nan,nan,nan,nan,278.651339796,409.07630944,nan,409.3922959,nan,nan,nan,nan
1,121,1,1,1.0,1.0,0.502156040631,0,0.0,0.0,0.0,0.38386682997,0.0953117694097,0.28855506056,0.479178599379,0.0953117694097,0.393310843036,200,1.0,-0.0191209939188,0.47515178387,nan,nan,nan,nan,nan,nan,nan,nan,278.651339796,410.018114162,nan,410.520270203,nan,nan,nan,nan
1,122,1,1,1.0,1.0,0.384351407411,0,0.0,0.0,0.0,0.384852573392,0.095521001518,0.289331571874,0.48037357491,0.095521001518,0.400831302783,92,1.0,-0.241703663401,-0.55060883727,nan,nan,nan,nan,nan,nan,nan,nan,278.651339796,410.959904915,nan,411.344256322,nan,nan,nan,nan
1,123,1,1,1.0,1.0,0.458518063882,0,0.0,0.0,0.0,0.384848431524,0.0951254785421,0.289722952982,0.479973910066,0.0951254785421,0.448341837308,436,0.228681708805,0.431413732101,-1.0,nan,nan,nan,nan,nan,nan,nan,nan,278.651339796,411.901702509,nan,412.360220573,nan,nan,nan,nan
1,124,0,0,0.0,1.0,0.532623139443,0,0.0,0.0,0.0,0.38545228097,0.0949673967426,0.290484884227,0.480419677713,0.0949673967426,0.458497536912,342,-0.170052622031,0.462913557708,0.21407524247,nan,nan,nan,nan,nan,nan,nan,nan,278.651339796,412.843572234,nan,413.376195373,nan,nan,nan,nan
1,125,1,1,1.0,1.0,0.486902819714,0,0.0,0.0,0.0,0.386648792014,0.0954994383929,0.291149353622,0.482148230407,0.0954994383929,0.492681341013,56,1.0,-0.0653675053377,-1.0,nan,nan,nan,nan,nan,nan,nan,nan,278.651339796,413.785266053,nan,414.272168873,nan,nan,nan,nan
1,126,1,1,1.0,1.0,0.361084129894,0,0.0,0.0,0.0,0.387457292238,0.0955353072239,0.291921985014,0.482992599462,0.0955353072239,0.460203363017,243,0.622151010882,0.20168048164,0.647463484622,nan,nan,nan,nan,nan,nan,nan,nan,278.651339796,414.727077903,nan,415.088162033,nan,nan,nan,nan
1,127,1,1,1.0,1.0,0.395283139078,0,0.0,0.0,0.0,0.387246306939,0.0951813994522,0.292064907487,0.482427706391,0.0951813994522,0.414423362895,145,1.0,-0.281667413287,0.0150551701241,nan,nan,nan,nan,nan,nan,nan,nan,278.651339796,415.668856966,nan,416.064140105,nan,nan,nan,nan
1,128,1,1,1.0,1.0,0.477453588508,0,0.0,0.0,0.0,0.387310091321,0.0948056252206,0.2925044661,0.482115716542,0.0948056252206,0.41127361916,423,0.135229581944,0.450080889006,-0.750039916123,nan,nan,nan,nan,nan,nan,nan,nan,278.651339796,416.61066454,nan,417.088118128,nan,nan,nan,nan
1,129,1,1,1.0,1.0,0.463634686777,0,0.0,0.0,0.0,0.388019882638,0.0947671533211,0.293252729316,0.482787035959,0.0947671533211,0.445457138121,505,0.789537956352,0.240683140511,-1.0,nan,nan,nan,nan,nan,nan,nan,nan,278.651339796,417.552458998,nan,418.016093685,nan,nan,nan,nan
1,130,1,1,1.0,1.0,0.649820802733,0,0.0,1.0,0.0,0.388610623295,0.0946307059515,0.293979917343,0.483241329246,0.0946307059515,0.530303026006,226,0.801265930663,0.120208988367,0.60458276857,nan,nan,nan,nan,nan,nan,nan,nan,278.651339796,418.494246615,nan,419.144067417,nan,nan,nan,nan
1,131,1,1,1.0,1.0,0.660012139473,1,0.0,0.0,1.0,0.390635508407,0.0970070748789,0.293628433528,0.487642583286,0.0970070748789,0.591155876328,323,-0.11001989341,0.43965344528,0.375855360355,-141.122503661,231.122503661,4.01312866149,329.0,-0.136053278316,0.448203788942,0.3278337444,2.15893860953,278.651339796,419.436046775,420.24447234,420.096058915,423.436544553,424.441574792,421.261228873,423.428190092
1,132,1,1,1.0,1.0,0.581167052966,0,0.0,0.0,0.0,0.392707636338,0.099457901759,0.293720086603,0.494572429075,0.099457901759,0.630333331724,403,0.00657627305109,0.469456436931,-0.450524507496,nan,nan,nan,nan,nan,nan,nan,nan,278.651339796,424.586736124,nan,425.167903177,nan,nan,nan,nan
1,133,1,1,nan,nan,nan,0,0.0,0.0,0.0,0.394146257839,0.100426171236,0.293720086603,0.494572429075,0.100426171236,0.620589596219,342,-0.170052622031,0.462913557708,0.21407524247,nan,nan,nan,nan,nan,nan,nan,nan,278.651339796,425.528532293,nan,nan,nan,nan,nan,nan
1,134,1,1,1.0,1.0,0.529568047728,0,0.0,0.0,0.0,0.394146257839,0.100426171236,0.294440403141,0.495903957838,0.100426171236,0.555367550347,188,1.0,-0.0857393506835,0.392804289229,nan,nan,nan,nan,nan,nan,nan,nan,278.651339796,426.470321905,nan,426.999889953,nan,nan,nan,nan
1,135,1,1,nan,nan,nan,0,0.0,0.0,0.0,0.39517218049,0.100731777348,0.294440403141,0.495903957838,0.100731777348,0.529568047728,298,0.0600896634305,0.391050340636,0.53969689008,nan,nan,nan,nan,nan,nan,nan,nan,278.651339796,427.412116364,nan,nan,nan,nan,nan,nan
1,136,1,1,1.0,1.0,0.445952730486,0,0.0,0.0,0.0,0.39517218049,0.100731777348,0.294440403141,0.495903957838,0.100731777348,0.487760389107,205,1.0,0.00854800403903,0.505535240796,nan,nan,nan,nan,nan,nan,nan,nan,278.651339796,428.353906831,nan,428.799859561,nan,nan,nan,nan
1,137,1,1,1.0,1.0,0.456122114789,0,0.0,0.0,0.0,0.395553989136,0.100448201724,0.295105787412,0.496002190861,0.100448201724,0.451037422637,79,1.0,-0.184296021705,-0.724170777997,nan,nan,nan,nan,nan,nan,nan,nan,278.651339796,429.295696728,nan,429.751818843,nan,nan,nan,nan
1,138,1,1,1.0,1.0,0.346322129713,0,0.0,0.0,0.0,0.396005990074,0.100208365179,0.295797624895,0.496214355253,0.100208365179,0.416132324996,450,0.335949728395,0.405598329481,-1.0,nan,nan,nan,nan,nan,nan,nan,nan,278.651339796,430.237487481,nan,430.58380961,nan,nan,nan,nan
1,139,1,1,1.0,1.0,0.516488685738,0,0.0,0.0,0.0,0.395637961479,0.0999273886543,0.295710572824,0.495565350133,0.0999273886543,0.43964431008,148,1.0,-0.272695592461,0.0444264621409,nan,nan,nan,nan,nan,nan,nan,nan,278.651339796,431.179287641,nan,431.695776327,nan,nan,nan,nan
1,140,1,1,1.0,1.0,0.510668160161,0,0.0,0.0,0.0,0.396526569745,0.100093254828,0.296433314917,0.496619824573,0.100093254828,0.457826325204,105,1.0,-0.285049837405,-0.401580786678,nan,nan,nan,nan,nan,nan,nan,nan,278.651339796,432.121079819,nan,432.631747979,nan,nan,nan,nan
1,141,1,1,1.0,1.0,0.488867417909,0,0.0,1.0,0.0,0.39735972004,0.100199469658,0.297160250382,0.497559189698,0.100199469658,0.50534142127,431,0.191957257768,0.43918128748,-0.982298765802,nan,nan,nan,nan,nan,nan,nan,nan,278.651339796,433.062874563,nan,433.551741981,nan,nan,nan,nan
1,142,1,1,1.0,1.0,0.451048256364,1,0.0,0.0,1.0,0.3980228193,0.100137003964,0.297885815336,0.498159823265,0.100137003964,0.483527944811,301,0.0351599448551,0.39804275895,0.523414514543,-130.123093713,220.123093713,8.48246871336,313.0,-0.0530221528698,0.42279583272,0.448797959603,2.16721609468,278.651339796,434.00466389,434.813076055,434.455712146,438.013469659,439.011641907,435.829874498,438.005136295
1,143,1,1,1.0,1.0,0.420243888628,0,0.0,0.0,0.0,0.398404297265,0.0998767358509,0.298527561414,0.498281033116,0.0998767358509,0.453386520967,200,1.0,-0.0191209939188,0.47515178387,nan,nan,nan,nan,nan,nan,nan,nan,278.651339796,439.155354094,nan,439.575597982,nan,nan,nan,nan
1,144,1,1,1.0,1.0,0.358447274426,0,0.0,0.0,0.0,0.398560294346,0.0995363870819,0.299023907264,0.498096681428,0.0995363870819,0.409913139806,336,-0.158211608236,0.456758111158,0.268135266647,nan,nan,nan,nan,nan,nan,nan,nan,278.651339796,440.097142566,nan,440.45558984,nan,nan,nan,nan
1,145,1,1,1.0,1.0,0.256627704483,0,0.0,0.0,0.0,0.398275804843,0.0992398974653,0.299035907378,0.497515702308,0.0992398974653,0.345106289179,431,0.191957257768,0.43918128748,-0.982298765802,nan,nan,nan,nan,nan,nan,nan,nan,278.651339796,441.038945007,nan,441.295572711,nan,nan,nan,nan
1,146,1,1,1.0,1.0,0.194799729856,0,1.0,0.0,0.0,0.397278283009,0.0995967029321,0.297681580077,0.496874985942,0.0995967029321,0.269958236255,123,1.0,-0.311441137266,-0.208672863777,nan,nan,nan,nan,nan,nan,nan,nan,278.651339796,441.980738325,nan,442.175538055,nan,nan,nan,nan
1,147,1,1,1.0,1.0,0.252988450462,1,0.0,0.0,1.0,0.395862349071,0.100671880213,0.295190468858,0.496534229285,0.100671880213,0.234805294933,346,-0.174317561957,0.466431294057,0.176670174816,-158.03943598,248.03943598,4.7581859799,353.0,-0.175041255135,0.471490071959,0.108799216003,1.7589137489,278.651339796,442.922527652,443.7309478,443.175516103,446.531313122,447.530010802,444.756092436,446.522994013
1,148,1,1,1.0,1.0,0.430213705404,0,0.0,0.0,0.0,0.39487016922,0.101020883495,0.293849285725,0.495891052715,0.101020883495,0.29266729524,274,0.289344050657,0.322900892411,0.632670269059,nan,nan,nan,nan,nan,nan,nan,nan,278.651339796,447.673186438,nan,448.103400144,nan,nan,nan,nan
1,149,0,0,0.0,1.0,0.528414833359,0,0.0,0.0,0.0,0.395113917745,0.100714416066,0.294399501679,0.495828333811,0.100714416066,0.403872329742,171,1.0,-0.176011872558,0.256450910142,nan,nan,nan,nan,nan,nan,nan,nan,278.651339796,448.614958089,nan,449.143372923,nan,nan,nan,nan
1,150,1,1,1.0,1.0,0.410601932323,0,0.0,0.0,0.0,0.396026937715,0.10096925818,0.295057679535,0.496996195895,0.10096925818,0.456410157029,30,1.0,0.071945658744,-1.0,nan,nan,nan,nan,nan,nan,nan,nan,278.651339796,449.556754259,nan,449.967356191,nan,nan,nan,nan
1,151,1,1,1.0,1.0,0.436806556769,0,0.0,0.0,0.0,0.396126087338,0.100632370794,0.295493716545,0.496758458132,0.100632370794,0.45860777415,358,-0.170583909915,0.474268316859,0.0585874414746,nan,nan,nan,nan,nan,nan,nan,nan,278.651339796,450.498519638,nan,450.935326194,nan,nan,nan,nan
1,152,1,1,1.0,1.0,0.430964363739,0,0.0,0.0,0.0,0.396400955375,0.100347174525,0.29605378085,0.4967481299,0.100347174525,0.426124284277,85,1.0,-0.212156452387,-0.638781227021,nan,nan,nan,nan,nan,nan,nan,nan,278.651339796,451.44034061,nan,451.871304974,nan,nan,nan,nan
1,153,1,1,1.0,1.0,0.35317356349,0,0.0,0.0,0.0,0.396632924559,0.100049679471,0.296583245088,0.496682604029,0.100049679471,0.406981494666,339,-0.164955840019,0.45996923152,0.241423096872,nan,nan,nan,nan,nan,nan,nan,nan,278.651339796,452.382130507,nan,452.735304071,nan,nan,nan,nan
1,154,0,0,0.0,1.0,0.443337827455,0,0.0,0.0,0.0,0.396343195485,0.0997783189738,0.296564876511,0.496121514459,0.0997783189738,0.409158584895,39,1.0,0.0253789930673,-1.0,nan,nan,nan,nan,nan,nan,nan,nan,278.651339796,453.323924681,nan,453.767262508,nan,nan,nan,nan
1,155,1,1,1.0,1.0,0.245532042347,0,0.0,0.0,0.0,0.396654418213,0.0995203999262,0.297134018287,0.496174818139,0.0995203999262,0.347347811097,508,0.814199817736,0.228638933499,-1.0,nan,nan,nan,nan,nan,nan,nan,nan,278.651339796,454.265723416,nan,454.511255458,nan,nan,nan,nan
1,156,1,1,1.0,1.0,0.335714267334,0,0.0,0.0,0.0,0.395660192056,0.0999420402063,0.29571815185,0.495602232263,0.0999420402063,0.341528045712,422,0.128328379107,0.451313674078,-0.730894888444,nan,nan,nan,nan,nan,nan,nan,nan,278.651339796,455.207514454,nan,455.543228721,nan,nan,nan,nan
1,157,1,1,1.0,1.0,0.321907339618,0,0.0,0.0,0.0,0.395268388627,0.0997319466115,0.295536442015,0.495000335238,0.0997319466115,0.301051216433,474,0.530901762182,0.346545376391,-1.0,nan,nan,nan,nan,nan,nan,nan,nan,278.651339796,456.149309197,nan,456.471216537,nan,nan,nan,nan
1,158,1,1,1.0,1.0,0.340095912106,0,0.0,0.0,0.0,0.394792018179,0.0995820961402,0.295209922038,0.494374114319,0.0995820961402,0.332572506353,90,1.0,-0.233635786423,-0.574971871003,nan,nan,nan,nan,nan,nan,nan,nan,278.651339796,457.09110109,nan,457.431197002,nan,nan,nan,nan
1,159,1,1,1.0,1.0,0.31024205545,0,0.0,0.0,0.0,0.394439140075,0.099356893983,0.295082246092,0.493796034058,0.099356893983,0.324081769058,223,0.83172397378,0.104890589731,0.593432239612,nan,nan,nan,nan,nan,nan,nan,nan,278.651339796,458.032917786,nan,458.343159842,nan,nan,nan,nan
1,160,1,1,1.0,1.0,0.464455478825,0,0.0,0.0,0.0,0.393899415173,0.0992656215503,0.294633793623,0.493165036724,0.0992656215503,0.37159781546,21,1.0,0.116713997928,-1.0,nan,nan,nan,nan,nan,nan,nan,nan,278.651339796,458.974678034,nan,459.439133513,nan,nan,nan,nan
1,161,0,0,0.0,1.0,0.514632423874,0,0.0,0.0,0.0,0.394348816853,0.0991080596355,0.295240757217,0.493456876488,0.0991080596355,0.429776652716,66,1.0,-0.118568705386,-1.0,nan,nan,nan,nan,nan,nan,nan,nan,278.651339796,459.91648133,nan,460.431113754,nan,nan,nan,nan
1,162,1,1,1.0,1.0,0.476817253511,0,0.0,0.0,0.0,0.395110105505,0.0992533693805,0.295856736124,0.494363474885,0.0992533693805,0.485301718737,232,0.739158239773,0.150046616059,0.623712016981,nan,nan,nan,nan,nan,nan,nan,nan,278.651339796,460.858274078,nan,461.335091332,nan,nan,nan,nan
1,163,1,1,1.0,1.0,0.503012469737,0,0.0,0.0,0.0,0.395623986939,0.0991513873623,0.296472599576,0.494775374301,0.0991513873623,0.498154049041,174,1.0,-0.160790688716,0.281981279739,nan,nan,nan,nan,nan,nan,nan,nan,278.651339796,461.800063976,nan,462.303076445,nan,nan,nan,nan
1,164,1,1,1.0,1.0,0.521187357605,0,0.0,1.0,0.0,0.396295164956,0.0992027226936,0.297092442263,0.49549788765,0.0992027226936,0.500339026951,280,0.228089347314,0.342018854333,0.61587222022,nan,nan,nan,nan,nan,nan,nan,nan,278.651339796,462.741851877,nan,463.263039235,nan,nan,nan,nan
1,165,1,1,1.0,1.0,0.611372433603,1,0.0,0.0,1.0,0.397070892861,0.0993797537336,0.297691139127,0.496450646595,0.0993797537336,0.545190753648,458,0.399688045963,0.388050214986,-1.0,119.44542873,330.55457127,8.52332127007,470.0,0.497741612616,0.357740777197,-1.0,1.42551275273,278.651339796,463.683656599,464.492063062,464.295029033,466.959047915,467.96559287,465.517161798,466.950709704
1,166,1,1,1.0,1.0,0.497727925191,0,0.0,0.0,0.0,0.398393741878,0.100484372275,0.297909369603,0.498878114153,0.100484372275,0.543429238799,225,0.81146624694,0.115131125244,0.600981946568,nan,nan,nan,nan,nan,nan,nan,nan,278.651339796,468.109201568,nan,468.606929493,nan,nan,nan,nan
1,167,1,1,1.0,1.0,0.427871924359,0,0.0,0.0,0.0,0.399003154045,0.10047550793,0.298527646115,0.499478661976,0.10047550793,0.512324094384,495,0.706485112283,0.278551693791,-1.0,nan,nan,nan,nan,nan,nan,nan,nan,278.651339796,469.051033089,nan,469.478905014,nan,nan,nan,nan
1,168,1,1,1.0,1.0,0.406069471734,0,0.0,0.0,0.0,0.399179183133,0.100193919849,0.298985263284,0.499373102982,0.100193919849,0.443889773761,154,1.0,-0.251813147593,0.102138173725,nan,nan,nan,nan,nan,nan,nan,nan,278.651339796,469.992829544,nan,470.398899015,nan,nan,nan,nan
1,169,1,1,1.0,1.0,0.424217560329,0,0.0,0.0,0.0,0.399220942458,0.099891272,0.299329670458,0.499112214458,0.099891272,0.419386318807,308,-0.0186828559465,0.413097475488,0.481682330771,nan,nan,nan,nan,nan,nan,nan,nan,278.651339796,470.934641108,nan,471.358858668,nan,nan,nan,nan
1,170,1,1,1.0,1.0,0.354426846839,0,0.0,0.0,0.0,0.399371524493,0.0996087222634,0.299762802229,0.498980246756,0.0996087222634,0.394904626301,401,-0.00506340639596,0.470796889516,-0.425203102762,nan,nan,nan,nan,nan,nan,nan,nan,278.651339796,471.876408482,nan,472.230835329,nan,nan,nan,nan
1,171,1,1,1.0,1.0,0.404620042304,0,0.0,0.0,0.0,0.399102394687,0.099370561598,0.299731833089,0.498472956285,0.099370561598,0.394421483157,246,0.589768841079,0.215019897151,0.651339528662,nan,nan,nan,nan,nan,nan,nan,nan,278.651339796,472.818204937,nan,473.222824979,nan,nan,nan,nan
1,172,1,1,1.0,1.0,0.366783204721,0,0.0,0.0,0.0,0.399135237827,0.0990752835682,0.300059954259,0.498210521395,0.0990752835682,0.375276697955,457,0.391639248186,0.390358177281,-1.0,nan,nan,nan,nan,nan,nan,nan,nan,278.651339796,473.760006238,nan,474.126789442,nan,nan,nan,nan
1,173,1,1,1.0,1.0,0.305004551774,0,0.0,0.0,0.0,0.398943805679,0.0988128841226,0.300130921556,0.497756689801,0.0988128841226,0.3588025996,65,1.0,-0.113312155659,-1.0,nan,nan,nan,nan,nan,nan,nan,nan,278.651339796,474.701789008,nan,475.006793559,nan,nan,nan,nan
1,174,1,1,1.0,1.0,0.291178807616,0,0.0,0.0,0.0,0.398391221832,0.0987833732053,0.299607848627,0.497174595037,0.0987833732053,0.320988854704,354,-0.174470673547,0.472100788149,0.0988677247603,nan,nan,nan,nan,nan,nan,nan,nan,278.651339796,475.643590594,nan,475.934769401,nan,nan,nan,nan
1,175,1,1,1.0,1.0,0.261359447381,0,1.0,0.0,0.0,0.39776424865,0.0988327668444,0.298931481805,0.496597015494,0.0988327668444,0.285847602257,69,1.0,-0.134207199312,-0.939648005704,nan,nan,nan,nan,nan,nan,nan,nan,278.651339796,476.585378495,nan,476.846737943,nan,nan,nan,nan
1,176,1,1,1.0,1.0,0.271549358498,1,0.0,0.0,1.0,0.396971197479,0.0990892156144,0.297881981865,0.496060413094,0.0990892156144,0.274695871165,126,1.0,-0.311411754845,-0.177408431044,-26.1881106975,116.188110697,27.5943606975,165.0,1.0,-0.205056383665,0.203745440608,1.90886384272,278.651339796,477.527168392,478.335584264,477.798717751,481.285946721,482.289060257,479.360710939,481.277606799
1,177,1,1,1.0,1.0,0.458769518882,0,0.0,0.0,0.0,0.396246215751,0.0992588548236,0.296987360928,0.495505070575,0.0992588548236,0.330559441587,232,0.739158239773,0.150046616059,0.623712016981,nan,nan,nan,nan,nan,nan,nan,nan,278.651339796,482.427827164,nan,482.886596683,nan,nan,nan,nan
1,178,1,1,1.0,1.0,0.340942363022,0,0.0,0.0,0.0,0.39660554508,0.099085998353,0.297519546726,0.495691543433,0.099085998353,0.357087080134,79,1.0,-0.184296021705,-0.724170777997,nan,nan,nan,nan,nan,nan,nan,nan,278.651339796,483.369625329,nan,483.710567692,nan,nan,nan,nan
1,179,1,1,1.0,1.0,0.255146344425,0,0.0,0.0,0.0,0.396287469753,0.0988915361644,0.297395933589,0.495179005918,0.0988915361644,0.351619408776,498,0.731507943485,0.267561876527,-1.0,nan,nan,nan,nan,nan,nan,nan,nan,278.651339796,484.311410095,nan,484.566556439,nan,nan,nan,nan
1,180,1,1,1.0,1.0,0.241327727446,0,1.0,0.0,0.0,0.395485531541,0.0991792001214,0.29630633142,0.494664731663,0.0991792001214,0.279138811631,411,0.0555201669072,0.463022710015,-0.557054760163,nan,nan,nan,nan,nan,nan,nan,nan,278.651339796,485.253205979,nan,485.494533706,nan,nan,nan,nan
1,181,1,1,1.0,1.0,0.299526141491,1,0.0,0.0,1.0,0.394614583496,0.0995713066124,0.295043276883,0.494185890108,0.0995713066124,0.265333404454,252,0.524721685615,0.240693665738,0.655694012224,-97.2688849216,187.268884922,10.0813849216,266.0,0.373577590308,0.295207490188,0.648113769863,1.59225815372,278.651339796,486.194997872,487.003417164,486.494524013,489.637061319,490.634879477,488.028513904,489.628731376
1,182,1,1,1.0,1.0,0.555402047001,0,0.0,0.0,0.0,0.394080378765,0.0995452524812,0.294535126284,0.493625631246,0.0995452524812,0.365418638646,383,-0.0968787136249,0.478131214543,-0.211081409456,nan,nan,nan,nan,nan,nan,nan,nan,278.651339796,490.778990799,nan,491.334392846,nan,nan,nan,nan
1,183,1,1,1.0,1.0,0.389576081885,0,0.0,0.0,0.0,0.394981617135,0.0999923765044,0.294989240631,0.49497399364,0.0999923765044,0.414834756792,335,-0.155595990888,0.455627721073,0.276893227044,nan,nan,nan,nan,nan,nan,nan,nan,278.651339796,491.72080778,nan,492.110383862,nan,nan,nan,nan
1,184,0,0,0.0,1.0,0.487808000064,0,0.0,0.0,0.0,0.394951586384,0.0997150425167,0.295236543867,0.494666628901,0.0997150425167,0.477595376316,72,1.0,-0.149607777062,-0.853203742106,nan,nan,nan,nan,nan,nan,nan,nan,278.651339796,492.662538378,nan,493.150346378,nan,nan,nan,nan
1,185,1,1,1.0,1.0,0.306009515887,0,0.0,0.0,0.0,0.395464605244,0.0996771258113,0.295787479433,0.495141731055,0.0996771258113,0.394464532612,424,0.142174562463,0.448819569244,-0.770229420881,nan,nan,nan,nan,nan,nan,nan,nan,278.651339796,493.604327134,nan,493.91033665,nan,nan,nan,nan
1,186,1,1,1.0,1.0,0.356202711584,0,0.0,0.0,0.0,0.394973093764,0.0996226139433,0.295350479821,0.494595707707,0.0996226139433,0.383340075845,333,-0.149813480994,0.453275949072,0.294183738108,nan,nan,nan,nan,nan,nan,nan,nan,278.651339796,494.546117316,nan,494.902320028,nan,nan,nan,nan
1,187,1,1,1.0,1.0,0.350076562725,0,0.0,0.0,0.0,0.394761233752,0.0993911518931,0.295370081859,0.494152385645,0.0993911518931,0.337429596732,108,1.0,-0.292426609412,-0.368663285579,nan,nan,nan,nan,nan,nan,nan,nan,278.651339796,495.496210358,nan,495.84628692,nan,nan,nan,nan
1,188,1,1,1.0,1.0,0.360232547391,0,0.0,0.0,0.0,0.394518382279,0.0991751268548,0.295343255424,0.493693509134,0.0991751268548,0.355503940567,460,0.415848916989,0.383334931935,-1.0,nan,nan,nan,nan,nan,nan,nan,nan,278.651339796,496.438041879,nan,496.798274426,nan,nan,nan,nan
1,189,0,0,0.0,1.0,0.466419792268,0,0.0,0.0,0.0,0.394333053442,0.0989386659328,0.295394387509,0.493271719375,0.0989386659328,0.392242967462,20,1.0,0.121558187834,-1.0,nan,nan,nan,nan,nan,nan,nan,nan,278.651339796,497.379830351,nan,497.846250143,nan,nan,nan,nan
1,190,1,1,1.0,1.0,0.43659644085,0,0.0,0.0,0.0,0.394720616554,0.0988130522488,0.295907564305,0.493533668803,0.0988130522488,0.421082926836,62,1.0,-0.0974372467467,-1.0,nan,nan,nan,nan,nan,nan,nan,nan,278.651339796,498.321625379,nan,498.75822182,nan,nan,nan,nan
1,191,1,1,1.0,1.0,0.542774847941,0,0.0,0.0,0.0,0.394944551443,0.0985958041655,0.296348747278,0.493540355609,0.0985958041655,0.481930360353,114,1.0,-0.303747463913,-0.303859371662,nan,nan,nan,nan,nan,nan,nan,nan,278.651339796,499.263422974,nan,499.806197822,nan,nan,nan,nan
1,192,1,1,1.0,1.0,0.720940920291,0,0.0,1.0,0.0,0.395730882808,0.0989194102724,0.296811472535,0.49465029308,0.0989194102724,0.566770736361,178,1.0,-0.139919655122,0.315097826042,nan,nan,nan,nan,nan,nan,nan,nan,278.651339796,500.205220854,nan,500.926161774,nan,nan,nan,nan
1,193,1,1,1.0,1.0,0.691146648722,1,0.0,0.0,1.0,0.397451570837,0.10143915038,0.296012420456,0.498890721217,0.10143915038,0.651620805652,279,0.238157575771,0.338930353633,0.618978422254,-103.143216109,193.143216109,-3.02865889081,275.0,0.279002393219,0.326185254474,0.630178474337,2.46743074385,278.651339796,501.146993075,501.955413793,501.838139724,505.464212862,506.470551978,502.980516805,505.455879498
1,194,1,1,1.0,1.0,0.543631562032,0,0.0,0.0,0.0,0.398997334404,0.103379580292,0.295617754112,0.502376914697,0.103379580292,0.651906377015,156,1.0,-0.244060613314,0.121041471254,nan,nan,nan,nan,nan,nan,nan,nan,278.651339796,506.614405003,nan,507.158036565,nan,nan,nan,nan
1,195,1,1,1.0,1.0,0.321798718069,0,0.0,0.0,0.0,0.399754581669,0.103635579914,0.296119001756,0.503390161583,0.103635579914,0.518858976274,233,0.728670395113,0.154909781369,0.626482233315,nan,nan,nan,nan,nan,nan,nan,nan,278.651339796,507.556206018,nan,507.878004736,nan,nan,nan,nan
1,196,1,1,1.0,1.0,0.460032780189,0,0.0,0.0,0.0,0.399348561547,0.103517539502,0.295831022045,0.502866101048,0.103517539502,0.441821020097,471,0.506014005179,0.354993781952,-1.0,nan,nan,nan,nan,nan,nan,nan,nan,278.651339796,508.497972823,nan,508.958005603,nan,nan,nan,nan
1,197,1,1,1.0,1.0,0.406184080523,0,0.0,0.0,0.0,0.39966298755,0.103340892766,0.296322094784,0.503003880316,0.103340892766,0.396005192927,77,1.0,-0.174593022316,-0.756267193339,nan,nan,nan,nan,nan,nan,nan,nan,278.651339796,509.439789804,nan,509.845973885,nan,nan,nan,nan
1,198,1,1,1.0,1.0,0.464386770735,0,0.0,0.0,0.0,0.399696601431,0.103075263968,0.296621337463,0.502771865399,0.103075263968,0.443534543815,466,0.464789014893,0.368385601135,-1.0,nan,nan,nan,nan,nan,nan,nan,nan,278.651339796,510.381566587,nan,510.845953358,nan,nan,nan,nan
1,199,1,1,1.0,1.0,0.394562985748,0,0.0,0.0,0.0,0.400028345889,0.102914410682,0.297113935207,0.502942756571,0.102914410682,0.421711279002,240,0.654373017221,0.188015059697,0.642463954019,nan,nan,nan,nan,nan,nan,nan,nan,278.651339796,511.323361616,nan,511.717924602,nan,nan,nan,nan
1,200,1,1,1.0,1.0,0.556739148451,0,0.0,0.0,0.0,0.400000461399,0.102652276716,0.297348184683,0.502652738114,0.102652276716,0.471896301645,392,-0.0541067903503,0.475522277549,-0.315549842675,nan,nan,nan,nan,nan,nan,nan,nan,278.651339796,512.265155789,nan,512.821894938,nan,nan,nan,nan
1,201,1,1,1.0,1.0,0.622945631854,0,0.0,1.0,0.0,0.400796089252,0.102995498736,0.297800590516,0.503791587987,0.102995498736,0.524749255351,93,1.0,-0.245614297951,-0.538619881923,nan,nan,nan,nan,nan,nan,nan,nan,278.651339796,513.206924019,nan,513.829869651,nan,nan,nan,nan
1,202,1,1,1.0,1.0,0.561105113011,1,0.0,0.0,1.0,0.401918056639,0.103934991056,0.297983065583,0.505853047694,0.103934991056,0.580263297772,45,1.0,-0.0063957592436,-1.0,72.5606122274,17.4393877726,-14.2012372274,25.0,1.0,0.0970682892709,-1.0,1.66719143372,278.651339796,514.148743852,514.957155446,514.709848965,517.65748134,518.655881664,515.973923099,517.649150827
1,203,1,1,1.0,1.0,0.390357245691,0,0.0,0.0,0.0,0.402717991595,0.104282778683,0.298435212912,0.507000770278,0.104282778683,0.524802663519,340,-0.166837174664,0.460980112934,0.232376404312,nan,nan,nan,nan,nan,nan,nan,nan,278.651339796,518.799357507,nan,519.189714753,nan,nan,nan,nan
1,204,1,1,1.0,1.0,0.464587478433,0,0.0,0.0,0.0,0.402656187866,0.104025398633,0.298630789233,0.506681586499,0.104025398633,0.472016612378,163,1.0,-0.214247802105,0.185723682048,nan,nan,nan,nan,nan,nan,nan,nan,278.651339796,519.741136285,nan,520.205723764,nan,nan,nan,nan
1,205,1,1,1.0,1.0,0.466748223174,0,0.0,0.0,0.0,0.402964303739,0.103857755644,0.299106548095,0.506822059383,0.103857755644,0.440564315766,243,0.622151010882,0.20168048164,0.647463484622,nan,nan,nan,nan,nan,nan,nan,nan,278.651339796,520.682951271,nan,521.149699494,nan,nan,nan,nan
1,206,1,1,1.0,1.0,0.556942136958,0,0.0,0.0,0.0,0.403280065717,0.103697039751,0.299583025966,0.506977105467,0.103697039751,0.496092612855,473,0.522594813828,0.349396171415,-1.0,nan,nan,nan,nan,nan,nan,nan,nan,278.651339796,521.62474516,nan,522.181687297,nan,nan,nan,nan
1,207,1,1,1.0,1.0,0.487124909647,0,0.0,0.0,0.0,0.404037021732,0.103999267699,0.300037754033,0.508036289432,0.103999267699,0.503605089926,346,-0.174317561957,0.466431294057,0.176670174816,nan,nan,nan,nan,nan,nan,nan,nan,278.651339796,522.566539618,nan,523.053664528,nan,nan,nan,nan
1,208,1,1,1.0,1.0,0.417321936693,0,0.0,0.0,0.0,0.404444315301,0.103906227412,0.300538087888,0.508350542713,0.103906227412,0.487129661099,237,0.686387300223,0.174031846447,0.636349816437,nan,nan,nan,nan,nan,nan,nan,nan,278.651339796,523.508325239,nan,523.925647176,nan,nan,nan,nan
1,209,1,1,1.0,1.0,0.419483536622,0,0.0,0.0,0.0,0.404507132966,0.103656370848,0.300850762118,0.508163503814,0.103656370848,0.441310127654,62,1.0,-0.0974372467467,-1.0,nan,nan,nan,nan,nan,nan,nan,nan,278.651339796,524.450129961,nan,524.869613498,nan,nan,nan,nan
1,210,1,1,1.0,1.0,0.461684343172,0,0.0,0.0,0.0,0.404579833955,0.10340971071,0.301170123244,0.507989544665,0.10340971071,0.432829938829,333,-0.149813480994,0.453275949072,0.294183738108,nan,nan,nan,nan,nan,nan,nan,nan,278.651339796,525.391913586,nan,525.853597929,nan,nan,nan,nan
1,211,0,0,0.0,1.0,0.527900234563,0,0.0,0.0,0.0,0.404855701149,0.103235583386,0.301620117763,0.508091284535,0.103235583386,0.469689371452,84,1.0,-0.20765784414,-0.652191087791,nan,nan,nan,nan,nan,nan,nan,nan,278.651339796,526.333673263,nan,526.861573498,nan,nan,nan,nan
1,212,1,1,1.0,1.0,0.322065853281,0,0.0,0.0,0.0,0.405447261406,0.103338209761,0.302109051644,0.508785471167,0.103338209761,0.437216810339,10,0.926811495151,0.168400576072,-1.0,nan,nan,nan,nan,nan,nan,nan,nan,278.651339796,527.27549338,nan,527.597559234,nan,nan,nan,nan
1,213,1,1,1.0,1.0,0.364233018365,0,0.0,0.0,0.0,0.4050483073,0.103251136166,0.301797171134,0.508299443465,0.103251136166,0.404733035403,479,0.572572153349,0.331768222426,-1.0,nan,nan,nan,nan,nan,nan,nan,nan,278.651339796,528.217300383,nan,528.581533402,nan,nan,nan,nan
1,214,1,1,1.0,1.0,0.302451229189,0,0.0,0.0,0.0,0.404853948781,0.103043323135,0.301810625646,0.507897271917,0.103043323135,0.329583366945,380,-0.109519508899,0.478533032186,-0.177177385375,nan,nan,nan,nan,nan,nan,nan,nan,278.651339796,529.1590746,nan,529.46152583,nan,nan,nan,nan
1,215,1,1,1.0,1.0,0.424614129355,0,0.0,0.0,0.0,0.404368627835,0.103039153553,0.301329474283,0.507407781388,0.103039153553,0.363766125636,65,1.0,-0.113312155659,-1.0,nan,nan,nan,nan,nan,nan,nan,nan,278.651339796,530.100876756,nan,530.525490886,nan,nan,nan,nan
1,216,1,1,1.0,1.0,0.362828633981,0,0.0,0.0,0.0,0.404464125484,0.102805208707,0.301658916777,0.507269334191,0.102805208707,0.363297997508,165,1.0,-0.205056383665,0.203745440608,nan,nan,nan,nan,nan,nan,nan,nan,278.651339796,531.042657246,nan,531.40548588,nan,nan,nan,nan
1,217,1,1,1.0,1.0,0.356957361335,0,0.0,0.0,0.0,0.404268653693,0.102603079837,0.301665573856,0.50687173353,0.102603079837,0.381466708224,385,-0.0879796604702,0.477733444059,-0.233926720364,nan,nan,nan,nan,nan,nan,nan,nan,278.651339796,531.984483635,nan,532.341440996,nan,nan,nan,nan
1,218,1,1,1.0,1.0,0.36718946672,0,0.0,0.0,0.0,0.404047572887,0.102413911718,0.301633661169,0.506461484605,0.102413911718,0.362325154012,181,1.0,-0.123914391386,0.3392011262,nan,nan,nan,nan,nan,nan,nan,nan,278.651339796,532.926253575,nan,533.293443042,nan,nan,nan,nan
1,219,1,1,1.0,1.0,0.417364416178,0,0.0,0.0,0.0,0.403876139835,0.102206234606,0.301669905229,0.506082374442,0.102206234606,0.380503748078,53,1.0,-0.049257555853,-1.0,nan,nan,nan,nan,nan,nan,nan,nan,278.651339796,533.86804946,nan,534.285413876,nan,nan,nan,nan
1,220,1,1,1.0,1.0,0.475530614145,0,0.0,0.0,0.0,0.403938585559,0.101973482521,0.301965103039,0.50591206808,0.101973482521,0.420028165681,337,-0.160643365934,0.457858386897,0.259303564052,nan,nan,nan,nan,nan,nan,nan,nan,278.651339796,534.809841067,nan,535.285371681,nan,nan,nan,nan
1,221,1,1,1.0,1.0,0.389718344668,0,0.0,0.0,0.0,0.404268502742,0.101853728246,0.302414774496,0.506122230987,0.101853728246,0.427537791664,239,0.665069831863,0.183388857662,0.640549267122,nan,nan,nan,nan,nan,nan,nan,nan,278.651339796,535.75163125,nan,536.141349594,nan,nan,nan,nan
1,222,1,1,1.0,1.0,0.31991366134,0,0.0,0.0,0.0,0.404201758897,0.101624606497,0.3025771524,0.505826365394,0.101624606497,0.395054206718,323,-0.11001989341,0.43965344528,0.375855360355,nan,nan,nan,nan,nan,nan,nan,nan,278.651339796,536.693430555,nan,537.013344216,nan,nan,nan,nan
1,223,1,1,1.0,1.0,0.426087791799,0,0.0,0.0,0.0,0.403816881739,0.101551441484,0.302265440255,0.505368323224,0.101551441484,0.378573265936,119,1.0,-0.309446327048,-0.250710895617,nan,nan,nan,nan,nan,nan,nan,nan,278.651339796,537.635218171,nan,538.061305963,nan,nan,nan,nan
1,224,1,1,1.0,1.0,0.436285400763,0,0.0,0.0,0.0,0.403918113149,0.101331454385,0.302586658764,0.505249567534,0.101331454385,0.394095617967,386,-0.0833946583454,0.477495592553,-0.245424736514,nan,nan,nan,nan,nan,nan,nan,nan,278.651339796,538.577007783,nan,539.013293184,nan,nan,nan,nan
1,225,1,1,1.0,1.0,0.454467986245,0,0.0,0.0,0.0,0.404064571464,0.101125272952,0.302939298512,0.505189844416,0.101125272952,0.438947059602,73,1.0,-0.1546788618,-0.830916872461,nan,nan,nan,nan,nan,nan,nan,nan,278.651339796,539.518813076,nan,539.973281062,nan,nan,nan,nan
1,226,1,1,1.0,1.0,0.440654216101,0,0.0,0.0,0.0,0.404291613873,0.100953694761,0.303337919112,0.505245308634,0.100953694761,0.44380253437,453,0.359670421306,0.39926174925,-1.0,nan,nan,nan,nan,nan,nan,nan,nan,278.651339796,540.460595845,nan,540.901250062,nan,nan,nan,nan
1,227,1,1,1.0,1.0,0.362848590827,0,0.0,0.0,0.0,0.404454674869,0.10075638322,0.303698291649,0.505211058089,0.10075638322,0.419323597724,279,0.238157575771,0.338930353633,0.618978422254,nan,nan,nan,nan,nan,nan,nan,nan,278.651339796,541.402388594,nan,541.765237184,nan,nan,nan,nan
1,228,1,1,1.0,1.0,0.253021236509,0,0.0,0.0,0.0,0.404268933423,0.100569485832,0.303699447591,0.504838419255,0.100569485832,0.352174681146,90,1.0,-0.233635786423,-0.574971871003,nan,nan,nan,nan,nan,nan,nan,nan,278.651339796,542.344186188,nan,542.597207425,nan,nan,nan,nan
1,229,1,1,1.0,1.0,0.367192602716,0,0.0,0.0,0.0,0.403596721436,0.100848837529,0.302747883908,0.504445558965,0.100848837529,0.327687476684,151,1.0,-0.262720288689,0.0734626651272,nan,nan,nan,nan,nan,nan,nan,nan,278.651339796,543.285976086,nan,543.653168688,nan,nan,nan,nan
1,230,1,1,1.0,1.0,0.289408074692,0,0.0,0.0,0.0,0.403435641265,0.100654477825,0.30278116344,0.50409011909,0.100654477825,0.303207304639,205,1.0,0.00854800403903,0.505535240796,nan,nan,nan,nan,nan,nan,nan,nan,278.651339796,544.227767408,nan,544.517175483,nan,nan,nan,nan
1,231,1,1,1.0,1.0,0.267592507182,0,0.0,0.0,0.0,0.402933317183,0.100716031428,0.302217285755,0.503649348611,0.100716031428,0.308064394863,278,0.248285521772,0.335802812283,0.621962573991,nan,nan,nan,nan,nan,nan,nan,nan,278.651339796,545.169565858,nan,545.437158366,nan,nan,nan,nan
1,232,1,1,1.0,1.0,0.261769416044,0,1.0,0.0,0.0,0.402339717139,0.100892095532,0.301447621607,0.503231812671,0.100892095532,0.272923332639,379,-0.113535935895,0.478614986251,-0.165970515924,nan,nan,nan,nan,nan,nan,nan,nan,278.651339796,546.111350909,nan,546.373120325,nan,nan,nan,nan
1,233,1,1,1.0,1.0,0.247969330521,1,0.0,0.0,1.0,0.40172587303,0.10109735737,0.300628515659,0.5028232304,0.10109735737,0.259110417916,505,0.789537956352,0.240683140511,-1.0,85.3275572446,4.67244275539,9.59431775539,7.0,0.9030914636,0.181853060355,-1.0,1.47546532704,278.651339796,547.053144797,547.861559528,547.301114128,550.370194667,551.370331228,548.87835512,550.361860447
1,234,1,1,1.0,1.0,0.500957210781,0,0.0,0.0,0.0,0.401057366323,0.101383323706,0.299674042618,0.502440690029,0.101383323706,0.336898652449,108,1.0,-0.292426609412,-0.368663285579,nan,nan,nan,nan,nan,nan,nan,nan,278.651339796,551.512032631,nan,552.012989842,nan,nan,nan,nan
1,235,1,1,1.0,1.0,0.367117337417,0,0.0,0.0,0.0,0.401489833182,0.101376026061,0.300113807121,0.502865859243,0.101376026061,0.37201462624,153,1.0,-0.255547855702,0.0926213922694,nan,nan,nan,nan,nan,nan,nan,nan,278.651339796,552.453868714,nan,552.820986051,nan,nan,nan,nan
1,236,1,1,1.0,1.0,0.353293303866,0,0.0,0.0,0.0,0.401341675873,0.101182367074,0.300159308799,0.502524042947,0.101182367074,0.407122617355,83,1.0,-0.203097876184,-0.665876706514,nan,nan,nan,nan,nan,nan,nan,nan,278.651339796,553.395659466,nan,553.74895277,nan,nan,nan,nan
1,237,0,0,1.0,0.0,0.315488967346,0,0.0,0.0,0.0,0.401135459684,0.1010138499,0.300121609785,0.502149309584,0.1010138499,0.345299869543,384,-0.0924750057551,0.477945316949,-0.222479273925,nan,nan,nan,nan,nan,nan,nan,nan,278.651339796,554.337443376,nan,554.652932344,nan,nan,nan,nan
1,238,1,1,1.0,1.0,0.477656291798,0,0.0,0.0,0.0,0.400769449033,0.100952491115,0.299816957918,0.501721940148,0.100952491115,0.38214618767,294,0.0948761993654,0.381212130724,0.559858230992,nan,nan,nan,nan,nan,nan,nan,nan,278.651339796,555.27923812,nan,555.756894412,nan,nan,nan,nan
1,239,1,1,1.0,1.0,0.43185243872,0,0.0,0.0,0.0,0.401096627087,0.100861719308,0.30023490778,0.501958346395,0.100861719308,0.408332565955,79,1.0,-0.184296021705,-0.724170777997,nan,nan,nan,nan,nan,nan,nan,nan,278.651339796,556.221041702,nan,556.652894141,nan,nan,nan,nan
1,240,1,1,1.0,1.0,0.554030163679,0,0.0,0.0,0.0,0.401226948323,0.100667627741,0.300559320582,0.501894576064,0.100667627741,0.487846298066,314,-0.0594438881467,0.42463230952,0.441925406839,nan,nan,nan,nan,nan,nan,nan,nan,278.651339796,557.162835305,nan,557.716865469,nan,nan,nan,nan
1,241,0,0,0.0,1.0,0.484216072364,0,0.0,0.0,0.0,0.401871687629,0.10094213418,0.300929553449,0.502813821808,0.10094213418,0.490032891588,92,1.0,-0.241703663401,-0.55060883727,nan,nan,nan,nan,nan,nan,nan,nan,278.651339796,558.104624347,nan,558.588840419,nan,nan,nan,nan
1,242,1,1,1.0,1.0,0.302422719542,0,0.0,0.0,0.0,0.402217672438,0.100870572557,0.301347099882,0.503088244995,0.100870572557,0.446889651862,259,0.44882283482,0.268906983076,0.655011783756,nan,nan,nan,nan,nan,nan,nan,nan,278.651339796,559.0464151,nan,559.348837819,nan,nan,nan,nan
1,243,1,1,1.0,1.0,0.336591508472,0,0.0,0.0,0.0,0.401800120334,0.100865231685,0.300934888649,0.502665352019,0.100865231685,0.374410100126,119,1.0,-0.309446327048,-0.250710895617,nan,nan,nan,nan,nan,nan,nan,nan,278.651339796,559.988208418,nan,560.324799926,nan,nan,nan,nan
1,244,1,1,1.0,1.0,0.330784952734,0,0.0,0.0,0.0,0.401528417785,0.100742481974,0.300785935811,0.502270899759,0.100742481974,0.323266393583,383,-0.0968787136249,0.478131214543,-0.211081409456,nan,nan,nan,nan,nan,nan,nan,nan,278.651339796,560.92999917,nan,561.260784123,nan,nan,nan,nan
1,245,1,1,1.0,1.0,0.516952822451,0,0.0,0.0,0.0,0.401234876436,0.10063605422,0.300598822216,0.501870930656,0.10063605422,0.394776427886,39,1.0,0.0253789930673,-1.0,nan,nan,nan,nan,nan,nan,nan,nan,278.651339796,561.871800186,nan,562.388753009,nan,nan,nan,nan
1,246,1,1,1.0,1.0,0.407156258821,0,0.0,0.0,0.0,0.401713049767,0.100701888485,0.301011161282,0.502414938251,0.100701888485,0.418298011335,343,-0.171388175652,0.463836419185,0.204822810802,nan,nan,nan,nan,nan,nan,nan,nan,278.651339796,562.813586947,nan,563.220743206,nan,nan,nan,nan
1,247,1,1,1.0,1.0,0.425325444434,0,0.0,0.0,0.0,0.401735449804,0.100495073481,0.301240376323,0.502230523285,0.100495073481,0.449811508569,464,0.448404880525,0.373503555275,-1.0,nan,nan,nan,nan,nan,nan,nan,nan,278.651339796,563.755380551,nan,564.180705995,nan,nan,nan,nan
1,248,1,1,1.0,1.0,0.307526228018,0,0.0,0.0,0.0,0.40183213011,0.10030025287,0.30153187724,0.50213238298,0.10030025287,0.380002643758,136,1.0,-0.301914900238,-0.074841205769,nan,nan,nan,nan,nan,nan,nan,nan,278.651339796,564.697167597,nan,565.004693825,nan,nan,nan,nan
1,249,0,0,0.0,1.0,0.429705093615,0,0.0,0.0,0.0,0.40144720806,0.100275775654,0.301171432406,0.501722983714,0.100275775654,0.387518922022,324,-0.114799643766,0.441158325109,0.368064040095,nan,nan,nan,nan,nan,nan,nan,nan,278.651339796,565.638966617,nan,566.068671711,nan,nan,nan,nan
1,250,1,1,1.0,1.0,0.287897349335,0,0.0,0.0,0.0,0.401562077514,0.100087906524,0.30147417099,0.501649984038,0.100087906524,0.341709556989,208,0.97651257568,0.025020743352,0.522574479073,nan,nan,nan,nan,nan,nan,nan,nan,278.651339796,566.580755374,nan,566.868652723,nan,nan,nan,nan
1,251,0,0,1.0,0.0,0.314073464135,0,0.0,0.0,0.0,0.401101896428,0.100145527025,0.300956369403,0.501247423453,0.100145527025,0.343891969028,260,0.438016636947,0.272781976488,0.654406567654,nan,nan,nan,nan,nan,nan,nan,nan,278.651339796,567.522557815,nan,567.836631279,nan,nan,nan,nan
1,252,1,1,1.0,1.0,0.476276710862,0,0.0,0.0,0.0,0.40075097533,0.100095472046,0.300655503285,0.500846447376,0.100095472046,0.359415841444,6,0.895129075663,0.186272780825,-1.0,nan,nan,nan,nan,nan,nan,nan,nan,278.651339796,568.464327186,nan,568.940603897,nan,nan,nan,nan
1,253,1,1,1.0,1.0,0.478442872409,0,0.0,0.0,0.0,0.401054291537,0.100008411343,0.301045880194,0.50106270288,0.100008411343,0.422931015802,143,1.0,-0.287057525782,-0.00469998909502,nan,nan,nan,nan,nan,nan,nan,nan,278.651339796,569.406136184,nan,569.884579057,nan,nan,nan,nan
1,254,1,1,1.0,1.0,0.384633367648,0,0.0,0.0,0.0,0.401363845861,0.099927652609,0.301436193252,0.50129149847,0.099927652609,0.44645098364,194,1.0,-0.0524864644427,0.435571704399,nan,nan,nan,nan,nan,nan,nan,nan,278.651339796,570.347925226,nan,570.732558594,nan,nan,nan,nan
1,255,1,1,1.0,1.0,0.426811936544,0,0.0,0.0,0.0,0.401297190569,0.0997339635077,0.301563227061,0.501031154077,0.0997339635077,0.429962725534,89,1.0,-0.229484098413,-0.587370487375,nan,nan,nan,nan,nan,nan,nan,nan,278.651339796,571.289717404,nan,571.71652934,nan,nan,nan,nan
1,256,1,1,1.0,1.0,0.317002543248,0,0.0,0.0,0.0,0.401398439561,0.0995488065596,0.301849633001,0.50094724612,0.0995488065596,0.37614928248,406,0.0244967455079,0.467245700284,-0.489366101921,nan,nan,nan,nan,nan,nan,nan,nan,278.651339796,572.231508727,nan,572.54851127,nan,nan,nan,nan
1,257,1,1,1.0,1.0,0.327199297026,0,0.0,0.0,0.0,0.401064858943,0.0994928973593,0.301571961584,0.500557756302,0.0994928973593,0.357004592273,156,1.0,-0.244060613314,0.121041471254,nan,nan,nan,nan,nan,nan,nan,nan,278.651339796,573.173296058,nan,573.500495355,nan,nan,nan,nan
1,258,1,1,1.0,1.0,0.305374321528,0,0.0,0.0,0.0,0.400774049644,0.0994045323385,0.301369517306,0.500178581983,0.0994045323385,0.316525387267,403,0.00657627305109,0.469456436931,-0.450524507496,nan,nan,nan,nan,nan,nan,nan,nan,278.651339796,574.115097644,nan,574.420471966,nan,nan,nan,nan
1,259,1,1,1.0,1.0,0.275569215883,0,0.0,0.0,0.0,0.400399933063,0.0993884382762,0.301011494787,0.49978837134,0.0993884382762,0.302714278145,507,0.805995650865,0.232688349973,-1.0,nan,nan,nan,nan,nan,nan,nan,nan,278.651339796,575.056886686,nan,575.332455902,nan,nan,nan,nan
1,260,0,0,0.0,1.0,0.47773241275,0,0.0,0.0,0.0,0.399912313074,0.0994992847427,0.300413028332,0.499411597817,0.0994992847427,0.352891983387,338,-0.162891363375,0.458928707883,0.250399161362,nan,nan,nan,nan,nan,nan,nan,nan,278.651339796,575.998686561,nan,576.476418974,nan,nan,nan,nan
1,261,1,1,1.0,1.0,0.391944946721,0,0.0,0.0,0.0,0.400215115019,0.0994236301543,0.300791484864,0.499638745173,0.0994236301543,0.381748858451,29,1.0,0.0770173926463,-1.0,nan,nan,nan,nan,nan,nan,nan,nan,278.651339796,576.940468476,nan,577.332413423,nan,nan,nan,nan
1,262,1,1,1.0,1.0,0.394155298127,0,0.0,0.0,0.0,0.400183060103,0.0992320922177,0.300950967885,0.49941515232,0.0992320922177,0.421277552533,182,1.0,-0.118523835432,0.347089474713,nan,nan,nan,nan,nan,nan,nan,nan,278.651339796,577.882241837,nan,578.276397136,nan,nan,nan,nan
1,263,1,1,1.0,1.0,0.300298752496,0,0.0,0.0,0.0,0.40015978689,0.0990410446898,0.301118742201,0.49920083158,0.0990410446898,0.362132999115,455,0.375608248681,0.394875365091,-1.0,nan,nan,nan,nan,nan,nan,nan,nan,278.651339796,578.824059674,nan,579.124358427,nan,nan,nan,nan
1,264,1,1,1.0,1.0,0.294491341338,0,0.0,0.0,0.0,0.399775705989,0.09904346679,0.300732239199,0.498819172779,0.09904346679,0.329648463987,315,-0.0657111424032,0.426434809442,0.434956515233,nan,nan,nan,nan,nan,nan,nan,nan,278.651339796,579.765854988,nan,580.060346329,nan,nan,nan,nan
1,265,1,1,1.0,1.0,0.25669156597,0,1.0,0.0,0.0,0.399372317619,0.0990673072901,0.300305010329,0.498439624909,0.0990673072901,0.283827219935,497,0.723174939644,0.271260599794,-1.0,nan,nan,nan,nan,nan,nan,nan,nan,278.651339796,580.707639468,nan,580.964331034,nan,nan,nan,nan
1,266,1,1,1.0,1.0,0.346865523374,1,0.0,0.0,1.0,0.398827734597,0.0992687112732,0.299559023324,0.49809644587,0.0992687112732,0.299349476894,384,-0.0924750057551,0.477945316949,-0.222479273925,-151.105142084,241.105142084,-28.8948579159,343.0,-0.171388175652,0.463836419185,0.204822810802,2.00889129774,278.651339796,581.649439629,582.457843811,581.996305152,585.499957948,586.500759354,583.474611749,585.491591513
1,267,0,0,0.0,1.0,0.746373503935,0,0.0,0.0,0.0,0.398630159649,0.09913140622,0.299498753429,0.497761565869,0.09913140622,0.449976864426,83,1.0,-0.203097876184,-0.665876706514,nan,nan,nan,nan,nan,nan,nan,nan,278.651339796,586.641766263,nan,587.388139767,nan,nan,nan,nan
1,268,1,1,1.0,1.0,0.756588503718,0,0.0,0.0,0.0,0.399947369287,0.101223159022,0.298724210265,0.501170528308,0.101223159022,0.616609177009,29,1.0,0.0770173926463,-1.0,nan,nan,nan,nan,nan,nan,nan,nan,278.651339796,587.583559011,nan,588.340147515,nan,nan,nan,nan
1,269,1,1,1.0,1.0,0.510790181346,0,0.0,0.0,0.0,0.401293184888,0.103371298105,0.297921886784,0.504664482993,0.103371298105,0.671250729666,341,-0.168535884224,0.46196150489,0.223260112086,nan,nan,nan,nan,nan,nan,nan,nan,278.651339796,588.525350333,nan,589.036140515,nan,nan,nan,nan
1,270,1,1,1.0,1.0,0.424967363477,0,0.0,1.0,0.0,0.401704827732,0.103394187233,0.2983106405,0.505099014965,0.103394187233,0.564115349514,110,1.0,-0.296722754836,-0.346921960777,nan,nan,nan,nan,nan,nan,nan,nan,278.651339796,589.467147928,nan,589.892115292,nan,nan,nan,nan
1,271,1,1,1.0,1.0,0.283154487843,1,0.0,0.0,1.0,0.401791953334,0.103210165833,0.298581787502,0.505002119167,0.103210165833,0.406304010889,244,0.611372359265,0.206163547436,0.648880721676,-86.2435474522,176.243547452,4.6810474522,251.0,0.535576518695,0.236509187076,0.655284151108,1.24218415678,278.651339796,590.408951225,591.217363675,590.692105713,593.500981444,594.504374945,592.242456139,593.492648365
1,272,1,1,1.0,1.0,0.641134774312,0,0.0,0.0,0.0,0.401349276224,0.103271065297,0.298078210928,0.504620341521,0.103271065297,0.449752208544,171,1.0,-0.176011872558,0.256450910142,nan,nan,nan,nan,nan,nan,nan,nan,278.651339796,594.642834233,nan,595.283969008,nan,nan,nan,nan
1,273,0,0,0.0,1.0,0.523309329059,0,0.0,0.0,0.0,0.402240672128,0.104106751151,0.298133920977,0.506347423279,0.104106751151,0.482532863738,457,0.391639248186,0.390358177281,-1.0,nan,nan,nan,nan,nan,nan,nan,nan,278.651339796,595.584625841,nan,596.10793517,nan,nan,nan,nan
1,274,1,1,1.0,1.0,0.277551775565,0,0.0,0.0,0.0,0.402689074561,0.10417370355,0.298515371011,0.506862778111,0.10417370355,0.480665292979,215,0.910639861846,0.0628947364355,0.558695148714,nan,nan,nan,nan,nan,nan,nan,nan,278.651339796,596.52640576,nan,596.803957535,nan,nan,nan,nan
1,275,1,1,1.0,1.0,0.551698931493,0,0.0,0.0,0.0,0.40222731331,0.10425778614,0.29796952717,0.50648509945,0.10425778614,0.450853345372,473,0.522594813828,0.349396171415,-1.0,nan,nan,nan,nan,nan,nan,nan,nan,278.651339796,597.468212478,nan,598.019911409,nan,nan,nan,nan
1,276,0,0,1.0,0.0,0.337908653542,0,0.0,0.0,0.0,0.402776841318,0.104458416366,0.298318424952,0.507235257684,0.104458416366,0.3890531202,100,1.0,-0.270427092546,-0.457439896749,nan,nan,nan,nan,nan,nan,nan,nan,278.651339796,598.410006081,nan,598.747914735,nan,nan,nan,nan
1,277,1,1,1.0,1.0,0.372048362624,0,0.0,0.0,0.0,0.402539228909,0.104340541926,0.298198686983,0.506879770835,0.104340541926,0.420551982553,44,1.0,-0.00106984144607,-1.0,nan,nan,nan,nan,nan,nan,nan,nan,278.651339796,599.351798259,nan,599.723846622,nan,nan,nan,nan
1,278,1,1,1.0,1.0,0.342256942065,0,0.0,0.0,0.0,0.402427948375,0.104166193924,0.298261754451,0.506594142298,0.104166193924,0.350737986077,491,0.673033477965,0.292707709811,-1.0,nan,nan,nan,nan,nan,nan,nan,nan,278.651339796,600.293586446,nan,600.635843388,nan,nan,nan,nan
1,279,1,1,1.0,1.0,0.488439488458,0,0.0,0.0,0.0,0.402209144716,0.104039689567,0.298169455148,0.506248834283,0.104039689567,0.400914931049,137,1.0,-0.300190217086,-0.0647316600203,nan,nan,nan,nan,nan,nan,nan,nan,278.651339796,601.235369785,nan,601.723809274,nan,nan,nan,nan
1,280,1,1,1.0,1.0,0.306650412269,0,0.0,0.0,0.0,0.402521573497,0.103980199617,0.298541373881,0.506501773114,0.103980199617,0.379115614264,210,0.958022500947,0.0359304984579,0.533421856807,nan,nan,nan,nan,nan,nan,nan,nan,278.651339796,602.177171942,nan,602.483822354,nan,nan,nan,nan
1,281,1,1,1.0,1.0,0.27685899171,0,0.0,0.0,0.0,0.402175468222,0.103951486634,0.298223981588,0.506126954856,0.103951486634,0.357316297479,104,1.0,-0.282351481576,-0.412644567278,nan,nan,nan,nan,nan,nan,nan,nan,278.651339796,603.118954141,nan,603.395813133,nan,nan,nan,nan
1,282,1,1,1.0,1.0,0.279037697474,0,1.0,0.0,0.0,0.40172468953,0.104035225688,0.297689463842,0.505759915217,0.104035225688,0.287515700484,255,0.492159363509,0.253017189294,0.656163111527,nan,nan,nan,nan,nan,nan,nan,nan,278.651339796,604.060754017,nan,604.339791714,nan,nan,nan,nan
1,283,1,1,1.0,1.0,0.257235814817,1,0.0,0.0,1.0,0.401284951207,0.104107116449,0.297177834758,0.505392067655,0.104107116449,0.271044168,113,1.0,-0.302191989669,-0.314576349441,-14.1150546693,104.115054669,24.6619296693,148.0,1.0,-0.272695592461,0.0444264621409,2.72570601967,278.651339796,605.002536787,605.810967768,605.259772602,609.569803971,610.572036274,606.827729433,609.561483721
1,284,1,1,1.0,1.0,0.659933737945,0,0.0,0.0,0.0,0.400770490005,0.104275723599,0.296494766407,0.505046213604,0.104275723599,0.398735750079,78,1.0,-0.179467652321,-0.739907630878,nan,nan,nan,nan,nan,nan,nan,nan,278.651339796,610.711645071,nan,611.371578809,nan,nan,nan,nan
1,285,1,1,1.0,1.0,0.758141138125,0,0.0,0.0,0.0,0.401692779144,0.105227866534,0.296464912609,0.506920645678,0.105227866534,0.558436896962,509,0.822386376617,0.224555004187,-1.0,nan,nan,nan,nan,nan,nan,nan,nan,278.651339796,611.653425845,nan,612.411566983,nan,nan,nan,nan
1,286,1,1,1.0,1.0,0.656301041134,0,0.0,1.0,0.0,0.402956780417,0.107156855866,0.295833417369,0.511870562268,0.107156855866,0.691458639068,116,1.0,-0.306446923025,-0.282515442494,nan,nan,nan,nan,nan,nan,nan,nan,278.651339796,612.595230852,nan,613.251531894,nan,nan,nan,nan
1,287,1,1,nan,nan,nan,0,0.0,0.0,0.0,0.403851989819,0.10801857245,0.295833417369,0.511870562268,0.10801857245,0.707221089629,161,1.0,-0.223158351501,0.167490545043,nan,nan,nan,nan,nan,nan,nan,nan,278.651339796,613.537021605,nan,nan,nan,nan,nan,nan
1,288,1,1,1.0,1.0,0.636715781875,0,0.0,0.0,0.0,0.403851989819,0.10801857245,0.295965032515,0.513378832982,0.10801857245,0.646508411504,503,0.773020196022,0.248538461814,-1.0,nan,nan,nan,nan,nan,nan,nan,nan,278.651339796,614.478812928,nan,615.115528709,nan,nan,nan,nan
1,289,1,1,nan,nan,nan,0,0.0,0.0,0.0,0.404671932749,0.108706900233,0.295965032515,0.513378832982,0.108706900233,0.636715781875,250,0.546428449327,0.232286661223,0.654747725831,nan,nan,nan,nan,nan,nan,nan,nan,278.651339796,615.420605105,nan,nan,nan,nan,nan,nan
1,290,1,1,nan,nan,nan,0,0.0,0.0,0.0,0.404671932749,0.108706900233,0.295965032515,0.513378832982,0.108706900233,0.636715781875,294,0.0948761993654,0.381212130724,0.559858230992,nan,nan,nan,nan,nan,nan,nan,nan,278.651339796,616.362370769,nan,nan,nan,nan,nan,nan
1,291,0,0,0.0,1.0,0.53925504908,0,0.0,0.0,0.0,0.404671932749,0.108706900233,0.295965032515,0.513378832982,0.108706900233,0.53925504908,488,0.647907709101,0.302951493728,-1.0,nan,nan,nan,nan,nan,nan,nan,nan,278.651339796,617.304191172,nan,617.843446221,nan,nan,nan,nan
1,292,1,1,1.0,1.0,0.357474240707,0,0.0,0.0,0.0,0.405144154209,0.108807427944,0.296323995716,0.513630956664,0.108807427944,0.448364644893,74,1.0,-0.159715158178,-0.810443278181,nan,nan,nan,nan,nan,nan,nan,nan,278.651339796,618.24598449,nan,618.603458731,nan,nan,nan,nan
1,293,1,1,nan,nan,nan,0,0.0,0.0,0.0,0.40497747619,0.108653480474,0.296323995716,0.513630956664,0.108653480474,0.448364644893,133,1.0,-0.306259573676,-0.105336427414,nan,nan,nan,nan,nan,nan,nan,nan,278.651339796,619.18778123,nan,nan,nan,nan,nan,nan
1,294,1,1,1.0,1.0,0.137871704996,0,0.0,0.0,0.0,0.40497747619,0.108653480474,0.294446753929,0.513646834192,0.108653480474,0.247672972851,337,-0.160643365934,0.457858386897,0.259303564052,nan,nan,nan,nan,nan,nan,nan,nan,278.651339796,620.129572552,nan,620.267444257,nan,nan,nan,nan
1,295,1,1,nan,nan,nan,0,0.0,0.0,0.0,0.404046794061,0.109600040131,0.294446753929,0.513646834192,0.109600040131,0.137871704996,483,0.606025706087,0.319314454546,-1.0,nan,nan,nan,nan,nan,nan,nan,nan,278.651339796,621.071359599,nan,nan,nan,nan,nan,nan
1,296,1,1,1.0,1.0,0.102254341822,0,0.0,0.0,0.0,0.404046794061,0.109600040131,0.294446753929,0.513646834192,0.109600040131,0.120063023409,76,1.0,-0.169674511773,-0.773365826749,nan,nan,nan,nan,nan,nan,nan,nan,278.651339796,622.013160044,nan,622.115414386,nan,nan,nan,nan
1,297,1,1,1.0,1.0,0.256369977491,0,0.0,0.0,0.0,0.402998903601,0.110840458472,0.292158445129,0.513839362073,0.110840458472,0.179312159657,238,0.675741828754,0.178727669763,0.638511091232,nan,nan,nan,nan,nan,nan,nan,nan,278.651339796,622.954947946,nan,623.211317923,nan,nan,nan,nan
1,298,1,1,1.0,1.0,0.290562999668,0,1.0,0.0,0.0,0.402491537075,0.110983033256,0.291508503819,0.513474570331,0.110983033256,0.216395772994,194,1.0,-0.0524864644427,0.435571704399,nan,nan,nan,nan,nan,nan,nan,nan,278.651339796,623.896740979,nan,624.187303978,nan,nan,nan,nan
1,299,1,1,1.0,1.0,0.316771045094,1,0.0,0.0,1.0,0.402105576601,0.110985636355,0.291119940247,0.513091212956,0.110985636355,0.287901340751,417,0.0945046041228,0.457053563907,-0.645720198395,167.087059246,282.912940754,-10.2901842461,402.0,0.000724920831492,0.470139955471,-0.437811562499,0.858725955943,278.651339796,624.838532587,625.646941616,625.155303632,627.54725371,628.544860327,626.672047479,627.538938307
1,300,1,1,1.0,1.0,0.306176012149,0,0.0,0.0,0.0,0.401812330788,0.110907259586,0.290905071202,0.512719590375,0.110907259586,0.304503352304,280,0.228089347314,0.342018854333,0.61587222022,nan,nan,nan,nan,nan,nan,nan,nan,278.651339796,628.689044064,nan,628.995220076,nan,nan,nan,nan
1,301,1,1,1.0,1.0,0.284321386833,0,0.0,0.0,0.0,0.401484809149,0.110858067796,0.290626741353,0.512342876946,0.110858067796,0.302422814692,138,1.0,-0.29832987918,-0.0546508148191,nan,nan,nan,nan,nan,nan,nan,nan,278.651339796,629.630834816,nan,629.915156203,nan,nan,nan,nan
1,302,1,1,1.0,1.0,0.294544083998,0,0.0,0.0,0.0,0.401084933988,0.110879476521,0.290205457467,0.511964410509,0.110879476521,0.29501382766,217,0.891250405156,0.0735373331823,0.568048345461,nan,nan,nan,nan,nan,nan,nan,nan,278.651339796,630.572624428,nan,630.867168512,nan,nan,nan,nan
1,303,1,1,1.0,1.0,0.328721425962,0,0.0,0.0,0.0,0.400722550144,0.110864414801,0.289858135344,0.511586964945,0.110864414801,0.302528965597,506,0.797774742377,0.236703125255,-1.0,nan,nan,nan,nan,nan,nan,nan,nan,278.651339796,631.514430006,nan,631.843151432,nan,nan,nan,nan
1,304,1,1,1.0,1.0,0.274885840481,0,0.0,0.0,0.0,0.400478478537,0.110755443197,0.28972303534,0.511233921734,0.110755443197,0.29938378348,330,-0.139766326074,0.449518327743,0.319540245599,nan,nan,nan,nan,nan,nan,nan,nan,278.651339796,632.456233302,nan,632.731119143,nan,nan,nan,nan
1,305,1,1,1.0,1.0,0.277097617276,0,0.0,0.0,0.0,0.400054179084,0.110808101107,0.289246077977,0.510862280191,0.110808101107,0.293568294573,505,0.789537956352,0.240683140511,-1.0,nan,nan,nan,nan,nan,nan,nan,nan,278.651339796,633.398003243,nan,633.67510086,nan,nan,nan,nan
1,306,1,1,1.0,1.0,0.27926976583,0,1.0,0.0,0.0,0.399640183926,0.110850465796,0.28878971813,0.510490649723,0.110850465796,0.277084407862,89,1.0,-0.229484098413,-0.587370487375,nan,nan,nan,nan,nan,nan,nan,nan,278.651339796,634.339795991,nan,634.619065757,nan,nan,nan,nan
1,307,0,0,0.0,1.0,0.42543520662,1,0.0,0.0,1.0,0.399236256349,0.110883043007,0.288353213342,0.510119299356,0.110883043007,0.327267529909,424,0.142174562463,0.448819569244,-0.770229420881,163.060914369,286.939085631,-11.185914369,408.0,0.036737934283,0.465637664749,-0.515938449969,1.3504611575,278.651339796,635.2815933,636.090007746,635.707028507,638.473627881,639.481194052,637.106782526,638.465286535
1,308,1,1,1.0,1.0,0.123146767262,0,0.0,0.0,0.0,0.399323878256,0.110707798212,0.288616080044,0.510031676468,0.110707798212,0.275950579904,297,0.0686262056446,0.388646276542,0.544904663634,nan,nan,nan,nan,nan,nan,nan,nan,278.651339796,639.623833137,nan,639.746979904,nan,nan,nan,nan
1,309,1,1,1.0,1.0,0.277314575389,0,0.0,0.0,0.0,0.398403287886,0.111663606568,0.286739681318,0.510066894454,0.111663606568,0.275298849757,180,1.0,-0.129278616986,0.331238955499,nan,nan,nan,nan,nan,nan,nan,nan,278.651339796,640.565630161,nan,640.842944737,nan,nan,nan,nan
1,310,1,1,1.0,1.0,0.343487987528,0,1.0,0.0,0.0,0.398000999805,0.111695511489,0.286305488316,0.509696511293,0.111695511489,0.24798311006,296,0.0772713571413,0.386205321608,0.550001308524,nan,nan,nan,nan,nan,nan,nan,nan,278.651339796,641.507422054,nan,641.850910041,nan,nan,nan,nan
1,311,1,1,1.0,1.0,0.321680117864,1,0.0,0.0,1.0,0.397820493142,0.111554398304,0.286266094838,0.509374891445,0.111554398304,0.314160893594,391,-0.0591907973189,0.475916278612,-0.303718712187,-177.436229789,267.436229789,-7.48564521147,380.0,-0.109519508899,0.478533032186,-0.177177385375,2.10057341424,278.651339796,642.449215372,643.257624116,642.77089549,646.391342538,647.390216408,644.274394334,646.38301117
1,312,1,1,1.0,1.0,0.3255160884,0,0.0,0.0,0.0,0.397569204774,0.111455745712,0.286113459063,0.509024950486,0.111455745712,0.330228064597,10,0.926811495151,0.168400576072,-1.0,nan,nan,nan,nan,nan,nan,nan,nan,278.651339796,647.533266602,nan,647.85878269,nan,nan,nan,nan
1,313,1,1,1.0,1.0,0.33572167973,0,0.0,0.0,0.0,0.397332187944,0.111348739434,0.28598344851,0.508680927378,0.111348739434,0.327639295332,461,0.423959648591,0.380927367285,-1.0,nan,nan,nan,nan,nan,nan,nan,nan,278.651339796,648.475034547,nan,648.810756226,nan,nan,nan,nan
1,314,1,1,1.0,1.0,0.313880739035,0,0.0,0.0,0.0,0.397130186278,0.111221829861,0.285908356417,0.508352016139,0.111221829861,0.325039502388,192,1.0,-0.0635997558896,0.421658406928,nan,nan,nan,nan,nan,nan,nan,nan,278.651339796,649.416811329,nan,649.730692068,nan,nan,nan,nan
1,315,1,1,1.0,1.0,0.396084544715,0,0.0,0.0,0.0,0.396858129261,0.111141550362,0.285716578899,0.507999679622,0.111141550362,0.34856232116,51,1.0,-0.0385160204876,-1.0,nan,nan,nan,nan,nan,nan,nan,nan,278.651339796,650.358589252,nan,650.754673797,nan,nan,nan,nan
1,316,1,1,1.0,1.0,0.32629411621,0,0.0,0.0,0.0,0.396855609441,0.110960399175,0.285895210266,0.507816008616,0.110960399175,0.345419799987,3,0.871087178923,0.199335109687,-1.0,nan,nan,nan,nan,nan,nan,nan,nan,278.651339796,651.300396825,nan,651.626690942,nan,nan,nan,nan
1,317,1,1,1.0,1.0,0.304468000308,0,0.0,0.0,0.0,0.396626513684,0.110852822835,0.285773690849,0.507479336519,0.110852822835,0.342282220411,417,0.0945046041228,0.457053563907,-0.645720198395,nan,nan,nan,nan,nan,nan,nan,nan,278.651339796,652.242188718,nan,652.546656719,nan,nan,nan,nan
1,318,1,1,1.0,1.0,0.282675810857,0,0.0,0.0,0.0,0.396328266068,0.110797009519,0.285531256549,0.507125275587,0.110797009519,0.304479309125,503,0.773020196022,0.248538461814,-1.0,nan,nan,nan,nan,nan,nan,nan,nan,278.651339796,653.183979756,nan,653.466655567,nan,nan,nan,nan
1,319,1,1,1.0,1.0,0.364506140584,0,0.0,0.0,0.0,0.395961645245,0.110805732421,0.285155912824,0.506767377666,0.110805732421,0.317216650583,0,0.846831709088,0.212097570855,-1.0,nan,nan,nan,nan,nan,nan,nan,nan,278.651339796,654.134098456,nan,654.498604596,nan,nan,nan,nan
1,320,1,1,1.0,1.0,0.342715091538,0,0.0,0.0,0.0,0.395860502143,0.110641776935,0.285218725208,0.506502279078,0.110641776935,0.329965680993,218,0.881467392804,0.0788246127756,0.572559633417,nan,nan,nan,nan,nan,nan,nan,nan,278.651339796,655.075897476,nan,655.418612567,nan,nan,nan,nan
1,321,1,1,1.0,1.0,0.328884785995,0,0.0,0.0,0.0,0.395690164288,0.110505160771,0.285185003517,0.50619532506,0.110505160771,0.345368672706,318,-0.0835627602325,0.431640264478,0.413481556053,nan,nan,nan,nan,nan,nan,nan,nan,278.651339796,656.01769336,nan,656.346578146,nan,nan,nan,nan
1,322,1,1,1.0,1.0,0.275070867734,0,0.0,0.0,0.0,0.395476728575,0.110392887581,0.285083840994,0.505869616156,0.110392887581,0.315556915089,65,1.0,-0.113312155659,-1.0,nan,nan,nan,nan,nan,nan,nan,nan,278.651339796,656.959482117,nan,657.234552985,nan,nan,nan,nan
1,323,0,0,1.0,0.0,0.277222489472,0,0.0,0.0,0.0,0.39509327042,0.110425551403,0.284667719016,0.505518821823,0.110425551403,0.293726047734,108,1.0,-0.292426609412,-0.368663285579,nan,nan,nan,nan,nan,nan,nan,nan,278.651339796,657.901313068,nan,658.178535557,nan,nan,nan,nan
1,324,1,1,1.0,1.0,0.535454145633,0,0.0,0.0,0.0,0.394719077464,0.110449347279,0.284269730185,0.505168424743,0.110449347279,0.362582500946,326,-0.12383419111,0.444071765824,0.352223541474,nan,nan,nan,nan,nan,nan,nan,nan,278.651339796,658.843050507,nan,659.378504653,nan,nan,nan,nan
1,325,1,1,1.0,1.0,0.433628873667,0,0.0,0.0,0.0,0.395164441604,0.110557377424,0.28460706418,0.505721819028,0.110557377424,0.415435169591,444,0.289241202529,0.417409780569,-1.0,nan,nan,nan,nan,nan,nan,nan,nan,278.651339796,659.784861787,nan,660.21849066,nan,nan,nan,nan
1,326,1,1,1.0,1.0,0.467806785833,0,0.0,0.0,0.0,0.395285780506,0.110403931367,0.28488184914,0.505689711873,0.110403931367,0.478963268378,218,0.881467392804,0.0788246127756,0.572559633417,nan,nan,nan,nan,nan,nan,nan,nan,278.651339796,660.726658526,nan,661.194465312,nan,nan,nan,nan
1,327,1,1,1.0,1.0,0.429991045035,0,0.0,0.0,0.0,0.395513833982,0.1103049611,0.285208872882,0.505818795082,0.1103049611,0.443808901512,108,1.0,-0.292426609412,-0.368663285579,nan,nan,nan,nan,nan,nan,nan,nan,278.651339796,661.668446998,nan,662.098438043,nan,nan,nan,nan
1,328,1,1,1.0,1.0,0.376185679808,0,0.0,0.0,0.0,0.395621913014,0.110148796551,0.285473116462,0.505770709565,0.110148796551,0.424661170226,189,1.0,-0.0802194643608,0.400143472992,nan,nan,nan,nan,nan,nan,nan,nan,278.651339796,662.610241171,nan,662.986426851,nan,nan,nan,nan
1,329,0,0,0.0,1.0,0.466375602409,0,0.0,0.0,0.0,0.395561174785,0.109981904639,0.285579270145,0.505543079424,0.109981904639,0.424184109084,502,0.764740937618,0.25241357569,-1.0,nan,nan,nan,nan,nan,nan,nan,nan,278.651339796,663.552029073,nan,664.018404675,nan,nan,nan,nan
1,330,1,1,1.0,1.0,0.268579225522,0,0.0,0.0,0.0,0.395781780478,0.109881347115,0.285900433363,0.505663127594,0.109881347115,0.370380169246,97,1.0,-0.260369742894,-0.491718830742,nan,nan,nan,nan,nan,nan,nan,nan,278.651339796,664.493816689,nan,664.762395915,nan,nan,nan,nan
1,331,1,1,1.0,1.0,0.358726098668,0,0.0,0.0,0.0,0.395386741488,0.109938654443,0.285448087045,0.505325395931,0.109938654443,0.364560308866,390,-0.0641960347588,0.476284203309,-0.291947553613,nan,nan,nan,nan,nan,nan,nan,nan,278.651339796,665.435635096,nan,665.794361195,nan,nan,nan,nan
1,332,1,1,1.0,1.0,0.344930859981,0,0.0,0.0,0.0,0.395273241046,0.109787232085,0.285486008961,0.505060473131,0.109787232085,0.324078728057,509,0.822386376617,0.224555004187,-1.0,nan,nan,nan,nan,nan,nan,nan,nan,278.651339796,666.377402756,nan,666.722333616,nan,nan,nan,nan
1,333,1,1,1.0,1.0,0.315115206176,0,0.0,0.0,0.0,0.395117863326,0.109653239461,0.285464623865,0.504771102788,0.109653239461,0.339590721608,156,1.0,-0.244060613314,0.121041471254,nan,nan,nan,nan,nan,nan,nan,nan,278.651339796,667.31920035,nan,667.634315557,nan,nan,nan,nan
1,334,1,1,1.0,1.0,0.365296997596,0,0.0,0.0,0.0,0.394871701304,0.109574036776,0.285297664528,0.504445738081,0.109574036776,0.341781021251,26,1.0,0.0920921692153,-1.0,nan,nan,nan,nan,nan,nan,nan,nan,278.651339796,668.260990533,nan,668.62628753,nan,nan,nan,nan
1,335,1,1,1.0,1.0,0.55148539436,0,0.0,0.0,0.0,0.394780981354,0.109418072821,0.285362908533,0.504199054175,0.109418072821,0.410632532711,107,1.0,-0.290089771429,-0.379592780214,nan,nan,nan,nan,nan,nan,nan,nan,278.651339796,669.202783281,nan,669.754268675,nan,nan,nan,nan
1,336,1,1,1.0,1.0,0.393671774771,0,0.0,0.0,0.0,0.395260199743,0.109592737272,0.285667462471,0.504852937015,0.109592737272,0.436818055576,2,0.863024578927,0.203622855609,-1.0,nan,nan,nan,nan,nan,nan,nan,nan,278.651339796,670.144579165,nan,670.53825094,nan,nan,nan,nan
1,337,1,1,1.0,1.0,0.707850724692,0,0.0,1.0,0.0,0.395255356984,0.109425582686,0.285829774298,0.50468093967,0.109425582686,0.551002631274,464,0.448404880525,0.373503555275,-1.0,nan,nan,nan,nan,nan,nan,nan,nan,278.651339796,671.086367352,nan,671.794218076,nan,nan,nan,nan
1,338,0,0,0.0,1.0,0.502038580831,1,0.0,0.0,1.0,0.39620549488,0.110605917922,0.285599576957,0.506811412802,0.110605917922,0.534520360098,511,0.838703193994,0.216284169582,-1.0,93.5423611922,356.457638808,-2.83923619219,507.0,0.805995650865,0.232688349973,-1.0,1.97555670026,278.651339796,672.028161525,672.836574831,672.530200106,675.836967693,676.843342446,673.845038199,675.828630053
1,339,1,1,1.0,1.0,0.398903861875,0,0.0,0.0,0.0,0.396526201201,0.110591300933,0.285934900267,0.507117502134,0.110591300933,0.536264389132,92,1.0,-0.241703663401,-0.55060883727,nan,nan,nan,nan,nan,nan,nan,nan,278.651339796,676.987155272,nan,677.386059134,nan,nan,nan,nan
1,340,1,1,1.0,1.0,0.3371183665,0,0.0,0.0,0.0,0.396533384465,0.110424195322,0.286109189143,0.506957579788,0.110424195322,0.412686936402,336,-0.158211608236,0.456758111158,0.268135266647,nan,nan,nan,nan,nan,nan,nan,nan,278.651339796,677.928949731,nan,678.266068097,nan,nan,nan,nan
1,341,1,1,1.0,1.0,0.275304361712,0,0.0,0.0,0.0,0.396354423568,0.110305831361,0.286048592207,0.506660254929,0.110305831361,0.337108863362,173,1.0,-0.165909522591,0.273535192888,nan,nan,nan,nan,nan,nan,nan,nan,278.651339796,678.870740768,nan,679.14604513,nan,nan,nan,nan
1,342,1,1,1.0,1.0,0.309591750614,0,0.0,0.0,0.0,0.395990909869,0.110339063698,0.285651846171,0.506329973567,0.110339063698,0.307338159609,257,0.470472903111,0.261039853404,0.655841377839,nan,nan,nan,nan,nan,nan,nan,nan,278.651339796,679.812535797,nan,680.122127548,nan,nan,nan,nan
1,343,1,1,1.0,1.0,0.439668638166,0,0.0,0.0,0.0,0.395732229751,0.110274841113,0.285457388638,0.506007070864,0.110274841113,0.341521583498,465,0.456588679398,0.37096152752,-1.0,nan,nan,nan,nan,nan,nan,nan,nan,278.651339796,680.754329401,nan,681.193998039,nan,nan,nan,nan
1,344,1,1,1.0,1.0,0.513848979492,0,0.0,0.0,0.0,0.395863383209,0.110136214172,0.285727169038,0.505999597381,0.110136214172,0.421036456091,332,-0.146647089803,0.45205423783,0.302714191958,nan,nan,nan,nan,nan,nan,nan,nan,278.651339796,681.696117302,nan,682.209966282,nan,nan,nan,nan
1,345,1,1,1.0,1.0,0.372045226395,0,0.0,0.0,0.0,0.396214530817,0.110159845586,0.286054685231,0.506374376403,0.110159845586,0.441854281351,448,0.32026743599,0.409662251776,-1.0,nan,nan,nan,nan,nan,nan,nan,nan,278.651339796,682.637916893,nan,683.009962119,nan,nan,nan,nan
1,346,1,1,1.0,1.0,0.462228877004,0,0.0,0.0,0.0,0.396142811813,0.110004137939,0.286138673874,0.506146949752,0.110004137939,0.449374360964,122,1.0,-0.311159539646,-0.219144224573,nan,nan,nan,nan,nan,nan,nan,nan,278.651339796,683.579701943,nan,684.04193082,nan,nan,nan,nan
1,347,1,1,1.0,1.0,0.336434135446,0,0.0,0.0,0.0,0.396338332716,0.109899917345,0.28643841537,0.506238250061,0.109899917345,0.390236079615,0,0.846831709088,0.212097570855,-1.0,nan,nan,nan,nan,nan,nan,nan,nan,278.651339796,684.521483573,nan,684.857917708,nan,nan,nan,nan
1,348,1,1,1.0,1.0,0.202620205935,0,0.0,0.0,0.0,0.396161624169,0.109785781847,0.286375842322,0.505947406016,0.109785781847,0.333761072795,347,-0.174938837379,0.46723881498,0.167157479366,nan,nan,nan,nan,nan,nan,nan,nan,278.651339796,685.463290575,nan,685.665910781,nan,nan,nan,nan
1,349,1,1,1.0,1.0,0.244803906418,0,1.0,0.0,0.0,0.395592384704,0.110124091447,0.285468293257,0.505716476151,0.110124091447,0.2612860826,18,0.988682696815,0.131162580546,-1.0,nan,nan,nan,nan,nan,nan,nan,nan,278.651339796,686.405079047,nan,686.649882954,nan,nan,nan,nan
1,350,0,0,1.0,0.0,0.230992417317,0,0.0,0.0,0.0,0.395150189753,0.110264381871,0.284885807882,0.505414571624,0.110264381871,0.226138843223,61,1.0,-0.0921163965413,-1.0,nan,nan,nan,nan,nan,nan,nan,nan,278.651339796,687.346868374,nan,687.577860791,nan,nan,nan,nan
1,351,1,1,1.0,1.0,0.377161279321,0,0.0,0.0,0.0,0.394670196266,0.110459258488,0.284210937779,0.505129454754,0.110459258488,0.284319201019,396,-0.0330153705648,0.473684876347,-0.363523780775,nan,nan,nan,nan,nan,nan,nan,nan,278.651339796,688.288657701,nan,688.66581898,nan,nan,nan,nan
1,352,1,1,1.0,1.0,0.363328692969,0,0.0,0.0,0.0,0.394619149861,0.11030216134,0.284316988522,0.504921311201,0.11030216134,0.323827463202,281,0.218083397074,0.345068392493,0.612644422055,nan,nan,nan,nan,nan,nan,nan,nan,278.651339796,689.230462993,nan,689.593791686,nan,nan,nan,nan
1,353,1,1,1.0,1.0,0.325560278259,0,0.0,0.0,0.0,0.394528189231,0.110154604059,0.284373585172,0.504682793289,0.110154604059,0.355350083516,480,0.580928072941,0.32870764083,-1.0,nan,nan,nan,nan,nan,nan,nan,nan,278.651339796,690.172215543,nan,690.497775821,nan,nan,nan,nan
1,354,1,1,1.0,1.0,0.271763180848,0,0.0,0.0,0.0,0.394328282242,0.110057316334,0.284270965908,0.504385598577,0.110057316334,0.320217384025,67,1.0,-0.12380466598,-1.0,nan,nan,nan,nan,nan,nan,nan,nan,278.651339796,691.114000594,nan,691.385763774,nan,nan,nan,nan
1,355,1,1,1.0,1.0,0.369912136113,0,0.0,0.0,0.0,0.393974047845,0.110094943662,0.283879104184,0.504068991507,0.110094943662,0.322411865074,125,1.0,-0.311567427947,-0.187805059354,nan,nan,nan,nan,nan,nan,nan,nan,278.651339796,692.055826698,nan,692.425738834,nan,nan,nan,nan
1,356,1,1,1.0,1.0,0.340100758709,0,0.0,0.0,0.0,0.39390470516,0.1099437574,0.28396094776,0.50384846256,0.1099437574,0.32725869189,43,1.0,0.00424534395127,-1.0,nan,nan,nan,nan,nan,nan,nan,nan,278.651339796,692.997625433,nan,693.337726192,nan,nan,nan,nan
1,357,1,1,1.0,1.0,0.334289641352,0,0.0,0.0,0.0,0.393750096119,0.109823448751,0.283926647368,0.503573544869,0.109823448751,0.348100845392,359,-0.169222339917,0.474741883077,0.0483828026834,nan,nan,nan,nan,nan,nan,nan,nan,278.651339796,693.939414475,nan,694.273704116,nan,nan,nan,nan
1,358,1,1,1.0,1.0,0.38444776996,0,0.0,0.0,0.0,0.393579722323,0.109712041674,0.283867680649,0.503291763997,0.109712041674,0.352946056674,84,1.0,-0.20765784414,-0.652191087791,nan,nan,nan,nan,nan,nan,nan,nan,278.651339796,694.881234592,nan,695.265682362,nan,nan,nan,nan
1,359,1,1,1.0,1.0,0.386648428161,0,0.0,0.0,0.0,0.39355363103,0.10955628238,0.283997348651,0.50310991341,0.10955628238,0.368461946491,220,0.861731547614,0.0893272636146,0.581247684387,nan,nan,nan,nan,nan,nan,nan,nan,278.651339796,695.822999971,nan,696.209648399,nan,nan,nan,nan
1,360,1,1,1.0,1.0,0.364843979478,0,0.0,0.0,0.0,0.393533958088,0.10940072708,0.284133231007,0.502934685168,0.10940072708,0.378646725866,81,1.0,-0.193804253699,-0.694219169772,nan,nan,nan,nan,nan,nan,nan,nan,278.651339796,696.764791579,nan,697.129635558,nan,nan,nan,nan
1,361,0,0,0.0,1.0,0.487024840666,0,0.0,0.0,0.0,0.393452452467,0.109255889371,0.284196563095,0.502708341838,0.109255889371,0.412839082768,230,0.760023132926,0.140224214653,0.61781109556,nan,nan,nan,nan,nan,nan,nan,nan,278.651339796,697.706587463,nan,698.193612304,nan,nan,nan,nan
1,362,1,1,1.0,1.0,0.44120701775,0,0.0,0.0,0.0,0.393717530054,0.109214319582,0.284503210471,0.502931849636,0.109214319582,0.431025279298,375,-0.128556699755,0.478682433309,-0.121605159467,nan,nan,nan,nan,nan,nan,nan,nan,278.651339796,698.648378786,nan,699.089585803,nan,nan,nan,nan
1,363,1,1,1.0,1.0,0.347384683555,0,0.0,0.0,0.0,0.393851681149,0.109089074216,0.284762606933,0.502940755365,0.109089074216,0.42520551399,467,0.473005185182,0.365775667588,-1.0,nan,nan,nan,nan,nan,nan,nan,nan,278.651339796,699.590170108,nan,699.937554792,nan,nan,nan,nan
1,364,1,1,1.0,1.0,0.277580285212,0,0.0,0.0,0.0,0.393720788198,0.108963153661,0.284757634537,0.502683941859,0.108963153661,0.355390662172,28,1.0,0.082066132397,-1.0,nan,nan,nan,nan,nan,nan,nan,nan,278.651339796,700.531959435,nan,700.809539721,nan,nan,nan,nan
1,365,1,1,1.0,1.0,0.263773072511,0,0.0,0.0,0.0,0.39339455083,0.108983488478,0.284411062352,0.502378039308,0.108983488478,0.296246013759,412,0.0618891196837,0.462096609288,-0.571158935758,nan,nan,nan,nan,nan,nan,nan,nan,278.651339796,701.473747907,nan,701.737520979,nan,nan,nan,nan
1,366,1,1,1.0,1.0,0.257959104143,0,1.0,0.0,0.0,0.393031465456,0.109046148774,0.283985316682,0.502077614231,0.109046148774,0.266437487289,15,0.965734432428,0.145352784795,-1.0,nan,nan,nan,nan,nan,nan,nan,nan,278.651339796,702.415544361,nan,702.673503465,nan,nan,nan,nan
1,367,1,1,1.0,1.0,0.300143660046,1,0.0,0.0,1.0,0.392654168358,0.109126840699,0.283527327659,0.501781009056,0.109126840699,0.273958612233,388,-0.0739633693698,0.476941921698,-0.268577162136,-168.366366001,258.366366001,-14.4461339989,367.0,-0.15309091083,0.477560897992,-0.0350816338538,2.68401781633,278.651339796,703.357335399,704.165757827,703.657479059,707.89123691,708.900625701,705.190858274,707.882902976
1,368,1,1,1.0,1.0,0.303933159681,0,0.0,0.0,0.0,0.39239647892,0.109083766723,0.283312712196,0.501480245643,0.109083766723,0.287345307957,85,1.0,-0.212156452387,-0.638781227021,nan,nan,nan,nan,nan,nan,nan,nan,278.651339796,709.041417932,nan,709.345351092,nan,nan,nan,nan
1,369,1,1,1.0,1.0,0.290007916978,0,0.0,0.0,0.0,0.392150747477,0.109031612274,0.283119135204,0.501182359751,0.109031612274,0.298028245568,373,-0.135407706169,0.478559568072,-0.0996974893599,nan,nan,nan,nan,nan,nan,nan,nan,278.651339796,709.983321012,nan,710.273328929,nan,nan,nan,nan
1,370,1,1,1.0,1.0,0.300288488856,0,0.0,0.0,0.0,0.391867803348,0.109012763848,0.282855039501,0.500880567196,0.109012763848,0.298076521838,290,0.131265381085,0.370776544741,0.578206616232,nan,nan,nan,nan,nan,nan,nan,nan,278.651339796,710.925019394,nan,711.225307883,nan,nan,nan,nan
1,371,1,1,1.0,1.0,0.254497464979,0,1.0,0.0,0.0,0.391614821817,0.108968153276,0.282646668541,0.500582975093,0.108968153276,0.281597956937,505,0.789537956352,0.240683140511,-1.0,nan,nan,nan,nan,nan,nan,nan,nan,278.651339796,711.866806155,nan,712.12130362,nan,nan,nan,nan
1,372,0,0,1.0,0.0,0.272688888479,0,0.0,0.0,0.0,0.391237088051,0.109055026002,0.282182062049,0.500292114053,0.109055026002,0.275824947438,341,-0.168535884224,0.46196150489,0.223260112086,nan,nan,nan,nan,nan,nan,nan,nan,278.651339796,712.808577236,nan,713.081266124,nan,nan,nan,nan
1,373,1,1,1.0,1.0,0.362863700837,0,0.0,0.0,0.0,0.390911406184,0.109081751697,0.281829654487,0.499993157881,0.109081751697,0.296683351432,19,0.99625917486,0.126374530333,-1.0,nan,nan,nan,nan,nan,nan,nan,nan,278.651339796,713.750384524,nan,714.113248224,nan,nan,nan,nan
