block,trial,time,setsize,freqtrials,colorind,colordeg,colorrgb,correctresp,actualresp,acc,rts,probe_trials,fast_rt_trigger,slow_rt_trigger,rt_trailingavg,rt_runningavg,rt_runningstd,rt_runningslowthresh,rt_runningfastthresh,wm_mousepos,wm_respdeg,wm_colorind,wm_colorrgb,wm_colorhsv,wm_degdiff,wm_rts,timeBlockStart,timeEncArrayOnset,timeResponse,timeProbeOnset,timeProbeOffset
0,0,21:41:24:326000,6,1,126,88.59375,[ 1.         -0.31141175 -0.17740843],1,1,1,0.752057469,0,nan,nan,nan,nan,nan,nan,nan,nan,nan,nan,[ nan  nan  nan],nan,nan,nan,278.6513398,279.6672151,280.4192726,nan,nan
0,1,21:41:25:262000,6,0,449,315.703125,[ 0.32809501  0.40764625 -1.        ],0,0,1,0.657315699,0,nan,nan,nan,nan,nan,nan,nan,nan,nan,nan,[ nan  nan  nan],nan,nan,nan,278.6513398,280.609939,281.2672547,nan,nan
0,2,21:41:26:198000,6,1,72,50.625,[ 1.         -0.14960778 -0.85320374],1,1,1,0.420439749,0,nan,nan,nan,nan,nan,nan,nan,nan,nan,nan,[ nan  nan  nan],nan,nan,nan,278.6513398,281.5508029,281.9712426,nan,nan
0,3,21:41:27:150000,6,1,218,153.28125,[ 0.88146739  0.07882461  0.57255963],1,1,1,0.390616968,0,nan,nan,nan,nan,nan,nan,nan,nan,nan,nan,[ nan  nan  nan],nan,nan,nan,278.6513398,282.4926156,282.8832325,nan,nan
0,4,21:41:28:086000,6,1,459,322.734375,[ 0.40775816  0.38570917 -1.        ],1,1,1,0.336797633,0,nan,nan,nan,nan,nan,nan,nan,nan,nan,nan,[ nan  nan  nan],nan,nan,nan,278.6513398,283.4344109,283.7712085,nan,nan
0,5,21:41:29:022000,6,1,302,212.34375,[ 0.02708608  0.40030084  0.51777002],1,1,1,0.290991499,0,nan,nan,nan,nan,nan,nan,nan,nan,nan,nan,[ nan  nan  nan],nan,nan,nan,278.6513398,284.3762039,284.6671954,nan,nan
0,6,21:41:29:973000,6,1,153,107.578125,[ 1.         -0.25554786  0.09262139],1,1,1,0.333169213,0,nan,nan,nan,nan,nan,nan,nan,nan,nan,nan,[ nan  nan  nan],nan,nan,nan,278.6513398,285.3179836,285.6511528,nan,nan
0,7,21:41:30:910000,6,1,19,13.359375,[ 0.99625917  0.12637453 -1.        ],1,1,1,0.33535077,0,nan,nan,nan,nan,nan,nan,nan,nan,nan,nan,[ nan  nan  nan],nan,nan,nan,278.6513398,286.259792,286.5951428,nan,nan
0,8,21:41:31:846000,6,1,437,307.265625,[ 0.23613483  0.42977024 -1.        ],1,1,1,0.289542925,0,nan,nan,nan,nan,nan,nan,nan,nan,nan,nan,[ nan  nan  nan],nan,nan,nan,278.6513398,287.2015676,287.4911106,nan,nan
0,9,21:41:32:798000,6,1,492,345.9375,[ 0.68140332  0.28922202 -1.        ],1,1,1,0.323754193,0,nan,nan,nan,nan,nan,nan,nan,nan,nan,nan,[ nan  nan  nan],nan,nan,nan,278.6513398,288.1433407,288.4670949,nan,nan
0,10,21:41:33:734000,6,1,135,94.921875,[ 1.         -0.30350232 -0.08497887],1,1,1,0.373930853,0,nan,nan,nan,nan,nan,nan,nan,nan,nan,nan,[ nan  nan  nan],nan,nan,nan,278.6513398,289.0851534,289.4590843,nan,nan
0,11,21:41:34:686000,6,1,380,267.1875,[-0.10951951  0.47853303 -0.17717739],1,1,1,0.320090421,0,nan,nan,nan,nan,nan,nan,nan,nan,nan,nan,[ nan  nan  nan],nan,nan,nan,278.6513398,290.0269578,290.3470483,nan,nan
0,12,21:41:35:623000,6,1,429,301.640625,[ 0.17753182  0.44208078 -0.9018852 ],1,1,1,0.330273205,0,nan,nan,nan,nan,nan,nan,nan,nan,nan,nan,[ nan  nan  nan],nan,nan,nan,278.6513398,290.9687666,291.2990398,nan,nan
0,13,21:41:40:959000,6,1,289,203.203125,[ 0.14059213  0.36807325  0.58250527],1,1,1,0.23646313,1,nan,nan,nan,nan,nan,nan,nan,nan,-100.6902383,271,[ 0.32064286  0.31281163  0.63940014],nan,-12.51288672,2.350620811,278.6513398,291.9105376,292.1470008,293.7357249,296.094374
0,14,21:41:41:895000,6,1,465,326.953125,[ 0.45658868  0.37096153 -1.        ],1,1,1,0.582292328,0,nan,nan,nan,nan,nan,nan,nan,nan,nan,nan,[ nan  nan  nan],nan,nan,nan,278.6513398,297.2445872,297.8268796,nan,nan
0,15,21:41:42:831000,6,1,394,277.03125,[-0.04370902  0.47465593 -0.33940142],1,1,1,0.376477618,0,nan,nan,nan,nan,nan,nan,nan,nan,nan,nan,[ nan  nan  nan],nan,nan,nan,278.6513398,298.1863831,298.5628607,nan,nan
0,16,21:41:43:782000,6,1,336,236.25,[-0.15821161  0.45675811  0.26813527],1,1,1,0.282661841,0,nan,nan,nan,nan,nan,nan,nan,nan,nan,nan,[ nan  nan  nan],nan,nan,nan,278.6513398,299.1281767,299.4108386,nan,nan
0,17,21:41:44:718000,6,1,468,329.0625,[ 0.48123648  0.36313162 -1.        ],1,1,1,0.252858732,0,nan,nan,nan,nan,nan,nan,nan,nan,nan,nan,[ nan  nan  nan],nan,nan,nan,278.6513398,300.0699723,300.3228311,nan,nan
0,18,21:41:45:670000,6,1,260,182.8125,[ 0.43801664  0.27278198  0.65440657],1,1,1,0.239014171,0,nan,nan,nan,nan,nan,nan,nan,nan,nan,nan,[ nan  nan  nan],nan,nan,nan,278.6513398,301.0117836,301.2507978,nan,nan
0,19,21:41:46:606000,6,1,69,48.515625,[ 1.         -0.1342072  -0.93964801],1,1,1,0.24123222,0,nan,nan,nan,nan,nan,nan,nan,nan,nan,nan,[ nan  nan  nan],nan,nan,nan,278.6513398,301.9535555,302.1947878,nan,nan
0,20,21:41:47:542000,6,0,163,114.609375,[ 1.         -0.2142478   0.18572368],0,0,1,0.371373825,0,nan,nan,nan,nan,nan,nan,nan,nan,nan,nan,[ nan  nan  nan],nan,nan,nan,278.6513398,302.8953779,303.2667518,nan,nan
0,21,21:41:48:494000,6,1,1,0.703125,[ 0.85493913  0.20787707 -1.        ],1,1,1,0.46953846,0,nan,nan,nan,nan,nan,nan,nan,nan,nan,nan,[ nan  nan  nan],nan,nan,nan,278.6513398,303.8371986,304.3067371,nan,nan
0,22,21:41:49:431000,6,1,379,266.484375,[-0.11353594  0.47861499 -0.16597052],1,1,1,0.471788155,0,nan,nan,nan,nan,nan,nan,nan,nan,nan,nan,[ nan  nan  nan],nan,nan,nan,278.6513398,304.7789181,305.2507063,nan,nan
0,23,21:41:50:367000,6,1,304,213.75,[ 0.01130928  0.40470892  0.50616037],1,1,1,0.321949534,0,nan,nan,nan,nan,nan,nan,nan,nan,nan,nan,[ nan  nan  nan],nan,nan,nan,278.6513398,305.7207388,306.0426883,nan,nan
0,24,21:41:51:318000,6,1,459,322.734375,[ 0.40775816  0.38570917 -1.        ],1,1,1,0.300163046,0,nan,nan,nan,nan,nan,nan,nan,nan,nan,nan,[ nan  nan  nan],nan,nan,nan,278.6513398,306.6625104,306.9626735,nan,nan
0,25,21:41:52:255000,6,1,12,8.4375,[ 0.94247669  0.15927395 -1.        ],1,1,1,0.30233491,0,nan,nan,nan,nan,nan,nan,nan,nan,nan,nan,[ nan  nan  nan],nan,nan,nan,278.6513398,307.6043206,307.9066555,nan,nan
0,26,21:41:53:207000,6,1,131,92.109375,[ 1.         -0.30845167 -0.1258005 ],1,1,1,0.288510021,0,nan,nan,nan,nan,nan,nan,nan,nan,nan,nan,[ nan  nan  nan],nan,nan,nan,278.6513398,308.546119,308.834629,nan,nan
0,27,21:41:54:143000,6,1,390,274.21875,[-0.06419603  0.4762842  -0.29194755],1,1,1,0.266687041,0,nan,nan,nan,nan,nan,nan,nan,nan,nan,nan,[ nan  nan  nan],nan,nan,nan,278.6513398,309.4879081,309.7545951,nan,nan
0,28,21:41:55:079000,6,0,116,81.5625,[ 1.         -0.30644692 -0.28251544],0,1,0,0.300908858,0,0,0,nan,nan,nan,nan,nan,nan,nan,nan,[ nan  nan  nan],nan,nan,nan,278.6513398,310.429704,310.7306128,nan,nan
0,29,21:41:56:030000,6,1,11,7.734375,[ 0.9346595  0.1638529 -1.       ],1,1,1,0.591057613,0,nan,nan,nan,nan,nan,nan,nan,nan,nan,nan,[ nan  nan  nan],nan,nan,nan,278.6513398,311.371497,311.9625546,nan,nan
0,30,21:41:56:966000,6,1,322,226.40625,[-0.10506723  0.43811622  0.38355935],1,1,1,0.465238353,0,nan,nan,nan,nan,nan,nan,nan,nan,nan,nan,[ nan  nan  nan],nan,nan,nan,278.6513398,312.3132937,312.7785321,nan,nan
0,31,21:41:57:902000,6,1,449,315.703125,[ 0.32809501  0.40764625 -1.        ],1,1,1,0.331426705,0,nan,nan,nan,nan,nan,nan,nan,nan,nan,nan,[ nan  nan  nan],nan,nan,nan,278.6513398,313.255085,313.5865118,nan,nan
0,32,21:41:58:854000,6,1,40,28.125,[ 1.          0.02011655 -1.        ],1,1,1,0.397614656,0,nan,nan,nan,nan,nan,nan,nan,nan,nan,nan,[ nan  nan  nan],nan,nan,nan,278.6513398,314.1968809,314.5944956,nan,nan
0,33,21:41:59:790000,6,1,407,286.171875,[ 0.03058863  0.46645515 -0.50257741],1,1,1,0.48779403,0,nan,nan,nan,nan,nan,nan,nan,nan,nan,nan,[ nan  nan  nan],nan,nan,nan,278.6513398,315.1386703,315.6264643,nan,nan
0,34,21:42:00:726000,6,1,64,45,[ 1.         -0.10803687 -1.        ],1,1,1,0.473993945,0,nan,nan,nan,nan,nan,nan,nan,nan,nan,nan,[ nan  nan  nan],nan,nan,nan,278.6513398,316.0804559,316.5544498,nan,nan
0,35,21:42:01:678000,6,0,158,111.09375,[ 1.         -0.23594923  0.13976411],0,0,1,0.516164816,0,nan,nan,nan,nan,nan,nan,nan,nan,nan,nan,[ nan  nan  nan],nan,nan,nan,278.6513398,317.0222529,317.5384177,nan,nan
0,36,21:42:02:614000,6,1,88,61.875,[ 1.         -0.22525759 -0.59993285],1,1,1,0.438347502,0,nan,nan,nan,nan,nan,nan,nan,nan,nan,nan,[ nan  nan  nan],nan,nan,nan,278.6513398,317.9640528,318.4024003,nan,nan
0,37,21:42:03:565000,6,1,317,222.890625,[-0.07777284  0.42993861  0.42073361],1,1,1,0.584537461,0,nan,nan,nan,nan,nan,nan,nan,nan,nan,nan,[ nan  nan  nan],nan,nan,nan,278.6513398,318.905845,319.4903824,nan,nan
0,38,21:42:04:501000,6,1,126,88.59375,[ 1.         -0.31141175 -0.17740843],1,1,1,0.426720135,0,nan,nan,nan,nan,nan,nan,nan,nan,nan,nan,[ nan  nan  nan],nan,nan,nan,278.6513398,319.8476451,320.2743653,nan,nan
0,39,21:42:05:437000,6,1,253,177.890625,[ 0.5138659   0.24483993  0.65597719],1,1,1,0.420908448,0,nan,nan,nan,nan,nan,nan,nan,nan,nan,nan,[ nan  nan  nan],nan,nan,nan,278.6513398,320.7894282,321.2103366,nan,nan
0,40,21:42:06:389000,6,1,64,45,[ 1.         -0.10803687 -1.        ],1,1,1,0.415091914,0,nan,nan,nan,nan,nan,nan,nan,nan,nan,nan,[ nan  nan  nan],nan,nan,nan,278.6513398,321.7312283,322.1463202,nan,nan
0,41,21:42:07:326000,6,1,261,183.515625,[ 0.42722581  0.27661781  0.65367446],1,1,1,0.329257692,0,nan,nan,nan,nan,nan,nan,nan,nan,nan,nan,[ nan  nan  nan],nan,nan,nan,278.6513398,322.6730254,323.0022831,nan,nan
0,42,21:42:08:262000,6,1,120,84.375,[ 1.         -0.3101615  -0.24016291],1,1,1,0.379462861,0,nan,nan,nan,nan,nan,nan,nan,nan,nan,nan,[ nan  nan  nan],nan,nan,nan,278.6513398,323.6148155,323.9942784,nan,nan
0,43,21:42:09:213000,6,1,407,286.171875,[ 0.03058863  0.46645515 -0.50257741],1,1,1,0.349650059,0,nan,nan,nan,nan,nan,nan,nan,nan,nan,nan,[ nan  nan  nan],nan,nan,nan,278.6513398,324.5566103,324.9062603,nan,nan
0,44,21:42:10:149000,6,1,153,107.578125,[ 1.         -0.25554786  0.09262139],1,1,1,0.351878371,0,nan,nan,nan,nan,nan,nan,nan,nan,nan,nan,[ nan  nan  nan],nan,nan,nan,278.6513398,325.4983626,325.8502409,nan,nan
0,45,21:42:11:102000,6,1,308,216.5625,[-0.01868286  0.41309748  0.48168233],1,1,1,0.330018614,0,nan,nan,nan,nan,nan,nan,nan,nan,nan,nan,[ nan  nan  nan],nan,nan,nan,278.6513398,326.4402015,326.7702201,nan,nan
0,46,21:42:12:038000,6,1,498,350.15625,[ 0.73150794  0.26756188 -1.        ],1,1,1,0.308086727,0,nan,nan,nan,nan,nan,nan,nan,nan,nan,nan,[ nan  nan  nan],nan,nan,nan,278.6513398,327.3819845,327.6900713,nan,nan
0,47,21:42:17:342000,6,1,202,142.03125,[ 1.         -0.00802826  0.48759698],1,1,1,0.310380327,1,nan,nan,nan,nan,nan,nan,nan,nan,-43.37502364,190,[ 1.         -0.07468844  0.40739964],nan,-8.656226358,2.317417644,278.6513398,328.3237833,328.6341636,330.1489668,332.4743124
0,48,21:42:18:278000,6,1,82,57.65625,[ 1.         -0.19847916 -0.67987248],1,1,1,0.569208119,0,nan,nan,nan,nan,nan,nan,nan,nan,nan,nan,[ nan  nan  nan],nan,nan,nan,278.6513398,333.6328359,334.202044,nan,nan
0,49,21:42:19:230000,6,1,149,104.765625,[ 1.         -0.26947852  0.05414366],1,1,1,0.467392826,0,nan,nan,nan,nan,nan,nan,nan,nan,nan,nan,[ nan  nan  nan],nan,nan,nan,278.6513398,334.5746298,335.0420226,nan,nan
0,50,21:42:20:166000,6,1,379,266.484375,[-0.11353594  0.47861499 -0.16597052],1,1,1,0.309577211,0,nan,nan,nan,nan,nan,nan,nan,nan,nan,nan,[ nan  nan  nan],nan,nan,nan,278.6513398,335.51642,335.8259972,nan,nan
0,51,21:42:21:117000,6,1,129,90.703125,[ 1.         -0.31007049 -0.146368  ],1,1,1,0.247767482,0,nan,nan,nan,nan,nan,nan,nan,nan,nan,nan,[ nan  nan  nan],nan,nan,nan,278.6513398,336.4582122,336.7059796,nan,nan
0,52,21:42:22:053000,6,1,42,29.53125,[ 1.          0.00954879 -1.        ],1,1,1,0.281964781,0,nan,nan,nan,nan,nan,nan,nan,nan,nan,nan,[ nan  nan  nan],nan,nan,nan,278.6513398,337.4000075,337.6819723,nan,nan
0,53,21:42:26:827000,6,1,110,77.34375,[ 1.         -0.29672275 -0.34692196],1,1,1,0.284125526,1,nan,nan,nan,nan,nan,nan,nan,nan,-20.72555887,157,[ 1.         -0.24004838  0.1304259 ],nan,33.38180887,1.783834585,278.6513398,338.3418096,338.6259352,340.1670111,341.9588897
0,54,21:42:27:763000,6,1,357,251.015625,[-0.17179183  0.47376752  0.06873903],1,1,1,0.492379234,0,nan,nan,nan,nan,nan,nan,nan,nan,nan,nan,[ nan  nan  nan],nan,nan,nan,278.6513398,343.1174454,343.6098246,nan,nan
0,55,21:42:28:715000,6,1,131,92.109375,[ 1.         -0.30845167 -0.1258005 ],1,1,1,0.422577972,0,nan,nan,nan,nan,nan,nan,nan,nan,nan,nan,[ nan  nan  nan],nan,nan,nan,278.6513398,344.0592202,344.4817982,nan,nan
0,56,21:42:29:651000,6,1,73,51.328125,[ 1.         -0.15467886 -0.83091687],1,1,1,0.408749947,0,nan,nan,nan,nan,nan,nan,nan,nan,nan,nan,[ nan  nan  nan],nan,nan,nan,278.6513398,345.0010292,345.4097791,nan,nan
0,57,21:42:30:602000,6,0,260,182.8125,[ 0.43801664  0.27278198  0.65440657],0,0,1,0.538929469,0,nan,nan,nan,nan,nan,nan,nan,nan,nan,nan,[ nan  nan  nan],nan,nan,nan,278.6513398,345.9428262,346.4817557,nan,nan
0,58,21:42:31:538000,6,1,352,247.5,[-0.17544713  0.4708516   0.11867359],1,1,1,0.429118651,0,nan,nan,nan,nan,nan,nan,nan,nan,nan,nan,[ nan  nan  nan],nan,nan,nan,278.6513398,346.8846155,347.3137342,nan,nan
0,59,21:42:32:474000,6,1,74,52.03125,[ 1.         -0.15971516 -0.81044328],1,1,1,0.503281886,0,nan,nan,nan,nan,nan,nan,nan,nan,nan,nan,[ nan  nan  nan],nan,nan,nan,278.6513398,347.8264302,348.3297121,nan,nan
0,60,21:42:33:426000,6,1,386,271.40625,[-0.08339466  0.47749559 -0.24542474],1,1,1,0.345498772,0,nan,nan,nan,nan,nan,nan,nan,nan,nan,nan,[ nan  nan  nan],nan,nan,nan,278.6513398,348.7682045,349.1137032,nan,nan
0,61,21:42:34:362000,6,1,311,218.671875,[-0.03972498  0.41902022  0.46225021],1,1,1,0.403658412,0,nan,nan,nan,nan,nan,nan,nan,nan,nan,nan,[ nan  nan  nan],nan,nan,nan,278.6513398,349.7100098,350.1136682,nan,nan
0,62,21:42:35:298000,6,0,16,11.25,[ 0.97341943  0.14065211 -1.        ],0,1,0,0.389847493,0,0,0,nan,nan,nan,nan,nan,nan,nan,nan,[ nan  nan  nan],nan,nan,nan,278.6513398,350.6517945,351.041642,nan,nan
0,63,21:42:36:249000,6,1,470,330.46875,[ 0.49774161  0.35774078 -1.        ],1,1,1,0.504028268,0,nan,nan,nan,nan,nan,nan,nan,nan,nan,nan,[ nan  nan  nan],nan,nan,nan,278.6513398,351.5935784,352.0976067,nan,nan
0,64,21:42:37:185000,6,1,335,235.546875,[-0.15559599  0.45562772  0.27689323],1,1,1,0.466216519,0,nan,nan,nan,nan,nan,nan,nan,nan,nan,nan,[ nan  nan  nan],nan,nan,nan,278.6513398,352.5353737,353.0015903,nan,nan
0,65,21:42:38:137000,6,1,492,345.9375,[ 0.68140332  0.28922202 -1.        ],1,1,1,0.356418244,0,nan,nan,nan,nan,nan,nan,nan,nan,nan,nan,[ nan  nan  nan],nan,nan,nan,278.6513398,353.4771674,353.8335856,nan,nan
0,66,21:42:39:073000,6,1,129,90.703125,[ 1.         -0.31007049 -0.146368  ],1,1,1,0.454588867,0,nan,nan,nan,nan,nan,nan,nan,nan,nan,nan,[ nan  nan  nan],nan,nan,nan,278.6513398,354.4189655,354.8735544,nan,nan
0,67,21:42:40:009000,6,1,467,328.359375,[ 0.47300519  0.36577567 -1.        ],1,1,1,0.424776634,0,nan,nan,nan,nan,nan,nan,nan,nan,nan,nan,[ nan  nan  nan],nan,nan,nan,278.6513398,355.3607608,355.7855375,nan,nan
0,68,21:42:40:961000,6,0,235,165.234375,[ 0.70759192  0.16453778  0.63165963],0,0,1,0.442952092,0,nan,nan,nan,nan,nan,nan,nan,nan,nan,nan,[ nan  nan  nan],nan,nan,nan,278.6513398,356.3025573,356.7455094,nan,nan
0,69,21:42:41:897000,6,1,417,293.203125,[ 0.0945046   0.45705356 -0.6457202 ],1,1,1,0.34114022,0,nan,nan,nan,nan,nan,nan,nan,nan,nan,nan,[ nan  nan  nan],nan,nan,nan,278.6513398,357.24435,357.5854903,nan,nan
0,70,21:42:42:833000,6,1,275,193.359375,[ 0.27900239  0.32618525  0.63017847],1,1,1,0.439317685,0,nan,nan,nan,nan,nan,nan,nan,nan,nan,nan,[ nan  nan  nan],nan,nan,nan,278.6513398,358.186157,358.6254747,nan,nan
0,71,21:42:43:784000,6,1,210,147.65625,[ 0.9580225   0.0359305   0.53342186],1,1,1,0.457508253,0,nan,nan,nan,nan,nan,nan,nan,nan,nan,nan,[ nan  nan  nan],nan,nan,nan,278.6513398,359.1279355,359.5854438,nan,nan
0,72,21:42:49:465000,6,1,158,111.09375,[ 1.         -0.23594923  0.13976411],1,1,1,0.459355962,1,nan,nan,nan,nan,nan,nan,nan,nan,-8.285797024,140,[ 1.         -0.29420925 -0.03457774],nan,-12.80795298,2.683994438,278.6513398,360.0780557,360.5374116,361.9115782,364.6036098
0,73,21:42:50:401000,6,1,320,225,[-0.09465004  0.43494402  0.39870124],1,nan,nan,nan,0,nan,nan,nan,nan,nan,nan,nan,nan,nan,nan,[ nan  nan  nan],nan,nan,nan,278.6513398,365.7538245,nan,nan,nan
0,74,21:42:51:352000,6,0,389,273.515625,[-0.06912081  0.47662608 -0.28023432],0,1,0,0.137717468,0,0,0,nan,nan,nan,nan,nan,nan,nan,nan,[ nan  nan  nan],nan,nan,nan,278.6513398,366.6956161,366.8333336,nan,nan
0,75,21:42:52:289000,6,1,463,325.546875,[ 0.44023832  0.3760118  -1.        ],1,1,1,0.427835432,0,nan,nan,nan,nan,nan,nan,nan,nan,nan,nan,[ nan  nan  nan],nan,nan,nan,278.6513398,367.6374103,368.0652457,nan,nan
0,76,21:42:53:241000,6,1,163,114.609375,[ 1.         -0.2142478   0.18572368],1,1,1,0.406024712,0,nan,nan,nan,nan,nan,nan,nan,nan,nan,nan,[ nan  nan  nan],nan,nan,nan,278.6513398,368.5792127,368.9852374,nan,nan
0,77,21:42:54:177000,6,1,459,322.734375,[ 0.40775816  0.38570917 -1.        ],1,1,1,0.33620891,0,nan,nan,nan,nan,nan,nan,nan,nan,nan,nan,[ nan  nan  nan],nan,nan,nan,278.6513398,369.5210003,369.8572092,nan,nan
0,78,21:42:55:113000,6,1,316,222.1875,[-0.07182156  0.42820351  0.42789226],1,1,1,0.314401325,0,nan,nan,nan,nan,nan,nan,nan,nan,nan,nan,[ nan  nan  nan],nan,nan,nan,278.6513398,370.4627934,370.7771947,nan,nan
0,79,21:42:56:064000,6,1,19,13.359375,[ 0.99625917  0.12637453 -1.        ],1,1,1,0.324577837,0,nan,nan,nan,nan,nan,nan,nan,nan,nan,nan,[ nan  nan  nan],nan,nan,nan,278.6513398,371.404591,371.7291688,nan,nan
0,80,21:42:57:000000,6,1,73,51.328125,[ 1.         -0.15467886 -0.83091687],1,1,1,0.366773796,0,0,0,0.335250986,0.38928305,0.104107617,0.493390667,0.285175433,nan,nan,nan,[ nan  nan  nan],nan,nan,nan,278.6513398,372.3463803,372.7131541,nan,nan
0,81,21:42:57:936000,6,1,470,330.46875,[ 0.49774161  0.35774078 -1.        ],1,1,1,0.320944855,0,0,0,0.337432162,0.389001684,0.10348512,0.492486804,0.285516564,nan,nan,nan,[ nan  nan  nan],nan,nan,nan,278.6513398,373.2881756,373.6091205,nan,nan
0,82,21:42:58:888000,6,1,215,151.171875,[ 0.91063986  0.06289474  0.55869515],1,1,1,0.291134618,0,0,0,0.326284423,0.388161476,0.103118544,0.49128002,0.285042932,nan,nan,nan,[ nan  nan  nan],nan,nan,nan,278.6513398,374.2299721,374.5211067,nan,nan
0,83,21:42:59:824000,6,1,312,219.375,[-0.04644836  0.4209252   0.45557321],1,1,1,0.293326153,0,0,0,0.301801875,0.386978222,0.10303963,0.490017852,0.283938592,nan,nan,nan,[ nan  nan  nan],nan,nan,nan,278.6513398,375.1717625,375.4650887,nan,nan
0,84,21:43:00:760000,6,1,398,279.84375,[-0.02203778  0.4726088  -0.38794338],1,1,1,0.359510683,0,0,0,0.314657151,0.385849884,0.102925438,0.488775322,0.282924446,nan,nan,nan,[ nan  nan  nan],nan,nan,nan,278.6513398,376.113555,376.4730657,nan,nan
0,85,21:43:01:712000,6,1,432,303.75,[ 0.1992279   0.43768733 -1.        ],1,1,1,0.361693381,0,0,0,0.338176739,0.385536322,0.102350826,0.487887148,0.283185496,nan,nan,nan,[ nan  nan  nan],nan,nan,nan,278.6513398,377.0553483,377.4170417,nan,nan
0,86,21:43:02:648000,6,0,212,149.0625,[ 0.93926289  0.04677313  0.543851  ],0,0,1,0.515856342,0,0,0,0.412353469,0.385255817,0.101779456,0.487035272,0.283476361,nan,nan,nan,[ nan  nan  nan],nan,nan,nan,278.6513398,377.9971453,378.5130017,nan,nan
0,87,21:43:03:599000,6,1,365,256.640625,[-0.15796203  0.47701659 -0.01391969],1,1,1,0.478057993,0,0,0,0.451869238,0.386774427,0.10215003,0.488924457,0.284624397,nan,nan,nan,[ nan  nan  nan],nan,nan,nan,278.6513398,378.9389367,379.4169946,nan,nan
0,88,21:43:04:535000,6,1,187,131.484375,[ 1.         -0.09124635  0.38538321],1,1,1,0.48825161,0,0,0,0.494055315,0.387823664,0.102026308,0.489849972,0.285797356,nan,nan,nan,[ nan  nan  nan],nan,nan,nan,278.6513398,379.8807231,380.3689747,nan,nan
0,89,21:43:05:471000,6,0,98,68.90625,[ 1.         -0.26382291 -0.48021779],0,0,1,0.450420474,0,0,0,0.472243359,0.38896489,0.102001901,0.490966792,0.286962989,nan,nan,nan,[ nan  nan  nan],nan,nan,nan,278.6513398,380.8225239,381.2729443,nan,nan
0,90,21:43:06:423000,6,1,246,172.96875,[ 0.58976884  0.2150199   0.65133953],1,1,1,0.404626314,0,0,0,0.447766133,0.389655403,0.101633871,0.491289273,0.288021532,nan,nan,nan,[ nan  nan  nan],nan,nan,nan,278.6513398,381.7643175,382.1689438,nan,nan
0,91,21:43:07:360000,6,1,353,248.203125,[-0.17504126  0.47149007  0.10879922],1,1,1,0.358808206,0,0,0,0.404618332,0.389821746,0.101079843,0.490901589,0.288741903,nan,nan,nan,[ nan  nan  nan],nan,nan,nan,278.6513398,382.7061062,383.0649144,nan,nan
0,92,21:43:08:296000,6,1,300,210.9375,[ 0.04335371  0.39574842  0.52895103],1,1,1,0.352976277,0,0,0,0.372136932,0.389480938,0.100574908,0.490055846,0.28890603,nan,nan,nan,[ nan  nan  nan],nan,nan,nan,278.6513398,383.6479013,384.0008775,nan,nan
0,93,21:43:09:248000,6,1,405,284.765625,[ 0.01846332  0.46800938 -0.47629333],1,1,1,0.339153099,0,0,0,0.350312527,0.389084148,0.100098403,0.489182551,0.288985745,nan,nan,nan,[ nan  nan  nan],nan,nan,nan,278.6513398,384.5897014,384.9288545,nan,nan
0,94,21:43:10:184000,6,1,252,177.1875,[ 0.52472169  0.24069367  0.65569401],1,1,1,0.333360513,0,0,0,0.341829963,0.388547255,0.09969188,0.488239135,0.288855375,nan,nan,nan,[ nan  nan  nan],nan,nan,nan,278.6513398,385.5314842,385.8648447,nan,nan
0,95,21:43:11:120000,6,1,501,352.265625,[ 0.75644923  0.25625354 -1.        ],1,1,1,0.351494916,0,0,0,0.341336176,0.387960162,0.099321688,0.48728185,0.288638474,nan,nan,nan,[ nan  nan  nan],nan,nan,nan,278.6513398,386.4733205,386.8248155,nan,nan
0,96,21:43:12:073000,6,1,60,42.1875,[ 1.         -0.08678377 -1.        ],1,1,1,0.313713102,0,0,0,0.332856177,0.387576317,0.098867625,0.486443943,0.288708692,nan,nan,nan,[ nan  nan  nan],nan,nan,nan,278.6513398,387.41507,387.7287831,nan,nan
0,97,21:43:13:009000,6,1,412,289.6875,[ 0.06188912  0.46209661 -0.57115894],1,1,1,0.307891151,0,0,0,0.32436639,0.386806909,0.098636836,0.485443745,0.288170073,nan,nan,nan,[ nan  nan  nan],nan,nan,nan,278.6513398,388.3568693,388.6647604,nan,nan
0,98,21:43:13:945000,6,1,210,147.65625,[ 0.9580225   0.0359305   0.53342186],1,1,1,0.278105433,0,0,0,0.299903229,0.385993344,0.098450319,0.484443663,0.287543026,nan,nan,nan,[ nan  nan  nan],nan,nan,nan,278.6513398,389.2986586,389.576764,nan,nan
0,99,21:43:14:897000,6,1,137,96.328125,[ 1.         -0.30019022 -0.06473166],1,1,1,0.312290187,0,0,0,0.299428924,0.384892447,0.098545036,0.483437483,0.286347412,nan,nan,nan,[ nan  nan  nan],nan,nan,nan,278.6513398,390.2404445,390.5527347,nan,nan
0,100,21:43:15:833000,6,1,33,23.203125,[ 1.          0.05659903 -1.        ],1,1,1,0.29852973,0,0,0,0.29630845,0.384159091,0.098314482,0.482473574,0.285844609,nan,nan,nan,[ nan  nan  nan],nan,nan,nan,278.6513398,391.1822412,391.480771,nan,nan
0,101,21:43:16:784000,6,1,123,86.484375,[ 1.         -0.31144114 -0.20867286],1,1,1,0.340647573,0,0,0,0.31715583,0.383302798,0.098192009,0.481494807,0.285110788,nan,nan,nan,[ nan  nan  nan],nan,nan,nan,278.6513398,392.1240397,392.4646873,nan,nan
0,102,21:43:17:720000,6,1,202,142.03125,[ 1.         -0.00802826  0.48759698],1,1,1,0.310833345,0,0,0,0.316670216,0.382880469,0.097795934,0.480676403,0.285084534,nan,nan,nan,[ nan  nan  nan],nan,nan,nan,278.6513398,393.0658316,393.3766649,nan,nan
0,103,21:43:18:656000,6,0,133,93.515625,[ 1.         -0.30625957 -0.10533643],0,0,1,0.552998686,0,0,0,0.401493201,0.382174124,0.097573925,0.479748049,0.2846002,nan,nan,nan,[ nan  nan  nan],nan,nan,nan,278.6513398,394.0076309,394.5606296,nan,nan
0,104,21:43:19:608000,6,1,80,56.25,[ 1.         -0.18907571 -0.70896555],1,1,1,0.411208047,0,0,0,0.425013359,0.383832615,0.09853323,0.482365846,0.285299385,nan,nan,nan,[ nan  nan  nan],nan,nan,nan,278.6513398,394.9494211,395.3606291,nan,nan
0,105,21:43:20:544000,6,1,451,317.109375,[ 0.34383096  0.40351836 -1.        ],1,1,1,0.421416489,0,0,0,0.461874407,0.384095841,0.098094752,0.482190592,0.286001089,nan,nan,nan,[ nan  nan  nan],nan,nan,nan,278.6513398,395.891189,396.3126055,nan,nan
0,106,21:43:21:480000,6,1,2,1.40625,[ 0.86302458  0.20362286 -1.        ],1,1,1,0.327575054,0,0,0,0.386733197,0.384451275,0.097693784,0.482145059,0.286757491,nan,nan,nan,[ nan  nan  nan],nan,nan,nan,278.6513398,396.8330054,397.1605805,nan,nan
0,107,21:43:22:431000,6,1,434,305.15625,[ 0.21388182  0.43461034 -1.        ],1,1,1,0.273674466,0,0,0,0.34088867,0.383914707,0.097387201,0.481301909,0.286527506,nan,nan,nan,[ nan  nan  nan],nan,nan,nan,278.6513398,397.7748857,398.0485602,nan,nan
0,108,21:43:23:367000,6,0,321,225.703125,[-0.09994335  0.43654647  0.39117498],0,1,0,0.243951469,0,0,0,0.281733663,0.382884425,0.097509723,0.480394148,0.285374701,nan,nan,nan,[ nan  nan  nan],nan,nan,nan,278.6513398,398.7165955,398.960547,nan,nan
0,109,21:43:24:319000,6,1,222,156.09375,[ 0.84177847  0.09972916  0.58948469],1,1,1,0.358134239,0,0,0,0.291920058,0.381598008,0.09796519,0.479563198,0.283632818,nan,nan,nan,[ nan  nan  nan],nan,nan,nan,278.6513398,399.6583837,400.0165179,nan,nan
0,110,21:43:25:255000,6,1,406,285.46875,[ 0.02449675  0.4672457  -0.4893661 ],1,1,1,0.408340834,0,0,0,0.336808847,0.381382744,0.09754043,0.478923175,0.283842314,nan,nan,nan,[ nan  nan  nan],nan,nan,nan,278.6513398,400.6001508,401.0084916,nan,nan
0,111,21:43:26:191000,6,0,76,53.4375,[ 1.         -0.16967451 -0.77336583],0,0,1,0.474477183,0,0,0,0.413650752,0.381627818,0.097129759,0.478757577,0.284498059,nan,nan,nan,[ nan  nan  nan],nan,nan,nan,278.6513398,401.541986,402.0164632,nan,nan
0,112,21:43:27:143000,6,1,362,254.53125,[-0.16423973  0.47600016  0.01745785],1,1,1,0.4126991,0,0,0,0.431839039,0.382464299,0.097088436,0.479552734,0.285375863,nan,nan,nan,[ nan  nan  nan],nan,nan,nan,278.6513398,402.4837588,402.8964579,nan,nan
0,113,21:43:28:079000,6,1,404,284.0625,[ 0.01248946  0.46874627 -0.4633491 ],1,1,1,0.414855569,0,0,0,0.434010618,0.382734252,0.09669587,0.479430122,0.286038382,nan,nan,nan,[ nan  nan  nan],nan,nan,nan,278.6513398,403.4255698,403.8404253,nan,nan
0,114,21:43:29:015000,6,1,471,331.171875,[ 0.50601401  0.35499378 -1.        ],1,1,1,0.385051034,0,0,0,0.404201901,0.383018512,0.096314055,0.479332566,0.286704457,nan,nan,nan,[ nan  nan  nan],nan,nan,nan,278.6513398,404.36736,404.752411,nan,nan
0,115,21:43:29:966000,6,0,291,204.609375,[ 0.12202764  0.37344194  0.57379193],0,0,1,0.515198625,0,0,0,0.438368409,0.383036341,0.095890881,0.478927222,0.28714546,nan,nan,nan,[ nan  nan  nan],nan,nan,nan,278.6513398,405.309167,405.8243656,nan,nan
0,116,21:43:30:902000,6,1,122,85.78125,[ 1.         -0.31115954 -0.21914422],1,1,1,0.477436768,0,0,0,0.459228809,0.384185578,0.096258346,0.480443924,0.287927232,nan,nan,nan,[ nan  nan  nan],nan,nan,nan,278.6513398,406.2509115,406.7283483,nan,nan
0,117,21:43:31:854000,6,1,290,203.90625,[ 0.13126538  0.37077654  0.57820662],1,1,1,0.343598035,0,0,0,0.445411143,0.384989468,0.096229466,0.481218933,0.288760002,nan,nan,nan,[ nan  nan  nan],nan,nan,nan,278.6513398,407.1927334,407.5363314,nan,nan
0,118,21:43:32:790000,6,1,183,128.671875,[ 1.         -0.113109    0.35490284],1,1,1,0.361790028,0,0,0,0.394274944,0.384635695,0.095893075,0.48052877,0.28874262,nan,nan,nan,[ nan  nan  nan],nan,nan,nan,278.6513398,408.1345244,408.4963144,nan,nan
0,119,21:43:33:726000,6,1,460,323.4375,[ 0.41584892  0.38333493 -1.        ],1,1,1,0.31598646,0,0,0,0.340458174,0.384442087,0.095508846,0.479950933,0.288933241,nan,nan,nan,[ nan  nan  nan],nan,nan,nan,278.6513398,409.0763094,409.3922959,nan,nan
0,120,21:43:34:677000,6,1,200,140.625,[ 1.         -0.01912099  0.47515178],1,1,1,0.502156041,0,0,0,0.393310843,0.38386683,0.095311769,0.479178599,0.288555061,nan,nan,nan,[ nan  nan  nan],nan,nan,nan,278.6513398,410.0181142,410.5202702,nan,nan
0,121,21:43:35:613000,6,1,92,64.6875,[ 1.         -0.24170366 -0.55060884],1,1,1,0.384351407,0,0,0,0.400831303,0.384852573,0.095521002,0.480373575,0.289331572,nan,nan,nan,[ nan  nan  nan],nan,nan,nan,278.6513398,410.9599049,411.3442563,nan,nan
0,122,21:43:36:549000,6,1,436,306.5625,[ 0.22868171  0.43141373 -1.        ],1,1,1,0.458518064,0,0,0,0.448341837,0.384848432,0.095125479,0.47997391,0.289722953,nan,nan,nan,[ nan  nan  nan],nan,nan,nan,278.6513398,411.9017025,412.3602206,nan,nan
0,123,21:43:37:501000,6,0,342,240.46875,[-0.17005262  0.46291356  0.21407524],0,0,1,0.532623139,0,0,0,0.458497537,0.385452281,0.094967397,0.480419678,0.290484884,nan,nan,nan,[ nan  nan  nan],nan,nan,nan,278.6513398,412.8435722,413.3761954,nan,nan
0,124,21:43:38:437000,6,1,56,39.375,[ 1.         -0.06536751 -1.        ],1,1,1,0.48690282,0,0,0,0.492681341,0.386648792,0.095499438,0.48214823,0.291149354,nan,nan,nan,[ nan  nan  nan],nan,nan,nan,278.6513398,413.7852661,414.2721689,nan,nan
0,125,21:43:39:389000,6,1,243,170.859375,[ 0.62215101  0.20168048  0.64746348],1,1,1,0.36108413,0,0,0,0.460203363,0.387457292,0.095535307,0.482992599,0.291921985,nan,nan,nan,[ nan  nan  nan],nan,nan,nan,278.6513398,414.7270779,415.088162,nan,nan
0,126,21:43:40:325000,6,1,145,101.953125,[ 1.         -0.28166741  0.01505517],1,1,1,0.395283139,0,0,0,0.414423363,0.387246307,0.095181399,0.482427706,0.292064907,nan,nan,nan,[ nan  nan  nan],nan,nan,nan,278.6513398,415.668857,416.0641401,nan,nan
0,127,21:43:41:261000,6,1,423,297.421875,[ 0.13522958  0.45008089 -0.75003992],1,1,1,0.477453589,0,0,0,0.411273619,0.387310091,0.094805625,0.482115717,0.292504466,nan,nan,nan,[ nan  nan  nan],nan,nan,nan,278.6513398,416.6106645,417.0881181,nan,nan
0,128,21:43:42:212000,6,1,505,355.078125,[ 0.78953796  0.24068314 -1.        ],1,1,1,0.463634687,0,0,0,0.445457138,0.388019883,0.094767153,0.482787036,0.293252729,nan,nan,nan,[ nan  nan  nan],nan,nan,nan,278.6513398,417.552459,418.0160937,nan,nan
0,129,21:43:43:148000,6,1,226,158.90625,[ 0.80126593  0.12020899  0.60458277],1,1,1,0.649820803,0,0,1,0.530303026,0.388610623,0.094630706,0.483241329,0.293979917,nan,nan,nan,[ nan  nan  nan],nan,nan,nan,278.6513398,418.4942466,419.1440674,nan,nan
0,130,21:43:48:298000,6,1,323,227.109375,[-0.11001989  0.43965345  0.37585536],1,1,1,0.660012139,1,0,0,0.591155876,0.390635508,0.097007075,0.487642583,0.293628434,nan,-141.1225037,329,[-0.13605328  0.44820379  0.32783374],nan,4.013128661,2.15893861,278.6513398,419.4360468,420.0960589,421.2612289,423.4281901
0,131,21:43:49:234000,6,1,403,283.359375,[ 0.00657627  0.46945644 -0.45052451],1,1,1,0.581167053,0,0,0,0.630333332,0.392707636,0.099457902,0.492165538,0.293249735,nan,nan,nan,[ nan  nan  nan],nan,nan,nan,278.6513398,424.5867361,425.1679032,nan,nan
0,132,21:43:50:186000,6,1,342,240.46875,[-0.17005262  0.46291356  0.21407524],1,nan,nan,nan,0,0,0,0.620589596,0.394146258,0.100426171,0.494572429,0.293720087,nan,nan,nan,[ nan  nan  nan],nan,nan,nan,278.6513398,425.5285323,nan,nan,nan
0,133,21:43:51:122000,6,1,188,132.1875,[ 1.         -0.08573935  0.39280429],1,1,1,0.529568048,0,0,0,0.55536755,0.394146258,0.100426171,0.494572429,0.293720087,nan,nan,nan,[ nan  nan  nan],nan,nan,nan,278.6513398,426.4703219,426.99989,nan,nan
0,134,21:43:52:073000,6,1,298,209.53125,[ 0.06008966  0.39105034  0.53969689],1,nan,nan,nan,0,0,0,0.529568048,0.39517218,0.100731777,0.495903958,0.294440403,nan,nan,nan,[ nan  nan  nan],nan,nan,nan,278.6513398,427.4121164,nan,nan,nan
0,135,21:43:53:009000,6,1,205,144.140625,[ 1.          0.008548    0.50553524],1,1,1,0.44595273,0,0,0,0.487760389,0.39517218,0.100731777,0.495903958,0.294440403,nan,nan,nan,[ nan  nan  nan],nan,nan,nan,278.6513398,428.3539068,428.7998596,nan,nan
0,136,21:43:53:945000,6,1,79,55.546875,[ 1.         -0.18429602 -0.72417078],1,1,1,0.456122115,0,0,0,0.451037423,0.395553989,0.100448202,0.496002191,0.295105787,nan,nan,nan,[ nan  nan  nan],nan,nan,nan,278.6513398,429.2956967,429.7518188,nan,nan
0,137,21:43:54:897000,6,1,450,316.40625,[ 0.33594973  0.40559833 -1.        ],1,1,1,0.34632213,0,0,0,0.416132325,0.39600599,0.100208365,0.496214355,0.295797625,nan,nan,nan,[ nan  nan  nan],nan,nan,nan,278.6513398,430.2374875,430.5838096,nan,nan
0,138,21:43:55:833000,6,1,148,104.0625,[ 1.         -0.27269559  0.04442646],1,1,1,0.516488686,0,0,0,0.43964431,0.395637961,0.099927389,0.49556535,0.295710573,nan,nan,nan,[ nan  nan  nan],nan,nan,nan,278.6513398,431.1792876,431.6957763,nan,nan
0,139,21:43:56:769000,6,1,105,73.828125,[ 1.         -0.28504984 -0.40158079],1,1,1,0.51066816,0,0,0,0.457826325,0.39652657,0.100093255,0.496619825,0.296433315,nan,nan,nan,[ nan  nan  nan],nan,nan,nan,278.6513398,432.1210798,432.631748,nan,nan
0,140,21:43:57:721000,6,1,431,303.046875,[ 0.19195726  0.43918129 -0.98229877],1,1,1,0.488867418,0,0,1,0.505341421,0.39735972,0.10019947,0.49755919,0.29716025,nan,nan,nan,[ nan  nan  nan],nan,nan,nan,278.6513398,433.0628746,433.551742,nan,nan
0,141,21:44:02:869000,6,1,301,211.640625,[ 0.03515994  0.39804276  0.52341451],1,1,1,0.451048256,1,0,0,0.483527945,0.398022819,0.100137004,0.498159823,0.297885815,nan,-130.1230937,313,[-0.05302215  0.42279583  0.44879796],nan,8.482468713,2.167216095,278.6513398,434.0046639,434.4557121,435.8298745,438.0051363
0,142,21:44:03:805000,6,1,200,140.625,[ 1.         -0.01912099  0.47515178],1,1,1,0.420243889,0,0,0,0.453386521,0.398404297,0.099876736,0.498281033,0.298527561,nan,nan,nan,[ nan  nan  nan],nan,nan,nan,278.6513398,439.1553541,439.575598,nan,nan
0,143,21:44:04:756000,6,1,336,236.25,[-0.15821161  0.45675811  0.26813527],1,1,1,0.358447274,0,0,0,0.40991314,0.398560294,0.099536387,0.498096681,0.299023907,nan,nan,nan,[ nan  nan  nan],nan,nan,nan,278.6513398,440.0971426,440.4555898,nan,nan
0,144,21:44:05:692000,6,1,431,303.046875,[ 0.19195726  0.43918129 -0.98229877],1,1,1,0.256627704,0,0,0,0.345106289,0.398275805,0.099239897,0.497515702,0.299035907,nan,nan,nan,[ nan  nan  nan],nan,nan,nan,278.6513398,441.038945,441.2955727,nan,nan
0,145,21:44:06:628000,6,1,123,86.484375,[ 1.         -0.31144114 -0.20867286],1,1,1,0.19479973,0,1,0,0.269958236,0.397278283,0.099596703,0.496874986,0.29768158,nan,nan,nan,[ nan  nan  nan],nan,nan,nan,278.6513398,441.9807383,442.1755381,nan,nan
0,146,21:44:11:387000,6,1,346,243.28125,[-0.17431756  0.46643129  0.17667017],1,1,1,0.25298845,1,0,0,0.234805295,0.395862349,0.10067188,0.496534229,0.295190469,nan,-158.039436,353,[-0.17504126  0.47149007  0.10879922],nan,4.75818598,1.758913749,278.6513398,442.9225277,443.1755161,444.7560924,446.522994
0,147,21:44:12:323000,6,1,274,192.65625,[ 0.28934405  0.32290089  0.63267027],1,1,1,0.430213705,0,0,0,0.292667295,0.394870169,0.101020883,0.495891053,0.293849286,nan,nan,nan,[ nan  nan  nan],nan,nan,nan,278.6513398,447.6731864,448.1034001,nan,nan
0,148,21:44:13:275000,6,0,171,120.234375,[ 1.         -0.17601187  0.25645091],0,0,1,0.528414833,0,0,0,0.40387233,0.395113918,0.100714416,0.495828334,0.294399502,nan,nan,nan,[ nan  nan  nan],nan,nan,nan,278.6513398,448.6149581,449.1433729,nan,nan
0,149,21:44:14:211000,6,1,30,21.09375,[ 1.          0.07194566 -1.        ],1,1,1,0.410601932,0,0,0,0.456410157,0.396026938,0.100969258,0.496996196,0.29505768,nan,nan,nan,[ nan  nan  nan],nan,nan,nan,278.6513398,449.5567543,449.9673562,nan,nan
0,150,21:44:15:147000,6,1,358,251.71875,[-0.17058391  0.47426832  0.05858744],1,1,1,0.436806557,0,0,0,0.458607774,0.396126087,0.100632371,0.496758458,0.295493717,nan,nan,nan,[ nan  nan  nan],nan,nan,nan,278.6513398,450.4985196,450.9353262,nan,nan
0,151,21:44:16:098000,6,1,85,59.765625,[ 1.         -0.21215645 -0.63878123],1,1,1,0.430964364,0,0,0,0.426124284,0.396400955,0.100347175,0.49674813,0.296053781,nan,nan,nan,[ nan  nan  nan],nan,nan,nan,278.6513398,451.4403406,451.871305,nan,nan
0,152,21:44:17:034000,6,1,339,238.359375,[-0.16495584  0.45996923  0.2414231 ],1,1,1,0.353173563,0,0,0,0.406981495,0.396632925,0.100049679,0.496682604,0.296583245,nan,nan,nan,[ nan  nan  nan],nan,nan,nan,278.6513398,452.3821305,452.7353041,nan,nan
0,153,21:44:17:986000,6,0,39,27.421875,[ 1.          0.02537899 -1.        ],0,0,1,0.443337827,0,0,0,0.409158585,0.396343195,0.099778319,0.496121514,0.296564877,nan,nan,nan,[ nan  nan  nan],nan,nan,nan,278.6513398,453.3239247,453.7672625,nan,nan
0,154,21:44:18:922000,6,1,508,357.1875,[ 0.81419982  0.22863893 -1.        ],1,1,1,0.245532042,0,0,0,0.347347811,0.396654418,0.0995204,0.496174818,0.297134018,nan,nan,nan,[ nan  nan  nan],nan,nan,nan,278.6513398,454.2657234,454.5112555,nan,nan
0,155,21:44:19:858000,6,1,422,296.71875,[ 0.12832838  0.45131367 -0.73089489],1,1,1,0.335714267,0,0,0,0.341528046,0.395660192,0.09994204,0.495602232,0.295718152,nan,nan,nan,[ nan  nan  nan],nan,nan,nan,278.6513398,455.2075145,455.5432287,nan,nan
0,156,21:44:20:810000,6,1,474,333.28125,[ 0.53090176  0.34654538 -1.        ],1,1,1,0.32190734,0,0,0,0.301051216,0.395268389,0.099731947,0.495000335,0.295536442,nan,nan,nan,[ nan  nan  nan],nan,nan,nan,278.6513398,456.1493092,456.4712165,nan,nan
0,157,21:44:21:746000,6,1,90,63.28125,[ 1.         -0.23363579 -0.57497187],1,1,1,0.340095912,0,0,0,0.332572506,0.394792018,0.099582096,0.494374114,0.295209922,nan,nan,nan,[ nan  nan  nan],nan,nan,nan,278.6513398,457.0911011,457.431197,nan,nan
0,158,21:44:22:682000,6,1,223,156.796875,[ 0.83172397  0.10489059  0.59343224],1,1,1,0.310242055,0,0,0,0.324081769,0.39443914,0.099356894,0.493796034,0.295082246,nan,nan,nan,[ nan  nan  nan],nan,nan,nan,278.6513398,458.0329178,458.3431598,nan,nan
0,159,21:44:23:633000,6,1,21,14.765625,[ 1.        0.116714 -1.      ],1,1,1,0.464455479,0,0,0,0.371597815,0.393899415,0.099265622,0.493165037,0.294633794,nan,nan,nan,[ nan  nan  nan],nan,nan,nan,278.6513398,458.974678,459.4391335,nan,nan
0,160,21:44:24:569000,6,0,66,46.40625,[ 1.         -0.11856871 -1.        ],0,0,1,0.514632424,0,0,0,0.429776653,0.394348817,0.09910806,0.493456876,0.295240757,nan,nan,nan,[ nan  nan  nan],nan,nan,nan,278.6513398,459.9164813,460.4311138,nan,nan
0,161,21:44:25:521000,6,1,232,163.125,[ 0.73915824  0.15004662  0.62371202],1,1,1,0.476817254,0,0,0,0.485301719,0.395110106,0.099253369,0.494363475,0.295856736,nan,nan,nan,[ nan  nan  nan],nan,nan,nan,278.6513398,460.8582741,461.3350913,nan,nan
0,162,21:44:26:457000,6,1,174,122.34375,[ 1.         -0.16079069  0.28198128],1,1,1,0.50301247,0,0,0,0.498154049,0.395623987,0.099151387,0.494775374,0.2964726,nan,nan,nan,[ nan  nan  nan],nan,nan,nan,278.6513398,461.800064,462.3030764,nan,nan
0,163,21:44:27:393000,6,1,280,196.875,[ 0.22808935  0.34201885  0.61587222],1,1,1,0.521187358,0,0,1,0.500339027,0.396295165,0.099202723,0.495497888,0.297092442,nan,nan,nan,[ nan  nan  nan],nan,nan,nan,278.6513398,462.7418519,463.2630392,nan,nan
0,164,21:44:31:823000,6,1,458,322.03125,[ 0.39968805  0.38805021 -1.        ],1,1,1,0.611372434,1,0,0,0.545190754,0.397070893,0.099379754,0.496450647,0.297691139,nan,119.4454287,470,[ 0.49774161  0.35774078 -1.        ],nan,8.52332127,1.425512753,278.6513398,463.6836566,464.295029,465.5171618,466.9507097
0,165,21:44:32:759000,6,1,225,158.203125,[ 0.81146625  0.11513113  0.60098195],1,1,1,0.497727925,0,0,0,0.543429239,0.398393742,0.100484372,0.498878114,0.29790937,nan,nan,nan,[ nan  nan  nan],nan,nan,nan,278.6513398,468.1092016,468.6069295,nan,nan
0,166,21:44:33:711000,6,1,495,348.046875,[ 0.70648511  0.27855169 -1.        ],1,1,1,0.427871924,0,0,0,0.512324094,0.399003154,0.100475508,0.499478662,0.298527646,nan,nan,nan,[ nan  nan  nan],nan,nan,nan,278.6513398,469.0510331,469.478905,nan,nan
0,167,21:44:34:647000,6,1,154,108.28125,[ 1.         -0.25181315  0.10213817],1,1,1,0.406069472,0,0,0,0.443889774,0.399179183,0.10019392,0.499373103,0.298985263,nan,nan,nan,[ nan  nan  nan],nan,nan,nan,278.6513398,469.9928295,470.398899,nan,nan
0,168,21:44:35:583000,6,1,308,216.5625,[-0.01868286  0.41309748  0.48168233],1,1,1,0.42421756,0,0,0,0.419386319,0.399220942,0.099891272,0.499112214,0.29932967,nan,nan,nan,[ nan  nan  nan],nan,nan,nan,278.6513398,470.9346411,471.3588587,nan,nan
0,169,21:44:36:535000,6,1,401,281.953125,[-0.00506341  0.47079689 -0.4252031 ],1,1,1,0.354426847,0,0,0,0.394904626,0.399371524,0.099608722,0.498980247,0.299762802,nan,nan,nan,[ nan  nan  nan],nan,nan,nan,278.6513398,471.8764085,472.2308353,nan,nan
0,170,21:44:37:471000,6,1,246,172.96875,[ 0.58976884  0.2150199   0.65133953],1,1,1,0.404620042,0,0,0,0.394421483,0.399102395,0.099370562,0.498472956,0.299731833,nan,nan,nan,[ nan  nan  nan],nan,nan,nan,278.6513398,472.8182049,473.222825,nan,nan
0,171,21:44:38:423000,6,1,457,321.328125,[ 0.39163925  0.39035818 -1.        ],1,1,1,0.366783205,0,0,0,0.375276698,0.399135238,0.099075284,0.498210521,0.300059954,nan,nan,nan,[ nan  nan  nan],nan,nan,nan,278.6513398,473.7600062,474.1267894,nan,nan
0,172,21:44:39:359000,6,1,65,45.703125,[ 1.         -0.11331216 -1.        ],1,1,1,0.305004552,0,0,0,0.3588026,0.398943806,0.098812884,0.49775669,0.300130922,nan,nan,nan,[ nan  nan  nan],nan,nan,nan,278.6513398,474.701789,475.0067936,nan,nan
0,173,21:44:40:295000,6,1,354,248.90625,[-0.17447067  0.47210079  0.09886772],1,1,1,0.291178808,0,0,0,0.320988855,0.398391222,0.098783373,0.497174595,0.299607849,nan,nan,nan,[ nan  nan  nan],nan,nan,nan,278.6513398,475.6435906,475.9347694,nan,nan
0,174,21:44:41:247000,6,1,69,48.515625,[ 1.         -0.1342072  -0.93964801],1,1,1,0.261359447,0,1,0,0.285847602,0.397764249,0.098832767,0.496597015,0.298931482,nan,nan,nan,[ nan  nan  nan],nan,nan,nan,278.6513398,476.5853785,476.8467379,nan,nan
0,175,21:44:46:147000,6,1,126,88.59375,[ 1.         -0.31141175 -0.17740843],1,1,1,0.271549358,1,0,0,0.274695871,0.396971197,0.099089216,0.496060413,0.297881982,nan,-26.1881107,165,[ 1.         -0.20505638  0.20374544],nan,27.5943607,1.908863843,278.6513398,477.5271684,477.7987178,479.3607109,481.2776068
0,176,21:44:47:083000,6,1,232,163.125,[ 0.73915824  0.15004662  0.62371202],1,1,1,0.458769519,0,0,0,0.330559442,0.396246216,0.099258855,0.495505071,0.296987361,nan,nan,nan,[ nan  nan  nan],nan,nan,nan,278.6513398,482.4278272,482.8865967,nan,nan
0,177,21:44:48:019000,6,1,79,55.546875,[ 1.         -0.18429602 -0.72417078],1,1,1,0.340942363,0,0,0,0.35708708,0.396605545,0.099085998,0.495691543,0.297519547,nan,nan,nan,[ nan  nan  nan],nan,nan,nan,278.6513398,483.3696253,483.7105677,nan,nan
0,178,21:44:48:971000,6,1,498,350.15625,[ 0.73150794  0.26756188 -1.        ],1,1,1,0.255146344,0,0,0,0.351619409,0.39628747,0.098891536,0.495179006,0.297395934,nan,nan,nan,[ nan  nan  nan],nan,nan,nan,278.6513398,484.3114101,484.5665564,nan,nan
0,179,21:44:49:907000,6,1,411,288.984375,[ 0.05552017  0.46302271 -0.55705476],1,1,1,0.241327727,0,1,0,0.279138812,0.395485532,0.0991792,0.494664732,0.296306331,nan,nan,nan,[ nan  nan  nan],nan,nan,nan,278.6513398,485.253206,485.4945337,nan,nan
0,180,21:44:54:493000,6,1,252,177.1875,[ 0.52472169  0.24069367  0.65569401],1,1,1,0.299526141,1,0,0,0.265333404,0.394614583,0.099571307,0.49418589,0.295043277,nan,-97.26888492,266,[ 0.37357759  0.29520749  0.64811377],nan,10.08138492,1.592258154,278.6513398,486.1949979,486.494524,488.0285139,489.6287314
0,181,21:44:55:429000,6,1,383,269.296875,[-0.09687871  0.47813121 -0.21108141],1,1,1,0.555402047,0,0,0,0.365418639,0.394080379,0.099545252,0.493625631,0.294535126,nan,nan,nan,[ nan  nan  nan],nan,nan,nan,278.6513398,490.7789908,491.3343928,nan,nan
0,182,21:44:56:381000,6,1,335,235.546875,[-0.15559599  0.45562772  0.27689323],1,1,1,0.389576082,0,0,0,0.414834757,0.394981617,0.099992377,0.494973994,0.294989241,nan,nan,nan,[ nan  nan  nan],nan,nan,nan,278.6513398,491.7208078,492.1103839,nan,nan
0,183,21:44:57:317000,6,0,72,50.625,[ 1.         -0.14960778 -0.85320374],0,0,1,0.487808,0,0,0,0.477595376,0.394951586,0.099715043,0.494666629,0.295236544,nan,nan,nan,[ nan  nan  nan],nan,nan,nan,278.6513398,492.6625384,493.1503464,nan,nan
0,184,21:44:58:253000,6,1,424,298.125,[ 0.14217456  0.44881957 -0.77022942],1,1,1,0.306009516,0,0,0,0.394464533,0.395464605,0.099677126,0.495141731,0.295787479,nan,nan,nan,[ nan  nan  nan],nan,nan,nan,278.6513398,493.6043271,493.9103367,nan,nan
0,185,21:44:59:205000,6,1,333,234.140625,[-0.14981348  0.45327595  0.29418374],1,1,1,0.356202712,0,0,0,0.383340076,0.394973094,0.099622614,0.494595708,0.29535048,nan,nan,nan,[ nan  nan  nan],nan,nan,nan,278.6513398,494.5461173,494.90232,nan,nan
0,186,21:45:00:157000,6,1,108,75.9375,[ 1.         -0.29242661 -0.36866329],1,1,1,0.350076563,0,0,0,0.337429597,0.394761234,0.099391152,0.494152386,0.295370082,nan,nan,nan,[ nan  nan  nan],nan,nan,nan,278.6513398,495.4962104,495.8462869,nan,nan
0,187,21:45:01:093000,6,1,460,323.4375,[ 0.41584892  0.38333493 -1.        ],1,1,1,0.360232547,0,0,0,0.355503941,0.394518382,0.099175127,0.493693509,0.295343255,nan,nan,nan,[ nan  nan  nan],nan,nan,nan,278.6513398,496.4380419,496.7982744,nan,nan
0,188,21:45:02:029000,6,0,20,14.0625,[ 1.          0.12155819 -1.        ],0,0,1,0.466419792,0,0,0,0.392242967,0.394333053,0.098938666,0.493271719,0.295394388,nan,nan,nan,[ nan  nan  nan],nan,nan,nan,278.6513398,497.3798304,497.8462501,nan,nan
0,189,21:45:02:981000,6,1,62,43.59375,[ 1.         -0.09743725 -1.        ],1,1,1,0.436596441,0,0,0,0.421082927,0.394720617,0.098813052,0.493533669,0.295907564,nan,nan,nan,[ nan  nan  nan],nan,nan,nan,278.6513398,498.3216254,498.7582218,nan,nan
0,190,21:45:03:917000,6,1,114,80.15625,[ 1.         -0.30374746 -0.30385937],1,1,1,0.542774848,0,0,0,0.48193036,0.394944551,0.098595804,0.493540356,0.296348747,nan,nan,nan,[ nan  nan  nan],nan,nan,nan,278.6513398,499.263423,499.8061978,nan,nan
0,191,21:45:04:869000,6,1,178,125.15625,[ 1.         -0.13991966  0.31509783],1,1,1,0.72094092,0,0,1,0.566770736,0.395730883,0.09891941,0.494650293,0.296811473,nan,nan,nan,[ nan  nan  nan],nan,nan,nan,278.6513398,500.2052209,500.9261618,nan,nan
0,192,21:45:10:329000,6,1,279,196.171875,[ 0.23815758  0.33893035  0.61897842],1,1,1,0.691146649,1,0,0,0.651620806,0.397451571,0.10143915,0.498890721,0.29601242,nan,-103.1432161,275,[ 0.27900239  0.32618525  0.63017847],nan,-3.028658891,2.467430744,278.6513398,501.1469931,501.8381397,502.9805168,505.4558795
0,193,21:45:11:282000,6,1,156,109.6875,[ 1.         -0.24406061  0.12104147],1,1,1,0.543631562,0,0,0,0.651906377,0.398997334,0.10337958,0.502376915,0.295617754,nan,nan,nan,[ nan  nan  nan],nan,nan,nan,278.6513398,506.614405,507.1580366,nan,nan
0,194,21:45:12:218000,6,1,233,163.828125,[ 0.7286704   0.15490978  0.62648223],1,1,1,0.321798718,0,0,0,0.518858976,0.399754582,0.10363558,0.503390162,0.296119002,nan,nan,nan,[ nan  nan  nan],nan,nan,nan,278.6513398,507.556206,507.8780047,nan,nan
0,195,21:45:13:154000,6,1,471,331.171875,[ 0.50601401  0.35499378 -1.        ],1,1,1,0.46003278,0,0,0,0.44182102,0.399348562,0.10351754,0.502866101,0.295831022,nan,nan,nan,[ nan  nan  nan],nan,nan,nan,278.6513398,508.4979728,508.9580056,nan,nan
0,196,21:45:14:090000,6,1,77,54.140625,[ 1.         -0.17459302 -0.75626719],1,1,1,0.406184081,0,0,0,0.396005193,0.399662988,0.103340893,0.50300388,0.296322095,nan,nan,nan,[ nan  nan  nan],nan,nan,nan,278.6513398,509.4397898,509.8459739,nan,nan
0,197,21:45:15:041000,6,1,466,327.65625,[ 0.46478901  0.3683856  -1.        ],1,1,1,0.464386771,0,0,0,0.443534544,0.399696601,0.103075264,0.502771865,0.296621337,nan,nan,nan,[ nan  nan  nan],nan,nan,nan,278.6513398,510.3815666,510.8459534,nan,nan
0,198,21:45:15:977000,6,1,240,168.75,[ 0.65437302  0.18801506  0.64246395],1,1,1,0.394562986,0,0,0,0.421711279,0.400028346,0.102914411,0.502942757,0.297113935,nan,nan,nan,[ nan  nan  nan],nan,nan,nan,278.6513398,511.3233616,511.7179246,nan,nan
0,199,21:45:16:929000,6,1,392,275.625,[-0.05410679  0.47552228 -0.31554984],1,1,1,0.556739148,0,0,0,0.471896302,0.400000461,0.102652277,0.502652738,0.297348185,nan,nan,nan,[ nan  nan  nan],nan,nan,nan,278.6513398,512.2651558,512.8218949,nan,nan
0,200,21:45:17:865000,6,1,93,65.390625,[ 1.         -0.2456143  -0.53861988],1,1,1,0.622945632,0,0,1,0.524749255,0.400796089,0.102995499,0.503791588,0.297800591,nan,nan,nan,[ nan  nan  nan],nan,nan,nan,278.6513398,513.206924,513.8298697,nan,nan
0,201,21:45:22:515000,6,1,45,31.640625,[ 1.         -0.00639576 -1.        ],1,1,1,0.561105113,1,0,0,0.580263298,0.401918057,0.103934991,0.505853048,0.297983066,nan,72.56061223,25,[ 1.          0.09706829 -1.        ],nan,-14.20123723,1.667191434,278.6513398,514.1487439,514.709849,515.9739231,517.6491508
0,202,21:45:23:451000,6,1,340,239.0625,[-0.16683717  0.46098011  0.2323764 ],1,1,1,0.390357246,0,0,0,0.524802664,0.402717992,0.104282779,0.50700077,0.298435213,nan,nan,nan,[ nan  nan  nan],nan,nan,nan,278.6513398,518.7993575,519.1897148,nan,nan
0,203,21:45:24:402000,6,1,163,114.609375,[ 1.         -0.2142478   0.18572368],1,1,1,0.464587478,0,0,0,0.472016612,0.402656188,0.104025399,0.506681586,0.298630789,nan,nan,nan,[ nan  nan  nan],nan,nan,nan,278.6513398,519.7411363,520.2057238,nan,nan
0,204,21:45:25:338000,6,1,243,170.859375,[ 0.62215101  0.20168048  0.64746348],1,1,1,0.466748223,0,0,0,0.440564316,0.402964304,0.103857756,0.506822059,0.299106548,nan,nan,nan,[ nan  nan  nan],nan,nan,nan,278.6513398,520.6829513,521.1496995,nan,nan
0,205,21:45:26:274000,6,1,473,332.578125,[ 0.52259481  0.34939617 -1.        ],1,1,1,0.556942137,0,0,0,0.496092613,0.403280066,0.10369704,0.506977105,0.299583026,nan,nan,nan,[ nan  nan  nan],nan,nan,nan,278.6513398,521.6247452,522.1816873,nan,nan
0,206,21:45:27:226000,6,1,346,243.28125,[-0.17431756  0.46643129  0.17667017],1,1,1,0.48712491,0,0,0,0.50360509,0.404037022,0.103999268,0.508036289,0.300037754,nan,nan,nan,[ nan  nan  nan],nan,nan,nan,278.6513398,522.5665396,523.0536645,nan,nan
0,207,21:45:28:162000,6,1,237,166.640625,[ 0.6863873   0.17403185  0.63634982],1,1,1,0.417321937,0,0,0,0.487129661,0.404444315,0.103906227,0.508350543,0.300538088,nan,nan,nan,[ nan  nan  nan],nan,nan,nan,278.6513398,523.5083252,523.9256472,nan,nan
0,208,21:45:29:114000,6,1,62,43.59375,[ 1.         -0.09743725 -1.        ],1,1,1,0.419483537,0,0,0,0.441310128,0.404507133,0.103656371,0.508163504,0.300850762,nan,nan,nan,[ nan  nan  nan],nan,nan,nan,278.6513398,524.45013,524.8696135,nan,nan
0,209,21:45:30:050000,6,1,333,234.140625,[-0.14981348  0.45327595  0.29418374],1,1,1,0.461684343,0,0,0,0.432829939,0.404579834,0.103409711,0.507989545,0.301170123,nan,nan,nan,[ nan  nan  nan],nan,nan,nan,278.6513398,525.3919136,525.8535979,nan,nan
0,210,21:45:30:986000,6,0,84,59.0625,[ 1.         -0.20765784 -0.65219109],0,0,1,0.527900235,0,0,0,0.469689371,0.404855701,0.103235583,0.508091285,0.301620118,nan,nan,nan,[ nan  nan  nan],nan,nan,nan,278.6513398,526.3336733,526.8615735,nan,nan
0,211,21:45:31:937000,6,1,10,7.03125,[ 0.9268115   0.16840058 -1.        ],1,1,1,0.322065853,0,0,0,0.43721681,0.405447261,0.10333821,0.508785471,0.302109052,nan,nan,nan,[ nan  nan  nan],nan,nan,nan,278.6513398,527.2754934,527.5975592,nan,nan
0,212,21:45:32:873000,6,1,479,336.796875,[ 0.57257215  0.33176822 -1.        ],1,1,1,0.364233018,0,0,0,0.404733035,0.405048307,0.103251136,0.508299443,0.301797171,nan,nan,nan,[ nan  nan  nan],nan,nan,nan,278.6513398,528.2173004,528.5815334,nan,nan
0,213,21:45:33:809000,6,1,380,267.1875,[-0.10951951  0.47853303 -0.17717739],1,1,1,0.302451229,0,0,0,0.329583367,0.404853949,0.103043323,0.507897272,0.301810626,nan,nan,nan,[ nan  nan  nan],nan,nan,nan,278.6513398,529.1590746,529.4615258,nan,nan
0,214,21:45:34:761000,6,1,65,45.703125,[ 1.         -0.11331216 -1.        ],1,1,1,0.424614129,0,0,0,0.363766126,0.404368628,0.103039154,0.507407781,0.301329474,nan,nan,nan,[ nan  nan  nan],nan,nan,nan,278.6513398,530.1008768,530.5254909,nan,nan
0,215,21:45:35:698000,6,1,165,116.015625,[ 1.         -0.20505638  0.20374544],1,1,1,0.362828634,0,0,0,0.363297998,0.404464125,0.102805209,0.507269334,0.301658917,nan,nan,nan,[ nan  nan  nan],nan,nan,nan,278.6513398,531.0426572,531.4054859,nan,nan
0,216,21:45:36:649000,6,1,385,270.703125,[-0.08797966  0.47773344 -0.23392672],1,1,1,0.356957361,0,0,0,0.381466708,0.404268654,0.10260308,0.506871734,0.301665574,nan,nan,nan,[ nan  nan  nan],nan,nan,nan,278.6513398,531.9844836,532.341441,nan,nan
0,217,21:45:37:585000,6,1,181,127.265625,[ 1.         -0.12391439  0.33920113],1,1,1,0.367189467,0,0,0,0.362325154,0.404047573,0.102413912,0.506461485,0.301633661,nan,nan,nan,[ nan  nan  nan],nan,nan,nan,278.6513398,532.9262536,533.293443,nan,nan
0,218,21:45:38:521000,6,1,53,37.265625,[ 1.         -0.04925756 -1.        ],1,1,1,0.417364416,0,0,0,0.380503748,0.40387614,0.102206235,0.506082374,0.301669905,nan,nan,nan,[ nan  nan  nan],nan,nan,nan,278.6513398,533.8680495,534.2854139,nan,nan
0,219,21:45:39:473000,6,1,337,236.953125,[-0.16064337  0.45785839  0.25930356],1,1,1,0.475530614,0,0,0,0.420028166,0.403938586,0.101973483,0.505912068,0.301965103,nan,nan,nan,[ nan  nan  nan],nan,nan,nan,278.6513398,534.8098411,535.2853717,nan,nan
0,220,21:45:40:409000,6,1,239,168.046875,[ 0.66506983  0.18338886  0.64054927],1,1,1,0.389718345,0,0,0,0.427537792,0.404268503,0.101853728,0.506122231,0.302414774,nan,nan,nan,[ nan  nan  nan],nan,nan,nan,278.6513398,535.7516313,536.1413496,nan,nan
0,221,21:45:41:345000,6,1,323,227.109375,[-0.11001989  0.43965345  0.37585536],1,1,1,0.319913661,0,0,0,0.395054207,0.404201759,0.101624606,0.505826365,0.302577152,nan,nan,nan,[ nan  nan  nan],nan,nan,nan,278.6513398,536.6934306,537.0133442,nan,nan
0,222,21:45:42:297000,6,1,119,83.671875,[ 1.         -0.30944633 -0.2507109 ],1,1,1,0.426087792,0,0,0,0.378573266,0.403816882,0.101551441,0.505368323,0.30226544,nan,nan,nan,[ nan  nan  nan],nan,nan,nan,278.6513398,537.6352182,538.061306,nan,nan
0,223,21:45:43:233000,6,1,386,271.40625,[-0.08339466  0.47749559 -0.24542474],1,1,1,0.436285401,0,0,0,0.394095618,0.403918113,0.101331454,0.505249568,0.302586659,nan,nan,nan,[ nan  nan  nan],nan,nan,nan,278.6513398,538.5770078,539.0132932,nan,nan
0,224,21:45:44:169000,6,1,73,51.328125,[ 1.         -0.15467886 -0.83091687],1,1,1,0.454467986,0,0,0,0.43894706,0.404064571,0.101125273,0.505189844,0.302939299,nan,nan,nan,[ nan  nan  nan],nan,nan,nan,278.6513398,539.5188131,539.9732811,nan,nan
0,225,21:45:45:120000,6,1,453,318.515625,[ 0.35967042  0.39926175 -1.        ],1,1,1,0.440654216,0,0,0,0.443802534,0.404291614,0.100953695,0.505245309,0.303337919,nan,nan,nan,[ nan  nan  nan],nan,nan,nan,278.6513398,540.4605958,540.9012501,nan,nan
0,226,21:45:46:056000,6,1,279,196.171875,[ 0.23815758  0.33893035  0.61897842],1,1,1,0.362848591,0,0,0,0.419323598,0.404454675,0.100756383,0.505211058,0.303698292,nan,nan,nan,[ nan  nan  nan],nan,nan,nan,278.6513398,541.4023886,541.7652372,nan,nan
0,227,21:45:47:008000,6,1,90,63.28125,[ 1.         -0.23363579 -0.57497187],1,1,1,0.253021237,0,0,0,0.352174681,0.404268933,0.100569486,0.504838419,0.303699448,nan,nan,nan,[ nan  nan  nan],nan,nan,nan,278.6513398,542.3441862,542.5972074,nan,nan
0,228,21:45:47:945000,6,1,151,106.171875,[ 1.         -0.26272029  0.07346267],1,1,1,0.367192603,0,0,0,0.327687477,0.403596721,0.100848838,0.504445559,0.302747884,nan,nan,nan,[ nan  nan  nan],nan,nan,nan,278.6513398,543.2859761,543.6531687,nan,nan
0,229,21:45:48:881000,6,1,205,144.140625,[ 1.          0.008548    0.50553524],1,1,1,0.289408075,0,0,0,0.303207305,0.403435641,0.100654478,0.504090119,0.302781163,nan,nan,nan,[ nan  nan  nan],nan,nan,nan,278.6513398,544.2277674,544.5171755,nan,nan
0,230,21:45:49:832000,6,1,278,195.46875,[ 0.24828552  0.33580281  0.62196257],1,1,1,0.267592507,0,0,0,0.308064395,0.402933317,0.100716031,0.503649349,0.302217286,nan,nan,nan,[ nan  nan  nan],nan,nan,nan,278.6513398,545.1695659,545.4371584,nan,nan
0,231,21:45:50:768000,6,1,379,266.484375,[-0.11353594  0.47861499 -0.16597052],1,1,1,0.261769416,0,1,0,0.272923333,0.402339717,0.100892096,0.503231813,0.301447622,nan,nan,nan,[ nan  nan  nan],nan,nan,nan,278.6513398,546.1113509,546.3731203,nan,nan
0,232,21:45:55:230000,6,1,505,355.078125,[ 0.78953796  0.24068314 -1.        ],1,1,1,0.247969331,1,0,0,0.259110418,0.401725873,0.101097357,0.50282323,0.300628516,nan,85.32755724,7,[ 0.90309146  0.18185306 -1.        ],nan,9.594317755,1.475465327,278.6513398,547.0531448,547.3011141,548.8783551,550.3618604
0,233,21:45:56:166000,6,1,108,75.9375,[ 1.         -0.29242661 -0.36866329],1,1,1,0.500957211,0,0,0,0.336898652,0.401057366,0.101383324,0.50244069,0.299674043,nan,nan,nan,[ nan  nan  nan],nan,nan,nan,278.6513398,551.5120326,552.0129898,nan,nan
0,234,21:45:57:118000,6,1,153,107.578125,[ 1.         -0.25554786  0.09262139],1,1,1,0.367117337,0,0,0,0.372014626,0.401489833,0.101376026,0.502865859,0.300113807,nan,nan,nan,[ nan  nan  nan],nan,nan,nan,278.6513398,552.4538687,552.8209861,nan,nan
0,235,21:45:58:054000,6,1,83,58.359375,[ 1.         -0.20309788 -0.66587671],1,1,1,0.353293304,0,0,0,0.407122617,0.401341676,0.101182367,0.502524043,0.300159309,nan,nan,nan,[ nan  nan  nan],nan,nan,nan,278.6513398,553.3956595,553.7489528,nan,nan
0,236,21:45:58:990000,6,0,384,270,[-0.09247501  0.47794532 -0.22247927],0,1,0,0.315488967,0,0,0,0.34529987,0.40113546,0.10101385,0.50214931,0.30012161,nan,nan,nan,[ nan  nan  nan],nan,nan,nan,278.6513398,554.3374434,554.6529323,nan,nan
0,237,21:45:59:941000,6,1,294,206.71875,[ 0.0948762   0.38121213  0.55985823],1,1,1,0.477656292,0,0,0,0.382146188,0.400769449,0.100952491,0.50172194,0.299816958,nan,nan,nan,[ nan  nan  nan],nan,nan,nan,278.6513398,555.2792381,555.7568944,nan,nan
0,238,21:46:00:877000,6,1,79,55.546875,[ 1.         -0.18429602 -0.72417078],1,1,1,0.431852439,0,0,0,0.408332566,0.401096627,0.100861719,0.501958346,0.300234908,nan,nan,nan,[ nan  nan  nan],nan,nan,nan,278.6513398,556.2210417,556.6528941,nan,nan
0,239,21:46:01:813000,6,1,314,220.78125,[-0.05944389  0.42463231  0.44192541],1,1,1,0.554030164,0,0,0,0.487846298,0.401226948,0.100667628,0.501894576,0.300559321,nan,nan,nan,[ nan  nan  nan],nan,nan,nan,278.6513398,557.1628353,557.7168655,nan,nan
0,240,21:46:02:765000,6,0,92,64.6875,[ 1.         -0.24170366 -0.55060884],0,0,1,0.484216072,0,0,0,0.490032892,0.401871688,0.100942134,0.502813822,0.300929553,nan,nan,nan,[ nan  nan  nan],nan,nan,nan,278.6513398,558.1046243,558.5888404,nan,nan
0,241,21:46:03:701000,6,1,259,182.109375,[ 0.44882283  0.26890698  0.65501178],1,1,1,0.30242272,0,0,0,0.446889652,0.402217672,0.100870573,0.503088245,0.3013471,nan,nan,nan,[ nan  nan  nan],nan,nan,nan,278.6513398,559.0464151,559.3488378,nan,nan
0,242,21:46:04:652000,6,1,119,83.671875,[ 1.         -0.30944633 -0.2507109 ],1,1,1,0.336591508,0,0,0,0.3744101,0.40180012,0.100865232,0.502665352,0.300934889,nan,nan,nan,[ nan  nan  nan],nan,nan,nan,278.6513398,559.9882084,560.3247999,nan,nan
0,243,21:46:05:588000,6,1,383,269.296875,[-0.09687871  0.47813121 -0.21108141],1,1,1,0.330784953,0,0,0,0.323266394,0.401528418,0.100742482,0.5022709,0.300785936,nan,nan,nan,[ nan  nan  nan],nan,nan,nan,278.6513398,560.9299992,561.2607841,nan,nan
0,244,21:46:06:524000,6,1,39,27.421875,[ 1.          0.02537899 -1.        ],1,1,1,0.516952822,0,0,0,0.394776428,0.401234876,0.100636054,0.501870931,0.300598822,nan,nan,nan,[ nan  nan  nan],nan,nan,nan,278.6513398,561.8718002,562.388753,nan,nan
0,245,21:46:07:476000,6,1,343,241.171875,[-0.17138818  0.46383642  0.20482281],1,1,1,0.407156259,0,0,0,0.418298011,0.40171305,0.100701888,0.502414938,0.301011161,nan,nan,nan,[ nan  nan  nan],nan,nan,nan,278.6513398,562.8135869,563.2207432,nan,nan
0,246,21:46:08:412000,6,1,464,326.25,[ 0.44840488  0.37350356 -1.        ],1,1,1,0.425325444,0,0,0,0.449811509,0.40173545,0.100495073,0.502230523,0.301240376,nan,nan,nan,[ nan  nan  nan],nan,nan,nan,278.6513398,563.7553806,564.180706,nan,nan
0,247,21:46:09:348000,6,1,136,95.625,[ 1.         -0.3019149  -0.07484121],1,1,1,0.307526228,0,0,0,0.380002644,0.40183213,0.100300253,0.502132383,0.301531877,nan,nan,nan,[ nan  nan  nan],nan,nan,nan,278.6513398,564.6971676,565.0046938,nan,nan
0,248,21:46:10:300000,6,0,324,227.8125,[-0.11479964  0.44115833  0.36806404],0,0,1,0.429705094,0,0,0,0.387518922,0.401447208,0.100275776,0.501722984,0.301171432,nan,nan,nan,[ nan  nan  nan],nan,nan,nan,278.6513398,565.6389666,566.0686717,nan,nan
0,249,21:46:11:236000,6,1,208,146.25,[ 0.97651258  0.02502074  0.52257448],1,1,1,0.287897349,0,0,0,0.341709557,0.401562078,0.100087907,0.501649984,0.301474171,nan,nan,nan,[ nan  nan  nan],nan,nan,nan,278.6513398,566.5807554,566.8686527,nan,nan
0,250,21:46:12:187000,6,0,260,182.8125,[ 0.43801664  0.27278198  0.65440657],0,1,0,0.314073464,0,0,0,0.343891969,0.401101896,0.100145527,0.501247423,0.300956369,nan,nan,nan,[ nan  nan  nan],nan,nan,nan,278.6513398,567.5225578,567.8366313,nan,nan
0,251,21:46:13:123000,6,1,6,4.21875,[ 0.89512908  0.18627278 -1.        ],1,1,1,0.476276711,0,0,0,0.359415841,0.400750975,0.100095472,0.500846447,0.300655503,nan,nan,nan,[ nan  nan  nan],nan,nan,nan,278.6513398,568.4643272,568.9406039,nan,nan
0,252,21:46:14:059000,6,1,143,100.546875,[ 1.         -0.28705753 -0.00469999],1,1,1,0.478442872,0,0,0,0.422931016,0.401054292,0.100008411,0.501062703,0.30104588,nan,nan,nan,[ nan  nan  nan],nan,nan,nan,278.6513398,569.4061362,569.8845791,nan,nan
0,253,21:46:15:011000,6,1,194,136.40625,[ 1.         -0.05248646  0.4355717 ],1,1,1,0.384633368,0,0,0,0.446450984,0.401363846,0.099927653,0.501291498,0.301436193,nan,nan,nan,[ nan  nan  nan],nan,nan,nan,278.6513398,570.3479252,570.7325586,nan,nan
0,254,21:46:15:947000,6,1,89,62.578125,[ 1.         -0.2294841  -0.58737049],1,1,1,0.426811937,0,0,0,0.429962726,0.401297191,0.099733964,0.501031154,0.301563227,nan,nan,nan,[ nan  nan  nan],nan,nan,nan,278.6513398,571.2897174,571.7165293,nan,nan
0,255,21:46:16:883000,6,1,406,285.46875,[ 0.02449675  0.4672457  -0.4893661 ],1,1,1,0.317002543,0,0,0,0.376149282,0.40139844,0.099548807,0.500947246,0.301849633,nan,nan,nan,[ nan  nan  nan],nan,nan,nan,278.6513398,572.2315087,572.5485113,nan,nan
0,256,21:46:17:835000,6,1,156,109.6875,[ 1.         -0.24406061  0.12104147],1,1,1,0.327199297,0,0,0,0.357004592,0.401064859,0.099492897,0.500557756,0.301571962,nan,nan,nan,[ nan  nan  nan],nan,nan,nan,278.6513398,573.1732961,573.5004954,nan,nan
0,257,21:46:18:771000,6,1,403,283.359375,[ 0.00657627  0.46945644 -0.45052451],1,1,1,0.305374322,0,0,0,0.316525387,0.40077405,0.099404532,0.500178582,0.301369517,nan,nan,nan,[ nan  nan  nan],nan,nan,nan,278.6513398,574.1150976,574.420472,nan,nan
0,258,21:46:19:722000,6,1,507,356.484375,[ 0.80599565  0.23268835 -1.        ],1,1,1,0.275569216,0,0,0,0.302714278,0.400399933,0.099388438,0.499788371,0.301011495,nan,nan,nan,[ nan  nan  nan],nan,nan,nan,278.6513398,575.0568867,575.3324559,nan,nan
0,259,21:46:20:658000,6,0,338,237.65625,[-0.16289136  0.45892871  0.25039916],0,0,1,0.477732413,0,0,0,0.352891983,0.399912313,0.099499285,0.499411598,0.300413028,nan,nan,nan,[ nan  nan  nan],nan,nan,nan,278.6513398,575.9986866,576.476419,nan,nan
0,260,21:46:21:594000,6,1,29,20.390625,[ 1.          0.07701739 -1.        ],1,1,1,0.391944947,0,0,0,0.381748858,0.400215115,0.09942363,0.499638745,0.300791485,nan,nan,nan,[ nan  nan  nan],nan,nan,nan,278.6513398,576.9404685,577.3324134,nan,nan
0,261,21:46:22:546000,6,1,182,127.96875,[ 1.         -0.11852384  0.34708947],1,1,1,0.394155298,0,0,0,0.421277553,0.40018306,0.099232092,0.499415152,0.300950968,nan,nan,nan,[ nan  nan  nan],nan,nan,nan,278.6513398,577.8822418,578.2763971,nan,nan
0,262,21:46:23:482000,6,1,455,319.921875,[ 0.37560825  0.39487537 -1.        ],1,1,1,0.300298752,0,0,0,0.362132999,0.400159787,0.099041045,0.499200832,0.301118742,nan,nan,nan,[ nan  nan  nan],nan,nan,nan,278.6513398,578.8240597,579.1243584,nan,nan
0,263,21:46:24:418000,6,1,315,221.484375,[-0.06571114  0.42643481  0.43495652],1,1,1,0.294491341,0,0,0,0.329648464,0.399775706,0.099043467,0.498819173,0.300732239,nan,nan,nan,[ nan  nan  nan],nan,nan,nan,278.6513398,579.765855,580.0603463,nan,nan
0,264,21:46:25:369000,6,1,497,349.453125,[ 0.72317494  0.2712606  -1.        ],1,1,1,0.256691566,0,1,0,0.28382722,0.399372318,0.099067307,0.498439625,0.30030501,nan,nan,nan,[ nan  nan  nan],nan,nan,nan,278.6513398,580.7076395,580.964331,nan,nan
0,265,21:46:30:361000,6,1,384,270,[-0.09247501  0.47794532 -0.22247927],1,1,1,0.346865523,1,0,0,0.299349477,0.398827735,0.099268711,0.498096446,0.299559023,nan,-151.1051421,343,[-0.17138818  0.46383642  0.20482281],nan,-28.89485792,2.008891298,278.6513398,581.6494396,581.9963052,583.4746117,585.4915915
0,266,21:46:31:297000,6,0,83,58.359375,[ 1.         -0.20309788 -0.66587671],0,0,1,0.746373504,0,0,0,0.449976864,0.39863016,0.099131406,0.497761566,0.299498753,nan,nan,nan,[ nan  nan  nan],nan,nan,nan,278.6513398,586.6417663,587.3881398,nan,nan
0,267,21:46:32:249000,6,1,29,20.390625,[ 1.          0.07701739 -1.        ],1,1,1,0.756588504,0,0,0,0.616609177,0.399947369,0.101223159,0.501170528,0.29872421,nan,nan,nan,[ nan  nan  nan],nan,nan,nan,278.6513398,587.583559,588.3401475,nan,nan
0,268,21:46:33:185000,6,1,341,239.765625,[-0.16853588  0.4619615   0.22326011],1,1,1,0.510790181,0,0,0,0.67125073,0.401293185,0.103371298,0.504664483,0.297921887,nan,nan,nan,[ nan  nan  nan],nan,nan,nan,278.6513398,588.5253503,589.0361405,nan,nan
0,269,21:46:34:121000,6,1,110,77.34375,[ 1.         -0.29672275 -0.34692196],1,1,1,0.424967363,0,0,1,0.56411535,0.401704828,0.103394187,0.505099015,0.298310641,nan,nan,nan,[ nan  nan  nan],nan,nan,nan,278.6513398,589.4671479,589.8921153,nan,nan
0,270,21:46:38:365000,6,1,244,171.5625,[ 0.61137236  0.20616355  0.64888072],1,1,1,0.283154488,1,0,0,0.406304011,0.401791953,0.103210166,0.505002119,0.298581788,nan,-86.24354745,251,[ 0.53557652  0.23650919  0.65528415],nan,4.681047452,1.242184157,278.6513398,590.4089512,590.6921057,592.2424561,593.4926484
0,271,21:46:39:301000,6,1,171,120.234375,[ 1.         -0.17601187  0.25645091],1,1,1,0.641134774,0,0,0,0.449752209,0.401349276,0.103271065,0.504620342,0.298078211,nan,nan,nan,[ nan  nan  nan],nan,nan,nan,278.6513398,594.6428342,595.283969,nan,nan
0,272,21:46:40:237000,6,0,457,321.328125,[ 0.39163925  0.39035818 -1.        ],0,0,1,0.523309329,0,0,0,0.482532864,0.402240672,0.104106751,0.506347423,0.298133921,nan,nan,nan,[ nan  nan  nan],nan,nan,nan,278.6513398,595.5846258,596.1079352,nan,nan
0,273,21:46:41:189000,6,1,215,151.171875,[ 0.91063986  0.06289474  0.55869515],1,1,1,0.277551776,0,0,0,0.480665293,0.402689075,0.104173704,0.506862778,0.298515371,nan,nan,nan,[ nan  nan  nan],nan,nan,nan,278.6513398,596.5264058,596.8039575,nan,nan
0,274,21:46:42:125000,6,1,473,332.578125,[ 0.52259481  0.34939617 -1.        ],1,1,1,0.551698931,0,0,0,0.450853345,0.402227313,0.104257786,0.506485099,0.297969527,nan,nan,nan,[ nan  nan  nan],nan,nan,nan,278.6513398,597.4682125,598.0199114,nan,nan
0,275,21:46:43:061000,6,0,100,70.3125,[ 1.         -0.27042709 -0.4574399 ],0,1,0,0.337908654,0,0,0,0.38905312,0.402776841,0.104458416,0.507235258,0.298318425,nan,nan,nan,[ nan  nan  nan],nan,nan,nan,278.6513398,598.4100061,598.7479147,nan,nan
0,276,21:46:44:012000,6,1,44,30.9375,[ 1.         -0.00106984 -1.        ],1,1,1,0.372048363,0,0,0,0.420551983,0.402539229,0.104340542,0.506879771,0.298198687,nan,nan,nan,[ nan  nan  nan],nan,nan,nan,278.6513398,599.3517983,599.7238466,nan,nan
0,277,21:46:44:948000,6,1,491,345.234375,[ 0.67303348  0.29270771 -1.        ],1,1,1,0.342256942,0,0,0,0.350737986,0.402427948,0.104166194,0.506594142,0.298261754,nan,nan,nan,[ nan  nan  nan],nan,nan,nan,278.6513398,600.2935864,600.6358434,nan,nan
0,278,21:46:45:900000,6,1,137,96.328125,[ 1.         -0.30019022 -0.06473166],1,1,1,0.488439488,0,0,0,0.400914931,0.402209145,0.10403969,0.506248834,0.298169455,nan,nan,nan,[ nan  nan  nan],nan,nan,nan,278.6513398,601.2353698,601.7238093,nan,nan
0,279,21:46:46:836000,6,1,210,147.65625,[ 0.9580225   0.0359305   0.53342186],1,1,1,0.306650412,0,0,0,0.379115614,0.402521573,0.1039802,0.506501773,0.298541374,nan,nan,nan,[ nan  nan  nan],nan,nan,nan,278.6513398,602.1771719,602.4838224,nan,nan
0,280,21:46:47:772000,6,1,104,73.125,[ 1.         -0.28235148 -0.41264457],1,1,1,0.276858992,0,0,0,0.357316297,0.402175468,0.103951487,0.506126955,0.298223982,nan,nan,nan,[ nan  nan  nan],nan,nan,nan,278.6513398,603.1189541,603.3958131,nan,nan
0,281,21:46:48:724000,6,1,255,179.296875,[ 0.49215936  0.25301719  0.65616311],1,1,1,0.279037697,0,1,0,0.2875157,0.40172469,0.104035226,0.505759915,0.297689464,nan,nan,nan,[ nan  nan  nan],nan,nan,nan,278.6513398,604.060754,604.3397917,nan,nan
0,282,21:46:54:433000,6,1,113,79.453125,[ 1.         -0.30219199 -0.31457635],1,1,1,0.257235815,1,0,0,0.271044168,0.401284951,0.104107116,0.505392068,0.297177835,nan,-14.11505467,148,[ 1.         -0.27269559  0.04442646],nan,24.66192967,2.72570602,278.6513398,605.0025368,605.2597726,606.8277294,609.5614837
0,283,21:46:55:369000,6,1,78,54.84375,[ 1.         -0.17946765 -0.73990763],1,1,1,0.659933738,0,0,0,0.39873575,0.40077049,0.104275724,0.505046214,0.296494766,nan,nan,nan,[ nan  nan  nan],nan,nan,nan,278.6513398,610.7116451,611.3715788,nan,nan
0,284,21:46:56:305000,6,1,509,357.890625,[ 0.82238638  0.224555   -1.        ],1,1,1,0.758141138,0,0,0,0.558436897,0.401692779,0.105227867,0.506920646,0.296464913,nan,nan,nan,[ nan  nan  nan],nan,nan,nan,278.6513398,611.6534258,612.411567,nan,nan
0,285,21:46:57:257000,6,1,116,81.5625,[ 1.         -0.30644692 -0.28251544],1,1,1,0.656301041,0,0,1,0.691458639,0.40295678,0.107156856,0.510113636,0.295799925,nan,nan,nan,[ nan  nan  nan],nan,nan,nan,278.6513398,612.5952309,613.2515319,nan,nan
0,286,21:46:58:193000,6,1,161,113.203125,[ 1.         -0.22315835  0.16749055],1,nan,nan,nan,0,0,0,0.70722109,0.40385199,0.108018572,0.511870562,0.295833417,nan,nan,nan,[ nan  nan  nan],nan,nan,nan,278.6513398,613.5370216,nan,nan,nan
0,287,21:46:59:144000,6,1,503,353.671875,[ 0.7730202   0.24853846 -1.        ],1,1,1,0.636715782,0,0,0,0.646508412,0.40385199,0.108018572,0.511870562,0.295833417,nan,nan,nan,[ nan  nan  nan],nan,nan,nan,278.6513398,614.4788129,615.1155287,nan,nan
0,288,21:47:00:080000,6,1,250,175.78125,[ 0.54642845  0.23228666  0.65474773],1,nan,nan,nan,0,0,0,0.636715782,0.404671933,0.1087069,0.513378833,0.295965033,nan,nan,nan,[ nan  nan  nan],nan,nan,nan,278.6513398,615.4206051,nan,nan,nan
0,289,21:47:01:017000,6,1,294,206.71875,[ 0.0948762   0.38121213  0.55985823],1,nan,nan,nan,0,0,0,0.636715782,0.404671933,0.1087069,0.513378833,0.295965033,nan,nan,nan,[ nan  nan  nan],nan,nan,nan,278.6513398,616.3623708,nan,nan,nan
0,290,21:47:01:969000,6,0,488,343.125,[ 0.64790771  0.30295149 -1.        ],0,0,1,0.539255049,0,0,0,0.539255049,0.404671933,0.1087069,0.513378833,0.295965033,nan,nan,nan,[ nan  nan  nan],nan,nan,nan,278.6513398,617.3041912,617.8434462,nan,nan
0,291,21:47:02:905000,6,1,74,52.03125,[ 1.         -0.15971516 -0.81044328],1,1,1,0.357474241,0,0,0,0.448364645,0.405144154,0.108807428,0.513951582,0.296336726,nan,nan,nan,[ nan  nan  nan],nan,nan,nan,278.6513398,618.2459845,618.6034587,nan,nan
0,292,21:47:03:841000,6,1,133,93.515625,[ 1.         -0.30625957 -0.10533643],1,nan,nan,nan,0,0,0,0.448364645,0.404977476,0.10865348,0.513630957,0.296323996,nan,nan,nan,[ nan  nan  nan],nan,nan,nan,278.6513398,619.1877812,nan,nan,nan
0,293,21:47:04:793000,6,1,337,236.953125,[-0.16064337  0.45785839  0.25930356],1,1,1,0.137871705,0,0,0,0.247672973,0.404977476,0.10865348,0.513630957,0.296323996,nan,nan,nan,[ nan  nan  nan],nan,nan,nan,278.6513398,620.1295726,620.2674443,nan,nan
0,294,21:47:05:729000,6,1,483,339.609375,[ 0.60602571  0.31931445 -1.        ],1,nan,nan,nan,0,0,0,0.137871705,0.404046794,0.10960004,0.513646834,0.294446754,nan,nan,nan,[ nan  nan  nan],nan,nan,nan,278.6513398,621.0713596,nan,nan,nan
0,295,21:47:06:681000,6,1,76,53.4375,[ 1.         -0.16967451 -0.77336583],1,1,1,0.102254342,0,0,0,0.120063023,0.404046794,0.10960004,0.513646834,0.294446754,nan,nan,nan,[ nan  nan  nan],nan,nan,nan,278.6513398,622.01316,622.1154144,nan,nan
0,296,21:47:07:617000,6,1,238,167.34375,[ 0.67574183  0.17872767  0.63851109],1,1,1,0.256369977,0,0,0,0.17931216,0.402998904,0.110840458,0.513839362,0.292158445,nan,nan,nan,[ nan  nan  nan],nan,nan,nan,278.6513398,622.9549479,623.2113179,nan,nan
0,297,21:47:08:553000,6,1,194,136.40625,[ 1.         -0.05248646  0.4355717 ],1,1,1,0.290563,0,1,0,0.216395773,0.402491537,0.110983033,0.51347457,0.291508504,nan,nan,nan,[ nan  nan  nan],nan,nan,nan,278.6513398,623.896741,624.187304,nan,nan
0,298,21:47:12:406000,6,1,417,293.203125,[ 0.0945046   0.45705356 -0.6457202 ],1,1,1,0.316771045,1,0,0,0.287901341,0.402105577,0.110985636,0.513091213,0.29111994,nan,167.0870592,402,[ 0.00072492  0.47013996 -0.43781156],nan,-10.29018425,0.858725956,278.6513398,624.8385326,625.1553036,626.6720475,627.5389383
0,299,21:47:13:342000,6,1,280,196.875,[ 0.22808935  0.34201885  0.61587222],1,1,1,0.306176012,0,0,0,0.304503352,0.401812331,0.11090726,0.51271959,0.290905071,nan,nan,nan,[ nan  nan  nan],nan,nan,nan,278.6513398,628.6890441,628.9952201,nan,nan
0,300,21:47:14:294000,6,1,138,97.03125,[ 1.         -0.29832988 -0.05465081],1,1,1,0.284321387,0,0,0,0.302422815,0.401484809,0.110858068,0.512342877,0.290626741,nan,nan,nan,[ nan  nan  nan],nan,nan,nan,278.6513398,629.6308348,629.9151562,nan,nan
0,301,21:47:15:230000,6,1,217,152.578125,[ 0.89125041  0.07353733  0.56804835],1,1,1,0.294544084,0,0,0,0.295013828,0.401084934,0.110879477,0.511964411,0.290205457,nan,nan,nan,[ nan  nan  nan],nan,nan,nan,278.6513398,630.5726244,630.8671685,nan,nan
0,302,21:47:16:166000,6,1,506,355.78125,[ 0.79777474  0.23670313 -1.        ],1,1,1,0.328721426,0,0,0,0.302528966,0.40072255,0.110864415,0.511586965,0.289858135,nan,nan,nan,[ nan  nan  nan],nan,nan,nan,278.6513398,631.51443,631.8431514,nan,nan
0,303,21:47:17:119000,6,1,330,232.03125,[-0.13976633  0.44951833  0.31954025],1,1,1,0.27488584,0,0,0,0.299383783,0.400478479,0.110755443,0.511233922,0.289723035,nan,nan,nan,[ nan  nan  nan],nan,nan,nan,278.6513398,632.4562333,632.7311191,nan,nan
0,304,21:47:18:055000,6,1,505,355.078125,[ 0.78953796  0.24068314 -1.        ],1,1,1,0.277097617,0,0,0,0.293568295,0.400054179,0.110808101,0.51086228,0.289246078,nan,nan,nan,[ nan  nan  nan],nan,nan,nan,278.6513398,633.3980032,633.6751009,nan,nan
0,305,21:47:19:006000,6,1,89,62.578125,[ 1.         -0.2294841  -0.58737049],1,1,1,0.279269766,0,1,0,0.277084408,0.399640184,0.110850466,0.51049065,0.288789718,nan,nan,nan,[ nan  nan  nan],nan,nan,nan,278.6513398,634.339796,634.6190658,nan,nan
0,306,21:47:23:343000,6,0,424,298.125,[ 0.14217456  0.44881957 -0.77022942],0,0,1,0.425435207,1,0,0,0.32726753,0.399236256,0.110883043,0.510119299,0.288353213,nan,163.0609144,408,[ 0.03673793  0.46563766 -0.51593845],nan,-11.18591437,1.350461158,278.6513398,635.2815933,635.7070285,637.1067825,638.4652865
0,307,21:47:24:279000,6,1,297,208.828125,[ 0.06862621  0.38864628  0.54490466],1,1,1,0.123146767,0,0,0,0.27595058,0.399323878,0.110707798,0.510031676,0.28861608,nan,nan,nan,[ nan  nan  nan],nan,nan,nan,278.6513398,639.6238331,639.7469799,nan,nan
0,308,21:47:25:231000,6,1,180,126.5625,[ 1.         -0.12927862  0.33123896],1,1,1,0.277314575,0,0,0,0.27529885,0.398403288,0.111663607,0.510066894,0.286739681,nan,nan,nan,[ nan  nan  nan],nan,nan,nan,278.6513398,640.5656302,640.8429447,nan,nan
0,309,21:47:26:167000,6,1,296,208.125,[ 0.07727136  0.38620532  0.55000131],1,1,1,0.343487988,0,1,0,0.24798311,0.398001,0.111695511,0.509696511,0.286305488,nan,nan,nan,[ nan  nan  nan],nan,nan,nan,278.6513398,641.5074221,641.85091,nan,nan
0,310,21:47:31:252000,6,1,391,274.921875,[-0.0591908   0.47591628 -0.30371871],1,1,1,0.321680118,1,0,0,0.314160894,0.397820493,0.111554398,0.509374891,0.286266095,nan,-177.4362298,380,[-0.10951951  0.47853303 -0.17717739],nan,-7.485645211,2.100573414,278.6513398,642.4492154,642.7708955,644.2743943,646.3830112
0,311,21:47:32:188000,6,1,10,7.03125,[ 0.9268115   0.16840058 -1.        ],1,1,1,0.325516088,0,0,0,0.330228065,0.397569205,0.111455746,0.50902495,0.286113459,nan,nan,nan,[ nan  nan  nan],nan,nan,nan,278.6513398,647.5332666,647.8587827,nan,nan
0,312,21:47:33:140000,6,1,461,324.140625,[ 0.42395965  0.38092737 -1.        ],1,1,1,0.33572168,0,0,0,0.327639295,0.397332188,0.111348739,0.508680927,0.285983449,nan,nan,nan,[ nan  nan  nan],nan,nan,nan,278.6513398,648.4750345,648.8107562,nan,nan
0,313,21:47:34:076000,6,1,192,135,[ 1.         -0.06359976  0.42165841],1,1,1,0.313880739,0,0,0,0.325039502,0.397130186,0.11122183,0.508352016,0.285908356,nan,nan,nan,[ nan  nan  nan],nan,nan,nan,278.6513398,649.4168113,649.7306921,nan,nan
0,314,21:47:35:012000,6,1,51,35.859375,[ 1.         -0.03851602 -1.        ],1,1,1,0.396084545,0,0,0,0.348562321,0.396858129,0.11114155,0.50799968,0.285716579,nan,nan,nan,[ nan  nan  nan],nan,nan,nan,278.6513398,650.3585893,650.7546738,nan,nan
0,315,21:47:35:963000,6,1,3,2.109375,[ 0.87108718  0.19933511 -1.        ],1,1,1,0.326294116,0,0,0,0.3454198,0.396855609,0.110960399,0.507816009,0.28589521,nan,nan,nan,[ nan  nan  nan],nan,nan,nan,278.6513398,651.3003968,651.6266909,nan,nan
0,316,21:47:36:899000,6,1,417,293.203125,[ 0.0945046   0.45705356 -0.6457202 ],1,1,1,0.304468,0,0,0,0.34228222,0.396626514,0.110852823,0.507479337,0.285773691,nan,nan,nan,[ nan  nan  nan],nan,nan,nan,278.6513398,652.2421887,652.5466567,nan,nan
0,317,21:47:37:852000,6,1,503,353.671875,[ 0.7730202   0.24853846 -1.        ],1,1,1,0.282675811,0,0,0,0.304479309,0.396328266,0.11079701,0.507125276,0.285531257,nan,nan,nan,[ nan  nan  nan],nan,nan,nan,278.6513398,653.1839798,653.4666556,nan,nan
0,318,21:47:38:788000,6,1,0,0,[ 0.84683171  0.21209757 -1.        ],1,1,1,0.364506141,0,0,0,0.317216651,0.395961645,0.110805732,0.506767378,0.285155913,nan,nan,nan,[ nan  nan  nan],nan,nan,nan,278.6513398,654.1340985,654.4986046,nan,nan
0,319,21:47:39:740000,6,1,218,153.28125,[ 0.88146739  0.07882461  0.57255963],1,1,1,0.342715092,0,0,0,0.329965681,0.395860502,0.110641777,0.506502279,0.285218725,nan,nan,nan,[ nan  nan  nan],nan,nan,nan,278.6513398,655.0758975,655.4186126,nan,nan
0,320,21:47:40:676000,6,1,318,223.59375,[-0.08356276  0.43164026  0.41348156],1,1,1,0.328884786,0,0,0,0.345368673,0.395690164,0.110505161,0.506195325,0.285185004,nan,nan,nan,[ nan  nan  nan],nan,nan,nan,278.6513398,656.0176934,656.3465781,nan,nan
0,321,21:47:41:612000,6,1,65,45.703125,[ 1.         -0.11331216 -1.        ],1,1,1,0.275070868,0,0,0,0.315556915,0.395476729,0.110392888,0.505869616,0.285083841,nan,nan,nan,[ nan  nan  nan],nan,nan,nan,278.6513398,656.9594821,657.234553,nan,nan
0,322,21:47:42:563000,6,0,108,75.9375,[ 1.         -0.29242661 -0.36866329],0,1,0,0.277222489,0,0,0,0.293726048,0.39509327,0.110425551,0.505518822,0.284667719,nan,nan,nan,[ nan  nan  nan],nan,nan,nan,278.6513398,657.9013131,658.1785356,nan,nan
0,323,21:47:43:499000,6,1,326,229.21875,[-0.12383419  0.44407177  0.35222354],1,1,1,0.535454146,0,0,0,0.362582501,0.394719077,0.110449347,0.505168425,0.28426973,nan,nan,nan,[ nan  nan  nan],nan,nan,nan,278.6513398,658.8430505,659.3785047,nan,nan
0,324,21:47:44:451000,6,1,444,312.1875,[ 0.2892412   0.41740978 -1.        ],1,1,1,0.433628874,0,0,0,0.41543517,0.395164442,0.110557377,0.505721819,0.284607064,nan,nan,nan,[ nan  nan  nan],nan,nan,nan,278.6513398,659.7848618,660.2184907,nan,nan
0,325,21:47:45:387000,6,1,218,153.28125,[ 0.88146739  0.07882461  0.57255963],1,1,1,0.467806786,0,0,0,0.478963268,0.395285781,0.110403931,0.505689712,0.284881849,nan,nan,nan,[ nan  nan  nan],nan,nan,nan,278.6513398,660.7266585,661.1944653,nan,nan
0,326,21:47:46:323000,6,1,108,75.9375,[ 1.         -0.29242661 -0.36866329],1,1,1,0.429991045,0,0,0,0.443808902,0.395513834,0.110304961,0.505818795,0.285208873,nan,nan,nan,[ nan  nan  nan],nan,nan,nan,278.6513398,661.668447,662.098438,nan,nan
0,327,21:47:47:274000,6,1,189,132.890625,[ 1.         -0.08021946  0.40014347],1,1,1,0.37618568,0,0,0,0.42466117,0.395621913,0.110148797,0.50577071,0.285473116,nan,nan,nan,[ nan  nan  nan],nan,nan,nan,278.6513398,662.6102412,662.9864269,nan,nan
0,328,21:47:48:210000,6,0,502,352.96875,[ 0.76474094  0.25241358 -1.        ],0,0,1,0.466375602,0,0,0,0.424184109,0.395561175,0.109981905,0.505543079,0.28557927,nan,nan,nan,[ nan  nan  nan],nan,nan,nan,278.6513398,663.5520291,664.0184047,nan,nan
0,329,21:47:49:146000,6,1,97,68.203125,[ 1.         -0.26036974 -0.49171883],1,1,1,0.268579226,0,0,0,0.370380169,0.39578178,0.109881347,0.505663128,0.285900433,nan,nan,nan,[ nan  nan  nan],nan,nan,nan,278.6513398,664.4938167,664.7623959,nan,nan
0,330,21:47:50:098000,6,1,390,274.21875,[-0.06419603  0.4762842  -0.29194755],1,1,1,0.358726099,0,0,0,0.364560309,0.395386741,0.109938654,0.505325396,0.285448087,nan,nan,nan,[ nan  nan  nan],nan,nan,nan,278.6513398,665.4356351,665.7943612,nan,nan
0,331,21:47:51:034000,6,1,509,357.890625,[ 0.82238638  0.224555   -1.        ],1,1,1,0.34493086,0,0,0,0.324078728,0.395273241,0.109787232,0.505060473,0.285486009,nan,nan,nan,[ nan  nan  nan],nan,nan,nan,278.6513398,666.3774028,666.7223336,nan,nan
0,332,21:47:51:986000,6,1,156,109.6875,[ 1.         -0.24406061  0.12104147],1,1,1,0.315115206,0,0,0,0.339590722,0.395117863,0.109653239,0.504771103,0.285464624,nan,nan,nan,[ nan  nan  nan],nan,nan,nan,278.6513398,667.3192004,667.6343156,nan,nan
0,333,21:47:52:922000,6,1,26,18.28125,[ 1.          0.09209217 -1.        ],1,1,1,0.365296998,0,0,0,0.341781021,0.394871701,0.109574037,0.504445738,0.285297665,nan,nan,nan,[ nan  nan  nan],nan,nan,nan,278.6513398,668.2609905,668.6262875,nan,nan
0,334,21:47:53:858000,6,1,107,75.234375,[ 1.         -0.29008977 -0.37959278],1,1,1,0.551485394,0,0,0,0.410632533,0.394780981,0.109418073,0.504199054,0.285362909,nan,nan,nan,[ nan  nan  nan],nan,nan,nan,278.6513398,669.2027833,669.7542687,nan,nan
0,335,21:47:54:809000,6,1,2,1.40625,[ 0.86302458  0.20362286 -1.        ],1,1,1,0.393671775,0,0,0,0.436818056,0.3952602,0.109592737,0.504852937,0.285667462,nan,nan,nan,[ nan  nan  nan],nan,nan,nan,278.6513398,670.1445792,670.5382509,nan,nan
0,336,21:47:55:745000,6,1,464,326.25,[ 0.44840488  0.37350356 -1.        ],1,1,1,0.707850725,0,0,1,0.551002631,0.395255357,0.109425583,0.50468094,0.285829774,nan,nan,nan,[ nan  nan  nan],nan,nan,nan,278.6513398,671.0863674,671.7942181,nan,nan
0,337,21:48:00:706000,6,0,511,359.296875,[ 0.83870319  0.21628417 -1.        ],0,0,1,0.502038581,1,0,0,0.53452036,0.396205495,0.110605918,0.506811413,0.285599577,nan,93.54236119,507,[ 0.80599565  0.23268835 -1.        ],nan,-2.839236192,1.9755567,278.6513398,672.0281615,672.5302001,673.8450382,675.8286301
0,338,21:48:01:642000,6,1,92,64.6875,[ 1.         -0.24170366 -0.55060884],1,1,1,0.398903862,0,0,0,0.536264389,0.396526201,0.110591301,0.507117502,0.2859349,nan,nan,nan,[ nan  nan  nan],nan,nan,nan,278.6513398,676.9871553,677.3860591,nan,nan
0,339,21:48:02:594000,6,1,336,236.25,[-0.15821161  0.45675811  0.26813527],1,1,1,0.337118367,0,0,0,0.412686936,0.396533384,0.110424195,0.50695758,0.286109189,nan,nan,nan,[ nan  nan  nan],nan,nan,nan,278.6513398,677.9289497,678.2660681,nan,nan
0,340,21:48:03:530000,6,1,173,121.640625,[ 1.         -0.16590952  0.27353519],1,1,1,0.275304362,0,0,0,0.337108863,0.396354424,0.110305831,0.506660255,0.286048592,nan,nan,nan,[ nan  nan  nan],nan,nan,nan,278.6513398,678.8707408,679.1460451,nan,nan
0,341,21:48:04:466000,6,1,257,180.703125,[ 0.4704729   0.26103985  0.65584138],1,1,1,0.309591751,0,0,0,0.30733816,0.39599091,0.110339064,0.506329974,0.285651846,nan,nan,nan,[ nan  nan  nan],nan,nan,nan,278.6513398,679.8125358,680.1221275,nan,nan
0,342,21:48:05:417000,6,1,465,326.953125,[ 0.45658868  0.37096153 -1.        ],1,1,1,0.439668638,0,0,0,0.341521583,0.39573223,0.110274841,0.506007071,0.285457389,nan,nan,nan,[ nan  nan  nan],nan,nan,nan,278.6513398,680.7543294,681.193998,nan,nan
0,343,21:48:06:353000,6,1,332,233.4375,[-0.14664709  0.45205424  0.30271419],1,1,1,0.513848979,0,0,0,0.421036456,0.395863383,0.110136214,0.505999597,0.285727169,nan,nan,nan,[ nan  nan  nan],nan,nan,nan,278.6513398,681.6961173,682.2099663,nan,nan
0,344,21:48:07:305000,6,1,448,315,[ 0.32026744  0.40966225 -1.        ],1,1,1,0.372045226,0,0,0,0.441854281,0.396214531,0.110159846,0.506374376,0.286054685,nan,nan,nan,[ nan  nan  nan],nan,nan,nan,278.6513398,682.6379169,683.0099621,nan,nan
0,345,21:48:08:241000,6,1,122,85.78125,[ 1.         -0.31115954 -0.21914422],1,1,1,0.462228877,0,0,0,0.449374361,0.396142812,0.110004138,0.50614695,0.286138674,nan,nan,nan,[ nan  nan  nan],nan,nan,nan,278.6513398,683.5797019,684.0419308,nan,nan
0,346,21:48:09:177000,6,1,0,0,[ 0.84683171  0.21209757 -1.        ],1,1,1,0.336434135,0,0,0,0.39023608,0.396338333,0.109899917,0.50623825,0.286438415,nan,nan,nan,[ nan  nan  nan],nan,nan,nan,278.6513398,684.5214836,684.8579177,nan,nan
0,347,21:48:10:129000,6,1,347,243.984375,[-0.17493884  0.46723881  0.16715748],1,1,1,0.202620206,0,0,0,0.333761073,0.396161624,0.109785782,0.505947406,0.286375842,nan,nan,nan,[ nan  nan  nan],nan,nan,nan,278.6513398,685.4632906,685.6659108,nan,nan
0,348,21:48:11:065000,6,1,18,12.65625,[ 0.9886827   0.13116258 -1.        ],1,1,1,0.244803906,0,1,0,0.261286083,0.395592385,0.110124091,0.505716476,0.285468293,nan,nan,nan,[ nan  nan  nan],nan,nan,nan,278.6513398,686.405079,686.649883,nan,nan
0,349,21:48:12:001000,6,0,61,42.890625,[ 1.        -0.0921164 -1.       ],0,1,0,0.230992417,0,0,0,0.226138843,0.39515019,0.110264382,0.505414572,0.284885808,nan,nan,nan,[ nan  nan  nan],nan,nan,nan,278.6513398,687.3468684,687.5778608,nan,nan
0,350,21:48:12:952000,6,1,396,278.4375,[-0.03301537  0.47368488 -0.36352378],1,1,1,0.377161279,0,0,0,0.284319201,0.394670196,0.110459258,0.505129455,0.284210938,nan,nan,nan,[ nan  nan  nan],nan,nan,nan,278.6513398,688.2886577,688.665819,nan,nan
0,351,21:48:13:888000,6,1,281,197.578125,[ 0.2180834   0.34506839  0.61264442],1,1,1,0.363328693,0,0,0,0.323827463,0.39461915,0.110302161,0.504921311,0.284316989,nan,nan,nan,[ nan  nan  nan],nan,nan,nan,278.6513398,689.230463,689.5937917,nan,nan
0,352,21:48:14:840000,6,1,480,337.5,[ 0.58092807  0.32870764 -1.        ],1,1,1,0.325560278,0,0,0,0.355350084,0.394528189,0.110154604,0.504682793,0.284373585,nan,nan,nan,[ nan  nan  nan],nan,nan,nan,278.6513398,690.1722155,690.4977758,nan,nan
0,353,21:48:15:776000,6,1,67,47.109375,[ 1.         -0.12380467 -1.        ],1,1,1,0.271763181,0,0,0,0.320217384,0.394328282,0.110057316,0.504385599,0.284270966,nan,nan,nan,[ nan  nan  nan],nan,nan,nan,278.6513398,691.1140006,691.3857638,nan,nan
0,354,21:48:16:712000,6,1,125,87.890625,[ 1.         -0.31156743 -0.18780506],1,1,1,0.369912136,0,0,0,0.322411865,0.393974048,0.110094944,0.504068992,0.283879104,nan,nan,nan,[ nan  nan  nan],nan,nan,nan,278.6513398,692.0558267,692.4257388,nan,nan
0,355,21:48:17:663000,6,1,43,30.234375,[ 1.          0.00424534 -1.        ],1,1,1,0.340100759,0,0,0,0.327258692,0.393904705,0.109943757,0.503848463,0.283960948,nan,nan,nan,[ nan  nan  nan],nan,nan,nan,278.6513398,692.9976254,693.3377262,nan,nan
0,356,21:48:18:599000,6,1,359,252.421875,[-0.16922234  0.47474188  0.0483828 ],1,1,1,0.334289641,0,0,0,0.348100845,0.393750096,0.109823449,0.503573545,0.283926647,nan,nan,nan,[ nan  nan  nan],nan,nan,nan,278.6513398,693.9394145,694.2737041,nan,nan
0,357,21:48:19:535000,6,1,84,59.0625,[ 1.         -0.20765784 -0.65219109],1,1,1,0.38444777,0,0,0,0.352946057,0.393579722,0.109712042,0.503291764,0.283867681,nan,nan,nan,[ nan  nan  nan],nan,nan,nan,278.6513398,694.8812346,695.2656824,nan,nan
0,358,21:48:20:487000,6,1,220,154.6875,[ 0.86173155  0.08932726  0.58124768],1,1,1,0.386648428,0,0,0,0.368461946,0.393553631,0.109556282,0.503109913,0.283997349,nan,nan,nan,[ nan  nan  nan],nan,nan,nan,278.6513398,695.823,696.2096484,nan,nan
0,359,21:48:21:423000,6,1,81,56.953125,[ 1.         -0.19380425 -0.69421917],1,1,1,0.364843979,0,0,0,0.378646726,0.393533958,0.109400727,0.502934685,0.284133231,nan,nan,nan,[ nan  nan  nan],nan,nan,nan,278.6513398,696.7647916,697.1296356,nan,nan
0,360,21:48:22:375000,6,0,230,161.71875,[ 0.76002313  0.14022421  0.6178111 ],0,0,1,0.487024841,0,0,0,0.412839083,0.393452452,0.109255889,0.502708342,0.284196563,nan,nan,nan,[ nan  nan  nan],nan,nan,nan,278.6513398,697.7065875,698.1936123,nan,nan
0,361,21:48:23:311000,6,1,375,263.671875,[-0.1285567   0.47868243 -0.12160516],1,1,1,0.441207018,0,0,0,0.431025279,0.39371753,0.10921432,0.50293185,0.28450321,nan,nan,nan,[ nan  nan  nan],nan,nan,nan,278.6513398,698.6483788,699.0895858,nan,nan
0,362,21:48:24:247000,6,1,467,328.359375,[ 0.47300519  0.36577567 -1.        ],1,1,1,0.347384684,0,0,0,0.425205514,0.393851681,0.109089074,0.502940755,0.284762607,nan,nan,nan,[ nan  nan  nan],nan,nan,nan,278.6513398,699.5901701,699.9375548,nan,nan
0,363,21:48:25:198000,6,1,28,19.6875,[ 1.          0.08206613 -1.        ],1,1,1,0.277580285,0,0,0,0.355390662,0.393720788,0.108963154,0.502683942,0.284757635,nan,nan,nan,[ nan  nan  nan],nan,nan,nan,278.6513398,700.5319594,700.8095397,nan,nan
0,364,21:48:26:134000,6,1,412,289.6875,[ 0.06188912  0.46209661 -0.57115894],1,1,1,0.263773073,0,0,0,0.296246014,0.393394551,0.108983488,0.502378039,0.284411062,nan,nan,nan,[ nan  nan  nan],nan,nan,nan,278.6513398,701.4737479,701.737521,nan,nan
0,365,21:48:27:070000,6,1,15,10.546875,[ 0.96573443  0.14535278 -1.        ],1,1,1,0.257959104,0,1,0,0.266437487,0.393031465,0.109046149,0.502077614,0.283985317,nan,nan,nan,[ nan  nan  nan],nan,nan,nan,278.6513398,702.4155444,702.6735035,nan,nan
0,366,21:48:32:764000,6,1,388,272.8125,[-0.07396337  0.47694192 -0.26857716],1,1,1,0.30014366,1,0,0,0.273958612,0.392654168,0.109126841,0.501781009,0.283527328,nan,-168.366366,367,[-0.15309091  0.4775609  -0.03508163],nan,-14.446134,2.684017816,278.6513398,703.3573354,703.6574791,705.1908583,707.882903
0,367,21:48:33:700000,6,1,85,59.765625,[ 1.         -0.21215645 -0.63878123],1,1,1,0.30393316,0,0,0,0.287345308,0.392396479,0.109083767,0.501480246,0.283312712,nan,nan,nan,[ nan  nan  nan],nan,nan,nan,278.6513398,709.0414179,709.3453511,nan,nan
0,368,21:48:34:652000,6,1,373,262.265625,[-0.13540771  0.47855957 -0.09969749],1,1,1,0.290007917,0,0,0,0.298028246,0.392150747,0.109031612,0.50118236,0.283119135,nan,nan,nan,[ nan  nan  nan],nan,nan,nan,278.6513398,709.983321,710.2733289,nan,nan
0,369,21:48:35:588000,6,1,290,203.90625,[ 0.13126538  0.37077654  0.57820662],1,1,1,0.300288489,0,0,0,0.298076522,0.391867803,0.109012764,0.500880567,0.28285504,nan,nan,nan,[ nan  nan  nan],nan,nan,nan,278.6513398,710.9250194,711.2253079,nan,nan
0,370,21:48:36:524000,6,1,505,355.078125,[ 0.78953796  0.24068314 -1.        ],1,1,1,0.254497465,0,1,0,0.281597957,0.391614822,0.108968153,0.500582975,0.282646669,nan,nan,nan,[ nan  nan  nan],nan,nan,nan,278.6513398,711.8668062,712.1213036,nan,nan
0,371,21:48:37:475000,6,0,341,239.765625,[-0.16853588  0.4619615   0.22326011],0,1,0,0.272688888,0,0,0,0.275824947,0.391237088,0.109055026,0.500292114,0.282182062,nan,nan,nan,[ nan  nan  nan],nan,nan,nan,278.6513398,712.8085772,713.0812661,nan,nan
0,372,21:48:38:411000,6,1,19,13.359375,[ 0.99625917  0.12637453 -1.        ],1,1,1,0.362863701,0,0,0,0.296683351,0.390911406,0.109081752,0.499993158,0.281829654,nan,nan,nan,[ nan  nan  nan],nan,nan,nan,278.6513398,713.7503845,714.1132482,nan,nan
0,373,21:48:39:347000,6,1,317,222.890625,[-0.07777284  0.42993861  0.42073361],1,1,1,0.357038614,0,0,0,0.330863734,0.390834563,0.108942087,0.49977665,0.281892476,nan,nan,nan,[ nan  nan  nan],nan,nan,nan,278.6513398,714.6921807,715.0492193,nan,nan
0,374,21:48:40:299000,6,1,49,34.453125,[ 1.         -0.02778543 -1.        ],1,1,1,0.28721711,0,0,0,0.335706475,0.390742224,0.10880746,0.499549684,0.281934765,nan,nan,nan,[ nan  nan  nan],nan,nan,nan,278.6513398,715.6339752,715.9211923,nan,nan
0,375,21:48:41:235000,6,1,465,326.953125,[ 0.45658868  0.37096153 -1.        ],1,1,1,0.337416007,0,0,0,0.32722391,0.39046014,0.108793049,0.499253189,0.281667091,nan,nan,nan,[ nan  nan  nan],nan,nan,nan,278.6513398,716.5757625,716.9131785,nan,nan
0,376,21:48:42:171000,6,0,17,11.953125,[ 0.98106915  0.13592191 -1.        ],0,0,1,0.531567143,0,0,0,0.385400087,0.390315998,0.108680218,0.498996216,0.28163578,nan,nan,nan,[ nan  nan  nan],nan,nan,nan,278.6513398,717.5175786,718.0491458,nan,nan
0,377,21:48:43:123000,6,1,184,129.375,[ 1.         -0.10767189  0.36264005],1,1,1,0.429785206,0,0,0,0.432922785,0.390698792,0.108780992,0.499479784,0.281917801,nan,nan,nan,[ nan  nan  nan],nan,nan,nan,278.6513398,718.4593523,718.8891375,nan,nan
0,378,21:48:44:059000,6,1,259,182.109375,[ 0.44882283  0.26890698  0.65501178],1,1,1,0.391964904,0,0,0,0.451105751,0.390804431,0.108652843,0.499457274,0.282151589,nan,nan,nan,[ nan  nan  nan],nan,nan,nan,278.6513398,719.4011402,719.7931051,nan,nan
0,379,21:48:45:010000,6,1,364,255.9375,[-0.16019432  0.47670452 -0.00341125],1,1,1,0.322155088,0,0,0,0.381301732,0.390807559,0.108506328,0.499313887,0.282301231,nan,nan,nan,[ nan  nan  nan],nan,nan,nan,278.6513398,720.3429289,720.665084,nan,nan
0,380,21:48:45:946000,6,1,292,205.3125,[ 0.11288167  0.37606958  0.56926185],1,1,1,0.38834247,0,0,0,0.367487487,0.39062301,0.108418677,0.499041686,0.282204333,nan,nan,nan,[ nan  nan  nan],nan,nan,nan,278.6513398,721.2847254,721.6730678,nan,nan
0,381,21:48:46:882000,6,1,506,355.78125,[ 0.79777474  0.23670313 -1.        ],1,1,1,0.46251939,0,0,0,0.391005649,0.390616896,0.10827331,0.498890206,0.282343586,nan,nan,nan,[ nan  nan  nan],nan,nan,nan,278.6513398,722.2265204,722.6890398,nan,nan
0,382,21:48:47:834000,6,1,325,228.515625,[-0.1194049   0.44263104  0.36018642],1,1,1,0.392709575,0,0,0,0.414523812,0.390809148,0.108192194,0.499001343,0.282616954,nan,nan,nan,[ nan  nan  nan],nan,nan,nan,278.6513398,723.1683089,723.5610184,nan,nan
0,383,21:48:48:770000,6,1,102,71.71875,[ 1.         -0.27661034 -0.43492695],1,1,1,0.370898569,0,0,0,0.408709178,0.390814216,0.108047886,0.498862102,0.28276633,nan,nan,nan,[ nan  nan  nan],nan,nan,nan,278.6513398,724.1101042,724.4810028,nan,nan
0,384,21:48:49:706000,6,0,391,274.921875,[-0.0591908   0.47591628 -0.30371871],0,0,1,0.501049012,0,0,0,0.421552385,0.390761249,0.107908985,0.498670234,0.282852264,nan,nan,nan,[ nan  nan  nan],nan,nan,nan,278.6513398,725.0519118,725.5529608,nan,nan
0,385,21:48:50:657000,6,1,203,142.734375,[ 1.         -0.00249325  0.49367467],1,1,1,0.351270546,0,0,0,0.407739376,0.391053789,0.107914967,0.498968757,0.283138822,nan,nan,nan,[ nan  nan  nan],nan,nan,nan,278.6513398,725.9936863,726.3449568,nan,nan
0,386,21:48:51:593000,6,1,91,63.984375,[ 1.         -0.2377099  -0.56272232],1,1,1,0.369453131,0,0,0,0.407257563,0.390948543,0.107791501,0.498740043,0.283157042,nan,nan,nan,[ nan  nan  nan],nan,nan,nan,278.6513398,726.9354796,727.3049327,nan,nan
0,387,21:48:52:545000,6,1,347,243.984375,[-0.17493884  0.46723881  0.16715748],1,1,1,0.323641866,0,0,0,0.348121847,0.390891827,0.107654849,0.498546676,0.283236978,nan,nan,nan,[ nan  nan  nan],nan,nan,nan,278.6513398,727.8772772,728.200919,nan,nan
0,388,21:48:53:481000,6,1,403,283.359375,[ 0.00657627  0.46945644 -0.45052451],1,1,1,0.413860583,0,0,0,0.368985193,0.390714853,0.107568294,0.498283147,0.28314656,nan,nan,nan,[ nan  nan  nan],nan,nan,nan,278.6513398,728.8190554,729.232916,nan,nan
0,389,21:48:54:417000,6,1,315,221.484375,[-0.06571114  0.42643481  0.43495652],1,1,1,0.352046293,0,0,0,0.363182914,0.390775603,0.107433562,0.498209165,0.283342041,nan,nan,nan,[ nan  nan  nan],nan,nan,nan,278.6513398,729.7608721,730.1129184,nan,nan
0,390,21:48:55:369000,6,1,413,290.390625,[ 0.06831062  0.46114313 -0.5854956 ],1,1,1,0.29020948,0,0,0,0.352038785,0.390674217,0.107311099,0.497985317,0.283363118,nan,nan,nan,[ nan  nan  nan],nan,nan,nan,278.6513398,730.7026463,730.9928558,nan,nan
0,391,21:48:56:305000,6,1,186,130.78125,[ 1.         -0.09673867  0.37788139],1,1,1,0.292387045,0,0,0,0.311547606,0.390411907,0.107293472,0.497705379,0.283118436,nan,nan,nan,[ nan  nan  nan],nan,nan,nan,278.6513398,731.6444447,731.9368318,nan,nan
0,392,21:48:57:241000,6,1,406,285.46875,[ 0.02449675  0.4672457  -0.4893661 ],1,1,1,0.286559963,0,0,0,0.289718829,0.390156634,0.107270071,0.497426705,0.282886563,nan,nan,nan,[ nan  nan  nan],nan,nan,nan,278.6513398,732.5862489,732.8728089,nan,nan
0,393,21:48:58:192000,6,1,135,94.921875,[ 1.         -0.30350232 -0.08497887],1,1,1,0.328751931,0,0,0,0.302566313,0.389887552,0.107260355,0.497147907,0.282627197,nan,nan,nan,[ nan  nan  nan],nan,nan,nan,278.6513398,733.5280237,733.8567756,nan,nan
0,394,21:48:59:128000,6,0,237,166.640625,[ 0.6863873   0.17403185  0.63634982],0,0,1,0.466934676,0,0,0,0.360748857,0.38972917,0.107166396,0.496895565,0.282562774,nan,nan,nan,[ nan  nan  nan],nan,nan,nan,278.6513398,734.4698233,734.9367579,nan,nan
0,395,21:49:00:080000,6,1,21,14.765625,[ 1.        0.116714 -1.      ],1,1,1,0.285130205,0,0,0,0.360272271,0.389928667,0.107099593,0.49702826,0.282829074,nan,nan,nan,[ nan  nan  nan],nan,nan,nan,278.6513398,735.4116095,735.6967397,nan,nan
0,396,21:49:01:016000,6,1,410,288.28125,[ 0.04920468  0.46392153 -0.54316189],1,1,1,0.343337457,0,0,0,0.365134113,0.389658568,0.107093385,0.496751953,0.282565183,nan,nan,nan,[ nan  nan  nan],nan,nan,nan,278.6513398,736.3533902,736.6967277,nan,nan
0,397,21:49:01:952000,6,1,303,213.046875,[ 0.01913493  0.40252284  0.51201836],1,1,1,0.409499465,0,0,0,0.345989042,0.389539491,0.106981361,0.496520851,0.28255813,nan,nan,nan,[ nan  nan  nan],nan,nan,nan,278.6513398,737.295195,737.7046944,nan,nan
0,398,21:49:02:903000,6,1,44,30.9375,[ 1.         -0.00106984 -1.        ],1,1,1,0.323674081,0,0,0,0.358837001,0.38959067,0.106848885,0.496439555,0.282741785,nan,nan,nan,[ nan  nan  nan],nan,nan,nan,278.6513398,738.2369891,738.5606632,nan,nan
0,399,21:49:03:839000,6,1,195,137.109375,[ 1.         -0.04692453  0.44239605],1,1,1,0.341874057,0,0,0,0.358349201,0.389422085,0.106764084,0.496186169,0.282658001,nan,nan,nan,[ nan  nan  nan],nan,nan,nan,278.6513398,739.178777,739.5206511,nan,nan
0,400,21:49:04:775000,6,1,496,348.75,[ 0.71483372  0.27492388 -1.        ],1,1,1,0.344035372,0,0,0,0.336527837,0.389300789,0.106654791,0.49595558,0.282645999,nan,nan,nan,[ nan  nan  nan],nan,nan,nan,278.6513398,740.1205872,740.4646225,nan,nan
0,401,21:49:05:727000,6,1,305,214.453125,[ 0.00361193  0.40685925  0.50019691],1,1,1,0.346246864,0,0,0,0.344052098,0.38918561,0.106543419,0.495729029,0.282642191,nan,nan,nan,[ nan  nan  nan],nan,nan,nan,278.6513398,741.0623625,741.4086094,nan,nan
0,402,21:49:06:663000,6,1,168,118.125,[ 1.         -0.19079002  0.2303618 ],1,1,1,0.332470442,0,0,0,0.34091756,0.389076629,0.106430056,0.495506685,0.282646573,nan,nan,nan,[ nan  nan  nan],nan,nan,nan,278.6513398,742.0041185,742.3365889,nan,nan
0,403,21:49:07:615000,6,1,337,236.953125,[-0.16064337  0.45785839  0.25930356],1,1,1,0.446624988,0,0,0,0.375114098,0.388933322,0.106333304,0.495266625,0.282600018,nan,nan,nan,[ nan  nan  nan],nan,nan,nan,278.6513398,742.9459489,743.3925739,nan,nan
0,404,21:49:08:551000,6,0,229,161.015625,[ 0.77039703  0.13526594  0.61468147],0,0,1,0.504834235,0,0,0,0.427976555,0.389079008,0.106238424,0.495317431,0.282840584,nan,nan,nan,[ nan  nan  nan],nan,nan,nan,278.6513398,743.8877388,744.392573,nan,nan
0,405,21:49:09:487000,6,1,6,4.21875,[ 0.89512908  0.18627278 -1.        ],1,1,1,0.290994921,0,0,0,0.414151381,0.389370583,0.106263066,0.495633649,0.283107516,nan,nan,nan,[ nan  nan  nan],nan,nan,nan,278.6513398,744.8295315,745.1205264,nan,nan
0,406,21:49:10:438000,6,0,474,333.28125,[ 0.53090176  0.34654538 -1.        ],0,1,0,0.301147484,0,0,0,0.36565888,0.389123408,0.106243695,0.495367102,0.282879713,nan,nan,nan,[ nan  nan  nan],nan,nan,nan,278.6513398,745.7713437,746.0724911,nan,nan
0,407,21:49:11:374000,6,1,25,17.578125,[ 1.          0.09706829 -1.        ],1,1,1,0.319348315,0,0,0,0.30383024,0.388902917,0.10620161,0.495104527,0.282701307,nan,nan,nan,[ nan  nan  nan],nan,nan,nan,278.6513398,746.7131147,747.0324631,nan,nan
0,408,21:49:12:310000,6,1,166,116.71875,[ 1.         -0.20036215  0.21267421],1,1,1,0.51352625,0,0,0,0.37800735,0.38872903,0.10612563,0.49485466,0.2826034,nan,nan,nan,[ nan  nan  nan],nan,nan,nan,278.6513398,747.6549217,748.168448,nan,nan
0,409,21:49:13:262000,6,1,374,262.96875,[-0.13203913  0.47863408 -0.11062844],1,1,1,0.275724309,0,0,0,0.369532958,0.389040245,0.106175821,0.495216066,0.282864425,nan,nan,nan,[ nan  nan  nan],nan,nan,nan,278.6513398,748.5967008,748.8724251,nan,nan
0,410,21:49:14:198000,6,0,101,71.015625,[ 1.         -0.27357267 -0.44615261],0,1,0,0.24592348,0,0,0,0.345058013,0.388758365,0.106193804,0.494952168,0.282564561,nan,nan,nan,[ nan  nan  nan],nan,nan,nan,278.6513398,749.5384904,749.7844139,nan,nan
