block,trial,time,setsize,freqtrials,trials_colorind,trials_colordeg,colorrgb0,colorrgb1,colorrgb2,correct_response,actual_response,acc,rts,probe_trials,rt_triggered_fast,rt_triggered_slow,rt_strailingavg,rts_runningavg,rts_runningstd,rts_runningslowthresh,rts_runningfastthresh,wm_respdeg,wm_respind,wm_resprgb0,wm_resprgb1,wm_resprgb2,wm_respcolorminusorigcolor,wm_rts,time_blockstart,time_encarray_onset,time_response,time_encarray_offest,time_memprobe_onset,time_memprobe_offset
0,0,4316,6,1,331,232,-0.143297839787,0.450801753776,0.311166711333,1,1.0,1.0,0.448432075791,0,nan,nan,nan,nan,nan,nan,nan,nan,nan,0.0,0.0,0.0,nan,nan,282.307053206,283.322606718,283.771038793,283.822647201,nan,nan
0,1,4317,6,1,140,98,1.0,-0.294209249228,-0.0345777392028,1,1.0,1.0,0.400282760151,0,nan,nan,nan,nan,nan,nan,nan,nan,nan,0.0,0.0,0.0,nan,nan,282.307053206,284.322745275,284.723028035,284.822769223,nan,nan
0,2,4318,6,1,208,146,0.97651257568,0.025020743352,0.522574479073,1,1.0,1.0,0.360201427247,0,nan,nan,nan,nan,nan,nan,nan,nan,nan,0.0,0.0,0.0,nan,nan,282.307053206,285.322854468,285.683055895,285.822896092,nan,nan
0,3,4319,6,1,30,21,1.0,0.071945658744,-1.0,1,1.0,1.0,0.400040997192,0,nan,nan,nan,nan,nan,nan,nan,nan,nan,0.0,0.0,0.0,nan,nan,282.307053206,286.322959954,286.723000951,286.823013267,nan,nan
0,4,4320,6,1,260,182,0.438016636947,0.272781976488,0.654406567654,1,1.0,1.0,0.326155330054,0,nan,nan,nan,nan,nan,nan,nan,nan,nan,0.0,0.0,0.0,nan,nan,282.307053206,287.564799314,287.890954644,288.064862606,nan,nan
0,5,4321,6,1,2,1,0.863024578927,0.203622855609,-1.0,1,1.0,1.0,0.294082395732,0,nan,nan,nan,nan,nan,nan,nan,nan,nan,0.0,0.0,0.0,nan,nan,282.307053206,288.564930174,288.859012569,289.064986053,nan,nan
0,6,4322,6,1,88,61,1.0,-0.225257592204,-0.599932847766,1,1.0,1.0,0.341867356561,0,nan,nan,nan,nan,nan,nan,nan,nan,nan,0.0,0.0,0.0,nan,nan,282.307053206,289.565056472,289.906923829,290.06509553,nan,nan
0,7,4323,6,1,182,127,1.0,-0.118523835432,0.347089474713,1,1.0,1.0,0.333716980182,0,nan,nan,nan,nan,nan,nan,nan,nan,nan,0.0,0.0,0.0,nan,nan,282.307053206,290.565203867,290.898920848,291.065237224,nan,nan
0,8,4324,6,1,440,309,0.258699398066,0.424657399123,-1.0,1,1.0,1.0,0.341593377758,0,nan,nan,nan,nan,nan,nan,nan,nan,nan,0.0,0.0,0.0,nan,nan,282.307053206,291.56531306,291.906906438,292.065367229,nan,nan
0,9,4325,6,1,310,217,-0.032854544558,0.417080732083,0.468828018046,1,1.0,1.0,0.405433337204,0,nan,nan,nan,nan,nan,nan,nan,nan,nan,0.0,0.0,0.0,nan,nan,282.307053206,292.565440499,292.970873836,293.065467868,nan,nan
0,10,4326,6,1,158,111,1.0,-0.235949227405,0.139764106,1,1.0,1.0,0.357307114173,0,nan,nan,nan,nan,nan,nan,nan,nan,nan,0.0,0.0,0.0,nan,nan,282.307053206,293.565555108,293.922862222,294.06559046,nan,nan
0,11,4327,6,1,19,13,0.99625917486,0.126374530333,-1.0,1,1.0,1.0,0.325148364995,0,nan,nan,nan,nan,nan,nan,nan,nan,nan,0.0,0.0,0.0,nan,nan,282.307053206,294.565697942,294.890846307,295.065733009,nan,nan
0,12,4328,6,1,257,180,0.470472903111,0.261039853404,0.655841377839,1,1.0,1.0,0.369954623748,0,nan,nan,nan,nan,nan,nan,nan,nan,nan,0.0,0.0,0.0,nan,nan,282.307053206,295.640847447,296.010802071,296.140865408,nan,nan
0,13,4329,6,1,60,42,1.0,-0.0867837676833,-1.0,1,1.0,1.0,0.361835037824,0,nan,nan,nan,nan,nan,nan,nan,nan,nan,0.0,0.0,0.0,nan,nan,282.307053206,296.640975456,297.002810494,297.140995413,nan,nan
0,14,4330,6,1,421,296,0.121471671064,0.452518040197,-0.712610339232,1,1.0,1.0,0.29564986378,0,nan,nan,nan,nan,nan,nan,nan,nan,nan,0.0,0.0,0.0,nan,nan,282.307053206,297.691129865,297.986779729,298.191124164,nan,nan
0,15,4331,6,0,109,76,1.0,-0.294638327523,-0.357773695079,0,0.0,1.0,0.399510715157,0,nan,nan,nan,nan,nan,nan,nan,nan,nan,0.0,0.0,0.0,nan,nan,282.307053206,298.691254168,299.090764883,299.191281252,nan,nan
0,16,4332,6,1,487,342,0.639529740128,0.306295026098,-1.0,1,1.0,1.0,0.303425621241,0,nan,nan,nan,nan,nan,nan,nan,nan,nan,0.0,0.0,0.0,nan,nan,282.307053206,299.691340268,299.994765889,300.191377901,nan,nan
0,17,4333,6,0,250,175,0.546428449327,0.232286661223,0.654747725831,0,0.0,1.0,0.359295101371,0,nan,nan,nan,nan,nan,nan,nan,nan,nan,0.0,0.0,0.0,nan,nan,282.307053206,300.691499352,301.050794453,301.191534134,nan,nan
0,18,4334,6,1,477,335,0.555879874869,0.337784025865,-1.0,1,1.0,1.0,0.351144154556,0,nan,nan,nan,nan,nan,nan,nan,nan,nan,0.0,0.0,0.0,nan,nan,282.307053206,301.691590013,302.042734168,302.191642471,nan,nan
0,19,4335,6,1,200,140,1.0,-0.0191209939188,0.47515178387,1,1.0,1.0,0.294933127239,0,nan,nan,nan,nan,nan,nan,nan,nan,nan,0.0,0.0,0.0,nan,nan,282.307053206,302.691754515,302.986687642,303.191766489,nan,nan
0,20,4336,6,1,370,260,-0.144805996584,0.478178727438,-0.0671803333712,1,1.0,1.0,0.326820748858,0,nan,nan,nan,nan,nan,nan,nan,nan,nan,0.0,0.0,0.0,nan,nan,282.307053206,303.691872545,304.018693294,304.191923578,nan,nan
0,21,4337,6,0,490,344,0.664660387652,0.296157848571,-1.0,0,0.0,1.0,0.430648528971,0,nan,nan,nan,nan,nan,nan,nan,nan,nan,0.0,0.0,0.0,nan,nan,282.307053206,304.692027353,305.122675882,305.192042178,nan,nan
0,22,4338,6,1,266,187,0.373577590308,0.295207490188,0.648113769863,1,1.0,1.0,0.398567326367,0,nan,nan,nan,nan,nan,nan,nan,nan,nan,0.0,0.0,0.0,nan,nan,282.307053206,305.69209207,306.090659397,306.192167051,nan,nan
0,23,4344,6,1,138,97,1.0,-0.29832987918,-0.0546508148191,1,1.0,1.0,0.334397223312,1,nan,nan,nan,nan,nan,nan,nan,-15.8397492238,151.0,1.0,-0.262720288689,0.0734626651272,8.80849922376,2.48395412462,282.307053206,306.692234905,307.026632128,307.192299052,308.517465092,311.009433032
0,24,4345,6,1,303,213,0.0191349273956,0.402522842081,0.512018356663,1,1.0,1.0,0.328901677858,0,nan,nan,nan,nan,nan,nan,nan,nan,nan,0.0,0.0,0.0,nan,nan,282.307053206,312.209628152,312.53852983,312.709630718,nan,nan
0,25,4346,6,0,442,310,0.273907262724,0.421095538958,-1.0,0,0.0,1.0,0.32077838527,0,nan,nan,nan,nan,nan,nan,nan,nan,nan,0.0,0.0,0.0,nan,nan,282.307053206,313.209759012,313.530537398,313.709780965,nan,nan
0,26,4347,6,1,318,223,-0.0835627602325,0.431640264478,0.413481556053,1,0.0,0.0,0.344650196377,0,0.0,0.0,nan,nan,nan,nan,nan,nan,nan,0.0,0.0,0.0,nan,nan,282.307053206,314.209840836,314.554491032,314.709887306,nan,nan
0,27,4348,6,1,389,273,-0.0691208065164,0.476626077068,-0.280234315682,1,1.0,1.0,0.312505987007,0,nan,nan,nan,nan,nan,nan,nan,nan,nan,0.0,0.0,0.0,nan,nan,282.307053206,315.209970555,315.522476542,315.710012749,nan,nan
0,28,4349,6,1,305,214,0.00361192545304,0.406859252708,0.500196907155,1,1.0,1.0,0.368336408399,0,nan,nan,nan,nan,nan,nan,nan,nan,nan,0.0,0.0,0.0,nan,nan,282.307053206,316.210113104,316.578449512,316.710143894,nan,nan
0,29,4353,6,1,69,48,1.0,-0.134207199312,-0.939648005704,1,1.0,1.0,0.352156252135,1,nan,nan,nan,nan,nan,nan,nan,54.5222550099,50.0,1.0,-0.033148730948,-1.0,-13.0378800099,1.50879669329,282.307053206,317.21026164,317.562417892,317.710302979,319.035442506,320.552294353
0,30,4354,6,1,259,182,0.44882283482,0.268906983076,0.655011783756,1,1.0,1.0,0.433535714634,0,nan,nan,nan,nan,nan,nan,nan,nan,nan,0.0,0.0,0.0,nan,nan,282.307053206,321.760821173,322.194356888,322.260849968,nan,nan
0,31,4355,6,1,468,329,0.481236483515,0.363131620867,-1.0,1,1.0,1.0,0.305373124313,0,nan,nan,nan,nan,nan,nan,nan,nan,nan,0.0,0.0,0.0,nan,nan,282.307053206,322.760964577,323.066337701,323.260971704,nan,nan
0,32,4356,6,0,198,139,1.0,-0.0302354974571,0.462326941081,0,0.0,1.0,0.345212979708,0,nan,nan,nan,nan,nan,nan,nan,nan,nan,0.0,0.0,0.0,nan,nan,282.307053206,323.761098003,324.106310982,324.261127653,nan,nan
0,33,4402,6,1,119,83,1.0,-0.309446327048,-0.250710895617,1,1.0,1.0,0.313180243131,1,nan,nan,nan,nan,nan,nan,nan,-1.0463819071,129.0,1.0,-0.310070485259,-0.146368003411,7.3745069071,2.69232984213,282.307053206,324.761212327,325.07439257,325.26123428,326.586400891,329.286766215
0,34,4403,6,1,365,256,-0.157962026257,0.477016591838,-0.0139196855225,1,1.0,1.0,0.386933624744,0,nan,nan,nan,nan,nan,nan,nan,nan,nan,0.0,0.0,0.0,nan,nan,282.307053206,330.495268516,330.882202141,330.995330953,nan,nan
0,35,4404,6,1,445,312,0.296953900578,0.415520102116,-1.0,1,1.0,1.0,0.28046355769,0,nan,nan,nan,nan,nan,nan,nan,nan,nan,0.0,0.0,0.0,nan,nan,282.307053206,331.553764888,331.834228445,332.053781994,nan,nan
0,36,4405,6,0,394,277,-0.0437090198531,0.474655926729,-0.339401417396,0,0.0,1.0,0.352289392613,0,nan,nan,nan,nan,nan,nan,nan,nan,nan,0.0,0.0,0.0,nan,nan,282.307053206,332.553882633,332.906172025,333.05391827,nan,nan
0,37,4406,6,1,29,20,1.0,0.0770173926463,-1.0,1,1.0,1.0,0.312129657716,0,nan,nan,nan,nan,nan,nan,nan,nan,nan,0.0,0.0,0.0,nan,nan,282.307053206,333.55401948,333.866149138,334.054045994,nan,nan
0,38,4407,6,1,262,184,0.416452475899,0.2804144186,0.652815538838,1,1.0,1.0,0.296020490583,0,nan,nan,nan,nan,nan,nan,nan,nan,nan,0.0,0.0,0.0,nan,nan,282.307053206,334.554124111,334.850144601,335.054177709,nan,nan
0,39,4408,6,1,486,341,0.631151757674,0.309603058574,-1.0,1,1.0,1.0,0.359847050626,0,nan,nan,nan,nan,nan,nan,nan,nan,nan,0.0,0.0,0.0,nan,nan,282.307053206,335.554267515,335.914114566,336.054269511,nan,nan
0,40,4409,6,1,208,146,0.97651257568,0.025020743352,0.522574479073,1,1.0,1.0,0.295707168058,0,nan,nan,nan,nan,nan,nan,nan,nan,nan,0.0,0.0,0.0,nan,nan,282.307053206,336.554398375,336.850105543,337.054397805,nan,nan
0,41,4410,6,1,412,289,0.0618891196837,0.462096609288,-0.571158935758,1,1.0,1.0,0.327554875985,0,nan,nan,nan,nan,nan,nan,nan,nan,nan,0.0,0.0,0.0,nan,nan,282.307053206,337.554520112,337.882074988,338.054524388,nan,nan
0,42,4411,6,1,141,99,1.0,-0.291952736687,-0.024586852943,1,1.0,1.0,0.343445088249,0,nan,nan,nan,nan,nan,nan,nan,nan,nan,0.0,0.0,0.0,nan,nan,282.307053206,338.554627879,338.898072967,339.054685183,nan,nan
0,43,4412,6,1,423,297,0.135229581944,0.450080889006,-0.750039916123,1,1.0,1.0,0.307315211277,0,nan,nan,nan,nan,nan,nan,nan,nan,nan,0.0,0.0,0.0,nan,nan,282.307053206,339.654785024,339.962100236,340.154839193,nan,nan
0,44,4413,6,1,301,211,0.0351599448551,0.39804275895,0.523414514543,1,1.0,1.0,0.331189302728,0,nan,nan,nan,nan,nan,nan,nan,nan,nan,0.0,0.0,0.0,nan,nan,282.307053206,340.6549022,340.986091502,341.154948956,nan,nan
0,45,4414,6,1,390,274,-0.0641960347588,0.476284203309,-0.291947553613,1,1.0,1.0,0.362995386124,0,nan,nan,nan,nan,nan,nan,nan,nan,nan,0.0,0.0,0.0,nan,nan,282.307053206,341.655027928,342.018023314,342.155066131,nan,nan
0,46,4415,6,0,438,307,0.243622561222,0.428096439079,-1.0,0,0.0,1.0,0.370835005771,0,nan,nan,nan,nan,nan,nan,nan,nan,nan,0.0,0.0,0.0,nan,nan,282.307053206,342.655171902,343.026006908,343.155204689,nan,nan
0,47,4416,6,1,71,49,1.0,-0.144504067012,-0.877980773838,1,1.0,1.0,0.346714875195,0,nan,nan,nan,nan,nan,nan,nan,nan,nan,0.0,0.0,0.0,nan,nan,282.307053206,343.655276818,344.001991693,344.155318158,nan,nan
0,48,4417,6,1,325,228,-0.119404900653,0.442631039184,0.360186421743,1,1.0,1.0,0.306558276061,0,nan,nan,nan,nan,nan,nan,nan,nan,nan,0.0,0.0,0.0,nan,nan,282.307053206,344.655407393,344.961965669,345.15544075,nan,nan
0,49,4418,6,1,123,86,1.0,-0.311441137266,-0.208672863777,1,1.0,1.0,0.31439704122,0,nan,nan,nan,nan,nan,nan,nan,nan,nan,0.0,0.0,0.0,nan,nan,282.307053206,345.655556214,345.969953255,346.155558495,nan,nan
0,50,4419,6,1,456,320,0.383612429175,0.392633185378,-1.0,1,1.0,1.0,0.290269782767,0,nan,nan,nan,nan,nan,nan,nan,nan,nan,0.0,0.0,0.0,nan,nan,282.307053206,346.655659419,346.945929202,347.155701329,nan,nan
0,51,4420,6,1,394,277,-0.0437090198531,0.474655926729,-0.339401417396,1,1.0,1.0,0.282092321664,0,nan,nan,nan,nan,nan,nan,nan,nan,nan,0.0,0.0,0.0,nan,nan,282.307053206,347.655798832,347.937891154,348.155815654,nan,nan
0,52,4421,6,0,228,160,0.780729811514,0.1302769546,0.611433142569,0,0.0,1.0,0.337945836131,0,nan,nan,nan,nan,nan,nan,nan,nan,nan,0.0,0.0,0.0,nan,nan,282.307053206,348.655933399,348.993879235,349.155962193,nan,nan
0,53,4422,6,1,58,40,1.0,-0.0760896648475,-1.0,1,1.0,1.0,0.297823164146,0,nan,nan,nan,nan,nan,nan,nan,nan,nan,0.0,0.0,0.0,nan,nan,282.307053206,349.656036604,349.953859768,350.156062833,nan,nan
0,54,4423,6,1,313,220,-0.0530221528698,0.42279583272,0.448797959603,1,1.0,1.0,0.257705624215,0,nan,nan,nan,nan,nan,nan,nan,nan,nan,0.0,0.0,0.0,nan,nan,282.307053206,350.656153209,350.913858833,351.156192553,nan,nan
0,55,4424,6,1,37,26,1.0,0.0358565504353,-1.0,1,1.0,1.0,0.345507200807,0,nan,nan,nan,nan,nan,nan,nan,nan,nan,0.0,0.0,0.0,nan,nan,282.307053206,351.656323697,352.001830898,352.156349641,nan,nan
0,56,4425,6,1,432,303,0.199227897075,0.437687328843,-1.0,1,1.0,1.0,0.345378051512,0,nan,nan,nan,nan,nan,nan,nan,nan,nan,0.0,0.0,0.0,nan,nan,282.307053206,352.65642006,353.001798112,353.156478791,nan,nan
0,57,4430,6,1,101,71,1.0,-0.273572672894,-0.446152610616,1,1.0,1.0,0.353235917166,1,nan,nan,nan,nan,nan,nan,nan,20.4658630598,99.0,1.0,-0.267176270739,-0.468793303331,-1.48148805978,1.98388855159,282.307053206,353.65656489,354.009800808,354.156832597,355.490077741,357.481997498
0,58,4431,6,1,333,234,-0.149813480994,0.453275949072,0.294183738108,1,1.0,1.0,0.303182147443,0,nan,nan,nan,nan,nan,nan,nan,nan,nan,0.0,0.0,0.0,nan,nan,282.307053206,358.690529164,358.993711312,359.190580767,nan,nan
0,59,4432,6,1,116,81,1.0,-0.306446923025,-0.282515442494,1,1.0,1.0,0.318981983699,0,nan,nan,nan,nan,nan,nan,nan,nan,nan,0.0,0.0,0.0,nan,nan,282.307053206,359.690708776,360.00969076,360.190691955,nan,nan
0,60,4433,6,1,36,25,1.0,0.0410699577143,-1.0,1,1.0,1.0,0.342903972138,0,nan,nan,nan,nan,nan,nan,nan,nan,nan,0.0,0.0,0.0,nan,nan,282.307053206,360.690770927,361.033674899,361.190820819,nan,nan
0,61,4434,6,1,214,150,0.920243657418,0.0575410437433,0.553854850604,1,1.0,1.0,0.374765079468,0,nan,nan,nan,nan,nan,nan,nan,nan,nan,0.0,0.0,0.0,nan,nan,282.307053206,361.690898651,362.06566373,362.190971636,nan,nan
0,62,4435,6,1,407,286,0.0305886347219,0.46645515455,-0.502577406972,1,1.0,1.0,0.342565846164,0,nan,nan,nan,nan,nan,nan,nan,nan,nan,0.0,0.0,0.0,nan,nan,282.307053206,362.691074556,363.033640402,363.191063438,nan,nan
0,63,4436,6,1,343,241,-0.171388175652,0.463836419185,0.204822810802,1,1.0,1.0,0.326465231832,0,nan,nan,nan,nan,nan,nan,nan,nan,nan,0.0,0.0,0.0,nan,nan,282.307053206,363.691164362,364.017629594,364.191209978,nan,nan
0,64,4437,6,1,288,202,0.150005133015,0.365331945294,0.586687239957,1,1.0,1.0,0.326303296257,0,nan,nan,nan,nan,nan,nan,nan,nan,nan,0.0,0.0,0.0,nan,nan,282.307053206,364.69129066,365.017593957,365.191338842,nan,nan
0,65,4438,6,1,415,291,0.0813077335083,0.459153678902,-0.614968023274,1,1.0,1.0,0.318177723326,0,nan,nan,nan,nan,nan,nan,nan,nan,nan,0.0,0.0,0.0,nan,nan,282.307053206,365.691417529,366.009595252,366.191466851,nan,nan
0,66,4439,6,1,350,246,-0.175756816429,0.469490941964,0.138247479403,1,1.0,1.0,0.325995960739,0,nan,nan,nan,nan,nan,nan,nan,nan,nan,0.0,0.0,0.0,nan,nan,282.307053206,366.691569771,367.017565732,367.191594005,nan,nan
0,67,4440,6,1,148,104,1.0,-0.272695592461,0.0444264621409,1,1.0,1.0,0.357882156502,0,nan,nan,nan,nan,nan,nan,nan,nan,nan,0.0,0.0,0.0,nan,nan,282.307053206,367.691663283,368.04954544,368.19169721,nan,nan
0,68,4441,6,1,63,44,1.0,-0.102744642793,-1.0,1,1.0,1.0,0.341709697153,0,nan,nan,nan,nan,nan,nan,nan,nan,nan,0.0,0.0,0.0,nan,nan,282.307053206,368.691809824,369.033519521,369.191831776,nan,nan
0,69,4442,6,1,155,108,1.0,-0.2479831371,0.111611878621,1,1.0,1.0,0.309582879301,0,nan,nan,nan,nan,nan,nan,nan,nan,nan,0.0,0.0,0.0,nan,nan,282.307053206,369.691926429,370.001509308,370.191948951,nan,nan
0,70,4443,6,1,265,186,0.384259149088,0.291568309415,0.649478858709,1,1.0,1.0,0.333444996737,0,nan,nan,nan,nan,nan,nan,nan,nan,nan,0.0,0.0,0.0,nan,nan,282.307053206,370.692058714,371.025503711,371.192080381,nan,nan
0,71,4444,6,1,344,241,-0.172543464245,0.464730234515,0.195503824632,1,1.0,1.0,0.309322584886,0,nan,nan,nan,nan,nan,nan,nan,nan,nan,0.0,0.0,0.0,nan,nan,282.307053206,371.692163345,372.00148593,372.192238326,nan,nan
0,72,4445,6,1,111,78,1.0,-0.298677811705,-0.336106236365,1,1.0,1.0,0.283794070594,0,nan,nan,nan,nan,nan,nan,nan,nan,nan,0.0,0.0,0.0,nan,nan,282.307053206,372.725676309,373.009470379,373.225674313,nan,nan
0,73,4446,6,1,464,326,0.448404880525,0.373503555275,-1.0,1,1.0,1.0,0.283646104392,0,nan,nan,nan,nan,nan,nan,nan,nan,nan,0.0,0.0,0.0,nan,nan,282.307053206,373.725790918,374.009437023,374.225806599,nan,nan
0,74,4447,6,1,357,251,-0.1717918326,0.473767524415,0.068739031695,1,1.0,1.0,0.291495132726,0,nan,nan,nan,nan,nan,nan,nan,nan,nan,0.0,0.0,0.0,nan,nan,282.307053206,374.7259118,375.017406933,375.225967964,nan,nan
0,75,4448,6,1,128,90,1.0,-0.310663006781,-0.156689791083,1,1.0,1.0,0.331372335088,0,nan,nan,nan,nan,nan,nan,nan,nan,nan,0.0,0.0,0.0,nan,nan,282.307053206,375.726036103,376.057408438,376.226076586,nan,nan
0,76,4449,6,1,190,133,1.0,-0.0746884387243,0.407399635172,1,1.0,1.0,0.286009850446,0,nan,nan,nan,nan,nan,nan,nan,nan,nan,0.0,0.0,0.0,nan,nan,282.307053206,376.787369767,377.073379618,377.29290038,nan,nan
0,77,4450,6,1,4,2,0.879126049628,0.195014037372,-1.0,1,1.0,1.0,0.344713202678,0,nan,nan,nan,nan,nan,nan,nan,nan,nan,0.0,0.0,0.0,nan,nan,282.307053206,377.784647938,378.129361141,378.284645087,nan,nan
0,78,4451,6,1,506,355,0.797774742377,0.236703125255,-1.0,1,1.0,1.0,0.392580557615,0,nan,nan,nan,nan,nan,nan,nan,nan,nan,0.0,0.0,0.0,nan,nan,282.307053206,378.784763688,379.177344245,379.28479904,nan,nan
0,79,4452,6,1,304,213,0.0113092810281,0.404708921832,0.506160370659,1,1.0,1.0,0.344421547838,0,nan,nan,nan,nan,nan,nan,nan,nan,nan,0.0,0.0,0.0,nan,nan,282.307053206,379.784894833,380.129316381,380.284950427,nan,nan
0,80,4453,6,1,398,279,-0.0220377755791,0.472608796233,-0.387943383198,1,1.0,1.0,0.296311575454,0,0.0,0.0,0.344437893635,0.33723431023,0.0374878894183,0.374722199648,0.299746420811,nan,nan,0.0,0.0,0.0,nan,nan,282.307053206,380.785013434,381.081325009,381.285037952,nan,nan
0,81,4454,6,1,303,213,0.0191349273956,0.402522842081,0.512018356663,1,1.0,1.0,0.296140231658,0,0.0,0.0,0.312291118316,0.336729091282,0.0375288109116,0.374257902193,0.29920028037,nan,nan,0.0,0.0,0.0,nan,nan,282.307053206,381.785157978,382.08129821,382.285164536,nan,nan
0,82,4455,6,1,207,145,0.985653507947,0.0195431921708,0.51699622314,1,1.0,1.0,0.343990480062,0,0.0,0.0,0.312147429058,0.336234105189,0.0375643688412,0.37379847403,0.298669736347,nan,nan,0.0,0.0,0.0,nan,nan,282.307053206,382.785291689,383.129282169,383.285291974,nan,nan
0,83,4456,6,0,146,102,1.0,-0.278792578557,0.0248813210997,0,0.0,1.0,0.447846485302,0,0.0,0.0,0.362659065674,0.336327555488,0.0373469801111,0.373674535599,0.298980575377,nan,nan,0.0,0.0,0.0,nan,nan,282.307053206,383.785416277,384.233262762,384.285442506,nan,nan
0,84,4457,6,1,286,201,0.169078956243,0.359734776014,0.594698705761,1,1.0,1.0,0.351719196886,0,0.0,0.0,0.381185387416,0.337655161796,0.0390446269573,0.376699788753,0.298610534838,nan,nan,0.0,0.0,0.0,nan,nan,282.307053206,384.785527465,385.137246662,385.285565668,nan,nan
0,85,4458,6,1,470,330,0.497741612616,0.357740777197,-1.0,1,1.0,1.0,0.375546532683,0,0.0,0.0,0.391704071624,0.337820621032,0.0388438856078,0.37666450664,0.298976735424,nan,nan,0.0,0.0,0.0,nan,nan,282.307053206,385.785678852,386.161225385,386.2857028,nan,nan
0,86,4459,6,1,100,70,1.0,-0.270427092546,-0.457439896749,1,1.0,1.0,0.351390193682,0,0.0,0.0,0.359551974417,0.338259294423,0.0388285929515,0.377087887375,0.299430701472,nan,nan,0.0,0.0,0.0,nan,nan,282.307053206,386.785776926,387.137167119,387.285801159,nan,nan
0,87,4500,6,1,471,331,0.506014005179,0.354993781952,-1.0,1,1.0,1.0,0.263304660097,0,0.0,0.0,0.330080462154,0.3384102243,0.0386301601695,0.377040384469,0.29978006413,nan,nan,0.0,0.0,0.0,nan,nan,282.307053206,387.78589239,388.04919705,388.285935155,nan,nan
0,88,4501,6,1,278,195,0.248285521772,0.335802812283,0.621962573991,1,1.0,1.0,0.295164056588,0,0.0,0.0,0.303286303456,0.337556751979,0.0392263119247,0.376783063904,0.298330440055,nan,nan,0.0,0.0,0.0,nan,nan,282.307053206,388.786014412,389.081178469,389.286077989,nan,nan
0,89,4502,6,1,432,303,0.199227897075,0.437687328843,-1.0,1,1.0,1.0,0.247058930807,0,1.0,0.0,0.268509215831,0.337080429559,0.039260418382,0.376340847941,0.297820011177,nan,nan,0.0,0.0,0.0,nan,nan,282.307053206,389.786143276,390.033202207,390.286190032,nan,nan
0,90,4508,6,1,337,236,-0.160643365934,0.457858386897,0.259303564052,1,1.0,1.0,0.214839170687,1,0.0,0.0,0.252354052694,0.336080190684,0.0401658627058,0.37624605339,0.295914327978,-154.812537723,348.0,-0.175384772129,0.468017843042,0.157582163916,7.85941272277,2.40062060067,282.307053206,390.786311484,391.001150655,391.286303501,392.619802096,395.028453333
0,91,4509,6,1,32,22,1.0,0.061735800531,-1.0,1,1.0,1.0,0.308033657726,0,0.0,0.0,0.25664391974,0.334747871783,0.0418965944024,0.376644466186,0.292851277381,nan,nan,0.0,0.0,0.0,nan,nan,282.307053206,396.236996688,396.545030346,396.737005526,nan,nan
0,92,4510,6,1,170,119,1.0,-0.180990482069,0.247815061387,1,1.0,1.0,0.363920242991,0,0.0,0.0,0.295597690468,0.334457499891,0.0417602412361,0.376217741127,0.292697258655,nan,nan,0.0,0.0,0.0,nan,nan,282.307053206,397.23708963,397.601009873,397.737131539,nan,nan
0,93,4511,6,1,480,337,0.580928072941,0.32870764083,-1.0,1,1.0,1.0,0.323777329642,0,0.0,0.0,0.33191041012,0.33477430358,0.0416461220942,0.376420425675,0.293128181486,nan,nan,0.0,0.0,0.0,nan,nan,282.307053206,398.23723617,398.5610135,398.737261544,nan,nan
0,94,4512,6,0,389,273,-0.0691208065164,0.476626077068,-0.280234315682,0,0.0,1.0,0.355607361067,0,0.0,0.0,0.347768311234,0.334657314496,0.0414393685593,0.376096683055,0.293217945937,nan,nan,0.0,0.0,0.0,nan,nan,282.307053206,399.237394399,399.593001761,399.737419773,nan,nan
0,95,4513,6,1,13,9,0.950262168777,0.154664060346,-1.0,1,1.0,1.0,0.27555502858,0,0.0,0.0,0.318313239763,0.334877841302,0.0412761028689,0.376153944171,0.293601738433,nan,nan,0.0,0.0,0.0,nan,nan,282.307053206,400.237472801,400.51302783,400.737516421,nan,nan
0,96,4514,6,1,59,41,1.0,-0.0814409933332,-1.0,1,1.0,1.0,0.24333583843,0,0.0,0.0,0.291499409359,0.334259895336,0.0414999524699,0.375759847806,0.292759942866,nan,nan,0.0,0.0,0.0,nan,nan,282.307053206,401.237611359,401.480947197,401.73764272,nan,nan
0,97,4515,6,1,407,286,0.0305886347219,0.46645515455,-0.502577406972,1,1.0,1.0,0.307245362084,0,1.0,0.0,0.275378743031,0.333322533925,0.0422946923022,0.375617226227,0.291027841623,nan,nan,0.0,0.0,0.0,nan,nan,282.307053206,402.237746495,402.544991857,402.737768163,nan,nan
0,98,4521,6,1,493,346,0.689769084006,0.285700779988,-1.0,1,1.0,1.0,0.265689218417,1,0.0,0.0,0.272090139644,0.333056440335,0.0421598823511,0.375216322686,0.290896557984,107.551072837,487.0,0.639529740128,0.306295026098,-1.0,-4.19169783654,2.69240282709,282.307053206,403.271257178,403.536946397,403.77124606,405.096414667,407.796740932
0,99,4522,6,1,65,45,1.0,-0.113312155659,-1.0,1,1.0,1.0,0.379232562147,0,0.0,0.0,0.317389047549,0.332375963346,0.0424838837382,0.374859847084,0.289892079607,nan,nan,0.0,0.0,0.0,nan,nan,282.307053206,409.013592324,409.392824886,409.513628816,nan,nan
0,100,4523,6,1,132,92,1.0,-0.307426825298,-0.115555361894,1,1.0,1.0,0.426701634657,0,0.0,0.0,0.357207805074,0.332844529334,0.042527255121,0.375371784455,0.290317274212,nan,nan,0.0,0.0,0.0,nan,nan,282.307053206,410.022087669,410.448789303,410.522097362,nan,nan
0,101,4524,6,1,360,253,-0.167709501072,0.475188317955,0.0381258551808,1,1.0,1.0,0.394578237552,0,0.0,1.0,0.400170811452,0.333773807604,0.0433245499727,0.377098357577,0.290449257631,nan,nan,0.0,0.0,0.0,nan,nan,282.307053206,411.022210831,411.416789068,411.522212827,nan,nan
0,102,4531,6,1,190,133,1.0,-0.0746884387243,0.407399635172,1,1.0,1.0,0.330442061182,1,0.0,0.0,0.38390731113,0.334369929466,0.0435259232556,0.377895852722,0.290844006211,-23.2653687812,161.0,1.0,-0.223158351501,0.167490545043,-20.3283812188,4.70090701012,282.307053206,412.022323444,412.352765506,412.522347393,413.847512293,418.556476168
0,103,4532,6,1,70,49,1.0,-0.13936984996,-0.906436913284,1,1.0,1.0,0.355329390615,0,0.0,0.0,0.360116563117,0.334331794823,0.0433158292864,0.377647624109,0.291015965536,nan,nan,0.0,0.0,0.0,nan,nan,282.307053206,419.773298764,420.128628155,420.273355498,nan,nan
0,104,4533,6,0,378,265,-0.117450136118,0.478670924818,-0.154810124165,0,0.0,1.0,0.411151259206,0,0.0,0.0,0.365640903668,0.334533694782,0.04315574985,0.377689444632,0.291377944932,nan,nan,0.0,0.0,0.0,nan,nan,282.307053206,420.773462125,421.184613384,421.273491775,nan,nan
0,105,4534,6,1,259,182,0.44882283482,0.268906983076,0.655011783756,1,1.0,1.0,0.387031413149,0,0.0,0.0,0.38450402099,0.335263385872,0.0435896332713,0.378853019143,0.291673752601,nan,nan,0.0,0.0,0.0,nan,nan,282.307053206,421.773557918,422.160589331,422.2735927,nan,nan
0,106,4535,6,1,57,40,1.0,-0.0707313323512,-1.0,1,1.0,1.0,0.322866156697,0,0.0,0.0,0.373682943018,0.335751763488,0.0436712136762,0.379422977164,0.292080549812,nan,nan,0.0,0.0,0.0,nan,nan,282.307053206,422.773707024,423.096573181,423.273748648,nan,nan
0,107,4536,6,1,153,107,1.0,-0.255547855702,0.0926213922694,1,1.0,1.0,0.330676411279,0,0.0,0.0,0.346857993708,0.335631337256,0.0434843431826,0.379115680439,0.292146994074,nan,nan,0.0,0.0,0.0,nan,nan,282.307053206,423.773867534,424.104543946,424.27385556,nan,nan
0,108,4537,6,1,371,260,-0.14179360683,0.478331938097,-0.0779732583494,1,1.0,1.0,0.298557576258,0,0.0,0.0,0.317366714745,0.335585458312,0.0432851602833,0.378870618595,0.292300298029,nan,nan,0.0,0.0,0.0,nan,nan,282.307053206,424.773975301,425.072532877,425.273971595,nan,nan
0,109,4538,6,1,31,21,1.0,0.0668515730764,-1.0,1,1.0,1.0,0.330448618624,0,0.0,0.0,0.319894202054,0.335245752972,0.0432305358823,0.378476288854,0.29201521709,nan,nan,0.0,0.0,0.0,nan,nan,282.307053206,425.77405969,426.104508309,426.274103595,nan,nan
0,110,4539,6,1,275,193,0.279002393219,0.326185254474,0.630178474337,1,1.0,1.0,0.274268952198,0,0.0,0.0,0.301091715693,0.33520214266,0.0430359933559,0.378238136016,0.292166149304,nan,nan,0.0,0.0,0.0,nan,nan,282.307053206,426.774229893,427.048498846,427.27423474,nan,nan
0,111,4540,6,1,156,109,1.0,-0.244060613314,0.121041471254,1,1.0,1.0,0.330172643531,0,0.0,0.0,0.311630071451,0.334653194998,0.0432268314471,0.377880026445,0.291426363551,nan,nan,0.0,0.0,0.0,nan,nan,282.307053206,427.774333669,428.104506313,428.274367881,nan,nan
0,112,4541,6,1,372,261,-0.138660017671,0.478458869494,-0.0888123791441,1,1.0,1.0,0.377981837839,0,0.0,0.0,0.327474477856,0.334613190074,0.0430354858061,0.37764867588,0.291577704268,nan,nan,0.0,0.0,0.0,nan,nan,282.307053206,428.774462819,429.152444656,429.274499311,nan,nan
0,113,4542,6,1,5,3,0.88714030954,0.190659852496,-1.0,1,1.0,1.0,0.337839779444,0,0.0,0.0,0.348664753605,0.334996983417,0.0430367341889,0.378033717606,0.291960249228,nan,nan,0.0,0.0,0.0,nan,nan,282.307053206,429.774611925,430.112451704,430.274613065,nan,nan
0,114,4543,6,0,79,55,1.0,-0.184296021705,-0.724170777997,0,0.0,1.0,0.465723828878,0,0.0,0.0,0.393848482054,0.335021920224,0.0428483807887,0.377870301013,0.292173539436,nan,nan,0.0,0.0,0.0,nan,nan,282.307053206,430.774697454,431.240421283,431.274763312,nan,nan
0,115,4544,6,1,384,270,-0.0924750057551,0.477945316949,-0.222479273925,1,1.0,1.0,0.305601773318,0,0.0,0.0,0.36972179388,0.336158458561,0.0443539701791,0.38051242874,0.291804488381,nan,nan,0.0,0.0,0.0,nan,nan,282.307053206,431.774823752,432.080425526,432.27487393,nan,nan
0,116,4545,6,0,501,352,0.7564492333,0.256253544744,-1.0,0,0.0,1.0,0.3694172143,0,0.0,0.0,0.380247605499,0.33589503886,0.0442526298561,0.380147668716,0.291642409004,nan,nan,0.0,0.0,0.0,nan,nan,282.307053206,432.774994811,433.144412025,433.275016764,nan,nan
0,117,4546,6,1,17,11,0.981069150956,0.135921910835,-1.0,1,1.0,1.0,0.297276631463,0,0.0,0.0,0.324098539694,0.33618155318,0.0441710332208,0.380352586401,0.292010519959,nan,nan,0.0,0.0,0.0,nan,nan,282.307053206,433.775102863,434.072379495,434.275148479,nan,nan
0,118,4547,6,1,84,59,1.0,-0.20765784414,-0.652191087791,1,1.0,1.0,0.353114465717,0,0.0,0.0,0.339936103827,0.335851850454,0.0441278138242,0.379979664278,0.29172403663,nan,nan,0.0,0.0,0.0,nan,nan,282.307053206,434.775248833,435.128363299,435.27525425,nan,nan
0,119,4549,6,1,140,98,1.0,-0.294209249228,-0.0345777392028,1,1.0,1.0,0.374255324248,0,0.0,0.0,0.341548807143,0.335996914448,0.0439702573409,0.379967171788,0.292026657107,nan,nan,0.0,0.0,0.0,nan,nan,282.307053206,435.842091728,436.216347053,436.342083746,nan,nan
0,120,4550,6,1,363,255,-0.162287729338,0.476365729747,0.00704812682028,1,1.0,1.0,0.350196774583,0,0.0,0.0,0.35918885485,0.336315734529,0.0439245706217,0.380240305151,0.292391163908,nan,nan,0.0,0.0,0.0,nan,nan,282.307053206,436.842136774,437.192333548,437.342173551,nan,nan
0,121,4551,6,1,460,323,0.415848916989,0.383334931935,-1.0,1,1.0,1.0,0.422036008909,0,0.0,1.0,0.38216270258,0.336430453869,0.0437607355768,0.380191189445,0.292669718292,nan,nan,0.0,0.0,0.0,nan,nan,282.307053206,437.842279037,438.264315046,438.342333776,nan,nan
0,122,4557,6,1,415,291,0.0813077335083,0.459153678902,-0.614968023274,1,1.0,1.0,0.36587572936,1,0.0,0.0,0.379369504284,0.337132138746,0.0442592476486,0.381391386395,0.292872891097,147.828782871,430.0,0.184725017221,0.440645728776,-0.941904167281,10.3743421285,3.18404119322,282.307053206,438.842409042,439.208284772,439.342470909,440.66759447,443.859672571
0,123,4558,6,1,265,186,0.384259149088,0.291568309415,0.649478858709,1,1.0,1.0,0.379666196182,0,0.0,0.0,0.389192644817,0.337365826474,0.0441544737831,0.381520300258,0.293211352691,nan,nan,0.0,0.0,0.0,nan,nan,282.307053206,445.076519115,445.456185311,445.576560739,nan,nan
0,124,4559,6,1,376,264,-0.124962824795,0.478704673615,-0.132627625282,1,1.0,1.0,0.307458330411,0,0.0,0.0,0.351000085318,0.337706958488,0.0441385146113,0.3818454731,0.293568443877,nan,nan,0.0,0.0,0.0,nan,nan,282.307053206,446.076687037,446.384145368,446.57670728,nan,nan
0,125,4600,6,1,471,331,0.506014005179,0.354993781952,-1.0,1,1.0,1.0,0.307339729741,0,0.0,0.0,0.331488085445,0.337464969464,0.044044115176,0.38150908464,0.293420854288,nan,nan,0.0,0.0,0.0,nan,nan,282.307053206,447.076798511,447.38413824,447.576815332,nan,nan
0,126,4601,6,1,122,85,1.0,-0.311159539646,-0.219144224573,1,1.0,1.0,0.339223644696,0,0.0,0.0,0.31800723495,0.33722588026,0.0439503541756,0.381176234435,0.293275526084,nan,nan,0.0,0.0,0.0,nan,nan,282.307053206,448.076902857,448.416126501,448.576938494,nan,nan
0,127,4602,6,1,419,294,0.107894673663,0.454841969249,-0.678098861371,1,1.0,1.0,0.299038250931,0,0.0,0.0,0.315200541789,0.337241610688,0.0437773354234,0.381018946112,0.293464275265,nan,nan,0.0,0.0,0.0,nan,nan,282.307053206,449.07707306,449.376111311,449.577077337,nan,nan
0,128,4603,6,1,370,260,-0.144805996584,0.478178727438,-0.0671803333712,1,1.0,1.0,0.314931029454,0,0.0,0.0,0.317730975027,0.33694314694,0.0437355236468,0.380678670587,0.293207623293,nan,nan,0.0,0.0,0.0,nan,nan,282.307053206,450.077186814,450.392117843,450.577207341,nan,nan
0,129,4604,6,1,70,49,1.0,-0.13936984996,-0.906436913284,1,1.0,1.0,0.338804265484,0,0.0,0.0,0.317591181956,0.33677251037,0.0436084293211,0.380380939691,0.293164081049,nan,nan,0.0,0.0,0.0,nan,nan,282.307053206,451.077307411,451.416111676,451.577328508,nan,nan
0,130,4605,6,0,415,291,0.0813077335083,0.459153678902,-0.614968023274,0,0.0,1.0,0.40258292947,0,0.0,0.0,0.352106074803,0.336788139256,0.043440743476,0.380228882732,0.29334739578,nan,nan,0.0,0.0,0.0,nan,nan,282.307053206,452.077472197,452.480055126,452.577485026,nan,nan
0,131,4606,6,1,121,85,1.0,-0.310732805591,-0.229640808446,1,1.0,1.0,0.282500011381,0,0.0,0.0,0.341295735445,0.337290389563,0.0436518735249,0.380942263088,0.293638516038,nan,nan,0.0,0.0,0.0,nan,nan,282.307053206,453.077544612,453.360044623,453.577583385,nan,nan
0,132,4607,6,1,277,194,0.258470646878,0.33263615818,0.624824240443,1,1.0,1.0,0.290320245083,0,0.0,0.0,0.325134395311,0.33687531094,0.0437449492651,0.380620260205,0.293130361675,nan,nan,0.0,0.0,0.0,nan,nan,282.307053206,454.077704552,454.368024797,454.577726504,nan,nan
0,133,4608,6,1,141,99,1.0,-0.291952736687,-0.024586852943,1,1.0,1.0,0.314184072893,0,0.0,0.0,0.295668109786,0.336525272851,0.0437653513768,0.380290624228,0.292759921474,nan,nan,0.0,0.0,0.0,nan,nan,282.307053206,455.077813744,455.391997817,455.577837408,nan,nan
0,134,4609,6,1,244,171,0.611372359265,0.206163547436,0.648880721676,1,1.0,1.0,0.282049557194,0,0.0,0.0,0.29551795839,0.336358547478,0.0436441170628,0.380002664541,0.292714430416,nan,nan,0.0,0.0,0.0,nan,nan,282.307053206,456.077942893,456.359992451,456.577984233,nan,nan
0,135,4610,6,1,360,253,-0.167709501072,0.475188317955,0.0381258551808,1,1.0,1.0,0.281914135441,0,0.0,0.0,0.292715921843,0.335956258661,0.0437308280437,0.379687086705,0.292225430618,nan,nan,0.0,0.0,0.0,nan,nan,282.307053206,457.07804838,457.359962515,457.578111101,nan,nan
0,136,4611,6,0,290,203,0.131265381085,0.370776544741,0.578206616232,0,1.0,0.0,0.257733278442,0,0.0,0.0,0.273898990359,0.335558890108,0.0438137010894,0.379372591198,0.291745189019,nan,nan,0.0,0.0,0.0,nan,nan,282.307053206,458.078218013,458.335951291,458.578245953,nan,nan
0,137,4612,6,1,412,289,0.0618891196837,0.462096609288,-0.571158935758,1,1.0,1.0,0.257587023079,0,0.0,0.0,0.265744812321,0.33499081995,0.0441533252794,0.37914414523,0.290837494671,nan,nan,0.0,0.0,0.0,nan,nan,282.307053206,459.078329201,459.335916224,459.578346592,nan,nan
0,138,4613,6,0,484,340,0.614398947124,0.316112737715,-1.0,0,0.0,1.0,0.377452981658,0,0.0,0.0,0.297591094393,0.334429922871,0.0444802221526,0.378910145024,0.289949700719,nan,nan,0.0,0.0,0.0,nan,nan,282.307053206,460.078469469,460.455922451,460.5785014,nan,nan
0,139,4614,6,1,133,93,1.0,-0.306259573676,-0.105336427414,1,1.0,1.0,0.345315329731,0,0.0,0.0,0.326785111489,0.33473944128,0.0444688323167,0.379208273597,0.290270608963,nan,nan,0.0,0.0,0.0,nan,nan,282.307053206,461.078583223,461.423898553,461.578601755,nan,nan
0,140,4615,6,1,411,288,0.0555201669072,0.463022710015,-0.557054760163,1,1.0,1.0,0.321141600143,0,0.0,0.0,0.347969970511,0.33481498334,0.0443186803657,0.379133663706,0.290496302975,nan,nan,0.0,0.0,0.0,nan,nan,282.307053206,462.078741453,462.399883053,462.578740597,nan,nan
0,141,4616,6,1,76,53,1.0,-0.169674511773,-0.773365826749,1,1.0,1.0,0.303598675877,0,0.0,0.0,0.323351868584,0.334718008991,0.0441761460897,0.378894155081,0.290541862902,nan,nan,0.0,0.0,0.0,nan,nan,282.307053206,463.11225128,463.415849956,463.612201103,nan,nan
0,142,4617,6,1,425,298,0.149162615564,0.447529597292,-0.791715667876,1,1.0,1.0,0.359555110801,0,0.0,0.0,0.328098462274,0.334498858758,0.0440971709222,0.37859602968,0.290401687836,nan,nan,0.0,0.0,0.0,nan,nan,282.307053206,464.112279505,464.471834616,464.612326832,nan,nan
0,143,4618,6,1,505,355,0.789537956352,0.240683140511,-1.0,1,1.0,1.0,0.375369486865,0,0.0,0.0,0.346174424514,0.334674077304,0.043992292243,0.378666369547,0.290681785061,nan,nan,0.0,0.0,0.0,nan,nan,282.307053206,465.112457691,465.487827178,465.612452275,nan,nan
0,144,4619,6,1,202,142,1.0,-0.00802826454356,0.487596984314,1,1.0,1.0,0.359262885526,0,0.0,0.0,0.364729161064,0.334956684315,0.0439693414047,0.378926025719,0.29098734291,nan,nan,0.0,0.0,0.0,nan,nan,282.307053206,466.11254208,466.471804966,466.612586556,nan,nan
0,145,4620,6,1,86,60,1.0,-0.21659106269,-0.625617802914,1,1.0,1.0,0.367064016871,0,0.0,0.0,0.367232129754,0.335124313289,0.043863608876,0.378987922165,0.291260704413,nan,nan,0.0,0.0,0.0,nan,nan,282.307053206,467.112702875,467.479766892,467.612716845,nan,nan
0,146,4621,6,1,472,331,0.51429864939,0.352212277195,-1.0,1,1.0,1.0,0.358971515205,0,0.0,0.0,0.361766139201,0.335343078382,0.0437924357013,0.379135514083,0.29155064268,nan,nan,0.0,0.0,0.0,nan,nan,282.307053206,468.112806081,468.471777596,468.612871938,nan,nan
0,147,4622,6,1,235,165,0.707591924495,0.164537776567,0.631659631194,1,1.0,1.0,0.358791048639,0,0.0,0.0,0.361608860238,0.335503816047,0.0436864219512,0.379190237998,0.291817394096,nan,nan,0.0,0.0,0.0,nan,nan,282.307053206,469.112947489,469.471738538,469.612959749,nan,nan
0,148,4623,6,1,76,53,1.0,-0.169674511773,-0.773365826749,1,1.0,1.0,0.350662909448,0,0.0,0.0,0.35614182443,0.335661162213,0.0435803575959,0.379241519809,0.292080804617,nan,nan,0.0,0.0,0.0,nan,nan,282.307053206,470.113063239,470.463726148,470.613080915,nan,nan
0,149,4624,6,1,159,111,1.0,-0.231765974528,0.149055008463,1,1.0,1.0,0.334515538998,0,0.0,0.0,0.347989832362,0.335761845081,0.0434511360277,0.379212981108,0.292310709053,nan,nan,0.0,0.0,0.0,nan,nan,282.307053206,471.113210064,471.447725603,471.613217192,nan,nan
0,150,4625,6,1,313,220,-0.0530221528698,0.42279583272,0.448797959603,1,1.0,1.0,0.358391056303,0,0.0,0.0,0.347856501583,0.335753536373,0.0433061754654,0.379059711839,0.292447360908,nan,nan,0.0,0.0,0.0,nan,nan,282.307053206,472.113315836,472.471706892,472.613347196,nan,nan
0,151,4626,6,1,444,312,0.289241202529,0.417409780569,-1.0,1,1.0,1.0,0.382254599128,0,0.0,0.0,0.35838706481,0.335903453724,0.0432015750087,0.379105028733,0.292701878715,nan,nan,0.0,0.0,0.0,nan,nan,282.307053206,473.113431585,473.495686185,473.613478912,nan,nan
0,152,4627,6,1,383,269,-0.0968787136249,0.478131214543,-0.211081409456,1,1.0,1.0,0.37410108652,0,0.0,0.0,0.371582247317,0.33620839547,0.0432219701419,0.379430365612,0.292986425328,nan,nan,0.0,0.0,0.0,nan,nan,282.307053206,474.113557314,474.4876584,474.613601789,nan,nan
0,153,4628,6,1,46,32,1.0,-0.0117313672748,-1.0,1,1.0,1.0,0.373956541996,0,0.0,0.0,0.376770742548,0.336456060117,0.043188563165,0.379644623282,0.293267496952,nan,nan,0.0,0.0,0.0,nan,nan,282.307053206,475.113687033,475.487643575,475.613731508,nan,nan
0,154,4629,6,1,198,139,1.0,-0.0302354974571,0.462326941081,1,1.0,1.0,0.333808211144,0,0.0,0.0,0.360621946553,0.33669956974,0.0431533590073,0.379852928747,0.293546210733,nan,nan,0.0,0.0,0.0,nan,nan,282.307053206,476.113813331,476.447621542,476.613859232,nan,nan
0,155,4630,6,1,68,47,1.0,-0.129018143495,-0.972903198114,1,1.0,1.0,0.349653948098,0,0.0,0.0,0.352472900413,0.336680915814,0.043014552274,0.379695468087,0.29366636354,nan,nan,0.0,0.0,0.0,nan,nan,282.307053206,477.113955881,477.463609829,477.614018887,nan,nan
0,156,4631,6,1,155,108,1.0,-0.2479831371,0.111611878621,1,1.0,1.0,0.301492658444,0,0.0,0.0,0.328318272562,0.336764076277,0.0428889618337,0.379653038111,0.293875114443,nan,nan,0.0,0.0,0.0,nan,nan,282.307053206,478.114103561,478.415596219,478.614127509,nan,nan
0,157,4632,6,1,316,222,-0.0718215561597,0.428203514031,0.427892255365,1,1.0,1.0,0.301364649553,0,0.0,0.0,0.317503752032,0.336539417565,0.0428441394103,0.379383556975,0.293695278154,nan,nan,0.0,0.0,0.0,nan,nan,282.307053206,479.11420192,479.415566569,479.614266637,nan,nan
0,158,4633,6,0,413,290,0.0683106243366,0.461143133648,-0.585495598612,0,0.0,1.0,0.389166225679,0,0.0,0.0,0.330674511225,0.336316792451,0.0427993417791,0.37911613423,0.293517450672,nan,nan,0.0,0.0,0.0,nan,nan,282.307053206,480.114380106,480.503546332,480.614390085,nan,nan
0,159,4634,6,1,489,343,0.656284860842,0.299572439858,-1.0,1,1.0,1.0,0.325042878743,0,0.0,0.0,0.338524584658,0.336649178823,0.0428686243713,0.379517803194,0.293780554452,nan,nan,0.0,0.0,0.0,nan,nan,282.307053206,481.114487588,481.439530467,481.614534914,nan,nan
0,160,4635,6,0,295,207,0.0860222946478,0.38372732295,0.554986075565,0,0.0,1.0,0.388889395632,0,0.0,0.0,0.367699500018,0.336576639448,0.042744237785,0.379320877233,0.293832401663,nan,nan,0.0,0.0,0.0,nan,nan,282.307053206,482.114619018,482.503508414,482.614646957,nan,nan
0,161,4636,6,1,107,75,1.0,-0.290089771429,-0.379592780214,1,1.0,1.0,0.300802721176,0,0.0,0.0,0.338244998517,0.336901563399,0.0428090375466,0.379710600946,0.294092525852,nan,nan,0.0,0.0,0.0,nan,nan,282.307053206,483.114722223,483.415524945,483.61477069,nan,nan
0,162,4637,6,1,438,307,0.243622561222,0.428096439079,-1.0,1,1.0,1.0,0.324627206195,0,0.0,0.0,0.338106441001,0.33667873104,0.0427702653882,0.379448996428,0.293908465651,nan,nan,0.0,0.0,0.0,nan,nan,282.307053206,484.11485907,484.439486276,484.614894137,nan,nan
0,163,4638,6,1,350,246,-0.175756816429,0.469490941964,0.138247479403,1,1.0,1.0,0.292517493479,0,0.0,0.0,0.305982473617,0.336604795304,0.04264924971,0.379254045014,0.293955545594,nan,nan,0.0,0.0,0.0,nan,nan,282.307053206,485.114961135,485.407478629,485.615024142,nan,nan
0,164,4639,6,1,51,35,1.0,-0.0385160204876,-1.0,1,1.0,1.0,0.340317850001,0,0.0,0.0,0.319154183225,0.336335970293,0.0426573181644,0.378993288458,0.293678652129,nan,nan,0.0,0.0,0.0,nan,nan,282.307053206,486.115131054,486.455448904,486.615136471,nan,nan
0,165,4640,6,1,286,201,0.169078956243,0.359734776014,0.594698705761,1,1.0,1.0,0.276198779233,0,0.0,0.0,0.303011374238,0.336360102898,0.0425289800176,0.378889082915,0.29383112288,nan,nan,0.0,0.0,0.0,nan,nan,282.307053206,487.115237965,487.391436744,487.615257352,nan,nan
0,166,4641,6,1,20,14,1.0,0.121558187834,-1.0,1,1.0,1.0,0.282007932663,0,0.0,0.0,0.299508187299,0.335997685285,0.0426554855766,0.378653170862,0.293342199709,nan,nan,0.0,0.0,0.0,nan,nan,282.307053206,488.165434569,488.447442501,488.665430007,nan,nan
0,167,4642,6,1,257,180,0.470472903111,0.261039853404,0.655841377839,1,1.0,1.0,0.313907242846,0,1.0,0.0,0.290704651581,0.335674393353,0.0427310803881,0.378405473741,0.292943312965,nan,nan,0.0,0.0,0.0,nan,nan,282.307053206,489.165498145,489.479405388,489.665551459,nan,nan
0,168,4648,6,1,341,239,-0.168535884224,0.46196150489,0.223260112086,1,1.0,1.0,0.329419700429,1,0.0,0.0,0.308444958646,0.335544826981,0.0426366041424,0.378181431124,0.292908222839,-155.658910063,349.0,-0.175656888649,0.468768509344,0.147945183432,5.89328506331,3.06733525917,282.307053206,490.173959849,490.503379549,490.673999478,492.007508621,495.082883354
0,169,4649,6,1,459,322,0.407758158413,0.385709174134,-1.0,1,1.0,1.0,0.475479306187,0,0.0,0.0,0.372935416487,0.335508583629,0.0425128687326,0.378021452361,0.292995714896,nan,nan,0.0,0.0,0.0,nan,nan,282.307053206,496.299786918,496.775266224,496.799780075,nan,nan
0,170,4650,6,1,168,118,1.0,-0.190790017254,0.230361799274,1,1.0,1.0,0.347408232745,0,0.0,0.0,0.38410241312,0.33633194082,0.043718194799,0.380050135619,0.292613746021,nan,nan,0.0,0.0,0.0,nan,nan,282.307053206,497.29986646,497.647274693,497.799918633,nan,nan
0,171,4651,6,1,12,8,0.942476689623,0.159273951266,-1.0,1,1.0,1.0,0.28330370225,0,0.0,0.0,0.368730413727,0.336396714457,0.0435983570023,0.37999507146,0.292798357455,nan,nan,0.0,0.0,0.0,nan,nan,282.307053206,498.299981354,498.583285057,498.800018132,nan,nan
0,172,4652,6,1,454,319,0.367627362238,0.397084843583,-1.0,1,1.0,1.0,0.30712419562,0,0.0,0.0,0.312612043538,0.336088034154,0.0436584351164,0.37974646927,0.292429599037,nan,nan,0.0,0.0,0.0,nan,nan,282.307053206,499.300104802,499.607228997,499.800145286,nan,nan
0,173,4653,6,0,86,60,1.0,-0.21659106269,-0.625617802914,0,0.0,1.0,0.378933779895,0,0.0,0.0,0.323120559255,0.335920613122,0.0435874110371,0.379508024159,0.292333202085,nan,nan,0.0,0.0,0.0,nan,nan,282.307053206,500.300263601,500.679197381,500.800295532,nan,nan
0,174,4654,6,1,12,8,0.942476689623,0.159273951266,-1.0,1,1.0,1.0,0.282810768113,0,0.0,0.0,0.322956247876,0.33616781523,0.0435834313484,0.379751246578,0.292584383881,nan,nan,0.0,0.0,0.0,nan,nan,282.307053206,501.300376215,501.583186983,501.800419835,nan,nan
0,175,4655,6,1,97,68,1.0,-0.260369742894,-0.491718830742,1,1.0,1.0,0.346664982382,0,0.0,0.0,0.33613651013,0.335862917818,0.0436444335171,0.379507351335,0.2922184843,nan,nan,0.0,0.0,0.0,nan,nan,282.307053206,502.300505364,502.647170347,502.800533589,nan,nan
0,176,4656,6,1,278,195,0.248285521772,0.335802812283,0.621962573991,1,1.0,1.0,0.282494594809,0,0.0,0.0,0.303990115101,0.335924293184,0.043527840007,0.379452133191,0.292396453177,nan,nan,0.0,0.0,0.0,nan,nan,282.307053206,503.300624535,503.58311913,503.800650194,nan,nan
0,177,4657,6,0,228,160,0.780729811514,0.1302769546,0.611433142569,0,1.0,0.0,0.282400227152,0,0.0,0.0,0.303853268114,0.335622430482,0.0435890559811,0.379211486463,0.292033374501,nan,nan,0.0,0.0,0.0,nan,nan,282.307053206,504.300737149,504.583137376,504.800815266,nan,nan
0,178,4658,6,1,393,276,-0.0489456633786,0.475102171109,-0.327443230616,1,1.0,1.0,0.298247104511,0,0.0,0.0,0.28771397549,0.335323429339,0.0436480894122,0.378971518752,0.291675339927,nan,nan,0.0,0.0,0.0,nan,nan,282.307053206,505.300873996,505.5991211,505.800918471,nan,nan
0,179,4659,6,1,271,190,0.320642857732,0.312811632898,0.639400143054,1,1.0,1.0,0.282095742878,0,0.0,0.0,0.287581024847,0.335116299033,0.0436136344382,0.378729933471,0.291502664595,nan,nan,0.0,0.0,0.0,nan,nan,282.307053206,506.301002575,506.583098317,506.801037927,nan,nan
0,180,4700,6,1,79,55,1.0,-0.184296021705,-0.724170777997,1,1.0,1.0,0.32989438856,0,0.0,0.0,0.303412411983,0.334821740388,0.043670499336,0.378492239724,0.291151241052,nan,nan,0.0,0.0,0.0,nan,nan,282.307053206,507.30116337,507.631057758,507.801191024,nan,nan
0,181,4701,6,1,122,85,1.0,-0.311159539646,-0.219144224573,1,1.0,1.0,0.353805827443,0,0.0,0.0,0.321931986293,0.33479451745,0.04355122702,0.37834574447,0.29124329043,nan,nan,0.0,0.0,0.0,nan,nan,282.307053206,508.301260874,508.655066701,508.801304779,nan,nan
0,182,4702,6,1,437,307,0.23613482661,0.429770237144,-1.0,1,1.0,1.0,0.329645782709,0,0.0,0.0,0.337781999571,0.334898975197,0.0434541466612,0.378353121858,0.291444828536,nan,nan,0.0,0.0,0.0,nan,nan,282.307053206,509.301378334,509.631024117,509.801419673,nan,nan
0,183,4703,6,1,371,260,-0.14179360683,0.478331938097,-0.0779732583494,1,1.0,1.0,0.345494370908,0,0.0,0.0,0.342981993686,0.334870269227,0.0433369872016,0.378207256429,0.291533282025,nan,nan,0.0,0.0,0.0,nan,nan,282.307053206,510.301505487,510.646999858,510.801548822,nan,nan
0,184,4704,6,1,217,152,0.891250405156,0.0735373331823,0.568048345461,1,1.0,1.0,0.401369553059,0,0.0,0.0,0.358836568892,0.33492800891,0.0432261208414,0.378154129751,0.291701888069,nan,nan,0.0,0.0,0.0,nan,nan,282.307053206,511.301632641,511.703002194,511.801676546,nan,nan
0,185,4705,6,1,457,321,0.391639248186,0.390358177281,-1.0,1,1.0,1.0,0.353244470432,0,0.0,0.0,0.366702798133,0.335287152392,0.0433835291309,0.378670681523,0.291903623261,nan,nan,0.0,0.0,0.0,nan,nan,282.307053206,512.301759224,512.655003695,512.801802559,nan,nan
0,186,4706,6,1,373,262,-0.135407706169,0.478559568072,-0.0996974893599,1,1.0,1.0,0.39308888698,0,0.0,1.0,0.382567636824,0.335383697112,0.0432866721002,0.378670369213,0.292097025012,nan,nan,0.0,0.0,0.0,nan,nan,282.307053206,513.301889799,513.694978686,513.801945678,nan,nan
0,187,4712,6,1,149,104,1.0,-0.269478519393,0.0541436597792,1,1.0,1.0,0.50026000943,1,0.0,0.0,0.415531122281,0.335692281016,0.043375427049,0.379067708065,0.292316853966,-43.1642252595,189.0,1.0,-0.0802194643608,0.400143472992,28.3986002595,2.56731473235,282.307053206,514.302012676,514.802272686,514.802109324,516.135554606,518.710879447
0,188,4713,6,1,388,272,-0.0739633693698,0.476941921698,-0.268577162136,1,1.0,1.0,0.351104810834,0,0.0,0.0,0.414817902415,0.336567641273,0.0448855196164,0.381453160889,0.291682121657,nan,nan,0.0,0.0,0.0,nan,nan,282.307053206,519.927754216,520.278859027,520.427811806,nan,nan
0,189,4714,6,1,475,333,0.539218753276,0.343659807328,-1.0,1,1.0,1.0,0.366938858759,0,0.0,0.0,0.406101226341,0.336644557514,0.0447790381649,0.381423595679,0.291865519349,nan,nan,0.0,0.0,0.0,nan,nan,282.307053206,520.927889923,521.294828781,521.427934968,nan,nan
0,190,4715,6,1,238,167,0.675741828754,0.178727669763,0.638511091232,1,1.0,1.0,0.390775602777,0,0.0,0.0,0.369606424123,0.336804001205,0.044714802765,0.38151880397,0.29208919844,nan,nan,0.0,0.0,0.0,nan,nan,282.307053206,521.928042735,522.318818338,522.428056705,nan,nan
0,191,4716,6,1,308,216,-0.0186828559465,0.413097475488,0.481682330771,1,1.0,1.0,0.406647569034,0,0.0,1.0,0.388120676856,0.337086575035,0.0447673605047,0.38185393554,0.29231921453,nan,nan,0.0,0.0,0.0,nan,nan,282.307053206,522.928156774,523.334804343,523.428167323,nan,nan
0,192,4721,6,1,427,300,0.163265173604,0.444863218481,-0.840208708629,1,1.0,1.0,0.37449138565,1,0.0,0.0,0.39063818582,0.337448871879,0.0449304899708,0.38237936185,0.292518381908,146.028036694,432.0,0.199227897075,0.437687328843,-1.0,3.73758830557,2.66729625734,282.307053206,523.928285068,524.302776454,524.428313293,525.761783663,528.437120249
0,193,4722,6,1,86,60,1.0,-0.21659106269,-0.625617802914,1,1.0,1.0,0.353030646686,0,0.0,0.0,0.37805653379,0.337640802002,0.0448927814583,0.38253358346,0.292748020544,nan,nan,0.0,0.0,0.0,nan,nan,282.307053206,529.645658758,529.998689405,530.14567786,nan,nan
0,194,4723,6,1,235,165,0.707591924495,0.164537776567,0.631659631194,1,1.0,1.0,0.376847148873,0,0.0,0.0,0.368123060403,0.337720131098,0.0447904893186,0.382510620417,0.29292964178,nan,nan,0.0,0.0,0.0,nan,nan,282.307053206,530.645806154,531.022653303,531.145836944,nan,nan
0,195,4724,6,1,60,42,1.0,-0.0867837676833,-1.0,1,1.0,1.0,0.384720980655,0,0.0,0.0,0.371532925405,0.337920782472,0.0447628240734,0.382683606545,0.293157958398,nan,nan,0.0,0.0,0.0,nan,nan,282.307053206,531.645922189,532.030643169,532.145961247,nan,nan
0,196,4725,6,1,421,296,0.121471671064,0.452518040197,-0.712610339232,1,1.0,1.0,0.368602404837,0,0.0,0.0,0.376723511455,0.338159558993,0.044772817434,0.382932376427,0.293386741559,nan,nan,0.0,0.0,0.0,nan,nan,282.307053206,532.646025679,533.014628084,533.146069299,nan,nan
0,197,4726,6,1,203,142,1.0,-0.00249325098487,0.493674673203,1,1.0,1.0,0.368407112546,0,0.0,0.0,0.373910166013,0.338314091205,0.0447114083906,0.383025499596,0.293602682815,nan,nan,0.0,0.0,0.0,nan,nan,282.307053206,533.64618961,534.014596723,534.14618904,nan,nan
0,198,4727,6,1,259,182,0.44882283482,0.268906983076,0.655011783756,1,1.0,1.0,0.368285090663,0,0.0,0.0,0.368431536015,0.338466076162,0.0446493461545,0.383115422316,0.293816730007,nan,nan,0.0,0.0,0.0,nan,nan,282.307053206,534.646292531,535.014577622,535.146340997,nan,nan
0,199,4728,6,1,3,2,0.871087178923,0.199335109687,-1.0,1,1.0,1.0,0.408135779668,0,0.0,0.0,0.381609327625,0.338615920455,0.0445869034334,0.383202823889,0.294029017022,nan,nan,0.0,0.0,0.0,nan,nan,282.307053206,535.646425671,536.054561451,536.146451615,nan,nan
0,200,4729,6,1,247,173,0.578947625354,0.219392674348,0.6523805853,1,1.0,1.0,0.424012307078,0,0.0,1.0,0.400144392469,0.338963519752,0.0447447899407,0.383708309692,0.294218729811,nan,nan,0.0,0.0,0.0,nan,nan,282.307053206,536.64655254,537.070564847,537.14658048,nan,nan
0,201,4735,6,1,86,60,1.0,-0.21659106269,-0.625617802914,1,1.0,1.0,0.463874114212,1,0.0,0.0,0.432007400319,0.339386648047,0.045032688793,0.38441933684,0.294353959254,31.8659776936,83.0,1.0,-0.203097876184,-0.665876706514,-2.3347276936,2.47559363069,282.307053206,537.646661447,538.110535562,538.146694519,539.471889069,541.955515616
0,202,4736,6,1,373,262,-0.135407706169,0.478559568072,-0.0996974893599,1,1.0,1.0,0.314082863275,0,0.0,0.0,0.400656428188,0.340002922632,0.0457628933201,0.385765815952,0.294240029312,nan,nan,0.0,0.0,0.0,nan,nan,282.307053206,543.172351042,543.486433905,543.672403785,nan,nan
0,203,4737,6,1,72,50,1.0,-0.149607777062,-0.853203742106,1,1.0,1.0,0.377913414501,0,0.0,0.0,0.385290130662,0.33987523761,0.0456860946006,0.385561332211,0.29418914301,nan,nan,0.0,0.0,0.0,nan,nan,282.307053206,544.172497297,544.550410712,544.672526662,nan,nan
0,204,4738,6,1,426,299,0.156193047225,0.446210853967,-0.81485970128,1,1.0,1.0,0.32179846568,0,0.0,0.0,0.337931581152,0.340061699262,0.0456513490088,0.38571304827,0.294410350253,nan,nan,0.0,0.0,0.0,nan,nan,282.307053206,545.172631293,545.494429759,545.672668071,nan,nan
0,205,4739,6,1,180,126,1.0,-0.129278616986,0.331238955499,1,1.0,1.0,0.345639200881,0,0.0,0.0,0.348450360354,0.339972610317,0.0455576415682,0.385530251886,0.294414968749,nan,nan,0.0,0.0,0.0,nan,nan,282.307053206,546.172777263,546.518416464,546.672786101,nan,nan
0,206,4740,6,1,380,267,-0.109519508899,0.478533032186,-0.177177385375,1,1.0,1.0,0.35347596975,0,0.0,0.0,0.340304545437,0.340000118039,0.0454486368018,0.38544875484,0.294551481237,nan,nan,0.0,0.0,0.0,nan,nan,282.307053206,547.172887311,547.526363281,547.67291411,nan,nan
0,207,4741,6,1,174,122,1.0,-0.160790688716,0.281981279739,1,1.0,1.0,0.319249975961,0,0.0,0.0,0.339455048864,0.340065218771,0.0453483516387,0.38541357041,0.294716867133,nan,nan,0.0,0.0,0.0,nan,nan,282.307053206,548.223110429,548.542360405,548.72307194,nan,nan
0,208,4742,6,1,242,170,0.632911854383,0.197161183215,0.645921401967,1,1.0,1.0,0.295163201634,0,0.0,0.0,0.322629715782,0.339965145489,0.0452621159686,0.385227261457,0.29470302952,nan,nan,0.0,0.0,0.0,nan,nan,282.307053206,549.223158895,549.518322097,549.723210498,nan,nan
0,209,4743,6,1,341,239,-0.168535884224,0.46196150489,0.223260112086,1,1.0,1.0,0.295026639476,0,0.0,0.0,0.30314660569,0.339750782121,0.0452594176831,0.385010199804,0.294491364438,nan,nan,0.0,0.0,0.0,nan,nan,282.307053206,550.223285764,550.518312403,550.72330572,nan,nan
0,210,4744,6,1,76,53,1.0,-0.169674511773,-0.773365826749,1,1.0,1.0,0.358882279601,0,0.0,0.0,0.31635737357,0.339537810013,0.0452563826461,0.384794192659,0.294281427367,nan,nan,0.0,0.0,0.0,nan,nan,282.307053206,551.223415483,551.582297763,551.723441997,nan,nan
0,211,4745,6,0,260,182,0.438016636947,0.272781976488,0.654406567654,0,0.0,1.0,0.430732062552,0,0.0,0.0,0.361546993876,0.339629489964,0.0451685558721,0.384798045836,0.294460934092,nan,nan,0.0,0.0,0.0,nan,nan,282.307053206,552.223558602,552.654290665,552.723589108,nan,nan
0,212,4746,6,1,61,42,1.0,-0.0921163965413,-1.0,1,1.0,1.0,0.358610581607,0,0.0,0.0,0.382741641253,0.34005921908,0.0454921929884,0.385551412068,0.294567026091,nan,nan,0.0,0.0,0.0,nan,nan,282.307053206,553.223650974,553.582261555,553.723688037,nan,nan
0,213,4747,6,1,260,182,0.438016636947,0.272781976488,0.654406567654,1,1.0,1.0,0.358481146861,0,0.0,0.0,0.38260793034,0.340146314678,0.0454029914302,0.385549306109,0.294743323248,nan,nan,0.0,0.0,0.0,nan,nan,282.307053206,554.223774991,554.582256138,554.72382802,nan,nan
0,214,4748,6,1,49,34,1.0,-0.027785429985,-1.0,1,1.0,1.0,0.342322087847,0,0.0,0.0,0.353137938771,0.340231991464,0.0453140408891,0.385546032354,0.294917950575,nan,nan,0.0,0.0,0.0,nan,nan,282.307053206,555.22390186,555.566223948,555.723941489,nan,nan
0,215,4749,6,1,260,182,0.438016636947,0.272781976488,0.654406567654,1,1.0,1.0,0.468793762382,0,0.0,1.0,0.389865665697,0.340241712843,0.0452087602515,0.385450473094,0.295032952591,nan,nan,0.0,0.0,0.0,nan,nan,282.307053206,556.25741682,556.726210582,556.757409407,nan,nan
0,216,4800,6,1,214,150,0.920243657418,0.0575410437433,0.553854850604,1,1.0,1.0,0.316638764925,1,0.0,0.0,0.375918205051,0.34083686122,0.0459404305639,0.386777291784,0.294896430657,-52.2142620392,202.0,1.0,-0.00802826454356,0.487596984314,-8.25448796079,7.6680358015,282.307053206,557.257542263,557.574181028,557.757538842,559.082702887,566.758680943
0,217,4801,6,1,358,251,-0.170583909915,0.474268316859,0.0585874414746,1,1.0,1.0,0.438744166866,0,0.0,0.0,0.408058898058,0.340725349256,0.0458637459171,0.386589095173,0.294861603339,nan,nan,0.0,0.0,0.0,nan,nan,282.307053206,567.967237698,568.405981865,568.467234848,nan,nan
0,218,4802,6,1,187,131,1.0,-0.0912463489427,0.385383214542,1,1.0,1.0,0.430636839941,0,0.0,0.0,0.395339923911,0.34117497686,0.0462353110208,0.38741028788,0.294939665839,nan,nan,0.0,0.0,0.0,nan,nan,282.307053206,568.967347461,569.397984301,569.467381102,nan,nan
0,219,4803,6,1,496,348,0.714833717156,0.274923884212,-1.0,1,1.0,1.0,0.366501518991,0,0.0,1.0,0.411960841933,0.341583478518,0.0465222659118,0.388105744429,0.295061212606,nan,nan,0.0,0.0,0.0,nan,nan,282.307053206,569.967470338,570.333971857,570.467513673,nan,nan
0,220,4808,6,1,371,260,-0.14179360683,0.478331938097,-0.0779732583494,1,1.0,1.0,0.294371199794,1,0.0,0.0,0.363836519575,0.341696742338,0.0464466671095,0.388143409447,0.295250075228,-174.942751467,377.0,-0.121259861678,0.478700828387,-0.143695900877,4.08337646744,2.01736673387,282.307053206,570.967597207,571.261968406,571.467626857,572.792781779,574.818080504
0,221,4809,6,1,254,178,0.503011129055,0.248947817922,0.65613358125,1,1.0,1.0,0.378938056529,0,0.0,0.0,0.346603591771,0.341482599611,0.0464501877597,0.387932787371,0.295032411852,nan,nan,0.0,0.0,0.0,nan,nan,282.307053206,576.034924483,576.413862539,576.534971524,nan,nan
0,222,4810,6,1,373,262,-0.135407706169,0.478559568072,-0.0996974893599,1,1.0,1.0,0.290804055519,0,0.0,0.0,0.321371103947,0.341651317886,0.0464132727607,0.388064590647,0.295238045125,nan,nan,0.0,0.0,0.0,nan,nan,282.307053206,577.035023697,577.325827753,577.535091265,nan,nan
0,223,4811,6,1,324,227,-0.114799643766,0.441158325109,0.368064040095,1,1.0,1.0,0.338675401174,0,0.0,0.0,0.336139171074,0.341423303256,0.046433541369,0.387856844625,0.294989761887,nan,nan,0.0,0.0,0.0,nan,nan,282.307053206,578.03514914,578.373824541,578.535219274,nan,nan
0,224,4812,6,1,209,146,0.967301840512,0.0304835193525,0.52804999659,1,1.0,1.0,0.386471196078,0,0.0,0.0,0.33865021759,0.341411035836,0.0463301413115,0.387741177148,0.295080894525,nan,nan,0.0,0.0,0.0,nan,nan,282.307053206,579.035314497,579.421785693,579.535347853,nan,nan
0,225,4813,6,1,401,281,-0.00506340639596,0.470796889516,-0.425203102762,1,1.0,1.0,0.37831511721,0,0.0,0.0,0.367820571487,0.341611303215,0.0463241410835,0.387935444299,0.295287162132,nan,nan,0.0,0.0,0.0,nan,nan,282.307053206,580.035451629,580.413766746,580.535449633,nan,nan
0,226,4814,6,1,157,110,1.0,-0.240048375319,0.130425901556,1,1.0,1.0,0.394207895733,0,0.0,0.0,0.386331403007,0.341773709472,0.0462856927395,0.388059402211,0.295488016732,nan,nan,0.0,0.0,0.0,nan,nan,282.307053206,581.035545996,581.429753892,581.535569659,nan,nan
0,227,4815,6,0,362,254,-0.164239727892,0.476000155386,0.0174578511848,0,0.0,1.0,0.490054932889,0,0.0,0.0,0.420859315277,0.342004697077,0.0463139926087,0.388318689685,0.295690704468,nan,nan,0.0,0.0,0.0,nan,nan,282.307053206,582.035696528,582.525751461,582.544057307,nan,nan
0,228,4816,6,1,297,208,0.0686262056446,0.388646276542,0.544904663634,1,1.0,1.0,0.425920751877,0,0.0,0.0,0.436727860166,0.342654040216,0.0472365519151,0.389890592131,0.295417488301,nan,nan,0.0,0.0,0.0,nan,nan,282.307053206,583.035813418,583.46173417,583.535820546,nan,nan
0,229,4817,6,1,89,62,1.0,-0.229484098413,-0.587370487375,1,1.0,1.0,0.34574810788,0,0.0,0.0,0.420574597549,0.343017650311,0.0474520032133,0.390469653524,0.295565647097,nan,nan,0.0,0.0,0.0,nan,nan,282.307053206,584.035954542,584.381702649,584.535952831,nan,nan
0,230,4818,6,1,478,336,0.56422249903,0.334793662244,-1.0,1,1.0,1.0,0.313634404447,0,0.0,0.0,0.361767754735,0.343029521865,0.0473490751223,0.390378596988,0.295680446743,nan,nan,0.0,0.0,0.0,nan,nan,282.307053206,585.036061738,585.349696143,585.536084831,nan,nan
0,231,4819,6,1,402,282,0.000724920831492,0.470139955471,-0.437811562499,1,1.0,1.0,0.337477990426,0,0.0,0.0,0.332286834251,0.342902270275,0.0472858747562,0.390188145031,0.295616395518,nan,nan,0.0,0.0,0.0,nan,nan,282.307053206,586.036204572,586.373682563,586.536218542,nan,nan
0,232,4820,6,1,246,172,0.589768841079,0.215019897151,0.651339528662,1,1.0,1.0,0.321325487923,0,0.0,0.0,0.324145960932,0.342878889758,0.0471851935964,0.390064083355,0.295693696162,nan,nan,0.0,0.0,0.0,nan,nan,282.307053206,587.036337998,587.357663486,587.536339424,nan,nan
0,233,4821,6,1,84,59,1.0,-0.20765784414,-0.652191087791,1,1.0,1.0,0.377198674716,0,0.0,0.0,0.345334051022,0.342786385888,0.0471049059406,0.389891291828,0.295681479947,nan,nan,0.0,0.0,0.0,nan,nan,282.307053206,588.036440918,588.413639593,588.536469428,nan,nan
0,234,4822,6,1,142,99,1.0,-0.289568116499,-0.0146273521697,1,1.0,1.0,0.337030387018,0,0.0,0.0,0.345184849886,0.342933446951,0.047057718653,0.389991165604,0.295875728298,nan,nan,0.0,0.0,0.0,nan,nan,282.307053206,589.036567502,589.373597889,589.536594871,nan,nan
0,235,4823,6,1,190,133,1.0,-0.0746884387243,0.407399635172,1,1.0,1.0,0.304963153787,0,0.0,0.0,0.339730738507,0.342908327547,0.0469590612507,0.389867388798,0.295949266296,nan,nan,0.0,0.0,0.0,nan,nan,282.307053206,590.036679545,590.341642699,590.536755667,nan,nan
0,236,4824,6,1,465,326,0.456588679398,0.37096152752,-1.0,1,1.0,1.0,0.296734090429,0,0.0,0.0,0.312909210411,0.342747542912,0.0469242443974,0.38967178731,0.295823298515,nan,nan,0.0,0.0,0.0,nan,nan,282.307053206,591.036846328,591.333580418,591.536860297,nan,nan
0,237,4825,6,1,22,15,1.0,0.111842423158,-1.0,1,1.0,1.0,0.22978656413,0,1.0,0.0,0.277161269449,0.342553393324,0.0469200368529,0.389473430177,0.295633356471,nan,nan,0.0,0.0,0.0,nan,nan,282.307053206,592.063799191,592.293585755,592.561986824,nan,nan
0,238,4831,6,1,197,138,1.0,-0.035797595552,0.455774741445,1,1.0,1.0,0.271475278772,1,0.0,0.0,0.265998644444,0.342079583117,0.0473861317204,0.389465714838,0.294693451397,-58.219084907,211.0,0.948675772315,0.0413606888024,0.538689155053,9.70345990702,2.70056888415,282.307053206,593.062066651,593.33354193,593.562118824,594.887267189,597.595947676
0,239,4832,6,1,371,260,-0.14179360683,0.478331938097,-0.0779732583494,1,1.0,1.0,0.320601054933,0,0.0,0.0,0.273954299279,0.341784167618,0.0475060064157,0.389290174033,0.294278161202,nan,nan,0.0,0.0,0.0,nan,nan,282.307053206,598.812859793,599.133460848,599.312841832,nan,nan
0,240,4833,6,1,157,110,1.0,-0.240048375319,0.130425901556,1,1.0,1.0,0.368460996076,0,0.0,0.0,0.320179109927,0.341695904648,0.0474265655544,0.389122470203,0.294269339094,nan,nan,0.0,0.0,0.0,nan,nan,282.307053206,599.812975543,600.181436539,600.312997495,nan,nan
0,241,4834,6,1,343,241,-0.171388175652,0.463836419185,0.204822810802,1,1.0,1.0,0.34435055824,0,0.0,0.0,0.34447086975,0.341806963119,0.0473593303166,0.389166293436,0.294447632802,nan,nan,0.0,0.0,0.0,nan,nan,282.307053206,600.813061072,601.157411631,601.313123224,nan,nan
0,242,4835,6,1,123,86,1.0,-0.311441137266,-0.208672863777,1,1.0,1.0,0.440191608854,0,0.0,0.0,0.384334387723,0.341817473843,0.0472616608392,0.389079134682,0.294555813003,nan,nan,0.0,0.0,0.0,nan,nan,282.307053206,601.813196779,602.253388388,602.313228425,nan,nan
0,243,4836,6,1,285,200,0.178734351563,0.356878681702,0.598527012995,1,1.0,1.0,0.352039361838,0,0.0,0.0,0.378860509644,0.342222305674,0.0475829133447,0.389805219019,0.294639392329,nan,nan,0.0,0.0,0.0,nan,nan,282.307053206,602.813326498,603.16536586,603.313369548,nan,nan
0,244,4837,6,0,30,21,1.0,0.071945658744,-1.0,0,0.0,1.0,0.383899328765,0,0.0,0.0,0.392043433152,0.342262539511,0.0474894489882,0.389751988499,0.294773090522,nan,nan,0.0,0.0,0.0,nan,nan,282.307053206,603.813476175,604.197375503,604.313503829,nan,nan
0,245,4838,6,1,451,317,0.343830962376,0.403518361206,-1.0,1,1.0,1.0,0.311738218646,0,0.0,0.0,0.349225636416,0.342432485589,0.0474667230771,0.389899208666,0.294965762512,nan,nan,0.0,0.0,0.0,nan,nan,282.307053206,604.81360732,605.125345538,605.313638396,nan,nan
0,246,4839,6,1,373,262,-0.135407706169,0.478559568072,-0.0996974893599,1,1.0,1.0,0.319626590237,0,0.0,0.0,0.338421379216,0.342307712146,0.0474103908337,0.38971810298,0.294897321313,nan,nan,0.0,0.0,0.0,nan,nan,282.307053206,605.813709385,606.133335975,606.313773817,nan,nan
0,247,4840,6,1,4,2,0.879126049628,0.195014037372,-1.0,1,1.0,1.0,0.326099166181,0,0.0,0.0,0.319154658355,0.342215885742,0.0473362363307,0.389552122073,0.294879649411,nan,nan,0.0,0.0,0.0,nan,nan,282.307053206,606.847213796,607.173312962,607.347221208,nan,nan
0,248,4841,6,1,305,214,0.00361192545304,0.406859252708,0.500196907155,1,1.0,1.0,0.333984402008,0,0.0,0.0,0.326570052809,0.342150898969,0.0472517434802,0.38940264245,0.294899155489,nan,nan,0.0,0.0,0.0,nan,nan,282.307053206,607.847294193,608.181278595,608.34732641,nan,nan
0,249,4842,6,1,386,271,-0.0833946583454,0.477495592553,-0.245424736514,1,1.0,1.0,0.333858673461,0,0.0,0.0,0.33131408055,0.342118101793,0.0471595933841,0.389277695177,0.294958508409,nan,nan,0.0,0.0,0.0,nan,nan,282.307053206,608.847432466,609.181291139,609.347464682,nan,nan
0,250,4843,6,1,66,46,1.0,-0.118568705386,-1.0,1,1.0,1.0,0.317742663901,0,0.0,0.0,0.32852857979,0.34208506408,0.0470680668851,0.389153130965,0.295016997195,nan,nan,0.0,0.0,0.0,nan,nan,282.307053206,609.84756076,610.165303424,610.347590695,nan,nan
0,251,4844,6,1,344,241,-0.172543464245,0.464730234515,0.195503824632,1,1.0,1.0,0.301533142105,0,0.0,0.0,0.317711493156,0.341988082406,0.0469992337716,0.388987316177,0.294988848634,nan,nan,0.0,0.0,0.0,nan,nan,282.307053206,610.84770844,611.149241582,611.347719844,nan,nan
0,252,4845,6,1,231,162,0.749609680972,0.145151270079,0.620821461523,1,1.0,1.0,0.325404953212,0,0.0,0.0,0.314893586406,0.341827546928,0.0469747918508,0.388802338779,0.294852755077,nan,nan,0.0,0.0,0.0,nan,nan,282.307053206,611.847818773,612.173223726,612.347836449,nan,nan
0,253,4846,6,1,182,127,1.0,-0.118523835432,0.347089474713,1,1.0,1.0,0.437279904261,0,0.0,0.0,0.354739333193,0.341762635491,0.0468931872255,0.388655822716,0.294869448265,nan,nan,0.0,0.0,0.0,nan,nan,282.307053206,612.847934238,613.285214142,613.347963603,nan,nan
0,254,4847,6,1,455,319,0.375608248681,0.394875365091,-1.0,1,1.0,1.0,0.429119264241,0,0.0,1.0,0.397268040571,0.34213868773,0.0471814763388,0.389320164069,0.294957211391,nan,nan,0.0,0.0,0.0,nan,nan,282.307053206,613.848069374,614.277188639,614.348090187,nan,nan
0,255,4852,6,1,84,59,1.0,-0.20765784414,-0.652191087791,1,1.0,1.0,0.452985087875,1,0.0,0.0,0.439794752126,0.34247978803,0.047401631717,0.389881419747,0.295078156313,28.1467812141,88.0,1.0,-0.225257592204,-0.599932847766,2.79071878588,2.83412495488,282.307053206,614.848180563,615.301165651,615.348219051,616.681719642,619.523788847
0,256,4853,6,1,414,291,0.0747837862165,0.460162189034,-0.600089175003,1,1.0,1.0,0.288763895631,0,0.0,0.0,0.390289415916,0.342911449357,0.047808495185,0.390719944542,0.295102954172,nan,nan,0.0,0.0,0.0,nan,nan,282.307053206,620.732298846,621.021062742,621.232307399,nan,nan
0,257,4854,6,1,480,337,0.580928072941,0.32870764083,-1.0,1,1.0,1.0,0.288635316305,0,0.0,0.0,0.34346143327,0.342700758487,0.0478343247895,0.390535083276,0.294866433697,nan,nan,0.0,0.0,0.0,nan,nan,282.307053206,621.732406898,622.021042215,622.232433983,nan,nan
0,258,4855,6,1,75,52,1.0,-0.164714458691,-0.791355921409,1,1.0,1.0,0.360481393524,0,0.0,0.0,0.312626868486,0.342491202509,0.0478595837695,0.390350786279,0.29463161874,nan,nan,0.0,0.0,0.0,nan,nan,282.307053206,622.7325446,623.093025994,623.232557715,nan,nan
0,259,4856,6,0,380,267,-0.109519508899,0.478533032186,-0.177177385375,0,0.0,1.0,0.400288462173,0,0.0,0.0,0.349801724001,0.342560662706,0.0477801292718,0.390340791978,0.294780533435,nan,nan,0.0,0.0,0.0,nan,nan,282.307053206,623.732735046,624.133023508,624.232714519,nan,nan
0,260,4857,6,1,259,182,0.44882283482,0.268906983076,0.655011783756,1,1.0,1.0,0.312179265078,0,0.0,0.0,0.357649706925,0.342782692704,0.0478218382933,0.390604530998,0.294960854411,nan,nan,0.0,0.0,0.0,nan,nan,282.307053206,624.732793491,625.044972756,625.232811737,nan,nan
0,261,4858,6,1,376,264,-0.124962824795,0.478704673615,-0.132627625282,1,1.0,1.0,0.392068236601,0,0.0,0.0,0.368178654617,0.342665438192,0.0477675693543,0.390433007547,0.294897868838,nan,nan,0.0,0.0,0.0,nan,nan,282.307053206,625.732912947,626.124981184,626.232938035,nan,nan
0,262,4859,6,1,501,352,0.7564492333,0.256253544744,-1.0,1,1.0,1.0,0.311922962312,0,0.0,0.0,0.338723487997,0.342853998492,0.0477735449761,0.390627543468,0.295080453516,nan,nan,0.0,0.0,0.0,nan,nan,282.307053206,626.733028411,627.044951374,627.233066615,nan,nan
0,263,4900,6,1,128,90,1.0,-0.310663006781,-0.156689791083,1,1.0,1.0,0.367758230306,0,0.0,0.0,0.357249809739,0.342736389989,0.0477206195454,0.390457009534,0.295015770444,nan,nan,0.0,0.0,0.0,nan,nan,282.307053206,627.73316982,628.10092805,628.233210589,nan,nan
0,264,4901,6,1,285,200,0.178734351563,0.356878681702,0.598527012995,1,1.0,1.0,0.319624309428,0,0.0,0.0,0.333101834015,0.342831169687,0.0476549486789,0.390486118366,0.295176221008,nan,nan,0.0,0.0,0.0,nan,nan,282.307053206,628.733299254,629.052923564,629.233348576,nan,nan
0,265,4902,6,1,47,33,1.0,-0.0170755915744,-1.0,1,1.0,1.0,0.271465015132,0,0.0,0.0,0.319615851622,0.34274359663,0.0475862266951,0.390329823325,0.295157369935,nan,nan,0.0,0.0,0.0,nan,nan,282.307053206,629.733450356,630.004915372,630.233474875,nan,nan
0,266,4903,6,1,132,92,1.0,-0.307426825298,-0.115555361894,1,1.0,1.0,0.335303549189,0,0.0,0.0,0.308797624583,0.342475632038,0.0476965862092,0.390172218247,0.294779045828,nan,nan,0.0,0.0,0.0,nan,nan,282.307053206,630.73357865,631.068882199,631.23360545,nan,nan
0,267,4904,6,1,492,345,0.681403316433,0.289222019555,-1.0,1,1.0,1.0,0.303174165078,0,0.0,0.0,0.303314243133,0.342448770304,0.0476091987263,0.39005796903,0.294839571578,nan,nan,0.0,0.0,0.0,nan,nan,282.307053206,631.733688128,632.036862293,632.233706659,nan,nan
0,268,4905,6,1,209,146,0.967301840512,0.0304835193525,0.52804999659,1,1.0,1.0,0.303027054761,0,0.0,0.0,0.313834923009,0.34230222327,0.0475805875118,0.389882810781,0.294721635758,nan,nan,0.0,0.0,0.0,nan,nan,282.307053206,632.733823834,633.036850889,633.233862893,nan,nan
0,269,4906,6,1,279,196,0.238157575771,0.338930353633,0.618978422254,1,1.0,1.0,0.302879659459,0,0.0,0.0,0.303026959766,0.342156218926,0.0475521745562,0.389708393482,0.294604044369,nan,nan,0.0,0.0,0.0,nan,nan,282.307053206,633.733960396,634.036840056,634.233962107,nan,nan
0,270,4907,6,1,108,75,1.0,-0.292426609412,-0.368663285579,1,1.0,1.0,0.326753750909,0,0.0,0.0,0.31088682171,0.342010750187,0.0475239603375,0.389534710524,0.294486789849,nan,nan,0.0,0.0,0.0,nan,nan,282.307053206,634.734066738,635.060820489,635.234120336,nan,nan
0,271,4908,6,1,265,186,0.384259149088,0.291568309415,0.649478858709,1,1.0,1.0,0.302640747279,0,0.0,0.0,0.310758052549,0.341954451297,0.0474452162127,0.389399667509,0.294509235084,nan,nan,0.0,0.0,0.0,nan,nan,282.307053206,635.734178781,636.036819528,636.234220691,nan,nan
0,272,4910,6,1,379,266,-0.113535935895,0.478614986251,-0.165970515924,1,1.0,1.0,0.259422768373,0,0.0,0.0,0.296272422187,0.34180991562,0.0474176546232,0.389227570243,0.294392260997,nan,nan,0.0,0.0,0.0,nan,nan,282.307053206,636.809337695,637.068760463,637.309388727,nan,nan
0,273,4911,6,1,212,149,0.93926288676,0.0467731277665,0.543851001166,1,1.0,1.0,0.275321247987,0,1.0,0.0,0.279128254546,0.341508131198,0.0475917012922,0.38909983249,0.293916429906,nan,nan,0.0,0.0,0.0,nan,nan,282.307053206,637.809442611,638.084763859,638.309482525,nan,nan
0,274,4916,6,1,18,12,0.988682696815,0.131162580546,-1.0,1,1.0,1.0,0.305836693384,1,0.0,0.0,0.280193569915,0.34126657323,0.0476721442423,0.388938717472,0.293594428988,87.4775877166,4.0,0.879126049628,0.195014037372,-1.0,-10.1338377166,2.12566684373,282.307053206,638.842955575,639.148792268,639.342965268,640.668112778,642.801719026
0,275,4917,6,1,272,191,0.310166696092,0.316214117232,0.637281430288,1,1.0,1.0,0.375039058272,0,0.0,0.0,0.318732333214,0.341137737303,0.0476331529309,0.388770890234,0.293504584372,nan,nan,0.0,0.0,0.0,nan,nan,282.307053206,644.093587351,644.46862641,644.593620993,nan,nan
0,276,4918,6,1,469,329,0.489482198204,0.360453357602,-1.0,1,1.0,1.0,0.374903066549,0,0.0,0.0,0.351926272735,0.341260568176,0.0475903938297,0.388850962006,0.293670174347,nan,nan,0.0,0.0,0.0,nan,nan,282.307053206,645.093729045,645.468632112,645.593779508,nan,nan
0,277,4919,6,1,245,172,0.600577697281,0.210610106048,0.650172825369,1,1.0,1.0,0.315723030828,0,0.0,0.0,0.35522171855,0.341382021239,0.0475472447218,0.388929265961,0.293834776517,nan,nan,0.0,0.0,0.0,nan,nan,282.307053206,646.168860589,646.48458362,646.668892235,nan,nan
0,278,4920,6,1,456,320,0.383612429175,0.392633185378,-1.0,1,1.0,1.0,0.283656938467,0,0.0,0.0,0.324761011948,0.341289722712,0.0474865042788,0.388776226991,0.293803218434,nan,nan,0.0,0.0,0.0,nan,nan,282.307053206,647.168975484,647.452632422,647.669014257,nan,nan
0,279,4921,6,0,159,111,1.0,-0.231765974528,0.149055008463,0,0.0,1.0,0.411354534328,0,0.0,0.0,0.336911501208,0.341083153593,0.0475262900761,0.388609443669,0.293556863517,nan,nan,0.0,0.0,0.0,nan,nan,282.307053206,648.169202421,648.580556956,648.669172201,nan,nan
0,280,4922,6,1,303,213,0.0191349273956,0.402522842081,0.512018356663,1,1.0,1.0,0.339310599491,0,0.0,0.0,0.344774024095,0.34133412281,0.0476261929847,0.388960315795,0.293707929825,nan,nan,0.0,0.0,0.0,nan,nan,282.307053206,649.169237203,649.508547803,649.669272556,nan,nan
0,281,4923,6,0,32,22,1.0,0.061735800531,-1.0,0,0.0,1.0,0.459156315774,0,0.0,0.0,0.403273816531,0.34132692166,0.0475415260467,0.388868447706,0.293785395613,nan,nan,0.0,0.0,0.0,nan,nan,282.307053206,650.169385454,650.62854177,650.669419951,nan,nan
0,282,4924,6,1,499,350,0.739831889234,0.263827757734,-1.0,1,1.0,1.0,0.283030008432,0,0.0,0.0,0.360498974565,0.34174475639,0.0479712460152,0.389716002406,0.293773510375,nan,nan,0.0,0.0,0.0,nan,nan,282.307053206,651.169501204,651.452531212,651.669527148,nan,nan
0,283,4925,6,1,165,116,1.0,-0.205056383665,0.203745440608,1,1.0,1.0,0.346859419718,0,0.0,0.0,0.363015247975,0.341537283783,0.0480129931327,0.389550276916,0.29352429065,nan,nan,0.0,0.0,0.0,nan,nan,282.307053206,652.169637766,652.516497185,652.669657438,nan,nan
0,284,4926,6,0,66,46,1.0,-0.118568705386,-1.0,0,0.0,1.0,0.38670554664,0,0.0,0.0,0.338864991597,0.341556023698,0.0479294254718,0.38948544917,0.293626598226,nan,nan,0.0,0.0,0.0,nan,nan,282.307053206,653.16975152,653.556457066,653.669795425,nan,nan
0,285,4927,6,1,196,137,1.0,-0.0413610816081,0.449130757868,1,1.0,1.0,0.306566258892,0,0.0,0.0,0.346710408417,0.341714443077,0.0479196914974,0.389634134574,0.293794751579,nan,nan,0.0,0.0,0.0,nan,nan,282.307053206,654.169900911,654.47646717,654.669932842,nan,nan
0,286,4928,6,1,92,64,1.0,-0.241703663401,-0.55060883727,1,1.0,1.0,0.30647502793,0,0.0,0.0,0.333248944487,0.341591547328,0.0478808133008,0.389472360629,0.293710734027,nan,nan,0.0,0.0,0.0,nan,nan,282.307053206,655.170035477,655.476510505,655.670038043,nan,nan
0,287,4929,6,1,468,329,0.481236483515,0.363131620867,-1.0,1,1.0,1.0,0.312266505323,0,0.0,0.0,0.308435930715,0.341469190118,0.0478420945788,0.389311284696,0.293627095539,nan,nan,0.0,0.0,0.0,nan,nan,282.307053206,656.22015824,656.532424746,656.720181048,nan,nan
0,288,4930,6,0,80,56,1.0,-0.189075709245,-0.708965549488,0,0.0,1.0,0.392107294872,0,0.0,0.0,0.336949609375,0.341367791906,0.0477898459994,0.389157637906,0.293577945907,nan,nan,0.0,0.0,0.0,nan,nan,282.307053206,657.220294802,657.612402097,657.720320746,nan,nan
0,289,4931,6,1,360,253,-0.167709501072,0.475188317955,0.0381258551808,1,1.0,1.0,0.35199089488,0,0.0,0.0,0.352121565025,0.341543361121,0.0478000438133,0.389343404934,0.293743317308,nan,nan,0.0,0.0,0.0,nan,nan,282.307053206,658.220396867,658.572387762,658.720445049,nan,nan
0,290,4932,6,0,459,322,0.407758158413,0.385709174134,-1.0,0,1.0,0.0,0.343802885618,0,0.0,0.0,0.36263369179,0.341579387099,0.0477214888729,0.389300875972,0.293857898226,nan,nan,0.0,0.0,0.0,nan,nan,282.307053206,659.22057876,659.564381646,659.72057762,nan,nan
0,291,4933,6,1,127,89,1.0,-0.31111021432,-0.167036648065,1,1.0,1.0,0.367686100304,0,0.0,0.0,0.354493293601,0.341587027988,0.0476396003236,0.389226628311,0.293947427664,nan,nan,0.0,0.0,0.0,nan,nan,282.307053206,660.220671417,660.588357517,660.720691659,nan,nan
0,292,4934,6,1,263,184,0.405698801511,0.284171736334,0.651829885785,1,1.0,1.0,0.34356026724,0,0.0,0.0,0.351683084387,0.341676408372,0.0475823907244,0.389258799097,0.294094017648,nan,nan,0.0,0.0,0.0,nan,nan,282.307053206,661.220771486,661.564331753,661.720819952,nan,nan
0,293,4935,6,1,131,92,1.0,-0.308451667147,-0.125800503078,1,1.0,1.0,0.359406859614,0,0.0,0.0,0.356884409053,0.341682837925,0.0475012497652,0.38918408769,0.29418158816,nan,nan,0.0,0.0,0.0,nan,nan,282.307053206,662.220907478,662.580314337,662.720932281,nan,nan
0,294,4936,6,1,329,231,-0.136053278316,0.448203788942,0.3278337444,1,1.0,1.0,0.327232715208,0,0.0,0.0,0.343399947354,0.341743123713,0.0474316231846,0.389174746897,0.294311500528,nan,nan,0.0,0.0,0.0,nan,nan,282.307053206,663.221069983,663.548302698,663.721100204,nan,nan
0,295,4937,6,1,505,355,0.789537956352,0.240683140511,-1.0,1,1.0,1.0,0.341755597852,0,0.0,0.0,0.342798390891,0.341693935887,0.0473586728344,0.389052608722,0.294335263053,nan,nan,0.0,0.0,0.0,nan,nan,282.307053206,664.254550446,664.596306044,664.754530774,nan,nan
0,296,4938,6,1,181,127,1.0,-0.123914391386,0.3392011262,1,1.0,1.0,0.413614504505,0,0.0,0.0,0.360867605855,0.341694144205,0.0472786075316,0.388972751736,0.294415536673,nan,nan,0.0,0.0,0.0,nan,nan,282.307053206,665.254657643,665.668272147,665.754656787,nan,nan
0,297,4939,6,0,354,248,-0.174470673547,0.472100788149,0.0988677247603,0,0.0,1.0,0.405485795345,0,0.0,0.0,0.386951965901,0.3419363003,0.0473824639879,0.389318764288,0.294553836312,nan,nan,0.0,0.0,0.0,nan,nan,282.307053206,666.254782801,666.660268596,666.754812736,nan,nan
0,298,4940,6,1,493,346,0.689769084006,0.285700779988,-1.0,1,1.0,1.0,0.317405108362,0,0.0,0.0,0.378835136071,0.342149553639,0.0474454494451,0.389595003084,0.294704104194,nan,nan,0.0,0.0,0.0,nan,nan,282.307053206,667.254876313,667.572281421,667.754945307,nan,nan
0,299,4941,6,1,184,129,1.0,-0.107671891867,0.362640045218,1,1.0,1.0,0.325207950082,0,0.0,0.0,0.349366284596,0.342066796297,0.0473875821744,0.389454378472,0.294679214123,nan,nan,0.0,0.0,0.0,nan,nan,282.307053206,668.255017437,668.580225387,668.755080728,nan,nan
0,300,4942,6,1,318,223,-0.0835627602325,0.431640264478,0.413481556053,1,1.0,1.0,0.31708408799,0,0.0,0.0,0.319899048811,0.342010600143,0.0473185155321,0.389329115675,0.294692084611,nan,nan,0.0,0.0,0.0,nan,nan,282.307053206,669.255129765,669.572213853,669.755165402,nan,nan
0,301,4943,6,1,367,258,-0.15309091083,0.477560897992,-0.0350816338538,1,1.0,1.0,0.337570647243,0,0.0,0.0,0.326620895105,0.34192778781,0.0472616186715,0.389189406482,0.294666169139,nan,nan,0.0,0.0,0.0,nan,nan,282.307053206,670.28261348,670.620184127,670.788639593,nan,nan
0,302,4944,6,1,191,134,1.0,-0.0691479807067,0.414571651978,1,1.0,1.0,0.299776939675,0,0.0,0.0,0.318143891636,0.341913360193,0.0471839700248,0.389097330217,0.294729390168,nan,nan,0.0,0.0,0.0,nan,nan,282.307053206,671.280383445,671.580160385,671.780462132,nan,nan
0,303,4945,6,1,72,50,1.0,-0.149607777062,-0.853203742106,1,1.0,1.0,0.291641958524,0,0.0,0.0,0.309663181814,0.341774296098,0.0471679948448,0.388942290943,0.294606301254,nan,nan,0.0,0.0,0.0,nan,nan,282.307053206,672.280500905,672.572142864,672.780556784,nan,nan
0,304,4946,6,1,503,353,0.773020196022,0.248538461814,-1.0,1,1.0,1.0,0.251477377024,0,1.0,0.0,0.280965425074,0.341609387093,0.0471777630949,0.388787150188,0.294431623998,nan,nan,0.0,0.0,0.0,nan,nan,282.307053206,673.2806617,673.532139077,673.78069078,nan,nan
0,305,4951,6,1,267,187,0.362924526182,0.298807232282,0.646622522267,1,1.0,1.0,0.283323373646,1,0.0,0.0,0.275480903064,0.341313872306,0.0473813447557,0.388695217062,0.293932527551,-99.0115063507,269.0,0.34171296506,0.305888347675,0.643262349404,1.27713135074,2.11726700654,282.307053206,674.280789995,674.564113368,674.780809381,676.114313678,678.239606474
0,306,4952,6,1,152,106,1.0,-0.259184487343,0.0830625546756,1,1.0,1.0,0.379896555096,0,0.0,0.0,0.304899101922,0.341124360873,0.0474195023613,0.388543863234,0.293704858511,nan,nan,0.0,0.0,0.0,nan,nan,282.307053206,679.448129872,679.828026427,679.948133579,nan,nan
0,307,4953,6,1,59,41,1.0,-0.0814409933332,-1.0,1,1.0,1.0,0.371772122569,0,0.0,0.0,0.344997350437,0.341250654665,0.0473937282936,0.388644382958,0.293856926371,nan,nan,0.0,0.0,0.0,nan,nan,282.307053206,680.448238494,680.820010617,680.948286676,nan,nan
0,308,4954,6,1,281,197,0.218083397074,0.345068392493,0.612644422055,1,1.0,1.0,0.379650800489,0,0.0,0.0,0.377106492718,0.34134975034,0.0473485740229,0.388698324363,0.294001176317,nan,nan,0.0,0.0,0.0,nan,nan,282.307053206,681.448390737,681.828041537,681.948393587,nan,nan
0,309,4955,6,1,130,91,1.0,-0.309333154106,-0.136071487739,1,1.0,1.0,0.331451022532,0,0.0,0.0,0.360957981863,0.341473701959,0.047321921727,0.388795623686,0.294151780232,nan,nan,0.0,0.0,0.0,nan,nan,282.307053206,682.448525873,682.779976896,682.948541839,nan,nan
0,310,4956,6,0,416,292,0.087881616042,0.458117504295,-0.630165317015,0,0.0,1.0,0.371301996056,0,0.0,0.0,0.360801273026,0.341441370735,0.0472489525851,0.38869032332,0.294192418149,nan,nan,0.0,0.0,0.0,nan,nan,282.307053206,683.448643333,683.819945329,683.94867612,nan,nan
0,311,4957,6,1,14,9,0.95801504718,0.150023555696,-1.0,1,1.0,1.0,0.286949818023,0,0.0,0.0,0.329900945537,0.341537385607,0.047203209916,0.388740595523,0.294334175691,nan,nan,0.0,0.0,0.0,nan,nan,282.307053206,684.460979516,684.747929334,684.965456693,nan,nan
0,312,4958,6,1,473,332,0.522594813828,0.349396171415,-1.0,1,1.0,1.0,0.282672495581,0,0.0,0.0,0.313641436553,0.341362425454,0.0472283980292,0.388590823484,0.294134027425,nan,nan,0.0,0.0,0.0,nan,nan,282.307053206,685.45723105,685.739903545,685.957238462,nan,nan
0,313,4959,6,1,216,151,0.900975005756,0.0682271079607,0.563426584804,1,1.0,1.0,0.298533913214,0,1.0,0.0,0.289385408939,0.341174917691,0.0472690699262,0.388443987617,0.293905847765,nan,nan,0.0,0.0,0.0,nan,nan,282.307053206,686.457361625,686.755895538,686.957368467,nan,nan
0,314,5005,6,1,289,203,0.140592130943,0.368073254824,0.582505265782,1,1.0,1.0,0.282379129902,1,0.0,0.0,0.287861846232,0.341039118314,0.0472548552009,0.388293973515,0.293784263113,-114.44395478,291.0,0.122027637739,0.373441943191,0.573791926984,1.24082978042,2.46704383194,282.307053206,687.457490774,687.739869904,687.957503033,689.282974129,691.757969054
0,315,5006,6,1,98,68,1.0,-0.263822910468,-0.480217789416,1,1.0,1.0,0.324888925999,0,0.0,0.0,0.301933989705,0.340852896129,0.0472950472667,0.388147943395,0.293557848862,nan,nan,0.0,0.0,0.0,nan,nan,282.307053206,692.974883167,693.299772093,693.474886018,nan,nan
0,316,5007,6,1,296,208,0.0772713571413,0.386205321608,0.550001308524,1,1.0,1.0,0.380803451408,0,0.0,0.0,0.329357169103,0.340802377236,0.0472286658383,0.388031043074,0.293573711397,nan,nan,0.0,0.0,0.0,nan,nan,282.307053206,693.974954726,694.355758178,694.474990364,nan,nan
0,317,5008,6,0,116,81,1.0,-0.306446923025,-0.282515442494,0,0.0,1.0,0.404607979115,0,0.0,0.0,0.370100118841,0.34092856359,0.0472074371057,0.388136000695,0.293721126484,nan,nan,0.0,0.0,0.0,nan,nan,282.307053206,694.975132057,695.379740036,695.475144601,nan,nan
0,318,5009,6,1,192,135,1.0,-0.0635997558896,0.421658406928,1,1.0,1.0,0.316499922425,0,0.0,0.0,0.367303784316,0.341128813324,0.0472678094488,0.388396622773,0.293861003875,nan,nan,0.0,0.0,0.0,nan,nan,282.307053206,695.975232412,696.291732334,696.475268619,nan,nan
0,319,5010,6,1,394,277,-0.0437090198531,0.474655926729,-0.339401417396,1,1.0,1.0,0.348354757298,0,0.0,0.0,0.356487552946,0.341051606769,0.0472137422335,0.388265349003,0.293837864536,nan,nan,0.0,0.0,0.0,nan,nan,282.307053206,696.975366123,697.32372088,697.475378667,nan,nan
0,320,5011,6,1,178,125,1.0,-0.139919655122,0.315097826042,1,1.0,1.0,0.364202205092,0,0.0,0.0,0.343018961605,0.341074429115,0.0471416753553,0.38821610447,0.29393275376,nan,nan,0.0,0.0,0.0,nan,nan,282.307053206,697.975483012,698.339685217,698.475511237,nan,nan
0,321,5012,6,1,510,358,0.830554458933,0.220436700166,-1.0,1,1.0,1.0,0.356038998812,0,0.0,0.0,0.356198653734,0.341146478261,0.0470858315291,0.38823230979,0.294060646732,nan,nan,0.0,0.0,0.0,nan,nan,282.307053206,698.975633544,699.331672543,699.475631549,nan,nan
0,322,5013,6,1,389,273,-0.0691208065164,0.476626077068,-0.280234315682,1,1.0,1.0,0.387903527357,0,0.0,0.0,0.369381577087,0.341192728325,0.0470199621864,0.388212690511,0.294172766139,nan,nan,0.0,0.0,0.0,nan,nan,282.307053206,699.975739601,700.363643128,700.475759272,nan,nan
0,323,5014,6,1,82,57,1.0,-0.198479155091,-0.679872484948,1,1.0,1.0,0.331805684138,0,0.0,0.0,0.358582736769,0.341337343802,0.0470187857659,0.388356129568,0.294318558036,nan,nan,0.0,0.0,0.0,nan,nan,282.307053206,700.975847083,701.307652767,701.475885286,nan,nan
0,324,5015,6,1,353,248,-0.175041255135,0.471490071959,0.108799216003,1,1.0,1.0,0.331641752739,0,0.0,0.0,0.350450321411,0.341307925099,0.0469491470208,0.38825707212,0.294358778078,nan,nan,0.0,0.0,0.0,nan,nan,282.307053206,701.975971955,702.307613708,702.476008163,nan,nan
0,325,5016,6,0,154,108,1.0,-0.251813147593,0.102138173725,0,0.0,1.0,0.539455827791,0,0.0,0.0,0.400967754889,0.34127818303,0.0468799188413,0.388158101872,0.294398264189,nan,nan,0.0,0.0,0.0,nan,nan,282.307053206,702.976139593,703.515595421,703.476177226,nan,nan
0,326,5017,6,1,282,198,0.208142307666,0.34807905204,0.609295500931,1,1.0,1.0,0.307349992916,0,0.0,0.0,0.392815857815,0.341886089916,0.0480737901712,0.389959880087,0.293812299745,nan,nan,0.0,0.0,0.0,nan,nan,282.307053206,703.97624793,704.283597923,704.476273874,nan,nan
0,327,5018,6,1,441,310,0.266287261384,0.422891888867,-1.0,1,1.0,1.0,0.315212990623,0,0.0,0.0,0.387339603777,0.341780474941,0.0480380903509,0.389818565291,0.29374238459,nan,nan,0.0,0.0,0.0,nan,nan,282.307053206,704.976374228,705.291587219,705.476392759,nan,nan
0,328,5019,6,1,57,40,1.0,-0.0707313323512,-1.0,1,1.0,1.0,0.32304605376,0,0.0,0.0,0.315203012433,0.341699476513,0.0479871643798,0.389686640893,0.293712312133,nan,nan,0.0,0.0,0.0,nan,nan,282.307053206,705.976503663,706.299549717,706.476528181,nan,nan
0,329,5020,6,0,432,303,0.199227897075,0.437687328843,-1.0,0,0.0,1.0,0.402892545797,0,0.0,0.0,0.34705053006,0.341642779179,0.0479251816406,0.38956796082,0.293717597539,nan,nan,0.0,0.0,0.0,nan,nan,282.307053206,706.976653054,707.3795456,707.476679283,nan,nan
0,330,5021,6,1,338,237,-0.162891363375,0.458928707883,0.250399161362,1,1.0,1.0,0.290738767944,0,0.0,0.0,0.338892455834,0.341828384533,0.0479707911204,0.389799175653,0.293857593412,nan,nan,0.0,0.0,0.0,nan,nan,282.307053206,707.976773365,708.267512133,708.476776787,nan,nan
0,331,5022,6,1,449,315,0.328095008353,0.407646248688,-1.0,1,1.0,1.0,0.290604202077,0,0.0,0.0,0.328078505273,0.341674035238,0.0479802706027,0.38965430584,0.293693764635,nan,nan,0.0,0.0,0.0,nan,nan,282.307053206,708.976887689,709.267491892,709.476944709,nan,nan
0,332,5023,6,1,108,75,1.0,-0.292426609412,-0.368663285579,1,1.0,1.0,0.338444757275,0,0.0,0.0,0.306595909099,0.341520210439,0.047989628635,0.389509839074,0.293530581804,nan,nan,0.0,0.0,0.0,nan,nan,282.307053206,709.977032234,710.315476991,710.477056182,nan,nan
0,333,5024,6,1,7,4,0.9030914636,0.181853060355,-1.0,1,1.0,1.0,0.306343597826,0,0.0,0.0,0.311797519059,0.341510974844,0.0479178134473,0.389428788291,0.293593161397,nan,nan,0.0,0.0,0.0,nan,nan,282.307053206,710.977121185,711.283464782,711.477163094,nan,nan
0,334,5025,6,1,153,107,1.0,-0.255547855702,0.0926213922694,1,1.0,1.0,0.330161809921,0,0.0,0.0,0.324983388341,0.341405683296,0.0478845902717,0.389290273568,0.293521093024,nan,nan,0.0,0.0,0.0,nan,nan,282.307053206,711.977285971,712.307447781,712.4773122,nan,nan
0,335,5026,6,1,344,241,-0.172543464245,0.464730234515,0.195503824632,1,1.0,1.0,0.30602001166,0,0.0,0.0,0.314175139802,0.341372119495,0.0478170018615,0.389189121356,0.293555117633,nan,nan,0.0,0.0,0.0,nan,nan,282.307053206,712.97741455,713.283434562,713.477425669,nan,nan
0,336,5027,6,1,468,329,0.481236483515,0.363131620867,-1.0,1,0.0,0.0,0.393875756301,0,0.0,0.0,0.343352525961,0.341266904888,0.0477846125619,0.38905151745,0.293482292326,nan,nan,0.0,0.0,0.0,nan,nan,282.307053206,713.977524313,714.371400069,714.47757563,nan,nan
0,337,5028,6,1,232,163,0.739158239773,0.150046616059,0.623712016981,1,1.0,1.0,0.305762568023,0,0.0,0.0,0.335219445328,0.34142301424,0.0477993931444,0.389222407384,0.293623621095,nan,nan,0.0,0.0,0.0,nan,nan,282.307053206,714.977634646,715.283397214,715.477672564,nan,nan
0,338,5029,6,1,49,34,1.0,-0.027785429985,-1.0,1,1.0,1.0,0.337622535415,0,0.0,0.0,0.345753619913,0.341317509961,0.0477679125927,0.389085422554,0.293549597368,nan,nan,0.0,0.0,0.0,nan,nan,282.307053206,715.977802283,716.315424819,716.477832789,nan,nan
0,339,5030,6,1,355,249,-0.173737462994,0.472683863687,0.0888799762457,1,1.0,1.0,0.35345544247,0,0.0,0.0,0.332280181969,0.341306610331,0.0476978273438,0.389004437675,0.293608782987,nan,nan,0.0,0.0,0.0,nan,nan,282.307053206,716.977904634,717.331360076,717.477938845,nan,nan
0,340,5031,6,0,281,197,0.218083397074,0.345068392493,0.612644422055,0,0.0,1.0,0.465249426663,0,0.0,0.0,0.385442468182,0.34134234219,0.0476321754396,0.38897451763,0.293710166751,nan,nan,0.0,0.0,0.0,nan,nan,282.307053206,717.978081679,718.443331106,718.478078543,nan,nan
0,341,5032,6,1,341,239,-0.168535884224,0.46196150489,0.223260112086,1,1.0,1.0,0.361195278354,0,0.0,0.0,0.393300049162,0.341705706074,0.0480318854518,0.389737591526,0.293673820622,nan,nan,0.0,0.0,0.0,nan,nan,282.307053206,718.978144401,719.339339679,719.478197714,nan,nan
0,342,5033,6,1,168,118,1.0,-0.190790017254,0.230361799274,1,1.0,1.0,0.352969920728,0,0.0,0.0,0.393138208582,0.341762693128,0.0479731553106,0.389735848438,0.293789537817,nan,nan,0.0,0.0,0.0,nan,nan,282.307053206,719.978314319,720.33128424,720.47833228,nan,nan
0,343,5034,6,0,226,158,0.801265930663,0.120208988367,0.60458276857,0,0.0,1.0,0.440836784896,0,0.0,0.0,0.385000661326,0.341795367261,0.0479069834096,0.38970235067,0.293888383851,nan,nan,0.0,0.0,0.0,nan,nan,282.307053206,720.978434345,721.41927113,721.47846371,nan,nan
0,344,5035,6,1,47,33,1.0,-0.0170755915744,-1.0,1,1.0,1.0,0.312685599085,0,0.0,0.0,0.368830768236,0.342083278358,0.0481335594823,0.390216837841,0.293949718876,nan,nan,0.0,0.0,0.0,nan,nan,282.307053206,721.978567486,722.291253085,722.478588298,nan,nan
0,345,5036,6,1,390,274,-0.0641960347588,0.476284203309,-0.291947553613,1,1.0,1.0,0.29661263898,0,0.0,0.0,0.350045007654,0.341998067694,0.0480897266203,0.390087794314,0.293908341074,nan,nan,0.0,0.0,0.0,nan,nan,282.307053206,722.978657577,723.275270216,723.478734838,nan,nan
0,346,5037,6,1,94,66,1.0,-0.249439013202,-0.526745155233,1,1.0,1.0,0.240437249187,0,1.0,0.0,0.283245162417,0.341866895935,0.0480819509677,0.389948846902,0.293784944967,nan,nan,0.0,0.0,0.0,nan,nan,282.307053206,723.97879756,724.219234809,724.478851443,nan,nan
0,347,5042,6,1,379,266,-0.113535935895,0.478614986251,-0.165970515924,1,1.0,1.0,0.312287032139,1,0.0,0.0,0.283112306769,0.341574591477,0.048319503761,0.389894095238,0.293255087716,-152.182159296,344.0,-0.172543464245,0.464730234515,0.195503824632,-24.3022157036,2.18392202212,282.307053206,724.978922718,725.29120975,725.478980592,726.812454384,729.004411033
0,348,5043,6,1,106,74,1.0,-0.287630069369,-0.390564445695,1,1.0,1.0,0.31849389663,0,0.0,0.0,0.290406059319,0.341490431824,0.0482754913982,0.389765923222,0.293214940426,nan,nan,0.0,0.0,0.0,nan,nan,282.307053206,730.204644072,730.523137969,730.704654906,nan,nan
0,349,5044,6,0,434,305,0.213881816697,0.43461034373,-1.0,0,0.0,1.0,0.366365527268,0,0.0,0.0,0.332382152012,0.341424539173,0.0482219484678,0.389646487641,0.293202590705,nan,nan,0.0,0.0,0.0,nan,nan,282.307053206,731.204746993,731.57111252,731.704774932,nan,nan
0,350,5045,6,1,482,338,0.597655625539,0.322480811492,-1.0,1,1.0,1.0,0.422215620521,0,0.0,0.0,0.369025014807,0.341495799139,0.0481714091016,0.38966720824,0.293324390037,nan,nan,0.0,0.0,0.0,nan,nan,282.307053206,732.204870725,732.627086346,732.704878423,nan,nan
0,351,5046,6,1,106,74,1.0,-0.287630069369,-0.390564445695,1,1.0,1.0,0.390050599352,0,0.0,0.0,0.392877249047,0.34172577014,0.0482947607811,0.390020530921,0.293431009359,nan,nan,0.0,0.0,0.0,nan,nan,282.307053206,733.205005861,733.595056461,733.704999019,nan,nan
0,352,5047,6,1,474,333,0.530901762182,0.346545376391,-1.0,1,1.0,1.0,0.30996348476,0,0.0,0.0,0.374076568211,0.341863056587,0.0482946510987,0.390157707685,0.293568405488,nan,nan,0.0,0.0,0.0,nan,nan,282.307053206,734.205087685,734.515051169,734.705165516,nan,nan
0,353,5048,6,1,253,177,0.513865899396,0.244839928328,0.655977188727,1,1.0,1.0,0.36582042044,0,0.0,0.0,0.355278168184,0.341772689528,0.0482559896713,0.390028679199,0.293516699856,nan,nan,0.0,0.0,0.0,nan,nan,282.307053206,735.205253326,735.571073747,735.705279555,nan,nan
0,354,5049,6,1,48,33,1.0,-0.0224273256894,-1.0,1,1.0,1.0,0.301679112483,0,0.0,0.0,0.325821005894,0.341840620971,0.0482046827697,0.390045303741,0.293635938201,nan,nan,0.0,0.0,0.0,nan,nan,282.307053206,736.205344272,736.507023385,736.70540899,nan,nan
0,355,5050,6,1,474,333,0.530901762182,0.346545376391,-1.0,1,1.0,1.0,0.349479183555,0,0.0,0.0,0.338992905493,0.341727489961,0.0481837788537,0.389911268815,0.293543711107,nan,nan,0.0,0.0,0.0,nan,nan,282.307053206,737.205509629,737.554988813,737.705541845,nan,nan
0,356,5051,6,1,283,198,0.19826868328,0.351050922538,0.605825948857,1,1.0,1.0,0.341332512908,0,0.0,0.0,0.330830269648,0.341749264381,0.0481178064317,0.389867070813,0.29363145795,nan,nan,0.0,0.0,0.0,nan,nan,282.307053206,738.205635072,738.546967585,738.705663012,nan,nan
0,357,5052,6,1,450,316,0.335949728395,0.405598329481,-1.0,1,1.0,1.0,0.301220104564,0,0.0,0.0,0.330677267009,0.34174809701,0.0480503723348,0.389798469345,0.293697724675,nan,nan,0.0,0.0,0.0,nan,nan,282.307053206,739.205739988,739.506960093,739.705799004,nan,nan
0,358,5053,6,1,363,255,-0.162287729338,0.476365729747,0.00704812682028,1,1.0,1.0,0.285094686784,0,0.0,0.0,0.309215768085,0.341634890327,0.0480308675375,0.389665757865,0.29360402279,nan,nan,0.0,0.0,0.0,nan,nan,282.307053206,740.205850891,740.490945578,740.705908481,nan,nan
0,359,5054,6,1,300,210,0.0433537089178,0.395748422077,0.528951029102,1,1.0,1.0,0.250560217071,0,1.0,0.0,0.27895833614,0.341477396724,0.0480564050707,0.389533801795,0.293420991653,nan,nan,0.0,0.0,0.0,nan,nan,282.307053206,741.264357811,741.514918028,741.764386036,nan,nan
0,360,5100,6,1,398,279,-0.0220377755791,0.472608796233,-0.387943383198,1,1.0,1.0,0.306418863125,1,0.0,0.0,0.28069125566,0.341224849003,0.0482275871709,0.389452436174,0.292997261832,-167.940819311,367.0,-0.15309091083,0.477560897992,-0.0350816338538,-21.9029306895,2.70064272452,282.307053206,742.264472421,742.570891284,742.764522313,744.097991543,746.806669464
0,361,5101,6,1,146,102,1.0,-0.278792578557,0.0248813210997,1,1.0,1.0,0.323241060134,0,0.0,0.0,0.293406713443,0.34112843353,0.0481954745515,0.389323908081,0.292932958978,nan,nan,0.0,0.0,0.0,nan,nan,282.307053206,748.023553072,748.346794132,748.523590989,nan,nan
0,362,5102,6,1,98,68,1.0,-0.263822910468,-0.480217789416,1,1.0,1.0,0.347141096368,0,0.0,0.0,0.325600339876,0.341079020896,0.0481380161917,0.389217037088,0.292941004704,nan,nan,0.0,0.0,0.0,nan,nan,282.307053206,749.023646583,749.37078768,749.523699326,nan,nan
0,363,5103,6,1,439,308,0.251144291643,0.426392204401,-1.0,1,1.0,1.0,0.290966276545,0,0.0,0.0,0.320449477683,0.341095720828,0.0480727147161,0.389168435544,0.293023006112,nan,nan,0.0,0.0,0.0,nan,nan,282.307053206,750.023787137,750.314753413,750.523815076,nan,nan
0,364,5104,6,1,322,226,-0.105067232891,0.43811622051,0.383559350674,1,1.0,1.0,0.290855373256,0,0.0,0.0,0.309654248723,0.340958002575,0.0480782883536,0.389036290928,0.292879714221,nan,nan,0.0,0.0,0.0,nan,nan,282.307053206,751.023904027,751.3147594,751.523974731,nan,nan
0,365,5105,6,1,379,266,-0.113535935895,0.478614986251,-0.165970515924,1,1.0,1.0,0.234683974646,0,1.0,0.0,0.272168541482,0.340820735097,0.0480837549878,0.388904490085,0.292736980109,nan,nan,0.0,0.0,0.0,nan,nan,282.307053206,752.024067388,752.258751363,752.524084779,nan,nan
0,366,5110,6,1,59,41,1.0,-0.0814409933332,-1.0,1,1.0,1.0,0.250544251874,1,0.0,0.0,0.258694533259,0.340530743948,0.048336580871,0.388867324819,0.292194163077,51.4622706368,55.0,1.0,-0.0599996532909,-1.0,-2.94664563684,2.7256840067,282.307053206,753.024178006,753.274722258,753.524207086,754.841027743,757.574736969
0,367,5112,6,1,245,172,0.600577697281,0.210610106048,0.650172825369,1,1.0,1.0,0.31401672028,0,0.0,0.0,0.266414982267,0.340285549147,0.0484980707767,0.388783619924,0.29178747837,nan,nan,0.0,0.0,0.0,nan,nan,282.307053206,758.816596,759.130612721,759.316604553,nan,nan
0,368,5113,6,1,67,47,1.0,-0.12380466598,-1.0,1,1.0,1.0,0.313882439397,0,0.0,0.0,0.292814470517,0.34021416646,0.0484514338072,0.388665600267,0.291762732653,nan,nan,0.0,0.0,0.0,nan,nan,282.307053206,759.816717167,760.130599606,760.316761072,nan,nan
0,369,5114,6,1,126,88,1.0,-0.311411754845,-0.177408431044,1,1.0,1.0,0.30570554873,0,0.0,0.0,0.311201569469,0.340142806766,0.0484050975501,0.388547904316,0.291737709216,nan,nan,0.0,0.0,0.0,nan,nan,282.307053206,760.816861141,761.12256669,761.316867698,nan,nan
0,370,5115,6,1,461,324,0.423959648591,0.380927367285,-1.0,1,1.0,1.0,0.249619679525,0,1.0,0.0,0.289735889218,0.340049733096,0.0483726930322,0.388422426128,0.291677040063,nan,nan,0.0,0.0,0.0,nan,nan,282.307053206,761.816952087,762.066571767,762.317019085,nan,nan
0,371,5120,6,1,328,230,-0.132159558243,0.44685796506,0.336046158271,1,1.0,1.0,0.281449996401,1,0.0,0.0,0.278925074885,0.339805986321,0.0485344516561,0.388340437977,0.291271534664,-152.277615755,345.0,-0.173519535469,0.465595146217,0.186119282857,11.6526157548,2.15055331774,282.307053206,762.817078101,763.098528097,763.317154222,764.642287191,766.80088711
0,372,5121,6,1,142,99,1.0,-0.289568116499,-0.0146273521697,1,1.0,1.0,0.361033627763,0,0.0,0.0,0.297367767897,0.33964911538,0.0485632629552,0.388212378335,0.291085852425,nan,nan,0.0,0.0,0.0,nan,nan,282.307053206,768.009414215,768.370447843,768.509480928,nan,nan
0,373,5122,6,0,485,341,0.622774561467,0.312875618285,-1.0,0,0.0,1.0,0.440853605513,0,0.0,0.0,0.361112409892,0.339706446512,0.0485107251806,0.388217171693,0.291195721332,nan,nan,0.0,0.0,0.0,nan,nan,282.307053206,769.009570449,769.450424054,769.509598673,nan,nan
0,374,5123,6,1,405,284,0.018463324075,0.468009379796,-0.476293327428,1,1.0,1.0,0.376731113996,0,0.0,0.0,0.392872782424,0.339976893462,0.0487265844904,0.388703477952,0.291250308971,nan,nan,0.0,0.0,0.0,nan,nan,282.307053206,770.00967736,770.386408474,770.50973381,nan,nan
0,375,5124,6,1,484,340,0.614398947124,0.316112737715,-1.0,1,1.0,1.0,0.267656393349,0,0.0,0.0,0.361747037619,0.340074904716,0.048698473731,0.388773378447,0.291376430985,nan,nan,0.0,0.0,0.0,nan,nan,282.307053206,771.070741608,771.338398001,771.576530804,nan,nan
0,376,5125,6,1,230,161,0.760023132926,0.140224214653,0.61781109556,1,1.0,1.0,0.294068995863,0,0.0,0.0,0.312818834403,0.339882302292,0.0487764793528,0.388658781645,0.29110582294,nan,nan,0.0,0.0,0.0,nan,nan,282.307053206,772.068299175,772.362368171,772.568324834,nan,nan
0,377,5126,6,1,393,276,-0.0489456633786,0.475102171109,-0.327443230616,1,1.0,1.0,0.293929012958,0,1.0,0.0,0.285218134057,0.339760781586,0.048768706225,0.388529487811,0.290992075361,nan,nan,0.0,0.0,0.0,nan,nan,282.307053206,773.068423192,773.362352205,773.568443434,nan,nan
0,378,5131,6,1,58,40,1.0,-0.0760896648475,-1.0,1,1.0,1.0,0.30981124239,1,0.0,0.0,0.299269750404,0.339639533521,0.0487610191722,0.388400552693,0.290878514348,64.8700335205,36.0,1.0,0.0410699577143,-1.0,-15.6512835205,2.00888450351,282.307053206,774.068527253,774.378338495,774.56856232,775.902048656,777.918974058
0,379,5132,6,1,501,352,0.7564492333,0.256253544744,-1.0,1,1.0,1.0,0.346363349352,0,0.0,0.0,0.316701201567,0.339560830905,0.0487206825959,0.388281513501,0.29084014831,nan,nan,0.0,0.0,0.0,nan,nan,282.307053206,779.135889596,779.482252946,779.635862512,nan,nan
0,380,5133,6,1,356,250,-0.17284377641,0.473239407326,0.0788368070227,1,1.0,1.0,0.402253071312,0,0.0,0.0,0.352809221018,0.33957873227,0.0486577822618,0.388236514532,0.290920950008,nan,nan,0.0,0.0,0.0,nan,nan,282.307053206,780.135979117,780.538232188,780.63600278,nan,nan
0,381,5134,6,1,147,103,1.0,-0.275801134503,0.0346720467303,1,1.0,1.0,0.362102744635,0,0.0,0.0,0.370239721766,0.339743231847,0.048699573886,0.388442805733,0.291043657961,nan,nan,0.0,0.0,0.0,nan,nan,282.307053206,781.136115964,781.498218709,781.636126513,nan,nan
0,382,5135,6,1,496,348,0.714833717156,0.274923884212,-1.0,1,1.0,1.0,0.345973050222,0,0.0,0.0,0.370109622056,0.339801764603,0.0486492068854,0.388450971489,0.291152557718,nan,nan,0.0,0.0,0.0,nan,nan,282.307053206,782.136219169,782.48219222,782.636251385,nan,nan
0,383,5136,6,1,222,156,0.841778467246,0.0997291618919,0.589484691865,1,1.0,1.0,0.376442594919,0,0.0,0.0,0.361506129925,0.339817877621,0.0485866753056,0.388404552926,0.291231202315,nan,nan,0.0,0.0,0.0,nan,nan,282.307053206,783.169722725,783.54616532,783.669745818,nan,nan
0,384,5137,6,1,150,105,1.0,-0.266152531622,0.0638227105866,1,1.0,1.0,0.360338559374,0,0.0,0.0,0.360918068172,0.339913254489,0.0485592576775,0.388472512166,0.291353996811,nan,nan,0.0,0.0,0.0,nan,nan,282.307053206,784.169811676,784.530150235,784.669845032,nan,nan
0,385,5138,6,1,433,304,0.206536295144,0.436163724167,-1.0,1,1.0,1.0,0.304174858611,0,0.0,0.0,0.346985337635,0.339966307229,0.0485072946137,0.388473601842,0.291459012615,nan,nan,0.0,0.0,0.0,nan,nan,282.307053206,785.16997076,785.474145619,785.66996962,nan,nan
