block,trial,freq_trials,correct_response,actual_response,acc,rts,probe_trials,fast_rt_trigger,slow_rt_trigger,rt_triggered,rts_runningavg,rts_runningstd,rts_runningfastthresh,rts_runningslowthresh,rts_runningstd,rts_trailingavg,trials_colorind,trials_colorrgb0,trials_colorrgb1,trials_colorrgb2,wm_respdeg,wm_respdeg_in_colorspace,wm_respcolorminusorigcolor,wm_resptexind,wm_resptexrgb0,wm_resptexrgb1,wm_resptexrgb2,wm_rts,time_blockstart,time_encarray_offset,time_encarray_onset,time_response,time_iti_offset,time_iti_onset,time_memprobe_offset,time_memprobe_onset
1,1,1,1,1.0,1.0,0.448432075791,0,nan,nan,nan,nan,nan,nan,nan,nan,nan,331,-0.143297839787,0.450801753776,0.311166711333,nan,nan,nan,nan,0.0,0.0,0.0,nan,282.307053206,283.322606718,283.822647201,283.771038793,nan,nan,nan,nan
1,2,1,1,1.0,1.0,0.400282760151,0,nan,nan,nan,nan,nan,nan,nan,nan,nan,140,1.0,-0.294209249228,-0.0345777392028,nan,nan,nan,nan,0.0,0.0,0.0,nan,282.307053206,284.322745275,284.822769223,284.723028035,nan,nan,nan,nan
1,3,1,1,1.0,1.0,0.360201427247,0,nan,nan,nan,nan,nan,nan,nan,nan,nan,208,0.97651257568,0.025020743352,0.522574479073,nan,nan,nan,nan,0.0,0.0,0.0,nan,282.307053206,285.322854468,285.822896092,285.683055895,nan,nan,nan,nan
1,4,1,1,1.0,1.0,0.400040997192,0,nan,nan,nan,nan,nan,nan,nan,nan,nan,30,1.0,0.071945658744,-1.0,nan,nan,nan,nan,0.0,0.0,0.0,nan,282.307053206,286.322959954,286.823013267,286.723000951,nan,nan,nan,nan
1,5,1,1,1.0,1.0,0.326155330054,0,nan,nan,nan,nan,nan,nan,nan,nan,nan,260,0.438016636947,0.272781976488,0.654406567654,nan,nan,nan,nan,0.0,0.0,0.0,nan,282.307053206,287.564799314,288.064862606,287.890954644,nan,nan,nan,nan
1,6,1,1,1.0,1.0,0.294082395732,0,nan,nan,nan,nan,nan,nan,nan,nan,nan,2,0.863024578927,0.203622855609,-1.0,nan,nan,nan,nan,0.0,0.0,0.0,nan,282.307053206,288.564930174,289.064986053,288.859012569,nan,nan,nan,nan
1,7,1,1,1.0,1.0,0.341867356561,0,nan,nan,nan,nan,nan,nan,nan,nan,nan,88,1.0,-0.225257592204,-0.599932847766,nan,nan,nan,nan,0.0,0.0,0.0,nan,282.307053206,289.565056472,290.06509553,289.906923829,nan,nan,nan,nan
1,8,1,1,1.0,1.0,0.333716980182,0,nan,nan,nan,nan,nan,nan,nan,nan,nan,182,1.0,-0.118523835432,0.347089474713,nan,nan,nan,nan,0.0,0.0,0.0,nan,282.307053206,290.565203867,291.065237224,290.898920848,nan,nan,nan,nan
1,9,1,1,1.0,1.0,0.341593377758,0,nan,nan,nan,nan,nan,nan,nan,nan,nan,440,0.258699398066,0.424657399123,-1.0,nan,nan,nan,nan,0.0,0.0,0.0,nan,282.307053206,291.56531306,292.065367229,291.906906438,nan,nan,nan,nan
1,10,1,1,1.0,1.0,0.405433337204,0,nan,nan,nan,nan,nan,nan,nan,nan,nan,310,-0.032854544558,0.417080732083,0.468828018046,nan,nan,nan,nan,0.0,0.0,0.0,nan,282.307053206,292.565440499,293.065467868,292.970873836,nan,nan,nan,nan
1,11,1,1,1.0,1.0,0.357307114173,0,nan,nan,nan,nan,nan,nan,nan,nan,nan,158,1.0,-0.235949227405,0.139764106,nan,nan,nan,nan,0.0,0.0,0.0,nan,282.307053206,293.565555108,294.06559046,293.922862222,nan,nan,nan,nan
1,12,1,1,1.0,1.0,0.325148364995,0,nan,nan,nan,nan,nan,nan,nan,nan,nan,19,0.99625917486,0.126374530333,-1.0,nan,nan,nan,nan,0.0,0.0,0.0,nan,282.307053206,294.565697942,295.065733009,294.890846307,nan,nan,nan,nan
1,13,1,1,1.0,1.0,0.369954623748,0,nan,nan,nan,nan,nan,nan,nan,nan,nan,257,0.470472903111,0.261039853404,0.655841377839,nan,nan,nan,nan,0.0,0.0,0.0,nan,282.307053206,295.640847447,296.140865408,296.010802071,nan,nan,nan,nan
1,14,1,1,1.0,1.0,0.361835037824,0,nan,nan,nan,nan,nan,nan,nan,nan,nan,60,1.0,-0.0867837676833,-1.0,nan,nan,nan,nan,0.0,0.0,0.0,nan,282.307053206,296.640975456,297.140995413,297.002810494,nan,nan,nan,nan
1,15,1,1,1.0,1.0,0.29564986378,0,nan,nan,nan,nan,nan,nan,nan,nan,nan,421,0.121471671064,0.452518040197,-0.712610339232,nan,nan,nan,nan,0.0,0.0,0.0,nan,282.307053206,297.691129865,298.191124164,297.986779729,nan,nan,nan,nan
1,16,0,0,0.0,1.0,0.399510715157,0,nan,nan,nan,nan,nan,nan,nan,nan,nan,109,1.0,-0.294638327523,-0.357773695079,nan,nan,nan,nan,0.0,0.0,0.0,nan,282.307053206,298.691254168,299.191281252,299.090764883,nan,nan,nan,nan
1,17,1,1,1.0,1.0,0.303425621241,0,nan,nan,nan,nan,nan,nan,nan,nan,nan,487,0.639529740128,0.306295026098,-1.0,nan,nan,nan,nan,0.0,0.0,0.0,nan,282.307053206,299.691340268,300.191377901,299.994765889,nan,nan,nan,nan
1,18,0,0,0.0,1.0,0.359295101371,0,nan,nan,nan,nan,nan,nan,nan,nan,nan,250,0.546428449327,0.232286661223,0.654747725831,nan,nan,nan,nan,0.0,0.0,0.0,nan,282.307053206,300.691499352,301.191534134,301.050794453,nan,nan,nan,nan
1,19,1,1,1.0,1.0,0.351144154556,0,nan,nan,nan,nan,nan,nan,nan,nan,nan,477,0.555879874869,0.337784025865,-1.0,nan,nan,nan,nan,0.0,0.0,0.0,nan,282.307053206,301.691590013,302.191642471,302.042734168,nan,nan,nan,nan
1,20,1,1,1.0,1.0,0.294933127239,0,nan,nan,nan,nan,nan,nan,nan,nan,nan,200,1.0,-0.0191209939188,0.47515178387,nan,nan,nan,nan,0.0,0.0,0.0,nan,282.307053206,302.691754515,303.191766489,302.986687642,nan,nan,nan,nan
1,21,1,1,1.0,1.0,0.326820748858,0,nan,nan,nan,nan,nan,nan,nan,nan,nan,370,-0.144805996584,0.478178727438,-0.0671803333712,nan,nan,nan,nan,0.0,0.0,0.0,nan,282.307053206,303.691872545,304.191923578,304.018693294,nan,nan,nan,nan
1,22,0,0,0.0,1.0,0.430648528971,0,nan,nan,nan,nan,nan,nan,nan,nan,nan,490,0.664660387652,0.296157848571,-1.0,nan,nan,nan,nan,0.0,0.0,0.0,nan,282.307053206,304.692027353,305.192042178,305.122675882,nan,nan,nan,nan
1,23,1,1,1.0,1.0,0.398567326367,0,nan,nan,nan,nan,nan,nan,nan,nan,nan,266,0.373577590308,0.295207490188,0.648113769863,nan,nan,nan,nan,0.0,0.0,0.0,nan,282.307053206,305.69209207,306.192167051,306.090659397,nan,nan,nan,nan
1,24,1,1,1.0,1.0,0.334397223312,1,nan,nan,nan,nan,nan,nan,nan,nan,nan,138,1.0,-0.29832987918,-0.0546508148191,-15.8397492238,105.839749224,8.80849922376,151.0,1.0,-0.262720288689,0.0734626651272,2.48395412462,282.307053206,306.692234905,307.192299052,307.026632128,311.017761879,312.014501786,308.517465092,311.009433032
1,25,1,1,1.0,1.0,0.328901677858,0,nan,nan,nan,nan,nan,nan,nan,nan,nan,303,0.0191349273956,0.402522842081,0.512018356663,nan,nan,nan,nan,0.0,0.0,0.0,nan,282.307053206,312.209628152,312.709630718,312.53852983,nan,nan,nan,nan
1,26,0,0,0.0,1.0,0.32077838527,0,nan,nan,nan,nan,nan,nan,nan,nan,nan,442,0.273907262724,0.421095538958,-1.0,nan,nan,nan,nan,0.0,0.0,0.0,nan,282.307053206,313.209759012,313.709780965,313.530537398,nan,nan,nan,nan
1,27,1,1,0.0,0.0,0.344650196377,0,0.0,0.0,0.0,nan,nan,nan,nan,nan,nan,318,-0.0835627602325,0.431640264478,0.413481556053,nan,nan,nan,nan,0.0,0.0,0.0,nan,282.307053206,314.209840836,314.709887306,314.554491032,nan,nan,nan,nan
1,28,1,1,1.0,1.0,0.312505987007,0,nan,nan,nan,nan,nan,nan,nan,nan,nan,389,-0.0691208065164,0.476626077068,-0.280234315682,nan,nan,nan,nan,0.0,0.0,0.0,nan,282.307053206,315.209970555,315.710012749,315.522476542,nan,nan,nan,nan
1,29,1,1,1.0,1.0,0.368336408399,0,nan,nan,nan,nan,nan,nan,nan,nan,nan,305,0.00361192545304,0.406859252708,0.500196907155,nan,nan,nan,nan,0.0,0.0,0.0,nan,282.307053206,316.210113104,316.710143894,316.578449512,nan,nan,nan,nan
1,30,1,1,1.0,1.0,0.352156252135,1,nan,nan,nan,nan,nan,nan,nan,nan,nan,69,1.0,-0.134207199312,-0.939648005704,54.5222550099,35.4777449901,-13.0378800099,50.0,1.0,-0.033148730948,-1.0,1.50879669329,282.307053206,317.21026164,317.710302979,317.562417892,320.560652851,321.561556041,319.035442506,320.552294353
1,31,1,1,1.0,1.0,0.433535714634,0,nan,nan,nan,nan,nan,nan,nan,nan,nan,259,0.44882283482,0.268906983076,0.655011783756,nan,nan,nan,nan,0.0,0.0,0.0,nan,282.307053206,321.760821173,322.260849968,322.194356888,nan,nan,nan,nan
1,32,1,1,1.0,1.0,0.305373124313,0,nan,nan,nan,nan,nan,nan,nan,nan,nan,468,0.481236483515,0.363131620867,-1.0,nan,nan,nan,nan,0.0,0.0,0.0,nan,282.307053206,322.760964577,323.260971704,323.066337701,nan,nan,nan,nan
1,33,0,0,0.0,1.0,0.345212979708,0,nan,nan,nan,nan,nan,nan,nan,nan,nan,198,1.0,-0.0302354974571,0.462326941081,nan,nan,nan,nan,0.0,0.0,0.0,nan,282.307053206,323.761098003,324.261127653,324.106310982,nan,nan,nan,nan
1,34,1,1,1.0,1.0,0.313180243131,1,nan,nan,nan,nan,nan,nan,nan,nan,nan,119,1.0,-0.309446327048,-0.250710895617,-1.0463819071,91.0463819071,7.3745069071,129.0,1.0,-0.310070485259,-0.146368003411,2.69232984213,282.307053206,324.761212327,325.26123428,325.07439257,329.295068264,330.297392381,326.586400891,329.286766215
1,35,1,1,1.0,1.0,0.386933624744,0,nan,nan,nan,nan,nan,nan,nan,nan,nan,365,-0.157962026257,0.477016591838,-0.0139196855225,nan,nan,nan,nan,0.0,0.0,0.0,nan,282.307053206,330.495268516,330.995330953,330.882202141,nan,nan,nan,nan
1,36,1,1,1.0,1.0,0.28046355769,0,nan,nan,nan,nan,nan,nan,nan,nan,nan,445,0.296953900578,0.415520102116,-1.0,nan,nan,nan,nan,0.0,0.0,0.0,nan,282.307053206,331.553764888,332.053781994,331.834228445,nan,nan,nan,nan
1,37,0,0,0.0,1.0,0.352289392613,0,nan,nan,nan,nan,nan,nan,nan,nan,nan,394,-0.0437090198531,0.474655926729,-0.339401417396,nan,nan,nan,nan,0.0,0.0,0.0,nan,282.307053206,332.553882633,333.05391827,332.906172025,nan,nan,nan,nan
1,38,1,1,1.0,1.0,0.312129657716,0,nan,nan,nan,nan,nan,nan,nan,nan,nan,29,1.0,0.0770173926463,-1.0,nan,nan,nan,nan,0.0,0.0,0.0,nan,282.307053206,333.55401948,334.054045994,333.866149138,nan,nan,nan,nan
1,39,1,1,1.0,1.0,0.296020490583,0,nan,nan,nan,nan,nan,nan,nan,nan,nan,262,0.416452475899,0.2804144186,0.652815538838,nan,nan,nan,nan,0.0,0.0,0.0,nan,282.307053206,334.554124111,335.054177709,334.850144601,nan,nan,nan,nan
1,40,1,1,1.0,1.0,0.359847050626,0,nan,nan,nan,nan,nan,nan,nan,nan,nan,486,0.631151757674,0.309603058574,-1.0,nan,nan,nan,nan,0.0,0.0,0.0,nan,282.307053206,335.554267515,336.054269511,335.914114566,nan,nan,nan,nan
1,41,1,1,1.0,1.0,0.295707168058,0,nan,nan,nan,nan,nan,nan,nan,nan,nan,208,0.97651257568,0.025020743352,0.522574479073,nan,nan,nan,nan,0.0,0.0,0.0,nan,282.307053206,336.554398375,337.054397805,336.850105543,nan,nan,nan,nan
1,42,1,1,1.0,1.0,0.327554875985,0,nan,nan,nan,nan,nan,nan,nan,nan,nan,412,0.0618891196837,0.462096609288,-0.571158935758,nan,nan,nan,nan,0.0,0.0,0.0,nan,282.307053206,337.554520112,338.054524388,337.882074988,nan,nan,nan,nan
1,43,1,1,1.0,1.0,0.343445088249,0,nan,nan,nan,nan,nan,nan,nan,nan,nan,141,1.0,-0.291952736687,-0.024586852943,nan,nan,nan,nan,0.0,0.0,0.0,nan,282.307053206,338.554627879,339.054685183,338.898072967,nan,nan,nan,nan
1,44,1,1,1.0,1.0,0.307315211277,0,nan,nan,nan,nan,nan,nan,nan,nan,nan,423,0.135229581944,0.450080889006,-0.750039916123,nan,nan,nan,nan,0.0,0.0,0.0,nan,282.307053206,339.654785024,340.154839193,339.962100236,nan,nan,nan,nan
1,45,1,1,1.0,1.0,0.331189302728,0,nan,nan,nan,nan,nan,nan,nan,nan,nan,301,0.0351599448551,0.39804275895,0.523414514543,nan,nan,nan,nan,0.0,0.0,0.0,nan,282.307053206,340.6549022,341.154948956,340.986091502,nan,nan,nan,nan
1,46,1,1,1.0,1.0,0.362995386124,0,nan,nan,nan,nan,nan,nan,nan,nan,nan,390,-0.0641960347588,0.476284203309,-0.291947553613,nan,nan,nan,nan,0.0,0.0,0.0,nan,282.307053206,341.655027928,342.155066131,342.018023314,nan,nan,nan,nan
1,47,0,0,0.0,1.0,0.370835005771,0,nan,nan,nan,nan,nan,nan,nan,nan,nan,438,0.243622561222,0.428096439079,-1.0,nan,nan,nan,nan,0.0,0.0,0.0,nan,282.307053206,342.655171902,343.155204689,343.026006908,nan,nan,nan,nan
1,48,1,1,1.0,1.0,0.346714875195,0,nan,nan,nan,nan,nan,nan,nan,nan,nan,71,1.0,-0.144504067012,-0.877980773838,nan,nan,nan,nan,0.0,0.0,0.0,nan,282.307053206,343.655276818,344.155318158,344.001991693,nan,nan,nan,nan
1,49,1,1,1.0,1.0,0.306558276061,0,nan,nan,nan,nan,nan,nan,nan,nan,nan,325,-0.119404900653,0.442631039184,0.360186421743,nan,nan,nan,nan,0.0,0.0,0.0,nan,282.307053206,344.655407393,345.15544075,344.961965669,nan,nan,nan,nan
1,50,1,1,1.0,1.0,0.31439704122,0,nan,nan,nan,nan,nan,nan,nan,nan,nan,123,1.0,-0.311441137266,-0.208672863777,nan,nan,nan,nan,0.0,0.0,0.0,nan,282.307053206,345.655556214,346.155558495,345.969953255,nan,nan,nan,nan
1,51,1,1,1.0,1.0,0.290269782767,0,nan,nan,nan,nan,nan,nan,nan,nan,nan,456,0.383612429175,0.392633185378,-1.0,nan,nan,nan,nan,0.0,0.0,0.0,nan,282.307053206,346.655659419,347.155701329,346.945929202,nan,nan,nan,nan
1,52,1,1,1.0,1.0,0.282092321664,0,nan,nan,nan,nan,nan,nan,nan,nan,nan,394,-0.0437090198531,0.474655926729,-0.339401417396,nan,nan,nan,nan,0.0,0.0,0.0,nan,282.307053206,347.655798832,348.155815654,347.937891154,nan,nan,nan,nan
1,53,0,0,0.0,1.0,0.337945836131,0,nan,nan,nan,nan,nan,nan,nan,nan,nan,228,0.780729811514,0.1302769546,0.611433142569,nan,nan,nan,nan,0.0,0.0,0.0,nan,282.307053206,348.655933399,349.155962193,348.993879235,nan,nan,nan,nan
1,54,1,1,1.0,1.0,0.297823164146,0,nan,nan,nan,nan,nan,nan,nan,nan,nan,58,1.0,-0.0760896648475,-1.0,nan,nan,nan,nan,0.0,0.0,0.0,nan,282.307053206,349.656036604,350.156062833,349.953859768,nan,nan,nan,nan
1,55,1,1,1.0,1.0,0.257705624215,0,nan,nan,nan,nan,nan,nan,nan,nan,nan,313,-0.0530221528698,0.42279583272,0.448797959603,nan,nan,nan,nan,0.0,0.0,0.0,nan,282.307053206,350.656153209,351.156192553,350.913858833,nan,nan,nan,nan
1,56,1,1,1.0,1.0,0.345507200807,0,nan,nan,nan,nan,nan,nan,nan,nan,nan,37,1.0,0.0358565504353,-1.0,nan,nan,nan,nan,0.0,0.0,0.0,nan,282.307053206,351.656323697,352.156349641,352.001830898,nan,nan,nan,nan
1,57,1,1,1.0,1.0,0.345378051512,0,nan,nan,nan,nan,nan,nan,nan,nan,nan,432,0.199227897075,0.437687328843,-1.0,nan,nan,nan,nan,0.0,0.0,0.0,nan,282.307053206,352.65642006,353.156478791,353.001798112,nan,nan,nan,nan
1,58,1,1,1.0,1.0,0.353235917166,1,nan,nan,nan,nan,nan,nan,nan,nan,nan,101,1.0,-0.273572672894,-0.446152610616,20.4658630598,69.5341369402,-1.48148805978,99.0,1.0,-0.267176270739,-0.468793303331,1.98388855159,282.307053206,353.65656489,354.156832597,354.009800808,357.490327486,358.486289931,355.490077741,357.481997498
1,59,1,1,1.0,1.0,0.303182147443,0,nan,nan,nan,nan,nan,nan,nan,nan,nan,333,-0.149813480994,0.453275949072,0.294183738108,nan,nan,nan,nan,0.0,0.0,0.0,nan,282.307053206,358.690529164,359.190580767,358.993711312,nan,nan,nan,nan
1,60,1,1,1.0,1.0,0.318981983699,0,nan,nan,nan,nan,nan,nan,nan,nan,nan,116,1.0,-0.306446923025,-0.282515442494,nan,nan,nan,nan,0.0,0.0,0.0,nan,282.307053206,359.690708776,360.190691955,360.00969076,nan,nan,nan,nan
1,61,1,1,1.0,1.0,0.342903972138,0,nan,nan,nan,nan,nan,nan,nan,nan,nan,36,1.0,0.0410699577143,-1.0,nan,nan,nan,nan,0.0,0.0,0.0,nan,282.307053206,360.690770927,361.190820819,361.033674899,nan,nan,nan,nan
1,62,1,1,1.0,1.0,0.374765079468,0,nan,nan,nan,nan,nan,nan,nan,nan,nan,214,0.920243657418,0.0575410437433,0.553854850604,nan,nan,nan,nan,0.0,0.0,0.0,nan,282.307053206,361.690898651,362.190971636,362.06566373,nan,nan,nan,nan
1,63,1,1,1.0,1.0,0.342565846164,0,nan,nan,nan,nan,nan,nan,nan,nan,nan,407,0.0305886347219,0.46645515455,-0.502577406972,nan,nan,nan,nan,0.0,0.0,0.0,nan,282.307053206,362.691074556,363.191063438,363.033640402,nan,nan,nan,nan
1,64,1,1,1.0,1.0,0.326465231832,0,nan,nan,nan,nan,nan,nan,nan,nan,nan,343,-0.171388175652,0.463836419185,0.204822810802,nan,nan,nan,nan,0.0,0.0,0.0,nan,282.307053206,363.691164362,364.191209978,364.017629594,nan,nan,nan,nan
1,65,1,1,1.0,1.0,0.326303296257,0,nan,nan,nan,nan,nan,nan,nan,nan,nan,288,0.150005133015,0.365331945294,0.586687239957,nan,nan,nan,nan,0.0,0.0,0.0,nan,282.307053206,364.69129066,365.191338842,365.017593957,nan,nan,nan,nan
1,66,1,1,1.0,1.0,0.318177723326,0,nan,nan,nan,nan,nan,nan,nan,nan,nan,415,0.0813077335083,0.459153678902,-0.614968023274,nan,nan,nan,nan,0.0,0.0,0.0,nan,282.307053206,365.691417529,366.191466851,366.009595252,nan,nan,nan,nan
1,67,1,1,1.0,1.0,0.325995960739,0,nan,nan,nan,nan,nan,nan,nan,nan,nan,350,-0.175756816429,0.469490941964,0.138247479403,nan,nan,nan,nan,0.0,0.0,0.0,nan,282.307053206,366.691569771,367.191594005,367.017565732,nan,nan,nan,nan
1,68,1,1,1.0,1.0,0.357882156502,0,nan,nan,nan,nan,nan,nan,nan,nan,nan,148,1.0,-0.272695592461,0.0444264621409,nan,nan,nan,nan,0.0,0.0,0.0,nan,282.307053206,367.691663283,368.19169721,368.04954544,nan,nan,nan,nan
1,69,1,1,1.0,1.0,0.341709697153,0,nan,nan,nan,nan,nan,nan,nan,nan,nan,63,1.0,-0.102744642793,-1.0,nan,nan,nan,nan,0.0,0.0,0.0,nan,282.307053206,368.691809824,369.191831776,369.033519521,nan,nan,nan,nan
1,70,1,1,1.0,1.0,0.309582879301,0,nan,nan,nan,nan,nan,nan,nan,nan,nan,155,1.0,-0.2479831371,0.111611878621,nan,nan,nan,nan,0.0,0.0,0.0,nan,282.307053206,369.691926429,370.191948951,370.001509308,nan,nan,nan,nan
1,71,1,1,1.0,1.0,0.333444996737,0,nan,nan,nan,nan,nan,nan,nan,nan,nan,265,0.384259149088,0.291568309415,0.649478858709,nan,nan,nan,nan,0.0,0.0,0.0,nan,282.307053206,370.692058714,371.192080381,371.025503711,nan,nan,nan,nan
1,72,1,1,1.0,1.0,0.309322584886,0,nan,nan,nan,nan,nan,nan,nan,nan,nan,344,-0.172543464245,0.464730234515,0.195503824632,nan,nan,nan,nan,0.0,0.0,0.0,nan,282.307053206,371.692163345,372.192238326,372.00148593,nan,nan,nan,nan
1,73,1,1,1.0,1.0,0.283794070594,0,nan,nan,nan,nan,nan,nan,nan,nan,nan,111,1.0,-0.298677811705,-0.336106236365,nan,nan,nan,nan,0.0,0.0,0.0,nan,282.307053206,372.725676309,373.225674313,373.009470379,nan,nan,nan,nan
1,74,1,1,1.0,1.0,0.283646104392,0,nan,nan,nan,nan,nan,nan,nan,nan,nan,464,0.448404880525,0.373503555275,-1.0,nan,nan,nan,nan,0.0,0.0,0.0,nan,282.307053206,373.725790918,374.225806599,374.009437023,nan,nan,nan,nan
1,75,1,1,1.0,1.0,0.291495132726,0,nan,nan,nan,nan,nan,nan,nan,nan,nan,357,-0.1717918326,0.473767524415,0.068739031695,nan,nan,nan,nan,0.0,0.0,0.0,nan,282.307053206,374.7259118,375.225967964,375.017406933,nan,nan,nan,nan
1,76,1,1,1.0,1.0,0.331372335088,0,nan,nan,nan,nan,nan,nan,nan,nan,nan,128,1.0,-0.310663006781,-0.156689791083,nan,nan,nan,nan,0.0,0.0,0.0,nan,282.307053206,375.726036103,376.226076586,376.057408438,nan,nan,nan,nan
1,77,1,1,1.0,1.0,0.286009850446,0,nan,nan,nan,nan,nan,nan,nan,nan,nan,190,1.0,-0.0746884387243,0.407399635172,nan,nan,nan,nan,0.0,0.0,0.0,nan,282.307053206,376.787369767,377.29290038,377.073379618,nan,nan,nan,nan
1,78,1,1,1.0,1.0,0.344713202678,0,nan,nan,nan,nan,nan,nan,nan,nan,nan,4,0.879126049628,0.195014037372,-1.0,nan,nan,nan,nan,0.0,0.0,0.0,nan,282.307053206,377.784647938,378.284645087,378.129361141,nan,nan,nan,nan
1,79,1,1,1.0,1.0,0.392580557615,0,nan,nan,nan,nan,nan,nan,nan,nan,nan,506,0.797774742377,0.236703125255,-1.0,nan,nan,nan,nan,0.0,0.0,0.0,nan,282.307053206,378.784763688,379.28479904,379.177344245,nan,nan,nan,nan
1,80,1,1,1.0,1.0,0.344421547838,0,nan,nan,nan,nan,nan,nan,nan,nan,nan,304,0.0113092810281,0.404708921832,0.506160370659,nan,nan,nan,nan,0.0,0.0,0.0,nan,282.307053206,379.784894833,380.284950427,380.129316381,nan,nan,nan,nan
1,81,1,1,1.0,1.0,0.296311575454,0,0.0,0.0,0.0,0.33723431023,0.0374878894183,0.299746420811,0.374722199648,0.0374878894183,0.344437893635,398,-0.0220377755791,0.472608796233,-0.387943383198,nan,nan,nan,nan,0.0,0.0,0.0,nan,282.307053206,380.785013434,381.285037952,381.081325009,nan,nan,nan,nan
1,82,1,1,1.0,1.0,0.296140231658,0,0.0,0.0,0.0,0.336729091282,0.0375288109116,0.29920028037,0.374257902193,0.0375288109116,0.312291118316,303,0.0191349273956,0.402522842081,0.512018356663,nan,nan,nan,nan,0.0,0.0,0.0,nan,282.307053206,381.785157978,382.285164536,382.08129821,nan,nan,nan,nan
1,83,1,1,1.0,1.0,0.343990480062,0,0.0,0.0,0.0,0.336234105189,0.0375643688412,0.298669736347,0.37379847403,0.0375643688412,0.312147429058,207,0.985653507947,0.0195431921708,0.51699622314,nan,nan,nan,nan,0.0,0.0,0.0,nan,282.307053206,382.785291689,383.285291974,383.129282169,nan,nan,nan,nan
1,84,0,0,0.0,1.0,0.447846485302,0,0.0,0.0,0.0,0.336327555488,0.0373469801111,0.298980575377,0.373674535599,0.0373469801111,0.362659065674,146,1.0,-0.278792578557,0.0248813210997,nan,nan,nan,nan,0.0,0.0,0.0,nan,282.307053206,383.785416277,384.285442506,384.233262762,nan,nan,nan,nan
1,85,1,1,1.0,1.0,0.351719196886,0,0.0,0.0,0.0,0.337655161796,0.0390446269573,0.298610534838,0.376699788753,0.0390446269573,0.381185387416,286,0.169078956243,0.359734776014,0.594698705761,nan,nan,nan,nan,0.0,0.0,0.0,nan,282.307053206,384.785527465,385.285565668,385.137246662,nan,nan,nan,nan
1,86,1,1,1.0,1.0,0.375546532683,0,0.0,0.0,0.0,0.337820621032,0.0388438856078,0.298976735424,0.37666450664,0.0388438856078,0.391704071624,470,0.497741612616,0.357740777197,-1.0,nan,nan,nan,nan,0.0,0.0,0.0,nan,282.307053206,385.785678852,386.2857028,386.161225385,nan,nan,nan,nan
1,87,1,1,1.0,1.0,0.351390193682,0,0.0,0.0,0.0,0.338259294423,0.0388285929515,0.299430701472,0.377087887375,0.0388285929515,0.359551974417,100,1.0,-0.270427092546,-0.457439896749,nan,nan,nan,nan,0.0,0.0,0.0,nan,282.307053206,386.785776926,387.285801159,387.137167119,nan,nan,nan,nan
1,88,1,1,1.0,1.0,0.263304660097,0,0.0,0.0,0.0,0.3384102243,0.0386301601695,0.29978006413,0.377040384469,0.0386301601695,0.330080462154,471,0.506014005179,0.354993781952,-1.0,nan,nan,nan,nan,0.0,0.0,0.0,nan,282.307053206,387.78589239,388.285935155,388.04919705,nan,nan,nan,nan
1,89,1,1,1.0,1.0,0.295164056588,0,0.0,0.0,0.0,0.337556751979,0.0392263119247,0.298330440055,0.376783063904,0.0392263119247,0.303286303456,278,0.248285521772,0.335802812283,0.621962573991,nan,nan,nan,nan,0.0,0.0,0.0,nan,282.307053206,388.786014412,389.286077989,389.081178469,nan,nan,nan,nan
1,90,1,1,1.0,1.0,0.247058930807,0,1.0,0.0,0.0,0.337080429559,0.039260418382,0.297820011177,0.376340847941,0.039260418382,0.268509215831,432,0.199227897075,0.437687328843,-1.0,nan,nan,nan,nan,0.0,0.0,0.0,nan,282.307053206,389.786143276,390.286190032,390.033202207,nan,nan,nan,nan
1,91,1,1,1.0,1.0,0.214839170687,1,0.0,0.0,1.0,0.336080190684,0.0401658627058,0.295914327978,0.37624605339,0.0401658627058,0.252354052694,337,-0.160643365934,0.457858386897,0.259303564052,-154.812537723,244.812537723,7.85941272277,348.0,-0.175384772129,0.468017843042,0.157582163916,2.40062060067,282.307053206,390.786311484,391.286303501,391.001150655,395.036782465,396.034735178,392.619802096,395.028453333
1,92,1,1,1.0,1.0,0.308033657726,0,0.0,0.0,0.0,0.334747871783,0.0418965944024,0.292851277381,0.376644466186,0.0418965944024,0.25664391974,32,1.0,0.061735800531,-1.0,nan,nan,nan,nan,0.0,0.0,0.0,nan,282.307053206,396.236996688,396.737005526,396.545030346,nan,nan,nan,nan
1,93,1,1,1.0,1.0,0.363920242991,0,0.0,0.0,0.0,0.334457499891,0.0417602412361,0.292697258655,0.376217741127,0.0417602412361,0.295597690468,170,1.0,-0.180990482069,0.247815061387,nan,nan,nan,nan,0.0,0.0,0.0,nan,282.307053206,397.23708963,397.737131539,397.601009873,nan,nan,nan,nan
1,94,1,1,1.0,1.0,0.323777329642,0,0.0,0.0,0.0,0.33477430358,0.0416461220942,0.293128181486,0.376420425675,0.0416461220942,0.33191041012,480,0.580928072941,0.32870764083,-1.0,nan,nan,nan,nan,0.0,0.0,0.0,nan,282.307053206,398.23723617,398.737261544,398.5610135,nan,nan,nan,nan
1,95,0,0,0.0,1.0,0.355607361067,0,0.0,0.0,0.0,0.334657314496,0.0414393685593,0.293217945937,0.376096683055,0.0414393685593,0.347768311234,389,-0.0691208065164,0.476626077068,-0.280234315682,nan,nan,nan,nan,0.0,0.0,0.0,nan,282.307053206,399.237394399,399.737419773,399.593001761,nan,nan,nan,nan
1,96,1,1,1.0,1.0,0.27555502858,0,0.0,0.0,0.0,0.334877841302,0.0412761028689,0.293601738433,0.376153944171,0.0412761028689,0.318313239763,13,0.950262168777,0.154664060346,-1.0,nan,nan,nan,nan,0.0,0.0,0.0,nan,282.307053206,400.237472801,400.737516421,400.51302783,nan,nan,nan,nan
1,97,1,1,1.0,1.0,0.24333583843,0,0.0,0.0,0.0,0.334259895336,0.0414999524699,0.292759942866,0.375759847806,0.0414999524699,0.291499409359,59,1.0,-0.0814409933332,-1.0,nan,nan,nan,nan,0.0,0.0,0.0,nan,282.307053206,401.237611359,401.73764272,401.480947197,nan,nan,nan,nan
1,98,1,1,1.0,1.0,0.307245362084,0,1.0,0.0,0.0,0.333322533925,0.0422946923022,0.291027841623,0.375617226227,0.0422946923022,0.275378743031,407,0.0305886347219,0.46645515455,-0.502577406972,nan,nan,nan,nan,0.0,0.0,0.0,nan,282.307053206,402.237746495,402.737768163,402.544991857,nan,nan,nan,nan
1,99,1,1,1.0,1.0,0.265689218417,1,0.0,0.0,1.0,0.333056440335,0.0421598823511,0.290896557984,0.375216322686,0.0421598823511,0.272090139644,493,0.689769084006,0.285700779988,-1.0,107.551072837,342.448927163,-4.19169783654,487.0,0.639529740128,0.306295026098,-1.0,2.69240282709,282.307053206,403.271257178,403.77124606,403.536946397,407.805070921,408.810885206,405.096414667,407.796740932
1,100,1,1,1.0,1.0,0.379232562147,0,0.0,0.0,0.0,0.332375963346,0.0424838837382,0.289892079607,0.374859847084,0.0424838837382,0.317389047549,65,1.0,-0.113312155659,-1.0,nan,nan,nan,nan,0.0,0.0,0.0,nan,282.307053206,409.013592324,409.513628816,409.392824886,nan,nan,nan,nan
1,101,1,1,1.0,1.0,0.426701634657,0,0.0,0.0,0.0,0.332844529334,0.042527255121,0.290317274212,0.375371784455,0.042527255121,0.357207805074,132,1.0,-0.307426825298,-0.115555361894,nan,nan,nan,nan,0.0,0.0,0.0,nan,282.307053206,410.022087669,410.522097362,410.448789303,nan,nan,nan,nan
1,102,1,1,1.0,1.0,0.394578237552,0,0.0,1.0,0.0,0.333773807604,0.0433245499727,0.290449257631,0.377098357577,0.0433245499727,0.400170811452,360,-0.167709501072,0.475188317955,0.0381258551808,nan,nan,nan,nan,0.0,0.0,0.0,nan,282.307053206,411.022210831,411.522212827,411.416789068,nan,nan,nan,nan
1,103,1,1,1.0,1.0,0.330442061182,1,0.0,0.0,1.0,0.334369929466,0.0435259232556,0.290844006211,0.377895852722,0.0435259232556,0.38390731113,190,1.0,-0.0746884387243,0.407399635172,-23.2653687812,113.265368781,-20.3283812188,161.0,1.0,-0.223158351501,0.167490545043,4.70090701012,282.307053206,412.022323444,412.522347393,412.352765506,418.564803305,419.574721858,413.847512293,418.556476168
1,104,1,1,1.0,1.0,0.355329390615,0,0.0,0.0,0.0,0.334331794823,0.0433158292864,0.291015965536,0.377647624109,0.0433158292864,0.360116563117,70,1.0,-0.13936984996,-0.906436913284,nan,nan,nan,nan,0.0,0.0,0.0,nan,282.307053206,419.773298764,420.273355498,420.128628155,nan,nan,nan,nan
1,105,0,0,0.0,1.0,0.411151259206,0,0.0,0.0,0.0,0.334533694782,0.04315574985,0.291377944932,0.377689444632,0.04315574985,0.365640903668,378,-0.117450136118,0.478670924818,-0.154810124165,nan,nan,nan,nan,0.0,0.0,0.0,nan,282.307053206,420.773462125,421.273491775,421.184613384,nan,nan,nan,nan
1,106,1,1,1.0,1.0,0.387031413149,0,0.0,0.0,0.0,0.335263385872,0.0435896332713,0.291673752601,0.378853019143,0.0435896332713,0.38450402099,259,0.44882283482,0.268906983076,0.655011783756,nan,nan,nan,nan,0.0,0.0,0.0,nan,282.307053206,421.773557918,422.2735927,422.160589331,nan,nan,nan,nan
1,107,1,1,1.0,1.0,0.322866156697,0,0.0,0.0,0.0,0.335751763488,0.0436712136762,0.292080549812,0.379422977164,0.0436712136762,0.373682943018,57,1.0,-0.0707313323512,-1.0,nan,nan,nan,nan,0.0,0.0,0.0,nan,282.307053206,422.773707024,423.273748648,423.096573181,nan,nan,nan,nan
1,108,1,1,1.0,1.0,0.330676411279,0,0.0,0.0,0.0,0.335631337256,0.0434843431826,0.292146994074,0.379115680439,0.0434843431826,0.346857993708,153,1.0,-0.255547855702,0.0926213922694,nan,nan,nan,nan,0.0,0.0,0.0,nan,282.307053206,423.773867534,424.27385556,424.104543946,nan,nan,nan,nan
1,109,1,1,1.0,1.0,0.298557576258,0,0.0,0.0,0.0,0.335585458312,0.0432851602833,0.292300298029,0.378870618595,0.0432851602833,0.317366714745,371,-0.14179360683,0.478331938097,-0.0779732583494,nan,nan,nan,nan,0.0,0.0,0.0,nan,282.307053206,424.773975301,425.273971595,425.072532877,nan,nan,nan,nan
1,110,1,1,1.0,1.0,0.330448618624,0,0.0,0.0,0.0,0.335245752972,0.0432305358823,0.29201521709,0.378476288854,0.0432305358823,0.319894202054,31,1.0,0.0668515730764,-1.0,nan,nan,nan,nan,0.0,0.0,0.0,nan,282.307053206,425.77405969,426.274103595,426.104508309,nan,nan,nan,nan
1,111,1,1,1.0,1.0,0.274268952198,0,0.0,0.0,0.0,0.33520214266,0.0430359933559,0.292166149304,0.378238136016,0.0430359933559,0.301091715693,275,0.279002393219,0.326185254474,0.630178474337,nan,nan,nan,nan,0.0,0.0,0.0,nan,282.307053206,426.774229893,427.27423474,427.048498846,nan,nan,nan,nan
1,112,1,1,1.0,1.0,0.330172643531,0,0.0,0.0,0.0,0.334653194998,0.0432268314471,0.291426363551,0.377880026445,0.0432268314471,0.311630071451,156,1.0,-0.244060613314,0.121041471254,nan,nan,nan,nan,0.0,0.0,0.0,nan,282.307053206,427.774333669,428.274367881,428.104506313,nan,nan,nan,nan
1,113,1,1,1.0,1.0,0.377981837839,0,0.0,0.0,0.0,0.334613190074,0.0430354858061,0.291577704268,0.37764867588,0.0430354858061,0.327474477856,372,-0.138660017671,0.478458869494,-0.0888123791441,nan,nan,nan,nan,0.0,0.0,0.0,nan,282.307053206,428.774462819,429.274499311,429.152444656,nan,nan,nan,nan
1,114,1,1,1.0,1.0,0.337839779444,0,0.0,0.0,0.0,0.334996983417,0.0430367341889,0.291960249228,0.378033717606,0.0430367341889,0.348664753605,5,0.88714030954,0.190659852496,-1.0,nan,nan,nan,nan,0.0,0.0,0.0,nan,282.307053206,429.774611925,430.274613065,430.112451704,nan,nan,nan,nan
1,115,0,0,0.0,1.0,0.465723828878,0,0.0,0.0,0.0,0.335021920224,0.0428483807887,0.292173539436,0.377870301013,0.0428483807887,0.393848482054,79,1.0,-0.184296021705,-0.724170777997,nan,nan,nan,nan,0.0,0.0,0.0,nan,282.307053206,430.774697454,431.274763312,431.240421283,nan,nan,nan,nan
1,116,1,1,1.0,1.0,0.305601773318,0,0.0,0.0,0.0,0.336158458561,0.0443539701791,0.291804488381,0.38051242874,0.0443539701791,0.36972179388,384,-0.0924750057551,0.477945316949,-0.222479273925,nan,nan,nan,nan,0.0,0.0,0.0,nan,282.307053206,431.774823752,432.27487393,432.080425526,nan,nan,nan,nan
1,117,0,0,0.0,1.0,0.3694172143,0,0.0,0.0,0.0,0.33589503886,0.0442526298561,0.291642409004,0.380147668716,0.0442526298561,0.380247605499,501,0.7564492333,0.256253544744,-1.0,nan,nan,nan,nan,0.0,0.0,0.0,nan,282.307053206,432.774994811,433.275016764,433.144412025,nan,nan,nan,nan
1,118,1,1,1.0,1.0,0.297276631463,0,0.0,0.0,0.0,0.33618155318,0.0441710332208,0.292010519959,0.380352586401,0.0441710332208,0.324098539694,17,0.981069150956,0.135921910835,-1.0,nan,nan,nan,nan,0.0,0.0,0.0,nan,282.307053206,433.775102863,434.275148479,434.072379495,nan,nan,nan,nan
1,119,1,1,1.0,1.0,0.353114465717,0,0.0,0.0,0.0,0.335851850454,0.0441278138242,0.29172403663,0.379979664278,0.0441278138242,0.339936103827,84,1.0,-0.20765784414,-0.652191087791,nan,nan,nan,nan,0.0,0.0,0.0,nan,282.307053206,434.775248833,435.27525425,435.128363299,nan,nan,nan,nan
1,120,1,1,1.0,1.0,0.374255324248,0,0.0,0.0,0.0,0.335996914448,0.0439702573409,0.292026657107,0.379967171788,0.0439702573409,0.341548807143,140,1.0,-0.294209249228,-0.0345777392028,nan,nan,nan,nan,0.0,0.0,0.0,nan,282.307053206,435.842091728,436.342083746,436.216347053,nan,nan,nan,nan
1,121,1,1,1.0,1.0,0.350196774583,0,0.0,0.0,0.0,0.336315734529,0.0439245706217,0.292391163908,0.380240305151,0.0439245706217,0.35918885485,363,-0.162287729338,0.476365729747,0.00704812682028,nan,nan,nan,nan,0.0,0.0,0.0,nan,282.307053206,436.842136774,437.342173551,437.192333548,nan,nan,nan,nan
1,122,1,1,1.0,1.0,0.422036008909,0,0.0,1.0,0.0,0.336430453869,0.0437607355768,0.292669718292,0.380191189445,0.0437607355768,0.38216270258,460,0.415848916989,0.383334931935,-1.0,nan,nan,nan,nan,0.0,0.0,0.0,nan,282.307053206,437.842279037,438.342333776,438.264315046,nan,nan,nan,nan
1,123,1,1,1.0,1.0,0.36587572936,1,0.0,0.0,1.0,0.337132138746,0.0442592476486,0.292872891097,0.381391386395,0.0442592476486,0.379369504284,415,0.0813077335083,0.459153678902,-0.614968023274,147.828782871,302.171217129,10.3743421285,430.0,0.184725017221,0.440645728776,-0.941904167281,3.18404119322,282.307053206,438.842409042,439.342470909,439.208284772,443.86800598,444.877490329,440.66759447,443.859672571
1,124,1,1,1.0,1.0,0.379666196182,0,0.0,0.0,0.0,0.337365826474,0.0441544737831,0.293211352691,0.381520300258,0.0441544737831,0.389192644817,265,0.384259149088,0.291568309415,0.649478858709,nan,nan,nan,nan,0.0,0.0,0.0,nan,282.307053206,445.076519115,445.576560739,445.456185311,nan,nan,nan,nan
1,125,1,1,1.0,1.0,0.307458330411,0,0.0,0.0,0.0,0.337706958488,0.0441385146113,0.293568443877,0.3818454731,0.0441385146113,0.351000085318,376,-0.124962824795,0.478704673615,-0.132627625282,nan,nan,nan,nan,0.0,0.0,0.0,nan,282.307053206,446.076687037,446.57670728,446.384145368,nan,nan,nan,nan
1,126,1,1,1.0,1.0,0.307339729741,0,0.0,0.0,0.0,0.337464969464,0.044044115176,0.293420854288,0.38150908464,0.044044115176,0.331488085445,471,0.506014005179,0.354993781952,-1.0,nan,nan,nan,nan,0.0,0.0,0.0,nan,282.307053206,447.076798511,447.576815332,447.38413824,nan,nan,nan,nan
1,127,1,1,1.0,1.0,0.339223644696,0,0.0,0.0,0.0,0.33722588026,0.0439503541756,0.293275526084,0.381176234435,0.0439503541756,0.31800723495,122,1.0,-0.311159539646,-0.219144224573,nan,nan,nan,nan,0.0,0.0,0.0,nan,282.307053206,448.076902857,448.576938494,448.416126501,nan,nan,nan,nan
1,128,1,1,1.0,1.0,0.299038250931,0,0.0,0.0,0.0,0.337241610688,0.0437773354234,0.293464275265,0.381018946112,0.0437773354234,0.315200541789,419,0.107894673663,0.454841969249,-0.678098861371,nan,nan,nan,nan,0.0,0.0,0.0,nan,282.307053206,449.07707306,449.577077337,449.376111311,nan,nan,nan,nan
1,129,1,1,1.0,1.0,0.314931029454,0,0.0,0.0,0.0,0.33694314694,0.0437355236468,0.293207623293,0.380678670587,0.0437355236468,0.317730975027,370,-0.144805996584,0.478178727438,-0.0671803333712,nan,nan,nan,nan,0.0,0.0,0.0,nan,282.307053206,450.077186814,450.577207341,450.392117843,nan,nan,nan,nan
1,130,1,1,1.0,1.0,0.338804265484,0,0.0,0.0,0.0,0.33677251037,0.0436084293211,0.293164081049,0.380380939691,0.0436084293211,0.317591181956,70,1.0,-0.13936984996,-0.906436913284,nan,nan,nan,nan,0.0,0.0,0.0,nan,282.307053206,451.077307411,451.577328508,451.416111676,nan,nan,nan,nan
1,131,0,0,0.0,1.0,0.40258292947,0,0.0,0.0,0.0,0.336788139256,0.043440743476,0.29334739578,0.380228882732,0.043440743476,0.352106074803,415,0.0813077335083,0.459153678902,-0.614968023274,nan,nan,nan,nan,0.0,0.0,0.0,nan,282.307053206,452.077472197,452.577485026,452.480055126,nan,nan,nan,nan
1,132,1,1,1.0,1.0,0.282500011381,0,0.0,0.0,0.0,0.337290389563,0.0436518735249,0.293638516038,0.380942263088,0.0436518735249,0.341295735445,121,1.0,-0.310732805591,-0.229640808446,nan,nan,nan,nan,0.0,0.0,0.0,nan,282.307053206,453.077544612,453.577583385,453.360044623,nan,nan,nan,nan
1,133,1,1,1.0,1.0,0.290320245083,0,0.0,0.0,0.0,0.33687531094,0.0437449492651,0.293130361675,0.380620260205,0.0437449492651,0.325134395311,277,0.258470646878,0.33263615818,0.624824240443,nan,nan,nan,nan,0.0,0.0,0.0,nan,282.307053206,454.077704552,454.577726504,454.368024797,nan,nan,nan,nan
1,134,1,1,1.0,1.0,0.314184072893,0,0.0,0.0,0.0,0.336525272851,0.0437653513768,0.292759921474,0.380290624228,0.0437653513768,0.295668109786,141,1.0,-0.291952736687,-0.024586852943,nan,nan,nan,nan,0.0,0.0,0.0,nan,282.307053206,455.077813744,455.577837408,455.391997817,nan,nan,nan,nan
1,135,1,1,1.0,1.0,0.282049557194,0,0.0,0.0,0.0,0.336358547478,0.0436441170628,0.292714430416,0.380002664541,0.0436441170628,0.29551795839,244,0.611372359265,0.206163547436,0.648880721676,nan,nan,nan,nan,0.0,0.0,0.0,nan,282.307053206,456.077942893,456.577984233,456.359992451,nan,nan,nan,nan
1,136,1,1,1.0,1.0,0.281914135441,0,0.0,0.0,0.0,0.335956258661,0.0437308280437,0.292225430618,0.379687086705,0.0437308280437,0.292715921843,360,-0.167709501072,0.475188317955,0.0381258551808,nan,nan,nan,nan,0.0,0.0,0.0,nan,282.307053206,457.07804838,457.578111101,457.359962515,nan,nan,nan,nan
1,137,0,0,1.0,0.0,0.257733278442,0,0.0,0.0,0.0,0.335558890108,0.0438137010894,0.291745189019,0.379372591198,0.0438137010894,0.273898990359,290,0.131265381085,0.370776544741,0.578206616232,nan,nan,nan,nan,0.0,0.0,0.0,nan,282.307053206,458.078218013,458.578245953,458.335951291,nan,nan,nan,nan
1,138,1,1,1.0,1.0,0.257587023079,0,0.0,0.0,0.0,0.33499081995,0.0441533252794,0.290837494671,0.37914414523,0.0441533252794,0.265744812321,412,0.0618891196837,0.462096609288,-0.571158935758,nan,nan,nan,nan,0.0,0.0,0.0,nan,282.307053206,459.078329201,459.578346592,459.335916224,nan,nan,nan,nan
1,139,0,0,0.0,1.0,0.377452981658,0,0.0,0.0,0.0,0.334429922871,0.0444802221526,0.289949700719,0.378910145024,0.0444802221526,0.297591094393,484,0.614398947124,0.316112737715,-1.0,nan,nan,nan,nan,0.0,0.0,0.0,nan,282.307053206,460.078469469,460.5785014,460.455922451,nan,nan,nan,nan
1,140,1,1,1.0,1.0,0.345315329731,0,0.0,0.0,0.0,0.33473944128,0.0444688323167,0.290270608963,0.379208273597,0.0444688323167,0.326785111489,133,1.0,-0.306259573676,-0.105336427414,nan,nan,nan,nan,0.0,0.0,0.0,nan,282.307053206,461.078583223,461.578601755,461.423898553,nan,nan,nan,nan
1,141,1,1,1.0,1.0,0.321141600143,0,0.0,0.0,0.0,0.33481498334,0.0443186803657,0.290496302975,0.379133663706,0.0443186803657,0.347969970511,411,0.0555201669072,0.463022710015,-0.557054760163,nan,nan,nan,nan,0.0,0.0,0.0,nan,282.307053206,462.078741453,462.578740597,462.399883053,nan,nan,nan,nan
1,142,1,1,1.0,1.0,0.303598675877,0,0.0,0.0,0.0,0.334718008991,0.0441761460897,0.290541862902,0.378894155081,0.0441761460897,0.323351868584,76,1.0,-0.169674511773,-0.773365826749,nan,nan,nan,nan,0.0,0.0,0.0,nan,282.307053206,463.11225128,463.612201103,463.415849956,nan,nan,nan,nan
1,143,1,1,1.0,1.0,0.359555110801,0,0.0,0.0,0.0,0.334498858758,0.0440971709222,0.290401687836,0.37859602968,0.0440971709222,0.328098462274,425,0.149162615564,0.447529597292,-0.791715667876,nan,nan,nan,nan,0.0,0.0,0.0,nan,282.307053206,464.112279505,464.612326832,464.471834616,nan,nan,nan,nan
1,144,1,1,1.0,1.0,0.375369486865,0,0.0,0.0,0.0,0.334674077304,0.043992292243,0.290681785061,0.378666369547,0.043992292243,0.346174424514,505,0.789537956352,0.240683140511,-1.0,nan,nan,nan,nan,0.0,0.0,0.0,nan,282.307053206,465.112457691,465.612452275,465.487827178,nan,nan,nan,nan
1,145,1,1,1.0,1.0,0.359262885526,0,0.0,0.0,0.0,0.334956684315,0.0439693414047,0.29098734291,0.378926025719,0.0439693414047,0.364729161064,202,1.0,-0.00802826454356,0.487596984314,nan,nan,nan,nan,0.0,0.0,0.0,nan,282.307053206,466.11254208,466.612586556,466.471804966,nan,nan,nan,nan
1,146,1,1,1.0,1.0,0.367064016871,0,0.0,0.0,0.0,0.335124313289,0.043863608876,0.291260704413,0.378987922165,0.043863608876,0.367232129754,86,1.0,-0.21659106269,-0.625617802914,nan,nan,nan,nan,0.0,0.0,0.0,nan,282.307053206,467.112702875,467.612716845,467.479766892,nan,nan,nan,nan
1,147,1,1,1.0,1.0,0.358971515205,0,0.0,0.0,0.0,0.335343078382,0.0437924357013,0.29155064268,0.379135514083,0.0437924357013,0.361766139201,472,0.51429864939,0.352212277195,-1.0,nan,nan,nan,nan,0.0,0.0,0.0,nan,282.307053206,468.112806081,468.612871938,468.471777596,nan,nan,nan,nan
1,148,1,1,1.0,1.0,0.358791048639,0,0.0,0.0,0.0,0.335503816047,0.0436864219512,0.291817394096,0.379190237998,0.0436864219512,0.361608860238,235,0.707591924495,0.164537776567,0.631659631194,nan,nan,nan,nan,0.0,0.0,0.0,nan,282.307053206,469.112947489,469.612959749,469.471738538,nan,nan,nan,nan
1,149,1,1,1.0,1.0,0.350662909448,0,0.0,0.0,0.0,0.335661162213,0.0435803575959,0.292080804617,0.379241519809,0.0435803575959,0.35614182443,76,1.0,-0.169674511773,-0.773365826749,nan,nan,nan,nan,0.0,0.0,0.0,nan,282.307053206,470.113063239,470.613080915,470.463726148,nan,nan,nan,nan
1,150,1,1,1.0,1.0,0.334515538998,0,0.0,0.0,0.0,0.335761845081,0.0434511360277,0.292310709053,0.379212981108,0.0434511360277,0.347989832362,159,1.0,-0.231765974528,0.149055008463,nan,nan,nan,nan,0.0,0.0,0.0,nan,282.307053206,471.113210064,471.613217192,471.447725603,nan,nan,nan,nan
1,151,1,1,1.0,1.0,0.358391056303,0,0.0,0.0,0.0,0.335753536373,0.0433061754654,0.292447360908,0.379059711839,0.0433061754654,0.347856501583,313,-0.0530221528698,0.42279583272,0.448797959603,nan,nan,nan,nan,0.0,0.0,0.0,nan,282.307053206,472.113315836,472.613347196,472.471706892,nan,nan,nan,nan
1,152,1,1,1.0,1.0,0.382254599128,0,0.0,0.0,0.0,0.335903453724,0.0432015750087,0.292701878715,0.379105028733,0.0432015750087,0.35838706481,444,0.289241202529,0.417409780569,-1.0,nan,nan,nan,nan,0.0,0.0,0.0,nan,282.307053206,473.113431585,473.613478912,473.495686185,nan,nan,nan,nan
1,153,1,1,1.0,1.0,0.37410108652,0,0.0,0.0,0.0,0.33620839547,0.0432219701419,0.292986425328,0.379430365612,0.0432219701419,0.371582247317,383,-0.0968787136249,0.478131214543,-0.211081409456,nan,nan,nan,nan,0.0,0.0,0.0,nan,282.307053206,474.113557314,474.613601789,474.4876584,nan,nan,nan,nan
1,154,1,1,1.0,1.0,0.373956541996,0,0.0,0.0,0.0,0.336456060117,0.043188563165,0.293267496952,0.379644623282,0.043188563165,0.376770742548,46,1.0,-0.0117313672748,-1.0,nan,nan,nan,nan,0.0,0.0,0.0,nan,282.307053206,475.113687033,475.613731508,475.487643575,nan,nan,nan,nan
1,155,1,1,1.0,1.0,0.333808211144,0,0.0,0.0,0.0,0.33669956974,0.0431533590073,0.293546210733,0.379852928747,0.0431533590073,0.360621946553,198,1.0,-0.0302354974571,0.462326941081,nan,nan,nan,nan,0.0,0.0,0.0,nan,282.307053206,476.113813331,476.613859232,476.447621542,nan,nan,nan,nan
1,156,1,1,1.0,1.0,0.349653948098,0,0.0,0.0,0.0,0.336680915814,0.043014552274,0.29366636354,0.379695468087,0.043014552274,0.352472900413,68,1.0,-0.129018143495,-0.972903198114,nan,nan,nan,nan,0.0,0.0,0.0,nan,282.307053206,477.113955881,477.614018887,477.463609829,nan,nan,nan,nan
1,157,1,1,1.0,1.0,0.301492658444,0,0.0,0.0,0.0,0.336764076277,0.0428889618337,0.293875114443,0.379653038111,0.0428889618337,0.328318272562,155,1.0,-0.2479831371,0.111611878621,nan,nan,nan,nan,0.0,0.0,0.0,nan,282.307053206,478.114103561,478.614127509,478.415596219,nan,nan,nan,nan
1,158,1,1,1.0,1.0,0.301364649553,0,0.0,0.0,0.0,0.336539417565,0.0428441394103,0.293695278154,0.379383556975,0.0428441394103,0.317503752032,316,-0.0718215561597,0.428203514031,0.427892255365,nan,nan,nan,nan,0.0,0.0,0.0,nan,282.307053206,479.11420192,479.614266637,479.415566569,nan,nan,nan,nan
1,159,0,0,0.0,1.0,0.389166225679,0,0.0,0.0,0.0,0.336316792451,0.0427993417791,0.293517450672,0.37911613423,0.0427993417791,0.330674511225,413,0.0683106243366,0.461143133648,-0.585495598612,nan,nan,nan,nan,0.0,0.0,0.0,nan,282.307053206,480.114380106,480.614390085,480.503546332,nan,nan,nan,nan
1,160,1,1,1.0,1.0,0.325042878743,0,0.0,0.0,0.0,0.336649178823,0.0428686243713,0.293780554452,0.379517803194,0.0428686243713,0.338524584658,489,0.656284860842,0.299572439858,-1.0,nan,nan,nan,nan,0.0,0.0,0.0,nan,282.307053206,481.114487588,481.614534914,481.439530467,nan,nan,nan,nan
1,161,0,0,0.0,1.0,0.388889395632,0,0.0,0.0,0.0,0.336576639448,0.042744237785,0.293832401663,0.379320877233,0.042744237785,0.367699500018,295,0.0860222946478,0.38372732295,0.554986075565,nan,nan,nan,nan,0.0,0.0,0.0,nan,282.307053206,482.114619018,482.614646957,482.503508414,nan,nan,nan,nan
1,162,1,1,1.0,1.0,0.300802721176,0,0.0,0.0,0.0,0.336901563399,0.0428090375466,0.294092525852,0.379710600946,0.0428090375466,0.338244998517,107,1.0,-0.290089771429,-0.379592780214,nan,nan,nan,nan,0.0,0.0,0.0,nan,282.307053206,483.114722223,483.61477069,483.415524945,nan,nan,nan,nan
1,163,1,1,1.0,1.0,0.324627206195,0,0.0,0.0,0.0,0.33667873104,0.0427702653882,0.293908465651,0.379448996428,0.0427702653882,0.338106441001,438,0.243622561222,0.428096439079,-1.0,nan,nan,nan,nan,0.0,0.0,0.0,nan,282.307053206,484.11485907,484.614894137,484.439486276,nan,nan,nan,nan
1,164,1,1,1.0,1.0,0.292517493479,0,0.0,0.0,0.0,0.336604795304,0.04264924971,0.293955545594,0.379254045014,0.04264924971,0.305982473617,350,-0.175756816429,0.469490941964,0.138247479403,nan,nan,nan,nan,0.0,0.0,0.0,nan,282.307053206,485.114961135,485.615024142,485.407478629,nan,nan,nan,nan
1,165,1,1,1.0,1.0,0.340317850001,0,0.0,0.0,0.0,0.336335970293,0.0426573181644,0.293678652129,0.378993288458,0.0426573181644,0.319154183225,51,1.0,-0.0385160204876,-1.0,nan,nan,nan,nan,0.0,0.0,0.0,nan,282.307053206,486.115131054,486.615136471,486.455448904,nan,nan,nan,nan
1,166,1,1,1.0,1.0,0.276198779233,0,0.0,0.0,0.0,0.336360102898,0.0425289800176,0.29383112288,0.378889082915,0.0425289800176,0.303011374238,286,0.169078956243,0.359734776014,0.594698705761,nan,nan,nan,nan,0.0,0.0,0.0,nan,282.307053206,487.115237965,487.615257352,487.391436744,nan,nan,nan,nan
1,167,1,1,1.0,1.0,0.282007932663,0,0.0,0.0,0.0,0.335997685285,0.0426554855766,0.293342199709,0.378653170862,0.0426554855766,0.299508187299,20,1.0,0.121558187834,-1.0,nan,nan,nan,nan,0.0,0.0,0.0,nan,282.307053206,488.165434569,488.665430007,488.447442501,nan,nan,nan,nan
1,168,1,1,1.0,1.0,0.313907242846,0,1.0,0.0,0.0,0.335674393353,0.0427310803881,0.292943312965,0.378405473741,0.0427310803881,0.290704651581,257,0.470472903111,0.261039853404,0.655841377839,nan,nan,nan,nan,0.0,0.0,0.0,nan,282.307053206,489.165498145,489.665551459,489.479405388,nan,nan,nan,nan
1,169,1,1,1.0,1.0,0.329419700429,1,0.0,0.0,1.0,0.335544826981,0.0426366041424,0.292908222839,0.378181431124,0.0426366041424,0.308444958646,341,-0.168535884224,0.46196150489,0.223260112086,-155.658910063,245.658910063,5.89328506331,349.0,-0.175656888649,0.468768509344,0.147945183432,3.06733525917,282.307053206,490.173959849,490.673999478,490.503379549,495.091206785,496.091401507,492.007508621,495.082883354
1,170,1,1,1.0,1.0,0.475479306187,0,0.0,0.0,0.0,0.335508583629,0.0425128687326,0.292995714896,0.378021452361,0.0425128687326,0.372935416487,459,0.407758158413,0.385709174134,-1.0,nan,nan,nan,nan,0.0,0.0,0.0,nan,282.307053206,496.299786918,496.799780075,496.775266224,nan,nan,nan,nan
1,171,1,1,1.0,1.0,0.347408232745,0,0.0,0.0,0.0,0.33633194082,0.043718194799,0.292613746021,0.380050135619,0.043718194799,0.38410241312,168,1.0,-0.190790017254,0.230361799274,nan,nan,nan,nan,0.0,0.0,0.0,nan,282.307053206,497.29986646,497.799918633,497.647274693,nan,nan,nan,nan
1,172,1,1,1.0,1.0,0.28330370225,0,0.0,0.0,0.0,0.336396714457,0.0435983570023,0.292798357455,0.37999507146,0.0435983570023,0.368730413727,12,0.942476689623,0.159273951266,-1.0,nan,nan,nan,nan,0.0,0.0,0.0,nan,282.307053206,498.299981354,498.800018132,498.583285057,nan,nan,nan,nan
1,173,1,1,1.0,1.0,0.30712419562,0,0.0,0.0,0.0,0.336088034154,0.0436584351164,0.292429599037,0.37974646927,0.0436584351164,0.312612043538,454,0.367627362238,0.397084843583,-1.0,nan,nan,nan,nan,0.0,0.0,0.0,nan,282.307053206,499.300104802,499.800145286,499.607228997,nan,nan,nan,nan
1,174,0,0,0.0,1.0,0.378933779895,0,0.0,0.0,0.0,0.335920613122,0.0435874110371,0.292333202085,0.379508024159,0.0435874110371,0.323120559255,86,1.0,-0.21659106269,-0.625617802914,nan,nan,nan,nan,0.0,0.0,0.0,nan,282.307053206,500.300263601,500.800295532,500.679197381,nan,nan,nan,nan
1,175,1,1,1.0,1.0,0.282810768113,0,0.0,0.0,0.0,0.33616781523,0.0435834313484,0.292584383881,0.379751246578,0.0435834313484,0.322956247876,12,0.942476689623,0.159273951266,-1.0,nan,nan,nan,nan,0.0,0.0,0.0,nan,282.307053206,501.300376215,501.800419835,501.583186983,nan,nan,nan,nan
1,176,1,1,1.0,1.0,0.346664982382,0,0.0,0.0,0.0,0.335862917818,0.0436444335171,0.2922184843,0.379507351335,0.0436444335171,0.33613651013,97,1.0,-0.260369742894,-0.491718830742,nan,nan,nan,nan,0.0,0.0,0.0,nan,282.307053206,502.300505364,502.800533589,502.647170347,nan,nan,nan,nan
1,177,1,1,1.0,1.0,0.282494594809,0,0.0,0.0,0.0,0.335924293184,0.043527840007,0.292396453177,0.379452133191,0.043527840007,0.303990115101,278,0.248285521772,0.335802812283,0.621962573991,nan,nan,nan,nan,0.0,0.0,0.0,nan,282.307053206,503.300624535,503.800650194,503.58311913,nan,nan,nan,nan
1,178,0,0,1.0,0.0,0.282400227152,0,0.0,0.0,0.0,0.335622430482,0.0435890559811,0.292033374501,0.379211486463,0.0435890559811,0.303853268114,228,0.780729811514,0.1302769546,0.611433142569,nan,nan,nan,nan,0.0,0.0,0.0,nan,282.307053206,504.300737149,504.800815266,504.583137376,nan,nan,nan,nan
1,179,1,1,1.0,1.0,0.298247104511,0,0.0,0.0,0.0,0.335323429339,0.0436480894122,0.291675339927,0.378971518752,0.0436480894122,0.28771397549,393,-0.0489456633786,0.475102171109,-0.327443230616,nan,nan,nan,nan,0.0,0.0,0.0,nan,282.307053206,505.300873996,505.800918471,505.5991211,nan,nan,nan,nan
1,180,1,1,1.0,1.0,0.282095742878,0,0.0,0.0,0.0,0.335116299033,0.0436136344382,0.291502664595,0.378729933471,0.0436136344382,0.287581024847,271,0.320642857732,0.312811632898,0.639400143054,nan,nan,nan,nan,0.0,0.0,0.0,nan,282.307053206,506.301002575,506.801037927,506.583098317,nan,nan,nan,nan
1,181,1,1,1.0,1.0,0.32989438856,0,0.0,0.0,0.0,0.334821740388,0.043670499336,0.291151241052,0.378492239724,0.043670499336,0.303412411983,79,1.0,-0.184296021705,-0.724170777997,nan,nan,nan,nan,0.0,0.0,0.0,nan,282.307053206,507.30116337,507.801191024,507.631057758,nan,nan,nan,nan
1,182,1,1,1.0,1.0,0.353805827443,0,0.0,0.0,0.0,0.33479451745,0.04355122702,0.29124329043,0.37834574447,0.04355122702,0.321931986293,122,1.0,-0.311159539646,-0.219144224573,nan,nan,nan,nan,0.0,0.0,0.0,nan,282.307053206,508.301260874,508.801304779,508.655066701,nan,nan,nan,nan
1,183,1,1,1.0,1.0,0.329645782709,0,0.0,0.0,0.0,0.334898975197,0.0434541466612,0.291444828536,0.378353121858,0.0434541466612,0.337781999571,437,0.23613482661,0.429770237144,-1.0,nan,nan,nan,nan,0.0,0.0,0.0,nan,282.307053206,509.301378334,509.801419673,509.631024117,nan,nan,nan,nan
1,184,1,1,1.0,1.0,0.345494370908,0,0.0,0.0,0.0,0.334870269227,0.0433369872016,0.291533282025,0.378207256429,0.0433369872016,0.342981993686,371,-0.14179360683,0.478331938097,-0.0779732583494,nan,nan,nan,nan,0.0,0.0,0.0,nan,282.307053206,510.301505487,510.801548822,510.646999858,nan,nan,nan,nan
1,185,1,1,1.0,1.0,0.401369553059,0,0.0,0.0,0.0,0.33492800891,0.0432261208414,0.291701888069,0.378154129751,0.0432261208414,0.358836568892,217,0.891250405156,0.0735373331823,0.568048345461,nan,nan,nan,nan,0.0,0.0,0.0,nan,282.307053206,511.301632641,511.801676546,511.703002194,nan,nan,nan,nan
1,186,1,1,1.0,1.0,0.353244470432,0,0.0,0.0,0.0,0.335287152392,0.0433835291309,0.291903623261,0.378670681523,0.0433835291309,0.366702798133,457,0.391639248186,0.390358177281,-1.0,nan,nan,nan,nan,0.0,0.0,0.0,nan,282.307053206,512.301759224,512.801802559,512.655003695,nan,nan,nan,nan
1,187,1,1,1.0,1.0,0.39308888698,0,0.0,1.0,0.0,0.335383697112,0.0432866721002,0.292097025012,0.378670369213,0.0432866721002,0.382567636824,373,-0.135407706169,0.478559568072,-0.0996974893599,nan,nan,nan,nan,0.0,0.0,0.0,nan,282.307053206,513.301889799,513.801945678,513.694978686,nan,nan,nan,nan
1,188,1,1,1.0,1.0,0.50026000943,1,0.0,0.0,1.0,0.335692281016,0.043375427049,0.292316853966,0.379067708065,0.043375427049,0.415531122281,149,1.0,-0.269478519393,0.0541436597792,-43.1642252595,133.164225259,28.3986002595,189.0,1.0,-0.0802194643608,0.400143472992,2.56731473235,282.307053206,514.302012676,514.802109324,514.802272686,518.719221409,519.72502372,516.135554606,518.710879447
1,189,1,1,1.0,1.0,0.351104810834,0,0.0,0.0,0.0,0.336567641273,0.0448855196164,0.291682121657,0.381453160889,0.0448855196164,0.414817902415,388,-0.0739633693698,0.476941921698,-0.268577162136,nan,nan,nan,nan,0.0,0.0,0.0,nan,282.307053206,519.927754216,520.427811806,520.278859027,nan,nan,nan,nan
1,190,1,1,1.0,1.0,0.366938858759,0,0.0,0.0,0.0,0.336644557514,0.0447790381649,0.291865519349,0.381423595679,0.0447790381649,0.406101226341,475,0.539218753276,0.343659807328,-1.0,nan,nan,nan,nan,0.0,0.0,0.0,nan,282.307053206,520.927889923,521.427934968,521.294828781,nan,nan,nan,nan
1,191,1,1,1.0,1.0,0.390775602777,0,0.0,0.0,0.0,0.336804001205,0.044714802765,0.29208919844,0.38151880397,0.044714802765,0.369606424123,238,0.675741828754,0.178727669763,0.638511091232,nan,nan,nan,nan,0.0,0.0,0.0,nan,282.307053206,521.928042735,522.428056705,522.318818338,nan,nan,nan,nan
1,192,1,1,1.0,1.0,0.406647569034,0,0.0,1.0,0.0,0.337086575035,0.0447673605047,0.29231921453,0.38185393554,0.0447673605047,0.388120676856,308,-0.0186828559465,0.413097475488,0.481682330771,nan,nan,nan,nan,0.0,0.0,0.0,nan,282.307053206,522.928156774,523.428167323,523.334804343,nan,nan,nan,nan
1,193,1,1,1.0,1.0,0.37449138565,1,0.0,0.0,1.0,0.337448871879,0.0449304899708,0.292518381908,0.38237936185,0.0449304899708,0.39063818582,427,0.163265173604,0.444863218481,-0.840208708629,146.028036694,303.971963306,3.73758830557,432.0,0.199227897075,0.437687328843,-1.0,2.66729625734,282.307053206,523.928285068,524.428313293,524.302776454,528.445451093,529.443641007,525.761783663,528.437120249
1,194,1,1,1.0,1.0,0.353030646686,0,0.0,0.0,0.0,0.337640802002,0.0448927814583,0.292748020544,0.38253358346,0.0448927814583,0.37805653379,86,1.0,-0.21659106269,-0.625617802914,nan,nan,nan,nan,0.0,0.0,0.0,nan,282.307053206,529.645658758,530.14567786,529.998689405,nan,nan,nan,nan
1,195,1,1,1.0,1.0,0.376847148873,0,0.0,0.0,0.0,0.337720131098,0.0447904893186,0.29292964178,0.382510620417,0.0447904893186,0.368123060403,235,0.707591924495,0.164537776567,0.631659631194,nan,nan,nan,nan,0.0,0.0,0.0,nan,282.307053206,530.645806154,531.145836944,531.022653303,nan,nan,nan,nan
1,196,1,1,1.0,1.0,0.384720980655,0,0.0,0.0,0.0,0.337920782472,0.0447628240734,0.293157958398,0.382683606545,0.0447628240734,0.371532925405,60,1.0,-0.0867837676833,-1.0,nan,nan,nan,nan,0.0,0.0,0.0,nan,282.307053206,531.645922189,532.145961247,532.030643169,nan,nan,nan,nan
1,197,1,1,1.0,1.0,0.368602404837,0,0.0,0.0,0.0,0.338159558993,0.044772817434,0.293386741559,0.382932376427,0.044772817434,0.376723511455,421,0.121471671064,0.452518040197,-0.712610339232,nan,nan,nan,nan,0.0,0.0,0.0,nan,282.307053206,532.646025679,533.146069299,533.014628084,nan,nan,nan,nan
1,198,1,1,1.0,1.0,0.368407112546,0,0.0,0.0,0.0,0.338314091205,0.0447114083906,0.293602682815,0.383025499596,0.0447114083906,0.373910166013,203,1.0,-0.00249325098487,0.493674673203,nan,nan,nan,nan,0.0,0.0,0.0,nan,282.307053206,533.64618961,534.14618904,534.014596723,nan,nan,nan,nan
1,199,1,1,1.0,1.0,0.368285090663,0,0.0,0.0,0.0,0.338466076162,0.0446493461545,0.293816730007,0.383115422316,0.0446493461545,0.368431536015,259,0.44882283482,0.268906983076,0.655011783756,nan,nan,nan,nan,0.0,0.0,0.0,nan,282.307053206,534.646292531,535.146340997,535.014577622,nan,nan,nan,nan
1,200,1,1,1.0,1.0,0.408135779668,0,0.0,0.0,0.0,0.338615920455,0.0445869034334,0.294029017022,0.383202823889,0.0445869034334,0.381609327625,3,0.871087178923,0.199335109687,-1.0,nan,nan,nan,nan,0.0,0.0,0.0,nan,282.307053206,535.646425671,536.146451615,536.054561451,nan,nan,nan,nan
1,201,1,1,1.0,1.0,0.424012307078,0,0.0,1.0,0.0,0.338963519752,0.0447447899407,0.294218729811,0.383708309692,0.0447447899407,0.400144392469,247,0.578947625354,0.219392674348,0.6523805853,nan,nan,nan,nan,0.0,0.0,0.0,nan,282.307053206,536.64655254,537.14658048,537.070564847,nan,nan,nan,nan
1,202,1,1,1.0,1.0,0.463874114212,1,0.0,0.0,1.0,0.339386648047,0.045032688793,0.294353959254,0.38441933684,0.045032688793,0.432007400319,86,1.0,-0.21659106269,-0.625617802914,31.8659776936,58.1340223064,-2.3347276936,83.0,1.0,-0.203097876184,-0.665876706514,2.47559363069,282.307053206,537.646661447,538.146694519,538.110535562,541.963849881,542.968635248,539.471889069,541.955515616
1,203,1,1,1.0,1.0,0.314082863275,0,0.0,0.0,0.0,0.340002922632,0.0457628933201,0.294240029312,0.385765815952,0.0457628933201,0.400656428188,373,-0.135407706169,0.478559568072,-0.0996974893599,nan,nan,nan,nan,0.0,0.0,0.0,nan,282.307053206,543.172351042,543.672403785,543.486433905,nan,nan,nan,nan
1,204,1,1,1.0,1.0,0.377913414501,0,0.0,0.0,0.0,0.33987523761,0.0456860946006,0.29418914301,0.385561332211,0.0456860946006,0.385290130662,72,1.0,-0.149607777062,-0.853203742106,nan,nan,nan,nan,0.0,0.0,0.0,nan,282.307053206,544.172497297,544.672526662,544.550410712,nan,nan,nan,nan
1,205,1,1,1.0,1.0,0.32179846568,0,0.0,0.0,0.0,0.340061699262,0.0456513490088,0.294410350253,0.38571304827,0.0456513490088,0.337931581152,426,0.156193047225,0.446210853967,-0.81485970128,nan,nan,nan,nan,0.0,0.0,0.0,nan,282.307053206,545.172631293,545.672668071,545.494429759,nan,nan,nan,nan
1,206,1,1,1.0,1.0,0.345639200881,0,0.0,0.0,0.0,0.339972610317,0.0455576415682,0.294414968749,0.385530251886,0.0455576415682,0.348450360354,180,1.0,-0.129278616986,0.331238955499,nan,nan,nan,nan,0.0,0.0,0.0,nan,282.307053206,546.172777263,546.672786101,546.518416464,nan,nan,nan,nan
1,207,1,1,1.0,1.0,0.35347596975,0,0.0,0.0,0.0,0.340000118039,0.0454486368018,0.294551481237,0.38544875484,0.0454486368018,0.340304545437,380,-0.109519508899,0.478533032186,-0.177177385375,nan,nan,nan,nan,0.0,0.0,0.0,nan,282.307053206,547.172887311,547.67291411,547.526363281,nan,nan,nan,nan
1,208,1,1,1.0,1.0,0.319249975961,0,0.0,0.0,0.0,0.340065218771,0.0453483516387,0.294716867133,0.38541357041,0.0453483516387,0.339455048864,174,1.0,-0.160790688716,0.281981279739,nan,nan,nan,nan,0.0,0.0,0.0,nan,282.307053206,548.223110429,548.72307194,548.542360405,nan,nan,nan,nan
1,209,1,1,1.0,1.0,0.295163201634,0,0.0,0.0,0.0,0.339965145489,0.0452621159686,0.29470302952,0.385227261457,0.0452621159686,0.322629715782,242,0.632911854383,0.197161183215,0.645921401967,nan,nan,nan,nan,0.0,0.0,0.0,nan,282.307053206,549.223158895,549.723210498,549.518322097,nan,nan,nan,nan
1,210,1,1,1.0,1.0,0.295026639476,0,0.0,0.0,0.0,0.339750782121,0.0452594176831,0.294491364438,0.385010199804,0.0452594176831,0.30314660569,341,-0.168535884224,0.46196150489,0.223260112086,nan,nan,nan,nan,0.0,0.0,0.0,nan,282.307053206,550.223285764,550.72330572,550.518312403,nan,nan,nan,nan
1,211,1,1,1.0,1.0,0.358882279601,0,0.0,0.0,0.0,0.339537810013,0.0452563826461,0.294281427367,0.384794192659,0.0452563826461,0.31635737357,76,1.0,-0.169674511773,-0.773365826749,nan,nan,nan,nan,0.0,0.0,0.0,nan,282.307053206,551.223415483,551.723441997,551.582297763,nan,nan,nan,nan
1,212,0,0,0.0,1.0,0.430732062552,0,0.0,0.0,0.0,0.339629489964,0.0451685558721,0.294460934092,0.384798045836,0.0451685558721,0.361546993876,260,0.438016636947,0.272781976488,0.654406567654,nan,nan,nan,nan,0.0,0.0,0.0,nan,282.307053206,552.223558602,552.723589108,552.654290665,nan,nan,nan,nan
1,213,1,1,1.0,1.0,0.358610581607,0,0.0,0.0,0.0,0.34005921908,0.0454921929884,0.294567026091,0.385551412068,0.0454921929884,0.382741641253,61,1.0,-0.0921163965413,-1.0,nan,nan,nan,nan,0.0,0.0,0.0,nan,282.307053206,553.223650974,553.723688037,553.582261555,nan,nan,nan,nan
1,214,1,1,1.0,1.0,0.358481146861,0,0.0,0.0,0.0,0.340146314678,0.0454029914302,0.294743323248,0.385549306109,0.0454029914302,0.38260793034,260,0.438016636947,0.272781976488,0.654406567654,nan,nan,nan,nan,0.0,0.0,0.0,nan,282.307053206,554.223774991,554.72382802,554.582256138,nan,nan,nan,nan
1,215,1,1,1.0,1.0,0.342322087847,0,0.0,0.0,0.0,0.340231991464,0.0453140408891,0.294917950575,0.385546032354,0.0453140408891,0.353137938771,49,1.0,-0.027785429985,-1.0,nan,nan,nan,nan,0.0,0.0,0.0,nan,282.307053206,555.22390186,555.723941489,555.566223948,nan,nan,nan,nan
1,216,1,1,1.0,1.0,0.468793762382,0,0.0,1.0,0.0,0.340241712843,0.0452087602515,0.295032952591,0.385450473094,0.0452087602515,0.389865665697,260,0.438016636947,0.272781976488,0.654406567654,nan,nan,nan,nan,0.0,0.0,0.0,nan,282.307053206,556.25741682,556.757409407,556.726210582,nan,nan,nan,nan
1,217,1,1,1.0,1.0,0.316638764925,1,0.0,0.0,1.0,0.34083686122,0.0459404305639,0.294896430657,0.386777291784,0.0459404305639,0.375918205051,214,0.920243657418,0.0575410437433,0.553854850604,-52.2142620392,142.214262039,-8.25448796079,202.0,1.0,-0.00802826454356,0.487596984314,7.6680358015,282.307053206,557.257542263,557.757538842,557.574181028,566.767035165,567.772194295,559.082702887,566.758680943
1,218,1,1,1.0,1.0,0.438744166866,0,0.0,0.0,0.0,0.340725349256,0.0458637459171,0.294861603339,0.386589095173,0.0458637459171,0.408058898058,358,-0.170583909915,0.474268316859,0.0585874414746,nan,nan,nan,nan,0.0,0.0,0.0,nan,282.307053206,567.967237698,568.467234848,568.405981865,nan,nan,nan,nan
1,219,1,1,1.0,1.0,0.430636839941,0,0.0,0.0,0.0,0.34117497686,0.0462353110208,0.294939665839,0.38741028788,0.0462353110208,0.395339923911,187,1.0,-0.0912463489427,0.385383214542,nan,nan,nan,nan,0.0,0.0,0.0,nan,282.307053206,568.967347461,569.467381102,569.397984301,nan,nan,nan,nan
1,220,1,1,1.0,1.0,0.366501518991,0,0.0,1.0,0.0,0.341583478518,0.0465222659118,0.295061212606,0.388105744429,0.0465222659118,0.411960841933,496,0.714833717156,0.274923884212,-1.0,nan,nan,nan,nan,0.0,0.0,0.0,nan,282.307053206,569.967470338,570.467513673,570.333971857,nan,nan,nan,nan
1,221,1,1,1.0,1.0,0.294371199794,1,0.0,0.0,1.0,0.341696742338,0.0464466671095,0.295250075228,0.388143409447,0.0464466671095,0.363836519575,371,-0.14179360683,0.478331938097,-0.0779732583494,-174.942751467,264.942751467,4.08337646744,377.0,-0.121259861678,0.478700828387,-0.143695900877,2.01736673387,282.307053206,570.967597207,571.467626857,571.261968406,574.826418761,575.837233947,572.792781779,574.818080504
1,222,1,1,1.0,1.0,0.378938056529,0,0.0,0.0,0.0,0.341482599611,0.0464501877597,0.295032411852,0.387932787371,0.0464501877597,0.346603591771,254,0.503011129055,0.248947817922,0.65613358125,nan,nan,nan,nan,0.0,0.0,0.0,nan,282.307053206,576.034924483,576.534971524,576.413862539,nan,nan,nan,nan
1,223,1,1,1.0,1.0,0.290804055519,0,0.0,0.0,0.0,0.341651317886,0.0464132727607,0.295238045125,0.388064590647,0.0464132727607,0.321371103947,373,-0.135407706169,0.478559568072,-0.0996974893599,nan,nan,nan,nan,0.0,0.0,0.0,nan,282.307053206,577.035023697,577.535091265,577.325827753,nan,nan,nan,nan
1,224,1,1,1.0,1.0,0.338675401174,0,0.0,0.0,0.0,0.341423303256,0.046433541369,0.294989761887,0.387856844625,0.046433541369,0.336139171074,324,-0.114799643766,0.441158325109,0.368064040095,nan,nan,nan,nan,0.0,0.0,0.0,nan,282.307053206,578.03514914,578.535219274,578.373824541,nan,nan,nan,nan
1,225,1,1,1.0,1.0,0.386471196078,0,0.0,0.0,0.0,0.341411035836,0.0463301413115,0.295080894525,0.387741177148,0.0463301413115,0.33865021759,209,0.967301840512,0.0304835193525,0.52804999659,nan,nan,nan,nan,0.0,0.0,0.0,nan,282.307053206,579.035314497,579.535347853,579.421785693,nan,nan,nan,nan
1,226,1,1,1.0,1.0,0.37831511721,0,0.0,0.0,0.0,0.341611303215,0.0463241410835,0.295287162132,0.387935444299,0.0463241410835,0.367820571487,401,-0.00506340639596,0.470796889516,-0.425203102762,nan,nan,nan,nan,0.0,0.0,0.0,nan,282.307053206,580.035451629,580.535449633,580.413766746,nan,nan,nan,nan
1,227,1,1,1.0,1.0,0.394207895733,0,0.0,0.0,0.0,0.341773709472,0.0462856927395,0.295488016732,0.388059402211,0.0462856927395,0.386331403007,157,1.0,-0.240048375319,0.130425901556,nan,nan,nan,nan,0.0,0.0,0.0,nan,282.307053206,581.035545996,581.535569659,581.429753892,nan,nan,nan,nan
1,228,0,0,0.0,1.0,0.490054932889,0,0.0,0.0,0.0,0.342004697077,0.0463139926087,0.295690704468,0.388318689685,0.0463139926087,0.420859315277,362,-0.164239727892,0.476000155386,0.0174578511848,nan,nan,nan,nan,0.0,0.0,0.0,nan,282.307053206,582.035696528,582.544057307,582.525751461,nan,nan,nan,nan
1,229,1,1,1.0,1.0,0.425920751877,0,0.0,0.0,0.0,0.342654040216,0.0472365519151,0.295417488301,0.389890592131,0.0472365519151,0.436727860166,297,0.0686262056446,0.388646276542,0.544904663634,nan,nan,nan,nan,0.0,0.0,0.0,nan,282.307053206,583.035813418,583.535820546,583.46173417,nan,nan,nan,nan
1,230,1,1,1.0,1.0,0.34574810788,0,0.0,0.0,0.0,0.343017650311,0.0474520032133,0.295565647097,0.390469653524,0.0474520032133,0.420574597549,89,1.0,-0.229484098413,-0.587370487375,nan,nan,nan,nan,0.0,0.0,0.0,nan,282.307053206,584.035954542,584.535952831,584.381702649,nan,nan,nan,nan
1,231,1,1,1.0,1.0,0.313634404447,0,0.0,0.0,0.0,0.343029521865,0.0473490751223,0.295680446743,0.390378596988,0.0473490751223,0.361767754735,478,0.56422249903,0.334793662244,-1.0,nan,nan,nan,nan,0.0,0.0,0.0,nan,282.307053206,585.036061738,585.536084831,585.349696143,nan,nan,nan,nan
1,232,1,1,1.0,1.0,0.337477990426,0,0.0,0.0,0.0,0.342902270275,0.0472858747562,0.295616395518,0.390188145031,0.0472858747562,0.332286834251,402,0.000724920831492,0.470139955471,-0.437811562499,nan,nan,nan,nan,0.0,0.0,0.0,nan,282.307053206,586.036204572,586.536218542,586.373682563,nan,nan,nan,nan
1,233,1,1,1.0,1.0,0.321325487923,0,0.0,0.0,0.0,0.342878889758,0.0471851935964,0.295693696162,0.390064083355,0.0471851935964,0.324145960932,246,0.589768841079,0.215019897151,0.651339528662,nan,nan,nan,nan,0.0,0.0,0.0,nan,282.307053206,587.036337998,587.536339424,587.357663486,nan,nan,nan,nan
1,234,1,1,1.0,1.0,0.377198674716,0,0.0,0.0,0.0,0.342786385888,0.0471049059406,0.295681479947,0.389891291828,0.0471049059406,0.345334051022,84,1.0,-0.20765784414,-0.652191087791,nan,nan,nan,nan,0.0,0.0,0.0,nan,282.307053206,588.036440918,588.536469428,588.413639593,nan,nan,nan,nan
1,235,1,1,1.0,1.0,0.337030387018,0,0.0,0.0,0.0,0.342933446951,0.047057718653,0.295875728298,0.389991165604,0.047057718653,0.345184849886,142,1.0,-0.289568116499,-0.0146273521697,nan,nan,nan,nan,0.0,0.0,0.0,nan,282.307053206,589.036567502,589.536594871,589.373597889,nan,nan,nan,nan
1,236,1,1,1.0,1.0,0.304963153787,0,0.0,0.0,0.0,0.342908327547,0.0469590612507,0.295949266296,0.389867388798,0.0469590612507,0.339730738507,190,1.0,-0.0746884387243,0.407399635172,nan,nan,nan,nan,0.0,0.0,0.0,nan,282.307053206,590.036679545,590.536755667,590.341642699,nan,nan,nan,nan
1,237,1,1,1.0,1.0,0.296734090429,0,0.0,0.0,0.0,0.342747542912,0.0469242443974,0.295823298515,0.38967178731,0.0469242443974,0.312909210411,465,0.456588679398,0.37096152752,-1.0,nan,nan,nan,nan,0.0,0.0,0.0,nan,282.307053206,591.036846328,591.536860297,591.333580418,nan,nan,nan,nan
1,238,1,1,1.0,1.0,0.22978656413,0,1.0,0.0,0.0,0.342553393324,0.0469200368529,0.295633356471,0.389473430177,0.0469200368529,0.277161269449,22,1.0,0.111842423158,-1.0,nan,nan,nan,nan,0.0,0.0,0.0,nan,282.307053206,592.063799191,592.561986824,592.293585755,nan,nan,nan,nan
1,239,1,1,1.0,1.0,0.271475278772,1,0.0,0.0,1.0,0.342079583117,0.0473861317204,0.294693451397,0.389465714838,0.0473861317204,0.265998644444,197,1.0,-0.035797595552,0.455774741445,-58.219084907,148.219084907,9.70345990702,211.0,0.948675772315,0.0413606888024,0.538689155053,2.70056888415,282.307053206,593.062066651,593.562118824,593.33354193,597.604327272,598.612881062,594.887267189,597.595947676
1,240,1,1,1.0,1.0,0.320601054933,0,0.0,0.0,0.0,0.341784167618,0.0475060064157,0.294278161202,0.389290174033,0.0475060064157,0.273954299279,371,-0.14179360683,0.478331938097,-0.0779732583494,nan,nan,nan,nan,0.0,0.0,0.0,nan,282.307053206,598.812859793,599.312841832,599.133460848,nan,nan,nan,nan
1,241,1,1,1.0,1.0,0.368460996076,0,0.0,0.0,0.0,0.341695904648,0.0474265655544,0.294269339094,0.389122470203,0.0474265655544,0.320179109927,157,1.0,-0.240048375319,0.130425901556,nan,nan,nan,nan,0.0,0.0,0.0,nan,282.307053206,599.812975543,600.312997495,600.181436539,nan,nan,nan,nan
1,242,1,1,1.0,1.0,0.34435055824,0,0.0,0.0,0.0,0.341806963119,0.0473593303166,0.294447632802,0.389166293436,0.0473593303166,0.34447086975,343,-0.171388175652,0.463836419185,0.204822810802,nan,nan,nan,nan,0.0,0.0,0.0,nan,282.307053206,600.813061072,601.313123224,601.157411631,nan,nan,nan,nan
1,243,1,1,1.0,1.0,0.440191608854,0,0.0,0.0,0.0,0.341817473843,0.0472616608392,0.294555813003,0.389079134682,0.0472616608392,0.384334387723,123,1.0,-0.311441137266,-0.208672863777,nan,nan,nan,nan,0.0,0.0,0.0,nan,282.307053206,601.813196779,602.313228425,602.253388388,nan,nan,nan,nan
1,244,1,1,1.0,1.0,0.352039361838,0,0.0,0.0,0.0,0.342222305674,0.0475829133447,0.294639392329,0.389805219019,0.0475829133447,0.378860509644,285,0.178734351563,0.356878681702,0.598527012995,nan,nan,nan,nan,0.0,0.0,0.0,nan,282.307053206,602.813326498,603.313369548,603.16536586,nan,nan,nan,nan
1,245,0,0,0.0,1.0,0.383899328765,0,0.0,0.0,0.0,0.342262539511,0.0474894489882,0.294773090522,0.389751988499,0.0474894489882,0.392043433152,30,1.0,0.071945658744,-1.0,nan,nan,nan,nan,0.0,0.0,0.0,nan,282.307053206,603.813476175,604.313503829,604.197375503,nan,nan,nan,nan
1,246,1,1,1.0,1.0,0.311738218646,0,0.0,0.0,0.0,0.342432485589,0.0474667230771,0.294965762512,0.389899208666,0.0474667230771,0.349225636416,451,0.343830962376,0.403518361206,-1.0,nan,nan,nan,nan,0.0,0.0,0.0,nan,282.307053206,604.81360732,605.313638396,605.125345538,nan,nan,nan,nan
1,247,1,1,1.0,1.0,0.319626590237,0,0.0,0.0,0.0,0.342307712146,0.0474103908337,0.294897321313,0.38971810298,0.0474103908337,0.338421379216,373,-0.135407706169,0.478559568072,-0.0996974893599,nan,nan,nan,nan,0.0,0.0,0.0,nan,282.307053206,605.813709385,606.313773817,606.133335975,nan,nan,nan,nan
1,248,1,1,1.0,1.0,0.326099166181,0,0.0,0.0,0.0,0.342215885742,0.0473362363307,0.294879649411,0.389552122073,0.0473362363307,0.319154658355,4,0.879126049628,0.195014037372,-1.0,nan,nan,nan,nan,0.0,0.0,0.0,nan,282.307053206,606.847213796,607.347221208,607.173312962,nan,nan,nan,nan
1,249,1,1,1.0,1.0,0.333984402008,0,0.0,0.0,0.0,0.342150898969,0.0472517434802,0.294899155489,0.38940264245,0.0472517434802,0.326570052809,305,0.00361192545304,0.406859252708,0.500196907155,nan,nan,nan,nan,0.0,0.0,0.0,nan,282.307053206,607.847294193,608.34732641,608.181278595,nan,nan,nan,nan
1,250,1,1,1.0,1.0,0.333858673461,0,0.0,0.0,0.0,0.342118101793,0.0471595933841,0.294958508409,0.389277695177,0.0471595933841,0.33131408055,386,-0.0833946583454,0.477495592553,-0.245424736514,nan,nan,nan,nan,0.0,0.0,0.0,nan,282.307053206,608.847432466,609.347464682,609.181291139,nan,nan,nan,nan
1,251,1,1,1.0,1.0,0.317742663901,0,0.0,0.0,0.0,0.34208506408,0.0470680668851,0.295016997195,0.389153130965,0.0470680668851,0.32852857979,66,1.0,-0.118568705386,-1.0,nan,nan,nan,nan,0.0,0.0,0.0,nan,282.307053206,609.84756076,610.347590695,610.165303424,nan,nan,nan,nan
1,252,1,1,1.0,1.0,0.301533142105,0,0.0,0.0,0.0,0.341988082406,0.0469992337716,0.294988848634,0.388987316177,0.0469992337716,0.317711493156,344,-0.172543464245,0.464730234515,0.195503824632,nan,nan,nan,nan,0.0,0.0,0.0,nan,282.307053206,610.84770844,611.347719844,611.149241582,nan,nan,nan,nan
1,253,1,1,1.0,1.0,0.325404953212,0,0.0,0.0,0.0,0.341827546928,0.0469747918508,0.294852755077,0.388802338779,0.0469747918508,0.314893586406,231,0.749609680972,0.145151270079,0.620821461523,nan,nan,nan,nan,0.0,0.0,0.0,nan,282.307053206,611.847818773,612.347836449,612.173223726,nan,nan,nan,nan
1,254,1,1,1.0,1.0,0.437279904261,0,0.0,0.0,0.0,0.341762635491,0.0468931872255,0.294869448265,0.388655822716,0.0468931872255,0.354739333193,182,1.0,-0.118523835432,0.347089474713,nan,nan,nan,nan,0.0,0.0,0.0,nan,282.307053206,612.847934238,613.347963603,613.285214142,nan,nan,nan,nan
1,255,1,1,1.0,1.0,0.429119264241,0,0.0,1.0,0.0,0.34213868773,0.0471814763388,0.294957211391,0.389320164069,0.0471814763388,0.397268040571,455,0.375608248681,0.394875365091,-1.0,nan,nan,nan,nan,0.0,0.0,0.0,nan,282.307053206,613.848069374,614.348090187,614.277188639,nan,nan,nan,nan
1,256,1,1,1.0,1.0,0.452985087875,1,0.0,0.0,1.0,0.34247978803,0.047401631717,0.295078156313,0.389881419747,0.047401631717,0.439794752126,84,1.0,-0.20765784414,-0.652191087791,28.1467812141,61.8532187859,2.79071878588,88.0,1.0,-0.225257592204,-0.599932847766,2.83412495488,282.307053206,614.848180563,615.348219051,615.301165651,619.532111423,620.530519722,616.681719642,619.523788847
1,257,1,1,1.0,1.0,0.288763895631,0,0.0,0.0,0.0,0.342911449357,0.047808495185,0.295102954172,0.390719944542,0.047808495185,0.390289415916,414,0.0747837862165,0.460162189034,-0.600089175003,nan,nan,nan,nan,0.0,0.0,0.0,nan,282.307053206,620.732298846,621.232307399,621.021062742,nan,nan,nan,nan
1,258,1,1,1.0,1.0,0.288635316305,0,0.0,0.0,0.0,0.342700758487,0.0478343247895,0.294866433697,0.390535083276,0.0478343247895,0.34346143327,480,0.580928072941,0.32870764083,-1.0,nan,nan,nan,nan,0.0,0.0,0.0,nan,282.307053206,621.732406898,622.232433983,622.021042215,nan,nan,nan,nan
1,259,1,1,1.0,1.0,0.360481393524,0,0.0,0.0,0.0,0.342491202509,0.0478595837695,0.29463161874,0.390350786279,0.0478595837695,0.312626868486,75,1.0,-0.164714458691,-0.791355921409,nan,nan,nan,nan,0.0,0.0,0.0,nan,282.307053206,622.7325446,623.232557715,623.093025994,nan,nan,nan,nan
1,260,0,0,0.0,1.0,0.400288462173,0,0.0,0.0,0.0,0.342560662706,0.0477801292718,0.294780533435,0.390340791978,0.0477801292718,0.349801724001,380,-0.109519508899,0.478533032186,-0.177177385375,nan,nan,nan,nan,0.0,0.0,0.0,nan,282.307053206,623.732735046,624.232714519,624.133023508,nan,nan,nan,nan
1,261,1,1,1.0,1.0,0.312179265078,0,0.0,0.0,0.0,0.342782692704,0.0478218382933,0.294960854411,0.390604530998,0.0478218382933,0.357649706925,259,0.44882283482,0.268906983076,0.655011783756,nan,nan,nan,nan,0.0,0.0,0.0,nan,282.307053206,624.732793491,625.232811737,625.044972756,nan,nan,nan,nan
1,262,1,1,1.0,1.0,0.392068236601,0,0.0,0.0,0.0,0.342665438192,0.0477675693543,0.294897868838,0.390433007547,0.0477675693543,0.368178654617,376,-0.124962824795,0.478704673615,-0.132627625282,nan,nan,nan,nan,0.0,0.0,0.0,nan,282.307053206,625.732912947,626.232938035,626.124981184,nan,nan,nan,nan
1,263,1,1,1.0,1.0,0.311922962312,0,0.0,0.0,0.0,0.342853998492,0.0477735449761,0.295080453516,0.390627543468,0.0477735449761,0.338723487997,501,0.7564492333,0.256253544744,-1.0,nan,nan,nan,nan,0.0,0.0,0.0,nan,282.307053206,626.733028411,627.233066615,627.044951374,nan,nan,nan,nan
1,264,1,1,1.0,1.0,0.367758230306,0,0.0,0.0,0.0,0.342736389989,0.0477206195454,0.295015770444,0.390457009534,0.0477206195454,0.357249809739,128,1.0,-0.310663006781,-0.156689791083,nan,nan,nan,nan,0.0,0.0,0.0,nan,282.307053206,627.73316982,628.233210589,628.10092805,nan,nan,nan,nan
1,265,1,1,1.0,1.0,0.319624309428,0,0.0,0.0,0.0,0.342831169687,0.0476549486789,0.295176221008,0.390486118366,0.0476549486789,0.333101834015,285,0.178734351563,0.356878681702,0.598527012995,nan,nan,nan,nan,0.0,0.0,0.0,nan,282.307053206,628.733299254,629.233348576,629.052923564,nan,nan,nan,nan
1,266,1,1,1.0,1.0,0.271465015132,0,0.0,0.0,0.0,0.34274359663,0.0475862266951,0.295157369935,0.390329823325,0.0475862266951,0.319615851622,47,1.0,-0.0170755915744,-1.0,nan,nan,nan,nan,0.0,0.0,0.0,nan,282.307053206,629.733450356,630.233474875,630.004915372,nan,nan,nan,nan
1,267,1,1,1.0,1.0,0.335303549189,0,0.0,0.0,0.0,0.342475632038,0.0476965862092,0.294779045828,0.390172218247,0.0476965862092,0.308797624583,132,1.0,-0.307426825298,-0.115555361894,nan,nan,nan,nan,0.0,0.0,0.0,nan,282.307053206,630.73357865,631.23360545,631.068882199,nan,nan,nan,nan
1,268,1,1,1.0,1.0,0.303174165078,0,0.0,0.0,0.0,0.342448770304,0.0476091987263,0.294839571578,0.39005796903,0.0476091987263,0.303314243133,492,0.681403316433,0.289222019555,-1.0,nan,nan,nan,nan,0.0,0.0,0.0,nan,282.307053206,631.733688128,632.233706659,632.036862293,nan,nan,nan,nan
1,269,1,1,1.0,1.0,0.303027054761,0,0.0,0.0,0.0,0.34230222327,0.0475805875118,0.294721635758,0.389882810781,0.0475805875118,0.313834923009,209,0.967301840512,0.0304835193525,0.52804999659,nan,nan,nan,nan,0.0,0.0,0.0,nan,282.307053206,632.733823834,633.233862893,633.036850889,nan,nan,nan,nan
1,270,1,1,1.0,1.0,0.302879659459,0,0.0,0.0,0.0,0.342156218926,0.0475521745562,0.294604044369,0.389708393482,0.0475521745562,0.303026959766,279,0.238157575771,0.338930353633,0.618978422254,nan,nan,nan,nan,0.0,0.0,0.0,nan,282.307053206,633.733960396,634.233962107,634.036840056,nan,nan,nan,nan
1,271,1,1,1.0,1.0,0.326753750909,0,0.0,0.0,0.0,0.342010750187,0.0475239603375,0.294486789849,0.389534710524,0.0475239603375,0.31088682171,108,1.0,-0.292426609412,-0.368663285579,nan,nan,nan,nan,0.0,0.0,0.0,nan,282.307053206,634.734066738,635.234120336,635.060820489,nan,nan,nan,nan
1,272,1,1,1.0,1.0,0.302640747279,0,0.0,0.0,0.0,0.341954451297,0.0474452162127,0.294509235084,0.389399667509,0.0474452162127,0.310758052549,265,0.384259149088,0.291568309415,0.649478858709,nan,nan,nan,nan,0.0,0.0,0.0,nan,282.307053206,635.734178781,636.234220691,636.036819528,nan,nan,nan,nan
1,273,1,1,1.0,1.0,0.259422768373,0,0.0,0.0,0.0,0.34180991562,0.0474176546232,0.294392260997,0.389227570243,0.0474176546232,0.296272422187,379,-0.113535935895,0.478614986251,-0.165970515924,nan,nan,nan,nan,0.0,0.0,0.0,nan,282.307053206,636.809337695,637.309388727,637.068760463,nan,nan,nan,nan
1,274,1,1,1.0,1.0,0.275321247987,0,1.0,0.0,0.0,0.341508131198,0.0475917012922,0.293916429906,0.38909983249,0.0475917012922,0.279128254546,212,0.93926288676,0.0467731277665,0.543851001166,nan,nan,nan,nan,0.0,0.0,0.0,nan,282.307053206,637.809442611,638.309482525,638.084763859,nan,nan,nan,nan
1,275,1,1,1.0,1.0,0.305836693384,1,0.0,0.0,1.0,0.34126657323,0.0476721442423,0.293594428988,0.388938717472,0.0476721442423,0.280193569915,18,0.988682696815,0.131162580546,-1.0,87.4775877166,2.52241228344,-10.1338377166,4.0,0.879126049628,0.195014037372,-1.0,2.12566684373,282.307053206,638.842955575,639.342965268,639.148792268,642.810055856,643.820918368,640.668112778,642.801719026
1,276,1,1,1.0,1.0,0.375039058272,0,0.0,0.0,0.0,0.341137737303,0.0476331529309,0.293504584372,0.388770890234,0.0476331529309,0.318732333214,272,0.310166696092,0.316214117232,0.637281430288,nan,nan,nan,nan,0.0,0.0,0.0,nan,282.307053206,644.093587351,644.593620993,644.46862641,nan,nan,nan,nan
1,277,1,1,1.0,1.0,0.374903066549,0,0.0,0.0,0.0,0.341260568176,0.0475903938297,0.293670174347,0.388850962006,0.0475903938297,0.351926272735,469,0.489482198204,0.360453357602,-1.0,nan,nan,nan,nan,0.0,0.0,0.0,nan,282.307053206,645.093729045,645.593779508,645.468632112,nan,nan,nan,nan
1,278,1,1,1.0,1.0,0.315723030828,0,0.0,0.0,0.0,0.341382021239,0.0475472447218,0.293834776517,0.388929265961,0.0475472447218,0.35522171855,245,0.600577697281,0.210610106048,0.650172825369,nan,nan,nan,nan,0.0,0.0,0.0,nan,282.307053206,646.168860589,646.668892235,646.48458362,nan,nan,nan,nan
1,279,1,1,1.0,1.0,0.283656938467,0,0.0,0.0,0.0,0.341289722712,0.0474865042788,0.293803218434,0.388776226991,0.0474865042788,0.324761011948,456,0.383612429175,0.392633185378,-1.0,nan,nan,nan,nan,0.0,0.0,0.0,nan,282.307053206,647.168975484,647.669014257,647.452632422,nan,nan,nan,nan
1,280,0,0,0.0,1.0,0.411354534328,0,0.0,0.0,0.0,0.341083153593,0.0475262900761,0.293556863517,0.388609443669,0.0475262900761,0.336911501208,159,1.0,-0.231765974528,0.149055008463,nan,nan,nan,nan,0.0,0.0,0.0,nan,282.307053206,648.169202421,648.669172201,648.580556956,nan,nan,nan,nan
1,281,1,1,1.0,1.0,0.339310599491,0,0.0,0.0,0.0,0.34133412281,0.0476261929847,0.293707929825,0.388960315795,0.0476261929847,0.344774024095,303,0.0191349273956,0.402522842081,0.512018356663,nan,nan,nan,nan,0.0,0.0,0.0,nan,282.307053206,649.169237203,649.669272556,649.508547803,nan,nan,nan,nan
1,282,0,0,0.0,1.0,0.459156315774,0,0.0,0.0,0.0,0.34132692166,0.0475415260467,0.293785395613,0.388868447706,0.0475415260467,0.403273816531,32,1.0,0.061735800531,-1.0,nan,nan,nan,nan,0.0,0.0,0.0,nan,282.307053206,650.169385454,650.669419951,650.62854177,nan,nan,nan,nan
1,283,1,1,1.0,1.0,0.283030008432,0,0.0,0.0,0.0,0.34174475639,0.0479712460152,0.293773510375,0.389716002406,0.0479712460152,0.360498974565,499,0.739831889234,0.263827757734,-1.0,nan,nan,nan,nan,0.0,0.0,0.0,nan,282.307053206,651.169501204,651.669527148,651.452531212,nan,nan,nan,nan
1,284,1,1,1.0,1.0,0.346859419718,0,0.0,0.0,0.0,0.341537283783,0.0480129931327,0.29352429065,0.389550276916,0.0480129931327,0.363015247975,165,1.0,-0.205056383665,0.203745440608,nan,nan,nan,nan,0.0,0.0,0.0,nan,282.307053206,652.169637766,652.669657438,652.516497185,nan,nan,nan,nan
1,285,0,0,0.0,1.0,0.38670554664,0,0.0,0.0,0.0,0.341556023698,0.0479294254718,0.293626598226,0.38948544917,0.0479294254718,0.338864991597,66,1.0,-0.118568705386,-1.0,nan,nan,nan,nan,0.0,0.0,0.0,nan,282.307053206,653.16975152,653.669795425,653.556457066,nan,nan,nan,nan
1,286,1,1,1.0,1.0,0.306566258892,0,0.0,0.0,0.0,0.341714443077,0.0479196914974,0.293794751579,0.389634134574,0.0479196914974,0.346710408417,196,1.0,-0.0413610816081,0.449130757868,nan,nan,nan,nan,0.0,0.0,0.0,nan,282.307053206,654.169900911,654.669932842,654.47646717,nan,nan,nan,nan
1,287,1,1,1.0,1.0,0.30647502793,0,0.0,0.0,0.0,0.341591547328,0.0478808133008,0.293710734027,0.389472360629,0.0478808133008,0.333248944487,92,1.0,-0.241703663401,-0.55060883727,nan,nan,nan,nan,0.0,0.0,0.0,nan,282.307053206,655.170035477,655.670038043,655.476510505,nan,nan,nan,nan
1,288,1,1,1.0,1.0,0.312266505323,0,0.0,0.0,0.0,0.341469190118,0.0478420945788,0.293627095539,0.389311284696,0.0478420945788,0.308435930715,468,0.481236483515,0.363131620867,-1.0,nan,nan,nan,nan,0.0,0.0,0.0,nan,282.307053206,656.22015824,656.720181048,656.532424746,nan,nan,nan,nan
1,289,0,0,0.0,1.0,0.392107294872,0,0.0,0.0,0.0,0.341367791906,0.0477898459994,0.293577945907,0.389157637906,0.0477898459994,0.336949609375,80,1.0,-0.189075709245,-0.708965549488,nan,nan,nan,nan,0.0,0.0,0.0,nan,282.307053206,657.220294802,657.720320746,657.612402097,nan,nan,nan,nan
1,290,1,1,1.0,1.0,0.35199089488,0,0.0,0.0,0.0,0.341543361121,0.0478000438133,0.293743317308,0.389343404934,0.0478000438133,0.352121565025,360,-0.167709501072,0.475188317955,0.0381258551808,nan,nan,nan,nan,0.0,0.0,0.0,nan,282.307053206,658.220396867,658.720445049,658.572387762,nan,nan,nan,nan
1,291,0,0,1.0,0.0,0.343802885618,0,0.0,0.0,0.0,0.341579387099,0.0477214888729,0.293857898226,0.389300875972,0.0477214888729,0.36263369179,459,0.407758158413,0.385709174134,-1.0,nan,nan,nan,nan,0.0,0.0,0.0,nan,282.307053206,659.22057876,659.72057762,659.564381646,nan,nan,nan,nan
1,292,1,1,1.0,1.0,0.367686100304,0,0.0,0.0,0.0,0.341587027988,0.0476396003236,0.293947427664,0.389226628311,0.0476396003236,0.354493293601,127,1.0,-0.31111021432,-0.167036648065,nan,nan,nan,nan,0.0,0.0,0.0,nan,282.307053206,660.220671417,660.720691659,660.588357517,nan,nan,nan,nan
1,293,1,1,1.0,1.0,0.34356026724,0,0.0,0.0,0.0,0.341676408372,0.0475823907244,0.294094017648,0.389258799097,0.0475823907244,0.351683084387,263,0.405698801511,0.284171736334,0.651829885785,nan,nan,nan,nan,0.0,0.0,0.0,nan,282.307053206,661.220771486,661.720819952,661.564331753,nan,nan,nan,nan
1,294,1,1,1.0,1.0,0.359406859614,0,0.0,0.0,0.0,0.341682837925,0.0475012497652,0.29418158816,0.38918408769,0.0475012497652,0.356884409053,131,1.0,-0.308451667147,-0.125800503078,nan,nan,nan,nan,0.0,0.0,0.0,nan,282.307053206,662.220907478,662.720932281,662.580314337,nan,nan,nan,nan
1,295,1,1,1.0,1.0,0.327232715208,0,0.0,0.0,0.0,0.341743123713,0.0474316231846,0.294311500528,0.389174746897,0.0474316231846,0.343399947354,329,-0.136053278316,0.448203788942,0.3278337444,nan,nan,nan,nan,0.0,0.0,0.0,nan,282.307053206,663.221069983,663.721100204,663.548302698,nan,nan,nan,nan
1,296,1,1,1.0,1.0,0.341755597852,0,0.0,0.0,0.0,0.341693935887,0.0473586728344,0.294335263053,0.389052608722,0.0473586728344,0.342798390891,505,0.789537956352,0.240683140511,-1.0,nan,nan,nan,nan,0.0,0.0,0.0,nan,282.307053206,664.254550446,664.754530774,664.596306044,nan,nan,nan,nan
1,297,1,1,1.0,1.0,0.413614504505,0,0.0,0.0,0.0,0.341694144205,0.0472786075316,0.294415536673,0.388972751736,0.0472786075316,0.360867605855,181,1.0,-0.123914391386,0.3392011262,nan,nan,nan,nan,0.0,0.0,0.0,nan,282.307053206,665.254657643,665.754656787,665.668272147,nan,nan,nan,nan
1,298,0,0,0.0,1.0,0.405485795345,0,0.0,0.0,0.0,0.3419363003,0.0473824639879,0.294553836312,0.389318764288,0.0473824639879,0.386951965901,354,-0.174470673547,0.472100788149,0.0988677247603,nan,nan,nan,nan,0.0,0.0,0.0,nan,282.307053206,666.254782801,666.754812736,666.660268596,nan,nan,nan,nan
1,299,1,1,1.0,1.0,0.317405108362,0,0.0,0.0,0.0,0.342149553639,0.0474454494451,0.294704104194,0.389595003084,0.0474454494451,0.378835136071,493,0.689769084006,0.285700779988,-1.0,nan,nan,nan,nan,0.0,0.0,0.0,nan,282.307053206,667.254876313,667.754945307,667.572281421,nan,nan,nan,nan
1,300,1,1,1.0,1.0,0.325207950082,0,0.0,0.0,0.0,0.342066796297,0.0473875821744,0.294679214123,0.389454378472,0.0473875821744,0.349366284596,184,1.0,-0.107671891867,0.362640045218,nan,nan,nan,nan,0.0,0.0,0.0,nan,282.307053206,668.255017437,668.755080728,668.580225387,nan,nan,nan,nan
1,301,1,1,1.0,1.0,0.31708408799,0,0.0,0.0,0.0,0.342010600143,0.0473185155321,0.294692084611,0.389329115675,0.0473185155321,0.319899048811,318,-0.0835627602325,0.431640264478,0.413481556053,nan,nan,nan,nan,0.0,0.0,0.0,nan,282.307053206,669.255129765,669.755165402,669.572213853,nan,nan,nan,nan
1,302,1,1,1.0,1.0,0.337570647243,0,0.0,0.0,0.0,0.34192778781,0.0472616186715,0.294666169139,0.389189406482,0.0472616186715,0.326620895105,367,-0.15309091083,0.477560897992,-0.0350816338538,nan,nan,nan,nan,0.0,0.0,0.0,nan,282.307053206,670.28261348,670.788639593,670.620184127,nan,nan,nan,nan
1,303,1,1,1.0,1.0,0.299776939675,0,0.0,0.0,0.0,0.341913360193,0.0471839700248,0.294729390168,0.389097330217,0.0471839700248,0.318143891636,191,1.0,-0.0691479807067,0.414571651978,nan,nan,nan,nan,0.0,0.0,0.0,nan,282.307053206,671.280383445,671.780462132,671.580160385,nan,nan,nan,nan
1,304,1,1,1.0,1.0,0.291641958524,0,0.0,0.0,0.0,0.341774296098,0.0471679948448,0.294606301254,0.388942290943,0.0471679948448,0.309663181814,72,1.0,-0.149607777062,-0.853203742106,nan,nan,nan,nan,0.0,0.0,0.0,nan,282.307053206,672.280500905,672.780556784,672.572142864,nan,nan,nan,nan
1,305,1,1,1.0,1.0,0.251477377024,0,1.0,0.0,0.0,0.341609387093,0.0471777630949,0.294431623998,0.388787150188,0.0471777630949,0.280965425074,503,0.773020196022,0.248538461814,-1.0,nan,nan,nan,nan,0.0,0.0,0.0,nan,282.307053206,673.2806617,673.78069078,673.532139077,nan,nan,nan,nan
1,306,1,1,1.0,1.0,0.283323373646,1,0.0,0.0,1.0,0.341313872306,0.0473813447557,0.293932527551,0.388695217062,0.0473813447557,0.275480903064,267,0.362924526182,0.298807232282,0.646622522267,-99.0115063507,189.011506351,1.27713135074,269.0,0.34171296506,0.305888347675,0.643262349404,2.11726700654,282.307053206,674.280789995,674.780809381,674.564113368,678.247941023,679.247901965,676.114313678,678.239606474
1,307,1,1,1.0,1.0,0.379896555096,0,0.0,0.0,0.0,0.341124360873,0.0474195023613,0.293704858511,0.388543863234,0.0474195023613,0.304899101922,152,1.0,-0.259184487343,0.0830625546756,nan,nan,nan,nan,0.0,0.0,0.0,nan,282.307053206,679.448129872,679.948133579,679.828026427,nan,nan,nan,nan
1,308,1,1,1.0,1.0,0.371772122569,0,0.0,0.0,0.0,0.341250654665,0.0473937282936,0.293856926371,0.388644382958,0.0473937282936,0.344997350437,59,1.0,-0.0814409933332,-1.0,nan,nan,nan,nan,0.0,0.0,0.0,nan,282.307053206,680.448238494,680.948286676,680.820010617,nan,nan,nan,nan
1,309,1,1,1.0,1.0,0.379650800489,0,0.0,0.0,0.0,0.34134975034,0.0473485740229,0.294001176317,0.388698324363,0.0473485740229,0.377106492718,281,0.218083397074,0.345068392493,0.612644422055,nan,nan,nan,nan,0.0,0.0,0.0,nan,282.307053206,681.448390737,681.948393587,681.828041537,nan,nan,nan,nan
1,310,1,1,1.0,1.0,0.331451022532,0,0.0,0.0,0.0,0.341473701959,0.047321921727,0.294151780232,0.388795623686,0.047321921727,0.360957981863,130,1.0,-0.309333154106,-0.136071487739,nan,nan,nan,nan,0.0,0.0,0.0,nan,282.307053206,682.448525873,682.948541839,682.779976896,nan,nan,nan,nan
1,311,0,0,0.0,1.0,0.371301996056,0,0.0,0.0,0.0,0.341441370735,0.0472489525851,0.294192418149,0.38869032332,0.0472489525851,0.360801273026,416,0.087881616042,0.458117504295,-0.630165317015,nan,nan,nan,nan,0.0,0.0,0.0,nan,282.307053206,683.448643333,683.94867612,683.819945329,nan,nan,nan,nan
1,312,1,1,1.0,1.0,0.286949818023,0,0.0,0.0,0.0,0.341537385607,0.047203209916,0.294334175691,0.388740595523,0.047203209916,0.329900945537,14,0.95801504718,0.150023555696,-1.0,nan,nan,nan,nan,0.0,0.0,0.0,nan,282.307053206,684.460979516,684.965456693,684.747929334,nan,nan,nan,nan
1,313,1,1,1.0,1.0,0.282672495581,0,0.0,0.0,0.0,0.341362425454,0.0472283980292,0.294134027425,0.388590823484,0.0472283980292,0.313641436553,473,0.522594813828,0.349396171415,-1.0,nan,nan,nan,nan,0.0,0.0,0.0,nan,282.307053206,685.45723105,685.957238462,685.739903545,nan,nan,nan,nan
1,314,1,1,1.0,1.0,0.298533913214,0,1.0,0.0,0.0,0.341174917691,0.0472690699262,0.293905847765,0.388443987617,0.0472690699262,0.289385408939,216,0.900975005756,0.0682271079607,0.563426584804,nan,nan,nan,nan,0.0,0.0,0.0,nan,282.307053206,686.457361625,686.957368467,686.755895538,nan,nan,nan,nan
1,315,1,1,1.0,1.0,0.282379129902,1,0.0,0.0,1.0,0.341039118314,0.0472548552009,0.293784263113,0.388293973515,0.0472548552009,0.287861846232,289,0.140592130943,0.368073254824,0.582505265782,-114.44395478,204.44395478,1.24082978042,291.0,0.122027637739,0.373441943191,0.573791926984,2.46704383194,282.307053206,687.457490774,687.957503033,687.739869904,691.766342947,692.772884232,689.282974129,691.757969054
1,316,1,1,1.0,1.0,0.324888925999,0,0.0,0.0,0.0,0.340852896129,0.0472950472667,0.293557848862,0.388147943395,0.0472950472667,0.301933989705,98,1.0,-0.263822910468,-0.480217789416,nan,nan,nan,nan,0.0,0.0,0.0,nan,282.307053206,692.974883167,693.474886018,693.299772093,nan,nan,nan,nan
1,317,1,1,1.0,1.0,0.380803451408,0,0.0,0.0,0.0,0.340802377236,0.0472286658383,0.293573711397,0.388031043074,0.0472286658383,0.329357169103,296,0.0772713571413,0.386205321608,0.550001308524,nan,nan,nan,nan,0.0,0.0,0.0,nan,282.307053206,693.974954726,694.474990364,694.355758178,nan,nan,nan,nan
1,318,0,0,0.0,1.0,0.404607979115,0,0.0,0.0,0.0,0.34092856359,0.0472074371057,0.293721126484,0.388136000695,0.0472074371057,0.370100118841,116,1.0,-0.306446923025,-0.282515442494,nan,nan,nan,nan,0.0,0.0,0.0,nan,282.307053206,694.975132057,695.475144601,695.379740036,nan,nan,nan,nan
1,319,1,1,1.0,1.0,0.316499922425,0,0.0,0.0,0.0,0.341128813324,0.0472678094488,0.293861003875,0.388396622773,0.0472678094488,0.367303784316,192,1.0,-0.0635997558896,0.421658406928,nan,nan,nan,nan,0.0,0.0,0.0,nan,282.307053206,695.975232412,696.475268619,696.291732334,nan,nan,nan,nan
1,320,1,1,1.0,1.0,0.348354757298,0,0.0,0.0,0.0,0.341051606769,0.0472137422335,0.293837864536,0.388265349003,0.0472137422335,0.356487552946,394,-0.0437090198531,0.474655926729,-0.339401417396,nan,nan,nan,nan,0.0,0.0,0.0,nan,282.307053206,696.975366123,697.475378667,697.32372088,nan,nan,nan,nan
1,321,1,1,1.0,1.0,0.364202205092,0,0.0,0.0,0.0,0.341074429115,0.0471416753553,0.29393275376,0.38821610447,0.0471416753553,0.343018961605,178,1.0,-0.139919655122,0.315097826042,nan,nan,nan,nan,0.0,0.0,0.0,nan,282.307053206,697.975483012,698.475511237,698.339685217,nan,nan,nan,nan
1,322,1,1,1.0,1.0,0.356038998812,0,0.0,0.0,0.0,0.341146478261,0.0470858315291,0.294060646732,0.38823230979,0.0470858315291,0.356198653734,510,0.830554458933,0.220436700166,-1.0,nan,nan,nan,nan,0.0,0.0,0.0,nan,282.307053206,698.975633544,699.475631549,699.331672543,nan,nan,nan,nan
1,323,1,1,1.0,1.0,0.387903527357,0,0.0,0.0,0.0,0.341192728325,0.0470199621864,0.294172766139,0.388212690511,0.0470199621864,0.369381577087,389,-0.0691208065164,0.476626077068,-0.280234315682,nan,nan,nan,nan,0.0,0.0,0.0,nan,282.307053206,699.975739601,700.475759272,700.363643128,nan,nan,nan,nan
1,324,1,1,1.0,1.0,0.331805684138,0,0.0,0.0,0.0,0.341337343802,0.0470187857659,0.294318558036,0.388356129568,0.0470187857659,0.358582736769,82,1.0,-0.198479155091,-0.679872484948,nan,nan,nan,nan,0.0,0.0,0.0,nan,282.307053206,700.975847083,701.475885286,701.307652767,nan,nan,nan,nan
1,325,1,1,1.0,1.0,0.331641752739,0,0.0,0.0,0.0,0.341307925099,0.0469491470208,0.294358778078,0.38825707212,0.0469491470208,0.350450321411,353,-0.175041255135,0.471490071959,0.108799216003,nan,nan,nan,nan,0.0,0.0,0.0,nan,282.307053206,701.975971955,702.476008163,702.307613708,nan,nan,nan,nan
1,326,0,0,0.0,1.0,0.539455827791,0,0.0,0.0,0.0,0.34127818303,0.0468799188413,0.294398264189,0.388158101872,0.0468799188413,0.400967754889,154,1.0,-0.251813147593,0.102138173725,nan,nan,nan,nan,0.0,0.0,0.0,nan,282.307053206,702.976139593,703.476177226,703.515595421,nan,nan,nan,nan
1,327,1,1,1.0,1.0,0.307349992916,0,0.0,0.0,0.0,0.341886089916,0.0480737901712,0.293812299745,0.389959880087,0.0480737901712,0.392815857815,282,0.208142307666,0.34807905204,0.609295500931,nan,nan,nan,nan,0.0,0.0,0.0,nan,282.307053206,703.97624793,704.476273874,704.283597923,nan,nan,nan,nan
1,328,1,1,1.0,1.0,0.315212990623,0,0.0,0.0,0.0,0.341780474941,0.0480380903509,0.29374238459,0.389818565291,0.0480380903509,0.387339603777,441,0.266287261384,0.422891888867,-1.0,nan,nan,nan,nan,0.0,0.0,0.0,nan,282.307053206,704.976374228,705.476392759,705.291587219,nan,nan,nan,nan
1,329,1,1,1.0,1.0,0.32304605376,0,0.0,0.0,0.0,0.341699476513,0.0479871643798,0.293712312133,0.389686640893,0.0479871643798,0.315203012433,57,1.0,-0.0707313323512,-1.0,nan,nan,nan,nan,0.0,0.0,0.0,nan,282.307053206,705.976503663,706.476528181,706.299549717,nan,nan,nan,nan
1,330,0,0,0.0,1.0,0.402892545797,0,0.0,0.0,0.0,0.341642779179,0.0479251816406,0.293717597539,0.38956796082,0.0479251816406,0.34705053006,432,0.199227897075,0.437687328843,-1.0,nan,nan,nan,nan,0.0,0.0,0.0,nan,282.307053206,706.976653054,707.476679283,707.3795456,nan,nan,nan,nan
1,331,1,1,1.0,1.0,0.290738767944,0,0.0,0.0,0.0,0.341828384533,0.0479707911204,0.293857593412,0.389799175653,0.0479707911204,0.338892455834,338,-0.162891363375,0.458928707883,0.250399161362,nan,nan,nan,nan,0.0,0.0,0.0,nan,282.307053206,707.976773365,708.476776787,708.267512133,nan,nan,nan,nan
1,332,1,1,1.0,1.0,0.290604202077,0,0.0,0.0,0.0,0.341674035238,0.0479802706027,0.293693764635,0.38965430584,0.0479802706027,0.328078505273,449,0.328095008353,0.407646248688,-1.0,nan,nan,nan,nan,0.0,0.0,0.0,nan,282.307053206,708.976887689,709.476944709,709.267491892,nan,nan,nan,nan
1,333,1,1,1.0,1.0,0.338444757275,0,0.0,0.0,0.0,0.341520210439,0.047989628635,0.293530581804,0.389509839074,0.047989628635,0.306595909099,108,1.0,-0.292426609412,-0.368663285579,nan,nan,nan,nan,0.0,0.0,0.0,nan,282.307053206,709.977032234,710.477056182,710.315476991,nan,nan,nan,nan
1,334,1,1,1.0,1.0,0.306343597826,0,0.0,0.0,0.0,0.341510974844,0.0479178134473,0.293593161397,0.389428788291,0.0479178134473,0.311797519059,7,0.9030914636,0.181853060355,-1.0,nan,nan,nan,nan,0.0,0.0,0.0,nan,282.307053206,710.977121185,711.477163094,711.283464782,nan,nan,nan,nan
1,335,1,1,1.0,1.0,0.330161809921,0,0.0,0.0,0.0,0.341405683296,0.0478845902717,0.293521093024,0.389290273568,0.0478845902717,0.324983388341,153,1.0,-0.255547855702,0.0926213922694,nan,nan,nan,nan,0.0,0.0,0.0,nan,282.307053206,711.977285971,712.4773122,712.307447781,nan,nan,nan,nan
1,336,1,1,1.0,1.0,0.30602001166,0,0.0,0.0,0.0,0.341372119495,0.0478170018615,0.293555117633,0.389189121356,0.0478170018615,0.314175139802,344,-0.172543464245,0.464730234515,0.195503824632,nan,nan,nan,nan,0.0,0.0,0.0,nan,282.307053206,712.97741455,713.477425669,713.283434562,nan,nan,nan,nan
1,337,1,1,0.0,0.0,0.393875756301,0,0.0,0.0,0.0,0.341266904888,0.0477846125619,0.293482292326,0.38905151745,0.0477846125619,0.343352525961,468,0.481236483515,0.363131620867,-1.0,nan,nan,nan,nan,0.0,0.0,0.0,nan,282.307053206,713.977524313,714.47757563,714.371400069,nan,nan,nan,nan
1,338,1,1,1.0,1.0,0.305762568023,0,0.0,0.0,0.0,0.34142301424,0.0477993931444,0.293623621095,0.389222407384,0.0477993931444,0.335219445328,232,0.739158239773,0.150046616059,0.623712016981,nan,nan,nan,nan,0.0,0.0,0.0,nan,282.307053206,714.977634646,715.477672564,715.283397214,nan,nan,nan,nan
1,339,1,1,1.0,1.0,0.337622535415,0,0.0,0.0,0.0,0.341317509961,0.0477679125927,0.293549597368,0.389085422554,0.0477679125927,0.345753619913,49,1.0,-0.027785429985,-1.0,nan,nan,nan,nan,0.0,0.0,0.0,nan,282.307053206,715.977802283,716.477832789,716.315424819,nan,nan,nan,nan
1,340,1,1,1.0,1.0,0.35345544247,0,0.0,0.0,0.0,0.341306610331,0.0476978273438,0.293608782987,0.389004437675,0.0476978273438,0.332280181969,355,-0.173737462994,0.472683863687,0.0888799762457,nan,nan,nan,nan,0.0,0.0,0.0,nan,282.307053206,716.977904634,717.477938845,717.331360076,nan,nan,nan,nan
1,341,0,0,0.0,1.0,0.465249426663,0,0.0,0.0,0.0,0.34134234219,0.0476321754396,0.293710166751,0.38897451763,0.0476321754396,0.385442468182,281,0.218083397074,0.345068392493,0.612644422055,nan,nan,nan,nan,0.0,0.0,0.0,nan,282.307053206,717.978081679,718.478078543,718.443331106,nan,nan,nan,nan
1,342,1,1,1.0,1.0,0.361195278354,0,0.0,0.0,0.0,0.341705706074,0.0480318854518,0.293673820622,0.389737591526,0.0480318854518,0.393300049162,341,-0.168535884224,0.46196150489,0.223260112086,nan,nan,nan,nan,0.0,0.0,0.0,nan,282.307053206,718.978144401,719.478197714,719.339339679,nan,nan,nan,nan
1,343,1,1,1.0,1.0,0.352969920728,0,0.0,0.0,0.0,0.341762693128,0.0479731553106,0.293789537817,0.389735848438,0.0479731553106,0.393138208582,168,1.0,-0.190790017254,0.230361799274,nan,nan,nan,nan,0.0,0.0,0.0,nan,282.307053206,719.978314319,720.47833228,720.33128424,nan,nan,nan,nan
1,344,0,0,0.0,1.0,0.440836784896,0,0.0,0.0,0.0,0.341795367261,0.0479069834096,0.293888383851,0.38970235067,0.0479069834096,0.385000661326,226,0.801265930663,0.120208988367,0.60458276857,nan,nan,nan,nan,0.0,0.0,0.0,nan,282.307053206,720.978434345,721.47846371,721.41927113,nan,nan,nan,nan
1,345,1,1,1.0,1.0,0.312685599085,0,0.0,0.0,0.0,0.342083278358,0.0481335594823,0.293949718876,0.390216837841,0.0481335594823,0.368830768236,47,1.0,-0.0170755915744,-1.0,nan,nan,nan,nan,0.0,0.0,0.0,nan,282.307053206,721.978567486,722.478588298,722.291253085,nan,nan,nan,nan
1,346,1,1,1.0,1.0,0.29661263898,0,0.0,0.0,0.0,0.341998067694,0.0480897266203,0.293908341074,0.390087794314,0.0480897266203,0.350045007654,390,-0.0641960347588,0.476284203309,-0.291947553613,nan,nan,nan,nan,0.0,0.0,0.0,nan,282.307053206,722.978657577,723.478734838,723.275270216,nan,nan,nan,nan
1,347,1,1,1.0,1.0,0.240437249187,0,1.0,0.0,0.0,0.341866895935,0.0480819509677,0.293784944967,0.389948846902,0.0480819509677,0.283245162417,94,1.0,-0.249439013202,-0.526745155233,nan,nan,nan,nan,0.0,0.0,0.0,nan,282.307053206,723.97879756,724.478851443,724.219234809,nan,nan,nan,nan
1,348,1,1,1.0,1.0,0.312287032139,1,0.0,0.0,1.0,0.341574591477,0.048319503761,0.293255087716,0.389894095238,0.048319503761,0.283112306769,379,-0.113535935895,0.478614986251,-0.165970515924,-152.182159296,242.182159296,-24.3022157036,344.0,-0.172543464245,0.464730234515,0.195503824632,2.18392202212,282.307053206,724.978922718,725.478980592,725.29120975,729.012739311,730.009499174,726.812454384,729.004411033
1,349,1,1,1.0,1.0,0.31849389663,0,0.0,0.0,0.0,0.341490431824,0.0482754913982,0.293214940426,0.389765923222,0.0482754913982,0.290406059319,106,1.0,-0.287630069369,-0.390564445695,nan,nan,nan,nan,0.0,0.0,0.0,nan,282.307053206,730.204644072,730.704654906,730.523137969,nan,nan,nan,nan
1,350,0,0,0.0,1.0,0.366365527268,0,0.0,0.0,0.0,0.341424539173,0.0482219484678,0.293202590705,0.389646487641,0.0482219484678,0.332382152012,434,0.213881816697,0.43461034373,-1.0,nan,nan,nan,nan,0.0,0.0,0.0,nan,282.307053206,731.204746993,731.704774932,731.57111252,nan,nan,nan,nan
1,351,1,1,1.0,1.0,0.422215620521,0,0.0,0.0,0.0,0.341495799139,0.0481714091016,0.293324390037,0.38966720824,0.0481714091016,0.369025014807,482,0.597655625539,0.322480811492,-1.0,nan,nan,nan,nan,0.0,0.0,0.0,nan,282.307053206,732.204870725,732.704878423,732.627086346,nan,nan,nan,nan
1,352,1,1,1.0,1.0,0.390050599352,0,0.0,0.0,0.0,0.34172577014,0.0482947607811,0.293431009359,0.390020530921,0.0482947607811,0.392877249047,106,1.0,-0.287630069369,-0.390564445695,nan,nan,nan,nan,0.0,0.0,0.0,nan,282.307053206,733.205005861,733.704999019,733.595056461,nan,nan,nan,nan
1,353,1,1,1.0,1.0,0.30996348476,0,0.0,0.0,0.0,0.341863056587,0.0482946510987,0.293568405488,0.390157707685,0.0482946510987,0.374076568211,474,0.530901762182,0.346545376391,-1.0,nan,nan,nan,nan,0.0,0.0,0.0,nan,282.307053206,734.205087685,734.705165516,734.515051169,nan,nan,nan,nan
1,354,1,1,1.0,1.0,0.36582042044,0,0.0,0.0,0.0,0.341772689528,0.0482559896713,0.293516699856,0.390028679199,0.0482559896713,0.355278168184,253,0.513865899396,0.244839928328,0.655977188727,nan,nan,nan,nan,0.0,0.0,0.0,nan,282.307053206,735.205253326,735.705279555,735.571073747,nan,nan,nan,nan
1,355,1,1,1.0,1.0,0.301679112483,0,0.0,0.0,0.0,0.341840620971,0.0482046827697,0.293635938201,0.390045303741,0.0482046827697,0.325821005894,48,1.0,-0.0224273256894,-1.0,nan,nan,nan,nan,0.0,0.0,0.0,nan,282.307053206,736.205344272,736.70540899,736.507023385,nan,nan,nan,nan
1,356,1,1,1.0,1.0,0.349479183555,0,0.0,0.0,0.0,0.341727489961,0.0481837788537,0.293543711107,0.389911268815,0.0481837788537,0.338992905493,474,0.530901762182,0.346545376391,-1.0,nan,nan,nan,nan,0.0,0.0,0.0,nan,282.307053206,737.205509629,737.705541845,737.554988813,nan,nan,nan,nan
1,357,1,1,1.0,1.0,0.341332512908,0,0.0,0.0,0.0,0.341749264381,0.0481178064317,0.29363145795,0.389867070813,0.0481178064317,0.330830269648,283,0.19826868328,0.351050922538,0.605825948857,nan,nan,nan,nan,0.0,0.0,0.0,nan,282.307053206,738.205635072,738.705663012,738.546967585,nan,nan,nan,nan
1,358,1,1,1.0,1.0,0.301220104564,0,0.0,0.0,0.0,0.34174809701,0.0480503723348,0.293697724675,0.389798469345,0.0480503723348,0.330677267009,450,0.335949728395,0.405598329481,-1.0,nan,nan,nan,nan,0.0,0.0,0.0,nan,282.307053206,739.205739988,739.705799004,739.506960093,nan,nan,nan,nan
1,359,1,1,1.0,1.0,0.285094686784,0,0.0,0.0,0.0,0.341634890327,0.0480308675375,0.29360402279,0.389665757865,0.0480308675375,0.309215768085,363,-0.162287729338,0.476365729747,0.00704812682028,nan,nan,nan,nan,0.0,0.0,0.0,nan,282.307053206,740.205850891,740.705908481,740.490945578,nan,nan,nan,nan
