block,trial,freq_trials,correct_response,actual_response,acc,rts,probe_trials,fast_rt_trigger,slow_rt_trigger,rt_triggered,rts_runningavg,rts_runningstd,rts_runningfastthresh,rts_runningslowthresh,rts_runningstd,rts_trailingavg,trials_colorind0,trials_colorind1,trials_colorind2,trials_colorind3,trials_colorind4,trials_colorind5,wholereport_resp0,wholereport_resp1,wholereport_resp2,wholereport_resp3,wholereport_resp4,wholereport_resp5,wholereport_respacc0,wholereport_respacc1,wholereport_respacc2,wholereport_respacc3,wholereport_respacc4,wholereport_respacc5,wholereport_respacc_total,wholereport_respcolorind0,wholereport_respcolorind1,wholereport_respcolorind2,wholereport_respcolorind3,wholereport_respcolorind4,wholereport_respcolorind5,wholereport_resporder0,wholereport_resporder1,wholereport_resporder2,wholereport_resporder3,wholereport_resporder4,wholereport_resporder5,wholereport_rts0,wholereport_rts1,wholereport_rts2,wholereport_rts3,wholereport_rts4,wholereport_rts5,time_blockstart,time_encarray_offset,time_encarray_onset,time_response,time_iti_offset,time_iti_onset,time_memprobe_offset,time_memprobe_onset
1,1,1,1,nan,nan,nan,0,nan,nan,nan,nan,nan,nan,nan,nan,nan,3,7,6,4,5,2,nan,nan,nan,nan,nan,nan,nan,nan,nan,nan,nan,nan,0.0,nan,nan,nan,nan,nan,nan,nan,nan,nan,nan,nan,nan,nan,nan,nan,nan,nan,nan,666.8933454824146,667.9077340064105,nan,nan,nan,nan,nan,nan
1,2,1,1,1.0,1.0,0.1843683421611786,0,nan,nan,nan,nan,nan,nan,nan,nan,nan,5,4,1,8,6,0,nan,nan,nan,nan,nan,nan,nan,nan,nan,nan,nan,nan,0.0,nan,nan,nan,nan,nan,nan,nan,nan,nan,nan,nan,nan,nan,nan,nan,nan,nan,nan,666.8933454824146,668.9329664525576,nan,669.1173347947188,nan,nan,nan,nan
1,3,1,1,1.0,1.0,0.35126142273657024,0,nan,nan,nan,nan,nan,nan,nan,nan,nan,2,8,6,4,7,5,nan,nan,nan,nan,nan,nan,nan,nan,nan,nan,nan,nan,0.0,nan,nan,nan,nan,nan,nan,nan,nan,nan,nan,nan,nan,nan,nan,nan,nan,nan,nan,666.8933454824146,669.9579896379728,nan,670.3092510607094,nan,nan,nan,nan
1,4,0,0,0.0,1.0,0.6541115017607808,0,nan,nan,nan,nan,nan,nan,nan,nan,nan,3,1,2,8,0,4,nan,nan,nan,nan,nan,nan,nan,nan,nan,nan,nan,nan,0.0,nan,nan,nan,nan,nan,nan,nan,nan,nan,nan,nan,nan,nan,nan,nan,nan,nan,nan,666.8933454824146,670.9831257215701,nan,671.6372372233309,nan,nan,nan,nan
1,5,1,1,1.0,1.0,0.517267283750698,0,nan,nan,nan,nan,nan,nan,nan,nan,nan,8,2,6,7,5,1,nan,nan,nan,nan,nan,nan,nan,nan,nan,nan,nan,nan,0.0,nan,nan,nan,nan,nan,nan,nan,nan,nan,nan,nan,nan,nan,nan,nan,nan,nan,nan,666.8933454824146,671.9999432659242,nan,672.5172105496749,nan,nan,nan,nan
1,6,1,1,1.0,1.0,0.38045014976523817,0,nan,nan,nan,nan,nan,nan,nan,nan,nan,2,7,8,1,6,0,nan,nan,nan,nan,nan,nan,nan,nan,nan,nan,nan,nan,0.0,nan,nan,nan,nan,nan,nan,nan,nan,nan,nan,nan,nan,nan,nan,nan,nan,nan,nan,666.8933454824146,673.0167582444847,nan,673.3972083942499,nan,nan,nan,nan
1,7,1,1,1.0,1.0,0.4676665181759745,0,nan,nan,nan,nan,nan,nan,nan,nan,nan,4,3,0,6,2,7,nan,nan,nan,nan,nan,nan,nan,nan,nan,nan,nan,nan,0.0,nan,nan,nan,nan,nan,nan,nan,nan,nan,nan,nan,nan,nan,nan,nan,nan,nan,nan,666.8933454824146,674.0335392965935,nan,674.5012058147695,nan,nan,nan,nan
1,8,1,1,1.0,1.0,0.36282492778263986,0,nan,nan,nan,nan,nan,nan,nan,nan,nan,7,4,8,5,0,3,nan,nan,nan,nan,nan,nan,nan,nan,nan,nan,nan,nan,0.0,nan,nan,nan,nan,nan,nan,nan,nan,nan,nan,nan,nan,nan,nan,nan,nan,nan,nan,666.8933454824146,675.0503277610987,nan,675.4131526888814,nan,nan,nan,nan
1,9,1,1,1.0,1.0,0.282015813048929,0,nan,nan,nan,nan,nan,nan,nan,nan,nan,6,2,0,1,7,4,nan,nan,nan,nan,nan,nan,nan,nan,nan,nan,nan,nan,0.0,nan,nan,nan,nan,nan,nan,nan,nan,nan,nan,nan,nan,nan,nan,nan,nan,nan,nan,666.8933454824146,676.067134471843,nan,676.349150284892,nan,nan,nan,nan
1,10,0,0,0.0,1.0,0.4971842465456575,0,nan,nan,nan,nan,nan,nan,nan,nan,nan,4,5,8,0,1,6,nan,nan,nan,nan,nan,nan,nan,nan,nan,nan,nan,nan,0.0,nan,nan,nan,nan,nan,nan,nan,nan,nan,nan,nan,nan,nan,nan,nan,nan,nan,nan,666.8933454824146,677.0839309189469,nan,677.5811151654925,nan,nan,nan,nan
1,11,1,1,1.0,1.0,0.4560656656976789,0,nan,nan,nan,nan,nan,nan,nan,nan,nan,2,0,3,7,6,8,nan,nan,nan,nan,nan,nan,nan,nan,nan,nan,nan,nan,0.0,nan,nan,nan,nan,nan,nan,nan,nan,nan,nan,nan,nan,nan,nan,nan,nan,nan,nan,666.8933454824146,678.1090479011182,nan,678.5651135668159,nan,nan,nan,nan
1,12,0,0,0.0,1.0,0.47887878492474556,0,nan,nan,nan,nan,nan,nan,nan,nan,nan,7,2,8,4,1,6,nan,nan,nan,nan,nan,nan,nan,nan,nan,nan,nan,nan,0.0,nan,nan,nan,nan,nan,nan,nan,nan,nan,nan,nan,nan,nan,nan,nan,nan,nan,nan,666.8933454824146,679.1341794230975,nan,679.6130582080223,nan,nan,nan,nan
1,13,1,1,1.0,1.0,0.430077429395169,0,nan,nan,nan,nan,nan,nan,nan,nan,nan,2,0,4,3,7,1,nan,nan,nan,nan,nan,nan,nan,nan,nan,nan,nan,nan,0.0,nan,nan,nan,nan,nan,nan,nan,nan,nan,nan,nan,nan,nan,nan,nan,nan,nan,nan,666.8933454824146,680.1509504967835,nan,680.5810279261786,nan,nan,nan,nan
1,14,1,1,1.0,1.0,0.37292417837306857,0,nan,nan,nan,nan,nan,nan,nan,nan,nan,7,2,8,6,1,5,nan,nan,nan,nan,nan,nan,nan,nan,nan,nan,nan,nan,0.0,nan,nan,nan,nan,nan,nan,nan,nan,nan,nan,nan,nan,nan,nan,nan,nan,nan,nan,666.8933454824146,681.1761053968221,nan,681.5490295751952,nan,nan,nan,nan
1,15,1,1,1.0,1.0,0.39609737414866686,1,nan,nan,nan,nan,nan,nan,nan,nan,nan,6,1,3,4,0,7,1.0,1.0,1.0,1.0,1.0,1.0,0.0,1.0,0.0,0.0,0.0,0.0,1.0,5.0,1.0,6.0,3.0,7.0,8.0,6.0,1.0,2.0,3.0,4.0,5.0,7.693562269443646,1.2716656778939068,2.8548457957804203,4.149964918848127,5.357752494746819,6.533284847857431,666.8933454824146,682.1929024141282,683.0013162896503,682.5889997882769,691.7441223838832,692.7487400884274,684.0097825087141,691.7357682078145
1,16,1,1,1.0,1.0,0.7634425032883883,0,nan,nan,nan,nan,nan,nan,nan,nan,nan,5,4,2,6,8,1,nan,nan,nan,nan,nan,nan,nan,nan,nan,nan,nan,nan,0.0,nan,nan,nan,nan,nan,nan,nan,nan,nan,nan,nan,nan,nan,nan,nan,nan,nan,nan,666.8933454824146,692.9692905694246,nan,693.732733072713,nan,nan,nan,nan
1,17,1,1,1.0,1.0,0.6422954013105482,0,nan,nan,nan,nan,nan,nan,nan,nan,nan,6,1,3,0,2,4,nan,nan,nan,nan,nan,nan,nan,nan,nan,nan,nan,nan,0.0,nan,nan,nan,nan,nan,nan,nan,nan,nan,nan,nan,nan,nan,nan,nan,nan,nan,nan,666.8933454824146,693.9944084067829,nan,694.6367038080934,nan,nan,nan,nan
1,18,1,1,1.0,1.0,0.37749797804281116,0,nan,nan,nan,nan,nan,nan,nan,nan,nan,0,7,8,2,3,5,nan,nan,nan,nan,nan,nan,nan,nan,nan,nan,nan,nan,0.0,nan,nan,nan,nan,nan,nan,nan,nan,nan,nan,nan,nan,nan,nan,nan,nan,nan,nan,666.8933454824146,695.0112134069204,nan,695.3887113849632,nan,nan,nan,nan
1,19,1,1,1.0,1.0,0.38437963207252324,0,nan,nan,nan,nan,nan,nan,nan,nan,nan,5,0,6,7,8,4,nan,nan,nan,nan,nan,nan,nan,nan,nan,nan,nan,nan,0.0,nan,nan,nan,nan,nan,nan,nan,nan,nan,nan,nan,nan,nan,nan,nan,nan,nan,nan,666.8933454824146,696.036310432246,nan,696.4206900643185,nan,nan,nan,nan
1,20,1,1,1.0,1.0,0.583507408387959,0,nan,nan,nan,nan,nan,nan,nan,nan,nan,6,7,0,8,1,2,nan,nan,nan,nan,nan,nan,nan,nan,nan,nan,nan,nan,0.0,nan,nan,nan,nan,nan,nan,nan,nan,nan,nan,nan,nan,nan,nan,nan,nan,nan,nan,666.8933454824146,697.0531462228391,nan,697.6366536312271,nan,nan,nan,nan
1,21,1,1,1.0,1.0,0.4386842008680105,0,nan,nan,nan,nan,nan,nan,nan,nan,nan,1,2,6,5,0,7,nan,nan,nan,nan,nan,nan,nan,nan,nan,nan,nan,nan,0.0,nan,nan,nan,nan,nan,nan,nan,nan,nan,nan,nan,nan,nan,nan,nan,nan,nan,nan,666.8933454824146,698.069946376374,nan,698.508630577242,nan,nan,nan,nan
1,22,1,1,1.0,1.0,0.3658711814787239,0,nan,nan,nan,nan,nan,nan,nan,nan,nan,8,3,1,7,2,5,nan,nan,nan,nan,nan,nan,nan,nan,nan,nan,nan,nan,0.0,nan,nan,nan,nan,nan,nan,nan,nan,nan,nan,nan,nan,nan,nan,nan,nan,nan,nan,666.8933454824146,699.0867471001111,nan,699.4526182815898,nan,nan,nan,nan
1,23,1,1,1.0,1.0,0.34106181818060577,0,nan,nan,nan,nan,nan,nan,nan,nan,nan,2,8,5,1,7,3,nan,nan,nan,nan,nan,nan,nan,nan,nan,nan,nan,nan,0.0,nan,nan,nan,nan,nan,nan,nan,nan,nan,nan,nan,nan,nan,nan,nan,nan,nan,nan,666.8933454824146,700.103525871411,nan,700.4445876895916,nan,nan,nan,nan
1,24,1,1,1.0,1.0,0.33191336365416646,0,nan,nan,nan,nan,nan,nan,nan,nan,nan,4,1,3,7,5,6,nan,nan,nan,nan,nan,nan,nan,nan,nan,nan,nan,nan,0.0,nan,nan,nan,nan,nan,nan,nan,nan,nan,nan,nan,nan,nan,nan,nan,nan,nan,nan,666.8933454824146,701.1286531169899,nan,701.460566480644,nan,nan,nan,nan
1,25,1,1,1.0,1.0,0.3520904826000333,0,nan,nan,nan,nan,nan,nan,nan,nan,nan,6,7,5,0,2,1,nan,nan,nan,nan,nan,nan,nan,nan,nan,nan,nan,nan,0.0,nan,nan,nan,nan,nan,nan,nan,nan,nan,nan,nan,nan,nan,nan,nan,nan,nan,nan,666.8933454824146,702.2204621012788,nan,702.5725525838789,nan,nan,nan,nan
1,26,0,0,0.0,1.0,0.6072382524143904,0,nan,nan,nan,nan,nan,nan,nan,nan,nan,3,0,4,2,7,8,nan,nan,nan,nan,nan,nan,nan,nan,nan,nan,nan,nan,0.0,nan,nan,nan,nan,nan,nan,nan,nan,nan,nan,nan,nan,nan,nan,nan,nan,nan,nan,666.8933454824146,703.2372822114266,nan,703.844520463841,nan,nan,nan,nan
1,27,1,1,1.0,1.0,0.5024217504542321,0,nan,nan,nan,nan,nan,nan,nan,nan,nan,8,6,1,0,4,2,nan,nan,nan,nan,nan,nan,nan,nan,nan,nan,nan,nan,0.0,nan,nan,nan,nan,nan,nan,nan,nan,nan,nan,nan,nan,nan,nan,nan,nan,nan,nan,666.8933454824146,704.2540746673476,nan,704.7564964178018,nan,nan,nan,nan
1,28,1,1,1.0,1.0,0.397619788069278,0,nan,nan,nan,nan,nan,nan,nan,nan,nan,0,2,6,4,1,3,nan,nan,nan,nan,nan,nan,nan,nan,nan,nan,nan,nan,0.0,nan,nan,nan,nan,nan,nan,nan,nan,nan,nan,nan,nan,nan,nan,nan,nan,nan,nan,666.8933454824146,705.2708622766659,nan,705.6684820647351,nan,nan,nan,nan
1,29,1,1,1.0,1.0,0.2767720373813063,1,nan,nan,nan,nan,nan,nan,nan,nan,nan,1,7,5,2,6,8,1.0,1.0,1.0,1.0,1.0,1.0,0.0,0.0,0.0,0.0,0.0,0.0,0.0,0.0,4.0,7.0,6.0,3.0,1.0,6.0,1.0,2.0,3.0,4.0,5.0,6.501996956765652,1.4958488557022065,2.255518679972738,3.2155920865479857,4.357549791224301,5.277846850221977,666.8933454824146,706.2876687021926,707.0960660420824,706.5644407395739,714.6553696317133,715.6646349756047,708.1128716124222,714.6470319910441
1,30,1,1,nan,nan,nan,0,nan,nan,nan,nan,nan,nan,nan,nan,nan,8,4,3,7,1,2,nan,nan,nan,nan,nan,nan,nan,nan,nan,nan,nan,nan,0.0,nan,nan,nan,nan,nan,nan,nan,nan,nan,nan,nan,nan,nan,nan,nan,nan,nan,nan,666.8933454824146,715.8888877169229,nan,nan,nan,nan,nan,nan
1,31,1,1,1.0,1.0,0.07452473742887378,0,nan,nan,nan,nan,nan,nan,nan,nan,nan,1,8,0,4,3,5,nan,nan,nan,nan,nan,nan,nan,nan,nan,nan,nan,nan,0.0,nan,nan,nan,nan,nan,nan,nan,nan,nan,nan,nan,nan,nan,nan,nan,nan,nan,nan,666.8933454824146,716.9056662030052,nan,716.9801909404341,nan,nan,nan,nan
1,32,1,1,1.0,1.0,0.33475292287766933,0,nan,nan,nan,nan,nan,nan,nan,nan,nan,0,6,2,5,7,4,nan,nan,nan,nan,nan,nan,nan,nan,nan,nan,nan,nan,0.0,nan,nan,nan,nan,nan,nan,nan,nan,nan,nan,nan,nan,nan,nan,nan,nan,nan,nan,666.8933454824146,717.9893912824336,nan,718.3241442053113,nan,nan,nan,nan
1,33,1,1,1.0,1.0,0.2058694481384009,0,nan,nan,nan,nan,nan,nan,nan,nan,nan,7,3,5,1,8,6,nan,nan,nan,nan,nan,nan,nan,nan,nan,nan,nan,nan,0.0,nan,nan,nan,nan,nan,nan,nan,nan,nan,nan,nan,nan,nan,nan,nan,nan,nan,nan,666.8933454824146,719.0142665030435,nan,719.2201359511819,nan,nan,nan,nan
1,34,1,1,1.0,1.0,0.6126881528180093,0,nan,nan,nan,nan,nan,nan,nan,nan,nan,4,8,6,7,0,5,nan,nan,nan,nan,nan,nan,nan,nan,nan,nan,nan,nan,0.0,nan,nan,nan,nan,nan,nan,nan,nan,nan,nan,nan,nan,nan,nan,nan,nan,nan,nan,666.8933454824146,720.0393940336071,nan,720.6520821864251,nan,nan,nan,nan
1,35,1,1,1.0,1.0,0.30756015446968377,0,nan,nan,nan,nan,nan,nan,nan,nan,nan,0,1,7,2,4,6,nan,nan,nan,nan,nan,nan,nan,nan,nan,nan,nan,nan,0.0,nan,nan,nan,nan,nan,nan,nan,nan,nan,nan,nan,nan,nan,nan,nan,nan,nan,nan,666.8933454824146,721.0645423764363,nan,721.372102530906,nan,nan,nan,nan
1,36,1,1,1.0,1.0,0.0827283828984946,0,nan,nan,nan,nan,nan,nan,nan,nan,nan,7,4,8,5,0,3,nan,nan,nan,nan,nan,nan,nan,nan,nan,nan,nan,nan,0.0,nan,nan,nan,nan,nan,nan,nan,nan,nan,nan,nan,nan,nan,nan,nan,nan,nan,nan,666.8933454824146,722.0813525081612,nan,722.1640808910597,nan,nan,nan,nan
1,37,1,1,1.0,1.0,0.36960394703783095,0,nan,nan,nan,nan,nan,nan,nan,nan,nan,0,5,4,3,6,1,nan,nan,nan,nan,nan,nan,nan,nan,nan,nan,nan,nan,0.0,nan,nan,nan,nan,nan,nan,nan,nan,nan,nan,nan,nan,nan,nan,nan,nan,nan,nan,666.8933454824146,723.106435563881,nan,723.4760395109188,nan,nan,nan,nan
1,38,0,0,1.0,0.0,0.08041596692055464,0,nan,nan,nan,nan,nan,nan,nan,nan,nan,4,6,2,0,7,5,nan,nan,nan,nan,nan,nan,nan,nan,nan,nan,nan,nan,0.0,nan,nan,nan,nan,nan,nan,nan,nan,nan,nan,nan,nan,nan,nan,nan,nan,nan,nan,666.8933454824146,724.131616122555,nan,724.2120320894755,nan,nan,nan,nan
1,39,1,1,1.0,1.0,0.5115781875792891,0,nan,nan,nan,nan,nan,nan,nan,nan,nan,1,5,7,3,8,2,nan,nan,nan,nan,nan,nan,nan,nan,nan,nan,nan,nan,0.0,nan,nan,nan,nan,nan,nan,nan,nan,nan,nan,nan,nan,nan,nan,nan,nan,nan,nan,666.8933454824146,725.1484045870602,nan,725.6599827746395,nan,nan,nan,nan
1,40,1,1,1.0,1.0,0.5667887923773378,0,nan,nan,nan,nan,nan,nan,nan,nan,nan,6,0,1,8,7,3,nan,nan,nan,nan,nan,nan,nan,nan,nan,nan,nan,nan,0.0,nan,nan,nan,nan,nan,nan,nan,nan,nan,nan,nan,nan,nan,nan,nan,nan,nan,nan,666.8933454824146,726.1651941919699,nan,726.7319829843473,nan,nan,nan,nan
1,41,1,1,1.0,1.0,0.41395580512471497,0,nan,nan,nan,nan,nan,nan,nan,nan,nan,8,4,3,2,0,5,nan,nan,nan,nan,nan,nan,nan,nan,nan,nan,nan,nan,0.0,nan,nan,nan,nan,nan,nan,nan,nan,nan,nan,nan,nan,nan,nan,nan,nan,nan,nan,666.8933454824146,727.1820017579012,nan,727.5959575630259,nan,nan,nan,nan
1,42,1,1,1.0,1.0,0.4531528369989246,0,nan,nan,nan,nan,nan,nan,nan,nan,nan,7,5,1,6,8,3,nan,nan,nan,nan,nan,nan,nan,nan,nan,nan,nan,nan,0.0,nan,nan,nan,nan,nan,nan,nan,nan,nan,nan,nan,nan,nan,nan,nan,nan,nan,nan,666.8933454824146,728.1987876566127,nan,728.6519404936116,nan,nan,nan,nan
1,43,1,1,1.0,1.0,0.3883088289294392,0,nan,nan,nan,nan,nan,nan,nan,nan,nan,0,3,5,4,1,6,nan,nan,nan,nan,nan,nan,nan,nan,nan,nan,nan,nan,0.0,nan,nan,nan,nan,nan,nan,nan,nan,nan,nan,nan,nan,nan,nan,nan,nan,nan,nan,666.8933454824146,729.2155969331507,nan,729.6039057620801,nan,nan,nan,nan
1,44,1,1,1.0,1.0,0.3714955609757453,0,nan,nan,nan,nan,nan,nan,nan,nan,nan,6,7,3,1,2,5,nan,nan,nan,nan,nan,nan,nan,nan,nan,nan,nan,nan,0.0,nan,nan,nan,nan,nan,nan,nan,nan,nan,nan,nan,nan,nan,nan,nan,nan,nan,nan,666.8933454824146,730.2323868232779,nan,730.6038823842537,nan,nan,nan,nan
1,45,1,1,1.0,1.0,0.554340063361451,1,nan,nan,nan,nan,nan,nan,nan,nan,nan,5,4,2,6,8,0,1.0,1.0,1.0,1.0,1.0,1.0,0.0,1.0,1.0,1.0,0.0,1.0,4.0,6.0,4.0,2.0,6.0,1.0,0.0,6.0,1.0,2.0,3.0,4.0,5.0,6.387050983961672,1.435154138598591,2.4832342006266117,3.50804042769596,4.763229251373559,5.635134638054296,666.8933454824146,731.2575263280887,732.065934786573,731.8118663914502,739.5168749913573,740.5148727602791,733.0910731509794,739.5085439078975
1,46,1,1,nan,nan,nan,0,nan,nan,nan,nan,nan,nan,nan,nan,nan,8,5,6,0,4,1,nan,nan,nan,nan,nan,nan,nan,nan,nan,nan,nan,nan,0.0,nan,nan,nan,nan,nan,nan,nan,nan,nan,nan,nan,nan,nan,nan,nan,nan,nan,nan,666.8933454824146,740.7337366116699,nan,nan,nan,nan,nan,nan
1,47,1,1,1.0,1.0,0.21307411626912653,0,nan,nan,nan,nan,nan,nan,nan,nan,nan,3,6,2,4,1,7,nan,nan,nan,nan,nan,nan,nan,nan,nan,nan,nan,nan,0.0,nan,nan,nan,nan,nan,nan,nan,nan,nan,nan,nan,nan,nan,nan,nan,nan,nan,nan,666.8933454824146,741.7505501646083,nan,741.9636242808774,nan,nan,nan,nan
1,48,0,0,0.0,1.0,0.5882608185056597,0,nan,nan,nan,nan,nan,nan,nan,nan,nan,5,7,0,8,2,1,nan,nan,nan,nan,nan,nan,nan,nan,nan,nan,nan,nan,0.0,nan,nan,nan,nan,nan,nan,nan,nan,nan,nan,nan,nan,nan,nan,nan,nan,nan,nan,666.8933454824146,742.7673292211257,nan,743.3555900396314,nan,nan,nan,nan
1,49,1,1,1.0,1.0,0.5234139594249427,0,nan,nan,nan,nan,nan,nan,nan,nan,nan,0,3,8,5,4,7,nan,nan,nan,nan,nan,nan,nan,nan,nan,nan,nan,nan,0.0,nan,nan,nan,nan,nan,nan,nan,nan,nan,nan,nan,nan,nan,nan,nan,nan,nan,nan,666.8933454824146,743.7841470504645,nan,744.3075610098895,nan,nan,nan,nan
1,50,1,1,1.0,1.0,0.4266554187051952,0,nan,nan,nan,nan,nan,nan,nan,nan,nan,3,6,4,8,5,0,nan,nan,nan,nan,nan,nan,nan,nan,nan,nan,nan,nan,0.0,nan,nan,nan,nan,nan,nan,nan,nan,nan,nan,nan,nan,nan,nan,nan,nan,nan,nan,666.8933454824146,744.8009061501361,nan,745.2275615688413,nan,nan,nan,nan
1,51,1,1,1.0,1.0,0.7458004606887698,0,nan,nan,nan,nan,nan,nan,nan,nan,nan,5,7,3,2,1,4,nan,nan,nan,nan,nan,nan,nan,nan,nan,nan,nan,nan,0.0,nan,nan,nan,nan,nan,nan,nan,nan,nan,nan,nan,nan,nan,nan,nan,nan,nan,nan,666.8933454824146,745.8177125756629,nan,746.5635130363517,nan,nan,nan,nan
1,52,1,1,1.0,1.0,0.3769751114305109,0,nan,nan,nan,nan,nan,nan,nan,nan,nan,2,3,1,4,6,0,nan,nan,nan,nan,nan,nan,nan,nan,nan,nan,nan,nan,0.0,nan,nan,nan,nan,nan,nan,nan,nan,nan,nan,nan,nan,nan,nan,nan,nan,nan,nan,666.8933454824146,746.8345275542233,nan,747.2115026656538,nan,nan,nan,nan
1,53,0,0,1.0,0.0,0.06418172945268452,0,nan,nan,nan,nan,nan,nan,nan,nan,nan,1,5,7,8,2,6,nan,nan,nan,nan,nan,nan,nan,nan,nan,nan,nan,nan,0.0,nan,nan,nan,nan,nan,nan,nan,nan,nan,nan,nan,nan,nan,nan,nan,nan,nan,nan,666.8933454824146,747.8513086063322,nan,747.9154903357849,nan,nan,nan,nan
1,54,1,1,1.0,1.0,0.5029950789175928,0,nan,nan,nan,nan,nan,nan,nan,nan,nan,0,2,5,4,8,1,nan,nan,nan,nan,nan,nan,nan,nan,nan,nan,nan,nan,0.0,nan,nan,nan,nan,nan,nan,nan,nan,nan,nan,nan,nan,nan,nan,nan,nan,nan,nan,666.8933454824146,748.8764330008999,nan,749.3794280798174,nan,nan,nan,nan
1,55,1,1,1.0,1.0,0.49417277448810637,0,nan,nan,nan,nan,nan,nan,nan,nan,nan,8,4,2,1,7,3,nan,nan,nan,nan,nan,nan,nan,nan,nan,nan,nan,nan,0.0,nan,nan,nan,nan,nan,nan,nan,nan,nan,nan,nan,nan,nan,nan,nan,nan,nan,nan,666.8933454824146,749.893252826063,nan,750.3874256005511,nan,nan,nan,nan
1,56,1,1,1.0,1.0,0.36539193452335894,0,nan,nan,nan,nan,nan,nan,nan,nan,nan,4,5,1,3,2,0,nan,nan,nan,nan,nan,nan,nan,nan,nan,nan,nan,nan,0.0,nan,nan,nan,nan,nan,nan,nan,nan,nan,nan,nan,nan,nan,nan,nan,nan,nan,nan,666.8933454824146,750.9100196233485,nan,751.2754115578718,nan,nan,nan,nan
1,57,1,1,1.0,1.0,0.1485964567400515,0,nan,nan,nan,nan,nan,nan,nan,nan,nan,1,4,7,5,6,3,nan,nan,nan,nan,nan,nan,nan,nan,nan,nan,nan,nan,0.0,nan,nan,nan,nan,nan,nan,nan,nan,nan,nan,nan,nan,nan,nan,nan,nan,nan,nan,666.8933454824146,751.9268075176515,nan,752.0754039743915,nan,nan,nan,nan
1,58,1,1,1.0,1.0,0.2997422444168478,0,nan,nan,nan,nan,nan,nan,nan,nan,nan,8,2,0,6,3,7,nan,nan,nan,nan,nan,nan,nan,nan,nan,nan,nan,nan,0.0,nan,nan,nan,nan,nan,nan,nan,nan,nan,nan,nan,nan,nan,nan,nan,nan,nan,nan,666.8933454824146,752.9436350404285,nan,753.2433772848453,nan,nan,nan,nan
1,59,1,1,1.0,1.0,0.3069050032645464,0,nan,nan,nan,nan,nan,nan,nan,nan,nan,3,4,1,5,2,6,nan,nan,nan,nan,nan,nan,nan,nan,nan,nan,nan,nan,0.0,nan,nan,nan,nan,nan,nan,nan,nan,nan,nan,nan,nan,nan,nan,nan,nan,nan,nan,666.8933454824146,753.9604428915773,nan,754.2673478948418,nan,nan,nan,nan
1,60,1,1,1.0,1.0,0.2980809884611517,0,nan,nan,nan,nan,nan,nan,nan,nan,nan,0,2,7,6,4,3,nan,nan,nan,nan,nan,nan,nan,nan,nan,nan,nan,nan,0.0,nan,nan,nan,nan,nan,nan,nan,nan,nan,nan,nan,nan,nan,nan,nan,nan,nan,nan,666.8933454824146,754.977242474677,nan,755.2753234631382,nan,nan,nan,nan
1,61,0,0,0.0,1.0,0.6092781163752079,0,nan,nan,nan,nan,nan,nan,nan,nan,nan,3,1,5,8,6,2,nan,nan,nan,nan,nan,nan,nan,nan,nan,nan,nan,nan,0.0,nan,nan,nan,nan,nan,nan,nan,nan,nan,nan,nan,nan,nan,nan,nan,nan,nan,nan,666.8933454824146,755.9940175397787,nan,756.6032956561539,nan,nan,nan,nan
1,62,1,1,1.0,1.0,0.48842466343194246,0,nan,nan,nan,nan,nan,nan,nan,nan,nan,6,0,8,2,3,4,nan,nan,nan,nan,nan,nan,nan,nan,nan,nan,nan,nan,0.0,nan,nan,nan,nan,nan,nan,nan,nan,nan,nan,nan,nan,nan,nan,nan,nan,nan,nan,666.8933454824146,757.0108282419387,nan,757.4992529053707,nan,nan,nan,nan
1,63,1,1,1.0,1.0,0.35962557746097445,0,nan,nan,nan,nan,nan,nan,nan,nan,nan,8,4,0,7,6,5,nan,nan,nan,nan,nan,nan,nan,nan,nan,nan,nan,nan,0.0,nan,nan,nan,nan,nan,nan,nan,nan,nan,nan,nan,nan,nan,nan,nan,nan,nan,nan,666.8933454824146,758.0276295356452,nan,758.3872551131062,nan,nan,nan,nan
1,64,1,1,1.0,1.0,0.3987963804975152,0,nan,nan,nan,nan,nan,nan,nan,nan,nan,2,7,6,5,4,0,nan,nan,nan,nan,nan,nan,nan,nan,nan,nan,nan,nan,0.0,nan,nan,nan,nan,nan,nan,nan,nan,nan,nan,nan,nan,nan,nan,nan,nan,nan,nan,666.8933454824146,759.0444242723752,nan,759.4432206528727,nan,nan,nan,nan
1,65,1,1,1.0,1.0,0.3739559417590499,0,nan,nan,nan,nan,nan,nan,nan,nan,nan,6,2,4,1,8,7,nan,nan,nan,nan,nan,nan,nan,nan,nan,nan,nan,nan,0.0,nan,nan,nan,nan,nan,nan,nan,nan,nan,nan,nan,nan,nan,nan,nan,nan,nan,nan,666.8933454824146,760.061243527336,nan,760.4351994690951,nan,nan,nan,nan
1,66,0,0,0.0,1.0,0.7571438713930547,0,nan,nan,nan,nan,nan,nan,nan,nan,nan,8,1,2,6,3,0,nan,nan,nan,nan,nan,nan,nan,nan,nan,nan,nan,nan,0.0,nan,nan,nan,nan,nan,nan,nan,nan,nan,nan,nan,nan,nan,nan,nan,nan,nan,nan,666.8933454824146,761.0780231538229,nan,761.8351670252159,nan,nan,nan,nan
1,67,1,1,1.0,1.0,0.6919942398089916,0,nan,nan,nan,nan,nan,nan,nan,nan,nan,0,3,8,4,5,6,nan,nan,nan,nan,nan,nan,nan,nan,nan,nan,nan,nan,0.0,nan,nan,nan,nan,nan,nan,nan,nan,nan,nan,nan,nan,nan,nan,nan,nan,nan,nan,666.8933454824146,762.1031358595937,nan,762.7951300994027,nan,nan,nan,nan
1,68,1,1,1.0,1.0,0.40318116126582026,0,nan,nan,nan,nan,nan,nan,nan,nan,nan,6,2,0,3,4,8,nan,nan,nan,nan,nan,nan,nan,nan,nan,nan,nan,nan,0.0,nan,nan,nan,nan,nan,nan,nan,nan,nan,nan,nan,nan,nan,nan,nan,nan,nan,nan,666.8933454824146,763.119947131956,nan,763.5231282932218,nan,nan,nan,nan
1,69,1,1,1.0,1.0,0.11403594561852515,1,nan,nan,nan,nan,nan,nan,nan,nan,nan,4,8,1,5,0,7,1.0,1.0,1.0,1.0,1.0,1.0,0.0,1.0,0.0,0.0,0.0,0.0,1.0,2.0,8.0,7.0,6.0,6.0,1.0,6.0,1.0,2.0,3.0,4.0,5.0,7.426817923551425,1.9789732941426337,3.55639047594741,4.508220323594287,5.476329453988001,6.4036290475632995,666.8933454824146,764.14506297349,764.9534834062215,764.2590989191085,773.4378941990435,774.4441241230816,765.9702832745388,773.4295662518125
1,70,1,1,1.0,1.0,0.7877595054451376,0,nan,nan,nan,nan,nan,nan,nan,nan,nan,8,0,3,1,2,5,nan,nan,nan,nan,nan,nan,nan,nan,nan,nan,nan,nan,0.0,nan,nan,nan,nan,nan,nan,nan,nan,nan,nan,nan,nan,nan,nan,nan,nan,nan,nan,666.8933454824146,774.6630834816024,nan,775.4508429870475,nan,nan,nan,nan
1,71,1,1,1.0,1.0,0.5466036908328533,0,nan,nan,nan,nan,nan,nan,nan,nan,nan,5,1,7,3,8,0,nan,nan,nan,nan,nan,nan,nan,nan,nan,nan,nan,nan,0.0,nan,nan,nan,nan,nan,nan,nan,nan,nan,nan,nan,nan,nan,nan,nan,nan,nan,nan,666.8933454824146,775.6882150038145,nan,776.2348186946474,nan,nan,nan,nan
1,72,1,1,1.0,1.0,0.44180058827623725,0,nan,nan,nan,nan,nan,nan,nan,nan,nan,0,8,1,6,7,2,nan,nan,nan,nan,nan,nan,nan,nan,nan,nan,nan,nan,0.0,nan,nan,nan,nan,nan,nan,nan,nan,nan,nan,nan,nan,nan,nan,nan,nan,nan,nan,666.8933454824146,776.7050080299377,nan,777.146808618214,nan,nan,nan,nan
1,73,1,1,1.0,1.0,0.3849754831753671,0,nan,nan,nan,nan,nan,nan,nan,nan,nan,2,0,5,4,3,1,nan,nan,nan,nan,nan,nan,nan,nan,nan,nan,nan,nan,0.0,nan,nan,nan,nan,nan,nan,nan,nan,nan,nan,nan,nan,nan,nan,nan,nan,nan,nan,666.8933454824146,777.7218096088618,nan,778.1067850920372,nan,nan,nan,nan
1,74,1,1,1.0,1.0,0.4241708046756685,0,nan,nan,nan,nan,nan,nan,nan,nan,nan,3,2,7,8,5,6,nan,nan,nan,nan,nan,nan,nan,nan,nan,nan,nan,nan,0.0,nan,nan,nan,nan,nan,nan,nan,nan,nan,nan,nan,nan,nan,nan,nan,nan,nan,nan,666.8933454824146,778.7386060559656,nan,779.1627768606413,nan,nan,nan,nan
1,75,1,1,1.0,1.0,0.359339625807479,0,nan,nan,nan,nan,nan,nan,nan,nan,nan,6,8,1,3,7,4,nan,nan,nan,nan,nan,nan,nan,nan,nan,nan,nan,nan,0.0,nan,nan,nan,nan,nan,nan,nan,nan,nan,nan,nan,nan,nan,nan,nan,nan,nan,nan,666.8933454824146,779.7553916696925,nan,780.1147312955,nan,nan,nan,nan
1,76,0,0,0.0,1.0,0.7505159529391676,0,nan,nan,nan,nan,nan,nan,nan,nan,nan,4,2,8,7,1,5,nan,nan,nan,nan,nan,nan,nan,nan,nan,nan,nan,nan,0.0,nan,nan,nan,nan,nan,nan,nan,nan,nan,nan,nan,nan,nan,nan,nan,nan,nan,nan,666.8933454824146,780.7721903976053,nan,781.5227063505445,nan,nan,nan,nan
1,77,1,1,1.0,1.0,0.5177097532432526,0,nan,nan,nan,nan,nan,nan,nan,nan,nan,6,8,3,5,0,4,nan,nan,nan,nan,nan,nan,nan,nan,nan,nan,nan,nan,0.0,nan,nan,nan,nan,nan,nan,nan,nan,nan,nan,nan,nan,nan,nan,nan,nan,nan,nan,666.8933454824146,781.7889828535262,nan,782.3066926067695,nan,nan,nan,nan
1,78,1,1,1.0,1.0,0.5246056618634611,0,nan,nan,nan,nan,nan,nan,nan,nan,nan,3,5,7,0,2,6,nan,nan,nan,nan,nan,nan,nan,nan,nan,nan,nan,nan,0.0,nan,nan,nan,nan,nan,nan,nan,nan,nan,nan,nan,nan,nan,nan,nan,nan,nan,nan,666.8933454824146,782.8140949890949,nan,783.3387006509583,nan,nan,nan,nan
1,79,1,1,1.0,1.0,0.45171310077421367,0,nan,nan,nan,nan,nan,nan,nan,nan,nan,0,3,5,1,6,8,nan,nan,nan,nan,nan,nan,nan,nan,nan,nan,nan,nan,0.0,nan,nan,nan,nan,nan,nan,nan,nan,nan,nan,nan,nan,nan,nan,nan,nan,nan,nan,666.8933454824146,783.8309236522764,nan,784.2826367530506,nan,nan,nan,nan
1,80,1,1,1.0,1.0,0.5869271382689476,0,nan,nan,nan,nan,nan,nan,nan,nan,nan,3,7,1,8,0,4,nan,nan,nan,nan,nan,nan,nan,nan,nan,nan,nan,nan,0.0,nan,nan,nan,nan,nan,nan,nan,nan,nan,nan,nan,nan,nan,nan,nan,nan,nan,nan,666.8933454824146,784.8477018531412,nan,785.4346289914101,nan,nan,nan,nan
1,81,1,1,1.0,1.0,0.4660859443247318,0,0.0,0.0,0.0,0.4266306041897117,0.16278041176648173,0.26385019242323,0.5894110159561934,0.16278041176648173,0.5015753944559643,4,2,7,6,8,0,nan,nan,nan,nan,nan,nan,nan,nan,nan,nan,nan,nan,0.0,nan,nan,nan,nan,nan,nan,nan,nan,nan,nan,nan,nan,nan,nan,nan,nan,nan,nan,666.8933454824146,785.8645128405187,nan,786.3305987848435,nan,nan,nan,nan
1,82,1,1,1.0,1.0,0.5132688083685935,0,0.0,0.0,0.0,0.42713644188375044,0.16179447927618043,0.26534196260757004,0.5889309211599308,0.16179447927618043,0.522093963654091,8,6,1,7,5,2,nan,nan,nan,nan,nan,nan,nan,nan,nan,nan,nan,nan,0.0,nan,nan,nan,nan,nan,nan,nan,nan,nan,nan,nan,nan,nan,nan,nan,nan,nan,nan,666.8933454824146,786.8813514818903,nan,787.3946202902589,nan,nan,nan,nan
1,83,1,1,1.0,1.0,0.3764416961930692,0,0.0,0.0,0.0,0.42822672500381176,0.16105531130963924,0.2671714136941725,0.589282036313451,0.16105531130963924,0.4519321496287982,5,4,7,1,2,6,nan,nan,nan,nan,nan,nan,nan,nan,nan,nan,nan,nan,0.0,nan,nan,nan,nan,nan,nan,nan,nan,nan,nan,nan,nan,nan,nan,nan,nan,nan,nan,666.8933454824146,787.8981402316131,nan,788.2745819278061,nan,nan,nan,nan
1,84,1,1,1.0,1.0,0.5276074407156557,0,0.0,0.0,0.0,0.42757941214367745,0.1601489314230803,0.26743048072059716,0.5877283435667577,0.1601489314230803,0.47243931509243947,6,3,0,2,8,7,nan,nan,nan,nan,nan,nan,nan,nan,nan,nan,nan,nan,0.0,nan,nan,nan,nan,nan,nan,nan,nan,nan,nan,nan,nan,nan,nan,nan,nan,nan,nan,666.8933454824146,788.9149158666842,nan,789.4425233073998,nan,nan,nan,nan
1,85,1,1,1.0,1.0,0.39843487832695246,0,0.0,0.0,0.0,0.42881432607666486,0.15954009904127867,0.26927422703538617,0.5883544251179436,0.15954009904127867,0.4341613384118925,3,2,1,5,7,0,nan,nan,nan,nan,nan,nan,nan,nan,nan,nan,nan,nan,0.0,nan,nan,nan,nan,nan,nan,nan,nan,nan,nan,nan,nan,nan,nan,nan,nan,nan,nan,666.8933454824146,789.9400873023551,nan,790.338522180682,nan,nan,nan,nan
1,86,1,1,1.0,1.0,0.4376627008896321,0,0.0,0.0,0.0,0.4284438450065464,0.15859936314597967,0.26984448186056675,0.5870432081525261,0.15859936314597967,0.4545683399774134,4,3,6,7,2,1,nan,nan,nan,nan,nan,nan,nan,nan,nan,nan,nan,nan,0.0,nan,nan,nan,nan,nan,nan,nan,nan,nan,nan,nan,nan,nan,nan,nan,nan,nan,nan,666.8933454824146,790.9568452616222,nan,791.3945079625119,nan,nan,nan,nan
1,87,1,1,1.0,1.0,0.3967927237972617,0,0.0,0.0,0.0,0.42855491555935465,0.15764425860740175,0.27091065695195293,0.5861991741667564,0.15764425860740175,0.41096343433794874,6,4,0,8,3,2,nan,nan,nan,nan,nan,nan,nan,nan,nan,nan,nan,nan,0.0,nan,nan,nan,nan,nan,nan,nan,nan,nan,nan,nan,nan,nan,nan,nan,nan,nan,nan,666.8933454824146,791.973646270344,nan,792.3704389941413,nan,nan,nan,nan
1,88,1,1,1.0,1.0,0.39599502459168434,0,0.0,0.0,0.0,0.4281767942288536,0.1567409504272038,0.27143584380164976,0.5849177446560574,0.1567409504272038,0.4101501497595261,1,5,4,3,8,6,nan,nan,nan,nan,nan,nan,nan,nan,nan,nan,nan,nan,0.0,nan,nan,nan,nan,nan,nan,nan,nan,nan,nan,nan,nan,nan,nan,nan,nan,nan,nan,666.8933454824146,792.990434164647,nan,793.3864291892387,nan,nan,nan,nan
1,89,1,1,1.0,1.0,0.5309048641938716,0,0.0,0.0,0.0,0.42779818517429863,0.15585485055075132,0.2719433346235473,0.58365303572505,0.15585485055075132,0.4412308708609392,5,8,1,0,2,3,nan,nan,nan,nan,nan,nan,nan,nan,nan,nan,nan,nan,0.0,nan,nan,nan,nan,nan,nan,nan,nan,nan,nan,nan,nan,nan,nan,nan,nan,nan,nan,666.8933454824146,794.0155172203667,nan,794.5464220845606,nan,nan,nan,nan
1,90,1,1,1.0,1.0,0.3940392641816288,0,0.0,0.0,0.0,0.42899710004661923,0.15533982996569398,0.2736572700809252,0.5843369300123132,0.15533982996569398,0.4403130509890616,1,7,8,4,6,5,nan,nan,nan,nan,nan,nan,nan,nan,nan,nan,nan,nan,0.0,nan,nan,nan,nan,nan,nan,nan,nan,nan,nan,nan,nan,nan,nan,nan,nan,nan,nan,666.8933454824146,795.032343887724,nan,795.4263831519056,nan,nan,nan,nan
1,91,1,1,1.0,1.0,0.3532573818229139,0,0.0,0.0,0.0,0.42859528584127454,0.154489437286424,0.27410584855485054,0.5830847231276985,0.154489437286424,0.4260671700661381,7,1,3,8,2,4,nan,nan,nan,nan,nan,nan,nan,nan,nan,nan,nan,nan,0.0,nan,nan,nan,nan,nan,nan,nan,nan,nan,nan,nan,nan,nan,nan,nan,nan,nan,nan,666.8933454824146,796.0491155316122,nan,796.4023729134351,nan,nan,nan,nan
1,92,1,1,1.0,1.0,0.36039932863786817,0,0.0,0.0,0.0,0.42773917329561134,0.15381656372618194,0.2739226095694294,0.5815557370217933,0.15381656372618194,0.3692319915474703,4,6,5,3,1,0,nan,nan,nan,nan,nan,nan,nan,nan,nan,nan,nan,nan,0.0,nan,nan,nan,nan,nan,nan,nan,nan,nan,nan,nan,nan,nan,nan,nan,nan,nan,nan,666.8933454824146,797.0659493266139,nan,797.4263486552518,nan,nan,nan,nan
1,93,1,1,1.0,1.0,0.3755844119004905,0,0.0,0.0,0.0,0.4269825458275468,0.153114586152173,0.2738679596753738,0.5800971319797198,0.153114586152173,0.3630803741204242,6,2,4,1,5,3,nan,nan,nan,nan,nan,nan,nan,nan,nan,nan,nan,nan,0.0,nan,nan,nan,nan,nan,nan,nan,nan,nan,nan,nan,nan,nan,nan,nan,nan,nan,nan,666.8933454824146,798.0827423525043,nan,798.4583267644048,nan,nan,nan,nan
1,94,1,1,1.0,1.0,0.27875431161373854,0,0.0,0.0,0.0,0.4264114554505795,0.15235686262589626,0.27405459282468325,0.5787683180764758,0.15235686262589626,0.3382460173840324,5,8,3,0,7,2,nan,nan,nan,nan,nan,nan,nan,nan,nan,nan,nan,nan,0.0,nan,nan,nan,nan,nan,nan,nan,nan,nan,nan,nan,nan,nan,nan,nan,nan,nan,nan,666.8933454824146,799.0995410806499,nan,799.3782953922637,nan,nan,nan,nan
1,95,1,1,1.0,1.0,0.2059344502631575,0,0.0,0.0,0.0,0.4247888494743505,0.15229736188542223,0.27249148758892827,0.5770862113597728,0.15229736188542223,0.2867577245924622,8,1,6,2,4,5,nan,nan,nan,nan,nan,nan,nan,nan,nan,nan,nan,nan,0.0,nan,nan,nan,nan,nan,nan,nan,nan,nan,nan,nan,nan,nan,nan,nan,nan,nan,nan,666.8933454824146,800.1163457955699,nan,800.3222802458331,nan,nan,nan,nan
1,96,1,1,1.0,1.0,0.11711926176212728,1,1.0,0.0,1.0,0.42240999730901146,0.15315787860269725,0.2692521187063142,0.5755678759117087,0.15315787860269725,0.2006026745463411,3,8,7,4,1,0,1.0,1.0,1.0,1.0,1.0,1.0,0.0,1.0,1.0,0.0,0.0,0.0,2.0,7.0,8.0,7.0,6.0,5.0,1.0,6.0,1.0,2.0,3.0,4.0,5.0,7.9742084802128375,2.4393544623162597,3.423393632285297,4.711798453005031,6.335025474894792,7.182819699170068,666.8933454824146,801.1331376812886,801.9415410081856,801.2502569430508,810.9676914643496,811.9768761261366,802.9583497145213,810.9593583852984
1,97,1,1,1.0,1.0,0.4327926861587912,0,0.0,0.0,0.0,0.4191273012278622,0.15555226442819697,0.2635750367996652,0.5746795656560592,0.15555226442819697,0.251948799394692,4,7,0,6,3,8,nan,nan,nan,nan,nan,nan,nan,nan,nan,nan,nan,nan,0.0,nan,nan,nan,nan,nan,nan,nan,nan,nan,nan,nan,nan,nan,nan,nan,nan,nan,nan,666.8933454824146,812.2012101197615,nan,812.6340028059203,nan,nan,nan,nan
1,98,1,1,1.0,1.0,0.49560994491912425,0,0.0,0.0,0.0,0.41927267766329757,0.1547289979634659,0.26454367969983167,0.5740016756267634,0.1547289979634659,0.3485072976133476,8,4,3,2,6,1,nan,nan,nan,nan,nan,nan,nan,nan,nan,nan,nan,nan,0.0,nan,nan,nan,nan,nan,nan,nan,nan,nan,nan,nan,nan,nan,nan,nan,nan,nan,nan,666.8933454824146,813.2263507649768,nan,813.7219607098959,nan,nan,nan,nan
1,99,1,1,1.0,1.0,0.39845968200825155,0,0.0,0.0,0.0,0.42007622784493787,0.15410952843796286,0.26596669940697504,0.5741857562829007,0.15410952843796286,0.442287437695389,3,2,4,8,5,7,nan,nan,nan,nan,nan,nan,nan,nan,nan,nan,nan,nan,0.0,nan,nan,nan,nan,nan,nan,nan,nan,nan,nan,nan,nan,nan,nan,nan,nan,nan,nan,666.8933454824146,814.2514688873198,nan,814.649928569328,nan,nan,nan,nan
1,100,1,1,1.0,1.0,0.3736411954741925,0,0.0,0.0,0.0,0.41985105549247237,0.15332048234300835,0.26653057314946405,0.5731715378354807,0.15332048234300835,0.4225702741338561,5,7,1,3,6,8,nan,nan,nan,nan,nan,nan,nan,nan,nan,nan,nan,nan,0.0,nan,nan,nan,nan,nan,nan,nan,nan,nan,nan,nan,nan,nan,nan,nan,nan,nan,nan,666.8933454824146,815.268283295678,nan,815.6419244911522,nan,nan,nan,nan
1,101,1,1,1.0,1.0,0.31679841433651745,0,0.0,0.0,0.0,0.4193746651830056,0.15259952596834597,0.2667751392146596,0.5719741911513516,0.15259952596834597,0.3629664306063205,8,5,4,1,2,0,nan,nan,nan,nan,nan,nan,nan,nan,nan,nan,nan,nan,0.0,nan,nan,nan,nan,nan,nan,nan,nan,nan,nan,nan,nan,nan,nan,nan,nan,nan,nan,666.8933454824146,816.2850868704263,nan,816.6018852847628,nan,nan,nan,nan
1,102,1,1,1.0,1.0,0.31599358771927655,0,0.0,0.0,0.0,0.41832796874579653,0.15216854939475247,0.26615941935104404,0.570496518140549,0.15216854939475247,0.3354777325099955,6,0,8,2,1,7,nan,nan,nan,nan,nan,nan,nan,nan,nan,nan,nan,nan,0.0,nan,nan,nan,nan,nan,nan,nan,nan,nan,nan,nan,nan,nan,nan,nan,nan,nan,nan,666.8933454824146,817.3018756199162,nan,817.6178692076355,nan,nan,nan,nan
1,103,1,1,1.0,1.0,0.38721548463217914,0,0.0,0.0,0.0,0.41729428812936703,0.15174349542961416,0.2655507926997529,0.5690377835589812,0.15174349542961416,0.3400024955626577,5,3,7,4,2,6,nan,nan,nan,nan,nan,nan,nan,nan,nan,nan,nan,nan,0.0,nan,nan,nan,nan,nan,nan,nan,nan,nan,nan,nan,nan,nan,nan,nan,nan,nan,nan,666.8933454824146,818.3186338644009,nan,818.7058493490331,nan,nan,nan,nan
1,104,1,1,1.0,1.0,0.3543378966860473,0,0.0,0.0,0.0,0.4169935000943951,0.15101253057909333,0.2659809695153018,0.5680060306734884,0.15101253057909333,0.3525156563458343,4,5,0,2,1,3,nan,nan,nan,nan,nan,nan,nan,nan,nan,nan,nan,nan,0.0,nan,nan,nan,nan,nan,nan,nan,nan,nan,nan,nan,nan,nan,nan,nan,nan,nan,nan,666.8933454824146,819.335478207795,nan,819.689816104481,nan,nan,nan,nan
1,105,1,1,1.0,1.0,0.2575420083012432,0,0.0,0.0,0.0,0.4163731475854016,0.15039108408070204,0.26598206350469955,0.5667642316661037,0.15039108408070204,0.33303179653982323,8,1,3,7,6,0,nan,nan,nan,nan,nan,nan,nan,nan,nan,nan,nan,nan,0.0,nan,nan,nan,nan,nan,nan,nan,nan,nan,nan,nan,nan,nan,nan,nan,nan,nan,nan,666.8933454824146,820.3522621106822,nan,820.6098041189834,nan,nan,nan,nan
1,106,1,1,1.0,1.0,0.1527101108804345,1,1.0,0.0,1.0,0.414815979553204,0.15046807033131906,0.2643479092218849,0.5652840498845231,0.15046807033131906,0.254863338622575,5,4,2,3,8,7,1.0,1.0,1.0,1.0,1.0,1.0,0.0,1.0,1.0,0.0,0.0,0.0,2.0,3.0,4.0,2.0,7.0,6.0,0.0,6.0,1.0,2.0,3.0,4.0,5.0,7.809914622223005,1.2423831538762897,2.228128054877743,3.2034270281437784,4.315333874663338,5.226689174072817,666.8933454824146,821.3690614090301,822.1774712931365,821.5217715199105,831.0368840459269,832.0380378307309,823.1859785660636,831.0285515370779
1,107,1,1,1.0,1.0,0.3154233950190246,0,0.0,0.0,0.0,0.41227126238162365,0.15192543522352955,0.26034582715809407,0.5641966976051532,0.15192543522352955,0.24189183806690076,6,2,8,4,7,3,nan,nan,nan,nan,nan,nan,nan,nan,nan,nan,nan,nan,0.0,nan,nan,nan,nan,nan,nan,nan,nan,nan,nan,nan,nan,nan,nan,nan,nan,nan,nan,666.8933454824146,832.2621169483755,nan,832.5775403433945,nan,nan,nan,nan
1,108,1,1,1.0,1.0,0.4106461221817881,0,0.0,0.0,0.0,0.4113400328877525,0.15148835707392858,0.25985167581382396,0.562828389961681,0.15148835707392858,0.29292654269374907,2,3,7,5,0,6,nan,nan,nan,nan,nan,nan,nan,nan,nan,nan,nan,nan,0.0,nan,nan,nan,nan,nan,nan,nan,nan,nan,nan,nan,nan,nan,nan,nan,nan,nan,nan,666.8933454824146,833.2788709162269,nan,833.6895170384087,nan,nan,nan,nan
1,109,1,1,1.0,1.0,0.3137724024709314,0,0.0,0.0,0.0,0.41133342421436236,0.15076527322575628,0.2605681509886061,0.5620986974401186,0.15076527322575628,0.3466139732239147,3,4,2,6,5,1,nan,nan,nan,nan,nan,nan,nan,nan,nan,nan,nan,nan,0.0,nan,nan,nan,nan,nan,nan,nan,nan,nan,nan,nan,nan,nan,nan,nan,nan,nan,nan,666.8933454824146,834.2957118384074,nan,834.6094842408784,nan,nan,nan,nan
1,110,1,1,1.0,1.0,0.3529554649721831,0,0.0,0.0,0.0,0.41041303721678285,0.1503485246053196,0.26006451261146324,0.5607615618221025,0.1503485246053196,0.3591246632083009,4,5,6,3,2,0,nan,nan,nan,nan,nan,nan,nan,nan,nan,nan,nan,nan,0.0,nan,nan,nan,nan,nan,nan,nan,nan,nan,nan,nan,nan,nan,nan,nan,nan,nan,nan,666.8933454824146,835.3125091409311,nan,835.6654646059033,nan,nan,nan,nan
1,111,1,1,1.0,1.0,0.31214136676862836,0,0.0,0.0,0.0,0.40987605056029125,0.14974640484861884,0.2601296457116724,0.5596224554089101,0.14974640484861884,0.32628974473724764,3,0,1,2,6,4,nan,nan,nan,nan,nan,nan,nan,nan,nan,nan,nan,nan,0.0,nan,nan,nan,nan,nan,nan,nan,nan,nan,nan,nan,nan,nan,nan,nan,nan,nan,nan,666.8933454824146,836.3292996012606,nan,836.6414409680292,nan,nan,nan,nan
1,112,1,1,1.0,1.0,0.31930384039878845,0,0.0,0.0,0.0,0.4089710997844425,0.14934517872793712,0.2596259210565054,0.5583162785123796,0.14934517872793712,0.32813355737986666,8,2,6,5,0,3,nan,nan,nan,nan,nan,nan,nan,nan,nan,nan,nan,nan,0.0,nan,nan,nan,nan,nan,nan,nan,nan,nan,nan,nan,nan,nan,nan,nan,nan,nan,nan,666.8933454824146,837.3461094480008,nan,837.6654132883996,nan,nan,nan,nan
1,113,1,1,1.0,1.0,0.3744924929924309,0,0.0,0.0,0.0,0.4081484643772347,0.14890414853480732,0.25924431584242735,0.557052612912042,0.14890414853480732,0.33531256671994925,1,4,0,7,8,2,nan,nan,nan,nan,nan,nan,nan,nan,nan,nan,nan,nan,0.0,nan,nan,nan,nan,nan,nan,nan,nan,nan,nan,nan,nan,nan,nan,nan,nan,nan,nan,666.8933454824146,838.3628922107164,nan,838.7373847037088,nan,nan,nan,nan
1,114,1,1,1.0,1.0,0.48564126854762435,0,0.0,0.0,0.0,0.4078425010010092,0.14826018226754734,0.2595823187334619,0.5561026832685565,0.14826018226754734,0.3931458673129479,7,8,1,4,3,0,nan,nan,nan,nan,nan,nan,nan,nan,nan,nan,nan,nan,0.0,nan,nan,nan,nan,nan,nan,nan,nan,nan,nan,nan,nan,nan,nan,nan,nan,nan,nan,666.8933454824146,839.3796986362431,nan,839.8653399047907,nan,nan,nan,nan
1,115,1,1,1.0,1.0,0.4848321652971208,0,0.0,0.0,0.0,0.4085433907987265,0.1477737831936693,0.2607696076050572,0.5563171739923958,0.1477737831936693,0.448321975612392,6,2,0,3,8,1,nan,nan,nan,nan,nan,nan,nan,nan,nan,nan,nan,nan,0.0,nan,nan,nan,nan,nan,nan,nan,nan,nan,nan,nan,nan,nan,nan,nan,nan,nan,nan,666.8933454824146,840.3964922325686,nan,840.8813243978657,nan,nan,nan,nan
1,116,1,1,1.0,1.0,0.43602425255812705,0,0.0,0.0,0.0,0.4092245405710336,0.1472875320214048,0.26193700854962876,0.5565120725924384,0.1472875320214048,0.46883256213429075,4,1,5,7,0,8,nan,nan,nan,nan,nan,nan,nan,nan,nan,nan,nan,nan,0.0,nan,nan,nan,nan,nan,nan,nan,nan,nan,nan,nan,nan,nan,nan,nan,nan,nan,nan,666.8933454824146,841.4132952368818,nan,841.84931948944,nan,nan,nan,nan
1,117,1,1,1.0,1.0,0.4108938709832728,0,0.0,0.0,0.0,0.4094617061638397,0.14665584849819915,0.2628058576656406,0.5561175546620388,0.14665584849819915,0.44391676294617355,7,0,6,3,5,1,nan,nan,nan,nan,nan,nan,nan,nan,nan,nan,nan,nan,0.0,nan,nan,nan,nan,nan,nan,nan,nan,nan,nan,nan,nan,nan,nan,nan,nan,nan,nan,666.8933454824146,842.4383879858069,nan,842.8492818567902,nan,nan,nan,nan
1,118,1,1,1.0,1.0,0.4420557492412627,0,0.0,0.0,0.0,0.40947426901313294,0.14601126535666242,0.2634630036564705,0.5554855343697953,0.14601126535666242,0.4296579575942208,8,2,4,6,7,3,nan,nan,nan,nan,nan,nan,nan,nan,nan,nan,nan,nan,0.0,nan,nan,nan,nan,nan,nan,nan,nan,nan,nan,nan,nan,nan,nan,nan,nan,nan,nan,666.8933454824146,843.4552038197871,nan,843.8972595690284,nan,nan,nan,nan
1,119,1,1,1.0,1.0,0.3372278434690088,0,0.0,0.0,0.0,0.409757586232508,0.14540651673750946,0.26435106949499854,0.5551641029700175,0.14540651673750946,0.39672582123118144,0,1,2,4,8,6,nan,nan,nan,nan,nan,nan,nan,nan,nan,nan,nan,nan,0.0,nan,nan,nan,nan,nan,nan,nan,nan,nan,nan,nan,nan,nan,nan,nan,nan,nan,nan,666.8933454824146,844.47201851313,nan,844.809246356599,nan,nan,nan,nan
1,120,1,1,1.0,1.0,0.3843767810612917,0,0.0,0.0,0.0,0.4091323298293744,0.14493359215096832,0.26419873767840607,0.5540659219803428,0.14493359215096832,0.3878867912571877,4,6,1,0,7,2,nan,nan,nan,nan,nan,nan,nan,nan,nan,nan,nan,nan,0.0,nan,nan,nan,nan,nan,nan,nan,nan,nan,nan,nan,nan,nan,nan,nan,nan,nan,nan,666.8933454824146,845.4888374828734,nan,845.8732142639346,nan,nan,nan,nan
1,121,1,1,1.0,1.0,0.3835557037964463,0,0.0,0.0,0.0,0.4089207439424677,0.14433088026543697,0.26458986367703075,0.5532516242079046,0.14433088026543697,0.3683867761089156,5,1,8,6,4,3,nan,nan,nan,nan,nan,nan,nan,nan,nan,nan,nan,nan,0.0,nan,nan,nan,nan,nan,nan,nan,nan,nan,nan,nan,nan,nan,nan,nan,nan,nan,nan,666.8933454824146,846.505613403162,nan,846.8891691069584,nan,nan,nan,nan
1,122,1,1,1.0,1.0,0.4547713284846395,0,0.0,0.0,0.0,0.4087057859751285,0.1437368146829316,0.26496897129219693,0.5524426006580601,0.1437368146829316,0.40756793778079253,6,8,4,2,0,5,nan,nan,nan,nan,nan,nan,nan,nan,nan,nan,nan,nan,0.0,nan,nan,nan,nan,nan,nan,nan,nan,nan,nan,nan,nan,nan,nan,nan,nan,nan,nan,666.8933454824146,847.5223936000839,nan,847.9771649285685,nan,nan,nan,nan
1,123,1,1,1.0,1.0,0.3659564252011478,0,0.0,0.0,0.0,0.4090928913743681,0.1431933606513162,0.26589953072305195,0.5522862520256843,0.1431933606513162,0.40142781916074455,0,7,5,3,1,8,nan,nan,nan,nan,nan,nan,nan,nan,nan,nan,nan,nan,0.0,nan,nan,nan,nan,nan,nan,nan,nan,nan,nan,nan,nan,nan,nan,nan,nan,nan,nan,666.8933454824146,848.5391909026075,nan,848.9051473278087,nan,nan,nan,nan
1,124,1,1,1.0,1.0,0.35679314588196576,0,0.0,0.0,0.0,0.40873342082292463,0.14264938176183828,0.26608403906108635,0.5513828025847629,0.14264938176183828,0.3925069665225844,4,5,6,0,3,2,nan,nan,nan,nan,nan,nan,nan,nan,nan,nan,nan,nan,0.0,nan,nan,nan,nan,nan,nan,nan,nan,nan,nan,nan,nan,nan,nan,nan,nan,nan,nan,666.8933454824146,849.5643440918066,nan,849.9211372376885,nan,nan,nan,nan
1,125,1,1,1.0,1.0,0.38797298539429903,0,0.0,0.0,0.0,0.4083041623523382,0.14213650261359373,0.26616765973874446,0.5504406649659319,0.14213650261359373,0.37024085215913755,6,1,2,7,5,8,nan,nan,nan,nan,nan,nan,nan,nan,nan,nan,nan,nan,0.0,nan,nan,nan,nan,nan,nan,nan,nan,nan,nan,nan,nan,nan,nan,nan,nan,nan,nan,666.8933454824146,850.5811365477275,nan,850.9691095331218,nan,nan,nan,nan
1,126,1,1,1.0,1.0,0.5388131497893482,0,0.0,0.0,0.0,0.40813751336087883,0.14156464661785004,0.2665728667430288,0.5497021599787288,0.14156464661785004,0.42785976035520434,8,7,4,5,0,3,nan,nan,nan,nan,nan,nan,nan,nan,nan,nan,nan,nan,0.0,nan,nan,nan,nan,nan,nan,nan,nan,nan,nan,nan,nan,nan,nan,nan,nan,nan,nan,666.8933454824146,851.606258661719,nan,852.1450718115084,nan,nan,nan,nan
1,127,1,1,1.0,1.0,0.44198419037275016,0,0.0,0.0,0.0,0.4091999169090778,0.14147550825659083,0.267724408652487,0.5506754251656687,0.14147550825659083,0.4562567751854658,2,1,3,6,5,4,nan,nan,nan,nan,nan,nan,nan,nan,nan,nan,nan,nan,0.0,nan,nan,nan,nan,nan,nan,nan,nan,nan,nan,nan,nan,nan,nan,nan,nan,nan,nan,666.8933454824146,852.6230585300364,nan,853.0650427204091,nan,nan,nan,nan
1,128,1,1,1.0,1.0,0.35319180972874165,0,0.0,0.0,0.0,0.40946430621120417,0.1409343942390087,0.26852991197219545,0.5503987004502129,0.1409343942390087,0.44466304996361333,0,3,7,4,2,1,nan,nan,nan,nan,nan,nan,nan,nan,nan,nan,nan,nan,0.0,nan,nan,nan,nan,nan,nan,nan,nan,nan,nan,nan,nan,nan,nan,nan,nan,nan,nan,666.8933454824146,853.6398461393546,nan,853.9930379490834,nan,nan,nan,nan
1,129,1,1,1.0,1.0,0.320374091854319,0,0.0,0.0,0.0,0.40901412623934447,0.14045901017932627,0.2685551160600182,0.5494731364186707,0.14045901017932627,0.37185003065193695,5,2,4,8,7,6,nan,nan,nan,nan,nan,nan,nan,nan,nan,nan,nan,nan,0.0,nan,nan,nan,nan,nan,nan,nan,nan,nan,nan,nan,nan,nan,nan,nan,nan,nan,nan,666.8933454824146,854.6566425866913,nan,854.9770166785456,nan,nan,nan,nan
1,130,0,0,1.0,0.0,0.3115463708527386,0,0.0,0.0,0.0,0.4083106339029554,0.1401214436610399,0.2681891902419155,0.5484320775639953,0.1401214436610399,0.32837075747859973,8,3,6,5,4,1,nan,nan,nan,nan,nan,nan,nan,nan,nan,nan,nan,nan,0.0,nan,nan,nan,nan,nan,nan,nan,nan,nan,nan,nan,nan,nan,nan,nan,nan,nan,nan,666.8933454824146,855.6734418848064,nan,855.9849882556591,nan,nan,nan,nan
1,131,1,1,0.0,0.0,0.05472594127058983,1,1.0,0.0,1.0,0.4075487105718513,0.1398304931748825,0.2677182173969688,0.5473792037467338,0.1398304931748825,0.2288821346592158,7,4,3,1,0,8,1.0,1.0,1.0,1.0,1.0,1.0,0.0,1.0,1.0,0.0,0.0,0.0,2.0,4.0,4.0,3.0,6.0,7.0,2.0,6.0,1.0,2.0,3.0,4.0,5.0,7.088197954697534,1.1843446791172028,2.3616021496709436,3.4960384445730597,4.848276892211288,6.272672067629173,666.8933454824146,856.6902394723147,857.4986556286458,856.7449654135853,865.6330123816151,866.6380648578051,858.507119281916,865.6246844341513
1,132,0,0,nan,nan,nan,0,0.0,0.0,0.0,0.0,0.0,0.0,0.0,0.0,0.0,6,2,0,3,5,4,nan,nan,nan,nan,nan,nan,nan,nan,nan,nan,nan,nan,0.0,nan,nan,nan,nan,nan,nan,nan,nan,nan,nan,nan,nan,nan,nan,nan,nan,nan,nan,666.8933454824146,866.8582113573793,nan,nan,nan,nan,nan,nan
1,133,1,1,1.0,1.0,0.6296522368211299,0,0.0,0.0,0.0,0.4047922826866852,0.14270509808123552,0.26208718460544966,0.5474973807679208,0.14270509808123552,0.3421890890458599,2,6,1,8,0,5,nan,nan,nan,nan,nan,nan,nan,nan,nan,nan,nan,nan,0.0,nan,nan,nan,nan,nan,nan,nan,nan,nan,nan,nan,nan,nan,nan,nan,nan,nan,nan,666.8933454824146,867.8750112256967,nan,868.5046634625178,nan,nan,nan,nan
1,134,1,1,1.0,1.0,0.41287985164672136,0,0.0,0.0,0.0,0.4065353831063321,0.14351234741046875,0.2630230356958633,0.5500477305168008,0.14351234741046875,0.5212660442339256,1,2,6,7,3,8,nan,nan,nan,nan,nan,nan,nan,nan,nan,nan,nan,nan,0.0,nan,nan,nan,nan,nan,nan,nan,nan,nan,nan,nan,nan,nan,nan,nan,nan,nan,nan,666.8933454824146,868.8917931329925,nan,869.3046729846392,nan,nan,nan,nan
1,135,0,0,0.0,1.0,0.5800406374037266,0,0.0,0.0,0.0,0.4065841867104889,0.14296038586569965,0.26362380084478926,0.5495445725761885,0.14296038586569965,0.5408575752905259,2,1,4,6,8,7,nan,nan,nan,nan,nan,nan,nan,nan,nan,nan,nan,nan,0.0,nan,nan,nan,nan,nan,nan,nan,nan,nan,nan,nan,nan,nan,nan,nan,nan,nan,nan,666.8933454824146,869.9086237919983,nan,870.488664429402,nan,nan,nan,nan
1,136,1,1,1.0,1.0,0.5792286833748221,0,0.0,0.0,0.0,0.4079082817539487,0.14321165721757478,0.26469662453637394,0.5511199389715236,0.14321165721757478,0.5240497241417567,1,4,2,7,5,6,nan,nan,nan,nan,nan,nan,nan,nan,nan,nan,nan,nan,0.0,nan,nan,nan,nan,nan,nan,nan,nan,nan,nan,nan,nan,nan,nan,nan,nan,nan,nan,666.8933454824146,870.9254005674738,nan,871.5046292508487,nan,nan,nan,nan
1,137,1,1,1.0,1.0,0.4264033935032785,0,0.0,0.0,0.0,0.4092061635844099,0.14343943776214377,0.2657667258222661,0.5526456013465537,0.14343943776214377,0.5285575714272758,0,2,5,4,6,8,nan,nan,nan,nan,nan,nan,nan,nan,nan,nan,nan,nan,0.0,nan,nan,nan,nan,nan,nan,nan,nan,nan,nan,nan,nan,nan,nan,nan,nan,nan,nan,666.8933454824146,871.9422038570046,nan,872.3686072505079,nan,nan,nan,nan
1,138,1,1,1.0,1.0,0.3696079384535551,0,0.0,0.0,0.0,0.4093354660650029,0.1429068960647625,0.26642857000024034,0.5522423621297654,0.1429068960647625,0.45841333844388527,6,3,1,2,7,4,nan,nan,nan,nan,nan,nan,nan,nan,nan,nan,nan,nan,0.0,nan,nan,nan,nan,nan,nan,nan,nan,nan,nan,nan,nan,nan,nan,nan,nan,nan,nan,666.8933454824146,872.9589806327131,nan,873.3285885711666,nan,nan,nan,nan
1,139,1,1,1.0,1.0,0.4007809357717633,0,0.0,0.0,0.0,0.4090389919783503,0.1424137121225078,0.2666252798558425,0.5514527041008581,0.1424137121225078,0.3989307559095323,3,8,0,1,2,5,nan,nan,nan,nan,nan,nan,nan,nan,nan,nan,nan,nan,0.0,nan,nan,nan,nan,nan,nan,nan,nan,nan,nan,nan,nan,nan,nan,nan,nan,nan,nan,666.8933454824146,873.9757773650344,nan,874.3765583008062,nan,nan,nan,nan
1,140,1,1,1.0,1.0,0.32795508694835007,0,0.0,0.0,0.0,0.40897782119163484,0.14188704046501202,0.26709078072662285,0.5508648616566468,0.14188704046501202,0.36611465372455615,2,4,1,7,6,8,nan,nan,nan,nan,nan,nan,nan,nan,nan,nan,nan,nan,0.0,nan,nan,nan,nan,nan,nan,nan,nan,nan,nan,nan,nan,nan,nan,nan,nan,nan,nan,666.8933454824146,874.9925883521792,nan,875.3205434391275,nan,nan,nan,nan
1,141,1,1,1.0,1.0,0.38311351952143013,0,0.0,0.0,0.0,0.4083820657927872,0.14153380566197774,0.2668482601308094,0.549915871454765,0.14153380566197774,0.3706165140805145,1,3,7,2,0,6,nan,nan,nan,nan,nan,nan,nan,nan,nan,nan,nan,nan,0.0,nan,nan,nan,nan,nan,nan,nan,nan,nan,nan,nan,nan,nan,nan,nan,nan,nan,nan,666.8933454824146,876.0093919266947,nan,876.3925054462161,nan,nan,nan,nan
1,142,1,1,1.0,1.0,0.3663036725483835,0,0.0,0.0,0.0,0.4081976238492006,0.14103271625911204,0.2671649075900886,0.5492303401083126,0.14103271625911204,0.3591240930060546,0,5,3,8,4,7,nan,nan,nan,nan,nan,nan,nan,nan,nan,nan,nan,nan,0.0,nan,nan,nan,nan,nan,nan,nan,nan,nan,nan,nan,nan,nan,nan,nan,nan,nan,nan,666.8933454824146,877.0261940760538,nan,877.3924977486022,nan,nan,nan,nan
1,143,1,1,1.0,1.0,0.3334825336933136,0,0.0,0.0,0.0,0.4078940444919483,0.1405657175619075,0.2673283269300408,0.5484597620538558,0.1405657175619075,0.36096657525437575,8,4,7,1,6,5,nan,nan,nan,nan,nan,nan,nan,nan,nan,nan,nan,nan,0.0,nan,nan,nan,nan,nan,nan,nan,nan,nan,nan,nan,nan,nan,nan,nan,nan,nan,nan,666.8933454824146,878.0429756981321,nan,878.3764582318254,nan,nan,nan,nan
1,144,0,0,1.0,0.0,0.3086794426199049,0,0.0,0.0,0.0,0.4073587098818862,0.14020028657623151,0.2671584233056547,0.5475589964581178,0.14020028657623151,0.33615521628720063,6,0,3,7,8,1,nan,nan,nan,nan,nan,nan,nan,nan,nan,nan,nan,nan,0.0,nan,nan,nan,nan,nan,nan,nan,nan,nan,nan,nan,nan,nan,nan,nan,nan,nan,nan,666.8933454824146,879.0597687242553,nan,879.3684481668752,nan,nan,nan,nan
1,145,1,1,1.0,1.0,0.539829232962802,0,0.0,0.0,0.0,0.40665385797287207,0.1399456214036988,0.2667082365691733,0.5465994793765708,0.1399456214036988,0.3939970697586735,7,4,1,8,5,0,nan,nan,nan,nan,nan,nan,nan,nan,nan,nan,nan,nan,0.0,nan,nan,nan,nan,nan,nan,nan,nan,nan,nan,nan,nan,nan,nan,nan,nan,nan,nan,666.8933454824146,880.0765740096103,nan,880.6164032425731,nan,nan,nan,nan
1,146,1,1,1.0,1.0,0.6670129636768252,0,0.0,0.0,0.0,0.4075983641784744,0.13989557069078684,0.26770279348768755,0.5474939348692612,0.13989557069078684,0.5051738797531774,8,6,5,4,0,3,nan,nan,nan,nan,nan,nan,nan,nan,nan,nan,nan,nan,0.0,nan,nan,nan,nan,nan,nan,nan,nan,nan,nan,nan,nan,nan,nan,nan,nan,nan,nan,666.8933454824146,881.0933710269164,nan,881.7603839905933,nan,nan,nan,nan
1,147,1,1,1.0,1.0,0.41823509987443686,0,0.0,0.0,0.0,0.4094252275552233,0.1410798567175898,0.26834537083763355,0.5505050842728131,0.1410798567175898,0.5416924321713547,4,8,3,5,1,0,nan,nan,nan,nan,nan,nan,nan,nan,nan,nan,nan,nan,0.0,nan,nan,nan,nan,nan,nan,nan,nan,nan,nan,nan,nan,nan,nan,nan,nan,nan,nan,666.8933454824146,882.1101292714011,nan,882.5283643712755,nan,nan,nan,nan
1,148,1,1,1.0,1.0,0.3854125358629972,0,0.0,0.0,0.0,0.4094868350539591,0.1405876219084228,0.26889921314553633,0.5500744569623819,0.1405876219084228,0.49022019980475307,0,5,7,3,8,6,nan,nan,nan,nan,nan,nan,nan,nan,nan,nan,nan,nan,0.0,nan,nan,nan,nan,nan,nan,nan,nan,nan,nan,nan,nan,nan,nan,nan,nan,nan,nan,666.8933454824146,883.1269513771404,nan,883.5123639130034,nan,nan,nan,nan
1,149,1,1,1.0,1.0,0.280248501105234,0,0.0,0.0,0.0,0.4093196524206885,0.14011288370947922,0.2692067687112093,0.5494325361301677,0.14011288370947922,0.36129871228088933,4,2,8,0,3,5,nan,nan,nan,nan,nan,nan,nan,nan,nan,nan,nan,nan,0.0,nan,nan,nan,nan,nan,nan,nan,nan,nan,nan,nan,nan,nan,nan,nan,nan,nan,nan,666.8933454824146,884.1520828993525,nan,884.4323314004578,nan,nan,nan,nan
1,150,1,1,1.0,1.0,0.23942927131429315,0,0.0,0.0,0.0,0.40842950654954746,0.14003688617693358,0.2683926203726139,0.548466392726481,0.14003688617693358,0.3016967694275081,5,4,3,7,0,2,nan,nan,nan,nan,nan,nan,nan,nan,nan,nan,nan,nan,0.0,nan,nan,nan,nan,nan,nan,nan,nan,nan,nan,nan,nan,nan,nan,nan,nan,nan,nan,666.8933454824146,885.1688844782766,nan,885.4083137495909,nan,nan,nan,nan
1,151,1,1,1.0,1.0,0.13423074060119689,1,1.0,0.0,1.0,0.40727197069177173,0.14025083282409373,0.267021137867678,0.5475228035158655,0.14025083282409373,0.21796950434024134,3,1,2,4,8,5,1.0,1.0,1.0,1.0,1.0,1.0,0.0,0.0,0.0,0.0,0.0,0.0,0.0,8.0,4.0,3.0,6.0,2.0,7.0,6.0,1.0,2.0,3.0,4.0,5.0,5.9513805359601974,1.4634029034059495,2.511145696276799,3.624964968767017,4.454956355970353,5.303660607663915,666.8933454824146,886.194051922299,887.0024287353735,886.3282826629002,894.011635349365,895.0138288801536,888.0192277485039,894.0033538728021
1,152,1,1,nan,nan,nan,0,0.0,0.0,0.0,0.0,0.0,0.0,0.0,0.0,0.0,2,0,8,3,5,6,nan,nan,nan,nan,nan,nan,nan,nan,nan,nan,nan,nan,0.0,nan,nan,nan,nan,nan,nan,nan,nan,nan,nan,nan,nan,nan,nan,nan,nan,nan,nan,666.8933454824146,895.2368522863835,nan,nan,nan,nan,nan,nan
1,153,1,1,1.0,1.0,0.48203337495215237,0,0.0,0.0,0.0,0.40541454735782223,0.14156336990959997,0.2638511774482223,0.5469779172674222,0.14156336990959997,0.30813205777667463,7,6,3,8,1,0,nan,nan,nan,nan,nan,nan,nan,nan,nan,nan,nan,nan,0.0,nan,nan,nan,nan,nan,nan,nan,nan,nan,nan,nan,nan,nan,nan,nan,nan,nan,nan,666.8933454824146,896.2619635665324,nan,896.7439969414845,nan,nan,nan,nan
1,154,1,1,1.0,1.0,0.521238389890641,0,0.0,0.0,0.0,0.40593224213886503,0.14122385841564228,0.26470838372322275,0.5471561005545074,0.14122385841564228,0.5016358824213967,2,1,4,7,3,6,nan,nan,nan,nan,nan,nan,nan,nan,nan,nan,nan,nan,0.0,nan,nan,nan,nan,nan,nan,nan,nan,nan,nan,nan,nan,nan,nan,nan,nan,nan,nan,666.8933454824146,897.2787742684595,nan,897.8000126583502,nan,nan,nan,nan
1,155,1,1,1.0,1.0,0.3924301804509014,0,0.0,0.0,0.0,0.40670610890229975,0.14106366423189023,0.26564244467040954,0.54776977313419,0.14106366423189023,0.46523398176456493,4,2,3,1,0,5,nan,nan,nan,nan,nan,nan,nan,nan,nan,nan,nan,nan,0.0,nan,nan,nan,nan,nan,nan,nan,nan,nan,nan,nan,nan,nan,nan,nan,nan,nan,nan,666.8933454824146,898.2955687202048,nan,898.6879989006557,nan,nan,nan,nan
1,156,0,0,1.0,0.0,0.3996057689655572,0,0.0,0.0,0.0,0.4066109360459571,0.14059746538883872,0.2660134706571184,0.5472084014347958,0.14059746538883872,0.4377581131023665,2,8,6,3,5,0,nan,nan,nan,nan,nan,nan,nan,nan,nan,nan,nan,nan,0.0,nan,nan,nan,nan,nan,nan,nan,nan,nan,nan,nan,nan,nan,nan,nan,nan,nan,nan,666.8933454824146,899.3123640269041,nan,899.7119697958697,nan,nan,nan,nan
1,157,1,1,1.0,1.0,0.5987603443209082,0,0.0,0.0,0.0,0.4065645442109876,0.1401322894010122,0.2664322548099754,0.5466968336119997,0.1401322894010122,0.46359876457912225,7,6,2,5,0,8,nan,nan,nan,nan,nan,nan,nan,nan,nan,nan,nan,nan,0.0,nan,nan,nan,nan,nan,nan,nan,nan,nan,nan,nan,nan,nan,nan,nan,nan,nan,nan,666.8933454824146,900.3291576232295,nan,900.9279179675505,nan,nan,nan,nan
1,158,1,1,1.0,1.0,0.6379488236270845,0,0.0,0.0,0.0,0.40782899026434233,0.14053216626562703,0.2672968239987153,0.5483611565299693,0.14053216626562703,0.5454383123045167,2,1,8,4,6,3,nan,nan,nan,nan,nan,nan,nan,nan,nan,nan,nan,nan,0.0,nan,nan,nan,nan,nan,nan,nan,nan,nan,nan,nan,nan,nan,nan,nan,nan,nan,nan,666.8933454824146,901.3459560661577,nan,901.9839048897848,nan,nan,nan,nan
1,159,1,1,1.0,1.0,0.4768095558974892,1,0.0,1.0,1.0,0.4093330414627916,0.14129422943369047,0.2680388120291011,0.5506272708964821,0.14129422943369047,0.571172907948494,1,4,6,0,3,7,1.0,1.0,1.0,1.0,1.0,1.0,0.0,1.0,1.0,0.0,0.0,0.0,2.0,8.0,4.0,6.0,3.0,2.0,0.0,6.0,1.0,2.0,3.0,4.0,5.0,5.238002934725955,1.4307360018137842,2.1658214037306607,3.0223963083699346,3.806256551994011,4.510199747048318,666.8933454824146,902.371075329138,903.1794966170564,902.8478848850355,909.4719569322187,910.4731141380034,904.196297055576,909.4636335463729
1,160,1,1,nan,nan,nan,0,0.0,0.0,0.0,0.0,0.0,0.0,0.0,0.0,0.0,5,6,2,1,4,8,nan,nan,nan,nan,nan,nan,nan,nan,nan,nan,nan,nan,0.0,nan,nan,nan,nan,nan,nan,nan,nan,nan,nan,nan,nan,nan,nan,nan,nan,nan,nan,666.8933454824146,910.6971499212086,nan,nan,nan,nan,nan,nan
1,161,1,1,1.0,1.0,0.021751135354861617,0,0.0,0.0,0.0,0.4097712006474325,0.14093897968206565,0.26883222096536685,0.5507101803294981,0.14093897968206565,0.2492803456261754,6,8,4,3,7,2,nan,nan,nan,nan,nan,nan,nan,nan,nan,nan,nan,nan,0.0,nan,nan,nan,nan,nan,nan,nan,nan,nan,nan,nan,nan,nan,nan,nan,nan,nan,nan,666.8933454824146,911.7139734525699,nan,911.7357245879248,nan,nan,nan,nan
1,162,1,1,1.0,1.0,0.1569423652254045,1,1.0,0.0,1.0,0.40726784538748045,0.14387747480109772,0.2633903705863827,0.5511453201885782,0.14387747480109772,0.08934675029013306,4,5,1,6,3,0,1.0,1.0,1.0,1.0,1.0,1.0,0.0,1.0,0.0,1.0,0.0,0.0,2.0,2.0,5.0,4.0,6.0,8.0,3.0,6.0,1.0,2.0,3.0,4.0,5.0,6.0861583759542555,1.1689218257088214,2.1098133844789118,3.254553343867883,4.301693728426471,5.07043560128659,666.8933454824146,912.7307462368626,913.5391521295533,912.887688602088,920.6817284931894,921.6892399247736,914.5559559892863,920.6733994055539
1,163,0,0,nan,nan,nan,0,0.0,0.0,0.0,0.0,0.0,0.0,0.0,0.0,0.0,3,4,8,0,2,6,nan,nan,nan,nan,nan,nan,nan,nan,nan,nan,nan,nan,0.0,nan,nan,nan,nan,nan,nan,nan,nan,nan,nan,nan,nan,nan,nan,nan,nan,nan,nan,666.8933454824146,921.9069174907636,nan,nan,nan,nan,nan,nan
1,164,1,1,nan,nan,nan,0,0.0,0.0,0.0,0.0,0.0,0.0,0.0,0.0,0.0,1,3,6,5,7,0,nan,nan,nan,nan,nan,nan,nan,nan,nan,nan,nan,nan,0.0,nan,nan,nan,nan,nan,nan,nan,nan,nan,nan,nan,nan,nan,nan,nan,nan,nan,nan,666.8933454824146,922.9236965470482,nan,nan,nan,nan,nan,nan
1,165,1,1,nan,nan,nan,0,0.0,0.0,0.0,0.0,0.0,0.0,0.0,0.0,0.0,0,1,7,4,6,8,nan,nan,nan,nan,nan,nan,nan,nan,nan,nan,nan,nan,0.0,nan,nan,nan,nan,nan,nan,nan,nan,nan,nan,nan,nan,nan,nan,nan,nan,nan,nan,666.8933454824146,923.9405012619682,nan,nan,nan,nan,nan,nan
1,166,1,1,nan,nan,nan,0,0.0,0.0,0.0,0.0,0.0,0.0,0.0,0.0,0.0,3,0,8,6,1,4,nan,nan,nan,nan,nan,nan,nan,nan,nan,nan,nan,nan,0.0,nan,nan,nan,nan,nan,nan,nan,nan,nan,nan,nan,nan,nan,nan,nan,nan,nan,nan,666.8933454824146,924.9573011305183,nan,nan,nan,nan,nan,nan
1,167,1,1,1.0,1.0,0.3452835239004344,0,0.0,0.0,0.0,0.40566319487362096,0.14480034802946334,0.2608628468441576,0.5504635429030843,0.14480034802946334,0.3452835239004344,0,6,2,8,7,3,nan,nan,nan,nan,nan,nan,nan,nan,nan,nan,nan,nan,0.0,nan,nan,nan,nan,nan,nan,nan,nan,nan,nan,nan,nan,nan,nan,nan,nan,nan,nan,666.8933454824146,925.9740958672483,nan,926.3193793911487,nan,nan,nan,nan
1,168,0,0,1.0,0.0,0.13642170513048768,0,0.0,0.0,0.0,0.405278610982072,0.1444183688665283,0.2608602421155437,0.5496969798486003,0.1444183688665283,0.24085261451546103,6,3,1,0,4,5,nan,nan,nan,nan,nan,nan,nan,nan,nan,nan,nan,nan,0.0,nan,nan,nan,nan,nan,nan,nan,nan,nan,nan,nan,nan,nan,nan,nan,nan,nan,nan,666.8933454824146,926.9909117009956,nan,927.1273334061261,nan,nan,nan,nan
1,169,1,1,1.0,1.0,0.5755999779794365,0,0.0,0.0,0.0,0.4035769849956696,0.14553095692033055,0.25804602807533905,0.5491079419160001,0.14553095692033055,0.35243506900345284,5,1,7,6,3,0,nan,nan,nan,nan,nan,nan,nan,nan,nan,nan,nan,nan,0.0,nan,nan,nan,nan,nan,nan,nan,nan,nan,nan,nan,nan,nan,nan,nan,nan,nan,nan,666.8933454824146,928.0076967442874,nan,928.5832967222668,nan,nan,nan,nan
1,170,0,0,0.0,1.0,0.5827960930764675,0,0.0,0.0,0.0,0.4046588906119197,0.1457086087201798,0.25895028189173985,0.5503674993320995,0.1457086087201798,0.4316059253954639,6,7,1,3,5,2,nan,nan,nan,nan,nan,nan,nan,nan,nan,nan,nan,nan,0.0,nan,nan,nan,nan,nan,nan,nan,nan,nan,nan,nan,nan,nan,nan,nan,nan,nan,nan,666.8933454824146,929.0244889152236,nan,929.6072850083001,nan,nan,nan,nan
1,171,1,1,1.0,1.0,0.46196003118529916,0,0.0,0.0,0.0,0.4057722481273231,0.14592942041190796,0.2598428277154151,0.5517016685392311,0.14592942041190796,0.5401187007470677,2,5,3,7,0,4,nan,nan,nan,nan,nan,nan,nan,nan,nan,nan,nan,nan,0.0,nan,nan,nan,nan,nan,nan,nan,nan,nan,nan,nan,nan,nan,nan,nan,nan,nan,nan,666.8933454824146,930.041285647545,nan,930.5032456787303,nan,nan,nan,nan
1,172,0,0,0.0,1.0,0.6851570610888302,0,0.0,0.0,0.0,0.406121240568677,0.14554248011782078,0.2605787604508562,0.5516637206864978,0.14554248011782078,0.576637728450199,1,0,2,8,3,5,nan,nan,nan,nan,nan,nan,nan,nan,nan,nan,nan,nan,0.0,nan,nan,nan,nan,nan,nan,nan,nan,nan,nan,nan,nan,nan,nan,nan,nan,nan,nan,666.8933454824146,931.0580755374394,nan,931.7432325985283,nan,nan,nan,nan
1,173,1,1,1.0,1.0,0.5323163757566363,1,0.0,1.0,1.0,0.40784368390522113,0.14672938773107994,0.26111429617414117,0.5545730716363011,0.14672938773107994,0.5598111560102552,6,1,7,3,8,4,1.0,1.0,1.0,1.0,1.0,1.0,0.0,1.0,1.0,1.0,0.0,0.0,3.0,7.0,1.0,7.0,3.0,2.0,0.0,6.0,1.0,2.0,3.0,4.0,5.0,6.069455155404285,1.2698185390327126,2.1336759431287646,3.174245143542066,4.58139113872312,5.285627983044833,666.8933454824146,932.0748885204084,932.8832861452829,932.6072048961651,940.0092000570148,941.0172089815605,933.9000894348137,940.0008703989442
1,174,1,1,nan,nan,nan,0,0.0,0.0,0.0,0.0,0.0,0.0,0.0,0.0,0.0,8,5,1,6,2,3,nan,nan,nan,nan,nan,nan,nan,nan,nan,nan,nan,nan,0.0,nan,nan,nan,nan,nan,nan,nan,nan,nan,nan,nan,nan,nan,nan,nan,nan,nan,nan,666.8933454824146,941.2343802165706,nan,nan,nan,nan,nan,nan
1,175,1,1,1.0,1.0,0.34782401705160737,0,0.0,0.0,0.0,0.4086073200515489,0.14660115629587553,0.2620061637556733,0.5552084763474244,0.14660115629587553,0.4400701964041218,1,0,6,2,7,4,nan,nan,nan,nan,nan,nan,nan,nan,nan,nan,nan,nan,0.0,nan,nan,nan,nan,nan,nan,nan,nan,nan,nan,nan,nan,nan,nan,nan,nan,nan,nan,666.8933454824146,942.2511381756049,nan,942.5989621926565,nan,nan,nan,nan
1,176,0,0,0.0,1.0,0.650601111119613,0,0.0,0.0,0.0,0.40823669015520775,0.14623009815102112,0.26200659200418663,0.5544667883062289,0.14623009815102112,0.4992125640856102,3,7,8,5,1,0,nan,nan,nan,nan,nan,nan,nan,nan,nan,nan,nan,nan,0.0,nan,nan,nan,nan,nan,nan,nan,nan,nan,nan,nan,nan,nan,nan,nan,nan,nan,nan,666.8933454824146,943.2763113218825,nan,943.9269124330021,nan,nan,nan,nan
1,177,1,1,1.0,1.0,0.5537744322791696,0,0.0,0.0,0.0,0.4097055654337799,0.1469948696838264,0.2627106957499535,0.5567004351176064,0.1469948696838264,0.5173998534834633,6,0,5,3,8,2,nan,nan,nan,nan,nan,nan,nan,nan,nan,nan,nan,nan,0.0,nan,nan,nan,nan,nan,nan,nan,nan,nan,nan,nan,nan,nan,nan,nan,nan,nan,nan,666.8933454824146,944.2931322874501,nan,944.8469067197293,nan,nan,nan,nan
1,178,1,1,1.0,1.0,0.43300707871094346,0,0.0,0.0,0.0,0.41057345017381236,0.14697485515475392,0.26359859501905847,0.5575483053285663,0.14697485515475392,0.5457942073699087,5,4,6,2,3,7,nan,nan,nan,nan,nan,nan,nan,nan,nan,nan,nan,nan,0.0,nan,nan,nan,nan,nan,nan,nan,nan,nan,nan,nan,nan,nan,nan,nan,nan,nan,nan,666.8933454824146,945.3099045013078,nan,945.7429115800187,nan,nan,nan,nan
1,179,1,1,1.0,1.0,0.3921755896881223,0,0.0,0.0,0.0,0.4107077832788251,0.14654437087436048,0.2641634124044646,0.5572521541531856,0.14654437087436048,0.4596523668927451,0,1,5,3,4,8,nan,nan,nan,nan,nan,nan,nan,nan,nan,nan,nan,nan,0.0,nan,nan,nan,nan,nan,nan,nan,nan,nan,nan,nan,nan,nan,nan,nan,nan,nan,nan,666.8933454824146,946.3266961020418,nan,946.7188716917299,nan,nan,nan,nan
1,180,1,1,1.0,1.0,0.3513580705039203,0,0.0,0.0,0.0,0.41059747260269,0.14611453001187177,0.26448294259081817,0.5567120026145618,0.14611453001187177,0.39218024630099535,6,4,2,0,5,1,nan,nan,nan,nan,nan,nan,nan,nan,nan,nan,nan,nan,0.0,nan,nan,nan,nan,nan,nan,nan,nan,nan,nan,nan,nan,nan,nan,nan,nan,nan,nan,666.8933454824146,947.343503667973,nan,947.6948617384769,nan,nan,nan,nan
1,181,1,1,1.0,1.0,0.3585402157623321,0,0.0,0.0,0.0,0.4102469435961884,0.1457524270722925,0.2644945165238959,0.5559993706684809,0.1457524270722925,0.3673579586514582,0,1,5,7,2,6,nan,nan,nan,nan,nan,nan,nan,nan,nan,nan,nan,nan,0.0,nan,nan,nan,nan,nan,nan,nan,nan,nan,nan,nan,nan,nan,nan,nan,nan,nan,nan,666.8933454824146,948.3602924176957,nan,948.7188326334581,nan,nan,nan,nan
1,182,1,1,1.0,1.0,0.43770147394388914,0,0.0,0.0,0.0,0.4099427863736363,0.14537689330717884,0.26456589306645745,0.5553196796808151,0.14537689330717884,0.3825332534033805,5,8,7,4,6,2,nan,nan,nan,nan,nan,nan,nan,nan,nan,nan,nan,nan,0.0,nan,nan,nan,nan,nan,nan,nan,nan,nan,nan,nan,nan,nan,nan,nan,nan,nan,nan,666.8933454824146,949.3771065408364,nan,949.8148080147803,nan,nan,nan,nan
1,183,1,1,1.0,1.0,0.4528857017867267,0,0.0,0.0,0.0,0.41010511787989506,0.14496664320747116,0.2651384746724239,0.5550717610873662,0.14496664320747116,0.416375797164316,2,3,5,6,1,8,nan,nan,nan,nan,nan,nan,nan,nan,nan,nan,nan,nan,0.0,nan,nan,nan,nan,nan,nan,nan,nan,nan,nan,nan,nan,nan,nan,nan,nan,nan,nan,666.8933454824146,950.393901562551,nan,950.8467872643378,nan,nan,nan,nan
1,184,1,1,1.0,1.0,0.3800706868059933,0,0.0,0.0,0.0,0.4103538422049348,0.14458120283581483,0.26577263936912,0.5549350450407496,0.14458120283581483,0.4235526208455364,8,1,0,2,6,3,nan,nan,nan,nan,nan,nan,nan,nan,nan,nan,nan,nan,0.0,nan,nan,nan,nan,nan,nan,nan,nan,nan,nan,nan,nan,nan,nan,nan,nan,nan,nan,666.8933454824146,951.4106937334873,nan,951.7907644202933,nan,nan,nan,nan
1,185,1,1,1.0,1.0,0.3069235347211361,0,0.0,0.0,0.0,0.4101787950639005,0.1441810104553413,0.26599778460855916,0.5543598055192418,0.1441810104553413,0.37995997443795204,6,3,8,5,2,1,nan,nan,nan,nan,nan,nan,nan,nan,nan,nan,nan,nan,0.0,nan,nan,nan,nan,nan,nan,nan,nan,nan,nan,nan,nan,nan,nan,nan,nan,nan,nan,666.8933454824146,952.4358047284186,nan,952.7427282631397,nan,nan,nan,nan
1,186,1,1,1.0,1.0,0.42608123482204974,0,0.0,0.0,0.0,0.4095853740274478,0.1439778221303537,0.2656075518970941,0.5535631961578016,0.1439778221303537,0.37102515211639303,1,5,6,7,4,3,nan,nan,nan,nan,nan,nan,nan,nan,nan,nan,nan,nan,0.0,nan,nan,nan,nan,nan,nan,nan,nan,nan,nan,nan,nan,nan,nan,nan,nan,nan,nan,666.8933454824146,953.4526108689606,nan,953.8786921037827,nan,nan,nan,nan
1,187,1,1,1.0,1.0,0.3289195678662509,0,0.0,0.0,0.0,0.4096796360891312,0.14357125193076117,0.26610838415837,0.5532508880198924,0.14357125193076117,0.3539747791364789,7,3,0,1,5,2,nan,nan,nan,nan,nan,nan,nan,nan,nan,nan,nan,nan,0.0,nan,nan,nan,nan,nan,nan,nan,nan,nan,nan,nan,nan,nan,nan,nan,nan,nan,nan,666.8933454824146,954.4777640583925,nan,954.8066836262587,nan,nan,nan,nan
1,188,1,1,1.0,1.0,0.21613605017773807,0,0.0,0.0,0.0,0.4092207720651376,0.14329143057464433,0.26592934149049324,0.552512202639782,0.14329143057464433,0.32371228428867954,4,2,5,7,6,0,nan,nan,nan,nan,nan,nan,nan,nan,nan,nan,nan,nan,0.0,nan,nan,nan,nan,nan,nan,nan,nan,nan,nan,nan,nan,nan,nan,nan,nan,nan,nan,666.8933454824146,955.4945379830897,nan,955.7106740332674,nan,nan,nan,nan
1,189,1,1,1.0,1.0,0.2712779468856752,0,0.0,0.0,0.0,0.40812989793018056,0.14361710464392682,0.26451279328625377,0.5517470025741074,0.14361710464392682,0.27211118830988806,7,3,0,4,5,1,nan,nan,nan,nan,nan,nan,nan,nan,nan,nan,nan,nan,0.0,nan,nan,nan,nan,nan,nan,nan,nan,nan,nan,nan,nan,nan,nan,nan,nan,nan,nan,666.8933454824146,956.5113578082528,nan,956.7826357551385,nan,nan,nan,nan
1,190,1,1,1.0,1.0,0.11048792232759297,1,1.0,0.0,1.0,0.40736106674453726,0.1435779300697213,0.26378313667481595,0.5509389968142586,0.1435779300697213,0.19930063979700208,0,5,4,6,7,2,1.0,1.0,1.0,1.0,1.0,1.0,1.0,1.0,0.0,1.0,0.0,0.0,3.0,0.0,5.0,5.0,6.0,2.0,1.0,6.0,1.0,2.0,3.0,4.0,5.0,8.671220129355788,1.1363341808319092,1.9856439768336713,3.519824027083814,6.111417336156592,7.119192481972277,666.8933454824146,957.5281402857509,958.3365507400595,957.6386282080784,968.0711266750004,969.0810012696311,959.3616871086415,968.0627941659186
1,191,1,1,1.0,1.0,0.39771529543213546,0,0.0,0.0,0.0,0.4057025575578504,0.14487605979466964,0.2608264977631808,0.55057861735252,0.14487605979466964,0.2598270548818012,4,6,5,2,0,3,nan,nan,nan,nan,nan,nan,nan,nan,nan,nan,nan,nan,0.0,nan,nan,nan,nan,nan,nan,nan,nan,nan,nan,nan,nan,nan,nan,nan,nan,nan,nan,666.8933454824146,969.3046504619997,nan,969.7023657574318,nan,nan,nan,nan
1,192,1,1,1.0,1.0,0.3968782527372241,0,0.0,0.0,0.0,0.4056581838793742,0.14447428559211958,0.26118389828725463,0.5501324694714937,0.14447428559211958,0.30169382349898416,7,5,1,8,3,6,nan,nan,nan,nan,nan,nan,nan,nan,nan,nan,nan,nan,0.0,nan,nan,nan,nan,nan,nan,nan,nan,nan,nan,nan,nan,nan,nan,nan,nan,nan,nan,666.8933454824146,970.3214320843108,nan,970.718310337048,nan,nan,nan,nan
1,193,1,1,1.0,1.0,0.46004760544747114,0,0.0,0.0,0.0,0.4056096759725115,0.14407610245054212,0.2615335735219694,0.5496857784230537,0.14407610245054212,0.4182137178722769,4,3,0,6,7,8,nan,nan,nan,nan,nan,nan,nan,nan,nan,nan,nan,nan,0.0,nan,nan,nan,nan,nan,nan,nan,nan,nan,nan,nan,nan,nan,nan,nan,nan,nan,nan,666.8933454824146,971.3382510540541,nan,971.7982986595016,nan,nan,nan,nan
1,194,1,1,1.0,1.0,0.40291231544688344,0,0.0,0.0,0.0,0.40590878547512116,0.14373608527172693,0.2621727002033942,0.5496448707468481,0.14373608527172693,0.4199460578771929,1,8,5,0,3,4,nan,nan,nan,nan,nan,nan,nan,nan,nan,nan,nan,nan,0.0,nan,nan,nan,nan,nan,nan,nan,nan,nan,nan,nan,nan,nan,nan,nan,nan,nan,nan,666.8933454824146,972.3633717426565,nan,972.7662840581033,nan,nan,nan,nan
1,195,1,1,1.0,1.0,0.3701037208084017,0,0.0,0.0,0.0,0.4058924113219614,0.14334299596067765,0.26254941536128373,0.5492354072826391,0.14334299596067765,0.4110212139009188,4,2,7,1,0,6,nan,nan,nan,nan,nan,nan,nan,nan,nan,nan,nan,nan,0.0,nan,nan,nan,nan,nan,nan,nan,nan,nan,nan,nan,nan,nan,nan,nan,nan,nan,nan,666.8933454824146,973.3801619177684,nan,973.7502656385768,nan,nan,nan,nan
1,196,1,1,1.0,1.0,0.39327121479436755,0,0.0,0.0,0.0,0.40569790756917035,0.14297715918954548,0.2627207483796249,0.5486750667587158,0.14297715918954548,0.3887624170165509,1,5,0,4,8,3,nan,nan,nan,nan,nan,nan,nan,nan,nan,nan,nan,nan,0.0,nan,nan,nan,nan,nan,nan,nan,nan,nan,nan,nan,nan,nan,nan,nan,nan,nan,nan,666.8933454824146,974.3969637816772,nan,974.7902349964716,nan,nan,nan,nan
1,197,1,1,1.0,1.0,0.320441659539938,0,0.0,0.0,0.0,0.40563073625687407,0.14259312195155766,0.2630376143053164,0.5482238582084318,0.14259312195155766,0.3612721983809024,6,8,3,7,1,0,nan,nan,nan,nan,nan,nan,nan,nan,nan,nan,nan,nan,0.0,nan,nan,nan,nan,nan,nan,nan,nan,nan,nan,nan,nan,nan,nan,nan,nan,nan,nan,666.8933454824146,975.4137647906318,nan,975.7342064501718,nan,nan,nan,nan
1,198,1,1,1.0,1.0,0.30363067262806,0,0.0,0.0,0.0,0.40517273046807334,0.14234566951013336,0.26282706095793995,0.5475183999782067,0.14234566951013336,0.3391145156541218,2,5,0,1,6,3,nan,nan,nan,nan,nan,nan,nan,nan,nan,nan,nan,nan,0.0,nan,nan,nan,nan,nan,nan,nan,nan,nan,nan,nan,nan,nan,nan,nan,nan,nan,nan,666.8933454824146,976.43055724632,nan,976.734187918948,nan,nan,nan,nan
1,199,1,1,1.0,1.0,0.31879893504083157,0,0.0,0.0,0.0,0.4046297248111749,0.14215758226339556,0.2624721425477793,0.5467873070745705,0.14215758226339556,0.3142904224029432,7,0,6,8,2,5,nan,nan,nan,nan,nan,nan,nan,nan,nan,nan,nan,nan,0.0,nan,nan,nan,nan,nan,nan,nan,nan,nan,nan,nan,nan,nan,nan,nan,nan,nan,nan,666.8933454824146,977.4473650974687,nan,977.7661640325096,nan,nan,nan,nan
1,200,1,1,1.0,1.0,0.33399029029533267,0,0.0,0.0,0.0,0.4041731780570773,0.14191639097535416,0.2622567870817232,0.5460895690324314,0.14191639097535416,0.3188066326547414,6,3,0,1,5,7,nan,nan,nan,nan,nan,nan,nan,nan,nan,nan,nan,nan,0.0,nan,nan,nan,nan,nan,nan,nan,nan,nan,nan,nan,nan,nan,nan,nan,nan,nan,nan,666.8933454824146,978.4641487153713,nan,978.7981390056666,nan,nan,nan,nan
1,201,1,1,1.0,1.0,0.3011873974464834,0,0.0,0.0,0.0,0.4038018400265919,0.14163200019029015,0.26216983983630177,0.5454338402168821,0.14163200019029015,0.31799220759421587,8,0,7,5,4,2,nan,nan,nan,nan,nan,nan,nan,nan,nan,nan,nan,nan,0.0,nan,nan,nan,nan,nan,nan,nan,nan,nan,nan,nan,nan,nan,nan,nan,nan,nan,nan,666.8933454824146,979.4809485839214,nan,979.7821359813679,nan,nan,nan,nan
1,202,1,1,1.0,1.0,0.30033980612643063,0,0.0,0.0,0.0,0.4032617640130124,0.1414537890238826,0.2618079749891298,0.544715553036895,0.1414537890238826,0.3118391646227489,3,1,2,4,5,0,nan,nan,nan,nan,nan,nan,nan,nan,nan,nan,nan,nan,0.0,nan,nan,nan,nan,nan,nan,nan,nan,nan,nan,nan,nan,nan,nan,nan,nan,nan,nan,666.8933454824146,980.4977470268495,nan,980.798086832976,nan,nan,nan,nan
1,203,1,1,1.0,1.0,0.2675212330650538,0,0.0,0.0,0.0,0.40272290559475804,0.14127839307092557,0.2614445125238325,0.5440012986656836,0.14127839307092557,0.28968281221265596,8,7,3,6,0,5,nan,nan,nan,nan,nan,nan,nan,nan,nan,nan,nan,nan,0.0,nan,nan,nan,nan,nan,nan,nan,nan,nan,nan,nan,nan,nan,nan,nan,nan,nan,nan,666.8933454824146,981.5145454697777,nan,981.7820667028427,nan,nan,nan,nan
1,204,0,0,1.0,0.0,0.2507036889437586,0,0.0,0.0,0.0,0.40201873021699913,0.1412456654417569,0.2607730647752422,0.5432643956587561,0.1412456654417569,0.27285490937841433,6,2,5,8,7,3,nan,nan,nan,nan,nan,nan,nan,nan,nan,nan,nan,nan,0.0,nan,nan,nan,nan,nan,nan,nan,nan,nan,nan,nan,nan,nan,nan,nan,nan,nan,nan,666.8933454824146,982.531343057286,nan,982.7820467462298,nan,nan,nan,nan
1,205,1,1,1.0,1.0,0.29755270504392684,0,0.0,0.0,0.0,0.4012347144591067,0.1412975126290832,0.2599372018300235,0.5425322270881898,0.1412975126290832,0.2719258756842464,1,8,7,6,5,4,nan,nan,nan,nan,nan,nan,nan,nan,nan,nan,nan,nan,0.0,nan,nan,nan,nan,nan,nan,nan,nan,nan,nan,nan,nan,nan,nan,nan,nan,nan,nan,666.8933454824146,983.5564663114492,nan,983.8540190164931,nan,nan,nan,nan
1,206,1,1,1.0,1.0,0.29673419357277453,0,0.0,0.0,0.0,0.4007002711116058,0.1411283150227145,0.2595719560888913,0.5418285861343203,0.1411283150227145,0.28166352918681997,8,6,4,3,1,2,nan,nan,nan,nan,nan,nan,nan,nan,nan,nan,nan,nan,0.0,nan,nan,nan,nan,nan,nan,nan,nan,nan,nan,nan,nan,nan,nan,nan,nan,nan,nan,666.8933454824146,984.5732818602119,nan,984.8700160537846,nan,nan,nan,nan
1,207,1,1,1.0,1.0,0.33591554523445666,0,0.0,0.0,0.0,0.4001671117396118,0.14096172543279906,0.2592053863068127,0.5411288371724108,0.14096172543279906,0.31006748128371936,6,0,2,5,4,1,nan,nan,nan,nan,nan,nan,nan,nan,nan,nan,nan,nan,0.0,nan,nan,nan,nan,nan,nan,nan,nan,nan,nan,nan,nan,nan,nan,nan,nan,nan,nan,666.8933454824146,985.5900760267396,nan,985.925991571974,nan,nan,nan,nan
1,208,1,1,1.0,1.0,0.3111121691763401,0,0.0,0.0,0.0,0.39983929762478954,0.1406761690296695,0.25916312859512003,0.540515466654459,0.1406761690296695,0.31458730266119045,4,5,7,3,0,8,nan,nan,nan,nan,nan,nan,nan,nan,nan,nan,nan,nan,0.0,nan,nan,nan,nan,nan,nan,nan,nan,nan,nan,nan,nan,nan,nan,nan,nan,nan,nan,666.8933454824146,986.6068428240251,nan,986.9179549932014,nan,nan,nan,nan
1,209,1,1,1.0,1.0,0.2862848446238786,0,0.0,0.0,0.0,0.3993889061098228,0.14046027149018994,0.2589286346196329,0.5398491776000127,0.14046027149018994,0.3111041863448918,0,8,1,6,7,3,nan,nan,nan,nan,nan,nan,nan,nan,nan,nan,nan,nan,0.0,nan,nan,nan,nan,nan,nan,nan,nan,nan,nan,nan,nan,nan,nan,nan,nan,nan,nan,666.8933454824146,987.6236489645671,nan,987.909933809191,nan,nan,nan,nan
1,210,1,1,1.0,1.0,0.16547387116588652,1,1.0,0.0,1.0,0.3988176734760554,0.14033434516679713,0.25848332830925824,0.5391520186428526,0.14033434516679713,0.25429029498870176,4,3,5,1,0,2,1.0,1.0,1.0,1.0,1.0,1.0,0.0,0.0,1.0,1.0,0.0,0.0,2.0,6.0,8.0,5.0,1.0,2.0,0.0,6.0,1.0,2.0,3.0,4.0,5.0,6.950650119222701,1.3454178043175489,2.56743710138835,3.6147499692160636,4.991334783611819,5.926199407083914,666.8933454824146,988.6404391396791,989.4488675550092,988.805913010845,997.4582195682451,998.4551299798768,990.4656668531243,997.4498881995678
1,211,1,1,nan,nan,nan,0,0.0,0.0,0.0,0.0,0.0,0.0,0.0,0.0,0.0,1,2,7,0,5,4,nan,nan,nan,nan,nan,nan,nan,nan,nan,nan,nan,nan,0.0,nan,nan,nan,nan,nan,nan,nan,nan,nan,nan,nan,nan,nan,nan,nan,nan,nan,nan,666.8933454824146,998.675065793097,nan,nan,nan,nan,nan,nan
1,212,1,1,1.0,1.0,0.6734398889821023,0,0.0,0.0,0.0,0.3976450915548988,0.14095036271528533,0.2566947288396135,0.5385954542701841,0.14095036271528533,0.4194568800739944,0,4,8,6,1,5,nan,nan,nan,nan,nan,nan,nan,nan,nan,nan,nan,nan,0.0,nan,nan,nan,nan,nan,nan,nan,nan,nan,nan,nan,nan,nan,nan,nan,nan,nan,nan,666.8933454824146,999.7002010215074,nan,1000.3736409104895,nan,nan,nan,nan
1,213,1,1,1.0,1.0,0.5686168298125267,1,0.0,1.0,1.0,0.3990240655420348,0.14193689445667396,0.25708717108536083,0.5409609599987087,0.14193689445667396,0.6210283593973145,2,5,0,4,7,6,1.0,1.0,1.0,1.0,1.0,1.0,0.0,1.0,1.0,0.0,0.0,0.0,2.0,7.0,5.0,0.0,6.0,2.0,1.0,6.0,1.0,2.0,3.0,4.0,5.0,7.153772664722055,1.2509585649240762,2.8337036257144064,4.090891544474289,5.338038942310959,6.274231829447672,666.8933454824146,1000.7170071620494,1001.5254073527176,1001.2856239918619,1009.7347883319017,1010.7320636666846,1002.5422132082749,1009.7264569632243
1,214,0,0,nan,nan,nan,0,0.0,0.0,0.0,0.0,0.0,0.0,0.0,0.0,0.0,7,1,6,2,8,3,nan,nan,nan,nan,nan,nan,nan,nan,nan,nan,nan,nan,0.0,nan,nan,nan,nan,nan,nan,nan,nan,nan,nan,nan,nan,nan,nan,nan,nan,nan,nan,666.8933454824146,1010.9516009155195,nan,nan,nan,nan,nan,nan
1,215,1,1,0.0,0.0,0.036921108374372125,0,0.0,0.0,0.0,0.3998678106379079,0.1420853050165483,0.25778250562135957,0.5419531156544561,0.1420853050165483,0.3027689690934494,6,7,8,4,5,0,nan,nan,nan,nan,nan,nan,nan,nan,nan,nan,nan,nan,0.0,nan,nan,nan,nan,nan,nan,nan,nan,nan,nan,nan,nan,nan,nan,nan,nan,nan,nan,666.8933454824146,1011.9684415527154,nan,1012.0053626610897,nan,nan,nan,nan
1,216,1,1,1.0,1.0,0.5880897608585656,0,0.0,0.0,0.0,0.3980710447851181,0.14400414585399007,0.25406689893112805,0.5420751906391081,0.14400414585399007,0.31250543461646885,0,6,3,5,7,1,nan,nan,nan,nan,nan,nan,nan,nan,nan,nan,nan,nan,0.0,nan,nan,nan,nan,nan,nan,nan,nan,nan,nan,nan,nan,nan,nan,nan,nan,nan,nan,666.8933454824146,1012.985232012812,nan,1013.5733217736706,nan,nan,nan,nan
1,217,1,1,1.0,1.0,0.3552824205253273,0,0.0,0.0,0.0,0.39900709757365727,0.14426375744528105,0.2547433401283762,0.5432708550189383,0.14426375744528105,0.3267644299194217,8,7,4,1,0,5,nan,nan,nan,nan,nan,nan,nan,nan,nan,nan,nan,nan,0.0,nan,nan,nan,nan,nan,nan,nan,nan,nan,nan,nan,nan,nan,nan,nan,nan,nan,nan,666.8933454824146,1014.0020213327371,nan,1014.3573037532624,nan,nan,nan,nan
1,218,1,1,1.0,1.0,0.2904743344988674,0,0.0,0.0,0.0,0.3987927609214596,0.14394213354550547,0.2548506273759541,0.5427348944669651,0.14394213354550547,0.4112821719609201,0,1,5,4,6,8,nan,nan,nan,nan,nan,nan,nan,nan,nan,nan,nan,nan,0.0,nan,nan,nan,nan,nan,nan,nan,nan,nan,nan,nan,nan,nan,nan,nan,nan,nan,nan,666.8933454824146,1015.018816069467,nan,1015.3092904039659,nan,nan,nan,nan
1,219,1,1,1.0,1.0,0.3936441205441952,0,0.0,0.0,0.0,0.3982643783535445,0.1437888112798244,0.2544755670737201,0.5420531896333689,0.1437888112798244,0.34646695852279663,6,0,4,3,8,2,nan,nan,nan,nan,nan,nan,nan,nan,nan,nan,nan,nan,0.0,nan,nan,nan,nan,nan,nan,nan,nan,nan,nan,nan,nan,nan,nan,nan,nan,nan,nan,666.8933454824146,1016.0356145123951,nan,1016.4292586329393,nan,nan,nan,nan
1,220,1,1,1.0,1.0,0.3448433354496956,0,0.0,0.0,0.0,0.3982419499175768,0.14343974419538266,0.25480220572219414,0.5416816941129594,0.14343974419538266,0.34298726349758607,1,3,0,7,6,8,nan,nan,nan,nan,nan,nan,nan,nan,nan,nan,nan,nan,0.0,nan,nan,nan,nan,nan,nan,nan,nan,nan,nan,nan,nan,nan,nan,nan,nan,nan,nan,666.8933454824146,1017.0524075382855,nan,1017.3972508737352,nan,nan,nan,nan
1,221,1,1,1.0,1.0,0.30398704297840595,0,0.0,0.0,0.0,0.3979839855964759,0.14314074424673062,0.2548432413497453,0.5411247298432065,0.14314074424673062,0.34749149965743226,8,5,4,1,3,0,nan,nan,nan,nan,nan,nan,nan,nan,nan,nan,nan,nan,0.0,nan,nan,nan,nan,nan,nan,nan,nan,nan,nan,nan,nan,nan,nan,nan,nan,nan,nan,666.8933454824146,1018.0692424736917,nan,1018.3732295166701,nan,nan,nan,nan
1,222,1,1,1.0,1.0,0.3348498553968966,0,0.0,0.0,0.0,0.3975320772185044,0.14294418606443607,0.2545878911540683,0.5404762632829405,0.14294418606443607,0.3278934112749994,7,1,6,2,4,3,nan,nan,nan,nan,nan,nan,nan,nan,nan,nan,nan,nan,0.0,nan,nan,nan,nan,nan,nan,nan,nan,nan,nan,nan,nan,nan,nan,nan,nan,nan,nan,666.8933454824146,1019.0943449158221,nan,1019.429194771219,nan,nan,nan,nan
1,223,1,1,1.0,1.0,0.3740314922761172,0,0.0,0.0,0.0,0.39723216228155894,0.14266738930833495,0.254564772973224,0.5398995515898939,0.14266738930833495,0.3376227968838066,1,2,0,6,5,7,nan,nan,nan,nan,nan,nan,nan,nan,nan,nan,nan,nan,0.0,nan,nan,nan,nan,nan,nan,nan,nan,nan,nan,nan,nan,nan,nan,nan,nan,nan,nan,666.8933454824146,1020.1111493457574,nan,1020.4851808380336,nan,nan,nan,nan
1,224,1,1,1.0,1.0,0.5092030505184084,0,0.0,0.0,0.0,0.39712168290058064,0.14233626111719597,0.2547854217833847,0.5394579440177766,0.14233626111719597,0.40602813273047406,4,3,7,0,1,8,nan,nan,nan,nan,nan,nan,nan,nan,nan,nan,nan,nan,0.0,nan,nan,nan,nan,nan,nan,nan,nan,nan,nan,nan,nan,nan,nan,nan,nan,nan,nan,666.8933454824146,1021.1279346742667,nan,1021.6371377247851,nan,nan,nan,nan
1,225,1,1,1.0,1.0,0.4043951011262834,0,0.0,0.0,0.0,0.3976528742163049,0.14220706240870473,0.2554458118076002,0.5398599366250096,0.14220706240870473,0.4292098813069363,7,8,4,5,3,6,nan,nan,nan,nan,nan,nan,nan,nan,nan,nan,nan,nan,0.0,nan,nan,nan,nan,nan,nan,nan,nan,nan,nan,nan,nan,nan,nan,nan,nan,nan,nan,666.8933454824146,1022.1447316918056,nan,1022.5491267929319,nan,nan,nan,nan
1,226,1,1,1.0,1.0,0.41959130321629345,0,0.0,0.0,0.0,0.3976846771734275,0.141872024074377,0.2558126530990505,0.5395567012478044,0.141872024074377,0.44439648495366174,0,2,8,6,4,1,nan,nan,nan,nan,nan,nan,nan,nan,nan,nan,nan,nan,0.0,nan,nan,nan,nan,nan,nan,nan,nan,nan,nan,nan,nan,nan,nan,nan,nan,nan,nan,666.8933454824146,1023.1615155946929,nan,1023.5811068979092,nan,nan,nan,nan
1,227,1,1,1.0,1.0,0.3787418529391289,0,0.0,0.0,0.0,0.3977875251830184,0.141546520907942,0.2562410042750764,0.5393340460909604,0.141546520907942,0.40090941909390193,3,5,7,2,0,6,nan,nan,nan,nan,nan,nan,nan,nan,nan,nan,nan,nan,0.0,nan,nan,nan,nan,nan,nan,nan,nan,nan,nan,nan,nan,nan,nan,nan,nan,nan,nan,666.8933454824146,1024.178330003051,nan,1024.5570718559902,nan,nan,nan,nan
1,228,0,0,1.0,0.0,0.38592741964384913,0,0.0,0.0,0.0,0.397698526714589,0.14122139090603145,0.2564771358085576,0.5389199176206204,0.14122139090603145,0.3947535252664238,1,8,0,7,2,4,nan,nan,nan,nan,nan,nan,nan,nan,nan,nan,nan,nan,0.0,nan,nan,nan,nan,nan,nan,nan,nan,nan,nan,nan,nan,nan,nan,nan,nan,nan,nan,666.8933454824146,1025.1951307267882,nan,1025.581058146432,nan,nan,nan,nan
1,229,1,1,1.0,1.0,0.6490581701509655,0,0.0,0.0,0.0,0.39764377737937623,0.14089486269671767,0.2567489146826586,0.5385386400760939,0.14089486269671767,0.4712424809113145,6,3,8,2,5,7,nan,nan,nan,nan,nan,nan,nan,nan,nan,nan,nan,nan,0.0,nan,nan,nan,nan,nan,nan,nan,nan,nan,nan,nan,nan,nan,nan,nan,nan,nan,nan,666.8933454824146,1026.21193173551,nan,1026.860989905661,nan,nan,nan,nan
1,230,1,1,1.0,1.0,0.6322674248367548,1,0.0,1.0,1.0,0.3988077329014669,0.14160062943863483,0.2572071034628321,0.5404083623401017,0.14160062943863483,0.5557510048771898,5,6,4,8,1,0,1.0,1.0,1.0,1.0,1.0,1.0,0.0,1.0,1.0,1.0,0.0,0.0,3.0,8.0,6.0,4.0,8.0,5.0,2.0,6.0,1.0,2.0,3.0,4.0,5.0,8.87297535315156,1.6828118588309735,2.7787119748536497,3.8810621090233326,4.832913909107447,6.105363316601142,666.8933454824146,1027.2287281828467,1028.0371346457396,1027.8609956076834,1037.9717492396012,1038.983028788818,1029.0622667379212,1037.963390216697
1,231,1,1,1.0,1.0,0.7354457636829466,0,0.0,0.0,0.0,0.3998835840163761,0.14215607252656878,0.2577275114898073,0.5420396565429448,0.14215607252656878,0.6722571195568889,7,4,3,6,0,1,nan,nan,nan,nan,nan,nan,nan,nan,nan,nan,nan,nan,0.0,nan,nan,nan,nan,nan,nan,nan,nan,nan,nan,nan,nan,nan,nan,nan,nan,nan,nan,666.8933454824146,1039.2052807244472,nan,1039.9407264881302,nan,nan,nan,nan
1,232,1,1,1.0,1.0,0.5182987621519715,0,0.0,0.0,0.0,0.4014228600698925,0.14363078905518073,0.25779207101471174,0.5450536491250733,0.14363078905518073,0.6286706502238909,1,5,6,7,3,0,nan,nan,nan,nan,nan,nan,nan,nan,nan,nan,nan,nan,0.0,nan,nan,nan,nan,nan,nan,nan,nan,nan,nan,nan,nan,nan,nan,nan,nan,nan,nan,666.8933454824146,1040.2304216546472,nan,1040.7487204167992,nan,nan,nan,nan
1,233,0,0,0.0,1.0,0.6855040232185274,0,0.0,0.0,0.0,0.4019565399880755,0.14351896409862602,0.2584375758894495,0.5454755040867015,0.14351896409862602,0.6464161830178151,8,7,2,1,0,6,nan,nan,nan,nan,nan,nan,nan,nan,nan,nan,nan,nan,0.0,nan,nan,nan,nan,nan,nan,nan,nan,nan,nan,nan,nan,nan,nan,nan,nan,nan,nan,666.8933454824146,1041.2471773331054,nan,1041.9326813563239,nan,nan,nan,nan
1,234,1,1,1.0,1.0,0.45233831694349647,1,0.0,1.0,1.0,0.40324539218457756,0.14445711071112238,0.2587882814734552,0.5477025028956999,0.14445711071112238,0.5520470341046652,5,1,0,4,6,3,1.0,1.0,1.0,1.0,1.0,1.0,0.0,1.0,1.0,0.0,0.0,0.0,2.0,8.0,1.0,0.0,6.0,3.0,1.0,6.0,1.0,2.0,3.0,4.0,5.0,6.029152804985642,1.2306158051360399,2.102966512320563,2.943254721816629,4.030264110304415,5.197979123564437,666.8933454824146,1042.2723102807067,1043.080727291992,1042.7246485976502,1050.1649504345842,1051.1663565295748,1044.097524879733,1050.1566296147648
1,235,1,1,1.0,1.0,0.43828078964725137,0,0.0,0.0,0.0,0.40346753211561337,0.14416757019598994,0.25929996191962346,0.5476351023116033,0.14416757019598994,0.5253743766030917,3,5,8,7,1,6,nan,nan,nan,nan,nan,nan,nan,nan,nan,nan,nan,nan,0.0,nan,nan,nan,nan,nan,nan,nan,nan,nan,nan,nan,nan,nan,nan,nan,nan,nan,nan,666.8933454824146,1051.3901553975884,nan,1051.8284361872356,nan,nan,nan,nan
1,236,1,1,1.0,1.0,0.3334828189108521,0,0.0,0.0,0.0,0.4036243485909811,0.14386139189128436,0.25976295669969673,0.5474857404822655,0.14386139189128436,0.40803397516719997,2,8,6,3,7,1,nan,nan,nan,nan,nan,nan,nan,nan,nan,nan,nan,nan,0.0,nan,nan,nan,nan,nan,nan,nan,nan,nan,nan,nan,nan,nan,nan,nan,nan,nan,nan,666.8933454824146,1052.4069487086963,nan,1052.7404315276071,nan,nan,nan,nan
1,237,1,1,1.0,1.0,0.3806554190814495,0,0.0,0.0,0.0,0.4033098125834469,0.14361495589611264,0.2596948566873343,0.5469247684795595,0.14361495589611264,0.384139675879851,7,6,8,2,4,5,nan,nan,nan,nan,nan,nan,nan,nan,nan,nan,nan,nan,0.0,nan,nan,nan,nan,nan,nan,nan,nan,nan,nan,nan,nan,nan,nan,nan,nan,nan,nan,666.8933454824146,1053.4237440156285,nan,1053.80439943471,nan,nan,nan,nan
1,238,1,1,1.0,1.0,0.33985557593405247,0,0.0,0.0,0.0,0.40320867689817014,0.14330198694536686,0.2599066899528033,0.546510663843537,0.14330198694536686,0.35133127130878467,8,7,3,0,5,1,nan,nan,nan,nan,nan,nan,nan,nan,nan,nan,nan,nan,0.0,nan,nan,nan,nan,nan,nan,nan,nan,nan,nan,nan,nan,nan,nan,nan,nan,nan,nan,666.8933454824146,1054.4405256377067,nan,1054.7803812136408,nan,nan,nan,nan
1,239,1,1,1.0,1.0,0.3310195868834853,0,0.0,0.0,0.0,0.40292710756055183,0.14304527172594894,0.2598818358346029,0.5459723792865008,0.14304527172594894,0.3505101939663291,7,2,8,5,4,0,nan,nan,nan,nan,nan,nan,nan,nan,nan,nan,nan,nan,0.0,nan,nan,nan,nan,nan,nan,nan,nan,nan,nan,nan,nan,nan,nan,nan,nan,nan,nan,666.8933454824146,1055.457329212455,nan,1055.7883487993386,nan,nan,nan,nan
1,240,1,1,1.0,1.0,0.3302033564541489,0,0.0,0.0,0.0,0.40260893269029935,0.14280822137833032,0.259800711311969,0.5454171540686297,0.14280822137833032,0.3336928397572289,0,4,2,3,6,5,nan,nan,nan,nan,nan,nan,nan,nan,nan,nan,nan,nan,0.0,nan,nan,nan,nan,nan,nan,nan,nan,nan,nan,nan,nan,nan,nan,nan,nan,nan,nan,666.8933454824146,1056.4741213831585,nan,1056.8043247396126,nan,nan,nan,nan
1,241,1,1,1.0,1.0,0.32139587705023587,0,0.0,0.0,0.0,0.40228996539410483,0.14257397772977853,0.2597159876643263,0.5448639431238833,0.14257397772977853,0.3275396067959567,6,5,8,7,4,0,nan,nan,nan,nan,nan,nan,nan,nan,nan,nan,nan,nan,0.0,nan,nan,nan,nan,nan,nan,nan,nan,nan,nan,nan,nan,nan,nan,nan,nan,nan,nan,666.8933454824146,1057.4909198260866,nan,1057.8123157031368,nan,nan,nan,nan
1,242,1,1,1.0,1.0,0.3205693829804659,0,0.0,0.0,0.0,0.4019351667610177,0.1423613689152548,0.2595737978457629,0.5442965356762726,0.1423613689152548,0.32405620549495023,5,0,2,8,3,7,nan,nan,nan,nan,nan,nan,nan,nan,nan,nan,nan,nan,0.0,nan,nan,nan,nan,nan,nan,nan,nan,nan,nan,nan,nan,nan,nan,nan,nan,nan,nan,666.8933454824146,1058.5077171286102,nan,1058.8282865115907,nan,nan,nan,nan
1,243,1,1,1.0,1.0,0.37575432914309204,0,0.0,0.0,0.0,0.4015798576615393,0.14215147549589,0.25942838216564934,0.5437313331574293,0.14215147549589,0.33923986305793125,8,6,5,4,1,2,nan,nan,nan,nan,nan,nan,nan,nan,nan,nan,nan,nan,0.0,nan,nan,nan,nan,nan,nan,nan,nan,nan,nan,nan,nan,nan,nan,nan,nan,nan,nan,666.8933454824146,1059.5245155715384,nan,1059.9002699006815,nan,nan,nan,nan
1,244,1,1,1.0,1.0,0.4309361393097788,0,0.0,0.0,0.0,0.40146757275493733,0.1418522911007451,0.25961528165419223,0.5433198638556824,0.1418522911007451,0.3757532838111122,7,5,2,0,6,8,nan,nan,nan,nan,nan,nan,nan,nan,nan,nan,nan,nan,0.0,nan,nan,nan,nan,nan,nan,nan,nan,nan,nan,nan,nan,nan,nan,nan,nan,nan,nan,666.8933454824146,1060.5413091678638,nan,1060.9722453071736,nan,nan,nan,nan
1,245,1,1,1.0,1.0,0.49411147902719676,0,0.0,0.0,0.0,0.4015951423071228,0.14155813989120788,0.2600370024159149,0.5431532821983307,0.14155813989120788,0.43360064916002256,4,2,7,1,0,3,nan,nan,nan,nan,nan,nan,nan,nan,nan,nan,nan,nan,0.0,nan,nan,nan,nan,nan,nan,nan,nan,nan,nan,nan,nan,nan,nan,nan,nan,nan,nan,666.8933454824146,1061.5581070405897,nan,1062.0522185196169,nan,nan,nan,nan
1,246,1,1,1.0,1.0,0.4932536242995411,0,0.0,0.0,0.0,0.4019939196205714,0.14138269917278803,0.2606112204477834,0.5433766187933594,0.14138269917278803,0.4727670808788389,2,8,0,6,5,1,nan,nan,nan,nan,nan,nan,nan,nan,nan,nan,nan,nan,0.0,nan,nan,nan,nan,nan,nan,nan,nan,nan,nan,nan,nan,nan,nan,nan,nan,nan,nan,666.8933454824146,1062.5749399801716,nan,1063.0681936044712,nan,nan,nan,nan
1,247,1,1,1.0,1.0,0.42842786223627627,0,0.0,0.0,0.0,0.40238559217284164,0.14120505709654102,0.2611805350763006,0.5435906492693827,0.14120505709654102,0.47193098852100474,0,3,8,7,1,6,nan,nan,nan,nan,nan,nan,nan,nan,nan,nan,nan,nan,0.0,nan,nan,nan,nan,nan,nan,nan,nan,nan,nan,nan,nan,nan,nan,nan,nan,nan,nan,666.8933454824146,1063.59172758949,nan,1064.0201554517262,nan,nan,nan,nan
1,248,1,1,1.0,1.0,0.36364172864705324,0,0.0,0.0,0.0,0.4024968839252495,0.14091325422191123,0.26158362970333826,0.5434101381471608,0.14091325422191123,0.4284410717276235,5,7,6,0,3,2,nan,nan,nan,nan,nan,nan,nan,nan,nan,nan,nan,nan,0.0,nan,nan,nan,nan,nan,nan,nan,nan,nan,nan,nan,nan,nan,nan,nan,nan,nan,nan,666.8933454824146,1064.608506930992,nan,1064.972148659639,nan,nan,nan,nan
1,249,1,1,1.0,1.0,0.402811391511932,0,0.0,0.0,0.0,0.4023315428389593,0.14063586418203922,0.26169567865692006,0.5429674070209984,0.14063586418203922,0.3982936607984205,3,2,7,1,8,5,nan,nan,nan,nan,nan,nan,nan,nan,nan,nan,nan,nan,0.0,nan,nan,nan,nan,nan,nan,nan,nan,nan,nan,nan,nan,nan,nan,nan,nan,nan,nan,666.8933454824146,1065.625309365103,nan,1066.028120756615,nan,nan,nan,nan
1,250,0,0,0.0,1.0,0.6579856751486659,0,0.0,0.0,0.0,0.4023335760960482,0.1403375940007793,0.26199598209526886,0.5426711700968275,0.1403375940007793,0.4748129317692171,5,7,8,6,2,3,nan,nan,nan,nan,nan,nan,nan,nan,nan,nan,nan,nan,0.0,nan,nan,nan,nan,nan,nan,nan,nan,nan,nan,nan,nan,nan,nan,nan,nan,nan,nan,666.8933454824146,1066.6421006806195,nan,1067.3000863557681,nan,nan,nan,nan
1,251,1,1,1.0,1.0,0.5131675994489342,0,0.0,0.0,0.0,0.4034122769359326,0.14101825796801318,0.2623940189679195,0.5444305349039458,0.14101825796801318,0.5246548887031773,2,4,0,8,6,1,nan,nan,nan,nan,nan,nan,nan,nan,nan,nan,nan,nan,0.0,nan,nan,nan,nan,nan,nan,nan,nan,nan,nan,nan,nan,nan,nan,nan,nan,nan,nan,666.8933454824146,1067.6588991235476,nan,1068.1720667229965,nan,nan,nan,nan
1,252,1,1,1.0,1.0,0.46438591554760933,1,0.0,1.0,1.0,0.40387343375321416,0.14090065855664444,0.2629727751965697,0.5447740923098586,0.14090065855664444,0.5451797300484031,3,2,6,4,0,5,1.0,1.0,1.0,1.0,1.0,1.0,0.0,1.0,1.0,1.0,0.0,0.0,3.0,8.0,2.0,6.0,4.0,1.0,0.0,6.0,1.0,2.0,3.0,4.0,5.0,5.976820817450061,1.2899172566831112,2.170999322552234,3.162504308624193,4.1776728560216725,5.201392581453547,666.8933454824146,1068.6756867328659,1069.484150215052,1069.1400726484135,1076.526663201861,1077.529768470442,1070.5092372619547,1076.5183304077946
1,253,1,1,nan,nan,nan,0,0.0,0.0,0.0,0.0,0.0,0.0,0.0,0.0,0.0,1,8,0,3,4,7,nan,nan,nan,nan,nan,nan,nan,nan,nan,nan,nan,nan,0.0,nan,nan,nan,nan,nan,nan,nan,nan,nan,nan,nan,nan,nan,nan,nan,nan,nan,nan,666.8933454824146,1077.7518673094455,nan,nan,nan,nan,nan,nan
1,254,1,1,1.0,1.0,0.5068213560152799,0,0.0,0.0,0.0,0.4041266240536091,0.14065982270247246,0.26346680135113665,0.5447864467560816,0.14065982270247246,0.4856036357814446,0,5,4,7,1,3,nan,nan,nan,nan,nan,nan,nan,nan,nan,nan,nan,nan,0.0,nan,nan,nan,nan,nan,nan,nan,nan,nan,nan,nan,nan,nan,nan,nan,nan,nan,nan,666.8933454824146,1078.77698258101,nan,1079.2838039370254,nan,nan,nan,nan
1,255,1,1,1.0,1.0,0.4100166296120733,0,0.0,0.0,0.0,0.40455451877011606,0.14052226474184626,0.2640322540282698,0.5450767835119623,0.14052226474184626,0.4584189928136766,6,7,5,3,2,8,nan,nan,nan,nan,nan,nan,nan,nan,nan,nan,nan,nan,0.0,nan,nan,nan,nan,nan,nan,nan,nan,nan,nan,nan,nan,nan,nan,nan,nan,nan,nan,666.8933454824146,1079.79377731774,nan,1080.203793947352,nan,nan,nan,nan
1,256,1,1,1.0,1.0,0.3368700477294624,0,0.0,0.0,0.0,0.40457718313045615,0.14023086128425397,0.2643463218462022,0.5448080444147101,0.14023086128425397,0.4179026777856052,8,6,7,0,4,2,nan,nan,nan,nan,nan,nan,nan,nan,nan,nan,nan,nan,0.0,nan,nan,nan,nan,nan,nan,nan,nan,nan,nan,nan,nan,nan,nan,nan,nan,nan,nan,666.8933454824146,1080.8188974359073,nan,1081.1557674836367,nan,nan,nan,nan
1,257,1,1,1.0,1.0,0.45603002863936126,0,0.0,0.0,0.0,0.40429740157921235,0.14000821518103093,0.26428918639818144,0.5443056167602432,0.14000821518103093,0.40097223532696563,1,3,0,4,8,5,nan,nan,nan,nan,nan,nan,nan,nan,nan,nan,nan,nan,0.0,nan,nan,nan,nan,nan,nan,nan,nan,nan,nan,nan,nan,nan,nan,nan,nan,nan,nan,666.8933454824146,1081.8357146950439,nan,1082.2917447236832,nan,nan,nan,nan
1,258,1,1,1.0,1.0,0.5591972486581653,0,0.0,0.0,0.0,0.4045102930485957,0.1397590803055246,0.2647512127430711,0.5442693733541203,0.1397590803055246,0.4506991083423297,3,5,6,2,1,4,nan,nan,nan,nan,nan,nan,nan,nan,nan,nan,nan,nan,0.0,nan,nan,nan,nan,nan,nan,nan,nan,nan,nan,nan,nan,nan,nan,nan,nan,nan,nan,666.8933454824146,1082.8525102871936,nan,1083.4117075358517,nan,nan,nan,nan
1,259,1,1,1.0,1.0,0.5260434024967253,0,0.0,0.0,0.0,0.4051442559814218,0.1398220754151021,0.2653221805663197,0.5449663313965238,0.1398220754151021,0.5137568932647506,0,2,3,5,4,7,nan,nan,nan,nan,nan,nan,nan,nan,nan,nan,nan,nan,0.0,nan,nan,nan,nan,nan,nan,nan,nan,nan,nan,nan,nan,nan,nan,nan,nan,nan,nan,666.8933454824146,1083.8776400985662,nan,1084.403683501063,nan,nan,nan,nan
1,260,1,1,1.0,1.0,0.6372380785178393,1,0.0,1.0,1.0,0.4056377218855659,0.1397491756133224,0.2658885462722435,0.5453868974988882,0.1397491756133224,0.5741595765575767,2,1,6,0,8,3,1.0,1.0,1.0,1.0,1.0,1.0,1.0,1.0,1.0,1.0,0.0,0.0,4.0,2.0,1.0,6.0,0.0,3.0,8.0,4.0,1.0,2.0,3.0,6.0,5.0,4.126444475958124,1.4314393342938274,2.2870064235758036,3.2243719114921987,7.766347919590771,6.782746942713857,666.8933454824146,1084.8944308438804,1085.7028487105854,1085.5316689223982,1094.520639402559,1095.5317647147458,1086.7113154998515,1094.5123054683208
1,261,1,1,1.0,1.0,0.6092068422585726,0,0.0,0.0,0.0,0.4065791867499247,0.14024121992315647,0.26633796682676825,0.5468204066730812,0.14024121992315647,0.5908294410910457,6,0,5,3,4,8,nan,nan,nan,nan,nan,nan,nan,nan,nan,nan,nan,nan,0.0,nan,nan,nan,nan,nan,nan,nan,nan,nan,nan,nan,nan,nan,nan,nan,nan,nan,nan,666.8933454824146,1095.754204528639,nan,1096.3634113708977,nan,nan,nan,nan
1,262,1,1,nan,nan,nan,0,0.0,0.0,0.0,0.0,0.0,0.0,0.0,0.0,0.0,8,5,4,2,1,3,nan,nan,nan,nan,nan,nan,nan,nan,nan,nan,nan,nan,0.0,nan,nan,nan,nan,nan,nan,nan,nan,nan,nan,nan,nan,nan,nan,nan,nan,nan,nan,666.8933454824146,1096.7709562159143,nan,nan,nan,nan,nan,nan
1,263,0,0,nan,nan,nan,0,0.0,0.0,0.0,0.0,0.0,0.0,0.0,0.0,0.0,3,2,5,7,6,0,nan,nan,nan,nan,nan,nan,nan,nan,nan,nan,nan,nan,0.0,nan,nan,nan,nan,nan,nan,nan,nan,nan,nan,nan,nan,nan,nan,nan,nan,nan,nan,666.8933454824146,1097.7877463910263,nan,nan,nan,nan,nan,nan
1,264,1,1,1.0,1.0,0.7667792702559382,1,0.0,1.0,1.0,0.40739954163052655,0.140547242803139,0.2668522988273876,0.5479467844336655,0.140547242803139,0.7667792702559382,4,1,3,2,7,8,1.0,1.0,1.0,1.0,1.0,1.0,0.0,0.0,0.0,0.0,0.0,0.0,0.0,6.0,5.0,4.0,3.0,1.0,2.0,6.0,1.0,2.0,3.0,4.0,5.0,7.735640199389309,1.3137992015108466,2.537538769422099,3.5692600067704916,5.201246612006798,6.151602511759847,666.8933454824146,1098.8045419829432,1099.6129604198504,1099.5713212531991,1108.4057786734775,1109.4154571220279,1100.6297662754077,1108.3974210761953
1,265,1,1,nan,nan,nan,0,0.0,0.0,0.0,0.0,0.0,0.0,0.0,0.0,0.0,8,3,5,6,2,0,nan,nan,nan,nan,nan,nan,nan,nan,nan,nan,nan,nan,0.0,nan,nan,nan,nan,nan,nan,nan,nan,nan,nan,nan,nan,nan,nan,nan,nan,nan,nan,666.8933454824146,1109.6392705298495,nan,nan,nan,nan,nan,nan
1,266,1,1,1.0,1.0,0.06705179368145764,0,0.0,0.0,0.0,0.4088486534395,0.14210051943179125,0.26674813400770875,0.5509491728712912,0.14210051943179125,0.4169155319686979,5,2,8,3,4,1,nan,nan,nan,nan,nan,nan,nan,nan,nan,nan,nan,nan,0.0,nan,nan,nan,nan,nan,nan,nan,nan,nan,nan,nan,nan,nan,nan,nan,nan,nan,nan,666.8933454824146,1110.6560438843444,nan,1110.7230956780259,nan,nan,nan,nan
1,267,1,1,1.0,1.0,0.7701722008641809,0,0.0,0.0,0.0,0.4074759752878613,0.1434529743513136,0.2640230009365477,0.5509289496391749,0.1434529743513136,0.4186119972728193,3,8,0,1,2,7,nan,nan,nan,nan,nan,nan,nan,nan,nan,nan,nan,nan,0.0,nan,nan,nan,nan,nan,nan,nan,nan,nan,nan,nan,nan,nan,nan,nan,nan,nan,nan,666.8933454824146,1111.6728568673134,nan,1112.4430290681776,nan,nan,nan,nan
1,268,1,1,1.0,1.0,0.5213341822382063,0,0.0,0.0,0.0,0.40892676019016655,0.14498458627797012,0.26394217391219643,0.5539113464681367,0.14498458627797012,0.4528527255946149,0,3,6,5,8,4,nan,nan,nan,nan,nan,nan,nan,nan,nan,nan,nan,nan,0.0,nan,nan,nan,nan,nan,nan,nan,nan,nan,nan,nan,nan,nan,nan,nan,nan,nan,nan,666.8933454824146,1112.6896707052365,nan,1113.2110048874747,nan,nan,nan,nan
1,269,1,1,1.0,1.0,0.4082145360298455,1,0.0,1.0,1.0,0.4093745985250193,0.14486864022013984,0.26450595830487944,0.5542432387451591,0.14486864022013984,0.5665736397107443,3,0,1,6,4,5,1.0,1.0,1.0,1.0,1.0,1.0,1.0,1.0,1.0,1.0,1.0,0.0,5.0,3.0,0.0,1.0,6.0,4.0,8.0,4.0,1.0,2.0,3.0,6.0,5.0,4.098158648703247,1.0837142455857247,2.0414336123503745,2.931192298186943,7.193381090648472,4.993847052101046,666.8933454824146,1113.714790538419,1114.5232086903416,1114.1230050744489,1122.7742587712128,1123.7827321176883,1115.540005422663,1122.7659271175507
1,270,1,1,1.0,1.0,0.4033445215318352,0,0.0,0.0,0.0,0.4093699951024194,0.14458093511297762,0.2647890599894418,0.553950930215397,0.14458093511297762,0.4442977465999623,6,8,5,3,0,2,nan,nan,nan,nan,nan,nan,nan,nan,nan,nan,nan,nan,0.0,nan,nan,nan,nan,nan,nan,nan,nan,nan,nan,nan,nan,nan,nan,nan,nan,nan,nan,666.8933454824146,1123.999445487745,nan,1124.402790009277,nan,nan,nan,nan
1,271,1,1,1.0,1.0,0.466504180803895,0,0.0,0.0,0.0,0.4093461790013499,0.14429541442592636,0.26505076457542354,0.5536415934272763,0.14429541442592636,0.4260210794551919,2,5,4,6,7,0,nan,nan,nan,nan,nan,nan,nan,nan,nan,nan,nan,nan,0.0,nan,nan,nan,nan,nan,nan,nan,nan,nan,nan,nan,nan,nan,nan,nan,nan,nan,nan,666.8933454824146,1125.0162436456885,nan,1125.4827478264924,nan,nan,nan,nan
1,272,1,1,1.0,1.0,0.5376773262396455,0,0.0,0.0,0.0,0.4095712105045095,0.1440555630279143,0.2655156474765952,0.5536267735324238,0.1440555630279143,0.4691753428584586,3,0,5,7,6,1,nan,nan,nan,nan,nan,nan,nan,nan,nan,nan,nan,nan,0.0,nan,nan,nan,nan,nan,nan,nan,nan,nan,nan,nan,nan,nan,nan,nan,nan,nan,nan,666.8933454824146,1126.0330389526207,nan,1126.5707162788603,nan,nan,nan,nan
1,273,1,1,1.0,1.0,0.4408871396444738,0,0.0,0.0,0.0,0.410073587428961,0.1439955902117788,0.26607799721718217,0.5540691776407398,0.1439955902117788,0.48168954889600474,4,6,8,2,7,5,nan,nan,nan,nan,nan,nan,nan,nan,nan,nan,nan,nan,0.0,nan,nan,nan,nan,nan,nan,nan,nan,nan,nan,nan,nan,nan,nan,nan,nan,nan,nan,666.8933454824146,1127.0498202897143,nan,1127.4907074293587,nan,nan,nan,nan
1,274,1,1,1.0,1.0,0.34378762380219996,0,0.0,0.0,0.0,0.41019395286730287,0.14372692635778048,0.26646702650952236,0.5539208792250834,0.14372692635778048,0.44078402989543974,8,7,1,6,5,0,nan,nan,nan,nan,nan,nan,nan,nan,nan,nan,nan,nan,0.0,nan,nan,nan,nan,nan,nan,nan,nan,nan,nan,nan,nan,nan,nan,nan,nan,nan,nan,666.8933454824146,1128.0749492459,nan,1128.4187368697021,nan,nan,nan,nan
1,275,1,1,1.0,1.0,0.3188950123731047,0,0.0,0.0,0.0,0.40993556248183555,0.14350659305083885,0.2664289694309967,0.5534421555326744,0.14350659305083885,0.36785659193992615,2,0,6,3,1,4,nan,nan,nan,nan,nan,nan,nan,nan,nan,nan,nan,nan,0.0,nan,nan,nan,nan,nan,nan,nan,nan,nan,nan,nan,nan,nan,nan,nan,nan,nan,nan,666.8933454824146,1129.091756241629,nan,1129.410651254002,nan,nan,nan,nan
1,276,0,0,1.0,0.0,0.3017473267391324,0,0.0,0.0,0.0,0.4095826921325769,0.14333987925734398,0.26624281287523294,0.5529225713899208,0.14333987925734398,0.32147665430481237,6,4,8,1,0,7,nan,nan,nan,nan,nan,nan,nan,nan,nan,nan,nan,nan,0.0,nan,nan,nan,nan,nan,nan,nan,nan,nan,nan,nan,nan,nan,nan,nan,nan,nan,nan,666.8933454824146,1130.116892610211,nan,1130.41863993695,nan,nan,nan,nan
1,277,1,1,1.0,1.0,0.524920693365857,0,0.0,0.0,0.0,0.40916633937044006,0.14321911800967957,0.2659472213607605,0.5523854573801197,0.14321911800967957,0.3818543441593647,3,2,5,6,7,8,nan,nan,nan,nan,nan,nan,nan,nan,nan,nan,nan,nan,0.0,nan,nan,nan,nan,nan,nan,nan,nan,nan,nan,nan,nan,nan,nan,nan,nan,nan,nan,666.8933454824146,1131.1336753729265,nan,1131.6585960662924,nan,nan,nan,nan
