block,trial,setsize,freq_trials,correct_response,actual_response,acc,rts,probe_trials,timeBlockStart,timeEncArrayOnset,timeResponse,timeWholeReportOnset,timeWholeReportOffset,colorind1,colorind2,colorind3,colorind4,colorind5,colorind6,wholereportResp1,wholereportResp2,wholereportResp3,wholereportResp4,wholereportResp5,wholereportResp6,wholereport_respacc1,wholereport_respacc2,wholereport_respacc3,wholereport_respacc4,wholereport_respacc5,wholereport_respacc6,wholereportRespOrder1,wholereportRespOrder2,wholereportRespOrder3,wholereportRespOrder4,wholereportRespOrder5,wholereportRespOrder6,wholereportRespColorInd1,wholereportRespColorInd2,wholereportRespColorInd3,wholereportRespColorInd4,wholereportRespColorInd5,wholereportRespColorInd6,wholereport_rts1,wholereport_rts2,wholereport_rts3,wholereport_rts4,wholereport_rts5,wholereport_rts6
1,1,6,1,1,nan,nan,nan,0,666.8933454824146,667.9077340064105,nan,nan,nan,3,7,6,4,5,2,nan,nan,nan,nan,nan,nan,0.0,0.0,0.0,0.0,0.0,0.0,nan,nan,nan,nan,nan,nan,nan,nan,nan,nan,nan,nan,nan,nan,nan,nan,nan,nan
1,2,6,1,1,1.0,1.0,0.1843683421611786,0,666.8933454824146,668.9329664525576,669.1173347947188,nan,nan,5,4,1,8,6,0,nan,nan,nan,nan,nan,nan,0.0,0.0,0.0,0.0,0.0,0.0,nan,nan,nan,nan,nan,nan,nan,nan,nan,nan,nan,nan,nan,nan,nan,nan,nan,nan
1,3,6,1,1,1.0,1.0,0.35126142273657024,0,666.8933454824146,669.9579896379728,670.3092510607094,nan,nan,2,8,6,4,7,5,nan,nan,nan,nan,nan,nan,0.0,0.0,0.0,0.0,0.0,0.0,nan,nan,nan,nan,nan,nan,nan,nan,nan,nan,nan,nan,nan,nan,nan,nan,nan,nan
1,4,6,0,0,0.0,1.0,0.6541115017607808,0,666.8933454824146,670.9831257215701,671.6372372233309,nan,nan,3,1,2,8,0,4,nan,nan,nan,nan,nan,nan,0.0,0.0,0.0,0.0,0.0,0.0,nan,nan,nan,nan,nan,nan,nan,nan,nan,nan,nan,nan,nan,nan,nan,nan,nan,nan
1,5,6,1,1,1.0,1.0,0.517267283750698,0,666.8933454824146,671.9999432659242,672.5172105496749,nan,nan,8,2,6,7,5,1,nan,nan,nan,nan,nan,nan,0.0,0.0,0.0,0.0,0.0,0.0,nan,nan,nan,nan,nan,nan,nan,nan,nan,nan,nan,nan,nan,nan,nan,nan,nan,nan
1,6,6,1,1,1.0,1.0,0.38045014976523817,0,666.8933454824146,673.0167582444847,673.3972083942499,nan,nan,2,7,8,1,6,0,nan,nan,nan,nan,nan,nan,0.0,0.0,0.0,0.0,0.0,0.0,nan,nan,nan,nan,nan,nan,nan,nan,nan,nan,nan,nan,nan,nan,nan,nan,nan,nan
1,7,6,1,1,1.0,1.0,0.4676665181759745,0,666.8933454824146,674.0335392965935,674.5012058147695,nan,nan,4,3,0,6,2,7,nan,nan,nan,nan,nan,nan,0.0,0.0,0.0,0.0,0.0,0.0,nan,nan,nan,nan,nan,nan,nan,nan,nan,nan,nan,nan,nan,nan,nan,nan,nan,nan
1,8,6,1,1,1.0,1.0,0.36282492778263986,0,666.8933454824146,675.0503277610987,675.4131526888814,nan,nan,7,4,8,5,0,3,nan,nan,nan,nan,nan,nan,0.0,0.0,0.0,0.0,0.0,0.0,nan,nan,nan,nan,nan,nan,nan,nan,nan,nan,nan,nan,nan,nan,nan,nan,nan,nan
1,9,6,1,1,1.0,1.0,0.282015813048929,0,666.8933454824146,676.067134471843,676.349150284892,nan,nan,6,2,0,1,7,4,nan,nan,nan,nan,nan,nan,0.0,0.0,0.0,0.0,0.0,0.0,nan,nan,nan,nan,nan,nan,nan,nan,nan,nan,nan,nan,nan,nan,nan,nan,nan,nan
1,10,6,0,0,0.0,1.0,0.4971842465456575,0,666.8933454824146,677.0839309189469,677.5811151654925,nan,nan,4,5,8,0,1,6,nan,nan,nan,nan,nan,nan,0.0,0.0,0.0,0.0,0.0,0.0,nan,nan,nan,nan,nan,nan,nan,nan,nan,nan,nan,nan,nan,nan,nan,nan,nan,nan
1,11,6,1,1,1.0,1.0,0.4560656656976789,0,666.8933454824146,678.1090479011182,678.5651135668159,nan,nan,2,0,3,7,6,8,nan,nan,nan,nan,nan,nan,0.0,0.0,0.0,0.0,0.0,0.0,nan,nan,nan,nan,nan,nan,nan,nan,nan,nan,nan,nan,nan,nan,nan,nan,nan,nan
1,12,6,0,0,0.0,1.0,0.47887878492474556,0,666.8933454824146,679.1341794230975,679.6130582080223,nan,nan,7,2,8,4,1,6,nan,nan,nan,nan,nan,nan,0.0,0.0,0.0,0.0,0.0,0.0,nan,nan,nan,nan,nan,nan,nan,nan,nan,nan,nan,nan,nan,nan,nan,nan,nan,nan
1,13,6,1,1,1.0,1.0,0.430077429395169,0,666.8933454824146,680.1509504967835,680.5810279261786,nan,nan,2,0,4,3,7,1,nan,nan,nan,nan,nan,nan,0.0,0.0,0.0,0.0,0.0,0.0,nan,nan,nan,nan,nan,nan,nan,nan,nan,nan,nan,nan,nan,nan,nan,nan,nan,nan
1,14,6,1,1,1.0,1.0,0.37292417837306857,0,666.8933454824146,681.1761053968221,681.5490295751952,nan,nan,7,2,8,6,1,5,nan,nan,nan,nan,nan,nan,0.0,0.0,0.0,0.0,0.0,0.0,nan,nan,nan,nan,nan,nan,nan,nan,nan,nan,nan,nan,nan,nan,nan,nan,nan,nan
1,15,6,1,1,1.0,1.0,0.39609737414866686,1,666.8933454824146,682.1929024141282,682.5889997882769,684.0097825087141,691.7357682078145,6,1,3,4,0,7,1.0,1.0,1.0,1.0,1.0,1.0,0.0,1.0,0.0,0.0,0.0,0.0,6.0,1.0,2.0,3.0,4.0,5.0,5.0,1.0,6.0,3.0,7.0,8.0,7.693562269443646,1.2716656778939068,2.8548457957804203,4.149964918848127,5.357752494746819,6.533284847857431
1,16,6,1,1,1.0,1.0,0.7634425032883883,0,666.8933454824146,692.9692905694246,693.732733072713,nan,nan,5,4,2,6,8,1,nan,nan,nan,nan,nan,nan,0.0,0.0,0.0,0.0,0.0,0.0,nan,nan,nan,nan,nan,nan,nan,nan,nan,nan,nan,nan,nan,nan,nan,nan,nan,nan
1,17,6,1,1,1.0,1.0,0.6422954013105482,0,666.8933454824146,693.9944084067829,694.6367038080934,nan,nan,6,1,3,0,2,4,nan,nan,nan,nan,nan,nan,0.0,0.0,0.0,0.0,0.0,0.0,nan,nan,nan,nan,nan,nan,nan,nan,nan,nan,nan,nan,nan,nan,nan,nan,nan,nan
1,18,6,1,1,1.0,1.0,0.37749797804281116,0,666.8933454824146,695.0112134069204,695.3887113849632,nan,nan,0,7,8,2,3,5,nan,nan,nan,nan,nan,nan,0.0,0.0,0.0,0.0,0.0,0.0,nan,nan,nan,nan,nan,nan,nan,nan,nan,nan,nan,nan,nan,nan,nan,nan,nan,nan
1,19,6,1,1,1.0,1.0,0.38437963207252324,0,666.8933454824146,696.036310432246,696.4206900643185,nan,nan,5,0,6,7,8,4,nan,nan,nan,nan,nan,nan,0.0,0.0,0.0,0.0,0.0,0.0,nan,nan,nan,nan,nan,nan,nan,nan,nan,nan,nan,nan,nan,nan,nan,nan,nan,nan
1,20,6,1,1,1.0,1.0,0.583507408387959,0,666.8933454824146,697.0531462228391,697.6366536312271,nan,nan,6,7,0,8,1,2,nan,nan,nan,nan,nan,nan,0.0,0.0,0.0,0.0,0.0,0.0,nan,nan,nan,nan,nan,nan,nan,nan,nan,nan,nan,nan,nan,nan,nan,nan,nan,nan
1,21,6,1,1,1.0,1.0,0.4386842008680105,0,666.8933454824146,698.069946376374,698.508630577242,nan,nan,1,2,6,5,0,7,nan,nan,nan,nan,nan,nan,0.0,0.0,0.0,0.0,0.0,0.0,nan,nan,nan,nan,nan,nan,nan,nan,nan,nan,nan,nan,nan,nan,nan,nan,nan,nan
1,22,6,1,1,1.0,1.0,0.3658711814787239,0,666.8933454824146,699.0867471001111,699.4526182815898,nan,nan,8,3,1,7,2,5,nan,nan,nan,nan,nan,nan,0.0,0.0,0.0,0.0,0.0,0.0,nan,nan,nan,nan,nan,nan,nan,nan,nan,nan,nan,nan,nan,nan,nan,nan,nan,nan
1,23,6,1,1,1.0,1.0,0.34106181818060577,0,666.8933454824146,700.103525871411,700.4445876895916,nan,nan,2,8,5,1,7,3,nan,nan,nan,nan,nan,nan,0.0,0.0,0.0,0.0,0.0,0.0,nan,nan,nan,nan,nan,nan,nan,nan,nan,nan,nan,nan,nan,nan,nan,nan,nan,nan
1,24,6,1,1,1.0,1.0,0.33191336365416646,0,666.8933454824146,701.1286531169899,701.460566480644,nan,nan,4,1,3,7,5,6,nan,nan,nan,nan,nan,nan,0.0,0.0,0.0,0.0,0.0,0.0,nan,nan,nan,nan,nan,nan,nan,nan,nan,nan,nan,nan,nan,nan,nan,nan,nan,nan
1,25,6,1,1,1.0,1.0,0.3520904826000333,0,666.8933454824146,702.2204621012788,702.5725525838789,nan,nan,6,7,5,0,2,1,nan,nan,nan,nan,nan,nan,0.0,0.0,0.0,0.0,0.0,0.0,nan,nan,nan,nan,nan,nan,nan,nan,nan,nan,nan,nan,nan,nan,nan,nan,nan,nan
1,26,6,0,0,0.0,1.0,0.6072382524143904,0,666.8933454824146,703.2372822114266,703.844520463841,nan,nan,3,0,4,2,7,8,nan,nan,nan,nan,nan,nan,0.0,0.0,0.0,0.0,0.0,0.0,nan,nan,nan,nan,nan,nan,nan,nan,nan,nan,nan,nan,nan,nan,nan,nan,nan,nan
1,27,6,1,1,1.0,1.0,0.5024217504542321,0,666.8933454824146,704.2540746673476,704.7564964178018,nan,nan,8,6,1,0,4,2,nan,nan,nan,nan,nan,nan,0.0,0.0,0.0,0.0,0.0,0.0,nan,nan,nan,nan,nan,nan,nan,nan,nan,nan,nan,nan,nan,nan,nan,nan,nan,nan
1,28,6,1,1,1.0,1.0,0.397619788069278,0,666.8933454824146,705.2708622766659,705.6684820647351,nan,nan,0,2,6,4,1,3,nan,nan,nan,nan,nan,nan,0.0,0.0,0.0,0.0,0.0,0.0,nan,nan,nan,nan,nan,nan,nan,nan,nan,nan,nan,nan,nan,nan,nan,nan,nan,nan
1,29,6,1,1,1.0,1.0,0.2767720373813063,1,666.8933454824146,706.2876687021926,706.5644407395739,708.1128716124222,714.6470319910441,1,7,5,2,6,8,1.0,1.0,1.0,1.0,1.0,1.0,0.0,0.0,0.0,0.0,0.0,0.0,6.0,1.0,2.0,3.0,4.0,5.0,0.0,4.0,7.0,6.0,3.0,1.0,6.501996956765652,1.4958488557022065,2.255518679972738,3.2155920865479857,4.357549791224301,5.277846850221977
1,30,6,1,1,nan,nan,nan,0,666.8933454824146,715.8888877169229,nan,nan,nan,8,4,3,7,1,2,nan,nan,nan,nan,nan,nan,0.0,0.0,0.0,0.0,0.0,0.0,nan,nan,nan,nan,nan,nan,nan,nan,nan,nan,nan,nan,nan,nan,nan,nan,nan,nan
1,31,6,1,1,1.0,1.0,0.07452473742887378,0,666.8933454824146,716.9056662030052,716.9801909404341,nan,nan,1,8,0,4,3,5,nan,nan,nan,nan,nan,nan,0.0,0.0,0.0,0.0,0.0,0.0,nan,nan,nan,nan,nan,nan,nan,nan,nan,nan,nan,nan,nan,nan,nan,nan,nan,nan
1,32,6,1,1,1.0,1.0,0.33475292287766933,0,666.8933454824146,717.9893912824336,718.3241442053113,nan,nan,0,6,2,5,7,4,nan,nan,nan,nan,nan,nan,0.0,0.0,0.0,0.0,0.0,0.0,nan,nan,nan,nan,nan,nan,nan,nan,nan,nan,nan,nan,nan,nan,nan,nan,nan,nan
1,33,6,1,1,1.0,1.0,0.2058694481384009,0,666.8933454824146,719.0142665030435,719.2201359511819,nan,nan,7,3,5,1,8,6,nan,nan,nan,nan,nan,nan,0.0,0.0,0.0,0.0,0.0,0.0,nan,nan,nan,nan,nan,nan,nan,nan,nan,nan,nan,nan,nan,nan,nan,nan,nan,nan
1,34,6,1,1,1.0,1.0,0.6126881528180093,0,666.8933454824146,720.0393940336071,720.6520821864251,nan,nan,4,8,6,7,0,5,nan,nan,nan,nan,nan,nan,0.0,0.0,0.0,0.0,0.0,0.0,nan,nan,nan,nan,nan,nan,nan,nan,nan,nan,nan,nan,nan,nan,nan,nan,nan,nan
1,35,6,1,1,1.0,1.0,0.30756015446968377,0,666.8933454824146,721.0645423764363,721.372102530906,nan,nan,0,1,7,2,4,6,nan,nan,nan,nan,nan,nan,0.0,0.0,0.0,0.0,0.0,0.0,nan,nan,nan,nan,nan,nan,nan,nan,nan,nan,nan,nan,nan,nan,nan,nan,nan,nan
1,36,6,1,1,1.0,1.0,0.0827283828984946,0,666.8933454824146,722.0813525081612,722.1640808910597,nan,nan,7,4,8,5,0,3,nan,nan,nan,nan,nan,nan,0.0,0.0,0.0,0.0,0.0,0.0,nan,nan,nan,nan,nan,nan,nan,nan,nan,nan,nan,nan,nan,nan,nan,nan,nan,nan
1,37,6,1,1,1.0,1.0,0.36960394703783095,0,666.8933454824146,723.106435563881,723.4760395109188,nan,nan,0,5,4,3,6,1,nan,nan,nan,nan,nan,nan,0.0,0.0,0.0,0.0,0.0,0.0,nan,nan,nan,nan,nan,nan,nan,nan,nan,nan,nan,nan,nan,nan,nan,nan,nan,nan
1,38,6,0,0,1.0,0.0,0.08041596692055464,0,666.8933454824146,724.131616122555,724.2120320894755,nan,nan,4,6,2,0,7,5,nan,nan,nan,nan,nan,nan,0.0,0.0,0.0,0.0,0.0,0.0,nan,nan,nan,nan,nan,nan,nan,nan,nan,nan,nan,nan,nan,nan,nan,nan,nan,nan
1,39,6,1,1,1.0,1.0,0.5115781875792891,0,666.8933454824146,725.1484045870602,725.6599827746395,nan,nan,1,5,7,3,8,2,nan,nan,nan,nan,nan,nan,0.0,0.0,0.0,0.0,0.0,0.0,nan,nan,nan,nan,nan,nan,nan,nan,nan,nan,nan,nan,nan,nan,nan,nan,nan,nan
1,40,6,1,1,1.0,1.0,0.5667887923773378,0,666.8933454824146,726.1651941919699,726.7319829843473,nan,nan,6,0,1,8,7,3,nan,nan,nan,nan,nan,nan,0.0,0.0,0.0,0.0,0.0,0.0,nan,nan,nan,nan,nan,nan,nan,nan,nan,nan,nan,nan,nan,nan,nan,nan,nan,nan
1,41,6,1,1,1.0,1.0,0.41395580512471497,0,666.8933454824146,727.1820017579012,727.5959575630259,nan,nan,8,4,3,2,0,5,nan,nan,nan,nan,nan,nan,0.0,0.0,0.0,0.0,0.0,0.0,nan,nan,nan,nan,nan,nan,nan,nan,nan,nan,nan,nan,nan,nan,nan,nan,nan,nan
1,42,6,1,1,1.0,1.0,0.4531528369989246,0,666.8933454824146,728.1987876566127,728.6519404936116,nan,nan,7,5,1,6,8,3,nan,nan,nan,nan,nan,nan,0.0,0.0,0.0,0.0,0.0,0.0,nan,nan,nan,nan,nan,nan,nan,nan,nan,nan,nan,nan,nan,nan,nan,nan,nan,nan
1,43,6,1,1,1.0,1.0,0.3883088289294392,0,666.8933454824146,729.2155969331507,729.6039057620801,nan,nan,0,3,5,4,1,6,nan,nan,nan,nan,nan,nan,0.0,0.0,0.0,0.0,0.0,0.0,nan,nan,nan,nan,nan,nan,nan,nan,nan,nan,nan,nan,nan,nan,nan,nan,nan,nan
1,44,6,1,1,1.0,1.0,0.3714955609757453,0,666.8933454824146,730.2323868232779,730.6038823842537,nan,nan,6,7,3,1,2,5,nan,nan,nan,nan,nan,nan,0.0,0.0,0.0,0.0,0.0,0.0,nan,nan,nan,nan,nan,nan,nan,nan,nan,nan,nan,nan,nan,nan,nan,nan,nan,nan
1,45,6,1,1,1.0,1.0,0.554340063361451,1,666.8933454824146,731.2575263280887,731.8118663914502,733.0910731509794,739.5085439078975,5,4,2,6,8,0,1.0,1.0,1.0,1.0,1.0,1.0,0.0,1.0,1.0,1.0,0.0,1.0,6.0,1.0,2.0,3.0,4.0,5.0,6.0,4.0,2.0,6.0,1.0,0.0,6.387050983961672,1.435154138598591,2.4832342006266117,3.50804042769596,4.763229251373559,5.635134638054296
1,46,6,1,1,nan,nan,nan,0,666.8933454824146,740.7337366116699,nan,nan,nan,8,5,6,0,4,1,nan,nan,nan,nan,nan,nan,0.0,0.0,0.0,0.0,0.0,0.0,nan,nan,nan,nan,nan,nan,nan,nan,nan,nan,nan,nan,nan,nan,nan,nan,nan,nan
1,47,6,1,1,1.0,1.0,0.21307411626912653,0,666.8933454824146,741.7505501646083,741.9636242808774,nan,nan,3,6,2,4,1,7,nan,nan,nan,nan,nan,nan,0.0,0.0,0.0,0.0,0.0,0.0,nan,nan,nan,nan,nan,nan,nan,nan,nan,nan,nan,nan,nan,nan,nan,nan,nan,nan
1,48,6,0,0,0.0,1.0,0.5882608185056597,0,666.8933454824146,742.7673292211257,743.3555900396314,nan,nan,5,7,0,8,2,1,nan,nan,nan,nan,nan,nan,0.0,0.0,0.0,0.0,0.0,0.0,nan,nan,nan,nan,nan,nan,nan,nan,nan,nan,nan,nan,nan,nan,nan,nan,nan,nan
1,49,6,1,1,1.0,1.0,0.5234139594249427,0,666.8933454824146,743.7841470504645,744.3075610098895,nan,nan,0,3,8,5,4,7,nan,nan,nan,nan,nan,nan,0.0,0.0,0.0,0.0,0.0,0.0,nan,nan,nan,nan,nan,nan,nan,nan,nan,nan,nan,nan,nan,nan,nan,nan,nan,nan
1,50,6,1,1,1.0,1.0,0.4266554187051952,0,666.8933454824146,744.8009061501361,745.2275615688413,nan,nan,3,6,4,8,5,0,nan,nan,nan,nan,nan,nan,0.0,0.0,0.0,0.0,0.0,0.0,nan,nan,nan,nan,nan,nan,nan,nan,nan,nan,nan,nan,nan,nan,nan,nan,nan,nan
1,51,6,1,1,1.0,1.0,0.7458004606887698,0,666.8933454824146,745.8177125756629,746.5635130363517,nan,nan,5,7,3,2,1,4,nan,nan,nan,nan,nan,nan,0.0,0.0,0.0,0.0,0.0,0.0,nan,nan,nan,nan,nan,nan,nan,nan,nan,nan,nan,nan,nan,nan,nan,nan,nan,nan
1,52,6,1,1,1.0,1.0,0.3769751114305109,0,666.8933454824146,746.8345275542233,747.2115026656538,nan,nan,2,3,1,4,6,0,nan,nan,nan,nan,nan,nan,0.0,0.0,0.0,0.0,0.0,0.0,nan,nan,nan,nan,nan,nan,nan,nan,nan,nan,nan,nan,nan,nan,nan,nan,nan,nan
1,53,6,0,0,1.0,0.0,0.06418172945268452,0,666.8933454824146,747.8513086063322,747.9154903357849,nan,nan,1,5,7,8,2,6,nan,nan,nan,nan,nan,nan,0.0,0.0,0.0,0.0,0.0,0.0,nan,nan,nan,nan,nan,nan,nan,nan,nan,nan,nan,nan,nan,nan,nan,nan,nan,nan
1,54,6,1,1,1.0,1.0,0.5029950789175928,0,666.8933454824146,748.8764330008999,749.3794280798174,nan,nan,0,2,5,4,8,1,nan,nan,nan,nan,nan,nan,0.0,0.0,0.0,0.0,0.0,0.0,nan,nan,nan,nan,nan,nan,nan,nan,nan,nan,nan,nan,nan,nan,nan,nan,nan,nan
1,55,6,1,1,1.0,1.0,0.49417277448810637,0,666.8933454824146,749.893252826063,750.3874256005511,nan,nan,8,4,2,1,7,3,nan,nan,nan,nan,nan,nan,0.0,0.0,0.0,0.0,0.0,0.0,nan,nan,nan,nan,nan,nan,nan,nan,nan,nan,nan,nan,nan,nan,nan,nan,nan,nan
1,56,6,1,1,1.0,1.0,0.36539193452335894,0,666.8933454824146,750.9100196233485,751.2754115578718,nan,nan,4,5,1,3,2,0,nan,nan,nan,nan,nan,nan,0.0,0.0,0.0,0.0,0.0,0.0,nan,nan,nan,nan,nan,nan,nan,nan,nan,nan,nan,nan,nan,nan,nan,nan,nan,nan
1,57,6,1,1,1.0,1.0,0.1485964567400515,0,666.8933454824146,751.9268075176515,752.0754039743915,nan,nan,1,4,7,5,6,3,nan,nan,nan,nan,nan,nan,0.0,0.0,0.0,0.0,0.0,0.0,nan,nan,nan,nan,nan,nan,nan,nan,nan,nan,nan,nan,nan,nan,nan,nan,nan,nan
1,58,6,1,1,1.0,1.0,0.2997422444168478,0,666.8933454824146,752.9436350404285,753.2433772848453,nan,nan,8,2,0,6,3,7,nan,nan,nan,nan,nan,nan,0.0,0.0,0.0,0.0,0.0,0.0,nan,nan,nan,nan,nan,nan,nan,nan,nan,nan,nan,nan,nan,nan,nan,nan,nan,nan
1,59,6,1,1,1.0,1.0,0.3069050032645464,0,666.8933454824146,753.9604428915773,754.2673478948418,nan,nan,3,4,1,5,2,6,nan,nan,nan,nan,nan,nan,0.0,0.0,0.0,0.0,0.0,0.0,nan,nan,nan,nan,nan,nan,nan,nan,nan,nan,nan,nan,nan,nan,nan,nan,nan,nan
1,60,6,1,1,1.0,1.0,0.2980809884611517,0,666.8933454824146,754.977242474677,755.2753234631382,nan,nan,0,2,7,6,4,3,nan,nan,nan,nan,nan,nan,0.0,0.0,0.0,0.0,0.0,0.0,nan,nan,nan,nan,nan,nan,nan,nan,nan,nan,nan,nan,nan,nan,nan,nan,nan,nan
1,61,6,0,0,0.0,1.0,0.6092781163752079,0,666.8933454824146,755.9940175397787,756.6032956561539,nan,nan,3,1,5,8,6,2,nan,nan,nan,nan,nan,nan,0.0,0.0,0.0,0.0,0.0,0.0,nan,nan,nan,nan,nan,nan,nan,nan,nan,nan,nan,nan,nan,nan,nan,nan,nan,nan
1,62,6,1,1,1.0,1.0,0.48842466343194246,0,666.8933454824146,757.0108282419387,757.4992529053707,nan,nan,6,0,8,2,3,4,nan,nan,nan,nan,nan,nan,0.0,0.0,0.0,0.0,0.0,0.0,nan,nan,nan,nan,nan,nan,nan,nan,nan,nan,nan,nan,nan,nan,nan,nan,nan,nan
1,63,6,1,1,1.0,1.0,0.35962557746097445,0,666.8933454824146,758.0276295356452,758.3872551131062,nan,nan,8,4,0,7,6,5,nan,nan,nan,nan,nan,nan,0.0,0.0,0.0,0.0,0.0,0.0,nan,nan,nan,nan,nan,nan,nan,nan,nan,nan,nan,nan,nan,nan,nan,nan,nan,nan
1,64,6,1,1,1.0,1.0,0.3987963804975152,0,666.8933454824146,759.0444242723752,759.4432206528727,nan,nan,2,7,6,5,4,0,nan,nan,nan,nan,nan,nan,0.0,0.0,0.0,0.0,0.0,0.0,nan,nan,nan,nan,nan,nan,nan,nan,nan,nan,nan,nan,nan,nan,nan,nan,nan,nan
1,65,6,1,1,1.0,1.0,0.3739559417590499,0,666.8933454824146,760.061243527336,760.4351994690951,nan,nan,6,2,4,1,8,7,nan,nan,nan,nan,nan,nan,0.0,0.0,0.0,0.0,0.0,0.0,nan,nan,nan,nan,nan,nan,nan,nan,nan,nan,nan,nan,nan,nan,nan,nan,nan,nan
1,66,6,0,0,0.0,1.0,0.7571438713930547,0,666.8933454824146,761.0780231538229,761.8351670252159,nan,nan,8,1,2,6,3,0,nan,nan,nan,nan,nan,nan,0.0,0.0,0.0,0.0,0.0,0.0,nan,nan,nan,nan,nan,nan,nan,nan,nan,nan,nan,nan,nan,nan,nan,nan,nan,nan
1,67,6,1,1,1.0,1.0,0.6919942398089916,0,666.8933454824146,762.1031358595937,762.7951300994027,nan,nan,0,3,8,4,5,6,nan,nan,nan,nan,nan,nan,0.0,0.0,0.0,0.0,0.0,0.0,nan,nan,nan,nan,nan,nan,nan,nan,nan,nan,nan,nan,nan,nan,nan,nan,nan,nan
1,68,6,1,1,1.0,1.0,0.40318116126582026,0,666.8933454824146,763.119947131956,763.5231282932218,nan,nan,6,2,0,3,4,8,nan,nan,nan,nan,nan,nan,0.0,0.0,0.0,0.0,0.0,0.0,nan,nan,nan,nan,nan,nan,nan,nan,nan,nan,nan,nan,nan,nan,nan,nan,nan,nan
1,69,6,1,1,1.0,1.0,0.11403594561852515,1,666.8933454824146,764.14506297349,764.2590989191085,765.9702832745388,773.4295662518125,4,8,1,5,0,7,1.0,1.0,1.0,1.0,1.0,1.0,0.0,1.0,0.0,0.0,0.0,0.0,6.0,1.0,2.0,3.0,4.0,5.0,2.0,8.0,7.0,6.0,6.0,1.0,7.426817923551425,1.9789732941426337,3.55639047594741,4.508220323594287,5.476329453988001,6.4036290475632995
1,70,6,1,1,1.0,1.0,0.7877595054451376,0,666.8933454824146,774.6630834816024,775.4508429870475,nan,nan,8,0,3,1,2,5,nan,nan,nan,nan,nan,nan,0.0,0.0,0.0,0.0,0.0,0.0,nan,nan,nan,nan,nan,nan,nan,nan,nan,nan,nan,nan,nan,nan,nan,nan,nan,nan
1,71,6,1,1,1.0,1.0,0.5466036908328533,0,666.8933454824146,775.6882150038145,776.2348186946474,nan,nan,5,1,7,3,8,0,nan,nan,nan,nan,nan,nan,0.0,0.0,0.0,0.0,0.0,0.0,nan,nan,nan,nan,nan,nan,nan,nan,nan,nan,nan,nan,nan,nan,nan,nan,nan,nan
1,72,6,1,1,1.0,1.0,0.44180058827623725,0,666.8933454824146,776.7050080299377,777.146808618214,nan,nan,0,8,1,6,7,2,nan,nan,nan,nan,nan,nan,0.0,0.0,0.0,0.0,0.0,0.0,nan,nan,nan,nan,nan,nan,nan,nan,nan,nan,nan,nan,nan,nan,nan,nan,nan,nan
1,73,6,1,1,1.0,1.0,0.3849754831753671,0,666.8933454824146,777.7218096088618,778.1067850920372,nan,nan,2,0,5,4,3,1,nan,nan,nan,nan,nan,nan,0.0,0.0,0.0,0.0,0.0,0.0,nan,nan,nan,nan,nan,nan,nan,nan,nan,nan,nan,nan,nan,nan,nan,nan,nan,nan
1,74,6,1,1,1.0,1.0,0.4241708046756685,0,666.8933454824146,778.7386060559656,779.1627768606413,nan,nan,3,2,7,8,5,6,nan,nan,nan,nan,nan,nan,0.0,0.0,0.0,0.0,0.0,0.0,nan,nan,nan,nan,nan,nan,nan,nan,nan,nan,nan,nan,nan,nan,nan,nan,nan,nan
1,75,6,1,1,1.0,1.0,0.359339625807479,0,666.8933454824146,779.7553916696925,780.1147312955,nan,nan,6,8,1,3,7,4,nan,nan,nan,nan,nan,nan,0.0,0.0,0.0,0.0,0.0,0.0,nan,nan,nan,nan,nan,nan,nan,nan,nan,nan,nan,nan,nan,nan,nan,nan,nan,nan
1,76,6,0,0,0.0,1.0,0.7505159529391676,0,666.8933454824146,780.7721903976053,781.5227063505445,nan,nan,4,2,8,7,1,5,nan,nan,nan,nan,nan,nan,0.0,0.0,0.0,0.0,0.0,0.0,nan,nan,nan,nan,nan,nan,nan,nan,nan,nan,nan,nan,nan,nan,nan,nan,nan,nan
1,77,6,1,1,1.0,1.0,0.5177097532432526,0,666.8933454824146,781.7889828535262,782.3066926067695,nan,nan,6,8,3,5,0,4,nan,nan,nan,nan,nan,nan,0.0,0.0,0.0,0.0,0.0,0.0,nan,nan,nan,nan,nan,nan,nan,nan,nan,nan,nan,nan,nan,nan,nan,nan,nan,nan
1,78,6,1,1,1.0,1.0,0.5246056618634611,0,666.8933454824146,782.8140949890949,783.3387006509583,nan,nan,3,5,7,0,2,6,nan,nan,nan,nan,nan,nan,0.0,0.0,0.0,0.0,0.0,0.0,nan,nan,nan,nan,nan,nan,nan,nan,nan,nan,nan,nan,nan,nan,nan,nan,nan,nan
1,79,6,1,1,1.0,1.0,0.45171310077421367,0,666.8933454824146,783.8309236522764,784.2826367530506,nan,nan,0,3,5,1,6,8,nan,nan,nan,nan,nan,nan,0.0,0.0,0.0,0.0,0.0,0.0,nan,nan,nan,nan,nan,nan,nan,nan,nan,nan,nan,nan,nan,nan,nan,nan,nan,nan
1,80,6,1,1,1.0,1.0,0.5869271382689476,0,666.8933454824146,784.8477018531412,785.4346289914101,nan,nan,3,7,1,8,0,4,nan,nan,nan,nan,nan,nan,0.0,0.0,0.0,0.0,0.0,0.0,nan,nan,nan,nan,nan,nan,nan,nan,nan,nan,nan,nan,nan,nan,nan,nan,nan,nan
1,81,6,1,1,1.0,1.0,0.4660859443247318,0,666.8933454824146,785.8645128405187,786.3305987848435,nan,nan,4,2,7,6,8,0,nan,nan,nan,nan,nan,nan,0.0,0.0,0.0,0.0,0.0,0.0,nan,nan,nan,nan,nan,nan,nan,nan,nan,nan,nan,nan,nan,nan,nan,nan,nan,nan
1,82,6,1,1,1.0,1.0,0.5132688083685935,0,666.8933454824146,786.8813514818903,787.3946202902589,nan,nan,8,6,1,7,5,2,nan,nan,nan,nan,nan,nan,0.0,0.0,0.0,0.0,0.0,0.0,nan,nan,nan,nan,nan,nan,nan,nan,nan,nan,nan,nan,nan,nan,nan,nan,nan,nan
1,83,6,1,1,1.0,1.0,0.3764416961930692,0,666.8933454824146,787.8981402316131,788.2745819278061,nan,nan,5,4,7,1,2,6,nan,nan,nan,nan,nan,nan,0.0,0.0,0.0,0.0,0.0,0.0,nan,nan,nan,nan,nan,nan,nan,nan,nan,nan,nan,nan,nan,nan,nan,nan,nan,nan
1,84,6,1,1,1.0,1.0,0.5276074407156557,0,666.8933454824146,788.9149158666842,789.4425233073998,nan,nan,6,3,0,2,8,7,nan,nan,nan,nan,nan,nan,0.0,0.0,0.0,0.0,0.0,0.0,nan,nan,nan,nan,nan,nan,nan,nan,nan,nan,nan,nan,nan,nan,nan,nan,nan,nan
1,85,6,1,1,1.0,1.0,0.39843487832695246,0,666.8933454824146,789.9400873023551,790.338522180682,nan,nan,3,2,1,5,7,0,nan,nan,nan,nan,nan,nan,0.0,0.0,0.0,0.0,0.0,0.0,nan,nan,nan,nan,nan,nan,nan,nan,nan,nan,nan,nan,nan,nan,nan,nan,nan,nan
1,86,6,1,1,1.0,1.0,0.4376627008896321,0,666.8933454824146,790.9568452616222,791.3945079625119,nan,nan,4,3,6,7,2,1,nan,nan,nan,nan,nan,nan,0.0,0.0,0.0,0.0,0.0,0.0,nan,nan,nan,nan,nan,nan,nan,nan,nan,nan,nan,nan,nan,nan,nan,nan,nan,nan
1,87,6,1,1,1.0,1.0,0.3967927237972617,0,666.8933454824146,791.973646270344,792.3704389941413,nan,nan,6,4,0,8,3,2,nan,nan,nan,nan,nan,nan,0.0,0.0,0.0,0.0,0.0,0.0,nan,nan,nan,nan,nan,nan,nan,nan,nan,nan,nan,nan,nan,nan,nan,nan,nan,nan
1,88,6,1,1,1.0,1.0,0.39599502459168434,0,666.8933454824146,792.990434164647,793.3864291892387,nan,nan,1,5,4,3,8,6,nan,nan,nan,nan,nan,nan,0.0,0.0,0.0,0.0,0.0,0.0,nan,nan,nan,nan,nan,nan,nan,nan,nan,nan,nan,nan,nan,nan,nan,nan,nan,nan
1,89,6,1,1,1.0,1.0,0.5309048641938716,0,666.8933454824146,794.0155172203667,794.5464220845606,nan,nan,5,8,1,0,2,3,nan,nan,nan,nan,nan,nan,0.0,0.0,0.0,0.0,0.0,0.0,nan,nan,nan,nan,nan,nan,nan,nan,nan,nan,nan,nan,nan,nan,nan,nan,nan,nan
1,90,6,1,1,1.0,1.0,0.3940392641816288,0,666.8933454824146,795.032343887724,795.4263831519056,nan,nan,1,7,8,4,6,5,nan,nan,nan,nan,nan,nan,0.0,0.0,0.0,0.0,0.0,0.0,nan,nan,nan,nan,nan,nan,nan,nan,nan,nan,nan,nan,nan,nan,nan,nan,nan,nan
1,91,6,1,1,1.0,1.0,0.3532573818229139,0,666.8933454824146,796.0491155316122,796.4023729134351,nan,nan,7,1,3,8,2,4,nan,nan,nan,nan,nan,nan,0.0,0.0,0.0,0.0,0.0,0.0,nan,nan,nan,nan,nan,nan,nan,nan,nan,nan,nan,nan,nan,nan,nan,nan,nan,nan
1,92,6,1,1,1.0,1.0,0.36039932863786817,0,666.8933454824146,797.0659493266139,797.4263486552518,nan,nan,4,6,5,3,1,0,nan,nan,nan,nan,nan,nan,0.0,0.0,0.0,0.0,0.0,0.0,nan,nan,nan,nan,nan,nan,nan,nan,nan,nan,nan,nan,nan,nan,nan,nan,nan,nan
1,93,6,1,1,1.0,1.0,0.3755844119004905,0,666.8933454824146,798.0827423525043,798.4583267644048,nan,nan,6,2,4,1,5,3,nan,nan,nan,nan,nan,nan,0.0,0.0,0.0,0.0,0.0,0.0,nan,nan,nan,nan,nan,nan,nan,nan,nan,nan,nan,nan,nan,nan,nan,nan,nan,nan
1,94,6,1,1,1.0,1.0,0.27875431161373854,0,666.8933454824146,799.0995410806499,799.3782953922637,nan,nan,5,8,3,0,7,2,nan,nan,nan,nan,nan,nan,0.0,0.0,0.0,0.0,0.0,0.0,nan,nan,nan,nan,nan,nan,nan,nan,nan,nan,nan,nan,nan,nan,nan,nan,nan,nan
1,95,6,1,1,1.0,1.0,0.2059344502631575,0,666.8933454824146,800.1163457955699,800.3222802458331,nan,nan,8,1,6,2,4,5,nan,nan,nan,nan,nan,nan,0.0,0.0,0.0,0.0,0.0,0.0,nan,nan,nan,nan,nan,nan,nan,nan,nan,nan,nan,nan,nan,nan,nan,nan,nan,nan
1,96,6,1,1,1.0,1.0,0.11711926176212728,1,666.8933454824146,801.1331376812886,801.2502569430508,802.9583497145213,810.9593583852984,3,8,7,4,1,0,1.0,1.0,1.0,1.0,1.0,1.0,0.0,1.0,1.0,0.0,0.0,0.0,6.0,1.0,2.0,3.0,4.0,5.0,7.0,8.0,7.0,6.0,5.0,1.0,7.9742084802128375,2.4393544623162597,3.423393632285297,4.711798453005031,6.335025474894792,7.182819699170068
1,97,6,1,1,1.0,1.0,0.4327926861587912,0,666.8933454824146,812.2012101197615,812.6340028059203,nan,nan,4,7,0,6,3,8,nan,nan,nan,nan,nan,nan,0.0,0.0,0.0,0.0,0.0,0.0,nan,nan,nan,nan,nan,nan,nan,nan,nan,nan,nan,nan,nan,nan,nan,nan,nan,nan
1,98,6,1,1,1.0,1.0,0.49560994491912425,0,666.8933454824146,813.2263507649768,813.7219607098959,nan,nan,8,4,3,2,6,1,nan,nan,nan,nan,nan,nan,0.0,0.0,0.0,0.0,0.0,0.0,nan,nan,nan,nan,nan,nan,nan,nan,nan,nan,nan,nan,nan,nan,nan,nan,nan,nan
1,99,6,1,1,1.0,1.0,0.39845968200825155,0,666.8933454824146,814.2514688873198,814.649928569328,nan,nan,3,2,4,8,5,7,nan,nan,nan,nan,nan,nan,0.0,0.0,0.0,0.0,0.0,0.0,nan,nan,nan,nan,nan,nan,nan,nan,nan,nan,nan,nan,nan,nan,nan,nan,nan,nan
1,100,6,1,1,1.0,1.0,0.3736411954741925,0,666.8933454824146,815.268283295678,815.6419244911522,nan,nan,5,7,1,3,6,8,nan,nan,nan,nan,nan,nan,0.0,0.0,0.0,0.0,0.0,0.0,nan,nan,nan,nan,nan,nan,nan,nan,nan,nan,nan,nan,nan,nan,nan,nan,nan,nan
1,101,6,1,1,1.0,1.0,0.31679841433651745,0,666.8933454824146,816.2850868704263,816.6018852847628,nan,nan,8,5,4,1,2,0,nan,nan,nan,nan,nan,nan,0.0,0.0,0.0,0.0,0.0,0.0,nan,nan,nan,nan,nan,nan,nan,nan,nan,nan,nan,nan,nan,nan,nan,nan,nan,nan
1,102,6,1,1,1.0,1.0,0.31599358771927655,0,666.8933454824146,817.3018756199162,817.6178692076355,nan,nan,6,0,8,2,1,7,nan,nan,nan,nan,nan,nan,0.0,0.0,0.0,0.0,0.0,0.0,nan,nan,nan,nan,nan,nan,nan,nan,nan,nan,nan,nan,nan,nan,nan,nan,nan,nan
1,103,6,1,1,1.0,1.0,0.38721548463217914,0,666.8933454824146,818.3186338644009,818.7058493490331,nan,nan,5,3,7,4,2,6,nan,nan,nan,nan,nan,nan,0.0,0.0,0.0,0.0,0.0,0.0,nan,nan,nan,nan,nan,nan,nan,nan,nan,nan,nan,nan,nan,nan,nan,nan,nan,nan
1,104,6,1,1,1.0,1.0,0.3543378966860473,0,666.8933454824146,819.335478207795,819.689816104481,nan,nan,4,5,0,2,1,3,nan,nan,nan,nan,nan,nan,0.0,0.0,0.0,0.0,0.0,0.0,nan,nan,nan,nan,nan,nan,nan,nan,nan,nan,nan,nan,nan,nan,nan,nan,nan,nan
1,105,6,1,1,1.0,1.0,0.2575420083012432,0,666.8933454824146,820.3522621106822,820.6098041189834,nan,nan,8,1,3,7,6,0,nan,nan,nan,nan,nan,nan,0.0,0.0,0.0,0.0,0.0,0.0,nan,nan,nan,nan,nan,nan,nan,nan,nan,nan,nan,nan,nan,nan,nan,nan,nan,nan
1,106,6,1,1,1.0,1.0,0.1527101108804345,1,666.8933454824146,821.3690614090301,821.5217715199105,823.1859785660636,831.0285515370779,5,4,2,3,8,7,1.0,1.0,1.0,1.0,1.0,1.0,0.0,1.0,1.0,0.0,0.0,0.0,6.0,1.0,2.0,3.0,4.0,5.0,3.0,4.0,2.0,7.0,6.0,0.0,7.809914622223005,1.2423831538762897,2.228128054877743,3.2034270281437784,4.315333874663338,5.226689174072817
1,107,6,1,1,1.0,1.0,0.3154233950190246,0,666.8933454824146,832.2621169483755,832.5775403433945,nan,nan,6,2,8,4,7,3,nan,nan,nan,nan,nan,nan,0.0,0.0,0.0,0.0,0.0,0.0,nan,nan,nan,nan,nan,nan,nan,nan,nan,nan,nan,nan,nan,nan,nan,nan,nan,nan
1,108,6,1,1,1.0,1.0,0.4106461221817881,0,666.8933454824146,833.2788709162269,833.6895170384087,nan,nan,2,3,7,5,0,6,nan,nan,nan,nan,nan,nan,0.0,0.0,0.0,0.0,0.0,0.0,nan,nan,nan,nan,nan,nan,nan,nan,nan,nan,nan,nan,nan,nan,nan,nan,nan,nan
1,109,6,1,1,1.0,1.0,0.3137724024709314,0,666.8933454824146,834.2957118384074,834.6094842408784,nan,nan,3,4,2,6,5,1,nan,nan,nan,nan,nan,nan,0.0,0.0,0.0,0.0,0.0,0.0,nan,nan,nan,nan,nan,nan,nan,nan,nan,nan,nan,nan,nan,nan,nan,nan,nan,nan
1,110,6,1,1,1.0,1.0,0.3529554649721831,0,666.8933454824146,835.3125091409311,835.6654646059033,nan,nan,4,5,6,3,2,0,nan,nan,nan,nan,nan,nan,0.0,0.0,0.0,0.0,0.0,0.0,nan,nan,nan,nan,nan,nan,nan,nan,nan,nan,nan,nan,nan,nan,nan,nan,nan,nan
1,111,6,1,1,1.0,1.0,0.31214136676862836,0,666.8933454824146,836.3292996012606,836.6414409680292,nan,nan,3,0,1,2,6,4,nan,nan,nan,nan,nan,nan,0.0,0.0,0.0,0.0,0.0,0.0,nan,nan,nan,nan,nan,nan,nan,nan,nan,nan,nan,nan,nan,nan,nan,nan,nan,nan
1,112,6,1,1,1.0,1.0,0.31930384039878845,0,666.8933454824146,837.3461094480008,837.6654132883996,nan,nan,8,2,6,5,0,3,nan,nan,nan,nan,nan,nan,0.0,0.0,0.0,0.0,0.0,0.0,nan,nan,nan,nan,nan,nan,nan,nan,nan,nan,nan,nan,nan,nan,nan,nan,nan,nan
1,113,6,1,1,1.0,1.0,0.3744924929924309,0,666.8933454824146,838.3628922107164,838.7373847037088,nan,nan,1,4,0,7,8,2,nan,nan,nan,nan,nan,nan,0.0,0.0,0.0,0.0,0.0,0.0,nan,nan,nan,nan,nan,nan,nan,nan,nan,nan,nan,nan,nan,nan,nan,nan,nan,nan
1,114,6,1,1,1.0,1.0,0.48564126854762435,0,666.8933454824146,839.3796986362431,839.8653399047907,nan,nan,7,8,1,4,3,0,nan,nan,nan,nan,nan,nan,0.0,0.0,0.0,0.0,0.0,0.0,nan,nan,nan,nan,nan,nan,nan,nan,nan,nan,nan,nan,nan,nan,nan,nan,nan,nan
1,115,6,1,1,1.0,1.0,0.4848321652971208,0,666.8933454824146,840.3964922325686,840.8813243978657,nan,nan,6,2,0,3,8,1,nan,nan,nan,nan,nan,nan,0.0,0.0,0.0,0.0,0.0,0.0,nan,nan,nan,nan,nan,nan,nan,nan,nan,nan,nan,nan,nan,nan,nan,nan,nan,nan
1,116,6,1,1,1.0,1.0,0.43602425255812705,0,666.8933454824146,841.4132952368818,841.84931948944,nan,nan,4,1,5,7,0,8,nan,nan,nan,nan,nan,nan,0.0,0.0,0.0,0.0,0.0,0.0,nan,nan,nan,nan,nan,nan,nan,nan,nan,nan,nan,nan,nan,nan,nan,nan,nan,nan
1,117,6,1,1,1.0,1.0,0.4108938709832728,0,666.8933454824146,842.4383879858069,842.8492818567902,nan,nan,7,0,6,3,5,1,nan,nan,nan,nan,nan,nan,0.0,0.0,0.0,0.0,0.0,0.0,nan,nan,nan,nan,nan,nan,nan,nan,nan,nan,nan,nan,nan,nan,nan,nan,nan,nan
1,118,6,1,1,1.0,1.0,0.4420557492412627,0,666.8933454824146,843.4552038197871,843.8972595690284,nan,nan,8,2,4,6,7,3,nan,nan,nan,nan,nan,nan,0.0,0.0,0.0,0.0,0.0,0.0,nan,nan,nan,nan,nan,nan,nan,nan,nan,nan,nan,nan,nan,nan,nan,nan,nan,nan
1,119,6,1,1,1.0,1.0,0.3372278434690088,0,666.8933454824146,844.47201851313,844.809246356599,nan,nan,0,1,2,4,8,6,nan,nan,nan,nan,nan,nan,0.0,0.0,0.0,0.0,0.0,0.0,nan,nan,nan,nan,nan,nan,nan,nan,nan,nan,nan,nan,nan,nan,nan,nan,nan,nan
1,120,6,1,1,1.0,1.0,0.3843767810612917,0,666.8933454824146,845.4888374828734,845.8732142639346,nan,nan,4,6,1,0,7,2,nan,nan,nan,nan,nan,nan,0.0,0.0,0.0,0.0,0.0,0.0,nan,nan,nan,nan,nan,nan,nan,nan,nan,nan,nan,nan,nan,nan,nan,nan,nan,nan
1,121,6,1,1,1.0,1.0,0.3835557037964463,0,666.8933454824146,846.505613403162,846.8891691069584,nan,nan,5,1,8,6,4,3,nan,nan,nan,nan,nan,nan,0.0,0.0,0.0,0.0,0.0,0.0,nan,nan,nan,nan,nan,nan,nan,nan,nan,nan,nan,nan,nan,nan,nan,nan,nan,nan
1,122,6,1,1,1.0,1.0,0.4547713284846395,0,666.8933454824146,847.5223936000839,847.9771649285685,nan,nan,6,8,4,2,0,5,nan,nan,nan,nan,nan,nan,0.0,0.0,0.0,0.0,0.0,0.0,nan,nan,nan,nan,nan,nan,nan,nan,nan,nan,nan,nan,nan,nan,nan,nan,nan,nan
1,123,6,1,1,1.0,1.0,0.3659564252011478,0,666.8933454824146,848.5391909026075,848.9051473278087,nan,nan,0,7,5,3,1,8,nan,nan,nan,nan,nan,nan,0.0,0.0,0.0,0.0,0.0,0.0,nan,nan,nan,nan,nan,nan,nan,nan,nan,nan,nan,nan,nan,nan,nan,nan,nan,nan
1,124,6,1,1,1.0,1.0,0.35679314588196576,0,666.8933454824146,849.5643440918066,849.9211372376885,nan,nan,4,5,6,0,3,2,nan,nan,nan,nan,nan,nan,0.0,0.0,0.0,0.0,0.0,0.0,nan,nan,nan,nan,nan,nan,nan,nan,nan,nan,nan,nan,nan,nan,nan,nan,nan,nan
1,125,6,1,1,1.0,1.0,0.38797298539429903,0,666.8933454824146,850.5811365477275,850.9691095331218,nan,nan,6,1,2,7,5,8,nan,nan,nan,nan,nan,nan,0.0,0.0,0.0,0.0,0.0,0.0,nan,nan,nan,nan,nan,nan,nan,nan,nan,nan,nan,nan,nan,nan,nan,nan,nan,nan
1,126,6,1,1,1.0,1.0,0.5388131497893482,0,666.8933454824146,851.606258661719,852.1450718115084,nan,nan,8,7,4,5,0,3,nan,nan,nan,nan,nan,nan,0.0,0.0,0.0,0.0,0.0,0.0,nan,nan,nan,nan,nan,nan,nan,nan,nan,nan,nan,nan,nan,nan,nan,nan,nan,nan
1,127,6,1,1,1.0,1.0,0.44198419037275016,0,666.8933454824146,852.6230585300364,853.0650427204091,nan,nan,2,1,3,6,5,4,nan,nan,nan,nan,nan,nan,0.0,0.0,0.0,0.0,0.0,0.0,nan,nan,nan,nan,nan,nan,nan,nan,nan,nan,nan,nan,nan,nan,nan,nan,nan,nan
1,128,6,1,1,1.0,1.0,0.35319180972874165,0,666.8933454824146,853.6398461393546,853.9930379490834,nan,nan,0,3,7,4,2,1,nan,nan,nan,nan,nan,nan,0.0,0.0,0.0,0.0,0.0,0.0,nan,nan,nan,nan,nan,nan,nan,nan,nan,nan,nan,nan,nan,nan,nan,nan,nan,nan
1,129,6,1,1,1.0,1.0,0.320374091854319,0,666.8933454824146,854.6566425866913,854.9770166785456,nan,nan,5,2,4,8,7,6,nan,nan,nan,nan,nan,nan,0.0,0.0,0.0,0.0,0.0,0.0,nan,nan,nan,nan,nan,nan,nan,nan,nan,nan,nan,nan,nan,nan,nan,nan,nan,nan
1,130,6,0,0,1.0,0.0,0.3115463708527386,0,666.8933454824146,855.6734418848064,855.9849882556591,nan,nan,8,3,6,5,4,1,nan,nan,nan,nan,nan,nan,0.0,0.0,0.0,0.0,0.0,0.0,nan,nan,nan,nan,nan,nan,nan,nan,nan,nan,nan,nan,nan,nan,nan,nan,nan,nan
1,131,6,1,1,0.0,0.0,0.05472594127058983,1,666.8933454824146,856.6902394723147,856.7449654135853,858.507119281916,865.6246844341513,7,4,3,1,0,8,1.0,1.0,1.0,1.0,1.0,1.0,0.0,1.0,1.0,0.0,0.0,0.0,6.0,1.0,2.0,3.0,4.0,5.0,4.0,4.0,3.0,6.0,7.0,2.0,7.088197954697534,1.1843446791172028,2.3616021496709436,3.4960384445730597,4.848276892211288,6.272672067629173
1,132,6,0,0,nan,nan,nan,0,666.8933454824146,866.8582113573793,nan,nan,nan,6,2,0,3,5,4,nan,nan,nan,nan,nan,nan,0.0,0.0,0.0,0.0,0.0,0.0,nan,nan,nan,nan,nan,nan,nan,nan,nan,nan,nan,nan,nan,nan,nan,nan,nan,nan
1,133,6,1,1,1.0,1.0,0.6296522368211299,0,666.8933454824146,867.8750112256967,868.5046634625178,nan,nan,2,6,1,8,0,5,nan,nan,nan,nan,nan,nan,0.0,0.0,0.0,0.0,0.0,0.0,nan,nan,nan,nan,nan,nan,nan,nan,nan,nan,nan,nan,nan,nan,nan,nan,nan,nan
1,134,6,1,1,1.0,1.0,0.41287985164672136,0,666.8933454824146,868.8917931329925,869.3046729846392,nan,nan,1,2,6,7,3,8,nan,nan,nan,nan,nan,nan,0.0,0.0,0.0,0.0,0.0,0.0,nan,nan,nan,nan,nan,nan,nan,nan,nan,nan,nan,nan,nan,nan,nan,nan,nan,nan
1,135,6,0,0,0.0,1.0,0.5800406374037266,0,666.8933454824146,869.9086237919983,870.488664429402,nan,nan,2,1,4,6,8,7,nan,nan,nan,nan,nan,nan,0.0,0.0,0.0,0.0,0.0,0.0,nan,nan,nan,nan,nan,nan,nan,nan,nan,nan,nan,nan,nan,nan,nan,nan,nan,nan
1,136,6,1,1,1.0,1.0,0.5792286833748221,0,666.8933454824146,870.9254005674738,871.5046292508487,nan,nan,1,4,2,7,5,6,nan,nan,nan,nan,nan,nan,0.0,0.0,0.0,0.0,0.0,0.0,nan,nan,nan,nan,nan,nan,nan,nan,nan,nan,nan,nan,nan,nan,nan,nan,nan,nan
1,137,6,1,1,1.0,1.0,0.4264033935032785,0,666.8933454824146,871.9422038570046,872.3686072505079,nan,nan,0,2,5,4,6,8,nan,nan,nan,nan,nan,nan,0.0,0.0,0.0,0.0,0.0,0.0,nan,nan,nan,nan,nan,nan,nan,nan,nan,nan,nan,nan,nan,nan,nan,nan,nan,nan
1,138,6,1,1,1.0,1.0,0.3696079384535551,0,666.8933454824146,872.9589806327131,873.3285885711666,nan,nan,6,3,1,2,7,4,nan,nan,nan,nan,nan,nan,0.0,0.0,0.0,0.0,0.0,0.0,nan,nan,nan,nan,nan,nan,nan,nan,nan,nan,nan,nan,nan,nan,nan,nan,nan,nan
1,139,6,1,1,1.0,1.0,0.4007809357717633,0,666.8933454824146,873.9757773650344,874.3765583008062,nan,nan,3,8,0,1,2,5,nan,nan,nan,nan,nan,nan,0.0,0.0,0.0,0.0,0.0,0.0,nan,nan,nan,nan,nan,nan,nan,nan,nan,nan,nan,nan,nan,nan,nan,nan,nan,nan
1,140,6,1,1,1.0,1.0,0.32795508694835007,0,666.8933454824146,874.9925883521792,875.3205434391275,nan,nan,2,4,1,7,6,8,nan,nan,nan,nan,nan,nan,0.0,0.0,0.0,0.0,0.0,0.0,nan,nan,nan,nan,nan,nan,nan,nan,nan,nan,nan,nan,nan,nan,nan,nan,nan,nan
1,141,6,1,1,1.0,1.0,0.38311351952143013,0,666.8933454824146,876.0093919266947,876.3925054462161,nan,nan,1,3,7,2,0,6,nan,nan,nan,nan,nan,nan,0.0,0.0,0.0,0.0,0.0,0.0,nan,nan,nan,nan,nan,nan,nan,nan,nan,nan,nan,nan,nan,nan,nan,nan,nan,nan
1,142,6,1,1,1.0,1.0,0.3663036725483835,0,666.8933454824146,877.0261940760538,877.3924977486022,nan,nan,0,5,3,8,4,7,nan,nan,nan,nan,nan,nan,0.0,0.0,0.0,0.0,0.0,0.0,nan,nan,nan,nan,nan,nan,nan,nan,nan,nan,nan,nan,nan,nan,nan,nan,nan,nan
1,143,6,1,1,1.0,1.0,0.3334825336933136,0,666.8933454824146,878.0429756981321,878.3764582318254,nan,nan,8,4,7,1,6,5,nan,nan,nan,nan,nan,nan,0.0,0.0,0.0,0.0,0.0,0.0,nan,nan,nan,nan,nan,nan,nan,nan,nan,nan,nan,nan,nan,nan,nan,nan,nan,nan
1,144,6,0,0,1.0,0.0,0.3086794426199049,0,666.8933454824146,879.0597687242553,879.3684481668752,nan,nan,6,0,3,7,8,1,nan,nan,nan,nan,nan,nan,0.0,0.0,0.0,0.0,0.0,0.0,nan,nan,nan,nan,nan,nan,nan,nan,nan,nan,nan,nan,nan,nan,nan,nan,nan,nan
1,145,6,1,1,1.0,1.0,0.539829232962802,0,666.8933454824146,880.0765740096103,880.6164032425731,nan,nan,7,4,1,8,5,0,nan,nan,nan,nan,nan,nan,0.0,0.0,0.0,0.0,0.0,0.0,nan,nan,nan,nan,nan,nan,nan,nan,nan,nan,nan,nan,nan,nan,nan,nan,nan,nan
1,146,6,1,1,1.0,1.0,0.6670129636768252,0,666.8933454824146,881.0933710269164,881.7603839905933,nan,nan,8,6,5,4,0,3,nan,nan,nan,nan,nan,nan,0.0,0.0,0.0,0.0,0.0,0.0,nan,nan,nan,nan,nan,nan,nan,nan,nan,nan,nan,nan,nan,nan,nan,nan,nan,nan
1,147,6,1,1,1.0,1.0,0.41823509987443686,0,666.8933454824146,882.1101292714011,882.5283643712755,nan,nan,4,8,3,5,1,0,nan,nan,nan,nan,nan,nan,0.0,0.0,0.0,0.0,0.0,0.0,nan,nan,nan,nan,nan,nan,nan,nan,nan,nan,nan,nan,nan,nan,nan,nan,nan,nan
1,148,6,1,1,1.0,1.0,0.3854125358629972,0,666.8933454824146,883.1269513771404,883.5123639130034,nan,nan,0,5,7,3,8,6,nan,nan,nan,nan,nan,nan,0.0,0.0,0.0,0.0,0.0,0.0,nan,nan,nan,nan,nan,nan,nan,nan,nan,nan,nan,nan,nan,nan,nan,nan,nan,nan
1,149,6,1,1,1.0,1.0,0.280248501105234,0,666.8933454824146,884.1520828993525,884.4323314004578,nan,nan,4,2,8,0,3,5,nan,nan,nan,nan,nan,nan,0.0,0.0,0.0,0.0,0.0,0.0,nan,nan,nan,nan,nan,nan,nan,nan,nan,nan,nan,nan,nan,nan,nan,nan,nan,nan
1,150,6,1,1,1.0,1.0,0.23942927131429315,0,666.8933454824146,885.1688844782766,885.4083137495909,nan,nan,5,4,3,7,0,2,nan,nan,nan,nan,nan,nan,0.0,0.0,0.0,0.0,0.0,0.0,nan,nan,nan,nan,nan,nan,nan,nan,nan,nan,nan,nan,nan,nan,nan,nan,nan,nan
1,151,6,1,1,1.0,1.0,0.13423074060119689,1,666.8933454824146,886.194051922299,886.3282826629002,888.0192277485039,894.0033538728021,3,1,2,4,8,5,1.0,1.0,1.0,1.0,1.0,1.0,0.0,0.0,0.0,0.0,0.0,0.0,6.0,1.0,2.0,3.0,4.0,5.0,8.0,4.0,3.0,6.0,2.0,7.0,5.9513805359601974,1.4634029034059495,2.511145696276799,3.624964968767017,4.454956355970353,5.303660607663915
1,152,6,1,1,nan,nan,nan,0,666.8933454824146,895.2368522863835,nan,nan,nan,2,0,8,3,5,6,nan,nan,nan,nan,nan,nan,0.0,0.0,0.0,0.0,0.0,0.0,nan,nan,nan,nan,nan,nan,nan,nan,nan,nan,nan,nan,nan,nan,nan,nan,nan,nan
1,153,6,1,1,1.0,1.0,0.48203337495215237,0,666.8933454824146,896.2619635665324,896.7439969414845,nan,nan,7,6,3,8,1,0,nan,nan,nan,nan,nan,nan,0.0,0.0,0.0,0.0,0.0,0.0,nan,nan,nan,nan,nan,nan,nan,nan,nan,nan,nan,nan,nan,nan,nan,nan,nan,nan
1,154,6,1,1,1.0,1.0,0.521238389890641,0,666.8933454824146,897.2787742684595,897.8000126583502,nan,nan,2,1,4,7,3,6,nan,nan,nan,nan,nan,nan,0.0,0.0,0.0,0.0,0.0,0.0,nan,nan,nan,nan,nan,nan,nan,nan,nan,nan,nan,nan,nan,nan,nan,nan,nan,nan
1,155,6,1,1,1.0,1.0,0.3924301804509014,0,666.8933454824146,898.2955687202048,898.6879989006557,nan,nan,4,2,3,1,0,5,nan,nan,nan,nan,nan,nan,0.0,0.0,0.0,0.0,0.0,0.0,nan,nan,nan,nan,nan,nan,nan,nan,nan,nan,nan,nan,nan,nan,nan,nan,nan,nan
1,156,6,0,0,1.0,0.0,0.3996057689655572,0,666.8933454824146,899.3123640269041,899.7119697958697,nan,nan,2,8,6,3,5,0,nan,nan,nan,nan,nan,nan,0.0,0.0,0.0,0.0,0.0,0.0,nan,nan,nan,nan,nan,nan,nan,nan,nan,nan,nan,nan,nan,nan,nan,nan,nan,nan
1,157,6,1,1,1.0,1.0,0.5987603443209082,0,666.8933454824146,900.3291576232295,900.9279179675505,nan,nan,7,6,2,5,0,8,nan,nan,nan,nan,nan,nan,0.0,0.0,0.0,0.0,0.0,0.0,nan,nan,nan,nan,nan,nan,nan,nan,nan,nan,nan,nan,nan,nan,nan,nan,nan,nan
1,158,6,1,1,1.0,1.0,0.6379488236270845,0,666.8933454824146,901.3459560661577,901.9839048897848,nan,nan,2,1,8,4,6,3,nan,nan,nan,nan,nan,nan,0.0,0.0,0.0,0.0,0.0,0.0,nan,nan,nan,nan,nan,nan,nan,nan,nan,nan,nan,nan,nan,nan,nan,nan,nan,nan
1,159,6,1,1,1.0,1.0,0.4768095558974892,1,666.8933454824146,902.371075329138,902.8478848850355,904.196297055576,909.4636335463729,1,4,6,0,3,7,1.0,1.0,1.0,1.0,1.0,1.0,0.0,1.0,1.0,0.0,0.0,0.0,6.0,1.0,2.0,3.0,4.0,5.0,8.0,4.0,6.0,3.0,2.0,0.0,5.238002934725955,1.4307360018137842,2.1658214037306607,3.0223963083699346,3.806256551994011,4.510199747048318
1,160,6,1,1,nan,nan,nan,0,666.8933454824146,910.6971499212086,nan,nan,nan,5,6,2,1,4,8,nan,nan,nan,nan,nan,nan,0.0,0.0,0.0,0.0,0.0,0.0,nan,nan,nan,nan,nan,nan,nan,nan,nan,nan,nan,nan,nan,nan,nan,nan,nan,nan
1,161,6,1,1,1.0,1.0,0.021751135354861617,0,666.8933454824146,911.7139734525699,911.7357245879248,nan,nan,6,8,4,3,7,2,nan,nan,nan,nan,nan,nan,0.0,0.0,0.0,0.0,0.0,0.0,nan,nan,nan,nan,nan,nan,nan,nan,nan,nan,nan,nan,nan,nan,nan,nan,nan,nan
1,162,6,1,1,1.0,1.0,0.1569423652254045,1,666.8933454824146,912.7307462368626,912.887688602088,914.5559559892863,920.6733994055539,4,5,1,6,3,0,1.0,1.0,1.0,1.0,1.0,1.0,0.0,1.0,0.0,1.0,0.0,0.0,6.0,1.0,2.0,3.0,4.0,5.0,2.0,5.0,4.0,6.0,8.0,3.0,6.0861583759542555,1.1689218257088214,2.1098133844789118,3.254553343867883,4.301693728426471,5.07043560128659
1,163,6,0,0,nan,nan,nan,0,666.8933454824146,921.9069174907636,nan,nan,nan,3,4,8,0,2,6,nan,nan,nan,nan,nan,nan,0.0,0.0,0.0,0.0,0.0,0.0,nan,nan,nan,nan,nan,nan,nan,nan,nan,nan,nan,nan,nan,nan,nan,nan,nan,nan
1,164,6,1,1,nan,nan,nan,0,666.8933454824146,922.9236965470482,nan,nan,nan,1,3,6,5,7,0,nan,nan,nan,nan,nan,nan,0.0,0.0,0.0,0.0,0.0,0.0,nan,nan,nan,nan,nan,nan,nan,nan,nan,nan,nan,nan,nan,nan,nan,nan,nan,nan
1,165,6,1,1,nan,nan,nan,0,666.8933454824146,923.9405012619682,nan,nan,nan,0,1,7,4,6,8,nan,nan,nan,nan,nan,nan,0.0,0.0,0.0,0.0,0.0,0.0,nan,nan,nan,nan,nan,nan,nan,nan,nan,nan,nan,nan,nan,nan,nan,nan,nan,nan
1,166,6,1,1,nan,nan,nan,0,666.8933454824146,924.9573011305183,nan,nan,nan,3,0,8,6,1,4,nan,nan,nan,nan,nan,nan,0.0,0.0,0.0,0.0,0.0,0.0,nan,nan,nan,nan,nan,nan,nan,nan,nan,nan,nan,nan,nan,nan,nan,nan,nan,nan
1,167,6,1,1,1.0,1.0,0.3452835239004344,0,666.8933454824146,925.9740958672483,926.3193793911487,nan,nan,0,6,2,8,7,3,nan,nan,nan,nan,nan,nan,0.0,0.0,0.0,0.0,0.0,0.0,nan,nan,nan,nan,nan,nan,nan,nan,nan,nan,nan,nan,nan,nan,nan,nan,nan,nan
1,168,6,0,0,1.0,0.0,0.13642170513048768,0,666.8933454824146,926.9909117009956,927.1273334061261,nan,nan,6,3,1,0,4,5,nan,nan,nan,nan,nan,nan,0.0,0.0,0.0,0.0,0.0,0.0,nan,nan,nan,nan,nan,nan,nan,nan,nan,nan,nan,nan,nan,nan,nan,nan,nan,nan
1,169,6,1,1,1.0,1.0,0.5755999779794365,0,666.8933454824146,928.0076967442874,928.5832967222668,nan,nan,5,1,7,6,3,0,nan,nan,nan,nan,nan,nan,0.0,0.0,0.0,0.0,0.0,0.0,nan,nan,nan,nan,nan,nan,nan,nan,nan,nan,nan,nan,nan,nan,nan,nan,nan,nan
1,170,6,0,0,0.0,1.0,0.5827960930764675,0,666.8933454824146,929.0244889152236,929.6072850083001,nan,nan,6,7,1,3,5,2,nan,nan,nan,nan,nan,nan,0.0,0.0,0.0,0.0,0.0,0.0,nan,nan,nan,nan,nan,nan,nan,nan,nan,nan,nan,nan,nan,nan,nan,nan,nan,nan
1,171,6,1,1,1.0,1.0,0.46196003118529916,0,666.8933454824146,930.041285647545,930.5032456787303,nan,nan,2,5,3,7,0,4,nan,nan,nan,nan,nan,nan,0.0,0.0,0.0,0.0,0.0,0.0,nan,nan,nan,nan,nan,nan,nan,nan,nan,nan,nan,nan,nan,nan,nan,nan,nan,nan
1,172,6,0,0,0.0,1.0,0.6851570610888302,0,666.8933454824146,931.0580755374394,931.7432325985283,nan,nan,1,0,2,8,3,5,nan,nan,nan,nan,nan,nan,0.0,0.0,0.0,0.0,0.0,0.0,nan,nan,nan,nan,nan,nan,nan,nan,nan,nan,nan,nan,nan,nan,nan,nan,nan,nan
1,173,6,1,1,1.0,1.0,0.5323163757566363,1,666.8933454824146,932.0748885204084,932.6072048961651,933.9000894348137,940.0008703989442,6,1,7,3,8,4,1.0,1.0,1.0,1.0,1.0,1.0,0.0,1.0,1.0,1.0,0.0,0.0,6.0,1.0,2.0,3.0,4.0,5.0,7.0,1.0,7.0,3.0,2.0,0.0,6.069455155404285,1.2698185390327126,2.1336759431287646,3.174245143542066,4.58139113872312,5.285627983044833
1,174,6,1,1,nan,nan,nan,0,666.8933454824146,941.2343802165706,nan,nan,nan,8,5,1,6,2,3,nan,nan,nan,nan,nan,nan,0.0,0.0,0.0,0.0,0.0,0.0,nan,nan,nan,nan,nan,nan,nan,nan,nan,nan,nan,nan,nan,nan,nan,nan,nan,nan
1,175,6,1,1,1.0,1.0,0.34782401705160737,0,666.8933454824146,942.2511381756049,942.5989621926565,nan,nan,1,0,6,2,7,4,nan,nan,nan,nan,nan,nan,0.0,0.0,0.0,0.0,0.0,0.0,nan,nan,nan,nan,nan,nan,nan,nan,nan,nan,nan,nan,nan,nan,nan,nan,nan,nan
1,176,6,0,0,0.0,1.0,0.650601111119613,0,666.8933454824146,943.2763113218825,943.9269124330021,nan,nan,3,7,8,5,1,0,nan,nan,nan,nan,nan,nan,0.0,0.0,0.0,0.0,0.0,0.0,nan,nan,nan,nan,nan,nan,nan,nan,nan,nan,nan,nan,nan,nan,nan,nan,nan,nan
1,177,6,1,1,1.0,1.0,0.5537744322791696,0,666.8933454824146,944.2931322874501,944.8469067197293,nan,nan,6,0,5,3,8,2,nan,nan,nan,nan,nan,nan,0.0,0.0,0.0,0.0,0.0,0.0,nan,nan,nan,nan,nan,nan,nan,nan,nan,nan,nan,nan,nan,nan,nan,nan,nan,nan
1,178,6,1,1,1.0,1.0,0.43300707871094346,0,666.8933454824146,945.3099045013078,945.7429115800187,nan,nan,5,4,6,2,3,7,nan,nan,nan,nan,nan,nan,0.0,0.0,0.0,0.0,0.0,0.0,nan,nan,nan,nan,nan,nan,nan,nan,nan,nan,nan,nan,nan,nan,nan,nan,nan,nan
1,179,6,1,1,1.0,1.0,0.3921755896881223,0,666.8933454824146,946.3266961020418,946.7188716917299,nan,nan,0,1,5,3,4,8,nan,nan,nan,nan,nan,nan,0.0,0.0,0.0,0.0,0.0,0.0,nan,nan,nan,nan,nan,nan,nan,nan,nan,nan,nan,nan,nan,nan,nan,nan,nan,nan
1,180,6,1,1,1.0,1.0,0.3513580705039203,0,666.8933454824146,947.343503667973,947.6948617384769,nan,nan,6,4,2,0,5,1,nan,nan,nan,nan,nan,nan,0.0,0.0,0.0,0.0,0.0,0.0,nan,nan,nan,nan,nan,nan,nan,nan,nan,nan,nan,nan,nan,nan,nan,nan,nan,nan
1,181,6,1,1,1.0,1.0,0.3585402157623321,0,666.8933454824146,948.3602924176957,948.7188326334581,nan,nan,0,1,5,7,2,6,nan,nan,nan,nan,nan,nan,0.0,0.0,0.0,0.0,0.0,0.0,nan,nan,nan,nan,nan,nan,nan,nan,nan,nan,nan,nan,nan,nan,nan,nan,nan,nan
1,182,6,1,1,1.0,1.0,0.43770147394388914,0,666.8933454824146,949.3771065408364,949.8148080147803,nan,nan,5,8,7,4,6,2,nan,nan,nan,nan,nan,nan,0.0,0.0,0.0,0.0,0.0,0.0,nan,nan,nan,nan,nan,nan,nan,nan,nan,nan,nan,nan,nan,nan,nan,nan,nan,nan
1,183,6,1,1,1.0,1.0,0.4528857017867267,0,666.8933454824146,950.393901562551,950.8467872643378,nan,nan,2,3,5,6,1,8,nan,nan,nan,nan,nan,nan,0.0,0.0,0.0,0.0,0.0,0.0,nan,nan,nan,nan,nan,nan,nan,nan,nan,nan,nan,nan,nan,nan,nan,nan,nan,nan
1,184,6,1,1,1.0,1.0,0.3800706868059933,0,666.8933454824146,951.4106937334873,951.7907644202933,nan,nan,8,1,0,2,6,3,nan,nan,nan,nan,nan,nan,0.0,0.0,0.0,0.0,0.0,0.0,nan,nan,nan,nan,nan,nan,nan,nan,nan,nan,nan,nan,nan,nan,nan,nan,nan,nan
1,185,6,1,1,1.0,1.0,0.3069235347211361,0,666.8933454824146,952.4358047284186,952.7427282631397,nan,nan,6,3,8,5,2,1,nan,nan,nan,nan,nan,nan,0.0,0.0,0.0,0.0,0.0,0.0,nan,nan,nan,nan,nan,nan,nan,nan,nan,nan,nan,nan,nan,nan,nan,nan,nan,nan
1,186,6,1,1,1.0,1.0,0.42608123482204974,0,666.8933454824146,953.4526108689606,953.8786921037827,nan,nan,1,5,6,7,4,3,nan,nan,nan,nan,nan,nan,0.0,0.0,0.0,0.0,0.0,0.0,nan,nan,nan,nan,nan,nan,nan,nan,nan,nan,nan,nan,nan,nan,nan,nan,nan,nan
1,187,6,1,1,1.0,1.0,0.3289195678662509,0,666.8933454824146,954.4777640583925,954.8066836262587,nan,nan,7,3,0,1,5,2,nan,nan,nan,nan,nan,nan,0.0,0.0,0.0,0.0,0.0,0.0,nan,nan,nan,nan,nan,nan,nan,nan,nan,nan,nan,nan,nan,nan,nan,nan,nan,nan
1,188,6,1,1,1.0,1.0,0.21613605017773807,0,666.8933454824146,955.4945379830897,955.7106740332674,nan,nan,4,2,5,7,6,0,nan,nan,nan,nan,nan,nan,0.0,0.0,0.0,0.0,0.0,0.0,nan,nan,nan,nan,nan,nan,nan,nan,nan,nan,nan,nan,nan,nan,nan,nan,nan,nan
1,189,6,1,1,1.0,1.0,0.2712779468856752,0,666.8933454824146,956.5113578082528,956.7826357551385,nan,nan,7,3,0,4,5,1,nan,nan,nan,nan,nan,nan,0.0,0.0,0.0,0.0,0.0,0.0,nan,nan,nan,nan,nan,nan,nan,nan,nan,nan,nan,nan,nan,nan,nan,nan,nan,nan
1,190,6,1,1,1.0,1.0,0.11048792232759297,1,666.8933454824146,957.5281402857509,957.6386282080784,959.3616871086415,968.0627941659186,0,5,4,6,7,2,1.0,1.0,1.0,1.0,1.0,1.0,1.0,1.0,0.0,1.0,0.0,0.0,6.0,1.0,2.0,3.0,4.0,5.0,0.0,5.0,5.0,6.0,2.0,1.0,8.671220129355788,1.1363341808319092,1.9856439768336713,3.519824027083814,6.111417336156592,7.119192481972277
1,191,6,1,1,1.0,1.0,0.39771529543213546,0,666.8933454824146,969.3046504619997,969.7023657574318,nan,nan,4,6,5,2,0,3,nan,nan,nan,nan,nan,nan,0.0,0.0,0.0,0.0,0.0,0.0,nan,nan,nan,nan,nan,nan,nan,nan,nan,nan,nan,nan,nan,nan,nan,nan,nan,nan
1,192,6,1,1,1.0,1.0,0.3968782527372241,0,666.8933454824146,970.3214320843108,970.718310337048,nan,nan,7,5,1,8,3,6,nan,nan,nan,nan,nan,nan,0.0,0.0,0.0,0.0,0.0,0.0,nan,nan,nan,nan,nan,nan,nan,nan,nan,nan,nan,nan,nan,nan,nan,nan,nan,nan
1,193,6,1,1,1.0,1.0,0.46004760544747114,0,666.8933454824146,971.3382510540541,971.7982986595016,nan,nan,4,3,0,6,7,8,nan,nan,nan,nan,nan,nan,0.0,0.0,0.0,0.0,0.0,0.0,nan,nan,nan,nan,nan,nan,nan,nan,nan,nan,nan,nan,nan,nan,nan,nan,nan,nan
1,194,6,1,1,1.0,1.0,0.40291231544688344,0,666.8933454824146,972.3633717426565,972.7662840581033,nan,nan,1,8,5,0,3,4,nan,nan,nan,nan,nan,nan,0.0,0.0,0.0,0.0,0.0,0.0,nan,nan,nan,nan,nan,nan,nan,nan,nan,nan,nan,nan,nan,nan,nan,nan,nan,nan
1,195,6,1,1,1.0,1.0,0.3701037208084017,0,666.8933454824146,973.3801619177684,973.7502656385768,nan,nan,4,2,7,1,0,6,nan,nan,nan,nan,nan,nan,0.0,0.0,0.0,0.0,0.0,0.0,nan,nan,nan,nan,nan,nan,nan,nan,nan,nan,nan,nan,nan,nan,nan,nan,nan,nan
1,196,6,1,1,1.0,1.0,0.39327121479436755,0,666.8933454824146,974.3969637816772,974.7902349964716,nan,nan,1,5,0,4,8,3,nan,nan,nan,nan,nan,nan,0.0,0.0,0.0,0.0,0.0,0.0,nan,nan,nan,nan,nan,nan,nan,nan,nan,nan,nan,nan,nan,nan,nan,nan,nan,nan
1,197,6,1,1,1.0,1.0,0.320441659539938,0,666.8933454824146,975.4137647906318,975.7342064501718,nan,nan,6,8,3,7,1,0,nan,nan,nan,nan,nan,nan,0.0,0.0,0.0,0.0,0.0,0.0,nan,nan,nan,nan,nan,nan,nan,nan,nan,nan,nan,nan,nan,nan,nan,nan,nan,nan
1,198,6,1,1,1.0,1.0,0.30363067262806,0,666.8933454824146,976.43055724632,976.734187918948,nan,nan,2,5,0,1,6,3,nan,nan,nan,nan,nan,nan,0.0,0.0,0.0,0.0,0.0,0.0,nan,nan,nan,nan,nan,nan,nan,nan,nan,nan,nan,nan,nan,nan,nan,nan,nan,nan
1,199,6,1,1,1.0,1.0,0.31879893504083157,0,666.8933454824146,977.4473650974687,977.7661640325096,nan,nan,7,0,6,8,2,5,nan,nan,nan,nan,nan,nan,0.0,0.0,0.0,0.0,0.0,0.0,nan,nan,nan,nan,nan,nan,nan,nan,nan,nan,nan,nan,nan,nan,nan,nan,nan,nan
1,200,6,1,1,1.0,1.0,0.33399029029533267,0,666.8933454824146,978.4641487153713,978.7981390056666,nan,nan,6,3,0,1,5,7,nan,nan,nan,nan,nan,nan,0.0,0.0,0.0,0.0,0.0,0.0,nan,nan,nan,nan,nan,nan,nan,nan,nan,nan,nan,nan,nan,nan,nan,nan,nan,nan
1,201,6,1,1,1.0,1.0,0.3011873974464834,0,666.8933454824146,979.4809485839214,979.7821359813679,nan,nan,8,0,7,5,4,2,nan,nan,nan,nan,nan,nan,0.0,0.0,0.0,0.0,0.0,0.0,nan,nan,nan,nan,nan,nan,nan,nan,nan,nan,nan,nan,nan,nan,nan,nan,nan,nan
1,202,6,1,1,1.0,1.0,0.30033980612643063,0,666.8933454824146,980.4977470268495,980.798086832976,nan,nan,3,1,2,4,5,0,nan,nan,nan,nan,nan,nan,0.0,0.0,0.0,0.0,0.0,0.0,nan,nan,nan,nan,nan,nan,nan,nan,nan,nan,nan,nan,nan,nan,nan,nan,nan,nan
1,203,6,1,1,1.0,1.0,0.2675212330650538,0,666.8933454824146,981.5145454697777,981.7820667028427,nan,nan,8,7,3,6,0,5,nan,nan,nan,nan,nan,nan,0.0,0.0,0.0,0.0,0.0,0.0,nan,nan,nan,nan,nan,nan,nan,nan,nan,nan,nan,nan,nan,nan,nan,nan,nan,nan
1,204,6,0,0,1.0,0.0,0.2507036889437586,0,666.8933454824146,982.531343057286,982.7820467462298,nan,nan,6,2,5,8,7,3,nan,nan,nan,nan,nan,nan,0.0,0.0,0.0,0.0,0.0,0.0,nan,nan,nan,nan,nan,nan,nan,nan,nan,nan,nan,nan,nan,nan,nan,nan,nan,nan
1,205,6,1,1,1.0,1.0,0.29755270504392684,0,666.8933454824146,983.5564663114492,983.8540190164931,nan,nan,1,8,7,6,5,4,nan,nan,nan,nan,nan,nan,0.0,0.0,0.0,0.0,0.0,0.0,nan,nan,nan,nan,nan,nan,nan,nan,nan,nan,nan,nan,nan,nan,nan,nan,nan,nan
1,206,6,1,1,1.0,1.0,0.29673419357277453,0,666.8933454824146,984.5732818602119,984.8700160537846,nan,nan,8,6,4,3,1,2,nan,nan,nan,nan,nan,nan,0.0,0.0,0.0,0.0,0.0,0.0,nan,nan,nan,nan,nan,nan,nan,nan,nan,nan,nan,nan,nan,nan,nan,nan,nan,nan
1,207,6,1,1,1.0,1.0,0.33591554523445666,0,666.8933454824146,985.5900760267396,985.925991571974,nan,nan,6,0,2,5,4,1,nan,nan,nan,nan,nan,nan,0.0,0.0,0.0,0.0,0.0,0.0,nan,nan,nan,nan,nan,nan,nan,nan,nan,nan,nan,nan,nan,nan,nan,nan,nan,nan
1,208,6,1,1,1.0,1.0,0.3111121691763401,0,666.8933454824146,986.6068428240251,986.9179549932014,nan,nan,4,5,7,3,0,8,nan,nan,nan,nan,nan,nan,0.0,0.0,0.0,0.0,0.0,0.0,nan,nan,nan,nan,nan,nan,nan,nan,nan,nan,nan,nan,nan,nan,nan,nan,nan,nan
1,209,6,1,1,1.0,1.0,0.2862848446238786,0,666.8933454824146,987.6236489645671,987.909933809191,nan,nan,0,8,1,6,7,3,nan,nan,nan,nan,nan,nan,0.0,0.0,0.0,0.0,0.0,0.0,nan,nan,nan,nan,nan,nan,nan,nan,nan,nan,nan,nan,nan,nan,nan,nan,nan,nan
1,210,6,1,1,1.0,1.0,0.16547387116588652,1,666.8933454824146,988.6404391396791,988.805913010845,990.4656668531243,997.4498881995678,4,3,5,1,0,2,1.0,1.0,1.0,1.0,1.0,1.0,0.0,0.0,1.0,1.0,0.0,0.0,6.0,1.0,2.0,3.0,4.0,5.0,6.0,8.0,5.0,1.0,2.0,0.0,6.950650119222701,1.3454178043175489,2.56743710138835,3.6147499692160636,4.991334783611819,5.926199407083914
1,211,6,1,1,nan,nan,nan,0,666.8933454824146,998.675065793097,nan,nan,nan,1,2,7,0,5,4,nan,nan,nan,nan,nan,nan,0.0,0.0,0.0,0.0,0.0,0.0,nan,nan,nan,nan,nan,nan,nan,nan,nan,nan,nan,nan,nan,nan,nan,nan,nan,nan
1,212,6,1,1,1.0,1.0,0.6734398889821023,0,666.8933454824146,999.7002010215074,1000.3736409104895,nan,nan,0,4,8,6,1,5,nan,nan,nan,nan,nan,nan,0.0,0.0,0.0,0.0,0.0,0.0,nan,nan,nan,nan,nan,nan,nan,nan,nan,nan,nan,nan,nan,nan,nan,nan,nan,nan
1,213,6,1,1,1.0,1.0,0.5686168298125267,1,666.8933454824146,1000.7170071620494,1001.2856239918619,1002.5422132082749,1009.7264569632243,2,5,0,4,7,6,1.0,1.0,1.0,1.0,1.0,1.0,0.0,1.0,1.0,0.0,0.0,0.0,6.0,1.0,2.0,3.0,4.0,5.0,7.0,5.0,0.0,6.0,2.0,1.0,7.153772664722055,1.2509585649240762,2.8337036257144064,4.090891544474289,5.338038942310959,6.274231829447672
1,214,6,0,0,nan,nan,nan,0,666.8933454824146,1010.9516009155195,nan,nan,nan,7,1,6,2,8,3,nan,nan,nan,nan,nan,nan,0.0,0.0,0.0,0.0,0.0,0.0,nan,nan,nan,nan,nan,nan,nan,nan,nan,nan,nan,nan,nan,nan,nan,nan,nan,nan
1,215,6,1,1,0.0,0.0,0.036921108374372125,0,666.8933454824146,1011.9684415527154,1012.0053626610897,nan,nan,6,7,8,4,5,0,nan,nan,nan,nan,nan,nan,0.0,0.0,0.0,0.0,0.0,0.0,nan,nan,nan,nan,nan,nan,nan,nan,nan,nan,nan,nan,nan,nan,nan,nan,nan,nan
1,216,6,1,1,1.0,1.0,0.5880897608585656,0,666.8933454824146,1012.985232012812,1013.5733217736706,nan,nan,0,6,3,5,7,1,nan,nan,nan,nan,nan,nan,0.0,0.0,0.0,0.0,0.0,0.0,nan,nan,nan,nan,nan,nan,nan,nan,nan,nan,nan,nan,nan,nan,nan,nan,nan,nan
1,217,6,1,1,1.0,1.0,0.3552824205253273,0,666.8933454824146,1014.0020213327371,1014.3573037532624,nan,nan,8,7,4,1,0,5,nan,nan,nan,nan,nan,nan,0.0,0.0,0.0,0.0,0.0,0.0,nan,nan,nan,nan,nan,nan,nan,nan,nan,nan,nan,nan,nan,nan,nan,nan,nan,nan
1,218,6,1,1,1.0,1.0,0.2904743344988674,0,666.8933454824146,1015.018816069467,1015.3092904039659,nan,nan,0,1,5,4,6,8,nan,nan,nan,nan,nan,nan,0.0,0.0,0.0,0.0,0.0,0.0,nan,nan,nan,nan,nan,nan,nan,nan,nan,nan,nan,nan,nan,nan,nan,nan,nan,nan
1,219,6,1,1,1.0,1.0,0.3936441205441952,0,666.8933454824146,1016.0356145123951,1016.4292586329393,nan,nan,6,0,4,3,8,2,nan,nan,nan,nan,nan,nan,0.0,0.0,0.0,0.0,0.0,0.0,nan,nan,nan,nan,nan,nan,nan,nan,nan,nan,nan,nan,nan,nan,nan,nan,nan,nan
1,220,6,1,1,1.0,1.0,0.3448433354496956,0,666.8933454824146,1017.0524075382855,1017.3972508737352,nan,nan,1,3,0,7,6,8,nan,nan,nan,nan,nan,nan,0.0,0.0,0.0,0.0,0.0,0.0,nan,nan,nan,nan,nan,nan,nan,nan,nan,nan,nan,nan,nan,nan,nan,nan,nan,nan
1,221,6,1,1,1.0,1.0,0.30398704297840595,0,666.8933454824146,1018.0692424736917,1018.3732295166701,nan,nan,8,5,4,1,3,0,nan,nan,nan,nan,nan,nan,0.0,0.0,0.0,0.0,0.0,0.0,nan,nan,nan,nan,nan,nan,nan,nan,nan,nan,nan,nan,nan,nan,nan,nan,nan,nan
1,222,6,1,1,1.0,1.0,0.3348498553968966,0,666.8933454824146,1019.0943449158221,1019.429194771219,nan,nan,7,1,6,2,4,3,nan,nan,nan,nan,nan,nan,0.0,0.0,0.0,0.0,0.0,0.0,nan,nan,nan,nan,nan,nan,nan,nan,nan,nan,nan,nan,nan,nan,nan,nan,nan,nan
1,223,6,1,1,1.0,1.0,0.3740314922761172,0,666.8933454824146,1020.1111493457574,1020.4851808380336,nan,nan,1,2,0,6,5,7,nan,nan,nan,nan,nan,nan,0.0,0.0,0.0,0.0,0.0,0.0,nan,nan,nan,nan,nan,nan,nan,nan,nan,nan,nan,nan,nan,nan,nan,nan,nan,nan
1,224,6,1,1,1.0,1.0,0.5092030505184084,0,666.8933454824146,1021.1279346742667,1021.6371377247851,nan,nan,4,3,7,0,1,8,nan,nan,nan,nan,nan,nan,0.0,0.0,0.0,0.0,0.0,0.0,nan,nan,nan,nan,nan,nan,nan,nan,nan,nan,nan,nan,nan,nan,nan,nan,nan,nan
1,225,6,1,1,1.0,1.0,0.4043951011262834,0,666.8933454824146,1022.1447316918056,1022.5491267929319,nan,nan,7,8,4,5,3,6,nan,nan,nan,nan,nan,nan,0.0,0.0,0.0,0.0,0.0,0.0,nan,nan,nan,nan,nan,nan,nan,nan,nan,nan,nan,nan,nan,nan,nan,nan,nan,nan
1,226,6,1,1,1.0,1.0,0.41959130321629345,0,666.8933454824146,1023.1615155946929,1023.5811068979092,nan,nan,0,2,8,6,4,1,nan,nan,nan,nan,nan,nan,0.0,0.0,0.0,0.0,0.0,0.0,nan,nan,nan,nan,nan,nan,nan,nan,nan,nan,nan,nan,nan,nan,nan,nan,nan,nan
1,227,6,1,1,1.0,1.0,0.3787418529391289,0,666.8933454824146,1024.178330003051,1024.5570718559902,nan,nan,3,5,7,2,0,6,nan,nan,nan,nan,nan,nan,0.0,0.0,0.0,0.0,0.0,0.0,nan,nan,nan,nan,nan,nan,nan,nan,nan,nan,nan,nan,nan,nan,nan,nan,nan,nan
1,228,6,0,0,1.0,0.0,0.38592741964384913,0,666.8933454824146,1025.1951307267882,1025.581058146432,nan,nan,1,8,0,7,2,4,nan,nan,nan,nan,nan,nan,0.0,0.0,0.0,0.0,0.0,0.0,nan,nan,nan,nan,nan,nan,nan,nan,nan,nan,nan,nan,nan,nan,nan,nan,nan,nan
1,229,6,1,1,1.0,1.0,0.6490581701509655,0,666.8933454824146,1026.21193173551,1026.860989905661,nan,nan,6,3,8,2,5,7,nan,nan,nan,nan,nan,nan,0.0,0.0,0.0,0.0,0.0,0.0,nan,nan,nan,nan,nan,nan,nan,nan,nan,nan,nan,nan,nan,nan,nan,nan,nan,nan
1,230,6,1,1,1.0,1.0,0.6322674248367548,1,666.8933454824146,1027.2287281828467,1027.8609956076834,1029.0622667379212,1037.963390216697,5,6,4,8,1,0,1.0,1.0,1.0,1.0,1.0,1.0,0.0,1.0,1.0,1.0,0.0,0.0,6.0,1.0,2.0,3.0,4.0,5.0,8.0,6.0,4.0,8.0,5.0,2.0,8.87297535315156,1.6828118588309735,2.7787119748536497,3.8810621090233326,4.832913909107447,6.105363316601142
1,231,6,1,1,1.0,1.0,0.7354457636829466,0,666.8933454824146,1039.2052807244472,1039.9407264881302,nan,nan,7,4,3,6,0,1,nan,nan,nan,nan,nan,nan,0.0,0.0,0.0,0.0,0.0,0.0,nan,nan,nan,nan,nan,nan,nan,nan,nan,nan,nan,nan,nan,nan,nan,nan,nan,nan
1,232,6,1,1,1.0,1.0,0.5182987621519715,0,666.8933454824146,1040.2304216546472,1040.7487204167992,nan,nan,1,5,6,7,3,0,nan,nan,nan,nan,nan,nan,0.0,0.0,0.0,0.0,0.0,0.0,nan,nan,nan,nan,nan,nan,nan,nan,nan,nan,nan,nan,nan,nan,nan,nan,nan,nan
1,233,6,0,0,0.0,1.0,0.6855040232185274,0,666.8933454824146,1041.2471773331054,1041.9326813563239,nan,nan,8,7,2,1,0,6,nan,nan,nan,nan,nan,nan,0.0,0.0,0.0,0.0,0.0,0.0,nan,nan,nan,nan,nan,nan,nan,nan,nan,nan,nan,nan,nan,nan,nan,nan,nan,nan
1,234,6,1,1,1.0,1.0,0.45233831694349647,1,666.8933454824146,1042.2723102807067,1042.7246485976502,1044.097524879733,1050.1566296147648,5,1,0,4,6,3,1.0,1.0,1.0,1.0,1.0,1.0,0.0,1.0,1.0,0.0,0.0,0.0,6.0,1.0,2.0,3.0,4.0,5.0,8.0,1.0,0.0,6.0,3.0,1.0,6.029152804985642,1.2306158051360399,2.102966512320563,2.943254721816629,4.030264110304415,5.197979123564437
1,235,6,1,1,1.0,1.0,0.43828078964725137,0,666.8933454824146,1051.3901553975884,1051.8284361872356,nan,nan,3,5,8,7,1,6,nan,nan,nan,nan,nan,nan,0.0,0.0,0.0,0.0,0.0,0.0,nan,nan,nan,nan,nan,nan,nan,nan,nan,nan,nan,nan,nan,nan,nan,nan,nan,nan
1,236,6,1,1,1.0,1.0,0.3334828189108521,0,666.8933454824146,1052.4069487086963,1052.7404315276071,nan,nan,2,8,6,3,7,1,nan,nan,nan,nan,nan,nan,0.0,0.0,0.0,0.0,0.0,0.0,nan,nan,nan,nan,nan,nan,nan,nan,nan,nan,nan,nan,nan,nan,nan,nan,nan,nan
1,237,6,1,1,1.0,1.0,0.3806554190814495,0,666.8933454824146,1053.4237440156285,1053.80439943471,nan,nan,7,6,8,2,4,5,nan,nan,nan,nan,nan,nan,0.0,0.0,0.0,0.0,0.0,0.0,nan,nan,nan,nan,nan,nan,nan,nan,nan,nan,nan,nan,nan,nan,nan,nan,nan,nan
1,238,6,1,1,1.0,1.0,0.33985557593405247,0,666.8933454824146,1054.4405256377067,1054.7803812136408,nan,nan,8,7,3,0,5,1,nan,nan,nan,nan,nan,nan,0.0,0.0,0.0,0.0,0.0,0.0,nan,nan,nan,nan,nan,nan,nan,nan,nan,nan,nan,nan,nan,nan,nan,nan,nan,nan
1,239,6,1,1,1.0,1.0,0.3310195868834853,0,666.8933454824146,1055.457329212455,1055.7883487993386,nan,nan,7,2,8,5,4,0,nan,nan,nan,nan,nan,nan,0.0,0.0,0.0,0.0,0.0,0.0,nan,nan,nan,nan,nan,nan,nan,nan,nan,nan,nan,nan,nan,nan,nan,nan,nan,nan
1,240,6,1,1,1.0,1.0,0.3302033564541489,0,666.8933454824146,1056.4741213831585,1056.8043247396126,nan,nan,0,4,2,3,6,5,nan,nan,nan,nan,nan,nan,0.0,0.0,0.0,0.0,0.0,0.0,nan,nan,nan,nan,nan,nan,nan,nan,nan,nan,nan,nan,nan,nan,nan,nan,nan,nan
1,241,6,1,1,1.0,1.0,0.32139587705023587,0,666.8933454824146,1057.4909198260866,1057.8123157031368,nan,nan,6,5,8,7,4,0,nan,nan,nan,nan,nan,nan,0.0,0.0,0.0,0.0,0.0,0.0,nan,nan,nan,nan,nan,nan,nan,nan,nan,nan,nan,nan,nan,nan,nan,nan,nan,nan
1,242,6,1,1,1.0,1.0,0.3205693829804659,0,666.8933454824146,1058.5077171286102,1058.8282865115907,nan,nan,5,0,2,8,3,7,nan,nan,nan,nan,nan,nan,0.0,0.0,0.0,0.0,0.0,0.0,nan,nan,nan,nan,nan,nan,nan,nan,nan,nan,nan,nan,nan,nan,nan,nan,nan,nan
1,243,6,1,1,1.0,1.0,0.37575432914309204,0,666.8933454824146,1059.5245155715384,1059.9002699006815,nan,nan,8,6,5,4,1,2,nan,nan,nan,nan,nan,nan,0.0,0.0,0.0,0.0,0.0,0.0,nan,nan,nan,nan,nan,nan,nan,nan,nan,nan,nan,nan,nan,nan,nan,nan,nan,nan
1,244,6,1,1,1.0,1.0,0.4309361393097788,0,666.8933454824146,1060.5413091678638,1060.9722453071736,nan,nan,7,5,2,0,6,8,nan,nan,nan,nan,nan,nan,0.0,0.0,0.0,0.0,0.0,0.0,nan,nan,nan,nan,nan,nan,nan,nan,nan,nan,nan,nan,nan,nan,nan,nan,nan,nan
1,245,6,1,1,1.0,1.0,0.49411147902719676,0,666.8933454824146,1061.5581070405897,1062.0522185196169,nan,nan,4,2,7,1,0,3,nan,nan,nan,nan,nan,nan,0.0,0.0,0.0,0.0,0.0,0.0,nan,nan,nan,nan,nan,nan,nan,nan,nan,nan,nan,nan,nan,nan,nan,nan,nan,nan
1,246,6,1,1,1.0,1.0,0.4932536242995411,0,666.8933454824146,1062.5749399801716,1063.0681936044712,nan,nan,2,8,0,6,5,1,nan,nan,nan,nan,nan,nan,0.0,0.0,0.0,0.0,0.0,0.0,nan,nan,nan,nan,nan,nan,nan,nan,nan,nan,nan,nan,nan,nan,nan,nan,nan,nan
1,247,6,1,1,1.0,1.0,0.42842786223627627,0,666.8933454824146,1063.59172758949,1064.0201554517262,nan,nan,0,3,8,7,1,6,nan,nan,nan,nan,nan,nan,0.0,0.0,0.0,0.0,0.0,0.0,nan,nan,nan,nan,nan,nan,nan,nan,nan,nan,nan,nan,nan,nan,nan,nan,nan,nan
1,248,6,1,1,1.0,1.0,0.36364172864705324,0,666.8933454824146,1064.608506930992,1064.972148659639,nan,nan,5,7,6,0,3,2,nan,nan,nan,nan,nan,nan,0.0,0.0,0.0,0.0,0.0,0.0,nan,nan,nan,nan,nan,nan,nan,nan,nan,nan,nan,nan,nan,nan,nan,nan,nan,nan
1,249,6,1,1,1.0,1.0,0.402811391511932,0,666.8933454824146,1065.625309365103,1066.028120756615,nan,nan,3,2,7,1,8,5,nan,nan,nan,nan,nan,nan,0.0,0.0,0.0,0.0,0.0,0.0,nan,nan,nan,nan,nan,nan,nan,nan,nan,nan,nan,nan,nan,nan,nan,nan,nan,nan
1,250,6,0,0,0.0,1.0,0.6579856751486659,0,666.8933454824146,1066.6421006806195,1067.3000863557681,nan,nan,5,7,8,6,2,3,nan,nan,nan,nan,nan,nan,0.0,0.0,0.0,0.0,0.0,0.0,nan,nan,nan,nan,nan,nan,nan,nan,nan,nan,nan,nan,nan,nan,nan,nan,nan,nan
1,251,6,1,1,1.0,1.0,0.5131675994489342,0,666.8933454824146,1067.6588991235476,1068.1720667229965,nan,nan,2,4,0,8,6,1,nan,nan,nan,nan,nan,nan,0.0,0.0,0.0,0.0,0.0,0.0,nan,nan,nan,nan,nan,nan,nan,nan,nan,nan,nan,nan,nan,nan,nan,nan,nan,nan
1,252,6,1,1,1.0,1.0,0.46438591554760933,1,666.8933454824146,1068.6756867328659,1069.1400726484135,1070.5092372619547,1076.5183304077946,3,2,6,4,0,5,1.0,1.0,1.0,1.0,1.0,1.0,0.0,1.0,1.0,1.0,0.0,0.0,6.0,1.0,2.0,3.0,4.0,5.0,8.0,2.0,6.0,4.0,1.0,0.0,5.976820817450061,1.2899172566831112,2.170999322552234,3.162504308624193,4.1776728560216725,5.201392581453547
1,253,6,1,1,nan,nan,nan,0,666.8933454824146,1077.7518673094455,nan,nan,nan,1,8,0,3,4,7,nan,nan,nan,nan,nan,nan,0.0,0.0,0.0,0.0,0.0,0.0,nan,nan,nan,nan,nan,nan,nan,nan,nan,nan,nan,nan,nan,nan,nan,nan,nan,nan
1,254,6,1,1,1.0,1.0,0.5068213560152799,0,666.8933454824146,1078.77698258101,1079.2838039370254,nan,nan,0,5,4,7,1,3,nan,nan,nan,nan,nan,nan,0.0,0.0,0.0,0.0,0.0,0.0,nan,nan,nan,nan,nan,nan,nan,nan,nan,nan,nan,nan,nan,nan,nan,nan,nan,nan
1,255,6,1,1,1.0,1.0,0.4100166296120733,0,666.8933454824146,1079.79377731774,1080.203793947352,nan,nan,6,7,5,3,2,8,nan,nan,nan,nan,nan,nan,0.0,0.0,0.0,0.0,0.0,0.0,nan,nan,nan,nan,nan,nan,nan,nan,nan,nan,nan,nan,nan,nan,nan,nan,nan,nan
1,256,6,1,1,1.0,1.0,0.3368700477294624,0,666.8933454824146,1080.8188974359073,1081.1557674836367,nan,nan,8,6,7,0,4,2,nan,nan,nan,nan,nan,nan,0.0,0.0,0.0,0.0,0.0,0.0,nan,nan,nan,nan,nan,nan,nan,nan,nan,nan,nan,nan,nan,nan,nan,nan,nan,nan
1,257,6,1,1,1.0,1.0,0.45603002863936126,0,666.8933454824146,1081.8357146950439,1082.2917447236832,nan,nan,1,3,0,4,8,5,nan,nan,nan,nan,nan,nan,0.0,0.0,0.0,0.0,0.0,0.0,nan,nan,nan,nan,nan,nan,nan,nan,nan,nan,nan,nan,nan,nan,nan,nan,nan,nan
1,258,6,1,1,1.0,1.0,0.5591972486581653,0,666.8933454824146,1082.8525102871936,1083.4117075358517,nan,nan,3,5,6,2,1,4,nan,nan,nan,nan,nan,nan,0.0,0.0,0.0,0.0,0.0,0.0,nan,nan,nan,nan,nan,nan,nan,nan,nan,nan,nan,nan,nan,nan,nan,nan,nan,nan
1,259,6,1,1,1.0,1.0,0.5260434024967253,0,666.8933454824146,1083.8776400985662,1084.403683501063,nan,nan,0,2,3,5,4,7,nan,nan,nan,nan,nan,nan,0.0,0.0,0.0,0.0,0.0,0.0,nan,nan,nan,nan,nan,nan,nan,nan,nan,nan,nan,nan,nan,nan,nan,nan,nan,nan
1,260,6,1,1,1.0,1.0,0.6372380785178393,1,666.8933454824146,1084.8944308438804,1085.5316689223982,1086.7113154998515,1094.5123054683208,2,1,6,0,8,3,1.0,1.0,1.0,1.0,1.0,1.0,1.0,1.0,1.0,1.0,0.0,0.0,4.0,1.0,2.0,3.0,6.0,5.0,2.0,1.0,6.0,0.0,3.0,8.0,4.126444475958124,1.4314393342938274,2.2870064235758036,3.2243719114921987,7.766347919590771,6.782746942713857
1,261,6,1,1,1.0,1.0,0.6092068422585726,0,666.8933454824146,1095.754204528639,1096.3634113708977,nan,nan,6,0,5,3,4,8,nan,nan,nan,nan,nan,nan,0.0,0.0,0.0,0.0,0.0,0.0,nan,nan,nan,nan,nan,nan,nan,nan,nan,nan,nan,nan,nan,nan,nan,nan,nan,nan
1,262,6,1,1,nan,nan,nan,0,666.8933454824146,1096.7709562159143,nan,nan,nan,8,5,4,2,1,3,nan,nan,nan,nan,nan,nan,0.0,0.0,0.0,0.0,0.0,0.0,nan,nan,nan,nan,nan,nan,nan,nan,nan,nan,nan,nan,nan,nan,nan,nan,nan,nan
1,263,6,0,0,nan,nan,nan,0,666.8933454824146,1097.7877463910263,nan,nan,nan,3,2,5,7,6,0,nan,nan,nan,nan,nan,nan,0.0,0.0,0.0,0.0,0.0,0.0,nan,nan,nan,nan,nan,nan,nan,nan,nan,nan,nan,nan,nan,nan,nan,nan,nan,nan
1,264,6,1,1,1.0,1.0,0.7667792702559382,1,666.8933454824146,1098.8045419829432,1099.5713212531991,1100.6297662754077,1108.3974210761953,4,1,3,2,7,8,1.0,1.0,1.0,1.0,1.0,1.0,0.0,0.0,0.0,0.0,0.0,0.0,6.0,1.0,2.0,3.0,4.0,5.0,6.0,5.0,4.0,3.0,1.0,2.0,7.735640199389309,1.3137992015108466,2.537538769422099,3.5692600067704916,5.201246612006798,6.151602511759847
1,265,6,1,1,nan,nan,nan,0,666.8933454824146,1109.6392705298495,nan,nan,nan,8,3,5,6,2,0,nan,nan,nan,nan,nan,nan,0.0,0.0,0.0,0.0,0.0,0.0,nan,nan,nan,nan,nan,nan,nan,nan,nan,nan,nan,nan,nan,nan,nan,nan,nan,nan
1,266,6,1,1,1.0,1.0,0.06705179368145764,0,666.8933454824146,1110.6560438843444,1110.7230956780259,nan,nan,5,2,8,3,4,1,nan,nan,nan,nan,nan,nan,0.0,0.0,0.0,0.0,0.0,0.0,nan,nan,nan,nan,nan,nan,nan,nan,nan,nan,nan,nan,nan,nan,nan,nan,nan,nan
1,267,6,1,1,1.0,1.0,0.7701722008641809,0,666.8933454824146,1111.6728568673134,1112.4430290681776,nan,nan,3,8,0,1,2,7,nan,nan,nan,nan,nan,nan,0.0,0.0,0.0,0.0,0.0,0.0,nan,nan,nan,nan,nan,nan,nan,nan,nan,nan,nan,nan,nan,nan,nan,nan,nan,nan
1,268,6,1,1,1.0,1.0,0.5213341822382063,0,666.8933454824146,1112.6896707052365,1113.2110048874747,nan,nan,0,3,6,5,8,4,nan,nan,nan,nan,nan,nan,0.0,0.0,0.0,0.0,0.0,0.0,nan,nan,nan,nan,nan,nan,nan,nan,nan,nan,nan,nan,nan,nan,nan,nan,nan,nan
1,269,6,1,1,1.0,1.0,0.4082145360298455,1,666.8933454824146,1113.714790538419,1114.1230050744489,1115.540005422663,1122.7659271175507,3,0,1,6,4,5,1.0,1.0,1.0,1.0,1.0,1.0,1.0,1.0,1.0,1.0,1.0,0.0,4.0,1.0,2.0,3.0,6.0,5.0,3.0,0.0,1.0,6.0,4.0,8.0,4.098158648703247,1.0837142455857247,2.0414336123503745,2.931192298186943,7.193381090648472,4.993847052101046
1,270,6,1,1,1.0,1.0,0.4033445215318352,0,666.8933454824146,1123.999445487745,1124.402790009277,nan,nan,6,8,5,3,0,2,nan,nan,nan,nan,nan,nan,0.0,0.0,0.0,0.0,0.0,0.0,nan,nan,nan,nan,nan,nan,nan,nan,nan,nan,nan,nan,nan,nan,nan,nan,nan,nan
1,271,6,1,1,1.0,1.0,0.466504180803895,0,666.8933454824146,1125.0162436456885,1125.4827478264924,nan,nan,2,5,4,6,7,0,nan,nan,nan,nan,nan,nan,0.0,0.0,0.0,0.0,0.0,0.0,nan,nan,nan,nan,nan,nan,nan,nan,nan,nan,nan,nan,nan,nan,nan,nan,nan,nan
1,272,6,1,1,1.0,1.0,0.5376773262396455,0,666.8933454824146,1126.0330389526207,1126.5707162788603,nan,nan,3,0,5,7,6,1,nan,nan,nan,nan,nan,nan,0.0,0.0,0.0,0.0,0.0,0.0,nan,nan,nan,nan,nan,nan,nan,nan,nan,nan,nan,nan,nan,nan,nan,nan,nan,nan
1,273,6,1,1,1.0,1.0,0.4408871396444738,0,666.8933454824146,1127.0498202897143,1127.4907074293587,nan,nan,4,6,8,2,7,5,nan,nan,nan,nan,nan,nan,0.0,0.0,0.0,0.0,0.0,0.0,nan,nan,nan,nan,nan,nan,nan,nan,nan,nan,nan,nan,nan,nan,nan,nan,nan,nan
1,274,6,1,1,1.0,1.0,0.34378762380219996,0,666.8933454824146,1128.0749492459,1128.4187368697021,nan,nan,8,7,1,6,5,0,nan,nan,nan,nan,nan,nan,0.0,0.0,0.0,0.0,0.0,0.0,nan,nan,nan,nan,nan,nan,nan,nan,nan,nan,nan,nan,nan,nan,nan,nan,nan,nan
1,275,6,1,1,1.0,1.0,0.3188950123731047,0,666.8933454824146,1129.091756241629,1129.410651254002,nan,nan,2,0,6,3,1,4,nan,nan,nan,nan,nan,nan,0.0,0.0,0.0,0.0,0.0,0.0,nan,nan,nan,nan,nan,nan,nan,nan,nan,nan,nan,nan,nan,nan,nan,nan,nan,nan
1,276,6,0,0,1.0,0.0,0.3017473267391324,0,666.8933454824146,1130.116892610211,1130.41863993695,nan,nan,6,4,8,1,0,7,nan,nan,nan,nan,nan,nan,0.0,0.0,0.0,0.0,0.0,0.0,nan,nan,nan,nan,nan,nan,nan,nan,nan,nan,nan,nan,nan,nan,nan,nan,nan,nan
1,277,6,1,1,1.0,1.0,0.524920693365857,0,666.8933454824146,1131.1336753729265,1131.6585960662924,nan,nan,3,2,5,6,7,8,nan,nan,nan,nan,nan,nan,0.0,0.0,0.0,0.0,0.0,0.0,nan,nan,nan,nan,nan,nan,nan,nan,nan,nan,nan,nan,nan,nan,nan,nan,nan,nan
1,278,6,1,1,1.0,1.0,0.39574984181672335,0,666.8933454824146,1132.1588282771409,1132.5545781189576,nan,nan,8,7,3,2,6,1,nan,nan,nan,nan,nan,nan,0.0,0.0,0.0,0.0,0.0,0.0,nan,nan,nan,nan,nan,nan,nan,nan,nan,nan,nan,nan,nan,nan,nan,nan,nan,nan
1,279,6,1,1,1.0,1.0,0.3789394246414304,0,666.8933454824146,1133.175612180261,1133.5545516049024,nan,nan,5,1,8,3,0,4,nan,nan,nan,nan,nan,nan,0.0,0.0,0.0,0.0,0.0,0.0,nan,nan,nan,nan,nan,nan,nan,nan,nan,nan,nan,nan,nan,nan,nan,nan,nan,nan
1,280,6,0,0,0.0,1.0,0.6501061839517206,0,666.8933454824146,1134.1924134742003,1134.842519658152,nan,nan,6,8,4,0,7,1,nan,nan,nan,nan,nan,nan,0.0,0.0,0.0,0.0,0.0,0.0,nan,nan,nan,nan,nan,nan,nan,nan,nan,nan,nan,nan,nan,nan,nan,nan,nan,nan
1,281,6,1,1,1.0,1.0,0.5772752037737519,0,666.8933454824146,1135.209226171719,1135.7865013754927,nan,nan,0,4,2,5,8,3,nan,nan,nan,nan,nan,nan,0.0,0.0,0.0,0.0,0.0,0.0,nan,nan,nan,nan,nan,nan,nan,nan,nan,nan,nan,nan,nan,nan,nan,nan,nan,nan
1,282,6,1,1,1.0,1.0,0.480476749362424,1,666.8933454824146,1136.2260009518359,1136.7064777011983,1138.051214125473,1148.9276032212656,4,7,1,3,6,0,1.0,1.0,1.0,1.0,1.0,1.0,1.0,1.0,1.0,0.0,0.0,0.0,4.0,1.0,2.0,3.0,6.0,5.0,4.0,7.0,1.0,6.0,8.0,2.0,6.522126749623567,1.1304623377509415,2.713878515176475,5.29129740758799,10.849182073026896,8.10524557181634
1,283,6,0,0,nan,nan,nan,0,666.8933454824146,1150.161128433887,nan,nan,nan,3,1,0,8,5,4,nan,nan,nan,nan,nan,nan,0.0,0.0,0.0,0.0,0.0,0.0,nan,nan,nan,nan,nan,nan,nan,nan,nan,nan,nan,nan,nan,nan,nan,nan,nan,nan
1,284,6,1,1,nan,nan,nan,0,666.8933454824146,1151.186247126665,nan,nan,nan,8,0,7,2,1,3,nan,nan,nan,nan,nan,nan,0.0,0.0,0.0,0.0,0.0,0.0,nan,nan,nan,nan,nan,nan,nan,nan,nan,nan,nan,nan,nan,nan,nan,nan,nan,nan
1,285,6,1,1,1.0,1.0,0.6310611823573709,1,666.8933454824146,1152.2030424335971,1152.8341036159545,1154.0282650152221,1160.7457730914466,0,1,2,3,8,7,1.0,1.0,1.0,1.0,1.0,1.0,0.0,1.0,0.0,0.0,0.0,0.0,6.0,1.0,2.0,3.0,4.0,5.0,8.0,1.0,0.0,6.0,2.0,4.0,6.6882301138248295,1.034657159121707,1.89056664891541,3.16877956292592,4.073412291705608,5.800136960344389
1,286,6,0,0,0.0,1.0,0.774900522781536,0,666.8933454824146,1161.9709860370494,1162.745886559831,nan,nan,5,7,1,2,6,8,nan,nan,nan,nan,nan,nan,0.0,0.0,0.0,0.0,0.0,0.0,nan,nan,nan,nan,nan,nan,nan,nan,nan,nan,nan,nan,nan,nan,nan,nan,nan,nan
1,287,6,1,1,1.0,1.0,0.670052660163492,0,666.8933454824146,1162.98782695923,1163.6578796193935,nan,nan,3,2,6,4,8,1,nan,nan,nan,nan,nan,nan,0.0,0.0,0.0,0.0,0.0,0.0,nan,nan,nan,nan,nan,nan,nan,nan,nan,nan,nan,nan,nan,nan,nan,nan,nan,nan
1,288,6,1,1,1.0,1.0,0.4612840679474175,1,666.8933454824146,1164.0045541280415,1164.465838195989,1165.8381075081415,1173.522418688517,2,1,4,6,0,8,1.0,1.0,1.0,1.0,1.0,1.0,1.0,1.0,1.0,1.0,1.0,1.0,6.0,1.0,2.0,3.0,4.0,5.0,2.0,1.0,4.0,6.0,0.0,8.0,7.65408555790782,1.0958998308051378,2.279479881748557,3.4620102082844824,4.910634861094877,6.230144541012123
1,289,6,1,1,nan,nan,nan,0,666.8933454824146,1174.7476113922894,nan,nan,nan,1,8,2,7,5,0,nan,nan,nan,nan,nan,nan,0.0,0.0,0.0,0.0,0.0,0.0,nan,nan,nan,nan,nan,nan,nan,nan,nan,nan,nan,nan,nan,nan,nan,nan,nan,nan
1,290,6,1,1,1.0,1.0,0.3732015769928694,0,666.8933454824146,1175.7643525307067,1176.1375541076995,nan,nan,3,6,1,4,2,8,nan,nan,nan,nan,nan,nan,0.0,0.0,0.0,0.0,0.0,0.0,nan,nan,nan,nan,nan,nan,nan,nan,nan,nan,nan,nan,nan,nan,nan,nan,nan,nan
1,291,6,1,1,1.0,1.0,0.05233911518007517,1,666.8933454824146,1176.7812037165277,1176.8335428317077,1178.6147462630179,1187.4325275467709,0,8,2,1,3,5,1.0,1.0,1.0,1.0,1.0,1.0,0.0,1.0,1.0,1.0,0.0,0.0,6.0,1.0,2.0,3.0,4.0,5.0,8.0,8.0,2.0,1.0,6.0,4.0,8.78880951483734,1.070499463006854,2.039186483481899,4.213116595521569,5.453286832198501,7.581438179593533
1,292,6,1,1,nan,nan,nan,0,666.8933454824146,1188.66605218919,nan,nan,nan,5,1,7,3,6,2,nan,nan,nan,nan,nan,nan,0.0,0.0,0.0,0.0,0.0,0.0,nan,nan,nan,nan,nan,nan,nan,nan,nan,nan,nan,nan,nan,nan,nan,nan,nan,nan
1,293,6,1,1,1.0,1.0,0.5743592390790582,0,666.8933454824146,1189.6828600403387,1190.2572192794178,nan,nan,1,5,0,2,4,3,nan,nan,nan,nan,nan,nan,0.0,0.0,0.0,0.0,0.0,0.0,nan,nan,nan,nan,nan,nan,nan,nan,nan,nan,nan,nan,nan,nan,nan,nan,nan,nan
1,294,6,1,1,1.0,1.0,0.38958434970118105,0,666.8933454824146,1190.6996365308296,1191.0892208805308,nan,nan,8,0,6,5,3,4,nan,nan,nan,nan,nan,nan,0.0,0.0,0.0,0.0,0.0,0.0,nan,nan,nan,nan,nan,nan,nan,nan,nan,nan,nan,nan,nan,nan,nan,nan,nan,nan
1,295,6,1,1,1.0,1.0,0.5087451857980341,0,666.8933454824146,1191.7164432415739,1192.225188427372,nan,nan,7,1,5,6,8,0,nan,nan,nan,nan,nan,nan,0.0,0.0,0.0,0.0,0.0,0.0,nan,nan,nan,nan,nan,nan,nan,nan,nan,nan,nan,nan,nan,nan,nan,nan,nan,nan
1,296,6,1,1,1.0,1.0,0.3799341255798936,0,666.8933454824146,1192.7332428249065,1193.1131769504864,nan,nan,3,5,0,2,4,7,nan,nan,nan,nan,nan,nan,0.0,0.0,0.0,0.0,0.0,0.0,nan,nan,nan,nan,nan,nan,nan,nan,nan,nan,nan,nan,nan,nan,nan,nan,nan,nan
1,297,6,1,1,1.0,1.0,0.35510280984453857,0,666.8933454824146,1193.750044689048,1194.1051474988926,nan,nan,5,3,2,1,7,8,nan,nan,nan,nan,nan,nan,0.0,0.0,0.0,0.0,0.0,0.0,nan,nan,nan,nan,nan,nan,nan,nan,nan,nan,nan,nan,nan,nan,nan,nan,nan,nan
1,298,6,1,1,1.0,1.0,0.5222815570887178,0,666.8933454824146,1194.7668268813286,1195.2891084384173,nan,nan,1,2,3,8,6,0,nan,nan,nan,nan,nan,nan,0.0,0.0,0.0,0.0,0.0,0.0,nan,nan,nan,nan,nan,nan,nan,nan,nan,nan,nan,nan,nan,nan,nan,nan,nan,nan
1,299,6,1,1,nan,nan,nan,0,666.8933454824146,1195.7836190522648,nan,nan,nan,8,7,6,5,0,2,nan,nan,nan,nan,nan,nan,0.0,0.0,0.0,0.0,0.0,0.0,nan,nan,nan,nan,nan,nan,nan,nan,nan,nan,nan,nan,nan,nan,nan,nan,nan,nan
1,300,6,1,1,1.0,1.0,0.560618738643825,0,666.8933454824146,1196.8004200609867,1197.3610387996305,nan,nan,2,8,0,1,3,4,nan,nan,nan,nan,nan,nan,0.0,0.0,0.0,0.0,0.0,0.0,nan,nan,nan,nan,nan,nan,nan,nan,nan,nan,nan,nan,nan,nan,nan,nan,nan,nan
1,301,6,1,1,1.0,1.0,0.36784803913906217,0,666.8933454824146,1197.817209950881,1198.1850579900201,nan,nan,5,1,4,7,2,0,nan,nan,nan,nan,nan,nan,0.0,0.0,0.0,0.0,0.0,0.0,nan,nan,nan,nan,nan,nan,nan,nan,nan,nan,nan,nan,nan,nan,nan,nan,nan,nan
1,302,6,1,1,1.0,1.0,0.6310212688986212,0,666.8933454824146,1198.8340026920196,1199.4650239609182,nan,nan,1,5,0,4,7,2,nan,nan,nan,nan,nan,nan,0.0,0.0,0.0,0.0,0.0,0.0,nan,nan,nan,nan,nan,nan,nan,nan,nan,nan,nan,nan,nan,nan,nan,nan,nan,nan
1,303,6,1,1,1.0,1.0,0.510196611052379,0,666.8933454824146,1199.8508151045535,1200.3610117156059,nan,nan,6,1,4,0,5,7,nan,nan,nan,nan,nan,nan,0.0,0.0,0.0,0.0,0.0,0.0,nan,nan,nan,nan,nan,nan,nan,nan,nan,nan,nan,nan,nan,nan,nan,nan,nan,nan
1,304,6,1,1,1.0,1.0,0.5973759170155972,1,666.8933454824146,1200.867598722456,1201.4649746394716,1202.7011529579759,1210.6521603029687,2,4,5,7,1,8,1.0,1.0,1.0,1.0,1.0,1.0,0.0,1.0,1.0,1.0,0.0,0.0,6.0,1.0,2.0,3.0,4.0,5.0,8.0,4.0,5.0,7.0,2.0,0.0,7.9180499301292,1.502968565095216,2.4705722194630653,3.5830655090976506,5.471413538791239,6.52631253330037
1,305,6,0,0,nan,nan,nan,0,666.8933454824146,1211.8939860935789,nan,nan,nan,8,3,1,6,4,7,nan,nan,nan,nan,nan,nan,0.0,0.0,0.0,0.0,0.0,0.0,nan,nan,nan,nan,nan,nan,nan,nan,nan,nan,nan,nan,nan,nan,nan,nan,nan,nan
1,306,6,1,1,0.0,0.0,0.08991965116001666,0,666.8933454824146,1212.9108139015734,1213.0007335527334,nan,nan,3,5,2,7,1,8,nan,nan,nan,nan,nan,nan,0.0,0.0,0.0,0.0,0.0,0.0,nan,nan,nan,nan,nan,nan,nan,nan,nan,nan,nan,nan,nan,nan,nan,nan,nan,nan
1,307,6,1,1,1.0,1.0,0.35274392319843173,1,666.8933454824146,1213.935929173138,1214.2886730963364,1215.7528064164799,1223.512144959066,0,4,8,2,5,1,1.0,1.0,1.0,1.0,1.0,1.0,0.0,1.0,1.0,1.0,0.0,0.0,4.0,1.0,2.0,3.0,5.0,6.0,5.0,4.0,8.0,2.0,6.0,6.0,4.9707174762152135,0.8681281462777406,1.7949633181560785,2.6499830225948244,6.874074684455991,7.729701358824968
1,308,6,1,1,nan,nan,nan,0,666.8933454824146,1224.745658197673,nan,nan,nan,1,3,0,5,2,8,nan,nan,nan,nan,nan,nan,0.0,0.0,0.0,0.0,0.0,0.0,nan,nan,nan,nan,nan,nan,nan,nan,nan,nan,nan,nan,nan,nan,nan,nan,nan,nan
1,309,6,1,1,1.0,1.0,0.6059205376077443,0,666.8933454824146,1225.7624594913796,1226.3683800289873,nan,nan,6,1,8,4,0,7,nan,nan,nan,nan,nan,nan,0.0,0.0,0.0,0.0,0.0,0.0,nan,nan,nan,nan,nan,nan,nan,nan,nan,nan,nan,nan,nan,nan,nan,nan,nan,nan
1,310,6,1,1,1.0,1.0,0.43712158827111125,0,666.8933454824146,1226.7792542281095,1227.2163758163806,nan,nan,0,3,2,1,7,5,nan,nan,nan,nan,nan,nan,0.0,0.0,0.0,0.0,0.0,0.0,nan,nan,nan,nan,nan,nan,nan,nan,nan,nan,nan,nan,nan,nan,nan,nan,nan,nan
1,311,6,0,0,0.0,1.0,0.6523188163992018,0,666.8933454824146,1227.7960438330192,1228.4483626494184,nan,nan,6,0,8,4,5,1,nan,nan,nan,nan,nan,nan,0.0,0.0,0.0,0.0,0.0,0.0,nan,nan,nan,nan,nan,nan,nan,nan,nan,nan,nan,nan,nan,nan,nan,nan,nan,nan
1,312,6,1,1,1.0,1.0,0.4835056122392416,0,666.8933454824146,1228.8128200385254,1229.2963256507646,nan,nan,2,8,1,7,6,3,nan,nan,nan,nan,nan,nan,0.0,0.0,0.0,0.0,0.0,0.0,nan,nan,nan,nan,nan,nan,nan,nan,nan,nan,nan,nan,nan,nan,nan,nan,nan,nan
1,313,6,1,1,1.0,1.0,0.49835057533346117,0,666.8933454824146,1229.8379732279573,1230.3363238032907,nan,nan,1,2,0,3,7,5,nan,nan,nan,nan,nan,nan,0.0,0.0,0.0,0.0,0.0,0.0,nan,nan,nan,nan,nan,nan,nan,nan,nan,nan,nan,nan,nan,nan,nan,nan,nan,nan
1,314,6,1,1,1.0,1.0,0.5295287044718862,0,666.8933454824146,1230.8547648284584,1231.3842935329303,nan,nan,0,3,8,6,1,7,nan,nan,nan,nan,nan,nan,0.0,0.0,0.0,0.0,0.0,0.0,nan,nan,nan,nan,nan,nan,nan,nan,nan,nan,nan,nan,nan,nan,nan,nan,nan,nan
1,315,6,1,1,1.0,1.0,0.5687026437371969,0,666.8933454824146,1231.871572109405,1232.4402747531421,nan,nan,1,4,0,8,2,6,nan,nan,nan,nan,nan,nan,0.0,0.0,0.0,0.0,0.0,0.0,nan,nan,nan,nan,nan,nan,nan,nan,nan,nan,nan,nan,nan,nan,nan,nan,nan,nan
1,316,6,1,1,1.0,1.0,0.6719616649206728,1,666.8933454824146,1232.8883334896527,1233.5602951545734,1234.7052472257055,1241.831154580228,5,2,7,3,1,4,1.0,1.0,1.0,1.0,1.0,1.0,0.0,1.0,1.0,0.0,0.0,0.0,6.0,2.0,1.0,3.0,4.0,5.0,0.0,2.0,7.0,4.0,3.0,8.0,7.097422529943287,2.282635042211041,1.1790974820032716,3.2893396513536572,5.0659011451061815,6.041150511708111
1,317,6,1,1,nan,nan,nan,0,666.8933454824146,1243.0646581253968,nan,nan,nan,4,3,6,5,8,1,nan,nan,nan,nan,nan,nan,0.0,0.0,0.0,0.0,0.0,0.0,nan,nan,nan,nan,nan,nan,nan,nan,nan,nan,nan,nan,nan,nan,nan,nan,nan,nan
1,318,6,1,1,nan,nan,nan,0,666.8933454824146,1244.08147795056,nan,nan,nan,7,1,3,6,5,4,nan,nan,nan,nan,nan,nan,0.0,0.0,0.0,0.0,0.0,0.0,nan,nan,nan,nan,nan,nan,nan,nan,nan,nan,nan,nan,nan,nan,nan,nan,nan,nan
1,319,6,1,1,1.0,1.0,0.51768095837906,0,666.8933454824146,1245.0982766787056,1245.6159576370846,nan,nan,1,5,6,4,8,7,nan,nan,nan,nan,nan,nan,0.0,0.0,0.0,0.0,0.0,0.0,nan,nan,nan,nan,nan,nan,nan,nan,nan,nan,nan,nan,nan,nan,nan,nan,nan,nan
1,320,6,1,1,1.0,1.0,0.39687255094759166,0,666.8933454824146,1246.1150571603794,1246.511929711327,nan,nan,2,6,4,7,5,0,nan,nan,nan,nan,nan,nan,0.0,0.0,0.0,0.0,0.0,0.0,nan,nan,nan,nan,nan,nan,nan,nan,nan,nan,nan,nan,nan,nan,nan,nan,nan,nan
1,321,6,0,0,0.0,1.0,0.6040560079272836,0,666.8933454824146,1247.1318479056936,1247.7359039136209,nan,nan,5,7,0,2,6,4,nan,nan,nan,nan,nan,nan,0.0,0.0,0.0,0.0,0.0,0.0,nan,nan,nan,nan,nan,nan,nan,nan,nan,nan,nan,nan,nan,nan,nan,nan,nan,nan
1,322,6,1,1,1.0,1.0,0.45924306381493807,0,666.8933454824146,1248.1486486294307,1248.6078916932456,nan,nan,0,3,2,5,4,7,nan,nan,nan,nan,nan,nan,0.0,0.0,0.0,0.0,0.0,0.0,nan,nan,nan,nan,nan,nan,nan,nan,nan,nan,nan,nan,nan,nan,nan,nan,nan,nan
1,323,6,1,1,1.0,1.0,0.4024190988857299,0,666.8933454824146,1249.1654465021566,1249.5678656010423,nan,nan,6,4,1,7,3,8,nan,nan,nan,nan,nan,nan,0.0,0.0,0.0,0.0,0.0,0.0,nan,nan,nan,nan,nan,nan,nan,nan,nan,nan,nan,nan,nan,nan,nan,nan,nan,nan
1,324,6,1,1,1.0,1.0,0.3855921463109553,0,666.8933454824146,1250.1822389580775,1250.5678311043885,nan,nan,7,6,4,5,2,3,nan,nan,nan,nan,nan,nan,0.0,0.0,0.0,0.0,0.0,0.0,nan,nan,nan,nan,nan,nan,nan,nan,nan,nan,nan,nan,nan,nan,nan,nan,nan,nan
1,325,6,1,1,1.0,1.0,0.4167702754493803,0,666.8933454824146,1251.199035690399,1251.6158059658483,nan,nan,5,0,7,1,6,8,nan,nan,nan,nan,nan,nan,0.0,0.0,0.0,0.0,0.0,0.0,nan,nan,nan,nan,nan,nan,nan,nan,nan,nan,nan,nan,nan,nan,nan,nan,nan,nan
1,326,6,1,1,1.0,1.0,0.41596402297727764,0,666.8933454824146,1252.2158327079378,1252.631796730915,nan,nan,2,4,3,7,1,0,nan,nan,nan,nan,nan,nan,0.0,0.0,0.0,0.0,0.0,0.0,nan,nan,nan,nan,nan,nan,nan,nan,nan,nan,nan,nan,nan,nan,nan,nan,nan,nan
1,327,6,1,1,1.0,1.0,0.4631009865552187,0,666.8933454824146,1253.2326468310785,1253.6957478176337,nan,nan,4,7,8,2,5,3,nan,nan,nan,nan,nan,nan,0.0,0.0,0.0,0.0,0.0,0.0,nan,nan,nan,nan,nan,nan,nan,nan,nan,nan,nan,nan,nan,nan,nan,nan,nan,nan
1,328,6,1,1,1.0,1.0,0.4543203061912209,0,666.8933454824146,1254.2494241769891,1254.7037444831803,nan,nan,8,6,2,4,3,7,nan,nan,nan,nan,nan,nan,0.0,0.0,0.0,0.0,0.0,0.0,nan,nan,nan,nan,nan,nan,nan,nan,nan,nan,nan,nan,nan,nan,nan,nan,nan,nan
1,329,6,0,0,nan,nan,nan,0,666.8933454824146,1255.26622746652,nan,nan,nan,4,1,6,7,0,8,nan,nan,nan,nan,nan,nan,0.0,0.0,0.0,0.0,0.0,0.0,nan,nan,nan,nan,nan,nan,nan,nan,nan,nan,nan,nan,nan,nan,nan,nan,nan,nan
1,330,6,1,1,1.0,1.0,0.6366547716315836,0,666.8933454824146,1256.2830184968188,1256.9196732684504,nan,nan,2,4,8,5,1,6,nan,nan,nan,nan,nan,nan,0.0,0.0,0.0,0.0,0.0,0.0,nan,nan,nan,nan,nan,nan,nan,nan,nan,nan,nan,nan,nan,nan,nan,nan,nan,nan
1,331,6,1,1,1.0,1.0,0.6438545929268003,1,666.8933454824146,1257.2998232119717,1257.9436778048985,1259.1250372407958,1266.801007074304,7,0,6,8,4,1,1.0,1.0,1.0,1.0,1.0,1.0,0.0,0.0,0.0,0.0,0.0,0.0,6.0,1.0,2.0,3.0,4.0,5.0,2.0,6.0,5.0,2.0,8.0,8.0,7.644607817288488,1.662359622074291,2.89336201781407,3.654164244653657,5.725639592157677,6.53251366247423
1,332,6,1,1,1.0,1.0,0.7968800205271691,0,666.8933454824146,1268.0345362781081,1268.8314162986353,nan,nan,5,8,1,4,2,3,nan,nan,nan,nan,nan,nan,0.0,0.0,0.0,0.0,0.0,0.0,nan,nan,nan,nan,nan,nan,nan,nan,nan,nan,nan,nan,nan,nan,nan,nan,nan,nan
1,333,6,1,1,1.0,1.0,0.5397773454897106,0,666.8933454824146,1269.0596293122508,1269.5994066577405,nan,nan,8,4,3,6,5,0,nan,nan,nan,nan,nan,nan,0.0,0.0,0.0,0.0,0.0,0.0,nan,nan,nan,nan,nan,nan,nan,nan,nan,nan,nan,nan,nan,nan,nan,nan,nan,nan
1,334,6,1,1,1.0,1.0,0.3949393129441887,1,666.8933454824146,1270.0764494223986,1270.4713887353428,1271.9016668724362,1281.5195591729134,3,5,4,2,8,7,1.0,1.0,1.0,1.0,1.0,1.0,0.0,1.0,1.0,0.0,1.0,0.0,6.0,1.0,2.0,3.0,4.0,5.0,1.0,5.0,4.0,6.0,8.0,2.0,9.588090901263058,0.9959513477515429,2.2205176949501038,3.5574219543486834,5.212880250765011,6.476375924656168
1,335,6,1,1,nan,nan,nan,0,666.8933454824146,1282.7447436086368,nan,nan,nan,6,3,2,8,1,0,nan,nan,nan,nan,nan,nan,0.0,0.0,0.0,0.0,0.0,0.0,nan,nan,nan,nan,nan,nan,nan,nan,nan,nan,nan,nan,nan,nan,nan,nan,nan,nan
1,336,6,0,0,0.0,1.0,0.6934878593310714,0,666.8933454824146,1283.7615454727784,1284.4550333321095,nan,nan,0,7,8,3,4,2,nan,nan,nan,nan,nan,nan,0.0,0.0,0.0,0.0,0.0,0.0,nan,nan,nan,nan,nan,nan,nan,nan,nan,nan,nan,nan,nan,nan,nan,nan,nan,nan
1,337,6,1,1,1.0,1.0,0.4367538138758391,0,666.8933454824146,1284.7783134104684,1285.2150672243442,nan,nan,1,0,3,2,5,6,nan,nan,nan,nan,nan,nan,0.0,0.0,0.0,0.0,0.0,0.0,nan,nan,nan,nan,nan,nan,nan,nan,nan,nan,nan,nan,nan,nan,nan,nan,nan,nan
1,338,6,1,1,1.0,1.0,0.4595358574297279,0,666.8933454824146,1285.8034811397083,1286.263016997138,nan,nan,7,5,4,8,3,2,nan,nan,nan,nan,nan,nan,0.0,0.0,0.0,0.0,0.0,0.0,nan,nan,nan,nan,nan,nan,nan,nan,nan,nan,nan,nan,nan,nan,nan,nan,nan,nan
1,339,6,1,1,1.0,1.0,0.3707400558050722,0,666.8933454824146,1286.8202604812104,1287.1910005370155,nan,nan,6,7,1,5,0,3,nan,nan,nan,nan,nan,nan,0.0,0.0,0.0,0.0,0.0,0.0,nan,nan,nan,nan,nan,nan,nan,nan,nan,nan,nan,nan,nan,nan,nan,nan,nan,nan
1,340,6,1,1,1.0,1.0,0.33791977213695645,0,666.8933454824146,1287.8370523669291,1288.174972139066,nan,nan,0,8,3,4,6,7,nan,nan,nan,nan,nan,nan,0.0,0.0,0.0,0.0,0.0,0.0,nan,nan,nan,nan,nan,nan,nan,nan,nan,nan,nan,nan,nan,nan,nan,nan,nan,nan
1,341,6,1,1,1.0,1.0,0.3370975547004491,0,666.8933454824146,1288.853854230838,1289.1909517855383,nan,nan,7,4,5,6,1,2,nan,nan,nan,nan,nan,nan,0.0,0.0,0.0,0.0,0.0,0.0,nan,nan,nan,nan,nan,nan,nan,nan,nan,nan,nan,nan,nan,nan,nan,nan,nan,nan
1,342,6,1,1,1.0,1.0,0.3202691765036434,0,666.8933454824146,1289.8706515333615,1290.1909207098652,nan,nan,6,2,4,5,8,0,nan,nan,nan,nan,nan,nan,0.0,0.0,0.0,0.0,0.0,0.0,nan,nan,nan,nan,nan,nan,nan,nan,nan,nan,nan,nan,nan,nan,nan,nan,nan,nan
1,343,6,1,1,1.0,1.0,0.39945096150040627,0,666.8933454824146,1290.887451972114,1291.2869029336143,nan,nan,1,7,6,4,5,2,nan,nan,nan,nan,nan,nan,0.0,0.0,0.0,0.0,0.0,0.0,nan,nan,nan,nan,nan,nan,nan,nan,nan,nan,nan,nan,nan,nan,nan,nan,nan,nan
1,344,6,1,1,1.0,1.0,0.3986390074715018,0,666.8933454824146,1291.904248134233,1292.3028871417046,nan,nan,7,1,0,8,3,4,nan,nan,nan,nan,nan,nan,0.0,0.0,0.0,0.0,0.0,0.0,nan,nan,nan,nan,nan,nan,nan,nan,nan,nan,nan,nan,nan,nan,nan,nan,nan,nan
1,345,6,1,1,1.0,1.0,0.3658141621854156,0,666.8933454824146,1292.9210363137536,1293.286850475939,nan,nan,5,0,7,6,8,3,nan,nan,nan,nan,nan,nan,0.0,0.0,0.0,0.0,0.0,0.0,nan,nan,nan,nan,nan,nan,nan,nan,nan,nan,nan,nan,nan,nan,nan,nan,nan,nan
1,346,6,1,1,1.0,1.0,0.3570038320031017,0,666.8933454824146,1293.9378358968534,1294.2948397288565,nan,nan,4,8,2,5,0,6,nan,nan,nan,nan,nan,nan,0.0,0.0,0.0,0.0,0.0,0.0,nan,nan,nan,nan,nan,nan,nan,nan,nan,nan,nan,nan,nan,nan,nan,nan,nan,nan
1,347,6,1,1,1.0,1.0,0.47617692733183503,0,666.8933454824146,1294.95463234419,1295.4308092715219,nan,nan,2,0,1,3,4,5,nan,nan,nan,nan,nan,nan,0.0,0.0,0.0,0.0,0.0,0.0,nan,nan,nan,nan,nan,nan,nan,nan,nan,nan,nan,nan,nan,nan,nan,nan,nan,nan
1,348,6,1,1,1.0,1.0,0.42737015523016453,0,666.8933454824146,1295.9714267957024,1296.3987969509326,nan,nan,7,5,6,1,0,3,nan,nan,nan,nan,nan,nan,0.0,0.0,0.0,0.0,0.0,0.0,nan,nan,nan,nan,nan,nan,nan,nan,nan,nan,nan,nan,nan,nan,nan,nan,nan,nan
1,349,6,1,1,1.0,1.0,0.4425478253979236,0,666.8933454824146,1296.98822181765,1297.4307696430478,nan,nan,3,8,1,6,5,0,nan,nan,nan,nan,nan,nan,0.0,0.0,0.0,0.0,0.0,0.0,nan,nan,nan,nan,nan,nan,nan,nan,nan,nan,nan,nan,nan,nan,nan,nan,nan,nan
1,350,6,1,1,1.0,1.0,0.5217147856019437,0,666.8933454824146,1298.0050328047946,1298.5267475903966,nan,nan,5,2,8,4,1,7,nan,nan,nan,nan,nan,nan,0.0,0.0,0.0,0.0,0.0,0.0,nan,nan,nan,nan,nan,nan,nan,nan,nan,nan,nan,nan,nan,nan,nan,nan,nan,nan
1,351,6,1,1,1.0,1.0,0.5768897535745054,0,666.8933454824146,1299.021825830685,1299.5987155842595,nan,nan,8,6,0,3,4,5,nan,nan,nan,nan,nan,nan,0.0,0.0,0.0,0.0,0.0,0.0,nan,nan,nan,nan,nan,nan,nan,nan,nan,nan,nan,nan,nan,nan,nan,nan,nan,nan
1,352,6,1,1,1.0,1.0,0.6560758149717003,1,666.8933454824146,1300.038609733805,1300.6946855487768,1301.86383830267,1309.9982013276313,1,4,8,5,7,2,1.0,1.0,1.0,1.0,1.0,1.0,0.0,1.0,0.0,0.0,1.0,0.0,4.0,3.0,1.0,2.0,6.0,5.0,2.0,4.0,1.0,3.0,7.0,6.0,6.137045780895278,5.266046144999564,2.290116538759321,4.114157681586221,8.104735534638166,7.457690999377519
1,353,6,1,1,nan,nan,nan,0,666.8933454824146,1311.231713996036,nan,nan,nan,5,1,6,3,4,0,nan,nan,nan,nan,nan,nan,0.0,0.0,0.0,0.0,0.0,0.0,nan,nan,nan,nan,nan,nan,nan,nan,nan,nan,nan,nan,nan,nan,nan,nan,nan,nan
1,354,6,1,1,nan,nan,nan,0,666.8933454824146,1312.2568341142032,nan,nan,nan,1,7,3,5,8,6,nan,nan,nan,nan,nan,nan,0.0,0.0,0.0,0.0,0.0,0.0,nan,nan,nan,nan,nan,nan,nan,nan,nan,nan,nan,nan,nan,nan,nan,nan,nan,nan
1,355,6,1,1,1.0,1.0,0.6447158688679338,1,666.8933454824146,1313.2736490927637,1313.9183649616316,1315.090522915125,1322.3247802550904,7,6,8,2,1,4,1.0,1.0,1.0,1.0,1.0,1.0,0.0,1.0,0.0,1.0,0.0,0.0,2.0,1.0,6.0,5.0,4.0,3.0,8.0,6.0,2.0,2.0,2.0,7.0,2.15120508777909,1.2169534212443978,7.205778217408806,6.382824146654457,3.7018605668563396,2.974261222872883
1,356,6,1,1,nan,nan,nan,0,666.8933454824146,1323.5499669716228,nan,nan,nan,1,5,0,7,6,8,nan,nan,nan,nan,nan,nan,0.0,0.0,0.0,0.0,0.0,0.0,nan,nan,nan,nan,nan,nan,nan,nan,nan,nan,nan,nan,nan,nan,nan,nan,nan,nan
1,357,6,0,0,0.0,1.0,0.791318362345919,0,666.8933454824146,1324.566750019323,1325.358068381669,nan,nan,0,8,1,2,4,5,nan,nan,nan,nan,nan,nan,0.0,0.0,0.0,0.0,0.0,0.0,nan,nan,nan,nan,nan,nan,nan,nan,nan,nan,nan,nan,nan,nan,nan,nan,nan,nan
1,358,6,1,1,1.0,1.0,0.47852982697077096,0,666.8933454824146,1325.5835595810786,1326.0620894080494,nan,nan,3,4,7,0,6,2,nan,nan,nan,nan,nan,nan,0.0,0.0,0.0,0.0,0.0,0.0,nan,nan,nan,nan,nan,nan,nan,nan,nan,nan,nan,nan,nan,nan,nan,nan,nan,nan
1,359,6,1,1,1.0,1.0,0.3977289800532162,0,666.8933454824146,1326.6003483308014,1326.9980773108546,nan,nan,1,7,6,4,5,8,nan,nan,nan,nan,nan,nan,0.0,0.0,0.0,0.0,0.0,0.0,nan,nan,nan,nan,nan,nan,nan,nan,nan,nan,nan,nan,nan,nan,nan,nan,nan,nan
1,360,6,1,1,1.0,1.0,0.3969056219793856,0,666.8933454824146,1327.6171405015048,1328.0140461234841,nan,nan,3,4,1,0,2,7,nan,nan,nan,nan,nan,nan,0.0,0.0,0.0,0.0,0.0,0.0,nan,nan,nan,nan,nan,nan,nan,nan,nan,nan,nan,nan,nan,nan,nan,nan,nan,nan
1,361,6,1,1,1.0,1.0,0.3720877058804035,0,666.8933454824146,1328.6339386594482,1329.0060263653286,nan,nan,6,2,5,8,0,4,nan,nan,nan,nan,nan,nan,0.0,0.0,0.0,0.0,0.0,0.0,nan,nan,nan,nan,nan,nan,nan,nan,nan,nan,nan,nan,nan,nan,nan,nan,nan,nan
1,362,6,1,1,1.0,1.0,0.4032664049882442,0,666.8933454824146,1329.6507467955817,1330.05401320057,nan,nan,0,4,8,6,2,7,nan,nan,nan,nan,nan,nan,0.0,0.0,0.0,0.0,0.0,0.0,nan,nan,nan,nan,nan,nan,nan,nan,nan,nan,nan,nan,nan,nan,nan,nan,nan,nan
1,363,6,1,1,1.0,1.0,0.34613083000294864,0,666.8933454824146,1330.6758597863372,1331.0219906163402,nan,nan,7,2,6,1,5,3,nan,nan,nan,nan,nan,nan,0.0,0.0,0.0,0.0,0.0,0.0,nan,nan,nan,nan,nan,nan,nan,nan,nan,nan,nan,nan,nan,nan,nan,nan,nan,nan
1,364,6,1,1,1.0,1.0,0.3372922751586884,0,666.8933454824146,1331.6926736244932,1332.0299658996519,nan,nan,2,5,7,3,4,0,nan,nan,nan,nan,nan,nan,0.0,0.0,0.0,0.0,0.0,0.0,nan,nan,nan,nan,nan,nan,nan,nan,nan,nan,nan,nan,nan,nan,nan,nan,nan,nan
1,365,6,1,1,1.0,1.0,0.36846356210298836,0,666.8933454824146,1332.7094689311925,1333.0779324932955,nan,nan,0,2,1,7,5,4,nan,nan,nan,nan,nan,nan,0.0,0.0,0.0,0.0,0.0,0.0,nan,nan,nan,nan,nan,nan,nan,nan,nan,nan,nan,nan,nan,nan,nan,nan,nan,nan
1,366,6,1,1,1.0,1.0,0.3516605575568974,0,666.8933454824146,1333.7262573959306,1334.0779179534875,nan,nan,1,4,5,3,0,8,nan,nan,nan,nan,nan,nan,0.0,0.0,0.0,0.0,0.0,0.0,nan,nan,nan,nan,nan,nan,nan,nan,nan,nan,nan,nan,nan,nan,nan,nan,nan,nan
1,367,6,1,1,1.0,1.0,0.38282357645221055,0,666.8933454824146,1334.7430643916596,1335.1258879681118,nan,nan,4,6,0,2,5,7,nan,nan,nan,nan,nan,nan,0.0,0.0,0.0,0.0,0.0,0.0,nan,nan,nan,nan,nan,nan,nan,nan,nan,nan,nan,nan,nan,nan,nan,nan,nan,nan
1,368,6,1,1,1.0,1.0,0.36599348788149655,0,666.8933454824146,1335.7598830764182,1336.1258765642997,nan,nan,2,4,5,7,1,8,nan,nan,nan,nan,nan,nan,0.0,0.0,0.0,0.0,0.0,0.0,nan,nan,nan,nan,nan,nan,nan,nan,nan,nan,nan,nan,nan,nan,nan,nan,nan,nan
1,369,6,0,0,0.0,1.0,0.6371787784155458,0,666.8933454824146,1336.776645027101,1337.4138238055166,nan,nan,3,2,7,8,4,0,nan,nan,nan,nan,nan,nan,0.0,0.0,0.0,0.0,0.0,0.0,nan,nan,nan,nan,nan,nan,nan,nan,nan,nan,nan,nan,nan,nan,nan,nan,nan,nan
1,370,6,1,1,1.0,1.0,0.4604093926027417,0,666.8933454824146,1337.7934141049627,1338.2538234975655,nan,nan,5,8,0,1,3,7,nan,nan,nan,nan,nan,nan,0.0,0.0,0.0,0.0,0.0,0.0,nan,nan,nan,nan,nan,nan,nan,nan,nan,nan,nan,nan,nan,nan,nan,nan,nan,nan
1,371,6,1,1,1.0,1.0,0.5875409506261349,0,666.8933454824146,1338.810239917133,1339.3977808677591,nan,nan,8,1,3,6,4,2,nan,nan,nan,nan,nan,nan,0.0,0.0,0.0,0.0,0.0,0.0,nan,nan,nan,nan,nan,nan,nan,nan,nan,nan,nan,nan,nan,nan,nan,nan,nan,nan
1,372,6,1,1,1.0,1.0,0.4907290965784341,0,666.8933454824146,1339.8270463428926,1340.317775439471,nan,nan,2,5,6,8,1,7,nan,nan,nan,nan,nan,nan,0.0,0.0,0.0,0.0,0.0,0.0,nan,nan,nan,nan,nan,nan,nan,nan,nan,nan,nan,nan,nan,nan,nan,nan,nan,nan
1,373,6,1,1,1.0,1.0,0.5695562218315899,0,666.8933454824146,1340.8521772946697,1341.4217335165013,nan,nan,3,7,1,2,0,4,nan,nan,nan,nan,nan,nan,0.0,0.0,0.0,0.0,0.0,0.0,nan,nan,nan,nan,nan,nan,nan,nan,nan,nan,nan,nan,nan,nan,nan,nan,nan,nan
1,374,6,1,1,1.0,1.0,0.5687710668426007,0,666.8933454824146,1341.8689609125722,1342.4377319794148,nan,nan,2,6,5,1,4,7,nan,nan,nan,nan,nan,nan,0.0,0.0,0.0,0.0,0.0,0.0,nan,nan,nan,nan,nan,nan,nan,nan,nan,nan,nan,nan,nan,nan,nan,nan,nan,nan
1,375,6,0,0,0.0,1.0,0.7675732632633299,0,666.8933454824146,1342.8941018427722,1343.6616751060355,nan,nan,8,3,6,5,0,1,nan,nan,nan,nan,nan,nan,0.0,0.0,0.0,0.0,0.0,0.0,nan,nan,nan,nan,nan,nan,nan,nan,nan,nan,nan,nan,nan,nan,nan,nan,nan,nan
1,376,6,1,1,1.0,1.0,0.5827749960590154,0,666.8933454824146,1343.9109065576922,1344.4936815537512,nan,nan,4,8,2,3,7,6,nan,nan,nan,nan,nan,nan,0.0,0.0,0.0,0.0,0.0,0.0,nan,nan,nan,nan,nan,nan,nan,nan,nan,nan,nan,nan,nan,nan,nan,nan,nan,nan
1,377,6,1,1,1.0,1.0,0.5899599923286587,0,666.8933454824146,1344.9276910310145,1345.5176510233432,nan,nan,7,2,6,0,1,3,nan,nan,nan,nan,nan,nan,0.0,0.0,0.0,0.0,0.0,0.0,nan,nan,nan,nan,nan,nan,nan,nan,nan,nan,nan,nan,nan,nan,nan,nan,nan,nan
1,378,6,1,1,1.0,1.0,0.5491484601516277,0,666.8933454824146,1345.9444735085126,1346.4936219686642,nan,nan,5,7,4,3,0,1,nan,nan,nan,nan,nan,nan,0.0,0.0,0.0,0.0,0.0,0.0,nan,nan,nan,nan,nan,nan,nan,nan,nan,nan,nan,nan,nan,nan,nan,nan,nan,nan
1,379,6,1,1,1.0,1.0,0.5563132148236036,0,666.8933454824146,1346.961291623069,1347.5176048378926,nan,nan,4,3,7,5,1,2,nan,nan,nan,nan,nan,nan,0.0,0.0,0.0,0.0,0.0,0.0,nan,nan,nan,nan,nan,nan,nan,nan,nan,nan,nan,nan,nan,nan,nan,nan,nan,nan
1,380,6,1,1,1.0,1.0,0.7634906847961247,0,666.8933454824146,1347.9780866447836,1348.7415773295797,nan,nan,7,0,4,2,6,1,nan,nan,nan,nan,nan,nan,0.0,0.0,0.0,0.0,0.0,0.0,nan,nan,nan,nan,nan,nan,nan,nan,nan,nan,nan,nan,nan,nan,nan,nan,nan,nan
1,381,6,1,1,1.0,1.0,0.7306715412996709,0,666.8933454824146,1348.9948882239405,1349.7255597652402,nan,nan,5,8,7,6,0,3,nan,nan,nan,nan,nan,nan,0.0,0.0,0.0,0.0,0.0,0.0,nan,nan,nan,nan,nan,nan,nan,nan,nan,nan,nan,nan,nan,nan,nan,nan,nan,nan
1,382,6,1,1,1.0,1.0,0.601838813861832,0,666.8933454824146,1350.0116969302762,1350.613535744138,nan,nan,0,7,8,4,1,5,nan,nan,nan,nan,nan,nan,0.0,0.0,0.0,0.0,0.0,0.0,nan,nan,nan,nan,nan,nan,nan,nan,nan,nan,nan,nan,nan,nan,nan,nan,nan,nan
1,383,6,1,1,1.0,1.0,0.7047377584967762,0,666.8933454824146,1351.0367745689582,1351.741512327455,nan,nan,7,2,0,6,3,8,nan,nan,nan,nan,nan,nan,0.0,0.0,0.0,0.0,0.0,0.0,nan,nan,nan,nan,nan,nan,nan,nan,nan,nan,nan,nan,nan,nan,nan,nan,nan,nan
1,384,6,1,1,1.0,1.0,0.543885582825169,0,666.8933454824146,1352.0536072235554,1352.5974928063806,nan,nan,8,3,2,7,5,1,nan,nan,nan,nan,nan,nan,0.0,0.0,0.0,0.0,0.0,0.0,nan,nan,nan,nan,nan,nan,nan,nan,nan,nan,nan,nan,nan,nan,nan,nan,nan,nan
1,385,6,1,1,1.0,1.0,0.37501735519617796,0,666.8933454824146,1353.0704566987697,1353.4454740539659,nan,nan,4,0,5,3,2,7,nan,nan,nan,nan,nan,nan,0.0,0.0,0.0,0.0,0.0,0.0,nan,nan,nan,nan,nan,nan,nan,nan,nan,nan,nan,nan,nan,nan,nan,nan,nan,nan
1,386,6,1,1,1.0,1.0,0.4062582056503743,0,666.8933454824146,1354.0871944159735,1354.4934526216239,nan,nan,8,3,7,5,0,6,nan,nan,nan,nan,nan,nan,0.0,0.0,0.0,0.0,0.0,0.0,nan,nan,nan,nan,nan,nan,nan,nan,nan,nan,nan,nan,nan,nan,nan,nan,nan,nan
1,387,6,1,1,1.0,1.0,0.3574343272484839,0,666.8933454824146,1355.10399171873,1355.4614260459784,nan,nan,3,6,4,1,5,8,nan,nan,nan,nan,nan,nan,0.0,0.0,0.0,0.0,0.0,0.0,nan,nan,nan,nan,nan,nan,nan,nan,nan,nan,nan,nan,nan,nan,nan,nan,nan,nan
1,388,6,1,1,1.0,1.0,0.300604090327397,0,666.8933454824146,1356.120787880849,1356.4213919711765,nan,nan,1,5,2,3,7,6,nan,nan,nan,nan,nan,nan,0.0,0.0,0.0,0.0,0.0,0.0,nan,nan,nan,nan,nan,nan,nan,nan,nan,nan,nan,nan,nan,nan,nan,nan,nan,nan
1,389,6,1,1,1.0,1.0,0.31580000719986856,0,666.8933454824146,1357.137581191957,1357.4533811991569,nan,nan,4,7,5,6,8,0,nan,nan,nan,nan,nan,nan,0.0,0.0,0.0,0.0,0.0,0.0,nan,nan,nan,nan,nan,nan,nan,nan,nan,nan,nan,nan,nan,nan,nan,nan,nan,nan
1,390,6,1,1,1.0,1.0,0.29896934842690825,0,666.8933454824146,1358.1543884729035,1358.4533578213304,nan,nan,0,4,7,1,3,6,nan,nan,nan,nan,nan,nan,0.0,0.0,0.0,0.0,0.0,0.0,nan,nan,nan,nan,nan,nan,nan,nan,nan,nan,nan,nan,nan,nan,nan,nan,nan,nan
1,391,6,1,1,1.0,1.0,0.3141530060674995,0,666.8933454824146,1359.1711795032024,1359.48533250927,nan,nan,4,5,1,8,2,0,nan,nan,nan,nan,nan,nan,0.0,0.0,0.0,0.0,0.0,0.0,nan,nan,nan,nan,nan,nan,nan,nan,nan,nan,nan,nan,nan,nan,nan,nan,nan,nan
1,392,6,1,1,1.0,1.0,0.2573221989441663,0,666.8933454824146,1360.187979086535,1360.4453012854792,nan,nan,1,6,3,2,8,7,nan,nan,nan,nan,nan,nan,0.0,0.0,0.0,0.0,0.0,0.0,nan,nan,nan,nan,nan,nan,nan,nan,nan,nan,nan,nan,nan,nan,nan,nan,nan,nan
1,393,6,0,0,1.0,0.0,0.1525076925754547,0,666.8933454824146,1361.2047721126582,1361.3572798052337,nan,nan,4,2,0,3,1,6,nan,nan,nan,nan,nan,nan,0.0,0.0,0.0,0.0,0.0,0.0,nan,nan,nan,nan,nan,nan,nan,nan,nan,nan,nan,nan,nan,nan,nan,nan,nan,nan
1,394,6,1,1,1.0,1.0,0.4876779962796718,0,666.8933454824146,1362.221568559995,1362.7092465562746,nan,nan,6,8,1,2,0,5,nan,nan,nan,nan,nan,nan,0.0,0.0,0.0,0.0,0.0,0.0,nan,nan,nan,nan,nan,nan,nan,nan,nan,nan,nan,nan,nan,nan,nan,nan,nan,nan
1,395,6,1,1,1.0,1.0,0.23085642652586102,0,666.8933454824146,1363.238368713297,1363.4692251398228,nan,nan,0,7,2,1,5,6,nan,nan,nan,nan,nan,nan,0.0,0.0,0.0,0.0,0.0,0.0,nan,nan,nan,nan,nan,nan,nan,nan,nan,nan,nan,nan,nan,nan,nan,nan,nan,nan
1,396,6,0,0,0.0,1.0,0.582042298745364,0,666.8933454824146,1364.2551688668318,1364.8372111655772,nan,nan,4,2,0,6,3,7,nan,nan,nan,nan,nan,nan,0.0,0.0,0.0,0.0,0.0,0.0,nan,nan,nan,nan,nan,nan,nan,nan,nan,nan,nan,nan,nan,nan,nan,nan,nan,nan
1,397,6,1,1,1.0,1.0,0.38121477817185223,0,666.8933454824146,1365.2719653141685,1365.6531800923403,nan,nan,7,1,3,5,8,0,nan,nan,nan,nan,nan,nan,0.0,0.0,0.0,0.0,0.0,0.0,nan,nan,nan,nan,nan,nan,nan,nan,nan,nan,nan,nan,nan,nan,nan,nan,nan,nan
1,398,6,1,1,1.0,1.0,0.5163965995889157,0,666.8933454824146,1366.288764897501,1366.80516149709,nan,nan,8,3,5,1,0,6,nan,nan,nan,nan,nan,nan,0.0,0.0,0.0,0.0,0.0,0.0,nan,nan,nan,nan,nan,nan,nan,nan,nan,nan,nan,nan,nan,nan,nan,nan,nan,nan
1,399,6,1,1,1.0,1.0,0.531560015399009,0,666.8933454824146,1367.3055661914404,1367.8371262068395,nan,nan,7,4,6,8,5,3,nan,nan,nan,nan,nan,nan,0.0,0.0,0.0,0.0,0.0,0.0,nan,nan,nan,nan,nan,nan,nan,nan,nan,nan,nan,nan,nan,nan,nan,nan,nan,nan
1,400,6,1,1,1.0,1.0,0.5227482598274946,0,666.8933454824146,1368.3223549409304,1368.8451032007579,nan,nan,6,1,7,5,4,8,nan,nan,nan,nan,nan,nan,0.0,0.0,0.0,0.0,0.0,0.0,nan,nan,nan,nan,nan,nan,nan,nan,nan,nan,nan,nan,nan,nan,nan,nan,nan,nan
1,401,6,1,1,1.0,1.0,0.4575940668582916,0,666.8933454824146,1369.3474904543255,1369.8050845211837,nan,nan,4,3,2,0,6,7,nan,nan,nan,nan,nan,nan,0.0,0.0,0.0,0.0,0.0,0.0,nan,nan,nan,nan,nan,nan,nan,nan,nan,nan,nan,nan,nan,nan,nan,nan,nan,nan
1,402,6,1,1,1.0,1.0,0.42478119558654726,0,666.8933454824146,1370.3642760680523,1370.7890572636388,nan,nan,5,4,0,7,1,8,nan,nan,nan,nan,nan,nan,0.0,0.0,0.0,0.0,0.0,0.0,nan,nan,nan,nan,nan,nan,nan,nan,nan,nan,nan,nan,nan,nan,nan,nan,nan,nan
1,403,6,1,1,1.0,1.0,0.3759621644858271,0,666.8933454824146,1371.381075651152,1371.757037815638,nan,nan,6,2,3,0,5,1,nan,nan,nan,nan,nan,nan,0.0,0.0,0.0,0.0,0.0,0.0,nan,nan,nan,nan,nan,nan,nan,nan,nan,nan,nan,nan,nan,nan,nan,nan,nan,nan
1,404,6,1,1,1.0,1.0,0.36711505660787225,0,666.8933454824146,1372.3978880639188,1372.7650031205267,nan,nan,7,6,8,4,1,5,nan,nan,nan,nan,nan,nan,0.0,0.0,0.0,0.0,0.0,0.0,nan,nan,nan,nan,nan,nan,nan,nan,nan,nan,nan,nan,nan,nan,nan,nan,nan,nan
1,405,6,1,1,1.0,1.0,0.3903335826471448,0,666.8933454824146,1373.41465286538,1373.8049864480272,nan,nan,3,5,6,2,4,7,nan,nan,nan,nan,nan,nan,0.0,0.0,0.0,0.0,0.0,0.0,nan,nan,nan,nan,nan,nan,nan,nan,nan,nan,nan,nan,nan,nan,nan,nan,nan,nan
1,406,6,1,1,1.0,1.0,0.38949853577651083,0,666.8933454824146,1374.431462141918,1374.8209606776945,nan,nan,4,3,0,5,8,2,nan,nan,nan,nan,nan,nan,0.0,0.0,0.0,0.0,0.0,0.0,nan,nan,nan,nan,nan,nan,nan,nan,nan,nan,nan,nan,nan,nan,nan,nan,nan,nan
1,407,6,1,1,1.0,1.0,0.36467862385325134,0,666.8933454824146,1375.4482617252506,1375.8129403491039,nan,nan,5,4,6,3,2,8,nan,nan,nan,nan,nan,nan,0.0,0.0,0.0,0.0,0.0,0.0,nan,nan,nan,nan,nan,nan,nan,nan,nan,nan,nan,nan,nan,nan,nan,nan,nan,nan
1,408,6,1,1,1.0,1.0,0.4758410837966949,0,666.8933454824146,1376.465062164003,1376.9409032477997,nan,nan,4,5,2,1,7,6,nan,nan,nan,nan,nan,nan,0.0,0.0,0.0,0.0,0.0,0.0,nan,nan,nan,nan,nan,nan,nan,nan,nan,nan,nan,nan,nan,nan,nan,nan,nan,nan
