block,trial,freq_trials,correct_response,actual_response,acc,rts,probe_trials,fast_rt_trigger,slow_rt_trigger,rt_triggered,rts_runningavg,rts_runningstd,rts_runningfastthresh,rts_runningslowthresh,rts_runningstd,rts_trailingavg,trials_colorind0,trials_colorind1,trials_colorind2,trials_colorind3,trials_colorind4,trials_colorind5,wholereport_resp0,wholereport_resp1,wholereport_resp2,wholereport_resp3,wholereport_resp4,wholereport_resp5,wholereport_respacc0,wholereport_respacc1,wholereport_respacc2,wholereport_respacc3,wholereport_respacc4,wholereport_respacc5,wholereport_respacc_total,wholereport_respcolorind0,wholereport_respcolorind1,wholereport_respcolorind2,wholereport_respcolorind3,wholereport_respcolorind4,wholereport_respcolorind5,wholereport_resporder0,wholereport_resporder1,wholereport_resporder2,wholereport_resporder3,wholereport_resporder4,wholereport_resporder5,wholereport_rts0,wholereport_rts1,wholereport_rts2,wholereport_rts3,wholereport_rts4,wholereport_rts5,time_blockstart,time_encarray_offset,time_encarray_onset,time_response,time_iti_offset,time_iti_onset,time_memprobe_offset,time_memprobe_onset
1,1,1,1,1.0,1.0,0.37032345577608794,0,nan,nan,nan,nan,nan,nan,nan,nan,nan,8,1,2,6,0,4,nan,nan,nan,nan,nan,nan,nan,nan,nan,nan,nan,nan,0.0,nan,nan,nan,nan,nan,nan,nan,nan,nan,nan,nan,nan,nan,nan,nan,nan,nan,nan,661.381472237932,662.3951079354738,nan,662.7654313912499,nan,nan,nan,nan
1,2,1,1,1.0,1.0,0.3756975650903769,0,nan,nan,nan,nan,nan,nan,nan,nan,nan,3,8,0,1,5,7,nan,nan,nan,nan,nan,nan,nan,nan,nan,nan,nan,nan,0.0,nan,nan,nan,nan,nan,nan,nan,nan,nan,nan,nan,nan,nan,nan,nan,nan,nan,nan,661.381472237932,663.4217387139215,nan,663.7974362790119,nan,nan,nan,nan
1,3,1,1,1.0,1.0,0.4879953517811373,0,nan,nan,nan,nan,nan,nan,nan,nan,nan,4,5,6,8,7,2,nan,nan,nan,nan,nan,nan,nan,nan,nan,nan,nan,nan,0.0,nan,nan,nan,nan,nan,nan,nan,nan,nan,nan,nan,nan,nan,nan,nan,nan,nan,nan,661.381472237932,664.4454004751751,nan,664.9333958269563,nan,nan,nan,nan
1,4,1,1,1.0,1.0,0.47883342200657353,0,nan,nan,nan,nan,nan,nan,nan,nan,nan,3,4,0,6,1,7,nan,nan,nan,nan,nan,nan,nan,nan,nan,nan,nan,nan,0.0,nan,nan,nan,nan,nan,nan,nan,nan,nan,nan,nan,nan,nan,nan,nan,nan,nan,nan,661.381472237932,665.4705598595901,nan,665.9493932815967,nan,nan,nan,nan
1,5,1,1,1.0,1.0,0.5276879241573624,0,nan,nan,nan,nan,nan,nan,nan,nan,nan,4,1,2,7,6,0,nan,nan,nan,nan,nan,nan,nan,nan,nan,nan,nan,nan,0.0,nan,nan,nan,nan,nan,nan,nan,nan,nan,nan,nan,nan,nan,nan,nan,nan,nan,nan,661.381472237932,666.6456953812158,nan,667.1733833053731,nan,nan,nan,nan
1,6,1,1,1.0,1.0,0.526522726053372,0,nan,nan,nan,nan,nan,nan,nan,nan,nan,2,7,3,8,1,5,nan,nan,nan,nan,nan,nan,nan,nan,nan,nan,nan,nan,0.0,nan,nan,nan,nan,nan,nan,nan,nan,nan,nan,nan,nan,nan,nan,nan,nan,nan,nan,661.381472237932,667.6708402255899,nan,668.1973629516433,nan,nan,nan,nan
1,7,1,1,1.0,1.0,0.5250305198132992,0,nan,nan,nan,nan,nan,nan,nan,nan,nan,3,0,8,5,6,2,nan,nan,nan,nan,nan,nan,nan,nan,nan,nan,nan,nan,0.0,nan,nan,nan,nan,nan,nan,nan,nan,nan,nan,nan,nan,nan,nan,nan,nan,nan,nan,661.381472237932,668.7043056736002,nan,669.2293361934135,nan,nan,nan,nan
1,8,1,1,1.0,1.0,0.5399123834795319,0,nan,nan,nan,nan,nan,nan,nan,nan,nan,7,4,3,8,5,0,nan,nan,nan,nan,nan,nan,nan,nan,nan,nan,nan,nan,0.0,nan,nan,nan,nan,nan,nan,nan,nan,nan,nan,nan,nan,nan,nan,nan,nan,nan,nan,661.381472237932,669.7294413947966,nan,670.2693537782761,nan,nan,nan,nan
1,9,0,0,0.0,1.0,0.7707108478061855,0,nan,nan,nan,nan,nan,nan,nan,nan,nan,6,2,4,7,8,5,nan,nan,nan,nan,nan,nan,nan,nan,nan,nan,nan,nan,0.0,nan,nan,nan,nan,nan,nan,nan,nan,nan,nan,nan,nan,nan,nan,nan,nan,nan,nan,661.381472237932,670.7545933666406,nan,671.5253042144468,nan,nan,nan,nan
1,10,1,1,1.0,1.0,0.7135425843298435,0,nan,nan,nan,nan,nan,nan,nan,nan,nan,3,6,8,1,0,4,nan,nan,nan,nan,nan,nan,nan,nan,nan,nan,nan,nan,0.0,nan,nan,nan,nan,nan,nan,nan,nan,nan,nan,nan,nan,nan,nan,nan,nan,nan,nan,661.381472237932,671.7797476192354,nan,672.4932902035653,nan,nan,nan,nan
1,11,1,1,nan,nan,nan,0,nan,nan,nan,nan,nan,nan,nan,nan,nan,6,3,7,8,5,0,nan,nan,nan,nan,nan,nan,nan,nan,nan,nan,nan,nan,0.0,nan,nan,nan,nan,nan,nan,nan,nan,nan,nan,nan,nan,nan,nan,nan,nan,nan,nan,661.381472237932,672.8048653792357,nan,nan,nan,nan,nan,nan
1,12,1,1,nan,nan,nan,0,nan,nan,nan,nan,nan,nan,nan,nan,nan,4,6,8,3,7,1,nan,nan,nan,nan,nan,nan,nan,nan,nan,nan,nan,nan,0.0,nan,nan,nan,nan,nan,nan,nan,nan,nan,nan,nan,nan,nan,nan,nan,nan,nan,nan,661.381472237932,673.829997964378,nan,nan,nan,nan,nan,nan
1,13,0,0,nan,nan,nan,0,nan,nan,nan,nan,nan,nan,nan,nan,nan,3,5,2,8,6,4,nan,nan,nan,nan,nan,nan,nan,nan,nan,nan,nan,nan,0.0,nan,nan,nan,nan,nan,nan,nan,nan,nan,nan,nan,nan,nan,nan,nan,nan,nan,nan,661.381472237932,674.8551485107164,nan,nan,nan,nan,nan,nan
1,14,1,1,1.0,1.0,0.7649373153690249,0,nan,nan,nan,nan,nan,nan,nan,nan,nan,5,8,6,3,0,1,nan,nan,nan,nan,nan,nan,nan,nan,nan,nan,nan,nan,0.0,nan,nan,nan,nan,nan,nan,nan,nan,nan,nan,nan,nan,nan,nan,nan,nan,nan,nan,661.381472237932,675.8802813809016,nan,676.6452186962706,nan,nan,nan,nan
1,15,1,1,1.0,1.0,0.7157851701485924,0,nan,nan,nan,nan,nan,nan,nan,nan,nan,8,1,5,2,4,7,nan,nan,nan,nan,nan,nan,nan,nan,nan,nan,nan,nan,0.0,nan,nan,nan,nan,nan,nan,nan,nan,nan,nan,nan,nan,nan,nan,nan,nan,nan,nan,661.381472237932,676.9054305017926,nan,677.6212156719412,nan,nan,nan,nan
1,16,1,1,1.0,1.0,0.7386557827121578,1,nan,nan,nan,nan,nan,nan,nan,nan,nan,6,7,1,4,5,0,1.0,1.0,1.0,1.0,1.0,1.0,1.0,1.0,1.0,0.0,0.0,1.0,4.0,6.0,7.0,1.0,1.0,1.0,0.0,2.0,1.0,4.0,3.0,5.0,6.0,3.468279070511926,2.3987546321586706,7.101089989126194,6.260230051819235,8.116348753217608,9.595958498772234,661.381472237932,677.9305642272811,678.7389859269606,678.6692200099933,689.3821003102348,690.3820988847292,679.7474724579952,689.3737674473086
1,17,1,1,1.0,1.0,0.7257217129226774,0,nan,nan,nan,nan,nan,nan,nan,nan,nan,5,8,3,2,7,1,nan,nan,nan,nan,nan,nan,nan,nan,nan,nan,nan,nan,0.0,nan,nan,nan,nan,nan,nan,nan,nan,nan,nan,nan,nan,nan,nan,nan,nan,nan,nan,661.381472237932,690.6072888887138,nan,691.3330106016365,nan,nan,nan,nan
1,18,1,1,1.0,1.0,0.7805524527211674,0,nan,nan,nan,nan,nan,nan,nan,nan,nan,0,3,5,7,6,8,nan,nan,nan,nan,nan,nan,nan,nan,nan,nan,nan,nan,0.0,nan,nan,nan,nan,nan,nan,nan,nan,nan,nan,nan,nan,nan,nan,nan,nan,nan,nan,661.381472237932,691.6324368691421,nan,692.4129893218633,nan,nan,nan,nan
1,19,1,1,1.0,1.0,0.6353770914138295,0,nan,nan,nan,nan,nan,nan,nan,nan,nan,7,6,2,1,3,0,nan,nan,nan,nan,nan,nan,nan,nan,nan,nan,nan,nan,0.0,nan,nan,nan,nan,nan,nan,nan,nan,nan,nan,nan,nan,nan,nan,nan,nan,nan,nan,661.381472237932,692.6575865601772,nan,693.292963651591,nan,nan,nan,nan
1,20,0,0,0.0,1.0,0.5942185417516157,0,nan,nan,nan,nan,nan,nan,nan,nan,nan,8,0,3,7,1,5,nan,nan,nan,nan,nan,nan,nan,nan,nan,nan,nan,nan,0.0,nan,nan,nan,nan,nan,nan,nan,nan,nan,nan,nan,nan,nan,nan,nan,nan,nan,nan,661.381472237932,693.6827616250375,nan,694.2769801667891,nan,nan,nan,nan
1,21,1,1,1.0,1.0,0.5290948859765194,0,nan,nan,nan,nan,nan,nan,nan,nan,nan,3,1,6,8,2,4,nan,nan,nan,nan,nan,nan,nan,nan,nan,nan,nan,nan,0.0,nan,nan,nan,nan,nan,nan,nan,nan,nan,nan,nan,nan,nan,nan,nan,nan,nan,nan,661.381472237932,694.707847739046,nan,695.2369426250225,nan,nan,nan,nan
1,22,1,1,1.0,1.0,0.45593544002622366,0,nan,nan,nan,nan,nan,nan,nan,nan,nan,4,5,3,6,8,0,nan,nan,nan,nan,nan,nan,nan,nan,nan,nan,nan,nan,0.0,nan,nan,nan,nan,nan,nan,nan,nan,nan,nan,nan,nan,nan,nan,nan,nan,nan,nan,661.381472237932,695.7329903026111,nan,696.1889257426374,nan,nan,nan,nan
1,23,1,1,1.0,1.0,0.6388028366491199,0,nan,nan,nan,nan,nan,nan,nan,nan,nan,7,6,5,8,3,4,nan,nan,nan,nan,nan,nan,nan,nan,nan,nan,nan,nan,0.0,nan,nan,nan,nan,nan,nan,nan,nan,nan,nan,nan,nan,nan,nan,nan,nan,nan,nan,661.381472237932,696.7581280195154,nan,697.3969308561645,nan,nan,nan,nan
1,24,1,1,1.0,1.0,0.6456189748132601,0,nan,nan,nan,nan,nan,nan,nan,nan,nan,1,4,8,7,2,5,nan,nan,nan,nan,nan,nan,nan,nan,nan,nan,nan,nan,0.0,nan,nan,nan,nan,nan,nan,nan,nan,nan,nan,nan,nan,nan,nan,nan,nan,nan,nan,661.381472237932,697.7832931058947,nan,698.428912080708,nan,nan,nan,nan
1,25,1,1,1.0,1.0,0.7644794469233602,0,nan,nan,nan,nan,nan,nan,nan,nan,nan,4,2,3,1,0,8,nan,nan,nan,nan,nan,nan,nan,nan,nan,nan,nan,nan,0.0,nan,nan,nan,nan,nan,nan,nan,nan,nan,nan,nan,nan,nan,nan,nan,nan,nan,nan,661.381472237932,698.8084100105916,nan,699.572889457515,nan,nan,nan,nan
1,26,0,0,0.0,1.0,0.6433624190976843,0,nan,nan,nan,nan,nan,nan,nan,nan,nan,8,0,4,7,6,2,nan,nan,nan,nan,nan,nan,nan,nan,nan,nan,nan,nan,0.0,nan,nan,nan,nan,nan,nan,nan,nan,nan,nan,nan,nan,nan,nan,nan,nan,nan,nan,661.381472237932,699.8335223537288,nan,700.4768847728265,nan,nan,nan,nan
1,27,1,1,1.0,1.0,0.6101732316892594,0,nan,nan,nan,nan,nan,nan,nan,nan,nan,6,5,3,0,8,1,nan,nan,nan,nan,nan,nan,nan,nan,nan,nan,nan,nan,0.0,nan,nan,nan,nan,nan,nan,nan,nan,nan,nan,nan,nan,nan,nan,nan,nan,nan,nan,661.381472237932,700.8586862996453,nan,701.4688595313346,nan,nan,nan,nan
1,28,1,1,1.0,1.0,0.6570899184443988,0,nan,nan,nan,nan,nan,nan,nan,nan,nan,0,3,1,4,5,7,nan,nan,nan,nan,nan,nan,nan,nan,nan,nan,nan,nan,0.0,nan,nan,nan,nan,nan,nan,nan,nan,nan,nan,nan,nan,nan,nan,nan,nan,nan,nan,661.381472237932,701.8838297185139,nan,702.5409196369583,nan,nan,nan,nan
1,29,1,1,1.0,1.0,0.687872588285245,1,nan,nan,nan,nan,nan,nan,nan,nan,nan,2,6,0,1,7,3,1.0,1.0,1.0,1.0,1.0,1.0,1.0,1.0,1.0,0.0,0.0,0.0,3.0,2.0,6.0,0.0,3.0,3.0,8.0,3.0,2.0,1.0,6.0,5.0,4.0,3.336963209148962,2.578643318207469,1.4574373395880684,6.78514966822695,5.961355165054556,4.1858449667925015,661.381472237932,702.9089705715305,703.7173888499965,703.5968431598158,711.5517804694828,712.551022962376,704.7258631218574,711.543456444575
1,30,1,1,1.0,1.0,0.5556914525805041,0,nan,nan,nan,nan,nan,nan,nan,nan,nan,0,4,3,5,8,7,nan,nan,nan,nan,nan,nan,nan,nan,nan,nan,nan,nan,0.0,nan,nan,nan,nan,nan,nan,nan,nan,nan,nan,nan,nan,nan,nan,nan,nan,nan,nan,661.381472237932,712.7770066809608,nan,713.3326981335413,nan,nan,nan,nan
1,31,1,1,1.0,1.0,0.5065532771986909,0,nan,nan,nan,nan,nan,nan,nan,nan,nan,4,5,1,8,2,3,nan,nan,nan,nan,nan,nan,nan,nan,nan,nan,nan,nan,0.0,nan,nan,nan,nan,nan,nan,nan,nan,nan,nan,nan,nan,nan,nan,nan,nan,nan,nan,661.381472237932,713.802114177437,nan,714.3086674546357,nan,nan,nan,nan
1,32,1,1,1.0,1.0,0.32939269999042153,0,nan,nan,nan,nan,nan,nan,nan,nan,nan,2,3,0,6,4,7,nan,nan,nan,nan,nan,nan,nan,nan,nan,nan,nan,nan,0.0,nan,nan,nan,nan,nan,nan,nan,nan,nan,nan,nan,nan,nan,nan,nan,nan,nan,nan,661.381472237932,714.827270995942,nan,715.1566636959324,nan,nan,nan,nan
1,33,1,1,1.0,1.0,0.3682134408154525,0,nan,nan,nan,nan,nan,nan,nan,nan,nan,3,0,2,4,1,6,nan,nan,nan,nan,nan,nan,nan,nan,nan,nan,nan,nan,0.0,nan,nan,nan,nan,nan,nan,nan,nan,nan,nan,nan,nan,nan,nan,nan,nan,nan,nan,661.381472237932,715.8524089978891,nan,716.2206224387046,nan,nan,nan,nan
1,34,1,1,1.0,1.0,0.2630818934412673,0,nan,nan,nan,nan,nan,nan,nan,nan,nan,0,2,4,8,5,7,nan,nan,nan,nan,nan,nan,nan,nan,nan,nan,nan,nan,0.0,nan,nan,nan,nan,nan,nan,nan,nan,nan,nan,nan,nan,nan,nan,nan,nan,nan,nan,661.381472237932,716.8775444340426,nan,717.1406263274839,nan,nan,nan,nan
1,35,1,1,1.0,1.0,0.2219384540221654,0,nan,nan,nan,nan,nan,nan,nan,nan,nan,4,5,8,6,1,3,nan,nan,nan,nan,nan,nan,nan,nan,nan,nan,nan,nan,0.0,nan,nan,nan,nan,nan,nan,nan,nan,nan,nan,nan,nan,nan,nan,nan,nan,nan,nan,661.381472237932,717.9026807254413,nan,718.1246191794635,nan,nan,nan,nan
1,36,1,1,1.0,1.0,0.2687604880775325,0,nan,nan,nan,nan,nan,nan,nan,nan,nan,6,1,4,5,3,2,nan,nan,nan,nan,nan,nan,nan,nan,nan,nan,nan,nan,0.0,nan,nan,nan,nan,nan,nan,nan,nan,nan,nan,nan,nan,nan,nan,nan,nan,nan,nan,661.381472237932,718.9278338376316,nan,719.1965943257092,nan,nan,nan,nan
1,37,1,1,1.0,1.0,0.21960520680295303,0,nan,nan,nan,nan,nan,nan,nan,nan,nan,8,5,0,3,7,4,nan,nan,nan,nan,nan,nan,nan,nan,nan,nan,nan,nan,0.0,nan,nan,nan,nan,nan,nan,nan,nan,nan,nan,nan,nan,nan,nan,nan,nan,nan,nan,661.381472237932,719.9529601506074,nan,720.1725653574103,nan,nan,nan,nan
1,38,1,1,1.0,1.0,0.23448279401054606,0,nan,nan,nan,nan,nan,nan,nan,nan,nan,1,6,2,0,8,5,nan,nan,nan,nan,nan,nan,nan,nan,nan,nan,nan,nan,0.0,nan,nan,nan,nan,nan,nan,nan,nan,nan,nan,nan,nan,nan,nan,nan,nan,nan,nan,661.381472237932,720.9781001482625,nan,721.212582942273,nan,nan,nan,nan
1,39,1,1,1.0,1.0,0.2573009483749047,0,nan,nan,nan,nan,nan,nan,nan,nan,nan,8,1,7,5,3,2,nan,nan,nan,nan,nan,nan,nan,nan,nan,nan,nan,nan,0.0,nan,nan,nan,nan,nan,nan,nan,nan,nan,nan,nan,nan,nan,nan,nan,nan,nan,nan,661.381472237932,722.0032401459757,nan,722.2605410943506,nan,nan,nan,nan
1,40,1,1,1.0,1.0,0.3041084424476139,0,nan,nan,nan,nan,nan,nan,nan,nan,nan,7,6,5,0,2,8,nan,nan,nan,nan,nan,nan,nan,nan,nan,nan,nan,nan,0.0,nan,nan,nan,nan,nan,nan,nan,nan,nan,nan,nan,nan,nan,nan,nan,nan,nan,nan,661.381472237932,723.0284260445042,nan,723.3325344869518,nan,nan,nan,nan
1,41,1,1,1.0,1.0,0.26163501787232235,0,nan,nan,nan,nan,nan,nan,nan,nan,nan,4,8,6,1,5,0,nan,nan,nan,nan,nan,nan,nan,nan,nan,nan,nan,nan,0.0,nan,nan,nan,nan,nan,nan,nan,nan,nan,nan,nan,nan,nan,nan,nan,nan,nan,nan,661.381472237932,724.0548994485289,nan,724.3165344664012,nan,nan,nan,nan
1,42,1,1,1.0,1.0,0.30186984792817384,0,nan,nan,nan,nan,nan,nan,nan,nan,nan,3,1,7,6,0,4,nan,nan,nan,nan,nan,nan,nan,nan,nan,nan,nan,nan,0.0,nan,nan,nan,nan,nan,nan,nan,nan,nan,nan,nan,nan,nan,nan,nan,nan,nan,nan,661.381472237932,725.0786550072371,nan,725.3805248551653,nan,nan,nan,nan
1,43,1,1,1.0,1.0,0.2686809455626644,1,nan,nan,nan,nan,nan,nan,nan,nan,nan,5,6,3,8,7,0,1.0,1.0,1.0,1.0,1.0,1.0,0.0,1.0,1.0,1.0,0.0,0.0,3.0,4.0,6.0,3.0,8.0,1.0,1.0,4.0,3.0,1.0,2.0,6.0,5.0,5.223230521020014,3.8316811867407523,1.6947095386567526,2.663800284964964,7.398087216191925,6.462557140854187,661.381472237932,726.1038132512476,726.9122118579107,726.3724941968103,735.3550299096969,736.3550090974895,727.9206926870393,735.3466979020741
1,44,1,1,1.0,1.0,0.6960281198262237,0,nan,nan,nan,nan,nan,nan,nan,nan,nan,4,8,0,2,5,3,nan,nan,nan,nan,nan,nan,nan,nan,nan,nan,nan,nan,0.0,nan,nan,nan,nan,nan,nan,nan,nan,nan,nan,nan,nan,nan,nan,nan,nan,nan,nan,661.381472237932,736.580273512227,nan,737.2763016320532,nan,nan,nan,nan
1,45,1,1,1.0,1.0,0.6629144835169427,0,nan,nan,nan,nan,nan,nan,nan,nan,nan,0,7,4,8,2,6,nan,nan,nan,nan,nan,nan,nan,nan,nan,nan,nan,nan,0.0,nan,nan,nan,nan,nan,nan,nan,nan,nan,nan,nan,nan,nan,nan,nan,nan,nan,nan,661.381472237932,737.6053733109729,nan,738.2682877944899,nan,nan,nan,nan
1,46,1,1,1.0,1.0,0.6619100809912197,0,nan,nan,nan,nan,nan,nan,nan,nan,nan,3,6,7,4,8,2,nan,nan,nan,nan,nan,nan,nan,nan,nan,nan,nan,nan,0.0,nan,nan,nan,nan,nan,nan,nan,nan,nan,nan,nan,nan,nan,nan,nan,nan,nan,nan,661.381472237932,738.6305056110141,nan,739.2924156920053,nan,nan,nan,nan
1,47,1,1,1.0,1.0,0.7646105923340656,1,nan,nan,nan,nan,nan,nan,nan,nan,nan,6,5,4,3,7,1,1.0,1.0,1.0,1.0,1.0,1.0,1.0,1.0,0.0,0.0,0.0,0.0,2.0,6.0,5.0,0.0,4.0,6.0,3.0,2.0,1.0,5.0,4.0,6.0,3.0,2.335581906256266,1.3576459747273475,6.357938485976774,5.391061815607827,8.54156025359407,3.5667170720989816,661.381472237932,739.6556612891145,740.4640616063843,740.4202718814486,750.0653659896343,751.0646210269188,741.4808670305647,750.0570778872352
1,48,1,1,nan,nan,nan,0,nan,nan,nan,nan,nan,nan,nan,nan,nan,2,6,7,0,8,4,nan,nan,nan,nan,nan,nan,nan,nan,nan,nan,nan,nan,0.0,nan,nan,nan,nan,nan,nan,nan,nan,nan,nan,nan,nan,nan,nan,nan,nan,nan,nan,661.381472237932,751.2905853588018,nan,nan,nan,nan,nan,nan
1,49,0,0,0.0,1.0,0.6163749822298996,0,nan,nan,nan,nan,nan,nan,nan,nan,nan,6,0,8,1,2,5,nan,nan,nan,nan,nan,nan,nan,nan,nan,nan,nan,nan,0.0,nan,nan,nan,nan,nan,nan,nan,nan,nan,nan,nan,nan,nan,nan,nan,nan,nan,nan,661.381472237932,752.315695706231,nan,752.932070688461,nan,nan,nan,nan
1,50,1,1,1.0,1.0,0.6148941799183376,0,nan,nan,nan,nan,nan,nan,nan,nan,nan,0,7,1,3,8,6,nan,nan,nan,nan,nan,nan,nan,nan,nan,nan,nan,nan,0.0,nan,nan,nan,nan,nan,nan,nan,nan,nan,nan,nan,nan,nan,nan,nan,nan,nan,nan,661.381472237932,753.3491899492219,nan,753.9640841291402,nan,nan,nan,nan
1,51,1,1,1.0,1.0,0.6857537352479994,0,nan,nan,nan,nan,nan,nan,nan,nan,nan,6,4,8,7,0,2,nan,nan,nan,nan,nan,nan,nan,nan,nan,nan,nan,nan,0.0,nan,nan,nan,nan,nan,nan,nan,nan,nan,nan,nan,nan,nan,nan,nan,nan,nan,nan,661.381472237932,754.3743105601752,nan,755.0600642954232,nan,nan,nan,nan
1,52,1,1,1.0,1.0,0.620561370626092,0,nan,nan,nan,nan,nan,nan,nan,nan,nan,8,2,3,4,5,0,nan,nan,nan,nan,nan,nan,nan,nan,nan,nan,nan,nan,0.0,nan,nan,nan,nan,nan,nan,nan,nan,nan,nan,nan,nan,nan,nan,nan,nan,nan,nan,661.381472237932,755.3994773571612,nan,756.0200387277873,nan,nan,nan,nan
1,53,1,1,1.0,1.0,0.5554263108642772,0,nan,nan,nan,nan,nan,nan,nan,nan,nan,1,0,7,2,8,4,nan,nan,nan,nan,nan,nan,nan,nan,nan,nan,nan,nan,0.0,nan,nan,nan,nan,nan,nan,nan,nan,nan,nan,nan,nan,nan,nan,nan,nan,nan,nan,661.381472237932,756.42460652109,nan,756.9800328319543,nan,nan,nan,nan
1,54,1,1,1.0,1.0,0.4822782687842846,0,nan,nan,nan,nan,nan,nan,nan,nan,nan,7,5,8,4,3,2,nan,nan,nan,nan,nan,nan,nan,nan,nan,nan,nan,nan,0.0,nan,nan,nan,nan,nan,nan,nan,nan,nan,nan,nan,nan,nan,nan,nan,nan,nan,nan,661.381472237932,757.4497308383579,nan,757.9320091071422,nan,nan,nan,nan
1,55,0,0,0.0,1.0,0.60112448601285,0,nan,nan,nan,nan,nan,nan,nan,nan,nan,0,3,2,1,8,7,nan,nan,nan,nan,nan,nan,nan,nan,nan,nan,nan,nan,0.0,nan,nan,nan,nan,nan,nan,nan,nan,nan,nan,nan,nan,nan,nan,nan,nan,nan,nan,661.381472237932,758.4748939290293,nan,759.0760184150422,nan,nan,nan,nan
1,56,1,1,1.0,1.0,0.7680109637440182,0,nan,nan,nan,nan,nan,nan,nan,nan,nan,1,0,3,5,4,6,nan,nan,nan,nan,nan,nan,nan,nan,nan,nan,nan,nan,0.0,nan,nan,nan,nan,nan,nan,nan,nan,nan,nan,nan,nan,nan,nan,nan,nan,nan,nan,661.381472237932,759.5000019956497,nan,760.2680129593937,nan,nan,nan,nan
1,57,1,1,1.0,1.0,0.7828115743468516,0,nan,nan,nan,nan,nan,nan,nan,nan,nan,3,8,4,6,7,2,nan,nan,nan,nan,nan,nan,nan,nan,nan,nan,nan,nan,0.0,nan,nan,nan,nan,nan,nan,nan,nan,nan,nan,nan,nan,nan,nan,nan,nan,nan,nan,661.381472237932,760.5251599545591,nan,761.3079715289059,nan,nan,nan,nan
1,58,1,1,1.0,1.0,0.7096720853005536,0,nan,nan,nan,nan,nan,nan,nan,nan,nan,0,5,2,7,1,6,nan,nan,nan,nan,nan,nan,nan,nan,nan,nan,nan,nan,0.0,nan,nan,nan,nan,nan,nan,nan,nan,nan,nan,nan,nan,nan,nan,nan,nan,nan,nan,661.381472237932,761.5502740082447,nan,762.2599460935453,nan,nan,nan,nan
1,59,1,1,1.0,1.0,0.6365109286853112,0,nan,nan,nan,nan,nan,nan,nan,nan,nan,7,3,6,4,2,0,nan,nan,nan,nan,nan,nan,nan,nan,nan,nan,nan,nan,0.0,nan,nan,nan,nan,nan,nan,nan,nan,nan,nan,nan,nan,nan,nan,nan,nan,nan,nan,661.381472237932,762.5754351032665,nan,763.2119460319518,nan,nan,nan,nan
1,60,1,1,nan,nan,nan,0,nan,nan,nan,nan,nan,nan,nan,nan,nan,0,6,7,5,3,2,nan,nan,nan,nan,nan,nan,nan,nan,nan,nan,nan,nan,0.0,nan,nan,nan,nan,nan,nan,nan,nan,nan,nan,nan,nan,nan,nan,nan,nan,nan,nan,661.381472237932,763.6005970535334,nan,nan,nan,nan,nan,nan
1,61,1,1,nan,nan,nan,0,nan,nan,nan,nan,nan,nan,nan,nan,nan,1,7,5,6,8,3,nan,nan,nan,nan,nan,nan,nan,nan,nan,nan,nan,nan,0.0,nan,nan,nan,nan,nan,nan,nan,nan,nan,nan,nan,nan,nan,nan,nan,nan,nan,nan,661.381472237932,764.6257116774214,nan,nan,nan,nan,nan,nan
1,62,1,1,1.0,1.0,0.7850470326957293,0,nan,nan,nan,nan,nan,nan,nan,nan,nan,0,4,6,2,3,5,nan,nan,nan,nan,nan,nan,nan,nan,nan,nan,nan,nan,0.0,nan,nan,nan,nan,nan,nan,nan,nan,nan,nan,nan,nan,nan,nan,nan,nan,nan,nan,661.381472237932,765.650847398676,nan,766.4358944313717,nan,nan,nan,nan
1,63,1,1,1.0,1.0,0.7678858054568991,0,nan,nan,nan,nan,nan,nan,nan,nan,nan,7,3,5,8,2,4,nan,nan,nan,nan,nan,nan,nan,nan,nan,nan,nan,nan,0.0,nan,nan,nan,nan,nan,nan,nan,nan,nan,nan,nan,nan,nan,nan,nan,nan,nan,nan,661.381472237932,766.6759882516344,nan,767.4438740570913,nan,nan,nan,nan
1,64,1,1,nan,nan,nan,0,nan,nan,nan,nan,nan,nan,nan,nan,nan,4,5,8,0,1,2,nan,nan,nan,nan,nan,nan,nan,nan,nan,nan,nan,nan,0.0,nan,nan,nan,nan,nan,nan,nan,nan,nan,nan,nan,nan,nan,nan,nan,nan,nan,nan,661.381472237932,767.7011256834376,nan,nan,nan,nan,nan,nan
1,65,1,1,nan,nan,nan,0,nan,nan,nan,nan,nan,nan,nan,nan,nan,6,7,3,4,5,0,nan,nan,nan,nan,nan,nan,nan,nan,nan,nan,nan,nan,0.0,nan,nan,nan,nan,nan,nan,nan,nan,nan,nan,nan,nan,nan,nan,nan,nan,nan,nan,661.381472237932,768.7262862081989,nan,nan,nan,nan,nan,nan
1,66,1,1,nan,nan,nan,0,nan,nan,nan,nan,nan,nan,nan,nan,nan,5,0,6,8,7,4,nan,nan,nan,nan,nan,nan,nan,nan,nan,nan,nan,nan,0.0,nan,nan,nan,nan,nan,nan,nan,nan,nan,nan,nan,nan,nan,nan,nan,nan,nan,nan,661.381472237932,769.7514033979969,nan,nan,nan,nan,nan,nan
1,67,1,1,nan,nan,nan,0,nan,nan,nan,nan,nan,nan,nan,nan,nan,7,5,0,2,4,3,nan,nan,nan,nan,nan,nan,nan,nan,nan,nan,nan,nan,0.0,nan,nan,nan,nan,nan,nan,nan,nan,nan,nan,nan,nan,nan,nan,nan,nan,nan,nan,661.381472237932,770.7765433957102,nan,nan,nan,nan,nan,nan
1,68,1,1,nan,nan,nan,0,nan,nan,nan,nan,nan,nan,nan,nan,nan,3,4,8,0,2,1,nan,nan,nan,nan,nan,nan,nan,nan,nan,nan,nan,nan,0.0,nan,nan,nan,nan,nan,nan,nan,nan,nan,nan,nan,nan,nan,nan,nan,nan,nan,nan,661.381472237932,771.8016531729372,nan,nan,nan,nan,nan,nan
1,69,0,0,nan,nan,nan,0,nan,nan,nan,nan,nan,nan,nan,nan,nan,7,2,4,5,3,8,nan,nan,nan,nan,nan,nan,nan,nan,nan,nan,nan,nan,0.0,nan,nan,nan,nan,nan,nan,nan,nan,nan,nan,nan,nan,nan,nan,nan,nan,nan,nan,661.381472237932,772.8268202549662,nan,nan,nan,nan,nan,nan
1,70,1,1,nan,nan,nan,0,nan,nan,nan,nan,nan,nan,nan,nan,nan,5,4,6,0,8,3,nan,nan,nan,nan,nan,nan,nan,nan,nan,nan,nan,nan,0.0,nan,nan,nan,nan,nan,nan,nan,nan,nan,nan,nan,nan,nan,nan,nan,nan,nan,nan,661.381472237932,773.8519753628643,nan,nan,nan,nan,nan,nan
1,71,0,0,nan,nan,nan,0,nan,nan,nan,nan,nan,nan,nan,nan,nan,1,7,5,6,2,4,nan,nan,nan,nan,nan,nan,nan,nan,nan,nan,nan,nan,0.0,nan,nan,nan,nan,nan,nan,nan,nan,nan,nan,nan,nan,nan,nan,nan,nan,nan,nan,661.381472237932,774.8771176413866,nan,nan,nan,nan,nan,nan
1,72,1,1,nan,nan,nan,0,nan,nan,nan,nan,nan,nan,nan,nan,nan,5,6,1,0,4,3,nan,nan,nan,nan,nan,nan,nan,nan,nan,nan,nan,nan,0.0,nan,nan,nan,nan,nan,nan,nan,nan,nan,nan,nan,nan,nan,nan,nan,nan,nan,nan,661.381472237932,775.9022439543041,nan,nan,nan,nan,nan,nan
1,73,1,1,nan,nan,nan,0,nan,nan,nan,nan,nan,nan,nan,nan,nan,1,0,6,4,3,7,nan,nan,nan,nan,nan,nan,nan,nan,nan,nan,nan,nan,0.0,nan,nan,nan,nan,nan,nan,nan,nan,nan,nan,nan,nan,nan,nan,nan,nan,nan,nan,661.381472237932,776.927380815905,nan,nan,nan,nan,nan,nan
1,74,0,0,nan,nan,nan,0,nan,nan,nan,nan,nan,nan,nan,nan,nan,0,8,4,5,7,3,nan,nan,nan,nan,nan,nan,nan,nan,nan,nan,nan,nan,0.0,nan,nan,nan,nan,nan,nan,nan,nan,nan,nan,nan,nan,nan,nan,nan,nan,nan,nan,661.381472237932,777.9525230943691,nan,nan,nan,nan,nan,nan
1,75,1,1,nan,nan,nan,0,nan,nan,nan,nan,nan,nan,nan,nan,nan,1,0,5,7,6,4,nan,nan,nan,nan,nan,nan,nan,nan,nan,nan,nan,nan,0.0,nan,nan,nan,nan,nan,nan,nan,nan,nan,nan,nan,nan,nan,nan,nan,nan,nan,nan,661.381472237932,778.9776722152019,nan,nan,nan,nan,nan,nan
1,76,1,1,nan,nan,nan,0,nan,nan,nan,nan,nan,nan,nan,nan,nan,8,3,7,6,2,1,nan,nan,nan,nan,nan,nan,nan,nan,nan,nan,nan,nan,0.0,nan,nan,nan,nan,nan,nan,nan,nan,nan,nan,nan,nan,nan,nan,nan,nan,nan,nan,661.381472237932,780.0027982430765,nan,nan,nan,nan,nan,nan
1,77,1,1,nan,nan,nan,0,nan,nan,nan,nan,nan,nan,nan,nan,nan,2,7,8,5,6,4,nan,nan,nan,nan,nan,nan,nan,nan,nan,nan,nan,nan,0.0,nan,nan,nan,nan,nan,nan,nan,nan,nan,nan,nan,nan,nan,nan,nan,nan,nan,nan,661.381472237932,781.0279305431177,nan,nan,nan,nan,nan,nan
1,78,1,1,nan,nan,nan,0,nan,nan,nan,nan,nan,nan,nan,nan,nan,7,4,2,1,8,6,nan,nan,nan,nan,nan,nan,nan,nan,nan,nan,nan,nan,0.0,nan,nan,nan,nan,nan,nan,nan,nan,nan,nan,nan,nan,nan,nan,nan,nan,nan,nan,661.381472237932,782.0530845106114,nan,nan,nan,nan,nan,nan
1,79,1,1,nan,nan,nan,0,nan,nan,nan,nan,nan,nan,nan,nan,nan,2,6,1,8,3,7,nan,nan,nan,nan,nan,nan,nan,nan,nan,nan,nan,nan,0.0,nan,nan,nan,nan,nan,nan,nan,nan,nan,nan,nan,nan,nan,nan,nan,nan,nan,nan,661.381472237932,783.0782284996822,nan,nan,nan,nan,nan,nan
1,80,1,1,nan,nan,nan,0,nan,nan,nan,nan,nan,nan,nan,nan,nan,3,1,2,5,0,4,nan,nan,nan,nan,nan,nan,nan,nan,nan,nan,nan,nan,0.0,nan,nan,nan,nan,nan,nan,nan,nan,nan,nan,nan,nan,nan,nan,nan,nan,nan,nan,661.381472237932,784.1033793311217,nan,nan,nan,nan,nan,nan
1,81,1,1,1.0,1.0,0.027137683820910752,1,1.0,0.0,1.0,0.555737973665696,0.17598539908120145,0.3797525745844945,0.7317233727468975,0.17598539908120145,0.027137683820910752,6,2,3,1,7,8,1.0,1.0,1.0,1.0,1.0,1.0,1.0,1.0,1.0,0.0,1.0,1.0,5.0,6.0,2.0,3.0,7.0,7.0,8.0,4.0,2.0,1.0,5.0,6.0,3.0,5.30123607366113,3.014923488080967,1.9825251642614603,6.5006773943896405,7.460288325964939,4.205594889703207,661.381472237932,785.1284976613242,785.9369244927657,785.1556353451451,794.4464094392606,795.4464587612893,786.9453910668963,794.4380748657277
1,82,0,0,0.0,1.0,0.6278490619151853,0,0.0,0.0,0.0,0.5466241755649238,0.18754032988902133,0.35908384567590246,0.7341645054539452,0.18754032988902133,0.327493372868048,0,3,6,8,4,1,nan,nan,nan,nan,nan,nan,nan,nan,nan,nan,nan,nan,0.0,nan,nan,nan,nan,nan,nan,nan,nan,nan,nan,nan,nan,nan,nan,nan,nan,nan,nan,661.381472237932,795.6716074260185,nan,796.2994564879336,nan,nan,nan,nan
1,83,1,1,1.0,1.0,0.4986651681829244,0,0.0,0.0,0.0,0.5480008685539114,0.18623956823723242,0.36176130031667897,0.7342404367911438,0.18623956823723242,0.3845506379730068,6,5,4,0,7,8,nan,nan,nan,nan,nan,nan,nan,nan,nan,nan,nan,nan,0.0,nan,nan,nan,nan,nan,nan,nan,nan,nan,nan,nan,nan,nan,nan,nan,nan,nan,nan,661.381472237932,796.6967457130668,nan,797.1954108812497,nan,nan,nan,nan
1,84,1,1,1.0,1.0,0.44952072063460946,0,0.0,0.0,0.0,0.5471786068810616,0.18478901817702947,0.3623895887040321,0.7319676250580911,0.18478901817702947,0.5253449835775731,1,6,3,5,0,2,nan,nan,nan,nan,nan,nan,nan,nan,nan,nan,nan,nan,0.0,nan,nan,nan,nan,nan,nan,nan,nan,nan,nan,nan,nan,nan,nan,nan,nan,nan,nan,661.381472237932,797.7218874213868,nan,798.1714081420214,nan,nan,nan,nan
1,85,1,1,1.0,1.0,0.4243710296577774,0,0.0,0.0,0.0,0.5455776579262017,0.18368717133896095,0.36189048658724077,0.7292648292651627,0.18368717133896095,0.45751897282510373,3,5,8,2,4,1,nan,nan,nan,nan,nan,nan,nan,nan,nan,nan,nan,nan,0.0,nan,nan,nan,nan,nan,nan,nan,nan,nan,nan,nan,nan,nan,nan,nan,nan,nan,nan,661.381472237932,798.7470459504402,nan,799.171416980098,nan,nan,nan,nan
1,86,1,1,1.0,1.0,0.47122585005126894,0,0.0,0.0,0.0,0.5436227123089691,0.1828384482645339,0.3607842640444352,0.726461160573503,0.1828384482645339,0.44837253344788525,1,7,4,3,0,5,nan,nan,nan,nan,nan,nan,nan,nan,nan,nan,nan,nan,0.0,nan,nan,nan,nan,nan,nan,nan,nan,nan,nan,nan,nan,nan,nan,nan,nan,nan,nan,661.381472237932,799.7721634253394,nan,800.2433892753907,nan,nan,nan,nan
1,87,1,1,1.0,1.0,0.43804207938956097,0,0.0,0.0,0.0,0.5424735557651961,0.1816071023579353,0.36086645340726076,0.7240806581231314,0.1816071023579353,0.4445463196995358,7,4,0,6,3,2,nan,nan,nan,nan,nan,nan,nan,nan,nan,nan,nan,nan,0.0,nan,nan,nan,nan,nan,nan,nan,nan,nan,nan,nan,nan,nan,nan,nan,nan,nan,nan,661.381472237932,800.7973228097544,nan,801.235364889144,nan,nan,nan,nan
1,88,1,1,1.0,1.0,0.3489287988631986,0,0.0,0.0,0.0,0.5408418139468267,0.1806475904792823,0.3601942234675444,0.7214894044261091,0.1806475904792823,0.41939890943467617,2,6,5,4,1,0,nan,nan,nan,nan,nan,nan,nan,nan,nan,nan,nan,nan,0.0,nan,nan,nan,nan,nan,nan,nan,nan,nan,nan,nan,nan,nan,nan,nan,nan,nan,nan,661.381472237932,801.8224468419212,nan,802.1713756407844,nan,nan,nan,nan
1,89,1,1,1.0,1.0,0.41973646625410765,0,0.0,0.0,0.0,0.5378893060224632,0.18080211474268584,0.3570871912797774,0.718691420765149,0.18080211474268584,0.40223578150228906,6,3,1,7,0,2,nan,nan,nan,nan,nan,nan,nan,nan,nan,nan,nan,nan,0.0,nan,nan,nan,nan,nan,nan,nan,nan,nan,nan,nan,nan,nan,nan,nan,nan,nan,nan,661.381472237932,802.847581137612,nan,803.2673176038661,nan,nan,nan,nan
1,90,1,1,1.0,1.0,0.3705694959498942,0,0.0,0.0,0.0,0.5360991114805185,0.18000672892217429,0.3560923825583442,0.7161058404026928,0.18000672892217429,0.3797449203557335,1,4,0,8,2,5,nan,nan,nan,nan,nan,nan,nan,nan,nan,nan,nan,nan,0.0,nan,nan,nan,nan,nan,nan,nan,nan,nan,nan,nan,nan,nan,nan,nan,nan,nan,nan,661.381472237932,803.8727450835868,nan,804.2433145795367,nan,nan,nan,nan
1,91,1,1,1.0,1.0,0.297442551178392,0,0.0,0.0,0.0,0.5336285202039419,0.17978224721734762,0.3538462729865943,0.7134107674212895,0.17978224721734762,0.3625828377941313,8,7,3,0,6,2,nan,nan,nan,nan,nan,nan,nan,nan,nan,nan,nan,nan,0.0,nan,nan,nan,nan,nan,nan,nan,nan,nan,nan,nan,nan,nan,nan,nan,nan,nan,nan,661.381472237932,804.8978617031826,nan,805.195304254361,nan,nan,nan,nan
1,92,1,1,1.0,1.0,0.24027571314945817,1,1.0,0.0,1.0,0.5301551971300368,0.18070590510719,0.3494492920228468,0.7108611022372268,0.18070590510719,0.3027625867592481,0,3,5,7,1,4,1.0,1.0,1.0,1.0,1.0,1.0,1.0,0.0,0.0,0.0,0.0,0.0,1.0,0.0,4.0,2.0,1.0,7.0,8.0,2.0,1.0,6.0,5.0,4.0,3.0,3.0273788772174157,1.33262714400189,8.889627199270763,7.257811274961568,6.243009809055366,3.977415341360029,661.381472237932,805.9230205173953,806.7314370852546,806.1632962305448,816.6660967544885,817.6653991180938,807.739899953187,816.6578254728811
1,93,1,1,1.0,1.0,0.519763037445955,0,0.0,0.0,0.0,0.5259540451882893,0.18270617613436396,0.3432478690539253,0.7086602213226532,0.18270617613436396,0.3524937672579351,8,7,6,1,4,0,nan,nan,nan,nan,nan,nan,nan,nan,nan,nan,nan,nan,0.0,nan,nan,nan,nan,nan,nan,nan,nan,nan,nan,nan,nan,nan,nan,nan,nan,nan,nan,661.381472237932,817.8913289530319,nan,818.4110919904779,nan,nan,nan,nan
1,94,1,1,1.0,1.0,0.45464536861982197,0,0.0,0.0,0.0,0.5258656022205417,0.1813979252544374,0.34446767696610425,0.7072635274749791,0.1813979252544374,0.40489470640507835,2,5,3,4,7,8,nan,nan,nan,nan,nan,nan,nan,nan,nan,nan,nan,nan,0.0,nan,nan,nan,nan,nan,nan,nan,nan,nan,nan,nan,nan,nan,nan,nan,nan,nan,nan,661.381472237932,818.9164370197104,nan,819.3710823883303,nan,nan,nan,nan
1,95,1,1,1.0,1.0,0.477566443674732,0,0.0,0.0,0.0,0.5248625003388414,0.18031136569782355,0.34455113464101783,0.705173866036665,0.18031136569782355,0.48399161658016965,8,4,7,3,1,5,nan,nan,nan,nan,nan,nan,nan,nan,nan,nan,nan,nan,0.0,nan,nan,nan,nan,nan,nan,nan,nan,nan,nan,nan,nan,nan,nan,nan,nan,nan,nan,661.381472237932,819.941553069104,nan,820.4191195127787,nan,nan,nan,nan
1,96,1,1,1.0,1.0,0.3083464336232282,0,0.0,0.0,0.0,0.524205610662951,0.1791403561794593,0.3450652544834917,0.7033459668424104,0.1791403561794593,0.4135194153059274,1,3,0,6,4,7,nan,nan,nan,nan,nan,nan,nan,nan,nan,nan,nan,nan,0.0,nan,nan,nan,nan,nan,nan,nan,nan,nan,nan,nan,nan,nan,nan,nan,nan,nan,nan,661.381472237932,820.9667144491686,nan,821.2750608827919,nan,nan,nan,nan
1,97,1,1,1.0,1.0,0.29119775065919384,0,0.0,0.0,0.0,0.5212486356350096,0.1796697172777881,0.34157891835722143,0.7009183529127977,0.1796697172777881,0.35903687598571804,0,1,7,8,5,3,nan,nan,nan,nan,nan,nan,nan,nan,nan,nan,nan,nan,0.0,nan,nan,nan,nan,nan,nan,nan,nan,nan,nan,nan,nan,nan,nan,nan,nan,nan,nan,661.381472237932,821.9918535915785,nan,822.2830513422377,nan,nan,nan,nan
1,98,1,1,1.0,1.0,0.25005146028706804,1,1.0,0.0,1.0,0.5181398398920931,0.18041754730736348,0.33772229258472963,0.6985573871994566,0.18041754730736348,0.28319854818983003,2,6,8,1,3,0,1.0,1.0,1.0,1.0,1.0,1.0,1.0,1.0,1.0,1.0,0.0,0.0,4.0,2.0,6.0,8.0,1.0,1.0,8.0,2.0,1.0,4.0,5.0,6.0,3.0,2.4046470507164486,1.4515953834052198,4.92384901404148,5.763548885006458,6.795207662973553,3.460487895004917,661.381472237932,823.0169938743347,823.8254480752512,823.2670453346218,831.6681460434338,832.6680331443786,824.8338887054706,831.6598128954647
1,99,1,1,1.0,1.0,0.5256029978627339,0,0.0,0.0,0.0,0.5145653281640261,0.18182957060852867,0.33273575755549745,0.6963948987725548,0.18182957060852867,0.35561740293633193,0,8,7,3,6,2,nan,nan,nan,nan,nan,nan,nan,nan,nan,nan,nan,nan,0.0,nan,nan,nan,nan,nan,nan,nan,nan,nan,nan,nan,nan,nan,nan,nan,nan,nan,nan,661.381472237932,832.8932992697228,nan,833.4189022675855,nan,nan,nan,nan
1,100,1,1,1.0,1.0,0.39639344526221976,0,0.0,0.0,0.0,0.5147105606600618,0.18063374120900147,0.3340768194510604,0.6953443018690633,0.18063374120900147,0.3906826344706739,7,2,0,8,5,3,nan,nan,nan,nan,nan,nan,nan,nan,nan,nan,nan,nan,0.0,nan,nan,nan,nan,nan,nan,nan,nan,nan,nan,nan,nan,nan,nan,nan,nan,nan,nan,661.381472237932,833.9184826023993,nan,834.3148760476615,nan,nan,nan,nan
1,101,1,1,1.0,1.0,0.38720072485739365,0,0.0,0.0,0.0,0.5131739747458041,0.17995622911471032,0.33321774563109374,0.6931302038605144,0.17995622911471032,0.43639905599411577,6,1,7,4,8,5,nan,nan,nan,nan,nan,nan,nan,nan,nan,nan,nan,nan,0.0,nan,nan,nan,nan,nan,nan,nan,nan,nan,nan,nan,nan,nan,nan,nan,nan,nan,nan,661.381472237932,834.943643982464,nan,835.3308447073214,nan,nan,nan,nan
1,102,1,1,1.0,1.0,0.306063933938276,0,0.0,0.0,0.0,0.5115589330805681,0.17935970970205065,0.3321992233785175,0.6909186427826187,0.17935970970205065,0.3632193680192965,1,6,3,2,4,7,nan,nan,nan,nan,nan,nan,nan,nan,nan,nan,nan,nan,0.0,nan,nan,nan,nan,nan,nan,nan,nan,nan,nan,nan,nan,nan,nan,nan,nan,nan,nan,661.381472237932,835.968763453071,nan,836.2748273870093,nan,nan,nan,nan
1,103,1,1,1.0,1.0,0.2889138254686259,1,1.0,0.0,1.0,0.5089577305597796,0.17969546273183357,0.329262267827946,0.6886531932916131,0.17969546273183357,0.3273928280880985,4,5,2,8,6,1,1.0,1.0,1.0,1.0,1.0,1.0,0.0,1.0,1.0,0.0,0.0,0.0,2.0,8.0,5.0,2.0,3.0,3.0,4.0,3.0,2.0,1.0,6.0,5.0,4.0,3.7064125525648706,2.4739382784464397,1.34696047793841,10.16215469565941,7.537718834588304,4.7629843897302635,661.381472237932,836.993895468011,837.8023260057089,837.2828092934797,849.0205156977754,850.019736238115,838.8191416934133,849.0121996556991
1,104,1,1,1.0,1.0,0.5569022664567456,0,0.0,0.0,0.0,0.5062071817461401,0.18023458205391257,0.3259725996922275,0.6864417638000526,0.18023458205391257,0.3839600086212158,5,7,4,1,2,6,nan,nan,nan,nan,nan,nan,nan,nan,nan,nan,nan,nan,0.0,nan,nan,nan,nan,nan,nan,nan,nan,nan,nan,nan,nan,nan,nan,nan,nan,nan,nan,661.381472237932,850.2457171057467,nan,850.8026193722035,nan,nan,nan,nan
1,105,1,1,1.0,1.0,0.4837527989875525,0,0.0,0.0,0.0,0.506833046989481,0.1792060207864146,0.3276270262030664,0.6860390677758955,0.1792060207864146,0.44318963030430797,7,0,6,8,5,4,nan,nan,nan,nan,nan,nan,nan,nan,nan,nan,nan,nan,0.0,nan,nan,nan,nan,nan,nan,nan,nan,nan,nan,nan,nan,nan,nan,nan,nan,nan,nan,661.381472237932,851.2708551076939,nan,851.7546079066815,nan,nan,nan,nan
1,106,1,1,1.0,1.0,0.37060342269251123,0,0.0,0.0,0.0,0.506551580550433,0.17812796271585837,0.32842361783457463,0.6846795432662914,0.17812796271585837,0.4704194960456031,2,3,5,6,8,0,nan,nan,nan,nan,nan,nan,nan,nan,nan,nan,nan,nan,0.0,nan,nan,nan,nan,nan,nan,nan,nan,nan,nan,nan,nan,nan,nan,nan,nan,nan,nan,661.381472237932,852.295987122634,nan,852.6665905453265,nan,nan,nan,nan
1,107,1,1,1.0,1.0,0.385456491378136,0,0.0,0.0,0.0,0.504913650937687,0.17767182616348426,0.32724182477420277,0.6825854771011712,0.17767182616348426,0.4132709043527332,1,8,7,0,4,2,nan,nan,nan,nan,nan,nan,nan,nan,nan,nan,nan,nan,0.0,nan,nan,nan,nan,nan,nan,nan,nan,nan,nan,nan,nan,nan,nan,nan,nan,nan,nan,661.381472237932,853.3211251246394,nan,853.7065816160175,nan,nan,nan,nan
1,108,0,0,1.0,0.0,0.28032950562192127,0,0.0,0.0,0.0,0.5034915418953114,0.17708567304722478,0.32640586884808664,0.6805772149425362,0.17708567304722478,0.3454631398975228,3,2,6,1,7,4,nan,nan,nan,nan,nan,nan,nan,nan,nan,nan,nan,nan,0.0,nan,nan,nan,nan,nan,nan,nan,nan,nan,nan,nan,nan,nan,nan,nan,nan,nan,nan,661.381472237932,854.3462451653904,nan,854.6265746710123,nan,nan,nan,nan
1,109,1,1,1.0,1.0,0.4311081955092959,0,0.0,0.0,0.0,0.5008661061744479,0.17767781771356145,0.3231882884608865,0.6785439238880093,0.17767781771356145,0.36563139750311774,0,3,1,4,6,5,nan,nan,nan,nan,nan,nan,nan,nan,nan,nan,nan,nan,0.0,nan,nan,nan,nan,nan,nan,nan,nan,nan,nan,nan,nan,nan,nan,nan,nan,nan,nan,661.381472237932,855.3714447487146,nan,855.8025529442239,nan,nan,nan,nan
1,110,1,1,1.0,1.0,0.34998879564227536,0,0.0,0.0,0.0,0.5000549676783416,0.17680001742565332,0.32325495025268824,0.6768549851039949,0.17680001742565332,0.35380883225783083,7,4,2,5,3,1,nan,nan,nan,nan,nan,nan,nan,nan,nan,nan,nan,nan,0.0,nan,nan,nan,nan,nan,nan,nan,nan,nan,nan,nan,nan,nan,nan,nan,nan,nan,nan,661.381472237932,856.3965533855371,nan,856.7465421811794,nan,nan,nan,nan
1,111,1,1,1.0,1.0,0.3564884742954746,0,0.0,0.0,0.0,0.49833006914919137,0.1765073075553215,0.32182276159386985,0.6748373767045128,0.1765073075553215,0.3791951551490153,2,7,4,0,1,6,nan,nan,nan,nan,nan,nan,nan,nan,nan,nan,nan,nan,0.0,nan,nan,nan,nan,nan,nan,nan,nan,nan,nan,nan,nan,nan,nan,nan,nan,nan,nan,661.381472237932,857.4300382203073,nan,857.7865266946028,nan,nan,nan,nan
1,112,1,1,1.0,1.0,0.3313499021460302,0,0.0,0.0,0.0,0.4967182328440355,0.17614432968887497,0.32057390315516054,0.6728625625329104,0.17614432968887497,0.34594239069459337,7,3,0,6,8,4,nan,nan,nan,nan,nan,nan,nan,nan,nan,nan,nan,nan,0.0,nan,nan,nan,nan,nan,nan,nan,nan,nan,nan,nan,nan,nan,nan,nan,nan,nan,nan,661.381472237932,858.4551531292964,nan,858.7865030314424,nan,nan,nan,nan
1,113,1,1,1.0,1.0,0.3301926867570728,0,0.0,0.0,0.0,0.4948601617125972,0.1760171087270573,0.31884305298553994,0.6708772704396545,0.1760171087270573,0.3393436877328592,2,6,4,3,7,1,nan,nan,nan,nan,nan,nan,nan,nan,nan,nan,nan,nan,0.0,nan,nan,nan,nan,nan,nan,nan,nan,nan,nan,nan,nan,nan,nan,nan,nan,nan,nan,661.381472237932,859.4802956928615,nan,859.8104883796186,nan,nan,nan,nan
1,114,1,1,1.0,1.0,0.257052912551444,1,1.0,0.0,1.0,0.49303052310198026,0.1758855089599939,0.31714501414198637,0.6689160320619741,0.1758855089599939,0.30619850048484903,0,3,7,1,8,4,1.0,1.0,1.0,1.0,1.0,1.0,1.0,1.0,1.0,0.0,0.0,0.0,3.0,0.0,3.0,7.0,7.0,7.0,1.0,2.0,1.0,5.0,4.0,6.0,3.0,2.739298965258058,1.348336363909766,5.930498369503766,4.947363094193861,6.9302027222584,3.770804930361919,661.381472237932,860.5054371160804,861.3138591008028,860.7624900286319,869.2899418911547,870.2895647056866,862.3223382193246,869.2816121643409
1,115,1,1,1.0,1.0,0.5831373280379921,0,0.0,0.0,0.0,0.4904373625464799,0.17663794249851614,0.3137994200479638,0.667075305044996,0.17663794249851614,0.3901276424488363,1,7,4,2,5,3,nan,nan,nan,nan,nan,nan,nan,nan,nan,nan,nan,nan,0.0,nan,nan,nan,nan,nan,nan,nan,nan,nan,nan,nan,nan,nan,nan,nan,nan,nan,nan,661.381472237932,870.5151946168626,nan,871.0983319449006,nan,nan,nan,nan
1,116,1,1,1.0,1.0,0.5100483014248312,0,0.0,0.0,0.0,0.4914449708670398,0.17593809085268028,0.31550688001435956,0.6673830617197201,0.17593809085268028,0.45007951400475577,2,6,8,5,4,7,nan,nan,nan,nan,nan,nan,nan,nan,nan,nan,nan,nan,0.0,nan,nan,nan,nan,nan,nan,nan,nan,nan,nan,nan,nan,nan,nan,nan,nan,nan,nan,661.381472237932,871.5402696120436,nan,872.0503179134685,nan,nan,nan,nan
1,117,1,1,1.0,1.0,0.516890668659471,0,0.0,0.0,0.0,0.4916450066794892,0.17500014898184166,0.3166448576976475,0.6666451556613309,0.17500014898184166,0.5366920993740981,1,0,7,8,3,2,nan,nan,nan,nan,nan,nan,nan,nan,nan,nan,nan,nan,0.0,nan,nan,nan,nan,nan,nan,nan,nan,nan,nan,nan,nan,nan,nan,nan,nan,nan,nan,661.381472237932,872.5654155968223,nan,873.0823062654817,nan,nan,nan,nan
1,118,0,0,0.0,1.0,0.5797403777833097,0,0.0,0.0,0.0,0.49191357755161663,0.1740860759387394,0.3178275016128772,0.6659996534903561,0.1740860759387394,0.5355597826225372,6,5,1,0,4,7,nan,nan,nan,nan,nan,nan,nan,nan,nan,nan,nan,nan,0.0,nan,nan,nan,nan,nan,nan,nan,nan,nan,nan,nan,nan,nan,nan,nan,nan,nan,nan,661.381472237932,873.5905584454886,nan,874.1702988232719,nan,nan,nan,nan
1,119,1,1,1.0,1.0,0.49054242292186245,0,0.0,0.0,0.0,0.49283807018563447,0.17339922795218818,0.3194388422334463,0.6662372981378226,0.17339922795218818,0.5290578231215477,1,3,5,6,7,4,nan,nan,nan,nan,nan,nan,nan,nan,nan,nan,nan,nan,0.0,nan,nan,nan,nan,nan,nan,nan,nan,nan,nan,nan,nan,nan,nan,nan,nan,nan,nan,661.381472237932,874.6157155490946,nan,875.1062579720165,nan,nan,nan,nan
1,120,1,1,1.0,1.0,0.4654101229389198,0,0.0,0.0,0.0,0.4928141571933035,0.17249390023243036,0.3203202569608732,0.6653080574257338,0.17249390023243036,0.5118976412146973,7,8,3,2,6,1,nan,nan,nan,nan,nan,nan,nan,nan,nan,nan,nan,nan,0.0,nan,nan,nan,nan,nan,nan,nan,nan,nan,nan,nan,nan,nan,nan,nan,nan,nan,nan,661.381472237932,875.6408375855535,nan,876.1062477084924,nan,nan,nan,nan
1,121,1,1,1.0,1.0,0.3282711219508201,0,0.0,0.0,0.0,0.492531641376248,0.17162477707512178,0.32090686430112625,0.6641564184513697,0.17162477707512178,0.4280745559372008,3,6,2,8,4,0,nan,nan,nan,nan,nan,nan,nan,nan,nan,nan,nan,nan,0.0,nan,nan,nan,nan,nan,nan,nan,nan,nan,nan,nan,nan,nan,nan,nan,nan,nan,nan,661.381472237932,876.6659818597254,nan,876.9942529816763,nan,nan,nan,nan
1,122,1,1,1.0,1.0,0.3427572686923668,0,0.0,0.0,0.0,0.4908555136270089,0.171543039607946,0.31931247401906293,0.6623985532349549,0.171543039607946,0.37881283786070225,4,1,8,3,2,5,nan,nan,nan,nan,nan,nan,nan,nan,nan,nan,nan,nan,0.0,nan,nan,nan,nan,nan,nan,nan,nan,nan,nan,nan,nan,nan,nan,nan,nan,nan,nan,661.381472237932,877.6995182973333,nan,878.0422755660256,nan,nan,nan,nan
1,123,1,1,1.0,1.0,0.2616244691889733,1,1.0,0.0,1.0,0.48935957175898226,0.1713157330514617,0.31804383870752057,0.6606753048104439,0.1713157330514617,0.31088428661072004,6,2,1,0,4,8,1.0,1.0,1.0,1.0,1.0,1.0,1.0,1.0,1.0,1.0,0.0,0.0,4.0,6.0,2.0,1.0,0.0,6.0,6.0,4.0,3.0,1.0,2.0,6.0,5.0,4.823458086757455,3.878426529234275,1.6867290576337837,2.9356563740293495,6.534329582005739,5.775375916797202,661.381472237932,878.7245884458534,879.5330104305758,878.9862129150424,887.1257296386757,888.125313964847,880.5497984637623,887.1173691211734
1,124,1,1,1.0,1.0,0.643133484874852,0,0.0,0.0,0.0,0.48708222073328217,0.17195649458157014,0.315125726151712,0.6590387153148523,0.17195649458157014,0.41583840758539736,2,0,7,5,3,1,nan,nan,nan,nan,nan,nan,nan,nan,nan,nan,nan,nan,0.0,nan,nan,nan,nan,nan,nan,nan,nan,nan,nan,nan,nan,nan,nan,nan,nan,nan,nan,661.381472237932,888.3509182171547,nan,888.9940517020295,nan,nan,nan,nan
1,125,1,1,1.0,1.0,0.41001346235862,0,0.0,0.0,0.0,0.4886272827544858,0.17179928684590026,0.31682799590858557,0.660426569600386,0.17179928684590026,0.4382571388074818,5,8,3,0,6,2,nan,nan,nan,nan,nan,nan,nan,nan,nan,nan,nan,nan,0.0,nan,nan,nan,nan,nan,nan,nan,nan,nan,nan,nan,nan,nan,nan,nan,nan,nan,nan,661.381472237932,889.3760339814471,nan,889.7860474438057,nan,nan,nan,nan
1,126,0,0,1.0,0.0,0.2968489758204669,0,0.0,0.0,0.0,0.4878565590251146,0.17113044085385512,0.3167261181712595,0.6589869998789697,0.17113044085385512,0.44999864101797965,6,3,2,7,1,0,nan,nan,nan,nan,nan,nan,nan,nan,nan,nan,nan,nan,0.0,nan,nan,nan,nan,nan,nan,nan,nan,nan,nan,nan,nan,nan,nan,nan,nan,nan,nan,661.381472237932,890.401180536428,nan,890.6980295122485,nan,nan,nan,nan
1,127,1,1,1.0,1.0,0.39936759416013956,0,0.0,0.0,0.0,0.48600211646972963,0.17132447267384826,0.31467764379588137,0.6573265891435779,0.17132447267384826,0.36874334411307547,2,0,5,6,7,4,nan,nan,nan,nan,nan,nan,nan,nan,nan,nan,nan,nan,0.0,nan,nan,nan,nan,nan,nan,nan,nan,nan,nan,nan,nan,nan,nan,nan,nan,nan,nan,661.381472237932,891.4346291636466,nan,891.8339967578067,nan,nan,nan,nan
1,128,1,1,1.0,1.0,0.4622218649019487,0,0.0,0.0,0.0,0.4851690922167528,0.17070828385294168,0.31446080836381113,0.6558773760696945,0.17070828385294168,0.3861461449608517,6,5,0,1,4,3,nan,nan,nan,nan,nan,nan,nan,nan,nan,nan,nan,nan,0.0,nan,nan,nan,nan,nan,nan,nan,nan,nan,nan,nan,nan,nan,nan,nan,nan,nan,nan,661.381472237932,892.4597879778012,nan,892.9220098427031,nan,nan,nan,nan
1,129,0,0,0.0,1.0,0.4450332681299187,0,0.0,0.0,0.0,0.4849505471947071,0.1699080605880961,0.315042486606611,0.6548586077828031,0.1699080605880961,0.43554090906400234,8,2,6,4,0,7,nan,nan,nan,nan,nan,nan,nan,nan,nan,nan,nan,nan,0.0,nan,nan,nan,nan,nan,nan,nan,nan,nan,nan,nan,nan,nan,nan,nan,nan,nan,nan,661.381472237932,893.4849502132274,nan,893.9299834813573,nan,nan,nan,nan
1,130,1,1,1.0,1.0,0.6118920912849717,0,0.0,0.0,0.0,0.4845739690903223,0.16914872901043157,0.3154252400798907,0.6537226981007539,0.16914872901043157,0.5063824081056131,5,3,2,8,6,1,nan,nan,nan,nan,nan,nan,nan,nan,nan,nan,nan,nan,0.0,nan,nan,nan,nan,nan,nan,nan,nan,nan,nan,nan,nan,nan,nan,nan,nan,nan,nan,661.381472237932,894.5100850791205,nan,895.1219771704054,nan,nan,nan,nan
1,131,0,0,0.0,1.0,0.6987308548996225,0,0.0,0.0,0.0,0.48576385808279565,0.16880158727014657,0.31696227081264905,0.6545654453529423,0.16880158727014657,0.5852187381048376,1,4,5,2,7,0,nan,nan,nan,nan,nan,nan,nan,nan,nan,nan,nan,nan,0.0,nan,nan,nan,nan,nan,nan,nan,nan,nan,nan,nan,nan,nan,nan,nan,nan,nan,nan,661.381472237932,895.5352131026448,nan,896.2339439575444,nan,nan,nan,nan
1,132,1,1,1.0,1.0,0.49759319733129814,0,0.0,0.0,0.0,0.48773577471998847,0.16925190534830795,0.3184838693716805,0.6569876800682964,0.16925190534830795,0.6027387145052975,6,0,2,7,5,8,nan,nan,nan,nan,nan,nan,nan,nan,nan,nan,nan,nan,0.0,nan,nan,nan,nan,nan,nan,nan,nan,nan,nan,nan,nan,nan,nan,nan,nan,nan,nan,661.381472237932,896.5603545258055,nan,897.0579477231367,nan,nan,nan,nan
1,133,1,1,1.0,1.0,0.5044332838151604,0,0.0,0.0,0.0,0.487826209789817,0.1684763529384573,0.3193498568513597,0.6563025627282744,0.1684763529384573,0.5669191120153604,1,7,0,2,4,5,nan,nan,nan,nan,nan,nan,nan,nan,nan,nan,nan,nan,0.0,nan,nan,nan,nan,nan,nan,nan,nan,nan,nan,nan,nan,nan,nan,nan,nan,nan,nan,661.381472237932,897.5854996552807,nan,898.0899329390959,nan,nan,nan,nan
1,134,1,1,1.0,1.0,0.4152646941365674,0,0.0,0.0,0.0,0.4879771831900474,0.16771620974189502,0.3202609734481524,0.6556933929319424,0.16771620974189502,0.47243039176100865,7,5,8,0,2,4,nan,nan,nan,nan,nan,nan,nan,nan,nan,nan,nan,nan,0.0,nan,nan,nan,nan,nan,nan,nan,nan,nan,nan,nan,nan,nan,nan,nan,nan,nan,nan,661.381472237932,898.6106590396957,nan,899.0259237338323,nan,nan,nan,nan
1,135,1,1,1.0,1.0,0.3181253168149851,0,0.0,0.0,0.0,0.4873221157210971,0.16710032174689865,0.3202217939741985,0.6544224374679958,0.16710032174689865,0.41260776492223766,5,3,2,8,7,0,nan,nan,nan,nan,nan,nan,nan,nan,nan,nan,nan,nan,0.0,nan,nan,nan,nan,nan,nan,nan,nan,nan,nan,nan,nan,nan,nan,nan,nan,nan,nan,661.381472237932,899.6357779400423,nan,899.9539032568573,nan,nan,nan,nan
1,136,1,1,1.0,1.0,0.47701050131581724,0,0.0,0.0,0.0,0.4858114300165783,0.16711232853911012,0.31869910147746816,0.6529237585556884,0.16711232853911012,0.4034668374224566,2,6,7,0,5,1,nan,nan,nan,nan,nan,nan,nan,nan,nan,nan,nan,nan,0.0,nan,nan,nan,nan,nan,nan,nan,nan,nan,nan,nan,nan,nan,nan,nan,nan,nan,nan,661.381472237932,900.6609207887668,nan,901.1379312900826,nan,nan,nan,nan
1,137,1,1,1.0,1.0,0.539823432744015,0,0.0,0.0,0.0,0.4857335456917928,0.1663732920316876,0.3193602536601052,0.6521068377234804,0.1663732920316876,0.44498641695827246,5,0,1,3,6,8,nan,nan,nan,nan,nan,nan,nan,nan,nan,nan,nan,nan,0.0,nan,nan,nan,nan,nan,nan,nan,nan,nan,nan,nan,nan,nan,nan,nan,nan,nan,nan,661.381472237932,901.6860602162196,nan,902.2258836489636,nan,nan,nan,nan
1,138,0,0,0.0,1.0,0.5146537848049775,0,0.0,0.0,0.0,0.4862080183852333,0.16571874878768167,0.32048926959755164,0.651926767172915,0.16571874878768167,0.5104959062882699,7,2,4,0,8,1,nan,nan,nan,nan,nan,nan,nan,nan,nan,nan,nan,nan,0.0,nan,nan,nan,nan,nan,nan,nan,nan,nan,nan,nan,nan,nan,nan,nan,nan,nan,nan,661.381472237932,902.7111965076183,nan,903.2258502924233,nan,nan,nan,nan
1,139,1,1,1.0,1.0,0.4415237039793283,0,0.0,0.0,0.0,0.4864553728758398,0.16501779475088463,0.32143757812495516,0.6514731676267245,0.16501779475088463,0.4986669738427736,0,4,1,6,3,2,nan,nan,nan,nan,nan,nan,nan,nan,nan,nan,nan,nan,0.0,nan,nan,nan,nan,nan,nan,nan,nan,nan,nan,nan,nan,nan,nan,nan,nan,nan,nan,661.381472237932,903.7363316586125,nan,904.1778553625918,nan,nan,nan,nan
1,140,1,1,1.0,1.0,0.5283522040117532,0,0.0,0.0,0.0,0.486068030902594,0.16435746886084127,0.32171056204175275,0.6504254997634352,0.16435746886084127,0.49484323093201965,4,1,3,8,0,6,nan,nan,nan,nan,nan,nan,nan,nan,nan,nan,nan,nan,0.0,nan,nan,nan,nan,nan,nan,nan,nan,nan,nan,nan,nan,nan,nan,nan,nan,nan,nan,661.381472237932,904.761469945719,nan,905.2898221497308,nan,nan,nan,nan
1,141,1,1,1.0,1.0,0.5031808455241844,0,0.0,0.0,0.0,0.4864294340915612,0.16369986262701816,0.32272957146454306,0.6501292967185793,0.16369986262701816,0.49101891783842194,8,6,7,1,4,0,nan,nan,nan,nan,nan,nan,nan,nan,nan,nan,nan,nan,0.0,nan,nan,nan,nan,nan,nan,nan,nan,nan,nan,nan,nan,nan,nan,nan,nan,nan,nan,661.381472237932,905.7866316108848,nan,906.289812456409,nan,nan,nan,nan
1,142,1,1,1.0,1.0,0.3579741233261302,0,0.0,0.0,0.0,0.486571395205397,0.16301197573653023,0.3235594194688668,0.6495833709419272,0.16301197573653023,0.4631690576206893,3,5,1,2,8,7,nan,nan,nan,nan,nan,nan,nan,nan,nan,nan,nan,nan,0.0,nan,nan,nan,nan,nan,nan,nan,nan,nan,nan,nan,nan,nan,nan,nan,nan,nan,nan,661.381472237932,906.8118360408698,nan,907.169810164196,nan,nan,nan,nan
1,143,1,1,1.0,1.0,0.5888983161421493,0,0.0,0.0,0.0,0.48549074586187374,0.16274951081865205,0.3227412350432217,0.6482402566805258,0.16274951081865205,0.48335109499748796,4,3,2,8,0,6,nan,nan,nan,nan,nan,nan,nan,nan,nan,nan,nan,nan,0.0,nan,nan,nan,nan,nan,nan,nan,nan,nan,nan,nan,nan,nan,nan,nan,nan,nan,nan,661.381472237932,907.8368665606831,nan,908.4257648768253,nan,nan,nan,nan
1,144,1,1,1.0,1.0,0.6037565166479908,0,0.0,0.0,0.0,0.48635247561420936,0.1623423595765263,0.32401011603768304,0.6486948351907357,0.1623423595765263,0.5168763187054234,5,6,8,7,1,0,nan,nan,nan,nan,nan,nan,nan,nan,nan,nan,nan,nan,0.0,nan,nan,nan,nan,nan,nan,nan,nan,nan,nan,nan,nan,nan,nan,nan,nan,nan,nan,661.381472237932,908.8620302215568,nan,909.4657867382048,nan,nan,nan,nan
1,145,1,1,1.0,1.0,0.6985703443642706,0,0.0,0.0,0.0,0.48732275694506705,0.16201914996106354,0.3253036069840035,0.6493419069061306,0.16201914996106354,0.6304083923848035,6,0,4,1,3,2,nan,nan,nan,nan,nan,nan,nan,nan,nan,nan,nan,nan,0.0,nan,nan,nan,nan,nan,nan,nan,nan,nan,nan,nan,nan,nan,nan,nan,nan,nan,nan,661.381472237932,909.8871844742098,nan,910.5857548185741,nan,nan,nan,nan
1,146,1,1,1.0,1.0,0.5454016725998372,0,0.0,0.0,0.0,0.4890542945468638,0.16247407257210747,0.32658022197475634,0.6515283671189712,0.16247407257210747,0.6159095112040328,7,4,2,8,6,1,nan,nan,nan,nan,nan,nan,nan,nan,nan,nan,nan,nan,0.0,nan,nan,nan,nan,nan,nan,nan,nan,nan,nan,nan,nan,nan,nan,nan,nan,nan,nan,661.381472237932,910.9123199103051,nan,911.4577215829049,nan,nan,nan,nan
1,147,1,1,1.0,1.0,0.47227700863732025,0,0.0,0.0,0.0,0.4895124033115221,0.16189135605366428,0.32762104725785784,0.6514037593651865,0.16189135605366428,0.5720830085338093,8,0,7,1,5,3,nan,nan,nan,nan,nan,nan,nan,nan,nan,nan,nan,nan,0.0,nan,nan,nan,nan,nan,nan,nan,nan,nan,nan,nan,nan,nan,nan,nan,nan,nan,nan,661.381472237932,911.9374185687047,nan,912.4096955773421,nan,nan,nan,nan
1,148,1,1,1.0,1.0,0.551125027704984,0,0.0,0.0,0.0,0.48937340819318176,0.16124461572595752,0.32812879246722426,0.6506180239191393,0.16124461572595752,0.5229345696473805,5,4,1,6,8,2,nan,nan,nan,nan,nan,nan,nan,nan,nan,nan,nan,nan,0.0,nan,nan,nan,nan,nan,nan,nan,nan,nan,nan,nan,nan,nan,nan,nan,nan,nan,nan,661.381472237932,912.9625847954303,nan,913.5137098231353,nan,nan,nan,nan
1,149,1,1,1.0,1.0,0.5500014540157281,0,0.0,0.0,0.0,0.48986742114927617,0.16069253107442383,0.32917489007485234,0.6505599522237,0.16069253107442383,0.5244678301193441,2,7,0,8,6,1,nan,nan,nan,nan,nan,nan,nan,nan,nan,nan,nan,nan,0.0,nan,nan,nan,nan,nan,nan,nan,nan,nan,nan,nan,nan,nan,nan,nan,nan,nan,nan,661.381472237932,913.9876934322529,nan,914.5376948862686,nan,nan,nan,nan
1,150,1,1,1.0,1.0,0.5327561226440594,0,0.0,0.0,0.0,0.490344675378375,0.1601425108283484,0.3302021645500266,0.6504871862067234,0.1601425108283484,0.5446275347882571,8,0,7,5,3,2,nan,nan,nan,nan,nan,nan,nan,nan,nan,nan,nan,nan,0.0,nan,nan,nan,nan,nan,nan,nan,nan,nan,nan,nan,nan,nan,nan,nan,nan,nan,nan,661.381472237932,915.012920385052,nan,915.545676507696,nan,nan,nan,nan
1,151,1,1,1.0,1.0,0.5956540133920498,0,0.0,0.0,0.0,0.4906786237820418,0.15955482268648347,0.33112380109555833,0.6502334464685253,0.15955482268648347,0.5594705300172791,2,6,0,7,8,5,nan,nan,nan,nan,nan,nan,nan,nan,nan,nan,nan,nan,0.0,nan,nan,nan,nan,nan,nan,nan,nan,nan,nan,nan,nan,nan,nan,nan,nan,nan,nan,661.381472237932,916.0380096351728,nan,916.6336636485648,nan,nan,nan,nan
1,152,1,1,1.0,1.0,0.5144986911327578,0,0.0,0.0,0.0,0.49149874401337,0.15919884635609774,0.3322998976572723,0.6506975903694677,0.15919884635609774,0.5476362757229557,6,5,1,3,7,4,nan,nan,nan,nan,nan,nan,nan,nan,nan,nan,nan,nan,0.0,nan,nan,nan,nan,nan,nan,nan,nan,nan,nan,nan,nan,nan,nan,nan,nan,nan,nan,661.381472237932,917.0631504881312,nan,917.577649179264,nan,nan,nan,nan
1,153,1,1,1.0,1.0,0.6653409580467269,0,0.0,0.0,0.0,0.4916770381770862,0.15859342489067643,0.3330836132864098,0.6502704630677626,0.15859342489067643,0.5918312208571782,1,8,7,5,3,2,nan,nan,nan,nan,nan,nan,nan,nan,nan,nan,nan,nan,0.0,nan,nan,nan,nan,nan,nan,nan,nan,nan,nan,nan,nan,nan,nan,nan,nan,nan,nan,661.381472237932,918.0882930516964,nan,918.7536340097431,nan,nan,nan,nan
1,154,1,1,1.0,1.0,0.6881873371894471,0,0.0,0.0,0.0,0.49301291448377577,0.15870919132760627,0.3343037231561695,0.651722105811382,0.15870919132760627,0.6226756621229773,4,7,8,6,1,0,nan,nan,nan,nan,nan,nan,nan,nan,nan,nan,nan,nan,0.0,nan,nan,nan,nan,nan,nan,nan,nan,nan,nan,nan,nan,nan,nan,nan,nan,nan,nan,661.381472237932,919.1134376109694,nan,919.8016249481589,nan,nan,nan,nan
1,155,1,1,1.0,1.0,0.7190150526585057,1,0.0,1.0,1.0,0.49450279557313204,0.1590122476472345,0.3354905479258975,0.6535150432203666,0.1590122476472345,0.6908477826315599,0,1,3,4,7,5,1.0,1.0,1.0,1.0,1.0,1.0,0.0,1.0,1.0,1.0,0.0,0.0,3.0,2.0,1.0,3.0,4.0,0.0,0.0,4.0,3.0,2.0,1.0,6.0,5.0,4.625305982073769,3.345055448822677,2.2482094379956834,1.4741452599992044,7.448374624131247,6.384569549525622,661.381472237932,920.1385816000402,920.9469873341732,920.8575966526987,929.448139702843,930.4480613007327,921.9554359471658,929.4398011379526
1,156,1,1,1.0,1.0,0.5921473001944833,0,0.0,0.0,0.0,0.49620364600559697,0.15960047476459593,0.33660317124100103,0.6558041207701929,0.15960047476459593,0.666449896680812,2,5,0,3,4,8,nan,nan,nan,nan,nan,nan,nan,nan,nan,nan,nan,nan,0.0,nan,nan,nan,nan,nan,nan,nan,nan,nan,nan,nan,nan,nan,nan,nan,nan,nan,nan,661.381472237932,930.6733145966427,nan,931.2654618968372,nan,nan,nan,nan
1,157,1,1,1.0,1.0,0.5429270164459012,0,0.0,0.0,0.0,0.49692502686416,0.159215206343292,0.337709820520868,0.656140233207452,0.159215206343292,0.6180297897662967,4,7,8,5,6,0,nan,nan,nan,nan,nan,nan,nan,nan,nan,nan,nan,nan,0.0,nan,nan,nan,nan,nan,nan,nan,nan,nan,nan,nan,nan,nan,nan,nan,nan,nan,nan,661.381472237932,931.6985013504745,nan,932.2414283669204,nan,nan,nan,nan
1,158,1,1,1.0,1.0,0.3978004070231691,0,0.0,0.0,0.0,0.4972683252938745,0.15866940867609544,0.3385989166177791,0.6559377339699699,0.15866940867609544,0.5109582412211845,0,2,6,1,8,3,nan,nan,nan,nan,nan,nan,nan,nan,nan,nan,nan,nan,0.0,nan,nan,nan,nan,nan,nan,nan,nan,nan,nan,nan,nan,nan,nan,nan,nan,nan,nan,661.381472237932,932.7236111277016,nan,933.1214115347248,nan,nan,nan,nan
1,159,1,1,1.0,1.0,0.3246466629789211,0,0.0,0.0,0.0,0.4965315258992767,0.1583105730146931,0.3382209528845836,0.6548420989139698,0.1583105730146931,0.4217913621493305,2,4,1,3,5,0,nan,nan,nan,nan,nan,nan,nan,nan,nan,nan,nan,nan,0.0,nan,nan,nan,nan,nan,nan,nan,nan,nan,nan,nan,nan,nan,nan,nan,nan,nan,nan,661.381472237932,933.7487576826825,nan,934.0734043456614,nan,nan,nan,nan
1,160,1,1,1.0,1.0,0.3554815059178509,0,0.0,0.0,0.0,0.4952676666130976,0.1584095871776858,0.3368580794354118,0.6536772537907835,0.1584095871776858,0.359309525306647,6,5,4,0,2,7,nan,nan,nan,nan,nan,nan,nan,nan,nan,nan,nan,nan,0.0,nan,nan,nan,nan,nan,nan,nan,nan,nan,nan,nan,nan,nan,nan,nan,nan,nan,nan,661.381472237932,934.7739070886164,nan,935.1293885945342,nan,nan,nan,nan
1,161,1,1,1.0,1.0,0.3543801698833704,0,0.0,0.0,0.0,0.49424732967371626,0.1582783000345892,0.33596902963912706,0.6525256297083055,0.1582783000345892,0.3448361129267141,7,2,3,1,5,6,nan,nan,nan,nan,nan,nan,nan,nan,nan,nan,nan,nan,0.0,nan,nan,nan,nan,nan,nan,nan,nan,nan,nan,nan,nan,nan,nan,nan,nan,nan,nan,661.381472237932,935.7990373929497,nan,936.153417562833,nan,nan,nan,nan
1,162,1,1,1.0,1.0,0.2732262730714865,1,1.0,0.0,1.0,0.49323379953030794,0.15814934784025916,0.33508445169004875,0.6513831473705671,0.15814934784025916,0.32769598295756924,5,8,0,6,3,4,1.0,1.0,1.0,1.0,1.0,1.0,1.0,1.0,1.0,0.0,0.0,0.0,3.0,5.0,8.0,0.0,8.0,8.0,1.0,3.0,2.0,1.0,6.0,5.0,4.0,3.867186515533831,2.9479201769572683,1.5958014094503596,8.402680155239068,7.355220070516225,5.187801883846987,661.381472237932,936.8241808118182,937.6325999455876,937.0974070848897,947.0838911287719,948.0838047438883,938.6410696558305,947.0755477172206
1,163,1,1,1.0,1.0,0.7000873542274348,0,0.0,0.0,0.0,0.49165101157017255,0.15867261723824957,0.332978394331923,0.6503236288084221,0.15867261723824957,0.4425645990607639,2,7,3,4,5,0,nan,nan,nan,nan,nan,nan,nan,nan,nan,nan,nan,nan,0.0,nan,nan,nan,nan,nan,nan,nan,nan,nan,nan,nan,nan,nan,nan,nan,nan,nan,nan,661.381472237932,948.3090757158934,nan,949.0091630701208,nan,nan,nan,nan
1,164,1,1,1.0,1.0,0.6029243136872537,0,0.0,0.0,0.0,0.493139842589153,0.1590763138415853,0.33406352874756773,0.6522161564307383,0.1590763138415853,0.5254126469953917,4,3,7,2,0,6,nan,nan,nan,nan,nan,nan,nan,nan,nan,nan,nan,nan,0.0,nan,nan,nan,nan,nan,nan,nan,nan,nan,nan,nan,nan,nan,nan,nan,nan,nan,nan,661.381472237932,949.3342208453687,nan,949.937145159056,nan,nan,nan,nan
1,165,1,1,1.0,1.0,0.4097999234800227,0,0.0,0.0,0.0,0.4939184558593523,0.158778704514014,0.3351397513453383,0.6526971603733662,0.158778704514014,0.5709371971315704,2,5,3,1,4,8,nan,nan,nan,nan,nan,nan,nan,nan,nan,nan,nan,nan,0.0,nan,nan,nan,nan,nan,nan,nan,nan,nan,nan,nan,nan,nan,nan,nan,nan,nan,nan,661.381472237932,950.3593431669287,nan,950.7691430904088,nan,nan,nan,nan
1,166,1,1,1.0,1.0,0.45662680419627577,0,0.0,0.0,0.0,0.4933260718285119,0.15837492410310489,0.334951147725407,0.6517009959316168,0.15837492410310489,0.4897836804545174,4,1,8,5,7,6,nan,nan,nan,nan,nan,nan,nan,nan,nan,nan,nan,nan,0.0,nan,nan,nan,nan,nan,nan,nan,nan,nan,nan,nan,nan,nan,nan,nan,nan,nan,nan,661.381472237932,951.3844928579638,nan,951.84111966216,nan,nan,nan,nan
1,167,1,1,1.0,1.0,0.42344445909839123,0,0.0,0.0,0.0,0.49306943359332145,0.15784982180407717,0.3352196117892443,0.6509192553973986,0.15784982180407717,0.4299570622582299,5,4,7,3,0,1,nan,nan,nan,nan,nan,nan,nan,nan,nan,nan,nan,nan,0.0,nan,nan,nan,nan,nan,nan,nan,nan,nan,nan,nan,nan,nan,nan,nan,nan,nan,nan,661.381472237932,952.4096508168732,nan,952.8330952759716,nan,nan,nan,nan
1,168,1,1,1.0,1.0,0.36653278436278924,0,0.0,0.0,0.0,0.49258592682599556,0.15740700397727925,0.3351789228487163,0.6499929308032748,0.15740700397727925,0.41553468255248543,2,8,3,1,7,4,nan,nan,nan,nan,nan,nan,nan,nan,nan,nan,nan,nan,0.0,nan,nan,nan,nan,nan,nan,nan,nan,nan,nan,nan,nan,nan,nan,nan,nan,nan,nan,661.381472237932,953.434770287422,nan,953.8013030717848,nan,nan,nan,nan
1,169,1,1,1.0,1.0,0.4132102733710781,0,0.0,0.0,0.0,0.4917165948090079,0.15720978206054803,0.3345068127484599,0.6489263768695559,0.15720978206054803,0.40106250561075285,0,4,6,7,1,3,nan,nan,nan,nan,nan,nan,nan,nan,nan,nan,nan,nan,0.0,nan,nan,nan,nan,nan,nan,nan,nan,nan,nan,nan,nan,nan,nan,nan,nan,nan,nan,661.381472237932,954.4599082894274,nan,954.8731185627985,nan,nan,nan,nan
1,170,1,1,1.0,1.0,0.5000028510112315,0,0.0,0.0,0.0,0.4911788802786112,0.1568042097161489,0.3343746705624623,0.6479830899947601,0.1568042097161489,0.42658196958169964,1,3,8,0,6,2,nan,nan,nan,nan,nan,nan,nan,nan,nan,nan,nan,nan,0.0,nan,nan,nan,nan,nan,nan,nan,nan,nan,nan,nan,nan,nan,nan,nan,nan,nan,nan,661.381472237932,955.4850665334379,nan,955.9850693844492,nan,nan,nan,nan
1,171,0,0,0.0,1.0,0.6908384693670087,0,0.0,0.0,0.0,0.4912389072903977,0.15627163512255626,0.33496727216784145,0.6475105424129539,0.15627163512255626,0.5346838645831061,0,7,4,2,1,5,nan,nan,nan,nan,nan,nan,nan,nan,nan,nan,nan,nan,0.0,nan,nan,nan,nan,nan,nan,nan,nan,nan,nan,nan,nan,nan,nan,nan,nan,nan,nan,661.381472237932,956.5102068162523,nan,957.2010452856193,nan,nan,nan,nan
1,172,1,1,nan,nan,nan,0,0.0,0.0,0.0,0.0,0.0,0.0,0.0,0.0,0.0,7,4,0,5,6,8,nan,nan,nan,nan,nan,nan,nan,nan,nan,nan,nan,nan,0.0,nan,nan,nan,nan,nan,nan,nan,nan,nan,nan,nan,nan,nan,nan,nan,nan,nan,nan,661.381472237932,957.535340826842,nan,nan,nan,nan,nan,nan
1,173,1,1,nan,nan,nan,0,0.0,0.0,0.0,0.0,0.0,0.0,0.0,0.0,0.0,2,5,7,3,0,6,nan,nan,nan,nan,nan,nan,nan,nan,nan,nan,nan,nan,0.0,nan,nan,nan,nan,nan,nan,nan,nan,nan,nan,nan,nan,nan,nan,nan,nan,nan,nan,661.381472237932,958.5604702758719,nan,nan,nan,nan,nan,nan
1,174,1,1,nan,nan,nan,0,0.0,0.0,0.0,0.0,0.0,0.0,0.0,0.0,0.0,4,7,0,1,8,5,nan,nan,nan,nan,nan,nan,nan,nan,nan,nan,nan,nan,0.0,nan,nan,nan,nan,nan,nan,nan,nan,nan,nan,nan,nan,nan,nan,nan,nan,nan,nan,661.381472237932,959.585619966907,nan,nan,nan,nan,nan,nan
1,175,1,1,nan,nan,nan,0,0.0,0.0,0.0,0.0,0.0,0.0,0.0,0.0,0.0,7,2,4,5,3,8,nan,nan,nan,nan,nan,nan,nan,nan,nan,nan,nan,nan,0.0,nan,nan,nan,nan,nan,nan,nan,nan,nan,nan,nan,nan,nan,nan,nan,nan,nan,nan,661.381472237932,960.6107745046029,nan,nan,nan,nan,nan,nan
1,176,1,1,nan,nan,nan,0,0.0,0.0,0.0,0.0,0.0,0.0,0.0,0.0,0.0,4,8,7,3,6,2,nan,nan,nan,nan,nan,nan,nan,nan,nan,nan,nan,nan,0.0,nan,nan,nan,nan,nan,nan,nan,nan,nan,nan,nan,nan,nan,nan,nan,nan,nan,nan,661.381472237932,961.635934174119,nan,nan,nan,nan,nan,nan
1,177,1,1,nan,nan,nan,0,0.0,0.0,0.0,0.0,0.0,0.0,0.0,0.0,0.0,2,7,4,8,0,5,nan,nan,nan,nan,nan,nan,nan,nan,nan,nan,nan,nan,0.0,nan,nan,nan,nan,nan,nan,nan,nan,nan,nan,nan,nan,nan,nan,nan,nan,nan,nan,661.381472237932,962.6610296964063,nan,nan,nan,nan,nan,nan
1,178,1,1,nan,nan,nan,0,0.0,0.0,0.0,0.0,0.0,0.0,0.0,0.0,0.0,7,3,2,6,4,1,nan,nan,nan,nan,nan,nan,nan,nan,nan,nan,nan,nan,0.0,nan,nan,nan,nan,nan,nan,nan,nan,nan,nan,nan,nan,nan,nan,nan,nan,nan,nan,661.381472237932,963.6861739705782,nan,nan,nan,nan,nan,nan
1,179,1,1,nan,nan,nan,0,0.0,0.0,0.0,0.0,0.0,0.0,0.0,0.0,0.0,2,1,7,0,5,8,nan,nan,nan,nan,nan,nan,nan,nan,nan,nan,nan,nan,0.0,nan,nan,nan,nan,nan,nan,nan,nan,nan,nan,nan,nan,nan,nan,nan,nan,nan,nan,661.381472237932,964.7113122576848,nan,nan,nan,nan,nan,nan
1,180,1,1,nan,nan,nan,0,0.0,0.0,0.0,0.0,0.0,0.0,0.0,0.0,0.0,0,4,5,8,1,7,nan,nan,nan,nan,nan,nan,nan,nan,nan,nan,nan,nan,0.0,nan,nan,nan,nan,nan,nan,nan,nan,nan,nan,nan,nan,nan,nan,nan,nan,nan,nan,661.381472237932,965.7364847565768,nan,nan,nan,nan,nan,nan
1,181,1,1,1.0,1.0,0.75132300023688,1,0.0,1.0,1.0,0.49258755298010454,0.15659881423738375,0.3359887387427208,0.6491863672174882,0.15659881423738375,0.75132300023688,5,2,8,7,3,6,1.0,1.0,1.0,1.0,1.0,1.0,0.0,0.0,1.0,1.0,1.0,0.0,3.0,2.0,5.0,8.0,7.0,3.0,2.0,4.0,3.0,2.0,1.0,6.0,5.0,4.5124628017656505,3.5851090701762587,2.201917117286939,1.2034897213452496,7.512941482360475,5.713076733169146,661.381472237932,966.7615851255832,967.5700093911146,967.5129081258201,976.1294977873331,977.129005992203,968.5784953520051,976.1211646393058
1,182,1,1,1.0,1.0,0.4060654164641164,0,0.0,0.0,0.0,0.49432403249189494,0.15749564090497192,0.336828391586923,0.6518196733968669,0.15749564090497192,0.5786942083504982,6,5,3,0,8,4,nan,nan,nan,nan,nan,nan,nan,nan,nan,nan,nan,nan,0.0,nan,nan,nan,nan,nan,nan,nan,nan,nan,nan,nan,nan,nan,nan,nan,nan,nan,nan,661.381472237932,977.3546732512768,nan,977.760738667741,nan,nan,nan,nan
1,183,1,1,1.0,1.0,0.4048702829750255,0,0.0,0.0,0.0,0.4937356417183764,0.15713400462564633,0.33660163709273005,0.6508696463440228,0.15713400462564633,0.5207528998920073,2,8,6,3,0,7,nan,nan,nan,nan,nan,nan,nan,nan,nan,nan,nan,nan,0.0,nan,nan,nan,nan,nan,nan,nan,nan,nan,nan,nan,nan,nan,nan,nan,nan,nan,nan,661.381472237932,978.3798354866449,nan,978.7847057696199,nan,nan,nan,nan
1,184,1,1,1.0,1.0,0.3636786619317718,0,0.0,0.0,0.0,0.49314712940881783,0.15677860259717935,0.3363685268116385,0.6499257320059972,0.15677860259717935,0.39153812045697123,3,0,8,5,7,4,nan,nan,nan,nan,nan,nan,nan,nan,nan,nan,nan,nan,0.0,nan,nan,nan,nan,nan,nan,nan,nan,nan,nan,nan,nan,nan,nan,nan,nan,nan,nan,661.381472237932,979.405025376589,nan,979.7687040385208,nan,nan,nan,nan
1,185,0,0,0.0,1.0,0.49856595386518165,0,0.0,0.0,0.0,0.49229536317541617,0.15661217755895024,0.33568318561646593,0.6489075407343664,0.15661217755895024,0.422371632923993,0,6,4,8,1,7,nan,nan,nan,nan,nan,nan,nan,nan,nan,nan,nan,nan,0.0,nan,nan,nan,nan,nan,nan,nan,nan,nan,nan,nan,nan,nan,nan,nan,nan,nan,nan,661.381472237932,980.4301157671143,nan,980.9286817209795,nan,nan,nan,nan
1,186,1,1,1.0,1.0,0.4254201925941743,0,0.0,0.0,0.0,0.49233634742829047,0.1561003518269276,0.33623599560136286,0.6484366992552181,0.1561003518269276,0.4292216027970426,7,4,1,5,6,0,nan,nan,nan,nan,nan,nan,nan,nan,nan,nan,nan,nan,0.0,nan,nan,nan,nan,nan,nan,nan,nan,nan,nan,nan,nan,nan,nan,nan,nan,nan,nan,661.381472237932,981.455256620131,nan,981.8806768127251,nan,nan,nan,nan
1,187,0,0,0.0,1.0,0.6562417499371804,0,0.0,0.0,0.0,0.4919018269423547,0.15568551031788344,0.33621631662447127,0.6475873372602381,0.15568551031788344,0.5267426321321788,1,7,6,8,5,2,nan,nan,nan,nan,nan,nan,nan,nan,nan,nan,nan,nan,0.0,nan,nan,nan,nan,nan,nan,nan,nan,nan,nan,nan,nan,nan,nan,nan,nan,nan,nan,661.381472237932,982.480393766833,nan,983.1366355167702,nan,nan,nan,nan
1,188,1,1,1.0,1.0,0.4470951015246101,0,0.0,0.0,0.0,0.49296208451006324,0.15573927754890782,0.3372228069611554,0.648701362058971,0.15573927754890782,0.5095856813519882,7,8,5,3,2,0,nan,nan,nan,nan,nan,nan,nan,nan,nan,nan,nan,nan,0.0,nan,nan,nan,nan,nan,nan,nan,nan,nan,nan,nan,nan,nan,nan,nan,nan,nan,nan,661.381472237932,983.5055403217557,nan,983.9526354232803,nan,nan,nan,nan
1,189,1,1,1.0,1.0,0.5099436701857485,0,0.0,0.0,0.0,0.4926680653883616,0.15528246167362764,0.337385603714734,0.6479505270619892,0.15528246167362764,0.537760173882513,2,1,6,5,7,3,nan,nan,nan,nan,nan,nan,nan,nan,nan,nan,nan,nan,0.0,nan,nan,nan,nan,nan,nan,nan,nan,nan,nan,nan,nan,nan,nan,nan,nan,nan,nan,661.381472237932,984.5306865916355,nan,985.0406302618212,nan,nan,nan,nan
1,190,1,1,1.0,1.0,0.44476242444943637,0,0.0,0.0,0.0,0.492778101087708,0.15479324279845477,0.3379848582892532,0.6475713438861628,0.15479324279845477,0.4672670653865983,6,4,7,8,1,0,nan,nan,nan,nan,nan,nan,nan,nan,nan,nan,nan,nan,0.0,nan,nan,nan,nan,nan,nan,nan,nan,nan,nan,nan,nan,nan,nan,nan,nan,nan,nan,661.381472237932,985.55584540579,nan,986.0006078302395,nan,nan,nan,nan
1,191,1,1,1.0,1.0,0.5076221119961701,0,0.0,0.0,0.0,0.492474204400124,0.15434958988680605,0.338124614513318,0.64682379428693,0.15434958988680605,0.487442735543785,4,3,5,0,8,7,nan,nan,nan,nan,nan,nan,nan,nan,nan,nan,nan,nan,0.0,nan,nan,nan,nan,nan,nan,nan,nan,nan,nan,nan,nan,nan,nan,nan,nan,nan,nan,661.381472237932,986.5809603148373,nan,987.0885824268335,nan,nan,nan,nan
1,192,1,1,1.0,1.0,0.4744594387593679,0,0.0,0.0,0.0,0.49256947425921865,0.15386810834793857,0.3387013659112801,0.6464375826071572,0.15386810834793857,0.4756146584016581,1,5,2,8,6,4,nan,nan,nan,nan,nan,nan,nan,nan,nan,nan,nan,nan,0.0,nan,nan,nan,nan,nan,nan,nan,nan,nan,nan,nan,nan,nan,nan,nan,nan,nan,nan,661.381472237932,987.6061396560981,nan,988.0805990948575,nan,nan,nan,nan
1,193,1,1,1.0,1.0,0.44932229205733165,0,0.0,0.0,0.0,0.4924562865373446,0.15339315686002028,0.3390631296773243,0.6458494433973648,0.15339315686002028,0.47713461427095655,5,1,0,2,3,8,nan,nan,nan,nan,nan,nan,nan,nan,nan,nan,nan,nan,0.0,nan,nan,nan,nan,nan,nan,nan,nan,nan,nan,nan,nan,nan,nan,nan,nan,nan,nan,661.381472237932,988.6312383144978,nan,989.0805606065551,nan,nan,nan,nan
1,194,1,1,1.0,1.0,0.472204593650531,0,0.0,0.0,0.0,0.4921883735281519,0.1529535852293977,0.3392347882987542,0.6451419587575496,0.1529535852293977,0.4653287748224102,1,8,5,7,4,0,nan,nan,nan,nan,nan,nan,nan,nan,nan,nan,nan,nan,0.0,nan,nan,nan,nan,nan,nan,nan,nan,nan,nan,nan,nan,nan,nan,nan,nan,nan,nan,661.381472237932,989.6563723250874,nan,990.128576918738,nan,nan,nan,nan
1,195,0,0,0.0,1.0,0.6790356709971093,0,0.0,0.0,0.0,0.4920650168622407,0.15248880879974028,0.33957620806250044,0.6445538256619809,0.15248880879974028,0.5335208522349907,4,3,6,1,7,5,nan,nan,nan,nan,nan,nan,nan,nan,nan,nan,nan,nan,0.0,nan,nan,nan,nan,nan,nan,nan,nan,nan,nan,nan,nan,nan,nan,nan,nan,nan,nan,661.381472237932,990.6815422581276,nan,991.3605779291247,nan,nan,nan,nan
1,196,1,1,1.0,1.0,0.6218628459027968,0,0.0,0.0,0.0,0.49321207609006196,0.15271978273263023,0.3404922933574317,0.6459318588226922,0.15271978273263023,0.591034370183479,5,6,7,3,2,4,nan,nan,nan,nan,nan,nan,nan,nan,nan,nan,nan,nan,0.0,nan,nan,nan,nan,nan,nan,nan,nan,nan,nan,nan,nan,nan,nan,nan,nan,nan,nan,661.381472237932,991.706662584038,nan,992.3285254299408,nan,nan,nan,nan
1,197,1,1,1.0,1.0,0.5887095808284357,0,0.0,0.0,0.0,0.49399653200355426,0.15258250910481516,0.3414140228987391,0.6465790411083694,0.15258250910481516,0.6298693659094473,8,7,6,1,5,2,nan,nan,nan,nan,nan,nan,nan,nan,nan,nan,nan,nan,0.0,nan,nan,nan,nan,nan,nan,nan,nan,nan,nan,nan,nan,nan,nan,nan,nan,nan,nan,661.381472237932,992.7318003009423,nan,993.3205098817707,nan,nan,nan,nan
1,198,1,1,1.0,1.0,0.6435762430774048,0,0.0,0.0,0.0,0.49457055048128085,0.15229694711263697,0.3422736033686439,0.6468674975939178,0.15229694711263697,0.6180495566028791,5,2,0,8,1,3,nan,nan,nan,nan,nan,nan,nan,nan,nan,nan,nan,nan,0.0,nan,nan,nan,nan,nan,nan,nan,nan,nan,nan,nan,nan,nan,nan,nan,nan,nan,nan,661.381472237932,993.7569360221387,nan,994.4005122652161,nan,nan,nan,nan
1,199,1,1,1.0,1.0,0.7224094370030798,1,0.0,1.0,1.0,0.49546817513547436,0.15227468762816965,0.3431934875073047,0.647742862763644,0.15227468762816965,0.6515650869696401,0,5,4,3,7,8,1.0,1.0,1.0,1.0,1.0,1.0,1.0,1.0,1.0,1.0,0.0,0.0,4.0,0.0,5.0,4.0,3.0,4.0,7.0,4.0,3.0,2.0,1.0,6.0,5.0,5.020687327196356,3.0676379406941123,2.12546392675722,0.956471425422933,8.363423213537317,6.996094148722477,661.381472237932,994.7820754495915,995.5905005704844,995.5044848865946,1005.0001251582871,1006.0002295043669,996.5989668595139,1004.9917783255223
1,200,1,1,1.0,1.0,0.5750094510149211,0,0.0,0.0,0.0,0.4968271048472564,0.15282435420605414,0.3440027506412022,0.6496514590533106,0.15282435420605414,0.6469983770318019,6,7,8,2,3,5,nan,nan,nan,nan,nan,nan,nan,nan,nan,nan,nan,nan,0.0,nan,nan,nan,nan,nan,nan,nan,nan,nan,nan,nan,nan,nan,nan,nan,nan,nan,nan,661.381472237932,1006.225293494761,nan,1006.8003029457759,nan,nan,nan,nan
1,201,1,1,1.0,1.0,0.6218323403736576,0,0.0,0.0,0.0,0.4972924759553973,0.15248747794562023,0.34480499800977704,0.6497799539010175,0.15248747794562023,0.6397504094638862,3,4,0,6,7,2,nan,nan,nan,nan,nan,nan,nan,nan,nan,nan,nan,nan,0.0,nan,nan,nan,nan,nan,nan,nan,nan,nan,nan,nan,nan,nan,nan,nan,nan,nan,nan,661.381472237932,1007.2504417602904,nan,1007.8722741006641,nan,nan,nan,nan
1,202,1,1,1.0,1.0,0.5646837486419827,0,0.0,0.0,0.0,0.49802939823006154,0.15233540536346465,0.34569399286659686,0.6503648035935262,0.15233540536346465,0.5871751800101871,4,3,1,8,5,6,nan,nan,nan,nan,nan,nan,nan,nan,nan,nan,nan,nan,0.0,nan,nan,nan,nan,nan,nan,nan,nan,nan,nan,nan,nan,nan,nan,nan,nan,nan,nan,661.381472237932,1008.2755920215277,nan,1008.8402757701697,nan,nan,nan,nan
1,203,1,1,1.0,1.0,0.5395229387795553,0,0.0,0.0,0.0,0.4984214826442493,0.15197220075128942,0.34644928189295987,0.6503936833955387,0.15197220075128942,0.5753463425983986,3,5,2,0,8,4,nan,nan,nan,nan,nan,nan,nan,nan,nan,nan,nan,nan,0.0,nan,nan,nan,nan,nan,nan,nan,nan,nan,nan,nan,nan,nan,nan,nan,nan,nan,nan,661.381472237932,1009.3007143430877,nan,1009.8402372818673,nan,nan,nan,nan
1,204,1,1,1.0,1.0,0.44235818763263524,0,0.0,0.0,0.0,0.49866184203685343,0.1515595904416498,0.34710225159520364,0.6502214324785032,0.1515595904416498,0.5155216250180578,8,1,7,4,2,5,nan,nan,nan,nan,nan,nan,nan,nan,nan,nan,nan,nan,0.0,nan,nan,nan,nan,nan,nan,nan,nan,nan,nan,nan,nan,nan,nan,nan,nan,nan,nan,661.381472237932,1010.3258634639787,nan,1010.7682216516114,nan,nan,nan,nan
1,205,1,1,1.0,1.0,0.441215512342751,0,0.0,0.0,0.0,0.4983344952089219,0.15117898270189903,0.3471555125070229,0.6495134779108209,0.15117898270189903,0.4743655462516472,2,3,1,6,5,8,nan,nan,nan,nan,nan,nan,nan,nan,nan,nan,nan,nan,0.0,nan,nan,nan,nan,nan,nan,nan,nan,nan,nan,nan,nan,nan,nan,nan,nan,nan,nan,661.381472237932,1011.3510023212293,nan,1011.7922178335721,nan,nan,nan,nan
1,206,1,1,1.0,1.0,0.36806832562433556,0,0.0,0.0,0.0,0.4980043276779036,0.15080359517234468,0.34720073250555894,0.6488079228502482,0.15080359517234468,0.4172140085332406,6,0,4,5,8,1,nan,nan,nan,nan,nan,nan,nan,nan,nan,nan,nan,nan,0.0,nan,nan,nan,nan,nan,nan,nan,nan,nan,nan,nan,nan,nan,nan,nan,nan,nan,nan,661.381472237932,1012.3761397530325,nan,1012.7442080786568,nan,nan,nan,nan
1,207,1,1,1.0,1.0,0.3509182171546854,0,0.0,0.0,0.0,0.49725756904541185,0.15069007244876653,0.3465674965966453,0.6479476414941784,0.15069007244876653,0.386734018373924,0,5,7,3,1,4,nan,nan,nan,nan,nan,nan,nan,nan,nan,nan,nan,nan,0.0,nan,nan,nan,nan,nan,nan,nan,nan,nan,nan,nan,nan,nan,nan,nan,nan,nan,nan,661.381472237932,1013.4012843123055,nan,1013.7522025294602,nan,nan,nan,nan
1,208,1,1,1.0,1.0,0.3337470114347525,0,0.0,0.0,0.0,0.4964213441774648,0.15066324746513354,0.34575809671233126,0.6470845916425984,0.15066324746513354,0.3509111847379245,7,1,0,2,6,8,nan,nan,nan,nan,nan,nan,nan,nan,nan,nan,nan,nan,0.0,nan,nan,nan,nan,nan,nan,nan,nan,nan,nan,nan,nan,nan,nan,nan,nan,nan,nan,661.381472237932,1014.4264163272455,nan,1014.7601633386803,nan,nan,nan,nan
1,209,1,1,1.0,1.0,0.46858298568986356,0,0.0,0.0,0.0,0.4954970581959721,0.15073136201039417,0.34476569618557795,0.6462284202063663,0.15073136201039417,0.3844160714264338,0,3,5,6,7,2,nan,nan,nan,nan,nan,nan,nan,nan,nan,nan,nan,nan,0.0,nan,nan,nan,nan,nan,nan,nan,nan,nan,nan,nan,nan,nan,nan,nan,nan,nan,nan,661.381472237932,1015.4515757116023,nan,1015.9201586972922,nan,nan,nan,nan
1,210,1,1,1.0,1.0,0.3874615900567733,0,0.0,0.0,0.0,0.495345001289158,0.15031850045867756,0.3450265008304804,0.6456635017478356,0.15031850045867756,0.39659719572712976,5,4,2,0,3,1,nan,nan,nan,nan,nan,nan,nan,nan,nan,nan,nan,nan,0.0,nan,nan,nan,nan,nan,nan,nan,nan,nan,nan,nan,nan,nan,nan,nan,nan,nan,nan,661.381472237932,1016.476701739477,nan,1016.8641633295338,nan,nan,nan,nan
1,211,1,1,1.0,1.0,0.38629924290580675,0,0.0,0.0,0.0,0.49473891470920073,0.15011238811017963,0.3446265265990211,0.6448513028193803,0.15011238811017963,0.4141146062174812,3,7,6,5,0,8,nan,nan,nan,nan,nan,nan,nan,nan,nan,nan,nan,nan,0.0,nan,nan,nan,nan,nan,nan,nan,nan,nan,nan,nan,nan,nan,nan,nan,nan,nan,nan,661.381472237932,1017.5018405967858,nan,1017.8881398396916,nan,nan,nan,nan
1,212,0,0,0.0,1.0,0.6651365422876552,0,0.0,0.0,0.0,0.4941331064868354,0.14991053649026717,0.3442225699965682,0.6440436429771026,0.14991053649026717,0.47963245841674507,1,8,7,2,3,4,nan,nan,nan,nan,nan,nan,nan,nan,nan,nan,nan,nan,0.0,nan,nan,nan,nan,nan,nan,nan,nan,nan,nan,nan,nan,nan,nan,nan,nan,nan,nan,661.381472237932,1018.5269840156543,nan,1019.192120557942,nan,nan,nan,nan
1,213,1,1,1.0,1.0,0.5119755681953393,0,0.0,0.0,0.0,0.49508312557461776,0.15003290307130687,0.34505022250331085,0.6451160286459247,0.15003290307130687,0.521137117796267,3,5,6,7,4,1,nan,nan,nan,nan,nan,nan,nan,nan,nan,nan,nan,nan,0.0,nan,nan,nan,nan,nan,nan,nan,nan,nan,nan,nan,nan,nan,nan,nan,nan,nan,nan,661.381472237932,1019.5521288599703,nan,1020.0641044281656,nan,nan,nan,nan
1,214,1,1,1.0,1.0,0.4788260094355792,0,0.0,0.0,0.0,0.4951764539868869,0.14962311287009433,0.3455533411167926,0.6447995668569813,0.14962311287009433,0.5519793733061912,2,6,8,4,1,5,nan,nan,nan,nan,nan,nan,nan,nan,nan,nan,nan,nan,0.0,nan,nan,nan,nan,nan,nan,nan,nan,nan,nan,nan,nan,nan,nan,nan,nan,nan,nan,661.381472237932,1020.5772805467132,nan,1021.0561065561487,nan,nan,nan,nan
1,215,1,1,1.0,1.0,0.4536671952228062,0,0.0,0.0,0.0,0.49508661637946216,0.1492163892050552,0.34587022717440696,0.6443030055845174,0.1492163892050552,0.48148959095124155,3,1,6,2,8,7,nan,nan,nan,nan,nan,nan,nan,nan,nan,nan,nan,nan,0.0,nan,nan,nan,nan,nan,nan,nan,nan,nan,nan,nan,nan,nan,nan,nan,nan,nan,nan,661.381472237932,1021.6024003024213,nan,1022.0560674976441,nan,nan,nan,nan
1,216,1,1,1.0,1.0,0.4525173924630508,0,0.0,0.0,0.0,0.4948602807447263,0.1488394594967992,0.3460208212479271,0.6436997402415255,0.1488394594967992,0.46167019904047873,0,6,3,8,7,5,nan,nan,nan,nan,nan,nan,nan,nan,nan,nan,nan,nan,0.0,nan,nan,nan,nan,nan,nan,nan,nan,nan,nan,nan,nan,nan,nan,nan,nan,nan,nan,661.381472237932,1022.6275477126474,nan,1023.0800651051104,nan,nan,nan,nan
1,217,1,1,1.0,1.0,0.3873837581486441,0,0.0,0.0,0.0,0.49463015635189117,0.14846709445047795,0.3461630619014132,0.6430972508023691,0.14846709445047795,0.4311894486115004,8,3,0,7,1,6,nan,nan,nan,nan,nan,nan,nan,nan,nan,nan,nan,nan,0.0,nan,nan,nan,nan,nan,nan,nan,nan,nan,nan,nan,nan,nan,nan,nan,nan,nan,nan,661.381472237932,1023.6526791573851,nan,1024.0400629155338,nan,nan,nan,nan
1,218,0,0,0.0,1.0,0.5382707855314948,0,0.0,0.0,0.0,0.49405044609133303,0.14827395380703295,0.3457764922843001,0.642324399898366,0.14827395380703295,0.4593906453810632,3,2,8,0,6,4,nan,nan,nan,nan,nan,nan,nan,nan,nan,nan,nan,nan,0.0,nan,nan,nan,nan,nan,nan,nan,nan,nan,nan,nan,nan,nan,nan,nan,nan,nan,nan,661.381472237932,1024.6777897899156,nan,1025.216060575447,nan,nan,nan,nan
1,219,1,1,1.0,1.0,0.4570658560260199,0,0.0,0.0,0.0,0.49428818985176404,0.14791018271708903,0.34637800713467504,0.642198372568853,0.14791018271708903,0.4609067999020529,1,0,4,2,5,3,nan,nan,nan,nan,nan,nan,nan,nan,nan,nan,nan,nan,0.0,nan,nan,nan,nan,nan,nan,nan,nan,nan,nan,nan,nan,nan,nan,nan,nan,nan,nan,661.381472237932,1025.7029956454062,nan,1026.1600615014322,nan,nan,nan,nan
1,220,1,1,1.0,1.0,0.4319267136743292,0,0.0,0.0,0.0,0.49408913993825737,0.14753914758651737,0.34654999235174,0.6416282875247747,0.14753914758651737,0.475754451743948,2,8,6,5,4,0,nan,nan,nan,nan,nan,nan,nan,nan,nan,nan,nan,nan,0.0,nan,nan,nan,nan,nan,nan,nan,nan,nan,nan,nan,nan,nan,nan,nan,nan,nan,nan,661.381472237932,1026.7281057077344,nan,1027.1600324214087,nan,nan,nan,nan
1,221,1,1,1.0,1.0,0.39074421575060114,0,0.0,0.0,0.0,0.49375848873472583,0.14721568751599912,0.3465428012187267,0.640974176250725,0.14721568751599912,0.4265789284836501,5,4,3,8,7,2,nan,nan,nan,nan,nan,nan,nan,nan,nan,nan,nan,nan,0.0,nan,nan,nan,nan,nan,nan,nan,nan,nan,nan,nan,nan,nan,nan,nan,nan,nan,nan,661.381472237932,1027.7532602454303,nan,1028.1440044611809,nan,nan,nan,nan
1,222,1,1,1.0,1.0,0.33355428476352245,0,0.0,0.0,0.0,0.49321343967131775,0.1470157825267203,0.3461976571445975,0.640229222198038,0.1470157825267203,0.3854084047294843,4,6,1,7,2,3,nan,nan,nan,nan,nan,nan,nan,nan,nan,nan,nan,nan,0.0,nan,nan,nan,nan,nan,nan,nan,nan,nan,nan,nan,nan,nan,nan,nan,nan,nan,nan,661.381472237932,1028.7784353102325,nan,1029.111989594996,nan,nan,nan,nan
1,223,1,1,1.0,1.0,0.33245665504364297,0,0.0,0.0,0.0,0.4923731283296978,0.14708277120660235,0.34529035712309547,0.6394558995363002,0.14708277120660235,0.3522517185192555,0,1,6,8,3,4,nan,nan,nan,nan,nan,nan,nan,nan,nan,nan,nan,nan,0.0,nan,nan,nan,nan,nan,nan,nan,nan,nan,nan,nan,nan,nan,nan,nan,nan,nan,nan,661.381472237932,1029.8035028928425,nan,1030.1359595478862,nan,nan,nan,nan
1,224,1,1,1.0,1.0,0.33130713732680306,1,1.0,0.0,1.0,0.49153586930725773,0.14715049617560422,0.3443853731316535,0.638686365482862,0.14715049617560422,0.33243935904465616,6,2,7,3,5,8,1.0,1.0,1.0,1.0,1.0,1.0,1.0,1.0,1.0,0.0,0.0,0.0,3.0,6.0,2.0,7.0,8.0,1.0,1.0,4.0,3.0,2.0,1.0,6.0,5.0,4.988564408675302,4.102181346679572,3.158650263270829,1.4376765830093063,7.61249136866536,6.636886688705999,661.381472237932,1030.8286317717284,1031.637091389508,1031.1599389090552,1040.2966052164556,1041.2966619511135,1032.645551691472,1040.2882572433446
1,225,1,1,1.0,1.0,0.4460222753114067,0,0.0,0.0,0.0,0.4907013446615262,0.1472192564812811,0.3434820881802451,0.6379206011428074,0.1472192564812811,0.3699286892272842,7,8,5,6,3,2,nan,nan,nan,nan,nan,nan,nan,nan,nan,nan,nan,nan,0.0,nan,nan,nan,nan,nan,nan,nan,nan,nan,nan,nan,nan,nan,nan,nan,nan,nan,nan,661.381472237932,1041.5217909439816,nan,1041.967813219293,nan,nan,nan,nan
1,226,1,1,1.0,1.0,0.35689217399340123,0,0.0,0.0,0.0,0.4904698468928727,0.14687239705257685,0.34359744984029583,0.6373422439454496,0.14687239705257685,0.378073862210537,1,5,7,8,2,4,nan,nan,nan,nan,nan,nan,nan,nan,nan,nan,nan,nan,0.0,nan,nan,nan,nan,nan,nan,nan,nan,nan,nan,nan,nan,nan,nan,nan,nan,nan,nan,661.381472237932,1042.5469232440228,nan,1042.9038154180162,nan,nan,nan,nan
1,227,1,1,1.0,1.0,0.33973892946960405,0,0.0,0.0,0.0,0.48978130218720534,0.14680533988047692,0.34297596230672844,0.6365866420676822,0.14680533988047692,0.38088445959147066,4,3,6,1,7,0,nan,nan,nan,nan,nan,nan,nan,nan,nan,nan,nan,nan,0.0,nan,nan,nan,nan,nan,nan,nan,nan,nan,nan,nan,nan,nan,nan,nan,nan,nan,nan,661.381472237932,1043.5720652373857,nan,1043.9118041668553,nan,nan,nan,nan
1,228,0,0,1.0,0.0,0.27457478968426585,0,0.0,0.0,0.0,0.4890118541219869,0.1468201058748911,0.34219174824709575,0.635831959996878,0.1468201058748911,0.32373529771575704,5,1,7,3,4,6,nan,nan,nan,nan,nan,nan,nan,nan,nan,nan,nan,nan,0.0,nan,nan,nan,nan,nan,nan,nan,nan,nan,nan,nan,nan,nan,nan,nan,nan,nan,nan,661.381472237932,1044.5971986777731,nan,1044.8717734674574,nan,nan,nan,nan
1,229,1,1,1.0,1.0,0.43334450921975076,0,0.0,0.0,0.0,0.4879177874666924,0.1472398540654143,0.3406779334012781,0.6351576415321067,0.1472398540654143,0.34921940945787355,4,2,8,7,0,3,nan,nan,nan,nan,nan,nan,nan,nan,nan,nan,nan,nan,0.0,nan,nan,nan,nan,nan,nan,nan,nan,nan,nan,nan,nan,nan,nan,nan,nan,nan,nan,661.381472237932,1045.6223694661167,nan,1046.0557139753364,nan,nan,nan,nan
1,230,1,1,1.0,1.0,0.3762284187832847,0,0.0,0.0,0.0,0.48764076574970283,0.14691687195572922,0.3407238937939736,0.634557637705432,0.14691687195572922,0.3613825725624338,0,1,4,5,6,2,nan,nan,nan,nan,nan,nan,nan,nan,nan,nan,nan,nan,0.0,nan,nan,nan,nan,nan,nan,nan,nan,nan,nan,nan,nan,nan,nan,nan,nan,nan,nan,661.381472237932,1046.6474855155102,nan,1047.0237139342935,nan,nan,nan,nan
1,231,1,1,1.0,1.0,0.3511357473907992,0,0.0,0.0,0.0,0.4870780771286603,0.1467580598831539,0.3403200172455064,0.6338361370118142,0.1467580598831539,0.3869028917979449,3,6,7,8,5,4,nan,nan,nan,nan,nan,nan,nan,nan,nan,nan,nan,nan,0.0,nan,nan,nan,nan,nan,nan,nan,nan,nan,nan,nan,nan,nan,nan,nan,nan,nan,nan,661.381472237932,1047.6725750507903,nan,1048.0237107981811,nan,nan,nan,nan
1,232,1,1,1.0,1.0,0.3259310323628597,0,0.0,0.0,0.0,0.4863949498435454,0.1467041124091244,0.339690837434421,0.6330990622526698,0.1467041124091244,0.35109839951231453,6,7,4,3,2,5,nan,nan,nan,nan,nan,nan,nan,nan,nan,nan,nan,nan,0.0,nan,nan,nan,nan,nan,nan,nan,nan,nan,nan,nan,nan,nan,nan,nan,nan,nan,nan,661.381472237932,1048.6977603791165,nan,1049.0236914114794,nan,nan,nan,nan
1,233,1,1,1.0,1.0,0.27677232993301004,1,1.0,0.0,1.0,0.485592630256142,0.14677392732398414,0.3388187029321579,0.6323665575801262,0.14677392732398414,0.3179463698955563,5,4,3,1,6,2,1.0,1.0,1.0,1.0,1.0,1.0,1.0,1.0,1.0,1.0,0.0,0.0,4.0,5.0,4.0,3.0,1.0,2.0,6.0,4.0,3.0,2.0,1.0,6.0,5.0,5.262496585899498,3.966113176138606,2.3900554174324498,1.5262022751849145,9.350065202044789,7.590838412346784,661.381472237932,1049.7229000917287,1050.5312887199107,1049.9996724216617,1060.9327366788639,1061.93251971883,1051.5398125989595,1060.9244135093177
1,234,1,1,1.0,1.0,0.6415306603885256,0,0.0,0.0,0.0,0.48455372328936025,0.1471437196612164,0.3374100036281439,0.6316974429505766,0.1471437196612164,0.41474467422813177,7,5,2,3,8,4,nan,nan,nan,nan,nan,nan,nan,nan,nan,nan,nan,nan,0.0,nan,nan,nan,nan,nan,nan,nan,nan,nan,nan,nan,nan,nan,nan,nan,nan,nan,nan,661.381472237932,1062.157935235824,nan,1062.7994658962125,nan,nan,nan,nan
1,235,1,1,1.0,1.0,0.6723612268106081,0,0.0,0.0,0.0,0.48533083683935613,0.14719196550493568,0.33813887133442044,0.6325228023442918,0.14719196550493568,0.5302214057107145,3,2,6,8,0,1,nan,nan,nan,nan,nan,nan,nan,nan,nan,nan,nan,nan,0.0,nan,nan,nan,nan,nan,nan,nan,nan,nan,nan,nan,nan,nan,nan,nan,nan,nan,nan,661.381472237932,1063.1830877778702,nan,1063.8554490046808,nan,nan,nan,nan
1,236,1,1,1.0,1.0,0.7111811123322695,1,0.0,1.0,1.0,0.4862521688096578,0.1474117242891662,0.3388404445204916,0.6336638930988241,0.1474117242891662,0.6750243331771344,7,0,1,2,5,6,1.0,1.0,1.0,1.0,1.0,1.0,0.0,0.0,1.0,1.0,1.0,0.0,3.0,0.0,6.0,1.0,2.0,5.0,0.0,4.0,6.0,1.0,2.0,3.0,5.0,4.9121542680077255,7.480203320970759,1.66564515826758,2.434255684434902,3.3844067582394928,6.632832586125005,661.381472237932,1064.2082502983394,1065.0166183994152,1064.9194314106717,1073.551120181044,1074.5510574593209,1066.0334241086966,1073.542787318118
1,237,1,1,1.0,1.0,0.518978445965331,0,0.0,0.0,0.0,0.4873547616700628,0.147886730727285,0.3394680309427778,0.6352414923973478,0.147886730727285,0.6341735950360695,5,7,0,3,6,4,nan,nan,nan,nan,nan,nan,nan,nan,nan,nan,nan,nan,0.0,nan,nan,nan,nan,nan,nan,nan,nan,nan,nan,nan,nan,nan,nan,nan,nan,nan,nan,661.381472237932,1074.7763121806784,nan,1075.2952906266437,nan,nan,nan,nan
1,238,1,1,1.0,1.0,0.4298355151549913,0,0.0,0.0,0.0,0.4875090235446739,0.1475420426997212,0.3399669808449527,0.6350510662443951,0.1475420426997212,0.553331691150864,7,1,4,5,0,3,nan,nan,nan,nan,nan,nan,nan,nan,nan,nan,nan,nan,0.0,nan,nan,nan,nan,nan,nan,nan,nan,nan,nan,nan,nan,nan,nan,nan,nan,nan,nan,661.381472237932,1075.8014527485939,nan,1076.2312882637489,nan,nan,nan,nan
1,239,1,1,1.0,1.0,0.3406481090351008,0,0.0,0.0,0.0,0.4872290550573453,0.14723807139160147,0.3399909836657439,0.6344671264489468,0.14723807139160147,0.42982069005180773,5,3,6,1,2,0,nan,nan,nan,nan,nan,nan,nan,nan,nan,nan,nan,nan,0.0,nan,nan,nan,nan,nan,nan,nan,nan,nan,nan,nan,nan,nan,nan,nan,nan,nan,nan,661.381472237932,1076.8266221114318,nan,1077.167270220467,nan,nan,nan,nan
1,240,1,1,1.0,1.0,0.33149245142703876,0,0.0,0.0,0.0,0.48652093454516054,0.14723320107399535,0.3392877334711652,0.6337541356191558,0.14723320107399535,0.36732535853904363,6,5,3,7,1,4,nan,nan,nan,nan,nan,nan,nan,nan,nan,nan,nan,nan,0.0,nan,nan,nan,nan,nan,nan,nan,nan,nan,nan,nan,nan,nan,nan,nan,nan,nan,nan,661.381472237932,1077.851757262426,nan,1078.183249713853,nan,nan,nan,nan
1,241,1,1,1.0,1.0,0.3063590110396035,1,1.0,0.0,1.0,0.48577560529940034,0.14726977945228106,0.3385058258471193,0.6330453847516814,0.14726977945228106,0.32616652383391437,1,8,0,5,4,2,1.0,1.0,1.0,1.0,1.0,1.0,1.0,1.0,1.0,1.0,0.0,1.0,5.0,1.0,8.0,0.0,5.0,2.0,2.0,4.0,3.0,1.0,2.0,6.0,5.0,6.0362115181051195,4.028669518826064,1.5414239764795639,3.012814043322578,8.835100089607295,7.635361696127802,661.381472237932,1078.8768701757654,1079.685287598928,1079.183229186805,1089.5783054763451,1090.5777061989647,1080.7020961591625,1089.5699709028122
1,242,1,1,1.0,1.0,0.42757468298077583,0,0.0,0.0,0.0,0.4849171526952865,0.1474377816250416,0.33747937107024495,0.6323549343203281,0.1474377816250416,0.3551420484824727,8,4,1,3,6,5,nan,nan,nan,nan,nan,nan,nan,nan,nan,nan,nan,nan,0.0,nan,nan,nan,nan,nan,nan,nan,nan,nan,nan,nan,nan,nan,nan,nan,nan,nan,nan,661.381472237932,1090.803468681057,nan,1091.2310433640378,nan,nan,nan,nan
1,243,1,1,1.0,1.0,0.4343788470723666,0,0.0,0.0,0.0,0.4846440933156936,0.1471392842900428,0.3375048090256508,0.6317833776057364,0.1471392842900428,0.389437513697582,2,1,6,0,8,3,nan,nan,nan,nan,nan,nan,nan,nan,nan,nan,nan,nan,0.0,nan,nan,nan,nan,nan,nan,nan,nan,nan,nan,nan,nan,nan,nan,nan,nan,nan,nan,661.381472237932,1091.828633767378,nan,1092.2630126144504,nan,nan,nan,nan
1,244,1,1,1.0,1.0,0.46524533594492823,0,0.0,0.0,0.0,0.4844058693998484,0.14683078739310604,0.33757508200674236,0.6312366567929545,0.14683078739310604,0.4423996219993569,5,0,4,6,3,2,nan,nan,nan,nan,nan,nan,nan,nan,nan,nan,nan,nan,0.0,nan,nan,nan,nan,nan,nan,nan,nan,nan,nan,nan,nan,nan,nan,nan,nan,nan,nan,661.381472237932,1092.8537777564488,nan,1093.3190230923938,nan,nan,nan,nan
1,245,1,1,1.0,1.0,0.49607390665914863,0,0.0,0.0,0.0,0.4843154895250611,0.14648996200079556,0.33782552752426553,0.6308054515258567,0.14648996200079556,0.4652326965588145,6,3,0,1,2,8,nan,nan,nan,nan,nan,nan,nan,nan,nan,nan,nan,nan,0.0,nan,nan,nan,nan,nan,nan,nan,nan,nan,nan,nan,nan,nan,nan,nan,nan,nan,nan,661.381472237932,1093.8789314388996,nan,1094.3750053455587,nan,nan,nan,nan
1,246,1,1,1.0,1.0,0.518966756935697,0,0.0,0.0,0.0,0.48437069336137134,0.14614789461310487,0.33822279874826644,0.6305185879744762,0.14614789461310487,0.49342866651325795,8,7,2,3,1,5,nan,nan,nan,nan,nan,nan,nan,nan,nan,nan,nan,nan,0.0,nan,nan,nan,nan,nan,nan,nan,nan,nan,nan,nan,nan,nan,nan,nan,nan,nan,nan,661.381472237932,1094.9040480584954,nan,1095.423014815431,nan,nan,nan,nan
1,247,1,1,1.0,1.0,0.5818036366254091,0,0.0,0.0,0.0,0.4845323572098495,0.14582511621271455,0.33870724099713495,0.6303574734225641,0.14582511621271455,0.5322814334067516,3,4,8,2,7,0,nan,nan,nan,nan,nan,nan,nan,nan,nan,nan,nan,nan,0.0,nan,nan,nan,nan,nan,nan,nan,nan,nan,nan,nan,nan,nan,nan,nan,nan,nan,nan,661.381472237932,1095.929189481656,nan,1096.5109931182815,nan,nan,nan,nan
1,248,1,1,1.0,1.0,0.5966629774775356,0,0.0,0.0,0.0,0.4849847817652707,0.14563605643556976,0.33934872532970095,0.6306208382008405,0.14563605643556976,0.5658111236795472,8,5,0,1,6,3,nan,nan,nan,nan,nan,nan,nan,nan,nan,nan,nan,nan,0.0,nan,nan,nan,nan,nan,nan,nan,nan,nan,nan,nan,nan,nan,nan,nan,nan,nan,nan,661.381472237932,1096.9543206412927,nan,1097.5509836187703,nan,nan,nan,nan
1,249,1,1,1.0,1.0,0.555491883540526,0,0.0,0.0,0.0,0.48550181044912377,0.1454961877348265,0.34000562271429724,0.6309979981839503,0.1454961877348265,0.5779861658811569,4,0,2,3,8,7,nan,nan,nan,nan,nan,nan,nan,nan,nan,nan,nan,nan,0.0,nan,nan,nan,nan,nan,nan,nan,nan,nan,nan,nan,nan,nan,nan,nan,nan,nan,nan,661.381472237932,1097.979468621721,nan,1098.5349605052616,nan,nan,nan,nan
1,250,1,1,1.0,1.0,0.5143273468711413,0,0.0,0.0,0.0,0.4858243453481625,0.1452379331105961,0.34058641223756636,0.6310622784587586,0.1452379331105961,0.555494069296401,0,6,8,2,7,5,nan,nan,nan,nan,nan,nan,nan,nan,nan,nan,nan,nan,0.0,nan,nan,nan,nan,nan,nan,nan,nan,nan,nan,nan,nan,nan,nan,nan,nan,nan,nan,661.381472237932,1099.0046188829583,nan,1099.5189462298295,nan,nan,nan,nan
1,251,0,0,0.0,1.0,0.7051515612402,0,0.0,0.0,0.0,0.4859550930615707,0.14491723531453146,0.3410378577470392,0.6308723283761022,0.14491723531453146,0.5916569305506224,5,0,4,3,1,8,nan,nan,nan,nan,nan,nan,nan,nan,nan,nan,nan,nan,0.0,nan,nan,nan,nan,nan,nan,nan,nan,nan,nan,nan,nan,nan,nan,nan,nan,nan,nan,661.381472237932,1100.0297588806716,nan,1100.7349104419118,nan,nan,nan,nan
1,252,1,1,1.0,1.0,0.576008151518181,0,0.0,0.0,0.0,0.48695599017654156,0.14533926313411616,0.3416167270424254,0.6322952533106577,0.14533926313411616,0.5984956865431741,8,5,3,1,2,6,nan,nan,nan,nan,nan,nan,nan,nan,nan,nan,nan,nan,0.0,nan,nan,nan,nan,nan,nan,nan,nan,nan,nan,nan,nan,nan,nan,nan,nan,nan,nan,661.381472237932,1101.0548891850049,nan,1101.630897336523,nan,nan,nan,nan
1,253,1,1,1.0,1.0,0.6628489108406939,1,0.0,1.0,1.0,0.48736077272809447,0.14513224453942136,0.3422285281886731,0.6324930172675158,0.14513224453942136,0.648002874533025,3,7,8,6,4,0,1.0,1.0,1.0,1.0,1.0,1.0,1.0,1.0,1.0,1.0,0.0,0.0,4.0,3.0,7.0,8.0,6.0,1.0,1.0,4.0,3.0,1.0,2.0,6.0,5.0,4.312716995715164,3.37696197751211,1.5775148977991194,2.3941562762483954,7.29621063999366,6.280409618339036,661.381472237932,1102.0800326038734,1102.8884531630902,1102.742881514714,1111.2312725833617,1112.2306191372918,1103.896942260093,1111.222923754889
1,254,1,1,1.0,1.0,0.47029642848065123,0,0.0,0.0,0.0,0.48815483670145465,0.14528171707542908,0.34287311962602557,0.6334365537768838,0.14528171707542908,0.569717830279842,2,1,4,7,6,8,nan,nan,nan,nan,nan,nan,nan,nan,nan,nan,nan,nan,0.0,nan,nan,nan,nan,nan,nan,nan,nan,nan,nan,nan,nan,nan,nan,nan,nan,nan,nan,661.381472237932,1112.4564463366987,nan,1112.9267427651794,nan,nan,nan,nan
1,255,1,1,1.0,1.0,0.4451370440656319,0,0.0,0.0,0.0,0.4880743934211808,0.14495906960485153,0.34311532381632925,0.6330334630260324,0.14495906960485153,0.526094127795659,3,6,5,2,1,0,nan,nan,nan,nan,nan,nan,nan,nan,nan,nan,nan,nan,0.0,nan,nan,nan,nan,nan,nan,nan,nan,nan,nan,nan,nan,nan,nan,nan,nan,nan,nan,661.381472237932,1113.4816000191495,nan,1113.9267370632151,nan,nan,nan,nan
1,256,1,1,1.0,1.0,0.40402468043612316,0,0.0,0.0,0.0,0.4878818492536671,0.1446621333755986,0.34321971587806854,0.6325439826292657,0.1446621333755986,0.43981938432746875,2,0,4,5,7,3,nan,nan,nan,nan,nan,nan,nan,nan,nan,nan,nan,nan,0.0,nan,nan,nan,nan,nan,nan,nan,nan,nan,nan,nan,nan,nan,nan,nan,nan,nan,nan,661.381472237932,1114.5067271873704,nan,1114.9107518678065,nan,nan,nan,nan
1,257,1,1,1.0,1.0,0.3708263697917573,0,0.0,0.0,0.0,0.4875074868928745,0.14444708703585507,0.3430603998570194,0.6319545739287296,0.14444708703585507,0.40666269809783745,7,8,6,0,3,1,nan,nan,nan,nan,nan,nan,nan,nan,nan,nan,nan,nan,0.0,nan,nan,nan,nan,nan,nan,nan,nan,nan,nan,nan,nan,nan,nan,nan,nan,nan,nan,661.381472237932,1115.531840385811,nan,1115.9026667556027,nan,nan,nan,nan
1,258,1,1,1.0,1.0,0.5456442915019579,0,0.0,0.0,0.0,0.48698890415020285,0.1443345685517348,0.34265433559846803,0.6313234727019377,0.1443345685517348,0.4401651139099461,3,0,1,4,6,5,nan,nan,nan,nan,nan,nan,nan,nan,nan,nan,nan,nan,0.0,nan,nan,nan,nan,nan,nan,nan,nan,nan,nan,nan,nan,nan,nan,nan,nan,nan,nan,661.381472237932,1116.5570114592556,nan,1117.1026557507575,nan,nan,nan,nan
1,259,1,1,1.0,1.0,0.5284679540200159,0,0.0,0.0,0.0,0.48724844126237876,0.14406749983540024,0.3431809414269785,0.631315941097779,0.14406749983540024,0.48164620510457706,6,3,7,1,0,4,nan,nan,nan,nan,nan,nan,nan,nan,nan,nan,nan,nan,0.0,nan,nan,nan,nan,nan,nan,nan,nan,nan,nan,nan,nan,nan,nan,nan,nan,nan,nan,661.381472237932,1117.5821534526185,nan,1118.1106214066385,nan,nan,nan,nan
1,260,0,0,0.0,1.0,0.5273204320110381,0,0.0,0.0,0.0,0.48743002501902033,0.14377573736164775,0.3436542876573726,0.6312057623806681,0.14377573736164775,0.533810892511004,8,4,0,3,5,2,nan,nan,nan,nan,nan,nan,nan,nan,nan,nan,nan,nan,0.0,nan,nan,nan,nan,nan,nan,nan,nan,nan,nan,nan,nan,nan,nan,nan,nan,nan,nan,661.381472237932,1118.607296586386,nan,1119.134617018397,nan,nan,nan,nan
1,261,1,1,1.0,1.0,0.35814033582573757,0,0.0,0.0,0.0,0.48760498294442395,0.14348430881659227,0.34412067412783165,0.6310892917610162,0.14348430881659227,0.47130957395226386,6,1,2,8,0,4,nan,nan,nan,nan,nan,nan,nan,nan,nan,nan,nan,nan,0.0,nan,nan,nan,nan,nan,nan,nan,nan,nan,nan,nan,nan,nan,nan,nan,nan,nan,nan,661.381472237932,1119.6324696554802,nan,1119.990609991306,nan,nan,nan,nan
1,262,1,1,1.0,1.0,0.30904292955528945,0,0.0,0.0,0.0,0.4870396351404122,0.14342495245804646,0.3436146826823657,0.6304645875984587,0.14342495245804646,0.39816789913068834,5,0,1,7,3,8,nan,nan,nan,nan,nan,nan,nan,nan,nan,nan,nan,nan,0.0,nan,nan,nan,nan,nan,nan,nan,nan,nan,nan,nan,nan,nan,nan,nan,nan,nan,nan,661.381472237932,1120.657558335457,nan,1120.9666012650123,nan,nan,nan,nan
1,263,0,0,1.0,0.0,0.2918891148874536,0,0.0,0.0,0.0,0.4862657364204769,0.1435911960776953,0.34267454034278155,0.6298569324981722,0.1435911960776953,0.31969079342282686,4,1,5,0,6,2,nan,nan,nan,nan,nan,nan,nan,nan,nan,nan,nan,nan,0.0,nan,nan,nan,nan,nan,nan,nan,nan,nan,nan,nan,nan,nan,nan,nan,nan,nan,nan,661.381472237932,1121.6827037499752,nan,1121.9745928648626,nan,nan,nan,nan
1,264,1,1,1.0,1.0,0.33871827635448426,1,1.0,0.0,1.0,0.4854242791844032,0.14384723103292849,0.3415770481514747,0.6292715102173316,0.14384723103292849,0.3132167735990758,2,7,0,1,4,6,1.0,1.0,1.0,1.0,1.0,1.0,0.0,1.0,1.0,1.0,0.0,1.0,4.0,5.0,7.0,0.0,1.0,6.0,6.0,4.0,3.0,1.0,2.0,6.0,5.0,5.156145386572462,3.805064663174562,1.356810635770671,2.5732942976173945,7.732008993101772,6.788106711232103,661.381472237932,1122.707853155909,1123.5162725747796,1123.0465714322636,1132.3007850475842,1133.3004805622622,1124.5247496976517,1132.292417402612
1,265,1,1,1.0,1.0,0.44839942775433883,0,0.0,0.0,0.0,0.48479192572392943,0.14385828542978432,0.3409336402941451,0.6286502111537138,0.14385828542978432,0.35966893966542557,0,5,2,6,8,3,nan,nan,nan,nan,nan,nan,nan,nan,nan,nan,nan,nan,0.0,nan,nan,nan,nan,nan,nan,nan,nan,nan,nan,nan,nan,nan,nan,nan,nan,nan,nan,661.381472237932,1133.5259992849315,nan,1133.9743987126858,nan,nan,nan,nan
1,266,0,0,0.0,1.0,0.45528370450483635,0,0.0,0.0,0.0,0.48463573474551913,0.14356895710145662,0.3410667776440625,0.6282046918469757,0.14356895710145662,0.4141338028712198,8,1,6,5,7,0,nan,nan,nan,nan,nan,nan,nan,nan,nan,nan,nan,nan,0.0,nan,nan,nan,nan,nan,nan,nan,nan,nan,nan,nan,nan,nan,nan,nan,nan,nan,nan,661.381472237932,1134.5511255979072,nan,1135.006409302412,nan,nan,nan,nan
1,267,1,1,1.0,1.0,0.5020991812343709,0,0.0,0.0,0.0,0.48451029871884954,0.14327465179425145,0.34123564692459807,0.627784950513101,0.14327465179425145,0.4685941044978487,4,7,3,0,5,8,nan,nan,nan,nan,nan,nan,nan,nan,nan,nan,nan,nan,0.0,nan,nan,nan,nan,nan,nan,nan,nan,nan,nan,nan,nan,nan,nan,nan,nan,nan,nan,661.381472237932,1135.5762630297104,nan,1136.0783622109448,nan,nan,nan,nan
1,268,1,1,1.0,1.0,0.4449591425363906,0,0.0,0.0,0.0,0.4845851450274262,0.14297407145484262,0.3416110735725836,0.6275592164822689,0.14297407145484262,0.4674473427585326,1,6,8,5,2,3,nan,nan,nan,nan,nan,nan,nan,nan,nan,nan,nan,nan,0.0,nan,nan,nan,nan,nan,nan,nan,nan,nan,nan,nan,nan,nan,nan,nan,nan,nan,nan,661.381472237932,1136.6013976105023,nan,1137.0463567530387,nan,nan,nan,nan
1,269,1,1,1.0,1.0,0.6838244727696292,0,0.0,0.0,0.0,0.48441723823721,0.14269405560330525,0.3417231826339048,0.6271112938405152,0.14269405560330525,0.5436275988467969,2,8,1,7,3,0,nan,nan,nan,nan,nan,nan,nan,nan,nan,nan,nan,nan,0.0,nan,nan,nan,nan,nan,nan,nan,nan,nan,nan,nan,nan,nan,nan,nan,nan,nan,nan,661.381472237932,1137.626541599573,nan,1138.3103660723427,nan,nan,nan,nan
1,270,1,1,1.0,1.0,0.6746488582575694,0,0.0,0.0,0.0,0.4852586189736337,0.1429781420083892,0.3422804769652445,0.628236760982023,0.1429781420083892,0.6011441578545297,1,2,0,3,4,5,nan,nan,nan,nan,nan,nan,nan,nan,nan,nan,nan,nan,0.0,nan,nan,nan,nan,nan,nan,nan,nan,nan,nan,nan,nan,nan,nan,nan,nan,nan,nan,661.381472237932,1138.6516798866796,nan,1139.3263287449372,nan,nan,nan,nan
1,271,1,1,1.0,1.0,0.5454849214293063,1,0.0,1.0,1.0,0.4860543762815494,0.1432024113822372,0.34285196489931224,0.6292567876637866,0.1432024113822372,0.634652750818835,7,5,1,0,8,6,1.0,1.0,1.0,1.0,1.0,1.0,0.0,1.0,0.0,0.0,0.0,0.0,1.0,5.0,5.0,0.0,3.0,1.0,1.0,4.0,3.0,1.0,2.0,6.0,5.0,5.94710393960122,4.91463149007177,1.50946641509654,2.4826910916599445,8.15506429260131,7.187190062191803,661.381472237932,1139.6768272969057,1140.48526410677,1140.222312218335,1149.686442818609,1150.6862315604812,1141.493763467297,1149.6781173682539
1,272,1,1,1.0,1.0,0.6224273412371986,0,0.0,0.0,0.0,0.4863030396503685,0.1429539923708759,0.34334904727949256,0.6292570320212444,0.1429539923708759,0.6141870403080247,5,3,2,1,7,4,nan,nan,nan,nan,nan,nan,nan,nan,nan,nan,nan,nan,0.0,nan,nan,nan,nan,nan,nan,nan,nan,nan,nan,nan,nan,nan,nan,nan,nan,nan,nan,661.381472237932,1150.911728615698,nan,1151.5341559569351,nan,nan,nan,nan
1,273,1,1,1.0,1.0,0.5733042760984972,0,0.0,0.0,0.0,0.4868702242403136,0.1429250869961682,0.34394513724414544,0.6297953112364818,0.1429250869961682,0.5804055129216673,2,4,0,8,5,7,nan,nan,nan,nan,nan,nan,nan,nan,nan,nan,nan,nan,0.0,nan,nan,nan,nan,nan,nan,nan,nan,nan,nan,nan,nan,nan,nan,nan,nan,nan,nan,661.381472237932,1151.9368218572345,nan,1152.510126133333,nan,nan,nan,nan
1,274,1,1,1.0,1.0,0.43615786253940314,0,0.0,0.0,0.0,0.48722887175839735,0.14273643360478508,0.3444924381536123,0.6299653053631824,0.14273643360478508,0.5439631599583663,8,7,1,0,2,5,nan,nan,nan,nan,nan,nan,nan,nan,nan,nan,nan,nan,0.0,nan,nan,nan,nan,nan,nan,nan,nan,nan,nan,nan,nan,nan,nan,nan,nan,nan,nan,661.381472237932,1152.9619858032092,nan,1153.3981436657486,nan,nan,nan,nan
1,275,1,1,1.0,1.0,0.5309902217122726,0,0.0,0.0,0.0,0.4870178345302197,0.1424788897564499,0.3445389447737698,0.6294967242866696,0.1424788897564499,0.5134841201167243,7,2,4,5,0,3,nan,nan,nan,nan,nan,nan,nan,nan,nan,nan,nan,nan,0.0,nan,nan,nan,nan,nan,nan,nan,nan,nan,nan,nan,nan,nan,nan,nan,nan,nan,nan,661.381472237932,1153.9871200989,nan,1154.5181103206123,nan,nan,nan,nan
1,276,1,1,1.0,1.0,0.5378300230950117,0,0.0,0.0,0.0,0.48719879085607176,0.1422132845585849,0.34498550629748687,0.6294120754146566,0.1422132845585849,0.5016593691155625,6,7,3,0,2,5,nan,nan,nan,nan,nan,nan,nan,nan,nan,nan,nan,nan,0.0,nan,nan,nan,nan,nan,nan,nan,nan,nan,nan,nan,nan,nan,nan,nan,nan,nan,nan,661.381472237932,1155.012249833031,nan,1155.550079856126,nan,nan,nan,nan
1,277,1,1,1.0,1.0,0.5046710560563952,0,0.0,0.0,0.0,0.48740629590623136,0.14195842244489154,0.3454478734613398,0.6293647183511228,0.14195842244489154,0.5244971002878932,4,1,7,8,6,3,nan,nan,nan,nan,nan,nan,nan,nan,nan,nan,nan,nan,0.0,nan,nan,nan,nan,nan,nan,nan,nan,nan,nan,nan,nan,nan,nan,nan,nan,nan,nan,661.381472237932,1156.0374160598149,nan,1156.5420871158713,nan,nan,nan,nan
