block,trial,freq_trials,correct_response,actual_response,acc,rts,probe_trials,fast_rt_trigger,slow_rt_trigger,rt_triggered,rts_runningavg,rts_runningstd,rts_runningfastthresh,rts_runningslowthresh,rts_runningstd,rts_trailingavg,trials_colorind,trials_colorrgb0,trials_colorrgb1,trials_colorrgb2,wm_respdeg,wm_respdeg_in_colorspace,wm_respcolorminusorigcolor,wm_resptexind,wm_resptexrgb0,wm_resptexrgb1,wm_resptexrgb2,wm_rts,time_blockstart,time_encarray_offset,time_encarray_onset,time_response,time_iti_offset,time_iti_onset,time_memprobe_offset,time_memprobe_onset
1,1,1,1,1.0,1.0,0.399025193416,0,nan,nan,nan,nan,nan,nan,nan,nan,nan,115,1.0,-0.305166285737,-0.293172749504,nan,nan,nan,nan,0.0,0.0,0.0,nan,191.724872618,192.749861728,193.24989822,193.148886921,nan,nan,nan,nan
1,2,1,1,1.0,1.0,0.340442722663,0,nan,nan,nan,nan,nan,nan,nan,nan,nan,313,-0.0530221528698,0.42279583272,0.448797959603,nan,nan,nan,nan,0.0,0.0,0.0,nan,191.724872618,193.752431029,194.258401833,194.092873752,nan,nan,nan,nan
1,3,1,1,1.0,1.0,0.310715857893,0,nan,nan,nan,nan,nan,nan,nan,nan,nan,483,0.606025706087,0.319314454546,-1.0,nan,nan,nan,nan,0.0,0.0,0.0,nan,191.724872618,194.750132571,195.250185599,195.060848428,nan,nan,nan,nan
1,4,1,1,1.0,1.0,0.318598242477,0,nan,nan,nan,nan,nan,nan,nan,nan,nan,53,1.0,-0.049257555853,-1.0,nan,nan,nan,nan,0.0,0.0,0.0,nan,191.724872618,195.750254307,196.250300494,196.06885255,nan,nan,nan,nan
1,5,1,1,1.0,1.0,0.422457668465,0,nan,nan,nan,nan,nan,nan,nan,nan,nan,189,1.0,-0.0802194643608,0.400143472992,nan,nan,nan,nan,0.0,0.0,0.0,nan,191.724872618,196.750364355,197.250404839,197.172822024,nan,nan,nan,nan
1,6,1,1,1.0,1.0,0.398313019425,0,nan,nan,nan,nan,nan,nan,nan,nan,nan,20,1.0,0.121558187834,-1.0,nan,nan,nan,nan,0.0,0.0,0.0,nan,191.724872618,197.750495215,198.250537409,198.148808234,nan,nan,nan,nan
1,7,1,1,1.0,1.0,0.422140069772,0,nan,nan,nan,nan,nan,nan,nan,nan,nan,154,1.0,-0.251813147593,0.102138173725,nan,nan,nan,nan,0.0,0.0,0.0,nan,191.724872618,198.750643751,199.250673972,199.172783821,nan,nan,nan,nan
1,8,1,1,1.0,1.0,0.405997830909,0,nan,nan,nan,nan,nan,nan,nan,nan,nan,300,0.0433537089178,0.395748422077,0.528951029102,nan,nan,nan,nan,0.0,0.0,0.0,nan,191.724872618,199.750766913,200.250788296,200.156764744,nan,nan,nan,nan
1,9,0,0,0.0,1.0,0.453829833306,0,nan,nan,nan,nan,nan,nan,nan,nan,nan,162,1.0,-0.218739557155,0.176632971453,nan,nan,nan,nan,0.0,0.0,0.0,nan,191.724872618,200.750914879,201.250951942,201.204744712,nan,nan,nan,nan
1,10,1,1,1.0,1.0,0.42971768463,0,nan,nan,nan,nan,nan,nan,nan,nan,nan,408,0.036737934283,0.465637664749,-0.515938449969,nan,nan,nan,nan,0.0,0.0,0.0,nan,191.724872618,201.751017229,202.25104802,202.180734914,nan,nan,nan,nan
1,11,1,1,1.0,1.0,0.42155875545,0,nan,nan,nan,nan,nan,nan,nan,nan,nan,57,1.0,-0.0707313323512,-1.0,nan,nan,nan,nan,0.0,0.0,0.0,nan,191.724872618,202.751158352,203.251175744,203.172717108,nan,nan,nan,nan
1,12,1,1,1.0,1.0,0.413394123781,0,nan,nan,nan,nan,nan,nan,nan,nan,nan,452,0.351738073422,0.401406211611,-1.0,nan,nan,nan,nan,0.0,0.0,0.0,nan,191.724872618,203.751317437,204.251304608,204.164711561,nan,nan,nan,nan
1,13,1,1,1.0,1.0,0.413289492484,0,nan,nan,nan,nan,nan,nan,nan,nan,nan,22,1.0,0.111842423158,-1.0,nan,nan,nan,nan,0.0,0.0,0.0,nan,191.724872618,204.751395554,205.251454569,205.164685047,nan,nan,nan,nan
1,14,1,1,1.0,1.0,0.381107935682,0,nan,nan,nan,nan,nan,nan,nan,nan,nan,183,1.0,-0.113108999915,0.354902835149,nan,nan,nan,nan,0.0,0.0,0.0,nan,191.724872618,205.751546656,206.2515592,206.132654591,nan,nan,nan,nan
1,15,1,1,1.0,1.0,0.38900172431,0,nan,nan,nan,nan,nan,nan,nan,nan,nan,347,-0.174938837379,0.46723881498,0.167157479366,nan,nan,nan,nan,0.0,0.0,0.0,nan,191.724872618,206.751649861,207.251685499,207.140651586,nan,nan,nan,nan
1,16,1,1,1.0,1.0,0.40484546544,0,nan,nan,nan,nan,nan,nan,nan,nan,nan,182,1.0,-0.118523835432,0.347089474713,nan,nan,nan,nan,0.0,0.0,0.0,nan,191.724872618,207.751777015,208.251814078,208.156622481,nan,nan,nan,nan
1,17,1,1,1.0,1.0,0.3953303257,0,nan,nan,nan,nan,nan,nan,nan,nan,nan,363,-0.162287729338,0.476365729747,0.00704812682028,nan,nan,nan,nan,0.0,0.0,0.0,nan,191.724872618,208.785289124,209.285305374,209.180619449,nan,nan,nan,nan
1,18,0,0,0.0,1.0,0.491170805413,0,nan,nan,nan,nan,nan,nan,nan,nan,nan,97,1.0,-0.260369742894,-0.491718830742,nan,nan,nan,nan,0.0,0.0,0.0,nan,191.724872618,209.785420554,210.293774775,210.276591359,nan,nan,nan,nan
1,19,1,1,1.0,1.0,0.500247179531,0,nan,nan,nan,nan,nan,nan,nan,nan,nan,236,0.697004556276,0.169301754335,0.634065852989,nan,nan,nan,nan,0.0,0.0,0.0,nan,191.724872618,210.785486126,211.285580778,211.285733306,nan,nan,nan,nan
1,20,1,1,1.0,1.0,0.506944412831,0,nan,nan,nan,nan,nan,nan,nan,nan,nan,418,0.101175887384,0.455961754156,-0.661679309199,nan,nan,nan,nan,0.0,0.0,0.0,nan,191.724872618,211.785614705,212.285706507,212.292559118,nan,nan,nan,nan
1,21,0,0,0.0,1.0,0.506736291107,0,nan,nan,nan,nan,nan,nan,nan,nan,nan,53,1.0,-0.049257555853,-1.0,nan,nan,nan,nan,0.0,0.0,0.0,nan,191.724872618,212.785791181,213.28583423,213.292527472,nan,nan,nan,nan
1,22,1,1,1.0,1.0,0.418650187552,0,nan,nan,nan,nan,nan,nan,nan,nan,nan,408,0.036737934283,0.465637664749,-0.515938449969,nan,nan,nan,nan,0.0,0.0,0.0,nan,191.724872618,213.785869298,214.285900088,214.204519485,nan,nan,nan,nan
1,23,1,1,1.0,1.0,0.41049296828,0,nan,nan,nan,nan,nan,nan,nan,nan,nan,209,0.967301840512,0.0304835193525,0.52804999659,nan,nan,nan,nan,0.0,0.0,0.0,nan,191.724872618,214.786009851,215.286048909,215.196502819,nan,nan,nan,nan
1,24,1,1,1.0,1.0,0.410364959389,0,nan,nan,nan,nan,nan,nan,nan,nan,nan,322,-0.105067232891,0.43811622051,0.383559350674,nan,nan,nan,nan,0.0,0.0,0.0,nan,191.724872618,215.786123605,216.286204573,216.196488564,nan,nan,nan,nan
1,25,1,1,1.0,1.0,0.434222800657,0,nan,nan,nan,nan,nan,nan,nan,nan,nan,464,0.448404880525,0.373503555275,-1.0,nan,nan,nan,nan,0.0,0.0,0.0,nan,191.724872618,216.786250758,217.286292953,217.220473559,nan,nan,nan,nan
1,26,1,1,1.0,1.0,0.426063300576,0,nan,nan,nan,nan,nan,nan,nan,nan,nan,329,-0.136053278316,0.448203788942,0.3278337444,nan,nan,nan,nan,0.0,0.0,0.0,nan,191.724872618,217.786397014,218.2864164,218.212460314,nan,nan,nan,nan
1,27,1,1,1.0,1.0,0.521896652877,0,nan,nan,nan,nan,nan,nan,nan,nan,nan,109,1.0,-0.294638327523,-0.357773695079,nan,nan,nan,nan,0.0,0.0,0.0,nan,191.724872618,218.786519891,219.286598863,219.308416544,nan,nan,nan,nan
1,28,1,1,1.0,1.0,0.553750632796,0,nan,nan,nan,nan,nan,nan,nan,nan,nan,390,-0.0641960347588,0.476284203309,-0.291947553613,nan,nan,nan,nan,0.0,0.0,0.0,nan,191.724872618,219.786654742,220.286730863,220.340405375,nan,nan,nan,nan
1,29,1,1,1.0,1.0,0.625604692381,0,nan,nan,nan,nan,nan,nan,nan,nan,nan,222,0.841778467246,0.0997291618919,0.589484691865,nan,nan,nan,nan,0.0,0.0,0.0,nan,191.724872618,220.786785887,221.286854596,221.412390579,nan,nan,nan,nan
1,30,1,1,1.0,1.0,0.433485252317,0,nan,nan,nan,nan,nan,nan,nan,nan,nan,433,0.206536295144,0.436163724167,-1.0,nan,nan,nan,nan,0.0,0.0,0.0,nan,191.724872618,221.786901922,222.286931857,222.220387174,nan,nan,nan,nan
1,31,1,1,1.0,1.0,0.289299879689,0,nan,nan,nan,nan,nan,nan,nan,nan,nan,476,0.547545041103,0.340739382997,-1.0,nan,nan,nan,nan,0.0,0.0,0.0,nan,191.724872618,222.787047607,223.287066138,223.076347487,nan,nan,nan,nan
1,32,1,1,1.0,1.0,0.321188070811,0,nan,nan,nan,nan,nan,nan,nan,nan,nan,172,1.0,-0.170984061773,0.265024678188,nan,nan,nan,nan,0.0,0.0,0.0,nan,191.724872618,223.787155944,224.287190156,224.108344015,nan,nan,nan,nan
1,33,0,0,1.0,0.0,0.289008224849,0,0.0,0.0,0.0,nan,nan,nan,nan,nan,nan,381,-0.105403061426,0.478425078289,-0.188431136224,nan,nan,nan,nan,0.0,0.0,0.0,nan,191.724872618,224.787325862,225.287349525,225.076334087,nan,nan,nan,nan
1,34,1,1,1.0,1.0,0.37688506674,0,nan,nan,nan,nan,nan,nan,nan,nan,nan,203,1.0,-0.00249325098487,0.493674673203,nan,nan,nan,nan,0.0,0.0,0.0,nan,191.724872618,225.787418519,226.287443608,226.164303586,nan,nan,nan,nan
1,35,1,1,1.0,1.0,0.376755062491,0,nan,nan,nan,nan,nan,nan,nan,nan,nan,325,-0.119404900653,0.442631039184,0.360186421743,nan,nan,nan,nan,0.0,0.0,0.0,nan,191.724872618,226.787525431,227.287579029,227.164280493,nan,nan,nan,nan
1,36,1,1,1.0,1.0,0.392604220193,0,nan,nan,nan,nan,nan,nan,nan,nan,nan,399,-0.0164460389312,0.472031251936,-0.400274523968,nan,nan,nan,nan,0.0,0.0,0.0,nan,191.724872618,227.787665984,228.287702477,228.180270204,nan,nan,nan,nan
1,37,1,1,1.0,1.0,0.312448967714,0,nan,nan,nan,nan,nan,nan,nan,nan,nan,465,0.456588679398,0.37096152752,-1.0,nan,nan,nan,nan,0.0,0.0,0.0,nan,191.724872618,228.787789146,229.287826494,229.100238114,nan,nan,nan,nan
1,38,1,1,1.0,1.0,0.328319222666,0,nan,nan,nan,nan,nan,nan,nan,nan,nan,254,0.503011129055,0.248947817922,0.65613358125,nan,nan,nan,nan,0.0,0.0,0.0,nan,191.724872618,229.787919151,230.287958209,230.116238374,nan,nan,nan,nan
1,39,1,1,1.0,1.0,0.328176103532,0,nan,nan,nan,nan,nan,nan,nan,nan,nan,111,1.0,-0.298677811705,-0.336106236365,nan,nan,nan,nan,0.0,0.0,0.0,nan,191.724872618,230.788050581,231.288098192,231.116226685,nan,nan,nan,nan
1,40,1,1,1.0,1.0,0.282997507136,0,nan,nan,nan,nan,nan,nan,nan,nan,nan,291,0.122027637739,0.373441943191,0.573791926984,nan,nan,nan,nan,0.0,0.0,0.0,nan,191.724872618,231.849208056,232.354879506,232.132205563,nan,nan,nan,nan
1,41,1,1,1.0,1.0,0.301547966897,1,nan,nan,nan,nan,nan,nan,nan,nan,nan,189,1.0,-0.0802194643608,0.400143472992,-74.3071657231,164.307165723,31.4165407231,234.0,0.71814774995,0.15974031316,0.62913160129,5.80940697389,191.724872618,232.846644456,233.346680949,233.148192423,240.497592634,241.502659963,234.671836155,240.489262361
1,42,1,1,1.0,1.0,0.569913683459,0,nan,nan,nan,nan,nan,nan,nan,nan,nan,418,0.101175887384,0.455961754156,-0.661679309199,nan,nan,nan,nan,0.0,0.0,0.0,nan,191.724872618,241.706105199,242.206174763,242.276018883,nan,nan,nan,nan
1,43,1,1,1.0,1.0,0.401762417983,0,nan,nan,nan,nan,nan,nan,nan,nan,nan,65,1.0,-0.113312155659,-1.0,nan,nan,nan,nan,0.0,0.0,0.0,nan,191.724872618,242.706240905,243.206273692,243.108003323,nan,nan,nan,nan
1,44,1,1,1.0,1.0,0.321607735008,0,nan,nan,nan,nan,nan,nan,nan,nan,nan,506,0.797774742377,0.236703125255,-1.0,nan,nan,nan,nan,0.0,0.0,0.0,nan,191.724872618,243.706380033,244.20638488,244.027987768,nan,nan,nan,nan
1,45,1,1,1.0,1.0,0.321500538383,0,nan,nan,nan,nan,nan,nan,nan,nan,nan,367,-0.15309091083,0.477560897992,-0.0350816338538,nan,nan,nan,nan,0.0,0.0,0.0,nan,191.724872618,244.706490366,245.206519446,245.027990905,nan,nan,nan,nan
1,46,0,0,0.0,1.0,0.449331559706,0,nan,nan,nan,nan,nan,nan,nan,nan,nan,109,1.0,-0.294638327523,-0.357773695079,nan,nan,nan,nan,0.0,0.0,0.0,nan,191.724872618,245.706637477,246.206669978,246.155969036,nan,nan,nan,nan
1,47,1,1,1.0,1.0,0.32920160098,0,nan,nan,nan,nan,nan,nan,nan,nan,nan,270,0.331159066004,0.309369715406,0.641393874915,nan,nan,nan,nan,0.0,0.0,0.0,nan,191.724872618,246.70674895,247.20677803,247.035950551,nan,nan,nan,nan
1,48,1,1,1.0,1.0,0.321048658341,0,nan,nan,nan,nan,nan,nan,nan,nan,nan,329,-0.136053278316,0.448203788942,0.3278337444,nan,nan,nan,nan,0.0,0.0,0.0,nan,191.724872618,247.706862989,248.206888078,248.027911647,nan,nan,nan,nan
1,49,0,0,0.0,1.0,0.440879264846,0,nan,nan,nan,nan,nan,nan,nan,nan,nan,86,1.0,-0.21659106269,-0.625617802914,nan,nan,nan,nan,0.0,0.0,0.0,nan,191.724872618,248.707020363,249.207046022,249.147899628,nan,nan,nan,nan
1,50,1,1,1.0,1.0,0.368760063779,0,nan,nan,nan,nan,nan,nan,nan,nan,nan,42,1.0,0.00954878589686,-1.0,nan,nan,nan,nan,0.0,0.0,0.0,nan,191.724872618,249.707129841,250.207154929,250.075889905,nan,nan,nan,nan
1,51,1,1,1.0,1.0,0.368641463108,0,nan,nan,nan,nan,nan,nan,nan,nan,nan,448,0.32026743599,0.409662251776,-1.0,nan,nan,nan,nan,0.0,0.0,0.0,nan,191.724872618,250.707241314,251.207280657,251.075882777,nan,nan,nan,nan
1,52,1,1,1.0,1.0,0.392495597713,0,nan,nan,nan,nan,nan,nan,nan,nan,nan,253,0.513865899396,0.244839928328,0.655977188727,nan,nan,nan,nan,0.0,0.0,0.0,nan,191.724872618,251.707367897,252.207405245,252.099863495,nan,nan,nan,nan
1,53,1,1,1.0,1.0,0.320341615472,1,nan,nan,nan,nan,nan,nan,nan,nan,nan,510,0.830554458933,0.220436700166,-1.0,94.1408860035,355.859113996,-2.73463600352,506.0,0.797774742377,0.236703125255,-1.0,1.80888495967,191.724872618,252.70749277,253.207535535,253.027834386,256.357947444,257.367589452,254.532701006,256.349624299
1,54,1,1,1.0,1.0,0.493252874818,0,nan,nan,nan,nan,nan,nan,nan,nan,nan,377,-0.121259861678,0.478700828387,-0.143695900877,nan,nan,nan,nan,0.0,0.0,0.0,nan,191.724872618,257.566467137,258.074814231,258.059720011,nan,nan,nan,nan
1,55,1,1,1.0,1.0,0.445122660138,0,nan,nan,nan,nan,nan,nan,nan,nan,nan,252,0.524721685615,0.240693665738,0.655694012224,nan,nan,nan,nan,0.0,0.0,0.0,nan,191.724872618,258.566588018,259.066611111,259.011710678,nan,nan,nan,nan
1,56,1,1,1.0,1.0,0.39700071374,0,nan,nan,nan,nan,nan,nan,nan,nan,nan,192,1.0,-0.0635997558896,0.421658406928,nan,nan,nan,nan,0.0,0.0,0.0,nan,191.724872618,259.566720589,260.066761643,259.963721302,nan,nan,nan,nan
1,57,1,1,1.0,1.0,0.380859045777,0,nan,nan,nan,nan,nan,nan,nan,nan,nan,237,0.686387300223,0.174031846447,0.636349816437,nan,nan,nan,nan,0.0,0.0,0.0,nan,191.724872618,260.566824934,261.066863993,260.94768398,nan,nan,nan,nan
1,58,0,0,0.0,1.0,0.436684050132,0,nan,nan,nan,nan,nan,nan,nan,nan,nan,432,0.199227897075,0.437687328843,-1.0,nan,nan,nan,nan,0.0,0.0,0.0,nan,191.724872618,261.566994567,262.067024217,262.003678618,nan,nan,nan,nan
1,59,1,1,1.0,1.0,0.364551165141,0,nan,nan,nan,nan,nan,nan,nan,nan,nan,502,0.764740937618,0.25241357569,-1.0,nan,nan,nan,nan,0.0,0.0,0.0,nan,191.724872618,262.567106611,263.067124572,262.931657776,nan,nan,nan,nan
1,60,1,1,1.0,1.0,0.448590590153,1,nan,nan,nan,nan,nan,nan,nan,nan,nan,171,1.0,-0.176011872558,0.256450910142,-88.9723832136,178.972383214,58.7380082136,255.0,0.492159363509,0.253017189294,0.656163111527,1.65047605662,191.724872618,263.57903938,264.083936505,264.027629971,267.067629195,268.069004222,265.400777975,267.059315172
1,61,1,1,1.0,1.0,0.439686415251,0,nan,nan,nan,nan,nan,nan,nan,nan,nan,61,1.0,-0.0921163965413,-1.0,nan,nan,nan,nan,0.0,0.0,0.0,nan,191.724872618,268.267834865,268.767866796,268.70752128,nan,nan,nan,nan
1,62,0,0,0.0,1.0,0.487568594515,0,nan,nan,nan,nan,nan,nan,nan,nan,nan,292,0.112881669716,0.376069582356,0.569261850688,nan,nan,nan,nan,0.0,0.0,0.0,nan,191.724872618,269.267969716,269.776332491,269.75553831,nan,nan,nan,nan
1,63,1,1,1.0,1.0,0.343444802798,0,nan,nan,nan,nan,nan,nan,nan,nan,nan,510,0.830554458933,0.220436700166,-1.0,nan,nan,nan,nan,0.0,0.0,0.0,nan,191.724872618,270.268086891,270.768124524,270.611531694,nan,nan,nan,nan
1,64,1,1,1.0,1.0,0.439274448901,0,nan,nan,nan,nan,nan,nan,nan,nan,nan,105,1.0,-0.285049837405,-0.401580786678,nan,nan,nan,nan,0.0,0.0,0.0,nan,191.724872618,271.268214045,271.768247971,271.707488494,nan,nan,nan,nan
1,65,1,1,1.0,1.0,0.407148770988,0,nan,nan,nan,nan,nan,nan,nan,nan,nan,421,0.121471671064,0.452518040197,-0.712610339232,nan,nan,nan,nan,0.0,0.0,0.0,nan,191.724872618,272.268340343,272.768352888,272.675489114,nan,nan,nan,nan
1,66,1,1,1.0,1.0,0.430997774005,0,nan,nan,nan,nan,nan,nan,nan,nan,nan,255,0.492159363509,0.253017189294,0.656163111527,nan,nan,nan,nan,0.0,0.0,0.0,nan,191.724872618,273.268454667,273.768484603,273.699452441,nan,nan,nan,nan
1,67,1,1,1.0,1.0,0.454823113978,0,nan,nan,nan,nan,nan,nan,nan,nan,nan,421,0.121471671064,0.452518040197,-0.712610339232,nan,nan,nan,nan,0.0,0.0,0.0,nan,191.724872618,274.268632283,274.76860748,274.723455397,nan,nan,nan,nan
1,68,1,1,1.0,1.0,0.422677479219,0,nan,nan,nan,nan,nan,nan,nan,nan,nan,237,0.686387300223,0.174031846447,0.636349816437,nan,nan,nan,nan,0.0,0.0,0.0,nan,191.724872618,275.268734918,275.768742331,275.691412398,nan,nan,nan,nan
1,69,1,1,1.0,1.0,0.47057562368,0,nan,nan,nan,nan,nan,nan,nan,nan,nan,101,1.0,-0.273572672894,-0.446152610616,nan,nan,nan,nan,0.0,0.0,0.0,nan,191.724872618,276.268824439,276.768878893,276.739400063,nan,nan,nan,nan
1,70,1,1,1.0,1.0,0.374435506295,0,nan,nan,nan,nan,nan,nan,nan,nan,nan,235,0.707591924495,0.164537776567,0.631659631194,nan,nan,nan,nan,0.0,0.0,0.0,nan,191.724872618,277.268968129,277.769011464,277.643403635,nan,nan,nan,nan
1,71,1,1,1.0,1.0,0.350288575981,0,nan,nan,nan,nan,nan,nan,nan,nan,nan,328,-0.132159558243,0.44685796506,0.336046158271,nan,nan,nan,nan,0.0,0.0,0.0,nan,191.724872618,278.26910469,278.769116665,278.619393266,nan,nan,nan,nan
1,72,1,1,1.0,1.0,0.446138749365,1,nan,nan,nan,nan,nan,nan,nan,nan,nan,432,0.199227897075,0.437687328843,-1.0,165.39018057,284.60981943,-19.1401805703,405.0,0.018463324075,0.468009379796,-0.476293327428,3.05073201703,191.724872618,279.269226427,279.769243818,279.715365177,284.161491096,285.16631039,281.09441385,284.153157402
1,73,1,1,1.0,1.0,0.449239187874,0,nan,nan,nan,nan,nan,nan,nan,nan,nan,96,1.0,-0.25681952169,-0.503302481145,nan,nan,nan,nan,0.0,0.0,0.0,nan,191.724872618,285.369992542,285.870045285,285.81923173,nan,nan,nan,nan
1,74,1,1,1.0,1.0,0.321105963085,0,nan,nan,nan,nan,nan,nan,nan,nan,nan,5,0.88714030954,0.190659852496,-1.0,nan,nan,nan,nan,0.0,0.0,0.0,nan,191.724872618,286.370125683,286.870154193,286.691231646,nan,nan,nan,nan
1,75,1,1,1.0,1.0,0.312972121872,0,nan,nan,nan,nan,nan,nan,nan,nan,nan,52,1.0,-0.0438860552364,-1.0,nan,nan,nan,nan,0.0,0.0,0.0,nan,191.724872618,287.370245139,287.870287333,287.683217261,nan,nan,nan,nan
1,76,1,1,1.0,1.0,0.344835510012,0,nan,nan,nan,nan,nan,nan,nan,nan,nan,167,1.0,-0.195605812978,0.221546716301,nan,nan,nan,nan,0.0,0.0,0.0,nan,191.724872618,288.370367731,288.87040964,288.715203241,nan,nan,nan,nan
1,77,1,1,1.0,1.0,0.344679561444,0,nan,nan,nan,nan,nan,nan,nan,nan,nan,438,0.243622561222,0.428096439079,-1.0,nan,nan,nan,nan,0.0,0.0,0.0,nan,191.724872618,289.37051142,289.870531947,289.715190982,nan,nan,nan,nan
1,78,1,1,1.0,1.0,0.296511143912,0,nan,nan,nan,nan,nan,nan,nan,nan,nan,138,1.0,-0.29832987918,-0.0546508148191,nan,nan,nan,nan,0.0,0.0,0.0,nan,191.724872618,290.370648552,290.870662237,290.667159696,nan,nan,nan,nan
1,79,1,1,1.0,1.0,0.376372746192,0,nan,nan,nan,nan,nan,nan,nan,nan,nan,340,-0.166837174664,0.460980112934,0.232376404312,nan,nan,nan,nan,0.0,0.0,0.0,nan,191.724872618,291.370769719,291.870792812,291.747142465,nan,nan,nan,nan
1,80,1,1,1.0,1.0,0.416230562143,0,nan,nan,nan,nan,nan,nan,nan,nan,nan,490,0.664660387652,0.296157848571,-1.0,nan,nan,nan,nan,0.0,0.0,0.0,nan,191.724872618,292.370898013,292.870921106,292.787128575,nan,nan,nan,nan
1,81,1,1,1.0,1.0,0.416078605223,0,0.0,0.0,0.0,0.400739729055,0.0684849336071,0.332254795448,0.469224662662,0.0684849336071,0.402893971186,84,1.0,-0.20765784414,-0.652191087791,nan,nan,nan,nan,0.0,0.0,0.0,nan,191.724872618,293.371026877,293.871041132,293.787105482,nan,nan,nan,nan
1,82,1,1,1.0,1.0,0.431910942309,0,0.0,0.0,0.0,0.400929097897,0.0680819465302,0.332847151367,0.469011044427,0.0680819465302,0.421406703225,181,1.0,-0.123914391386,0.3392011262,nan,nan,nan,nan,0.0,0.0,0.0,nan,191.724872618,294.371176553,294.871190238,294.803087496,nan,nan,nan,nan
1,83,1,1,1.0,1.0,0.471799834166,0,0.0,0.0,0.0,0.401306925268,0.0677509279753,0.333555997292,0.469057853243,0.0677509279753,0.439929793899,379,-0.113535935895,0.478614986251,-0.165970515924,nan,nan,nan,nan,0.0,0.0,0.0,nan,191.724872618,295.371279473,295.871303422,295.843079308,nan,nan,nan,nan
1,84,1,1,1.0,1.0,0.559636192396,0,0.0,1.0,0.0,0.402156237423,0.0677793030503,0.334376934373,0.469935540473,0.0677793030503,0.487782322957,238,0.675741828754,0.178727669763,0.638511091232,nan,nan,nan,nan,0.0,0.0,0.0,nan,191.724872618,296.371412614,296.871478472,296.931048807,nan,nan,nan,nan
1,85,1,1,1.0,1.0,0.53551321011,1,0.0,0.0,1.0,0.404030998792,0.0695058677214,0.33452513107,0.473536866513,0.0695058677214,0.522316412224,451,0.343830962376,0.403518361206,-1.0,131.185925166,318.814074834,1.70469983429,453.0,0.359670421306,0.39926174925,-1.0,1.73388313502,191.724872618,297.371522662,297.871604485,297.907035872,300.955271858,301.951636006,299.205057465,300.946949853
1,86,1,1,1.0,1.0,0.511431567371,0,0.0,0.0,0.0,0.405577848337,0.0705352396784,0.335042608658,0.476113088015,0.0705352396784,0.535526989959,25,1.0,0.0970682892709,-1.0,nan,nan,nan,nan,0.0,0.0,0.0,nan,191.724872618,302.155478953,302.655545381,302.666910521,nan,nan,nan,nan
1,87,0,0,0.0,1.0,0.535293969791,0,0.0,0.0,0.0,0.406808705535,0.0710362192357,0.335772486299,0.47784492477,0.0710362192357,0.527412915758,103,1.0,-0.279537473278,-0.423758835275,nan,nan,nan,nan,0.0,0.0,0.0,nan,191.724872618,303.1556292,303.655668543,303.69092317,nan,nan,nan,nan
1,88,1,1,1.0,1.0,0.407175569795,0,0.0,0.0,0.0,0.408285547653,0.0719424365043,0.336343111148,0.480227984157,0.0719424365043,0.484633702319,279,0.238157575771,0.338930353633,0.618978422254,nan,nan,nan,nan,0.0,0.0,0.0,nan,191.724872618,304.155748941,304.655757494,304.562924511,nan,nan,nan,nan
1,89,1,1,1.0,1.0,0.415010628756,0,0.0,0.0,0.0,0.408272934268,0.0715326015038,0.336740332764,0.479805535772,0.0715326015038,0.452493389448,180,1.0,-0.129278616986,0.331238955499,nan,nan,nan,nan,0.0,0.0,0.0,nan,191.724872618,305.155898902,305.655888924,305.570909531,nan,nan,nan,nan
1,90,1,1,1.0,1.0,0.534870029427,0,0.0,0.0,0.0,0.4083486387,0.071133142871,0.337215495829,0.479481781571,0.071133142871,0.452352075993,87,1.0,-0.220959007447,-0.612675615602,nan,nan,nan,nan,0.0,0.0,0.0,nan,191.724872618,306.156002678,306.656050575,306.690872707,nan,nan,nan,nan
1,91,0,0,0.0,1.0,0.574715301394,0,0.0,0.0,0.0,0.409754431931,0.0719693635982,0.337785068332,0.481723795529,0.0719693635982,0.508198653193,138,1.0,-0.29832987918,-0.0546508148191,nan,nan,nan,nan,0.0,0.0,0.0,nan,191.724872618,307.156135248,307.656182575,307.73085055,nan,nan,nan,nan
1,92,1,1,1.0,1.0,0.35062641697,0,0.0,0.0,0.0,0.411567188738,0.0736099081975,0.33795728054,0.485177096935,0.0736099081975,0.486737249264,322,-0.105067232891,0.43811622051,0.383559350674,nan,nan,nan,nan,0.0,0.0,0.0,nan,191.724872618,308.156229616,308.656262687,308.506856033,nan,nan,nan,nan
1,93,1,1,1.0,1.0,0.294451027177,0,0.0,0.0,0.0,0.410904789045,0.0734809574368,0.337423831608,0.484385746482,0.0734809574368,0.406597581847,86,1.0,-0.21659106269,-0.625617802914,nan,nan,nan,nan,0.0,0.0,0.0,nan,191.724872618,309.15637302,309.656393262,309.450824047,nan,nan,nan,nan
1,94,1,1,1.0,1.0,0.334310553502,0,1.0,0.0,0.0,0.409652598057,0.074065152809,0.335587445248,0.483717750866,0.074065152809,0.326462665883,263,0.405698801511,0.284171736334,0.651829885785,nan,nan,nan,nan,0.0,0.0,0.0,nan,191.724872618,310.156499318,310.656514144,310.490809872,nan,nan,nan,nan
1,95,1,1,1.0,1.0,0.310155925807,1,0.0,0.0,1.0,0.408851086945,0.0740745164086,0.334776570536,0.482925603353,0.0740745164086,0.312972502162,391,-0.0591907973189,0.475916278612,-0.303718712187,-174.852115176,264.852115176,-10.0697598241,377.0,-0.121259861678,0.478700828387,-0.143695900877,1.45879110554,191.724872618,311.156629893,311.656648424,311.466785819,314.457002972,315.461010307,312.981826439,314.448664146
1,96,1,1,1.0,1.0,0.313197919633,0,0.0,0.0,0.0,0.407812190512,0.0743688810848,0.333443309427,0.482181071596,0.0743688810848,0.319221466314,187,1.0,-0.0912463489427,0.385383214542,nan,nan,nan,nan,0.0,0.0,0.0,nan,191.724872618,315.665513256,316.165561153,315.978711176,nan,nan,nan,nan
1,97,1,1,1.0,1.0,0.336705945432,0,0.0,0.0,0.0,0.40682662519,0.0746015811048,0.332225044085,0.481428206295,0.0746015811048,0.320019930291,252,0.524721685615,0.240693665738,0.655694012224,nan,nan,nan,nan,0.0,0.0,0.0,nan,191.724872618,316.67399007,317.174041102,317.010696015,nan,nan,nan,nan
1,98,1,1,1.0,1.0,0.408564851619,0,0.0,0.0,0.0,0.406103731584,0.074553255487,0.331550476097,0.480656987071,0.074553255487,0.352822905562,40,1.0,0.0201165467467,-1.0,nan,nan,nan,nan,0.0,0.0,0.0,nan,191.724872618,317.674110951,318.174140316,318.082675803,nan,nan,nan,nan
1,99,1,1,1.0,1.0,0.360400710721,0,0.0,0.0,0.0,0.406128845054,0.0741723188068,0.331956526247,0.480301163861,0.0741723188068,0.368557169257,172,1.0,-0.170984061773,0.265024678188,nan,nan,nan,nan,0.0,0.0,0.0,nan,191.724872618,318.674247513,319.174270891,319.034648224,nan,nan,nan,nan
1,100,1,1,1.0,1.0,0.432274156716,0,0.0,0.0,0.0,0.405666944707,0.0739382872888,0.331728657418,0.479605231996,0.0739382872888,0.400413239685,507,0.805995650865,0.232688349973,-1.0,nan,nan,nan,nan,0.0,0.0,0.0,nan,191.724872618,319.674355565,320.174406027,320.106629722,nan,nan,nan,nan
1,101,1,1,1.0,1.0,0.42413660977,0,0.0,0.0,0.0,0.405933016827,0.0736152855517,0.332317731276,0.479548302379,0.0736152855517,0.405603825736,266,0.373577590308,0.295207490188,0.648113769863,nan,nan,nan,nan,0.0,0.0,0.0,nan,191.724872618,320.674483859,321.17451579,321.098620469,nan,nan,nan,nan
1,102,1,1,1.0,1.0,0.463940257207,0,0.0,0.0,0.0,0.406113250421,0.0732721170329,0.332841133388,0.479385367454,0.0732721170329,0.440117007898,369,-0.147694689129,0.477999187239,-0.0564338676883,nan,nan,nan,nan,0.0,0.0,0.0,nan,191.724872618,321.674657199,322.174657484,322.138597456,nan,nan,nan,nan
1,103,1,1,1.0,1.0,0.391844434664,0,0.0,0.0,0.0,0.40668018186,0.0731343308341,0.333545851026,0.479814512694,0.0731343308341,0.42664043388,228,0.780729811514,0.1302769546,0.611433142569,nan,nan,nan,nan,0.0,0.0,0.0,nan,191.724872618,322.674759549,323.17477694,323.066603983,nan,nan,nan,nan
1,104,1,1,1.0,1.0,0.359691672493,0,0.0,0.0,0.0,0.406536145479,0.072792980688,0.333743164791,0.479329126167,0.072792980688,0.405158788121,384,-0.0924750057551,0.477945316949,-0.222479273925,nan,nan,nan,nan,0.0,0.0,0.0,nan,191.724872618,323.674882426,324.174944862,324.034574098,nan,nan,nan,nan
1,105,1,1,1.0,1.0,0.319558451883,0,0.0,0.0,0.0,0.406085717854,0.0725862591932,0.333499458661,0.478671977048,0.0725862591932,0.35703151968,489,0.656284860842,0.299572439858,-1.0,nan,nan,nan,nan,0.0,0.0,0.0,nan,191.724872618,324.675009579,325.175060327,324.994568031,nan,nan,nan,nan
1,106,1,1,1.0,1.0,0.383402402978,0,0.0,0.0,0.0,0.405261648655,0.0727269666212,0.332534682034,0.477988615276,0.0727269666212,0.354217509118,45,1.0,-0.0063957592436,-1.0,nan,nan,nan,nan,0.0,0.0,0.0,nan,191.724872618,325.67514158,326.175166668,326.058543983,nan,nan,nan,nan
1,107,0,0,0.0,1.0,0.583250559866,0,0.0,0.0,0.0,0.405055429356,0.0724139401117,0.332641489244,0.477469369468,0.0724139401117,0.428737138243,304,0.0113092810281,0.404708921832,0.506160370659,nan,nan,nan,nan,0.0,0.0,0.0,nan,191.724872618,326.675251057,327.175341148,327.258501617,nan,nan,nan,nan
1,108,1,1,1.0,1.0,0.327112403698,0,0.0,0.0,0.0,0.406720804407,0.0740861639938,0.332634640414,0.480806968401,0.0740861639938,0.431255122181,433,0.206536295144,0.436163724167,-1.0,nan,nan,nan,nan,0.0,0.0,0.0,nan,191.724872618,327.675387905,328.175421546,328.002500308,nan,nan,nan,nan
1,109,1,1,1.0,1.0,0.462966077961,0,0.0,0.0,0.0,0.405983689586,0.0741355180739,0.331848171512,0.48011920766,0.0741355180739,0.457776347175,82,1.0,-0.198479155091,-0.679872484948,nan,nan,nan,nan,0.0,0.0,0.0,nan,191.724872618,328.675531594,329.175542713,329.138497672,nan,nan,nan,nan
1,110,0,0,0.0,1.0,0.534801320639,0,0.0,0.0,0.0,0.406506463791,0.0739943779164,0.332512085875,0.480500841708,0.0739943779164,0.441626600766,363,-0.162287729338,0.476365729747,0.00704812682028,nan,nan,nan,nan,0.0,0.0,0.0,nan,191.724872618,329.6756673,330.175740285,330.210468621,nan,nan,nan,nan
1,111,1,1,1.0,1.0,0.358660188504,0,0.0,0.0,0.0,0.407672780672,0.0746569880933,0.333015792578,0.482329768765,0.0746569880933,0.452142529034,189,1.0,-0.0802194643608,0.400143472992,nan,nan,nan,nan,0.0,0.0,0.0,nan,191.724872618,330.675776207,331.175832372,331.034436396,nan,nan,nan,nan
1,112,1,1,1.0,1.0,0.358510797378,0,0.0,0.0,0.0,0.407231225787,0.0744640815687,0.332767144219,0.481695307356,0.0744640815687,0.417324102173,247,0.578947625354,0.219392674348,0.6523805853,nan,nan,nan,nan,0.0,0.0,0.0,nan,191.724872618,331.675907067,332.175925313,332.034417865,nan,nan,nan,nan
1,113,1,1,1.0,1.0,0.430394791998,0,0.0,0.0,0.0,0.406796221962,0.0742724427868,0.332523779175,0.481068664749,0.0742724427868,0.38252192596,337,-0.160643365934,0.457858386897,0.259303564052,nan,nan,nan,nan,0.0,0.0,0.0,nan,191.724872618,332.6760174,333.176055033,333.106412192,nan,nan,nan,nan
1,114,0,0,1.0,0.0,0.286223389208,0,0.0,0.0,0.0,0.407005058865,0.0739760957024,0.333028963163,0.480981154568,0.0739760957024,0.358376326195,388,-0.0739633693698,0.476941921698,-0.268577162136,nan,nan,nan,nan,0.0,0.0,0.0,nan,191.724872618,333.676189314,334.176216969,333.962412703,nan,nan,nan,nan
1,115,1,1,1.0,1.0,0.294146827422,0,0.0,0.0,0.0,0.405945570535,0.0745070663111,0.331438504224,0.480452636846,0.0745070663111,0.336921669543,199,1.0,-0.0246761787097,0.468786302982,nan,nan,nan,nan,0.0,0.0,0.0,nan,191.724872618,334.67626458,335.176311336,334.970411408,nan,nan,nan,nan
1,116,1,1,1.0,1.0,0.429937494919,0,0.0,0.0,0.0,0.404973407551,0.0749050881429,0.330068319408,0.479878495694,0.0749050881429,0.336769237183,93,1.0,-0.245614297951,-0.538619881923,nan,nan,nan,nan,0.0,0.0,0.0,nan,191.724872618,335.676418533,336.176444477,336.106356028,nan,nan,nan,nan
1,117,0,0,0.0,1.0,0.477791165002,0,0.0,0.0,0.0,0.405188615201,0.0746172208797,0.330571394321,0.479805836081,0.0746172208797,0.400625162447,309,-0.0258396312562,0.415106541901,0.475305697888,nan,nan,nan,nan,0.0,0.0,0.0,nan,191.724872618,336.676558801,337.176594153,337.154349966,nan,nan,nan,nan
1,118,1,1,1.0,1.0,0.421649130993,0,0.0,0.0,0.0,0.405809149815,0.0745976511083,0.331211498706,0.480406800923,0.0745976511083,0.443125930304,506,0.797774742377,0.236703125255,-1.0,nan,nan,nan,nan,0.0,0.0,0.0,nan,191.724872618,337.676674266,338.176712184,338.098323397,nan,nan,nan,nan
1,119,1,1,1.0,1.0,0.413515575696,0,0.0,0.0,0.0,0.405943386943,0.0742950768348,0.331648310109,0.480238463778,0.0742950768348,0.43765195723,72,1.0,-0.149607777062,-0.853203742106,nan,nan,nan,nan,0.0,0.0,0.0,nan,191.724872618,338.676796858,339.17681938,339.090312433,nan,nan,nan,nan
1,120,1,1,1.0,1.0,0.477376062423,0,0.0,0.0,0.0,0.406007018782,0.0739854830385,0.332021535743,0.47999250182,0.0739854830385,0.437513589704,215,0.910639861846,0.0628947364355,0.558695148714,nan,nan,nan,nan,0.0,0.0,0.0,nan,191.724872618,339.676916884,340.17695081,340.154292946,nan,nan,nan,nan
1,121,1,1,1.0,1.0,0.428843859583,0,0.0,0.0,0.0,0.406601760812,0.0739616706237,0.332640090188,0.480563431436,0.0739616706237,0.439911832567,23,1.0,0.106943944166,-1.0,nan,nan,nan,nan,0.0,0.0,0.0,nan,191.724872618,340.685419356,341.185421352,341.114263216,nan,nan,nan,nan
1,122,1,1,1.0,1.0,0.460734617431,0,0.0,0.0,0.0,0.40678557981,0.0736829296652,0.333102650145,0.480468509475,0.0736829296652,0.455651513146,478,0.56422249903,0.334793662244,-1.0,nan,nan,nan,nan,0.0,0.0,0.0,nan,191.724872618,341.685519711,342.185549931,342.146254328,nan,nan,nan,nan
1,123,1,1,1.0,1.0,0.372614016291,0,0.0,0.0,0.0,0.407227785036,0.0735413740539,0.333686410983,0.48076915909,0.0735413740539,0.420730831102,193,1.0,-0.0580453890011,0.428658791268,nan,nan,nan,nan,0.0,0.0,0.0,nan,191.724872618,342.685632324,343.185669102,343.058246341,nan,nan,nan,nan
1,124,1,1,1.0,1.0,0.372623709496,0,0.0,0.0,0.0,0.406946372282,0.07330774221,0.333638630072,0.480254114492,0.07330774221,0.401990781073,111,1.0,-0.298677811705,-0.336106236365,nan,nan,nan,nan,0.0,0.0,0.0,nan,191.724872618,343.685753776,344.1858088,344.058377486,nan,nan,nan,nan
1,125,1,1,1.0,1.0,0.476314072963,0,0.0,0.0,0.0,0.406669576615,0.0730760556175,0.333593520997,0.479745632232,0.0730760556175,0.407183932917,49,1.0,-0.027785429985,-1.0,nan,nan,nan,nan,0.0,0.0,0.0,nan,191.724872618,344.685892619,345.185934813,345.162206692,nan,nan,nan,nan
1,126,1,1,1.0,1.0,0.420144669712,0,0.0,0.0,0.0,0.407226732586,0.07304711801,0.334179614576,0.480273850596,0.07304711801,0.423027484057,140,1.0,-0.294209249228,-0.0345777392028,nan,nan,nan,nan,0.0,0.0,0.0,nan,191.724872618,345.686040014,346.186051418,346.106184684,nan,nan,nan,nan
1,127,0,0,1.0,0.0,0.332000976428,0,0.0,0.0,0.0,0.407329255896,0.0727656997681,0.334563556128,0.480094955664,0.0727656997681,0.409486573034,408,0.036737934283,0.465637664749,-0.515938449969,nan,nan,nan,nan,0.0,0.0,0.0,nan,191.724872618,346.686174865,347.186210788,347.018175842,nan,nan,nan,nan
1,128,1,1,1.0,1.0,0.371883025859,0,0.0,0.0,0.0,0.406736119837,0.0727838131868,0.333952306651,0.479519933024,0.0727838131868,0.374676224,339,-0.164955840019,0.45996923152,0.241423096872,nan,nan,nan,nan,0.0,0.0,0.0,nan,191.724872618,347.686259254,348.186299168,348.05814228,nan,nan,nan,nan
1,129,1,1,1.0,1.0,0.371723370627,0,0.0,0.0,0.0,0.406463830041,0.0725638537607,0.33389997628,0.479027683801,0.0725638537607,0.358535790971,508,0.814199817736,0.228638933499,-1.0,nan,nan,nan,nan,0.0,0.0,0.0,nan,191.724872618,348.686412067,349.186441432,349.058135438,nan,nan,nan,nan
1,130,1,1,1.0,1.0,0.523562765215,0,0.0,0.0,0.0,0.406194524154,0.0723462385196,0.333848285634,0.478540762673,0.0723462385196,0.422389720567,193,1.0,-0.0580453890011,0.428658791268,nan,nan,nan,nan,0.0,0.0,0.0,nan,191.724872618,349.68653865,350.186603368,350.210101415,nan,nan,nan,nan
1,131,1,1,1.0,1.0,0.451431590598,0,0.0,0.0,0.0,0.407097356777,0.0727933075715,0.334304049206,0.479890664349,0.0727933075715,0.448905908813,130,1.0,-0.309333154106,-0.136071487739,nan,nan,nan,nan,0.0,0.0,0.0,nan,191.724872618,350.686666659,351.186706573,351.13809825,nan,nan,nan,nan
1,132,1,1,1.0,1.0,0.484136871994,0,0.0,1.0,0.0,0.407435786043,0.0726175305219,0.334818255521,0.480053316565,0.0726175305219,0.486377075935,399,-0.0164460389312,0.472031251936,-0.400274523968,nan,nan,nan,nan,0.0,0.0,0.0,nan,191.724872618,351.701937069,352.203480588,352.186073941,nan,nan,nan,nan
1,133,1,1,1.0,1.0,0.450443156064,1,0.0,0.0,1.0,0.408016854876,0.0726470056004,0.335369849276,0.480663860476,0.0726470056004,0.462003872885,31,1.0,0.0668515730764,-1.0,165.035720319,284.964279681,-96.8325953193,405.0,0.018463324075,0.468009379796,-0.476293327428,1.96720320173,191.724872618,352.703590921,353.203610023,353.154034077,356.520698958,357.517891884,354.537114605,356.512377522
1,134,1,1,0.0,0.0,0.473067664076,0,0.0,0.0,0.0,0.408335849622,0.0724661184539,0.335869731168,0.480801968076,0.0724661184539,0.469215897378,291,0.122027637739,0.373441943191,0.573791926984,nan,nan,nan,nan,0.0,0.0,0.0,nan,191.724872618,357.720897784,358.220914606,358.193965449,nan,nan,nan,nan
1,135,1,1,1.0,1.0,0.408623867203,0,0.0,0.0,0.0,0.408818922864,0.0724098479458,0.336409074918,0.48122877081,0.0724098479458,0.444044895781,429,0.177531820842,0.442080780324,-0.901885199234,nan,nan,nan,nan,0.0,0.0,0.0,nan,191.724872618,358.729335255,359.229381726,359.137959122,nan,nan,nan,nan
1,136,1,1,1.0,1.0,0.328440104611,0,0.0,0.0,0.0,0.408817478007,0.0721411667765,0.336676311231,0.480958644784,0.0721411667765,0.403377211963,182,1.0,-0.118523835432,0.347089474713,nan,nan,nan,nan,0.0,0.0,0.0,nan,191.724872618,359.729492343,360.229508024,360.057932448,nan,nan,nan,nan
1,137,1,1,1.0,1.0,0.504255655222,0,0.0,0.0,0.0,0.408226467909,0.0722027369703,0.336023730938,0.480429204879,0.0722027369703,0.413773209012,65,1.0,-0.113312155659,-1.0,nan,nan,nan,nan,0.0,0.0,0.0,nan,191.724872618,360.729620067,361.229676517,361.233875723,nan,nan,nan,nan
1,138,1,1,1.0,1.0,0.464150659274,0,0.0,0.0,0.0,0.408927410882,0.0724016717842,0.336525739098,0.481329082666,0.0724016717842,0.432282139702,438,0.243622561222,0.428096439079,-1.0,nan,nan,nan,nan,0.0,0.0,0.0,nan,191.724872618,361.729734962,362.229762331,362.193885621,nan,nan,nan,nan
1,139,1,1,1.0,1.0,0.480018063914,0,0.0,1.0,0.0,0.409327579348,0.0722907672022,0.337036812146,0.481618346551,0.0722907672022,0.482808126137,175,1.0,-0.155629953633,0.290361762956,nan,nan,nan,nan,0.0,0.0,0.0,nan,191.724872618,362.729862686,363.2298892,363.20988075,nan,nan,nan,nan
1,140,1,1,1.0,1.0,0.447822821792,1,0.0,0.0,1.0,0.409836143986,0.0722775917321,0.337558552253,0.482113735718,0.0722775917321,0.46399718166,57,1.0,-0.0707313323512,-1.0,72.4489271635,17.5510728365,-22.5270521635,25.0,1.0,0.0970682892709,-1.0,1.6088015968,191.724872618,363.729998678,364.230037736,364.177821499,367.180389375,368.188117522,365.555207483,367.172058532
1,141,1,1,1.0,1.0,0.436821466777,0,0.0,0.0,0.0,0.410107477398,0.0720900066233,0.338017470775,0.482197484022,0.0720900066233,0.454887450828,119,1.0,-0.309446327048,-0.250710895617,nan,nan,nan,nan,0.0,0.0,0.0,nan,191.724872618,368.388927884,368.888939858,368.825749351,nan,nan,nan,nan
1,142,1,1,1.0,1.0,0.396680834237,0,0.0,0.0,0.0,0.410296938316,0.0718688839477,0.338428054368,0.482165822264,0.0718688839477,0.427108374269,429,0.177531820842,0.442080780324,-0.901885199234,nan,nan,nan,nan,0.0,0.0,0.0,nan,191.724872618,369.389059884,369.889084403,369.785740719,nan,nan,nan,nan
1,143,1,1,1.0,1.0,0.372531338129,0,0.0,0.0,0.0,0.410201050259,0.0716244281413,0.338576622118,0.4818254784,0.0716244281413,0.402011213048,242,0.632911854383,0.197161183215,0.645921401967,nan,nan,nan,nan,0.0,0.0,0.0,nan,191.724872618,370.389202148,370.889202148,370.761733486,nan,nan,nan,nan
1,144,1,1,1.0,1.0,0.452390944585,0,0.0,0.0,0.0,0.409937625699,0.0714425496817,0.338495076017,0.48138017538,0.0714425496817,0.407201038984,163,1.0,-0.214247802105,0.185723682048,nan,nan,nan,nan,0.0,0.0,0.0,nan,191.724872618,371.389312481,371.889323315,371.841703426,nan,nan,nan,nan
1,145,1,1,1.0,1.0,0.404300643597,0,0.0,0.0,0.0,0.410232440413,0.0712812888823,0.338951151531,0.481513729296,0.0712812888823,0.409740975437,427,0.163265173604,0.444863218481,-0.840208708629,nan,nan,nan,nan,0.0,0.0,0.0,nan,191.724872618,372.389414831,372.889466434,372.793715475,nan,nan,nan,nan
1,146,1,1,1.0,1.0,0.62810927676,0,0.0,1.0,0.0,0.41019153147,0.0710367623325,0.339154769137,0.481228293802,0.0710367623325,0.494933621647,369,-0.147694689129,0.477999187239,-0.0564338676883,nan,nan,nan,nan,0.0,0.0,0.0,nan,191.724872618,373.389565933,373.889623523,374.01767521,nan,nan,nan,nan
1,147,1,1,1.0,1.0,0.483972656075,1,0.0,0.0,1.0,0.411684118766,0.073038975092,0.338645143674,0.484723093858,0.073038975092,0.505460858811,219,0.871627318206,0.0840881726889,0.576959667802,-62.0628571735,152.062857173,-1.92151782654,216.0,0.900975005756,0.0682271079607,0.563426584804,2.98409752874,191.724872618,374.389694227,374.889730434,374.873666883,379.223586542,380.231100866,376.223234161,379.215257409
1,148,1,1,1.0,1.0,0.401473613922,0,0.0,0.0,0.0,0.412175877523,0.0730322405251,0.339143636998,0.485208118048,0.0730322405251,0.504518515586,264,0.394966959701,0.287889713878,0.650717615019,nan,nan,nan,nan,0.0,0.0,0.0,nan,191.724872618,380.432104524,380.932144723,380.833578138,nan,nan,nan,nan
1,149,1,1,1.0,1.0,0.3453158997,0,0.0,0.0,0.0,0.412103564932,0.0727903720749,0.339313192857,0.484893937006,0.0727903720749,0.410254056565,136,1.0,-0.301914900238,-0.074841205769,nan,nan,nan,nan,0.0,0.0,0.0,nan,191.724872618,381.432236524,381.93229611,381.777552424,nan,nan,nan,nan
1,150,0,0,1.0,0.0,0.297140924726,0,0.0,0.0,0.0,0.411655325568,0.0727503554664,0.338904970101,0.484405681034,0.0727503554664,0.347976812782,248,0.568115903494,0.223728204869,0.653295769881,nan,nan,nan,nan,0.0,0.0,0.0,nan,191.724872618,382.432398175,382.93242697,382.7295391,nan,nan,nan,nan
1,151,1,1,1.0,1.0,0.265004983637,0,0.0,0.0,0.0,0.410891896229,0.0731038367985,0.33778805943,0.483995733027,0.0731038367985,0.302487269354,321,-0.0999433513493,0.43654647086,0.391174984052,nan,nan,nan,nan,0.0,0.0,0.0,nan,191.724872618,383.432505941,383.932529605,383.697510925,nan,nan,nan,nan
1,152,1,1,1.0,1.0,0.360843182541,0,0.0,0.0,0.0,0.409925757735,0.0738159375235,0.336109820211,0.483741695258,0.0738159375235,0.307663030302,23,1.0,0.106943944166,-1.0,nan,nan,nan,nan,0.0,0.0,0.0,nan,191.724872618,384.432635091,384.932658754,384.793478273,nan,nan,nan,nan
1,153,1,1,1.0,1.0,0.464698617347,0,0.0,0.0,0.0,0.409602846056,0.073679646968,0.335923199088,0.483282493024,0.073679646968,0.363515594508,242,0.632911854383,0.197161183215,0.645921401967,nan,nan,nan,nan,0.0,0.0,0.0,nan,191.724872618,385.432775074,385.93277935,385.897473691,nan,nan,nan,nan
1,154,0,0,0.0,1.0,0.456529139541,0,0.0,0.0,0.0,0.409962949136,0.0735725439522,0.336390405184,0.483535493088,0.0735725439522,0.42735697981,104,1.0,-0.282351481576,-0.412644567278,nan,nan,nan,nan,0.0,0.0,0.0,nan,191.724872618,386.432915342,386.932936724,386.889444482,nan,nan,nan,nan
1,155,1,1,1.0,1.0,0.328382229432,0,0.0,0.0,0.0,0.410265326996,0.0734286017169,0.336836725279,0.483693928713,0.0734286017169,0.416536662107,346,-0.174317561957,0.466431294057,0.176670174816,nan,nan,nan,nan,0.0,0.0,0.0,nan,191.724872618,387.433019118,387.933062453,387.761401347,nan,nan,nan,nan
1,156,1,1,1.0,1.0,0.456234633457,0,0.0,0.0,0.0,0.409737048947,0.0734843654795,0.336252683468,0.483221414427,0.0734843654795,0.413715334143,49,1.0,-0.027785429985,-1.0,nan,nan,nan,nan,0.0,0.0,0.0,nan,191.724872618,388.433149978,388.933182479,388.889384611,nan,nan,nan,nan
1,157,1,1,1.0,1.0,0.448116472922,0,0.0,0.0,0.0,0.410035110386,0.0733423969443,0.336692713442,0.48337750733,0.0733423969443,0.410911111937,409,0.0429436170054,0.464793150178,-0.529461854507,nan,nan,nan,nan,0.0,0.0,0.0,nan,191.724872618,389.433277701,389.933299939,389.881394174,nan,nan,nan,nan
1,158,1,1,1.0,1.0,0.543957522605,0,0.0,0.0,0.0,0.410277666835,0.073171192465,0.337106474371,0.4834488593,0.073171192465,0.482769542995,267,0.362924526182,0.298807232282,0.646622522267,nan,nan,nan,nan,0.0,0.0,0.0,nan,191.724872618,390.433403145,390.933459594,390.977360667,nan,nan,nan,nan
1,159,1,1,1.0,1.0,0.43982981937,0,0.0,0.0,0.0,0.411123741872,0.0737056614415,0.33741808043,0.484829403314,0.0737056614415,0.477301271632,198,1.0,-0.0302354974571,0.462326941081,nan,nan,nan,nan,0.0,0.0,0.0,nan,191.724872618,391.433530298,391.933547404,391.873360117,nan,nan,nan,nan
1,160,1,1,1.0,1.0,0.383672961034,0,0.0,0.0,0.0,0.41130428324,0.0735085556035,0.337795727636,0.484812838843,0.0735085556035,0.455820101003,373,-0.135407706169,0.478559568072,-0.0996974893599,nan,nan,nan,nan,0.0,0.0,0.0,nan,191.724872618,392.433669141,392.933677409,392.817342102,nan,nan,nan,nan
1,161,1,1,1.0,1.0,0.447533447761,0,0.0,0.0,0.0,0.411131587476,0.0733108301137,0.337820757362,0.48444241759,0.0733108301137,0.423678742722,1,0.854939129564,0.207877072944,-1.0,nan,nan,nan,nan,0.0,0.0,0.0,nan,191.724872618,393.433792873,393.933800286,393.881326321,nan,nan,nan,nan
1,162,1,1,1.0,1.0,0.439074594993,0,0.0,0.0,0.0,0.411357685987,0.0731387397217,0.338218946266,0.484496425709,0.0731387397217,0.423427001263,97,1.0,-0.260369742894,-0.491718830742,nan,nan,nan,nan,0.0,0.0,0.0,nan,191.724872618,394.442231484,394.942274248,394.881306079,nan,nan,nan,nan
1,163,1,1,1.0,1.0,0.398950782605,0,0.0,0.0,0.0,0.411528778018,0.0729449648726,0.338583813146,0.484473742891,0.0729449648726,0.428519608453,28,1.0,0.082066132397,-1.0,nan,nan,nan,nan,0.0,0.0,0.0,nan,191.724872618,395.44235208,395.94239456,395.841302863,nan,nan,nan,nan
1,164,1,1,1.0,1.0,0.382774617523,0,0.0,0.0,0.0,0.411451612402,0.0727274952109,0.338724117191,0.484179107613,0.0727274952109,0.406933331707,358,-0.170583909915,0.474268316859,0.0585874414746,nan,nan,nan,nan,0.0,0.0,0.0,nan,191.724872618,396.442500046,396.942554499,396.825274664,nan,nan,nan,nan
1,165,1,1,1.0,1.0,0.406626186799,0,0.0,0.0,0.0,0.411276752677,0.0725397868459,0.338736965831,0.483816539523,0.0725397868459,0.396117195642,115,1.0,-0.305166285737,-0.293172749504,nan,nan,nan,nan,0.0,0.0,0.0,nan,191.724872618,397.442641739,397.942681083,397.849267926,nan,nan,nan,nan
1,166,1,1,1.0,1.0,0.390514167957,0,0.0,0.0,0.0,0.411248567429,0.0723205359783,0.338928031451,0.483569103408,0.0723205359783,0.39330499076,242,0.632911854383,0.197161183215,0.645921401967,nan,nan,nan,nan,0.0,0.0,0.0,nan,191.724872618,398.442748936,398.942775736,398.833263104,nan,nan,nan,nan
1,167,1,1,1.0,1.0,0.358350572642,0,0.0,0.0,0.0,0.411123661409,0.0721202231285,0.33900343828,0.483243884537,0.0721202231285,0.385163642466,416,0.087881616042,0.458117504295,-0.630165317015,nan,nan,nan,nan,0.0,0.0,0.0,nan,191.724872618,399.442881221,399.942902889,399.801231794,nan,nan,nan,nan
1,168,1,1,1.0,1.0,0.342213179916,0,0.0,0.0,0.0,0.410807654889,0.07201914812,0.338788506769,0.482826803009,0.07201914812,0.363692640172,138,1.0,-0.29832987918,-0.0546508148191,nan,nan,nan,nan,0.0,0.0,0.0,nan,191.724872618,400.443010371,400.943035175,400.785223551,nan,nan,nan,nan
1,169,0,0,0.0,1.0,0.477997004986,0,0.0,0.0,0.0,0.410399354443,0.0719980873614,0.338401267081,0.482397441804,0.0719980873614,0.392853585848,324,-0.114799643766,0.441158325109,0.368064040095,nan,nan,nan,nan,0.0,0.0,0.0,nan,191.724872618,401.443163184,401.943189983,401.921160189,nan,nan,nan,nan
1,170,1,1,1.0,1.0,0.301904909313,0,0.0,0.0,0.0,0.410799340541,0.0719717290938,0.338827611447,0.482771069634,0.0719717290938,0.374038364738,256,0.481312611765,0.257047908656,0.656065722404,nan,nan,nan,nan,0.0,0.0,0.0,nan,191.724872618,402.443251279,402.943291192,402.745156188,nan,nan,nan,nan
1,171,1,1,1.0,1.0,0.365757128224,0,0.0,0.0,0.0,0.410158785063,0.0722412778586,0.337917507204,0.482400062921,0.0722412778586,0.381886347507,319,-0.0891891826932,0.433308674125,0.406137099325,nan,nan,nan,nan,0.0,0.0,0.0,nan,191.724872618,403.443410648,403.943433171,403.809167777,nan,nan,nan,nan
1,172,1,1,1.0,1.0,0.397604551166,0,0.0,0.0,0.0,0.409899126251,0.0721092558146,0.337789870436,0.482008382065,0.0721092558146,0.355088862901,368,-0.150457169737,0.477793263397,-0.0457341785459,nan,nan,nan,nan,0.0,0.0,0.0,nan,191.724872618,404.443524402,404.943541793,404.841128953,nan,nan,nan,nan
1,173,1,1,1.0,1.0,0.413470244966,0,0.0,0.0,0.0,0.409827646163,0.0719054059704,0.337922240193,0.481733052134,0.0719054059704,0.392277308119,446,0.304696255059,0.41359904426,-1.0,nan,nan,nan,nan,0.0,0.0,0.0,nan,191.724872618,405.443651841,405.943689189,405.857122086,nan,nan,nan,nan
1,174,1,1,1.0,1.0,0.413313440979,0,0.0,0.0,0.0,0.409848701648,0.0716978174612,0.338150884186,0.481546519109,0.0716978174612,0.40812941237,14,0.95801504718,0.150023555696,-1.0,nan,nan,nan,nan,0.0,0.0,0.0,nan,191.724872618,406.443786692,406.943806934,406.857100133,nan,nan,nan,nan
1,175,1,1,1.0,1.0,0.373186207842,0,0.0,0.0,0.0,0.409868613943,0.0714919721156,0.338376641827,0.481360586058,0.0714919721156,0.399989964596,445,0.296953900578,0.415520102116,-1.0,nan,nan,nan,nan,0.0,0.0,0.0,nan,191.724872618,407.443906718,407.943947488,407.817092926,nan,nan,nan,nan
1,176,1,1,1.0,1.0,0.333037592005,0,0.0,0.0,0.0,0.409659000193,0.0713410189031,0.33831798129,0.481000019097,0.0713410189031,0.373179080275,71,1.0,-0.144504067012,-0.877980773838,nan,nan,nan,nan,0.0,0.0,0.0,nan,191.724872618,408.444035868,408.94405782,408.77707346,nan,nan,nan,nan
1,177,1,1,1.0,1.0,0.340894032735,0,0.0,0.0,0.0,0.409223651283,0.0713707968958,0.337852854387,0.480594448179,0.0713707968958,0.349039277527,6,0.895129075663,0.186272780825,-1.0,nan,nan,nan,nan,0.0,0.0,0.0,nan,191.724872618,409.444156464,409.944193812,409.785050497,nan,nan,nan,nan
1,178,1,1,1.0,1.0,0.344455189537,0,0.0,0.0,0.0,0.408837608241,0.0713529348795,0.337484673361,0.48019054312,0.0713529348795,0.339462271426,198,1.0,-0.0302354974571,0.462326941081,nan,nan,nan,nan,0.0,0.0,0.0,nan,191.724872618,410.528581912,411.027653919,410.873037102,nan,nan,nan,nan
1,179,1,1,1.0,1.0,0.377239728346,0,0.0,0.0,0.0,0.408475909259,0.0713147605039,0.337161148755,0.479790669763,0.0713147605039,0.354196316873,416,0.087881616042,0.458117504295,-0.630165317015,nan,nan,nan,nan,0.0,0.0,0.0,nan,191.724872618,411.527767103,412.027807016,411.905006831,nan,nan,nan,nan
1,180,1,1,1.0,1.0,0.393117111176,0,0.0,0.0,0.0,0.408301405455,0.0711533778791,0.337148027576,0.479454783334,0.0711533778791,0.371604009687,324,-0.114799643766,0.441158325109,0.368064040095,nan,nan,nan,nan,0.0,0.0,0.0,nan,191.724872618,412.527884563,413.027915068,412.921001674,nan,nan,nan,nan
1,181,0,0,0.0,1.0,0.432947558351,0,0.0,0.0,0.0,0.408217048265,0.0709644297343,0.33725261853,0.479181477999,0.0709644297343,0.401101465958,242,0.632911854383,0.197161183215,0.645921401967,nan,nan,nan,nan,0.0,0.0,0.0,nan,191.724872618,413.528032814,414.028064745,413.960980372,nan,nan,nan,nan
1,182,1,1,1.0,1.0,0.336829392705,0,0.0,0.0,0.0,0.408353680917,0.0707918617107,0.337561819206,0.479145542628,0.0707918617107,0.387631354077,95,1.0,-0.253175017597,-0.514975443931,nan,nan,nan,nan,0.0,0.0,0.0,nan,191.724872618,414.528143717,415.02816795,414.86497311,nan,nan,nan,nan
1,183,1,1,1.0,1.0,0.360677825753,0,0.0,0.0,0.0,0.407960690323,0.070794815974,0.337165874349,0.478755506297,0.070794815974,0.376818258936,190,1.0,-0.0746884387243,0.407399635172,nan,nan,nan,nan,0.0,0.0,0.0,nan,191.724872618,415.528272011,416.028306223,415.888949837,nan,nan,nan,nan
1,184,1,1,1.0,1.0,0.464493631851,0,0.0,0.0,0.0,0.407702314013,0.0706871170596,0.337015196954,0.478389431073,0.0706871170596,0.38733361677,58,1.0,-0.0760896648475,-1.0,nan,nan,nan,nan,0.0,0.0,0.0,nan,191.724872618,416.528402871,417.028430525,416.992896503,nan,nan,nan,nan
1,185,1,1,1.0,1.0,0.464402115904,0,0.0,0.0,0.0,0.40801096248,0.0706183120749,0.337392650405,0.478629274555,0.0706183120749,0.429857857836,403,0.00657627305109,0.469456436931,-0.450524507496,nan,nan,nan,nan,0.0,0.0,0.0,nan,191.724872618,417.528511493,418.028555683,417.992913609,nan,nan,nan,nan
1,186,1,1,1.0,1.0,0.360231933184,0,0.0,0.0,0.0,0.408315779525,0.0705484628238,0.337767316702,0.478864242349,0.0705484628238,0.42970922698,212,0.93926288676,0.0467731277665,0.543851001166,nan,nan,nan,nan,0.0,0.0,0.0,nan,191.724872618,418.528653757,419.028689109,418.88888569,nan,nan,nan,nan
1,187,1,1,1.0,1.0,0.320055947639,0,0.0,0.0,0.0,0.408057264223,0.0704463672731,0.33761089695,0.478503631496,0.0704463672731,0.381563332242,399,-0.0164460389312,0.472031251936,-0.400274523968,nan,nan,nan,nan,0.0,0.0,0.0,nan,191.724872618,419.52880657,420.028797161,419.848862517,nan,nan,nan,nan
1,188,1,1,1.0,1.0,0.280000273604,0,1.0,0.0,0.0,0.407586668947,0.0705502923677,0.337036376579,0.478136961314,0.0705502923677,0.320096051476,469,0.489482198204,0.360453357602,-1.0,nan,nan,nan,nan,0.0,0.0,0.0,nan,191.724872618,420.5289112,421.028934293,420.808911474,nan,nan,nan,nan
1,189,1,1,1.0,1.0,0.271770069841,1,0.0,0.0,1.0,0.406908017908,0.070971787303,0.335936230605,0.477879805211,0.070971787303,0.290608763695,330,-0.139766326074,0.449518327743,0.319540245599,-152.978418409,242.978418409,10.9471684088,346.0,-0.174317561957,0.466431294057,0.176670174816,1.50878015766,191.724872618,421.529038639,422.029078552,421.800808709,424.887761549,425.891541091,423.36258399,424.879411034
1,190,0,0,0.0,1.0,0.512785497122,0,0.0,0.0,0.0,0.406193002309,0.0714594872736,0.334733515036,0.477652489583,0.0714594872736,0.354851946856,274,0.289344050657,0.322900892411,0.632670269059,nan,nan,nan,nan,0.0,0.0,0.0,nan,191.724872618,426.087951538,426.588022242,426.600737035,nan,nan,nan,nan
1,191,1,1,1.0,1.0,0.312683602795,0,0.0,0.0,0.0,0.40675401544,0.0716872881232,0.335066727317,0.478441303563,0.0716872881232,0.365746389919,226,0.801265930663,0.120208988367,0.60458276857,nan,nan,nan,nan,0.0,0.0,0.0,nan,191.724872618,427.088070709,427.588097223,427.400754312,nan,nan,nan,nan
1,192,1,1,1.0,1.0,0.352518326137,0,0.0,0.0,0.0,0.406261500191,0.0718209559149,0.334440544276,0.478082456106,0.0718209559149,0.392662475351,170,1.0,-0.180990482069,0.247815061387,nan,nan,nan,nan,0.0,0.0,0.0,nan,191.724872618,428.088208411,428.58821896,428.440726737,nan,nan,nan,nan
1,193,1,1,1.0,1.0,0.368380028754,0,0.0,0.0,0.0,0.405981587826,0.0717380572127,0.334243530613,0.477719645038,0.0717380572127,0.344527319229,106,1.0,-0.287630069369,-0.390564445695,nan,nan,nan,nan,0.0,0.0,0.0,nan,191.724872618,429.088331859,429.588353526,429.456711887,nan,nan,nan,nan
1,194,1,1,1.0,1.0,0.608203746844,0,0.0,0.0,0.0,0.405786761095,0.0716028746913,0.334183886403,0.477389635786,0.0716028746913,0.443034033912,199,1.0,-0.0246761787097,0.468786302982,nan,nan,nan,nan,0.0,0.0,0.0,nan,191.724872618,430.088462719,430.588525155,430.696666466,nan,nan,nan,nan
1,195,1,1,1.0,1.0,0.424088713247,0,0.0,0.0,0.0,0.406830147619,0.0728742373881,0.333955910231,0.479704385007,0.0728742373881,0.466890829615,332,-0.146647089803,0.45205423783,0.302714191958,nan,nan,nan,nan,0.0,0.0,0.0,nan,191.724872618,431.088587876,431.588606978,431.51267659,nan,nan,nan,nan
1,196,1,1,1.0,1.0,0.367923587095,0,0.0,0.0,0.0,0.406918653084,0.072697592763,0.334221060321,0.479616245847,0.072697592763,0.466738682395,456,0.383612429175,0.392633185378,-1.0,nan,nan,nan,nan,0.0,0.0,0.0,nan,191.724872618,432.0887156,432.588762356,432.456639187,nan,nan,nan,nan
1,197,1,1,1.0,1.0,0.327779817861,0,0.0,0.0,0.0,0.406719698666,0.072565106434,0.334154592232,0.4792848051,0.072565106434,0.373264039401,267,0.362924526182,0.298807232282,0.646622522267,nan,nan,nan,nan,0.0,0.0,0.0,nan,191.724872618,433.088851022,433.588864136,433.416630839,nan,nan,nan,nan
1,198,1,1,1.0,1.0,0.327666063793,0,0.0,0.0,0.0,0.406318988611,0.072597773331,0.33372121528,0.478916761942,0.072597773331,0.34112315625,338,-0.162891363375,0.458928707883,0.250399161362,nan,nan,nan,nan,0.0,0.0,0.0,nan,191.724872618,434.088964776,434.589004689,434.416630839,nan,nan,nan,nan
1,199,1,1,1.0,1.0,0.367493659724,0,0.0,0.0,0.0,0.405921751617,0.0726285369513,0.333293214666,0.478550288568,0.0726285369513,0.340979847126,219,0.871627318206,0.0840881726889,0.576959667802,nan,nan,nan,nan,0.0,0.0,0.0,nan,191.724872618,435.089104474,435.589115878,435.456598133,nan,nan,nan,nan
1,200,1,1,1.0,1.0,0.431372677442,0,0.0,0.0,0.0,0.405728645627,0.0724967635642,0.333231882063,0.478225409192,0.0724967635642,0.375510800319,9,0.918933560847,0.172916688009,-1.0,nan,nan,nan,nan,0.0,0.0,0.0,nan,191.724872618,436.089211671,436.589257571,436.520584348,nan,nan,nan,nan
1,201,1,1,1.0,1.0,0.319212343078,0,0.0,0.0,0.0,0.405856865786,0.0723379116721,0.333518954114,0.478194777459,0.0723379116721,0.372692893414,318,-0.0835627602325,0.431640264478,0.413481556053,nan,nan,nan,nan,0.0,0.0,0.0,nan,191.724872618,437.089348517,437.589371895,437.40856086,nan,nan,nan,nan
1,202,1,1,1.0,1.0,0.286713472102,0,0.0,0.0,0.0,0.405425798509,0.0724148021176,0.333010996392,0.477840600627,0.0724148021176,0.345766164207,229,0.770397026975,0.135265939772,0.614681466938,nan,nan,nan,nan,0.0,0.0,0.0,nan,191.724872618,438.097839301,438.597835309,438.384552773,nan,nan,nan,nan
1,203,1,1,1.0,1.0,0.302601118572,0,1.0,0.0,0.0,0.404838113725,0.0727142606482,0.332123853077,0.477552374373,0.0727142606482,0.302842311251,339,-0.164955840019,0.45996923152,0.241423096872,nan,nan,nan,nan,0.0,0.0,0.0,nan,191.724872618,439.097923405,439.597960752,439.400524523,nan,nan,nan,nan
1,204,1,1,1.0,1.0,0.262433971278,1,0.0,0.0,1.0,0.404334483207,0.0728872663922,0.331447216815,0.477221749599,0.0728872663922,0.283916187317,206,0.994723455659,0.014051917983,0.511316161583,-75.5864022988,165.586402299,20.7426522988,236.0,0.697004556276,0.169301754335,0.634065852989,2.02553877793,191.724872618,440.09806909,440.598116131,440.360503061,443.973530378,444.97001056,441.931619002,443.965214645
1,205,1,1,1.0,1.0,0.402688700706,0,0.0,0.0,0.0,0.403638892462,0.0733807366344,0.330258155828,0.477019629097,0.0733807366344,0.322574596852,16,0.973419431522,0.140652110383,-1.0,nan,nan,nan,nan,0.0,0.0,0.0,nan,191.724872618,445.173695278,445.673762847,445.576383979,nan,nan,nan,nan
1,206,1,1,1.0,1.0,0.354564188048,0,0.0,0.0,0.0,0.403634257381,0.0732015703649,0.330432687016,0.476835827746,0.0732015703649,0.339895620011,373,-0.135407706169,0.478559568072,-0.0996974893599,nan,nan,nan,nan,0.0,0.0,0.0,nan,191.724872618,446.173846095,446.673865767,446.528410283,nan,nan,nan,nan
1,207,0,0,1.0,0.0,0.346412100829,0,0.0,0.0,0.0,0.403396053161,0.0731032822136,0.330292770947,0.476499335374,0.0731032822136,0.367888329861,500,0.748145934353,0.260058294274,-1.0,nan,nan,nan,nan,0.0,0.0,0.0,nan,191.724872618,447.173983797,447.67402086,447.520395898,nan,nan,nan,nan
1,208,1,1,1.0,1.0,0.314259053208,0,0.0,0.0,0.0,0.403120768367,0.0730334447016,0.330087323665,0.476154213068,0.0730334447016,0.338411780695,437,0.23613482661,0.429770237144,-1.0,nan,nan,nan,nan,0.0,0.0,0.0,nan,191.724872618,448.174095841,448.674116083,448.488354894,nan,nan,nan,nan
1,209,1,1,1.0,1.0,0.322096392512,0,0.0,0.0,0.0,0.402693548582,0.0731164915579,0.329577057024,0.47581004014,0.0731164915579,0.327589182183,111,1.0,-0.298677811705,-0.336106236365,nan,nan,nan,nan,0.0,0.0,0.0,nan,191.724872618,449.174240386,449.674244662,449.496336778,nan,nan,nan,nan
1,210,1,1,1.0,1.0,0.32994884206,0,1.0,0.0,0.0,0.402307916257,0.073153089099,0.329154827158,0.475461005356,0.073153089099,0.32210142926,181,1.0,-0.123914391386,0.3392011262,nan,nan,nan,nan,0.0,0.0,0.0,nan,191.724872618,450.174354425,450.674381794,450.504303267,nan,nan,nan,nan
1,211,1,1,1.0,1.0,0.272492222488,1,0.0,0.0,1.0,0.401963349237,0.0731485169597,0.328814832277,0.475111866196,0.0731485169597,0.308179152353,19,0.99625917486,0.126374530333,-1.0,91.0139787228,358.986021277,-14.3733537228,511.0,0.838703193994,0.216284169582,-1.0,1.48381613707,191.724872618,451.207834032,451.707853134,451.480326255,454.533198786,455.531052855,453.033010337,454.524866803
1,212,1,1,1.0,1.0,0.378794366959,0,0.0,0.0,0.0,0.401349742001,0.0735147240066,0.327835017994,0.474864466007,0.0735147240066,0.327078477169,398,-0.0220377755791,0.472608796233,-0.387943383198,nan,nan,nan,nan,0.0,0.0,0.0,nan,191.724872618,455.733401035,456.233448646,456.112195402,nan,nan,nan,nan
1,213,1,1,1.0,1.0,0.346686935052,0,0.0,0.0,0.0,0.401243348722,0.0733574164255,0.327885932297,0.474600765148,0.0733574164255,0.3326578415,286,0.169078956243,0.359734776014,0.594698705761,nan,nan,nan,nan,0.0,0.0,0.0,nan,191.724872618,456.733533035,457.233566392,457.08021997,nan,nan,nan,nan
1,214,1,1,1.0,1.0,0.362535808235,0,0.0,0.0,0.0,0.400987215325,0.0732799719646,0.32770724336,0.474267187289,0.0732799719646,0.362672370082,33,1.0,0.0565990290419,-1.0,nan,nan,nan,nan,0.0,0.0,0.0,nan,191.724872618,457.733658763,458.233700958,458.096194571,nan,nan,nan,nan
1,215,1,1,1.0,1.0,0.434386446606,0,0.0,0.0,0.0,0.400807535852,0.0731555718357,0.327651964017,0.473963107688,0.0731555718357,0.381203063298,469,0.489482198204,0.360453357602,-1.0,nan,nan,nan,nan,0.0,0.0,0.0,nan,191.724872618,458.733789053,459.233799601,459.168175499,nan,nan,nan,nan
1,216,1,1,1.0,1.0,0.500245184172,0,0.0,0.0,0.0,0.400963716833,0.073020996173,0.32794272066,0.473984713006,0.073020996173,0.432389146338,102,1.0,-0.276610342793,-0.434926949461,nan,nan,nan,nan,0.0,0.0,0.0,nan,191.724872618,459.733890548,460.233978643,460.234135732,nan,nan,nan,nan
1,217,1,1,1.0,1.0,0.450089064427,0,0.0,0.0,0.0,0.401423353256,0.0731628492116,0.328260504044,0.474586202467,0.0731628492116,0.461573565068,333,-0.149813480994,0.453275949072,0.294183738108,nan,nan,nan,nan,0.0,0.0,0.0,nan,191.724872618,460.734040794,461.234069589,461.184129859,nan,nan,nan,nan
1,218,1,1,1.0,1.0,0.393961856142,0,0.0,0.0,0.0,0.401647619206,0.0730684540609,0.328579165145,0.474716073267,0.0730684540609,0.44809870158,472,0.51429864939,0.352212277195,-1.0,nan,nan,nan,nan,0.0,0.0,0.0,nan,191.724872618,461.734171654,462.2342167,462.12813351,nan,nan,nan,nan
1,219,1,1,1.0,1.0,0.345839624759,0,0.0,0.0,0.0,0.401612363412,0.0729025231563,0.328709840255,0.474514886568,0.0729025231563,0.396630181776,383,-0.0968787136249,0.478131214543,-0.211081409456,nan,nan,nan,nan,0.0,0.0,0.0,nan,191.724872618,462.734273719,463.234311352,463.080113344,nan,nan,nan,nan
1,220,1,1,1.0,1.0,0.425684690941,0,0.0,0.0,0.0,0.401357693372,0.0728330164083,0.328524676964,0.474190709781,0.0728330164083,0.388495390614,126,1.0,-0.311411754845,-0.177408431044,nan,nan,nan,nan,0.0,0.0,0.0,nan,191.724872618,463.734408285,464.23443708,464.160092976,nan,nan,nan,nan
1,221,1,1,1.0,1.0,0.345512046944,0,0.0,0.0,0.0,0.401468270634,0.0726857209288,0.328782549705,0.474153991563,0.0726857209288,0.372345454215,74,1.0,-0.159715158178,-0.810443278181,nan,nan,nan,nan,0.0,0.0,0.0,nan,191.724872618,464.734546843,465.23456737,465.08005889,nan,nan,nan,nan
1,222,1,1,1.0,1.0,0.457379301079,0,0.0,0.0,0.0,0.401215075052,0.0726182610764,0.328596813975,0.473833336128,0.0726182610764,0.409525346321,255,0.492159363509,0.253017189294,0.656163111527,nan,nan,nan,nan,0.0,0.0,0.0,nan,191.724872618,465.734668009,466.234693383,466.192047311,nan,nan,nan,nan
1,223,1,1,1.0,1.0,0.353241619188,0,0.0,0.0,0.0,0.401468067061,0.0725520697829,0.328915997278,0.474020136844,0.0725520697829,0.385377655737,377,-0.121259861678,0.478700828387,-0.143695900877,nan,nan,nan,nan,0.0,0.0,0.0,nan,191.724872618,466.734803716,467.234864727,467.088045335,nan,nan,nan,nan
1,224,1,1,1.0,1.0,0.345104642678,0,0.0,0.0,0.0,0.401251804963,0.0724608937034,0.328790911259,0.473712698666,0.0724608937034,0.385241854315,293,0.103830259013,0.378659598285,0.564617056734,nan,nan,nan,nan,0.0,0.0,0.0,nan,191.724872618,467.734919466,468.234948831,468.080024108,nan,nan,nan,nan
1,225,1,1,1.0,1.0,0.448957511224,0,0.0,0.0,0.0,0.401001147988,0.0723958000918,0.328605347896,0.47339694808,0.0723958000918,0.38243459103,58,1.0,-0.0760896648475,-1.0,nan,nan,nan,nan,0.0,0.0,0.0,nan,191.724872618,468.73504833,469.235076555,469.184005841,nan,nan,nan,nan
1,226,1,1,1.0,1.0,0.542731601745,0,0.0,0.0,0.0,0.40121428738,0.0723051438303,0.32890914355,0.473519431211,0.0723051438303,0.445597918549,510,0.830554458933,0.220436700166,-1.0,nan,nan,nan,nan,0.0,0.0,0.0,nan,191.724872618,469.785246359,470.285255197,470.327977961,nan,nan,nan,nan
1,227,1,1,1.0,1.0,0.550635083579,0,0.0,1.0,0.0,0.401840470187,0.0727538626846,0.329086607503,0.474594332872,0.0727538626846,0.514108065516,335,-0.155595990888,0.455627721073,0.276893227044,nan,nan,nan,nan,0.0,0.0,0.0,nan,191.724872618,470.785319344,471.285390618,471.335954428,nan,nan,nan,nan
1,228,1,1,1.0,1.0,0.526489008684,1,0.0,0.0,1.0,0.402495953066,0.0732591937573,0.329236759308,0.475755146823,0.0732591937573,0.539951898002,174,1.0,-0.160790688716,0.281981279739,-50.063616853,140.063616853,17.719866853,199.0,1.0,-0.0246761787097,0.468786302982,1.54217052972,191.724872618,471.785451059,472.285514636,472.311940068,475.169162508,476.169489515,473.610640763,475.16084706
1,229,1,1,1.0,1.0,0.29448866006,0,0.0,0.0,0.0,0.403039782257,0.0735561396915,0.329483642565,0.476595921948,0.0735561396915,0.457204250774,12,0.942476689623,0.159273951266,-1.0,nan,nan,nan,nan,0.0,0.0,0.0,nan,191.724872618,476.369351927,476.869392981,476.663840587,nan,nan,nan,nan
1,230,1,1,1.0,1.0,0.334332221188,0,0.0,0.0,0.0,0.402565759889,0.0737435419999,0.328822217889,0.476309301889,0.0737435419999,0.385103296644,311,-0.0397249783266,0.419020224334,0.462250212202,nan,nan,nan,nan,0.0,0.0,0.0,nan,191.724872618,477.369484213,477.869516714,477.703816434,nan,nan,nan,nan
1,231,1,1,1.0,1.0,0.414207792841,0,0.0,0.0,0.0,0.40226909233,0.0737198799239,0.328549212406,0.475988972254,0.0737198799239,0.347676224696,88,1.0,-0.225257592204,-0.599932847766,nan,nan,nan,nan,0.0,0.0,0.0,nan,191.724872618,478.369598252,478.8696356,478.783806045,nan,nan,nan,nan
1,232,1,1,1.0,1.0,0.374040360563,0,0.0,0.0,0.0,0.402320775016,0.0735643157549,0.328756459261,0.475885090771,0.0735643157549,0.374193458197,254,0.503011129055,0.248947817922,0.65613358125,nan,nan,nan,nan,0.0,0.0,0.0,nan,191.724872618,479.369770166,479.869782425,479.743810527,nan,nan,nan,nan
1,233,1,1,1.0,1.0,0.397891074419,0,0.0,0.0,0.0,0.402198876678,0.0734289772422,0.328769899436,0.47562785392,0.0734289772422,0.395379742607,402,0.000724920831492,0.470139955471,-0.437811562499,nan,nan,nan,nan,0.0,0.0,0.0,nan,191.724872618,480.369893613,480.86991243,480.767784688,nan,nan,nan,nan
1,234,0,0,0.0,1.0,0.469747984782,0,0.0,0.0,0.0,0.402180388256,0.0732717760523,0.328908612204,0.475452164308,0.0732717760523,0.413893139921,144,1.0,-0.284423189345,0.00519445478499,nan,nan,nan,nan,0.0,0.0,0.0,nan,191.724872618,481.370022763,481.870052128,481.839770747,nan,nan,nan,nan
1,235,1,1,1.0,1.0,0.277621987741,0,0.0,0.0,0.0,0.402469138669,0.0732477751937,0.329221363475,0.475716913862,0.0732477751937,0.381753682314,489,0.656284860842,0.299572439858,-1.0,nan,nan,nan,nan,0.0,0.0,0.0,nan,191.724872618,482.370134521,482.870171584,482.647756509,nan,nan,nan,nan
1,236,0,0,1.0,0.0,0.253471065778,0,0.0,0.0,0.0,0.401937874197,0.0735421674326,0.328395706764,0.475480041629,0.0735421674326,0.333613679434,105,1.0,-0.285049837405,-0.401580786678,nan,nan,nan,nan,0.0,0.0,0.0,nan,191.724872618,483.370270513,483.870308715,483.623741578,nan,nan,nan,nan
1,237,1,1,1.0,1.0,0.291301836725,0,0.0,0.0,0.0,0.401308777551,0.0740171428564,0.327291634694,0.475325920407,0.0740171428564,0.274131630082,511,0.838703193994,0.216284169582,-1.0,nan,nan,nan,nan,0.0,0.0,0.0,nan,191.724872618,484.42040753,484.920440032,484.711709367,nan,nan,nan,nan
1,238,1,1,1.0,1.0,0.347165899817,0,0.0,0.0,0.0,0.400844613243,0.0742042255663,0.326640387677,0.47504883881,0.0742042255663,0.297312934107,314,-0.0594438881467,0.42463230952,0.441925406839,nan,nan,nan,nan,0.0,0.0,0.0,nan,191.724872618,485.420521569,485.920556352,485.767687469,nan,nan,nan,nan
1,239,1,1,1.0,1.0,0.411018688697,0,0.0,0.0,0.0,0.400619072431,0.0741295311456,0.326489541285,0.474748603576,0.0741295311456,0.349828808413,450,0.335949728395,0.405598329481,-1.0,nan,nan,nan,nan,0.0,0.0,0.0,nan,191.724872618,486.420659272,486.920686926,486.831677961,nan,nan,nan,nan
1,240,1,1,1.0,1.0,0.306911797728,0,0.0,0.0,0.0,0.400662585469,0.0739773316465,0.326685253823,0.474639917116,0.0739773316465,0.355032128748,181,1.0,-0.123914391386,0.3392011262,nan,nan,nan,nan,0.0,0.0,0.0,nan,191.724872618,487.420756205,487.920804957,487.727668003,nan,nan,nan,nan
1,241,1,1,1.0,1.0,0.306735321879,0,0.0,0.0,0.0,0.400271957187,0.0740696430818,0.326202314105,0.474341600269,0.0740696430818,0.341555269435,465,0.456588679398,0.37096152752,-1.0,nan,nan,nan,nan,0.0,0.0,0.0,nan,191.724872618,488.420905597,488.920928974,488.727640918,nan,nan,nan,nan
1,242,1,1,1.0,1.0,0.290236711036,0,1.0,0.0,0.0,0.399883838369,0.0741599618275,0.325723876541,0.474043800196,0.0741599618275,0.301294610215,98,1.0,-0.263822910468,-0.480217789416,nan,nan,nan,nan,0.0,0.0,0.0,nan,191.724872618,489.429376423,489.929386401,489.719613134,nan,nan,nan,nan
1,243,0,0,1.0,0.0,0.290128088556,0,0.0,0.0,0.0,0.399430751065,0.0743400856777,0.325090665388,0.473770836743,0.0743400856777,0.295700040491,491,0.673033477965,0.292707709811,-1.0,nan,nan,nan,nan,0.0,0.0,0.0,nan,191.724872618,490.429475922,490.929562022,490.719604011,nan,nan,nan,nan
1,244,1,1,1.0,1.0,0.266009668354,0,0.0,0.0,0.0,0.39898094587,0.0745162286591,0.324464717211,0.473497174529,0.0745162286591,0.282124822649,81,1.0,-0.193804253699,-0.694219169772,nan,nan,nan,nan,0.0,0.0,0.0,nan,191.724872618,491.429599369,491.929640424,491.695609038,nan,nan,nan,nan
1,245,0,0,1.0,0.0,0.233812430874,0,0.0,0.0,0.0,0.398435981618,0.074847038037,0.323588943581,0.473283019655,0.074847038037,0.263316729261,253,0.513865899396,0.244839928328,0.655977188727,nan,nan,nan,nan,0.0,0.0,0.0,nan,191.724872618,492.429778981,492.929800078,492.663591412,nan,nan,nan,nan
1,246,1,1,1.0,1.0,0.297681755852,0,0.0,0.0,0.0,0.397764048758,0.0754279653275,0.32233608343,0.473192014085,0.0754279653275,0.26583461836,124,1.0,-0.311577186586,-0.198226518473,nan,nan,nan,nan,0.0,0.0,0.0,nan,191.724872618,493.429869927,493.929914973,493.727551683,nan,nan,nan,nan
1,247,1,1,1.0,1.0,0.40154203726,0,0.0,0.0,0.0,0.397357210169,0.0755433797364,0.321813830432,0.472900589905,0.0755433797364,0.311012074662,211,0.948675772315,0.0413606888024,0.538689155053,nan,nan,nan,nan,0.0,0.0,0.0,nan,191.724872618,494.43000934,494.930023025,494.831551377,nan,nan,nan,nan
1,248,1,1,1.0,1.0,0.409414728172,0,0.0,0.0,0.0,0.397374152788,0.075390771149,0.321983381639,0.472764923937,0.075390771149,0.369546173761,387,-0.0787219327085,0.477231755363,-0.256974454483,nan,nan,nan,nan,0.0,0.0,0.0,nan,191.724872618,495.430117677,495.930150463,495.839532406,nan,nan,nan,nan
1,249,1,1,1.0,1.0,0.425250771921,0,0.0,0.0,0.0,0.397422703496,0.0752424891591,0.322180214337,0.472665192655,0.0752424891591,0.412069179118,289,0.140592130943,0.368073254824,0.582505265782,nan,nan,nan,nan,0.0,0.0,0.0,nan,191.724872618,496.430262507,496.930277332,496.855513279,nan,nan,nan,nan
1,250,1,1,1.0,1.0,0.500226653181,0,0.0,0.0,0.0,0.397534462807,0.0751118702673,0.322422592539,0.472646333074,0.0751118702673,0.444964051091,124,1.0,-0.311577186586,-0.198226518473,nan,nan,nan,nan,0.0,0.0,0.0,nan,191.724872618,497.430382818,497.930448961,497.930609471,nan,nan,nan,nan
1,251,1,1,1.0,1.0,0.39296943089,0,0.0,0.0,0.0,0.397945231568,0.0752412114185,0.32270402015,0.473186442987,0.0752412114185,0.439482285331,255,0.492159363509,0.253017189294,0.656163111527,nan,nan,nan,nan,0.0,0.0,0.0,nan,191.724872618,498.430516244,498.930539052,498.823485675,nan,nan,nan,nan
1,252,1,1,1.0,1.0,0.416773958132,0,0.0,0.0,0.0,0.397925407661,0.075091833124,0.322833574537,0.473017240785,0.075091833124,0.436656680734,407,0.0305886347219,0.46645515455,-0.502577406972,nan,nan,nan,nan,0.0,0.0,0.0,nan,191.724872618,499.430645964,499.930660503,499.847419922,nan,nan,nan,nan
1,253,1,1,1.0,1.0,0.392684902996,0,0.0,0.0,0.0,0.398000203496,0.0749520611856,0.323048142311,0.472952264682,0.0749520611856,0.400809430672,21,1.0,0.116713997928,-1.0,nan,nan,nan,nan,0.0,0.0,0.0,nan,191.724872618,500.430769696,500.930791934,500.823454599,nan,nan,nan,nan
1,254,1,1,1.0,1.0,0.376490206458,0,0.0,0.0,0.0,0.397979194403,0.0748045313854,0.323174663018,0.472783725789,0.0748045313854,0.395316355862,225,0.81146624694,0.115131125244,0.600981946568,nan,nan,nan,nan,0.0,0.0,0.0,nan,191.724872618,501.430927925,501.930919942,501.807418132,nan,nan,nan,nan
1,255,1,1,1.0,1.0,0.416381379124,0,0.0,0.0,0.0,0.397894592089,0.0746692600128,0.323225332076,0.472563852101,0.0746692600128,0.395185496192,460,0.415848916989,0.383334931935,-1.0,nan,nan,nan,nan,0.0,0.0,0.0,nan,191.724872618,502.431024858,502.931044815,502.847406237,nan,nan,nan,nan
1,256,0,0,1.0,0.0,0.40821617702,0,0.0,0.0,0.0,0.397967089293,0.074531662237,0.323435427056,0.47249875153,0.074531662237,0.400362587534,329,-0.136053278316,0.448203788942,0.3278337444,nan,nan,nan,nan,0.0,0.0,0.0,nan,191.724872618,503.43117425,503.931199623,503.839390427,nan,nan,nan,nan
1,257,1,1,1.0,1.0,0.424088427797,0,0.0,0.0,0.0,0.398007124792,0.0743886974206,0.323618427371,0.472395822212,0.0743886974206,0.416228661314,28,1.0,0.082066132397,-1.0,nan,nan,nan,nan,0.0,0.0,0.0,nan,191.724872618,504.43127489,504.93131965,504.855363317,nan,nan,nan,nan
1,258,1,1,1.0,1.0,0.407921955921,0,0.0,0.0,0.0,0.398108608461,0.0742615850162,0.323847023445,0.472370193477,0.0742615850162,0.413408853579,316,-0.0718215561597,0.428203514031,0.427892255365,nan,nan,nan,nan,0.0,0.0,0.0,nan,191.724872618,505.431402898,505.931426276,505.839324854,nan,nan,nan,nan
1,259,1,1,1.0,1.0,0.279800990131,0,0.0,0.0,0.0,0.398146644691,0.0741200357338,0.324026608958,0.472266680425,0.0741200357338,0.370603791283,230,0.760023132926,0.140224214653,0.61781109556,nan,nan,nan,nan,0.0,0.0,0.0,nan,191.724872618,506.431534898,506.931552575,506.711335889,nan,nan,nan,nan
1,260,1,1,1.0,1.0,0.431663477328,0,0.0,0.0,0.0,0.397689711662,0.0743399989453,0.323349712717,0.472029710607,0.0743399989453,0.373128807793,145,1.0,-0.281667413287,0.0150551701241,nan,nan,nan,nan,0.0,0.0,0.0,nan,191.724872618,507.431666329,507.931680298,507.863329806,nan,nan,nan,nan
1,261,1,1,1.0,1.0,0.335179816931,0,0.0,0.0,0.0,0.397820379992,0.0742266942767,0.323593685715,0.472047074268,0.0742266942767,0.34888142813,319,-0.0891891826932,0.433308674125,0.406137099325,nan,nan,nan,nan,0.0,0.0,0.0,nan,191.724872618,508.440120619,508.940147134,508.775300436,nan,nan,nan,nan
1,262,1,1,1.0,1.0,0.303029905539,0,0.0,0.0,0.0,0.397580377834,0.0741853680029,0.323395009831,0.471765745837,0.0741853680029,0.356624399933,275,0.279002393219,0.326185254474,0.630178474337,nan,nan,nan,nan,0.0,0.0,0.0,nan,191.724872618,509.440250624,509.940277423,509.74328053,nan,nan,nan,nan
1,263,1,1,1.0,1.0,0.262862758245,0,1.0,0.0,0.0,0.397219498169,0.0742728370818,0.322946661087,0.471492335251,0.0742728370818,0.300357493572,180,1.0,-0.129278616986,0.331238955499,nan,nan,nan,nan,0.0,0.0,0.0,nan,191.724872618,510.440379203,510.940403722,510.703241962,nan,nan,nan,nan
1,264,1,1,1.0,1.0,0.382742401212,1,0.0,0.0,1.0,0.39670863604,0.0745912595868,0.322117376453,0.471299895627,0.0745912595868,0.316211688332,320,-0.0946500390753,0.43494401576,0.398701238857,-142.781046223,232.781046223,7.78104622298,331.0,-0.143297839787,0.450801753776,0.311166711333,1.56717132777,191.724872618,511.440496379,511.940537432,511.82323878,514.849223451,515.855230177,513.265698057,514.840891467
1,265,1,1,1.0,1.0,0.525378838181,0,0.0,0.0,0.0,0.396655733635,0.0744547973159,0.32220093632,0.471110530951,0.0744547973159,0.390327999213,66,1.0,-0.118568705386,-1.0,nan,nan,nan,nan,0.0,0.0,0.0,nan,191.724872618,516.057747419,516.557831523,516.583126258,nan,nan,nan,nan
1,266,1,1,1.0,1.0,0.413221354596,0,0.0,0.0,0.0,0.3971414812,0.0747321142192,0.322409366981,0.471873595419,0.0747321142192,0.44044753133,201,1.0,-0.0135712615467,0.48142235136,nan,nan,nan,nan,0.0,0.0,0.0,nan,191.724872618,517.057892819,517.557930167,517.471114174,nan,nan,nan,nan
1,267,1,1,1.0,1.0,0.389109206386,0,0.0,0.0,0.0,0.397201931852,0.0745979990167,0.322603932835,0.471799930868,0.0745979990167,0.442569799721,146,1.0,-0.278792578557,0.0248813210997,nan,nan,nan,nan,0.0,0.0,0.0,nan,191.724872618,518.058017692,518.558036509,518.447126898,nan,nan,nan,nan
1,268,1,1,1.0,1.0,0.324954213575,0,0.0,0.0,0.0,0.397171622018,0.0744598123153,0.322711809703,0.471631434334,0.0744598123153,0.375761591519,73,1.0,-0.1546788618,-0.830916872461,nan,nan,nan,nan,0.0,0.0,0.0,nan,191.724872618,519.058147982,519.55817136,519.383102195,nan,nan,nan,nan
1,269,1,1,1.0,1.0,0.332802101038,0,0.0,0.0,0.0,0.396902154076,0.074451083018,0.322451071058,0.471353237094,0.074451083018,0.348955173666,366,-0.155593376329,0.477302029306,-0.0244766492797,nan,nan,nan,nan,0.0,0.0,0.0,nan,191.724872618,520.058278271,520.558291101,520.391080373,nan,nan,nan,nan
1,270,1,1,1.0,1.0,0.267131527886,0,1.0,0.0,0.0,0.396663863916,0.0744148881542,0.322248975762,0.471078752071,0.0744148881542,0.3082959475,210,0.958022500947,0.0359304984579,0.533421856807,nan,nan,nan,nan,0.0,0.0,0.0,nan,191.724872618,521.099965846,521.600111816,521.367097374,nan,nan,nan,nan
1,271,1,1,1.0,1.0,0.298844384495,1,0.0,0.0,1.0,0.396184114524,0.0746925628151,0.321491551709,0.470876677339,0.0746925628151,0.29959267114,432,0.199227897075,0.437687328843,-1.0,168.886959464,281.113040536,-22.6369594641,400.0,-0.0107874812989,0.471427301814,-0.412692688905,1.9005356417,191.724872618,522.100199626,522.600224429,522.39904401,525.833964445,526.837455468,523.917055065,525.825634742
1,272,1,1,1.0,1.0,0.324781444389,0,0.0,0.0,0.0,0.395824927328,0.0747878764971,0.321037050831,0.470612803825,0.0747878764971,0.296919118923,184,1.0,-0.107671891867,0.362640045218,nan,nan,nan,nan,0.0,0.0,0.0,nan,191.724872618,527.034165268,527.534183514,527.358946712,nan,nan,nan,nan
1,273,1,1,1.0,1.0,0.420621353667,0,0.0,0.0,0.0,0.395563738053,0.0747739975816,0.320789740471,0.470337735634,0.0747739975816,0.348082394184,93,1.0,-0.245614297951,-0.538619881923,nan,nan,nan,nan,0.0,0.0,0.0,nan,191.724872618,528.034293562,528.534331765,528.454914916,nan,nan,nan,nan
1,274,1,1,1.0,1.0,0.435148798395,0,0.0,0.0,0.0,0.39565552419,0.0746522727441,0.321003251446,0.470307796934,0.0746522727441,0.393517198817,335,-0.155595990888,0.455627721073,0.276893227044,nan,nan,nan,nan,0.0,0.0,0.0,nan,191.724872618,529.067777731,529.567807666,529.502926529,nan,nan,nan,nan
1,275,1,1,1.0,1.0,0.283024876844,0,0.0,0.0,0.0,0.395799660228,0.0745539682241,0.321245692003,0.470353628452,0.0745539682241,0.379598342969,19,0.99625917486,0.126374530333,-1.0,nan,nan,nan,nan,0.0,0.0,0.0,nan,191.724872618,530.067882362,530.567923416,530.350907239,nan,nan,nan,nan
1,276,1,1,1.0,1.0,0.274889039807,0,0.0,0.0,0.0,0.395389570106,0.0747272497141,0.320662320392,0.47011681982,0.0747272497141,0.331020905015,249,0.557275547736,0.228026269286,0.654084877906,nan,nan,nan,nan,0.0,0.0,0.0,nan,191.724872618,531.068010371,531.5680959,531.342899411,nan,nan,nan,nan
1,277,1,1,1.0,1.0,0.282737782691,0,1.0,0.0,0.0,0.394952973982,0.0749423033252,0.320010670657,0.469895277307,0.0749423033252,0.280217233114,128,1.0,-0.310663006781,-0.156689791083,nan,nan,nan,nan,0.0,0.0,0.0,nan,191.724872618,532.06813724,532.568169171,532.350875022,nan,nan,nan,nan
1,278,1,1,1.0,1.0,0.255129765254,1,0.0,0.0,1.0,0.394547864988,0.0751090438635,0.319438821125,0.469656908852,0.0751090438635,0.270918862584,403,0.00657627305109,0.469456436931,-0.450524507496,163.17859011,286.82140989,3.46203489004,408.0,0.036737934283,0.465637664749,-0.515938449969,1.10875170492,191.724872618,533.095714182,533.601635663,533.350843947,536.043620252,537.03966452,534.918486541,536.035289124
1,279,1,1,1.0,1.0,0.370973563753,0,0.0,0.0,0.0,0.394046361032,0.0754370134621,0.31860934757,0.469483374494,0.0754370134621,0.302947037232,341,-0.168535884224,0.46196150489,0.223260112086,nan,nan,nan,nan,0.0,0.0,0.0,nan,191.724872618,537.243815943,537.743842172,537.614789507,nan,nan,nan,nan
1,280,0,0,1.0,0.0,0.306826838292,0,0.0,0.0,0.0,0.393963662834,0.0753143234155,0.318649339419,0.469277986249,0.0753143234155,0.310976722433,297,0.0686262056446,0.388646276542,0.544904663634,nan,nan,nan,nan,0.0,0.0,0.0,nan,191.724872618,538.243945663,538.743976738,538.550772501,nan,nan,nan,nan
1,281,1,1,1.0,1.0,0.29869328253,0,0.0,0.0,0.0,0.393652459889,0.075359204312,0.318293255577,0.469011664201,0.075359204312,0.325497894858,357,-0.1717918326,0.473767524415,0.068739031695,nan,nan,nan,nan,0.0,0.0,0.0,nan,191.724872618,539.244053715,539.744100186,539.542746997,nan,nan,nan,nan
1,282,1,1,1.0,1.0,0.362508438993,0,0.0,0.0,0.0,0.393314526874,0.0754372276673,0.317877299206,0.468751754541,0.0754372276673,0.322676186605,129,1.0,-0.310070485259,-0.146368003411,nan,nan,nan,nan,0.0,0.0,0.0,nan,191.724872618,540.244186,540.744225059,540.606694439,nan,nan,nan,nan
1,283,1,1,1.0,1.0,0.482383805793,0,0.0,0.0,0.0,0.393205285427,0.075325617367,0.31787966806,0.468530902794,0.075325617367,0.381195175772,252,0.524721685615,0.240693665738,0.655694012224,nan,nan,nan,nan,0.0,0.0,0.0,nan,191.724872618,541.24431686,541.744348791,541.726700666,nan,nan,nan,nan
1,284,1,1,1.0,1.0,0.321926474571,0,0.0,0.0,0.0,0.393520403874,0.0753783910708,0.318142012803,0.468898794945,0.0753783910708,0.388939573119,182,1.0,-0.118523835432,0.347089474713,nan,nan,nan,nan,0.0,0.0,0.0,nan,191.724872618,542.252774002,542.752793674,542.574700477,nan,nan,nan,nan
1,285,1,1,1.0,1.0,0.353776747826,0,0.0,0.0,0.0,0.393268312574,0.0753649772807,0.317903335293,0.468633289854,0.0753649772807,0.386029009397,373,-0.135407706169,0.478559568072,-0.0996974893599,nan,nan,nan,nan,0.0,0.0,0.0,nan,191.724872618,543.252899445,543.752922538,543.606676193,nan,nan,nan,nan
1,286,1,1,1.0,1.0,0.281654126476,0,0.0,0.0,0.0,0.39312974568,0.0752688741804,0.317860871499,0.46839861986,0.0752688741804,0.319119116291,476,0.547545041103,0.340739382997,-1.0,nan,nan,nan,nan,0.0,0.0,0.0,nan,191.724872618,544.253013769,544.753047981,544.534667896,nan,nan,nan,nan
1,287,1,1,1.0,1.0,0.313468762673,0,1.0,0.0,0.0,0.392739970787,0.075424749191,0.317315221596,0.468164719978,0.075424749191,0.316299878992,183,1.0,-0.113108999915,0.354902835149,nan,nan,nan,nan,0.0,0.0,0.0,nan,191.724872618,545.253165156,545.753196802,545.566633919,nan,nan,nan,nan
1,288,0,0,0.0,1.0,0.489327933174,1,0.0,0.0,1.0,0.392463764487,0.0754379863305,0.317025778157,0.467901750818,0.0754379863305,0.361483607441,387,-0.0787219327085,0.477231755363,-0.256974454483,169.67274611,280.32725389,8.21787889019,399.0,-0.0164460389312,0.472031251936,-0.400274523968,1.32543146703,191.724872618,546.253302288,546.761663352,546.742630221,549.428638875,550.439871159,548.086827682,549.420308887
1,289,1,1,1.0,1.0,0.369346225169,0,0.0,0.0,0.0,0.392800098406,0.075522151271,0.317277947135,0.468322249677,0.075522151271,0.390714307005,117,1.0,-0.307587969795,-0.271886539361,nan,nan,nan,nan,0.0,0.0,0.0,nan,191.724872618,550.637170541,551.137191353,551.006516766,nan,nan,nan,nan
1,290,0,0,1.0,0.0,0.353193722665,0,0.0,0.0,0.0,0.392718943136,0.0754039556513,0.317314987484,0.468122898787,0.0754039556513,0.403955960336,65,1.0,-0.113312155659,-1.0,nan,nan,nan,nan,0.0,0.0,0.0,nan,191.724872618,551.637342455,552.137354144,551.990536178,nan,nan,nan,nan
1,291,1,1,1.0,1.0,0.537047321908,0,0.0,0.0,0.0,0.392582649272,0.0753094877148,0.317273161557,0.467892136987,0.0753094877148,0.419862423247,478,0.56422249903,0.334793662244,-1.0,nan,nan,nan,nan,0.0,0.0,0.0,nan,191.724872618,552.63742998,553.137497263,553.174477302,nan,nan,nan,nan
1,292,0,0,0.0,1.0,0.512918067165,0,0.0,0.0,0.0,0.393079091446,0.075653823997,0.317425267449,0.468732915443,0.075653823997,0.467719703913,328,-0.132159558243,0.44685796506,0.336046158271,nan,nan,nan,nan,0.0,0.0,0.0,nan,191.724872618,553.637577376,554.137629264,554.150495443,nan,nan,nan,nan
1,293,1,1,1.0,1.0,0.376792409923,0,0.0,0.0,0.0,0.393489498897,0.0758479691788,0.317641529718,0.469337468076,0.0758479691788,0.475585932999,224,0.821619416966,0.11002478857,0.597264883709,nan,nan,nan,nan,0.0,0.0,0.0,nan,191.724872618,554.637685143,555.137709091,555.014477553,nan,nan,nan,nan
1,294,1,1,1.0,1.0,0.560606950428,0,0.0,0.0,0.0,0.393432512245,0.0757246866751,0.31770782557,0.46915719892,0.0757246866751,0.483439142505,320,-0.0946500390753,0.43494401576,0.398701238857,nan,nan,nan,nan,0.0,0.0,0.0,nan,191.724872618,555.637853635,556.137890983,556.198460586,nan,nan,nan,nan
1,295,1,1,1.0,1.0,0.448504490778,0,0.0,0.0,0.0,0.394001132783,0.0762198103136,0.31778132247,0.470220943097,0.0762198103136,0.461967950376,502,0.764740937618,0.25241357569,-1.0,nan,nan,nan,nan,0.0,0.0,0.0,nan,191.724872618,556.637942586,557.137967105,557.086447077,nan,nan,nan,nan
1,296,1,1,1.0,1.0,0.528342430014,0,0.0,1.0,0.0,0.394185889929,0.0761564321046,0.318029457824,0.470342322034,0.0761564321046,0.51248462374,454,0.367627362238,0.397084843583,-1.0,nan,nan,nan,nan,0.0,0.0,0.0,nan,191.724872618,557.638081429,558.138111649,558.166423859,nan,nan,nan,nan
1,297,1,1,1.0,1.0,0.568196254317,1,0.0,0.0,1.0,0.394639121483,0.0764251711353,0.318213950348,0.471064292619,0.0764251711353,0.515014391703,128,1.0,-0.310663006781,-0.156689791083,-4.26416334915,94.2641633492,4.26416334915,134.0,1.0,-0.304950998219,-0.095144111098,2.81732613593,191.724872618,558.638206587,559.138268453,559.206402841,563.305413609,564.308017407,560.471719722,563.297085046
1,298,1,1,1.0,1.0,0.372252226807,0,0.0,0.0,0.0,0.395223488934,0.0769559641671,0.318267524767,0.472179453101,0.0769559641671,0.489596970379,208,0.97651257568,0.025020743352,0.522574479073,nan,nan,nan,nan,0.0,0.0,0.0,nan,191.724872618,564.514005431,565.013992887,564.886257658,nan,nan,nan,nan
1,299,1,1,1.0,1.0,0.332172890194,0,0.0,0.0,0.0,0.395146404162,0.0768382195945,0.318308184567,0.471984623756,0.0768382195945,0.424207123773,387,-0.0787219327085,0.477231755363,-0.256974454483,nan,nan,nan,nan,0.0,0.0,0.0,nan,191.724872618,565.514102934,566.014091245,565.846275825,nan,nan,nan,nan
1,300,1,1,1.0,1.0,0.276050528511,0,0.0,0.0,0.0,0.394935790403,0.0767957324781,0.318140057925,0.471731522881,0.0767957324781,0.326825215171,68,1.0,-0.129018143495,-0.972903198114,nan,nan,nan,nan,0.0,0.0,0.0,nan,191.724872618,566.514205569,567.014224956,566.790256098,nan,nan,nan,nan
1,301,1,1,1.0,1.0,0.283938329667,0,1.0,0.0,0.0,0.394539506196,0.0769732500433,0.317566256153,0.47151275624,0.0769732500433,0.297387249457,133,1.0,-0.306259573676,-0.105336427414,nan,nan,nan,nan,0.0,0.0,0.0,nan,191.724872618,567.514332153,568.014360093,567.798270483,nan,nan,nan,nan
1,302,1,1,1.0,1.0,0.267769862432,1,0.0,0.0,1.0,0.394172060427,0.0771083792428,0.317063681184,0.47128043967,0.0771083792428,0.275919573537,3,0.871087178923,0.199335109687,-1.0,85.1082278195,4.89177218048,2.78239718048,7.0,0.9030914636,0.181853060355,-1.0,0.900361732114,191.724872618,568.514460447,569.014500931,568.782230309,571.264757519,572.263911063,570.348006368,571.256426105
1,303,1,1,1.0,1.0,0.42116788635,0,0.0,0.0,0.0,0.393753510103,0.0773223440579,0.316431166045,0.471075854161,0.0773223440579,0.32429202615,351,-0.175686286722,0.4701852659,0.128489978773,nan,nan,nan,nan,0.0,0.0,0.0,nan,191.724872618,572.464958627,572.965017642,572.886126513,nan,nan,nan,nan
1,304,1,1,1.0,1.0,0.325009522028,0,0.0,0.0,0.0,0.393843986592,0.0772106548982,0.316633331694,0.47105464149,0.0772106548982,0.337982423604,283,0.19826868328,0.351050922538,0.605825948857,nan,nan,nan,nan,0.0,0.0,0.0,nan,191.724872618,573.465095759,573.965109729,573.790105281,nan,nan,nan,nan
1,305,1,1,1.0,1.0,0.300873995759,0,0.0,0.0,0.0,0.393617557432,0.0771842596702,0.316433297762,0.470801817102,0.0771842596702,0.349017134712,72,1.0,-0.149607777062,-0.853203742106,nan,nan,nan,nan,0.0,0.0,0.0,nan,191.724872618,574.465209228,574.965246575,574.766083224,nan,nan,nan,nan
1,306,1,1,1.0,1.0,0.308762937319,0,1.0,0.0,0.0,0.393313480181,0.0772397966955,0.316073683485,0.470553276876,0.0772397966955,0.311548818368,189,1.0,-0.0802194643608,0.400143472992,nan,nan,nan,nan,0.0,0.0,0.0,nan,191.724872618,575.465344079,575.96537658,575.774107017,nan,nan,nan,nan
1,307,1,1,1.0,1.0,0.428610079456,1,0.0,0.0,1.0,0.393037171217,0.0772643205683,0.315772850649,0.470301491786,0.0772643205683,0.346082337511,342,-0.170052622031,0.462913557708,0.21407524247,-157.418167426,247.418167426,6.94941742574,352.0,-0.17544712699,0.470851603012,0.118673592819,1.33379281592,191.724872618,576.465472373,576.965503734,576.894082453,579.632499784,580.640924424,578.282323536,579.624166659
1,308,0,0,1.0,0.0,0.380921482109,0,0.0,0.0,0.0,0.393153043882,0.0771650063965,0.315988037486,0.470318050279,0.0771650063965,0.372764832961,95,1.0,-0.253175017597,-0.514975443931,nan,nan,nan,nan,0.0,0.0,0.0,nan,191.724872618,580.841052832,581.341073644,581.221974314,nan,nan,nan,nan
1,309,1,1,1.0,1.0,0.436797519214,0,0.0,0.0,0.0,0.39311333102,0.0770427789854,0.316070552034,0.470156110005,0.0770427789854,0.415443026926,467,0.473005185182,0.365775667588,-1.0,nan,nan,nan,nan,0.0,0.0,0.0,nan,191.724872618,581.841159459,582.341198802,582.277956978,nan,nan,nan,nan
1,310,1,1,1.0,1.0,0.636655939743,0,0.0,0.0,0.0,0.393254703797,0.0769580179974,0.3162966858,0.470212721794,0.0769580179974,0.484791647022,381,-0.105403061426,0.478425078289,-0.188431136224,nan,nan,nan,nan,0.0,0.0,0.0,nan,191.724872618,582.841289748,583.341349334,583.477945688,nan,nan,nan,nan
1,311,1,1,1.0,1.0,0.388499096502,0,0.0,1.0,0.0,0.394039869074,0.0780635977387,0.315976271335,0.472103466813,0.0780635977387,0.487317518486,9,0.918933560847,0.172916688009,-1.0,nan,nan,nan,nan,0.0,0.0,0.0,nan,191.724872618,583.841418043,584.341468505,584.229917139,nan,nan,nan,nan
1,312,1,1,1.0,1.0,0.39639288513,1,0.0,0.0,1.0,0.394022053085,0.077938623761,0.316083429324,0.471960676846,0.077938623761,0.473849307125,283,0.19826868328,0.351050922538,0.605825948857,-114.486680932,204.486680932,5.50230593172,291.0,0.122027637739,0.373441943191,0.573791926984,1.20879709255,191.724872618,584.841542345,585.341559166,585.237935231,587.891877506,588.893195514,586.666730339,587.883560347
1,313,1,1,1.0,1.0,0.409714366309,0,0.0,0.0,0.0,0.394029651906,0.0778137372679,0.316215914638,0.471843389174,0.0778137372679,0.39820211598,334,-0.152796554809,0.454467054946,0.285576400052,nan,nan,nan,nan,0.0,0.0,0.0,nan,191.724872618,589.092151314,589.592106554,589.50186568,nan,nan,nan,nan
1,314,1,1,1.0,1.0,0.409641096368,0,0.0,0.0,0.0,0.394079762814,0.0776943768562,0.316385385958,0.471774139671,0.0776943768562,0.405249449269,57,1.0,-0.0707313323512,-1.0,nan,nan,nan,nan,0.0,0.0,0.0,nan,191.724872618,590.092207763,590.592230571,590.50184886,nan,nan,nan,nan
1,315,1,1,1.0,1.0,0.505474733654,0,0.0,0.0,0.0,0.394129321202,0.0775755159715,0.31655380523,0.471704837173,0.0775755159715,0.441610065444,273,0.299732959835,0.319577193062,0.635038033336,nan,nan,nan,nan,0.0,0.0,0.0,nan,191.724872618,591.092349457,591.592408187,591.597824191,nan,nan,nan,nan
1,316,0,0,0.0,1.0,0.457291775849,0,0.0,0.0,0.0,0.394482798701,0.0777051426409,0.316777656061,0.472187941342,0.0777051426409,0.457469201957,495,0.706485112283,0.278551693791,-1.0,nan,nan,nan,nan,0.0,0.0,0.0,nan,191.724872618,592.092486304,592.592514244,592.54977808,nan,nan,nan,nan
1,317,1,1,1.0,1.0,0.393199504819,0,0.0,0.0,0.0,0.394681561287,0.0776622552067,0.317019306081,0.472343816494,0.0776622552067,0.451988671441,67,1.0,-0.12380466598,-1.0,nan,nan,nan,nan,0.0,0.0,0.0,nan,191.724872618,593.092596067,593.59262087,593.485795571,nan,nan,nan,nan
1,318,1,1,1.0,1.0,0.417027125601,0,0.0,0.0,0.0,0.39467688603,0.0775397073173,0.317137178713,0.472216593348,0.0775397073173,0.422506135423,118,1.0,-0.308588151016,-0.261285249573,nan,nan,nan,nan,0.0,0.0,0.0,nan,191.724872618,594.09275116,594.592763419,594.509778285,nan,nan,nan,nan
1,319,1,1,1.0,1.0,0.44887853926,0,0.0,0.0,0.0,0.394747169803,0.0774278063258,0.317319363477,0.472174976128,0.0774278063258,0.419701723227,39,1.0,0.0253789930673,-1.0,nan,nan,nan,nan,0.0,0.0,0.0,nan,191.724872618,595.092864344,595.592893994,595.541742883,nan,nan,nan,nan
1,320,0,0,0.0,1.0,0.440747549292,0,0.0,0.0,0.0,0.394916860616,0.0773655523198,0.317551308296,0.472282412936,0.0773655523198,0.435551071384,154,1.0,-0.251813147593,0.102138173725,nan,nan,nan,nan,0.0,0.0,0.0,nan,191.724872618,596.093003186,596.593031981,596.533750736,nan,nan,nan,nan
1,321,1,1,1.0,1.0,0.400622596499,0,0.0,0.0,0.0,0.395060081518,0.0772869175311,0.317773163987,0.472346999049,0.0772869175311,0.430082895017,263,0.405698801511,0.284171736334,0.651829885785,nan,nan,nan,nan,0.0,0.0,0.0,nan,191.724872618,597.093090427,597.593126634,597.493713023,nan,nan,nan,nan
1,322,1,1,1.0,1.0,0.544454733375,0,0.0,0.0,0.0,0.395077410225,0.0771670616391,0.317910348586,0.472244471864,0.0771670616391,0.461941626389,466,0.464789014893,0.368385601135,-1.0,nan,nan,nan,nan,0.0,0.0,0.0,nan,191.724872618,598.09323155,598.593302254,598.637686283,nan,nan,nan,nan
1,323,1,1,1.0,1.0,0.43235198874,0,0.0,0.0,0.0,0.395541314955,0.0774941546959,0.31804716026,0.473035469651,0.0774941546959,0.459143106205,4,0.879126049628,0.195014037372,-1.0,nan,nan,nan,nan,0.0,0.0,0.0,nan,191.724872618,599.093344734,599.593387213,599.525696722,nan,nan,nan,nan
1,324,1,1,1.0,1.0,0.448149829172,0,0.0,1.0,0.0,0.39565527989,0.0774011224319,0.318254157458,0.473056402322,0.0774011224319,0.474985517096,394,-0.0437090198531,0.474655926729,-0.339401417396,nan,nan,nan,nan,0.0,0.0,0.0,nan,191.724872618,600.093518358,600.593527196,600.541668187,nan,nan,nan,nan
1,325,1,1,1.0,1.0,0.464001838118,1,0.0,0.0,1.0,0.395817300104,0.0773364218528,0.318480878251,0.473153721956,0.0773364218528,0.448167885343,161,1.0,-0.223158351501,0.167490545043,-54.6444056401,144.64440564,31.4412806401,206.0,0.994723455659,0.014051917983,0.511316161583,1.10867986036,191.724872618,601.093648363,601.593658056,601.557650201,604.043970922,605.054523819,602.918831225,604.035629245
1,326,1,1,1.0,1.0,0.401080748998,0,0.0,0.0,0.0,0.396027098682,0.0773096391877,0.318717459494,0.47333673787,0.0773096391877,0.437744138762,338,-0.162891363375,0.458928707883,0.250399161362,nan,nan,nan,nan,0.0,0.0,0.0,nan,191.724872618,605.252473794,605.752525397,605.653554543,nan,nan,nan,nan
1,327,1,1,1.0,1.0,0.400962433312,0,0.0,0.0,0.0,0.396042600677,0.0771914809467,0.31885111973,0.473234081624,0.0771914809467,0.422015006809,85,1.0,-0.212156452387,-0.638781227021,nan,nan,nan,nan,0.0,0.0,0.0,nan,191.724872618,606.252599237,606.752628317,606.65356167,nan,nan,nan,nan
1,328,1,1,1.0,1.0,0.352802568581,0,0.0,0.0,0.0,0.396057646037,0.0770738395103,0.318983806526,0.473131485547,0.0770738395103,0.38494858363,334,-0.152796554809,0.454467054946,0.285576400052,nan,nan,nan,nan,0.0,0.0,0.0,nan,191.724872618,607.252739505,607.752780844,607.605542074,nan,nan,nan,nan
1,329,1,1,1.0,1.0,0.392655822914,0,0.0,0.0,0.0,0.3959257708,0.0769931991455,0.318932571655,0.472918969946,0.0769931991455,0.382140274936,186,1.0,-0.0967386681424,0.377881386018,nan,nan,nan,nan,0.0,0.0,0.0,nan,191.724872618,608.252865233,608.752902866,608.645521056,nan,nan,nan,nan
1,330,1,1,1.0,1.0,0.400482898578,0,0.0,0.0,0.0,0.395915831749,0.0768763098925,0.319039521857,0.472792141642,0.0768763098925,0.381980430024,66,1.0,-0.118568705386,-1.0,nan,nan,nan,nan,0.0,0.0,0.0,nan,191.724872618,609.253016335,609.753013484,609.653499234,nan,nan,nan,nan
1,331,1,1,1.0,1.0,0.384367743973,0,0.0,0.0,0.0,0.395929671346,0.0767601527262,0.319169518619,0.472689824072,0.0767601527262,0.392502155155,271,0.320642857732,0.312811632898,0.639400143054,nan,nan,nan,nan,0.0,0.0,0.0,nan,191.724872618,610.253120966,610.753163161,610.63748871,nan,nan,nan,nan
1,332,1,1,1.0,1.0,0.320212751161,0,0.0,0.0,0.0,0.395894741051,0.0766467397742,0.319248001277,0.472541480826,0.0766467397742,0.368354464571,26,1.0,0.0920921692153,-1.0,nan,nan,nan,nan,0.0,0.0,0.0,nan,191.724872618,611.253265226,611.753267792,611.573477977,nan,nan,nan,nan
1,333,1,1,1.0,1.0,0.30409046961,0,0.0,0.0,0.0,0.395666783251,0.0766435131325,0.319023270118,0.472310296383,0.0766435131325,0.336223654915,353,-0.175041255135,0.471490071959,0.108799216003,nan,nan,nan,nan,0.0,0.0,0.0,nan,191.724872618,612.253372992,612.753415472,612.557463462,nan,nan,nan,nan
1,334,1,1,1.0,1.0,0.383936106227,0,0.0,0.0,0.0,0.395391779306,0.0766922160391,0.318699563267,0.472083995345,0.0766922160391,0.336079775666,415,0.0813077335083,0.459153678902,-0.614968023274,nan,nan,nan,nan,0.0,0.0,0.0,nan,191.724872618,613.253510125,613.75352552,613.637446231,nan,nan,nan,nan
1,335,0,0,0.0,1.0,0.463798563462,0,0.0,0.0,0.0,0.395357480883,0.0765798790013,0.318777601882,0.471937359885,0.0765798790013,0.3839417131,172,1.0,-0.170984061773,0.265024678188,nan,nan,nan,nan,0.0,0.0,0.0,nan,191.724872618,614.253617892,614.753672631,614.717416455,nan,nan,nan,nan
1,336,1,1,1.0,1.0,0.31963001145,0,0.0,0.0,0.0,0.395561782622,0.0765565990412,0.319005183581,0.472118381664,0.0765565990412,0.38912156038,311,-0.0397249783266,0.419020224334,0.462250212202,nan,nan,nan,nan,0.0,0.0,0.0,nan,191.724872618,615.253760155,615.75380235,615.573390167,nan,nan,nan,nan
1,337,1,1,1.0,1.0,0.32748702215,0,0.0,0.0,0.0,0.395335795208,0.0765544134459,0.318781381762,0.471890208654,0.0765544134459,0.370305199021,138,1.0,-0.29832987918,-0.0546508148191,nan,nan,nan,nan,0.0,0.0,0.0,nan,191.724872618,616.253911257,616.753930644,616.581398279,nan,nan,nan,nan
1,338,1,1,1.0,1.0,0.399301168043,0,0.0,0.0,0.0,0.395134463537,0.0765297808087,0.318604682729,0.471664244346,0.0765297808087,0.348806067215,205,1.0,0.00854800403903,0.505535240796,nan,nan,nan,nan,0.0,0.0,0.0,nan,191.724872618,617.254041262,617.75406407,617.65334243,nan,nan,nan,nan
1,339,1,1,1.0,1.0,0.455192885827,0,0.0,0.0,0.0,0.395146791065,0.0764168223065,0.318729968759,0.471563613372,0.0764168223065,0.393993692007,7,0.9030914636,0.181853060355,-1.0,nan,nan,nan,nan,0.0,0.0,0.0,nan,191.724872618,618.254135629,618.754161573,618.709328515,nan,nan,nan,nan
1,340,1,1,1.0,1.0,0.463058164809,0,0.0,0.0,0.0,0.395323918189,0.0763734862047,0.318950431984,0.471697404393,0.0763734862047,0.439184072893,138,1.0,-0.29832987918,-0.0546508148191,nan,nan,nan,nan,0.0,0.0,0.0,nan,191.724872618,619.254269625,619.754293003,619.71732779,nan,nan,nan,nan
1,341,1,1,1.0,1.0,0.462929015048,0,0.0,0.0,0.0,0.395523136561,0.0763492501444,0.319173886417,0.471872386705,0.0763492501444,0.460393355228,2,0.863024578927,0.203622855609,-1.0,nan,nan,nan,nan,0.0,0.0,0.0,nan,191.724872618,620.254392502,620.754418446,620.717321517,nan,nan,nan,nan
1,342,1,1,1.0,1.0,0.318732238375,0,0.0,0.0,0.0,0.395720807759,0.0763242993603,0.319396508399,0.472045107119,0.0763242993603,0.414906472744,216,0.900975005756,0.0682271079607,0.563426584804,nan,nan,nan,nan,0.0,0.0,0.0,nan,191.724872618,621.254552157,621.754551872,621.573284396,nan,nan,nan,nan
1,343,1,1,1.0,1.0,0.28662965307,0,0.0,0.0,0.0,0.395495694983,0.0763259181288,0.319169776854,0.471821613112,0.0763259181288,0.356096968831,422,0.128328379107,0.451313674078,-0.730894888444,nan,nan,nan,nan,0.0,0.0,0.0,nan,191.724872618,622.254634836,622.754673039,622.541264489,nan,nan,nan,nan
1,344,0,0,1.0,0.0,0.294453592971,0,0.0,0.0,0.0,0.395178301275,0.076440264561,0.318738036714,0.471618565836,0.076440264561,0.299938494805,190,1.0,-0.0746884387243,0.407399635172,nan,nan,nan,nan,0.0,0.0,0.0,nan,191.724872618,623.254799337,623.754834689,623.54925293,nan,nan,nan,nan
1,345,1,1,1.0,1.0,0.270330040716,0,0.0,0.0,0.0,0.39488549689,0.0765214685649,0.318364028325,0.471406965455,0.0765214685649,0.283804428919,499,0.739831889234,0.263827757734,-1.0,nan,nan,nan,nan,0.0,0.0,0.0,nan,191.724872618,624.25491138,624.754929912,624.525241421,nan,nan,nan,nan
1,346,1,1,1.0,1.0,0.262170826085,0,0.0,0.0,0.0,0.394524466582,0.0767033280729,0.31782113851,0.471227794655,0.0767033280729,0.275651486591,228,0.780729811514,0.1302769546,0.611433142569,nan,nan,nan,nan,0.0,0.0,0.0,nan,191.724872618,625.255040245,625.755078448,625.517211071,nan,nan,nan,nan
1,347,1,1,1.0,1.0,0.326043001842,0,1.0,0.0,0.0,0.39414194161,0.0769212502304,0.317220691379,0.47106319184,0.0769212502304,0.286181289547,152,1.0,-0.259184487343,0.0830625546756,nan,nan,nan,nan,0.0,0.0,0.0,nan,191.724872618,626.255171675,626.755204176,626.581214677,nan,nan,nan,nan
1,348,1,1,1.0,1.0,0.317904314026,1,0.0,0.0,1.0,0.393945691063,0.0768970295471,0.317048661516,0.47084272061,0.0768970295471,0.302039380651,253,0.513865899396,0.244839928328,0.655977188727,-64.6161377362,154.616137736,-23.2744872638,220.0,0.861731547614,0.0893272636146,0.581247684387,1.21712166397,191.724872618,627.255294552,627.755335891,627.573198866,630.313987356,631.324471543,629.080502217,630.305657367
1,349,1,1,1.0,1.0,0.426620666869,0,0.0,0.0,0.0,0.393727181359,0.0768942739485,0.31683290741,0.470621455307,0.0768942739485,0.356855994246,133,1.0,-0.306259573676,-0.105336427414,nan,nan,nan,nan,0.0,0.0,0.0,nan,191.724872618,631.52249821,632.022530996,631.949118877,nan,nan,nan,nan
1,350,1,1,1.0,1.0,0.370452974923,0,0.0,0.0,0.0,0.393821432034,0.0768041587294,0.317017273304,0.470625590763,0.0768041587294,0.371659318606,215,0.910639861846,0.0628947364355,0.558695148714,nan,nan,nan,nan,0.0,0.0,0.0,nan,191.724872618,632.522631065,633.02267212,632.89308404,nan,nan,nan,nan
1,351,1,1,1.0,1.0,0.39431366697,0,0.0,0.0,0.0,0.393754665013,0.0767045021047,0.317050162909,0.470459167118,0.0767045021047,0.39712910292,101,1.0,-0.273572672894,-0.446152610616,nan,nan,nan,nan,0.0,0.0,0.0,nan,191.724872618,633.52276107,634.022795852,633.917074737,nan,nan,nan,nan
1,352,1,1,1.0,1.0,0.370203799102,0,0.0,0.0,0.0,0.393756257612,0.0765951642915,0.31716109332,0.470351421903,0.0765951642915,0.378323480332,181,1.0,-0.123914391386,0.3392011262,nan,nan,nan,nan,0.0,0.0,0.0,nan,191.724872618,634.522871688,635.022904759,634.893075487,nan,nan,nan,nan
1,353,1,1,1.0,1.0,0.442023362033,0,0.0,0.0,0.0,0.393689347218,0.0764965588777,0.31719278834,0.470185906096,0.0764965588777,0.402180276035,5,0.88714030954,0.190659852496,-1.0,nan,nan,nan,nan,0.0,0.0,0.0,nan,191.724872618,635.523012526,636.023056431,635.965035888,nan,nan,nan,nan
1,354,0,0,0.0,1.0,0.473869644105,0,0.0,0.0,0.0,0.393826270773,0.0764313137185,0.317394957054,0.470257584491,0.0764313137185,0.42869893508,267,0.362924526182,0.298807232282,0.646622522267,nan,nan,nan,nan,0.0,0.0,0.0,nan,191.724872618,636.523157926,637.023192993,636.99702757,nan,nan,nan,nan
1,355,1,1,1.0,1.0,0.345725015271,0,0.0,0.0,0.0,0.394052381997,0.0764414232536,0.317610958743,0.47049380525,0.0764414232536,0.42053934047,115,1.0,-0.305166285737,-0.293172749504,nan,nan,nan,nan,0.0,0.0,0.0,nan,191.724872618,637.523272535,638.023310169,637.868997551,nan,nan,nan,nan
1,356,1,1,1.0,1.0,0.401576533914,0,0.0,0.0,0.0,0.39391624857,0.0763766433644,0.317539605205,0.470292891934,0.0763766433644,0.40705706443,487,0.639529740128,0.306295026098,-1.0,nan,nan,nan,nan,0.0,0.0,0.0,nan,191.724872618,638.523406532,639.02343276,638.924983066,nan,nan,nan,nan
1,357,1,1,1.0,1.0,0.481428442523,0,0.0,0.0,0.0,0.393937766225,0.0762703749065,0.317667391318,0.470208141131,0.0762703749065,0.409576663903,394,-0.0437090198531,0.474655926729,-0.339401417396,nan,nan,nan,nan,0.0,0.0,0.0,nan,191.724872618,639.523530834,640.023554497,640.004959277,nan,nan,nan,nan
1,358,1,1,1.0,1.0,0.369271244388,0,0.0,0.0,0.0,0.394182838147,0.0763037151276,0.31787912302,0.470486553275,0.0763037151276,0.417425406942,253,0.513865899396,0.244839928328,0.655977188727,nan,nan,nan,nan,0.0,0.0,0.0,nan,191.724872618,640.523674808,641.023672528,640.892946053,nan,nan,nan,nan
