block,trial,time,setsize,freqtrials,trials_colorind,trials_colordeg,colorrgb0,colorrgb1,colorrgb2,correct_response,actual_response,acc,rts,probe_trials,rt_triggered_fast,rt_triggered_slow,rt_strailingavg,rts_runningavg,rts_runningstd,rts_runningslowthresh,rts_runningfastthresh,wm_respdeg,wm_respind,wm_resprgb0,wm_resprgb1,wm_resprgb2,wm_respcolorminusorigcolor,wm_rts,time_blockstart,time_encarray_onset,time_response,time_encarray_offest,time_memprobe_onset,time_memprobe_offset
0,0,4224,6,1,115,80,1.0,-0.305166285737,-0.293172749504,1,1.0,1.0,0.399025193416,0,nan,nan,nan,nan,nan,nan,nan,nan,nan,0.0,0.0,0.0,nan,nan,191.724872618,192.749861728,193.148886921,193.24989822,nan,nan
0,1,4225,6,1,313,220,-0.0530221528698,0.42279583272,0.448797959603,1,1.0,1.0,0.340442722663,0,nan,nan,nan,nan,nan,nan,nan,nan,nan,0.0,0.0,0.0,nan,nan,191.724872618,193.752431029,194.092873752,194.258401833,nan,nan
0,2,4226,6,1,483,339,0.606025706087,0.319314454546,-1.0,1,1.0,1.0,0.310715857893,0,nan,nan,nan,nan,nan,nan,nan,nan,nan,0.0,0.0,0.0,nan,nan,191.724872618,194.750132571,195.060848428,195.250185599,nan,nan
0,3,4227,6,1,53,37,1.0,-0.049257555853,-1.0,1,1.0,1.0,0.318598242477,0,nan,nan,nan,nan,nan,nan,nan,nan,nan,0.0,0.0,0.0,nan,nan,191.724872618,195.750254307,196.06885255,196.250300494,nan,nan
0,4,4228,6,1,189,132,1.0,-0.0802194643608,0.400143472992,1,1.0,1.0,0.422457668465,0,nan,nan,nan,nan,nan,nan,nan,nan,nan,0.0,0.0,0.0,nan,nan,191.724872618,196.750364355,197.172822024,197.250404839,nan,nan
0,5,4229,6,1,20,14,1.0,0.121558187834,-1.0,1,1.0,1.0,0.398313019425,0,nan,nan,nan,nan,nan,nan,nan,nan,nan,0.0,0.0,0.0,nan,nan,191.724872618,197.750495215,198.148808234,198.250537409,nan,nan
0,6,4230,6,1,154,108,1.0,-0.251813147593,0.102138173725,1,1.0,1.0,0.422140069772,0,nan,nan,nan,nan,nan,nan,nan,nan,nan,0.0,0.0,0.0,nan,nan,191.724872618,198.750643751,199.172783821,199.250673972,nan,nan
0,7,4231,6,1,300,210,0.0433537089178,0.395748422077,0.528951029102,1,1.0,1.0,0.405997830909,0,nan,nan,nan,nan,nan,nan,nan,nan,nan,0.0,0.0,0.0,nan,nan,191.724872618,199.750766913,200.156764744,200.250788296,nan,nan
0,8,4232,6,0,162,113,1.0,-0.218739557155,0.176632971453,0,0.0,1.0,0.453829833306,0,nan,nan,nan,nan,nan,nan,nan,nan,nan,0.0,0.0,0.0,nan,nan,191.724872618,200.750914879,201.204744712,201.250951942,nan,nan
0,9,4233,6,1,408,286,0.036737934283,0.465637664749,-0.515938449969,1,1.0,1.0,0.42971768463,0,nan,nan,nan,nan,nan,nan,nan,nan,nan,0.0,0.0,0.0,nan,nan,191.724872618,201.751017229,202.180734914,202.25104802,nan,nan
0,10,4234,6,1,57,40,1.0,-0.0707313323512,-1.0,1,1.0,1.0,0.42155875545,0,nan,nan,nan,nan,nan,nan,nan,nan,nan,0.0,0.0,0.0,nan,nan,191.724872618,202.751158352,203.172717108,203.251175744,nan,nan
0,11,4235,6,1,452,317,0.351738073422,0.401406211611,-1.0,1,1.0,1.0,0.413394123781,0,nan,nan,nan,nan,nan,nan,nan,nan,nan,0.0,0.0,0.0,nan,nan,191.724872618,203.751317437,204.164711561,204.251304608,nan,nan
0,12,4236,6,1,22,15,1.0,0.111842423158,-1.0,1,1.0,1.0,0.413289492484,0,nan,nan,nan,nan,nan,nan,nan,nan,nan,0.0,0.0,0.0,nan,nan,191.724872618,204.751395554,205.164685047,205.251454569,nan,nan
0,13,4237,6,1,183,128,1.0,-0.113108999915,0.354902835149,1,1.0,1.0,0.381107935682,0,nan,nan,nan,nan,nan,nan,nan,nan,nan,0.0,0.0,0.0,nan,nan,191.724872618,205.751546656,206.132654591,206.2515592,nan,nan
0,14,4238,6,1,347,243,-0.174938837379,0.46723881498,0.167157479366,1,1.0,1.0,0.38900172431,0,nan,nan,nan,nan,nan,nan,nan,nan,nan,0.0,0.0,0.0,nan,nan,191.724872618,206.751649861,207.140651586,207.251685499,nan,nan
0,15,4239,6,1,182,127,1.0,-0.118523835432,0.347089474713,1,1.0,1.0,0.40484546544,0,nan,nan,nan,nan,nan,nan,nan,nan,nan,0.0,0.0,0.0,nan,nan,191.724872618,207.751777015,208.156622481,208.251814078,nan,nan
0,16,4240,6,1,363,255,-0.162287729338,0.476365729747,0.00704812682028,1,1.0,1.0,0.3953303257,0,nan,nan,nan,nan,nan,nan,nan,nan,nan,0.0,0.0,0.0,nan,nan,191.724872618,208.785289124,209.180619449,209.285305374,nan,nan
0,17,4241,6,0,97,68,1.0,-0.260369742894,-0.491718830742,0,0.0,1.0,0.491170805413,0,nan,nan,nan,nan,nan,nan,nan,nan,nan,0.0,0.0,0.0,nan,nan,191.724872618,209.785420554,210.276591359,210.293774775,nan,nan
0,18,4242,6,1,236,165,0.697004556276,0.169301754335,0.634065852989,1,1.0,1.0,0.500247179531,0,nan,nan,nan,nan,nan,nan,nan,nan,nan,0.0,0.0,0.0,nan,nan,191.724872618,210.785486126,211.285733306,211.285580778,nan,nan
0,19,4243,6,1,418,293,0.101175887384,0.455961754156,-0.661679309199,1,1.0,1.0,0.506944412831,0,nan,nan,nan,nan,nan,nan,nan,nan,nan,0.0,0.0,0.0,nan,nan,191.724872618,211.785614705,212.292559118,212.285706507,nan,nan
0,20,4244,6,0,53,37,1.0,-0.049257555853,-1.0,0,0.0,1.0,0.506736291107,0,nan,nan,nan,nan,nan,nan,nan,nan,nan,0.0,0.0,0.0,nan,nan,191.724872618,212.785791181,213.292527472,213.28583423,nan,nan
0,21,4245,6,1,408,286,0.036737934283,0.465637664749,-0.515938449969,1,1.0,1.0,0.418650187552,0,nan,nan,nan,nan,nan,nan,nan,nan,nan,0.0,0.0,0.0,nan,nan,191.724872618,213.785869298,214.204519485,214.285900088,nan,nan
0,22,4246,6,1,209,146,0.967301840512,0.0304835193525,0.52804999659,1,1.0,1.0,0.41049296828,0,nan,nan,nan,nan,nan,nan,nan,nan,nan,0.0,0.0,0.0,nan,nan,191.724872618,214.786009851,215.196502819,215.286048909,nan,nan
0,23,4247,6,1,322,226,-0.105067232891,0.43811622051,0.383559350674,1,1.0,1.0,0.410364959389,0,nan,nan,nan,nan,nan,nan,nan,nan,nan,0.0,0.0,0.0,nan,nan,191.724872618,215.786123605,216.196488564,216.286204573,nan,nan
0,24,4248,6,1,464,326,0.448404880525,0.373503555275,-1.0,1,1.0,1.0,0.434222800657,0,nan,nan,nan,nan,nan,nan,nan,nan,nan,0.0,0.0,0.0,nan,nan,191.724872618,216.786250758,217.220473559,217.286292953,nan,nan
0,25,4249,6,1,329,231,-0.136053278316,0.448203788942,0.3278337444,1,1.0,1.0,0.426063300576,0,nan,nan,nan,nan,nan,nan,nan,nan,nan,0.0,0.0,0.0,nan,nan,191.724872618,217.786397014,218.212460314,218.2864164,nan,nan
0,26,4250,6,1,109,76,1.0,-0.294638327523,-0.357773695079,1,1.0,1.0,0.521896652877,0,nan,nan,nan,nan,nan,nan,nan,nan,nan,0.0,0.0,0.0,nan,nan,191.724872618,218.786519891,219.308416544,219.286598863,nan,nan
0,27,4251,6,1,390,274,-0.0641960347588,0.476284203309,-0.291947553613,1,1.0,1.0,0.553750632796,0,nan,nan,nan,nan,nan,nan,nan,nan,nan,0.0,0.0,0.0,nan,nan,191.724872618,219.786654742,220.340405375,220.286730863,nan,nan
0,28,4252,6,1,222,156,0.841778467246,0.0997291618919,0.589484691865,1,1.0,1.0,0.625604692381,0,nan,nan,nan,nan,nan,nan,nan,nan,nan,0.0,0.0,0.0,nan,nan,191.724872618,220.786785887,221.412390579,221.286854596,nan,nan
0,29,4253,6,1,433,304,0.206536295144,0.436163724167,-1.0,1,1.0,1.0,0.433485252317,0,nan,nan,nan,nan,nan,nan,nan,nan,nan,0.0,0.0,0.0,nan,nan,191.724872618,221.786901922,222.220387174,222.286931857,nan,nan
0,30,4254,6,1,476,334,0.547545041103,0.340739382997,-1.0,1,1.0,1.0,0.289299879689,0,nan,nan,nan,nan,nan,nan,nan,nan,nan,0.0,0.0,0.0,nan,nan,191.724872618,222.787047607,223.076347487,223.287066138,nan,nan
0,31,4255,6,1,172,120,1.0,-0.170984061773,0.265024678188,1,1.0,1.0,0.321188070811,0,nan,nan,nan,nan,nan,nan,nan,nan,nan,0.0,0.0,0.0,nan,nan,191.724872618,223.787155944,224.108344015,224.287190156,nan,nan
0,32,4256,6,0,381,267,-0.105403061426,0.478425078289,-0.188431136224,0,1.0,0.0,0.289008224849,0,0.0,0.0,nan,nan,nan,nan,nan,nan,nan,0.0,0.0,0.0,nan,nan,191.724872618,224.787325862,225.076334087,225.287349525,nan,nan
0,33,4257,6,1,203,142,1.0,-0.00249325098487,0.493674673203,1,1.0,1.0,0.37688506674,0,nan,nan,nan,nan,nan,nan,nan,nan,nan,0.0,0.0,0.0,nan,nan,191.724872618,225.787418519,226.164303586,226.287443608,nan,nan
0,34,4258,6,1,325,228,-0.119404900653,0.442631039184,0.360186421743,1,1.0,1.0,0.376755062491,0,nan,nan,nan,nan,nan,nan,nan,nan,nan,0.0,0.0,0.0,nan,nan,191.724872618,226.787525431,227.164280493,227.287579029,nan,nan
0,35,4259,6,1,399,280,-0.0164460389312,0.472031251936,-0.400274523968,1,1.0,1.0,0.392604220193,0,nan,nan,nan,nan,nan,nan,nan,nan,nan,0.0,0.0,0.0,nan,nan,191.724872618,227.787665984,228.180270204,228.287702477,nan,nan
0,36,4300,6,1,465,326,0.456588679398,0.37096152752,-1.0,1,1.0,1.0,0.312448967714,0,nan,nan,nan,nan,nan,nan,nan,nan,nan,0.0,0.0,0.0,nan,nan,191.724872618,228.787789146,229.100238114,229.287826494,nan,nan
0,37,4301,6,1,254,178,0.503011129055,0.248947817922,0.65613358125,1,1.0,1.0,0.328319222666,0,nan,nan,nan,nan,nan,nan,nan,nan,nan,0.0,0.0,0.0,nan,nan,191.724872618,229.787919151,230.116238374,230.287958209,nan,nan
0,38,4302,6,1,111,78,1.0,-0.298677811705,-0.336106236365,1,1.0,1.0,0.328176103532,0,nan,nan,nan,nan,nan,nan,nan,nan,nan,0.0,0.0,0.0,nan,nan,191.724872618,230.788050581,231.116226685,231.288098192,nan,nan
0,39,4303,6,1,291,204,0.122027637739,0.373441943191,0.573791926984,1,1.0,1.0,0.282997507136,0,nan,nan,nan,nan,nan,nan,nan,nan,nan,0.0,0.0,0.0,nan,nan,191.724872618,231.849208056,232.132205563,232.354879506,nan,nan
0,40,4312,6,1,189,132,1.0,-0.0802194643608,0.400143472992,1,1.0,1.0,0.301547966897,1,nan,nan,nan,nan,nan,nan,nan,-74.3071657231,234.0,0.71814774995,0.15974031316,0.62913160129,31.4165407231,5.80940697389,191.724872618,232.846644456,233.148192423,233.346680949,234.671836155,240.489262361
0,41,4313,6,1,418,293,0.101175887384,0.455961754156,-0.661679309199,1,1.0,1.0,0.569913683459,0,nan,nan,nan,nan,nan,nan,nan,nan,nan,0.0,0.0,0.0,nan,nan,191.724872618,241.706105199,242.276018883,242.206174763,nan,nan
0,42,4314,6,1,65,45,1.0,-0.113312155659,-1.0,1,1.0,1.0,0.401762417983,0,nan,nan,nan,nan,nan,nan,nan,nan,nan,0.0,0.0,0.0,nan,nan,191.724872618,242.706240905,243.108003323,243.206273692,nan,nan
0,43,4315,6,1,506,355,0.797774742377,0.236703125255,-1.0,1,1.0,1.0,0.321607735008,0,nan,nan,nan,nan,nan,nan,nan,nan,nan,0.0,0.0,0.0,nan,nan,191.724872618,243.706380033,244.027987768,244.20638488,nan,nan
0,44,4316,6,1,367,258,-0.15309091083,0.477560897992,-0.0350816338538,1,1.0,1.0,0.321500538383,0,nan,nan,nan,nan,nan,nan,nan,nan,nan,0.0,0.0,0.0,nan,nan,191.724872618,244.706490366,245.027990905,245.206519446,nan,nan
0,45,4317,6,0,109,76,1.0,-0.294638327523,-0.357773695079,0,0.0,1.0,0.449331559706,0,nan,nan,nan,nan,nan,nan,nan,nan,nan,0.0,0.0,0.0,nan,nan,191.724872618,245.706637477,246.155969036,246.206669978,nan,nan
0,46,4318,6,1,270,189,0.331159066004,0.309369715406,0.641393874915,1,1.0,1.0,0.32920160098,0,nan,nan,nan,nan,nan,nan,nan,nan,nan,0.0,0.0,0.0,nan,nan,191.724872618,246.70674895,247.035950551,247.20677803,nan,nan
0,47,4319,6,1,329,231,-0.136053278316,0.448203788942,0.3278337444,1,1.0,1.0,0.321048658341,0,nan,nan,nan,nan,nan,nan,nan,nan,nan,0.0,0.0,0.0,nan,nan,191.724872618,247.706862989,248.027911647,248.206888078,nan,nan
0,48,4320,6,0,86,60,1.0,-0.21659106269,-0.625617802914,0,0.0,1.0,0.440879264846,0,nan,nan,nan,nan,nan,nan,nan,nan,nan,0.0,0.0,0.0,nan,nan,191.724872618,248.707020363,249.147899628,249.207046022,nan,nan
0,49,4321,6,1,42,29,1.0,0.00954878589686,-1.0,1,1.0,1.0,0.368760063779,0,nan,nan,nan,nan,nan,nan,nan,nan,nan,0.0,0.0,0.0,nan,nan,191.724872618,249.707129841,250.075889905,250.207154929,nan,nan
0,50,4322,6,1,448,315,0.32026743599,0.409662251776,-1.0,1,1.0,1.0,0.368641463108,0,nan,nan,nan,nan,nan,nan,nan,nan,nan,0.0,0.0,0.0,nan,nan,191.724872618,250.707241314,251.075882777,251.207280657,nan,nan
0,51,4323,6,1,253,177,0.513865899396,0.244839928328,0.655977188727,1,1.0,1.0,0.392495597713,0,nan,nan,nan,nan,nan,nan,nan,nan,nan,0.0,0.0,0.0,nan,nan,191.724872618,251.707367897,252.099863495,252.207405245,nan,nan
0,52,4328,6,1,510,358,0.830554458933,0.220436700166,-1.0,1,1.0,1.0,0.320341615472,1,nan,nan,nan,nan,nan,nan,nan,94.1408860035,506.0,0.797774742377,0.236703125255,-1.0,-2.73463600352,1.80888495967,191.724872618,252.70749277,253.027834386,253.207535535,254.532701006,256.349624299
0,53,4329,6,1,377,265,-0.121259861678,0.478700828387,-0.143695900877,1,1.0,1.0,0.493252874818,0,nan,nan,nan,nan,nan,nan,nan,nan,nan,0.0,0.0,0.0,nan,nan,191.724872618,257.566467137,258.059720011,258.074814231,nan,nan
0,54,4330,6,1,252,177,0.524721685615,0.240693665738,0.655694012224,1,1.0,1.0,0.445122660138,0,nan,nan,nan,nan,nan,nan,nan,nan,nan,0.0,0.0,0.0,nan,nan,191.724872618,258.566588018,259.011710678,259.066611111,nan,nan
0,55,4331,6,1,192,135,1.0,-0.0635997558896,0.421658406928,1,1.0,1.0,0.39700071374,0,nan,nan,nan,nan,nan,nan,nan,nan,nan,0.0,0.0,0.0,nan,nan,191.724872618,259.566720589,259.963721302,260.066761643,nan,nan
0,56,4332,6,1,237,166,0.686387300223,0.174031846447,0.636349816437,1,1.0,1.0,0.380859045777,0,nan,nan,nan,nan,nan,nan,nan,nan,nan,0.0,0.0,0.0,nan,nan,191.724872618,260.566824934,260.94768398,261.066863993,nan,nan
0,57,4333,6,0,432,303,0.199227897075,0.437687328843,-1.0,0,0.0,1.0,0.436684050132,0,nan,nan,nan,nan,nan,nan,nan,nan,nan,0.0,0.0,0.0,nan,nan,191.724872618,261.566994567,262.003678618,262.067024217,nan,nan
0,58,4334,6,1,502,352,0.764740937618,0.25241357569,-1.0,1,1.0,1.0,0.364551165141,0,nan,nan,nan,nan,nan,nan,nan,nan,nan,0.0,0.0,0.0,nan,nan,191.724872618,262.567106611,262.931657776,263.067124572,nan,nan
0,59,4339,6,1,171,120,1.0,-0.176011872558,0.256450910142,1,1.0,1.0,0.448590590153,1,nan,nan,nan,nan,nan,nan,nan,-88.9723832136,255.0,0.492159363509,0.253017189294,0.656163111527,58.7380082136,1.65047605662,191.724872618,263.57903938,264.027629971,264.083936505,265.400777975,267.059315172
0,60,4340,6,1,61,42,1.0,-0.0921163965413,-1.0,1,1.0,1.0,0.439686415251,0,nan,nan,nan,nan,nan,nan,nan,nan,nan,0.0,0.0,0.0,nan,nan,191.724872618,268.267834865,268.70752128,268.767866796,nan,nan
0,61,4341,6,0,292,205,0.112881669716,0.376069582356,0.569261850688,0,0.0,1.0,0.487568594515,0,nan,nan,nan,nan,nan,nan,nan,nan,nan,0.0,0.0,0.0,nan,nan,191.724872618,269.267969716,269.75553831,269.776332491,nan,nan
0,62,4342,6,1,510,358,0.830554458933,0.220436700166,-1.0,1,1.0,1.0,0.343444802798,0,nan,nan,nan,nan,nan,nan,nan,nan,nan,0.0,0.0,0.0,nan,nan,191.724872618,270.268086891,270.611531694,270.768124524,nan,nan
0,63,4343,6,1,105,73,1.0,-0.285049837405,-0.401580786678,1,1.0,1.0,0.439274448901,0,nan,nan,nan,nan,nan,nan,nan,nan,nan,0.0,0.0,0.0,nan,nan,191.724872618,271.268214045,271.707488494,271.768247971,nan,nan
0,64,4344,6,1,421,296,0.121471671064,0.452518040197,-0.712610339232,1,1.0,1.0,0.407148770988,0,nan,nan,nan,nan,nan,nan,nan,nan,nan,0.0,0.0,0.0,nan,nan,191.724872618,272.268340343,272.675489114,272.768352888,nan,nan
0,65,4345,6,1,255,179,0.492159363509,0.253017189294,0.656163111527,1,1.0,1.0,0.430997774005,0,nan,nan,nan,nan,nan,nan,nan,nan,nan,0.0,0.0,0.0,nan,nan,191.724872618,273.268454667,273.699452441,273.768484603,nan,nan
0,66,4346,6,1,421,296,0.121471671064,0.452518040197,-0.712610339232,1,1.0,1.0,0.454823113978,0,nan,nan,nan,nan,nan,nan,nan,nan,nan,0.0,0.0,0.0,nan,nan,191.724872618,274.268632283,274.723455397,274.76860748,nan,nan
0,67,4347,6,1,237,166,0.686387300223,0.174031846447,0.636349816437,1,1.0,1.0,0.422677479219,0,nan,nan,nan,nan,nan,nan,nan,nan,nan,0.0,0.0,0.0,nan,nan,191.724872618,275.268734918,275.691412398,275.768742331,nan,nan
0,68,4348,6,1,101,71,1.0,-0.273572672894,-0.446152610616,1,1.0,1.0,0.47057562368,0,nan,nan,nan,nan,nan,nan,nan,nan,nan,0.0,0.0,0.0,nan,nan,191.724872618,276.268824439,276.739400063,276.768878893,nan,nan
0,69,4349,6,1,235,165,0.707591924495,0.164537776567,0.631659631194,1,1.0,1.0,0.374435506295,0,nan,nan,nan,nan,nan,nan,nan,nan,nan,0.0,0.0,0.0,nan,nan,191.724872618,277.268968129,277.643403635,277.769011464,nan,nan
0,70,4350,6,1,328,230,-0.132159558243,0.44685796506,0.336046158271,1,1.0,1.0,0.350288575981,0,nan,nan,nan,nan,nan,nan,nan,nan,nan,0.0,0.0,0.0,nan,nan,191.724872618,278.26910469,278.619393266,278.769116665,nan,nan
0,71,4356,6,1,432,303,0.199227897075,0.437687328843,-1.0,1,1.0,1.0,0.446138749365,1,nan,nan,nan,nan,nan,nan,nan,165.39018057,405.0,0.018463324075,0.468009379796,-0.476293327428,-19.1401805703,3.05073201703,191.724872618,279.269226427,279.715365177,279.769243818,281.09441385,284.153157402
0,72,4357,6,1,96,67,1.0,-0.25681952169,-0.503302481145,1,1.0,1.0,0.449239187874,0,nan,nan,nan,nan,nan,nan,nan,nan,nan,0.0,0.0,0.0,nan,nan,191.724872618,285.369992542,285.81923173,285.870045285,nan,nan
0,73,4358,6,1,5,3,0.88714030954,0.190659852496,-1.0,1,1.0,1.0,0.321105963085,0,nan,nan,nan,nan,nan,nan,nan,nan,nan,0.0,0.0,0.0,nan,nan,191.724872618,286.370125683,286.691231646,286.870154193,nan,nan
0,74,4359,6,1,52,36,1.0,-0.0438860552364,-1.0,1,1.0,1.0,0.312972121872,0,nan,nan,nan,nan,nan,nan,nan,nan,nan,0.0,0.0,0.0,nan,nan,191.724872618,287.370245139,287.683217261,287.870287333,nan,nan
0,75,4400,6,1,167,117,1.0,-0.195605812978,0.221546716301,1,1.0,1.0,0.344835510012,0,nan,nan,nan,nan,nan,nan,nan,nan,nan,0.0,0.0,0.0,nan,nan,191.724872618,288.370367731,288.715203241,288.87040964,nan,nan
0,76,4401,6,1,438,307,0.243622561222,0.428096439079,-1.0,1,1.0,1.0,0.344679561444,0,nan,nan,nan,nan,nan,nan,nan,nan,nan,0.0,0.0,0.0,nan,nan,191.724872618,289.37051142,289.715190982,289.870531947,nan,nan
0,77,4402,6,1,138,97,1.0,-0.29832987918,-0.0546508148191,1,1.0,1.0,0.296511143912,0,nan,nan,nan,nan,nan,nan,nan,nan,nan,0.0,0.0,0.0,nan,nan,191.724872618,290.370648552,290.667159696,290.870662237,nan,nan
0,78,4403,6,1,340,239,-0.166837174664,0.460980112934,0.232376404312,1,1.0,1.0,0.376372746192,0,nan,nan,nan,nan,nan,nan,nan,nan,nan,0.0,0.0,0.0,nan,nan,191.724872618,291.370769719,291.747142465,291.870792812,nan,nan
0,79,4404,6,1,490,344,0.664660387652,0.296157848571,-1.0,1,1.0,1.0,0.416230562143,0,nan,nan,nan,nan,nan,nan,nan,nan,nan,0.0,0.0,0.0,nan,nan,191.724872618,292.370898013,292.787128575,292.870921106,nan,nan
0,80,4405,6,1,84,59,1.0,-0.20765784414,-0.652191087791,1,1.0,1.0,0.416078605223,0,0.0,0.0,0.402893971186,0.400739729055,0.0684849336071,0.469224662662,0.332254795448,nan,nan,0.0,0.0,0.0,nan,nan,191.724872618,293.371026877,293.787105482,293.871041132,nan,nan
0,81,4406,6,1,181,127,1.0,-0.123914391386,0.3392011262,1,1.0,1.0,0.431910942309,0,0.0,0.0,0.421406703225,0.400929097897,0.0680819465302,0.469011044427,0.332847151367,nan,nan,0.0,0.0,0.0,nan,nan,191.724872618,294.371176553,294.803087496,294.871190238,nan,nan
0,82,4407,6,1,379,266,-0.113535935895,0.478614986251,-0.165970515924,1,1.0,1.0,0.471799834166,0,0.0,0.0,0.439929793899,0.401306925268,0.0677509279753,0.469057853243,0.333555997292,nan,nan,0.0,0.0,0.0,nan,nan,191.724872618,295.371279473,295.843079308,295.871303422,nan,nan
0,83,4408,6,1,238,167,0.675741828754,0.178727669763,0.638511091232,1,1.0,1.0,0.559636192396,0,0.0,1.0,0.487782322957,0.402156237423,0.0677793030503,0.469935540473,0.334376934373,nan,nan,0.0,0.0,0.0,nan,nan,191.724872618,296.371412614,296.931048807,296.871478472,nan,nan
0,84,4412,6,1,451,317,0.343830962376,0.403518361206,-1.0,1,1.0,1.0,0.53551321011,1,0.0,0.0,0.522316412224,0.404030998792,0.0695058677214,0.473536866513,0.33452513107,131.185925166,453.0,0.359670421306,0.39926174925,-1.0,1.70469983429,1.73388313502,191.724872618,297.371522662,297.907035872,297.871604485,299.205057465,300.946949853
0,85,4413,6,1,25,17,1.0,0.0970682892709,-1.0,1,1.0,1.0,0.511431567371,0,0.0,0.0,0.535526989959,0.405577848337,0.0705352396784,0.476113088015,0.335042608658,nan,nan,0.0,0.0,0.0,nan,nan,191.724872618,302.155478953,302.666910521,302.655545381,nan,nan
0,86,4414,6,0,103,72,1.0,-0.279537473278,-0.423758835275,0,0.0,1.0,0.535293969791,0,0.0,0.0,0.527412915758,0.406808705535,0.0710362192357,0.47784492477,0.335772486299,nan,nan,0.0,0.0,0.0,nan,nan,191.724872618,303.1556292,303.69092317,303.655668543,nan,nan
0,87,4415,6,1,279,196,0.238157575771,0.338930353633,0.618978422254,1,1.0,1.0,0.407175569795,0,0.0,0.0,0.484633702319,0.408285547653,0.0719424365043,0.480227984157,0.336343111148,nan,nan,0.0,0.0,0.0,nan,nan,191.724872618,304.155748941,304.562924511,304.655757494,nan,nan
0,88,4416,6,1,180,126,1.0,-0.129278616986,0.331238955499,1,1.0,1.0,0.415010628756,0,0.0,0.0,0.452493389448,0.408272934268,0.0715326015038,0.479805535772,0.336740332764,nan,nan,0.0,0.0,0.0,nan,nan,191.724872618,305.155898902,305.570909531,305.655888924,nan,nan
0,89,4417,6,1,87,61,1.0,-0.220959007447,-0.612675615602,1,1.0,1.0,0.534870029427,0,0.0,0.0,0.452352075993,0.4083486387,0.071133142871,0.479481781571,0.337215495829,nan,nan,0.0,0.0,0.0,nan,nan,191.724872618,306.156002678,306.690872707,306.656050575,nan,nan
0,90,4418,6,0,138,97,1.0,-0.29832987918,-0.0546508148191,0,0.0,1.0,0.574715301394,0,0.0,0.0,0.508198653193,0.409754431931,0.0719693635982,0.481723795529,0.337785068332,nan,nan,0.0,0.0,0.0,nan,nan,191.724872618,307.156135248,307.73085055,307.656182575,nan,nan
0,91,4419,6,1,322,226,-0.105067232891,0.43811622051,0.383559350674,1,1.0,1.0,0.35062641697,0,0.0,0.0,0.486737249264,0.411567188738,0.0736099081975,0.485177096935,0.33795728054,nan,nan,0.0,0.0,0.0,nan,nan,191.724872618,308.156229616,308.506856033,308.656262687,nan,nan
0,92,4420,6,1,86,60,1.0,-0.21659106269,-0.625617802914,1,1.0,1.0,0.294451027177,0,0.0,0.0,0.406597581847,0.410904789045,0.0734809574368,0.484385746482,0.337423831608,nan,nan,0.0,0.0,0.0,nan,nan,191.724872618,309.15637302,309.450824047,309.656393262,nan,nan
0,93,4421,6,1,263,184,0.405698801511,0.284171736334,0.651829885785,1,1.0,1.0,0.334310553502,0,1.0,0.0,0.326462665883,0.409652598057,0.074065152809,0.483717750866,0.335587445248,nan,nan,0.0,0.0,0.0,nan,nan,191.724872618,310.156499318,310.490809872,310.656514144,nan,nan
0,94,4426,6,1,391,274,-0.0591907973189,0.475916278612,-0.303718712187,1,1.0,1.0,0.310155925807,1,0.0,0.0,0.312972502162,0.408851086945,0.0740745164086,0.482925603353,0.334776570536,-174.852115176,377.0,-0.121259861678,0.478700828387,-0.143695900877,-10.0697598241,1.45879110554,191.724872618,311.156629893,311.466785819,311.656648424,312.981826439,314.448664146
0,95,4427,6,1,187,131,1.0,-0.0912463489427,0.385383214542,1,1.0,1.0,0.313197919633,0,0.0,0.0,0.319221466314,0.407812190512,0.0743688810848,0.482181071596,0.333443309427,nan,nan,0.0,0.0,0.0,nan,nan,191.724872618,315.665513256,315.978711176,316.165561153,nan,nan
0,96,4428,6,1,252,177,0.524721685615,0.240693665738,0.655694012224,1,1.0,1.0,0.336705945432,0,0.0,0.0,0.320019930291,0.40682662519,0.0746015811048,0.481428206295,0.332225044085,nan,nan,0.0,0.0,0.0,nan,nan,191.724872618,316.67399007,317.010696015,317.174041102,nan,nan
0,97,4429,6,1,40,28,1.0,0.0201165467467,-1.0,1,1.0,1.0,0.408564851619,0,0.0,0.0,0.352822905562,0.406103731584,0.074553255487,0.480656987071,0.331550476097,nan,nan,0.0,0.0,0.0,nan,nan,191.724872618,317.674110951,318.082675803,318.174140316,nan,nan
0,98,4430,6,1,172,120,1.0,-0.170984061773,0.265024678188,1,1.0,1.0,0.360400710721,0,0.0,0.0,0.368557169257,0.406128845054,0.0741723188068,0.480301163861,0.331956526247,nan,nan,0.0,0.0,0.0,nan,nan,191.724872618,318.674247513,319.034648224,319.174270891,nan,nan
0,99,4431,6,1,507,356,0.805995650865,0.232688349973,-1.0,1,1.0,1.0,0.432274156716,0,0.0,0.0,0.400413239685,0.405666944707,0.0739382872888,0.479605231996,0.331728657418,nan,nan,0.0,0.0,0.0,nan,nan,191.724872618,319.674355565,320.106629722,320.174406027,nan,nan
0,100,4432,6,1,266,187,0.373577590308,0.295207490188,0.648113769863,1,1.0,1.0,0.42413660977,0,0.0,0.0,0.405603825736,0.405933016827,0.0736152855517,0.479548302379,0.332317731276,nan,nan,0.0,0.0,0.0,nan,nan,191.724872618,320.674483859,321.098620469,321.17451579,nan,nan
0,101,4433,6,1,369,259,-0.147694689129,0.477999187239,-0.0564338676883,1,1.0,1.0,0.463940257207,0,0.0,0.0,0.440117007898,0.406113250421,0.0732721170329,0.479385367454,0.332841133388,nan,nan,0.0,0.0,0.0,nan,nan,191.724872618,321.674657199,322.138597456,322.174657484,nan,nan
0,102,4434,6,1,228,160,0.780729811514,0.1302769546,0.611433142569,1,1.0,1.0,0.391844434664,0,0.0,0.0,0.42664043388,0.40668018186,0.0731343308341,0.479814512694,0.333545851026,nan,nan,0.0,0.0,0.0,nan,nan,191.724872618,322.674759549,323.066603983,323.17477694,nan,nan
0,103,4435,6,1,384,270,-0.0924750057551,0.477945316949,-0.222479273925,1,1.0,1.0,0.359691672493,0,0.0,0.0,0.405158788121,0.406536145479,0.072792980688,0.479329126167,0.333743164791,nan,nan,0.0,0.0,0.0,nan,nan,191.724872618,323.674882426,324.034574098,324.174944862,nan,nan
0,104,4436,6,1,489,343,0.656284860842,0.299572439858,-1.0,1,1.0,1.0,0.319558451883,0,0.0,0.0,0.35703151968,0.406085717854,0.0725862591932,0.478671977048,0.333499458661,nan,nan,0.0,0.0,0.0,nan,nan,191.724872618,324.675009579,324.994568031,325.175060327,nan,nan
0,105,4437,6,1,45,31,1.0,-0.0063957592436,-1.0,1,1.0,1.0,0.383402402978,0,0.0,0.0,0.354217509118,0.405261648655,0.0727269666212,0.477988615276,0.332534682034,nan,nan,0.0,0.0,0.0,nan,nan,191.724872618,325.67514158,326.058543983,326.175166668,nan,nan
0,106,4438,6,0,304,213,0.0113092810281,0.404708921832,0.506160370659,0,0.0,1.0,0.583250559866,0,0.0,0.0,0.428737138243,0.405055429356,0.0724139401117,0.477469369468,0.332641489244,nan,nan,0.0,0.0,0.0,nan,nan,191.724872618,326.675251057,327.258501617,327.175341148,nan,nan
0,107,4439,6,1,433,304,0.206536295144,0.436163724167,-1.0,1,1.0,1.0,0.327112403698,0,0.0,0.0,0.431255122181,0.406720804407,0.0740861639938,0.480806968401,0.332634640414,nan,nan,0.0,0.0,0.0,nan,nan,191.724872618,327.675387905,328.002500308,328.175421546,nan,nan
0,108,4440,6,1,82,57,1.0,-0.198479155091,-0.679872484948,1,1.0,1.0,0.462966077961,0,0.0,0.0,0.457776347175,0.405983689586,0.0741355180739,0.48011920766,0.331848171512,nan,nan,0.0,0.0,0.0,nan,nan,191.724872618,328.675531594,329.138497672,329.175542713,nan,nan
0,109,4441,6,0,363,255,-0.162287729338,0.476365729747,0.00704812682028,0,0.0,1.0,0.534801320639,0,0.0,0.0,0.441626600766,0.406506463791,0.0739943779164,0.480500841708,0.332512085875,nan,nan,0.0,0.0,0.0,nan,nan,191.724872618,329.6756673,330.210468621,330.175740285,nan,nan
0,110,4442,6,1,189,132,1.0,-0.0802194643608,0.400143472992,1,1.0,1.0,0.358660188504,0,0.0,0.0,0.452142529034,0.407672780672,0.0746569880933,0.482329768765,0.333015792578,nan,nan,0.0,0.0,0.0,nan,nan,191.724872618,330.675776207,331.034436396,331.175832372,nan,nan
0,111,4443,6,1,247,173,0.578947625354,0.219392674348,0.6523805853,1,1.0,1.0,0.358510797378,0,0.0,0.0,0.417324102173,0.407231225787,0.0744640815687,0.481695307356,0.332767144219,nan,nan,0.0,0.0,0.0,nan,nan,191.724872618,331.675907067,332.034417865,332.175925313,nan,nan
0,112,4444,6,1,337,236,-0.160643365934,0.457858386897,0.259303564052,1,1.0,1.0,0.430394791998,0,0.0,0.0,0.38252192596,0.406796221962,0.0742724427868,0.481068664749,0.332523779175,nan,nan,0.0,0.0,0.0,nan,nan,191.724872618,332.6760174,333.106412192,333.176055033,nan,nan
0,113,4445,6,0,388,272,-0.0739633693698,0.476941921698,-0.268577162136,0,1.0,0.0,0.286223389208,0,0.0,0.0,0.358376326195,0.407005058865,0.0739760957024,0.480981154568,0.333028963163,nan,nan,0.0,0.0,0.0,nan,nan,191.724872618,333.676189314,333.962412703,334.176216969,nan,nan
0,114,4446,6,1,199,139,1.0,-0.0246761787097,0.468786302982,1,1.0,1.0,0.294146827422,0,0.0,0.0,0.336921669543,0.405945570535,0.0745070663111,0.480452636846,0.331438504224,nan,nan,0.0,0.0,0.0,nan,nan,191.724872618,334.67626458,334.970411408,335.176311336,nan,nan
0,115,4447,6,1,93,65,1.0,-0.245614297951,-0.538619881923,1,1.0,1.0,0.429937494919,0,0.0,0.0,0.336769237183,0.404973407551,0.0749050881429,0.479878495694,0.330068319408,nan,nan,0.0,0.0,0.0,nan,nan,191.724872618,335.676418533,336.106356028,336.176444477,nan,nan
0,116,4448,6,0,309,217,-0.0258396312562,0.415106541901,0.475305697888,0,0.0,1.0,0.477791165002,0,0.0,0.0,0.400625162447,0.405188615201,0.0746172208797,0.479805836081,0.330571394321,nan,nan,0.0,0.0,0.0,nan,nan,191.724872618,336.676558801,337.154349966,337.176594153,nan,nan
0,117,4449,6,1,506,355,0.797774742377,0.236703125255,-1.0,1,1.0,1.0,0.421649130993,0,0.0,0.0,0.443125930304,0.405809149815,0.0745976511083,0.480406800923,0.331211498706,nan,nan,0.0,0.0,0.0,nan,nan,191.724872618,337.676674266,338.098323397,338.176712184,nan,nan
0,118,4450,6,1,72,50,1.0,-0.149607777062,-0.853203742106,1,1.0,1.0,0.413515575696,0,0.0,0.0,0.43765195723,0.405943386943,0.0742950768348,0.480238463778,0.331648310109,nan,nan,0.0,0.0,0.0,nan,nan,191.724872618,338.676796858,339.090312433,339.17681938,nan,nan
0,119,4451,6,1,215,151,0.910639861846,0.0628947364355,0.558695148714,1,1.0,1.0,0.477376062423,0,0.0,0.0,0.437513589704,0.406007018782,0.0739854830385,0.47999250182,0.332021535743,nan,nan,0.0,0.0,0.0,nan,nan,191.724872618,339.676916884,340.154292946,340.17695081,nan,nan
0,120,4452,6,1,23,16,1.0,0.106943944166,-1.0,1,1.0,1.0,0.428843859583,0,0.0,0.0,0.439911832567,0.406601760812,0.0739616706237,0.480563431436,0.332640090188,nan,nan,0.0,0.0,0.0,nan,nan,191.724872618,340.685419356,341.114263216,341.185421352,nan,nan
0,121,4453,6,1,478,336,0.56422249903,0.334793662244,-1.0,1,1.0,1.0,0.460734617431,0,0.0,0.0,0.455651513146,0.40678557981,0.0736829296652,0.480468509475,0.333102650145,nan,nan,0.0,0.0,0.0,nan,nan,191.724872618,341.685519711,342.146254328,342.185549931,nan,nan
0,122,4454,6,1,193,135,1.0,-0.0580453890011,0.428658791268,1,1.0,1.0,0.372614016291,0,0.0,0.0,0.420730831102,0.407227785036,0.0735413740539,0.48076915909,0.333686410983,nan,nan,0.0,0.0,0.0,nan,nan,191.724872618,342.685632324,343.058246341,343.185669102,nan,nan
0,123,4455,6,1,111,78,1.0,-0.298677811705,-0.336106236365,1,1.0,1.0,0.372623709496,0,0.0,0.0,0.401990781073,0.406946372282,0.07330774221,0.480254114492,0.333638630072,nan,nan,0.0,0.0,0.0,nan,nan,191.724872618,343.685753776,344.058377486,344.1858088,nan,nan
0,124,4456,6,1,49,34,1.0,-0.027785429985,-1.0,1,1.0,1.0,0.476314072963,0,0.0,0.0,0.407183932917,0.406669576615,0.0730760556175,0.479745632232,0.333593520997,nan,nan,0.0,0.0,0.0,nan,nan,191.724872618,344.685892619,345.162206692,345.185934813,nan,nan
0,125,4457,6,1,140,98,1.0,-0.294209249228,-0.0345777392028,1,1.0,1.0,0.420144669712,0,0.0,0.0,0.423027484057,0.407226732586,0.07304711801,0.480273850596,0.334179614576,nan,nan,0.0,0.0,0.0,nan,nan,191.724872618,345.686040014,346.106184684,346.186051418,nan,nan
0,126,4458,6,0,408,286,0.036737934283,0.465637664749,-0.515938449969,0,1.0,0.0,0.332000976428,0,0.0,0.0,0.409486573034,0.407329255896,0.0727656997681,0.480094955664,0.334563556128,nan,nan,0.0,0.0,0.0,nan,nan,191.724872618,346.686174865,347.018175842,347.186210788,nan,nan
0,127,4459,6,1,339,238,-0.164955840019,0.45996923152,0.241423096872,1,1.0,1.0,0.371883025859,0,0.0,0.0,0.374676224,0.406736119837,0.0727838131868,0.479519933024,0.333952306651,nan,nan,0.0,0.0,0.0,nan,nan,191.724872618,347.686259254,348.05814228,348.186299168,nan,nan
0,128,4500,6,1,508,357,0.814199817736,0.228638933499,-1.0,1,1.0,1.0,0.371723370627,0,0.0,0.0,0.358535790971,0.406463830041,0.0725638537607,0.479027683801,0.33389997628,nan,nan,0.0,0.0,0.0,nan,nan,191.724872618,348.686412067,349.058135438,349.186441432,nan,nan
0,129,4501,6,1,193,135,1.0,-0.0580453890011,0.428658791268,1,1.0,1.0,0.523562765215,0,0.0,0.0,0.422389720567,0.406194524154,0.0723462385196,0.478540762673,0.333848285634,nan,nan,0.0,0.0,0.0,nan,nan,191.724872618,349.68653865,350.210101415,350.186603368,nan,nan
0,130,4502,6,1,130,91,1.0,-0.309333154106,-0.136071487739,1,1.0,1.0,0.451431590598,0,0.0,0.0,0.448905908813,0.407097356777,0.0727933075715,0.479890664349,0.334304049206,nan,nan,0.0,0.0,0.0,nan,nan,191.724872618,350.686666659,351.13809825,351.186706573,nan,nan
0,131,4503,6,1,399,280,-0.0164460389312,0.472031251936,-0.400274523968,1,1.0,1.0,0.484136871994,0,0.0,1.0,0.486377075935,0.407435786043,0.0726175305219,0.480053316565,0.334818255521,nan,nan,0.0,0.0,0.0,nan,nan,191.724872618,351.701937069,352.186073941,352.203480588,nan,nan
0,132,4508,6,1,31,21,1.0,0.0668515730764,-1.0,1,1.0,1.0,0.450443156064,1,0.0,0.0,0.462003872885,0.408016854876,0.0726470056004,0.480663860476,0.335369849276,165.035720319,405.0,0.018463324075,0.468009379796,-0.476293327428,-96.8325953193,1.96720320173,191.724872618,352.703590921,353.154034077,353.203610023,354.537114605,356.512377522
0,133,4509,6,1,291,204,0.122027637739,0.373441943191,0.573791926984,1,0.0,0.0,0.473067664076,0,0.0,0.0,0.469215897378,0.408335849622,0.0724661184539,0.480801968076,0.335869731168,nan,nan,0.0,0.0,0.0,nan,nan,191.724872618,357.720897784,358.193965449,358.220914606,nan,nan
0,134,4510,6,1,429,301,0.177531820842,0.442080780324,-0.901885199234,1,1.0,1.0,0.408623867203,0,0.0,0.0,0.444044895781,0.408818922864,0.0724098479458,0.48122877081,0.336409074918,nan,nan,0.0,0.0,0.0,nan,nan,191.724872618,358.729335255,359.137959122,359.229381726,nan,nan
0,135,4511,6,1,182,127,1.0,-0.118523835432,0.347089474713,1,1.0,1.0,0.328440104611,0,0.0,0.0,0.403377211963,0.408817478007,0.0721411667765,0.480958644784,0.336676311231,nan,nan,0.0,0.0,0.0,nan,nan,191.724872618,359.729492343,360.057932448,360.229508024,nan,nan
0,136,4512,6,1,65,45,1.0,-0.113312155659,-1.0,1,1.0,1.0,0.504255655222,0,0.0,0.0,0.413773209012,0.408226467909,0.0722027369703,0.480429204879,0.336023730938,nan,nan,0.0,0.0,0.0,nan,nan,191.724872618,360.729620067,361.233875723,361.229676517,nan,nan
0,137,4513,6,1,438,307,0.243622561222,0.428096439079,-1.0,1,1.0,1.0,0.464150659274,0,0.0,0.0,0.432282139702,0.408927410882,0.0724016717842,0.481329082666,0.336525739098,nan,nan,0.0,0.0,0.0,nan,nan,191.724872618,361.729734962,362.193885621,362.229762331,nan,nan
0,138,4514,6,1,175,123,1.0,-0.155629953633,0.290361762956,1,1.0,1.0,0.480018063914,0,0.0,1.0,0.482808126137,0.409327579348,0.0722907672022,0.481618346551,0.337036812146,nan,nan,0.0,0.0,0.0,nan,nan,191.724872618,362.729862686,363.20988075,363.2298892,nan,nan
0,139,4519,6,1,57,40,1.0,-0.0707313323512,-1.0,1,1.0,1.0,0.447822821792,1,0.0,0.0,0.46399718166,0.409836143986,0.0722775917321,0.482113735718,0.337558552253,72.4489271635,25.0,1.0,0.0970682892709,-1.0,-22.5270521635,1.6088015968,191.724872618,363.729998678,364.177821499,364.230037736,365.555207483,367.172058532
0,140,4520,6,1,119,83,1.0,-0.309446327048,-0.250710895617,1,1.0,1.0,0.436821466777,0,0.0,0.0,0.454887450828,0.410107477398,0.0720900066233,0.482197484022,0.338017470775,nan,nan,0.0,0.0,0.0,nan,nan,191.724872618,368.388927884,368.825749351,368.888939858,nan,nan
0,141,4521,6,1,429,301,0.177531820842,0.442080780324,-0.901885199234,1,1.0,1.0,0.396680834237,0,0.0,0.0,0.427108374269,0.410296938316,0.0718688839477,0.482165822264,0.338428054368,nan,nan,0.0,0.0,0.0,nan,nan,191.724872618,369.389059884,369.785740719,369.889084403,nan,nan
0,142,4522,6,1,242,170,0.632911854383,0.197161183215,0.645921401967,1,1.0,1.0,0.372531338129,0,0.0,0.0,0.402011213048,0.410201050259,0.0716244281413,0.4818254784,0.338576622118,nan,nan,0.0,0.0,0.0,nan,nan,191.724872618,370.389202148,370.761733486,370.889202148,nan,nan
0,143,4523,6,1,163,114,1.0,-0.214247802105,0.185723682048,1,1.0,1.0,0.452390944585,0,0.0,0.0,0.407201038984,0.409937625699,0.0714425496817,0.48138017538,0.338495076017,nan,nan,0.0,0.0,0.0,nan,nan,191.724872618,371.389312481,371.841703426,371.889323315,nan,nan
0,144,4524,6,1,427,300,0.163265173604,0.444863218481,-0.840208708629,1,1.0,1.0,0.404300643597,0,0.0,0.0,0.409740975437,0.410232440413,0.0712812888823,0.481513729296,0.338951151531,nan,nan,0.0,0.0,0.0,nan,nan,191.724872618,372.389414831,372.793715475,372.889466434,nan,nan
0,145,4525,6,1,369,259,-0.147694689129,0.477999187239,-0.0564338676883,1,1.0,1.0,0.62810927676,0,0.0,1.0,0.494933621647,0.41019153147,0.0710367623325,0.481228293802,0.339154769137,nan,nan,0.0,0.0,0.0,nan,nan,191.724872618,373.389565933,374.01767521,373.889623523,nan,nan
0,146,4531,6,1,219,153,0.871627318206,0.0840881726889,0.576959667802,1,1.0,1.0,0.483972656075,1,0.0,0.0,0.505460858811,0.411684118766,0.073038975092,0.484723093858,0.338645143674,-62.0628571735,216.0,0.900975005756,0.0682271079607,0.563426584804,-1.92151782654,2.98409752874,191.724872618,374.389694227,374.873666883,374.889730434,376.223234161,379.215257409
0,147,4532,6,1,264,185,0.394966959701,0.287889713878,0.650717615019,1,1.0,1.0,0.401473613922,0,0.0,0.0,0.504518515586,0.412175877523,0.0730322405251,0.485208118048,0.339143636998,nan,nan,0.0,0.0,0.0,nan,nan,191.724872618,380.432104524,380.833578138,380.932144723,nan,nan
0,148,4533,6,1,136,95,1.0,-0.301914900238,-0.074841205769,1,1.0,1.0,0.3453158997,0,0.0,0.0,0.410254056565,0.412103564932,0.0727903720749,0.484893937006,0.339313192857,nan,nan,0.0,0.0,0.0,nan,nan,191.724872618,381.432236524,381.777552424,381.93229611,nan,nan
0,149,4534,6,0,248,174,0.568115903494,0.223728204869,0.653295769881,0,1.0,0.0,0.297140924726,0,0.0,0.0,0.347976812782,0.411655325568,0.0727503554664,0.484405681034,0.338904970101,nan,nan,0.0,0.0,0.0,nan,nan,191.724872618,382.432398175,382.7295391,382.93242697,nan,nan
0,150,4535,6,1,321,225,-0.0999433513493,0.43654647086,0.391174984052,1,1.0,1.0,0.265004983637,0,0.0,0.0,0.302487269354,0.410891896229,0.0731038367985,0.483995733027,0.33778805943,nan,nan,0.0,0.0,0.0,nan,nan,191.724872618,383.432505941,383.697510925,383.932529605,nan,nan
0,151,4536,6,1,23,16,1.0,0.106943944166,-1.0,1,1.0,1.0,0.360843182541,0,0.0,0.0,0.307663030302,0.409925757735,0.0738159375235,0.483741695258,0.336109820211,nan,nan,0.0,0.0,0.0,nan,nan,191.724872618,384.432635091,384.793478273,384.932658754,nan,nan
0,152,4537,6,1,242,170,0.632911854383,0.197161183215,0.645921401967,1,1.0,1.0,0.464698617347,0,0.0,0.0,0.363515594508,0.409602846056,0.073679646968,0.483282493024,0.335923199088,nan,nan,0.0,0.0,0.0,nan,nan,191.724872618,385.432775074,385.897473691,385.93277935,nan,nan
0,153,4538,6,0,104,73,1.0,-0.282351481576,-0.412644567278,0,0.0,1.0,0.456529139541,0,0.0,0.0,0.42735697981,0.409962949136,0.0735725439522,0.483535493088,0.336390405184,nan,nan,0.0,0.0,0.0,nan,nan,191.724872618,386.432915342,386.889444482,386.932936724,nan,nan
0,154,4539,6,1,346,243,-0.174317561957,0.466431294057,0.176670174816,1,1.0,1.0,0.328382229432,0,0.0,0.0,0.416536662107,0.410265326996,0.0734286017169,0.483693928713,0.336836725279,nan,nan,0.0,0.0,0.0,nan,nan,191.724872618,387.433019118,387.761401347,387.933062453,nan,nan
0,155,4540,6,1,49,34,1.0,-0.027785429985,-1.0,1,1.0,1.0,0.456234633457,0,0.0,0.0,0.413715334143,0.409737048947,0.0734843654795,0.483221414427,0.336252683468,nan,nan,0.0,0.0,0.0,nan,nan,191.724872618,388.433149978,388.889384611,388.933182479,nan,nan
0,156,4541,6,1,409,287,0.0429436170054,0.464793150178,-0.529461854507,1,1.0,1.0,0.448116472922,0,0.0,0.0,0.410911111937,0.410035110386,0.0733423969443,0.48337750733,0.336692713442,nan,nan,0.0,0.0,0.0,nan,nan,191.724872618,389.433277701,389.881394174,389.933299939,nan,nan
0,157,4542,6,1,267,187,0.362924526182,0.298807232282,0.646622522267,1,1.0,1.0,0.543957522605,0,0.0,0.0,0.482769542995,0.410277666835,0.073171192465,0.4834488593,0.337106474371,nan,nan,0.0,0.0,0.0,nan,nan,191.724872618,390.433403145,390.977360667,390.933459594,nan,nan
0,158,4543,6,1,198,139,1.0,-0.0302354974571,0.462326941081,1,1.0,1.0,0.43982981937,0,0.0,0.0,0.477301271632,0.411123741872,0.0737056614415,0.484829403314,0.33741808043,nan,nan,0.0,0.0,0.0,nan,nan,191.724872618,391.433530298,391.873360117,391.933547404,nan,nan
0,159,4544,6,1,373,262,-0.135407706169,0.478559568072,-0.0996974893599,1,1.0,1.0,0.383672961034,0,0.0,0.0,0.455820101003,0.41130428324,0.0735085556035,0.484812838843,0.337795727636,nan,nan,0.0,0.0,0.0,nan,nan,191.724872618,392.433669141,392.817342102,392.933677409,nan,nan
0,160,4545,6,1,1,0,0.854939129564,0.207877072944,-1.0,1,1.0,1.0,0.447533447761,0,0.0,0.0,0.423678742722,0.411131587476,0.0733108301137,0.48444241759,0.337820757362,nan,nan,0.0,0.0,0.0,nan,nan,191.724872618,393.433792873,393.881326321,393.933800286,nan,nan
0,161,4546,6,1,97,68,1.0,-0.260369742894,-0.491718830742,1,1.0,1.0,0.439074594993,0,0.0,0.0,0.423427001263,0.411357685987,0.0731387397217,0.484496425709,0.338218946266,nan,nan,0.0,0.0,0.0,nan,nan,191.724872618,394.442231484,394.881306079,394.942274248,nan,nan
0,162,4547,6,1,28,19,1.0,0.082066132397,-1.0,1,1.0,1.0,0.398950782605,0,0.0,0.0,0.428519608453,0.411528778018,0.0729449648726,0.484473742891,0.338583813146,nan,nan,0.0,0.0,0.0,nan,nan,191.724872618,395.44235208,395.841302863,395.94239456,nan,nan
0,163,4548,6,1,358,251,-0.170583909915,0.474268316859,0.0585874414746,1,1.0,1.0,0.382774617523,0,0.0,0.0,0.406933331707,0.411451612402,0.0727274952109,0.484179107613,0.338724117191,nan,nan,0.0,0.0,0.0,nan,nan,191.724872618,396.442500046,396.825274664,396.942554499,nan,nan
0,164,4549,6,1,115,80,1.0,-0.305166285737,-0.293172749504,1,1.0,1.0,0.406626186799,0,0.0,0.0,0.396117195642,0.411276752677,0.0725397868459,0.483816539523,0.338736965831,nan,nan,0.0,0.0,0.0,nan,nan,191.724872618,397.442641739,397.849267926,397.942681083,nan,nan
0,165,4550,6,1,242,170,0.632911854383,0.197161183215,0.645921401967,1,1.0,1.0,0.390514167957,0,0.0,0.0,0.39330499076,0.411248567429,0.0723205359783,0.483569103408,0.338928031451,nan,nan,0.0,0.0,0.0,nan,nan,191.724872618,398.442748936,398.833263104,398.942775736,nan,nan
0,166,4551,6,1,416,292,0.087881616042,0.458117504295,-0.630165317015,1,1.0,1.0,0.358350572642,0,0.0,0.0,0.385163642466,0.411123661409,0.0721202231285,0.483243884537,0.33900343828,nan,nan,0.0,0.0,0.0,nan,nan,191.724872618,399.442881221,399.801231794,399.942902889,nan,nan
0,167,4552,6,1,138,97,1.0,-0.29832987918,-0.0546508148191,1,1.0,1.0,0.342213179916,0,0.0,0.0,0.363692640172,0.410807654889,0.07201914812,0.482826803009,0.338788506769,nan,nan,0.0,0.0,0.0,nan,nan,191.724872618,400.443010371,400.785223551,400.943035175,nan,nan
0,168,4553,6,0,324,227,-0.114799643766,0.441158325109,0.368064040095,0,0.0,1.0,0.477997004986,0,0.0,0.0,0.392853585848,0.410399354443,0.0719980873614,0.482397441804,0.338401267081,nan,nan,0.0,0.0,0.0,nan,nan,191.724872618,401.443163184,401.921160189,401.943189983,nan,nan
0,169,4554,6,1,256,180,0.481312611765,0.257047908656,0.656065722404,1,1.0,1.0,0.301904909313,0,0.0,0.0,0.374038364738,0.410799340541,0.0719717290938,0.482771069634,0.338827611447,nan,nan,0.0,0.0,0.0,nan,nan,191.724872618,402.443251279,402.745156188,402.943291192,nan,nan
0,170,4555,6,1,319,224,-0.0891891826932,0.433308674125,0.406137099325,1,1.0,1.0,0.365757128224,0,0.0,0.0,0.381886347507,0.410158785063,0.0722412778586,0.482400062921,0.337917507204,nan,nan,0.0,0.0,0.0,nan,nan,191.724872618,403.443410648,403.809167777,403.943433171,nan,nan
0,171,4556,6,1,368,258,-0.150457169737,0.477793263397,-0.0457341785459,1,1.0,1.0,0.397604551166,0,0.0,0.0,0.355088862901,0.409899126251,0.0721092558146,0.482008382065,0.337789870436,nan,nan,0.0,0.0,0.0,nan,nan,191.724872618,404.443524402,404.841128953,404.943541793,nan,nan
0,172,4557,6,1,446,313,0.304696255059,0.41359904426,-1.0,1,1.0,1.0,0.413470244966,0,0.0,0.0,0.392277308119,0.409827646163,0.0719054059704,0.481733052134,0.337922240193,nan,nan,0.0,0.0,0.0,nan,nan,191.724872618,405.443651841,405.857122086,405.943689189,nan,nan
0,173,4558,6,1,14,9,0.95801504718,0.150023555696,-1.0,1,1.0,1.0,0.413313440979,0,0.0,0.0,0.40812941237,0.409848701648,0.0716978174612,0.481546519109,0.338150884186,nan,nan,0.0,0.0,0.0,nan,nan,191.724872618,406.443786692,406.857100133,406.943806934,nan,nan
0,174,4559,6,1,445,312,0.296953900578,0.415520102116,-1.0,1,1.0,1.0,0.373186207842,0,0.0,0.0,0.399989964596,0.409868613943,0.0714919721156,0.481360586058,0.338376641827,nan,nan,0.0,0.0,0.0,nan,nan,191.724872618,407.443906718,407.817092926,407.943947488,nan,nan
0,175,4600,6,1,71,49,1.0,-0.144504067012,-0.877980773838,1,1.0,1.0,0.333037592005,0,0.0,0.0,0.373179080275,0.409659000193,0.0713410189031,0.481000019097,0.33831798129,nan,nan,0.0,0.0,0.0,nan,nan,191.724872618,408.444035868,408.77707346,408.94405782,nan,nan
0,176,4601,6,1,6,4,0.895129075663,0.186272780825,-1.0,1,1.0,1.0,0.340894032735,0,0.0,0.0,0.349039277527,0.409223651283,0.0713707968958,0.480594448179,0.337852854387,nan,nan,0.0,0.0,0.0,nan,nan,191.724872618,409.444156464,409.785050497,409.944193812,nan,nan
0,177,4602,6,1,198,139,1.0,-0.0302354974571,0.462326941081,1,1.0,1.0,0.344455189537,0,0.0,0.0,0.339462271426,0.408837608241,0.0713529348795,0.48019054312,0.337484673361,nan,nan,0.0,0.0,0.0,nan,nan,191.724872618,410.528581912,410.873037102,411.027653919,nan,nan
0,178,4603,6,1,416,292,0.087881616042,0.458117504295,-0.630165317015,1,1.0,1.0,0.377239728346,0,0.0,0.0,0.354196316873,0.408475909259,0.0713147605039,0.479790669763,0.337161148755,nan,nan,0.0,0.0,0.0,nan,nan,191.724872618,411.527767103,411.905006831,412.027807016,nan,nan
0,179,4604,6,1,324,227,-0.114799643766,0.441158325109,0.368064040095,1,1.0,1.0,0.393117111176,0,0.0,0.0,0.371604009687,0.408301405455,0.0711533778791,0.479454783334,0.337148027576,nan,nan,0.0,0.0,0.0,nan,nan,191.724872618,412.527884563,412.921001674,413.027915068,nan,nan
0,180,4605,6,0,242,170,0.632911854383,0.197161183215,0.645921401967,0,0.0,1.0,0.432947558351,0,0.0,0.0,0.401101465958,0.408217048265,0.0709644297343,0.479181477999,0.33725261853,nan,nan,0.0,0.0,0.0,nan,nan,191.724872618,413.528032814,413.960980372,414.028064745,nan,nan
0,181,4606,6,1,95,66,1.0,-0.253175017597,-0.514975443931,1,1.0,1.0,0.336829392705,0,0.0,0.0,0.387631354077,0.408353680917,0.0707918617107,0.479145542628,0.337561819206,nan,nan,0.0,0.0,0.0,nan,nan,191.724872618,414.528143717,414.86497311,415.02816795,nan,nan
0,182,4607,6,1,190,133,1.0,-0.0746884387243,0.407399635172,1,1.0,1.0,0.360677825753,0,0.0,0.0,0.376818258936,0.407960690323,0.070794815974,0.478755506297,0.337165874349,nan,nan,0.0,0.0,0.0,nan,nan,191.724872618,415.528272011,415.888949837,416.028306223,nan,nan
0,183,4608,6,1,58,40,1.0,-0.0760896648475,-1.0,1,1.0,1.0,0.464493631851,0,0.0,0.0,0.38733361677,0.407702314013,0.0706871170596,0.478389431073,0.337015196954,nan,nan,0.0,0.0,0.0,nan,nan,191.724872618,416.528402871,416.992896503,417.028430525,nan,nan
0,184,4609,6,1,403,283,0.00657627305109,0.469456436931,-0.450524507496,1,1.0,1.0,0.464402115904,0,0.0,0.0,0.429857857836,0.40801096248,0.0706183120749,0.478629274555,0.337392650405,nan,nan,0.0,0.0,0.0,nan,nan,191.724872618,417.528511493,417.992913609,418.028555683,nan,nan
0,185,4610,6,1,212,149,0.93926288676,0.0467731277665,0.543851001166,1,1.0,1.0,0.360231933184,0,0.0,0.0,0.42970922698,0.408315779525,0.0705484628238,0.478864242349,0.337767316702,nan,nan,0.0,0.0,0.0,nan,nan,191.724872618,418.528653757,418.88888569,419.028689109,nan,nan
0,186,4611,6,1,399,280,-0.0164460389312,0.472031251936,-0.400274523968,1,1.0,1.0,0.320055947639,0,0.0,0.0,0.381563332242,0.408057264223,0.0704463672731,0.478503631496,0.33761089695,nan,nan,0.0,0.0,0.0,nan,nan,191.724872618,419.52880657,419.848862517,420.028797161,nan,nan
0,187,4612,6,1,469,329,0.489482198204,0.360453357602,-1.0,1,1.0,1.0,0.280000273604,0,1.0,0.0,0.320096051476,0.407586668947,0.0705502923677,0.478136961314,0.337036376579,nan,nan,0.0,0.0,0.0,nan,nan,191.724872618,420.5289112,420.808911474,421.028934293,nan,nan
0,188,4616,6,1,330,232,-0.139766326074,0.449518327743,0.319540245599,1,1.0,1.0,0.271770069841,1,0.0,0.0,0.290608763695,0.406908017908,0.070971787303,0.477879805211,0.335936230605,-152.978418409,346.0,-0.174317561957,0.466431294057,0.176670174816,10.9471684088,1.50878015766,191.724872618,421.529038639,421.800808709,422.029078552,423.36258399,424.879411034
0,189,4617,6,0,274,192,0.289344050657,0.322900892411,0.632670269059,0,0.0,1.0,0.512785497122,0,0.0,0.0,0.354851946856,0.406193002309,0.0714594872736,0.477652489583,0.334733515036,nan,nan,0.0,0.0,0.0,nan,nan,191.724872618,426.087951538,426.600737035,426.588022242,nan,nan
0,190,4618,6,1,226,158,0.801265930663,0.120208988367,0.60458276857,1,1.0,1.0,0.312683602795,0,0.0,0.0,0.365746389919,0.40675401544,0.0716872881232,0.478441303563,0.335066727317,nan,nan,0.0,0.0,0.0,nan,nan,191.724872618,427.088070709,427.400754312,427.588097223,nan,nan
0,191,4619,6,1,170,119,1.0,-0.180990482069,0.247815061387,1,1.0,1.0,0.352518326137,0,0.0,0.0,0.392662475351,0.406261500191,0.0718209559149,0.478082456106,0.334440544276,nan,nan,0.0,0.0,0.0,nan,nan,191.724872618,428.088208411,428.440726737,428.58821896,nan,nan
0,192,4620,6,1,106,74,1.0,-0.287630069369,-0.390564445695,1,1.0,1.0,0.368380028754,0,0.0,0.0,0.344527319229,0.405981587826,0.0717380572127,0.477719645038,0.334243530613,nan,nan,0.0,0.0,0.0,nan,nan,191.724872618,429.088331859,429.456711887,429.588353526,nan,nan
0,193,4621,6,1,199,139,1.0,-0.0246761787097,0.468786302982,1,1.0,1.0,0.608203746844,0,0.0,0.0,0.443034033912,0.405786761095,0.0716028746913,0.477389635786,0.334183886403,nan,nan,0.0,0.0,0.0,nan,nan,191.724872618,430.088462719,430.696666466,430.588525155,nan,nan
0,194,4622,6,1,332,233,-0.146647089803,0.45205423783,0.302714191958,1,1.0,1.0,0.424088713247,0,0.0,0.0,0.466890829615,0.406830147619,0.0728742373881,0.479704385007,0.333955910231,nan,nan,0.0,0.0,0.0,nan,nan,191.724872618,431.088587876,431.51267659,431.588606978,nan,nan
0,195,4623,6,1,456,320,0.383612429175,0.392633185378,-1.0,1,1.0,1.0,0.367923587095,0,0.0,0.0,0.466738682395,0.406918653084,0.072697592763,0.479616245847,0.334221060321,nan,nan,0.0,0.0,0.0,nan,nan,191.724872618,432.0887156,432.456639187,432.588762356,nan,nan
0,196,4624,6,1,267,187,0.362924526182,0.298807232282,0.646622522267,1,1.0,1.0,0.327779817861,0,0.0,0.0,0.373264039401,0.406719698666,0.072565106434,0.4792848051,0.334154592232,nan,nan,0.0,0.0,0.0,nan,nan,191.724872618,433.088851022,433.416630839,433.588864136,nan,nan
0,197,4625,6,1,338,237,-0.162891363375,0.458928707883,0.250399161362,1,1.0,1.0,0.327666063793,0,0.0,0.0,0.34112315625,0.406318988611,0.072597773331,0.478916761942,0.33372121528,nan,nan,0.0,0.0,0.0,nan,nan,191.724872618,434.088964776,434.416630839,434.589004689,nan,nan
0,198,4626,6,1,219,153,0.871627318206,0.0840881726889,0.576959667802,1,1.0,1.0,0.367493659724,0,0.0,0.0,0.340979847126,0.405921751617,0.0726285369513,0.478550288568,0.333293214666,nan,nan,0.0,0.0,0.0,nan,nan,191.724872618,435.089104474,435.456598133,435.589115878,nan,nan
0,199,4627,6,1,9,6,0.918933560847,0.172916688009,-1.0,1,1.0,1.0,0.431372677442,0,0.0,0.0,0.375510800319,0.405728645627,0.0724967635642,0.478225409192,0.333231882063,nan,nan,0.0,0.0,0.0,nan,nan,191.724872618,436.089211671,436.520584348,436.589257571,nan,nan
0,200,4628,6,1,318,223,-0.0835627602325,0.431640264478,0.413481556053,1,1.0,1.0,0.319212343078,0,0.0,0.0,0.372692893414,0.405856865786,0.0723379116721,0.478194777459,0.333518954114,nan,nan,0.0,0.0,0.0,nan,nan,191.724872618,437.089348517,437.40856086,437.589371895,nan,nan
0,201,4629,6,1,229,161,0.770397026975,0.135265939772,0.614681466938,1,1.0,1.0,0.286713472102,0,0.0,0.0,0.345766164207,0.405425798509,0.0724148021176,0.477840600627,0.333010996392,nan,nan,0.0,0.0,0.0,nan,nan,191.724872618,438.097839301,438.384552773,438.597835309,nan,nan
0,202,4630,6,1,339,238,-0.164955840019,0.45996923152,0.241423096872,1,1.0,1.0,0.302601118572,0,1.0,0.0,0.302842311251,0.404838113725,0.0727142606482,0.477552374373,0.332123853077,nan,nan,0.0,0.0,0.0,nan,nan,191.724872618,439.097923405,439.400524523,439.597960752,nan,nan
0,203,4636,6,1,206,144,0.994723455659,0.014051917983,0.511316161583,1,1.0,1.0,0.262433971278,1,0.0,0.0,0.283916187317,0.404334483207,0.0728872663922,0.477221749599,0.331447216815,-75.5864022988,236.0,0.697004556276,0.169301754335,0.634065852989,20.7426522988,2.02553877793,191.724872618,440.09806909,440.360503061,440.598116131,441.931619002,443.965214645
0,204,4637,6,1,16,11,0.973419431522,0.140652110383,-1.0,1,1.0,1.0,0.402688700706,0,0.0,0.0,0.322574596852,0.403638892462,0.0733807366344,0.477019629097,0.330258155828,nan,nan,0.0,0.0,0.0,nan,nan,191.724872618,445.173695278,445.576383979,445.673762847,nan,nan
0,205,4638,6,1,373,262,-0.135407706169,0.478559568072,-0.0996974893599,1,1.0,1.0,0.354564188048,0,0.0,0.0,0.339895620011,0.403634257381,0.0732015703649,0.476835827746,0.330432687016,nan,nan,0.0,0.0,0.0,nan,nan,191.724872618,446.173846095,446.528410283,446.673865767,nan,nan
0,206,4639,6,0,500,351,0.748145934353,0.260058294274,-1.0,0,1.0,0.0,0.346412100829,0,0.0,0.0,0.367888329861,0.403396053161,0.0731032822136,0.476499335374,0.330292770947,nan,nan,0.0,0.0,0.0,nan,nan,191.724872618,447.173983797,447.520395898,447.67402086,nan,nan
0,207,4640,6,1,437,307,0.23613482661,0.429770237144,-1.0,1,1.0,1.0,0.314259053208,0,0.0,0.0,0.338411780695,0.403120768367,0.0730334447016,0.476154213068,0.330087323665,nan,nan,0.0,0.0,0.0,nan,nan,191.724872618,448.174095841,448.488354894,448.674116083,nan,nan
0,208,4641,6,1,111,78,1.0,-0.298677811705,-0.336106236365,1,1.0,1.0,0.322096392512,0,0.0,0.0,0.327589182183,0.402693548582,0.0731164915579,0.47581004014,0.329577057024,nan,nan,0.0,0.0,0.0,nan,nan,191.724872618,449.174240386,449.496336778,449.674244662,nan,nan
0,209,4642,6,1,181,127,1.0,-0.123914391386,0.3392011262,1,1.0,1.0,0.32994884206,0,1.0,0.0,0.32210142926,0.402307916257,0.073153089099,0.475461005356,0.329154827158,nan,nan,0.0,0.0,0.0,nan,nan,191.724872618,450.174354425,450.504303267,450.674381794,nan,nan
0,210,4646,6,1,19,13,0.99625917486,0.126374530333,-1.0,1,1.0,1.0,0.272492222488,1,0.0,0.0,0.308179152353,0.401963349237,0.0731485169597,0.475111866196,0.328814832277,91.0139787228,511.0,0.838703193994,0.216284169582,-1.0,-14.3733537228,1.48381613707,191.724872618,451.207834032,451.480326255,451.707853134,453.033010337,454.524866803
0,211,4647,6,1,398,279,-0.0220377755791,0.472608796233,-0.387943383198,1,1.0,1.0,0.378794366959,0,0.0,0.0,0.327078477169,0.401349742001,0.0735147240066,0.474864466007,0.327835017994,nan,nan,0.0,0.0,0.0,nan,nan,191.724872618,455.733401035,456.112195402,456.233448646,nan,nan
0,212,4648,6,1,286,201,0.169078956243,0.359734776014,0.594698705761,1,1.0,1.0,0.346686935052,0,0.0,0.0,0.3326578415,0.401243348722,0.0733574164255,0.474600765148,0.327885932297,nan,nan,0.0,0.0,0.0,nan,nan,191.724872618,456.733533035,457.08021997,457.233566392,nan,nan
0,213,4649,6,1,33,23,1.0,0.0565990290419,-1.0,1,1.0,1.0,0.362535808235,0,0.0,0.0,0.362672370082,0.400987215325,0.0732799719646,0.474267187289,0.32770724336,nan,nan,0.0,0.0,0.0,nan,nan,191.724872618,457.733658763,458.096194571,458.233700958,nan,nan
0,214,4650,6,1,469,329,0.489482198204,0.360453357602,-1.0,1,1.0,1.0,0.434386446606,0,0.0,0.0,0.381203063298,0.400807535852,0.0731555718357,0.473963107688,0.327651964017,nan,nan,0.0,0.0,0.0,nan,nan,191.724872618,458.733789053,459.168175499,459.233799601,nan,nan
0,215,4651,6,1,102,71,1.0,-0.276610342793,-0.434926949461,1,1.0,1.0,0.500245184172,0,0.0,0.0,0.432389146338,0.400963716833,0.073020996173,0.473984713006,0.32794272066,nan,nan,0.0,0.0,0.0,nan,nan,191.724872618,459.733890548,460.234135732,460.233978643,nan,nan
0,216,4652,6,1,333,234,-0.149813480994,0.453275949072,0.294183738108,1,1.0,1.0,0.450089064427,0,0.0,0.0,0.461573565068,0.401423353256,0.0731628492116,0.474586202467,0.328260504044,nan,nan,0.0,0.0,0.0,nan,nan,191.724872618,460.734040794,461.184129859,461.234069589,nan,nan
0,217,4653,6,1,472,331,0.51429864939,0.352212277195,-1.0,1,1.0,1.0,0.393961856142,0,0.0,0.0,0.44809870158,0.401647619206,0.0730684540609,0.474716073267,0.328579165145,nan,nan,0.0,0.0,0.0,nan,nan,191.724872618,461.734171654,462.12813351,462.2342167,nan,nan
0,218,4654,6,1,383,269,-0.0968787136249,0.478131214543,-0.211081409456,1,1.0,1.0,0.345839624759,0,0.0,0.0,0.396630181776,0.401612363412,0.0729025231563,0.474514886568,0.328709840255,nan,nan,0.0,0.0,0.0,nan,nan,191.724872618,462.734273719,463.080113344,463.234311352,nan,nan
0,219,4655,6,1,126,88,1.0,-0.311411754845,-0.177408431044,1,1.0,1.0,0.425684690941,0,0.0,0.0,0.388495390614,0.401357693372,0.0728330164083,0.474190709781,0.328524676964,nan,nan,0.0,0.0,0.0,nan,nan,191.724872618,463.734408285,464.160092976,464.23443708,nan,nan
0,220,4656,6,1,74,52,1.0,-0.159715158178,-0.810443278181,1,1.0,1.0,0.345512046944,0,0.0,0.0,0.372345454215,0.401468270634,0.0726857209288,0.474153991563,0.328782549705,nan,nan,0.0,0.0,0.0,nan,nan,191.724872618,464.734546843,465.08005889,465.23456737,nan,nan
0,221,4657,6,1,255,179,0.492159363509,0.253017189294,0.656163111527,1,1.0,1.0,0.457379301079,0,0.0,0.0,0.409525346321,0.401215075052,0.0726182610764,0.473833336128,0.328596813975,nan,nan,0.0,0.0,0.0,nan,nan,191.724872618,465.734668009,466.192047311,466.234693383,nan,nan
0,222,4658,6,1,377,265,-0.121259861678,0.478700828387,-0.143695900877,1,1.0,1.0,0.353241619188,0,0.0,0.0,0.385377655737,0.401468067061,0.0725520697829,0.474020136844,0.328915997278,nan,nan,0.0,0.0,0.0,nan,nan,191.724872618,466.734803716,467.088045335,467.234864727,nan,nan
0,223,4659,6,1,293,206,0.103830259013,0.378659598285,0.564617056734,1,1.0,1.0,0.345104642678,0,0.0,0.0,0.385241854315,0.401251804963,0.0724608937034,0.473712698666,0.328790911259,nan,nan,0.0,0.0,0.0,nan,nan,191.724872618,467.734919466,468.080024108,468.234948831,nan,nan
0,224,4700,6,1,58,40,1.0,-0.0760896648475,-1.0,1,1.0,1.0,0.448957511224,0,0.0,0.0,0.38243459103,0.401001147988,0.0723958000918,0.47339694808,0.328605347896,nan,nan,0.0,0.0,0.0,nan,nan,191.724872618,468.73504833,469.184005841,469.235076555,nan,nan
0,225,4701,6,1,510,358,0.830554458933,0.220436700166,-1.0,1,1.0,1.0,0.542731601745,0,0.0,0.0,0.445597918549,0.40121428738,0.0723051438303,0.473519431211,0.32890914355,nan,nan,0.0,0.0,0.0,nan,nan,191.724872618,469.785246359,470.327977961,470.285255197,nan,nan
0,226,4702,6,1,335,235,-0.155595990888,0.455627721073,0.276893227044,1,1.0,1.0,0.550635083579,0,0.0,1.0,0.514108065516,0.401840470187,0.0727538626846,0.474594332872,0.329086607503,nan,nan,0.0,0.0,0.0,nan,nan,191.724872618,470.785319344,471.335954428,471.285390618,nan,nan
0,227,4707,6,1,174,122,1.0,-0.160790688716,0.281981279739,1,1.0,1.0,0.526489008684,1,0.0,0.0,0.539951898002,0.402495953066,0.0732591937573,0.475755146823,0.329236759308,-50.063616853,199.0,1.0,-0.0246761787097,0.468786302982,17.719866853,1.54217052972,191.724872618,471.785451059,472.311940068,472.285514636,473.610640763,475.16084706
0,228,4708,6,1,12,8,0.942476689623,0.159273951266,-1.0,1,1.0,1.0,0.29448866006,0,0.0,0.0,0.457204250774,0.403039782257,0.0735561396915,0.476595921948,0.329483642565,nan,nan,0.0,0.0,0.0,nan,nan,191.724872618,476.369351927,476.663840587,476.869392981,nan,nan
0,229,4709,6,1,311,218,-0.0397249783266,0.419020224334,0.462250212202,1,1.0,1.0,0.334332221188,0,0.0,0.0,0.385103296644,0.402565759889,0.0737435419999,0.476309301889,0.328822217889,nan,nan,0.0,0.0,0.0,nan,nan,191.724872618,477.369484213,477.703816434,477.869516714,nan,nan
0,230,4710,6,1,88,61,1.0,-0.225257592204,-0.599932847766,1,1.0,1.0,0.414207792841,0,0.0,0.0,0.347676224696,0.40226909233,0.0737198799239,0.475988972254,0.328549212406,nan,nan,0.0,0.0,0.0,nan,nan,191.724872618,478.369598252,478.783806045,478.8696356,nan,nan
0,231,4711,6,1,254,178,0.503011129055,0.248947817922,0.65613358125,1,1.0,1.0,0.374040360563,0,0.0,0.0,0.374193458197,0.402320775016,0.0735643157549,0.475885090771,0.328756459261,nan,nan,0.0,0.0,0.0,nan,nan,191.724872618,479.369770166,479.743810527,479.869782425,nan,nan
0,232,4712,6,1,402,282,0.000724920831492,0.470139955471,-0.437811562499,1,1.0,1.0,0.397891074419,0,0.0,0.0,0.395379742607,0.402198876678,0.0734289772422,0.47562785392,0.328769899436,nan,nan,0.0,0.0,0.0,nan,nan,191.724872618,480.369893613,480.767784688,480.86991243,nan,nan
0,233,4713,6,0,144,101,1.0,-0.284423189345,0.00519445478499,0,0.0,1.0,0.469747984782,0,0.0,0.0,0.413893139921,0.402180388256,0.0732717760523,0.475452164308,0.328908612204,nan,nan,0.0,0.0,0.0,nan,nan,191.724872618,481.370022763,481.839770747,481.870052128,nan,nan
0,234,4714,6,1,489,343,0.656284860842,0.299572439858,-1.0,1,1.0,1.0,0.277621987741,0,0.0,0.0,0.381753682314,0.402469138669,0.0732477751937,0.475716913862,0.329221363475,nan,nan,0.0,0.0,0.0,nan,nan,191.724872618,482.370134521,482.647756509,482.870171584,nan,nan
0,235,4715,6,0,105,73,1.0,-0.285049837405,-0.401580786678,0,1.0,0.0,0.253471065778,0,0.0,0.0,0.333613679434,0.401937874197,0.0735421674326,0.475480041629,0.328395706764,nan,nan,0.0,0.0,0.0,nan,nan,191.724872618,483.370270513,483.623741578,483.870308715,nan,nan
0,236,4716,6,1,511,359,0.838703193994,0.216284169582,-1.0,1,1.0,1.0,0.291301836725,0,0.0,0.0,0.274131630082,0.401308777551,0.0740171428564,0.475325920407,0.327291634694,nan,nan,0.0,0.0,0.0,nan,nan,191.724872618,484.42040753,484.711709367,484.920440032,nan,nan
0,237,4717,6,1,314,220,-0.0594438881467,0.42463230952,0.441925406839,1,1.0,1.0,0.347165899817,0,0.0,0.0,0.297312934107,0.400844613243,0.0742042255663,0.47504883881,0.326640387677,nan,nan,0.0,0.0,0.0,nan,nan,191.724872618,485.420521569,485.767687469,485.920556352,nan,nan
0,238,4718,6,1,450,316,0.335949728395,0.405598329481,-1.0,1,1.0,1.0,0.411018688697,0,0.0,0.0,0.349828808413,0.400619072431,0.0741295311456,0.474748603576,0.326489541285,nan,nan,0.0,0.0,0.0,nan,nan,191.724872618,486.420659272,486.831677961,486.920686926,nan,nan
0,239,4719,6,1,181,127,1.0,-0.123914391386,0.3392011262,1,1.0,1.0,0.306911797728,0,0.0,0.0,0.355032128748,0.400662585469,0.0739773316465,0.474639917116,0.326685253823,nan,nan,0.0,0.0,0.0,nan,nan,191.724872618,487.420756205,487.727668003,487.920804957,nan,nan
0,240,4720,6,1,465,326,0.456588679398,0.37096152752,-1.0,1,1.0,1.0,0.306735321879,0,0.0,0.0,0.341555269435,0.400271957187,0.0740696430818,0.474341600269,0.326202314105,nan,nan,0.0,0.0,0.0,nan,nan,191.724872618,488.420905597,488.727640918,488.920928974,nan,nan
0,241,4721,6,1,98,68,1.0,-0.263822910468,-0.480217789416,1,1.0,1.0,0.290236711036,0,1.0,0.0,0.301294610215,0.399883838369,0.0741599618275,0.474043800196,0.325723876541,nan,nan,0.0,0.0,0.0,nan,nan,191.724872618,489.429376423,489.719613134,489.929386401,nan,nan
0,242,4722,6,0,491,345,0.673033477965,0.292707709811,-1.0,0,1.0,0.0,0.290128088556,0,0.0,0.0,0.295700040491,0.399430751065,0.0743400856777,0.473770836743,0.325090665388,nan,nan,0.0,0.0,0.0,nan,nan,191.724872618,490.429475922,490.719604011,490.929562022,nan,nan
0,243,4723,6,1,81,56,1.0,-0.193804253699,-0.694219169772,1,1.0,1.0,0.266009668354,0,0.0,0.0,0.282124822649,0.39898094587,0.0745162286591,0.473497174529,0.324464717211,nan,nan,0.0,0.0,0.0,nan,nan,191.724872618,491.429599369,491.695609038,491.929640424,nan,nan
0,244,4724,6,0,253,177,0.513865899396,0.244839928328,0.655977188727,0,1.0,0.0,0.233812430874,0,0.0,0.0,0.263316729261,0.398435981618,0.074847038037,0.473283019655,0.323588943581,nan,nan,0.0,0.0,0.0,nan,nan,191.724872618,492.429778981,492.663591412,492.929800078,nan,nan
0,245,4725,6,1,124,87,1.0,-0.311577186586,-0.198226518473,1,1.0,1.0,0.297681755852,0,0.0,0.0,0.26583461836,0.397764048758,0.0754279653275,0.473192014085,0.32233608343,nan,nan,0.0,0.0,0.0,nan,nan,191.724872618,493.429869927,493.727551683,493.929914973,nan,nan
0,246,4726,6,1,211,148,0.948675772315,0.0413606888024,0.538689155053,1,1.0,1.0,0.40154203726,0,0.0,0.0,0.311012074662,0.397357210169,0.0755433797364,0.472900589905,0.321813830432,nan,nan,0.0,0.0,0.0,nan,nan,191.724872618,494.43000934,494.831551377,494.930023025,nan,nan
0,247,4727,6,1,387,272,-0.0787219327085,0.477231755363,-0.256974454483,1,1.0,1.0,0.409414728172,0,0.0,0.0,0.369546173761,0.397374152788,0.075390771149,0.472764923937,0.321983381639,nan,nan,0.0,0.0,0.0,nan,nan,191.724872618,495.430117677,495.839532406,495.930150463,nan,nan
0,248,4728,6,1,289,203,0.140592130943,0.368073254824,0.582505265782,1,1.0,1.0,0.425250771921,0,0.0,0.0,0.412069179118,0.397422703496,0.0752424891591,0.472665192655,0.322180214337,nan,nan,0.0,0.0,0.0,nan,nan,191.724872618,496.430262507,496.855513279,496.930277332,nan,nan
0,249,4729,6,1,124,87,1.0,-0.311577186586,-0.198226518473,1,1.0,1.0,0.500226653181,0,0.0,0.0,0.444964051091,0.397534462807,0.0751118702673,0.472646333074,0.322422592539,nan,nan,0.0,0.0,0.0,nan,nan,191.724872618,497.430382818,497.930609471,497.930448961,nan,nan
0,250,4730,6,1,255,179,0.492159363509,0.253017189294,0.656163111527,1,1.0,1.0,0.39296943089,0,0.0,0.0,0.439482285331,0.397945231568,0.0752412114185,0.473186442987,0.32270402015,nan,nan,0.0,0.0,0.0,nan,nan,191.724872618,498.430516244,498.823485675,498.930539052,nan,nan
0,251,4731,6,1,407,286,0.0305886347219,0.46645515455,-0.502577406972,1,1.0,1.0,0.416773958132,0,0.0,0.0,0.436656680734,0.397925407661,0.075091833124,0.473017240785,0.322833574537,nan,nan,0.0,0.0,0.0,nan,nan,191.724872618,499.430645964,499.847419922,499.930660503,nan,nan
0,252,4732,6,1,21,14,1.0,0.116713997928,-1.0,1,1.0,1.0,0.392684902996,0,0.0,0.0,0.400809430672,0.398000203496,0.0749520611856,0.472952264682,0.323048142311,nan,nan,0.0,0.0,0.0,nan,nan,191.724872618,500.430769696,500.823454599,500.930791934,nan,nan
0,253,4733,6,1,225,158,0.81146624694,0.115131125244,0.600981946568,1,1.0,1.0,0.376490206458,0,0.0,0.0,0.395316355862,0.397979194403,0.0748045313854,0.472783725789,0.323174663018,nan,nan,0.0,0.0,0.0,nan,nan,191.724872618,501.430927925,501.807418132,501.930919942,nan,nan
0,254,4734,6,1,460,323,0.415848916989,0.383334931935,-1.0,1,1.0,1.0,0.416381379124,0,0.0,0.0,0.395185496192,0.397894592089,0.0746692600128,0.472563852101,0.323225332076,nan,nan,0.0,0.0,0.0,nan,nan,191.724872618,502.431024858,502.847406237,502.931044815,nan,nan
0,255,4735,6,0,329,231,-0.136053278316,0.448203788942,0.3278337444,0,1.0,0.0,0.40821617702,0,0.0,0.0,0.400362587534,0.397967089293,0.074531662237,0.47249875153,0.323435427056,nan,nan,0.0,0.0,0.0,nan,nan,191.724872618,503.43117425,503.839390427,503.931199623,nan,nan
0,256,4736,6,1,28,19,1.0,0.082066132397,-1.0,1,1.0,1.0,0.424088427797,0,0.0,0.0,0.416228661314,0.398007124792,0.0743886974206,0.472395822212,0.323618427371,nan,nan,0.0,0.0,0.0,nan,nan,191.724872618,504.43127489,504.855363317,504.93131965,nan,nan
0,257,4737,6,1,316,222,-0.0718215561597,0.428203514031,0.427892255365,1,1.0,1.0,0.407921955921,0,0.0,0.0,0.413408853579,0.398108608461,0.0742615850162,0.472370193477,0.323847023445,nan,nan,0.0,0.0,0.0,nan,nan,191.724872618,505.431402898,505.839324854,505.931426276,nan,nan
0,258,4738,6,1,230,161,0.760023132926,0.140224214653,0.61781109556,1,1.0,1.0,0.279800990131,0,0.0,0.0,0.370603791283,0.398146644691,0.0741200357338,0.472266680425,0.324026608958,nan,nan,0.0,0.0,0.0,nan,nan,191.724872618,506.431534898,506.711335889,506.931552575,nan,nan
0,259,4739,6,1,145,101,1.0,-0.281667413287,0.0150551701241,1,1.0,1.0,0.431663477328,0,0.0,0.0,0.373128807793,0.397689711662,0.0743399989453,0.472029710607,0.323349712717,nan,nan,0.0,0.0,0.0,nan,nan,191.724872618,507.431666329,507.863329806,507.931680298,nan,nan
0,260,4740,6,1,319,224,-0.0891891826932,0.433308674125,0.406137099325,1,1.0,1.0,0.335179816931,0,0.0,0.0,0.34888142813,0.397820379992,0.0742266942767,0.472047074268,0.323593685715,nan,nan,0.0,0.0,0.0,nan,nan,191.724872618,508.440120619,508.775300436,508.940147134,nan,nan
0,261,4741,6,1,275,193,0.279002393219,0.326185254474,0.630178474337,1,1.0,1.0,0.303029905539,0,0.0,0.0,0.356624399933,0.397580377834,0.0741853680029,0.471765745837,0.323395009831,nan,nan,0.0,0.0,0.0,nan,nan,191.724872618,509.440250624,509.74328053,509.940277423,nan,nan
0,262,4742,6,1,180,126,1.0,-0.129278616986,0.331238955499,1,1.0,1.0,0.262862758245,0,1.0,0.0,0.300357493572,0.397219498169,0.0742728370818,0.471492335251,0.322946661087,nan,nan,0.0,0.0,0.0,nan,nan,191.724872618,510.440379203,510.703241962,510.940403722,nan,nan
0,263,4746,6,1,320,225,-0.0946500390753,0.43494401576,0.398701238857,1,1.0,1.0,0.382742401212,1,0.0,0.0,0.316211688332,0.39670863604,0.0745912595868,0.471299895627,0.322117376453,-142.781046223,331.0,-0.143297839787,0.450801753776,0.311166711333,7.78104622298,1.56717132777,191.724872618,511.440496379,511.82323878,511.940537432,513.265698057,514.840891467
0,264,4747,6,1,66,46,1.0,-0.118568705386,-1.0,1,1.0,1.0,0.525378838181,0,0.0,0.0,0.390327999213,0.396655733635,0.0744547973159,0.471110530951,0.32220093632,nan,nan,0.0,0.0,0.0,nan,nan,191.724872618,516.057747419,516.583126258,516.557831523,nan,nan
0,265,4748,6,1,201,141,1.0,-0.0135712615467,0.48142235136,1,1.0,1.0,0.413221354596,0,0.0,0.0,0.44044753133,0.3971414812,0.0747321142192,0.471873595419,0.322409366981,nan,nan,0.0,0.0,0.0,nan,nan,191.724872618,517.057892819,517.471114174,517.557930167,nan,nan
0,266,4749,6,1,146,102,1.0,-0.278792578557,0.0248813210997,1,1.0,1.0,0.389109206386,0,0.0,0.0,0.442569799721,0.397201931852,0.0745979990167,0.471799930868,0.322603932835,nan,nan,0.0,0.0,0.0,nan,nan,191.724872618,518.058017692,518.447126898,518.558036509,nan,nan
0,267,4750,6,1,73,51,1.0,-0.1546788618,-0.830916872461,1,1.0,1.0,0.324954213575,0,0.0,0.0,0.375761591519,0.397171622018,0.0744598123153,0.471631434334,0.322711809703,nan,nan,0.0,0.0,0.0,nan,nan,191.724872618,519.058147982,519.383102195,519.55817136,nan,nan
0,268,4751,6,1,366,257,-0.155593376329,0.477302029306,-0.0244766492797,1,1.0,1.0,0.332802101038,0,0.0,0.0,0.348955173666,0.396902154076,0.074451083018,0.471353237094,0.322451071058,nan,nan,0.0,0.0,0.0,nan,nan,191.724872618,520.058278271,520.391080373,520.558291101,nan,nan
0,269,4752,6,1,210,147,0.958022500947,0.0359304984579,0.533421856807,1,1.0,1.0,0.267131527886,0,1.0,0.0,0.3082959475,0.396663863916,0.0744148881542,0.471078752071,0.322248975762,nan,nan,0.0,0.0,0.0,nan,nan,191.724872618,521.099965846,521.367097374,521.600111816,nan,nan
0,270,4757,6,1,432,303,0.199227897075,0.437687328843,-1.0,1,1.0,1.0,0.298844384495,1,0.0,0.0,0.29959267114,0.396184114524,0.0746925628151,0.470876677339,0.321491551709,168.886959464,400.0,-0.0107874812989,0.471427301814,-0.412692688905,-22.6369594641,1.9005356417,191.724872618,522.100199626,522.39904401,522.600224429,523.917055065,525.825634742
0,271,4758,6,1,184,129,1.0,-0.107671891867,0.362640045218,1,1.0,1.0,0.324781444389,0,0.0,0.0,0.296919118923,0.395824927328,0.0747878764971,0.470612803825,0.321037050831,nan,nan,0.0,0.0,0.0,nan,nan,191.724872618,527.034165268,527.358946712,527.534183514,nan,nan
0,272,4759,6,1,93,65,1.0,-0.245614297951,-0.538619881923,1,1.0,1.0,0.420621353667,0,0.0,0.0,0.348082394184,0.395563738053,0.0747739975816,0.470337735634,0.320789740471,nan,nan,0.0,0.0,0.0,nan,nan,191.724872618,528.034293562,528.454914916,528.534331765,nan,nan
0,273,4800,6,1,335,235,-0.155595990888,0.455627721073,0.276893227044,1,1.0,1.0,0.435148798395,0,0.0,0.0,0.393517198817,0.39565552419,0.0746522727441,0.470307796934,0.321003251446,nan,nan,0.0,0.0,0.0,nan,nan,191.724872618,529.067777731,529.502926529,529.567807666,nan,nan
0,274,4801,6,1,19,13,0.99625917486,0.126374530333,-1.0,1,1.0,1.0,0.283024876844,0,0.0,0.0,0.379598342969,0.395799660228,0.0745539682241,0.470353628452,0.321245692003,nan,nan,0.0,0.0,0.0,nan,nan,191.724872618,530.067882362,530.350907239,530.567923416,nan,nan
0,275,4802,6,1,249,175,0.557275547736,0.228026269286,0.654084877906,1,1.0,1.0,0.274889039807,0,0.0,0.0,0.331020905015,0.395389570106,0.0747272497141,0.47011681982,0.320662320392,nan,nan,0.0,0.0,0.0,nan,nan,191.724872618,531.068010371,531.342899411,531.5680959,nan,nan
0,276,4803,6,1,128,90,1.0,-0.310663006781,-0.156689791083,1,1.0,1.0,0.282737782691,0,1.0,0.0,0.280217233114,0.394952973982,0.0749423033252,0.469895277307,0.320010670657,nan,nan,0.0,0.0,0.0,nan,nan,191.724872618,532.06813724,532.350875022,532.568169171,nan,nan
0,277,4808,6,1,403,283,0.00657627305109,0.469456436931,-0.450524507496,1,1.0,1.0,0.255129765254,1,0.0,0.0,0.270918862584,0.394547864988,0.0751090438635,0.469656908852,0.319438821125,163.17859011,408.0,0.036737934283,0.465637664749,-0.515938449969,3.46203489004,1.10875170492,191.724872618,533.095714182,533.350843947,533.601635663,534.918486541,536.035289124
0,278,4809,6,1,341,239,-0.168535884224,0.46196150489,0.223260112086,1,1.0,1.0,0.370973563753,0,0.0,0.0,0.302947037232,0.394046361032,0.0754370134621,0.469483374494,0.31860934757,nan,nan,0.0,0.0,0.0,nan,nan,191.724872618,537.243815943,537.614789507,537.743842172,nan,nan
0,279,4810,6,0,297,208,0.0686262056446,0.388646276542,0.544904663634,0,1.0,0.0,0.306826838292,0,0.0,0.0,0.310976722433,0.393963662834,0.0753143234155,0.469277986249,0.318649339419,nan,nan,0.0,0.0,0.0,nan,nan,191.724872618,538.243945663,538.550772501,538.743976738,nan,nan
0,280,4811,6,1,357,251,-0.1717918326,0.473767524415,0.068739031695,1,1.0,1.0,0.29869328253,0,0.0,0.0,0.325497894858,0.393652459889,0.075359204312,0.469011664201,0.318293255577,nan,nan,0.0,0.0,0.0,nan,nan,191.724872618,539.244053715,539.542746997,539.744100186,nan,nan
0,281,4812,6,1,129,90,1.0,-0.310070485259,-0.146368003411,1,1.0,1.0,0.362508438993,0,0.0,0.0,0.322676186605,0.393314526874,0.0754372276673,0.468751754541,0.317877299206,nan,nan,0.0,0.0,0.0,nan,nan,191.724872618,540.244186,540.606694439,540.744225059,nan,nan
0,282,4813,6,1,252,177,0.524721685615,0.240693665738,0.655694012224,1,1.0,1.0,0.482383805793,0,0.0,0.0,0.381195175772,0.393205285427,0.075325617367,0.468530902794,0.31787966806,nan,nan,0.0,0.0,0.0,nan,nan,191.724872618,541.24431686,541.726700666,541.744348791,nan,nan
0,283,4814,6,1,182,127,1.0,-0.118523835432,0.347089474713,1,1.0,1.0,0.321926474571,0,0.0,0.0,0.388939573119,0.393520403874,0.0753783910708,0.468898794945,0.318142012803,nan,nan,0.0,0.0,0.0,nan,nan,191.724872618,542.252774002,542.574700477,542.752793674,nan,nan
0,284,4815,6,1,373,262,-0.135407706169,0.478559568072,-0.0996974893599,1,1.0,1.0,0.353776747826,0,0.0,0.0,0.386029009397,0.393268312574,0.0753649772807,0.468633289854,0.317903335293,nan,nan,0.0,0.0,0.0,nan,nan,191.724872618,543.252899445,543.606676193,543.752922538,nan,nan
0,285,4816,6,1,476,334,0.547545041103,0.340739382997,-1.0,1,1.0,1.0,0.281654126476,0,0.0,0.0,0.319119116291,0.39312974568,0.0752688741804,0.46839861986,0.317860871499,nan,nan,0.0,0.0,0.0,nan,nan,191.724872618,544.253013769,544.534667896,544.753047981,nan,nan
0,286,4817,6,1,183,128,1.0,-0.113108999915,0.354902835149,1,1.0,1.0,0.313468762673,0,1.0,0.0,0.316299878992,0.392739970787,0.075424749191,0.468164719978,0.317315221596,nan,nan,0.0,0.0,0.0,nan,nan,191.724872618,545.253165156,545.566633919,545.753196802,nan,nan
0,287,4821,6,0,387,272,-0.0787219327085,0.477231755363,-0.256974454483,0,0.0,1.0,0.489327933174,1,0.0,0.0,0.361483607441,0.392463764487,0.0754379863305,0.467901750818,0.317025778157,169.67274611,399.0,-0.0164460389312,0.472031251936,-0.400274523968,8.21787889019,1.32543146703,191.724872618,546.253302288,546.742630221,546.761663352,548.086827682,549.420308887
0,288,4822,6,1,117,82,1.0,-0.307587969795,-0.271886539361,1,1.0,1.0,0.369346225169,0,0.0,0.0,0.390714307005,0.392800098406,0.075522151271,0.468322249677,0.317277947135,nan,nan,0.0,0.0,0.0,nan,nan,191.724872618,550.637170541,551.006516766,551.137191353,nan,nan
0,289,4823,6,0,65,45,1.0,-0.113312155659,-1.0,0,1.0,0.0,0.353193722665,0,0.0,0.0,0.403955960336,0.392718943136,0.0754039556513,0.468122898787,0.317314987484,nan,nan,0.0,0.0,0.0,nan,nan,191.724872618,551.637342455,551.990536178,552.137354144,nan,nan
0,290,4824,6,1,478,336,0.56422249903,0.334793662244,-1.0,1,1.0,1.0,0.537047321908,0,0.0,0.0,0.419862423247,0.392582649272,0.0753094877148,0.467892136987,0.317273161557,nan,nan,0.0,0.0,0.0,nan,nan,191.724872618,552.63742998,553.174477302,553.137497263,nan,nan
0,291,4825,6,0,328,230,-0.132159558243,0.44685796506,0.336046158271,0,0.0,1.0,0.512918067165,0,0.0,0.0,0.467719703913,0.393079091446,0.075653823997,0.468732915443,0.317425267449,nan,nan,0.0,0.0,0.0,nan,nan,191.724872618,553.637577376,554.150495443,554.137629264,nan,nan
0,292,4826,6,1,224,157,0.821619416966,0.11002478857,0.597264883709,1,1.0,1.0,0.376792409923,0,0.0,0.0,0.475585932999,0.393489498897,0.0758479691788,0.469337468076,0.317641529718,nan,nan,0.0,0.0,0.0,nan,nan,191.724872618,554.637685143,555.014477553,555.137709091,nan,nan
0,293,4827,6,1,320,225,-0.0946500390753,0.43494401576,0.398701238857,1,1.0,1.0,0.560606950428,0,0.0,0.0,0.483439142505,0.393432512245,0.0757246866751,0.46915719892,0.31770782557,nan,nan,0.0,0.0,0.0,nan,nan,191.724872618,555.637853635,556.198460586,556.137890983,nan,nan
0,294,4828,6,1,502,352,0.764740937618,0.25241357569,-1.0,1,1.0,1.0,0.448504490778,0,0.0,0.0,0.461967950376,0.394001132783,0.0762198103136,0.470220943097,0.31778132247,nan,nan,0.0,0.0,0.0,nan,nan,191.724872618,556.637942586,557.086447077,557.137967105,nan,nan
0,295,4829,6,1,454,319,0.367627362238,0.397084843583,-1.0,1,1.0,1.0,0.528342430014,0,0.0,1.0,0.51248462374,0.394185889929,0.0761564321046,0.470342322034,0.318029457824,nan,nan,0.0,0.0,0.0,nan,nan,191.724872618,557.638081429,558.166423859,558.138111649,nan,nan
0,296,4835,6,1,128,90,1.0,-0.310663006781,-0.156689791083,1,1.0,1.0,0.568196254317,1,0.0,0.0,0.515014391703,0.394639121483,0.0764251711353,0.471064292619,0.318213950348,-4.26416334915,134.0,1.0,-0.304950998219,-0.095144111098,4.26416334915,2.81732613593,191.724872618,558.638206587,559.206402841,559.138268453,560.471719722,563.297085046
0,297,4836,6,1,208,146,0.97651257568,0.025020743352,0.522574479073,1,1.0,1.0,0.372252226807,0,0.0,0.0,0.489596970379,0.395223488934,0.0769559641671,0.472179453101,0.318267524767,nan,nan,0.0,0.0,0.0,nan,nan,191.724872618,564.514005431,564.886257658,565.013992887,nan,nan
0,298,4837,6,1,387,272,-0.0787219327085,0.477231755363,-0.256974454483,1,1.0,1.0,0.332172890194,0,0.0,0.0,0.424207123773,0.395146404162,0.0768382195945,0.471984623756,0.318308184567,nan,nan,0.0,0.0,0.0,nan,nan,191.724872618,565.514102934,565.846275825,566.014091245,nan,nan
0,299,4838,6,1,68,47,1.0,-0.129018143495,-0.972903198114,1,1.0,1.0,0.276050528511,0,0.0,0.0,0.326825215171,0.394935790403,0.0767957324781,0.471731522881,0.318140057925,nan,nan,0.0,0.0,0.0,nan,nan,191.724872618,566.514205569,566.790256098,567.014224956,nan,nan
0,300,4839,6,1,133,93,1.0,-0.306259573676,-0.105336427414,1,1.0,1.0,0.283938329667,0,1.0,0.0,0.297387249457,0.394539506196,0.0769732500433,0.47151275624,0.317566256153,nan,nan,0.0,0.0,0.0,nan,nan,191.724872618,567.514332153,567.798270483,568.014360093,nan,nan
0,301,4843,6,1,3,2,0.871087178923,0.199335109687,-1.0,1,1.0,1.0,0.267769862432,1,0.0,0.0,0.275919573537,0.394172060427,0.0771083792428,0.47128043967,0.317063681184,85.1082278195,7.0,0.9030914636,0.181853060355,-1.0,2.78239718048,0.900361732114,191.724872618,568.514460447,568.782230309,569.014500931,570.348006368,571.256426105
0,302,4844,6,1,351,246,-0.175686286722,0.4701852659,0.128489978773,1,1.0,1.0,0.42116788635,0,0.0,0.0,0.32429202615,0.393753510103,0.0773223440579,0.471075854161,0.316431166045,nan,nan,0.0,0.0,0.0,nan,nan,191.724872618,572.464958627,572.886126513,572.965017642,nan,nan
0,303,4845,6,1,283,198,0.19826868328,0.351050922538,0.605825948857,1,1.0,1.0,0.325009522028,0,0.0,0.0,0.337982423604,0.393843986592,0.0772106548982,0.47105464149,0.316633331694,nan,nan,0.0,0.0,0.0,nan,nan,191.724872618,573.465095759,573.790105281,573.965109729,nan,nan
0,304,4846,6,1,72,50,1.0,-0.149607777062,-0.853203742106,1,1.0,1.0,0.300873995759,0,0.0,0.0,0.349017134712,0.393617557432,0.0771842596702,0.470801817102,0.316433297762,nan,nan,0.0,0.0,0.0,nan,nan,191.724872618,574.465209228,574.766083224,574.965246575,nan,nan
0,305,4847,6,1,189,132,1.0,-0.0802194643608,0.400143472992,1,1.0,1.0,0.308762937319,0,1.0,0.0,0.311548818368,0.393313480181,0.0772397966955,0.470553276876,0.316073683485,nan,nan,0.0,0.0,0.0,nan,nan,191.724872618,575.465344079,575.774107017,575.96537658,nan,nan
0,306,4851,6,1,342,240,-0.170052622031,0.462913557708,0.21407524247,1,1.0,1.0,0.428610079456,1,0.0,0.0,0.346082337511,0.393037171217,0.0772643205683,0.470301491786,0.315772850649,-157.418167426,352.0,-0.17544712699,0.470851603012,0.118673592819,6.94941742574,1.33379281592,191.724872618,576.465472373,576.894082453,576.965503734,578.282323536,579.624166659
0,307,4852,6,0,95,66,1.0,-0.253175017597,-0.514975443931,0,1.0,0.0,0.380921482109,0,0.0,0.0,0.372764832961,0.393153043882,0.0771650063965,0.470318050279,0.315988037486,nan,nan,0.0,0.0,0.0,nan,nan,191.724872618,580.841052832,581.221974314,581.341073644,nan,nan
0,308,4853,6,1,467,328,0.473005185182,0.365775667588,-1.0,1,1.0,1.0,0.436797519214,0,0.0,0.0,0.415443026926,0.39311333102,0.0770427789854,0.470156110005,0.316070552034,nan,nan,0.0,0.0,0.0,nan,nan,191.724872618,581.841159459,582.277956978,582.341198802,nan,nan
0,309,4854,6,1,381,267,-0.105403061426,0.478425078289,-0.188431136224,1,1.0,1.0,0.636655939743,0,0.0,0.0,0.484791647022,0.393254703797,0.0769580179974,0.470212721794,0.3162966858,nan,nan,0.0,0.0,0.0,nan,nan,191.724872618,582.841289748,583.477945688,583.341349334,nan,nan
0,310,4855,6,1,9,6,0.918933560847,0.172916688009,-1.0,1,1.0,1.0,0.388499096502,0,0.0,1.0,0.487317518486,0.394039869074,0.0780635977387,0.472103466813,0.315976271335,nan,nan,0.0,0.0,0.0,nan,nan,191.724872618,583.841418043,584.229917139,584.341468505,nan,nan
0,311,4859,6,1,283,198,0.19826868328,0.351050922538,0.605825948857,1,1.0,1.0,0.39639288513,1,0.0,0.0,0.473849307125,0.394022053085,0.077938623761,0.471960676846,0.316083429324,-114.486680932,291.0,0.122027637739,0.373441943191,0.573791926984,5.50230593172,1.20879709255,191.724872618,584.841542345,585.237935231,585.341559166,586.666730339,587.883560347
0,312,4900,6,1,334,234,-0.152796554809,0.454467054946,0.285576400052,1,1.0,1.0,0.409714366309,0,0.0,0.0,0.39820211598,0.394029651906,0.0778137372679,0.471843389174,0.316215914638,nan,nan,0.0,0.0,0.0,nan,nan,191.724872618,589.092151314,589.50186568,589.592106554,nan,nan
0,313,4901,6,1,57,40,1.0,-0.0707313323512,-1.0,1,1.0,1.0,0.409641096368,0,0.0,0.0,0.405249449269,0.394079762814,0.0776943768562,0.471774139671,0.316385385958,nan,nan,0.0,0.0,0.0,nan,nan,191.724872618,590.092207763,590.50184886,590.592230571,nan,nan
0,314,4902,6,1,273,191,0.299732959835,0.319577193062,0.635038033336,1,1.0,1.0,0.505474733654,0,0.0,0.0,0.441610065444,0.394129321202,0.0775755159715,0.471704837173,0.31655380523,nan,nan,0.0,0.0,0.0,nan,nan,191.724872618,591.092349457,591.597824191,591.592408187,nan,nan
0,315,4903,6,0,495,348,0.706485112283,0.278551693791,-1.0,0,0.0,1.0,0.457291775849,0,0.0,0.0,0.457469201957,0.394482798701,0.0777051426409,0.472187941342,0.316777656061,nan,nan,0.0,0.0,0.0,nan,nan,191.724872618,592.092486304,592.54977808,592.592514244,nan,nan
0,316,4904,6,1,67,47,1.0,-0.12380466598,-1.0,1,1.0,1.0,0.393199504819,0,0.0,0.0,0.451988671441,0.394681561287,0.0776622552067,0.472343816494,0.317019306081,nan,nan,0.0,0.0,0.0,nan,nan,191.724872618,593.092596067,593.485795571,593.59262087,nan,nan
0,317,4905,6,1,118,82,1.0,-0.308588151016,-0.261285249573,1,1.0,1.0,0.417027125601,0,0.0,0.0,0.422506135423,0.39467688603,0.0775397073173,0.472216593348,0.317137178713,nan,nan,0.0,0.0,0.0,nan,nan,191.724872618,594.09275116,594.509778285,594.592763419,nan,nan
0,318,4906,6,1,39,27,1.0,0.0253789930673,-1.0,1,1.0,1.0,0.44887853926,0,0.0,0.0,0.419701723227,0.394747169803,0.0774278063258,0.472174976128,0.317319363477,nan,nan,0.0,0.0,0.0,nan,nan,191.724872618,595.092864344,595.541742883,595.592893994,nan,nan
0,319,4907,6,0,154,108,1.0,-0.251813147593,0.102138173725,0,0.0,1.0,0.440747549292,0,0.0,0.0,0.435551071384,0.394916860616,0.0773655523198,0.472282412936,0.317551308296,nan,nan,0.0,0.0,0.0,nan,nan,191.724872618,596.093003186,596.533750736,596.593031981,nan,nan
0,320,4908,6,1,263,184,0.405698801511,0.284171736334,0.651829885785,1,1.0,1.0,0.400622596499,0,0.0,0.0,0.430082895017,0.395060081518,0.0772869175311,0.472346999049,0.317773163987,nan,nan,0.0,0.0,0.0,nan,nan,191.724872618,597.093090427,597.493713023,597.593126634,nan,nan
0,321,4909,6,1,466,327,0.464789014893,0.368385601135,-1.0,1,1.0,1.0,0.544454733375,0,0.0,0.0,0.461941626389,0.395077410225,0.0771670616391,0.472244471864,0.317910348586,nan,nan,0.0,0.0,0.0,nan,nan,191.724872618,598.09323155,598.637686283,598.593302254,nan,nan
0,322,4910,6,1,4,2,0.879126049628,0.195014037372,-1.0,1,1.0,1.0,0.43235198874,0,0.0,0.0,0.459143106205,0.395541314955,0.0774941546959,0.473035469651,0.31804716026,nan,nan,0.0,0.0,0.0,nan,nan,191.724872618,599.093344734,599.525696722,599.593387213,nan,nan
0,323,4911,6,1,394,277,-0.0437090198531,0.474655926729,-0.339401417396,1,1.0,1.0,0.448149829172,0,0.0,1.0,0.474985517096,0.39565527989,0.0774011224319,0.473056402322,0.318254157458,nan,nan,0.0,0.0,0.0,nan,nan,191.724872618,600.093518358,600.541668187,600.593527196,nan,nan
0,324,4916,6,1,161,113,1.0,-0.223158351501,0.167490545043,1,1.0,1.0,0.464001838118,1,0.0,0.0,0.448167885343,0.395817300104,0.0773364218528,0.473153721956,0.318480878251,-54.6444056401,206.0,0.994723455659,0.014051917983,0.511316161583,31.4412806401,1.10867986036,191.724872618,601.093648363,601.557650201,601.593658056,602.918831225,604.035629245
0,325,4917,6,1,338,237,-0.162891363375,0.458928707883,0.250399161362,1,1.0,1.0,0.401080748998,0,0.0,0.0,0.437744138762,0.396027098682,0.0773096391877,0.47333673787,0.318717459494,nan,nan,0.0,0.0,0.0,nan,nan,191.724872618,605.252473794,605.653554543,605.752525397,nan,nan
0,326,4918,6,1,85,59,1.0,-0.212156452387,-0.638781227021,1,1.0,1.0,0.400962433312,0,0.0,0.0,0.422015006809,0.396042600677,0.0771914809467,0.473234081624,0.31885111973,nan,nan,0.0,0.0,0.0,nan,nan,191.724872618,606.252599237,606.65356167,606.752628317,nan,nan
0,327,4919,6,1,334,234,-0.152796554809,0.454467054946,0.285576400052,1,1.0,1.0,0.352802568581,0,0.0,0.0,0.38494858363,0.396057646037,0.0770738395103,0.473131485547,0.318983806526,nan,nan,0.0,0.0,0.0,nan,nan,191.724872618,607.252739505,607.605542074,607.752780844,nan,nan
0,328,4920,6,1,186,130,1.0,-0.0967386681424,0.377881386018,1,1.0,1.0,0.392655822914,0,0.0,0.0,0.382140274936,0.3959257708,0.0769931991455,0.472918969946,0.318932571655,nan,nan,0.0,0.0,0.0,nan,nan,191.724872618,608.252865233,608.645521056,608.752902866,nan,nan
0,329,4921,6,1,66,46,1.0,-0.118568705386,-1.0,1,1.0,1.0,0.400482898578,0,0.0,0.0,0.381980430024,0.395915831749,0.0768763098925,0.472792141642,0.319039521857,nan,nan,0.0,0.0,0.0,nan,nan,191.724872618,609.253016335,609.653499234,609.753013484,nan,nan
0,330,4922,6,1,271,190,0.320642857732,0.312811632898,0.639400143054,1,1.0,1.0,0.384367743973,0,0.0,0.0,0.392502155155,0.395929671346,0.0767601527262,0.472689824072,0.319169518619,nan,nan,0.0,0.0,0.0,nan,nan,191.724872618,610.253120966,610.63748871,610.753163161,nan,nan
0,331,4923,6,1,26,18,1.0,0.0920921692153,-1.0,1,1.0,1.0,0.320212751161,0,0.0,0.0,0.368354464571,0.395894741051,0.0766467397742,0.472541480826,0.319248001277,nan,nan,0.0,0.0,0.0,nan,nan,191.724872618,611.253265226,611.573477977,611.753267792,nan,nan
0,332,4924,6,1,353,248,-0.175041255135,0.471490071959,0.108799216003,1,1.0,1.0,0.30409046961,0,0.0,0.0,0.336223654915,0.395666783251,0.0766435131325,0.472310296383,0.319023270118,nan,nan,0.0,0.0,0.0,nan,nan,191.724872618,612.253372992,612.557463462,612.753415472,nan,nan
0,333,4925,6,1,415,291,0.0813077335083,0.459153678902,-0.614968023274,1,1.0,1.0,0.383936106227,0,0.0,0.0,0.336079775666,0.395391779306,0.0766922160391,0.472083995345,0.318699563267,nan,nan,0.0,0.0,0.0,nan,nan,191.724872618,613.253510125,613.637446231,613.75352552,nan,nan
0,334,4926,6,0,172,120,1.0,-0.170984061773,0.265024678188,0,0.0,1.0,0.463798563462,0,0.0,0.0,0.3839417131,0.395357480883,0.0765798790013,0.471937359885,0.318777601882,nan,nan,0.0,0.0,0.0,nan,nan,191.724872618,614.253617892,614.717416455,614.753672631,nan,nan
0,335,4927,6,1,311,218,-0.0397249783266,0.419020224334,0.462250212202,1,1.0,1.0,0.31963001145,0,0.0,0.0,0.38912156038,0.395561782622,0.0765565990412,0.472118381664,0.319005183581,nan,nan,0.0,0.0,0.0,nan,nan,191.724872618,615.253760155,615.573390167,615.75380235,nan,nan
0,336,4928,6,1,138,97,1.0,-0.29832987918,-0.0546508148191,1,1.0,1.0,0.32748702215,0,0.0,0.0,0.370305199021,0.395335795208,0.0765544134459,0.471890208654,0.318781381762,nan,nan,0.0,0.0,0.0,nan,nan,191.724872618,616.253911257,616.581398279,616.753930644,nan,nan
0,337,4929,6,1,205,144,1.0,0.00854800403903,0.505535240796,1,1.0,1.0,0.399301168043,0,0.0,0.0,0.348806067215,0.395134463537,0.0765297808087,0.471664244346,0.318604682729,nan,nan,0.0,0.0,0.0,nan,nan,191.724872618,617.254041262,617.65334243,617.75406407,nan,nan
0,338,4930,6,1,7,4,0.9030914636,0.181853060355,-1.0,1,1.0,1.0,0.455192885827,0,0.0,0.0,0.393993692007,0.395146791065,0.0764168223065,0.471563613372,0.318729968759,nan,nan,0.0,0.0,0.0,nan,nan,191.724872618,618.254135629,618.709328515,618.754161573,nan,nan
0,339,4931,6,1,138,97,1.0,-0.29832987918,-0.0546508148191,1,1.0,1.0,0.463058164809,0,0.0,0.0,0.439184072893,0.395323918189,0.0763734862047,0.471697404393,0.318950431984,nan,nan,0.0,0.0,0.0,nan,nan,191.724872618,619.254269625,619.71732779,619.754293003,nan,nan
0,340,4932,6,1,2,1,0.863024578927,0.203622855609,-1.0,1,1.0,1.0,0.462929015048,0,0.0,0.0,0.460393355228,0.395523136561,0.0763492501444,0.471872386705,0.319173886417,nan,nan,0.0,0.0,0.0,nan,nan,191.724872618,620.254392502,620.717321517,620.754418446,nan,nan
0,341,4933,6,1,216,151,0.900975005756,0.0682271079607,0.563426584804,1,1.0,1.0,0.318732238375,0,0.0,0.0,0.414906472744,0.395720807759,0.0763242993603,0.472045107119,0.319396508399,nan,nan,0.0,0.0,0.0,nan,nan,191.724872618,621.254552157,621.573284396,621.754551872,nan,nan
0,342,4934,6,1,422,296,0.128328379107,0.451313674078,-0.730894888444,1,1.0,1.0,0.28662965307,0,0.0,0.0,0.356096968831,0.395495694983,0.0763259181288,0.471821613112,0.319169776854,nan,nan,0.0,0.0,0.0,nan,nan,191.724872618,622.254634836,622.541264489,622.754673039,nan,nan
0,343,4935,6,0,190,133,1.0,-0.0746884387243,0.407399635172,0,1.0,0.0,0.294453592971,0,0.0,0.0,0.299938494805,0.395178301275,0.076440264561,0.471618565836,0.318738036714,nan,nan,0.0,0.0,0.0,nan,nan,191.724872618,623.254799337,623.54925293,623.754834689,nan,nan
0,344,4936,6,1,499,350,0.739831889234,0.263827757734,-1.0,1,1.0,1.0,0.270330040716,0,0.0,0.0,0.283804428919,0.39488549689,0.0765214685649,0.471406965455,0.318364028325,nan,nan,0.0,0.0,0.0,nan,nan,191.724872618,624.25491138,624.525241421,624.754929912,nan,nan
0,345,4937,6,1,228,160,0.780729811514,0.1302769546,0.611433142569,1,1.0,1.0,0.262170826085,0,0.0,0.0,0.275651486591,0.394524466582,0.0767033280729,0.471227794655,0.31782113851,nan,nan,0.0,0.0,0.0,nan,nan,191.724872618,625.255040245,625.517211071,625.755078448,nan,nan
0,346,4938,6,1,152,106,1.0,-0.259184487343,0.0830625546756,1,1.0,1.0,0.326043001842,0,1.0,0.0,0.286181289547,0.39414194161,0.0769212502304,0.47106319184,0.317220691379,nan,nan,0.0,0.0,0.0,nan,nan,191.724872618,626.255171675,626.581214677,626.755204176,nan,nan
0,347,4942,6,1,253,177,0.513865899396,0.244839928328,0.655977188727,1,1.0,1.0,0.317904314026,1,0.0,0.0,0.302039380651,0.393945691063,0.0768970295471,0.47084272061,0.317048661516,-64.6161377362,220.0,0.861731547614,0.0893272636146,0.581247684387,-23.2744872638,1.21712166397,191.724872618,627.255294552,627.573198866,627.755335891,629.080502217,630.305657367
0,348,4943,6,1,133,93,1.0,-0.306259573676,-0.105336427414,1,1.0,1.0,0.426620666869,0,0.0,0.0,0.356855994246,0.393727181359,0.0768942739485,0.470621455307,0.31683290741,nan,nan,0.0,0.0,0.0,nan,nan,191.724872618,631.52249821,631.949118877,632.022530996,nan,nan
0,349,4944,6,1,215,151,0.910639861846,0.0628947364355,0.558695148714,1,1.0,1.0,0.370452974923,0,0.0,0.0,0.371659318606,0.393821432034,0.0768041587294,0.470625590763,0.317017273304,nan,nan,0.0,0.0,0.0,nan,nan,191.724872618,632.522631065,632.89308404,633.02267212,nan,nan
0,350,4945,6,1,101,71,1.0,-0.273572672894,-0.446152610616,1,1.0,1.0,0.39431366697,0,0.0,0.0,0.39712910292,0.393754665013,0.0767045021047,0.470459167118,0.317050162909,nan,nan,0.0,0.0,0.0,nan,nan,191.724872618,633.52276107,633.917074737,634.022795852,nan,nan
0,351,4946,6,1,181,127,1.0,-0.123914391386,0.3392011262,1,1.0,1.0,0.370203799102,0,0.0,0.0,0.378323480332,0.393756257612,0.0765951642915,0.470351421903,0.31716109332,nan,nan,0.0,0.0,0.0,nan,nan,191.724872618,634.522871688,634.893075487,635.022904759,nan,nan
0,352,4947,6,1,5,3,0.88714030954,0.190659852496,-1.0,1,1.0,1.0,0.442023362033,0,0.0,0.0,0.402180276035,0.393689347218,0.0764965588777,0.470185906096,0.31719278834,nan,nan,0.0,0.0,0.0,nan,nan,191.724872618,635.523012526,635.965035888,636.023056431,nan,nan
0,353,4948,6,0,267,187,0.362924526182,0.298807232282,0.646622522267,0,0.0,1.0,0.473869644105,0,0.0,0.0,0.42869893508,0.393826270773,0.0764313137185,0.470257584491,0.317394957054,nan,nan,0.0,0.0,0.0,nan,nan,191.724872618,636.523157926,636.99702757,637.023192993,nan,nan
0,354,4949,6,1,115,80,1.0,-0.305166285737,-0.293172749504,1,1.0,1.0,0.345725015271,0,0.0,0.0,0.42053934047,0.394052381997,0.0764414232536,0.47049380525,0.317610958743,nan,nan,0.0,0.0,0.0,nan,nan,191.724872618,637.523272535,637.868997551,638.023310169,nan,nan
0,355,4950,6,1,487,342,0.639529740128,0.306295026098,-1.0,1,1.0,1.0,0.401576533914,0,0.0,0.0,0.40705706443,0.39391624857,0.0763766433644,0.470292891934,0.317539605205,nan,nan,0.0,0.0,0.0,nan,nan,191.724872618,638.523406532,638.924983066,639.02343276,nan,nan
0,356,4951,6,1,394,277,-0.0437090198531,0.474655926729,-0.339401417396,1,1.0,1.0,0.481428442523,0,0.0,0.0,0.409576663903,0.393937766225,0.0762703749065,0.470208141131,0.317667391318,nan,nan,0.0,0.0,0.0,nan,nan,191.724872618,639.523530834,640.004959277,640.023554497,nan,nan
0,357,4952,6,1,253,177,0.513865899396,0.244839928328,0.655977188727,1,1.0,1.0,0.369271244388,0,0.0,0.0,0.417425406942,0.394182838147,0.0763037151276,0.470486553275,0.31787912302,nan,nan,0.0,0.0,0.0,nan,nan,191.724872618,640.523674808,640.892946053,641.023672528,nan,nan
0,358,4953,6,1,498,350,0.731507943485,0.267561876527,-1.0,1,1.0,1.0,0.44914909685,0,0.0,0.0,0.43328292792,0.39411325269,0.0762084135594,0.470321666249,0.317904839131,nan,nan,0.0,0.0,0.0,nan,nan,191.724872618,641.523795405,641.972944502,642.023804528,nan,nan
0,359,4954,6,1,250,175,0.546428449327,0.232286661223,0.654747725831,1,1.0,1.0,0.473010644317,0,0.0,0.0,0.430476995185,0.394266555877,0.0761574583757,0.470424014253,0.318109097501,nan,nan,0.0,0.0,0.0,nan,nan,191.724872618,642.523908304,642.996918948,643.023924554,nan,nan
0,360,4955,6,1,9,6,0.918933560847,0.172916688009,-1.0,1,1.0,1.0,0.3848834862,0,0.0,0.0,0.435681075789,0.394485289456,0.0761644510413,0.470649740497,0.318320838415,nan,nan,0.0,0.0,0.0,nan,nan,191.724872618,643.524020062,643.908903548,644.024061401,nan,nan
0,361,4956,6,1,169,118,1.0,-0.185917379452,0.239118302078,1,1.0,1.0,0.312686454039,0,0.0,0.0,0.390193528185,0.394458691663,0.0760605611621,0.470519252825,0.318398130501,nan,nan,0.0,0.0,0.0,nan,nan,191.724872618,644.524172304,644.836858758,645.02420566,nan,nan
0,362,4957,6,1,253,177,0.513865899396,0.244839928328,0.655977188727,1,1.0,1.0,0.336567102931,0,0.0,0.0,0.344712347724,0.394232801504,0.0760765945707,0.470309396075,0.318156206933,nan,nan,0.0,0.0,0.0,nan,nan,191.724872618,645.524297177,645.86086428,646.024337946,nan,nan
0,363,4958,6,1,402,282,0.000724920831492,0.470139955471,-0.437811562499,1,1.0,1.0,0.376409808639,0,0.0,0.0,0.341887788537,0.39407394283,0.0760318339068,0.470105776737,0.318042108923,nan,nan,0.0,0.0,0.0,nan,nan,191.724872618,646.524435735,646.900845543,647.02445284,nan,nan
0,364,4959,6,1,128,90,1.0,-0.310663006781,-0.156689791083,1,1.0,1.0,0.45626970008,0,0.0,0.0,0.38974887055,0.394025414989,0.0759329519158,0.469958366905,0.318092463073,nan,nan,0.0,0.0,0.0,nan,nan,191.724872618,647.524548918,647.980818619,648.024570871,nan,nan
0,365,5000,6,1,291,204,0.122027637739,0.373441943191,0.573791926984,1,1.0,1.0,0.416148453951,0,0.0,0.0,0.416275987557,0.394195947277,0.0758986298775,0.470094577154,0.318297317399,nan,nan,0.0,0.0,0.0,nan,nan,191.724872618,648.52467151,648.940819964,649.024701161,nan,nan
0,366,5001,6,0,448,315,0.32026743599,0.409662251776,-1.0,0,0.0,1.0,0.487979990896,0,0.0,0.0,0.453466048309,0.394255926803,0.0758035340266,0.47005946083,0.318452392777,nan,nan,0.0,0.0,0.0,nan,nan,191.724872618,649.524821187,650.012801178,650.033188808,nan,nan
0,367,5002,6,1,89,62,1.0,-0.229484098413,-0.587370487375,1,1.0,1.0,0.175920181908,0,0.0,0.0,0.360016208918,0.394511305725,0.0758576861512,0.470368991876,0.318653619573,nan,nan,0.0,0.0,0.0,nan,nan,191.724872618,650.524910423,650.700830604,651.024948055,nan,nan
0,368,5003,6,1,26,18,1.0,0.0920921692153,-1.0,1,1.0,1.0,0.479693052359,0,0.0,0.0,0.381197741721,0.393917308105,0.0766044476303,0.470521755736,0.317312860475,nan,nan,0.0,0.0,0.0,nan,nan,191.724872618,651.525049265,652.004742317,652.025073783,nan,nan
0,369,5004,6,1,387,272,-0.0787219327085,0.477231755363,-0.256974454483,1,1.0,1.0,0.487564318348,0,0.0,0.0,0.381059184205,0.394149762697,0.0766304328187,0.470780195516,0.317519329878,nan,nan,0.0,0.0,0.0,nan,nan,191.724872618,652.525169006,653.012733324,653.033548601,nan,nan
0,370,5005,6,0,287,201,0.159501648714,0.36255249221,0.590751920292,0,0.0,1.0,0.455383331049,0,0.0,0.0,0.474213567252,0.394402234469,0.0766803309642,0.471082565433,0.317721903505,nan,nan,0.0,0.0,0.0,nan,nan,191.724872618,653.525300722,653.980684053,654.025360307,nan,nan
0,371,5006,6,1,344,241,-0.172543464245,0.464730234515,0.195503824632,1,1.0,1.0,0.375244328752,0,0.0,0.0,0.43939732605,0.394566604002,0.0766421611064,0.471208765108,0.317924442895,nan,nan,0.0,0.0,0.0,nan,nan,191.724872618,654.525441845,654.900686174,655.025458666,nan,nan
0,372,5007,6,1,192,135,1.0,-0.0635997558896,0.421658406928,1,1.0,1.0,0.447115494404,0,0.0,0.0,0.425914384735,0.394514662401,0.0765456165458,0.471060278947,0.317969045856,nan,nan,0.0,0.0,0.0,nan,nan,191.724872618,655.525559875,655.97267537,656.025591807,nan,nan
0,373,5008,6,1,476,334,0.547545041103,0.340739382997,-1.0,1,1.0,1.0,0.390950367786,0,0.0,0.0,0.404436730314,0.394655683399,0.0764913129187,0.471146996317,0.31816437048,nan,nan,0.0,0.0,0.0,nan,nan,191.724872618,656.525702994,656.916653362,657.025713828,nan,nan
0,374,5009,6,1,318,223,-0.0835627602325,0.431640264478,0.413481556053,1,1.0,1.0,0.470815961249,0,0.0,0.0,0.436293941146,0.394645776138,0.0763892229947,0.471034999132,0.318256553143,nan,nan,0.0,0.0,0.0,nan,nan,191.724872618,657.525836135,657.996652097,658.025860654,nan,nan
0,375,5010,6,1,461,324,0.423959648591,0.380927367285,-1.0,1,1.0,1.0,0.438671752345,0,0.0,0.0,0.43347936046,0.394848896631,0.0763883696756,0.471237266307,0.318460526956,nan,nan,0.0,0.0,0.0,nan,nan,191.724872618,658.525954165,658.964625918,659.025974978,nan,nan
0,376,5011,6,1,227,159,0.791019951953,0.125257787881,0.608066708266,1,1.0,1.0,0.446505099535,0,0.0,0.0,0.451997604376,0.39496544678,0.0763201015088,0.471285548288,0.318645345271,nan,nan,0.0,0.0,0.0,nan,nan,191.724872618,659.526074477,659.972579577,660.026119807,nan,nan
0,377,5012,6,1,334,234,-0.152796554809,0.454467054946,0.285576400052,1,1.0,1.0,0.478389584925,0,0.0,0.0,0.454522145602,0.395102156734,0.0762648995415,0.471367056275,0.318837257192,nan,nan,0.0,0.0,0.0,nan,nan,191.724872618,660.526209328,661.004598913,661.026224439,nan,nan
0,378,5013,6,1,59,41,1.0,-0.0814409933332,-1.0,1,1.0,1.0,0.429948328529,0,0.0,0.0,0.451614337663,0.395322493845,0.0762840123199,0.471606506165,0.319038481526,nan,nan,0.0,0.0,0.0,nan,nan,191.724872618,661.526631843,661.956580172,662.026368128,nan,nan
0,379,5014,6,1,227,159,0.791019951953,0.125257787881,0.608066708266,1,1.0,1.0,0.486103191506,0,0.0,0.0,0.464813701653,0.395413854887,0.0762040118238,0.471617866711,0.319209843063,nan,nan,0.0,0.0,0.0,nan,nan,191.724872618,662.526457078,663.01256027,663.026484163,nan,nan
0,380,5015,6,1,413,290,0.0683106243366,0.461143133648,-0.585495598612,1,1.0,1.0,0.604920275509,0,0.0,1.0,0.506990598515,0.395652511036,0.0762453691372,0.471897880173,0.319407141899,nan,nan,0.0,0.0,0.0,nan,nan,191.724872618,663.551617531,664.156537807,664.051659726,nan,nan
0,381,5016,6,0,212,149,0.93926288676,0.0467731277665,0.543851001166,0,1.0,0.0,0.35680391686,0,0.0,0.0,0.482609127959,0.39620177026,0.0768943348115,0.473096105072,0.319307435449,nan,nan,0.0,0.0,0.0,nan,nan,191.724872618,664.551739553,664.90854347,665.051775475,nan,nan
0,382,5017,6,1,43,30,1.0,0.00424534395127,-1.0,1,1.0,1.0,0.388654760085,0,0.0,0.0,0.450126317485,0.396098634518,0.0768200041808,0.472918638699,0.319278630337,nan,nan,0.0,0.0,0.0,nan,nan,191.724872618,665.551849601,665.940504361,666.051871268,nan,nan
0,383,5018,6,1,447,314,0.312467642152,0.411646472288,-1.0,1,1.0,1.0,0.444510270376,0,0.0,0.0,0.396656315774,0.396079198815,0.0767205918478,0.472799790663,0.319358606967,nan,nan,0.0,0.0,0.0,nan,nan,191.724872618,666.551975614,666.996485884,667.051995001,nan,nan
0,384,5019,6,1,209,146,0.967301840512,0.0304835193525,0.52804999659,1,1.0,1.0,0.380337886512,0,0.0,0.0,0.404500972324,0.396205321397,0.0766603763702,0.472865697767,0.319544945027,nan,nan,0.0,0.0,0.0,nan,nan,191.724872618,667.552106189,667.932444076,668.052147813,nan,nan
0,385,5020,6,1,279,196,0.238157575771,0.338930353633,0.618978422254,1,1.0,1.0,0.332144665532,0,0.0,0.0,0.38566427414,0.39616410728,0.0765650123671,0.472729119648,0.319599094913,nan,nan,0.0,0.0,0.0,nan,nan,191.724872618,668.552260142,668.884404807,669.05225501,nan,nan
