block,trial,freq_trials,correct_response,actual_response,acc,rts,probe_trials,fast_rt_trigger,slow_rt_trigger,rt_triggered,rts_runningavg,rts_runningstd,rts_runningfastthresh,rts_runningslowthresh,rts_runningstd,rts_trailingavg,trials_colorind,trials_colorrgb0,trials_colorrgb1,trials_colorrgb2,wm_respdeg,wm_respdeg_in_colorspace,wm_respcolorminusorigcolor,wm_resptexind,wm_resptexrgb0,wm_resptexrgb1,wm_resptexrgb2,wm_rts,time_blockstart,time_encarray_offset,time_encarray_onset,time_response,time_iti_offset,time_iti_onset,time_memprobe_offset,time_memprobe_onset
1,1,1,1,1.0,1.0,0.307909924537,0,nan,nan,nan,nan,nan,nan,nan,nan,nan,463,0.440238315199,0.376011795327,-1.0,nan,nan,nan,nan,0.0,0.0,0.0,nan,338.512055932,339.53211627,340.032174714,339.840026194,nan,nan,nan,nan
1,2,1,1,1.0,1.0,0.291433551349,0,nan,nan,nan,nan,nan,nan,nan,nan,nan,162,1.0,-0.218739557155,0.176632971453,nan,nan,nan,nan,0.0,0.0,0.0,nan,338.512055932,340.5405985,341.040611044,340.832032051,nan,nan,nan,nan
1,3,1,1,1.0,1.0,0.275277628563,0,nan,nan,nan,nan,nan,nan,nan,nan,nan,510,0.830554458933,0.220436700166,-1.0,nan,nan,nan,nan,0.0,0.0,0.0,nan,338.512055932,341.540717956,342.040739338,341.815995584,nan,nan,nan,nan
1,4,0,0,0.0,1.0,0.466991944239,0,nan,nan,nan,nan,nan,nan,nan,nan,nan,198,1.0,-0.0302354974571,0.462326941081,nan,nan,nan,nan,0.0,0.0,0.0,nan,338.512055932,342.54099165,343.040895287,343.007983594,nan,nan,nan,nan
1,5,1,1,1.0,1.0,0.323004714213,0,nan,nan,nan,nan,nan,nan,nan,nan,nan,438,0.243622561222,0.428096439079,-1.0,nan,nan,nan,nan,0.0,0.0,0.0,nan,338.512055932,343.540955442,344.040989654,343.863960156,nan,nan,nan,nan
1,6,1,1,1.0,1.0,0.290902699344,0,nan,nan,nan,nan,nan,nan,nan,nan,nan,375,-0.128556699755,0.478682433309,-0.121605159467,nan,nan,nan,nan,0.0,0.0,0.0,nan,338.512055932,344.541085732,345.041122509,344.831988432,nan,nan,nan,nan
1,7,1,1,1.0,1.0,0.378724517301,0,nan,nan,nan,nan,nan,nan,nan,nan,nan,455,0.375608248681,0.394875365091,-1.0,nan,nan,nan,nan,0.0,0.0,0.0,nan,338.512055932,345.541202907,346.041274467,345.919927425,nan,nan,nan,nan
1,8,1,1,1.0,1.0,0.394552294165,0,nan,nan,nan,nan,nan,nan,nan,nan,nan,74,1.0,-0.159715158178,-0.810443278181,nan,nan,nan,nan,0.0,0.0,0.0,nan,338.512055932,346.541347736,347.04140105,346.935900031,nan,nan,nan,nan
1,9,1,1,1.0,1.0,0.36242661532,0,nan,nan,nan,nan,nan,nan,nan,nan,nan,316,-0.0718215561597,0.428203514031,0.427892255365,nan,nan,nan,nan,0.0,0.0,0.0,nan,338.512055932,347.541470614,348.04151851,347.90389723,nan,nan,nan,nan
1,10,1,1,1.0,1.0,0.295817500912,1,nan,nan,nan,nan,nan,nan,nan,nan,nan,149,1.0,-0.269478519393,0.0541436597792,-18.6836988354,108.683698835,3.91807383535,155.0,1.0,-0.2479831371,0.111611878621,3.73411891144,338.512055932,348.648059851,349.149985118,348.943877352,354.217280748,355.228277256,350.46680606,354.208949619
1,11,0,0,0.0,1.0,0.429956881329,0,nan,nan,nan,nan,nan,nan,nan,nan,nan,235,0.707591924495,0.164537776567,0.631659631194,nan,nan,nan,nan,0.0,0.0,0.0,nan,338.512055932,355.425820112,355.925854894,355.855776994,nan,nan,nan,nan
1,12,1,1,1.0,1.0,0.333876349963,0,nan,nan,nan,nan,nan,nan,nan,nan,nan,494,0.698129958021,0.282143999684,-1.0,nan,nan,nan,nan,0.0,0.0,0.0,nan,338.512055932,356.425910203,356.925965227,356.759786553,nan,nan,nan,nan
1,13,1,1,1.0,1.0,0.269654073752,1,nan,nan,nan,nan,nan,nan,nan,nan,nan,194,1.0,-0.0524864644427,0.435571704399,63.7680600668,26.2319399332,-110.174310067,37.0,1.0,0.0358565504353,-1.0,2.93400983233,338.512055932,357.426057599,357.926081832,357.695711672,362.201622605,363.199714161,359.251251579,362.19330174
1,14,1,1,1.0,1.0,0.477806274779,0,nan,nan,nan,nan,nan,nan,nan,nan,nan,397,-0.0275613476434,0.473159987783,-0.37569455347,nan,nan,nan,nan,0.0,0.0,0.0,nan,338.512055932,363.401806893,363.901839394,363.879613168,nan,nan,nan,nan
1,15,1,1,1.0,1.0,0.373651771806,0,nan,nan,nan,nan,nan,nan,nan,nan,nan,337,-0.160643365934,0.457858386897,0.259303564052,nan,nan,nan,nan,0.0,0.0,0.0,nan,338.512055932,364.401945735,364.901981942,364.775597507,nan,nan,nan,nan
1,16,1,1,1.0,1.0,0.445500985719,0,nan,nan,nan,nan,nan,nan,nan,nan,nan,181,1.0,-0.123914391386,0.3392011262,nan,nan,nan,nan,0.0,0.0,0.0,nan,338.512055932,365.40207631,365.902088854,365.847577295,nan,nan,nan,nan
1,17,1,1,1.0,1.0,0.421023341827,0,nan,nan,nan,nan,nan,nan,nan,nan,nan,113,1.0,-0.302191989669,-0.314576349441,nan,nan,nan,nan,0.0,0.0,0.0,nan,338.512055932,366.410543145,366.91060159,366.831566487,nan,nan,nan,nan
1,18,1,1,1.0,1.0,0.468874445185,0,nan,nan,nan,nan,nan,nan,nan,nan,nan,434,0.213881816697,0.43461034373,-1.0,nan,nan,nan,nan,0.0,0.0,0.0,nan,338.512055932,367.410674861,367.910683698,367.879549306,nan,nan,nan,nan
1,19,1,1,1.0,1.0,0.548685584217,0,nan,nan,nan,nan,nan,nan,nan,nan,nan,276,0.268710435127,0.329430325417,0.627563005949,nan,nan,nan,nan,0.0,0.0,0.0,nan,338.512055932,368.410820261,368.910859033,368.959505845,nan,nan,nan,nan
1,20,0,0,0.0,1.0,0.548584089614,0,nan,nan,nan,nan,nan,nan,nan,nan,nan,99,1.0,-0.267176270739,-0.468793303331,nan,nan,nan,nan,0.0,0.0,0.0,nan,338.512055932,369.410940002,369.910988183,369.959524091,nan,nan,nan,nan
1,21,1,1,1.0,1.0,0.372441817075,0,nan,nan,nan,nan,nan,nan,nan,nan,nan,379,-0.113535935895,0.478614986251,-0.165970515924,nan,nan,nan,nan,0.0,0.0,0.0,nan,338.512055932,370.411058317,370.91111163,370.783500134,nan,nan,nan,nan
1,22,1,1,0.0,0.0,0.484275999479,0,0.0,0.0,0.0,nan,nan,nan,nan,nan,nan,38,1.0,0.0306259494545,-1.0,nan,nan,nan,nan,0.0,0.0,0.0,nan,338.512055932,371.411191458,371.911216831,371.895467457,nan,nan,nan,nan
1,23,1,1,1.0,1.0,0.556120935827,0,nan,nan,nan,nan,nan,nan,nan,nan,nan,218,0.881467392804,0.0788246127756,0.572559633417,nan,nan,nan,nan,0.0,0.0,0.0,nan,338.512055932,372.411309488,372.911365367,372.967430424,nan,nan,nan,nan
1,24,1,1,1.0,1.0,0.468005182222,0,nan,nan,nan,nan,nan,nan,nan,nan,nan,407,0.0305886347219,0.46645515455,-0.502577406972,nan,nan,nan,nan,0.0,0.0,0.0,nan,338.512055932,373.411436357,373.911473989,373.879441539,nan,nan,nan,nan
1,25,1,1,1.0,1.0,0.523833038285,0,nan,nan,nan,nan,nan,nan,nan,nan,nan,188,1.0,-0.0857393506835,0.392804289229,nan,nan,nan,nan,0.0,0.0,0.0,nan,338.512055932,374.411582896,374.911627087,374.935415935,nan,nan,nan,nan
1,26,1,1,1.0,1.0,0.475717647932,0,nan,nan,nan,nan,nan,nan,nan,nan,nan,329,-0.136053278316,0.448203788942,0.3278337444,nan,nan,nan,nan,0.0,0.0,0.0,nan,338.512055932,375.411689809,375.911726872,375.887407457,nan,nan,nan,nan
1,27,1,1,1.0,1.0,0.411582612433,0,nan,nan,nan,nan,nan,nan,nan,nan,nan,399,-0.0164460389312,0.472031251936,-0.400274523968,nan,nan,nan,nan,0.0,0.0,0.0,nan,338.512055932,376.411818388,376.911851459,376.823401,nan,nan,nan,nan
1,28,1,1,1.0,1.0,0.387409168296,0,nan,nan,nan,nan,nan,nan,nan,nan,nan,4,0.879126049628,0.195014037372,-1.0,nan,nan,nan,nan,0.0,0.0,0.0,nan,338.512055932,377.411943831,377.911969774,377.799352999,nan,nan,nan,nan
1,29,1,1,1.0,1.0,0.291273041628,0,nan,nan,nan,nan,nan,nan,nan,nan,nan,156,1.0,-0.244060613314,0.121041471254,nan,nan,nan,nan,0.0,0.0,0.0,nan,338.512055932,378.412066708,378.912098924,378.70333975,nan,nan,nan,nan
1,30,0,0,0.0,1.0,0.387106109411,0,nan,nan,nan,nan,nan,nan,nan,nan,nan,384,-0.0924750057551,0.477945316949,-0.222479273925,nan,nan,nan,nan,0.0,0.0,0.0,nan,338.512055932,379.412213818,379.912256869,379.799319928,nan,nan,nan,nan
1,31,1,1,1.0,1.0,0.299005749635,0,nan,nan,nan,nan,nan,nan,nan,nan,nan,190,1.0,-0.0746884387243,0.407399635172,nan,nan,nan,nan,0.0,0.0,0.0,nan,338.512055932,380.412312462,380.912343537,380.711318212,nan,nan,nan,nan
1,32,1,1,1.0,1.0,0.392388971522,0,nan,nan,nan,nan,nan,nan,nan,nan,nan,67,1.0,-0.12380466598,-1.0,nan,nan,nan,nan,0.0,0.0,0.0,nan,338.512055932,381.438906672,381.937473485,381.831295644,nan,nan,nan,nan
1,33,1,1,1.0,1.0,0.401694849133,0,nan,nan,nan,nan,nan,nan,nan,nan,nan,207,0.985653507947,0.0195431921708,0.51699622314,nan,nan,nan,nan,0.0,0.0,0.0,nan,338.512055932,382.437578117,382.937621451,382.839272966,nan,nan,nan,nan
1,34,1,1,1.0,1.0,0.38554605376,0,nan,nan,nan,nan,nan,nan,nan,nan,nan,302,0.027086081288,0.400300843718,0.517770016443,nan,nan,nan,nan,0.0,0.0,0.0,nan,338.512055932,383.437710402,383.937734635,383.823256455,nan,nan,nan,nan
1,35,1,1,1.0,1.0,0.377397103235,0,nan,nan,nan,nan,nan,nan,nan,nan,nan,459,0.407758158413,0.385709174134,-1.0,nan,nan,nan,nan,0.0,0.0,0.0,nan,338.512055932,384.437840121,384.937859223,384.815237224,nan,nan,nan,nan
1,36,1,1,1.0,1.0,0.385257819667,0,nan,nan,nan,nan,nan,nan,nan,nan,nan,413,0.0683106243366,0.461143133648,-0.585495598612,nan,nan,nan,nan,0.0,0.0,0.0,nan,338.512055932,385.437965564,385.937989512,385.823223384,nan,nan,nan,nan
1,37,1,1,1.0,1.0,0.382098935544,0,nan,nan,nan,nan,nan,nan,nan,nan,nan,156,1.0,-0.244060613314,0.121041471254,nan,nan,nan,nan,0.0,0.0,0.0,nan,338.512055932,386.513118491,387.013120486,386.895217426,nan,nan,nan,nan
1,38,1,1,1.0,1.0,0.381949258968,0,nan,nan,nan,nan,nan,nan,nan,nan,nan,298,0.0600896634305,0.391050340636,0.53969689008,nan,nan,nan,nan,0.0,0.0,0.0,nan,338.512055932,387.51323253,388.013252486,387.895181789,nan,nan,nan,nan
1,39,1,1,1.0,1.0,0.372458922677,0,nan,nan,nan,nan,nan,nan,nan,nan,nan,408,0.036737934283,0.465637664749,-0.515938449969,nan,nan,nan,nan,0.0,0.0,0.0,nan,338.512055932,388.54670273,389.046711567,388.919161652,nan,nan,nan,nan
1,40,1,1,1.0,1.0,0.364352451637,0,nan,nan,nan,nan,nan,nan,nan,nan,nan,187,1.0,-0.0912463489427,0.385383214542,nan,nan,nan,nan,0.0,0.0,0.0,nan,338.512055932,389.546801658,390.046857538,389.91115411,nan,nan,nan,nan
1,41,0,0,0.0,1.0,0.572151416913,0,nan,nan,nan,nan,nan,nan,nan,nan,nan,329,-0.136053278316,0.448203788942,0.3278337444,nan,nan,nan,nan,0.0,0.0,0.0,nan,338.512055932,390.546962453,391.04701092,391.11911387,nan,nan,nan,nan
1,42,1,1,1.0,1.0,0.452034287155,0,nan,nan,nan,nan,nan,nan,nan,nan,nan,489,0.656284860842,0.299572439858,-1.0,nan,nan,nan,nan,0.0,0.0,0.0,nan,338.512055932,391.547079058,392.047087612,391.999113346,nan,nan,nan,nan
1,43,1,1,1.0,1.0,0.403899511322,0,nan,nan,nan,nan,nan,nan,nan,nan,nan,232,0.739158239773,0.150046616059,0.623712016981,nan,nan,nan,nan,0.0,0.0,0.0,nan,338.512055932,392.547211628,393.047250972,392.95111114,nan,nan,nan,nan
1,44,1,1,1.0,1.0,0.467745457776,0,nan,nan,nan,nan,nan,nan,nan,nan,nan,429,0.177531820842,0.442080780324,-0.901885199234,nan,nan,nan,nan,0.0,0.0,0.0,nan,338.512055932,393.547334791,394.047356173,394.015080249,nan,nan,nan,nan
1,45,1,1,1.0,1.0,0.500198142603,0,nan,nan,nan,nan,nan,nan,nan,nan,nan,15,0.965734432428,0.145352784795,-1.0,nan,nan,nan,nan,0.0,0.0,0.0,nan,338.512055932,394.56414872,395.064187779,395.064346863,nan,nan,nan,nan
1,46,1,1,1.0,1.0,0.458803934976,0,nan,nan,nan,nan,nan,nan,nan,nan,nan,153,1.0,-0.255547855702,0.0926213922694,nan,nan,nan,nan,0.0,0.0,0.0,nan,338.512055932,395.564247934,396.064273878,396.023051869,nan,nan,nan,nan
1,47,1,1,1.0,1.0,0.34663761314,0,nan,nan,nan,nan,nan,nan,nan,nan,nan,338,-0.162891363375,0.458928707883,0.250399161362,nan,nan,nan,nan,0.0,0.0,0.0,nan,338.512055932,396.564386777,397.064413005,396.91102439,nan,nan,nan,nan
1,48,0,0,0.0,1.0,0.522475686856,0,nan,nan,nan,nan,nan,nan,nan,nan,nan,24,1.0,0.102019060141,-1.0,nan,nan,nan,nan,0.0,0.0,0.0,nan,338.512055932,397.56452619,398.064573801,398.087001877,nan,nan,nan,nan
1,49,1,1,1.0,1.0,0.394370686263,0,nan,nan,nan,nan,nan,nan,nan,nan,nan,218,0.881467392804,0.0788246127756,0.572559633417,nan,nan,nan,nan,0.0,0.0,0.0,nan,338.512055932,398.564617706,399.064663322,398.958988393,nan,nan,nan,nan
1,50,1,1,1.0,1.0,0.466207070276,0,nan,nan,nan,nan,nan,nan,nan,nan,nan,62,1.0,-0.0974372467467,-1.0,nan,nan,nan,nan,0.0,0.0,0.0,nan,338.512055932,399.564763961,400.064794752,400.030971032,nan,nan,nan,nan
1,51,1,1,1.0,1.0,0.51404619962,0,nan,nan,nan,nan,nan,nan,nan,nan,nan,456,0.383612429175,0.392633185378,-1.0,nan,nan,nan,nan,0.0,0.0,0.0,nan,338.512055932,400.564891115,401.064959253,401.078937314,nan,nan,nan,nan
1,52,1,1,1.0,1.0,0.449906032532,0,nan,nan,nan,nan,nan,nan,nan,nan,nan,14,0.95801504718,0.150023555696,-1.0,nan,nan,nan,nan,0.0,0.0,0.0,nan,338.512055932,401.565025396,402.065041931,402.014931428,nan,nan,nan,nan
1,53,1,1,1.0,1.0,0.345746682957,0,nan,nan,nan,nan,nan,nan,nan,nan,nan,463,0.440238315199,0.376011795327,-1.0,nan,nan,nan,nan,0.0,0.0,0.0,nan,338.512055932,402.565163668,403.065189042,402.910910351,nan,nan,nan,nan
1,54,1,1,1.0,1.0,0.425651905127,0,nan,nan,nan,nan,nan,nan,nan,nan,nan,231,0.749609680972,0.145151270079,0.620821461523,nan,nan,nan,nan,0.0,0.0,0.0,nan,338.512055932,403.565255185,404.065303652,403.99090709,nan,nan,nan,nan
1,55,1,1,1.0,1.0,0.400121965446,0,nan,nan,nan,nan,nan,nan,nan,nan,nan,399,-0.0164460389312,0.472031251936,-0.400274523968,nan,nan,nan,nan,0.0,0.0,0.0,nan,338.512055932,404.598758455,405.098760736,404.998880421,nan,nan,nan,nan
1,56,1,1,1.0,1.0,0.432015288621,0,nan,nan,nan,nan,nan,nan,nan,nan,nan,31,1.0,0.0668515730764,-1.0,nan,nan,nan,nan,0.0,0.0,0.0,nan,338.512055932,405.598869073,406.09890129,406.030884362,nan,nan,nan,nan
1,57,1,1,1.0,1.0,0.591813758947,0,nan,nan,nan,nan,nan,nan,nan,nan,nan,382,-0.1011887567,0.478291136399,-0.199732273247,nan,nan,nan,nan,0.0,0.0,0.0,nan,338.512055932,406.599021886,407.099056668,407.190835644,nan,nan,nan,nan
1,58,1,1,1.0,1.0,0.487709147856,0,nan,nan,nan,nan,nan,nan,nan,nan,nan,479,0.572572153349,0.331768222426,-1.0,nan,nan,nan,nan,0.0,0.0,0.0,nan,338.512055932,407.5991211,408.107494708,408.086830248,nan,nan,nan,nan
1,59,1,1,1.0,1.0,0.391567889601,0,nan,nan,nan,nan,nan,nan,nan,nan,nan,142,1.0,-0.289568116499,-0.0146273521697,nan,nan,nan,nan,0.0,0.0,0.0,nan,338.512055932,408.59925367,409.099299571,408.99082156,nan,nan,nan,nan
1,60,1,1,1.0,1.0,0.359413132071,0,nan,nan,nan,nan,nan,nan,nan,nan,nan,212,0.93926288676,0.0467731277665,0.543851001166,nan,nan,nan,nan,0.0,0.0,0.0,nan,338.512055932,409.599384815,410.099390803,409.958797948,nan,nan,nan,nan
1,61,1,1,1.0,1.0,0.34326747153,0,nan,nan,nan,nan,nan,nan,nan,nan,nan,414,0.0747837862165,0.460162189034,-0.600089175003,nan,nan,nan,nan,0.0,0.0,0.0,nan,338.512055932,410.599512825,411.09954504,410.942780296,nan,nan,nan,nan
1,62,0,0,0.0,1.0,0.471121585928,0,nan,nan,nan,nan,nan,nan,nan,nan,nan,314,-0.0594438881467,0.42463230952,0.441925406839,nan,nan,nan,nan,0.0,0.0,0.0,nan,338.512055932,411.59964454,412.099676185,412.070766126,nan,nan,nan,nan
1,63,1,1,1.0,1.0,0.519004620612,0,nan,nan,nan,nan,nan,nan,nan,nan,nan,94,1.0,-0.249439013202,-0.526745155233,nan,nan,nan,nan,0.0,0.0,0.0,nan,338.512055932,412.59973463,413.099819589,413.118739251,nan,nan,nan,nan
1,64,1,1,1.0,1.0,0.326863228343,0,nan,nan,nan,nan,nan,nan,nan,nan,nan,38,1.0,0.0306259494545,-1.0,nan,nan,nan,nan,0.0,0.0,0.0,nan,338.512055932,413.59986435,414.099909966,413.926727578,nan,nan,nan,nan
1,65,1,1,1.0,1.0,0.374658452347,0,nan,nan,nan,nan,nan,nan,nan,nan,nan,494,0.698129958021,0.282143999684,-1.0,nan,nan,nan,nan,0.0,0.0,0.0,nan,338.512055932,414.60002543,415.100035978,414.974683883,nan,nan,nan,nan
1,66,1,1,1.0,1.0,0.358533890918,0,nan,nan,nan,nan,nan,nan,nan,nan,nan,163,1.0,-0.214247802105,0.185723682048,nan,nan,nan,nan,0.0,0.0,0.0,nan,338.512055932,415.600143746,416.100166554,415.958677636,nan,nan,nan,nan
1,67,1,1,1.0,1.0,0.334394942969,0,nan,nan,nan,nan,nan,nan,nan,nan,nan,208,0.97651257568,0.025020743352,0.522574479073,nan,nan,nan,nan,0.0,0.0,0.0,nan,338.512055932,416.600265767,417.100322503,416.93466071,nan,nan,nan,nan
1,68,1,1,1.0,1.0,0.286227950826,1,nan,nan,nan,nan,nan,nan,nan,nan,nan,395,-0.0383984177995,0.474183508328,-0.351427224487,175.932480433,274.067519567,-3.66685543342,390.0,-0.0641960347588,0.476284203309,-0.291947553613,2.91735869367,338.512055932,417.60041858,418.100421716,417.886646531,422.359294246,423.367913323,419.425573788,422.350950003
1,69,1,1,1.0,1.0,0.598671500571,0,nan,nan,nan,nan,nan,nan,nan,nan,nan,467,0.473005185182,0.365775667588,-1.0,nan,nan,nan,nan,0.0,0.0,0.0,nan,338.512055932,423.567861265,424.067880651,424.166532765,nan,nan,nan,nan
1,70,1,1,1.0,1.0,0.398598686792,0,nan,nan,nan,nan,nan,nan,nan,nan,nan,293,0.103830259013,0.378659598285,0.564617056734,nan,nan,nan,nan,0.0,0.0,0.0,nan,338.512055932,424.567939951,425.067973307,424.966538638,nan,nan,nan,nan
1,71,1,1,1.0,1.0,0.318417775445,0,nan,nan,nan,nan,nan,nan,nan,nan,nan,215,0.910639861846,0.0628947364355,0.558695148714,nan,nan,nan,nan,0.0,0.0,0.0,nan,338.512055932,425.568101317,426.068101602,425.886519092,nan,nan,nan,nan
1,72,1,1,1.0,1.0,0.382284534164,0,nan,nan,nan,nan,nan,nan,nan,nan,nan,13,0.950262168777,0.154664060346,-1.0,nan,nan,nan,nan,0.0,0.0,0.0,nan,338.512055932,426.568197395,427.068226189,426.950481929,nan,nan,nan,nan
1,73,1,1,1.0,1.0,0.278150843456,0,nan,nan,nan,nan,nan,nan,nan,nan,nan,402,0.000724920831492,0.470139955471,-0.437811562499,nan,nan,nan,nan,0.0,0.0,0.0,nan,338.512055932,427.56832854,428.068351918,427.846479383,nan,nan,nan,nan
1,74,1,1,1.0,1.0,0.325988832861,0,nan,nan,nan,nan,nan,nan,nan,nan,nan,296,0.0772713571413,0.386205321608,0.550001308524,nan,nan,nan,nan,0.0,0.0,0.0,nan,338.512055932,428.568457689,429.068481637,428.894446522,nan,nan,nan,nan
1,75,1,1,1.0,1.0,0.357817154378,0,nan,nan,nan,nan,nan,nan,nan,nan,nan,78,1.0,-0.179467652321,-0.739907630878,nan,nan,nan,nan,0.0,0.0,0.0,nan,338.512055932,429.568599097,430.068601663,429.926416252,nan,nan,nan,nan
1,76,0,0,0.0,1.0,0.54967943579,0,nan,nan,nan,nan,nan,nan,nan,nan,nan,302,0.027086081288,0.400300843718,0.517770016443,nan,nan,nan,nan,0.0,0.0,0.0,nan,338.512055932,430.568730243,431.06876702,431.118409678,nan,nan,nan,nan
1,77,1,1,1.0,1.0,0.437590091489,0,nan,nan,nan,nan,nan,nan,nan,nan,nan,446,0.304696255059,0.41359904426,-1.0,nan,nan,nan,nan,0.0,0.0,0.0,nan,338.512055932,431.568816056,432.068861102,432.006406148,nan,nan,nan,nan
1,78,1,1,1.0,1.0,0.365407598205,0,nan,nan,nan,nan,nan,nan,nan,nan,nan,175,1.0,-0.155629953633,0.290361762956,nan,nan,nan,nan,0.0,0.0,0.0,nan,338.512055932,432.568962597,433.068985404,432.934370195,nan,nan,nan,nan
1,79,1,1,1.0,1.0,0.349298715591,0,nan,nan,nan,nan,nan,nan,nan,nan,nan,226,0.801265930663,0.120208988367,0.60458276857,nan,nan,nan,nan,0.0,0.0,0.0,nan,338.512055932,433.569070364,434.069107141,433.91836908,nan,nan,nan,nan
1,80,0,0,0.0,1.0,0.741106659174,0,nan,nan,nan,nan,nan,nan,nan,nan,nan,102,1.0,-0.276610342793,-0.434926949461,nan,nan,nan,nan,0.0,0.0,0.0,nan,338.512055932,434.569222606,435.069287893,435.310329265,nan,nan,nan,nan
1,81,1,1,1.0,1.0,0.372981222346,0,0.0,0.0,0.0,0.411302132974,0.088326009839,0.322976123135,0.499628142813,0.088326009839,0.487795532371,301,0.0351599448551,0.39804275895,0.523414514543,nan,nan,nan,nan,0.0,0.0,0.0,nan,338.512055932,435.56934976,436.06939338,435.942330983,nan,nan,nan,nan
1,82,1,1,1.0,1.0,0.42884072382,0,0.0,0.0,0.0,0.410829035312,0.0878810281485,0.322948007164,0.498710063461,0.0878810281485,0.514309535113,451,0.343830962376,0.403518361206,-1.0,nan,nan,nan,nan,0.0,0.0,0.0,nan,338.512055932,436.569486607,437.069514262,436.998327331,nan,nan,nan,nan
1,83,1,1,1.0,1.0,0.420698329806,0,0.0,0.0,0.0,0.41104869005,0.0873658936323,0.323682796418,0.498414583683,0.0873658936323,0.407506758658,337,-0.160643365934,0.457858386897,0.259303564052,nan,nan,nan,nan,0.0,0.0,0.0,nan,338.512055932,437.569606348,438.06962659,437.990304678,nan,nan,nan,nan
1,84,1,1,1.0,1.0,0.460557856597,0,0.0,0.0,0.0,0.41116495077,0.0868443797231,0.324320571047,0.498009330493,0.0868443797231,0.436698970074,114,1.0,-0.303747463913,-0.303859371662,nan,nan,nan,nan,0.0,0.0,0.0,nan,338.512055932,438.569726374,439.069742055,439.030284231,nan,nan,nan,nan
1,85,1,1,1.0,1.0,0.460429848172,0,0.0,0.0,0.0,0.411752961554,0.0864919592748,0.325261002279,0.498244920829,0.0864919592748,0.447228678192,308,-0.0186828559465,0.413097475488,0.481682330771,nan,nan,nan,nan,0.0,0.0,0.0,nan,338.512055932,439.569835281,440.069866357,440.030265129,nan,nan,nan,nan
1,86,1,1,1.0,1.0,0.364274620079,0,0.0,0.0,0.0,0.412325630808,0.0861417246134,0.326183906195,0.498467355422,0.0861417246134,0.428420774949,419,0.107894673663,0.454841969249,-0.678098861371,nan,nan,nan,nan,0.0,0.0,0.0,nan,338.512055932,440.569964145,441.070003774,440.934238765,nan,nan,nan,nan
1,87,1,1,1.0,1.0,0.308094098233,0,0.0,0.0,0.0,0.411766898125,0.0857942219763,0.325972676149,0.497561120102,0.0857942219763,0.377599522161,227,0.791019951953,0.125257787881,0.608066708266,nan,nan,nan,nan,0.0,0.0,0.0,nan,338.512055932,441.570132923,442.070138626,441.878227022,nan,nan,nan,nan
1,88,1,1,1.0,1.0,0.355981124565,0,0.0,0.0,0.0,0.410575256747,0.0860125813938,0.324562675353,0.496587838141,0.0860125813938,0.342783280959,383,-0.0968787136249,0.478131214543,-0.211081409456,nan,nan,nan,nan,0.0,0.0,0.0,nan,338.512055932,442.57023841,443.070262073,442.926219534,nan,nan,nan,nan
1,89,1,1,1.0,1.0,0.267850545235,0,1.0,0.0,0.0,0.409954868881,0.0857180189156,0.324236849966,0.495672887797,0.0857180189156,0.310641922678,210,0.958022500947,0.0359304984579,0.533421856807,nan,nan,nan,nan,0.0,0.0,0.0,nan,338.512055932,443.570358436,444.070379818,443.838208981,nan,nan,nan,nan
1,90,1,1,1.0,1.0,0.419711036608,1,0.0,0.0,1.0,0.408358191088,0.0865411297593,0.321817061328,0.494899320847,0.0865411297593,0.347847568803,96,1.0,-0.25681952169,-0.503302481145,17.7838884427,72.2161115573,4.71611155731,103.0,1.0,-0.279537473278,-0.423758835275,2.35891763214,338.512055932,444.570475326,445.070504121,444.990186363,448.77098662,449.778279138,446.395702948,448.762652641
1,91,1,1,1.0,1.0,0.466548901983,0,0.0,0.0,0.0,0.408484333816,0.0860672302127,0.322417103603,0.494551564028,0.0860672302127,0.384703494608,503,0.773020196022,0.248538461814,-1.0,nan,nan,nan,nan,0.0,0.0,0.0,nan,338.512055932,449.979492913,450.479525984,450.446041815,nan,nan,nan,nan
1,92,1,1,1.0,1.0,0.410425970331,0,0.0,0.0,0.0,0.409122405993,0.0858068092776,0.323315596716,0.494929215271,0.0858068092776,0.432228636307,253,0.513865899396,0.244839928328,0.655977188727,nan,nan,nan,nan,0.0,0.0,0.0,nan,338.512055932,450.979640024,451.479678227,451.390065994,nan,nan,nan,nan
1,93,1,1,1.0,1.0,0.418264165521,0,0.0,0.0,0.0,0.409136575171,0.085339300798,0.323797274373,0.494475875969,0.085339300798,0.431746345945,116,1.0,-0.306446923025,-0.282515442494,nan,nan,nan,nan,0.0,0.0,0.0,nan,338.512055932,451.97977516,452.479791125,452.398039325,nan,nan,nan,nan
1,94,1,1,1.0,1.0,0.450119284913,0,0.0,0.0,0.0,0.409234721304,0.0848844675339,0.32435025377,0.494119188838,0.0848844675339,0.426269806921,12,0.942476689623,0.159273951266,-1.0,nan,nan,nan,nan,0.0,0.0,0.0,nan,338.512055932,452.979899462,453.479923411,453.430018747,nan,nan,nan,nan
1,95,1,1,1.0,1.0,0.353646743111,0,0.0,0.0,0.0,0.40966966347,0.0845358691447,0.325133794325,0.494205532614,0.0845358691447,0.407343397848,502,0.764740937618,0.25241357569,-1.0,nan,nan,nan,nan,0.0,0.0,0.0,nan,338.512055932,453.988362877,454.488391956,454.34200962,nan,nan,nan,nan
1,96,1,1,1.0,1.0,0.329542292282,0,0.0,0.0,0.0,0.409079948519,0.0842839166917,0.324796031827,0.49336386521,0.0842839166917,0.377769440102,141,1.0,-0.291952736687,-0.024586852943,nan,nan,nan,nan,0.0,0.0,0.0,nan,338.512055932,454.988463801,455.48851911,455.318006094,nan,nan,nan,nan
1,97,1,1,1.0,1.0,0.297319681384,0,0.0,0.0,0.0,0.408251431266,0.0842317802173,0.324019651049,0.492483211483,0.0842317802173,0.326836238926,2,0.863024578927,0.203622855609,-1.0,nan,nan,nan,nan,0.0,0.0,0.0,nan,338.512055932,455.988639992,456.488641988,456.285959673,nan,nan,nan,nan
1,98,0,0,0.0,1.0,0.425206297077,0,0.0,0.0,0.0,0.407107804979,0.084542327429,0.32256547755,0.491650132408,0.084542327429,0.350689423581,490,0.664660387652,0.296157848571,-1.0,nan,nan,nan,nan,0.0,0.0,0.0,nan,338.512055932,456.988760873,457.488800216,457.41396717,nan,nan,nan,nan
1,99,1,1,1.0,1.0,0.425054909661,0,0.0,0.0,0.0,0.40729248347,0.084129547234,0.323162936236,0.491422030704,0.084129547234,0.382526962707,285,0.178734351563,0.356878681702,0.598527012995,nan,nan,nan,nan,0.0,0.0,0.0,nan,338.512055932,457.988871492,458.488905133,458.413926401,nan,nan,nan,nan
1,100,1,1,1.0,1.0,0.432913917117,0,0.0,0.0,0.0,0.407471901916,0.0837224145567,0.323749487359,0.491194316473,0.0837224145567,0.427725041285,227,0.791019951953,0.125257787881,0.608066708266,nan,nan,nan,nan,0.0,0.0,0.0,nan,338.512055932,458.98900007,459.489039414,459.421913987,nan,nan,nan,nan
1,101,1,1,1.0,1.0,0.256806424819,0,0.0,0.0,0.0,0.407726322068,0.0833412053187,0.324385116749,0.491067527387,0.0833412053187,0.371591750532,443,0.281558783006,0.419268214519,-1.0,nan,nan,nan,nan,0.0,0.0,0.0,nan,338.512055932,459.98910185,460.489146611,460.245908275,nan,nan,nan,nan
1,102,1,1,1.0,1.0,0.280303617939,0,0.0,0.0,0.0,0.406232065659,0.0842630812338,0.321968984426,0.490495146893,0.0842630812338,0.323341319958,106,1.0,-0.287630069369,-0.390564445695,nan,nan,nan,nan,0.0,0.0,0.0,nan,338.512055932,460.997574957,461.497604323,461.277878575,nan,nan,nan,nan
1,103,1,1,1.0,1.0,0.431097843684,0,0.0,0.0,0.0,0.404997473035,0.0847620346231,0.320235438412,0.489759507658,0.0847620346231,0.322735962148,419,0.107894673663,0.454841969249,-0.678098861371,nan,nan,nan,nan,0.0,0.0,0.0,nan,338.512055932,461.998769232,462.497762837,462.429867076,nan,nan,nan,nan
1,104,1,1,1.0,1.0,0.344038946554,0,0.0,0.0,0.0,0.405250874692,0.0843883804546,0.320862494237,0.489639255146,0.0843883804546,0.351813469393,318,-0.0835627602325,0.431640264478,0.413481556053,nan,nan,nan,nan,0.0,0.0,0.0,nan,338.512055932,462.997839243,463.497864617,463.34187819,nan,nan,nan,nan
1,105,1,1,1.0,1.0,0.423862345517,0,0.0,0.0,0.0,0.404662298459,0.0841938550713,0.320468443388,0.488856153531,0.0841938550713,0.399666378585,8,0.91102658764,0.177400941622,-1.0,nan,nan,nan,nan,0.0,0.0,0.0,nan,338.512055932,463.997971528,464.497982077,464.421833874,nan,nan,nan,nan
1,106,1,1,1.0,1.0,0.311730805784,0,0.0,0.0,0.0,0.404845156051,0.0838127206526,0.321032435398,0.488657876703,0.0838127206526,0.359877365952,482,0.597655625539,0.322480811492,-1.0,nan,nan,nan,nan,0.0,0.0,0.0,nan,338.512055932,464.998080151,465.498144583,465.309810957,nan,nan,nan,nan
1,107,1,1,1.0,1.0,0.247629982419,0,0.0,0.0,0.0,0.403966718784,0.0839006916419,0.320066027142,0.487867410426,0.0839006916419,0.327741044573,289,0.140592130943,0.368073254824,0.582505265782,nan,nan,nan,nan,0.0,0.0,0.0,nan,338.512055932,465.998201317,466.498276298,466.2458313,nan,nan,nan,nan
1,108,1,1,1.0,1.0,0.24744210206,0,1.0,0.0,0.0,0.40250562779,0.0848517847463,0.317653843043,0.487357412536,0.0848517847463,0.268934296754,91,1.0,-0.237709898716,-0.562722318432,nan,nan,nan,nan,0.0,0.0,0.0,nan,338.512055932,466.998329042,467.498375512,467.245771144,nan,nan,nan,nan
1,109,0,0,1.0,0.0,0.311256403103,0,0.0,0.0,0.0,0.401069854403,0.0857539209779,0.315315933425,0.486823775381,0.0857539209779,0.268776162528,26,1.0,0.0920921692153,-1.0,nan,nan,nan,nan,0.0,0.0,0.0,nan,338.512055932,467.998504091,468.498522907,468.309760494,nan,nan,nan,nan
1,110,1,1,1.0,1.0,0.351140162908,0,0.0,0.0,0.0,0.400245877786,0.0857880804719,0.314457797314,0.486033958258,0.0857880804719,0.303279556024,274,0.289344050657,0.322900892411,0.632670269059,nan,nan,nan,nan,0.0,0.0,0.0,nan,338.512055932,468.998606157,469.498648351,469.349746319,nan,nan,nan,nan
1,111,1,1,1.0,1.0,0.367016975768,0,0.0,0.0,0.0,0.399799462196,0.0855243334614,0.314275128735,0.485323795658,0.0855243334614,0.34313784726,62,1.0,-0.0974372467467,-1.0,nan,nan,nan,nan,0.0,0.0,0.0,nan,338.512055932,469.998707651,470.498751557,470.365724627,nan,nan,nan,nan
1,112,1,1,1.0,1.0,0.318855686113,0,0.0,0.0,0.0,0.399504124481,0.0851945461528,0.314309578328,0.484698670633,0.0851945461528,0.345670941596,355,-0.173737462994,0.472683863687,0.0888799762457,nan,nan,nan,nan,0.0,0.0,0.0,nan,338.512055932,470.998870157,471.498905509,471.317725843,nan,nan,nan,nan
1,113,0,0,0.0,1.0,0.374694660306,0,0.0,0.0,0.0,0.398784049138,0.0851519851665,0.313632063972,0.483936034304,0.0851519851665,0.353522440729,105,1.0,-0.285049837405,-0.401580786678,nan,nan,nan,nan,0.0,0.0,0.0,nan,338.512055932,471.999003298,472.499033803,472.373697958,nan,nan,nan,nan
1,114,1,1,1.0,1.0,0.318552057259,0,0.0,0.0,0.0,0.398570868706,0.0848043843822,0.313766484324,0.483375253088,0.0848043843822,0.337367467893,364,-0.160194321586,0.476704516321,-0.00341124574885,nan,nan,nan,nan,0.0,0.0,0.0,nan,338.512055932,472.999100516,473.499135298,473.317652573,nan,nan,nan,nan
1,115,1,1,1.0,1.0,0.310421921313,0,0.0,0.0,0.0,0.397868949307,0.0847606739855,0.313108275322,0.482629623293,0.0847606739855,0.334556212959,448,0.32026743599,0.409662251776,-1.0,nan,nan,nan,nan,0.0,0.0,0.0,nan,338.512055932,473.999237078,474.499264447,474.309659,nan,nan,nan,nan
1,116,1,1,1.0,1.0,0.300230530091,0,1.0,0.0,0.0,0.397108540368,0.0847809904151,0.312327549953,0.481889530783,0.0847809904151,0.309734836221,186,1.0,-0.0967386681424,0.377881386018,nan,nan,nan,nan,0.0,0.0,0.0,nan,338.512055932,475.049389491,475.549420566,475.349620021,nan,nan,nan,nan
1,117,1,1,1.0,1.0,0.324105761945,1,0.0,0.0,1.0,0.396273385107,0.0848885333687,0.311384851738,0.481161918476,0.0848885333687,0.311586071116,504,0.78128615449,0.244628286196,-1.0,-33.8327715385,123.832771539,129.457771539,176.0,1.0,-0.150429669724,0.298675466069,2.70062618889,338.512055932,476.049511513,476.549540878,476.373617275,480.591700288,481.601753978,477.874712336,480.58336916
1,118,1,1,1.0,1.0,0.677285230719,0,0.0,0.0,0.0,0.395656567815,0.0847856508433,0.310870916972,0.480442218658,0.0847856508433,0.433873840918,314,-0.0594438881467,0.42463230952,0.441925406839,nan,nan,nan,nan,0.0,0.0,0.0,nan,338.512055932,481.800222832,482.300298098,482.477508062,nan,nan,nan,nan
1,119,1,1,1.0,1.0,0.525138215162,0,0.0,0.0,0.0,0.398043251399,0.0882844745246,0.309758776874,0.486327725924,0.0882844745246,0.508843069275,14,0.95801504718,0.150023555696,-1.0,nan,nan,nan,nan,0.0,0.0,0.0,nan,338.512055932,482.800343429,483.300430099,483.325481644,nan,nan,nan,nan
1,120,1,1,1.0,1.0,0.301004000939,0,0.0,1.0,0.0,0.399111276305,0.088674975646,0.310436300659,0.487786251951,0.088674975646,0.501142482273,220,0.861731547614,0.0893272636146,0.581247684387,nan,nan,nan,nan,0.0,0.0,0.0,nan,338.512055932,483.800493104,484.300532448,484.101497105,nan,nan,nan,nan
1,121,1,1,1.0,1.0,0.372833541594,1,0.0,0.0,1.0,0.398293715677,0.0887539545704,0.309539761106,0.487047670247,0.0887539545704,0.399658585899,127,1.0,-0.31111021432,-0.167036648065,-26.7915155294,116.791515529,27.4946405294,166.0,1.0,-0.20036215083,0.21267421211,2.62556991074,338.512055932,484.800622254,485.300659887,485.173455795,489.267828877,490.275213196,486.625826783,489.259493472
1,122,1,1,1.0,1.0,0.785013148561,0,0.0,0.0,0.0,0.398083301015,0.0884164917443,0.30966680927,0.486499792759,0.0884164917443,0.486283563698,425,0.149162615564,0.447529597292,-0.791715667876,nan,nan,nan,nan,0.0,0.0,0.0,nan,338.512055932,490.476339731,490.976405874,491.26135288,nan,nan,nan,nan
1,123,1,1,1.0,1.0,0.456875532866,0,0.0,0.0,0.0,0.401254857142,0.0947127726378,0.306542084504,0.49596762978,0.0947127726378,0.538240741007,308,-0.0186828559465,0.413097475488,0.481682330771,nan,nan,nan,nan,0.0,0.0,0.0,nan,338.512055932,491.476468881,491.976480285,491.933344414,nan,nan,nan,nan
1,124,1,1,1.0,1.0,0.408729068004,0,0.0,1.0,0.0,0.401707057758,0.0944591210483,0.307247936709,0.496166178806,0.0944591210483,0.550205916477,160,1.0,-0.227501418013,0.158297521075,nan,nan,nan,nan,0.0,0.0,0.0,nan,338.512055932,492.476595749,492.976618842,492.885324817,nan,nan,nan,nan
1,125,1,1,1.0,1.0,0.528555397876,1,0.0,0.0,1.0,0.401763686873,0.0940795628253,0.307684124047,0.495843249698,0.0940795628253,0.464719999582,295,0.0860222946478,0.38372732295,0.554986075565,-123.759601205,213.759601205,6.33772620484,304.0,0.0113092810281,0.404708921832,0.506160370659,3.40904524177,338.512055932,493.476728319,493.976783914,494.005283717,498.72734242,499.728611676,495.301931708,498.719011292
1,126,1,1,1.0,1.0,0.485595718026,0,0.0,0.0,0.0,0.402778020561,0.0943808066254,0.308397213935,0.497158827186,0.0943808066254,0.474293394635,413,0.0683106243366,0.461143133648,-0.585495598612,nan,nan,nan,nan,0.0,0.0,0.0,nan,338.512055932,499.927551511,500.427581161,500.413147229,nan,nan,nan,nan
1,127,0,0,0.0,1.0,0.405481233262,0,0.0,0.0,0.0,0.403435303874,0.0942923273962,0.309142976478,0.49772763127,0.0942923273962,0.473210783054,26,1.0,0.0920921692153,-1.0,nan,nan,nan,nan,0.0,0.0,0.0,nan,338.512055932,500.927688928,501.427717723,501.333170162,nan,nan,nan,nan
1,128,1,1,1.0,1.0,0.725347306579,0,0.0,0.0,0.0,0.403451413554,0.0939205381847,0.309530875369,0.497371951739,0.0939205381847,0.538808085956,83,1.0,-0.203097876184,-0.665876706514,nan,nan,nan,nan,0.0,0.0,0.0,nan,338.512055932,501.92778415,502.427865404,502.653131457,nan,nan,nan,nan
1,129,1,1,1.0,1.0,0.421210651286,0,0.0,0.0,0.0,0.405966225218,0.097751399846,0.308214825372,0.503717625064,0.097751399846,0.517346397042,221,0.851781464038,0.0945411604707,0.585422935822,nan,nan,nan,nan,0.0,0.0,0.0,nan,338.512055932,502.927921853,503.427939244,503.349132504,nan,nan,nan,nan
1,130,1,1,1.0,1.0,0.270152139477,0,0.0,0.0,0.0,0.406084399064,0.0973809597705,0.308703439293,0.503465358834,0.0973809597705,0.472236699114,321,-0.0999433513493,0.43654647086,0.391174984052,nan,nan,nan,nan,0.0,0.0,0.0,nan,338.512055932,503.958974993,504.461420277,504.229127132,nan,nan,nan,nan
1,131,1,1,1.0,1.0,0.33959341608,0,0.0,0.0,0.0,0.405038766298,0.097729968044,0.307308798254,0.502768734342,0.097729968044,0.343652068948,411,0.0555201669072,0.463022710015,-0.557054760163,nan,nan,nan,nan,0.0,0.0,0.0,nan,338.512055932,504.961504951,505.461541444,505.301098367,nan,nan,nan,nan
1,132,1,1,1.0,1.0,0.531410937198,0,0.0,0.0,0.0,0.404539183472,0.0975227303117,0.30701645316,0.502061913783,0.0975227303117,0.380385497585,118,1.0,-0.308588151016,-0.261285249573,nan,nan,nan,nan,0.0,0.0,0.0,nan,338.512055932,505.96163296,506.461711077,506.493043898,nan,nan,nan,nan
1,133,1,1,1.0,1.0,0.355298599228,0,0.0,0.0,0.0,0.405500333121,0.0977734689585,0.307726864163,0.50327380208,0.0977734689585,0.408767650835,399,-0.0164460389312,0.472031251936,-0.400274523968,nan,nan,nan,nan,0.0,0.0,0.0,nan,338.512055932,506.961780926,507.461793755,507.317079525,nan,nan,nan,nan
1,134,1,1,1.0,1.0,0.339158642106,0,0.0,0.0,0.0,0.405122876475,0.0975016956766,0.307621180799,0.502624572152,0.0975016956766,0.408622726177,348,-0.175384772129,0.468017843042,0.157582163916,nan,nan,nan,nan,0.0,0.0,0.0,nan,338.512055932,507.961903803,508.461950274,508.301062445,nan,nan,nan,nan
1,135,0,0,0.0,1.0,0.434973463416,0,0.0,0.0,0.0,0.40463060607,0.0973029595557,0.307327646514,0.501933565625,0.0973029595557,0.376476901583,219,0.871627318206,0.0840881726889,0.576959667802,nan,nan,nan,nan,0.0,0.0,0.0,nan,338.512055932,508.962050058,509.462070585,509.397023521,nan,nan,nan,nan
1,136,1,1,1.0,1.0,0.45088448748,0,0.0,0.0,0.0,0.404855367976,0.0969768168098,0.307878551166,0.501832184786,0.0969768168098,0.408338864334,74,1.0,-0.159715158178,-0.810443278181,nan,nan,nan,nan,0.0,0.0,0.0,nan,338.512055932,509.962141574,510.462184054,510.413026062,nan,nan,nan,nan
1,137,1,1,1.0,1.0,0.378731075674,0,0.0,0.0,0.0,0.405193817384,0.0966996185177,0.308494198866,0.501893435902,0.0966996185177,0.421529675523,254,0.503011129055,0.248947817922,0.65613358125,nan,nan,nan,nan,0.0,0.0,0.0,nan,338.512055932,510.9622616,511.462314914,511.340992676,nan,nan,nan,nan
1,138,1,1,1.0,1.0,0.330584039912,0,0.0,0.0,0.0,0.405000658685,0.0963723834245,0.308628275261,0.50137304211,0.0963723834245,0.386733201022,441,0.266287261384,0.422891888867,-1.0,nan,nan,nan,nan,0.0,0.0,0.0,nan,338.512055932,511.962412418,512.462460884,512.292996458,nan,nan,nan,nan
1,139,1,1,1.0,1.0,0.402411300689,0,0.0,0.0,0.0,0.404461407825,0.0962297927304,0.308231615094,0.500691200555,0.0962297927304,0.370575472092,138,1.0,-0.29832987918,-0.0546508148191,nan,nan,nan,nan,0.0,0.0,0.0,nan,338.512055932,512.962545273,513.462582621,513.364956574,nan,nan,nan,nan
1,140,1,1,1.0,1.0,0.378266936168,0,0.0,0.0,0.0,0.404446658853,0.0958831741166,0.308563484736,0.500329832969,0.0958831741166,0.370420758923,51,1.0,-0.0385160204876,-1.0,nan,nan,nan,nan,0.0,0.0,0.0,nan,338.512055932,513.962688962,514.462695234,514.340955898,nan,nan,nan,nan
1,141,0,0,0.0,1.0,0.386036707088,0,0.0,0.0,0.0,0.404259660833,0.0955655545483,0.308694106285,0.499825215382,0.0955655545483,0.388904981315,373,-0.135407706169,0.478559568072,-0.0996974893599,nan,nan,nan,nan,0.0,0.0,0.0,nan,338.512055932,514.962897369,515.462837784,515.348934076,nan,nan,nan,nan
1,142,1,1,1.0,1.0,0.378010917455,0,0.0,0.0,0.0,0.404130420027,0.0952383442042,0.308892075822,0.499368764231,0.0952383442042,0.380771520237,65,1.0,-0.113312155659,-1.0,nan,nan,nan,nan,0.0,0.0,0.0,nan,338.512055932,515.962905637,516.462941844,516.340916554,nan,nan,nan,nan
1,143,1,1,1.0,1.0,0.433854169212,0,0.0,0.0,0.0,0.403946479868,0.0949275363047,0.309018943563,0.498874016172,0.0949275363047,0.399300597919,491,0.673033477965,0.292707709811,-1.0,nan,nan,nan,nan,0.0,0.0,0.0,nan,338.512055932,516.963045334,517.463062726,517.396899504,nan,nan,nan,nan
1,144,0,0,0.0,1.0,0.601664458402,0,0.0,0.0,0.0,0.404155624548,0.0946278648028,0.309527759746,0.498783489351,0.0946278648028,0.471176515023,381,-0.105403061426,0.478425078289,-0.188431136224,nan,nan,nan,nan,0.0,0.0,0.0,nan,338.512055932,517.963190734,518.463239201,518.564855193,nan,nan,nan,nan
1,145,1,1,1.0,1.0,0.545541525818,0,0.0,0.0,0.0,0.405527213672,0.0957145179569,0.309812695716,0.501241731629,0.0957145179569,0.527020051144,188,1.0,-0.0857393506835,0.392804289229,nan,nan,nan,nan,0.0,0.0,0.0,nan,338.512055932,518.963305344,519.46336664,519.50884687,nan,nan,nan,nan
1,146,1,1,1.0,1.0,0.313402904198,0,0.0,0.0,0.0,0.406492829618,0.0960851467234,0.310407682895,0.502577976342,0.0960851467234,0.486869629472,64,1.0,-0.108036866323,-1.0,nan,nan,nan,nan,0.0,0.0,0.0,nan,338.512055932,519.963436204,520.463457871,520.276839108,nan,nan,nan,nan
1,147,1,1,1.0,1.0,0.297265226953,0,0.0,0.0,0.0,0.405855227389,0.0960628331723,0.309792394217,0.501918060562,0.0960628331723,0.38540321899,443,0.281558783006,0.419268214519,-1.0,nan,nan,nan,nan,0.0,0.0,0.0,nan,338.512055932,520.963562788,521.463588731,521.260828014,nan,nan,nan,nan
1,148,1,1,1.0,1.0,0.329135743901,0,0.0,0.0,0.0,0.405116519903,0.0961507280385,0.308965791865,0.501267247942,0.0961507280385,0.31326795835,106,1.0,-0.287630069369,-0.390564445695,nan,nan,nan,nan,0.0,0.0,0.0,nan,338.512055932,521.963670269,522.463728714,522.292806013,nan,nan,nan,nan
1,149,0,0,0.0,1.0,0.328970956616,0,0.0,0.0,0.0,0.404603136282,0.0960272891563,0.308575847125,0.500630425438,0.0960272891563,0.318457309157,292,0.112881669716,0.376069582356,0.569261850688,nan,nan,nan,nan,0.0,0.0,0.0,nan,338.512055932,522.963831919,523.463861,523.292802876,nan,nan,nan,nan
1,150,1,1,1.0,1.0,0.312830428593,0,0.0,0.0,0.0,0.404095537761,0.0959035237645,0.308192013996,0.499999061525,0.0959035237645,0.323645709703,158,1.0,-0.235949227405,0.139764106,nan,nan,nan,nan,0.0,0.0,0.0,nan,338.512055932,523.963948525,524.463961069,524.276778953,nan,nan,nan,nan
1,151,1,1,1.0,1.0,0.35268510785,0,0.0,0.0,0.0,0.403487103699,0.0958714133983,0.307615690301,0.499358517098,0.0958714133983,0.331495497686,380,-0.109519508899,0.478533032186,-0.177177385375,nan,nan,nan,nan,0.0,0.0,0.0,nan,338.512055932,524.964070546,525.464131272,525.316755654,nan,nan,nan,nan
1,152,1,1,1.0,1.0,0.320543749258,0,0.0,0.0,0.0,0.403150666641,0.095642232669,0.307508433972,0.49879289931,0.095642232669,0.328686428567,19,0.99625917486,0.126374530333,-1.0,nan,nan,nan,nan,0.0,0.0,0.0,nan,338.512055932,525.964186867,526.464217086,526.284730616,nan,nan,nan,nan
1,153,1,1,1.0,1.0,0.296374011785,0,0.0,0.0,0.0,0.402607200079,0.0955607393597,0.307046460719,0.498167939439,0.0955607393597,0.323200956297,442,0.273907262724,0.421095538958,-1.0,nan,nan,nan,nan,0.0,0.0,0.0,nan,338.512055932,526.964344526,527.464368189,527.260718537,nan,nan,nan,nan
1,154,1,1,1.0,1.0,0.304225890897,0,0.0,0.0,0.0,0.401912865515,0.0956318401724,0.306281025343,0.497544705687,0.0956318401724,0.30704788398,321,-0.0999433513493,0.43654647086,0.391174984052,nan,nan,nan,nan,0.0,0.0,0.0,nan,338.512055932,527.964456854,528.464468543,528.268682745,nan,nan,nan,nan
1,155,1,1,1.0,1.0,0.288090780377,0,1.0,0.0,0.0,0.401278534511,0.0956432241411,0.304784358505,0.496312223367,0.0956432241411,0.296230227686,260,0.438016636947,0.272781976488,0.654406567654,nan,nan,nan,nan,0.0,0.0,0.0,nan,338.512055932,528.964578305,529.464622211,529.252669086,nan,nan,nan,nan
1,156,1,1,nan,nan,nan,0,0.0,0.0,0.0,0.400548290936,0.0957639324309,0.304784358505,0.496312223367,0.0957639324309,0.296158335637,327,-0.128086156831,0.445480682368,0.344176439252,nan,nan,nan,nan,0.0,0.0,0.0,nan,338.512055932,529.96471002,530.464767326,nan,nan,nan,nan,nan
1,157,1,1,1.0,1.0,0.543804995716,0,0.0,0.0,0.0,0.400548290936,0.0957639324309,0.304784358505,0.496312223367,0.0957639324309,0.415947888047,205,1.0,0.00854800403903,0.505535240796,nan,nan,nan,nan,0.0,0.0,0.0,nan,338.512055932,530.964834323,531.464898186,531.508639319,nan,nan,nan,nan
1,158,1,1,1.0,1.0,0.48766723834,0,0.0,0.0,0.0,0.401466603146,0.0961387284235,0.305327874723,0.49760533157,0.0961387284235,0.515736117028,119,1.0,-0.309446327048,-0.250710895617,nan,nan,nan,nan,0.0,0.0,0.0,nan,338.512055932,531.96494209,532.473303439,532.452609329,nan,nan,nan,nan
1,159,1,1,1.0,1.0,0.351515637711,0,0.0,0.0,0.0,0.402015651778,0.0960771126473,0.305938539131,0.498092764425,0.0960771126473,0.460995957255,267,0.362924526182,0.298807232282,0.646622522267,nan,nan,nan,nan,0.0,0.0,0.0,nan,338.512055932,532.965090056,533.465126834,533.316605694,nan,nan,nan,nan
1,160,1,1,1.0,1.0,0.334020324051,0,0.0,0.0,0.0,0.401696031436,0.0958562850896,0.305839746346,0.497552316525,0.0958562850896,0.391067733367,129,1.0,-0.310070485259,-0.146368003411,nan,nan,nan,nan,0.0,0.0,0.0,nan,338.512055932,533.998562536,534.498595037,534.33258286,nan,nan,nan,nan
1,161,0,0,0.0,1.0,0.509856116958,0,0.0,0.0,0.0,0.401270398056,0.095704035526,0.30556636253,0.496974433582,0.095704035526,0.39846402624,447,0.312467642152,0.411646472288,-1.0,nan,nan,nan,nan,0.0,0.0,0.0,nan,338.512055932,534.998694536,535.498740722,535.508550653,nan,nan,nan,nan
1,162,1,1,1.0,1.0,0.717722365633,0,0.0,0.0,0.0,0.401949058799,0.0957875216828,0.306161537116,0.497736580482,0.0957875216828,0.520532935547,236,0.697004556276,0.169301754335,0.634065852989,nan,nan,nan,nan,0.0,0.0,0.0,nan,338.512055932,535.998811997,536.498871868,536.716534362,nan,nan,nan,nan
1,163,1,1,1.0,1.0,0.373595322482,0,0.0,0.0,0.0,0.403910383686,0.0986597558991,0.305250627787,0.502570139585,0.0986597558991,0.533724601691,62,1.0,-0.0974372467467,-1.0,nan,nan,nan,nan,0.0,0.0,0.0,nan,338.512055932,536.998932594,537.498977639,537.372527916,nan,nan,nan,nan
1,164,0,0,0.0,1.0,0.405406538397,0,0.0,0.0,0.0,0.403723253679,0.0983834356655,0.305339818013,0.502106689344,0.0983834356655,0.498908075504,4,0.879126049628,0.195014037372,-1.0,nan,nan,nan,nan,0.0,0.0,0.0,nan,338.512055932,537.999109639,538.499107358,538.404516177,nan,nan,nan,nan
1,165,1,1,1.0,1.0,0.277329192497,0,0.0,0.0,0.0,0.403733580579,0.0980812697649,0.305652310814,0.501814850344,0.0980812697649,0.352110351125,317,-0.077772836126,0.429938605076,0.420733606481,nan,nan,nan,nan,0.0,0.0,0.0,nan,338.512055932,538.999191177,539.49922881,539.27652037,nan,nan,nan,nan
1,166,1,1,1.0,1.0,0.309185167775,0,0.0,0.0,0.0,0.402962822115,0.098275686306,0.304687135809,0.501238508421,0.098275686306,0.330640299556,261,0.427225806086,0.276617811781,0.653674462902,nan,nan,nan,nan,0.0,0.0,0.0,nan,338.512055932,539.99931605,540.499359955,540.308501218,nan,nan,nan,nan
1,167,1,1,1.0,1.0,0.309010118246,0,1.0,0.0,0.0,0.402394472695,0.0982474018495,0.304147070845,0.500641874544,0.0982474018495,0.298508159506,77,1.0,-0.174593022316,-0.756267193339,nan,nan,nan,nan,0.0,0.0,0.0,nan,338.512055932,540.999445484,541.499465156,541.308455602,nan,nan,nan,nan
1,168,1,1,1.0,1.0,0.324887500145,1,0.0,0.0,1.0,0.401831916343,0.0982172162041,0.303614700139,0.500049132547,0.0982172162041,0.314360928722,400,-0.0107874812989,0.471427301814,-0.412692688905,163.206091202,286.793908798,5.54390879802,408.0,0.036737934283,0.465637664749,-0.515938449969,3.39240721706,338.512055932,541.999549545,542.499602288,542.324437045,547.241851903,548.243798552,543.833098033,547.233521345
1,169,1,1,1.0,1.0,0.610274982639,0,0.0,0.0,0.0,0.401371171335,0.0981024812508,0.303268690085,0.499473652586,0.0981024812508,0.414724200343,265,0.384259149088,0.291568309415,0.649478858709,nan,nan,nan,nan,0.0,0.0,0.0,nan,338.512055932,548.442052727,548.94212058,549.052327709,nan,nan,nan,nan
1,170,1,1,1.0,1.0,0.306116089225,0,0.0,0.0,0.0,0.402614646403,0.0991212943191,0.303493352084,0.501735940722,0.0991212943191,0.413759524003,480,0.580928072941,0.32870764083,-1.0,nan,nan,nan,nan,0.0,0.0,0.0,nan,338.512055932,549.442190429,549.942229487,549.748306518,nan,nan,nan,nan
1,171,1,1,1.0,1.0,0.297970845364,0,0.0,0.0,0.0,0.402043649023,0.0991043343893,0.302939314634,0.501147983412,0.0991043343893,0.404787305743,186,1.0,-0.0967386681424,0.377881386018,nan,nan,nan,nan,0.0,0.0,0.0,nan,338.512055932,550.442315872,550.942335829,550.740286717,nan,nan,nan,nan
1,172,1,1,1.0,1.0,0.225902961567,0,1.0,0.0,0.0,0.40143145606,0.0991323984803,0.30229905758,0.500563854541,0.0991323984803,0.276663298719,307,-0.0113868739462,0.411053355611,0.487957006857,nan,nan,nan,nan,0.0,0.0,0.0,nan,338.512055932,551.442416511,551.942466688,551.668319473,nan,nan,nan,nan
1,173,1,1,1.0,1.0,0.217779669911,1,0.0,0.0,1.0,0.400404973636,0.0997441049952,0.300660868641,0.500149078632,0.0997441049952,0.247217825614,236,0.697004556276,0.169301754335,0.634065852989,-68.1063268583,158.106326858,-7.83117314173,225.0,0.81146624694,0.115131125244,0.600981946568,3.28405464906,338.512055932,552.442565332,552.942594128,552.660345002,557.568170595,558.570869331,554.267755322,557.55983462
1,174,1,1,1.0,1.0,0.443782701157,0,0.0,0.0,0.0,0.399343198615,0.100418244048,0.298924954567,0.499761442663,0.100418244048,0.295821777545,349,-0.175656888649,0.468768509344,0.147945183432,nan,nan,nan,nan,0.0,0.0,0.0,nan,338.512055932,558.768366857,559.268398503,559.212149558,nan,nan,nan,nan
1,175,0,0,1.0,0.0,0.395622266456,0,0.0,0.0,0.0,0.399600074352,0.100184256168,0.299415818184,0.49978433052,0.100184256168,0.352394879175,176,1.0,-0.150429669724,0.298675466069,nan,nan,nan,nan,0.0,0.0,0.0,nan,338.512055932,559.768515677,560.268549889,560.164137944,nan,nan,nan,nan
1,176,1,1,1.0,1.0,0.267488756217,0,0.0,0.0,0.0,0.399577213387,0.0998964080922,0.299680805295,0.499473621479,0.0998964080922,0.36896457461,345,-0.173519535469,0.465595146217,0.186119282857,nan,nan,nan,nan,0.0,0.0,0.0,nan,338.512055932,560.768636844,561.268674192,561.0361256,nan,nan,nan,nan
1,177,1,1,1.0,1.0,0.331333847716,0,0.0,0.0,0.0,0.398822422203,0.100106929407,0.298715492797,0.49892935161,0.100106929407,0.331481623463,85,1.0,-0.212156452387,-0.638781227021,nan,nan,nan,nan,0.0,0.0,0.0,nan,338.512055932,561.768759436,562.268786521,562.100093284,nan,nan,nan,nan
1,178,1,1,1.0,1.0,0.475197914988,0,0.0,0.0,0.0,0.398438964394,0.0999509356575,0.298488028736,0.498389900051,0.0999509356575,0.35800683964,268,0.35230222188,0.302367520405,0.645005310408,nan,nan,nan,nan,0.0,0.0,0.0,nan,338.512055932,562.768882599,563.268905692,563.244080514,nan,nan,nan,nan
1,179,1,1,1.0,1.0,0.379042402841,0,0.0,0.0,0.0,0.398872630781,0.0998340998872,0.299038530894,0.498706730668,0.0998340998872,0.395191388515,80,1.0,-0.189075709245,-0.708965549488,nan,nan,nan,nan,0.0,0.0,0.0,nan,338.512055932,563.768999203,564.269039403,564.148041606,nan,nan,nan,nan
1,180,1,1,1.0,1.0,0.306897542439,0,0.0,0.0,0.0,0.398761225006,0.0995643046763,0.29919692033,0.498325529682,0.0995643046763,0.387045953423,32,1.0,0.061735800531,-1.0,nan,nan,nan,nan,0.0,0.0,0.0,nan,338.512055932,564.769146029,565.269156863,565.076043571,nan,nan,nan,nan
1,181,1,1,1.0,1.0,0.314790761098,0,0.0,0.0,0.0,0.398248020076,0.0995216162918,0.298726403784,0.497769636367,0.0995216162918,0.333576902126,368,-0.150457169737,0.477793263397,-0.0457341785459,nan,nan,nan,nan,0.0,0.0,0.0,nan,338.512055932,565.769244673,566.269292569,566.084035434,nan,nan,nan,nan
1,182,1,1,1.0,1.0,0.290649817325,0,0.0,0.0,0.0,0.397784368637,0.0994384579797,0.298345910657,0.497222826617,0.0994384579797,0.304112706954,129,1.0,-0.310070485259,-0.146368003411,nan,nan,nan,nan,0.0,0.0,0.0,nan,338.512055932,566.769372967,567.269420578,567.060022784,nan,nan,nan,nan
1,183,1,1,1.0,1.0,0.29850939475,0,0.0,0.0,0.0,0.397192465039,0.0994808525769,0.297711612462,0.496673317615,0.0994808525769,0.301316657724,328,-0.132159558243,0.44685796506,0.336046158271,nan,nan,nan,nan,0.0,0.0,0.0,nan,338.512055932,567.769499836,568.269548872,568.06800923,nan,nan,nan,nan
1,184,1,1,1.0,1.0,0.298344323412,0,1.0,0.0,0.0,0.396650250367,0.0994750089074,0.297175241459,0.496125259274,0.0994750089074,0.295834511829,54,1.0,-0.0546292063271,-1.0,nan,nan,nan,nan,0.0,0.0,0.0,nan,338.512055932,568.769658634,569.26970311,569.068002958,nan,nan,nan,nan
1,185,1,1,1.0,1.0,0.274155768566,1,0.0,0.0,1.0,0.396113059509,0.0994672072306,0.295849292189,0.495051204101,0.0994672072306,0.290336495576,299,0.0516645560415,0.393417669654,0.534378752182,-122.892329743,212.892329743,2.65795474324,303.0,0.0191349273956,0.402522842081,0.512018356663,4.46753762104,338.512055932,569.769778376,570.269807741,570.043934144,576.078868606,577.087733722,571.594963804,576.070533771
1,186,1,1,nan,nan,nan,0,0.0,0.0,0.0,0.395450248145,0.0996009559563,0.295849292189,0.495051204101,0.0996009559563,0.286250045989,509,0.822386376617,0.224555004187,-1.0,nan,nan,nan,nan,0.0,0.0,0.0,nan,338.512055932,577.287382026,577.787464134,nan,nan,nan,nan,nan
1,187,1,1,1.0,1.0,0.380308521912,0,0.0,0.0,0.0,0.395450248145,0.0996009559563,0.295849292189,0.495051204101,0.0996009559563,0.327232145239,364,-0.160194321586,0.476704516321,-0.00341124574885,nan,nan,nan,nan,0.0,0.0,0.0,nan,338.512055932,578.287505473,578.787565344,578.667813995,nan,nan,nan,nan
1,188,1,1,1.0,1.0,0.268154174089,0,0.0,0.0,0.0,0.395368400976,0.0993376037563,0.29603079722,0.494706004733,0.0993376037563,0.324231348,182,1.0,-0.118523835432,0.347089474713,nan,nan,nan,nan,0.0,0.0,0.0,nan,338.512055932,579.287658856,579.787675962,579.55581303,nan,nan,nan,nan
1,189,1,1,1.0,1.0,0.396003155969,0,0.0,0.0,0.0,0.39468445352,0.0995060100547,0.295178443465,0.494190463575,0.0995060100547,0.34815528399,125,1.0,-0.311567427947,-0.187805059354,nan,nan,nan,nan,0.0,0.0,0.0,nan,338.512055932,580.287780878,580.787797414,580.683784034,nan,nan,nan,nan
1,190,1,1,1.0,1.0,0.395843217149,0,0.0,0.0,0.0,0.394691505405,0.0992396411588,0.295451864246,0.493931146563,0.0992396411588,0.353333515736,367,-0.15309091083,0.477560897992,-0.0350816338538,nan,nan,nan,nan,0.0,0.0,0.0,nan,338.512055932,581.287906036,581.787942529,581.683749253,nan,nan,nan,nan
1,191,1,1,1.0,1.0,0.403721325099,0,0.0,0.0,0.0,0.394697631531,0.098975389482,0.295722242049,0.493673021013,0.098975389482,0.398522566073,464,0.448404880525,0.373503555275,-1.0,nan,nan,nan,nan,0.0,0.0,0.0,nan,338.512055932,582.288019504,582.788083937,582.691740829,nan,nan,nan,nan
1,192,1,1,1.0,1.0,0.347277087159,0,0.0,0.0,0.0,0.394745375941,0.0987153732248,0.296030002717,0.493460749166,0.0987153732248,0.382280543136,307,-0.0113868739462,0.411053355611,0.487957006857,nan,nan,nan,nan,0.0,0.0,0.0,nan,338.512055932,583.288447722,583.788204818,583.635724809,nan,nan,nan,nan
1,193,1,1,1.0,1.0,0.251383580267,0,0.0,0.0,0.0,0.394495542843,0.0985151441057,0.295980398737,0.493010686948,0.0985151441057,0.334127330842,510,0.830554458933,0.220436700166,-1.0,nan,nan,nan,nan,0.0,0.0,0.0,nan,338.512055932,584.288317717,584.788316862,584.539701297,nan,nan,nan,nan
1,194,1,1,1.0,1.0,0.249889097176,0,1.0,0.0,0.0,0.393746265552,0.0987982287487,0.294948036803,0.4925444943,0.0987982287487,0.282849921534,181,1.0,-0.123914391386,0.3392011262,nan,nan,nan,nan,0.0,0.0,0.0,nan,338.512055932,585.321771665,585.821779934,585.571660763,nan,nan,nan,nan
1,195,1,1,1.0,1.0,0.305787941441,1,0.0,0.0,1.0,0.392997009466,0.0990831744928,0.293913834973,0.492080183959,0.0990831744928,0.269020206295,363,-0.162287729338,0.476365729747,0.00704812682028,-162.84162607,252.84162607,-2.39274893004,360.0,-0.167709501072,0.475188317955,0.0381258551808,1.88387680519,338.512055932,586.321857195,586.821912219,586.627645137,590.047311983,591.049639522,588.147071988,590.038987412
1,196,1,1,1.0,1.0,0.48404592555,0,0.0,0.0,0.0,0.39254514901,0.0990242892952,0.293520859715,0.491569438305,0.0990242892952,0.346574321389,481,0.589289488337,0.325611856148,-1.0,nan,nan,nan,nan,0.0,0.0,0.0,nan,338.512055932,591.247516513,591.747551294,591.731562438,nan,nan,nan,nan
1,197,1,1,1.0,1.0,0.315929156728,0,0.0,0.0,0.0,0.393016802497,0.0989858508174,0.29403095168,0.492002653315,0.0989858508174,0.368587674573,247,0.578947625354,0.219392674348,0.6523805853,nan,nan,nan,nan,0.0,0.0,0.0,nan,338.512055932,592.247645091,592.747688427,592.563574248,nan,nan,nan,nan
1,198,1,1,1.0,1.0,0.323780465871,0,0.0,0.0,0.0,0.392621481237,0.0988851333407,0.293736347896,0.491506614578,0.0988851333407,0.374585182716,49,1.0,-0.027785429985,-1.0,nan,nan,nan,nan,0.0,0.0,0.0,nan,338.512055932,593.24777082,593.747817576,593.571551286,nan,nan,nan,nan
1,199,1,1,1.0,1.0,0.283668342046,0,0.0,0.0,0.0,0.392270251567,0.098754423243,0.293515828324,0.49102467481,0.098754423243,0.307792654882,3,0.871087178923,0.199335109687,-1.0,nan,nan,nan,nan,0.0,0.0,0.0,nan,338.512055932,594.247920496,594.747956418,594.531588838,nan,nan,nan,nan
1,200,1,1,1.0,1.0,0.419484953396,0,0.0,0.0,0.0,0.391718972838,0.098805350931,0.292913621907,0.490524323769,0.098805350931,0.342311253771,308,-0.0186828559465,0.413097475488,0.481682330771,nan,nan,nan,nan,0.0,0.0,0.0,nan,338.512055932,595.248024557,595.748045939,595.66750951,nan,nan,nan,nan
1,201,1,1,1.0,1.0,0.371341054328,0,0.0,0.0,0.0,0.391859205063,0.0985751786733,0.29328402639,0.490434383737,0.0985751786733,0.358164783257,454,0.367627362238,0.397084843583,-1.0,nan,nan,nan,nan,0.0,0.0,0.0,nan,338.512055932,596.248149144,596.748188773,596.619490199,nan,nan,nan,nan
1,202,1,1,1.0,1.0,0.315194173716,0,0.0,0.0,0.0,0.391756098778,0.0983378934756,0.293418205303,0.490093992254,0.0983378934756,0.368673393813,343,-0.171388175652,0.463836419185,0.204822810802,nan,nan,nan,nan,0.0,0.0,0.0,nan,338.512055932,597.248286847,597.748293974,597.563481021,nan,nan,nan,nan
1,203,1,1,1.0,1.0,0.34702762682,0,0.0,0.0,0.0,0.391373289153,0.0982402752714,0.293133013882,0.489613564424,0.0982402752714,0.344520951621,51,1.0,-0.0385160204876,-1.0,nan,nan,nan,nan,0.0,0.0,0.0,nan,338.512055932,598.248423409,598.748454199,598.595451036,nan,nan,nan,nan
1,204,1,1,1.0,1.0,0.322897517122,0,0.0,0.0,0.0,0.391152663967,0.0980452502668,0.2931074137,0.489197914234,0.0980452502668,0.328373105886,274,0.289344050657,0.322900892411,0.632670269059,nan,nan,nan,nan,0.0,0.0,0.0,nan,338.512055932,599.248536022,599.748563392,599.57143354,nan,nan,nan,nan
1,205,1,1,1.0,1.0,0.345050758682,0,0.0,0.0,0.0,0.390814767201,0.0979195161767,0.292895251024,0.488734283377,0.0979195161767,0.338325300875,226,0.801265930663,0.120208988367,0.60458276857,nan,nan,nan,nan,0.0,0.0,0.0,nan,338.512055932,600.290354171,600.790357022,600.63540493,nan,nan,nan,nan
1,206,0,0,0.0,1.0,0.500188164413,0,0.0,0.0,0.0,0.390589328735,0.0977305741589,0.292858754576,0.488319902894,0.0977305741589,0.389378813406,175,1.0,-0.155629953633,0.290361762956,nan,nan,nan,nan,0.0,0.0,0.0,nan,338.512055932,601.290492443,601.790524375,601.790680608,nan,nan,nan,nan
1,207,1,1,1.0,1.0,0.288814073429,0,0.0,0.0,0.0,0.39112657793,0.0977907891768,0.293335788753,0.488917367106,0.0977907891768,0.378017665508,310,-0.032854544558,0.417080732083,0.468828018046,nan,nan,nan,nan,0.0,0.0,0.0,nan,338.512055932,602.290568564,602.790607053,602.579382638,nan,nan,nan,nan
1,208,1,1,1.0,1.0,0.272685804404,0,0.0,0.0,0.0,0.390627492542,0.0978120803866,0.292815412155,0.488439572928,0.0978120803866,0.353896014082,200,1.0,-0.0191209939188,0.47515178387,nan,nan,nan,nan,0.0,0.0,0.0,nan,338.512055932,603.290715675,603.790738483,603.563401479,nan,nan,nan,nan
1,209,1,1,1.0,1.0,0.29650316108,0,1.0,0.0,0.0,0.390054960075,0.0979181187953,0.29213684128,0.48797307887,0.0979181187953,0.286001012971,487,0.639529740128,0.306295026098,-1.0,nan,nan,nan,nan,0.0,0.0,0.0,nan,338.512055932,604.290860505,604.790889869,604.587363666,nan,nan,nan,nan
1,210,1,1,1.0,1.0,0.456365778111,1,0.0,0.0,1.0,0.389603019017,0.0978964503906,0.291706568627,0.487499469408,0.0978964503906,0.341851581198,164,1.0,-0.209685835145,0.194761549991,-33.1949311401,123.19493114,7.8824311401,175.0,1.0,-0.155629953633,0.290361762956,2.72563725058,338.512055932,605.290979676,605.791013317,605.747345454,609.858180938,610.86114282,607.116178217,609.84994931
1,211,1,1,1.0,1.0,0.504838679917,0,0.0,0.0,0.0,0.38992399382,0.09776996259,0.29215403123,0.48769395641,0.09776996259,0.419235873036,0,0.846831709088,0.212097570855,-1.0,nan,nan,nan,nan,0.0,0.0,0.0,nan,338.512055932,611.0583772,611.558432509,611.56321588,nan,nan,nan,nan
1,212,0,0,1.0,0.0,0.384718985297,0,0.0,0.0,0.0,0.390473824854,0.0978576019219,0.292616222932,0.488331426776,0.0978576019219,0.448641147775,123,1.0,-0.311441137266,-0.208672863777,nan,nan,nan,nan,0.0,0.0,0.0,nan,338.512055932,612.058490383,612.558551679,612.443209369,nan,nan,nan,nan
1,213,1,1,1.0,1.0,0.288609657437,0,0.0,0.0,0.0,0.390446420857,0.0976251334623,0.292821287394,0.488071554319,0.0976251334623,0.392722440884,340,-0.166837174664,0.460980112934,0.232376404312,nan,nan,nan,nan,0.0,0.0,0.0,nan,338.512055932,613.058632933,613.558660017,613.34724259,nan,nan,nan,nan
1,214,1,1,1.0,1.0,0.256454614922,0,0.0,0.0,0.0,0.389963782167,0.0976443294258,0.292319452742,0.487608111593,0.0976443294258,0.309927752552,493,0.689769084006,0.285700779988,-1.0,nan,nan,nan,nan,0.0,0.0,0.0,nan,338.512055932,614.058739274,614.558775197,614.315193889,nan,nan,nan,nan
1,215,1,1,1.0,1.0,0.36827853322,0,0.0,0.0,0.0,0.389334021944,0.0978423404156,0.291491681529,0.48717636236,0.0978423404156,0.30444760186,137,1.0,-0.300190217086,-0.0647316600203,nan,nan,nan,nan,0.0,0.0,0.0,nan,338.512055932,615.058883534,615.558933141,615.427162067,nan,nan,nan,nan
1,216,1,1,1.0,1.0,0.416139901616,0,0.0,0.0,0.0,0.389235169885,0.0976230041668,0.291612165718,0.486858174052,0.0976230041668,0.346957683253,25,1.0,0.0970682892709,-1.0,nan,nan,nan,nan,0.0,0.0,0.0,nan,338.512055932,616.058992726,616.559021806,616.475132627,nan,nan,nan,nan
1,217,1,1,1.0,1.0,0.437933918089,0,0.0,0.0,0.0,0.38936089293,0.0974119284183,0.291948964512,0.486772821349,0.0974119284183,0.407450784308,452,0.351738073422,0.401406211611,-1.0,nan,nan,nan,nan,0.0,0.0,0.0,nan,338.512055932,617.109172224,617.609175645,617.547106142,nan,nan,nan,nan
1,218,1,1,1.0,1.0,0.405830478296,0,0.0,0.0,0.0,0.389586813977,0.0972413037402,0.292345510237,0.486828117718,0.0972413037402,0.419968099333,135,1.0,-0.303502321856,-0.0849788702499,nan,nan,nan,nan,0.0,0.0,0.0,nan,338.512055932,618.109277995,618.609291109,618.515108474,nan,nan,nan,nan
1,219,1,1,1.0,1.0,0.509659399278,0,0.0,0.0,0.0,0.389662016127,0.0970222133067,0.29263980282,0.486684229434,0.0970222133067,0.451141265221,461,0.423959648591,0.380927367285,-1.0,nan,nan,nan,nan,0.0,0.0,0.0,nan,338.512055932,619.10940686,619.609464164,619.619066259,nan,nan,nan,nan
1,220,1,1,1.0,1.0,0.445514670573,0,0.0,0.0,0.0,0.39021499946,0.0971389794522,0.293076020007,0.487353978912,0.0971389794522,0.453668182716,155,1.0,-0.2479831371,0.111611878621,nan,nan,nan,nan,0.0,0.0,0.0,nan,338.512055932,620.109534868,620.609567939,620.555049539,nan,nan,nan,nan
1,221,1,1,1.0,1.0,0.709344195202,0,0.0,1.0,0.0,0.390468667676,0.0969879396232,0.293480728053,0.487456607299,0.0969879396232,0.554839421685,29,1.0,0.0770173926463,-1.0,nan,nan,nan,nan,0.0,0.0,0.0,nan,338.512055932,621.109682264,621.609725028,621.819026459,nan,nan,nan,nan
1,222,1,1,1.0,1.0,0.349233428948,1,0.0,0.0,1.0,0.391924720313,0.0991256127773,0.292799107536,0.49105033309,0.0991256127773,0.501364098241,215,0.910639861846,0.0628947364355,0.558695148714,80.7959590455,9.20404095447,-141.967834046,13.0,0.950262168777,0.154664060346,-1.0,2.85900145024,338.512055932,622.109786039,622.609813694,622.459019468,626.810335252,627.818084496,623.934970042,626.802005264
1,223,1,1,1.0,1.0,0.480072801933,0,0.0,0.0,0.0,0.391730668988,0.098941753729,0.292788915259,0.490672422717,0.098941753729,0.512883475361,447,0.312467642152,0.411646472288,-1.0,nan,nan,nan,nan,0.0,0.0,0.0,nan,338.512055932,628.018846677,628.518901415,628.498919479,nan,nan,nan,nan
1,224,0,0,0.0,1.0,0.479895757511,0,0.0,0.0,0.0,0.392130407147,0.0988955424409,0.293234864706,0.491025949587,0.0988955424409,0.436400662797,86,1.0,-0.21659106269,-0.625617802914,nan,nan,nan,nan,0.0,0.0,0.0,nan,338.512055932,629.019008611,629.519041969,629.498904369,nan,nan,nan,nan
1,225,1,1,1.0,1.0,0.295783003792,0,0.0,0.0,0.0,0.392525746563,0.098847425818,0.293678320745,0.491373172381,0.098847425818,0.418583854412,425,0.149162615564,0.447529597292,-0.791715667876,nan,nan,nan,nan,0.0,0.0,0.0,nan,338.512055932,630.01912037,630.519168837,630.314903374,nan,nan,nan,nan
1,226,1,1,1.0,1.0,0.271602717228,0,0.0,0.0,0.0,0.392091922604,0.0988371357318,0.293254786872,0.490929058336,0.0988371357318,0.349093826177,27,1.0,0.0870912575778,-1.0,nan,nan,nan,nan,0.0,0.0,0.0,nan,338.512055932,631.01925123,631.519277459,631.290853947,nan,nan,nan,nan
1,227,1,1,1.0,1.0,0.15612698067,0,1.0,0.0,0.0,0.391554024366,0.0989428641901,0.292611160176,0.490496888556,0.0989428641901,0.241170900563,197,1.0,-0.035797595552,0.455774741445,nan,nan,nan,nan,0.0,0.0,0.0,nan,338.512055932,632.110769342,632.61111374,632.266896322,nan,nan,nan,nan
1,228,1,1,1.0,1.0,0.243652012199,1,0.0,0.0,1.0,0.390507681949,0.0999571063431,0.290550575606,0.490464788292,0.0999571063431,0.223793903366,146,1.0,-0.278792578557,0.0248813210997,-21.4649448502,111.46494485,8.80869485024,159.0,1.0,-0.231765974528,0.149055008463,2.00889419671,338.512055932,633.111192142,633.611205257,633.354844154,636.953294134,637.957899319,634.928034182,636.944965286
1,229,1,1,1.0,1.0,0.296934514306,0,0.0,0.0,0.0,0.389857878101,0.1002108697,0.289647008401,0.490068747801,0.1002108697,0.232237835725,478,0.56422249903,0.334793662244,-1.0,nan,nan,nan,nan,0.0,0.0,0.0,nan,338.512055932,638.161813826,638.661857446,638.458748341,nan,nan,nan,nan
1,230,1,1,1.0,1.0,0.368776028976,0,0.0,0.0,0.0,0.389448524075,0.100179092333,0.289269431742,0.489627616409,0.100179092333,0.303120851827,94,1.0,-0.249439013202,-0.526745155233,nan,nan,nan,nan,0.0,0.0,0.0,nan,338.512055932,639.161952384,639.661978613,639.530728413,nan,nan,nan,nan
1,231,1,1,1.0,1.0,0.480617909692,0,0.0,0.0,0.0,0.389357855237,0.0999684939503,0.289389361287,0.489326349187,0.0999684939503,0.382109484325,470,0.497741612616,0.357740777197,-1.0,nan,nan,nan,nan,0.0,0.0,0.0,nan,338.512055932,640.162080963,640.662106051,640.642698873,nan,nan,nan,nan
1,232,0,0,0.0,1.0,0.480448561721,0,0.0,0.0,0.0,0.389756370759,0.0999313209453,0.289825049813,0.489687691704,0.0999313209453,0.443280833463,132,1.0,-0.307426825298,-0.115555361894,nan,nan,nan,nan,0.0,0.0,0.0,nan,338.512055932,641.16223235,641.662302769,641.642680911,nan,nan,nan,nan
1,233,1,1,1.0,1.0,0.512329910882,0,0.0,0.0,0.0,0.390150684633,0.0998922221753,0.290258462457,0.490042906808,0.0998922221753,0.491132127432,419,0.107894673663,0.454841969249,-0.678098861371,nan,nan,nan,nan,0.0,0.0,0.0,nan,338.512055932,642.162319019,642.662414812,642.67464893,nan,nan,nan,nan
1,234,1,1,1.0,1.0,0.311496740207,0,0.0,0.0,0.0,0.390679599032,0.0999980093467,0.290681589685,0.490677608379,0.0999980093467,0.43475840427,155,1.0,-0.2479831371,0.111611878621,nan,nan,nan,nan,0.0,0.0,0.0,nan,338.512055932,643.179148629,643.679162314,643.49064537,nan,nan,nan,nan
1,235,1,1,1.0,1.0,0.303363469429,0,0.0,0.0,0.0,0.390338293606,0.0999170115198,0.290421282086,0.490255305126,0.0999170115198,0.375730040173,21,1.0,0.116713997928,-1.0,nan,nan,nan,nan,0.0,0.0,0.0,nan,338.512055932,644.179261528,644.679290323,644.482624997,nan,nan,nan,nan
1,236,1,1,1.0,1.0,0.343201044016,0,0.0,0.0,0.0,0.389965011099,0.0998643519075,0.290100659191,0.489829363006,0.0998643519075,0.319353751217,509,0.822386376617,0.224555004187,-1.0,nan,nan,nan,nan,0.0,0.0,0.0,nan,338.512055932,645.179418617,645.679424888,645.522619661,nan,nan,nan,nan
1,237,0,0,0.0,1.0,0.527093701996,0,0.0,0.0,0.0,0.389765165086,0.0996974184873,0.290067746598,0.489462583573,0.0996974184873,0.391219405147,105,1.0,-0.285049837405,-0.401580786678,nan,nan,nan,nan,0.0,0.0,0.0,nan,338.512055932,646.179509562,646.679585114,646.706603264,nan,nan,nan,nan
1,238,1,1,1.0,1.0,0.350940595381,0,0.0,0.0,0.0,0.390349541838,0.0998858813667,0.290463660472,0.490235423205,0.0998858813667,0.407078447131,296,0.0772713571413,0.386205321608,0.550001308524,nan,nan,nan,nan,0.0,0.0,0.0,nan,338.512055932,647.179647835,647.679676346,647.53058843,nan,nan,nan,nan
1,239,1,1,1.0,1.0,0.350788068026,0,0.0,0.0,0.0,0.390182554777,0.0997069003131,0.290475654464,0.48988945509,0.0997069003131,0.409607455134,141,1.0,-0.291952736687,-0.024586852943,nan,nan,nan,nan,0.0,0.0,0.0,nan,338.512055932,648.179774703,648.679799792,648.530562771,nan,nan,nan,nan
1,240,1,1,1.0,1.0,0.422655526549,0,0.0,0.0,0.0,0.390016333314,0.0995290883908,0.290487244923,0.489545421705,0.0995290883908,0.374794729985,386,-0.0833946583454,0.477495592553,-0.245424736514,nan,nan,nan,nan,0.0,0.0,0.0,nan,338.512055932,649.179901287,649.679943481,649.602556814,nan,nan,nan,nan
1,241,1,1,1.0,1.0,0.542487272993,0,0.0,0.0,0.0,0.390153472781,0.0993422102422,0.290811262539,0.489495683024,0.0993422102422,0.438643622523,318,-0.0835627602325,0.431640264478,0.413481556053,nan,nan,nan,nan,0.0,0.0,0.0,nan,338.512055932,650.180034143,650.680092303,650.722521416,nan,nan,nan,nan
1,242,1,1,1.0,1.0,0.486363771372,0,0.0,0.0,0.0,0.390790852699,0.0996206335289,0.29117021917,0.490411486227,0.0996206335289,0.483835523638,493,0.689769084006,0.285700779988,-1.0,nan,nan,nan,nan,0.0,0.0,0.0,nan,338.512055932,651.180159301,651.68020064,651.666523072,nan,nan,nan,nan
1,243,1,1,1.0,1.0,0.45420131553,0,0.0,1.0,0.0,0.391189073193,0.0996033132605,0.291585759933,0.490792386454,0.0996033132605,0.494350786631,214,0.920243657418,0.0575410437433,0.553854850604,nan,nan,nan,nan,0.0,0.0,0.0,nan,338.512055932,652.180279898,652.680303561,652.634481213,nan,nan,nan,nan
1,244,1,1,1.0,1.0,0.398073251359,1,0.0,0.0,1.0,0.39145053478,0.0994789510544,0.291971583725,0.490929485834,0.0994789510544,0.44621277942,358,-0.170583909915,0.474268316859,0.0585874414746,-155.830387555,245.830387555,-5.88836244473,350.0,-0.175756816429,0.469490941964,0.138247479403,2.38404843491,338.512055932,653.180401634,653.680444114,653.578474886,657.405918573,658.409156715,655.005624695,657.397597994
1,245,1,1,1.0,1.0,0.404279546812,0,0.0,0.0,0.0,0.391477901377,0.0992741123265,0.29220378905,0.490752013703,0.0992741123265,0.418851371234,462,0.432089675478,0.378486360879,-1.0,nan,nan,nan,nan,0.0,0.0,0.0,nan,338.512055932,658.606093737,659.106155033,659.010373284,nan,nan,nan,nan
1,246,1,1,1.0,1.0,0.444132800214,0,0.0,0.0,0.0,0.391530583045,0.0990730236824,0.292457559363,0.490603606728,0.0990730236824,0.415495199462,15,0.965734432428,0.145352784795,-1.0,nan,nan,nan,nan,0.0,0.0,0.0,nan,338.512055932,659.60623144,660.106252537,660.05036424,nan,nan,nan,nan
1,247,1,1,1.0,1.0,0.379971820861,0,0.0,0.0,0.0,0.391746165903,0.0989268940699,0.292819271833,0.490673059973,0.0989268940699,0.409461389296,299,0.0516645560415,0.393417669654,0.534378752182,nan,nan,nan,nan,0.0,0.0,0.0,nan,338.512055932,660.606360589,661.106380546,660.98633241,nan,nan,nan,nan
1,248,1,1,1.0,1.0,0.307853761129,0,0.0,0.0,0.0,0.391698107351,0.0987276501125,0.292970457239,0.490425757464,0.0987276501125,0.377319460735,99,1.0,-0.267176270739,-0.468793303331,nan,nan,nan,nan,0.0,0.0,0.0,nan,338.512055932,661.606479474,662.106511121,661.914333235,nan,nan,nan,nan
1,249,1,1,1.0,1.0,0.315683117136,0,0.0,0.0,0.0,0.391357276676,0.0986711046856,0.29268617199,0.490028381361,0.0986711046856,0.334502899709,452,0.351738073422,0.401406211611,-1.0,nan,nan,nan,nan,0.0,0.0,0.0,nan,338.512055932,662.606608339,663.106644547,662.922291456,nan,nan,nan,nan
1,250,1,1,1.0,1.0,0.339521571994,0,0.0,0.0,0.0,0.39105090356,0.09858833913,0.29246256443,0.48963924269,0.09858833913,0.32101948342,339,-0.164955840019,0.45996923152,0.241423096872,nan,nan,nan,nan,0.0,0.0,0.0,nan,338.512055932,663.60677227,664.106779967,663.946293842,nan,nan,nan,nan
1,251,1,1,1.0,1.0,0.291446096264,0,0.0,0.0,0.0,0.390843123997,0.0984435472855,0.292399576712,0.489286671283,0.0984435472855,0.315550261798,411,0.0555201669072,0.463022710015,-0.557054760163,nan,nan,nan,nan,0.0,0.0,0.0,nan,338.512055932,664.606871199,665.106890015,664.898317295,nan,nan,nan,nan
1,252,1,1,1.0,1.0,0.259264538996,0,0.0,0.0,0.0,0.390443939147,0.0984465856818,0.291997353465,0.488890524829,0.0984465856818,0.296744069085,239,0.665069831863,0.183388857662,0.640549267122,nan,nan,nan,nan,0.0,0.0,0.0,nan,338.512055932,665.606992366,666.107025152,665.866256905,nan,nan,nan,nan
1,253,1,1,1.0,1.0,0.283145758323,0,1.0,0.0,0.0,0.389919221547,0.0985977693612,0.291321452185,0.488516990908,0.0985977693612,0.277952131194,325,-0.119404900653,0.442631039184,0.360186421743,nan,nan,nan,nan,0.0,0.0,0.0,nan,338.512055932,666.607130923,667.107154301,666.890276682,nan,nan,nan,nan
1,254,0,0,0.0,1.0,0.47494560387,1,0.0,0.0,1.0,0.389493829263,0.0986307691135,0.290863060149,0.488124598376,0.0986307691135,0.33911863373,24,1.0,0.102019060141,-1.0,70.7693276243,19.2306723757,2.35567237566,27.0,1.0,0.0870912575778,-1.0,3.15903155692,338.512055932,667.607270051,668.107299986,668.082215655,672.616166528,673.618872677,669.440776343,672.607838251
1,255,1,1,1.0,1.0,0.409761977382,0,0.0,0.0,0.0,0.389832923606,0.0985813702289,0.291251553378,0.488414293835,0.0985813702289,0.389284446525,502,0.764740937618,0.25241357569,-1.0,nan,nan,nan,nan,0.0,0.0,0.0,nan,338.512055932,673.816351957,674.316399853,674.226113934,nan,nan,nan,nan
1,256,1,1,1.0,1.0,0.433620103635,0,0.0,0.0,0.0,0.38991169457,0.0983942985253,0.291517396045,0.488305993095,0.0983942985253,0.439442561629,146,1.0,-0.278792578557,0.0248813210997,nan,nan,nan,nan,0.0,0.0,0.0,nan,338.512055932,674.81647968,675.31652102,675.250099784,nan,nan,nan,nan
1,257,1,1,1.0,1.0,0.369441732764,0,0.0,0.0,0.0,0.390083774921,0.0982385557275,0.291845219193,0.488322330648,0.0982385557275,0.404274604594,445,0.296953900578,0.415520102116,-1.0,nan,nan,nan,nan,0.0,0.0,0.0,nan,338.512055932,675.816624795,676.316655016,676.186066528,nan,nan,nan,nan
1,258,1,1,1.0,1.0,0.321306101047,0,0.0,0.0,0.0,0.390002825736,0.0980542294161,0.29194859632,0.488057055152,0.0980542294161,0.374789312482,54,1.0,-0.0546292063271,-1.0,nan,nan,nan,nan,0.0,0.0,0.0,nan,338.512055932,676.816758221,677.316791862,677.138064322,nan,nan,nan,nan
1,259,1,1,1.0,1.0,0.337144141085,0,0.0,0.0,0.0,0.389734479155,0.0979563028692,0.291778176286,0.487690782024,0.0979563028692,0.342630658299,424,0.142174562463,0.448819569244,-0.770229420881,nan,nan,nan,nan,0.0,0.0,0.0,nan,338.512055932,677.816885659,678.316921012,678.154029801,nan,nan,nan,nan
1,260,1,1,1.0,1.0,0.344991172664,0,0.0,0.0,0.0,0.389529847489,0.0978203491834,0.291709498306,0.487350196673,0.0978203491834,0.334480471599,52,1.0,-0.0438860552364,-1.0,nan,nan,nan,nan,0.0,0.0,0.0,nan,338.512055932,678.817035336,679.317040183,679.162026509,nan,nan,nan,nan
1,261,1,1,1.0,1.0,0.288837166503,0,0.0,0.0,0.0,0.389357216967,0.0976698069794,0.291687409987,0.487027023946,0.0976698069794,0.323657493417,131,1.0,-0.308451667147,-0.125800503078,nan,nan,nan,nan,0.0,0.0,0.0,nan,338.512055932,679.817170757,680.317166195,680.106007923,nan,nan,nan,nan
1,262,0,0,0.0,1.0,0.432766235434,0,0.0,0.0,0.0,0.388969108664,0.0976802006924,0.291288907971,0.486649309356,0.0976802006924,0.355531524867,306,-0.00395437407881,0.408974006242,0.494128827808,nan,nan,nan,nan,0.0,0.0,0.0,nan,338.512055932,680.817289073,681.317309029,681.250055308,nan,nan,nan,nan
1,263,1,1,1.0,1.0,0.288554918952,0,0.0,0.0,0.0,0.389137559151,0.0975298574985,0.291607701653,0.48666741665,0.0975298574985,0.336719440296,399,-0.0164460389312,0.472031251936,-0.400274523968,nan,nan,nan,nan,0.0,0.0,0.0,nan,338.512055932,681.817403967,682.317423924,682.105958886,nan,nan,nan,nan
1,264,1,1,1.0,1.0,0.336445081048,0,0.0,0.0,0.0,0.388752185051,0.0975409750332,0.291211210018,0.486293160084,0.0975409750332,0.352588745145,205,1.0,0.00854800403903,0.505535240796,nan,nan,nan,nan,0.0,0.0,0.0,nan,338.512055932,682.817514015,683.31755621,683.153959096,nan,nan,nan,nan
1,265,1,1,1.0,1.0,0.288277518936,0,0.0,0.0,0.0,0.388552539616,0.0974080639713,0.291144475645,0.485960603587,0.0974080639713,0.304425839645,19,0.99625917486,0.126374530333,-1.0,nan,nan,nan,nan,0.0,0.0,0.0,nan,338.512055932,683.817652858,684.317695907,684.105930377,nan,nan,nan,nan
1,266,1,1,1.0,1.0,0.27215324156,0,0.0,0.0,0.0,0.388171265773,0.0974183786329,0.29075288714,0.485589644406,0.0974183786329,0.298958613848,227,0.791019951953,0.125257787881,0.608066708266,nan,nan,nan,nan,0.0,0.0,0.0,nan,338.512055932,684.817777731,685.317821921,685.089930972,nan,nan,nan,nan
1,267,1,1,1.0,1.0,0.29599369131,0,1.0,0.0,0.0,0.38773180356,0.0974945364963,0.290237267064,0.485226340056,0.0974945364963,0.285474817269,64,1.0,-0.108036866323,-1.0,nan,nan,nan,nan,0.0,0.0,0.0,nan,338.512055932,685.81790688,686.317949074,686.113900571,nan,nan,nan,nan
1,268,1,1,1.0,1.0,0.295858555473,1,0.0,0.0,1.0,0.387385622004,0.0974728384016,0.289912783603,0.484858460406,0.0974728384016,0.288001829448,428,0.170378320166,0.443486568519,-0.86866140055,171.347458209,278.652541791,-22.2849582089,396.0,-0.0330153705648,0.473684876347,-0.363523780775,2.90057926159,338.512055932,686.818037169,687.318079079,687.113895725,691.560260556,692.556965396,688.643246545,691.551930283
1,269,1,1,1.0,1.0,0.457339102402,0,0.0,0.0,0.0,0.387041535288,0.0974505577467,0.289590977541,0.484492093035,0.0974505577467,0.349730449729,100,1.0,-0.270427092546,-0.457439896749,nan,nan,nan,nan,0.0,0.0,0.0,nan,338.512055932,692.760432869,693.260483046,693.217771972,nan,nan,nan,nan
1,270,1,1,1.0,1.0,0.313210749067,0,0.0,0.0,0.0,0.387304822056,0.0973626338605,0.289942188196,0.484667455917,0.0973626338605,0.355469468981,162,1.0,-0.218739557155,0.176632971453,nan,nan,nan,nan,0.0,0.0,0.0,nan,338.512055932,693.760603358,694.260613906,694.073814107,nan,nan,nan,nan
1,271,1,1,1.0,1.0,0.273062418215,0,0.0,0.0,0.0,0.387028351635,0.0972857628469,0.289742588788,0.484314114482,0.0972857628469,0.347870756562,86,1.0,-0.21659106269,-0.625617802914,nan,nan,nan,nan,0.0,0.0,0.0,nan,338.512055932,694.760688887,695.260762157,695.033751305,nan,nan,nan,nan
1,272,1,1,1.0,1.0,0.288918988779,0,0.0,0.0,0.0,0.386604686455,0.0973521415804,0.289252544874,0.483956828035,0.0973521415804,0.291730718687,280,0.228089347314,0.342018854333,0.61587222022,nan,nan,nan,nan,0.0,0.0,0.0,nan,338.512055932,695.760819747,696.260866218,696.049738736,nan,nan,nan,nan
1,273,1,1,1.0,1.0,0.248769232072,0,1.0,0.0,0.0,0.386242887574,0.0973527067945,0.28889018078,0.483595594369,0.0973527067945,0.270250213022,205,1.0,0.00854800403903,0.505535240796,nan,nan,nan,nan,0.0,0.0,0.0,nan,338.512055932,696.760943765,697.260985959,697.009712997,nan,nan,nan,nan
1,274,1,1,1.0,1.0,0.222569883801,1,0.0,0.0,1.0,0.385735604713,0.0975297785614,0.288205826151,0.483265383274,0.0975297785614,0.253419368217,39,1.0,0.0253789930673,-1.0,-74.2611985626,164.261198563,136.839323563,234.0,0.71814774995,0.15974031316,0.62913160129,2.06726769079,338.512055932,697.811119555,698.31112925,698.033689439,701.719908779,702.727997575,699.636287877,701.711584494
1,275,1,1,1.0,1.0,0.393167858943,0,0.0,0.0,0.0,0.385135730739,0.0978499153115,0.287285815427,0.48298564605,0.0978499153115,0.288168991605,493,0.689769084006,0.285700779988,-1.0,nan,nan,nan,nan,0.0,0.0,0.0,nan,338.512055932,702.928436739,703.428464964,703.321604598,nan,nan,nan,nan
1,276,1,1,1.0,1.0,0.472997815348,0,0.0,0.0,0.0,0.385165152454,0.0976717439347,0.287493408519,0.482836896388,0.0976717439347,0.362911852698,143,1.0,-0.287057525782,-0.00469998909502,nan,nan,nan,nan,0.0,0.0,0.0,nan,338.512055932,703.92856988,704.428586701,704.401567696,nan,nan,nan,nan
1,277,1,1,1.0,1.0,0.280921994708,0,0.0,0.0,0.0,0.385485709618,0.0976371113789,0.287848598239,0.483122820997,0.0976371113789,0.382362556333,376,-0.124962824795,0.478704673615,-0.132627625282,nan,nan,nan,nan,0.0,0.0,0.0,nan,338.512055932,704.928702166,705.428696749,705.209624161,nan,nan,nan,nan
1,278,1,1,1.0,1.0,0.240737456828,0,0.0,0.0,0.0,0.385105477927,0.0976624488007,0.287443029126,0.482767926728,0.0976624488007,0.331552422295,506,0.797774742377,0.236703125255,-1.0,nan,nan,nan,nan,0.0,0.0,0.0,nan,338.512055932,705.928809647,706.428833595,706.169547104,nan,nan,nan,nan
1,279,0,0,0.0,1.0,0.432542433962,0,0.0,0.0,0.0,0.384582405387,0.0978705136616,0.286711891725,0.482452919048,0.0978705136616,0.318067295166,197,1.0,-0.035797595552,0.455774741445,nan,nan,nan,nan,0.0,0.0,0.0,nan,338.512055932,706.928981562,707.428980136,707.361523996,nan,nan,nan,nan
1,280,1,1,1.0,1.0,0.25647970289,0,0.0,0.0,0.0,0.384755546284,0.0977360291317,0.287019517153,0.482491575416,0.0977360291317,0.30991986456,350,-0.175756816429,0.469490941964,0.138247479403,nan,nan,nan,nan,0.0,0.0,0.0,nan,338.512055932,707.92906367,708.429110426,708.185543373,nan,nan,nan,nan
1,281,1,1,1.0,1.0,0.512285434641,0,0.0,0.0,0.0,0.384294122387,0.0978618777344,0.286432244653,0.482156000122,0.0978618777344,0.400435857164,477,0.555879874869,0.337784025865,-1.0,nan,nan,nan,nan,0.0,0.0,0.0,nan,338.512055932,708.929200232,709.429252405,709.441485667,nan,nan,nan,nan
1,282,1,1,1.0,1.0,0.344151560217,0,0.0,0.0,0.0,0.38475287261,0.0979853393609,0.286767533249,0.482738211971,0.0979853393609,0.370972232583,323,-0.11001989341,0.43965344528,0.375855360355,nan,nan,nan,nan,0.0,0.0,0.0,nan,338.512055932,709.929317692,710.429359887,710.273469253,nan,nan,nan,nan
1,283,1,1,1.0,1.0,0.288025206886,0,0.0,0.0,0.0,0.384607867923,0.0978401928943,0.286767675029,0.482448060817,0.0978401928943,0.381487400581,241,0.64365311028,0.192605941253,0.644254782112,nan,nan,nan,nan,0.0,0.0,0.0,nan,338.512055932,710.929446272,711.429488751,711.217471479,nan,nan,nan,nan
1,284,1,1,1.0,1.0,0.359866722487,0,0.0,0.0,0.0,0.384264157386,0.0978351425974,0.286429014788,0.482099299983,0.0978351425974,0.330681163197,54,1.0,-0.0546292063271,-1.0,nan,nan,nan,nan,0.0,0.0,0.0,nan,338.512055932,711.92957428,712.429601079,712.289441003,nan,nan,nan,nan
1,285,1,1,1.0,1.0,0.287706468254,0,0.0,0.0,0.0,0.384177641659,0.0976722895793,0.28650535208,0.481849931238,0.0976722895793,0.311866132542,282,0.208142307666,0.34807905204,0.609295500931,nan,nan,nan,nan,0.0,0.0,0.0,nan,338.512055932,712.929719965,713.429725952,713.217426433,nan,nan,nan,nan
1,286,0,0,1.0,0.0,0.215573866852,0,0.0,0.0,0.0,0.383836754121,0.097667476462,0.286169277658,0.481504230583,0.097667476462,0.287715685864,473,0.522594813828,0.349396171415,-1.0,nan,nan,nan,nan,0.0,0.0,0.0,nan,338.512055932,713.929847689,714.429883326,714.145421556,nan,nan,nan,nan
1,287,1,1,1.0,1.0,0.239449954592,0,0.0,0.0,0.0,0.383244279165,0.0980035135891,0.285240765576,0.481247792754,0.0980035135891,0.247576763233,238,0.675741828754,0.178727669763,0.638511091232,nan,nan,nan,nan,0.0,0.0,0.0,nan,338.512055932,714.929974558,715.429978264,715.169424512,nan,nan,nan,nan
1,288,1,1,1.0,1.0,0.279349965043,0,0.0,0.0,0.0,0.382739737676,0.0982002222727,0.284539515403,0.480939959948,0.0982002222727,0.244791262162,342,-0.170052622031,0.462913557708,0.21407524247,nan,nan,nan,nan,0.0,0.0,0.0,nan,338.512055932,715.93008318,716.430106558,716.209433145,nan,nan,nan,nan
1,289,1,1,1.0,1.0,0.319142494351,0,1.0,0.0,0.0,0.382378234974,0.0982181799735,0.284160055001,0.480596414948,0.0982181799735,0.279314137995,232,0.739158239773,0.150046616059,0.623712016981,nan,nan,nan,nan,0.0,0.0,0.0,nan,338.512055932,716.930193228,717.430234566,717.249335722,nan,nan,nan,nan
1,290,1,1,1.0,1.0,0.391019931063,1,0.0,0.0,1.0,0.382157901383,0.0981176982342,0.284040203149,0.480275599617,0.0981176982342,0.329837463486,46,1.0,-0.0117313672748,-1.0,84.9960800478,5.00391995224,-27.3398300478,7.0,0.9030914636,0.181853060355,-1.0,4.34256185498,338.512055932,717.93031525,718.430355733,718.321335181,724.122761127,725.129223724,719.763857179,724.114426292
1,291,1,1,1.0,1.0,0.597916847095,0,0.0,0.0,0.0,0.382188672319,0.0979485940806,0.284240078239,0.4801372664,0.0979485940806,0.43602642417,474,0.530901762182,0.346545376391,-1.0,nan,nan,nan,nan,0.0,0.0,0.0,nan,338.512055932,725.331260292,725.831342115,725.929177139,nan,nan,nan,nan
1,292,1,1,1.0,1.0,0.605741357431,0,0.0,0.0,0.0,0.382935136592,0.0985961777606,0.284338958832,0.481531314353,0.0985961777606,0.53155937853,101,1.0,-0.273572672894,-0.446152610616,nan,nan,nan,nan,0.0,0.0,0.0,nan,338.512055932,726.331414529,726.831473545,726.937155887,nan,nan,nan,nan
1,293,1,1,1.0,1.0,0.357627850026,0,0.0,1.0,0.0,0.383703433905,0.0992888513789,0.284414582526,0.482992285284,0.0992888513789,0.520428684851,303,0.0191349273956,0.402522842081,0.512018356663,nan,nan,nan,nan,0.0,0.0,0.0,nan,338.512055932,727.331536551,727.831578746,727.689164401,nan,nan,nan,nan
1,294,0,0,0.0,1.0,0.365451504476,1,0.0,0.0,1.0,0.383613827088,0.0991298506592,0.284483976429,0.482743677747,0.0991298506592,0.442940237311,492,0.681403316433,0.289222019555,-1.0,104.222469614,345.777530386,-0.159969614466,492.0,0.681403316433,0.289222019555,-1.0,3.31746326759,338.512055932,728.331691359,728.831710747,728.697142864,733.482274897,734.489079897,730.148540242,733.473939492
1,295,1,1,1.0,1.0,0.486233767122,0,0.0,0.0,0.0,0.383551627353,0.098965650298,0.284585977055,0.482517277651,0.098965650298,0.403104373875,91,1.0,-0.237709898716,-0.562722318432,nan,nan,nan,nan,0.0,0.0,0.0,nan,338.512055932,734.690783471,735.190820249,735.177017238,nan,nan,nan,nan
1,296,1,1,1.0,1.0,0.493429064751,0,0.0,0.0,0.0,0.383902078342,0.0989779514684,0.284924126873,0.48288002981,0.0989779514684,0.44837144545,185,1.0,-0.102214474652,0.370299946716,nan,nan,nan,nan,0.0,0.0,0.0,nan,338.512055932,735.707582005,736.215977851,736.20101107,nan,nan,nan,nan
1,297,1,1,1.0,1.0,0.317259137519,0,0.0,0.0,0.0,0.384274619112,0.0990150365893,0.285259582523,0.483289655701,0.0990150365893,0.43230732313,307,-0.0113868739462,0.411053355611,0.487957006857,nan,nan,nan,nan,0.0,0.0,0.0,nan,338.512055932,736.707734818,737.207779008,737.024993955,nan,nan,nan,nan
1,298,1,1,1.0,1.0,0.405104619451,0,0.0,0.0,0.0,0.384047447988,0.0989237889712,0.285123659017,0.482971236959,0.0989237889712,0.405264273907,61,1.0,-0.0921163965413,-1.0,nan,nan,nan,nan,0.0,0.0,0.0,nan,338.512055932,737.707860831,738.207879933,738.112965451,nan,nan,nan,nan
1,299,1,1,1.0,1.0,0.452960000373,0,0.0,0.0,0.0,0.384118587081,0.0987641049401,0.285354482141,0.482882692021,0.0987641049401,0.391774585781,270,0.331159066004,0.309369715406,0.641393874915,nan,nan,nan,nan,0.0,0.0,0.0,nan,338.512055932,738.708001099,739.208011078,739.160961099,nan,nan,nan,nan
1,300,1,1,0.0,0.0,0.500822506845,0,0.0,0.0,0.0,0.384350376351,0.0986783080282,0.285672068323,0.483028684379,0.0986783080282,0.452962375556,177,1.0,-0.145192147526,0.306921212481,nan,nan,nan,nan,0.0,0.0,0.0,nan,338.512055932,739.708109722,740.208179285,740.208932228,nan,nan,nan,nan
1,301,1,1,1.0,1.0,0.356679613702,0,0.0,0.0,0.0,0.384741222427,0.0987426074316,0.285998614995,0.483483829858,0.0987426074316,0.436820706973,25,1.0,0.0970682892709,-1.0,nan,nan,nan,nan,0.0,0.0,0.0,nan,338.512055932,740.708247138,741.208285912,741.064926752,nan,nan,nan,nan
1,302,0,0,1.0,0.0,0.348518689163,0,0.0,0.0,0.0,0.384647370892,0.0985906603121,0.28605671058,0.483238031204,0.0985906603121,0.40200693657,95,1.0,-0.253175017597,-0.514975443931,nan,nan,nan,nan,0.0,0.0,0.0,nan,338.512055932,741.708385411,742.208417627,742.0569041,nan,nan,nan,nan
1,303,1,1,1.0,1.0,0.524369306862,0,0.0,0.0,0.0,0.384526941953,0.0984482317877,0.286078710166,0.482975173741,0.0984482317877,0.409855869909,464,0.448404880525,0.373503555275,-1.0,nan,nan,nan,nan,0.0,0.0,0.0,nan,338.512055932,742.708500875,743.208563027,743.232870182,nan,nan,nan,nan
1,304,1,1,1.0,1.0,0.340255698189,0,0.0,0.0,0.0,0.384991534528,0.0986134306477,0.28637810388,0.483604965175,0.0986134306477,0.404381231405,29,1.0,0.0770173926463,-1.0,nan,nan,nan,nan,0.0,0.0,0.0,nan,338.512055932,743.708627174,744.208655113,744.048882872,nan,nan,nan,nan
1,305,1,1,1.0,1.0,0.364078472368,0,0.0,0.0,0.0,0.384843402619,0.0984835665215,0.286359836098,0.483326969141,0.0984835665215,0.409567825807,219,0.871627318206,0.0840881726889,0.576959667802,nan,nan,nan,nan,0.0,0.0,0.0,nan,338.512055932,744.708782267,745.208774854,745.072860739,nan,nan,nan,nan
1,306,1,1,1.0,1.0,0.243955641054,0,0.0,0.0,0.0,0.384774871496,0.0983281306584,0.286446740838,0.483103002155,0.0983281306584,0.31609660387,406,0.0244967455079,0.467245700284,-0.489366101921,nan,nan,nan,nan,0.0,0.0,0.0,nan,338.512055932,745.708888608,746.208925671,745.952844249,nan,nan,nan,nan
1,307,1,1,1.0,1.0,0.251872522756,0,0.0,0.0,0.0,0.384311650344,0.0984968686499,0.285814781694,0.482808518993,0.0984968686499,0.286635545393,224,0.821619416966,0.11002478857,0.597264883709,nan,nan,nan,nan,0.0,0.0,0.0,nan,338.512055932,746.708992098,747.209030872,746.960864621,nan,nan,nan,nan
1,308,1,1,1.0,1.0,0.323676975444,0,1.0,0.0,0.0,0.383877423696,0.0986262872983,0.285251136397,0.482503710994,0.0986262872983,0.273168379751,407,0.0305886347219,0.46645515455,-0.502577406972,nan,nan,nan,nan,0.0,0.0,0.0,nan,338.512055932,747.709116116,748.209158882,748.032793092,nan,nan,nan,nan
1,309,1,1,1.0,1.0,0.299540593289,1,0.0,0.0,1.0,0.383680690205,0.0985249269599,0.285155763245,0.482205617165,0.0985249269599,0.291696697163,296,0.0772713571413,0.386205321608,0.550001308524,-121.924418901,211.924418901,3.79941890091,301.0,0.0351599448551,0.39804275895,0.523414514543,3.13399398047,338.512055932,748.709243841,749.209289741,749.008784434,753.693181999,754.690706495,750.542798885,753.684868546
1,310,1,1,1.0,1.0,0.539563309401,0,0.0,0.0,0.0,0.383406618228,0.0984811004305,0.284925517797,0.481887718658,0.0984811004305,0.387593626045,29,1.0,0.0770173926463,-1.0,nan,nan,nan,nan,0.0,0.0,0.0,nan,338.512055932,754.88508448,755.385113275,755.424647789,nan,nan,nan,nan
1,311,1,1,1.0,1.0,0.411475415342,0,0.0,0.0,0.0,0.383913620472,0.0987215941884,0.285192026283,0.48263521466,0.0987215941884,0.416859772677,381,-0.105403061426,0.478425078289,-0.188431136224,nan,nan,nan,nan,0.0,0.0,0.0,nan,338.512055932,755.885184549,756.385201369,756.296659964,nan,nan,nan,nan
1,312,1,1,1.0,1.0,0.323350537568,0,0.0,0.0,0.0,0.384002817219,0.0985741513988,0.28542866582,0.482576968618,0.0985741513988,0.42479642077,11,0.934659501434,0.163852895862,-1.0,nan,nan,nan,nan,0.0,0.0,0.0,nan,338.512055932,756.885283764,757.38533223,757.208634301,nan,nan,nan,nan
1,313,1,1,1.0,1.0,0.37919407431,0,0.0,0.0,0.0,0.383807164704,0.0984751090111,0.285332055693,0.482282273715,0.0984751090111,0.371340009073,71,1.0,-0.144504067012,-0.877980773838,nan,nan,nan,nan,0.0,0.0,0.0,nan,338.512055932,757.88543515,758.385469647,758.264629224,nan,nan,nan,nan
1,314,1,1,1.0,1.0,0.500238627195,0,0.0,0.0,0.0,0.383792331616,0.0983170082983,0.28578581303,0.482545300815,0.0983170082983,0.400927746358,480,0.580928072941,0.32870764083,-1.0,nan,nan,nan,nan,0.0,0.0,0.0,nan,338.512055932,758.885558027,759.385628161,759.385796654,nan,nan,nan,nan
1,315,1,1,nan,nan,nan,0,0.0,0.0,0.0,0.384165556922,0.0983797438924,0.28578581303,0.482545300815,0.0983797438924,0.439716350753,358,-0.170583909915,0.474268316859,0.0585874414746,nan,nan,nan,nan,0.0,0.0,0.0,nan,338.512055932,759.885694019,760.38575446,nan,nan,nan,nan,nan
1,316,1,1,1.0,1.0,0.338815954514,0,0.0,0.0,0.0,0.384165556922,0.0983797438924,0.28578581303,0.482545300815,0.0983797438924,0.419527290855,243,0.622151010882,0.20168048164,0.647463484622,nan,nan,nan,nan,0.0,0.0,0.0,nan,338.512055932,760.885795228,761.385847687,761.224611183,nan,nan,nan,nan
1,317,1,1,1.0,1.0,0.234661166556,0,0.0,0.0,0.0,0.384020670014,0.0982557968678,0.285764873146,0.482276466881,0.0982557968678,0.286738560535,80,1.0,-0.189075709245,-0.708965549488,nan,nan,nan,nan,0.0,0.0,0.0,nan,338.512055932,761.885922098,762.385978547,762.120583264,nan,nan,nan,nan
1,318,1,1,1.0,1.0,0.2824715022,0,0.0,0.0,0.0,0.383545002805,0.0984595089967,0.284756740162,0.481691528936,0.0984595089967,0.285316207757,158,1.0,-0.235949227405,0.139764106,nan,nan,nan,nan,0.0,0.0,0.0,nan,338.512055932,762.886073769,763.386113683,763.168545271,nan,nan,nan,nan
1,319,1,1,nan,nan,nan,0,0.0,0.0,0.0,0.383224134549,0.0984673943871,0.284756740162,0.481691528936,0.0984673943871,0.258566334378,268,0.35230222188,0.302367520405,0.645005310408,nan,nan,nan,nan,0.0,0.0,0.0,nan,338.512055932,763.88620634,764.386265355,nan,nan,nan,nan,nan
1,320,1,1,1.0,1.0,0.37015419174,0,0.0,0.0,0.0,0.383224134549,0.0984673943871,0.284756740162,0.481691528936,0.0984673943871,0.32631284697,114,1.0,-0.303747463913,-0.303859371662,nan,nan,nan,nan,0.0,0.0,0.0,nan,338.512055932,764.88633777,765.386369701,765.256491962,nan,nan,nan,nan
1,321,0,0,0.0,1.0,0.554013493471,0,0.0,0.0,0.0,0.383182773971,0.0983142086773,0.284868565293,0.481496982648,0.0983142086773,0.462083842605,374,-0.132039125116,0.478634076427,-0.110628443238,nan,nan,nan,nan,0.0,0.0,0.0,nan,338.512055932,765.88645694,766.386516526,766.440470434,nan,nan,nan,nan
1,322,1,1,1.0,1.0,0.361871815287,0,0.0,0.0,0.0,0.38372167214,0.0986253641969,0.285096307943,0.482347036336,0.0986253641969,0.428679833499,91,1.0,-0.237709898716,-0.562722318432,nan,nan,nan,nan,0.0,0.0,0.0,nan,338.512055932,766.886582669,767.386609468,767.248454484,nan,nan,nan,nan
1,323,1,1,1.0,1.0,0.321738310158,0,0.0,0.0,0.0,0.383652961898,0.0984777696668,0.285175192231,0.482130731565,0.0984777696668,0.412541206305,43,1.0,0.00424534395127,-1.0,nan,nan,nan,nan,0.0,0.0,0.0,nan,338.512055932,767.886704976,768.386749166,768.208443286,nan,nan,nan,nan
1,324,1,1,1.0,1.0,0.345652315766,0,0.0,0.0,0.0,0.38345887208,0.0983841938587,0.285074678222,0.481843065939,0.0983841938587,0.343087480403,448,0.32026743599,0.409662251776,-1.0,nan,nan,nan,nan,0.0,0.0,0.0,nan,338.512055932,768.886839827,769.386881451,769.232492142,nan,nan,nan,nan
1,325,1,1,1.0,1.0,0.425432094373,0,0.0,0.0,0.0,0.383340726592,0.09825301032,0.285087716272,0.481593736912,0.09825301032,0.364274240099,328,-0.132159558243,0.44685796506,0.336046158271,nan,nan,nan,nan,0.0,0.0,0.0,nan,338.512055932,769.886968976,770.387019154,770.31240107,nan,nan,nan,nan
1,326,1,1,0.0,0.0,0.561269232072,0,0.0,0.0,0.0,0.383471852348,0.0981278880687,0.28534396428,0.481599740417,0.0981278880687,0.444117880737,101,1.0,-0.273572672894,-0.446152610616,nan,nan,nan,nan,0.0,0.0,0.0,nan,338.512055932,770.887098126,771.387156285,771.448367358,nan,nan,nan,nan
1,327,1,1,1.0,1.0,0.457134972326,0,0.0,0.0,0.0,0.384024018124,0.0984735861802,0.285550431944,0.482497604304,0.0984735861802,0.481278766257,453,0.359670421306,0.39926174925,-1.0,nan,nan,nan,nan,0.0,0.0,0.0,nan,338.512055932,771.887223284,772.387240959,772.344358256,nan,nan,nan,nan
1,328,1,1,1.0,1.0,0.217062648386,0,0.0,0.0,0.0,0.384250367827,0.0984048919816,0.285845475846,0.482655259809,0.0984048919816,0.411822284261,252,0.524721685615,0.240693665738,0.655694012224,nan,nan,nan,nan,0.0,0.0,0.0,nan,338.512055932,772.887346446,773.387375241,773.104409094,nan,nan,nan,nan
1,329,1,1,1.0,1.0,0.288847144693,0,0.0,0.0,0.0,0.383734356348,0.0986896137627,0.285044742585,0.48242397011,0.0986896137627,0.321014921802,166,1.0,-0.20036215083,0.21267421211,nan,nan,nan,nan,0.0,0.0,0.0,nan,338.512055932,773.887470463,774.387490706,774.176317608,nan,nan,nan,nan
1,330,1,1,1.0,1.0,0.280770323239,0,1.0,0.0,0.0,0.383442395696,0.0986777068697,0.284764688827,0.482120102566,0.0986777068697,0.262226705439,338,-0.162891363375,0.458928707883,0.250399161362,nan,nan,nan,nan,0.0,0.0,0.0,nan,338.512055932,774.887604174,775.38764751,775.168374497,nan,nan,nan,nan
1,331,1,1,1.0,1.0,0.296572725289,1,0.0,0.0,1.0,0.383127450689,0.0986897041849,0.284437746504,0.481817154874,0.0986897041849,0.288730064407,140,1.0,-0.294209249228,-0.0345777392028,-25.7613554831,115.761355483,17.3238554831,165.0,1.0,-0.205056383665,0.203745440608,5.65113121085,338.512055932,775.8877376,776.387756702,776.184310325,783.380328763,784.377015356,777.712938423,783.372007613
1,332,1,1,1.0,1.0,0.723629307002,0,0.0,0.0,0.0,0.382862757339,0.0986545144623,0.284208242877,0.481517271801,0.0986545144623,0.433657451843,425,0.149162615564,0.447529597292,-0.791715667876,nan,nan,nan,nan,0.0,0.0,0.0,nan,338.512055932,784.580495659,785.080568359,785.304124966,nan,nan,nan,nan
1,333,1,1,1.0,1.0,0.4035023693,0,0.0,0.0,0.0,0.383901679746,0.10027956403,0.283622115717,0.484181243776,0.10027956403,0.474568133863,278,0.248285521772,0.335802812283,0.621962573991,nan,nan,nan,nan,0.0,0.0,0.0,nan,338.512055932,785.580631651,786.08065788,785.98413402,nan,nan,nan,nan
1,334,1,1,1.0,1.0,0.33937560115,0,0.0,1.0,0.0,0.38396125631,0.100132860901,0.283828395409,0.484094117212,0.100132860901,0.48883575915,174,1.0,-0.160790688716,0.281981279739,nan,nan,nan,nan,0.0,0.0,0.0,nan,338.512055932,786.580741414,787.080802995,786.920117015,nan,nan,nan,nan
1,335,1,1,1.0,1.0,0.259272806346,1,0.0,0.0,1.0,0.383826148264,0.100011058655,0.283815089609,0.48383720692,0.100011058655,0.334050258932,18,0.988682696815,0.131162580546,-1.0,-29.4563207733,119.456320773,106.800070773,170.0,1.0,-0.180990482069,0.247815061387,2.66729255114,338.512055932,787.580889665,788.080945258,787.840162471,792.098079638,793.097276517,789.414426463,792.08975193
1,336,0,0,0.0,1.0,0.501684358343,0,0.0,0.0,0.0,0.38344985418,0.100093560128,0.283356294052,0.483543414308,0.100093560128,0.366777588613,117,1.0,-0.307587969795,-0.271886539361,nan,nan,nan,nan,0.0,0.0,0.0,nan,338.512055932,793.298300132,793.798346033,793.79998449,nan,nan,nan,nan
1,337,1,1,1.0,1.0,0.341568003409,0,0.0,0.0,0.0,0.383805982205,0.100152502228,0.283653479977,0.483958484433,0.100152502228,0.367508389366,51,1.0,-0.0385160204876,-1.0,nan,nan,nan,nan,0.0,0.0,0.0,nan,338.512055932,794.29839564,794.798442396,794.639963644,nan,nan,nan,nan
1,338,1,1,1.0,1.0,0.357423149049,0,0.0,0.0,0.0,0.383679141428,0.100028712974,0.283650428454,0.483707854401,0.100028712974,0.400225170267,229,0.770397026975,0.135265939772,0.614681466938,nan,nan,nan,nan,0.0,0.0,0.0,nan,338.512055932,795.298529066,795.798575251,795.655952215,nan,nan,nan,nan
1,339,1,1,1.0,1.0,0.285273442976,0,0.0,0.0,0.0,0.383600530672,0.0998891582072,0.283711372465,0.483489688879,0.0998891582072,0.328088198478,332,-0.146647089803,0.45205423783,0.302714191958,nan,nan,nan,nan,0.0,0.0,0.0,nan,338.512055932,796.298670189,796.798705542,796.583943632,nan,nan,nan,nan
1,340,1,1,1.0,1.0,0.253140352666,0,0.0,0.0,0.0,0.383307016977,0.099884100412,0.283422916565,0.483191117389,0.099884100412,0.298612314897,235,0.707591924495,0.164537776567,0.631659631194,nan,nan,nan,nan,0.0,0.0,0.0,nan,338.512055932,797.298799339,797.798817014,797.551939691,nan,nan,nan,nan
1,341,1,1,1.0,1.0,0.253006071784,0,1.0,0.0,0.0,0.382919616191,0.099987084901,0.28293253129,0.482906701092,0.099987084901,0.263806622475,171,1.0,-0.176011872558,0.256450910142,nan,nan,nan,nan,0.0,0.0,0.0,nan,338.512055932,798.298909957,798.798938751,798.551916028,nan,nan,nan,nan
1,342,1,1,1.0,1.0,0.252881484106,1,0.0,0.0,1.0,0.382534116059,0.100088382437,0.282445733622,0.482622498496,0.100088382437,0.253009302852,476,0.547545041103,0.340739382997,-1.0,86.7366686818,3.26333131824,28.5758313182,5.0,0.88714030954,0.190659852496,-1.0,6.12606712151,338.512055932,799.299061343,799.799096125,799.551942827,807.275015052,808.275861793,801.132598141,807.26669932
1,343,1,1,1.0,1.0,0.67649892997,0,0.0,0.0,0.0,0.38215052839,0.100187984264,0.281962544126,0.482338512655,0.100187984264,0.39412882862,386,-0.0833946583454,0.477495592553,-0.245424736514,nan,nan,nan,nan,0.0,0.0,0.0,nan,338.512055932,808.475203047,808.97528544,809.151701977,nan,nan,nan,nan
1,344,1,1,1.0,1.0,0.356374274008,0,0.0,0.0,0.0,0.383018812761,0.101305709885,0.281713102876,0.484324522646,0.101305709885,0.428584896028,157,1.0,-0.240048375319,0.130425901556,nan,nan,nan,nan,0.0,0.0,0.0,nan,338.512055932,809.475328204,809.975370969,809.831702478,nan,nan,nan,nan
1,345,1,1,1.0,1.0,0.252263106406,0,0.0,0.0,0.0,0.38294044647,0.101166911112,0.281773535358,0.484107357583,0.101166911112,0.428378770128,264,0.394966959701,0.287889713878,0.650717615019,nan,nan,nan,nan,0.0,0.0,0.0,nan,338.512055932,810.475477025,810.975502684,810.727740131,nan,nan,nan,nan
1,346,1,1,1.0,1.0,0.252147641964,0,0.0,0.0,0.0,0.382557228464,0.101265300305,0.281291928159,0.483822528769,0.101265300305,0.286928340793,23,1.0,0.106943944166,-1.0,nan,nan,nan,nan,0.0,0.0,0.0,nan,338.512055932,811.475614158,811.975625562,811.727761799,nan,nan,nan,nan
1,347,1,1,1.0,1.0,0.235963209532,0,1.0,0.0,0.0,0.382175913884,0.101362016223,0.280813897661,0.483537930107,0.101362016223,0.246791319301,385,-0.0879796604702,0.477733444059,-0.233926720364,nan,nan,nan,nan,0.0,0.0,0.0,nan,338.512055932,812.4757262,812.975783505,812.71168941,nan,nan,nan,nan
1,348,1,1,1.0,1.0,0.331759783439,1,0.0,0.0,1.0,0.381749637778,0.101520685074,0.280228952704,0.483270322852,0.101520685074,0.273290211645,48,1.0,-0.0224273256894,-1.0,75.7808982821,14.2191017179,-19.5308982821,20.0,1.0,0.121558187834,-1.0,3.52574376296,338.512055932,813.475866754,813.975889277,813.807626537,818.834823444,819.835245959,815.292708224,818.826492886
1,349,1,1,1.0,1.0,0.300518764183,0,0.0,0.0,0.0,0.381604318434,0.101408738598,0.280195579836,0.483013057032,0.101408738598,0.289413919051,372,-0.138660017671,0.478458869494,-0.0888123791441,nan,nan,nan,nan,0.0,0.0,0.0,nan,338.512055932,820.035013434,820.535067032,820.335532198,nan,nan,nan,nan
1,350,1,1,1.0,1.0,0.260399228893,0,0.0,0.0,0.0,0.381369287842,0.101355447267,0.280013840574,0.482724735109,0.101355447267,0.297559258838,224,0.821619416966,0.11002478857,0.597264883709,nan,nan,nan,nan,0.0,0.0,0.0,nan,338.512055932,821.035160258,821.535174799,821.295559487,nan,nan,nan,nan
1,351,1,1,1.0,1.0,0.348200234585,0,0.0,0.0,0.0,0.381019663394,0.101417000567,0.279602662827,0.482436663961,0.101417000567,0.30303940922,315,-0.0657111424032,0.426434809442,0.434956515233,nan,nan,nan,nan,0.0,0.0,0.0,nan,338.512055932,822.035283421,822.535311931,822.383483656,nan,nan,nan,nan
1,352,0,0,1.0,0.0,0.332016942091,0,0.0,0.0,0.0,0.380925082908,0.101286041441,0.279639041466,0.482211124349,0.101286041441,0.313538801856,131,1.0,-0.308451667147,-0.125800503078,nan,nan,nan,nan,0.0,0.0,0.0,nan,338.512055932,823.035436518,823.535459042,823.367453461,nan,nan,nan,nan
1,353,1,1,1.0,1.0,0.267954319715,0,0.0,0.0,0.0,0.380784542273,0.101174287896,0.279610254377,0.481958830169,0.101174287896,0.316057165464,4,0.879126049628,0.195014037372,-1.0,nan,nan,nan,nan,0.0,0.0,0.0,nan,338.512055932,824.035548277,824.535589046,824.303502597,nan,nan,nan,nan
1,354,1,1,1.0,1.0,0.339745943435,0,0.0,0.0,0.0,0.380461246506,0.101209087308,0.279252159198,0.481670333815,0.101209087308,0.313239068414,419,0.107894673663,0.454841969249,-0.678098861371,nan,nan,nan,nan,0.0,0.0,0.0,nan,338.512055932,825.035665452,825.535696813,825.375411396,nan,nan,nan,nan
1,355,1,1,1.0,1.0,0.323586883955,0,0.0,0.0,0.0,0.380344917069,0.101087762351,0.279257154718,0.48143267942,0.101087762351,0.310429049035,326,-0.12383419111,0.444071765824,0.352223541474,nan,nan,nan,nan,0.0,0.0,0.0,nan,338.512055932,826.035814558,826.535832235,826.359401442,nan,nan,nan,nan
1,356,1,1,1.0,1.0,0.315441924147,0,0.0,0.0,0.0,0.380183213271,0.100988981238,0.279194232033,0.481172194509,0.100988981238,0.326258250512,207,0.985653507947,0.0195431921708,0.51699622314,nan,nan,nan,nan,0.0,0.0,0.0,nan,338.512055932,827.035928883,827.535943137,827.351370807,nan,nan,nan,nan
1,357,0,0,0.0,1.0,0.443304591812,0,0.0,0.0,0.0,0.379999289154,0.100904282352,0.279095006802,0.480903571506,0.100904282352,0.360777799971,360,-0.167709501072,0.475188317955,0.0381258551808,nan,nan,nan,nan,0.0,0.0,0.0,nan,338.512055932,828.036067725,828.536095095,828.479372317,nan,nan,nan,nan
1,358,1,1,1.0,1.0,0.299249793403,0,0.0,0.0,0.0,0.380178624289,0.100817417301,0.279361206988,0.48099604159,0.100817417301,0.352665436454,67,1.0,-0.12380466598,-1.0,nan,nan,nan,nan,0.0,0.0,0.0,nan,338.512055932,829.036163803,829.536211129,829.335413597,nan,nan,nan,nan
