block,trial,freq_trials,correct_response,actual_response,acc,rts,probe_trials,fast_rt_trigger,slow_rt_trigger,rt_triggered,rts_runningavg,rts_runningstd,rts_runningfastthresh,rts_runningslowthresh,rts_runningstd,rts_trailingavg,trials_colorind0,trials_colorind1,trials_colorind2,trials_colorind3,trials_colorind4,trials_colorind5,wholereport_resp0,wholereport_resp1,wholereport_resp2,wholereport_resp3,wholereport_resp4,wholereport_resp5,wholereport_respacc0,wholereport_respacc1,wholereport_respacc2,wholereport_respacc3,wholereport_respacc4,wholereport_respacc5,wholereport_respacc_total,wholereport_respcolorind0,wholereport_respcolorind1,wholereport_respcolorind2,wholereport_respcolorind3,wholereport_respcolorind4,wholereport_respcolorind5,wholereport_resporder0,wholereport_resporder1,wholereport_resporder2,wholereport_resporder3,wholereport_resporder4,wholereport_resporder5,wholereport_rts0,wholereport_rts1,wholereport_rts2,wholereport_rts3,wholereport_rts4,wholereport_rts5,time_blockstart,time_encarray_offset,time_encarray_onset,time_response,time_iti_offset,time_iti_onset,time_memprobe_offset,time_memprobe_onset
1,1,1,1,nan,nan,nan,0,nan,nan,nan,nan,nan,nan,nan,nan,nan,4,2,3,8,7,5,nan,nan,nan,nan,nan,nan,nan,nan,nan,nan,nan,nan,0.0,nan,nan,nan,nan,nan,nan,nan,nan,nan,nan,nan,nan,nan,nan,nan,nan,nan,nan,834.2195120491087,835.2316408308689,nan,nan,nan,nan,nan,nan
1,2,1,1,1.0,1.0,0.5676516781095415,0,nan,nan,nan,nan,nan,nan,nan,nan,nan,4,6,7,0,8,5,nan,nan,nan,nan,nan,nan,nan,nan,nan,nan,nan,nan,0.0,nan,nan,nan,nan,nan,nan,nan,nan,nan,nan,nan,nan,nan,nan,nan,nan,nan,nan,834.2195120491087,836.2598084677011,nan,836.8274601458106,nan,nan,nan,nan
1,3,1,1,1.0,1.0,0.2895335766952485,0,nan,nan,nan,nan,nan,nan,nan,nan,nan,6,5,4,3,2,1,nan,nan,nan,nan,nan,nan,nan,nan,nan,nan,nan,nan,0.0,nan,nan,nan,nan,nan,nan,nan,nan,nan,nan,nan,nan,nan,nan,nan,nan,nan,nan,834.2195120491087,837.2818961758167,nan,837.5714297525119,nan,nan,nan,nan
1,4,1,1,1.0,1.0,0.27241877443157136,0,nan,nan,nan,nan,nan,nan,nan,nan,nan,0,3,1,4,8,5,nan,nan,nan,nan,nan,nan,nan,nan,nan,nan,nan,nan,0.0,nan,nan,nan,nan,nan,nan,nan,nan,nan,nan,nan,nan,nan,nan,nan,nan,nan,nan,834.2195120491087,838.3069819395896,nan,838.5794007140212,nan,nan,nan,nan
1,5,1,1,1.0,1.0,0.27126214536838233,0,nan,nan,nan,nan,nan,nan,nan,nan,nan,4,7,6,1,5,8,nan,nan,nan,nan,nan,nan,nan,nan,nan,nan,nan,nan,0.0,nan,nan,nan,nan,nan,nan,nan,nan,nan,nan,nan,nan,nan,nan,nan,nan,nan,nan,834.2195120491087,839.332137266174,nan,839.6033994115423,nan,nan,nan,nan
1,6,0,0,0.0,1.0,0.7741180809680372,0,nan,nan,nan,nan,nan,nan,nan,nan,nan,6,8,5,0,7,3,nan,nan,nan,nan,nan,nan,nan,nan,nan,nan,nan,nan,0.0,nan,nan,nan,nan,nan,nan,nan,nan,nan,nan,nan,nan,nan,nan,nan,nan,nan,nan,834.2195120491087,840.3572159025352,nan,841.1313339835033,nan,nan,nan,nan
1,7,1,1,1.0,1.0,0.6529574152082205,0,nan,nan,nan,nan,nan,nan,nan,nan,nan,7,3,4,5,2,8,nan,nan,nan,nan,nan,nan,nan,nan,nan,nan,nan,nan,0.0,nan,nan,nan,nan,nan,nan,nan,nan,nan,nan,nan,nan,nan,nan,nan,nan,nan,nan,834.2195120491087,841.3823313158937,nan,842.0352887311019,nan,nan,nan,nan
1,8,1,1,1.0,1.0,0.5557977275457233,1,nan,nan,nan,nan,nan,nan,nan,nan,nan,3,6,8,2,0,5,1.0,1.0,1.0,1.0,1.0,1.0,0.0,0.0,1.0,0.0,0.0,0.0,1.0,2.0,3.0,8.0,6.0,4.0,4.0,4.0,3.0,1.0,2.0,6.0,5.0,7.375607358524576,3.9127644575200975,1.6567665648180991,2.8799027372151613,10.079536561621353,8.92819720110856,834.2195120491087,842.4074638350867,843.2158616972156,842.9632615626324,854.3505193141755,855.3606875000987,844.2326503510121,854.3421951204073
1,9,1,1,1.0,1.0,0.45339087303727865,0,nan,nan,nan,nan,nan,nan,nan,nan,nan,8,2,1,0,6,4,nan,nan,nan,nan,nan,nan,nan,nan,nan,nan,nan,nan,0.0,nan,nan,nan,nan,nan,nan,nan,nan,nan,nan,nan,nan,nan,nan,nan,nan,nan,nan,834.2195120491087,855.5974973822013,nan,856.0508882552385,nan,nan,nan,nan
1,10,1,1,1.0,1.0,0.3294080551713705,0,nan,nan,nan,nan,nan,nan,nan,nan,nan,2,3,0,7,1,8,nan,nan,nan,nan,nan,nan,nan,nan,nan,nan,nan,nan,0.0,nan,nan,nan,nan,nan,nan,nan,nan,nan,nan,nan,nan,nan,nan,nan,nan,nan,nan,834.2195120491087,856.6174491611309,nan,856.9468572163023,nan,nan,nan,nan
1,11,1,1,1.0,1.0,0.3282368863001466,0,nan,nan,nan,nan,nan,nan,nan,nan,nan,1,2,8,4,7,3,nan,nan,nan,nan,nan,nan,nan,nan,nan,nan,nan,nan,0.0,nan,nan,nan,nan,nan,nan,nan,nan,nan,nan,nan,nan,nan,nan,nan,nan,nan,nan,834.2195120491087,857.6426024921238,nan,857.970839378424,nan,nan,nan,nan
1,12,1,1,1.0,1.0,0.4311081599444151,0,nan,nan,nan,nan,nan,nan,nan,nan,nan,3,4,2,7,8,5,nan,nan,nan,nan,nan,nan,nan,nan,nan,nan,nan,nan,0.0,nan,nan,nan,nan,nan,nan,nan,nan,nan,nan,nan,nan,nan,nan,nan,nan,nan,nan,834.2195120491087,858.6677313051187,nan,859.0988394650631,nan,nan,nan,nan
1,13,1,1,1.0,1.0,0.32593446178361773,0,nan,nan,nan,nan,nan,nan,nan,nan,nan,7,6,8,2,5,1,nan,nan,nan,nan,nan,nan,nan,nan,nan,nan,nan,nan,0.0,nan,nan,nan,nan,nan,nan,nan,nan,nan,nan,nan,nan,nan,nan,nan,nan,nan,nan,834.2195120491087,859.6928541311063,nan,860.0187885928899,nan,nan,nan,nan
1,14,1,1,1.0,1.0,0.34873604704625905,0,nan,nan,nan,nan,nan,nan,nan,nan,nan,6,0,7,5,4,8,nan,nan,nan,nan,nan,nan,nan,nan,nan,nan,nan,nan,0.0,nan,nan,nan,nan,nan,nan,nan,nan,nan,nan,nan,nan,nan,nan,nan,nan,nan,nan,834.2195120491087,860.718019150896,nan,861.0667551979423,nan,nan,nan,nan
1,15,1,1,1.0,1.0,0.3157075464259833,0,nan,nan,nan,nan,nan,nan,nan,nan,nan,8,1,5,7,2,0,nan,nan,nan,nan,nan,nan,nan,nan,nan,nan,nan,nan,0.0,nan,nan,nan,nan,nan,nan,nan,nan,nan,nan,nan,nan,nan,nan,nan,nan,nan,nan,834.2195120491087,861.7430484658107,nan,862.0587560122367,nan,nan,nan,nan
1,16,1,1,1.0,1.0,0.2905003326013684,0,nan,nan,nan,nan,nan,nan,nan,nan,nan,1,8,6,4,5,2,nan,nan,nan,nan,nan,nan,nan,nan,nan,nan,nan,nan,0.0,nan,nan,nan,nan,nan,nan,nan,nan,nan,nan,nan,nan,nan,nan,nan,nan,nan,nan,834.2195120491087,862.7682163366117,nan,863.058716669213,nan,nan,nan,nan
1,17,1,1,1.0,1.0,0.31335409032180905,0,nan,nan,nan,nan,nan,nan,nan,nan,nan,7,4,5,6,2,3,nan,nan,nan,nan,nan,nan,nan,nan,nan,nan,nan,nan,0.0,nan,nan,nan,nan,nan,nan,nan,nan,nan,nan,nan,nan,nan,nan,nan,nan,nan,nan,834.2195120491087,863.7933177803643,nan,864.1066718706861,nan,nan,nan,nan
1,18,1,1,1.0,1.0,0.2882318343035877,0,nan,nan,nan,nan,nan,nan,nan,nan,nan,2,1,8,5,0,7,nan,nan,nan,nan,nan,nan,nan,nan,nan,nan,nan,nan,0.0,nan,nan,nan,nan,nan,nan,nan,nan,nan,nan,nan,nan,nan,nan,nan,nan,nan,nan,834.2195120491087,864.8184132373426,nan,865.1066450716462,nan,nan,nan,nan
1,19,0,0,0.0,1.0,0.4630535861942917,0,nan,nan,nan,nan,nan,nan,nan,nan,nan,4,6,7,1,5,2,nan,nan,nan,nan,nan,nan,nan,nan,nan,nan,nan,nan,0.0,nan,nan,nan,nan,nan,nan,nan,nan,nan,nan,nan,nan,nan,nan,nan,nan,nan,nan,834.2195120491087,865.8435443309136,nan,866.3065979171079,nan,nan,nan,nan
1,20,1,1,1.0,1.0,0.42993014911189675,0,nan,nan,nan,nan,nan,nan,nan,nan,nan,0,2,4,5,3,1,nan,nan,nan,nan,nan,nan,nan,nan,nan,nan,nan,nan,0.0,nan,nan,nan,nan,nan,nan,nan,nan,nan,nan,nan,nan,nan,nan,nan,nan,nan,nan,834.2195120491087,866.8686537572648,nan,867.2985839063767,nan,nan,nan,nan
1,21,1,1,1.0,1.0,0.44477018085308373,0,nan,nan,nan,nan,nan,nan,nan,nan,nan,5,4,6,1,7,2,nan,nan,nan,nan,nan,nan,nan,nan,nan,nan,nan,nan,0.0,nan,nan,nan,nan,nan,nan,nan,nan,nan,nan,nan,nan,nan,nan,nan,nan,nan,nan,834.2195120491087,867.8937480738387,nan,868.3385182546917,nan,nan,nan,nan
1,22,1,1,1.0,1.0,0.5156193382572383,0,nan,nan,nan,nan,nan,nan,nan,nan,nan,4,7,8,5,0,1,nan,nan,nan,nan,nan,nan,nan,nan,nan,nan,nan,nan,0.0,nan,nan,nan,nan,nan,nan,nan,nan,nan,nan,nan,nan,nan,nan,nan,nan,nan,nan,834.2195120491087,868.9188959880266,nan,869.4345153262839,nan,nan,nan,nan
1,23,1,1,1.0,1.0,0.5864747676532716,0,nan,nan,nan,nan,nan,nan,nan,nan,nan,1,6,7,8,2,3,nan,nan,nan,nan,nan,nan,nan,nan,nan,nan,nan,nan,0.0,nan,nan,nan,nan,nan,nan,nan,nan,nan,nan,nan,nan,nan,nan,nan,nan,nan,nan,834.2195120491087,869.944015963003,nan,870.5304907306563,nan,nan,nan,nan
1,24,0,0,0.0,1.0,0.7613204673398286,0,nan,nan,nan,nan,nan,nan,nan,nan,nan,4,2,6,1,0,8,nan,nan,nan,nan,nan,nan,nan,nan,nan,nan,nan,nan,0.0,nan,nan,nan,nan,nan,nan,nan,nan,nan,nan,nan,nan,nan,nan,nan,nan,nan,nan,834.2195120491087,870.9691453459673,nan,871.7304658133071,nan,nan,nan,nan
1,25,1,1,1.0,1.0,0.6961387065239251,0,nan,nan,nan,nan,nan,nan,nan,nan,nan,0,4,3,8,5,2,nan,nan,nan,nan,nan,nan,nan,nan,nan,nan,nan,nan,0.0,nan,nan,nan,nan,nan,nan,nan,nan,nan,nan,nan,nan,nan,nan,nan,nan,nan,nan,834.2195120491087,871.9942946857773,nan,872.6904333923012,nan,nan,nan,nan
1,26,1,1,0.0,0.0,0.7990382045973092,0,nan,nan,nan,nan,nan,nan,nan,nan,nan,7,6,5,3,2,0,nan,nan,nan,nan,nan,nan,nan,nan,nan,nan,nan,nan,0.0,nan,nan,nan,nan,nan,nan,nan,nan,nan,nan,nan,nan,nan,nan,nan,nan,nan,nan,834.2195120491087,873.0193522251211,nan,873.8183904297184,nan,nan,nan,nan
1,27,1,1,1.0,1.0,0.7414807304739952,0,nan,nan,nan,nan,nan,nan,nan,nan,nan,6,2,7,8,3,1,nan,nan,nan,nan,nan,nan,nan,nan,nan,nan,nan,nan,0.0,nan,nan,nan,nan,nan,nan,nan,nan,nan,nan,nan,nan,nan,nan,nan,nan,nan,nan,834.2195120491087,874.0528853430878,nan,874.7943660735618,nan,nan,nan,nan
1,28,1,1,1.0,1.0,0.3003905510995537,0,nan,nan,nan,nan,nan,nan,nan,nan,nan,0,1,3,6,8,2,nan,nan,nan,nan,nan,nan,nan,nan,nan,nan,nan,nan,0.0,nan,nan,nan,nan,nan,nan,nan,nan,nan,nan,nan,nan,nan,nan,nan,nan,nan,nan,834.2195120491087,875.0779477290343,nan,875.3783382801339,nan,nan,nan,nan
1,29,1,1,1.0,1.0,0.299234492238611,0,nan,nan,nan,nan,nan,nan,nan,nan,nan,4,5,2,7,1,8,nan,nan,nan,nan,nan,nan,nan,nan,nan,nan,nan,nan,0.0,nan,nan,nan,nan,nan,nan,nan,nan,nan,nan,nan,nan,nan,nan,nan,nan,nan,nan,834.2195120491087,876.1030754016247,nan,876.4023098938633,nan,nan,nan,nan
1,30,0,0,0.0,1.0,0.41009696922264993,0,nan,nan,nan,nan,nan,nan,nan,nan,nan,1,7,5,3,0,2,nan,nan,nan,nan,nan,nan,nan,nan,nan,nan,nan,nan,0.0,nan,nan,nan,nan,nan,nan,nan,nan,nan,nan,nan,nan,nan,nan,nan,nan,nan,nan,834.2195120491087,877.1281936659943,nan,877.538290635217,nan,nan,nan,nan
1,31,1,1,1.0,1.0,0.36894469638355076,0,nan,nan,nan,nan,nan,nan,nan,nan,nan,4,0,3,1,6,5,nan,nan,nan,nan,nan,nan,nan,nan,nan,nan,nan,nan,0.0,nan,nan,nan,nan,nan,nan,nan,nan,nan,nan,nan,nan,nan,nan,nan,nan,nan,nan,834.2195120491087,878.1533082241658,nan,878.5222529205494,nan,nan,nan,nan
1,32,1,1,1.0,1.0,0.3117176468949765,0,nan,nan,nan,nan,nan,nan,nan,nan,nan,2,4,6,8,1,3,nan,nan,nan,nan,nan,nan,nan,nan,nan,nan,nan,nan,0.0,nan,nan,nan,nan,nan,nan,nan,nan,nan,nan,nan,nan,nan,nan,nan,nan,nan,nan,834.2195120491087,879.1785068851896,nan,879.4902245320845,nan,nan,nan,nan
1,33,1,1,1.0,1.0,0.49461926613003016,0,nan,nan,nan,nan,nan,nan,nan,nan,nan,3,7,8,1,4,0,nan,nan,nan,nan,nan,nan,nan,nan,nan,nan,nan,nan,0.0,nan,nan,nan,nan,nan,nan,nan,nan,nan,nan,nan,nan,nan,nan,nan,nan,nan,nan,834.2195120491087,880.2035498844925,nan,880.6981691506226,nan,nan,nan,nan
1,34,1,1,1.0,1.0,0.29351235763169825,0,nan,nan,nan,nan,nan,nan,nan,nan,nan,1,8,4,2,3,6,nan,nan,nan,nan,nan,nan,nan,nan,nan,nan,nan,nan,0.0,nan,nan,nan,nan,nan,nan,nan,nan,nan,nan,nan,nan,nan,nan,nan,nan,nan,nan,834.2195120491087,881.2286672936752,nan,881.5221796513069,nan,nan,nan,nan
1,35,1,1,1.0,1.0,0.3323408239521086,0,nan,nan,nan,nan,nan,nan,nan,nan,nan,8,5,2,1,6,4,nan,nan,nan,nan,nan,nan,nan,nan,nan,nan,nan,nan,0.0,nan,nan,nan,nan,nan,nan,nan,nan,nan,nan,nan,nan,nan,nan,nan,nan,nan,nan,834.2195120491087,882.2538254712708,nan,882.5861662952229,nan,nan,nan,nan
1,36,1,1,1.0,1.0,0.28319079079665244,0,nan,nan,nan,nan,nan,nan,nan,nan,nan,6,2,1,7,8,3,nan,nan,nan,nan,nan,nan,nan,nan,nan,nan,nan,nan,0.0,nan,nan,nan,nan,nan,nan,nan,nan,nan,nan,nan,nan,nan,nan,nan,nan,nan,nan,834.2195120491087,883.2789109498262,nan,883.5621017406229,nan,nan,nan,nan
1,37,1,1,1.0,1.0,0.2844543303363025,0,nan,nan,nan,nan,nan,nan,nan,nan,nan,3,5,8,6,0,1,nan,nan,nan,nan,nan,nan,nan,nan,nan,nan,nan,nan,0.0,nan,nan,nan,nan,nan,nan,nan,nan,nan,nan,nan,nan,nan,nan,nan,nan,nan,nan,834.2195120491087,884.3336169074755,nan,884.6180712378118,nan,nan,nan,nan
1,38,1,1,1.0,1.0,0.29588092397898436,0,nan,nan,nan,nan,nan,nan,nan,nan,nan,6,1,0,2,4,5,nan,nan,nan,nan,nan,nan,nan,nan,nan,nan,nan,nan,0.0,nan,nan,nan,nan,nan,nan,nan,nan,nan,nan,nan,nan,nan,nan,nan,nan,nan,nan,834.2195120491087,885.3541682406794,nan,885.6500491646584,nan,nan,nan,nan
1,39,0,0,1.0,0.0,0.23073537019081414,0,nan,nan,nan,nan,nan,nan,nan,nan,nan,3,7,4,1,0,8,nan,nan,nan,nan,nan,nan,nan,nan,nan,nan,nan,nan,0.0,nan,nan,nan,nan,nan,nan,nan,nan,nan,nan,nan,nan,nan,nan,nan,nan,nan,nan,834.2195120491087,886.3793010448571,nan,886.610036415048,nan,nan,nan,nan
1,40,1,1,1.0,1.0,0.397571335779503,0,nan,nan,nan,nan,nan,nan,nan,nan,nan,2,6,3,5,4,1,nan,nan,nan,nan,nan,nan,nan,nan,nan,nan,nan,nan,0.0,nan,nan,nan,nan,nan,nan,nan,nan,nan,nan,nan,nan,nan,nan,nan,nan,nan,nan,834.2195120491087,887.4044332788326,nan,887.8020046146121,nan,nan,nan,nan
1,41,0,0,1.0,0.0,0.4284439506009221,0,nan,nan,nan,nan,nan,nan,nan,nan,nan,8,3,1,7,2,5,nan,nan,nan,nan,nan,nan,nan,nan,nan,nan,nan,nan,0.0,nan,nan,nan,nan,nan,nan,nan,nan,nan,nan,nan,nan,nan,nan,nan,nan,nan,nan,834.2195120491087,888.4295278803911,nan,888.857971830992,nan,nan,nan,nan
1,42,1,1,1.0,1.0,0.5312730302102864,0,nan,nan,nan,nan,nan,nan,nan,nan,nan,5,1,6,0,3,7,nan,nan,nan,nan,nan,nan,nan,nan,nan,nan,nan,nan,0.0,nan,nan,nan,nan,nan,nan,nan,nan,nan,nan,nan,nan,nan,nan,nan,nan,nan,nan,834.2195120491087,889.4546732287854,nan,889.9859462589957,nan,nan,nan,nan
1,43,1,1,1.0,1.0,0.514165070373565,0,nan,nan,nan,nan,nan,nan,nan,nan,nan,4,3,5,6,8,2,nan,nan,nan,nan,nan,nan,nan,nan,nan,nan,nan,nan,0.0,nan,nan,nan,nan,nan,nan,nan,nan,nan,nan,nan,nan,nan,nan,nan,nan,nan,nan,834.2195120491087,890.4797692557331,nan,890.9939343261067,nan,nan,nan,nan
1,44,1,1,1.0,1.0,0.2889400094281882,1,nan,nan,nan,nan,nan,nan,nan,nan,nan,7,6,2,3,5,1,1.0,1.0,1.0,1.0,1.0,1.0,1.0,1.0,1.0,0.0,0.0,1.0,4.0,7.0,6.0,2.0,8.0,4.0,1.0,2.0,3.0,1.0,6.0,5.0,4.0,3.6473074092064053,4.829763995716348,2.0160699302796274,7.957050205441192,7.133527786936611,6.2221269372384995,834.2195120491087,891.5049154595472,892.3132816760335,891.7938554689754,901.3226923653856,902.3309735099319,893.3301128090825,901.3143610444386
1,45,1,1,1.0,1.0,0.42132086073979735,0,nan,nan,nan,nan,nan,nan,nan,nan,nan,3,8,0,1,2,5,nan,nan,nan,nan,nan,nan,nan,nan,nan,nan,nan,nan,0.0,nan,nan,nan,nan,nan,nan,nan,nan,nan,nan,nan,nan,nan,nan,nan,nan,nan,nan,834.2195120491087,902.5562076936476,nan,902.9775285543874,nan,nan,nan,nan
1,46,1,1,1.0,1.0,0.308220675913617,0,nan,nan,nan,nan,nan,nan,nan,nan,nan,5,3,7,8,0,1,nan,nan,nan,nan,nan,nan,nan,nan,nan,nan,nan,nan,0.0,nan,nan,nan,nan,nan,nan,nan,nan,nan,nan,nan,nan,nan,nan,nan,nan,nan,nan,834.2195120491087,903.5812888958026,nan,903.8895095717162,nan,nan,nan,nan
1,47,1,1,1.0,1.0,0.2590618047397584,0,nan,nan,nan,nan,nan,nan,nan,nan,nan,8,4,3,7,6,0,nan,nan,nan,nan,nan,nan,nan,nan,nan,nan,nan,nan,0.0,nan,nan,nan,nan,nan,nan,nan,nan,nan,nan,nan,nan,nan,nan,nan,nan,nan,nan,834.2195120491087,904.6064137173817,nan,904.8654755221214,nan,nan,nan,nan
1,48,1,1,1.0,1.0,0.2099268815945834,0,nan,nan,nan,nan,nan,nan,nan,nan,nan,7,2,0,6,8,5,nan,nan,nan,nan,nan,nan,nan,nan,nan,nan,nan,nan,0.0,nan,nan,nan,nan,nan,nan,nan,nan,nan,nan,nan,nan,nan,nan,nan,nan,nan,nan,834.2195120491087,905.6315305563621,nan,905.8414574379567,nan,nan,nan,nan
1,49,0,0,1.0,0.0,0.21675204765051603,0,nan,nan,nan,nan,nan,nan,nan,nan,nan,0,8,7,1,4,3,nan,nan,nan,nan,nan,nan,nan,nan,nan,nan,nan,nan,0.0,nan,nan,nan,nan,nan,nan,nan,nan,nan,nan,nan,nan,nan,nan,nan,nan,nan,nan,834.2195120491087,906.6566542375367,nan,906.8734062851872,nan,nan,nan,nan
1,50,1,1,1.0,1.0,0.35966600594110787,0,nan,nan,nan,nan,nan,nan,nan,nan,nan,2,4,5,3,6,7,nan,nan,nan,nan,nan,nan,nan,nan,nan,nan,nan,nan,0.0,nan,nan,nan,nan,nan,nan,nan,nan,nan,nan,nan,nan,nan,nan,nan,nan,nan,nan,834.2195120491087,907.6817496942822,nan,908.0414157002233,nan,nan,nan,nan
1,51,1,1,1.0,1.0,0.29447170114144683,0,nan,nan,nan,nan,nan,nan,nan,nan,nan,4,1,3,8,0,2,nan,nan,nan,nan,nan,nan,nan,nan,nan,nan,nan,nan,0.0,nan,nan,nan,nan,nan,nan,nan,nan,nan,nan,nan,nan,nan,nan,nan,nan,nan,nan,834.2195120491087,908.7069269733038,nan,909.0013986744452,nan,nan,nan,nan
1,52,1,1,1.0,1.0,0.2853101845830679,1,nan,nan,nan,nan,nan,nan,nan,nan,nan,3,5,6,7,1,8,1.0,1.0,1.0,1.0,1.0,1.0,1.0,1.0,1.0,1.0,0.0,0.0,4.0,3.0,5.0,6.0,7.0,4.0,2.0,4.0,3.0,2.0,1.0,6.0,5.0,4.161106133135036,3.3221598085947335,2.2355491935741156,1.154961772961542,6.241185229737312,5.065163514576852,834.2195120491087,909.7320298424456,910.5404348319862,910.0173400270287,917.8495931841899,918.8509140277747,911.5655522411689,917.8412669948302
1,53,1,1,1.0,1.0,0.29431889043189585,0,nan,nan,nan,nan,nan,nan,nan,nan,nan,6,3,0,2,7,1,nan,nan,nan,nan,nan,nan,nan,nan,nan,nan,nan,nan,0.0,nan,nan,nan,nan,nan,nan,nan,nan,nan,nan,nan,nan,nan,nan,nan,nan,nan,nan,834.2195120491087,919.0747928714845,nan,919.3691117619164,nan,nan,nan,nan
1,54,1,1,1.0,1.0,0.35715859825722873,0,nan,nan,nan,nan,nan,nan,nan,nan,nan,4,2,1,3,8,5,nan,nan,nan,nan,nan,nan,nan,nan,nan,nan,nan,nan,0.0,nan,nan,nan,nan,nan,nan,nan,nan,nan,nan,nan,nan,nan,nan,nan,nan,nan,nan,834.2195120491087,920.0999051490799,nan,920.4570637473371,nan,nan,nan,nan
1,55,1,1,1.0,1.0,0.25200200593099,0,nan,nan,nan,nan,nan,nan,nan,nan,nan,2,4,8,0,7,1,nan,nan,nan,nan,nan,nan,nan,nan,nan,nan,nan,nan,0.0,nan,nan,nan,nan,nan,nan,nan,nan,nan,nan,nan,nan,nan,nan,nan,nan,nan,nan,834.2195120491087,921.1250151456334,nan,921.3770171515644,nan,nan,nan,nan
1,56,1,1,1.0,1.0,0.27488512825220823,0,nan,nan,nan,nan,nan,nan,nan,nan,nan,4,0,7,6,5,3,nan,nan,nan,nan,nan,nan,nan,nan,nan,nan,nan,nan,0.0,nan,nan,nan,nan,nan,nan,nan,nan,nan,nan,nan,nan,nan,nan,nan,nan,nan,nan,834.2195120491087,922.1501336952206,nan,922.4250188234728,nan,nan,nan,nan
1,57,1,1,1.0,1.0,0.1689562143292278,0,nan,nan,nan,nan,nan,nan,nan,nan,nan,3,4,1,8,0,6,nan,nan,nan,nan,nan,nan,nan,nan,nan,nan,nan,nan,0.0,nan,nan,nan,nan,nan,nan,nan,nan,nan,nan,nan,nan,nan,nan,nan,nan,nan,nan,834.2195120491087,923.2080238750204,nan,923.3769800893497,nan,nan,nan,nan
1,58,1,1,1.0,1.0,0.23920268146321177,0,nan,nan,nan,nan,nan,nan,nan,nan,nan,0,6,7,1,4,5,nan,nan,nan,nan,nan,nan,nan,nan,nan,nan,nan,nan,0.0,nan,nan,nan,nan,nan,nan,nan,nan,nan,nan,nan,nan,nan,nan,nan,nan,nan,nan,834.2195120491087,924.2337453996297,nan,924.4729480810929,nan,nan,nan,nan
1,59,1,1,1.0,1.0,0.23796194978058338,0,nan,nan,nan,nan,nan,nan,nan,nan,nan,3,4,2,8,0,7,nan,nan,nan,nan,nan,nan,nan,nan,nan,nan,nan,nan,0.0,nan,nan,nan,nan,nan,nan,nan,nan,nan,nan,nan,nan,nan,nan,nan,nan,nan,nan,834.2195120491087,925.2589568898547,nan,925.4969188396353,nan,nan,nan,nan
1,60,1,1,1.0,1.0,0.21295145084150136,0,nan,nan,nan,nan,nan,nan,nan,nan,nan,1,7,4,2,5,6,nan,nan,nan,nan,nan,nan,nan,nan,nan,nan,nan,nan,0.0,nan,nan,nan,nan,nan,nan,nan,nan,nan,nan,nan,nan,nan,nan,nan,nan,nan,nan,834.2195120491087,926.2839471469633,nan,926.4968985978048,nan,nan,nan,nan
1,61,1,1,1.0,1.0,0.21175947017036378,0,nan,nan,nan,nan,nan,nan,nan,nan,nan,3,8,1,5,2,7,nan,nan,nan,nan,nan,nan,nan,nan,nan,nan,nan,nan,0.0,nan,nan,nan,nan,nan,nan,nan,nan,nan,nan,nan,nan,nan,nan,nan,nan,nan,nan,834.2195120491087,927.3091053245589,nan,927.5208647947293,nan,nan,nan,nan
1,62,1,1,1.0,1.0,0.3219531150534749,0,nan,nan,nan,nan,nan,nan,nan,nan,nan,5,0,8,6,3,2,nan,nan,nan,nan,nan,nan,nan,nan,nan,nan,nan,nan,0.0,nan,nan,nan,nan,nan,nan,nan,nan,nan,nan,nan,nan,nan,nan,nan,nan,nan,nan,834.2195120491087,928.3508574364241,nan,928.6728105514776,nan,nan,nan,nan
1,63,1,1,1.0,1.0,0.2728290257509798,0,nan,nan,nan,nan,nan,nan,nan,nan,nan,8,6,1,2,4,0,nan,nan,nan,nan,nan,nan,nan,nan,nan,nan,nan,nan,0.0,nan,nan,nan,nan,nan,nan,nan,nan,nan,nan,nan,nan,nan,nan,nan,nan,nan,nan,834.2195120491087,929.375973990187,nan,929.648803015938,nan,nan,nan,nan
1,64,1,1,1.0,1.0,0.23165964731015265,0,nan,nan,nan,nan,nan,nan,nan,nan,nan,0,7,2,3,1,4,nan,nan,nan,nan,nan,nan,nan,nan,nan,nan,nan,nan,0.0,nan,nan,nan,nan,nan,nan,nan,nan,nan,nan,nan,nan,nan,nan,nan,nan,nan,nan,834.2195120491087,930.401092824759,nan,930.6327524720691,nan,nan,nan,nan
1,65,1,1,1.0,1.0,0.23850733553990722,0,nan,nan,nan,nan,nan,nan,nan,nan,nan,5,0,8,6,2,3,nan,nan,nan,nan,nan,nan,nan,nan,nan,nan,nan,nan,0.0,nan,nan,nan,nan,nan,nan,nan,nan,nan,nan,nan,nan,nan,nan,nan,nan,nan,nan,834.2195120491087,931.4262182165403,nan,931.6647255520802,nan,nan,nan,nan
1,66,1,1,1.0,1.0,0.2213429268449545,0,nan,nan,nan,nan,nan,nan,nan,nan,nan,2,4,3,1,5,0,nan,nan,nan,nan,nan,nan,nan,nan,nan,nan,nan,nan,0.0,nan,nan,nan,nan,nan,nan,nan,nan,nan,nan,nan,nan,nan,nan,nan,nan,nan,nan,834.2195120491087,932.4513604289386,nan,932.6727033557836,nan,nan,nan,nan
1,67,1,1,1.0,1.0,0.37220617942512035,0,nan,nan,nan,nan,nan,nan,nan,nan,nan,6,0,8,7,1,2,nan,nan,nan,nan,nan,nan,nan,nan,nan,nan,nan,nan,0.0,nan,nan,nan,nan,nan,nan,nan,nan,nan,nan,nan,nan,nan,nan,nan,nan,nan,nan,834.2195120491087,933.4764570260886,nan,933.8486632055137,nan,nan,nan,nan
1,68,1,1,1.0,1.0,0.24304091092199087,1,nan,nan,nan,nan,nan,nan,nan,nan,nan,4,7,2,3,5,1,1.0,1.0,1.0,1.0,1.0,1.0,0.0,1.0,1.0,0.0,0.0,1.0,3.0,6.0,7.0,2.0,5.0,8.0,1.0,3.0,2.0,1.0,6.0,5.0,4.0,3.3840467303525656,2.4878120610956103,1.4647450526244938,5.799331282032654,4.975128912599757,4.104448417434469,834.2195120491087,934.5016152036842,935.3100276056211,934.7446561146062,942.1607834058814,943.1706317155622,936.3184809472878,942.152455505915
1,69,1,1,1.0,1.0,0.3100809184834361,0,nan,nan,nan,nan,nan,nan,nan,nan,nan,5,2,4,1,0,8,nan,nan,nan,nan,nan,nan,nan,nan,nan,nan,nan,nan,0.0,nan,nan,nan,nan,nan,nan,nan,nan,nan,nan,nan,nan,nan,nan,nan,nan,nan,nan,834.2195120491087,943.3943204013631,nan,943.7044013198465,nan,nan,nan,nan
1,70,1,1,1.0,1.0,0.420904622413218,0,nan,nan,nan,nan,nan,nan,nan,nan,nan,1,0,6,3,5,2,nan,nan,nan,nan,nan,nan,nan,nan,nan,nan,nan,nan,0.0,nan,nan,nan,nan,nan,nan,nan,nan,nan,nan,nan,nan,nan,nan,nan,nan,nan,nan,834.2195120491087,944.4194443675224,nan,944.8403489899356,nan,nan,nan,nan
1,71,0,0,1.0,0.0,0.27576550049707294,0,nan,nan,nan,nan,nan,nan,nan,nan,nan,2,6,0,1,3,4,nan,nan,nan,nan,nan,nan,nan,nan,nan,nan,nan,nan,0.0,nan,nan,nan,nan,nan,nan,nan,nan,nan,nan,nan,nan,nan,nan,nan,nan,nan,nan,834.2195120491087,945.4445634873118,nan,945.7203289878089,nan,nan,nan,nan
1,72,1,1,1.0,1.0,0.37862850655801594,0,nan,nan,nan,nan,nan,nan,nan,nan,nan,4,5,8,7,6,1,nan,nan,nan,nan,nan,nan,nan,nan,nan,nan,nan,nan,0.0,nan,nan,nan,nan,nan,nan,nan,nan,nan,nan,nan,nan,nan,nan,nan,nan,nan,nan,834.2195120491087,946.4696786156856,nan,946.8483071222436,nan,nan,nan,nan
1,73,1,1,1.0,1.0,0.33746197912842035,0,nan,nan,nan,nan,nan,nan,nan,nan,nan,8,3,7,0,1,5,nan,nan,nan,nan,nan,nan,nan,nan,nan,nan,nan,nan,0.0,nan,nan,nan,nan,nan,nan,nan,nan,nan,nan,nan,nan,nan,nan,nan,nan,nan,nan,834.2195120491087,947.4948037222493,nan,947.8322657013778,nan,nan,nan,nan
1,74,1,1,1.0,1.0,0.24731276906095445,0,nan,nan,nan,nan,nan,nan,nan,nan,nan,1,6,5,7,2,3,nan,nan,nan,nan,nan,nan,nan,nan,nan,nan,nan,nan,0.0,nan,nan,nan,nan,nan,nan,nan,nan,nan,nan,nan,nan,nan,nan,nan,nan,nan,nan,834.2195120491087,948.5448931423016,nan,948.7922059113625,nan,nan,nan,nan
1,75,1,1,1.0,1.0,0.30217524361796677,0,nan,nan,nan,nan,nan,nan,nan,nan,nan,6,7,8,1,5,2,nan,nan,nan,nan,nan,nan,nan,nan,nan,nan,nan,nan,0.0,nan,nan,nan,nan,nan,nan,nan,nan,nan,nan,nan,nan,nan,nan,nan,nan,nan,nan,834.2195120491087,949.5700037090573,nan,949.8721789526753,nan,nan,nan,nan
1,76,1,1,1.0,1.0,0.24364987295120955,0,nan,nan,nan,nan,nan,nan,nan,nan,nan,1,5,0,7,3,6,nan,nan,nan,nan,nan,nan,nan,nan,nan,nan,nan,nan,0.0,nan,nan,nan,nan,nan,nan,nan,nan,nan,nan,nan,nan,nan,nan,nan,nan,nan,nan,834.2195120491087,950.6284697800875,nan,950.8721196530387,nan,nan,nan,nan
1,77,1,1,1.0,1.0,0.2265402025077492,0,nan,nan,nan,nan,nan,nan,nan,nan,nan,0,8,6,3,4,5,nan,nan,nan,nan,nan,nan,nan,nan,nan,nan,nan,nan,0.0,nan,nan,nan,nan,nan,nan,nan,nan,nan,nan,nan,nan,nan,nan,nan,nan,nan,nan,834.2195120491087,951.6535837680567,nan,951.8801239705645,nan,nan,nan,nan
1,78,1,1,1.0,1.0,0.3614002368412912,0,nan,nan,nan,nan,nan,nan,nan,nan,nan,8,2,4,5,0,3,nan,nan,nan,nan,nan,nan,nan,nan,nan,nan,nan,nan,0.0,nan,nan,nan,nan,nan,nan,nan,nan,nan,nan,nan,nan,nan,nan,nan,nan,nan,nan,834.2195120491087,952.6787034578156,nan,953.0401036946569,nan,nan,nan,nan
1,79,1,1,1.0,1.0,0.3042390439659357,0,nan,nan,nan,nan,nan,nan,nan,nan,nan,5,7,0,6,8,2,nan,nan,nan,nan,nan,nan,nan,nan,nan,nan,nan,nan,0.0,nan,nan,nan,nan,nan,nan,nan,nan,nan,nan,nan,nan,nan,nan,nan,nan,nan,nan,834.2195120491087,953.7038262838032,nan,954.0080653277691,nan,nan,nan,nan
1,80,1,1,1.0,1.0,0.27909996756352484,0,nan,nan,nan,nan,nan,nan,nan,nan,nan,4,1,8,5,2,7,nan,nan,nan,nan,nan,nan,nan,nan,nan,nan,nan,nan,0.0,nan,nan,nan,nan,nan,nan,nan,nan,nan,nan,nan,nan,nan,nan,nan,nan,nan,nan,834.2195120491087,954.7289459737949,nan,955.0080459413584,nan,nan,nan,nan
1,81,1,1,1.0,1.0,0.33393364772200584,0,0.0,0.0,0.0,0.36081531630015545,0.141418252485572,0.21939706381458346,0.5022335687857274,0.141418252485572,0.30575755308382213,0,4,1,8,7,2,nan,nan,nan,nan,nan,nan,nan,nan,nan,nan,nan,nan,0.0,nan,nan,nan,nan,nan,nan,nan,nan,nan,nan,nan,nan,nan,nan,nan,nan,nan,nan,834.2195120491087,955.7540699399542,nan,956.0880035876762,nan,nan,nan,nan
1,82,1,1,1.0,1.0,0.3007657357957214,0,0.0,0.0,0.0,0.36047929544292856,0.14056334159614625,0.2199159538467823,0.5010426370390748,0.14056334159614625,0.3045997836937507,3,2,7,1,8,5,nan,nan,nan,nan,nan,nan,nan,nan,nan,nan,nan,nan,0.0,nan,nan,nan,nan,nan,nan,nan,nan,nan,nan,nan,nan,nan,nan,nan,nan,nan,nan,834.2195120491087,956.7792110119481,nan,957.0799767477438,nan,nan,nan,nan
1,83,1,1,1.0,1.0,0.22758678486570716,0,0.0,0.0,0.0,0.3597420910028396,0.13984850392956877,0.21989358707327084,0.49959059493240837,0.13984850392956877,0.2874287227944781,4,7,1,3,6,2,nan,nan,nan,nan,nan,nan,nan,nan,nan,nan,nan,nan,0.0,nan,nan,nan,nan,nan,nan,nan,nan,nan,nan,nan,nan,nan,nan,nan,nan,nan,nan,834.2195120491087,957.8043651983608,nan,958.0319519832265,nan,nan,nan,nan
1,84,1,1,1.0,1.0,0.22649145126342773,0,0.0,0.0,0.0,0.3581304409279965,0.13974794230299759,0.21838249862499892,0.4978783832309941,0.13974794230299759,0.2516146573082854,5,2,6,1,3,8,nan,nan,nan,nan,nan,nan,nan,nan,nan,nan,nan,nan,0.0,nan,nan,nan,nan,nan,nan,nan,nan,nan,nan,nan,nan,nan,nan,nan,nan,nan,nan,834.2195120491087,958.8294295796659,nan,959.0559210309293,nan,nan,nan,nan
1,85,1,1,1.0,1.0,0.22535477904602885,0,0.0,0.0,0.0,0.356544429004327,0.13964404005426823,0.21690038895005875,0.4961884690585952,0.13964404005426823,0.2264776717250546,7,4,3,6,5,1,nan,nan,nan,nan,nan,nan,nan,nan,nan,nan,nan,nan,0.0,nan,nan,nan,nan,nan,nan,nan,nan,nan,nan,nan,nan,nan,nan,nan,nan,nan,nan,834.2195120491087,959.8545404316392,nan,960.0798952106852,nan,nan,nan,nan
1,86,1,1,1.0,1.0,0.2242580195888877,0,0.0,0.0,0.0,0.3549826474572044,0.13953766526265293,0.2154449821945515,0.49452031271985736,0.13953766526265293,0.2253680832994481,2,8,0,1,7,4,nan,nan,nan,nan,nan,nan,nan,nan,nan,nan,nan,nan,0.0,nan,nan,nan,nan,nan,nan,nan,nan,nan,nan,nan,nan,nan,nan,nan,nan,nan,nan,834.2195120491087,960.879654704826,nan,961.1039127244148,nan,nan,nan,nan
1,87,1,1,1.0,1.0,0.2630494236946106,0,0.0,0.0,0.0,0.3534447106587536,0.1394287388883499,0.2140159717704037,0.4928734495471035,0.1394287388883499,0.2375540741098424,7,3,1,5,4,0,nan,nan,nan,nan,nan,nan,nan,nan,nan,nan,nan,nan,0.0,nan,nan,nan,nan,nan,nan,nan,nan,nan,nan,nan,nan,nan,nan,nan,nan,nan,nan,834.2195120491087,961.904782662401,nan,962.1678320860956,nan,nan,nan,nan
1,88,1,1,1.0,1.0,0.27788631967268884,0,0.0,0.0,0.0,0.35239360267079844,0.13895406707508237,0.21343953559571607,0.49134766974588084,0.13895406707508237,0.25506458765206236,5,7,8,2,1,4,nan,nan,nan,nan,nan,nan,nan,nan,nan,nan,nan,nan,0.0,nan,nan,nan,nan,nan,nan,nan,nan,nan,nan,nan,nan,nan,nan,nan,nan,nan,nan,834.2195120491087,962.9299089093693,nan,963.207795229042,nan,nan,nan,nan
1,89,1,1,1.0,1.0,0.25278630130924284,0,0.0,0.0,0.0,0.35153719711909603,0.1383812634253357,0.21315593369376035,0.4899184605444317,0.1383812634253357,0.26457401489218074,8,4,5,6,0,1,nan,nan,nan,nan,nan,nan,nan,nan,nan,nan,nan,nan,0.0,nan,nan,nan,nan,nan,nan,nan,nan,nan,nan,nan,nan,nan,nan,nan,nan,nan,nan,834.2195120491087,963.9550200463273,nan,964.2078063476365,nan,nan,nan,nan
1,90,0,0,1.0,0.0,0.3875790531747043,0,0.0,0.0,0.0,0.35041502784852957,0.13799030219746697,0.2124247256510626,0.4884053300459965,0.13799030219746697,0.3060838913855453,7,5,1,0,4,2,nan,nan,nan,nan,nan,nan,nan,nan,nan,nan,nan,nan,0.0,nan,nan,nan,nan,nan,nan,nan,nan,nan,nan,nan,nan,nan,nan,nan,nan,nan,nan,834.2195120491087,964.9801890577655,nan,965.3677681109402,nan,nan,nan,nan
1,91,1,1,1.0,1.0,0.6344433682970703,0,0.0,0.0,0.0,0.35083260116680115,0.13726878881736215,0.213563812349439,0.4881013899841633,0.13726878881736215,0.4249362409270058,6,7,3,1,8,5,nan,nan,nan,nan,nan,nan,nan,nan,nan,nan,nan,nan,0.0,nan,nan,nan,nan,nan,nan,nan,nan,nan,nan,nan,nan,nan,nan,nan,nan,nan,nan,834.2195120491087,966.0052779573016,nan,966.6397213255987,nan,nan,nan,nan
1,92,1,1,1.0,1.0,0.4172613979317248,0,0.0,0.0,0.0,0.35398383191269306,0.1397037921375193,0.21428003977517376,0.4936876240502124,0.1397037921375193,0.4797612731344998,4,5,7,8,2,6,nan,nan,nan,nan,nan,nan,nan,nan,nan,nan,nan,nan,0.0,nan,nan,nan,nan,nan,nan,nan,nan,nan,nan,nan,nan,nan,nan,nan,nan,nan,nan,834.2195120491087,967.0304338540882,nan,967.4476952520199,nan,nan,nan,nan
1,93,1,1,1.0,1.0,0.2875410499982536,0,0.0,0.0,0.0,0.3546791897810341,0.13909059061531104,0.21558859916572304,0.4937697803963451,0.13909059061531104,0.4464152720756829,3,8,1,2,4,5,nan,nan,nan,nan,nan,nan,nan,nan,nan,nan,nan,nan,0.0,nan,nan,nan,nan,nan,nan,nan,nan,nan,nan,nan,nan,nan,nan,nan,nan,nan,nan,834.2195120491087,968.0881387225818,nan,968.37567977258,nan,nan,nan,nan
1,94,0,0,0.0,1.0,0.3100002366118133,0,0.0,0.0,0.0,0.3539494273920908,0.1385076533404333,0.2154417740516575,0.4924570807325241,0.1385076533404333,0.33826756151393056,8,0,2,1,5,4,nan,nan,nan,nan,nan,nan,nan,nan,nan,nan,nan,nan,0.0,nan,nan,nan,nan,nan,nan,nan,nan,nan,nan,nan,nan,nan,nan,nan,nan,nan,nan,834.2195120491087,969.1056272836868,nan,969.4156275202986,nan,nan,nan,nan
1,95,1,1,1.0,1.0,0.46295323269441724,0,0.0,0.0,0.0,0.35347685544821683,0.13783552631814086,0.21564132913007597,0.4913123817663577,0.13783552631814086,0.35349817310149473,2,6,7,4,1,3,nan,nan,nan,nan,nan,nan,nan,nan,nan,nan,nan,nan,0.0,nan,nan,nan,nan,nan,nan,nan,nan,nan,nan,nan,nan,nan,nan,nan,nan,nan,nan,834.2195120491087,970.1606545432005,nan,970.6236077758949,nan,nan,nan,nan
1,96,1,1,1.0,1.0,0.4426747353281826,0,0.0,0.0,0.0,0.3546414977593466,0.13755967299669578,0.21708182476265084,0.4922011707560424,0.13755967299669578,0.4052094015448044,7,5,3,2,6,8,nan,nan,nan,nan,nan,nan,nan,nan,nan,nan,nan,nan,0.0,nan,nan,nan,nan,nan,nan,nan,nan,nan,nan,nan,nan,nan,nan,nan,nan,nan,nan,834.2195120491087,971.1809119435493,nan,971.6235866788775,nan,nan,nan,nan
1,97,1,1,1.0,1.0,0.2975427405908704,0,0.0,0.0,0.0,0.35556816341796593,0.13712839374392005,0.21843976967404588,0.492696557161886,0.13712839374392005,0.40105690287115675,3,1,7,0,2,5,nan,nan,nan,nan,nan,nan,nan,nan,nan,nan,nan,nan,0.0,nan,nan,nan,nan,nan,nan,nan,nan,nan,nan,nan,nan,nan,nan,nan,nan,nan,nan,834.2195120491087,972.2060039793141,nan,972.503546719905,nan,nan,nan,nan
1,98,1,1,1.0,1.0,0.36839816998690367,0,0.0,0.0,0.0,0.3549637319301837,0.13653946821517832,0.2184242637150054,0.49150320014536203,0.13653946821517832,0.3695385486353189,6,2,0,1,4,8,nan,nan,nan,nan,nan,nan,nan,nan,nan,nan,nan,nan,0.0,nan,nan,nan,nan,nan,nan,nan,nan,nan,nan,nan,nan,nan,nan,nan,nan,nan,nan,834.2195120491087,973.2311479023192,nan,973.5995460723061,nan,nan,nan,nan
1,99,1,1,1.0,1.0,0.29523860570043325,0,0.0,0.0,0.0,0.3551022312915932,0.1358406114210692,0.21926161987052398,0.4909428427126624,0.1358406114210692,0.32039317209273577,5,0,8,3,2,1,nan,nan,nan,nan,nan,nan,nan,nan,nan,nan,nan,nan,0.0,nan,nan,nan,nan,nan,nan,nan,nan,nan,nan,nan,nan,nan,nan,nan,nan,nan,nan,834.2195120491087,974.256233950844,nan,974.5514725565445,nan,nan,nan,nan
1,100,1,1,1.0,1.0,0.40609908709302545,0,0.0,0.0,0.0,0.3544913779692344,0.1352796137471095,0.2192117642221249,0.4897709917163439,0.1352796137471095,0.35657862092678744,3,5,0,8,7,6,nan,nan,nan,nan,nan,nan,nan,nan,nan,nan,nan,nan,0.0,nan,nan,nan,nan,nan,nan,nan,nan,nan,nan,nan,nan,nan,nan,nan,nan,nan,nan,834.2195120491087,975.2813533556182,nan,975.6874524427112,nan,nan,nan,nan
1,101,1,1,1.0,1.0,0.29295898880809546,0,0.0,0.0,0.0,0.35501266796038383,0.13469354272856307,0.22031912523182076,0.48970621068894693,0.13469354272856307,0.33143222720051807,2,4,7,0,8,1,nan,nan,nan,nan,nan,nan,nan,nan,nan,nan,nan,nan,0.0,nan,nan,nan,nan,nan,nan,nan,nan,nan,nan,nan,nan,nan,nan,nan,nan,nan,nan,834.2195120491087,976.3064679137897,nan,976.5994269025978,nan,nan,nan,nan
1,102,1,1,1.0,1.0,0.31579991709440947,0,0.0,0.0,0.0,0.3543921311688609,0.13416053247247212,0.2202315986963888,0.48855266364133304,0.13416053247247212,0.3382859976651768,0,8,4,6,7,5,nan,nan,nan,nan,nan,nan,nan,nan,nan,nan,nan,nan,0.0,nan,nan,nan,nan,nan,nan,nan,nan,nan,nan,nan,nan,nan,nan,nan,nan,nan,nan,834.2195120491087,977.3315796211828,nan,977.6473795382772,nan,nan,nan,nan
1,103,1,1,1.0,1.0,0.3226572987623513,0,0.0,0.0,0.0,0.35401003003941095,0.1335493923605953,0.22046063767881566,0.48755942240000627,0.1335493923605953,0.3104720682216187,5,6,0,3,4,1,nan,nan,nan,nan,nan,nan,nan,nan,nan,nan,nan,nan,0.0,nan,nan,nan,nan,nan,nan,nan,nan,nan,nan,nan,nan,nan,nan,nan,nan,nan,nan,834.2195120491087,978.3567124253605,nan,978.6793697241228,nan,nan,nan,nan
1,104,1,1,1.0,1.0,0.36947126616723835,0,0.0,0.0,0.0,0.3537026503210084,0.1329290248758428,0.2207736254451656,0.4866316751968512,0.1329290248758428,0.33597616067466635,0,3,7,8,2,4,nan,nan,nan,nan,nan,nan,nan,nan,nan,nan,nan,nan,0.0,nan,nan,nan,nan,nan,nan,nan,nan,nan,nan,nan,nan,nan,nan,nan,nan,nan,nan,834.2195120491087,979.3818723135628,nan,979.75134357973,nan,nan,nan,nan
1,105,1,1,1.0,1.0,0.4003142311703414,0,0.0,0.0,0.0,0.3538557436787388,0.1322912002712524,0.22156454340748638,0.4861469439499912,0.1322912002712524,0.364147598699977,5,2,4,0,1,7,nan,nan,nan,nan,nan,nan,nan,nan,nan,nan,nan,nan,0.0,nan,nan,nan,nan,nan,nan,nan,nan,nan,nan,nan,nan,nan,nan,nan,nan,nan,nan,834.2195120491087,980.4069905779324,nan,980.8073048091028,nan,nan,nan,nan
1,106,1,1,1.0,1.0,0.359202726976946,0,0.0,0.0,0.0,0.35430245990461956,0.13173168713876696,0.2225707727658526,0.48603414704338654,0.13173168713876696,0.3763294081048419,7,0,3,4,2,6,nan,nan,nan,nan,nan,nan,nan,nan,nan,nan,nan,nan,0.0,nan,nan,nan,nan,nan,nan,nan,nan,nan,nan,nan,nan,nan,nan,nan,nan,nan,nan,834.2195120491087,981.4320737756789,nan,981.7912765026558,nan,nan,nan,nan
1,107,1,1,1.0,1.0,0.2780533852055669,0,0.0,0.0,0.0,0.3543491291148322,0.1311037565534256,0.22324537256140659,0.4854528856682578,0.1311037565534256,0.3458567811176181,8,7,2,1,3,4,nan,nan,nan,nan,nan,nan,nan,nan,nan,nan,nan,nan,0.0,nan,nan,nan,nan,nan,nan,nan,nan,nan,nan,nan,nan,nan,nan,nan,nan,nan,nan,834.2195120491087,982.4571928952355,nan,982.7352462804411,nan,nan,nan,nan
1,108,1,1,1.0,1.0,0.4769399764481932,0,0.0,0.0,0.0,0.35362935794587685,0.1306921558694748,0.22293720207640205,0.48432151381535166,0.1306921558694748,0.37139869621023536,0,8,1,4,2,3,nan,nan,nan,nan,nan,nan,nan,nan,nan,nan,nan,nan,0.0,nan,nan,nan,nan,nan,nan,nan,nan,nan,nan,nan,nan,nan,nan,nan,nan,nan,nan,834.2195120491087,983.4822857861873,nan,983.9592257626355,nan,nan,nan,nan
1,109,1,1,1.0,1.0,0.355754507239908,0,0.0,0.0,0.0,0.3547817936328144,0.13062001676025448,0.22416177687255995,0.4854018103930689,0.13062001676025448,0.37024928963122267,7,5,0,2,8,1,nan,nan,nan,nan,nan,nan,nan,nan,nan,nan,nan,nan,0.0,nan,nan,nan,nan,nan,nan,nan,nan,nan,nan,nan,nan,nan,nan,nan,nan,nan,nan,834.2195120491087,984.5074339855928,nan,984.8631884928327,nan,nan,nan,nan
1,110,1,1,1.0,1.0,0.25989399617537856,0,0.0,0.0,0.0,0.3547908002402875,0.13001392150191182,0.22477687873837565,0.4848047217421993,0.13001392150191182,0.3641961599544932,5,4,7,3,6,0,nan,nan,nan,nan,nan,nan,nan,nan,nan,nan,nan,nan,0.0,nan,nan,nan,nan,nan,nan,nan,nan,nan,nan,nan,nan,nan,nan,nan,nan,nan,nan,834.2195120491087,985.5632435446605,nan,985.8231375408359,nan,nan,nan,nan
1,111,1,1,1.0,1.0,0.3124671606346965,0,0.0,0.0,0.0,0.353920187358958,0.12973203581591597,0.22418815154304206,0.483652223174874,0.12973203581591597,0.309371888016661,0,5,3,1,2,4,nan,nan,nan,nan,nan,nan,nan,nan,nan,nan,nan,nan,0.0,nan,nan,nan,nan,nan,nan,nan,nan,nan,nan,nan,nan,nan,nan,nan,nan,nan,nan,834.2195120491087,986.5826784472447,nan,986.8951456078794,nan,nan,nan,nan
1,112,1,1,1.0,1.0,0.35919588478282094,0,0.0,0.0,0.0,0.3535433416614648,0.12920091660864425,0.22434242505282054,0.48274425827010903,0.12920091660864425,0.31051901386429864,8,4,6,2,7,0,nan,nan,nan,nan,nan,nan,nan,nan,nan,nan,nan,nan,0.0,nan,nan,nan,nan,nan,nan,nan,nan,nan,nan,nan,nan,nan,nan,nan,nan,nan,nan,834.2195120491087,987.6079007710796,nan,987.9670966558624,nan,nan,nan,nan
1,113,1,1,1.0,1.0,0.2701499911490828,0,0.0,0.0,0.0,0.35359426547336886,0.12861872270541075,0.22497554276795811,0.4822129881787796,0.12861872270541075,0.3139376788555334,1,6,0,4,8,2,nan,nan,nan,nan,nan,nan,nan,nan,nan,nan,nan,nan,0.0,nan,nan,nan,nan,nan,nan,nan,nan,nan,nan,nan,nan,nan,nan,nan,nan,nan,nan,834.2195120491087,988.6329215331934,nan,988.9030715243425,nan,nan,nan,nan
1,114,0,0,1.0,0.0,0.21300789969973266,0,0.0,0.0,0.0,0.35284922730975915,0.12828361766719903,0.22456560964256012,0.4811328449769582,0.12828361766719903,0.2807845918772121,0,3,1,7,5,4,nan,nan,nan,nan,nan,nan,nan,nan,nan,nan,nan,nan,0.0,nan,nan,nan,nan,nan,nan,nan,nan,nan,nan,nan,nan,nan,nan,nan,nan,nan,nan,834.2195120491087,989.6580358061474,nan,989.8710437058471,nan,nan,nan,nan
1,115,1,1,1.0,1.0,0.3718381221406162,0,0.0,0.0,0.0,0.3516116934371041,0.1283844969498285,0.22322719648727557,0.4799961903869326,0.1283844969498285,0.2849986709964772,1,0,8,6,2,7,nan,nan,nan,nan,nan,nan,nan,nan,nan,nan,nan,nan,0.0,nan,nan,nan,nan,nan,nan,nan,nan,nan,nan,nan,nan,nan,nan,nan,nan,nan,nan,834.2195120491087,990.6831526451278,nan,991.0549907672685,nan,nan,nan,nan
1,116,1,1,1.0,1.0,0.3306966829113662,0,0.0,0.0,0.0,0.3517891182502928,0.12783408082750886,0.22395503742278394,0.47962319907780165,0.12783408082750886,0.30518090158390504,8,4,3,1,6,0,nan,nan,nan,nan,nan,nan,nan,nan,nan,nan,nan,nan,0.0,nan,nan,nan,nan,nan,nan,nan,nan,nan,nan,nan,nan,nan,nan,nan,nan,nan,nan,834.2195120491087,991.7082757561002,nan,992.0389724390116,nan,nan,nan,nan
1,117,1,1,1.0,1.0,0.2655779281631112,0,0.0,0.0,0.0,0.35160570576908473,0.12729213150340543,0.2243135742656793,0.47889783727249013,0.12729213150340543,0.3227042444050312,7,6,5,2,8,4,nan,nan,nan,nan,nan,nan,nan,nan,nan,nan,nan,nan,0.0,nan,nan,nan,nan,nan,nan,nan,nan,nan,nan,nan,nan,nan,nan,nan,nan,nan,nan,834.2195120491087,992.7333960160613,nan,992.9989739442244,nan,nan,nan,nan
1,118,1,1,1.0,1.0,0.38440594961866736,0,0.0,0.0,0.0,0.3508640869966194,0.12699154717027522,0.2238725398263442,0.47785563416689464,0.12699154717027522,0.3268935202310483,5,3,4,1,2,7,nan,nan,nan,nan,nan,nan,nan,nan,nan,nan,nan,nan,0.0,nan,nan,nan,nan,nan,nan,nan,nan,nan,nan,nan,nan,nan,nan,nan,nan,nan,nan,834.2195120491087,993.7585194122512,nan,994.1429253618699,nan,nan,nan,nan
1,119,1,1,1.0,1.0,0.30326373502612114,0,0.0,0.0,0.0,0.3511507695831327,0.12648537616202912,0.22466539342110356,0.4776361457451618,0.12648537616202912,0.3177492042692999,4,0,1,2,6,8,nan,nan,nan,nan,nan,nan,nan,nan,nan,nan,nan,nan,0.0,nan,nan,nan,nan,nan,nan,nan,nan,nan,nan,nan,nan,nan,nan,nan,nan,nan,nan,834.2195120491087,994.7836194306146,nan,995.0868831656408,nan,nan,nan,nan
1,120,0,0,1.0,0.0,0.3500939530786127,0,0.0,0.0,0.0,0.35074494725637834,0.12602475305838343,0.2247201941979949,0.47676970031476174,0.12602475305838343,0.34592121257446706,8,4,3,5,0,6,nan,nan,nan,nan,nan,nan,nan,nan,nan,nan,nan,nan,0.0,nan,nan,nan,nan,nan,nan,nan,nan,nan,nan,nan,nan,nan,nan,nan,nan,nan,nan,834.2195120491087,995.808757936582,nan,996.1588518896606,nan,nan,nan,nan
1,121,1,1,1.0,1.0,0.4449586283881217,0,0.0,0.0,0.0,0.35073947671706934,0.12549413423221398,0.22524534248485537,0.4762336109492833,0.12549413423221398,0.36610543883095187,0,3,1,6,8,7,nan,nan,nan,nan,nan,nan,nan,nan,nan,nan,nan,nan,0.0,nan,nan,nan,nan,nan,nan,nan,nan,nan,nan,nan,nan,nan,nan,nan,nan,nan,nan,834.2195120491087,996.8338673631661,nan,997.2788259915542,nan,nan,nan,nan
1,122,1,1,1.0,1.0,0.3317917315289378,0,0.0,0.0,0.0,0.3515246363143281,0.12526331668884855,0.22626131962547957,0.47678795300317667,0.12526331668884855,0.3756147709985574,3,6,7,8,4,2,nan,nan,nan,nan,nan,nan,nan,nan,nan,nan,nan,nan,0.0,nan,nan,nan,nan,nan,nan,nan,nan,nan,nan,nan,nan,nan,nan,nan,nan,nan,nan,834.2195120491087,997.8590010225307,nan,998.1907927540597,nan,nan,nan,nan
1,123,1,1,1.0,1.0,0.2826602295972407,0,0.0,0.0,0.0,0.3513615544565976,0.12475741718950668,0.22660413726709094,0.4761189716461043,0.12475741718950668,0.3531368631714334,6,5,2,3,0,1,nan,nan,nan,nan,nan,nan,nan,nan,nan,nan,nan,nan,0.0,nan,nan,nan,nan,nan,nan,nan,nan,nan,nan,nan,nan,nan,nan,nan,nan,nan,nan,834.2195120491087,998.8841170063242,nan,999.1667772359215,nan,nan,nan,nan
1,124,1,1,1.0,1.0,0.2174887324217707,0,0.0,0.0,0.0,0.35079842884299633,0.12439938244276057,0.22639904640023578,0.4751978112857569,0.12439938244276057,0.27731356451598305,2,8,0,6,5,4,nan,nan,nan,nan,nan,nan,nan,nan,nan,nan,nan,nan,0.0,nan,nan,nan,nan,nan,nan,nan,nan,nan,nan,nan,nan,nan,nan,nan,nan,nan,nan,834.2195120491087,999.909239832079,nan,1000.1267285645008,nan,nan,nan,nan
1,125,1,1,1.0,1.0,0.23225549492053688,0,0.0,0.0,0.0,0.3497146101729051,0.1244696771962004,0.22524493297670473,0.4741842873691055,0.1244696771962004,0.24413481897984943,4,5,1,7,8,6,nan,nan,nan,nan,nan,nan,nan,nan,nan,nan,nan,nan,0.0,nan,nan,nan,nan,nan,nan,nan,nan,nan,nan,nan,nan,nan,nan,nan,nan,nan,nan,834.2195120491087,1000.9344587349333,nan,1001.1667142298538,nan,nan,nan,nan
1,126,1,1,1.0,1.0,0.2231971826404333,1,1.0,0.0,1.0,0.3487673592434505,0.12441111437368006,0.2243562448697704,0.47317847361713056,0.12441111437368006,0.2243138033275803,7,4,8,3,5,1,1.0,1.0,1.0,1.0,1.0,1.0,0.0,0.0,0.0,0.0,0.0,0.0,0.0,8.0,3.0,5.0,2.0,0.0,7.0,2.0,4.0,3.0,1.0,5.0,6.0,2.603817645460367,4.492020913399756,3.604664091486484,1.5231130511965603,5.747647897806019,6.938924172427505,834.2195120491087,1001.9594803522341,1002.7678967455868,1002.1826775348745,1010.760483144084,1011.761912608752,1003.7846979435999,1010.7521560995374
1,127,1,1,1.0,1.0,0.260749279987067,0,0.0,0.0,0.0,0.34776279783062636,0.1244163742722318,0.22334642355839457,0.47217917210285815,0.1244163742722318,0.23873398584934571,4,1,6,5,2,0,nan,nan,nan,nan,nan,nan,nan,nan,nan,nan,nan,nan,0.0,nan,nan,nan,nan,nan,nan,nan,nan,nan,nan,nan,nan,nan,nan,nan,nan,nan,nan,834.2195120491087,1011.985649475595,nan,1012.246398755582,nan,nan,nan,nan
1,128,1,1,1.0,1.0,0.25160657963715494,0,0.0,0.0,0.0,0.3470722143556775,0.12416196972806919,0.22291024462760828,0.4712341840837467,0.12416196972806919,0.24518434742155173,0,8,5,1,6,4,nan,nan,nan,nan,nan,nan,nan,nan,nan,nan,nan,nan,0.0,nan,nan,nan,nan,nan,nan,nan,nan,nan,nan,nan,nan,nan,nan,nan,nan,nan,nan,834.2195120491087,1013.0107708759606,nan,1013.2623774555977,nan,nan,nan,nan
1,129,1,1,1.0,1.0,0.17039879318326712,0,0.0,0.0,0.0,0.346320516444508,0.12395968552379241,0.2223608309207156,0.47028020196830045,0.12395968552379241,0.227584884269163,4,6,1,0,7,5,nan,nan,nan,nan,nan,nan,nan,nan,nan,nan,nan,nan,0.0,nan,nan,nan,nan,nan,nan,nan,nan,nan,nan,nan,nan,nan,nan,nan,nan,nan,nan,834.2195120491087,1014.0359447337687,nan,1014.206343526952,nan,nan,nan,nan
1,130,1,1,nan,nan,nan,0,0.0,0.0,0.0,0.0,0.0,0.0,0.0,0.0,0.0,2,8,6,3,5,1,nan,nan,nan,nan,nan,nan,nan,nan,nan,nan,nan,nan,0.0,nan,nan,nan,nan,nan,nan,nan,nan,nan,nan,nan,nan,nan,nan,nan,nan,nan,nan,834.2195120491087,1015.0610062642954,nan,nan,nan,nan,nan,nan
1,131,1,1,nan,nan,nan,0,0.0,0.0,0.0,0.0,0.0,0.0,0.0,0.0,0.0,3,0,2,5,7,8,nan,nan,nan,nan,nan,nan,nan,nan,nan,nan,nan,nan,0.0,nan,nan,nan,nan,nan,nan,nan,nan,nan,nan,nan,nan,nan,nan,nan,nan,nan,nan,834.2195120491087,1016.0861293752678,nan,nan,nan,nan,nan,nan
1,132,1,1,1.0,1.0,0.031020293943583965,1,1.0,0.0,1.0,0.34494612798152957,0.12444216558284499,0.22050396239868458,0.46938829356437456,0.12444216558284499,0.031020293943583965,1,8,6,4,2,7,1.0,1.0,1.0,1.0,1.0,1.0,0.0,1.0,0.0,1.0,1.0,0.0,3.0,6.0,8.0,0.0,4.0,2.0,8.0,2.0,4.0,5.0,1.0,6.0,3.0,1.9166699689812958,4.123146635247394,4.947080445475876,0.9389341508504003,6.346594131086022,3.4596518366597593,834.2195120491087,1017.111243363237,1017.9197105034254,1017.1422636571806,1025.3205159527715,1026.3163076706696,1018.9364589590114,1025.3121891934425
1,133,1,1,1.0,1.0,0.2766122315078974,0,0.0,0.0,0.0,0.3425125943843362,0.12697966051513834,0.21553293386919783,0.46949225489947455,0.12697966051513834,0.15381626272574067,4,2,7,3,1,0,nan,nan,nan,nan,nan,nan,nan,nan,nan,nan,nan,nan,0.0,nan,nan,nan,nan,nan,nan,nan,nan,nan,nan,nan,nan,nan,nan,nan,nan,nan,nan,834.2195120491087,1026.5373777621426,nan,1026.8139899936505,nan,nan,nan,nan
1,134,1,1,1.0,1.0,0.451449093176052,0,0.0,0.0,0.0,0.3420056685160559,0.12662130277187858,0.21538436574417733,0.4686269712879345,0.12662130277187858,0.2530272062091778,7,0,3,8,6,4,nan,nan,nan,nan,nan,nan,nan,nan,nan,nan,nan,nan,0.0,nan,nan,nan,nan,nan,nan,nan,nan,nan,nan,nan,nan,nan,nan,nan,nan,nan,nan,834.2195120491087,1027.5625128471293,nan,1028.0139619403053,nan,nan,nan,nan
1,135,1,1,1.0,1.0,0.36230284627527,0,0.0,0.0,0.0,0.3428411145058269,0.12649625074144819,0.2163448637643787,0.4693373652472751,0.12649625074144819,0.36345472365307313,4,7,2,1,3,8,nan,nan,nan,nan,nan,nan,nan,nan,nan,nan,nan,nan,0.0,nan,nan,nan,nan,nan,nan,nan,nan,nan,nan,nan,nan,nan,nan,nan,nan,nan,nan,834.2195120491087,1028.5875991808716,nan,1028.949902027147,nan,nan,nan,nan
1,136,1,1,1.0,1.0,0.2651539924554527,0,0.0,0.0,0.0,0.3429885518677166,0.12602748557185164,0.21696106629586495,0.4690160374395682,0.12602748557185164,0.35963531063559157,5,6,1,3,0,4,nan,nan,nan,nan,nan,nan,nan,nan,nan,nan,nan,nan,0.0,nan,nan,nan,nan,nan,nan,nan,nan,nan,nan,nan,nan,nan,nan,nan,nan,nan,nan,834.2195120491087,1029.6127163048368,nan,1029.8778702972922,nan,nan,nan,nan
1,137,1,1,1.0,1.0,0.30403035460039973,0,0.0,0.0,0.0,0.34240332961649655,0.12573271112126527,0.21667061849523128,0.4681360407377618,0.12573271112126527,0.31049573111037415,6,4,0,2,7,8,nan,nan,nan,nan,nan,nan,nan,nan,nan,nan,nan,nan,0.0,nan,nan,nan,nan,nan,nan,nan,nan,nan,nan,nan,nan,nan,nan,nan,nan,nan,nan,834.2195120491087,1030.637834854424,nan,1030.9418652090244,nan,nan,nan,nan
1,138,1,1,1.0,1.0,0.22290382022038102,0,0.0,0.0,0.0,0.34211696413130177,0.12530620836131454,0.21681075576998723,0.46742317249261633,0.12530620836131454,0.2640293890920778,5,6,7,8,3,1,nan,nan,nan,nan,nan,nan,nan,nan,nan,nan,nan,nan,0.0,nan,nan,nan,nan,nan,nan,nan,nan,nan,nan,nan,nan,nan,nan,nan,nan,nan,nan,834.2195120491087,1031.6629505527671,nan,1031.8858543729875,nan,nan,nan,nan
1,139,1,1,1.0,1.0,0.2857098870445043,0,0.0,0.0,0.0,0.34123390380603574,0.12525905144213131,0.21597485236390443,0.46649295524816703,0.12525905144213131,0.270881353955095,3,1,0,7,6,4,nan,nan,nan,nan,nan,nan,nan,nan,nan,nan,nan,nan,0.0,nan,nan,nan,nan,nan,nan,nan,nan,nan,nan,nan,nan,nan,nan,nan,nan,nan,nan,834.2195120491087,1032.6880742341746,nan,1032.973784121219,nan,nan,nan,nan
1,140,1,1,1.0,1.0,0.47654055897146463,0,0.0,0.0,0.0,0.3408256389769068,0.1248878112323321,0.2159378277445747,0.46571345020923893,0.1248878112323321,0.32838475541211665,6,0,2,3,7,8,nan,nan,nan,nan,nan,nan,nan,nan,nan,nan,nan,nan,0.0,nan,nan,nan,nan,nan,nan,nan,nan,nan,nan,nan,nan,nan,nan,nan,nan,nan,nan,834.2195120491087,1033.713247236563,nan,1034.1897877955344,nan,nan,nan,nan
1,141,0,0,0.0,1.0,0.467403560411185,0,0.0,0.0,0.0,0.3418162588308817,0.12496631345367393,0.21684994537720775,0.4667825722845556,0.12496631345367393,0.40988466880905133,4,7,6,2,3,0,nan,nan,nan,nan,nan,nan,nan,nan,nan,nan,nan,nan,0.0,nan,nan,nan,nan,nan,nan,nan,nan,nan,nan,nan,nan,nan,nan,nan,nan,nan,nan,834.2195120491087,1034.7383540971205,nan,1035.2057576575316,nan,nan,nan,nan
1,142,1,1,1.0,1.0,0.32970455358736217,0,0.0,0.0,0.0,0.34272631174088386,0.12496751086427693,0.21775880087660693,0.4676938226051608,0.12496751086427693,0.42454955765667063,2,3,0,5,6,8,nan,nan,nan,nan,nan,nan,nan,nan,nan,nan,nan,nan,0.0,nan,nan,nan,nan,nan,nan,nan,nan,nan,nan,nan,nan,nan,nan,nan,nan,nan,nan,834.2195120491087,1035.788015019847,nan,1036.1177195734344,nan,nan,nan,nan
1,143,1,1,1.0,1.0,0.4960943458136171,0,0.0,0.0,0.0,0.3426326300275492,0.12452203921445099,0.2181105908130982,0.46715466924200016,0.12452203921445099,0.43106748660405475,3,2,7,6,8,1,nan,nan,nan,nan,nan,nan,nan,nan,nan,nan,nan,nan,0.0,nan,nan,nan,nan,nan,nan,nan,nan,nan,nan,nan,nan,nan,nan,nan,nan,nan,nan,834.2195120491087,1036.8135780319571,nan,1037.3096723777708,nan,nan,nan,nan
1,144,1,1,1.0,1.0,0.3189020319841802,0,0.0,0.0,0.0,0.3437287851403068,0.12474774252566784,0.21898104261463897,0.46847652766597464,0.12474774252566784,0.3815669771283865,2,1,6,0,4,5,nan,nan,nan,nan,nan,nan,nan,nan,nan,nan,nan,nan,0.0,nan,nan,nan,nan,nan,nan,nan,nan,nan,nan,nan,nan,nan,nan,nan,nan,nan,nan,834.2195120491087,1037.838735924568,nan,1038.1576379565522,nan,nan,nan,nan
1,145,1,1,1.0,1.0,0.24585622060112655,0,0.0,0.0,0.0,0.3435527088767882,0.12432204500898272,0.21923066386780546,0.46787475388577093,0.12432204500898272,0.3536175327996413,0,4,7,6,5,8,nan,nan,nan,nan,nan,nan,nan,nan,nan,nan,nan,nan,0.0,nan,nan,nan,nan,nan,nan,nan,nan,nan,nan,nan,nan,nan,nan,nan,nan,nan,nan,834.2195120491087,1038.8637923232745,nan,1039.1096485438757,nan,nan,nan,nan
1,146,1,1,1.0,1.0,0.2686381342355162,0,0.0,0.0,0.0,0.34286470543822717,0.12415260037967235,0.21871210505855482,0.4670173058178995,0.12415260037967235,0.277798795606941,4,7,0,5,2,3,nan,nan,nan,nan,nan,nan,nan,nan,nan,nan,nan,nan,0.0,nan,nan,nan,nan,nan,nan,nan,nan,nan,nan,nan,nan,nan,nan,nan,nan,nan,nan,834.2195120491087,1039.888958198484,nan,1040.1575963327195,nan,nan,nan,nan
1,147,0,0,1.0,0.0,0.33150435611605644,0,0.0,0.0,0.0,0.3423456385067397,0.12387226493902913,0.21847337356771057,0.46621790344576886,0.12387226493902913,0.2819995703175664,8,2,5,1,6,0,nan,nan,nan,nan,nan,nan,nan,nan,nan,nan,nan,nan,0.0,nan,nan,nan,nan,nan,nan,nan,nan,nan,nan,nan,nan,nan,nan,nan,nan,nan,nan,834.2195120491087,1040.914076177869,nan,1041.245580533985,nan,nan,nan,nan
1,148,1,1,1.0,1.0,0.31435819366015494,0,0.0,0.0,0.0,0.3422703518234711,0.12344468661837754,0.21882566520509356,0.46571503844184864,0.12344468661837754,0.30483356133724254,4,3,2,0,5,7,nan,nan,nan,nan,nan,nan,nan,nan,nan,nan,nan,nan,0.0,nan,nan,nan,nan,nan,nan,nan,nan,nan,nan,nan,nan,nan,nan,nan,nan,nan,nan,834.2195120491087,1041.9391947272234,nan,1042.2535529208835,nan,nan,nan,nan
1,149,0,0,0.0,1.0,0.49720650003291667,0,0.0,0.0,0.0,0.3420778541809654,0.12303996462515886,0.21903788955580655,0.4651178188061243,0.12303996462515886,0.38102301660304266,5,0,8,4,1,3,nan,nan,nan,nan,nan,nan,nan,nan,nan,nan,nan,nan,0.0,nan,nan,nan,nan,nan,nan,nan,nan,nan,nan,nan,nan,nan,nan,nan,nan,nan,nan,834.2195120491087,1042.964306149399,nan,1043.4615126494318,nan,nan,nan,nan
1,150,1,1,1.0,1.0,0.3680762981530279,0,0.0,0.0,0.0,0.34314037915255413,0.12328358106173215,0.21985679809082198,0.4664239602142863,0.12328358106173215,0.39321366394869983,7,3,2,0,4,6,nan,nan,nan,nan,nan,nan,nan,nan,nan,nan,nan,nan,0.0,nan,nan,nan,nan,nan,nan,nan,nan,nan,nan,nan,nan,nan,nan,nan,nan,nan,nan,834.2195120491087,1043.9893984701484,nan,1044.3574747683015,nan,nan,nan,nan
1,151,1,1,1.0,1.0,0.4789074147120118,0,0.0,0.0,0.0,0.3433100112545982,0.12288062922232974,0.22042938203226847,0.46619064047692793,0.12288062922232974,0.4480634042993188,3,6,5,2,8,0,nan,nan,nan,nan,nan,nan,nan,nan,nan,nan,nan,nan,0.0,nan,nan,nan,nan,nan,nan,nan,nan,nan,nan,nan,nan,nan,nan,nan,nan,nan,nan,834.2195120491087,1045.014527568128,nan,1045.49343498284,nan,nan,nan,nan
1,152,1,1,1.0,1.0,0.2937914652284235,0,0.0,0.0,0.0,0.34422620992660774,0.12296755313245052,0.22125865679415724,0.46719376305905824,0.12296755313245052,0.3802583926978211,0,1,8,3,5,6,nan,nan,nan,nan,nan,nan,nan,nan,nan,nan,nan,nan,0.0,nan,nan,nan,nan,nan,nan,nan,nan,nan,nan,nan,nan,nan,nan,nan,nan,nan,nan,834.2195120491087,1046.0396367094945,nan,1046.333428174723,nan,nan,nan,nan
1,153,1,1,1.0,1.0,0.23659834172576666,0,0.0,0.0,0.0,0.34388772170715687,0.12262337773123577,0.2212643439759211,0.46651109943839264,0.12262337773123577,0.3364324072220673,8,4,7,5,0,3,nan,nan,nan,nan,nan,nan,nan,nan,nan,nan,nan,nan,0.0,nan,nan,nan,nan,nan,nan,nan,nan,nan,nan,nan,nan,nan,nan,nan,nan,nan,nan,834.2195120491087,1047.0647877599113,nan,1047.301386101637,nan,nan,nan,nan
1,154,1,1,1.0,1.0,0.27545474749058485,0,0.0,0.0,0.0,0.34317245917394756,0.12252541758480048,0.22064704158914708,0.4656978767587481,0.12252541758480048,0.26861485148159164,2,0,1,7,8,6,nan,nan,nan,nan,nan,nan,nan,nan,nan,nan,nan,nan,0.0,nan,nan,nan,nan,nan,nan,nan,nan,nan,nan,nan,nan,nan,nan,nan,nan,nan,nan,834.2195120491087,1048.0898809358478,nan,1048.3653356833383,nan,nan,nan,nan
1,155,1,1,1.0,1.0,0.22630813554860651,0,0.0,0.0,0.0,0.34272399750717036,0.12224248545620922,0.22048151205096114,0.4649664829633796,0.12224248545620922,0.24612040825498602,7,8,6,4,3,5,nan,nan,nan,nan,nan,nan,nan,nan,nan,nan,nan,nan,0.0,nan,nan,nan,nan,nan,nan,nan,nan,nan,nan,nan,nan,nan,nan,nan,nan,nan,nan,834.2195120491087,1049.1150376880541,nan,1049.3413458236028,nan,nan,nan,nan
1,156,1,1,1.0,1.0,0.2571240165270865,0,0.0,0.0,0.0,0.34195810367849555,0.12220266017951927,0.2197554434989763,0.4641607638580148,0.12220266017951927,0.25296229985542595,3,1,4,0,6,7,nan,nan,nan,nan,nan,nan,nan,nan,nan,nan,nan,nan,0.0,nan,nan,nan,nan,nan,nan,nan,nan,nan,nan,nan,nan,nan,nan,nan,nan,nan,nan,834.2195120491087,1050.140158803435,nan,1050.3972828199621,nan,nan,nan,nan
1,157,1,1,1.0,1.0,0.20793093414977193,0,0.0,0.0,0.0,0.3414036325206432,0.12199432880424273,0.2194093037164005,0.4633979613248859,0.12199432880424273,0.230454362075155,2,6,1,7,5,8,nan,nan,nan,nan,nan,nan,nan,nan,nan,nan,nan,nan,0.0,nan,nan,nan,nan,nan,nan,nan,nan,nan,nan,nan,nan,nan,nan,nan,nan,nan,nan,834.2195120491087,1051.1653206872288,nan,1051.3732516213786,nan,nan,nan,nan
1,158,1,1,1.0,1.0,0.262871524784714,0,0.0,0.0,0.0,0.34053692668706614,0.12206926837812121,0.21846765830894493,0.46260619506518735,0.12206926837812121,0.2426421584871908,6,2,0,5,7,4,nan,nan,nan,nan,nan,nan,nan,nan,nan,nan,nan,nan,0.0,nan,nan,nan,nan,nan,nan,nan,nan,nan,nan,nan,nan,nan,nan,nan,nan,nan,nan,834.2195120491087,1052.1903605505358,nan,1052.4532320753206,nan,nan,nan,nan
1,159,1,1,1.0,1.0,0.2937977372203022,0,0.0,0.0,0.0,0.3400358595780187,0.12183364031861288,0.2182022192594058,0.46186949989663156,0.12183364031861288,0.25486673205159605,4,7,3,6,5,1,nan,nan,nan,nan,nan,nan,nan,nan,nan,nan,nan,nan,0.0,nan,nan,nan,nan,nan,nan,nan,nan,nan,nan,nan,nan,nan,nan,nan,nan,nan,nan,834.2195120491087,1053.215481380932,nan,1053.5092791181523,nan,nan,nan,nan
1,160,1,1,1.0,1.0,0.26860278262756765,0,0.0,0.0,0.0,0.33973946135777694,0.1214985708901177,0.21824089046765924,0.4612380322478946,0.1214985708901177,0.27509068154419464,5,0,7,8,3,4,nan,nan,nan,nan,nan,nan,nan,nan,nan,nan,nan,nan,0.0,nan,nan,nan,nan,nan,nan,nan,nan,nan,nan,nan,nan,nan,nan,nan,nan,nan,nan,834.2195120491087,1054.240587956272,nan,1054.5091907388996,nan,nan,nan,nan
1,161,1,1,1.0,1.0,0.22739662672393024,0,0.0,0.0,0.0,0.3392863614932533,0.12124316306582712,0.2180431984274262,0.4605295245590804,0.12124316306582712,0.26326571552393335,8,3,4,1,7,5,nan,nan,nan,nan,nan,nan,nan,nan,nan,nan,nan,nan,0.0,nan,nan,nan,nan,nan,nan,nan,nan,nan,nan,nan,nan,nan,nan,nan,nan,nan,nan,834.2195120491087,1055.265750410501,nan,1055.4931470372248,nan,nan,nan,nan
1,162,1,1,1.0,1.0,0.14201790560036898,1,1.0,0.0,1.0,0.33857819861496646,0.12118416514275065,0.2173940334722158,0.4597623637577171,0.12118416514275065,0.21267243831728896,2,8,0,6,3,4,1.0,1.0,1.0,1.0,1.0,1.0,1.0,0.0,1.0,0.0,0.0,0.0,2.0,2.0,7.0,0.0,1.0,2.0,3.0,2.0,3.0,1.0,4.0,5.0,6.0,2.6300580424722284,4.038630325347185,1.303002588218078,5.982017939910293,7.638329208362848,9.03737220261246,834.2195120491087,1056.3191075853538,1057.1242924307007,1056.4611254909541,1067.2087545725517,1068.2167292402592,1058.1327164075337,1067.2004232516047
1,163,1,1,1.0,1.0,0.29048436717130244,0,0.0,0.0,0.0,0.337341970357013,0.12179780266356471,0.2155441676934483,0.45913977302057773,0.12179780266356471,0.21996629983186722,6,5,2,1,7,0,nan,nan,nan,nan,nan,nan,nan,nan,nan,nan,nan,nan,0.0,nan,nan,nan,nan,nan,nan,nan,nan,nan,nan,nan,nan,nan,nan,nan,nan,nan,nan,834.2195120491087,1068.442299550632,nan,1068.7327839178033,nan,nan,nan,nan
1,164,1,1,1.0,1.0,0.33730603219009936,0,0.0,0.0,0.0,0.33704911033710233,0.12147273266333423,0.21557637767376808,0.4585218430004366,0.12147273266333423,0.25660276832059026,7,3,1,4,8,2,nan,nan,nan,nan,nan,nan,nan,nan,nan,nan,nan,nan,0.0,nan,nan,nan,nan,nan,nan,nan,nan,nan,nan,nan,nan,nan,nan,nan,nan,nan,nan,834.2195120491087,1069.46743748663,nan,1069.80474351882,nan,nan,nan,nan
1,165,1,1,1.0,1.0,0.247175638563931,0,0.0,0.0,0.0,0.33705070612500915,0.12109490222460129,0.21595580390040786,0.45814560834961043,0.12109490222460129,0.29165534597511095,2,4,8,7,0,3,nan,nan,nan,nan,nan,nan,nan,nan,nan,nan,nan,nan,0.0,nan,nan,nan,nan,nan,nan,nan,nan,nan,nan,nan,nan,nan,nan,nan,nan,nan,nan,834.2195120491087,1070.5175152176525,nan,1070.7646908562165,nan,nan,nan,nan
1,166,0,0,1.0,0.0,0.2060416117310524,0,0.0,0.0,0.0,0.33649592175734816,0.12092564027240321,0.21557028148494495,0.45742156202975137,0.12092564027240321,0.2635077608283609,0,7,2,8,1,5,nan,nan,nan,nan,nan,nan,nan,nan,nan,nan,nan,nan,0.0,nan,nan,nan,nan,nan,nan,nan,nan,nan,nan,nan,nan,nan,nan,nan,nan,nan,nan,834.2195120491087,1071.5426260696258,nan,1071.748667681357,nan,nan,nan,nan
1,167,1,1,1.0,1.0,0.2515318850055337,0,0.0,0.0,0.0,0.33569558856700277,0.12098373913673457,0.2147118494302682,0.4566793277037373,0.12098373913673457,0.23491637843350568,2,1,5,4,6,3,nan,nan,nan,nan,nan,nan,nan,nan,nan,nan,nan,nan,0.0,nan,nan,nan,nan,nan,nan,nan,nan,nan,nan,nan,nan,nan,nan,nan,nan,nan,nan,834.2195120491087,1072.601116658654,nan,1072.8526485436596,nan,nan,nan,nan
1,168,1,1,1.0,1.0,0.29838491044938564,0,0.0,0.0,0.0,0.33518239525260357,0.1207921504939067,0.2143902447586969,0.45597454574651025,0.1207921504939067,0.25198613572865725,7,8,3,5,2,1,nan,nan,nan,nan,nan,nan,nan,nan,nan,nan,nan,nan,0.0,nan,nan,nan,nan,nan,nan,nan,nan,nan,nan,nan,nan,nan,nan,nan,nan,nan,nan,834.2195120491087,1073.6262397696264,nan,1073.9246246800758,nan,nan,nan,nan
1,169,1,1,1.0,1.0,0.22528692637570202,0,0.0,0.0,0.0,0.33495938019319016,0.12045941859924321,0.21449996159394696,0.45541879879243335,0.12045941859924321,0.25840124061020714,4,0,8,6,1,2,nan,nan,nan,nan,nan,nan,nan,nan,nan,nan,nan,nan,0.0,nan,nan,nan,nan,nan,nan,nan,nan,nan,nan,nan,nan,nan,nan,nan,nan,nan,nan,834.2195120491087,1074.65134491981,nan,1074.8766318461858,nan,nan,nan,nan
1,170,1,1,1.0,1.0,0.27209291118197143,0,0.0,0.0,0.0,0.3342987027605547,0.12039551765213148,0.2139031851084232,0.45469422041268615,0.12039551765213148,0.265254916002353,8,2,7,5,0,3,nan,nan,nan,nan,nan,nan,nan,nan,nan,nan,nan,nan,0.0,nan,nan,nan,nan,nan,nan,nan,nan,nan,nan,nan,nan,nan,nan,nan,nan,nan,nan,834.2195120491087,1075.6764771537855,nan,1075.9485700649675,nan,nan,nan,nan
1,171,1,1,1.0,1.0,0.2469318825751543,0,0.0,0.0,0.0,0.33392621299062303,0.12013041268906746,0.21379580030155557,0.4540566256796905,0.12013041268906746,0.2481039067109426,3,7,6,1,2,5,nan,nan,nan,nan,nan,nan,nan,nan,nan,nan,nan,nan,0.0,nan,nan,nan,nan,nan,nan,nan,nan,nan,nan,nan,nan,nan,nan,nan,nan,nan,nan,834.2195120491087,1076.7015959883574,nan,1076.9485278709326,nan,nan,nan,nan
1,172,1,1,1.0,1.0,0.22182017541490495,0,0.0,0.0,0.0,0.33340838959529284,0.11995913854532456,0.21344925104996829,0.4533675281406174,0.11995913854532456,0.24694832305734357,4,2,0,3,5,8,nan,nan,nan,nan,nan,nan,nan,nan,nan,nan,nan,nan,0.0,nan,nan,nan,nan,nan,nan,nan,nan,nan,nan,nan,nan,nan,nan,nan,nan,nan,nan,834.2195120491087,1077.7266749097034,nan,1077.9484950851183,nan,nan,nan,nan
1,173,1,1,1.0,1.0,0.2126569482497871,0,0.0,0.0,0.0,0.33274810430428464,0.119909507204283,0.21283859710000164,0.45265761150856765,0.119909507204283,0.22713633541328213,0,5,7,6,8,1,nan,nan,nan,nan,nan,nan,nan,nan,nan,nan,nan,nan,0.0,nan,nan,nan,nan,nan,nan,nan,nan,nan,nan,nan,nan,nan,nan,nan,nan,nan,nan,834.2195120491087,1078.7518373636995,nan,1078.9644943119492,nan,nan,nan,nan
1,174,1,1,1.0,1.0,0.16349009447731078,1,1.0,0.0,1.0,0.3320416857392582,0.11990849568287182,0.21213319005638637,0.45195018142213,0.11990849568287182,0.19932240604733428,6,4,3,0,1,7,1.0,1.0,1.0,1.0,1.0,1.0,0.0,0.0,0.0,0.0,0.0,0.0,0.0,8.0,5.0,0.0,7.0,4.0,3.0,3.0,2.0,1.0,6.0,5.0,4.0,3.887717751786113,2.6165539640933275,1.5520361887756735,69.05369814811274,5.823336536996067,4.728162248618901,834.2195120491087,1079.7769758698996,1080.5853375250008,1079.940465964377,1150.6935309458058,1151.6899932061788,1081.602142429212,1150.6852033308242
1,175,1,1,1.0,1.0,0.4679894298315048,0,0.0,0.0,0.0,0.3310560039190129,0.12024613033020924,0.21080987358880365,0.45130213424922216,0.12024613033020924,0.2813788241862009,0,3,2,6,8,1,nan,nan,nan,nan,nan,nan,nan,nan,nan,nan,nan,nan,0.0,nan,nan,nan,nan,nan,nan,nan,nan,nan,nan,nan,nan,nan,nan,nan,nan,nan,nan,834.2195120491087,1151.910388193326,nan,1152.3783776231576,nan,nan,nan,nan
1,176,1,1,1.0,1.0,0.29747830936685205,0,0.0,0.0,0.0,0.33185212848827156,0.12034720349750075,0.2115049249907708,0.45219933198577233,0.12034720349750075,0.30965261122522253,2,8,7,5,0,3,nan,nan,nan,nan,nan,nan,nan,nan,nan,nan,nan,nan,0.0,nan,nan,nan,nan,nan,nan,nan,nan,nan,nan,nan,nan,nan,nan,nan,nan,nan,nan,834.2195120491087,1152.9688593961764,nan,1153.2663377055433,nan,nan,nan,nan
1,177,1,1,1.0,1.0,0.23236098000779748,0,0.0,0.0,0.0,0.331653435892194,0.12002716514875093,0.21162627074344303,0.45168060104094493,0.12002716514875093,0.33260957306871813,7,2,5,8,3,1,nan,nan,nan,nan,nan,nan,nan,nan,nan,nan,nan,nan,0.0,nan,nan,nan,nan,nan,nan,nan,nan,nan,nan,nan,nan,nan,nan,nan,nan,nan,nan,834.2195120491087,1153.9939491511323,nan,1154.22631013114,nan,nan,nan,nan
1,178,1,1,1.0,1.0,0.055153271183371544,1,1.0,0.0,1.0,0.33108278959400783,0.11991688586156136,0.21116590373244648,0.4509996754555692,0.11991688586156136,0.19499752018600702,0,5,1,3,8,2,1.0,1.0,1.0,1.0,1.0,1.0,1.0,0.0,0.0,0.0,0.0,0.0,1.0,0.0,8.0,5.0,2.0,1.0,4.0,1.0,3.0,2.0,4.0,5.0,6.0,1.7868697945959866,5.883126872591674,4.098762774607167,7.307910207659006,8.683205102570355,9.818659844109789,834.2195120491087,1155.0191030523274,1155.8275140288752,1155.0742563235108,1166.712073501898,1167.710753513733,1156.8526094856206,1166.7037424659356
1,179,1,1,1.0,1.0,0.37695528590120375,0,0.0,0.0,0.0,0.3295060494888042,0.1213691508358171,0.20813689865298707,0.4508752003246213,0.1213691508358171,0.22148984569745758,3,7,8,6,4,5,nan,nan,nan,nan,nan,nan,nan,nan,nan,nan,nan,nan,0.0,nan,nan,nan,nan,nan,nan,nan,nan,nan,nan,nan,nan,nan,nan,nan,nan,nan,nan,834.2195120491087,1167.9289167800453,nan,1168.3058720659465,nan,nan,nan,nan
1,180,0,0,1.0,0.0,0.3601509518921375,0,0.0,0.0,0.0,0.32977564742296556,0.12107639923206187,0.20869924819090369,0.4508520466550274,0.12107639923206187,0.2640865029922376,2,8,0,5,7,3,nan,nan,nan,nan,nan,nan,nan,nan,nan,nan,nan,nan,0.0,nan,nan,nan,nan,nan,nan,nan,nan,nan,nan,nan,nan,nan,nan,nan,nan,nan,nan,834.2195120491087,1168.9457151270472,nan,1169.3058660789393,nan,nan,nan,nan
1,181,1,1,1.0,1.0,0.37490688101388514,0,0.0,0.0,0.0,0.32994725931262187,0.120755355000148,0.20919190431247386,0.45070261431276987,0.120755355000148,0.3706710396024088,1,3,4,7,0,2,nan,nan,nan,nan,nan,nan,nan,nan,nan,nan,nan,nan,0.0,nan,nan,nan,nan,nan,nan,nan,nan,nan,nan,nan,nan,nan,nan,nan,nan,nan,nan,834.2195120491087,1169.9709123626817,nan,1170.3458192436956,nan,nan,nan,nan
1,182,1,1,1.0,1.0,0.4618949615396559,0,0.0,0.0,0.0,0.330199841457011,0.12046255610416043,0.20973728535285055,0.45066239756117144,0.12046255610416043,0.3989842648152262,2,7,1,3,6,5,nan,nan,nan,nan,nan,nan,nan,nan,nan,nan,nan,nan,0.0,nan,nan,nan,nan,nan,nan,nan,nan,nan,nan,nan,nan,nan,nan,nan,nan,nan,nan,834.2195120491087,1170.9959345501848,nan,1171.4578295117244,nan,nan,nan,nan
1,183,1,1,1.0,1.0,0.36470448365435004,0,0.0,0.0,0.0,0.330935568384847,0.12052597008744019,0.2104095982974068,0.4514615384722872,0.12052597008744019,0.4005021087359637,1,0,3,6,8,2,nan,nan,nan,nan,nan,nan,nan,nan,nan,nan,nan,nan,0.0,nan,nan,nan,nan,nan,nan,nan,nan,nan,nan,nan,nan,nan,nan,nan,nan,nan,nan,834.2195120491087,1172.0210978596006,nan,1172.385802343255,nan,nan,nan,nan
1,184,0,0,1.0,0.0,0.2995894351042807,0,0.0,0.0,0.0,0.33112317346967757,0.12021691503153978,0.2109062584381378,0.4513400885012173,0.12021691503153978,0.3753962934327622,7,5,2,8,6,4,nan,nan,nan,nan,nan,nan,nan,nan,nan,nan,nan,nan,0.0,nan,nan,nan,nan,nan,nan,nan,nan,nan,nan,nan,nan,nan,nan,nan,nan,nan,nan,834.2195120491087,1173.0461876145564,nan,1173.3457770496607,nan,nan,nan,nan
1,185,1,1,1.0,1.0,0.38641102029941976,0,0.0,0.0,0.0,0.33094895392069745,0.11990714827639497,0.21104180564430247,0.45085610219709243,0.11990714827639497,0.35023497968601686,3,0,5,4,8,6,nan,nan,nan,nan,nan,nan,nan,nan,nan,nan,nan,nan,0.0,nan,nan,nan,nan,nan,nan,nan,nan,nan,nan,nan,nan,nan,nan,nan,nan,nan,nan,834.2195120491087,1174.0713292567525,nan,1174.457740277052,nan,nan,nan,nan
1,186,1,1,1.0,1.0,0.2996806656010449,0,0.0,0.0,0.0,0.331253690549152,0.11964754147838517,0.2116061490707668,0.4509012320275372,0.11964754147838517,0.3285603736682485,4,6,1,2,5,0,nan,nan,nan,nan,nan,nan,nan,nan,nan,nan,nan,nan,0.0,nan,nan,nan,nan,nan,nan,nan,nan,nan,nan,nan,nan,nan,nan,nan,nan,nan,nan,834.2195120491087,1175.1260192489717,nan,1175.4256999145728,nan,nan,nan,nan
1,187,1,1,1.0,1.0,0.2871276626829058,0,0.0,0.0,0.0,0.33108116035817875,0.11934288731397781,0.21173827304420095,0.45042404767215655,0.11934288731397781,0.32440644952779013,2,8,0,7,4,6,nan,nan,nan,nan,nan,nan,nan,nan,nan,nan,nan,nan,0.0,nan,nan,nan,nan,nan,nan,nan,nan,nan,nan,nan,nan,nan,nan,nan,nan,nan,nan,834.2195120491087,1176.1465554721653,nan,1176.4336831348483,nan,nan,nan,nan
1,188,1,1,1.0,1.0,0.33393820910714567,0,0.0,0.0,0.0,0.3308422826534218,0.1190620052230547,0.2117802774303671,0.4499042878764765,0.1190620052230547,0.3069155124636988,7,6,2,0,1,8,nan,nan,nan,nan,nan,nan,nan,nan,nan,nan,nan,nan,0.0,nan,nan,nan,nan,nan,nan,nan,nan,nan,nan,nan,nan,nan,nan,nan,nan,nan,nan,834.2195120491087,1177.1717133647762,nan,1177.5056515738834,nan,nan,nan,nan
1,189,0,0,0.0,1.0,0.48480516765266657,0,0.0,0.0,0.0,0.33085901739100954,0.11873999697486386,0.21211902041614566,0.4495990143658734,0.11873999697486386,0.3686236798142393,3,1,4,6,2,0,nan,nan,nan,nan,nan,nan,nan,nan,nan,nan,nan,nan,0.0,nan,nan,nan,nan,nan,nan,nan,nan,nan,nan,nan,nan,nan,nan,nan,nan,nan,nan,834.2195120491087,1178.1968056855258,nan,1178.6816108531784,nan,nan,nan,nan
1,190,1,1,1.0,1.0,0.5396468304097652,1,0.0,1.0,1.0,0.33168668486553454,0.11895426007307876,0.2127324247924558,0.4506409449386133,0.11895426007307876,0.4527967357231925,0,6,2,3,8,1,1.0,1.0,1.0,1.0,1.0,1.0,0.0,1.0,1.0,0.0,0.0,0.0,2.0,3.0,6.0,2.0,8.0,4.0,0.0,4.0,2.0,1.0,3.0,5.0,6.0,5.232695681042969,2.897950654150918,1.4724326299037784,4.225142383482307,6.536258195294067,7.4954634313471615,834.2195120491087,1179.2219399150927,1180.0303372070193,1179.7615867455024,1188.5813034356106,1189.581336791627,1181.0471235802397,1188.5729738252703
1,191,1,1,1.0,1.0,0.2508180078584701,0,0.0,0.0,0.0,0.3327987712053433,0.11960133703737634,0.21319743416796694,0.45240010824271965,0.11960133703737634,0.42509000197363395,4,8,6,0,5,7,nan,nan,nan,nan,nan,nan,nan,nan,nan,nan,nan,nan,0.0,nan,nan,nan,nan,nan,nan,nan,nan,nan,nan,nan,nan,nan,nan,nan,nan,nan,nan,834.2195120491087,1189.8064606438857,nan,1190.0572786517441,nan,nan,nan,nan
1,192,1,1,1.0,1.0,0.29762712866067886,0,0.0,0.0,0.0,0.33236270331520035,0.11943178465469415,0.2129309186605062,0.4517944879698945,0.11943178465469415,0.3626973223096381,5,6,4,7,8,3,nan,nan,nan,nan,nan,nan,nan,nan,nan,nan,nan,nan,0.0,nan,nan,nan,nan,nan,nan,nan,nan,nan,nan,nan,nan,nan,nan,nan,nan,nan,nan,834.2195120491087,1190.8315843250602,nan,1191.129211453721,nan,nan,nan,nan
1,193,1,1,1.0,1.0,0.2724786442704499,0,0.0,0.0,0.0,0.33217891720591713,0.11914206093313982,0.2130368562727773,0.45132097813905697,0.11914206093313982,0.2736412602631996,3,8,2,1,4,7,nan,nan,nan,nan,nan,nan,nan,nan,nan,nan,nan,nan,0.0,nan,nan,nan,nan,nan,nan,nan,nan,nan,nan,nan,nan,nan,nan,nan,nan,nan,nan,834.2195120491087,1191.8567117126659,nan,1192.1291903569363,nan,nan,nan,nan
1,194,1,1,1.0,1.0,0.3033404254820198,0,0.0,0.0,0.0,0.3318647052430989,0.11890660561551025,0.21295809962758866,0.45077131085860916,0.11890660561551025,0.29114873280438286,2,0,8,4,1,6,nan,nan,nan,nan,nan,nan,nan,nan,nan,nan,nan,nan,0.0,nan,nan,nan,nan,nan,nan,nan,nan,nan,nan,nan,nan,nan,nan,nan,nan,nan,nan,834.2195120491087,1192.8818339682184,nan,1193.1851743937004,nan,nan,nan,nan
1,195,0,0,1.0,0.0,0.28655661828815937,0,0.0,0.0,0.0,0.33171536346424507,0.11861278764130039,0.21310257582294467,0.45032815110554547,0.11861278764130039,0.2874585626802097,4,2,1,8,7,5,nan,nan,nan,nan,nan,nan,nan,nan,nan,nan,nan,nan,0.0,nan,nan,nan,nan,nan,nan,nan,nan,nan,nan,nan,nan,nan,nan,nan,nan,nan,nan,834.2195120491087,1193.8985915468074,nan,1194.1851481650956,nan,nan,nan,nan
1,196,1,1,1.0,1.0,0.2857221462763846,0,0.0,0.0,0.0,0.33148016166645294,0.11834814524510208,0.21313201642135088,0.449828306911555,0.11834814524510208,0.2918730633488546,8,7,2,6,1,4,nan,nan,nan,nan,nan,nan,nan,nan,nan,nan,nan,nan,0.0,nan,nan,nan,nan,nan,nan,nan,nan,nan,nan,nan,nan,nan,nan,nan,nan,nan,nan,834.2195120491087,1194.9154089952353,nan,1195.2011311415117,nan,nan,nan,nan
1,197,1,1,1.0,1.0,0.31657993607223034,0,0.0,0.0,0.0,0.3312430735038101,0.11808685167682216,0.21315622182698796,0.44932992518063225,0.11808685167682216,0.2962862335455914,7,8,4,3,2,0,nan,nan,nan,nan,nan,nan,nan,nan,nan,nan,nan,nan,0.0,nan,nan,nan,nan,nan,nan,nan,nan,nan,nan,nan,nan,nan,nan,nan,nan,nan,nan,834.2195120491087,1195.9405261194333,nan,1196.2571060555056,nan,nan,nan,nan
1,198,1,1,1.0,1.0,0.387429948663339,0,0.0,0.0,0.0,0.3311674903211731,0.11778679137893527,0.21338069894223782,0.44895428170010837,0.11778679137893527,0.32991067700398463,5,4,2,1,0,7,nan,nan,nan,nan,nan,nan,nan,nan,nan,nan,nan,nan,0.0,nan,nan,nan,nan,nan,nan,nan,nan,nan,nan,nan,nan,nan,nan,nan,nan,nan,nan,834.2195120491087,1196.9656486602034,nan,1197.3530786088668,nan,nan,nan,nan
1,199,1,1,1.0,1.0,0.29027054621838033,0,0.0,0.0,0.0,0.3314560157485688,0.11755309779856843,0.21390291795000038,0.44900911354713724,0.11755309779856843,0.3314268103179832,4,3,1,8,7,6,nan,nan,nan,nan,nan,nan,nan,nan,nan,nan,nan,nan,0.0,nan,nan,nan,nan,nan,nan,nan,nan,nan,nan,nan,nan,nan,nan,nan,nan,nan,nan,834.2195120491087,1197.990772341378,nan,1198.2810428875964,nan,nan,nan,nan
1,200,1,1,1.0,1.0,0.3370120998006314,0,0.0,0.0,0.0,0.3312458858019862,0.11728954437363913,0.21395634142834707,0.44853543017562536,0.11728954437363913,0.33823753156078357,6,8,2,7,1,3,nan,nan,nan,nan,nan,nan,nan,nan,nan,nan,nan,nan,0.0,nan,nan,nan,nan,nan,nan,nan,nan,nan,nan,nan,nan,nan,nan,nan,nan,nan,nan,834.2195120491087,1199.015994665213,nan,1199.3530067650136,nan,nan,nan,nan
1,201,1,1,1.0,1.0,0.32794209849089384,0,0.0,0.0,0.0,0.3312751559238068,0.11699219409605906,0.21428296182774775,0.44826735001986584,0.11699219409605906,0.31840824816996854,8,2,0,6,5,4,nan,nan,nan,nan,nan,nan,nan,nan,nan,nan,nan,nan,0.0,nan,nan,nan,nan,nan,nan,nan,nan,nan,nan,nan,nan,nan,nan,nan,nan,nan,nan,834.2195120491087,1200.0410422261339,nan,1200.3689843246248,nan,nan,nan,nan
1,202,1,1,1.0,1.0,0.2707920242100954,0,0.0,0.0,0.0,0.33125832230040825,0.11669662447855025,0.214561697821858,0.44795494677895853,0.11669662447855025,0.3119154075005402,0,6,2,5,7,8,nan,nan,nan,nan,nan,nan,nan,nan,nan,nan,nan,nan,0.0,nan,nan,nan,nan,nan,nan,nan,nan,nan,nan,nan,nan,nan,nan,nan,nan,nan,nan,834.2195120491087,1201.0661613459233,nan,1201.3369533701334,nan,nan,nan,nan
1,203,0,0,1.0,0.0,0.30997343780472875,0,0.0,0.0,0.0,0.3309544715562358,0.11648154315122512,0.2144729284050107,0.4474360147074609,0.11648154315122512,0.30290252016857266,3,8,6,1,4,5,nan,nan,nan,nan,nan,nan,nan,nan,nan,nan,nan,nan,0.0,nan,nan,nan,nan,nan,nan,nan,nan,nan,nan,nan,nan,nan,nan,nan,nan,nan,nan,834.2195120491087,1202.0829517103266,nan,1202.3929251481313,nan,nan,nan,nan
1,204,1,1,1.0,1.0,0.35684670484624803,0,0.0,0.0,0.0,0.33084956638747826,0.11619939827386476,0.21465016811361348,0.44704896466134303,0.11619939827386476,0.3125373889536907,0,2,7,5,6,8,nan,nan,nan,nan,nan,nan,nan,nan,nan,nan,nan,nan,0.0,nan,nan,nan,nan,nan,nan,nan,nan,nan,nan,nan,nan,nan,nan,nan,nan,nan,nan,834.2195120491087,1203.108034908073,nan,1203.4648816129193,nan,nan,nan,nan
1,205,1,1,1.0,1.0,0.3077037991024554,0,0.0,0.0,0.0,0.3309789053847856,0.11592441611571959,0.215054489269066,0.44690332150050516,0.11592441611571959,0.32484131391781074,1,8,4,3,2,0,nan,nan,nan,nan,nan,nan,nan,nan,nan,nan,nan,nan,0.0,nan,nan,nan,nan,nan,nan,nan,nan,nan,nan,nan,nan,nan,nan,nan,nan,nan,nan,834.2195120491087,1204.1331503216643,nan,1204.4408541207667,nan,nan,nan,nan
1,206,1,1,1.0,1.0,0.3065574336796999,0,0.0,0.0,0.0,0.3308636820863582,0.1156486564099419,0.2152150256764163,0.4465123384963001,0.1156486564099419,0.32370264587613445,3,5,2,8,1,7,nan,nan,nan,nan,nan,nan,nan,nan,nan,nan,nan,nan,0.0,nan,nan,nan,nan,nan,nan,nan,nan,nan,nan,nan,nan,nan,nan,nan,nan,nan,nan,834.2195120491087,1205.1582683008164,nan,1205.4648257344961,nan,nan,nan,nan
1,207,1,1,1.0,1.0,0.3134074027184397,0,0.0,0.0,0.0,0.3307439468725323,0.11537600669077253,0.21536794018175975,0.4461199535633048,0.11537600669077253,0.3092228785001983,4,1,7,6,0,5,nan,nan,nan,nan,nan,nan,nan,nan,nan,nan,nan,nan,0.0,nan,nan,nan,nan,nan,nan,nan,nan,nan,nan,nan,nan,nan,nan,nan,nan,nan,nan,834.2195120491087,1206.1833899863996,nan,1206.496797389118,nan,nan,nan,nan
1,208,1,1,1.0,1.0,0.2472369340248406,0,0.0,0.0,0.0,0.3306589638129534,0.1150992439454949,0.2155597198674585,0.4457582077584483,0.1150992439454949,0.28906725680766004,7,5,0,1,6,2,nan,nan,nan,nan,nan,nan,nan,nan,nan,nan,nan,nan,0.0,nan,nan,nan,nan,nan,nan,nan,nan,nan,nan,nan,nan,nan,nan,nan,nan,nan,nan,834.2195120491087,1207.2335221704561,nan,1207.480759104481,nan,nan,nan,nan
1,209,0,0,0.0,1.0,0.41409998340532184,0,0.0,0.0,0.0,0.3302520270822797,0.11496518715401033,0.21528683992826936,0.44521721423629,0.11496518715401033,0.3249147733828674,6,8,7,0,1,3,nan,nan,nan,nan,nan,nan,nan,nan,nan,nan,nan,nan,0.0,nan,nan,nan,nan,nan,nan,nan,nan,nan,nan,nan,nan,nan,nan,nan,nan,nan,nan,834.2195120491087,1208.2586307416204,nan,1208.6727307250258,nan,nan,nan,nan
1,210,1,1,1.0,1.0,0.28756870422512293,0,0.0,0.0,0.0,0.3306590559964692,0.11483377970414875,0.21582527629232046,0.445492835700618,0.11483377970414875,0.3163018738850951,0,1,4,2,3,7,nan,nan,nan,nan,nan,nan,nan,nan,nan,nan,nan,nan,0.0,nan,nan,nan,nan,nan,nan,nan,nan,nan,nan,nan,nan,nan,nan,nan,nan,nan,nan,834.2195120491087,1209.3051559082232,nan,1209.5927246124484,nan,nan,nan,nan
1,211,0,0,0.0,1.0,0.4750996904913336,0,0.0,0.0,0.0,0.330450890045883,0.1145950227495503,0.21585586729633272,0.4450459127954333,0.1145950227495503,0.3922561260405928,3,6,8,7,2,1,nan,nan,nan,nan,nan,nan,nan,nan,nan,nan,nan,nan,0.0,nan,nan,nan,nan,nan,nan,nan,nan,nan,nan,nan,nan,nan,nan,nan,nan,nan,nan,834.2195120491087,1210.3255558561068,nan,1210.8006555465981,nan,nan,nan,nan
1,212,1,1,1.0,1.0,0.2621696216519922,0,0.0,0.0,0.0,0.33114631697110153,0.11475623548640962,0.2163900814846919,0.44590255245751115,0.11475623548640962,0.34161267212281626,8,4,6,5,3,0,nan,nan,nan,nan,nan,nan,nan,nan,nan,nan,nan,nan,0.0,nan,nan,nan,nan,nan,nan,nan,nan,nan,nan,nan,nan,nan,nan,nan,nan,nan,nan,834.2195120491087,1211.3784565944225,nan,1211.6406262160745,nan,nan,nan,nan
1,213,0,0,0.0,1.0,0.559803877491504,0,0.0,0.0,0.0,0.33081628493608184,0.11458027597417696,0.21623600896190487,0.4453965609102588,0.11458027597417696,0.4323577298782766,2,7,8,0,5,4,nan,nan,nan,nan,nan,nan,nan,nan,nan,nan,nan,nan,0.0,nan,nan,nan,nan,nan,nan,nan,nan,nan,nan,nan,nan,nan,nan,nan,nan,nan,nan,834.2195120491087,1212.4007966115605,nan,1212.960600489052,nan,nan,nan,nan
1,214,1,1,1.0,1.0,0.3185912789776921,0,0.0,0.0,0.0,0.3319067020434886,0.11538901719629413,0.21651768484719447,0.44729571923978273,0.11538901719629413,0.3801882593737294,8,2,5,7,6,0,nan,nan,nan,nan,nan,nan,nan,nan,nan,nan,nan,nan,0.0,nan,nan,nan,nan,nan,nan,nan,nan,nan,nan,nan,nan,nan,nan,nan,nan,nan,nan,834.2195120491087,1213.4259949873667,nan,1213.7445862663444,nan,nan,nan,nan
1,215,1,1,1.0,1.0,0.3015397675335407,0,0.0,0.0,0.0,0.3318435957730346,0.11511889117034906,0.21672470460268556,0.4469624869433837,0.11511889117034906,0.3933116413342456,2,4,0,8,1,5,nan,nan,nan,nan,nan,nan,nan,nan,nan,nan,nan,nan,0.0,nan,nan,nan,nan,nan,nan,nan,nan,nan,nan,nan,nan,nan,nan,nan,nan,nan,nan,834.2195120491087,1214.4510180302896,nan,1214.752557797823,nan,nan,nan,nan
1,216,1,1,1.0,1.0,0.2846661554649472,0,0.0,0.0,0.0,0.33170065318699926,0.1148658315228365,0.21683482166416276,0.44656648470983573,0.1148658315228365,0.3015990673253934,7,8,3,4,5,6,nan,nan,nan,nan,nan,nan,nan,nan,nan,nan,nan,nan,0.0,nan,nan,nan,nan,nan,nan,nan,nan,nan,nan,nan,nan,nan,nan,nan,nan,nan,nan,834.2195120491087,1215.467845742125,nan,1215.75251189759,nan,nan,nan,nan
1,217,1,1,1.0,1.0,0.2518660156056285,0,0.0,0.0,0.0,0.33147983394886754,0.11464097087262688,0.21683886307624067,0.4461208048214944,0.11464097087262688,0.27935731286803883,2,5,8,0,7,3,nan,nan,nan,nan,nan,nan,nan,nan,nan,nan,nan,nan,0.0,nan,nan,nan,nan,nan,nan,nan,nan,nan,nan,nan,nan,nan,nan,nan,nan,nan,nan,834.2195120491087,1216.48462242214,nan,1216.7364884377457,nan,nan,nan,nan
1,218,1,1,0.0,0.0,0.3307719479780644,0,0.0,0.0,0.0,0.33110780676034773,0.11450160919417557,0.21660619756617217,0.4456094159545233,0.11450160919417557,0.28910137301621336,6,7,4,5,1,0,nan,nan,nan,nan,nan,nan,nan,nan,nan,nan,nan,nan,0.0,nan,nan,nan,nan,nan,nan,nan,nan,nan,nan,nan,nan,nan,nan,nan,nan,nan,nan,834.2195120491087,1217.5097096110694,nan,1217.8404815590475,nan,nan,nan,nan
1,219,1,1,1.0,1.0,0.5376115397084504,0,0.0,0.0,0.0,0.33110624462647664,0.11423501831445612,0.21687122631202052,0.4453412629409328,0.11423501831445612,0.3734165010973811,5,3,0,6,7,2,nan,nan,nan,nan,nan,nan,nan,nan,nan,nan,nan,nan,0.0,nan,nan,nan,nan,nan,nan,nan,nan,nan,nan,nan,nan,nan,nan,nan,nan,nan,nan,834.2195120491087,1218.5348369984422,nan,1219.0724485381506,nan,nan,nan,nan
1,220,1,1,1.0,1.0,0.4404421588405967,0,0.0,0.0,0.0,0.3320622876592636,0.11482917025893297,0.21723311740033063,0.44689145791819657,0.11482917025893297,0.4362752155090372,1,5,2,0,6,7,nan,nan,nan,nan,nan,nan,nan,nan,nan,nan,nan,nan,0.0,nan,nan,nan,nan,nan,nan,nan,nan,nan,nan,nan,nan,nan,nan,nan,nan,nan,nan,834.2195120491087,1219.5599908998702,nan,1220.0004330587108,nan,nan,nan,nan
1,221,1,1,1.0,1.0,0.32731774100102484,0,0.0,0.0,0.0,0.3325617340702375,0.11479919451876823,0.21776253955146924,0.4473609285890057,0.11479919451876823,0.4351238131833573,4,6,0,3,7,2,nan,nan,nan,nan,nan,nan,nan,nan,nan,nan,nan,nan,0.0,nan,nan,nan,nan,nan,nan,nan,nan,nan,nan,nan,nan,nan,nan,nan,nan,nan,nan,834.2195120491087,1220.5850740976166,nan,1220.9123918386176,nan,nan,nan,nan
1,222,1,1,1.0,1.0,0.278062793193385,0,0.0,0.0,0.0,0.3325376790561585,0.11453613911885416,0.21800153993730434,0.4470738181750127,0.11453613911885416,0.3486075643450022,7,4,8,5,1,6,nan,nan,nan,nan,nan,nan,nan,nan,nan,nan,nan,nan,0.0,nan,nan,nan,nan,nan,nan,nan,nan,nan,nan,nan,nan,nan,nan,nan,nan,nan,nan,834.2195120491087,1221.610285302857,nan,1221.8883480960503,nan,nan,nan,nan
1,223,1,1,1.0,1.0,0.25299470545724034,0,0.0,0.0,0.0,0.3322889352850956,0.11433334434365983,0.2179555909414358,0.44662227962875545,0.11433334434365983,0.2861250798838834,6,8,4,2,5,7,nan,nan,nan,nan,nan,nan,nan,nan,nan,nan,nan,nan,0.0,nan,nan,nan,nan,nan,nan,nan,nan,nan,nan,nan,nan,nan,nan,nan,nan,nan,nan,834.2195120491087,1222.6353177537676,nan,1222.8883124592248,nan,nan,nan,nan
1,224,1,1,1.0,1.0,0.2438651192933321,0,0.0,0.0,0.0,0.33192850696769627,0.11419783232512552,0.21773067464257073,0.4461263392928218,0.11419783232512552,0.2583075393146525,8,6,3,7,0,1,nan,nan,nan,nan,nan,nan,nan,nan,nan,nan,nan,nan,0.0,nan,nan,nan,nan,nan,nan,nan,nan,nan,nan,nan,nan,nan,nan,nan,nan,nan,nan,834.2195120491087,1223.6604457113426,nan,1223.904310830636,nan,nan,nan,nan
1,225,1,1,1.0,1.0,0.3147328079212457,0,0.0,0.0,0.0,0.33153003010039145,0.11409236451806698,0.21743766558232447,0.44562239461845843,0.11409236451806698,0.27053087755727273,5,7,0,3,1,8,nan,nan,nan,nan,nan,nan,nan,nan,nan,nan,nan,nan,0.0,nan,nan,nan,nan,nan,nan,nan,nan,nan,nan,nan,nan,nan,nan,nan,nan,nan,nan,834.2195120491087,1224.6855531421024,nan,1225.0002859500237,nan,nan,nan,nan
1,226,1,1,1.0,1.0,0.29754188540391624,0,0.0,0.0,0.0,0.33145436693742236,0.11384066675640399,0.2176137001810184,0.44529503369382634,0.11384066675640399,0.28537993753949803,8,4,6,7,2,5,nan,nan,nan,nan,nan,nan,nan,nan,nan,nan,nan,nan,0.0,nan,nan,nan,nan,nan,nan,nan,nan,nan,nan,nan,nan,nan,nan,nan,nan,nan,nan,834.2195120491087,1225.7107076134998,nan,1226.0082494989038,nan,nan,nan,nan
1,227,1,1,1.0,1.0,0.28839006181806326,0,0.0,0.0,0.0,0.33130229302920033,0.11360772970912662,0.2176945633200737,0.44491002273832697,0.11360772970912662,0.3002215850477417,7,0,1,5,8,3,nan,nan,nan,nan,nan,nan,nan,nan,nan,nan,nan,nan,0.0,nan,nan,nan,nan,nan,nan,nan,nan,nan,nan,nan,nan,nan,nan,nan,nan,nan,nan,834.2195120491087,1226.7357967982534,nan,1227.0241868600715,nan,nan,nan,nan
1,228,1,1,1.0,1.0,0.31958483369089663,0,0.0,0.0,0.0,0.3311107205684363,0.11338995141727742,0.2177207691511589,0.44450067198571375,0.11338995141727742,0.3018389269709587,3,7,5,0,4,1,nan,nan,nan,nan,nan,nan,nan,nan,nan,nan,nan,nan,0.0,nan,nan,nan,nan,nan,nan,nan,nan,nan,nan,nan,nan,nan,nan,nan,nan,nan,nan,834.2195120491087,1227.7525931496639,nan,1228.0721779833548,nan,nan,nan,nan
1,229,1,1,1.0,1.0,0.294455450726673,0,0.0,0.0,0.0,0.33105949440453614,0.11314029085072021,0.21791920355381594,0.44419978525525633,0.11314029085072021,0.30081011541187763,1,0,7,8,6,3,nan,nan,nan,nan,nan,nan,nan,nan,nan,nan,nan,nan,0.0,nan,nan,nan,nan,nan,nan,nan,nan,nan,nan,nan,nan,nan,nan,nan,nan,nan,nan,834.2195120491087,1228.7776994400192,nan,1229.0721548907459,nan,nan,nan,nan
1,230,1,1,1.0,1.0,0.2936645981390029,0,0.0,0.0,0.0,0.33089752960950136,0.11291584197837502,0.21798168763112635,0.44381337158787637,0.11291584197837502,0.30256829418552417,7,4,3,5,0,1,nan,nan,nan,nan,nan,nan,nan,nan,nan,nan,nan,nan,0.0,nan,nan,nan,nan,nan,nan,nan,nan,nan,nan,nan,nan,nan,nan,nan,nan,nan,nan,834.2195120491087,1229.7944929406513,nan,1230.0881575387903,nan,nan,nan,nan
1,231,1,1,1.0,1.0,0.26845225249417126,0,0.0,0.0,0.0,0.3307335078849617,0.1126938335977075,0.21803967428725418,0.4434273414826692,0.1126938335977075,0.2855241004532824,0,5,6,8,4,2,nan,nan,nan,nan,nan,nan,nan,nan,nan,nan,nan,nan,0.0,nan,nan,nan,nan,nan,nan,nan,nan,nan,nan,nan,nan,nan,nan,nan,nan,nan,nan,834.2195120491087,1230.819644846255,nan,1231.0880970987491,nan,nan,nan,nan
1,232,1,1,1.0,1.0,0.24332201411016285,0,0.0,0.0,0.0,0.3304603444841249,0.11252171859632859,0.21793862588779633,0.4429820630804535,0.11252171859632859,0.2684796215811123,1,7,2,3,6,8,nan,nan,nan,nan,nan,nan,nan,nan,nan,nan,nan,nan,0.0,nan,nan,nan,nan,nan,nan,nan,nan,nan,nan,nan,nan,nan,nan,nan,nan,nan,nan,834.2195120491087,1231.8447197761852,nan,1232.0880417902954,nan,nan,nan,nan
1,233,1,1,1.0,1.0,0.264821857213974,0,0.0,0.0,0.0,0.3300798277576011,0.1124226896430606,0.2176571381145405,0.4425025174006617,0.1124226896430606,0.2588653746061027,8,4,6,7,2,3,nan,nan,nan,nan,nan,nan,nan,nan,nan,nan,nan,nan,0.0,nan,nan,nan,nan,nan,nan,nan,nan,nan,nan,nan,nan,nan,nan,nan,nan,nan,nan,834.2195120491087,1232.9031807153951,nan,1233.168002572609,nan,nan,nan,nan
1,234,1,1,1.0,1.0,0.19173926836811006,0,0.0,0.0,0.0,0.32979609745088967,0.1122601654082523,0.21753593204263738,0.44205626285914196,0.1122601654082523,0.23329437989741564,7,8,2,5,1,4,nan,nan,nan,nan,nan,nan,nan,nan,nan,nan,nan,nan,0.0,nan,nan,nan,nan,nan,nan,nan,nan,nan,nan,nan,nan,nan,nan,nan,nan,nan,nan,834.2195120491087,1233.9282978395931,nan,1234.1200371079613,nan,nan,nan,nan
1,235,1,1,1.0,1.0,0.18252044776454568,1,1.0,0.0,1.0,0.3291984488401417,0.11238301215400678,0.21681543668613493,0.4415814609941485,0.11238301215400678,0.21302719111554325,3,0,8,4,6,7,1.0,1.0,1.0,1.0,1.0,1.0,1.0,1.0,1.0,0.0,1.0,0.0,4.0,3.0,0.0,8.0,2.0,6.0,1.0,2.0,3.0,1.0,4.0,5.0,6.0,2.331634073983878,3.1875882900785655,1.1786035322584212,4.914442239329219,6.098115324741229,8.114050690317526,834.2195120491087,1234.953463429585,1235.761832212098,1235.1359838773496,1244.9379023932852,1245.9425639759284,1236.7869852581061,1244.9295739231165
1,236,1,1,1.0,1.0,0.7325658204499632,0,0.0,0.0,0.0,0.3285662160768848,0.11255148572006424,0.21601473035682056,0.44111770179694904,0.11255148572006424,0.36894184552753967,7,5,6,0,8,1,nan,nan,nan,nan,nan,nan,nan,nan,nan,nan,nan,nan,0.0,nan,nan,nan,nan,nan,nan,nan,nan,nan,nan,nan,nan,nan,nan,nan,nan,nan,nan,834.2195120491087,1246.1630801283754,nan,1246.8956459488254,nan,nan,nan,nan
1,237,1,1,1.0,1.0,0.3234147953335196,0,0.0,0.0,0.0,0.3303001199583143,0.11537312771337878,0.21492699224493556,0.4456732476716931,0.11537312771337878,0.4128336878493428,4,6,0,7,3,2,nan,nan,nan,nan,nan,nan,nan,nan,nan,nan,nan,nan,0.0,nan,nan,nan,nan,nan,nan,nan,nan,nan,nan,nan,nan,nan,nan,nan,nan,nan,nan,834.2195120491087,1247.1882340295706,nan,1247.5116488249041,nan,nan,nan,nan
1,238,1,1,nan,nan,nan,0,0.0,0.0,0.0,0.0,0.0,0.0,0.0,0.0,0.0,3,2,6,5,8,1,nan,nan,nan,nan,nan,nan,nan,nan,nan,nan,nan,nan,0.0,nan,nan,nan,nan,nan,nan,nan,nan,nan,nan,nan,nan,nan,nan,nan,nan,nan,nan,834.2195120491087,1248.2132969857194,nan,nan,nan,nan,nan,nan
1,239,1,1,1.0,1.0,0.4651239435188472,0,0.0,0.0,0.0,0.3302706954941058,0.11512721611809233,0.21514347937601347,0.44539791161219816,0.11512721611809233,0.3942693694261834,2,8,0,1,3,6,nan,nan,nan,nan,nan,nan,nan,nan,nan,nan,nan,nan,0.0,nan,nan,nan,nan,nan,nan,nan,nan,nan,nan,nan,nan,nan,nan,nan,nan,nan,nan,834.2195120491087,1249.2384249432944,nan,1249.7035488868132,nan,nan,nan,nan
1,240,1,1,1.0,1.0,0.2880020481534302,0,0.0,0.0,0.0,0.3308445391027217,0.11521688285616044,0.21562765624656127,0.44606142195888215,0.11521688285616044,0.3765629958361387,1,6,5,8,4,0,nan,nan,nan,nan,nan,nan,nan,nan,nan,nan,nan,nan,0.0,nan,nan,nan,nan,nan,nan,nan,nan,nan,nan,nan,nan,nan,nan,nan,nan,nan,nan,834.2195120491087,1250.2635426374618,nan,1250.5515446856152,nan,nan,nan,nan
1,241,1,1,1.0,1.0,0.22279890533536673,0,0.0,0.0,0.0,0.33066300312412306,0.11500619500490397,0.21565680811921908,0.44566919812902706,0.11500619500490397,0.32530829900254804,6,7,0,1,3,2,nan,nan,nan,nan,nan,nan,nan,nan,nan,nan,nan,nan,0.0,nan,nan,nan,nan,nan,nan,nan,nan,nan,nan,nan,nan,nan,nan,nan,nan,nan,nan,834.2195120491087,1251.2887107934803,nan,1251.5115096988156,nan,nan,nan,nan
1,242,1,1,1.0,1.0,0.22964630858041346,0,0.0,0.0,0.0,0.33020788034864307,0.11497609082052573,0.21523178952811733,0.4451839711691688,0.11497609082052573,0.24681575402307013,7,8,2,6,5,4,nan,nan,nan,nan,nan,nan,nan,nan,nan,nan,nan,nan,0.0,nan,nan,nan,nan,nan,nan,nan,nan,nan,nan,nan,nan,nan,nan,nan,nan,nan,nan,834.2195120491087,1252.31382905785,nan,1252.5434753664304,nan,nan,nan,nan
1,243,1,1,1.0,1.0,0.23650597129017115,0,0.0,0.0,0.0,0.3297853527361715,0.11491853135081839,0.2148668213853531,0.4447038840869899,0.11491853135081839,0.22965039506865045,0,4,8,3,6,1,nan,nan,nan,nan,nan,nan,nan,nan,nan,nan,nan,nan,0.0,nan,nan,nan,nan,nan,nan,nan,nan,nan,nan,nan,nan,nan,nan,nan,nan,nan,nan,834.2195120491087,1253.3389481774066,nan,1253.5754541486967,nan,nan,nan,nan
1,244,1,1,1.0,1.0,0.21137060108594596,0,0.0,0.0,0.0,0.32939506243723427,0.11483582282532306,0.2145592396119112,0.44423088526255733,0.11483582282532306,0.22584096031884351,5,3,0,7,4,8,nan,nan,nan,nan,nan,nan,nan,nan,nan,nan,nan,nan,0.0,nan,nan,nan,nan,nan,nan,nan,nan,nan,nan,nan,nan,nan,nan,nan,nan,nan,nan,834.2195120491087,1254.3640231075697,nan,1254.5753937086556,nan,nan,nan,nan
1,245,0,0,1.0,0.0,0.1785259866155684,0,0.0,0.0,0.0,0.32890329384827055,0.11484823963792082,0.21405505421034973,0.44375153348619134,0.11484823963792082,0.2088008529972285,1,7,5,8,2,3,nan,nan,nan,nan,nan,nan,nan,nan,nan,nan,nan,nan,0.0,nan,nan,nan,nan,nan,nan,nan,nan,nan,nan,nan,nan,nan,nan,nan,nan,nan,nan,834.2195120491087,1255.3808630784042,nan,1255.5593890650198,nan,nan,nan,nan
1,246,1,1,0.0,0.0,0.09771847305819392,1,1.0,0.0,1.0,0.32827932161908924,0.1150166478797829,0.21326267373930635,0.4432959694988721,0.1150166478797829,0.16253835358656943,0,1,8,6,5,4,1.0,1.0,1.0,1.0,1.0,1.0,0.0,1.0,0.0,0.0,0.0,0.0,1.0,8.0,1.0,5.0,8.0,4.0,2.0,3.0,4.0,1.0,2.0,6.0,5.0,4.701903605600819,5.718278016895056,1.1926986118778586,2.0065087110269815,7.853618435561657,6.9098325439263135,834.2195120491087,1256.397629209794,1257.2060122471303,1256.4953476828523,1266.1070721435826,1267.1111931866035,1258.2144624525681,1266.0987453840207
1,247,1,1,1.0,1.0,0.22683071391656995,0,0.0,0.0,0.0,0.32732659083991195,0.11572778156787009,0.21159880927204186,0.443054372407782,0.11572778156787009,0.16769172453011075,7,2,5,3,8,6,nan,nan,nan,nan,nan,nan,nan,nan,nan,nan,nan,nan,0.0,nan,nan,nan,nan,nan,nan,nan,nan,nan,nan,nan,nan,nan,nan,nan,nan,nan,nan,834.2195120491087,1267.332214526832,nan,1267.5590452407487,nan,nan,nan,nan
1,248,0,0,1.0,0.0,0.27262119157239795,0,0.0,0.0,0.0,0.32691302756039203,0.11566846978201697,0.21124455777837506,0.44258149734240904,0.11566846978201697,0.19905679284905395,6,1,3,4,5,8,nan,nan,nan,nan,nan,nan,nan,nan,nan,nan,nan,nan,0.0,nan,nan,nan,nan,nan,nan,nan,nan,nan,nan,nan,nan,nan,nan,nan,nan,nan,nan,834.2195120491087,1268.3823689483106,nan,1268.654990139883,nan,nan,nan,nan
1,249,1,1,1.0,1.0,0.28781930240802467,0,0.0,0.0,0.0,0.3266905200358511,0.11548330168536378,0.2112072183504873,0.4421738217212149,0.11548330168536378,0.2624237359656642,2,8,5,7,0,3,nan,nan,nan,nan,nan,nan,nan,nan,nan,nan,nan,nan,0.0,nan,nan,nan,nan,nan,nan,nan,nan,nan,nan,nan,nan,nan,nan,nan,nan,nan,nan,834.2195120491087,1269.3991387861315,nan,1269.6869580885395,nan,nan,nan,nan
1,250,1,1,1.0,1.0,0.28664499754086137,0,0.0,0.0,0.0,0.32653186200471707,0.11527402469605041,0.21125783730866665,0.4418058867007675,0.11527402469605041,0.2823618305070947,7,5,8,1,4,0,nan,nan,nan,nan,nan,nan,nan,nan,nan,nan,nan,nan,0.0,nan,nan,nan,nan,nan,nan,nan,nan,nan,nan,nan,nan,nan,nan,nan,nan,nan,nan,834.2195120491087,1270.424319201149,nan,1270.71096419869,nan,nan,nan,nan
1,251,0,0,1.0,0.0,0.27756074140779674,0,0.0,0.0,0.0,0.32636972027925426,0.11506748078809562,0.21130223949115864,0.44143720106734985,0.11506748078809562,0.2840083471188943,5,0,6,3,7,2,nan,nan,nan,nan,nan,nan,nan,nan,nan,nan,nan,nan,0.0,nan,nan,nan,nan,nan,nan,nan,nan,nan,nan,nan,nan,nan,nan,nan,nan,nan,nan,834.2195120491087,1271.4493716086727,nan,1271.7269323500805,nan,nan,nan,nan
1,252,1,1,1.0,1.0,0.30035519949160516,0,0.0,0.0,0.0,0.3261721130773455,0.11487613210383006,0.21129598097351543,0.4410482451811756,0.11487613210383006,0.28818697948008776,8,6,3,5,0,7,nan,nan,nan,nan,nan,nan,nan,nan,nan,nan,nan,nan,0.0,nan,nan,nan,nan,nan,nan,nan,nan,nan,nan,nan,nan,nan,nan,nan,nan,nan,nan,834.2195120491087,1272.474514676258,nan,1272.7748698757496,nan,nan,nan,nan
1,253,1,1,1.0,1.0,0.3155530251096934,0,0.0,0.0,0.0,0.3260680126193385,0.11465596646260073,0.21141204615673775,0.4407239790819392,0.11465596646260073,0.2978229886696984,2,8,4,0,7,1,nan,nan,nan,nan,nan,nan,nan,nan,nan,nan,nan,nan,0.0,nan,nan,nan,nan,nan,nan,nan,nan,nan,nan,nan,nan,nan,nan,nan,nan,nan,nan,834.2195120491087,1273.4913241420873,nan,1273.806877167197,nan,nan,nan,nan
1,254,1,1,1.0,1.0,0.29875182709656656,0,0.0,0.0,0.0,0.32602578375383795,0.11442743445098609,0.21159834930285187,0.440453218204824,0.11442743445098609,0.30488668389928836,3,1,2,7,5,6,nan,nan,nan,nan,nan,nan,nan,nan,nan,nan,nan,nan,0.0,nan,nan,nan,nan,nan,nan,nan,nan,nan,nan,nan,nan,nan,nan,nan,nan,nan,nan,834.2195120491087,1274.5080877076834,nan,1274.80683953478,nan,nan,nan,nan
1,255,1,1,1.0,1.0,0.23360798391513526,0,0.0,0.0,0.0,0.32591668792720885,0.11421132508189441,0.21170536284531444,0.44012801300910326,0.11421132508189441,0.28263761204046506,4,2,0,3,6,1,nan,nan,nan,nan,nan,nan,nan,nan,nan,nan,nan,nan,0.0,nan,nan,nan,nan,nan,nan,nan,nan,nan,nan,nan,nan,nan,nan,nan,nan,nan,nan,834.2195120491087,1275.5332130994648,nan,1275.76682108338,nan,nan,nan,nan
1,256,1,1,1.0,1.0,0.33649208722636104,0,0.0,0.0,0.0,0.32554892416620457,0.11413181104300085,0.21141711312320371,0.4396807352092054,0.11413181104300085,0.2896172994126876,0,3,6,8,2,5,nan,nan,nan,nan,nan,nan,nan,nan,nan,nan,nan,nan,0.0,nan,nan,nan,nan,nan,nan,nan,nan,nan,nan,nan,nan,nan,nan,nan,nan,nan,nan,834.2195120491087,1276.5582948715892,nan,1276.8947869588155,nan,nan,nan,nan
1,257,1,1,1.0,1.0,0.28764767525717616,0,0.0,0.0,0.0,0.32559234941644327,0.11390721162714139,0.21168513778930187,0.4394995610435847,0.11390721162714139,0.28591591546622414,5,8,1,7,4,2,nan,nan,nan,nan,nan,nan,nan,nan,nan,nan,nan,nan,0.0,nan,nan,nan,nan,nan,nan,nan,nan,nan,nan,nan,nan,nan,nan,nan,nan,nan,nan,834.2195120491087,1277.575092363637,nan,1277.8627400388941,nan,nan,nan,nan
1,258,1,1,1.0,1.0,0.27850183891132474,0,0.0,0.0,0.0,0.32544237046719715,0.11370680395624175,0.2117355665109554,0.4391491744234389,0.11370680395624175,0.30088053379828733,6,3,4,0,7,8,nan,nan,nan,nan,nan,nan,nan,nan,nan,nan,nan,nan,0.0,nan,nan,nan,nan,nan,nan,nan,nan,nan,nan,nan,nan,nan,nan,nan,nan,nan,nan,834.2195120491087,1278.6002066365909,nan,1278.8787084755022,nan,nan,nan,nan
1,259,1,1,1.0,1.0,0.2853828836232424,0,0.0,0.0,0.0,0.3252575652248512,0.11352081509729654,0.21173675012755466,0.4387783803221478,0.11352081509729654,0.2838441325972478,3,1,5,2,8,6,nan,nan,nan,nan,nan,nan,nan,nan,nan,nan,nan,nan,0.0,nan,nan,nan,nan,nan,nan,nan,nan,nan,nan,nan,nan,nan,nan,nan,nan,nan,nan,834.2195120491087,1279.6253206245601,nan,1279.9107035081834,nan,nan,nan,nan
1,260,1,1,1.0,1.0,0.30018727853894234,0,0.0,0.0,0.0,0.32510119392445275,0.11332541244362608,0.21177578148082665,0.43842660636807884,0.11332541244362608,0.2880240003578365,2,4,7,8,1,3,nan,nan,nan,nan,nan,nan,nan,nan,nan,nan,nan,nan,0.0,nan,nan,nan,nan,nan,nan,nan,nan,nan,nan,nan,nan,nan,nan,nan,nan,nan,nan,834.2195120491087,1280.6504882103764,nan,1280.9506754889153,nan,nan,nan,nan
1,261,1,1,1.0,1.0,0.2650023221503943,0,0.0,0.0,0.0,0.3250038739424781,0.1131145333636084,0.2118893405788697,0.4381184073060865,0.1131145333636084,0.28352416143752635,4,5,3,6,2,1,nan,nan,nan,nan,nan,nan,nan,nan,nan,nan,nan,nan,0.0,nan,nan,nan,nan,nan,nan,nan,nan,nan,nan,nan,nan,nan,nan,nan,nan,nan,nan,834.2195120491087,1281.7016222169623,nan,1281.9666245391127,nan,nan,nan,nan
1,262,1,1,1.0,1.0,0.27288775495253503,0,0.0,0.0,0.0,0.32477040486935715,0.11295603597391876,0.2118143688954384,0.43772644084327594,0.11295603597391876,0.27935911854729056,3,2,1,8,4,7,nan,nan,nan,nan,nan,nan,nan,nan,nan,nan,nan,nan,0.0,nan,nan,nan,nan,nan,nan,nan,nan,nan,nan,nan,nan,nan,nan,nan,nan,nan,nan,834.2195120491087,1282.7257195576094,nan,1282.998607312562,nan,nan,nan,nan
1,263,1,1,1.0,1.0,0.2876707680989057,0,0.0,0.0,0.0,0.32456930932704386,0.11278300070806663,0.21178630861897724,0.4373523100351105,0.11278300070806663,0.2751869484006117,5,1,3,6,7,2,nan,nan,nan,nan,nan,nan,nan,nan,nan,nan,nan,nan,0.0,nan,nan,nan,nan,nan,nan,nan,nan,nan,nan,nan,nan,nan,nan,nan,nan,nan,nan,834.2195120491087,1283.7509042490274,nan,1284.0385750171263,nan,nan,nan,nan
1,264,1,1,1.0,1.0,0.29463705606758595,0,0.0,0.0,0.0,0.32442684391689663,0.11258831968172939,0.21183852423516725,0.437015163598626,0.11258831968172939,0.28506519303967554,4,2,8,0,6,7,nan,nan,nan,nan,nan,nan,nan,nan,nan,nan,nan,nan,0.0,nan,nan,nan,nan,nan,nan,nan,nan,nan,nan,nan,nan,nan,nan,nan,nan,nan,nan,834.2195120491087,1284.775917598512,nan,1285.0705546545796,nan,nan,nan,nan
1,265,0,0,0.0,1.0,0.4534028470516205,0,0.0,0.0,0.0,0.3243122678097839,0.11238672276511964,0.21192554504466427,0.4366989905749035,0.11238672276511964,0.3452368904060374,6,8,4,1,2,5,nan,nan,nan,nan,nan,nan,nan,nan,nan,nan,nan,nan,0.0,nan,nan,nan,nan,nan,nan,nan,nan,nan,nan,nan,nan,nan,nan,nan,nan,nan,nan,834.2195120491087,1285.8010871799197,nan,1286.2544900269713,nan,nan,nan,nan
1,266,1,1,1.0,1.0,0.3722979798913002,0,0.0,0.0,0.0,0.3248068677302507,0.11245436958759399,0.21235249814265672,0.43726123731784466,0.11245436958759399,0.3734459610035022,8,4,6,7,5,3,nan,nan,nan,nan,nan,nan,nan,nan,nan,nan,nan,nan,0.0,nan,nan,nan,nan,nan,nan,nan,nan,nan,nan,nan,nan,nan,nan,nan,nan,nan,nan,834.2195120491087,1286.8261909044813,nan,1287.1984888843726,nan,nan,nan,nan
1,267,1,1,1.0,1.0,0.3471229816786945,0,0.0,0.0,0.0,0.3249881315171249,0.11227775239281287,0.21271037912431204,0.4372658839099378,0.11227775239281287,0.39094126954053837,5,0,4,3,7,6,nan,nan,nan,nan,nan,nan,nan,nan,nan,nan,nan,nan,0.0,nan,nan,nan,nan,nan,nan,nan,nan,nan,nan,nan,nan,nan,nan,nan,nan,nan,nan,834.2195120491087,1287.851325989468,nan,1288.1984489711467,nan,nan,nan,nan
1,268,1,1,1.0,1.0,0.3619829702656716,0,0.0,0.0,0.0,0.3250722944454959,0.11207237330044156,0.21299992114505434,0.43714466774593747,0.11207237330044156,0.36046797727855545,4,1,6,0,3,8,nan,nan,nan,nan,nan,nan,nan,nan,nan,nan,nan,nan,0.0,nan,nan,nan,nan,nan,nan,nan,nan,nan,nan,nan,nan,nan,nan,nan,nan,nan,nan,834.2195120491087,1288.8764046255965,nan,1289.2383875958622,nan,nan,nan,nan
1,269,1,1,1.0,1.0,0.288829107536003,0,0.0,0.0,0.0,0.32521210761148145,0.11188289113583322,0.21332921647564823,0.43709499874731467,0.11188289113583322,0.3326450198267897,3,4,2,1,7,5,nan,nan,nan,nan,nan,nan,nan,nan,nan,nan,nan,nan,0.0,nan,nan,nan,nan,nan,nan,nan,nan,nan,nan,nan,nan,nan,nan,nan,nan,nan,nan,834.2195120491087,1289.9015331536066,nan,1290.1903622611426,nan,nan,nan,nan
1,270,1,1,1.0,1.0,0.25602212571538985,0,0.0,0.0,0.0,0.32507481327157395,0.11169387068447852,0.21338094258709545,0.43676868395605245,0.11169387068447852,0.3022780678390215,0,8,4,2,5,6,nan,nan,nan,nan,nan,nan,nan,nan,nan,nan,nan,nan,0.0,nan,nan,nan,nan,nan,nan,nan,nan,nan,nan,nan,nan,nan,nan,nan,nan,nan,nan,834.2195120491087,1290.9183275091927,nan,1291.1743496349081,nan,nan,nan,nan
1,271,1,1,1.0,1.0,0.24715511174872518,0,0.0,0.0,0.0,0.3248152167018139,0.11156378778520663,0.21325142891660726,0.43637900448702055,0.11156378778520663,0.26400211500003934,6,0,1,4,3,5,nan,nan,nan,nan,nan,nan,nan,nan,nan,nan,nan,nan,0.0,nan,nan,nan,nan,nan,nan,nan,nan,nan,nan,nan,nan,nan,nan,nan,nan,nan,nan,834.2195120491087,1291.935163774062,nan,1292.1823188858107,nan,nan,nan,nan
1,272,1,1,1.0,1.0,0.3260613288730383,0,0.0,0.0,0.0,0.3245243548855102,0.11145567046276884,0.21306868442274135,0.435980025348279,0.11145567046276884,0.27641285544571775,1,3,0,8,7,2,nan,nan,nan,nan,nan,nan,nan,nan,nan,nan,nan,nan,0.0,nan,nan,nan,nan,nan,nan,nan,nan,nan,nan,nan,nan,nan,nan,nan,nan,nan,nan,834.2195120491087,1292.9602093393914,nan,1293.2862706682645,nan,nan,nan,nan
1,273,1,1,1.0,1.0,0.3012635111808777,0,0.0,0.0,0.0,0.3245300898630756,0.11124757591157512,0.21328251395150044,0.4357776657746507,0.11124757591157512,0.29149331726754707,3,5,8,6,2,4,nan,nan,nan,nan,nan,nan,nan,nan,nan,nan,nan,nan,0.0,nan,nan,nan,nan,nan,nan,nan,nan,nan,nan,nan,nan,nan,nan,nan,nan,nan,nan,834.2195120491087,1293.9770205155946,nan,1294.2782840267755,nan,nan,nan,nan
1,274,1,1,1.0,1.0,0.2920007857028395,0,0.0,0.0,0.0,0.32444359700552095,0.11104963096324728,0.21339396604227368,0.4354932279687682,0.11104963096324728,0.3064418752522518,0,4,3,7,1,6,nan,nan,nan,nan,nan,nan,nan,nan,nan,nan,nan,nan,0.0,nan,nan,nan,nan,nan,nan,nan,nan,nan,nan,nan,nan,nan,nan,nan,nan,nan,nan,834.2195120491087,1295.0022251638584,nan,1295.2942259495612,nan,nan,nan,nan
1,275,1,1,1.0,1.0,0.29094850132241845,0,0.0,0.0,0.0,0.32432343844514067,0.11086131079126427,0.2134621276538764,0.43518474923640493,0.11086131079126427,0.2947375994020452,1,3,7,4,0,5,nan,nan,nan,nan,nan,nan,nan,nan,nan,nan,nan,nan,0.0,nan,nan,nan,nan,nan,nan,nan,nan,nan,nan,nan,nan,nan,nan,nan,nan,nan,nan,834.2195120491087,1296.0272467811592,nan,1296.3181952824816,nan,nan,nan,nan
