block,trial,freq_trials,correct_response,actual_response,acc,rts,probe_trials,trials_colorind0,trials_colorind1,trials_colorind2,trials_colorind3,trials_colorind4,trials_colorind5,wholereport_resp0,wholereport_resp1,wholereport_resp2,wholereport_resp3,wholereport_resp4,wholereport_resp5,wholereport_respacc0,wholereport_respacc1,wholereport_respacc2,wholereport_respacc3,wholereport_respacc4,wholereport_respacc5,wholereport_respacc_total,wholereport_respcolorind0,wholereport_respcolorind1,wholereport_respcolorind2,wholereport_respcolorind3,wholereport_respcolorind4,wholereport_respcolorind5,wholereport_resporder0,wholereport_resporder1,wholereport_resporder2,wholereport_resporder3,wholereport_resporder4,wholereport_resporder5,wholereport_rts0,wholereport_rts1,wholereport_rts2,wholereport_rts3,wholereport_rts4,wholereport_rts5,time_blockstart,time_encarray_offset,time_encarray_onset,time_response,time_iti_offset,time_iti_onset,time_memprobe_offset,time_memprobe_onset
1,1,1,1,1.0,1.0,0.2819563812809065,0,6,3,5,7,1,8,nan,nan,nan,nan,nan,nan,nan,nan,nan,nan,nan,nan,0.0,nan,nan,nan,nan,nan,nan,nan,nan,nan,nan,nan,nan,nan,nan,nan,nan,nan,nan,214.74585739790928,215.75987789861392,nan,216.04183427989483,nan,nan,nan,nan
1,2,1,1,1.0,1.0,0.30541273776907474,0,7,4,0,6,3,5,nan,nan,nan,nan,nan,nan,nan,nan,nan,nan,nan,nan,0.0,nan,nan,nan,nan,nan,nan,nan,nan,nan,nan,nan,nan,nan,nan,nan,nan,nan,nan,214.74585739790928,216.7684194050962,nan,217.07383214286529,nan,nan,nan,nan
1,3,1,1,1.0,1.0,0.4250149248400703,0,3,0,4,5,2,8,nan,nan,nan,nan,nan,nan,nan,nan,nan,nan,nan,nan,0.0,nan,nan,nan,nan,nan,nan,nan,nan,nan,nan,nan,nan,nan,nan,nan,nan,nan,nan,214.74585739790928,217.77679241914302,nan,218.2018073439831,nan,nan,nan,nan
1,4,1,1,1.0,1.0,0.5204731014091522,0,2,4,5,3,8,0,nan,nan,nan,nan,nan,nan,nan,nan,nan,nan,nan,nan,0.0,nan,nan,nan,nan,nan,nan,nan,nan,nan,nan,nan,nan,nan,nan,nan,nan,nan,nan,214.74585739790928,218.78529030573554,nan,219.3057634071447,nan,nan,nan,nan
1,5,1,1,1.0,1.0,0.4800537578994408,0,6,3,2,4,0,8,nan,nan,nan,nan,nan,nan,nan,nan,nan,nan,nan,nan,0.0,nan,nan,nan,nan,nan,nan,nan,nan,nan,nan,nan,nan,nan,nan,nan,nan,nan,nan,214.74585739790928,219.79370636946987,nan,220.27376012736931,nan,nan,nan,nan
1,6,1,1,1.0,1.0,0.44754642655607313,0,8,0,7,1,2,6,nan,nan,nan,nan,nan,nan,nan,nan,nan,nan,nan,nan,0.0,nan,nan,nan,nan,nan,nan,nan,nan,nan,nan,nan,nan,nan,nan,nan,nan,nan,nan,214.74585739790928,220.80217061459552,nan,221.2497170411516,nan,nan,nan,nan
1,7,1,1,1.0,1.0,0.4630559890065342,0,3,7,6,8,4,1,nan,nan,nan,nan,nan,nan,nan,nan,nan,nan,nan,nan,0.0,nan,nan,nan,nan,nan,nan,nan,nan,nan,nan,nan,nan,nan,nan,nan,nan,nan,nan,214.74585739790928,221.81063314911444,nan,222.27368913812097,nan,nan,nan,nan
1,8,1,1,1.0,1.0,0.4465691141085699,0,6,3,0,1,8,4,nan,nan,nan,nan,nan,nan,nan,nan,nan,nan,nan,nan,0.0,nan,nan,nan,nan,nan,nan,nan,nan,nan,nan,nan,nan,nan,nan,nan,nan,nan,nan,214.74585739790928,222.81912989530247,nan,223.26569900941104,nan,nan,nan,nan
1,9,1,1,1.0,1.0,0.4941053342772648,0,1,0,8,5,3,2,nan,nan,nan,nan,nan,nan,nan,nan,nan,nan,nan,nan,0.0,nan,nan,nan,nan,nan,nan,nan,nan,nan,nan,nan,nan,nan,nan,nan,nan,nan,nan,214.74585739790928,223.82758473220747,nan,224.32169006648473,nan,nan,nan,nan
1,10,1,1,1.0,1.0,0.5099379115272313,0,5,7,0,6,2,4,nan,nan,nan,nan,nan,nan,nan,nan,nan,nan,nan,nan,0.0,nan,nan,nan,nan,nan,nan,nan,nan,nan,nan,nan,nan,nan,nan,nan,nan,nan,nan,214.74585739790928,224.82770789414644,nan,225.33764580567367,nan,nan,nan,nan
1,11,1,1,1.0,1.0,0.49348439287859946,0,4,6,5,2,7,3,nan,nan,nan,nan,nan,nan,nan,nan,nan,nan,nan,nan,0.0,nan,nan,nan,nan,nan,nan,nan,nan,nan,nan,nan,nan,nan,nan,nan,nan,nan,nan,214.74585739790928,225.8361658671638,nan,226.3296502600424,nan,nan,nan,nan
1,12,0,0,0.0,1.0,0.6610381864011288,0,8,5,6,4,3,2,nan,nan,nan,nan,nan,nan,nan,nan,nan,nan,nan,nan,0.0,nan,nan,nan,nan,nan,nan,nan,nan,nan,nan,nan,nan,nan,nan,nan,nan,nan,nan,214.74585739790928,226.8445901987143,nan,227.50562838511541,nan,nan,nan,nan
1,13,1,1,1.0,1.0,0.47651228273753077,0,0,1,4,7,2,5,nan,nan,nan,nan,nan,nan,nan,nan,nan,nan,nan,nan,0.0,nan,nan,nan,nan,nan,nan,nan,nan,nan,nan,nan,nan,nan,nan,nan,nan,nan,nan,214.74585739790928,227.85308865550905,nan,228.32960093824659,nan,nan,nan,nan
1,14,1,1,1.0,1.0,0.5723932583350688,0,3,0,1,5,7,4,nan,nan,nan,nan,nan,nan,nan,nan,nan,nan,nan,nan,0.0,nan,nan,nan,nan,nan,nan,nan,nan,nan,nan,nan,nan,nan,nan,nan,nan,nan,nan,214.74585739790928,228.85322008514777,nan,229.42561334348284,nan,nan,nan,nan
1,15,1,1,1.0,1.0,0.59624361875467,0,8,1,0,6,4,2,nan,nan,nan,nan,nan,nan,nan,nan,nan,nan,nan,nan,0.0,nan,nan,nan,nan,nan,nan,nan,nan,nan,nan,nan,nan,nan,nan,nan,nan,nan,nan,214.74585739790928,229.85330589942168,nan,230.44954951817635,nan,nan,nan,nan
1,16,1,1,1.0,1.0,0.45976311853155494,0,7,4,3,8,2,0,nan,nan,nan,nan,nan,nan,nan,nan,nan,nan,nan,nan,0.0,nan,nan,nan,nan,nan,nan,nan,nan,nan,nan,nan,nan,nan,nan,nan,nan,nan,nan,214.74585739790928,230.86175189830828,nan,231.32151501683984,nan,nan,nan,nan
1,17,1,1,1.0,1.0,0.38728775235358626,0,0,7,4,3,6,8,nan,nan,nan,nan,nan,nan,nan,nan,nan,nan,nan,nan,0.0,nan,nan,nan,nan,nan,nan,nan,nan,nan,nan,nan,nan,nan,nan,nan,nan,nan,nan,214.74585739790928,231.87021842424292,nan,232.2575061765965,nan,nan,nan,nan
1,18,1,1,1.0,1.0,0.36281331442296505,0,3,0,6,5,8,2,nan,nan,nan,nan,nan,nan,nan,nan,nan,nan,nan,nan,0.0,nan,nan,nan,nan,nan,nan,nan,nan,nan,nan,nan,nan,nan,nan,nan,nan,nan,nan,214.74585739790928,232.87868152896408,nan,233.24149484338704,nan,nan,nan,nan
1,19,1,1,1.0,1.0,0.3626479582162574,0,4,3,2,1,6,5,nan,nan,nan,nan,nan,nan,nan,nan,nan,nan,nan,nan,0.0,nan,nan,nan,nan,nan,nan,nan,nan,nan,nan,nan,nan,nan,nan,nan,nan,nan,nan,214.74585739790928,233.8788192308275,nan,234.24146718904376,nan,nan,nan,nan
1,20,1,1,1.0,1.0,0.4741559559479356,0,6,4,3,5,7,1,nan,nan,nan,nan,nan,nan,nan,nan,nan,nan,nan,nan,0.0,nan,nan,nan,nan,nan,nan,nan,nan,nan,nan,nan,nan,nan,nan,nan,nan,nan,nan,214.74585739790928,234.88730086688884,nan,235.36145682283677,nan,nan,nan,nan
1,21,1,1,1.0,1.0,0.4499922739341855,0,2,0,8,1,6,3,nan,nan,nan,nan,nan,nan,nan,nan,nan,nan,nan,nan,0.0,nan,nan,nan,nan,nan,nan,nan,nan,nan,nan,nan,nan,nan,nan,nan,nan,nan,nan,214.74585739790928,235.88743229652755,nan,236.33742457046174,nan,nan,nan,nan
1,22,1,1,1.0,1.0,0.4095506927696988,0,6,7,4,8,5,1,nan,nan,nan,nan,nan,nan,nan,nan,nan,nan,nan,nan,0.0,nan,nan,nan,nan,nan,nan,nan,nan,nan,nan,nan,nan,nan,nan,nan,nan,nan,nan,214.74585739790928,236.89586261520162,nan,237.30541330797132,nan,nan,nan,nan
1,23,0,0,0.0,1.0,0.5773804602213204,0,4,0,6,7,3,8,nan,nan,nan,nan,nan,nan,nan,nan,nan,nan,nan,nan,0.0,nan,nan,nan,nan,nan,nan,nan,nan,nan,nan,nan,nan,nan,nan,nan,nan,nan,nan,214.74585739790928,237.89601514209062,nan,238.47339560231194,nan,nan,nan,nan
1,24,1,1,1.0,1.0,0.49689101707190275,0,0,2,7,1,5,4,nan,nan,nan,nan,nan,nan,nan,nan,nan,nan,nan,nan,0.0,nan,nan,nan,nan,nan,nan,nan,nan,nan,nan,nan,nan,nan,nan,nan,nan,nan,nan,214.74585739790928,238.90447168960236,nan,239.40136270667426,nan,nan,nan,nan
1,25,1,1,1.0,1.0,0.5364730306901038,0,2,4,1,5,6,3,nan,nan,nan,nan,nan,nan,nan,nan,nan,nan,nan,nan,0.0,nan,nan,nan,nan,nan,nan,nan,nan,nan,nan,nan,nan,nan,nan,nan,nan,nan,nan,214.74585739790928,239.91288604272995,nan,240.44935907342006,nan,nan,nan,nan
1,26,1,1,1.0,1.0,0.4719233612995595,0,6,5,3,8,4,1,nan,nan,nan,nan,nan,nan,nan,nan,nan,nan,nan,nan,0.0,nan,nan,nan,nan,nan,nan,nan,nan,nan,nan,nan,nan,nan,nan,nan,nan,nan,nan,214.74585739790928,240.92139020143077,nan,241.39331356273033,nan,nan,nan,nan
1,27,1,1,1.0,1.0,0.47946873877663165,0,1,0,6,3,7,8,nan,nan,nan,nan,nan,nan,nan,nan,nan,nan,nan,nan,0.0,nan,nan,nan,nan,nan,nan,nan,nan,nan,nan,nan,nan,nan,nan,nan,nan,nan,nan,214.74585739790928,241.92981538828462,nan,242.40928412706126,nan,nan,nan,nan
1,28,1,1,1.0,1.0,0.5270023931516334,0,7,2,8,5,0,6,nan,nan,nan,nan,nan,nan,nan,nan,nan,nan,nan,nan,0.0,nan,nan,nan,nan,nan,nan,nan,nan,nan,nan,nan,nan,nan,nan,nan,nan,nan,nan,214.74585739790928,242.9382662337739,nan,243.46526862692554,nan,nan,nan,nan
1,29,1,1,1.0,1.0,0.44649669935461134,0,6,0,1,2,5,8,nan,nan,nan,nan,nan,nan,nan,nan,nan,nan,nan,nan,0.0,nan,nan,nan,nan,nan,nan,nan,nan,nan,nan,nan,nan,nan,nan,nan,nan,nan,nan,214.74585739790928,243.9467524314532,nan,244.39324913080782,nan,nan,nan,nan
1,30,0,0,1.0,0.0,0.494022085913457,0,3,8,7,4,6,1,nan,nan,nan,nan,nan,nan,nan,nan,nan,nan,nan,nan,0.0,nan,nan,nan,nan,nan,nan,nan,nan,nan,nan,nan,nan,nan,nan,nan,nan,nan,nan,214.74585739790928,244.95523207180668,nan,245.44925415772013,nan,nan,nan,nan
1,31,1,1,1.0,1.0,0.7338556690374389,1,5,7,6,1,0,3,1.0,1.0,1.0,1.0,1.0,1.0,0.0,0.0,0.0,0.0,0.0,0.0,0.0,7.0,2.0,1.0,6.0,3.0,4.0,6.0,1.0,2.0,3.0,4.0,5.0,7.456959759700112,1.4276671822881326,2.939743036404252,4.089366793865338,5.56217937276233,6.625769690726884,214.74585739790928,245.9553535231389,246.7637278486509,246.68920919217635,255.26478612876963,256.26375749870203,247.77219865098596,255.25646129611414
1,32,1,1,1.0,1.0,0.5437019504606724,0,7,0,3,6,5,2,nan,nan,nan,nan,nan,nan,nan,nan,nan,nan,nan,nan,0.0,nan,nan,nan,nan,nan,nan,nan,nan,nan,nan,nan,nan,nan,nan,nan,nan,nan,nan,214.74585739790928,256.47330494143534,nan,257.017006891896,nan,nan,nan,nan
1,33,0,0,0.0,1.0,0.6072078796569258,0,1,4,5,8,7,0,nan,nan,nan,nan,nan,nan,nan,nan,nan,nan,nan,nan,0.0,nan,nan,nan,nan,nan,nan,nan,nan,nan,nan,nan,nan,nan,nan,nan,nan,nan,nan,214.74585739790928,257.48176091874484,nan,258.08896879840177,nan,nan,nan,nan
1,34,1,1,1.0,1.0,0.6547714690677822,1,8,0,3,5,4,7,1.0,1.0,1.0,1.0,1.0,1.0,1.0,0.0,0.0,0.0,0.0,0.0,1.0,8.0,5.0,6.0,7.0,0.0,4.0,1.0,2.0,3.0,4.0,5.0,6.0,1.818632401060313,2.9162598807597533,4.363238679245114,5.105929504614323,7.105772986426018,8.32166070153471,214.74585739790928,258.490212904755,259.2986630660016,259.1449843738228,268.6748291840777,269.6794805418467,260.3154501481913,268.6664826840861
1,35,1,1,nan,nan,nan,0,6,3,5,4,2,1,nan,nan,nan,nan,nan,nan,nan,nan,nan,nan,nan,nan,0.0,nan,nan,nan,nan,nan,nan,nan,nan,nan,nan,nan,nan,nan,nan,nan,nan,nan,nan,214.74585739790928,269.88333944394253,nan,nan,nan,nan,nan,nan
1,36,1,1,1.0,1.0,0.5809205098776147,0,5,4,3,8,6,2,nan,nan,nan,nan,nan,nan,nan,nan,nan,nan,nan,nan,0.0,nan,nan,nan,nan,nan,nan,nan,nan,nan,nan,nan,nan,nan,nan,nan,nan,nan,nan,214.74585739790928,270.89176662638783,nan,271.47268713626545,nan,nan,nan,nan
1,37,1,1,1.0,1.0,0.49277364602312446,0,3,5,8,6,0,1,nan,nan,nan,nan,nan,nan,nan,nan,nan,nan,nan,nan,0.0,nan,nan,nan,nan,nan,nan,nan,nan,nan,nan,nan,nan,nan,nan,nan,nan,nan,nan,214.74585739790928,271.8919222893892,nan,272.3846959354123,nan,nan,nan,nan
1,38,1,1,1.0,1.0,0.34829360886942595,0,0,6,5,1,4,2,nan,nan,nan,nan,nan,nan,nan,nan,nan,nan,nan,nan,0.0,nan,nan,nan,nan,nan,nan,nan,nan,nan,nan,nan,nan,nan,nan,nan,nan,nan,nan,214.74585739790928,272.90035773965064,nan,273.24865134852007,nan,nan,nan,nan
1,39,1,1,1.0,1.0,0.33982907864265144,0,4,5,6,3,8,0,nan,nan,nan,nan,nan,nan,nan,nan,nan,nan,nan,nan,0.0,nan,nan,nan,nan,nan,nan,nan,nan,nan,nan,nan,nan,nan,nan,nan,nan,nan,nan,214.74585739790928,273.9088182785781,nan,274.24864735722076,nan,nan,nan,nan
1,40,1,1,1.0,1.0,0.46768567943945527,0,1,7,2,0,5,4,nan,nan,nan,nan,nan,nan,nan,nan,nan,nan,nan,nan,0.0,nan,nan,nan,nan,nan,nan,nan,nan,nan,nan,nan,nan,nan,nan,nan,nan,nan,nan,214.74585739790928,274.9089545549359,nan,275.3766402343754,nan,nan,nan,nan
1,41,1,1,1.0,1.0,0.5555158003699034,0,3,4,7,6,1,8,nan,nan,nan,nan,nan,nan,nan,nan,nan,nan,nan,nan,0.0,nan,nan,nan,nan,nan,nan,nan,nan,nan,nan,nan,nan,nan,nan,nan,nan,nan,nan,214.74585739790928,275.9090731552569,nan,276.4645889556268,nan,nan,nan,nan
1,42,1,1,1.0,1.0,0.507047598133795,0,5,6,1,4,3,0,nan,nan,nan,nan,nan,nan,nan,nan,nan,nan,nan,nan,0.0,nan,nan,nan,nan,nan,nan,nan,nan,nan,nan,nan,nan,nan,nan,nan,nan,nan,nan,214.74585739790928,276.9175311282743,nan,277.4245787264081,nan,nan,nan,nan
1,43,1,1,1.0,1.0,0.5629682361613959,0,0,4,7,3,6,2,nan,nan,nan,nan,nan,nan,nan,nan,nan,nan,nan,nan,0.0,nan,nan,nan,nan,nan,nan,nan,nan,nan,nan,nan,nan,nan,nan,nan,nan,nan,nan,214.74585739790928,277.917624355061,nan,278.4805925912224,nan,nan,nan,nan
1,44,1,1,1.0,1.0,0.586749603273347,0,3,7,0,5,1,6,nan,nan,nan,nan,nan,nan,nan,nan,nan,nan,nan,nan,0.0,nan,nan,nan,nan,nan,nan,nan,nan,nan,nan,nan,nan,nan,nan,nan,nan,nan,nan,214.74585739790928,278.91778942616656,nan,279.5045390294399,nan,nan,nan,nan
1,45,1,1,1.0,1.0,0.49825150007382035,0,4,8,6,0,7,5,nan,nan,nan,nan,nan,nan,nan,nan,nan,nan,nan,nan,0.0,nan,nan,nan,nan,nan,nan,nan,nan,nan,nan,nan,nan,nan,nan,nan,nan,nan,nan,214.74585739790928,279.92626165400725,nan,280.42451315408107,nan,nan,nan,nan
1,46,1,1,1.0,1.0,0.4898274535080418,0,5,1,3,7,0,2,nan,nan,nan,nan,nan,nan,nan,nan,nan,nan,nan,nan,0.0,nan,nan,nan,nan,nan,nan,nan,nan,nan,nan,nan,nan,nan,nan,nan,nan,nan,nan,214.74585739790928,280.9346982447896,nan,281.42452569829766,nan,nan,nan,nan
1,47,1,1,1.0,1.0,0.5216012302553281,0,8,2,0,4,3,1,nan,nan,nan,nan,nan,nan,nan,nan,nan,nan,nan,nan,0.0,nan,nan,nan,nan,nan,nan,nan,nan,nan,nan,nan,nan,nan,nan,nan,nan,nan,nan,214.74585739790928,281.93486017989926,nan,282.4564614101546,nan,nan,nan,nan
1,48,1,1,1.0,1.0,0.513175473199226,0,1,6,3,8,7,2,nan,nan,nan,nan,nan,nan,nan,nan,nan,nan,nan,nan,0.0,nan,nan,nan,nan,nan,nan,nan,nan,nan,nan,nan,nan,nan,nan,nan,nan,nan,nan,214.74585739790928,282.9432716820156,nan,283.45644715521485,nan,nan,nan,nan
1,49,1,1,1.0,1.0,0.5370098683051765,0,5,3,8,7,1,0,nan,nan,nan,nan,nan,nan,nan,nan,nan,nan,nan,nan,0.0,nan,nan,nan,nan,nan,nan,nan,nan,nan,nan,nan,nan,nan,nan,nan,nan,nan,nan,214.74585739790928,283.9434190772008,nan,284.480428945506,nan,nan,nan,nan
1,50,1,1,1.0,1.0,0.5848685331875458,0,8,6,5,0,2,7,nan,nan,nan,nan,nan,nan,nan,nan,nan,nan,nan,nan,0.0,nan,nan,nan,nan,nan,nan,nan,nan,nan,nan,nan,nan,nan,nan,nan,nan,nan,nan,214.74585739790928,284.94355592376087,nan,285.5284244569484,nan,nan,nan,nan
1,51,0,0,1.0,0.0,0.5924150510691106,0,2,4,6,5,0,3,nan,nan,nan,nan,nan,nan,nan,nan,nan,nan,nan,nan,0.0,nan,nan,nan,nan,nan,nan,nan,nan,nan,nan,nan,nan,nan,nan,nan,nan,nan,nan,214.74585739790928,285.9519936548313,nan,286.5444087059004,nan,nan,nan,nan
1,52,1,1,nan,nan,nan,0,6,8,2,0,7,1,nan,nan,nan,nan,nan,nan,nan,nan,nan,nan,nan,nan,0.0,nan,nan,nan,nan,nan,nan,nan,nan,nan,nan,nan,nan,nan,nan,nan,nan,nan,nan,214.74585739790928,286.96044735144824,nan,nan,nan,nan,nan,nan
1,53,1,1,1.0,1.0,0.7437736238352954,0,7,3,1,6,0,8,nan,nan,nan,nan,nan,nan,nan,nan,nan,nan,nan,nan,0.0,nan,nan,nan,nan,nan,nan,nan,nan,nan,nan,nan,nan,nan,nan,nan,nan,nan,nan,214.74585739790928,287.96056623687036,nan,288.70433986070566,nan,nan,nan,nan
1,54,1,1,1.0,1.0,0.6633098394377157,0,8,2,3,0,1,4,nan,nan,nan,nan,nan,nan,nan,nan,nan,nan,nan,nan,0.0,nan,nan,nan,nan,nan,nan,nan,nan,nan,nan,nan,nan,nan,nan,nan,nan,nan,nan,214.74585739790928,288.96904502192046,nan,289.6323548613582,nan,nan,nan,nan
1,55,1,1,1.0,1.0,0.6471009339438751,0,2,0,1,6,8,7,nan,nan,nan,nan,nan,nan,nan,nan,nan,nan,nan,nan,0.0,nan,nan,nan,nan,nan,nan,nan,nan,nan,nan,nan,nan,nan,nan,nan,nan,nan,nan,214.74585739790928,289.9691944128135,nan,290.6162953467574,nan,nan,nan,nan
1,56,1,1,1.0,1.0,0.591004676069133,0,5,6,4,7,2,3,nan,nan,nan,nan,nan,nan,nan,nan,nan,nan,nan,nan,0.0,nan,nan,nan,nan,nan,nan,nan,nan,nan,nan,nan,nan,nan,nan,nan,nan,nan,nan,214.74585739790928,290.9692899202928,nan,291.5602945963619,nan,nan,nan,nan
1,57,1,1,1.0,1.0,0.5108473710715771,0,3,5,0,1,4,6,nan,nan,nan,nan,nan,nan,nan,nan,nan,nan,nan,nan,0.0,nan,nan,nan,nan,nan,nan,nan,nan,nan,nan,nan,nan,nan,nan,nan,nan,nan,nan,214.74585739790928,291.96941422251984,nan,292.4802615935914,nan,nan,nan,nan
1,58,1,1,1.0,1.0,0.6306955968029797,0,7,2,6,8,1,0,nan,nan,nan,nan,nan,nan,nan,nan,nan,nan,nan,nan,0.0,nan,nan,nan,nan,nan,nan,nan,nan,nan,nan,nan,nan,nan,nan,nan,nan,nan,nan,214.74585739790928,292.9695396652678,nan,293.6002352620708,nan,nan,nan,nan
1,59,0,0,0.0,1.0,0.6465404334012419,0,3,6,5,4,7,2,nan,nan,nan,nan,nan,nan,nan,nan,nan,nan,nan,nan,0.0,nan,nan,nan,nan,nan,nan,nan,nan,nan,nan,nan,nan,nan,nan,nan,nan,nan,nan,214.74585739790928,293.9696631121915,nan,294.6162035455927,nan,nan,nan,nan
1,60,1,1,1.0,1.0,0.6224317748565227,0,5,4,7,3,6,8,nan,nan,nan,nan,nan,nan,nan,nan,nan,nan,nan,nan,0.0,nan,nan,nan,nan,nan,nan,nan,nan,nan,nan,nan,nan,nan,nan,nan,nan,nan,nan,214.74585739790928,294.96978256793227,nan,295.5922143427888,nan,nan,nan,nan
1,61,1,1,1.0,1.0,0.5822302454616874,0,3,6,1,0,5,4,nan,nan,nan,nan,nan,nan,nan,nan,nan,nan,nan,nan,0.0,nan,nan,nan,nan,nan,nan,nan,nan,nan,nan,nan,nan,nan,nan,nan,nan,nan,nan,214.74585739790928,295.9699504900491,nan,296.5521807355108,nan,nan,nan,nan
1,62,1,1,1.0,1.0,0.566108864848502,0,6,3,8,2,0,7,nan,nan,nan,nan,nan,nan,nan,nan,nan,nan,nan,nan,0.0,nan,nan,nan,nan,nan,nan,nan,nan,nan,nan,nan,nan,nan,nan,nan,nan,nan,nan,214.74585739790928,296.97005341004115,nan,297.53616227488965,nan,nan,nan,nan
1,63,1,1,1.0,1.0,0.3899656686699018,0,3,1,6,7,4,2,nan,nan,nan,nan,nan,nan,nan,nan,nan,nan,nan,nan,0.0,nan,nan,nan,nan,nan,nan,nan,nan,nan,nan,nan,nan,nan,nan,nan,nan,nan,nan,214.74585739790928,297.97016545315273,nan,298.36013112182263,nan,nan,nan,nan
1,64,1,1,1.0,1.0,0.685841626371257,0,8,0,2,4,6,1,nan,nan,nan,nan,nan,nan,nan,nan,nan,nan,nan,nan,0.0,nan,nan,nan,nan,nan,nan,nan,nan,nan,nan,nan,nan,nan,nan,nan,nan,nan,nan,214.74585739790928,298.9703040103195,nan,299.6561456366908,nan,nan,nan,nan
1,65,1,1,nan,nan,nan,0,4,5,3,8,0,7,nan,nan,nan,nan,nan,nan,nan,nan,nan,nan,nan,nan,0.0,nan,nan,nan,nan,nan,nan,nan,nan,nan,nan,nan,nan,nan,nan,nan,nan,nan,nan,214.74585739790928,299.9704263169551,nan,nan,nan,nan,nan,nan
1,66,1,1,nan,nan,nan,0,5,6,2,7,8,1,nan,nan,nan,nan,nan,nan,nan,nan,nan,nan,nan,nan,0.0,nan,nan,nan,nan,nan,nan,nan,nan,nan,nan,nan,nan,nan,nan,nan,nan,nan,nan,214.74585739790928,300.97887744766194,nan,nan,nan,nan,nan,nan
1,67,0,0,0.0,1.0,0.7730311342747882,0,0,2,4,1,5,8,nan,nan,nan,nan,nan,nan,nan,nan,nan,nan,nan,nan,0.0,nan,nan,nan,nan,nan,nan,nan,nan,nan,nan,nan,nan,nan,nan,nan,nan,nan,nan,214.74585739790928,301.9790171451168,nan,302.7520482793916,nan,nan,nan,nan
1,68,1,1,1.0,1.0,0.708557300735265,0,5,3,0,2,6,1,nan,nan,nan,nan,nan,nan,nan,nan,nan,nan,nan,nan,0.0,nan,nan,nan,nan,nan,nan,nan,nan,nan,nan,nan,nan,nan,nan,nan,nan,nan,nan,214.74585739790928,302.9874856667593,nan,303.6960429674946,nan,nan,nan,nan
1,69,1,1,1.0,1.0,0.644400495220907,0,6,4,3,1,8,7,nan,nan,nan,nan,nan,nan,nan,nan,nan,nan,nan,nan,0.0,nan,nan,nan,nan,nan,nan,nan,nan,nan,nan,nan,nan,nan,nan,nan,nan,nan,nan,214.74585739790928,303.9876082583796,nan,304.63200875360053,nan,nan,nan,nan
1,70,1,1,1.0,1.0,0.635967610636726,0,5,1,4,7,2,0,nan,nan,nan,nan,nan,nan,nan,nan,nan,nan,nan,nan,0.0,nan,nan,nan,nan,nan,nan,nan,nan,nan,nan,nan,nan,nan,nan,nan,nan,nan,nan,214.74585739790928,304.99603686644696,nan,305.6320044770837,nan,nan,nan,nan
1,71,1,1,1.0,1.0,0.5158177523408085,0,2,5,0,4,8,7,nan,nan,nan,nan,nan,nan,nan,nan,nan,nan,nan,nan,0.0,nan,nan,nan,nan,nan,nan,nan,nan,nan,nan,nan,nan,nan,nan,nan,nan,nan,nan,214.74585739790928,305.99616316438187,nan,306.5119809167227,nan,nan,nan,nan
1,72,0,0,0.0,1.0,0.6833396148867905,0,6,2,1,7,3,0,nan,nan,nan,nan,nan,nan,nan,nan,nan,nan,nan,nan,0.0,nan,nan,nan,nan,nan,nan,nan,nan,nan,nan,nan,nan,nan,nan,nan,nan,nan,nan,214.74585739790928,307.00461771630216,nan,307.68795733118895,nan,nan,nan,nan
1,73,1,1,1.0,1.0,0.5948249761713669,0,7,3,0,6,1,5,nan,nan,nan,nan,nan,nan,nan,nan,nan,nan,nan,nan,0.0,nan,nan,nan,nan,nan,nan,nan,nan,nan,nan,nan,nan,nan,nan,nan,nan,nan,nan,214.74585739790928,308.0130919397343,nan,308.60791691590566,nan,nan,nan,nan
1,74,1,1,1.0,1.0,0.5627350268187001,0,6,8,1,0,2,4,nan,nan,nan,nan,nan,nan,nan,nan,nan,nan,nan,nan,0.0,nan,nan,nan,nan,nan,nan,nan,nan,nan,nan,nan,nan,nan,nan,nan,nan,nan,nan,214.74585739790928,309.01321481657214,nan,309.57594984339084,nan,nan,nan,nan
1,75,1,1,1.0,1.0,0.47455281112343073,0,2,6,0,5,7,1,nan,nan,nan,nan,nan,nan,nan,nan,nan,nan,nan,nan,0.0,nan,nan,nan,nan,nan,nan,nan,nan,nan,nan,nan,nan,nan,nan,nan,nan,nan,nan,214.74585739790928,310.013345676125,nan,310.48789848724846,nan,nan,nan,nan
1,76,1,1,1.0,1.0,0.5064198145410046,0,6,7,5,2,0,8,nan,nan,nan,nan,nan,nan,nan,nan,nan,nan,nan,nan,0.0,nan,nan,nan,nan,nan,nan,nan,nan,nan,nan,nan,nan,nan,nan,nan,nan,nan,nan,214.74585739790928,311.0134554384276,nan,311.51987525296863,nan,nan,nan,nan
1,77,1,1,1.0,1.0,0.4502924809930846,0,0,6,4,1,5,7,nan,nan,nan,nan,nan,nan,nan,nan,nan,nan,nan,nan,0.0,nan,nan,nan,nan,nan,nan,nan,nan,nan,nan,nan,nan,nan,nan,nan,nan,nan,nan,214.74585739790928,312.01357261335943,nan,312.4638650943525,nan,nan,nan,nan
1,78,1,1,1.0,1.0,0.4661281944718212,0,7,4,3,8,1,6,nan,nan,nan,nan,nan,nan,nan,nan,nan,nan,nan,nan,0.0,nan,nan,nan,nan,nan,nan,nan,nan,nan,nan,nan,nan,nan,nan,nan,nan,nan,nan,214.74585739790928,313.01371288101654,nan,313.47984107548837,nan,nan,nan,nan
1,79,1,1,1.0,1.0,0.47362168424297124,0,4,2,6,1,7,8,nan,nan,nan,nan,nan,nan,nan,nan,nan,nan,nan,nan,0.0,nan,nan,nan,nan,nan,nan,nan,nan,nan,nan,nan,nan,nan,nan,nan,nan,nan,nan,214.74585739790928,314.02218026225455,nan,314.4958019464975,nan,nan,nan,nan
1,80,1,1,1.0,1.0,0.5531714477110654,1,0,4,5,2,8,6,1.0,1.0,1.0,1.0,1.0,1.0,0.0,1.0,1.0,0.0,0.0,0.0,2.0,8.0,4.0,5.0,3.0,7.0,5.0,6.0,2.0,1.0,4.0,3.0,5.0,8.98067013756372,3.0051425797864795,1.9273273466387764,5.692755798925646,4.662200526916422,7.141224514460191,214.74585739790928,315.0306345289573,315.8390496233478,315.5838059766684,325.8653264446184,326.8679781318642,316.84753610612825,325.8569876421243
1,81,1,1,1.0,1.0,0.365755800739862,0,4,1,8,7,2,0,nan,nan,nan,nan,nan,nan,nan,nan,nan,nan,nan,nan,0.0,nan,nan,nan,nan,nan,nan,nan,nan,nan,nan,nan,nan,nan,nan,nan,nan,nan,nan,214.74585739790928,327.07380505860783,nan,327.4395608593477,nan,nan,nan,nan
1,82,1,1,nan,nan,nan,0,1,3,6,8,5,4,nan,nan,nan,nan,nan,nan,nan,nan,nan,nan,nan,nan,0.0,nan,nan,nan,nan,nan,nan,nan,nan,nan,nan,nan,nan,nan,nan,nan,nan,nan,nan,214.74585739790928,328.0822961028898,nan,nan,nan,nan,nan,nan
1,83,1,1,1.0,1.0,0.5006782457930967,0,5,7,4,2,3,0,nan,nan,nan,nan,nan,nan,nan,nan,nan,nan,nan,nan,0.0,nan,nan,nan,nan,nan,nan,nan,nan,nan,nan,nan,nan,nan,nan,nan,nan,nan,nan,214.74585739790928,329.0908088145079,nan,329.591487060301,nan,nan,nan,nan
1,84,1,1,1.0,1.0,0.524595889262855,0,0,4,2,7,6,5,nan,nan,nan,nan,nan,nan,nan,nan,nan,nan,nan,nan,0.0,nan,nan,nan,nan,nan,nan,nan,nan,nan,nan,nan,nan,nan,nan,nan,nan,nan,nan,214.74585739790928,330.0908741017338,nan,330.61546999099664,nan,nan,nan,nan
1,85,1,1,1.0,1.0,0.5641160367522389,0,8,6,0,4,3,7,nan,nan,nan,nan,nan,nan,nan,nan,nan,nan,nan,nan,0.0,nan,nan,nan,nan,nan,nan,nan,nan,nan,nan,nan,nan,nan,nan,nan,nan,nan,nan,214.74585739790928,331.09935887379106,nan,331.6634749105433,nan,nan,nan,nan
1,86,1,1,1.0,1.0,0.38766522076912224,0,1,2,5,6,4,0,nan,nan,nan,nan,nan,nan,nan,nan,nan,nan,nan,nan,0.0,nan,nan,nan,nan,nan,nan,nan,nan,nan,nan,nan,nan,nan,nan,nan,nan,nan,nan,214.74585739790928,332.10777921404224,nan,332.49544443481136,nan,nan,nan,nan
1,87,1,1,1.0,1.0,0.4911782431881875,0,4,8,6,1,0,3,nan,nan,nan,nan,nan,nan,nan,nan,nan,nan,nan,nan,0.0,nan,nan,nan,nan,nan,nan,nan,nan,nan,nan,nan,nan,nan,nan,nan,nan,nan,nan,214.74585739790928,333.1162320552394,nan,333.60741029842757,nan,nan,nan,nan
1,88,0,0,0.0,1.0,0.5629833462880924,0,7,6,8,4,2,1,nan,nan,nan,nan,nan,nan,nan,nan,nan,nan,nan,nan,0.0,nan,nan,nan,nan,nan,nan,nan,nan,nan,nan,nan,nan,nan,nan,nan,nan,nan,nan,214.74585739790928,334.1164273467148,nan,334.67941069300286,nan,nan,nan,nan
1,89,1,1,1.0,1.0,0.5065609373850748,0,3,8,5,1,7,4,nan,nan,nan,nan,nan,nan,nan,nan,nan,nan,nan,nan,0.0,nan,nan,nan,nan,nan,nan,nan,nan,nan,nan,nan,nan,nan,nan,nan,nan,nan,nan,214.74585739790928,335.12483029603027,nan,335.63139123341534,nan,nan,nan,nan
1,90,1,1,1.0,1.0,0.4264213084243238,0,4,2,0,6,1,8,nan,nan,nan,nan,nan,nan,nan,nan,nan,nan,nan,nan,0.0,nan,nan,nan,nan,nan,nan,nan,nan,nan,nan,nan,nan,nan,nan,nan,nan,nan,nan,214.74585739790928,336.12496258097235,nan,336.5513838893967,nan,nan,nan,nan
1,91,1,1,1.0,1.0,0.5539329417515546,0,3,1,4,0,8,2,nan,nan,nan,nan,nan,nan,nan,nan,nan,nan,nan,nan,0.0,nan,nan,nan,nan,nan,nan,nan,nan,nan,nan,nan,nan,nan,nan,nan,nan,nan,nan,214.74585739790928,337.1334139967803,nan,337.68734693853185,nan,nan,nan,nan
1,92,1,1,1.0,1.0,0.4577936683781445,0,5,7,3,6,4,1,nan,nan,nan,nan,nan,nan,nan,nan,nan,nan,nan,nan,0.0,nan,nan,nan,nan,nan,nan,nan,nan,nan,nan,nan,nan,nan,nan,nan,nan,nan,nan,214.74585739790928,338.13355112844147,nan,338.5913447968196,nan,nan,nan,nan
1,93,1,1,1.0,1.0,0.48929745820350945,0,4,0,1,7,2,5,nan,nan,nan,nan,nan,nan,nan,nan,nan,nan,nan,nan,0.0,nan,nan,nan,nan,nan,nan,nan,nan,nan,nan,nan,nan,nan,nan,nan,nan,nan,nan,214.74585739790928,339.14208009059075,nan,339.63137754879426,nan,nan,nan,nan
1,94,1,1,1.0,1.0,0.528858374687843,0,1,3,5,6,7,4,nan,nan,nan,nan,nan,nan,nan,nan,nan,nan,nan,nan,0.0,nan,nan,nan,nan,nan,nan,nan,nan,nan,nan,nan,nan,nan,nan,nan,nan,nan,nan,214.74585739790928,340.15043400309514,nan,340.679292377783,nan,nan,nan,nan
1,95,1,1,1.0,1.0,0.5206430192338303,0,7,4,0,5,8,1,nan,nan,nan,nan,nan,nan,nan,nan,nan,nan,nan,nan,0.0,nan,nan,nan,nan,nan,nan,nan,nan,nan,nan,nan,nan,nan,nan,nan,nan,nan,nan,214.74585739790928,341.1506059166277,nan,341.6712489358615,nan,nan,nan,nan
1,96,1,1,nan,nan,nan,0,3,0,1,8,5,4,nan,nan,nan,nan,nan,nan,nan,nan,nan,nan,nan,nan,0.0,nan,nan,nan,nan,nan,nan,nan,nan,nan,nan,nan,nan,nan,nan,nan,nan,nan,nan,214.74585739790928,342.15072993387,nan,nan,nan,nan,nan,nan
1,97,0,0,0.0,1.0,0.7043492689263076,0,6,5,2,0,4,8,nan,nan,nan,nan,nan,nan,nan,nan,nan,nan,nan,nan,0.0,nan,nan,nan,nan,nan,nan,nan,nan,nan,nan,nan,nan,nan,nan,nan,nan,nan,nan,214.74585739790928,343.1508339942666,nan,343.8551832631929,nan,nan,nan,nan
1,98,1,1,1.0,1.0,0.7359243329847232,0,5,3,1,7,2,6,nan,nan,nan,nan,nan,nan,nan,nan,nan,nan,nan,nan,0.0,nan,nan,nan,nan,nan,nan,nan,nan,nan,nan,nan,nan,nan,nan,nan,nan,nan,nan,214.74585739790928,344.15927058493253,nan,344.89519491791725,nan,nan,nan,nan
1,99,1,1,1.0,1.0,0.6317142483312637,0,6,2,0,3,5,1,nan,nan,nan,nan,nan,nan,nan,nan,nan,nan,nan,nan,0.0,nan,nan,nan,nan,nan,nan,nan,nan,nan,nan,nan,nan,nan,nan,nan,nan,nan,nan,214.74585739790928,345.15943850716576,nan,345.791152755497,nan,nan,nan,nan
1,100,1,1,1.0,1.0,0.6232802235754207,0,8,0,5,2,6,3,nan,nan,nan,nan,nan,nan,nan,nan,nan,nan,nan,nan,0.0,nan,nan,nan,nan,nan,nan,nan,nan,nan,nan,nan,nan,nan,nan,nan,nan,nan,nan,214.74585739790928,346.1678688257234,nan,346.79114904929884,nan,nan,nan,nan
1,101,1,1,1.0,1.0,0.623143662000075,0,2,3,8,1,4,5,nan,nan,nan,nan,nan,nan,nan,nan,nan,nan,nan,nan,0.0,nan,nan,nan,nan,nan,nan,nan,nan,nan,nan,nan,nan,nan,nan,nan,nan,nan,nan,214.74585739790928,347.16799882997293,nan,347.791142491973,nan,nan,nan,nan
1,102,1,1,1.0,1.0,0.6229828674113378,0,1,0,7,2,5,3,nan,nan,nan,nan,nan,nan,nan,nan,nan,nan,nan,nan,0.0,nan,nan,nan,nan,nan,nan,nan,nan,nan,nan,nan,nan,nan,nan,nan,nan,nan,nan,214.74585739790928,348.16812398750335,nan,348.7911068549147,nan,nan,nan,nan
1,103,1,1,1.0,1.0,0.6708361153723672,0,5,2,8,0,6,7,nan,nan,nan,nan,nan,nan,nan,nan,nan,nan,nan,nan,0.0,nan,nan,nan,nan,nan,nan,nan,nan,nan,nan,nan,nan,nan,nan,nan,nan,nan,nan,214.74585739790928,349.1682454388356,nan,349.83908155420795,nan,nan,nan,nan
1,104,1,1,1.0,1.0,0.5987245329888538,0,6,5,4,3,0,1,nan,nan,nan,nan,nan,nan,nan,nan,nan,nan,nan,nan,0.0,nan,nan,nan,nan,nan,nan,nan,nan,nan,nan,nan,nan,nan,nan,nan,nan,nan,nan,214.74585739790928,350.16836232866626,nan,350.7670868616551,nan,nan,nan,nan
1,105,1,1,1.0,1.0,0.5425598517758772,0,7,0,3,4,8,2,nan,nan,nan,nan,nan,nan,nan,nan,nan,nan,nan,nan,0.0,nan,nan,nan,nan,nan,nan,nan,nan,nan,nan,nan,nan,nan,nan,nan,nan,nan,nan,214.74585739790928,351.1684977497207,nan,351.7110576014966,nan,nan,nan,nan
1,106,0,0,0.0,1.0,0.7584250443615019,0,0,4,5,8,2,1,nan,nan,nan,nan,nan,nan,nan,nan,nan,nan,nan,nan,0.0,nan,nan,nan,nan,nan,nan,nan,nan,nan,nan,nan,nan,nan,nan,nan,nan,nan,nan,214.74585739790928,352.1686237625545,nan,352.927048806916,nan,nan,nan,nan
1,107,1,1,1.0,1.0,0.5979308228706941,0,6,2,1,5,7,3,nan,nan,nan,nan,nan,nan,nan,nan,nan,nan,nan,nan,0.0,nan,nan,nan,nan,nan,nan,nan,nan,nan,nan,nan,nan,nan,nan,nan,nan,nan,nan,214.74585739790928,353.1770760336658,nan,353.7750068565365,nan,nan,nan,nan
1,108,1,1,1.0,1.0,0.5097765466198325,0,4,6,5,3,1,8,nan,nan,nan,nan,nan,nan,nan,nan,nan,nan,nan,nan,0.0,nan,nan,nan,nan,nan,nan,nan,nan,nan,nan,nan,nan,nan,nan,nan,nan,nan,nan,214.74585739790928,354.1772034720052,nan,354.68698001862504,nan,nan,nan,nan
1,109,1,1,1.0,1.0,0.4936389154754579,0,5,4,7,8,6,2,nan,nan,nan,nan,nan,nan,nan,nan,nan,nan,nan,nan,0.0,nan,nan,nan,nan,nan,nan,nan,nan,nan,nan,nan,nan,nan,nan,nan,nan,nan,nan,214.74585739790928,355.17733290605247,nan,355.6709718215279,nan,nan,nan,nan
1,110,1,1,1.0,1.0,0.5814656153088436,0,0,2,8,4,3,1,nan,nan,nan,nan,nan,nan,nan,nan,nan,nan,nan,nan,0.0,nan,nan,nan,nan,nan,nan,nan,nan,nan,nan,nan,nan,nan,nan,nan,nan,nan,nan,214.74585739790928,356.1774771651253,nan,356.75894278043415,nan,nan,nan,nan
1,111,1,1,1.0,1.0,0.4933344320161268,0,8,5,6,3,7,0,nan,nan,nan,nan,nan,nan,nan,nan,nan,nan,nan,nan,0.0,nan,nan,nan,nan,nan,nan,nan,nan,nan,nan,nan,nan,nan,nan,nan,nan,nan,nan,214.74585739790928,357.1775869274279,nan,357.67092135944404,nan,nan,nan,nan
1,112,1,1,1.0,1.0,0.5331827261252329,0,1,7,2,8,3,5,nan,nan,nan,nan,nan,nan,nan,nan,nan,nan,nan,nan,0.0,nan,nan,nan,nan,nan,nan,nan,nan,nan,nan,nan,nan,nan,nan,nan,nan,nan,nan,214.74585739790928,358.1777112297714,nan,358.7108939558966,nan,nan,nan,nan
1,113,1,1,1.0,1.0,0.5330398924415931,0,6,3,1,5,4,2,nan,nan,nan,nan,nan,nan,nan,nan,nan,nan,nan,nan,0.0,nan,nan,nan,nan,nan,nan,nan,nan,nan,nan,nan,nan,nan,nan,nan,nan,nan,nan,214.74585739790928,359.17783581721596,nan,359.71087570965756,nan,nan,nan,nan
1,114,1,1,1.0,1.0,0.4768963084788993,0,5,1,3,0,8,7,nan,nan,nan,nan,nan,nan,nan,nan,nan,nan,nan,nan,0.0,nan,nan,nan,nan,nan,nan,nan,nan,nan,nan,nan,nan,nan,nan,nan,nan,nan,nan,214.74585739790928,360.17796439595986,nan,360.65486070443876,nan,nan,nan,nan
1,115,0,0,0.0,1.0,0.604461255017668,0,7,8,5,6,4,3,nan,nan,nan,nan,nan,nan,nan,nan,nan,nan,nan,nan,0.0,nan,nan,nan,nan,nan,nan,nan,nan,nan,nan,nan,nan,nan,nan,nan,nan,nan,nan,214.74585739790928,361.1863995611202,nan,361.79086081613787,nan,nan,nan,nan
1,116,1,1,1.0,1.0,0.5882885569008067,0,8,7,2,3,6,1,nan,nan,nan,nan,nan,nan,nan,nan,nan,nan,nan,nan,0.0,nan,nan,nan,nan,nan,nan,nan,nan,nan,nan,nan,nan,nan,nan,nan,nan,nan,nan,214.74585739790928,362.1865346971899,nan,362.77482325409073,nan,nan,nan,nan
1,117,1,1,1.0,1.0,0.5161307888338342,1,7,3,6,2,4,0,1.0,1.0,1.0,1.0,1.0,1.0,1.0,1.0,1.0,1.0,0.0,1.0,5.0,7.0,3.0,6.0,2.0,1.0,0.0,2.0,3.0,1.0,4.0,5.0,6.0,2.8576020263135433,3.7613373103085905,1.593495853827335,4.55218216101639,6.215425287839025,7.09515141218435,214.74585739790928,363.1866766754538,363.99513139831834,363.7028074642876,372.13775659445673,373.13663958432153,365.0035468918504,372.12942349386867
1,118,1,1,1.0,1.0,0.5886526259128004,0,3,2,5,4,8,6,nan,nan,nan,nan,nan,nan,nan,nan,nan,nan,nan,nan,0.0,nan,nan,nan,nan,nan,nan,nan,nan,nan,nan,nan,nan,nan,nan,nan,nan,nan,nan,214.74585739790928,373.3379363195272,nan,373.92658894544,nan,nan,nan,nan
1,119,1,1,1.0,1.0,0.5485765391495079,0,0,6,4,3,1,5,nan,nan,nan,nan,nan,nan,nan,nan,nan,nan,nan,nan,0.0,nan,nan,nan,nan,nan,nan,nan,nan,nan,nan,nan,nan,nan,nan,nan,nan,nan,nan,214.74585739790928,374.33805406466126,nan,374.8866306038108,nan,nan,nan,nan
1,120,1,1,1.0,1.0,0.4043892965419218,0,6,5,7,4,3,2,nan,nan,nan,nan,nan,nan,nan,nan,nan,nan,nan,nan,0.0,nan,nan,nan,nan,nan,nan,nan,nan,nan,nan,nan,nan,nan,nan,nan,nan,nan,nan,214.74585739790928,375.3381755159935,nan,375.7425648125354,nan,nan,nan,nan
1,121,1,1,1.0,1.0,0.38821403263136744,0,5,2,8,7,4,1,nan,nan,nan,nan,nan,nan,nan,nan,nan,nan,nan,nan,0.0,nan,nan,nan,nan,nan,nan,nan,nan,nan,nan,nan,nan,nan,nan,nan,nan,nan,nan,214.74585739790928,376.3383080860367,nan,376.7265221186681,nan,nan,nan,nan
1,122,1,1,1.0,1.0,0.548055381863378,0,4,8,6,3,7,2,nan,nan,nan,nan,nan,nan,nan,nan,nan,nan,nan,nan,0.0,nan,nan,nan,nan,nan,nan,nan,nan,nan,nan,nan,nan,nan,nan,nan,nan,nan,nan,214.74585739790928,377.33843609457836,nan,377.88649147644173,nan,nan,nan,nan
1,123,1,1,1.0,1.0,0.4439342475961894,0,3,4,5,1,0,6,nan,nan,nan,nan,nan,nan,nan,nan,nan,nan,nan,nan,0.0,nan,nan,nan,nan,nan,nan,nan,nan,nan,nan,nan,nan,nan,nan,nan,nan,nan,nan,214.74585739790928,378.3385412953794,nan,378.7824755429756,nan,nan,nan,nan
1,124,1,1,1.0,1.0,0.515774987754412,0,2,1,0,4,3,8,nan,nan,nan,nan,nan,nan,nan,nan,nan,nan,nan,nan,0.0,nan,nan,nan,nan,nan,nan,nan,nan,nan,nan,nan,nan,nan,nan,nan,nan,nan,nan,214.74585739790928,379.3386812780518,nan,379.8544562658062,nan,nan,nan,nan
1,125,1,1,1.0,1.0,0.4356285163667053,1,1,3,6,7,0,4,1.0,1.0,1.0,1.0,1.0,1.0,0.0,1.0,1.0,1.0,0.0,0.0,3.0,4.0,3.0,6.0,7.0,8.0,5.0,6.0,3.0,2.0,1.0,4.0,5.0,7.814253025804646,4.767973798443563,3.6169852815801278,2.03882222995162,5.8944379853783175,6.702930056024343,214.74585739790928,380.3388315241318,381.1472514652414,380.7744600404985,390.0149929666659,391.0138913517585,382.16404538974166,390.00666528299917
1,126,1,1,1.0,1.0,0.5990535349119455,0,2,4,1,6,8,5,nan,nan,nan,nan,nan,nan,nan,nan,nan,nan,nan,nan,0.0,nan,nan,nan,nan,nan,nan,nan,nan,nan,nan,nan,nan,nan,nan,nan,nan,nan,nan,214.74585739790928,391.21516955574043,nan,391.8142230906524,nan,nan,nan,nan
1,127,1,1,1.0,1.0,0.5588884979952127,0,8,2,7,4,5,6,nan,nan,nan,nan,nan,nan,nan,nan,nan,nan,nan,nan,0.0,nan,nan,nan,nan,nan,nan,nan,nan,nan,nan,nan,nan,nan,nan,nan,nan,nan,nan,214.74585739790928,392.21530212578364,nan,392.77419062377885,nan,nan,nan,nan
1,128,1,1,1.0,1.0,0.4067407767288387,0,3,1,5,0,8,7,nan,nan,nan,nan,nan,nan,nan,nan,nan,nan,nan,nan,0.0,nan,nan,nan,nan,nan,nan,nan,nan,nan,nan,nan,nan,nan,nan,nan,nan,nan,nan,214.74585739790928,393.21543355553877,nan,393.6221743322676,nan,nan,nan,nan
1,129,1,1,1.0,1.0,0.38263211818411946,0,4,5,8,6,2,3,nan,nan,nan,nan,nan,nan,nan,nan,nan,nan,nan,nan,0.0,nan,nan,nan,nan,nan,nan,nan,nan,nan,nan,nan,nan,nan,nan,nan,nan,nan,nan,214.74585739790928,394.2155487347627,nan,394.5981808529468,nan,nan,nan,nan
1,130,1,1,1.0,1.0,0.3421013018814847,0,2,1,7,3,4,0,nan,nan,nan,nan,nan,nan,nan,nan,nan,nan,nan,nan,0.0,nan,nan,nan,nan,nan,nan,nan,nan,nan,nan,nan,nan,nan,nan,nan,nan,nan,nan,214.74585739790928,395.2240326515166,nan,395.5661339533981,nan,nan,nan,nan
1,131,1,1,1.0,1.0,0.3259633855195716,0,3,5,2,1,8,6,nan,nan,nan,nan,nan,nan,nan,nan,nan,nan,nan,nan,0.0,nan,nan,nan,nan,nan,nan,nan,nan,nan,nan,nan,nan,nan,nan,nan,nan,nan,nan,214.74585739790928,396.22414127353113,nan,396.5501046590507,nan,nan,nan,nan
1,132,1,1,1.0,1.0,0.4218360931845382,0,2,8,5,6,3,4,nan,nan,nan,nan,nan,nan,nan,nan,nan,nan,nan,nan,0.0,nan,nan,nan,nan,nan,nan,nan,nan,nan,nan,nan,nan,nan,nan,nan,nan,nan,nan,214.74585739790928,397.22425246133935,nan,397.6460885545239,nan,nan,nan,nan
1,133,1,1,1.0,1.0,0.3176867342554033,0,7,3,8,2,4,5,nan,nan,nan,nan,nan,nan,nan,nan,nan,nan,nan,nan,0.0,nan,nan,nan,nan,nan,nan,nan,nan,nan,nan,nan,nan,nan,nan,nan,nan,nan,nan,214.74585739790928,398.2243830357911,nan,398.5420697700465,nan,nan,nan,nan
1,134,1,1,1.0,1.0,0.3255537011427805,0,1,2,6,5,7,4,nan,nan,nan,nan,nan,nan,nan,nan,nan,nan,nan,nan,0.0,nan,nan,nan,nan,nan,nan,nan,nan,nan,nan,nan,nan,nan,nan,nan,nan,nan,nan,214.74585739790928,399.22450562752783,nan,399.5500593286706,nan,nan,nan,nan
1,135,1,1,1.0,1.0,0.5653949819970876,0,3,4,8,6,0,2,nan,nan,nan,nan,nan,nan,nan,nan,nan,nan,nan,nan,0.0,nan,nan,nan,nan,nan,nan,nan,nan,nan,nan,nan,nan,nan,nan,nan,nan,nan,nan,214.74585739790928,400.2246316403616,nan,400.7900266223587,nan,nan,nan,nan
1,136,1,1,1.0,1.0,0.46923404128756374,0,8,2,1,7,6,5,nan,nan,nan,nan,nan,nan,nan,nan,nan,nan,nan,nan,0.0,nan,nan,nan,nan,nan,nan,nan,nan,nan,nan,nan,nan,nan,nan,nan,nan,nan,nan,214.74585739790928,401.22476791671943,nan,401.694001958007,nan,nan,nan,nan
1,137,1,1,1.0,1.0,0.42109598126262426,1,3,6,0,1,8,2,1.0,1.0,1.0,1.0,1.0,1.0,0.0,0.0,1.0,1.0,0.0,0.0,2.0,6.0,8.0,0.0,1.0,5.0,3.0,4.0,3.0,2.0,1.0,6.0,5.0,3.833103925222531,3.121975334477611,2.3779340045293793,1.353297631489113,5.488238892983645,4.680444739875384,214.74585739790928,402.22489535517525,403.03332185337786,402.6459913364379,409.5757730832556,410.5759053683141,404.0501186288893,409.56744197849184
1,138,1,1,1.0,1.0,0.6618695292854682,0,7,0,3,5,2,4,nan,nan,nan,nan,nan,nan,nan,nan,nan,nan,nan,nan,0.0,nan,nan,nan,nan,nan,nan,nan,nan,nan,nan,nan,nan,nan,nan,nan,nan,nan,nan,214.74585739790928,410.77595565945376,nan,411.4378251887392,nan,nan,nan,nan
1,139,0,0,nan,nan,nan,0,3,8,6,4,7,5,nan,nan,nan,nan,nan,nan,nan,nan,nan,nan,nan,nan,0.0,nan,nan,nan,nan,nan,nan,nan,nan,nan,nan,nan,nan,nan,nan,nan,nan,nan,nan,214.74585739790928,411.77607910637744,nan,nan,nan,nan,nan,nan
1,140,1,1,1.0,1.0,0.5575682136695832,0,1,7,4,5,2,8,nan,nan,nan,nan,nan,nan,nan,nan,nan,nan,nan,nan,0.0,nan,nan,nan,nan,nan,nan,nan,nan,nan,nan,nan,nan,nan,nan,nan,nan,nan,nan,214.74585739790928,412.7761959962081,nan,413.3337642098777,nan,nan,nan,nan
1,141,1,1,nan,nan,nan,0,0,5,8,3,7,1,nan,nan,nan,nan,nan,nan,nan,nan,nan,nan,nan,nan,0.0,nan,nan,nan,nan,nan,nan,nan,nan,nan,nan,nan,nan,nan,nan,nan,nan,nan,nan,214.74585739790928,413.7763208686374,nan,nan,nan,nan,nan,nan
1,142,1,1,nan,nan,nan,0,1,3,5,0,4,8,nan,nan,nan,nan,nan,nan,nan,nan,nan,nan,nan,nan,0.0,nan,nan,nan,nan,nan,nan,nan,nan,nan,nan,nan,nan,nan,nan,nan,nan,nan,nan,214.74585739790928,414.7764705446316,nan,nan,nan,nan,nan,nan
1,143,1,1,1.0,1.0,0.5730920310597867,0,7,8,4,2,0,3,nan,nan,nan,nan,nan,nan,nan,nan,nan,nan,nan,nan,0.0,nan,nan,nan,nan,nan,nan,nan,nan,nan,nan,nan,nan,nan,nan,nan,nan,nan,nan,214.74585739790928,415.7765737497248,nan,416.34966578078456,nan,nan,nan,nan
1,144,1,1,nan,nan,nan,0,5,4,2,3,1,6,nan,nan,nan,nan,nan,nan,nan,nan,nan,nan,nan,nan,0.0,nan,nan,nan,nan,nan,nan,nan,nan,nan,nan,nan,nan,nan,nan,nan,nan,nan,nan,214.74585739790928,416.7767060347833,nan,nan,nan,nan,nan,nan
1,145,1,1,1.0,1.0,0.020848289132118225,0,8,1,7,0,6,5,nan,nan,nan,nan,nan,nan,nan,nan,nan,nan,nan,nan,0.0,nan,nan,nan,nan,nan,nan,nan,nan,nan,nan,nan,nan,nan,nan,nan,nan,nan,nan,214.74585739790928,417.77683689421974,nan,417.79768518335186,nan,nan,nan,nan
1,146,1,1,1.0,1.0,0.48468601412605494,0,4,6,2,5,3,8,nan,nan,nan,nan,nan,nan,nan,nan,nan,nan,nan,nan,0.0,nan,nan,nan,nan,nan,nan,nan,nan,nan,nan,nan,nan,nan,nan,nan,nan,nan,nan,214.74585739790928,418.7769469417399,nan,419.26163295586593,nan,nan,nan,nan
1,147,1,1,1.0,1.0,0.2685414266306907,0,7,4,3,8,5,2,nan,nan,nan,nan,nan,nan,nan,nan,nan,nan,nan,nan,0.0,nan,nan,nan,nan,nan,nan,nan,nan,nan,nan,nan,nan,nan,nan,nan,nan,nan,nan,214.74585739790928,419.7770786564797,nan,420.0456200831104,nan,nan,nan,nan
1,148,0,0,1.0,0.0,0.3164223290514201,0,1,8,6,5,2,7,nan,nan,nan,nan,nan,nan,nan,nan,nan,nan,nan,nan,0.0,nan,nan,nan,nan,nan,nan,nan,nan,nan,nan,nan,nan,nan,nan,nan,nan,nan,nan,214.74585739790928,420.77720267372206,nan,421.0936250027735,nan,nan,nan,nan
1,149,1,1,1.0,1.0,0.4602466431679204,0,3,7,5,8,4,6,nan,nan,nan,nan,nan,nan,nan,nan,nan,nan,nan,nan,0.0,nan,nan,nan,nan,nan,nan,nan,nan,nan,nan,nan,nan,nan,nan,nan,nan,nan,nan,214.74585739790928,421.7773241250543,nan,422.2375707682222,nan,nan,nan,nan
1,150,1,1,1.0,1.0,0.4361277212155983,0,0,3,6,5,8,1,nan,nan,nan,nan,nan,nan,nan,nan,nan,nan,nan,nan,0.0,nan,nan,nan,nan,nan,nan,nan,nan,nan,nan,nan,nan,nan,nan,nan,nan,nan,nan,214.74585739790928,422.77745469950605,nan,423.21358242072165,nan,nan,nan,nan
1,151,1,1,1.0,1.0,0.4919862081296742,0,2,7,4,6,5,3,nan,nan,nan,nan,nan,nan,nan,nan,nan,nan,nan,nan,0.0,nan,nan,nan,nan,nan,nan,nan,nan,nan,nan,nan,nan,nan,nan,nan,nan,nan,nan,214.74585739790928,423.77758071233984,nan,424.2695669204695,nan,nan,nan,nan
1,152,1,1,1.0,1.0,0.34781578625552356,0,4,0,7,5,3,6,nan,nan,nan,nan,nan,nan,nan,nan,nan,nan,nan,nan,0.0,nan,nan,nan,nan,nan,nan,nan,nan,nan,nan,nan,nan,nan,nan,nan,nan,nan,nan,214.74585739790928,424.77772696712054,nan,425.12554275337607,nan,nan,nan,nan
1,153,1,1,1.0,1.0,0.34766354446765035,0,8,4,5,1,0,3,nan,nan,nan,nan,nan,nan,nan,nan,nan,nan,nan,nan,0.0,nan,nan,nan,nan,nan,nan,nan,nan,nan,nan,nan,nan,nan,nan,nan,nan,nan,nan,214.74585739790928,425.7778338785283,nan,426.125497422996,nan,nan,nan,nan
1,154,1,1,1.0,1.0,0.3395271609770134,0,5,1,4,3,2,6,nan,nan,nan,nan,nan,nan,nan,nan,nan,nan,nan,nan,0.0,nan,nan,nan,nan,nan,nan,nan,nan,nan,nan,nan,nan,nan,nan,nan,nan,nan,nan,214.74585739790928,426.77795247884933,nan,427.11747963982634,nan,nan,nan,nan
1,155,1,1,1.0,1.0,0.3633652622811496,0,7,2,8,5,1,3,nan,nan,nan,nan,nan,nan,nan,nan,nan,nan,nan,nan,0.0,nan,nan,nan,nan,nan,nan,nan,nan,nan,nan,nan,nan,nan,nan,nan,nan,nan,nan,214.74585739790928,427.778088470106,nan,428.14145373238716,nan,nan,nan,nan
1,156,1,1,1.0,1.0,0.435238788719289,0,1,0,3,7,4,8,nan,nan,nan,nan,nan,nan,nan,nan,nan,nan,nan,nan,0.0,nan,nan,nan,nan,nan,nan,nan,nan,nan,nan,nan,nan,nan,nan,nan,nan,nan,nan,214.74585739790928,428.7782065003412,nan,429.2134452890605,nan,nan,nan,nan
1,157,1,1,1.0,1.0,0.33909609424881637,0,8,4,7,2,5,3,nan,nan,nan,nan,nan,nan,nan,nan,nan,nan,nan,nan,0.0,nan,nan,nan,nan,nan,nan,nan,nan,nan,nan,nan,nan,nan,nan,nan,nan,nan,nan,214.74585739790928,429.77833222807385,nan,430.11742832232267,nan,nan,nan,nan
1,158,1,1,1.0,1.0,0.2989450270542875,1,7,8,1,4,0,6,1.0,1.0,1.0,1.0,1.0,1.0,1.0,1.0,1.0,1.0,1.0,0.0,5.0,7.0,8.0,1.0,4.0,0.0,3.0,4.0,1.0,2.0,3.0,6.0,5.0,4.6070100222714245,1.5180386579595506,2.6555708810919896,3.6237215537112206,7.029910952784121,5.902515068766661,214.74585739790928,430.7784548198106,431.58686962909997,431.07739984686486,439.67123411083594,440.66773283446673,432.60366954060737,439.6629064271692
1,159,1,1,1.0,1.0,0.3178634945070371,0,3,4,5,0,8,1,nan,nan,nan,nan,nan,nan,nan,nan,nan,nan,nan,nan,0.0,nan,nan,nan,nan,nan,nan,nan,nan,nan,nan,nan,nan,nan,nan,nan,nan,nan,nan,214.74585739790928,440.87138133484405,nan,441.1892448293511,nan,nan,nan,nan
1,160,1,1,1.0,1.0,0.39767440664581954,0,1,8,0,3,2,5,nan,nan,nan,nan,nan,nan,nan,nan,nan,nan,nan,nan,0.0,nan,nan,nan,nan,nan,nan,nan,nan,nan,nan,nan,nan,nan,nan,nan,nan,nan,nan,214.74585739790928,441.87150592228863,nan,442.26918032893445,nan,nan,nan,nan
1,161,1,1,1.0,1.0,0.41349729080684483,0,7,4,8,5,0,6,nan,nan,nan,nan,nan,nan,nan,nan,nan,nan,nan,nan,0.0,nan,nan,nan,nan,nan,nan,nan,nan,nan,nan,nan,nan,nan,nan,nan,nan,nan,nan,214.74585739790928,442.87164761545137,nan,443.2851449062582,nan,nan,nan,nan
1,162,1,1,1.0,1.0,0.38936211820691824,0,0,8,1,3,7,5,nan,nan,nan,nan,nan,nan,nan,nan,nan,nan,nan,nan,0.0,nan,nan,nan,nan,nan,nan,nan,nan,nan,nan,nan,nan,nan,nan,nan,nan,nan,nan,214.74585739790928,443.8717830366222,nan,444.26114515482914,nan,nan,nan,nan
1,163,0,0,0.0,1.0,0.5732511151582003,0,4,5,2,8,6,3,nan,nan,nan,nan,nan,nan,nan,nan,nan,nan,nan,nan,0.0,nan,nan,nan,nan,nan,nan,nan,nan,nan,nan,nan,nan,nan,nan,nan,nan,nan,nan,214.74585739790928,444.8718699911842,nan,445.4451211063424,nan,nan,nan,nan
1,164,1,1,1.0,1.0,0.4610893898643553,0,5,2,6,1,4,0,nan,nan,nan,nan,nan,nan,nan,nan,nan,nan,nan,nan,0.0,nan,nan,nan,nan,nan,nan,nan,nan,nan,nan,nan,nan,nan,nan,nan,nan,nan,nan,214.74585739790928,445.87205045763403,nan,446.3331398474984,nan,nan,nan,nan
1,165,1,1,1.0,1.0,0.4449634477496147,0,3,8,7,5,2,4,nan,nan,nan,nan,nan,nan,nan,nan,nan,nan,nan,nan,0.0,nan,nan,nan,nan,nan,nan,nan,nan,nan,nan,nan,nan,nan,nan,nan,nan,nan,nan,214.74585739790928,446.87213541648816,nan,447.3170988642378,nan,nan,nan,nan
1,166,1,1,1.0,1.0,0.38078925118315965,0,1,7,6,3,4,0,nan,nan,nan,nan,nan,nan,nan,nan,nan,nan,nan,nan,0.0,nan,nan,nan,nan,nan,nan,nan,nan,nan,nan,nan,nan,nan,nan,nan,nan,nan,nan,214.74585739790928,447.87225629761815,nan,448.2530455488013,nan,nan,nan,nan
1,167,0,0,0.0,1.0,0.6366689493879676,0,6,1,3,5,8,2,nan,nan,nan,nan,nan,nan,nan,nan,nan,nan,nan,nan,0.0,nan,nan,nan,nan,nan,nan,nan,nan,nan,nan,nan,nan,nan,nan,nan,nan,nan,nan,214.74585739790928,448.8723854465643,nan,449.50905439595226,nan,nan,nan,nan
1,168,1,1,1.0,1.0,0.48451752169057727,0,8,0,4,2,3,5,nan,nan,nan,nan,nan,nan,nan,nan,nan,nan,nan,nan,0.0,nan,nan,nan,nan,nan,nan,nan,nan,nan,nan,nan,nan,nan,nan,nan,nan,nan,nan,214.74585739790928,449.87250974890776,nan,450.35702727059834,nan,nan,nan,nan
1,169,1,1,1.0,1.0,0.4279967544134706,0,5,4,7,0,8,6,nan,nan,nan,nan,nan,nan,nan,nan,nan,nan,nan,nan,0.0,nan,nan,nan,nan,nan,nan,nan,nan,nan,nan,nan,nan,nan,nan,nan,nan,nan,nan,214.74585739790928,450.8810064950958,nan,451.30900324950926,nan,nan,nan,nan
1,170,1,1,1.0,1.0,0.3638755859574303,0,2,7,4,8,6,0,nan,nan,nan,nan,nan,nan,nan,nan,nan,nan,nan,nan,0.0,nan,nan,nan,nan,nan,nan,nan,nan,nan,nan,nan,nan,nan,nan,nan,nan,nan,nan,214.74585739790928,451.8810977260582,nan,452.24497331201565,nan,nan,nan,nan
1,171,1,1,1.0,1.0,0.37174825475085527,0,0,3,7,5,2,8,nan,nan,nan,nan,nan,nan,nan,nan,nan,nan,nan,nan,0.0,nan,nan,nan,nan,nan,nan,nan,nan,nan,nan,nan,nan,nan,nan,nan,nan,nan,nan,214.74585739790928,452.88121632649563,nan,453.2529645812465,nan,nan,nan,nan
1,172,1,1,1.0,1.0,0.35557755234185606,0,8,0,2,3,7,1,nan,nan,nan,nan,nan,nan,nan,nan,nan,nan,nan,nan,0.0,nan,nan,nan,nan,nan,nan,nan,nan,nan,nan,nan,nan,nan,nan,nan,nan,nan,nan,214.74585739790928,453.88135146244895,nan,454.2369290147908,nan,nan,nan,nan
1,173,1,1,1.0,1.0,0.37943618069402874,0,3,4,7,8,1,2,nan,nan,nan,nan,nan,nan,nan,nan,nan,nan,nan,nan,0.0,nan,nan,nan,nan,nan,nan,nan,nan,nan,nan,nan,nan,nan,nan,nan,nan,nan,nan,214.74585739790928,454.8814640757628,nan,455.2609002564568,nan,nan,nan,nan
1,174,1,1,1.0,1.0,0.3313243497395888,1,4,3,2,7,5,8,1.0,1.0,1.0,1.0,1.0,1.0,1.0,0.0,0.0,0.0,0.0,0.0,1.0,4.0,8.0,3.0,2.0,6.0,5.0,2.0,3.0,4.0,1.0,5.0,6.0,2.1510386939626187,3.798897130647674,5.135660561150871,1.2228546306723729,6.239262248738669,7.534506146330386,214.74585739790928,455.881572982762,456.6900342629524,456.2128973325016,465.2744397985516,466.28241823846474,457.6984754152363,465.2661069831811
1,175,1,1,1.0,1.0,0.3697967657353729,0,7,1,4,2,6,5,nan,nan,nan,nan,nan,nan,nan,nan,nan,nan,nan,nan,0.0,nan,nan,nan,nan,nan,nan,nan,nan,nan,nan,nan,nan,nan,nan,nan,nan,nan,nan,214.74585739790928,466.48290187702514,nan,466.8526986427605,nan,nan,nan,nan
1,176,1,1,1.0,1.0,0.5772672767052427,0,8,2,7,0,5,1,nan,nan,nan,nan,nan,nan,nan,nan,nan,nan,nan,nan,0.0,nan,nan,nan,nan,nan,nan,nan,nan,nan,nan,nan,nan,nan,nan,nan,nan,nan,nan,214.74585739790928,467.49142371176276,nan,468.068690988468,nan,nan,nan,nan
1,177,1,1,1.0,1.0,0.46514061838388443,0,7,3,5,4,6,0,nan,nan,nan,nan,nan,nan,nan,nan,nan,nan,nan,nan,0.0,nan,nan,nan,nan,nan,nan,nan,nan,nan,nan,nan,nan,nan,nan,nan,nan,nan,nan,214.74585739790928,468.4915115216281,nan,468.956652140012,nan,nan,nan,nan
1,178,1,1,1.0,1.0,0.4249715901678428,0,1,2,7,5,3,6,nan,nan,nan,nan,nan,nan,nan,nan,nan,nan,nan,nan,0.0,nan,nan,nan,nan,nan,nan,nan,nan,nan,nan,nan,nan,nan,nan,nan,nan,nan,nan,214.74585739790928,469.4916346834507,nan,469.9166062736185,nan,nan,nan,nan
1,179,1,1,1.0,1.0,0.3768472147639841,0,8,4,2,0,1,7,nan,nan,nan,nan,nan,nan,nan,nan,nan,nan,nan,nan,0.0,nan,nan,nan,nan,nan,nan,nan,nan,nan,nan,nan,nan,nan,nan,nan,nan,nan,nan,214.74585739790928,470.4917544242926,nan,470.8686016390566,nan,nan,nan,nan
1,180,1,1,1.0,1.0,0.41666985023766756,0,7,8,1,6,0,3,nan,nan,nan,nan,nan,nan,nan,nan,nan,nan,nan,nan,0.0,nan,nan,nan,nan,nan,nan,nan,nan,nan,nan,nan,nan,nan,nan,nan,nan,nan,nan,214.74585739790928,471.49188984534703,nan,471.9085596955847,nan,nan,nan,nan
1,181,1,1,1.0,1.0,0.36853093502577394,0,5,1,6,3,7,4,nan,nan,nan,nan,nan,nan,nan,nan,nan,nan,nan,nan,0.0,nan,nan,nan,nan,nan,nan,nan,nan,nan,nan,nan,nan,nan,nan,nan,nan,nan,nan,214.74585739790928,472.49201129667927,nan,472.86054223170504,nan,nan,nan,nan
1,182,1,1,1.0,1.0,0.33634775900281966,1,2,6,5,7,4,8,1.0,1.0,1.0,1.0,1.0,1.0,1.0,0.0,0.0,0.0,1.0,1.0,3.0,2.0,1.0,6.0,6.0,4.0,8.0,6.0,5.0,4.0,1.0,2.0,3.0,11.291478621424176,10.444077936466783,8.876923620817252,2.3250544962938875,3.8690731895621866,4.716415429720655,214.74585739790928,473.4921643937705,474.3005601015175,473.8285121527733,486.643757601385,487.6539797546575,475.3090103769209,486.6354227903066
1,183,1,1,1.0,1.0,0.5676577970152721,0,6,0,8,1,2,7,nan,nan,nan,nan,nan,nan,nan,nan,nan,nan,nan,nan,0.0,nan,nan,nan,nan,nan,nan,nan,nan,nan,nan,nan,nan,nan,nan,nan,nan,nan,nan,214.74585739790928,487.8606021020096,nan,488.42825989902485,nan,nan,nan,nan
1,184,1,1,nan,nan,nan,0,5,4,3,7,6,2,nan,nan,nan,nan,nan,nan,nan,nan,nan,nan,nan,nan,0.0,nan,nan,nan,nan,nan,nan,nan,nan,nan,nan,nan,nan,nan,nan,nan,nan,nan,nan,214.74585739790928,488.86072754475754,nan,nan,nan,nan,nan,nan
1,185,1,1,1.0,1.0,0.1273802036885172,0,7,5,8,6,4,1,nan,nan,nan,nan,nan,nan,nan,nan,nan,nan,nan,nan,0.0,nan,nan,nan,nan,nan,nan,nan,nan,nan,nan,nan,nan,nan,nan,nan,nan,nan,nan,214.74585739790928,489.86084643017966,nan,489.9882266338682,nan,nan,nan,nan
1,186,1,1,1.0,1.0,0.43120637664105743,0,8,7,5,4,1,0,nan,nan,nan,nan,nan,nan,nan,nan,nan,nan,nan,nan,0.0,nan,nan,nan,nan,nan,nan,nan,nan,nan,nan,nan,nan,nan,nan,nan,nan,nan,nan,214.74585739790928,490.8609727281146,nan,491.29217910475563,nan,nan,nan,nan
1,187,1,1,1.0,1.0,0.23906638706102967,0,5,2,1,0,8,7,nan,nan,nan,nan,nan,nan,nan,nan,nan,nan,nan,nan,0.0,nan,nan,nan,nan,nan,nan,nan,nan,nan,nan,nan,nan,nan,nan,nan,nan,nan,nan,214.74585739790928,491.86112468491774,nan,492.10019107197877,nan,nan,nan,nan
1,188,0,0,0.0,1.0,0.44689669052604586,0,3,5,7,4,6,2,nan,nan,nan,nan,nan,nan,nan,nan,nan,nan,nan,nan,0.0,nan,nan,nan,nan,nan,nan,nan,nan,nan,nan,nan,nan,nan,nan,nan,nan,nan,nan,214.74585739790928,492.8612287453143,nan,493.30812543584034,nan,nan,nan,nan
1,189,1,1,1.0,1.0,0.2467486112145707,0,6,2,0,8,1,4,nan,nan,nan,nan,nan,nan,nan,nan,nan,nan,nan,nan,0.0,nan,nan,nan,nan,nan,nan,nan,nan,nan,nan,nan,nan,nan,nan,nan,nan,nan,nan,214.74585739790928,493.8613459201297,nan,494.10809453134425,nan,nan,nan,nan
1,190,1,1,1.0,1.0,0.23060442274436355,0,5,7,1,0,4,3,nan,nan,nan,nan,nan,nan,nan,nan,nan,nan,nan,nan,0.0,nan,nan,nan,nan,nan,nan,nan,nan,nan,nan,nan,nan,nan,nan,nan,nan,nan,nan,214.74585739790928,494.86147934559267,nan,495.09208376833703,nan,nan,nan,nan
1,191,1,1,1.0,1.0,0.3024773789802566,0,0,3,4,6,1,2,nan,nan,nan,nan,nan,nan,nan,nan,nan,nan,nan,nan,0.0,nan,nan,nan,nan,nan,nan,nan,nan,nan,nan,nan,nan,nan,nan,nan,nan,nan,nan,214.74585739790928,495.8616036478197,nan,496.1640810268,nan,nan,nan,nan
1,192,1,1,1.0,1.0,0.2463081362657249,0,1,8,2,7,4,6,nan,nan,nan,nan,nan,nan,nan,nan,nan,nan,nan,nan,0.0,nan,nan,nan,nan,nan,nan,nan,nan,nan,nan,nan,nan,nan,nan,nan,nan,nan,nan,214.74585739790928,496.86175246851053,nan,497.10806060477626,nan,nan,nan,nan
1,193,0,0,1.0,0.0,0.25417481805197895,0,5,7,4,2,3,8,nan,nan,nan,nan,nan,nan,nan,nan,nan,nan,nan,nan,0.0,nan,nan,nan,nan,nan,nan,nan,nan,nan,nan,nan,nan,nan,nan,nan,nan,nan,nan,214.74585739790928,497.8618781962432,nan,498.1160530142952,nan,nan,nan,nan
1,194,1,1,1.0,1.0,0.4460530885262415,0,3,8,6,0,5,4,nan,nan,nan,nan,nan,nan,nan,nan,nan,nan,nan,nan,0.0,nan,nan,nan,nan,nan,nan,nan,nan,nan,nan,nan,nan,nan,nan,nan,nan,nan,nan,214.74585739790928,498.86195175128523,nan,499.3080048398115,nan,nan,nan,nan
1,195,1,1,1.0,1.0,0.4058678096625954,0,2,6,3,1,8,5,nan,nan,nan,nan,nan,nan,nan,nan,nan,nan,nan,nan,0.0,nan,nan,nan,nan,nan,nan,nan,nan,nan,nan,nan,nan,nan,nan,nan,nan,nan,nan,214.74585739790928,499.86210342287086,nan,500.26797123253345,nan,nan,nan,nan
1,196,0,0,0.0,1.0,0.533742371480912,0,7,4,6,2,5,0,nan,nan,nan,nan,nan,nan,nan,nan,nan,nan,nan,nan,0.0,nan,nan,nan,nan,nan,nan,nan,nan,nan,nan,nan,nan,nan,nan,nan,nan,nan,nan,214.74585739790928,500.8622288656188,nan,501.39597123709973,nan,nan,nan,nan
1,197,1,1,1.0,1.0,0.44560006936080754,0,8,1,2,7,0,3,nan,nan,nan,nan,nan,nan,nan,nan,nan,nan,nan,nan,0.0,nan,nan,nan,nan,nan,nan,nan,nan,nan,nan,nan,nan,nan,nan,nan,nan,nan,nan,214.74585739790928,501.86234917654656,nan,502.30794924590737,nan,nan,nan,nan
1,198,0,0,0.0,1.0,0.40543873864226043,0,7,8,5,4,3,6,nan,nan,nan,nan,nan,nan,nan,nan,nan,nan,nan,nan,0.0,nan,nan,nan,nan,nan,nan,nan,nan,nan,nan,nan,nan,nan,nan,nan,nan,nan,nan,214.74585739790928,502.8624794658972,nan,503.26791820453946,nan,nan,nan,nan
1,199,1,1,1.0,1.0,0.34130873216781765,0,2,5,7,6,1,0,nan,nan,nan,nan,nan,nan,nan,nan,nan,nan,nan,nan,0.0,nan,nan,nan,nan,nan,nan,nan,nan,nan,nan,nan,nan,nan,nan,nan,nan,nan,nan,214.74585739790928,503.86260376812425,nan,504.20391250029206,nan,nan,nan,nan
1,200,1,1,1.0,1.0,0.4211301930481568,0,6,3,0,7,8,1,nan,nan,nan,nan,nan,nan,nan,nan,nan,nan,nan,nan,0.0,nan,nan,nan,nan,nan,nan,nan,nan,nan,nan,nan,nan,nan,nan,nan,nan,nan,nan,214.74585739790928,504.862755724811,nan,505.28388591785915,nan,nan,nan,nan
1,201,1,1,1.0,1.0,0.28494847437832505,0,8,1,2,0,5,3,nan,nan,nan,nan,nan,nan,nan,nan,nan,nan,nan,nan,0.0,nan,nan,nan,nan,nan,nan,nan,nan,nan,nan,nan,nan,nan,nan,nan,nan,nan,nan,214.74585739790928,505.86290853691753,nan,506.14785701129586,nan,nan,nan,nan
1,202,1,1,1.0,1.0,0.31684769375715405,0,0,6,5,4,2,7,nan,nan,nan,nan,nan,nan,nan,nan,nan,nan,nan,nan,0.0,nan,nan,nan,nan,nan,nan,nan,nan,nan,nan,nan,nan,nan,nan,nan,nan,nan,nan,214.74585739790928,506.86297838564496,nan,507.1798260794021,nan,nan,nan,nan
1,203,1,1,1.0,1.0,0.30070578621234745,0,3,0,1,8,5,2,nan,nan,nan,nan,nan,nan,nan,nan,nan,nan,nan,nan,0.0,nan,nan,nan,nan,nan,nan,nan,nan,nan,nan,nan,nan,nan,nan,nan,nan,nan,nan,214.74585739790928,507.8631061090855,nan,508.16381189529784,nan,nan,nan,nan
1,204,1,1,1.0,1.0,0.3565542947035283,0,0,1,6,4,7,5,nan,nan,nan,nan,nan,nan,nan,nan,nan,nan,nan,nan,0.0,nan,nan,nan,nan,nan,nan,nan,nan,nan,nan,nan,nan,nan,nan,nan,nan,nan,nan,214.74585739790928,508.8632421003422,nan,509.2197963950457,nan,nan,nan,nan
1,205,0,0,0.0,1.0,0.7084150373702869,0,7,8,1,0,5,3,nan,nan,nan,nan,nan,nan,nan,nan,nan,nan,nan,nan,0.0,nan,nan,nan,nan,nan,nan,nan,nan,nan,nan,nan,nan,nan,nan,nan,nan,nan,nan,214.74585739790928,509.86335414345376,nan,510.57176918082405,nan,nan,nan,nan
1,206,1,1,1.0,1.0,0.35626748704817146,0,1,3,2,8,0,6,nan,nan,nan,nan,nan,nan,nan,nan,nan,nan,nan,nan,0.0,nan,nan,nan,nan,nan,nan,nan,nan,nan,nan,nan,nan,nan,nan,nan,nan,nan,nan,214.74585739790928,510.8634804415051,nan,511.21974792855326,nan,nan,nan,nan
1,207,1,1,1.0,1.0,0.3167661560000852,0,8,0,1,6,4,5,nan,nan,nan,nan,nan,nan,nan,nan,nan,nan,nan,nan,0.0,nan,nan,nan,nan,nan,nan,nan,nan,nan,nan,nan,nan,nan,nan,nan,nan,nan,nan,214.74585739790928,511.8635990418261,nan,512.1803651978262,nan,nan,nan,nan
1,208,1,1,1.0,1.0,0.3159772924846038,1,1,6,5,7,8,4,1.0,1.0,1.0,1.0,1.0,1.0,1.0,0.0,0.0,1.0,1.0,0.0,3.0,1.0,4.0,6.0,7.0,8.0,0.0,2.0,4.0,3.0,1.0,5.0,6.0,2.167467409162782,4.479266605107114,3.1668339235475287,1.2324421581579372,5.535039848065935,6.102724444004707,214.74585739790928,512.8637316119857,513.6721449957695,513.1797089044703,520.8313725311309,521.8329063530546,514.6889831102453,520.8230391455581
1,209,1,1,1.0,1.0,0.6516422443091869,0,0,8,4,3,1,2,nan,nan,nan,nan,nan,nan,nan,nan,nan,nan,nan,nan,0.0,nan,nan,nan,nan,nan,nan,nan,nan,nan,nan,nan,nan,nan,nan,nan,nan,nan,nan,214.74585739790928,522.0398813653737,nan,522.6915236096829,nan,nan,nan,nan
1,210,1,1,1.0,1.0,0.2995229186490178,0,3,0,1,2,6,7,nan,nan,nan,nan,nan,nan,nan,nan,nan,nan,nan,nan,0.0,nan,nan,nan,nan,nan,nan,nan,nan,nan,nan,nan,nan,nan,nan,nan,nan,nan,nan,214.74585739790928,523.0399865661748,nan,523.3395094848238,nan,nan,nan,nan
1,211,1,1,1.0,1.0,0.2753703553462401,0,0,7,6,8,3,4,nan,nan,nan,nan,nan,nan,nan,nan,nan,nan,nan,nan,0.0,nan,nan,nan,nan,nan,nan,nan,nan,nan,nan,nan,nan,nan,nan,nan,nan,nan,nan,214.74585739790928,524.0401313954499,nan,524.3155017507961,nan,nan,nan,nan
1,212,1,1,1.0,1.0,0.26719035184942186,0,8,5,3,2,1,6,nan,nan,nan,nan,nan,nan,nan,nan,nan,nan,nan,nan,0.0,nan,nan,nan,nan,nan,nan,nan,nan,nan,nan,nan,nan,nan,nan,nan,nan,nan,nan,214.74585739790928,525.040281071444,nan,525.3074714232935,nan,nan,nan,nan
1,213,1,1,1.0,1.0,0.259052257752046,0,2,7,1,6,5,3,nan,nan,nan,nan,nan,nan,nan,nan,nan,nan,nan,nan,0.0,nan,nan,nan,nan,nan,nan,nan,nan,nan,nan,nan,nan,nan,nan,nan,nan,nan,nan,214.74585739790928,526.0403902635444,nan,526.2994425212964,nan,nan,nan,nan
1,214,1,1,1.0,1.0,0.2509238568600267,0,0,4,8,7,1,2,nan,nan,nan,nan,nan,nan,nan,nan,nan,nan,nan,nan,0.0,nan,nan,nan,nan,nan,nan,nan,nan,nan,nan,nan,nan,nan,nan,nan,nan,nan,nan,214.74585739790928,527.0405060129706,nan,527.2914298698306,nan,nan,nan,nan
1,215,1,1,1.0,1.0,0.20277524832636118,0,6,3,2,4,8,7,nan,nan,nan,nan,nan,nan,nan,nan,nan,nan,nan,nan,0.0,nan,nan,nan,nan,nan,nan,nan,nan,nan,nan,nan,nan,nan,nan,nan,nan,nan,nan,214.74585739790928,528.0406300302129,nan,528.2434052785393,nan,nan,nan,nan
1,216,1,1,1.0,1.0,0.20263498066924512,0,4,5,6,8,7,1,nan,nan,nan,nan,nan,nan,nan,nan,nan,nan,nan,nan,0.0,nan,nan,nan,nan,nan,nan,nan,nan,nan,nan,nan,nan,nan,nan,nan,nan,nan,nan,214.74585739790928,529.0407597492449,nan,529.2433947299141,nan,nan,nan,nan
1,217,1,1,1.0,1.0,0.23447832092642784,0,5,0,2,6,4,3,nan,nan,nan,nan,nan,nan,nan,nan,nan,nan,nan,nan,0.0,nan,nan,nan,nan,nan,nan,nan,nan,nan,nan,nan,nan,nan,nan,nan,nan,nan,nan,214.74585739790928,530.040880060289,nan,530.2753583812155,nan,nan,nan,nan
1,218,0,0,1.0,0.0,0.30632846942171454,0,7,5,4,3,6,0,nan,nan,nan,nan,nan,nan,nan,nan,nan,nan,nan,nan,0.0,nan,nan,nan,nan,nan,nan,nan,nan,nan,nan,nan,nan,nan,nan,nan,nan,nan,nan,214.74585739790928,531.0410211832495,nan,531.3473496526713,nan,nan,nan,nan
1,219,1,1,1.0,1.0,0.6261850768933073,0,4,3,1,6,5,2,nan,nan,nan,nan,nan,nan,nan,nan,nan,nan,nan,nan,0.0,nan,nan,nan,nan,nan,nan,nan,nan,nan,nan,nan,nan,nan,nan,nan,nan,nan,nan,214.74585739790928,532.0411298052641,nan,532.6673148821574,nan,nan,nan,nan
1,220,1,1,1.0,1.0,0.44204291398636997,1,5,0,4,1,7,3,1.0,1.0,1.0,1.0,1.0,1.0,1.0,0.0,0.0,0.0,1.0,0.0,2.0,5.0,4.0,8.0,6.0,7.0,2.0,1.0,2.0,4.0,3.0,5.0,6.0,1.8618568140082061,2.6789690777659416,4.366072543547489,3.4705873967614025,5.477194805047475,6.580443257465959,214.74585739790928,533.041261805105,533.8496791803045,533.4833047190914,541.4922886959976,542.5025079983752,534.874831293826,541.4839541700203
1,221,1,1,1.0,1.0,0.5579431164078414,0,0,2,7,3,8,1,nan,nan,nan,nan,nan,nan,nan,nan,nan,nan,nan,nan,0.0,nan,nan,nan,nan,nan,nan,nan,nan,nan,nan,nan,nan,nan,nan,nan,nan,nan,nan,214.74585739790928,542.709169118898,nan,543.2671122353058,nan,nan,nan,nan
1,222,1,1,1.0,1.0,0.2778105005854741,0,5,6,4,0,7,2,nan,nan,nan,nan,nan,nan,nan,nan,nan,nan,nan,nan,0.0,nan,nan,nan,nan,nan,nan,nan,nan,nan,nan,nan,nan,nan,nan,nan,nan,nan,nan,214.74585739790928,543.7092640562914,nan,543.9870745568769,nan,nan,nan,nan
1,223,1,1,1.0,1.0,0.3097003117436543,0,3,1,0,8,6,4,nan,nan,nan,nan,nan,nan,nan,nan,nan,nan,nan,nan,0.0,nan,nan,nan,nan,nan,nan,nan,nan,nan,nan,nan,nan,nan,nan,nan,nan,nan,nan,214.74585739790928,544.7093726781895,nan,545.0190729899332,nan,nan,nan,nan
1,224,1,1,1.0,1.0,0.32551350246649235,0,7,2,6,5,4,0,nan,nan,nan,nan,nan,nan,nan,nan,nan,nan,nan,nan,0.0,nan,nan,nan,nan,nan,nan,nan,nan,nan,nan,nan,nan,nan,nan,nan,nan,nan,nan,214.74585739790928,545.709510380053,nan,546.0350238825195,nan,nan,nan,nan
1,225,1,1,1.0,1.0,0.29336852952837944,0,2,7,5,6,3,1,nan,nan,nan,nan,nan,nan,nan,nan,nan,nan,nan,nan,0.0,nan,nan,nan,nan,nan,nan,nan,nan,nan,nan,nan,nan,nan,nan,nan,nan,nan,nan,214.74585739790928,546.7096617665375,nan,547.0030302960658,nan,nan,nan,nan
1,226,1,1,1.0,1.0,0.30923332285601646,0,4,6,3,8,7,2,nan,nan,nan,nan,nan,nan,nan,nan,nan,nan,nan,nan,0.0,nan,nan,nan,nan,nan,nan,nan,nan,nan,nan,nan,nan,nan,nan,nan,nan,nan,nan,214.74585739790928,547.7097595548257,nan,548.0189928776817,nan,nan,nan,nan
1,227,1,1,1.0,1.0,0.3490830424707383,0,0,5,1,7,3,8,nan,nan,nan,nan,nan,nan,nan,nan,nan,nan,nan,nan,0.0,nan,nan,nan,nan,nan,nan,nan,nan,nan,nan,nan,nan,nan,nan,nan,nan,nan,nan,214.74585739790928,548.7098847124726,nan,549.0589677549433,nan,nan,nan,nan
1,228,1,1,1.0,1.0,0.32495385699439794,0,8,3,4,0,5,2,nan,nan,nan,nan,nan,nan,nan,nan,nan,nan,nan,nan,0.0,nan,nan,nan,nan,nan,nan,nan,nan,nan,nan,nan,nan,nan,nan,nan,nan,nan,nan,214.74585739790928,549.7100075893104,nan,550.0349614463048,nan,nan,nan,nan
1,229,1,1,1.0,1.0,0.41282360651530325,0,4,5,6,1,8,3,nan,nan,nan,nan,nan,nan,nan,nan,nan,nan,nan,nan,0.0,nan,nan,nan,nan,nan,nan,nan,nan,nan,nan,nan,nan,nan,nan,nan,nan,nan,nan,214.74585739790928,550.7101301809307,nan,551.122953787446,nan,nan,nan,nan
1,230,1,1,1.0,1.0,0.37267881142906845,0,8,6,1,7,2,0,nan,nan,nan,nan,nan,nan,nan,nan,nan,nan,nan,nan,0.0,nan,nan,nan,nan,nan,nan,nan,nan,nan,nan,nan,nan,nan,nan,nan,nan,nan,nan,214.74585739790928,551.7102604702814,nan,552.0829392817104,nan,nan,nan,nan
1,231,1,1,1.0,1.0,0.3805092859547585,0,6,2,4,3,7,8,nan,nan,nan,nan,nan,nan,nan,nan,nan,nan,nan,nan,0.0,nan,nan,nan,nan,nan,nan,nan,nan,nan,nan,nan,nan,nan,nan,nan,nan,nan,nan,214.74585739790928,552.7103876235196,nan,553.0908969094744,nan,nan,nan,nan
1,232,1,1,1.0,1.0,0.3483520537847653,0,0,7,1,6,2,5,nan,nan,nan,nan,nan,nan,nan,nan,nan,nan,nan,nan,0.0,nan,nan,nan,nan,nan,nan,nan,nan,nan,nan,nan,nan,nan,nan,nan,nan,nan,nan,214.74585739790928,553.7105096450541,nan,554.0588616988389,nan,nan,nan,nan
1,233,1,1,1.0,1.0,0.2842177707934752,0,6,4,0,5,8,3,nan,nan,nan,nan,nan,nan,nan,nan,nan,nan,nan,nan,0.0,nan,nan,nan,nan,nan,nan,nan,nan,nan,nan,nan,nan,nan,nan,nan,nan,nan,nan,214.74585739790928,554.7106390791014,nan,554.9948568498949,nan,nan,nan,nan
1,234,1,1,1.0,1.0,0.26807130163069814,0,0,3,6,8,5,2,nan,nan,nan,nan,nan,nan,nan,nan,nan,nan,nan,nan,0.0,nan,nan,nan,nan,nan,nan,nan,nan,nan,nan,nan,nan,nan,nan,nan,nan,nan,nan,214.74585739790928,555.7107588198269,nan,555.9788301214576,nan,nan,nan,nan
1,235,1,1,1.0,1.0,0.31593253230676055,0,3,2,0,5,7,6,nan,nan,nan,nan,nan,nan,nan,nan,nan,nan,nan,nan,0.0,nan,nan,nan,nan,nan,nan,nan,nan,nan,nan,nan,nan,nan,nan,nan,nan,nan,nan,214.74585739790928,556.7108834072715,nan,557.0268159395782,nan,nan,nan,nan
1,236,1,1,1.0,1.0,0.2917788285994902,0,2,7,1,8,6,4,nan,nan,nan,nan,nan,nan,nan,nan,nan,nan,nan,nan,0.0,nan,nan,nan,nan,nan,nan,nan,nan,nan,nan,nan,nan,nan,nan,nan,nan,nan,nan,214.74585739790928,557.7110125562176,nan,558.0027913848171,nan,nan,nan,nan
1,237,1,1,1.0,1.0,0.16362715244758874,0,5,6,8,3,7,0,nan,nan,nan,nan,nan,nan,nan,nan,nan,nan,nan,nan,0.0,nan,nan,nan,nan,nan,nan,nan,nan,nan,nan,nan,nan,nan,nan,nan,nan,nan,nan,214.74585739790928,558.7111710701138,nan,558.8747982225614,nan,nan,nan,nan
1,238,1,1,1.0,1.0,0.3874764866195619,0,2,8,1,5,0,6,nan,nan,nan,nan,nan,nan,nan,nan,nan,nan,nan,nan,0.0,nan,nan,nan,nan,nan,nan,nan,nan,nan,nan,nan,nan,nan,nan,nan,nan,nan,nan,214.74585739790928,559.7112953724572,nan,560.0987718590768,nan,nan,nan,nan
1,239,1,1,1.0,1.0,0.37936889787670225,0,4,0,8,1,6,2,nan,nan,nan,nan,nan,nan,nan,nan,nan,nan,nan,nan,0.0,nan,nan,nan,nan,nan,nan,nan,nan,nan,nan,nan,nan,nan,nan,nan,nan,nan,nan,214.74585739790928,560.7113854631316,nan,561.0907543610083,nan,nan,nan,nan
1,240,1,1,1.0,1.0,0.37919213774148375,1,6,8,3,0,2,7,1.0,1.0,1.0,1.0,1.0,1.0,0.0,0.0,1.0,1.0,0.0,0.0,2.0,8.0,4.0,3.0,0.0,5.0,1.0,3.0,6.0,1.0,2.0,5.0,4.0,3.8557563081849366,6.373869946808554,1.8398413378745317,2.8556858892552555,5.389762394479476,4.614871572353877,214.74585739790928,561.711510620662,562.519929136266,562.0907027584035,569.9541871912079,570.9563442352228,563.5450615780428,569.9458495292347
1,241,0,0,1.0,0.0,0.2638398917624727,0,0,1,6,4,7,8,nan,nan,nan,nan,nan,nan,nan,nan,nan,nan,nan,nan,0.0,nan,nan,nan,nan,nan,nan,nan,nan,nan,nan,nan,nan,nan,nan,nan,nan,nan,nan,214.74585739790928,571.1626940298593,nan,571.4265339216217,nan,nan,nan,nan
1,242,1,1,nan,nan,nan,0,7,4,8,6,3,5,nan,nan,nan,nan,nan,nan,nan,nan,nan,nan,nan,nan,0.0,nan,nan,nan,nan,nan,nan,nan,nan,nan,nan,nan,nan,nan,nan,nan,nan,nan,nan,214.74585739790928,572.1628274553223,nan,nan,nan,nan,nan,nan
1,243,1,1,1.0,1.0,0.567491015070118,0,4,2,7,3,0,6,nan,nan,nan,nan,nan,nan,nan,nan,nan,nan,nan,nan,0.0,nan,nan,nan,nan,nan,nan,nan,nan,nan,nan,nan,nan,nan,nan,nan,nan,nan,nan,214.74585739790928,573.1629486215534,nan,573.7304396366235,nan,nan,nan,nan
1,244,1,1,1.0,1.0,0.32739571295678616,0,7,1,5,2,6,4,nan,nan,nan,nan,nan,nan,nan,nan,nan,nan,nan,nan,0.0,nan,nan,nan,nan,nan,nan,nan,nan,nan,nan,nan,nan,nan,nan,nan,nan,nan,nan,214.74585739790928,574.1630649410654,nan,574.4904606540222,nan,nan,nan,nan
1,245,1,1,1.0,1.0,0.33527322846930474,0,5,8,7,1,2,0,nan,nan,nan,nan,nan,nan,nan,nan,nan,nan,nan,nan,0.0,nan,nan,nan,nan,nan,nan,nan,nan,nan,nan,nan,nan,nan,nan,nan,nan,nan,nan,214.74585739790928,575.1631915241014,nan,575.4984647525707,nan,nan,nan,nan
1,246,1,1,1.0,1.0,0.2390772207872942,0,1,4,0,7,3,2,nan,nan,nan,nan,nan,nan,nan,nan,nan,nan,nan,nan,0.0,nan,nan,nan,nan,nan,nan,nan,nan,nan,nan,nan,nan,nan,nan,nan,nan,nan,nan,214.74585739790928,576.1633486126084,nan,576.4024258333957,nan,nan,nan,nan
1,247,1,1,1.0,1.0,0.23895947565324605,0,8,3,7,2,4,5,nan,nan,nan,nan,nan,nan,nan,nan,nan,nan,nan,nan,0.0,nan,nan,nan,nan,nan,nan,nan,nan,nan,nan,nan,nan,nan,nan,nan,nan,nan,nan,214.74585739790928,577.1634412691928,nan,577.4024007448461,nan,nan,nan,nan
1,248,1,1,1.0,1.0,0.19080659083556384,0,4,5,0,7,8,3,nan,nan,nan,nan,nan,nan,nan,nan,nan,nan,nan,nan,0.0,nan,nan,nan,nan,nan,nan,nan,nan,nan,nan,nan,nan,nan,nan,nan,nan,nan,nan,214.74585739790928,578.1635724137304,nan,578.354379004566,nan,nan,nan,nan
1,249,1,1,1.0,1.0,0.23864615405909717,0,8,1,4,3,7,2,nan,nan,nan,nan,nan,nan,nan,nan,nan,nan,nan,nan,0.0,nan,nan,nan,nan,nan,nan,nan,nan,nan,nan,nan,nan,nan,nan,nan,nan,nan,nan,214.74585739790928,579.1636984266806,nan,579.4023445807397,nan,nan,nan,nan
1,250,1,1,1.0,1.0,0.5025353677337989,1,0,6,5,8,4,3,1.0,1.0,1.0,1.0,1.0,1.0,0.0,0.0,1.0,0.0,0.0,0.0,1.0,6.0,4.0,5.0,5.0,8.0,2.0,5.0,3.0,1.0,4.0,2.0,6.0,6.321711733820848,4.089735709363595,1.9084120152983814,4.834989271708764,2.916223388281651,6.841629751259461,214.74585739790928,580.1638164567994,580.9722631969489,580.6663518245332,588.8648853995837,589.8631725367159,581.9807248762809,588.8565545798047
1,251,1,1,1.0,1.0,0.37703765952028334,0,6,2,0,5,7,1,nan,nan,nan,nan,nan,nan,nan,nan,nan,nan,nan,nan,0.0,nan,nan,nan,nan,nan,nan,nan,nan,nan,nan,nan,nan,nan,nan,nan,nan,nan,nan,214.74585739790928,590.0651272758842,nan,590.4421649354044,nan,nan,nan,nan
1,252,1,1,1.0,1.0,0.4969303604448214,1,8,6,3,0,1,2,1.0,1.0,1.0,1.0,1.0,1.0,0.0,0.0,1.0,0.0,0.0,1.0,2.0,6.0,8.0,3.0,1.0,0.0,2.0,2.0,6.0,5.0,4.0,3.0,1.0,2.5638212464982644,6.260017025982961,5.219895038753748,4.180027357884683,3.4123714426532388,1.717399584595114,214.74585739790928,591.0651976948138,591.8735968237743,591.5621280552587,599.1911800678354,600.1901725350181,592.8904024371877,599.1828432610491
1,253,0,0,1.0,0.0,0.3305816720239818,0,3,5,1,8,2,4,nan,nan,nan,nan,nan,nan,nan,nan,nan,nan,nan,nan,0.0,nan,nan,nan,nan,nan,nan,nan,nan,nan,nan,nan,nan,nan,nan,nan,nan,nan,nan,214.74585739790928,600.3913526654942,nan,600.7219343375182,nan,nan,nan,nan
1,254,1,1,nan,nan,nan,0,4,1,7,6,8,2,nan,nan,nan,nan,nan,nan,nan,nan,nan,nan,nan,nan,0.0,nan,nan,nan,nan,nan,nan,nan,nan,nan,nan,nan,nan,nan,nan,nan,nan,nan,nan,214.74585739790928,601.391472121235,nan,nan,nan,nan,nan,nan
1,255,1,1,1.0,1.0,0.5782383171608672,0,7,4,1,3,2,6,nan,nan,nan,nan,nan,nan,nan,nan,nan,nan,nan,nan,0.0,nan,nan,nan,nan,nan,nan,nan,nan,nan,nan,nan,nan,nan,nan,nan,nan,nan,nan,214.74585739790928,602.3915958532598,nan,602.9698341704207,nan,nan,nan,nan
1,256,0,0,0.0,1.0,0.5700993676437065,0,4,6,5,2,0,8,nan,nan,nan,nan,nan,nan,nan,nan,nan,nan,nan,nan,0.0,nan,nan,nan,nan,nan,nan,nan,nan,nan,nan,nan,nan,nan,nan,nan,nan,nan,nan,214.74585739790928,603.3917797409231,nan,603.9618791085668,nan,nan,nan,nan
1,257,1,1,1.0,1.0,0.5539762764237821,0,1,2,6,8,3,5,nan,nan,nan,nan,nan,nan,nan,nan,nan,nan,nan,nan,0.0,nan,nan,nan,nan,nan,nan,nan,nan,nan,nan,nan,nan,nan,nan,nan,nan,nan,nan,214.74585739790928,604.3918524406618,nan,604.9458287170855,nan,nan,nan,nan
1,258,1,1,1.0,1.0,0.6018568938598037,0,5,6,4,3,7,1,nan,nan,nan,nan,nan,nan,nan,nan,nan,nan,nan,nan,0.0,nan,nan,nan,nan,nan,nan,nan,nan,nan,nan,nan,nan,nan,nan,nan,nan,nan,nan,214.74585739790928,605.3919793087989,nan,605.9938362026587,nan,nan,nan,nan
1,259,1,1,1.0,1.0,0.6496611051261425,1,8,3,7,2,4,6,1.0,1.0,1.0,1.0,1.0,1.0,1.0,0.0,0.0,0.0,0.0,0.0,1.0,8.0,4.0,2.0,7.0,3.0,0.0,5.0,6.0,2.0,1.0,3.0,4.0,6.8525552389910445,7.588607010315172,2.80494375328999,1.9408261199714616,4.534608211135492,5.564841608633287,214.74585739790928,606.3921324058902,607.2005406579701,607.0417935110163,615.8432625018759,616.8506391019328,608.2173288804479,615.8349279758986
1,260,1,1,1.0,1.0,0.44580676464829594,0,2,7,8,4,1,3,nan,nan,nan,nan,nan,nan,nan,nan,nan,nan,nan,nan,0.0,nan,nan,nan,nan,nan,nan,nan,nan,nan,nan,nan,nan,nan,nan,nan,nan,nan,nan,214.74585739790928,617.0517833102494,nan,617.4975900748977,nan,nan,nan,nan
1,261,1,1,1.0,1.0,0.3816793239675462,0,8,6,4,0,7,2,nan,nan,nan,nan,nan,nan,nan,nan,nan,nan,nan,nan,0.0,nan,nan,nan,nan,nan,nan,nan,nan,nan,nan,nan,nan,nan,nan,nan,nan,nan,nan,214.74585739790928,618.05186826922,nan,618.4335475931875,nan,nan,nan,nan
1,262,1,1,1.0,1.0,0.341509155347012,0,0,7,1,4,5,3,nan,nan,nan,nan,nan,nan,nan,nan,nan,nan,nan,nan,0.0,nan,nan,nan,nan,nan,nan,nan,nan,nan,nan,nan,nan,nan,nan,nan,nan,nan,nan,214.74585739790928,619.0520170897944,nan,619.3935262451414,nan,nan,nan,nan
1,263,1,1,1.0,1.0,0.3333588020177558,0,8,4,3,2,7,1,nan,nan,nan,nan,nan,nan,nan,nan,nan,nan,nan,nan,0.0,nan,nan,nan,nan,nan,nan,nan,nan,nan,nan,nan,nan,nan,nan,nan,nan,nan,nan,214.74585739790928,620.0521656253841,nan,620.3855244274018,nan,nan,nan,nan
1,264,1,1,1.0,1.0,0.46124391246121377,0,3,1,2,6,4,0,nan,nan,nan,nan,nan,nan,nan,nan,nan,nan,nan,nan,0.0,nan,nan,nan,nan,nan,nan,nan,nan,nan,nan,nan,nan,nan,nan,nan,nan,nan,nan,214.74585739790928,621.0522696857806,nan,621.5135135982418,nan,nan,nan,nan
1,265,0,0,0.0,1.0,0.5170644815079868,0,2,0,7,8,6,1,nan,nan,nan,nan,nan,nan,nan,nan,nan,nan,nan,nan,0.0,nan,nan,nan,nan,nan,nan,nan,nan,nan,nan,nan,nan,nan,nan,nan,nan,nan,nan,214.74585739790928,622.0524239232764,nan,622.5694884047844,nan,nan,nan,nan
1,266,1,1,1.0,1.0,0.5009237143676728,0,7,3,8,5,4,0,nan,nan,nan,nan,nan,nan,nan,nan,nan,nan,nan,nan,0.0,nan,nan,nan,nan,nan,nan,nan,nan,nan,nan,nan,nan,nan,nan,nan,nan,nan,nan,214.74585739790928,623.052551931818,nan,623.5534756461857,nan,nan,nan,nan
1,267,1,1,1.0,1.0,0.3727823016233742,0,1,8,0,6,7,4,nan,nan,nan,nan,nan,nan,nan,nan,nan,nan,nan,nan,0.0,nan,nan,nan,nan,nan,nan,nan,nan,nan,nan,nan,nan,nan,nan,nan,nan,nan,nan,214.74585739790928,624.0526448735036,nan,624.425427175127,nan,nan,nan,nan
1,268,1,1,1.0,1.0,0.34062906086910516,0,0,7,4,2,8,1,nan,nan,nan,nan,nan,nan,nan,nan,nan,nan,nan,nan,0.0,nan,nan,nan,nan,nan,nan,nan,nan,nan,nan,nan,nan,nan,nan,nan,nan,nan,nan,214.74585739790928,625.0527691757306,nan,625.3933982365998,nan,nan,nan,nan
1,269,1,1,1.0,1.0,0.3885014104889706,0,2,3,8,7,0,5,nan,nan,nan,nan,nan,nan,nan,nan,nan,nan,nan,nan,0.0,nan,nan,nan,nan,nan,nan,nan,nan,nan,nan,nan,nan,nan,nan,nan,nan,nan,nan,214.74585739790928,626.0528951885644,nan,626.4413965990534,nan,nan,nan,nan
1,270,1,1,1.0,1.0,0.4123309588758275,0,6,8,1,3,5,0,nan,nan,nan,nan,nan,nan,nan,nan,nan,nan,nan,nan,0.0,nan,nan,nan,nan,nan,nan,nan,nan,nan,nan,nan,nan,nan,nan,nan,nan,nan,nan,214.74585739790928,627.0530263332184,nan,627.4653572920943,nan,nan,nan,nan
1,271,1,1,1.0,1.0,0.38017999881412834,0,7,6,5,8,4,3,nan,nan,nan,nan,nan,nan,nan,nan,nan,nan,nan,nan,0.0,nan,nan,nan,nan,nan,nan,nan,nan,nan,nan,nan,nan,nan,nan,nan,nan,nan,nan,214.74585739790928,628.0531760092126,nan,628.4333560080267,nan,nan,nan,nan
1,272,1,1,1.0,1.0,0.4120566954370588,0,5,3,7,0,6,1,nan,nan,nan,nan,nan,nan,nan,nan,nan,nan,nan,nan,0.0,nan,nan,nan,nan,nan,nan,nan,nan,nan,nan,nan,nan,nan,nan,nan,nan,nan,nan,214.74585739790928,629.0532729421975,nan,629.4653296376346,nan,nan,nan,nan
1,273,1,1,1.0,1.0,0.37989974848460406,0,1,0,2,6,8,3,nan,nan,nan,nan,nan,nan,nan,nan,nan,nan,nan,nan,0.0,nan,nan,nan,nan,nan,nan,nan,nan,nan,nan,nan,nan,nan,nan,nan,nan,nan,nan,214.74585739790928,630.0534077930497,nan,630.4333075415343,nan,nan,nan,nan
1,274,1,1,1.0,1.0,0.29941857315134257,0,8,7,4,2,6,5,nan,nan,nan,nan,nan,nan,nan,nan,nan,nan,nan,nan,0.0,nan,nan,nan,nan,nan,nan,nan,nan,nan,nan,nan,nan,nan,nan,nan,nan,nan,nan,214.74585739790928,631.0618566429475,nan,631.3612752160989,nan,nan,nan,nan
1,275,0,0,0.0,1.0,0.6992925031809136,0,2,1,0,7,5,8,nan,nan,nan,nan,nan,nan,nan,nan,nan,nan,nan,nan,0.0,nan,nan,nan,nan,nan,nan,nan,nan,nan,nan,nan,nan,nan,nan,nan,nan,nan,nan,214.74585739790928,632.0619952001143,nan,632.7612877032952,nan,nan,nan,nan
1,276,1,1,1.0,1.0,0.6111282486235723,0,6,5,2,1,8,0,nan,nan,nan,nan,nan,nan,nan,nan,nan,nan,nan,nan,0.0,nan,nan,nan,nan,nan,nan,nan,nan,nan,nan,nan,nan,nan,nan,nan,nan,nan,nan,214.74585739790928,633.0621026816079,nan,633.6732309302315,nan,nan,nan,nan
1,277,1,1,1.0,1.0,0.4109784585889429,0,2,6,7,3,5,4,nan,nan,nan,nan,nan,nan,nan,nan,nan,nan,nan,nan,0.0,nan,nan,nan,nan,nan,nan,nan,nan,nan,nan,nan,nan,nan,nan,nan,nan,nan,nan,214.74585739790928,634.0622446599882,nan,634.4732231185772,nan,nan,nan,nan
1,278,0,0,1.0,0.0,0.5868442555656657,0,4,8,1,5,6,0,nan,nan,nan,nan,nan,nan,nan,nan,nan,nan,nan,nan,0.0,nan,nan,nan,nan,nan,nan,nan,nan,nan,nan,nan,nan,nan,nan,nan,nan,nan,nan,214.74585739790928,635.0623629752081,nan,635.6492072307738,nan,nan,nan,nan
1,279,1,1,nan,nan,nan,0,6,7,3,4,2,8,nan,nan,nan,nan,nan,nan,nan,nan,nan,nan,nan,nan,0.0,nan,nan,nan,nan,nan,nan,nan,nan,nan,nan,nan,nan,nan,nan,nan,nan,nan,nan,214.74585739790928,636.0624795799376,nan,nan,nan,nan,nan,nan
1,280,1,1,1.0,1.0,0.1465612454339862,0,2,1,5,7,3,6,nan,nan,nan,nan,nan,nan,nan,nan,nan,nan,nan,nan,0.0,nan,nan,nan,nan,nan,nan,nan,nan,nan,nan,nan,nan,nan,nan,nan,nan,nan,nan,214.74585739790928,637.0626141456887,nan,637.2091753911227,nan,nan,nan,nan
1,281,1,1,1.0,1.0,0.08238932967651635,0,7,3,1,4,8,5,nan,nan,nan,nan,nan,nan,nan,nan,nan,nan,nan,nan,0.0,nan,nan,nan,nan,nan,nan,nan,nan,nan,nan,nan,nan,nan,nan,nan,nan,nan,nan,214.74585739790928,638.062733316212,nan,638.1451226458885,nan,nan,nan,nan
1,282,1,1,nan,nan,nan,0,5,1,4,8,2,7,nan,nan,nan,nan,nan,nan,nan,nan,nan,nan,nan,nan,0.0,nan,nan,nan,nan,nan,nan,nan,nan,nan,nan,nan,nan,nan,nan,nan,nan,nan,nan,214.74585739790928,639.0628556228476,nan,nan,nan,nan,nan,nan
1,283,1,1,1.0,1.0,0.6421137320576236,0,0,3,5,2,8,1,nan,nan,nan,nan,nan,nan,nan,nan,nan,nan,nan,nan,0.0,nan,nan,nan,nan,nan,nan,nan,nan,nan,nan,nan,nan,nan,nan,nan,nan,nan,nan,214.74585739790928,640.0629759337753,nan,640.7050896658329,nan,nan,nan,nan
1,284,1,1,1.0,1.0,0.4579821176594123,0,5,0,6,3,1,2,nan,nan,nan,nan,nan,nan,nan,nan,nan,nan,nan,nan,0.0,nan,nan,nan,nan,nan,nan,nan,nan,nan,nan,nan,nan,nan,nan,nan,nan,nan,nan,214.74585739790928,641.0631113548297,nan,641.5210934724892,nan,nan,nan,nan
1,285,1,1,1.0,1.0,0.40981412248220295,1,2,8,5,7,6,0,1.0,1.0,1.0,1.0,1.0,1.0,1.0,0.0,0.0,1.0,0.0,0.0,2.0,2.0,0.0,1.0,7.0,3.0,8.0,1.0,4.0,5.0,2.0,3.0,6.0,1.6402027268195525,4.806326188612729,5.5253935906803235,2.8157004634849727,3.54252877633553,6.445146194892004,214.74585739790928,642.0632342316676,642.8716498962604,642.4730483541498,650.3642704453086,651.3727862929227,643.88013780443,650.3558942951495
1,286,1,1,1.0,1.0,0.396135738119483,0,7,3,1,4,2,5,nan,nan,nan,nan,nan,nan,nan,nan,nan,nan,nan,nan,0.0,nan,nan,nan,nan,nan,nan,nan,nan,nan,nan,nan,nan,nan,nan,nan,nan,nan,nan,214.74585739790928,651.5727601781255,nan,651.968895916245,nan,nan,nan,nan
1,287,1,1,1.0,1.0,0.4599524229997769,0,0,4,6,5,8,1,nan,nan,nan,nan,nan,nan,nan,nan,nan,nan,nan,nan,0.0,nan,nan,nan,nan,nan,nan,nan,nan,nan,nan,nan,nan,nan,nan,nan,nan,nan,nan,214.74585739790928,652.5729101391044,nan,653.0328625621041,nan,nan,nan,nan
1,288,1,1,1.0,1.0,0.3318215588806197,0,8,2,7,1,5,6,nan,nan,nan,nan,nan,nan,nan,nan,nan,nan,nan,nan,0.0,nan,nan,nan,nan,nan,nan,nan,nan,nan,nan,nan,nan,nan,nan,nan,nan,nan,nan,214.74585739790928,653.573008782696,nan,653.9048303415766,nan,nan,nan,nan
1,289,1,1,1.0,1.0,0.35566507710609585,0,1,7,0,8,6,2,nan,nan,nan,nan,nan,nan,nan,nan,nan,nan,nan,nan,0.0,nan,nan,nan,nan,nan,nan,nan,nan,nan,nan,nan,nan,nan,nan,nan,nan,nan,nan,214.74585739790928,654.5731470547616,nan,654.9288121318677,nan,nan,nan,nan
1,290,0,0,0.0,1.0,0.5475270970491692,0,0,5,4,3,2,6,nan,nan,nan,nan,nan,nan,nan,nan,nan,nan,nan,nan,0.0,nan,nan,nan,nan,nan,nan,nan,nan,nan,nan,nan,nan,nan,nan,nan,nan,nan,nan,214.74585739790928,655.5732630891725,nan,656.1207901862217,nan,nan,nan,nan
1,291,1,1,1.0,1.0,0.40339373785536736,0,2,6,0,5,8,7,nan,nan,nan,nan,nan,nan,nan,nan,nan,nan,nan,nan,0.0,nan,nan,nan,nan,nan,nan,nan,nan,nan,nan,nan,nan,nan,nan,nan,nan,nan,nan,214.74585739790928,656.573385110707,nan,656.9767788485624,nan,nan,nan,nan
1,292,1,1,1.0,1.0,0.4352328017121181,0,1,3,5,0,4,8,nan,nan,nan,nan,nan,nan,nan,nan,nan,nan,nan,nan,0.0,nan,nan,nan,nan,nan,nan,nan,nan,nan,nan,nan,nan,nan,nan,nan,nan,nan,nan,214.74585739790928,657.5735068471404,nan,658.0087396488525,nan,nan,nan,nan
1,293,1,1,1.0,1.0,0.3790658396901563,0,6,5,3,1,7,0,nan,nan,nan,nan,nan,nan,nan,nan,nan,nan,nan,nan,0.0,nan,nan,nan,nan,nan,nan,nan,nan,nan,nan,nan,nan,nan,nan,nan,nan,nan,nan,214.74585739790928,658.5736382768955,nan,658.9527041165857,nan,nan,nan,nan
1,294,0,0,0.0,1.0,0.4829551901202649,0,3,0,5,7,8,1,nan,nan,nan,nan,nan,nan,nan,nan,nan,nan,nan,nan,0.0,nan,nan,nan,nan,nan,nan,nan,nan,nan,nan,nan,nan,nan,nan,nan,nan,nan,nan,214.74585739790928,659.5737597282277,nan,660.056714918348,nan,nan,nan,nan
1,295,1,1,1.0,1.0,0.4268010575324297,0,0,8,6,2,5,4,nan,nan,nan,nan,nan,nan,nan,nan,nan,nan,nan,nan,0.0,nan,nan,nan,nan,nan,nan,nan,nan,nan,nan,nan,nan,nan,nan,nan,nan,nan,nan,214.74585739790928,660.5738826050656,nan,661.000683662598,nan,nan,nan,nan
1,296,1,1,1.0,1.0,0.5306661748327315,0,6,0,7,4,8,3,nan,nan,nan,nan,nan,nan,nan,nan,nan,nan,nan,nan,0.0,nan,nan,nan,nan,nan,nan,nan,nan,nan,nan,nan,nan,nan,nan,nan,nan,nan,nan,214.74585739790928,661.5740123240976,nan,662.1046784989303,nan,nan,nan,nan
1,297,1,1,1.0,1.0,0.5624824308324605,0,0,1,4,5,2,8,nan,nan,nan,nan,nan,nan,nan,nan,nan,nan,nan,nan,0.0,nan,nan,nan,nan,nan,nan,nan,nan,nan,nan,nan,nan,nan,nan,nan,nan,nan,nan,214.74585739790928,662.5741620000917,nan,663.1366444309242,nan,nan,nan,nan
1,298,1,1,1.0,1.0,0.29835943784564734,0,2,5,6,4,7,1,nan,nan,nan,nan,nan,nan,nan,nan,nan,nan,nan,nan,0.0,nan,nan,nan,nan,nan,nan,nan,nan,nan,nan,nan,nan,nan,nan,nan,nan,nan,nan,214.74585739790928,663.5742623541737,nan,663.8726217920193,nan,nan,nan,nan
1,299,1,1,1.0,1.0,0.25819069461431354,0,7,0,4,5,1,6,nan,nan,nan,nan,nan,nan,nan,nan,nan,nan,nan,nan,0.0,nan,nan,nan,nan,nan,nan,nan,nan,nan,nan,nan,nan,nan,nan,nan,nan,nan,nan,214.74585739790928,664.574418017175,nan,664.8326087117894,nan,nan,nan,nan
1,300,1,1,1.0,1.0,0.2020411235280335,0,8,2,3,1,6,0,nan,nan,nan,nan,nan,nan,nan,nan,nan,nan,nan,nan,0.0,nan,nan,nan,nan,nan,nan,nan,nan,nan,nan,nan,nan,nan,nan,nan,nan,nan,nan,214.74585739790928,665.5745360474102,nan,665.7765771709383,nan,nan,nan,nan
1,301,1,1,1.0,1.0,0.24191365099977702,0,4,0,5,8,7,2,nan,nan,nan,nan,nan,nan,nan,nan,nan,nan,nan,nan,0.0,nan,nan,nan,nan,nan,nan,nan,nan,nan,nan,nan,nan,nan,nan,nan,nan,nan,nan,214.74585739790928,666.5746372567955,nan,666.8165509077953,nan,nan,nan,nan
1,302,1,1,1.0,1.0,0.2897677542641759,0,7,3,6,2,4,8,nan,nan,nan,nan,nan,nan,nan,nan,nan,nan,nan,nan,0.0,nan,nan,nan,nan,nan,nan,nan,nan,nan,nan,nan,nan,nan,nan,nan,nan,nan,nan,214.74585739790928,667.5747609889368,nan,667.8645287432009,nan,nan,nan,nan
1,303,1,1,1.0,1.0,0.40164552291389555,0,3,5,4,6,0,2,nan,nan,nan,nan,nan,nan,nan,nan,nan,nan,nan,nan,0.0,nan,nan,nan,nan,nan,nan,nan,nan,nan,nan,nan,nan,nan,nan,nan,nan,nan,nan,214.74585739790928,668.5748872868717,nan,668.9765328097856,nan,nan,nan,nan
1,304,1,1,1.0,1.0,0.42546737380325794,0,6,2,1,5,8,3,nan,nan,nan,nan,nan,nan,nan,nan,nan,nan,nan,nan,0.0,nan,nan,nan,nan,nan,nan,nan,nan,nan,nan,nan,nan,nan,nan,nan,nan,nan,nan,214.74585739790928,669.5750130146043,nan,670.0004803884076,nan,nan,nan,nan
1,305,1,1,1.0,1.0,0.3133649487281218,0,3,8,6,4,7,1,nan,nan,nan,nan,nan,nan,nan,nan,nan,nan,nan,nan,0.0,nan,nan,nan,nan,nan,nan,nan,nan,nan,nan,nan,nan,nan,nan,nan,nan,nan,nan,214.74585739790928,670.5751270534238,nan,670.8884920021519,nan,nan,nan,nan
1,306,1,1,1.0,1.0,0.32118202361743897,0,6,4,5,0,2,8,nan,nan,nan,nan,nan,nan,nan,nan,nan,nan,nan,nan,0.0,nan,nan,nan,nan,nan,nan,nan,nan,nan,nan,nan,nan,nan,nan,nan,nan,nan,nan,214.74585739790928,671.5752681765007,nan,671.8964502001181,nan,nan,nan,nan
1,307,1,1,1.0,1.0,0.21703865169547498,0,4,2,3,6,1,7,nan,nan,nan,nan,nan,nan,nan,nan,nan,nan,nan,nan,0.0,nan,nan,nan,nan,nan,nan,nan,nan,nan,nan,nan,nan,nan,nan,nan,nan,nan,nan,214.74585739790928,672.5753825004213,nan,672.7924211521167,nan,nan,nan,nan
1,308,1,1,1.0,1.0,0.048885869327932596,0,5,7,8,3,2,1,nan,nan,nan,nan,nan,nan,nan,nan,nan,nan,nan,nan,0.0,nan,nan,nan,nan,nan,nan,nan,nan,nan,nan,nan,nan,nan,nan,nan,nan,nan,nan,214.74585739790928,673.5755204873858,nan,673.6244063567137,nan,nan,nan,nan
1,309,1,1,1.0,1.0,0.6727208917727694,0,7,3,0,8,4,6,nan,nan,nan,nan,nan,nan,nan,nan,nan,nan,nan,nan,0.0,nan,nan,nan,nan,nan,nan,nan,nan,nan,nan,nan,nan,nan,nan,nan,nan,nan,nan,214.74585739790928,674.5756305347895,nan,675.2483514265623,nan,nan,nan,nan
1,310,1,1,1.0,1.0,0.28058591997250915,0,1,0,4,5,8,2,nan,nan,nan,nan,nan,nan,nan,nan,nan,nan,nan,nan,0.0,nan,nan,nan,nan,nan,nan,nan,nan,nan,nan,nan,nan,nan,nan,nan,nan,nan,nan,214.74585739790928,675.5757710875478,nan,675.8563570075203,nan,nan,nan,nan
1,311,1,1,1.0,1.0,0.27249686245340854,0,4,1,6,2,7,0,nan,nan,nan,nan,nan,nan,nan,nan,nan,nan,nan,nan,0.0,nan,nan,nan,nan,nan,nan,nan,nan,nan,nan,nan,nan,nan,nan,nan,nan,nan,nan,214.74585739790928,676.5758657398401,nan,676.8483626022935,nan,nan,nan,nan
1,312,0,0,1.0,0.0,0.4083070997148752,0,8,2,3,6,4,1,nan,nan,nan,nan,nan,nan,nan,nan,nan,nan,nan,nan,0.0,nan,nan,nan,nan,nan,nan,nan,nan,nan,nan,nan,nan,nan,nan,nan,nan,nan,nan,214.74585739790928,677.5760162710212,nan,677.9843233707361,nan,nan,nan,nan
1,313,1,1,1.0,1.0,0.568151299841702,0,2,6,1,0,5,7,nan,nan,nan,nan,nan,nan,nan,nan,nan,nan,nan,nan,0.0,nan,nan,nan,nan,nan,nan,nan,nan,nan,nan,nan,nan,nan,nan,nan,nan,nan,nan,214.74585739790928,678.5761331608519,nan,679.1442844606936,nan,nan,nan,nan
1,314,1,1,1.0,1.0,0.45599755726289004,0,7,5,3,2,8,1,nan,nan,nan,nan,nan,nan,nan,nan,nan,nan,nan,nan,0.0,nan,nan,nan,nan,nan,nan,nan,nan,nan,nan,nan,nan,nan,nan,nan,nan,nan,nan,214.74585739790928,679.5762893939391,nan,680.032286951202,nan,nan,nan,nan
1,315,1,1,1.0,1.0,0.44790251285303384,0,1,8,5,6,7,3,nan,nan,nan,nan,nan,nan,nan,nan,nan,nan,nan,nan,0.0,nan,nan,nan,nan,nan,nan,nan,nan,nan,nan,nan,nan,nan,nan,nan,nan,nan,nan,214.74585739790928,680.5763866120251,nan,681.0242891248781,nan,nan,nan,nan
1,316,1,1,1.0,1.0,0.3277509438339621,0,3,0,6,5,4,1,nan,nan,nan,nan,nan,nan,nan,nan,nan,nan,nan,nan,0.0,nan,nan,nan,nan,nan,nan,nan,nan,nan,nan,nan,nan,nan,nan,nan,nan,nan,nan,214.74585739790928,681.5765154758701,nan,681.9042664197041,nan,nan,nan,nan
1,317,1,1,1.0,1.0,0.30355076922569424,0,2,8,1,0,3,5,nan,nan,nan,nan,nan,nan,nan,nan,nan,nan,nan,nan,0.0,nan,nan,nan,nan,nan,nan,nan,nan,nan,nan,nan,nan,nan,nan,nan,nan,nan,nan,214.74585739790928,682.5766657220665,nan,682.8802164912922,nan,nan,nan,nan
1,318,1,1,1.0,1.0,0.2234179824590683,0,3,4,5,8,2,1,nan,nan,nan,nan,nan,nan,nan,nan,nan,nan,nan,nan,0.0,nan,nan,nan,nan,nan,nan,nan,nan,nan,nan,nan,nan,nan,nan,nan,nan,nan,nan,214.74585739790928,683.5768005729187,nan,683.8002185553778,nan,nan,nan,nan
1,319,0,0,1.0,0.0,0.25527586264070123,0,0,7,8,6,1,2,nan,nan,nan,nan,nan,nan,nan,nan,nan,nan,nan,nan,0.0,nan,nan,nan,nan,nan,nan,nan,nan,nan,nan,nan,nan,nan,nan,nan,nan,nan,nan,214.74585739790928,684.5768920890987,nan,684.8321679517394,nan,nan,nan,nan
1,320,1,1,1.0,1.0,0.6071189293870702,0,7,0,6,1,4,8,nan,nan,nan,nan,nan,nan,nan,nan,nan,nan,nan,nan,0.0,nan,nan,nan,nan,nan,nan,nan,nan,nan,nan,nan,nan,nan,nan,nan,nan,nan,nan,214.74585739790928,685.5770143956179,nan,686.184133325005,nan,nan,nan,nan
1,321,0,0,0.0,1.0,0.5190476163988933,0,5,1,3,2,8,4,nan,nan,nan,nan,nan,nan,nan,nan,nan,nan,nan,nan,0.0,nan,nan,nan,nan,nan,nan,nan,nan,nan,nan,nan,nan,nan,nan,nan,nan,nan,nan,214.74585739790928,686.5771213070257,nan,687.0961689234246,nan,nan,nan,nan
1,322,1,1,1.0,1.0,0.4388372831745073,0,8,3,1,4,5,0,nan,nan,nan,nan,nan,nan,nan,nan,nan,nan,nan,nan,0.0,nan,nan,nan,nan,nan,nan,nan,nan,nan,nan,nan,nan,nan,nan,nan,nan,nan,nan,214.74585739790928,687.5772675618064,nan,688.0161048449809,nan,nan,nan,nan
1,323,1,1,1.0,1.0,0.3906995083671063,0,6,4,0,2,1,3,nan,nan,nan,nan,nan,nan,nan,nan,nan,nan,nan,nan,0.0,nan,nan,nan,nan,nan,nan,nan,nan,nan,nan,nan,nan,nan,nan,nan,nan,nan,nan,214.74585739790928,688.5774026977597,nan,688.9681022061268,nan,nan,nan,nan
1,324,1,1,1.0,1.0,0.43057688244152814,0,3,6,7,4,0,8,nan,nan,nan,nan,nan,nan,nan,nan,nan,nan,nan,nan,0.0,nan,nan,nan,nan,nan,nan,nan,nan,nan,nan,nan,nan,nan,nan,nan,nan,nan,nan,214.74585739790928,689.5775252894964,nan,690.0081021719379,nan,nan,nan,nan
1,325,1,1,1.0,1.0,0.5104262827662751,0,0,7,2,6,1,3,nan,nan,nan,nan,nan,nan,nan,nan,nan,nan,nan,nan,0.0,nan,nan,nan,nan,nan,nan,nan,nan,nan,nan,nan,nan,nan,nan,nan,nan,nan,nan,214.74585739790928,690.5776444600197,nan,691.0880707427859,nan,nan,nan,nan
1,326,1,1,1.0,1.0,0.3742528320290148,0,7,5,3,2,6,4,nan,nan,nan,nan,nan,nan,nan,nan,nan,nan,nan,nan,0.0,nan,nan,nan,nan,nan,nan,nan,nan,nan,nan,nan,nan,nan,nan,nan,nan,nan,nan,214.74585739790928,691.5777676219586,nan,691.9520204539876,nan,nan,nan,nan
1,327,1,1,1.0,1.0,0.27812382217962295,0,1,4,6,7,3,8,nan,nan,nan,nan,nan,nan,nan,nan,nan,nan,nan,nan,0.0,nan,nan,nan,nan,nan,nan,nan,nan,nan,nan,nan,nan,nan,nan,nan,nan,nan,nan,214.74585739790928,692.5778976262081,nan,692.8560214483878,nan,nan,nan,nan
1,328,1,1,1.0,1.0,0.3179820948280394,0,4,7,3,8,5,2,nan,nan,nan,nan,nan,nan,nan,nan,nan,nan,nan,nan,0.0,nan,nan,nan,nan,nan,nan,nan,nan,nan,nan,nan,nan,nan,nan,nan,nan,nan,nan,214.74585739790928,693.5780165116303,nan,693.8959986064583,nan,nan,nan,nan
1,329,1,1,1.0,1.0,0.37385027506388724,0,7,6,2,1,0,4,nan,nan,nan,nan,nan,nan,nan,nan,nan,nan,nan,nan,0.0,nan,nan,nan,nan,nan,nan,nan,nan,nan,nan,nan,nan,nan,nan,nan,nan,nan,nan,214.74585739790928,694.5781445201719,nan,694.9519947952358,nan,nan,nan,nan
1,330,1,1,1.0,1.0,0.33368039142806083,0,6,3,5,8,7,0,nan,nan,nan,nan,nan,nan,nan,nan,nan,nan,nan,nan,0.0,nan,nan,nan,nan,nan,nan,nan,nan,nan,nan,nan,nan,nan,nan,nan,nan,nan,nan,214.74585739790928,695.5782922004582,nan,695.9119725918863,nan,nan,nan,nan
1,331,1,1,1.0,1.0,0.27753281604964286,0,8,1,6,2,3,5,nan,nan,nan,nan,nan,nan,nan,nan,nan,nan,nan,nan,0.0,nan,nan,nan,nan,nan,nan,nan,nan,nan,nan,nan,nan,nan,nan,nan,nan,nan,nan,214.74585739790928,696.5783925546566,nan,696.8559253707062,nan,nan,nan,nan
1,332,1,1,1.0,1.0,0.3334183873375878,0,2,3,8,4,5,1,nan,nan,nan,nan,nan,nan,nan,nan,nan,nan,nan,nan,0.0,nan,nan,nan,nan,nan,nan,nan,nan,nan,nan,nan,nan,nan,nan,nan,nan,nan,nan,214.74585739790928,697.5785165717825,nan,697.9119349591201,nan,nan,nan,nan
1,333,1,1,1.0,1.0,0.3092378843575716,0,0,6,2,3,7,4,nan,nan,nan,nan,nan,nan,nan,nan,nan,nan,nan,nan,0.0,nan,nan,nan,nan,nan,nan,nan,nan,nan,nan,nan,nan,nan,nan,nan,nan,nan,nan,214.74585739790928,698.5786690986715,nan,698.8879069830291,nan,nan,nan,nan
1,334,1,1,1.0,1.0,0.309095335775055,0,3,0,8,2,5,1,nan,nan,nan,nan,nan,nan,nan,nan,nan,nan,nan,nan,0.0,nan,nan,nan,nan,nan,nan,nan,nan,nan,nan,nan,nan,nan,nan,nan,nan,nan,nan,214.74585739790928,699.5787965371273,nan,699.8878918729024,nan,nan,nan,nan
1,335,1,1,1.0,1.0,0.4209702535299584,0,7,5,4,0,2,3,nan,nan,nan,nan,nan,nan,nan,nan,nan,nan,nan,nan,0.0,nan,nan,nan,nan,nan,nan,nan,nan,nan,nan,nan,nan,nan,nan,nan,nan,nan,nan,214.74585739790928,700.5788923297077,nan,700.9998625832377,nan,nan,nan,nan
1,336,0,0,0.0,1.0,0.5168124557239935,0,2,0,5,6,7,8,nan,nan,nan,nan,nan,nan,nan,nan,nan,nan,nan,nan,0.0,nan,nan,nan,nan,nan,nan,nan,nan,nan,nan,nan,nan,nan,nan,nan,nan,nan,nan,214.74585739790928,701.5790203382494,nan,702.0958327939734,nan,nan,nan,nan
1,337,1,1,1.0,1.0,0.38867332390509546,0,7,1,6,8,0,2,nan,nan,nan,nan,nan,nan,nan,nan,nan,nan,nan,nan,0.0,nan,nan,nan,nan,nan,nan,nan,nan,nan,nan,nan,nan,nan,nan,nan,nan,nan,nan,214.74585739790928,702.5791440702742,nan,702.9678173941793,nan,nan,nan,nan
1,338,1,1,1.0,1.0,0.3245093908626586,0,1,4,2,5,3,6,nan,nan,nan,nan,nan,nan,nan,nan,nan,nan,nan,nan,0.0,nan,nan,nan,nan,nan,nan,nan,nan,nan,nan,nan,nan,nan,nan,nan,nan,nan,nan,214.74585739790928,703.5792891846504,nan,703.9037985755131,nan,nan,nan,nan
1,339,1,1,1.0,1.0,0.2923627073178068,0,4,0,7,3,2,5,nan,nan,nan,nan,nan,nan,nan,nan,nan,nan,nan,nan,0.0,nan,nan,nan,nan,nan,nan,nan,nan,nan,nan,nan,nan,nan,nan,nan,nan,nan,nan,214.74585739790928,704.5793949556537,nan,704.8717576629715,nan,nan,nan,nan
1,340,1,1,1.0,1.0,0.3082078289007768,1,0,2,3,7,6,8,1.0,1.0,1.0,1.0,1.0,1.0,0.0,0.0,0.0,1.0,0.0,0.0,1.0,4.0,3.0,6.0,7.0,5.0,0.0,6.0,4.0,3.0,1.0,5.0,2.0,9.111231738817878,4.983332658535801,3.745032612234354,1.7993661152431741,6.631378118996508,2.7919099731370807,214.74585739790928,705.579521253705,706.3879357778933,705.8877290826058,716.555866184528,717.5622620509239,707.4047450976213,716.5475313734496
1,341,1,1,1.0,1.0,0.5231513027101755,0,8,4,2,3,0,5,nan,nan,nan,nan,nan,nan,nan,nan,nan,nan,nan,nan,0.0,nan,nan,nan,nan,nan,nan,nan,nan,nan,nan,nan,nan,nan,nan,nan,nan,nan,nan,214.74585739790928,717.764377869782,nan,718.2875291724922,nan,nan,nan,nan
1,342,1,1,1.0,1.0,0.3150256387889385,0,7,8,3,1,2,0,nan,nan,nan,nan,nan,nan,nan,nan,nan,nan,nan,nan,0.0,nan,nan,nan,nan,nan,nan,nan,nan,nan,nan,nan,nan,nan,nan,nan,nan,nan,nan,214.74585739790928,718.7645070187282,nan,719.0795326575171,nan,nan,nan,nan
1,343,1,1,1.0,1.0,0.306813134229742,0,4,0,2,8,3,6,nan,nan,nan,nan,nan,nan,nan,nan,nan,nan,nan,nan,0.0,nan,nan,nan,nan,nan,nan,nan,nan,nan,nan,nan,nan,nan,nan,nan,nan,nan,nan,214.74585739790928,719.7646512779174,nan,720.0714644121472,nan,nan,nan,nan
1,344,1,1,1.0,1.0,0.3226682342356071,0,0,8,7,4,1,3,nan,nan,nan,nan,nan,nan,nan,nan,nan,nan,nan,nan,0.0,nan,nan,nan,nan,nan,nan,nan,nan,nan,nan,nan,nan,nan,nan,nan,nan,nan,nan,214.74585739790928,720.7647801417625,nan,721.0874483759981,nan,nan,nan,nan
1,345,0,0,0.0,1.0,0.4665153562091291,0,4,6,2,3,8,5,nan,nan,nan,nan,nan,nan,nan,nan,nan,nan,nan,nan,0.0,nan,nan,nan,nan,nan,nan,nan,nan,nan,nan,nan,nan,nan,nan,nan,nan,nan,nan,214.74585739790928,721.7648790703388,nan,722.2313944265479,nan,nan,nan,nan
1,346,1,1,1.0,1.0,0.5864020700100809,0,6,1,8,5,2,4,nan,nan,nan,nan,nan,nan,nan,nan,nan,nan,nan,nan,0.0,nan,nan,nan,nan,nan,nan,nan,nan,nan,nan,nan,nan,nan,nan,nan,nan,nan,nan,214.74585739790928,722.7650039428845,nan,723.3514060128946,nan,nan,nan,nan
1,347,1,1,1.0,1.0,0.33022416033782065,0,5,8,2,0,3,7,nan,nan,nan,nan,nan,nan,nan,nan,nan,nan,nan,nan,0.0,nan,nan,nan,nan,nan,nan,nan,nan,nan,nan,nan,nan,nan,nan,nan,nan,nan,nan,214.74585739790928,723.7651405043434,nan,724.0953646646813,nan,nan,nan,nan
1,348,1,1,1.0,1.0,0.32208863203413785,0,8,4,6,5,7,2,nan,nan,nan,nan,nan,nan,nan,nan,nan,nan,nan,nan,0.0,nan,nan,nan,nan,nan,nan,nan,nan,nan,nan,nan,nan,nan,nan,nan,nan,nan,nan,214.74585739790928,724.7652565388707,nan,725.0873451709049,nan,nan,nan,nan
1,349,0,0,0.0,1.0,0.5219231048831716,0,5,7,8,1,6,0,nan,nan,nan,nan,nan,nan,nan,nan,nan,nan,nan,nan,0.0,nan,nan,nan,nan,nan,nan,nan,nan,nan,nan,nan,nan,nan,nan,nan,nan,nan,nan,214.74585739790928,725.7654025084339,nan,726.2873256133171,nan,nan,nan,nan
1,350,1,1,1.0,1.0,0.47382353292778134,0,6,1,2,4,3,7,nan,nan,nan,nan,nan,nan,nan,nan,nan,nan,nan,nan,0.0,nan,nan,nan,nan,nan,nan,nan,nan,nan,nan,nan,nan,nan,nan,nan,nan,nan,nan,214.74585739790928,726.7655082794372,nan,727.239331812365,nan,nan,nan,nan
1,351,0,0,1.0,0.0,0.30564509180840105,0,3,6,4,5,0,1,nan,nan,nan,nan,nan,nan,nan,nan,nan,nan,nan,nan,0.0,nan,nan,nan,nan,nan,nan,nan,nan,nan,nan,nan,nan,nan,nan,nan,nan,nan,nan,214.74585739790928,727.7656340072863,nan,728.0712790990947,nan,nan,nan,nan
1,352,1,1,1.0,1.0,0.7535173842916265,0,8,3,0,6,4,5,nan,nan,nan,nan,nan,nan,nan,nan,nan,nan,nan,nan,0.0,nan,nan,nan,nan,nan,nan,nan,nan,nan,nan,nan,nan,nan,nan,nan,nan,nan,nan,214.74585739790928,728.7657466206001,nan,729.5192640048917,nan,nan,nan,nan
1,353,1,1,1.0,1.0,0.5293245082721114,0,1,7,8,2,6,4,nan,nan,nan,nan,nan,nan,nan,nan,nan,nan,nan,nan,0.0,nan,nan,nan,nan,nan,nan,nan,nan,nan,nan,nan,nan,nan,nan,nan,nan,nan,nan,214.74585739790928,729.7659205297241,nan,730.2952450379962,nan,nan,nan,nan
1,354,1,1,1.0,1.0,0.25724303210154176,0,6,0,4,5,3,8,nan,nan,nan,nan,nan,nan,nan,nan,nan,nan,nan,nan,0.0,nan,nan,nan,nan,nan,nan,nan,nan,nan,nan,nan,nan,nan,nan,nan,nan,nan,nan,214.74585739790928,730.7660188882146,nan,731.0232619203161,nan,nan,nan,nan
1,355,1,1,1.0,1.0,0.32109164784196764,0,8,3,6,1,0,7,nan,nan,nan,nan,nan,nan,nan,nan,nan,nan,nan,nan,0.0,nan,nan,nan,nan,nan,nan,nan,nan,nan,nan,nan,nan,nan,nan,nan,nan,nan,nan,214.74585739790928,731.7661229486112,nan,732.0872145964531,nan,nan,nan,nan
1,356,1,1,1.0,1.0,0.3849345617927611,1,6,0,7,5,8,3,1.0,1.0,1.0,1.0,1.0,1.0,1.0,1.0,1.0,1.0,0.0,0.0,4.0,6.0,0.0,7.0,5.0,3.0,8.0,6.0,2.0,3.0,1.0,4.0,5.0,7.620024130563252,2.7975357924588025,3.740616174414754,1.9009350611595437,4.63613895396702,5.523962403647602,214.74585739790928,732.7662577994633,733.5746691876557,733.1511923612561,742.2507505178219,743.254942299216,734.5914708097698,742.2424162769457
1,357,1,1,1.0,1.0,0.6516813025809824,0,3,6,8,4,5,0,nan,nan,nan,nan,nan,nan,nan,nan,nan,nan,nan,nan,0.0,nan,nan,nan,nan,nan,nan,nan,nan,nan,nan,nan,nan,nan,nan,nan,nan,nan,nan,214.74585739790928,743.4592972700484,nan,744.1109785726294,nan,nan,nan,nan
1,358,0,0,1.0,0.0,0.39555870182812214,0,5,8,0,7,4,1,nan,nan,nan,nan,nan,nan,nan,nan,nan,nan,nan,nan,0.0,nan,nan,nan,nan,nan,nan,nan,nan,nan,nan,nan,nan,nan,nan,nan,nan,nan,nan,214.74585739790928,744.459385650116,nan,744.8549443519441,nan,nan,nan,nan
1,359,1,1,1.0,1.0,0.7154438190627843,0,3,7,1,5,0,8,nan,nan,nan,nan,nan,nan,nan,nan,nan,nan,nan,nan,0.0,nan,nan,nan,nan,nan,nan,nan,nan,nan,nan,nan,nan,nan,nan,nan,nan,nan,nan,214.74585739790928,745.4595028250478,nan,746.1749466441106,nan,nan,nan,nan
1,360,1,1,1.0,1.0,0.5872921429108828,0,4,6,8,2,3,1,nan,nan,nan,nan,nan,nan,nan,nan,nan,nan,nan,nan,0.0,nan,nan,nan,nan,nan,nan,nan,nan,nan,nan,nan,nan,nan,nan,nan,nan,nan,nan,214.74585739790928,746.4596328291809,nan,747.0469249720918,nan,nan,nan,nan
1,361,1,1,1.0,1.0,0.3551253884797916,0,3,8,0,5,1,6,nan,nan,nan,nan,nan,nan,nan,nan,nan,nan,nan,nan,0.0,nan,nan,nan,nan,nan,nan,nan,nan,nan,nan,nan,nan,nan,nan,nan,nan,nan,nan,214.74585739790928,747.4597611229401,nan,747.8148865114199,nan,nan,nan,nan
1,362,1,1,1.0,1.0,0.41895233700051904,0,6,1,8,2,7,0,nan,nan,nan,nan,nan,nan,nan,nan,nan,nan,nan,nan,0.0,nan,nan,nan,nan,nan,nan,nan,nan,nan,nan,nan,nan,nan,nan,nan,nan,nan,nan,214.74585739790928,748.4598916972755,nan,748.878844034276,nan,nan,nan,nan
1,363,1,1,1.0,1.0,0.362826714059338,0,3,2,6,5,0,4,nan,nan,nan,nan,nan,nan,nan,nan,nan,nan,nan,nan,0.0,nan,nan,nan,nan,nan,nan,nan,nan,nan,nan,nan,nan,nan,nan,nan,nan,nan,nan,214.74585739790928,749.4600128635066,nan,749.8228395775659,nan,nan,nan,nan
1,364,1,1,1.0,1.0,0.3306803156156093,0,2,1,3,8,5,6,nan,nan,nan,nan,nan,nan,nan,nan,nan,nan,nan,nan,0.0,nan,nan,nan,nan,nan,nan,nan,nan,nan,nan,nan,nan,nan,nan,nan,nan,nan,nan,214.74585739790928,750.4601365956478,nan,750.7908169112634,nan,nan,nan,nan
1,365,1,1,1.0,1.0,0.354541509761475,0,0,4,5,3,2,1,nan,nan,nan,nan,nan,nan,nan,nan,nan,nan,nan,nan,0.0,nan,nan,nan,nan,nan,nan,nan,nan,nan,nan,nan,nan,nan,nan,nan,nan,nan,nan,214.74585739790928,751.4602606128901,nan,751.8148021226516,nan,nan,nan,nan
1,366,1,1,1.0,1.0,0.3383770795771852,0,2,5,6,4,7,0,nan,nan,nan,nan,nan,nan,nan,nan,nan,nan,nan,nan,0.0,nan,nan,nan,nan,nan,nan,nan,nan,nan,nan,nan,nan,nan,nan,nan,nan,nan,nan,214.74585739790928,752.4603866257239,nan,752.7987637053011,nan,nan,nan,nan
1,367,1,1,1.0,1.0,0.3142370603745803,1,0,6,5,7,2,8,1.0,1.0,1.0,1.0,1.0,1.0,1.0,1.0,0.0,1.0,0.0,0.0,3.0,0.0,6.0,8.0,7.0,1.0,4.0,2.0,3.0,4.0,1.0,5.0,6.0,3.1752824884606525,4.222723201033659,4.686033496633172,1.9916497936937958,5.765451260143891,7.573571564280428,214.74585739790928,753.4605117833707,754.2689260224579,753.7747488437453,762.8866884784075,763.8933688716497,755.2773934035795,762.8783579438459
1,368,1,1,1.0,1.0,0.3433657070854679,0,6,4,8,2,1,3,nan,nan,nan,nan,nan,nan,nan,nan,nan,nan,nan,nan,0.0,nan,nan,nan,nan,nan,nan,nan,nan,nan,nan,nan,nan,nan,nan,nan,nan,nan,nan,214.74585739790928,764.095201304066,nan,764.4385670111515,nan,nan,nan,nan
1,369,1,1,1.0,1.0,0.3912286483682692,0,1,6,7,8,0,5,nan,nan,nan,nan,nan,nan,nan,nan,nan,nan,nan,nan,0.0,nan,nan,nan,nan,nan,nan,nan,nan,nan,nan,nan,nan,nan,nan,nan,nan,nan,nan,214.74585739790928,765.0952802760294,nan,765.4865089243976,nan,nan,nan,nan
1,370,1,1,1.0,1.0,0.4870463323313743,0,0,8,4,6,3,2,nan,nan,nan,nan,nan,nan,nan,nan,nan,nan,nan,nan,0.0,nan,nan,nan,nan,nan,nan,nan,nan,nan,nan,nan,nan,nan,nan,nan,nan,nan,nan,214.74585739790928,766.0954618827673,nan,766.5825082150986,nan,nan,nan,nan
1,371,1,1,1.0,1.0,0.43897469993680716,0,3,4,2,1,5,0,nan,nan,nan,nan,nan,nan,nan,nan,nan,nan,nan,nan,0.0,nan,nan,nan,nan,nan,nan,nan,nan,nan,nan,nan,nan,nan,nan,nan,nan,nan,nan,214.74585739790928,767.0955174766714,nan,767.5344921766082,nan,nan,nan,nan
1,372,1,1,1.0,1.0,0.39079102443065494,0,6,5,3,2,4,7,nan,nan,nan,nan,nan,nan,nan,nan,nan,nan,nan,nan,0.0,nan,nan,nan,nan,nan,nan,nan,nan,nan,nan,nan,nan,nan,nan,nan,nan,nan,nan,214.74585739790928,768.0956691483734,nan,768.4864601728041,nan,nan,nan,nan
1,373,1,1,1.0,1.0,0.33430731971748173,0,0,4,5,8,1,6,nan,nan,nan,nan,nan,nan,nan,nan,nan,nan,nan,nan,0.0,nan,nan,nan,nan,nan,nan,nan,nan,nan,nan,nan,nan,nan,nan,nan,nan,nan,nan,214.74585739790928,769.1041453675134,nan,769.4384526872309,nan,nan,nan,nan
1,374,1,1,1.0,1.0,0.30220368586014956,0,7,2,0,1,4,3,nan,nan,nan,nan,nan,nan,nan,nan,nan,nan,nan,nan,0.0,nan,nan,nan,nan,nan,nan,nan,nan,nan,nan,nan,nan,nan,nan,nan,nan,nan,nan,214.74585739790928,770.104241730296,nan,770.4064454161562,nan,nan,nan,nan
1,375,1,1,1.0,1.0,0.2940293843857944,1,2,5,3,8,6,4,1.0,1.0,1.0,1.0,1.0,1.0,0.0,1.0,1.0,1.0,0.0,0.0,3.0,1.0,5.0,3.0,8.0,2.0,0.0,4.0,3.0,1.0,2.0,6.0,5.0,5.913401783211157,5.050964511698112,1.612343902233988,2.6755692958831787,8.505545992054977,7.67383448057808,214.74585739790928,771.1043814278673,771.9128301637247,771.3984108122531,781.4639888264937,782.4725759483408,772.9212639034959,781.4556602875236
1,376,1,1,1.0,1.0,0.469659976195544,0,1,8,2,7,4,0,nan,nan,nan,nan,nan,nan,nan,nan,nan,nan,nan,nan,0.0,nan,nan,nan,nan,nan,nan,nan,nan,nan,nan,nan,nan,nan,nan,nan,nan,nan,nan,214.74585739790928,782.67250108195,nan,783.1421610581456,nan,nan,nan,nan
1,377,1,1,1.0,1.0,0.45350010751280934,0,7,3,5,6,1,4,nan,nan,nan,nan,nan,nan,nan,nan,nan,nan,nan,nan,0.0,nan,nan,nan,nan,nan,nan,nan,nan,nan,nan,nan,nan,nan,nan,nan,nan,nan,nan,214.74585739790928,783.6726259543793,nan,784.1261260618921,nan,nan,nan,nan
1,378,1,1,1.0,1.0,0.35739504580851644,0,8,2,6,0,4,3,nan,nan,nan,nan,nan,nan,nan,nan,nan,nan,nan,nan,0.0,nan,nan,nan,nan,nan,nan,nan,nan,nan,nan,nan,nan,nan,nan,nan,nan,nan,nan,214.74585739790928,784.672748546116,nan,785.0301435919246,nan,nan,nan,nan
1,379,1,1,1.0,1.0,0.4132227423833683,0,2,6,0,8,7,5,nan,nan,nan,nan,nan,nan,nan,nan,nan,nan,nan,nan,0.0,nan,nan,nan,nan,nan,nan,nan,nan,nan,nan,nan,nan,nan,nan,nan,nan,nan,nan,214.74585739790928,785.6728756993543,nan,786.0860984417377,nan,nan,nan,nan
1,380,1,1,1.0,1.0,0.4370725326007232,0,4,8,1,7,2,3,nan,nan,nan,nan,nan,nan,nan,nan,nan,nan,nan,nan,0.0,nan,nan,nan,nan,nan,nan,nan,nan,nan,nan,nan,nan,nan,nan,nan,nan,nan,nan,214.74585739790928,786.6730031378102,nan,787.1100756704109,nan,nan,nan,nan
1,381,1,1,1.0,1.0,0.4769516173982993,0,1,3,0,8,6,7,nan,nan,nan,nan,nan,nan,nan,nan,nan,nan,nan,nan,0.0,nan,nan,nan,nan,nan,nan,nan,nan,nan,nan,nan,nan,nan,nan,nan,nan,nan,nan,214.74585739790928,787.6731262996327,nan,788.150077917031,nan,nan,nan,nan
1,382,1,1,1.0,1.0,0.3087723208591342,0,5,1,2,7,8,6,nan,nan,nan,nan,nan,nan,nan,nan,nan,nan,nan,nan,0.0,nan,nan,nan,nan,nan,nan,nan,nan,nan,nan,nan,nan,nan,nan,nan,nan,nan,nan,214.74585739790928,788.6732853838475,nan,788.9820577047067,nan,nan,nan,nan
1,383,1,1,1.0,1.0,0.32462114887312055,0,8,0,7,5,3,2,nan,nan,nan,nan,nan,nan,nan,nan,nan,nan,nan,nan,0.0,nan,nan,nan,nan,nan,nan,nan,nan,nan,nan,nan,nan,nan,nan,nan,nan,nan,nan,214.74585739790928,789.673402843764,nan,789.9980239926372,nan,nan,nan,nan
