block,trial,freq_trials,correct_response,actual_response,acc,rts,probe_trials,trials_colorind0,trials_colorind1,trials_colorind2,trials_colorind3,trials_colorind4,trials_colorind5,wholereport_resp0,wholereport_resp1,wholereport_resp2,wholereport_resp3,wholereport_resp4,wholereport_resp5,wholereport_respacc0,wholereport_respacc1,wholereport_respacc2,wholereport_respacc3,wholereport_respacc4,wholereport_respacc5,wholereport_respacc_total,wholereport_respcolorind0,wholereport_respcolorind1,wholereport_respcolorind2,wholereport_respcolorind3,wholereport_respcolorind4,wholereport_respcolorind5,wholereport_resporder0,wholereport_resporder1,wholereport_resporder2,wholereport_resporder3,wholereport_resporder4,wholereport_resporder5,wholereport_rts0,wholereport_rts1,wholereport_rts2,wholereport_rts3,wholereport_rts4,wholereport_rts5,time_blockstart,time_encarray_offset,time_encarray_onset,time_response,time_iti_offset,time_iti_onset,time_memprobe_offset,time_memprobe_onset
1,1,1,1,nan,nan,nan,0.0,5,2,3,8,6,7,nan,nan,nan,nan,nan,nan,nan,nan,nan,nan,nan,nan,0.0,nan,nan,nan,nan,nan,nan,nan,nan,nan,nan,nan,nan,nan,nan,nan,nan,nan,nan,151.72530291276053,152.74292414961383,nan,nan,nan,nan,nan,nan
1,2,1,1,1.0,1.0,0.11777693079784513,0.0,1,8,5,3,4,6,nan,nan,nan,nan,nan,nan,nan,nan,nan,nan,nan,nan,0.0,nan,nan,nan,nan,nan,nan,nan,nan,nan,nan,nan,nan,nan,nan,nan,nan,nan,nan,151.72530291276053,153.7515518758446,nan,153.86932880664244,nan,nan,nan,nan
1,3,1,1,1.0,1.0,0.6854010331444442,0.0,5,2,4,7,3,0,nan,nan,nan,nan,nan,nan,nan,nan,nan,nan,nan,nan,0.0,nan,nan,nan,nan,nan,nan,nan,nan,nan,nan,nan,nan,nan,nan,nan,nan,nan,nan,151.72530291276053,154.75985344685614,nan,155.44525448000059,nan,nan,nan,nan
1,4,1,1,nan,nan,nan,0.0,2,4,7,1,6,8,nan,nan,nan,nan,nan,nan,nan,nan,nan,nan,nan,nan,0.0,nan,nan,nan,nan,nan,nan,nan,nan,nan,nan,nan,nan,nan,nan,nan,nan,nan,nan,151.72530291276053,155.76836855802685,nan,nan,nan,nan,nan,nan
1,5,1,1,nan,nan,nan,0.0,6,2,8,4,0,5,nan,nan,nan,nan,nan,nan,nan,nan,nan,nan,nan,nan,0.0,nan,nan,nan,nan,nan,nan,nan,nan,nan,nan,nan,nan,nan,nan,nan,nan,nan,nan,151.72530291276053,156.7768429000862,nan,nan,nan,nan,nan,nan
1,6,1,1,1.0,1.0,0.5879275696352124,0.0,8,5,7,0,4,2,nan,nan,nan,nan,nan,nan,nan,nan,nan,nan,nan,nan,0.0,nan,nan,nan,nan,nan,nan,nan,nan,nan,nan,nan,nan,nan,nan,nan,nan,nan,nan,151.72530291276053,157.78532265871763,nan,158.37325022835284,nan,nan,nan,nan
1,7,1,1,nan,nan,nan,0.0,6,2,8,1,3,0,nan,nan,nan,nan,nan,nan,nan,nan,nan,nan,nan,nan,0.0,nan,nan,nan,nan,nan,nan,nan,nan,nan,nan,nan,nan,nan,nan,nan,nan,nan,nan,151.72530291276053,158.7937776139006,nan,nan,nan,nan,nan,nan
1,8,1,1,1.0,1.0,0.01900967862457037,0.0,0,5,4,8,7,3,nan,nan,nan,nan,nan,nan,nan,nan,nan,nan,nan,nan,0.0,nan,nan,nan,nan,nan,nan,nan,nan,nan,nan,nan,nan,nan,nan,nan,nan,nan,nan,151.72530291276053,159.80228075105697,nan,159.82129042968154,nan,nan,nan,nan
1,9,1,1,1.0,1.0,0.6904746904037893,0.0,6,8,7,0,5,1,nan,nan,nan,nan,nan,nan,nan,nan,nan,nan,nan,nan,0.0,nan,nan,nan,nan,nan,nan,nan,nan,nan,nan,nan,nan,nan,nan,nan,nan,nan,nan,151.72530291276053,160.81075594807044,nan,161.50123063847423,nan,nan,nan,nan
1,10,1,1,1.0,1.0,0.5459837964735925,0.0,3,2,0,7,1,5,nan,nan,nan,nan,nan,nan,nan,nan,nan,nan,nan,nan,0.0,nan,nan,nan,nan,nan,nan,nan,nan,nan,nan,nan,nan,nan,nan,nan,nan,nan,nan,151.72530291276053,161.81926535768434,nan,162.36524915415794,nan,nan,nan,nan
1,11,1,1,1.0,1.0,0.6974981534294784,0.0,4,3,1,2,0,8,nan,nan,nan,nan,nan,nan,nan,nan,nan,nan,nan,nan,0.0,nan,nan,nan,nan,nan,nan,nan,nan,nan,nan,nan,nan,nan,nan,nan,nan,nan,nan,151.72530291276053,162.82773371227086,nan,163.52523186570033,nan,nan,nan,nan
1,12,0,0,1.0,0.0,0.7690168777480721,1.0,0,1,8,6,5,4,1.0,1.0,1.0,1.0,1.0,1.0,0.0,1.0,0.0,0.0,0.0,0.0,1.0,8.0,1.0,5.0,1.0,8.0,8.0,4.0,3.0,1.0,2.0,6.0,5.0,4.713513701688498,3.314630898181349,1.6194018637761474,2.4982544691301882,6.240792307071388,5.465950530953705,151.72530291276053,163.83620491810143,164.64463045075536,164.6052217958495,171.93732168711722,172.9351018909365,165.66142689064145,171.92903237603605
1,13,1,1,nan,nan,nan,0.0,5,3,1,4,6,7,nan,nan,nan,nan,nan,nan,nan,nan,nan,nan,nan,nan,0.0,nan,nan,nan,nan,nan,nan,nan,nan,nan,nan,nan,nan,nan,nan,nan,nan,nan,nan,151.72530291276053,173.14589016931131,nan,nan,nan,nan,nan,nan
1,14,0,0,nan,nan,nan,1.0,1,4,8,6,3,0,1.0,1.0,1.0,1.0,1.0,1.0,0.0,1.0,0.0,0.0,0.0,0.0,1.0,4.0,4.0,5.0,5.0,5.0,4.0,5.0,6.0,1.0,2.0,3.0,4.0,6.411231667269021,7.162955459207296,2.2846468267962337,3.0196959166787565,3.9795243316330016,5.427191336173564,151.72530291276053,174.15436194557697,174.96279260981828,nan,183.1723024956882,184.1826345557347,175.97127236891538,183.1639282242395
1,15,1,1,1.0,1.0,0.6879275981336832,0.0,2,6,3,5,4,8,nan,nan,nan,nan,nan,nan,nan,nan,nan,nan,nan,nan,0.0,nan,nan,nan,nan,nan,nan,nan,nan,nan,nan,nan,nan,nan,nan,nan,nan,nan,nan,151.72530291276053,184.38917910587043,nan,185.0771067040041,nan,nan,nan,nan
1,16,1,1,1.0,1.0,0.3994222139008343,0.0,7,3,1,2,5,4,nan,nan,nan,nan,nan,nan,nan,nan,nan,nan,nan,nan,0.0,nan,nan,nan,nan,nan,nan,nan,nan,nan,nan,nan,nan,nan,nan,nan,nan,nan,nan,151.72530291276053,185.39765658415854,nan,185.79707879805937,nan,nan,nan,nan
1,17,1,1,1.0,1.0,0.3909267750568688,0.0,2,5,7,1,8,6,nan,nan,nan,nan,nan,nan,nan,nan,nan,nan,nan,nan,0.0,nan,nan,nan,nan,nan,nan,nan,nan,nan,nan,nan,nan,nan,nan,nan,nan,nan,nan,151.72530291276053,186.40613862359896,nan,186.79706539865583,nan,nan,nan,nan
1,18,0,0,1.0,0.0,0.5424208897165954,1.0,5,7,4,0,3,2,1.0,1.0,1.0,1.0,1.0,1.0,1.0,1.0,0.0,0.0,0.0,1.0,3.0,5.0,7.0,1.0,1.0,1.0,2.0,1.0,2.0,6.0,5.0,4.0,3.0,1.3610889604315162,2.5276617812924087,7.166874457616359,6.39931957796216,4.752313380595297,3.631033414043486,151.72530291276053,187.414646607358,188.2230473360978,187.9570674970746,196.44087846484035,197.44256141595542,189.23153051640838,196.43252158444375
1,19,1,1,1.0,1.0,0.6435989555902779,0.0,3,0,6,1,5,8,nan,nan,nan,nan,nan,nan,nan,nan,nan,nan,nan,nan,0.0,nan,nan,nan,nan,nan,nan,nan,nan,nan,nan,nan,nan,nan,nan,nan,nan,nan,nan,151.72530291276053,197.64943155134097,nan,198.29303050693125,nan,nan,nan,nan
1,20,1,1,1.0,1.0,0.7390946731902659,0.0,7,4,8,2,1,6,nan,nan,nan,nan,nan,nan,nan,nan,nan,nan,nan,nan,0.0,nan,nan,nan,nan,nan,nan,nan,nan,nan,nan,nan,nan,nan,nan,nan,nan,nan,nan,151.72530291276053,198.65791045501828,nan,199.39700512820855,nan,nan,nan,nan
1,21,1,1,1.0,1.0,0.6265943916514516,0.0,4,1,6,5,0,2,nan,nan,nan,nan,nan,nan,nan,nan,nan,nan,nan,nan,0.0,nan,nan,nan,nan,nan,nan,nan,nan,nan,nan,nan,nan,nan,nan,nan,nan,nan,nan,151.72530291276053,199.6663893586956,nan,200.29298375034705,nan,nan,nan,nan
1,22,1,1,1.0,1.0,0.6341036665253341,0.0,2,5,8,7,3,1,nan,nan,nan,nan,nan,nan,nan,nan,nan,nan,nan,nan,0.0,nan,nan,nan,nan,nan,nan,nan,nan,nan,nan,nan,nan,nan,nan,nan,nan,nan,nan,151.72530291276053,200.67486883234233,nan,201.30897249886766,nan,nan,nan,nan
1,23,1,1,1.0,1.0,0.5696163880638778,0.0,1,7,0,4,6,8,nan,nan,nan,nan,nan,nan,nan,nan,nan,nan,nan,nan,0.0,nan,nan,nan,nan,nan,nan,nan,nan,nan,nan,nan,nan,nan,nan,nan,nan,nan,nan,151.72530291276053,201.6833465951495,nan,202.25296298321337,nan,nan,nan,nan
1,24,0,0,0.0,1.0,0.5451370468363166,0.0,2,8,6,7,3,5,nan,nan,nan,nan,nan,nan,nan,nan,nan,nan,nan,nan,0.0,nan,nan,nan,nan,nan,nan,nan,nan,nan,nan,nan,nan,nan,nan,nan,nan,nan,nan,151.72530291276053,202.69182892004028,nan,203.2369659668766,nan,nan,nan,nan
1,25,1,1,1.0,1.0,0.520655709784478,0.0,6,1,4,5,0,7,nan,nan,nan,nan,nan,nan,nan,nan,nan,nan,nan,nan,0.0,nan,nan,nan,nan,nan,nan,nan,nan,nan,nan,nan,nan,nan,nan,nan,nan,nan,nan,151.72530291276053,203.70030611287802,nan,204.2209618226625,nan,nan,nan,nan
1,26,1,1,1.0,1.0,0.5041708848439157,0.0,4,0,7,2,8,5,nan,nan,nan,nan,nan,nan,nan,nan,nan,nan,nan,nan,0.0,nan,nan,nan,nan,nan,nan,nan,nan,nan,nan,nan,nan,nan,nan,nan,nan,nan,nan,151.72530291276053,204.70878387615085,nan,205.21295476099476,nan,nan,nan,nan
1,27,0,0,1.0,0.0,0.47968441573902965,1.0,6,5,1,8,3,2,1.0,1.0,1.0,1.0,1.0,1.0,1.0,1.0,1.0,0.0,0.0,0.0,3.0,6.0,5.0,1.0,0.0,0.0,0.0,2.0,1.0,3.0,4.0,5.0,6.0,2.3762754346244037,1.2403626595623791,3.4713095743209124,4.77522808779031,5.927619985304773,6.711451565846801,151.72530291276053,205.71726078400388,206.52569173369557,206.1969451997429,214.30180990649387,215.30445250775665,207.55084790475667,214.29347440879792
1,28,1,1,1.0,1.0,0.7905411473475397,0.0,8,4,6,2,7,3,nan,nan,nan,nan,nan,nan,nan,nan,nan,nan,nan,nan,0.0,nan,nan,nan,nan,nan,nan,nan,nan,nan,nan,nan,nan,nan,nan,nan,nan,nan,nan,151.72530291276053,215.51035158941522,nan,216.30089273676276,nan,nan,nan,nan
1,29,1,1,1.0,1.0,0.6060822303406894,0.0,2,7,3,1,8,6,nan,nan,nan,nan,nan,nan,nan,nan,nan,nan,nan,nan,0.0,nan,nan,nan,nan,nan,nan,nan,nan,nan,nan,nan,nan,nan,nan,nan,nan,nan,nan,151.72530291276053,216.51879428513348,nan,217.12487651547417,nan,nan,nan,nan
1,30,1,1,1.0,1.0,0.3735960558988154,0.0,1,0,8,5,4,3,nan,nan,nan,nan,nan,nan,nan,nan,nan,nan,nan,nan,0.0,nan,nan,nan,nan,nan,nan,nan,nan,nan,nan,nan,nan,nan,nan,nan,nan,nan,nan,151.72530291276053,217.52728202659637,nan,217.90087808249518,nan,nan,nan,nan
1,31,1,1,1.0,1.0,0.29306985065340996,0.0,0,5,2,1,8,6,nan,nan,nan,nan,nan,nan,nan,nan,nan,nan,nan,nan,0.0,nan,nan,nan,nan,nan,nan,nan,nan,nan,nan,nan,nan,nan,nan,nan,nan,nan,nan,151.72530291276053,218.53579343203455,nan,218.82886328268796,nan,nan,nan,nan
1,32,1,1,1.0,1.0,0.276596715208143,0.0,3,1,0,7,2,4,nan,nan,nan,nan,nan,nan,nan,nan,nan,nan,nan,nan,0.0,nan,nan,nan,nan,nan,nan,nan,nan,nan,nan,nan,nan,nan,nan,nan,nan,nan,nan,151.72530291276053,219.54426577826962,nan,219.82086249347776,nan,nan,nan,nan
1,33,1,1,1.0,1.0,0.26011388655751944,0.0,6,4,2,8,5,1,nan,nan,nan,nan,nan,nan,nan,nan,nan,nan,nan,nan,0.0,nan,nan,nan,nan,nan,nan,nan,nan,nan,nan,nan,nan,nan,nan,nan,nan,nan,nan,151.72530291276053,220.55274810269475,nan,220.81286198925227,nan,nan,nan,nan
1,34,1,1,1.0,1.0,0.3316217768006027,0.0,1,7,5,6,0,2,nan,nan,nan,nan,nan,nan,nan,nan,nan,nan,nan,nan,0.0,nan,nan,nan,nan,nan,nan,nan,nan,nan,nan,nan,nan,nan,nan,nan,nan,nan,nan,151.72530291276053,221.5612213043496,nan,221.8928430811502,nan,nan,nan,nan
1,35,0,0,1.0,0.0,0.2431346969678998,0.0,8,1,7,4,6,5,nan,nan,nan,nan,nan,nan,nan,nan,nan,nan,nan,nan,0.0,nan,nan,nan,nan,nan,nan,nan,nan,nan,nan,nan,nan,nan,nan,nan,nan,nan,nan,151.72530291276053,222.5697064800188,nan,222.8128411769867,nan,nan,nan,nan
1,36,1,1,1.0,1.0,0.28264969447627664,0.0,4,6,5,8,1,3,nan,nan,nan,nan,nan,nan,nan,nan,nan,nan,nan,nan,0.0,nan,nan,nan,nan,nan,nan,nan,nan,nan,nan,nan,nan,nan,nan,nan,nan,nan,nan,151.72530291276053,223.57818139204755,nan,223.86083108652383,nan,nan,nan,nan
1,37,1,1,1.0,1.0,0.3061830708757043,0.0,0,5,8,4,7,1,nan,nan,nan,nan,nan,nan,nan,nan,nan,nan,nan,nan,0.0,nan,nan,nan,nan,nan,nan,nan,nan,nan,nan,nan,nan,nan,nan,nan,nan,nan,nan,151.72530291276053,224.58664832124487,nan,224.89283139212057,nan,nan,nan,nan
1,38,0,0,1.0,0.0,0.20968294190242887,0.0,7,4,3,2,0,5,nan,nan,nan,nan,nan,nan,nan,nan,nan,nan,nan,nan,0.0,nan,nan,nan,nan,nan,nan,nan,nan,nan,nan,nan,nan,nan,nan,nan,nan,nan,nan,151.72530291276053,225.59513036115095,nan,225.80481330305338,nan,nan,nan,nan
1,39,1,1,1.0,1.0,0.385197670198977,0.0,1,0,5,3,4,8,nan,nan,nan,nan,nan,nan,nan,nan,nan,nan,nan,nan,0.0,nan,nan,nan,nan,nan,nan,nan,nan,nan,nan,nan,nan,nan,nan,nan,nan,nan,nan,151.72530291276053,226.6036195284687,nan,226.98881719866768,nan,nan,nan,nan
1,40,1,1,1.0,1.0,0.4727108455263078,0.0,8,4,3,5,0,7,nan,nan,nan,nan,nan,nan,nan,nan,nan,nan,nan,nan,0.0,nan,nan,nan,nan,nan,nan,nan,nan,nan,nan,nan,nan,nan,nan,nan,nan,nan,nan,151.72530291276053,227.61209358507767,nan,228.08480443060398,nan,nan,nan,nan
1,41,1,1,1.0,1.0,0.64023362332955,0.0,6,1,0,2,3,4,nan,nan,nan,nan,nan,nan,nan,nan,nan,nan,nan,nan,0.0,nan,nan,nan,nan,nan,nan,nan,nan,nan,nan,nan,nan,nan,nan,nan,nan,nan,nan,151.72530291276053,228.6205741991289,nan,229.26080782245845,nan,nan,nan,nan
1,42,1,1,1.0,1.0,0.5757471998222172,0.0,1,6,2,5,7,8,nan,nan,nan,nan,nan,nan,nan,nan,nan,nan,nan,nan,0.0,nan,nan,nan,nan,nan,nan,nan,nan,nan,nan,nan,nan,nan,nan,nan,nan,nan,nan,151.72530291276053,229.62903172010556,nan,230.20477891992778,nan,nan,nan,nan
1,43,1,1,1.0,1.0,0.49526261910796165,0.0,0,5,8,3,1,7,nan,nan,nan,nan,nan,nan,nan,nan,nan,nan,nan,nan,0.0,nan,nan,nan,nan,nan,nan,nan,nan,nan,nan,nan,nan,nan,nan,nan,nan,nan,nan,151.72530291276053,230.63752003200352,nan,231.13278265111148,nan,nan,nan,nan
1,44,1,1,1.0,1.0,0.46276937425136566,0.0,7,0,3,5,6,2,nan,nan,nan,nan,nan,nan,nan,nan,nan,nan,nan,nan,0.0,nan,nan,nan,nan,nan,nan,nan,nan,nan,nan,nan,nan,nan,nan,nan,nan,nan,nan,151.72530291276053,231.64601461589336,nan,232.10878399014473,nan,nan,nan,nan
1,45,1,1,1.0,1.0,0.3822830831632018,0.0,2,7,4,6,3,1,nan,nan,nan,nan,nan,nan,nan,nan,nan,nan,nan,nan,0.0,nan,nan,nan,nan,nan,nan,nan,nan,nan,nan,nan,nan,nan,nan,nan,nan,nan,nan,151.72530291276053,232.65448126010597,nan,233.03676434326917,nan,nan,nan,nan
1,46,1,1,1.0,1.0,0.4461311651393771,0.0,6,8,1,4,0,7,nan,nan,nan,nan,nan,nan,nan,nan,nan,nan,nan,nan,0.0,nan,nan,nan,nan,nan,nan,nan,nan,nan,nan,nan,nan,nan,nan,nan,nan,nan,nan,151.72530291276053,233.65463863592595,nan,234.10076980106533,nan,nan,nan,nan
1,47,1,1,1.0,1.0,0.3256469154730439,0.0,8,6,4,3,2,1,nan,nan,nan,nan,nan,nan,nan,nan,nan,nan,nan,nan,0.0,nan,nan,nan,nan,nan,nan,nan,nan,nan,nan,nan,nan,nan,nan,nan,nan,nan,nan,151.72530291276053,234.66311012674123,nan,234.98875704221427,nan,nan,nan,nan
1,48,1,1,1.0,1.0,0.40519151790067554,0.0,3,4,2,0,5,8,nan,nan,nan,nan,nan,nan,nan,nan,nan,nan,nan,nan,0.0,nan,nan,nan,nan,nan,nan,nan,nan,nan,nan,nan,nan,nan,nan,nan,nan,nan,nan,151.72530291276053,235.6715647969395,nan,236.07675631484017,nan,nan,nan,nan
1,49,1,1,1.0,1.0,0.36469178134575486,0.0,0,1,3,5,7,4,nan,nan,nan,nan,nan,nan,nan,nan,nan,nan,nan,nan,0.0,nan,nan,nan,nan,nan,nan,nan,nan,nan,nan,nan,nan,nan,nan,nan,nan,nan,nan,151.72530291276053,236.68005567463115,nan,237.0447474559769,nan,nan,nan,nan
1,50,1,1,1.0,1.0,0.39650591602548957,0.0,2,0,6,8,4,1,nan,nan,nan,nan,nan,nan,nan,nan,nan,nan,nan,nan,0.0,nan,nan,nan,nan,nan,nan,nan,nan,nan,nan,nan,nan,nan,nan,nan,nan,nan,nan,151.72530291276053,237.68022559490055,nan,238.07673151092604,nan,nan,nan,nan
1,51,1,1,1.0,1.0,0.3483586306683719,0.0,0,7,2,6,1,3,nan,nan,nan,nan,nan,nan,nan,nan,nan,nan,nan,nan,0.0,nan,nan,nan,nan,nan,nan,nan,nan,nan,nan,nan,nan,nan,nan,nan,nan,nan,nan,151.72530291276053,238.68037213664502,nan,239.0287307673134,nan,nan,nan,nan
1,52,1,1,1.0,1.0,0.33988514402881265,0.0,7,6,1,4,8,2,nan,nan,nan,nan,nan,nan,nan,nan,nan,nan,nan,nan,0.0,nan,nan,nan,nan,nan,nan,nan,nan,nan,nan,nan,nan,nan,nan,nan,nan,nan,nan,151.72530291276053,239.68883535964414,nan,240.02872050367296,nan,nan,nan,nan
1,53,1,1,1.0,1.0,0.35572421504184604,0.0,3,8,0,5,2,4,nan,nan,nan,nan,nan,nan,nan,nan,nan,nan,nan,nan,0.0,nan,nan,nan,nan,nan,nan,nan,nan,nan,nan,nan,nan,nan,nan,nan,nan,nan,nan,151.72530291276053,240.6889950162731,nan,241.04471923131496,nan,nan,nan,nan
1,54,1,1,1.0,1.0,0.5872438973747194,0.0,1,3,7,8,5,2,nan,nan,nan,nan,nan,nan,nan,nan,nan,nan,nan,nan,0.0,nan,nan,nan,nan,nan,nan,nan,nan,nan,nan,nan,nan,nan,nan,nan,nan,nan,nan,151.72530291276053,241.69747021328658,nan,242.2847141106613,nan,nan,nan,nan
1,55,0,0,1.0,0.0,0.7867427468299866,1.0,6,5,1,2,7,3,1.0,1.0,1.0,1.0,1.0,1.0,0.0,0.0,0.0,0.0,1.0,0.0,1.0,7.0,2.0,5.0,1.0,7.0,7.0,4.0,3.0,1.0,2.0,6.0,5.0,5.082974937744439,3.9315190268680453,1.7967543536797166,2.819393652956933,6.530399891547859,5.874940449837595,151.72530291276053,242.7059494019486,243.5143772154115,243.4926921487786,251.10719911381602,252.10465230653062,244.5395025955513,251.09880431508645
1,56,1,1,1.0,1.0,0.6893382775597274,0.0,4,0,2,7,3,8,nan,nan,nan,nan,nan,nan,nan,nan,nan,nan,nan,nan,0.0,nan,nan,nan,nan,nan,nan,nan,nan,nan,nan,nan,nan,nan,nan,nan,nan,nan,nan,151.72530291276053,252.30734400218353,nan,252.99668227974325,nan,nan,nan,nan
1,57,1,1,1.0,1.0,0.6168322488665581,0.0,7,8,6,2,0,3,nan,nan,nan,nan,nan,nan,nan,nan,nan,nan,nan,nan,0.0,nan,nan,nan,nan,nan,nan,nan,nan,nan,nan,nan,nan,nan,nan,nan,nan,nan,nan,151.72530291276053,253.3158340244554,nan,253.93266627332196,nan,nan,nan,nan
1,58,1,1,1.0,1.0,0.592342643532902,0.0,8,7,3,0,4,1,nan,nan,nan,nan,nan,nan,nan,nan,nan,nan,nan,nan,0.0,nan,nan,nan,nan,nan,nan,nan,nan,nan,nan,nan,nan,nan,nan,nan,nan,nan,nan,151.72530291276053,254.32432262133807,nan,254.91666526487097,nan,nan,nan,nan
1,59,1,1,1.0,1.0,0.5838614590466022,0.0,4,0,8,3,2,7,nan,nan,nan,nan,nan,nan,nan,nan,nan,nan,nan,nan,0.0,nan,nan,nan,nan,nan,nan,nan,nan,nan,nan,nan,nan,nan,nan,nan,nan,nan,nan,151.72530291276053,255.33277387032285,nan,255.91663532936946,nan,nan,nan,nan
1,60,1,1,1.0,1.0,0.5353486742824316,0.0,7,4,6,1,5,2,nan,nan,nan,nan,nan,nan,nan,nan,nan,nan,nan,nan,0.0,nan,nan,nan,nan,nan,nan,nan,nan,nan,nan,nan,nan,nan,nan,nan,nan,nan,nan,151.72530291276053,256.34126075636595,nan,256.8766094306484,nan,nan,nan,nan
1,61,1,1,1.0,1.0,0.6308686258271337,0.0,5,8,0,2,7,6,nan,nan,nan,nan,nan,nan,nan,nan,nan,nan,nan,nan,0.0,nan,nan,nan,nan,nan,nan,nan,nan,nan,nan,nan,nan,nan,nan,nan,nan,nan,nan,151.72530291276053,257.34973053680733,nan,257.98059916263446,nan,nan,nan,nan
1,62,1,1,1.0,1.0,0.7023810781538486,0.0,1,5,2,3,6,4,nan,nan,nan,nan,nan,nan,nan,nan,nan,nan,nan,nan,0.0,nan,nan,nan,nan,nan,nan,nan,nan,nan,nan,nan,nan,nan,nan,nan,nan,nan,nan,151.72530291276053,258.35821343166754,nan,259.0605945098214,nan,nan,nan,nan
1,63,1,1,1.0,1.0,0.6698923944495618,0.0,8,4,5,7,3,1,nan,nan,nan,nan,nan,nan,nan,nan,nan,nan,nan,nan,0.0,nan,nan,nan,nan,nan,nan,nan,nan,nan,nan,nan,nan,nan,nan,nan,nan,nan,nan,151.72530291276053,259.36669604154304,nan,260.0365884359926,nan,nan,nan,nan
1,64,1,1,1.0,1.0,0.6614271756261587,0.0,0,1,8,6,2,3,nan,nan,nan,nan,nan,nan,nan,nan,nan,nan,nan,nan,0.0,nan,nan,nan,nan,nan,nan,nan,nan,nan,nan,nan,nan,nan,nan,nan,nan,nan,nan,151.72530291276053,260.3751675323583,nan,261.0365947079845,nan,nan,nan,nan
1,65,1,1,1.0,1.0,0.5892433105036616,0.0,8,4,0,3,6,5,nan,nan,nan,nan,nan,nan,nan,nan,nan,nan,nan,nan,0.0,nan,nan,nan,nan,nan,nan,nan,nan,nan,nan,nan,nan,nan,nan,nan,nan,nan,nan,151.72530291276053,261.3753368826583,nan,261.96458019316196,nan,nan,nan,nan
1,66,1,1,1.0,1.0,0.6850968301296234,0.0,5,2,6,7,1,8,nan,nan,nan,nan,nan,nan,nan,nan,nan,nan,nan,nan,0.0,nan,nan,nan,nan,nan,nan,nan,nan,nan,nan,nan,nan,nan,nan,nan,nan,nan,nan,151.72530291276053,262.37546574836597,nan,263.0605625784956,nan,nan,nan,nan
1,67,1,1,1.0,1.0,0.4609692464582622,0.0,6,3,7,8,4,2,nan,nan,nan,nan,nan,nan,nan,nan,nan,nan,nan,nan,0.0,nan,nan,nan,nan,nan,nan,nan,nan,nan,nan,nan,nan,nan,nan,nan,nan,nan,nan,151.72530291276053,263.3756068730727,nan,263.83657611953095,nan,nan,nan,nan
1,68,1,1,1.0,1.0,0.44448043033480644,0.0,5,2,0,1,8,4,nan,nan,nan,nan,nan,nan,nan,nan,nan,nan,nan,nan,0.0,nan,nan,nan,nan,nan,nan,nan,nan,nan,nan,nan,nan,nan,nan,nan,nan,nan,nan,151.72530291276053,264.38409005338326,nan,264.82857048371807,nan,nan,nan,nan
1,69,1,1,1.0,1.0,0.46799099864438176,0.0,0,8,6,5,4,1,nan,nan,nan,nan,nan,nan,nan,nan,nan,nan,nan,nan,0.0,nan,nan,nan,nan,nan,nan,nan,nan,nan,nan,nan,nan,nan,nan,nan,nan,nan,nan,151.72530291276053,265.39256296958774,nan,265.8605539682321,nan,nan,nan,nan
1,70,1,1,1.0,1.0,0.4195132809691131,0.0,7,0,4,1,5,3,nan,nan,nan,nan,nan,nan,nan,nan,nan,nan,nan,nan,0.0,nan,nan,nan,nan,nan,nan,nan,nan,nan,nan,nan,nan,nan,nan,nan,nan,nan,nan,151.72530291276053,266.4010373116471,nan,266.8205505926162,nan,nan,nan,nan
1,71,1,1,1.0,1.0,0.3310182183049619,0.0,4,6,1,2,3,8,nan,nan,nan,nan,nan,nan,nan,nan,nan,nan,nan,nan,0.0,nan,nan,nan,nan,nan,nan,nan,nan,nan,nan,nan,nan,nan,nan,nan,nan,nan,nan,151.72530291276053,267.40951450448483,nan,267.7405327227898,nan,nan,nan,nan
1,72,1,1,1.0,1.0,0.2665286585688591,0.0,2,3,4,0,1,5,nan,nan,nan,nan,nan,nan,nan,nan,nan,nan,nan,nan,0.0,nan,nan,nan,nan,nan,nan,nan,nan,nan,nan,nan,nan,nan,nan,nan,nan,nan,nan,151.72530291276053,268.4180039567873,nan,268.68453261535615,nan,nan,nan,nan
1,73,1,1,1.0,1.0,0.3173527577891946,0.0,4,1,8,7,5,2,nan,nan,nan,nan,nan,nan,nan,nan,nan,nan,nan,nan,0.0,nan,nan,nan,nan,nan,nan,nan,nan,nan,nan,nan,nan,nan,nan,nan,nan,nan,nan,151.72530291276053,269.43117049057037,nan,269.74852324835956,nan,nan,nan,nan
1,74,1,1,1.0,1.0,0.36159102339297533,0.0,7,8,4,6,2,0,nan,nan,nan,nan,nan,nan,nan,nan,nan,nan,nan,nan,0.0,nan,nan,nan,nan,nan,nan,nan,nan,nan,nan,nan,nan,nan,nan,nan,nan,nan,nan,151.72530291276053,270.43491472210735,nan,270.7965057455003,nan,nan,nan,nan
1,75,1,1,1.0,1.0,0.34508538618683815,0.0,1,4,2,0,3,5,nan,nan,nan,nan,nan,nan,nan,nan,nan,nan,nan,nan,0.0,nan,nan,nan,nan,nan,nan,nan,nan,nan,nan,nan,nan,nan,nan,nan,nan,nan,nan,151.72530291276053,271.44343068869784,nan,271.7885160748847,nan,nan,nan,nan
1,76,1,1,1.0,1.0,0.3605786291882396,0.0,0,1,6,7,5,4,nan,nan,nan,nan,nan,nan,nan,nan,nan,nan,nan,nan,0.0,nan,nan,nan,nan,nan,nan,nan,nan,nan,nan,nan,nan,nan,nan,nan,nan,nan,nan,151.72530291276053,272.45192299224436,nan,272.8125016214326,nan,nan,nan,nan
1,77,1,1,1.0,1.0,0.40009818878024817,0.0,2,7,8,6,1,5,nan,nan,nan,nan,nan,nan,nan,nan,nan,nan,nan,nan,0.0,nan,nan,nan,nan,nan,nan,nan,nan,nan,nan,nan,nan,nan,nan,nan,nan,nan,nan,151.72530291276053,273.4603930572048,nan,273.86049124598503,nan,nan,nan,nan
1,78,1,1,1.0,1.0,0.35958733363077044,0.0,6,2,5,8,4,0,nan,nan,nan,nan,nan,nan,nan,nan,nan,nan,nan,nan,0.0,nan,nan,nan,nan,nan,nan,nan,nan,nan,nan,nan,nan,nan,nan,nan,nan,nan,nan,151.72530291276053,274.4689164366573,nan,274.8285037702881,nan,nan,nan,nan
1,79,1,1,1.0,1.0,0.31110077816993,0.0,1,3,2,5,7,6,nan,nan,nan,nan,nan,nan,nan,nan,nan,nan,nan,nan,0.0,nan,nan,nan,nan,nan,nan,nan,nan,nan,nan,nan,nan,nan,nan,nan,nan,nan,nan,151.72530291276053,275.4774007569067,nan,275.78850153507665,nan,nan,nan,nan
1,80,1,1,1.0,1.0,0.2466388731263578,0.0,6,4,0,8,3,2,nan,nan,nan,nan,nan,nan,nan,nan,nan,nan,nan,nan,0.0,nan,nan,nan,nan,nan,nan,nan,nan,nan,nan,nan,nan,nan,nan,nan,nan,nan,nan,151.72530291276053,276.48582976777107,nan,276.7324686408974,nan,nan,nan,nan
1,81,1,1,1.0,1.0,0.2301497720181942,0.0,4,5,8,3,2,6,nan,nan,nan,nan,nan,nan,nan,nan,nan,nan,nan,nan,0.0,nan,nan,nan,nan,nan,nan,nan,nan,nan,nan,nan,nan,nan,nan,nan,nan,nan,nan,151.72530291276053,277.49432919872925,nan,277.72447897074744,nan,nan,nan,nan
1,82,1,1,1.0,1.0,0.17368609085679054,0.0,7,2,4,6,1,0,nan,nan,nan,nan,nan,nan,nan,nan,nan,nan,nan,nan,0.0,nan,nan,nan,nan,nan,nan,nan,nan,nan,nan,nan,nan,nan,nan,nan,nan,nan,nan,151.72530291276053,278.50277759646997,nan,278.67646368732676,nan,nan,nan,nan
1,83,1,1,1.0,1.0,0.10920365899801254,0.0,5,6,8,2,0,4,nan,nan,nan,nan,nan,nan,nan,nan,nan,nan,nan,nan,0.0,nan,nan,nan,nan,nan,nan,nan,nan,nan,nan,nan,nan,nan,nan,nan,nan,nan,nan,151.72530291276053,279.5112550742924,nan,279.62045873329043,nan,nan,nan,nan
1,84,0,0,1.0,0.0,0.07703742431476712,1.0,1,8,5,6,3,7,1.0,1.0,1.0,1.0,1.0,1.0,1.0,1.0,0.0,0.0,0.0,0.0,2.0,1.0,8.0,2.0,2.0,2.0,2.0,2.0,1.0,6.0,5.0,4.0,3.0,2.5100539438426495,1.5662903999909759,7.356948438566178,6.4367941077798605,5.142176729161292,4.205581764224917,151.72530291276053,280.51141758216545,281.3198402635753,280.5884550064802,289.72937215911224,290.7300298870541,282.33665808616206,289.7210440742783
1,85,1,1,nan,nan,nan,0.0,0,2,1,3,4,6,nan,nan,nan,nan,nan,nan,nan,nan,nan,nan,nan,nan,0.0,nan,nan,nan,nan,nan,nan,nan,nan,nan,nan,nan,nan,nan,nan,nan,nan,nan,nan,151.72530291276053,290.9378867573105,nan,nan,nan,nan,nan,nan
1,86,1,1,1.0,1.0,0.01801125518977642,0.0,5,7,0,6,1,2,nan,nan,nan,nan,nan,nan,nan,nan,nan,nan,nan,nan,0.0,nan,nan,nan,nan,nan,nan,nan,nan,nan,nan,nan,nan,nan,nan,nan,nan,nan,nan,151.72530291276053,291.94640329433605,nan,291.9644145495258,nan,nan,nan,nan
1,87,1,1,1.0,1.0,0.3214778834953904,0.0,7,1,6,2,0,8,nan,nan,nan,nan,nan,nan,nan,nan,nan,nan,nan,nan,0.0,nan,nan,nan,nan,nan,nan,nan,nan,nan,nan,nan,nan,nan,nan,nan,nan,nan,nan,151.72530291276053,292.95486993854865,nan,293.27634782204404,nan,nan,nan,nan
1,88,1,1,1.0,1.0,0.24896102072671056,0.0,6,7,2,0,8,3,nan,nan,nan,nan,nan,nan,nan,nan,nan,nan,nan,nan,0.0,nan,nan,nan,nan,nan,nan,nan,nan,nan,nan,nan,nan,nan,nan,nan,nan,nan,nan,151.72530291276053,293.96340301120654,nan,294.21236403193325,nan,nan,nan,nan
1,89,1,1,1.0,1.0,0.12051076395437121,0.0,3,6,0,8,1,7,nan,nan,nan,nan,nan,nan,nan,nan,nan,nan,nan,nan,0.0,nan,nan,nan,nan,nan,nan,nan,nan,nan,nan,nan,nan,nan,nan,nan,nan,nan,nan,151.72530291276053,294.9718505535275,nan,295.09236131748185,nan,nan,nan,nan
1,90,1,1,1.0,1.0,0.09604311175644398,0.0,8,4,1,7,6,3,nan,nan,nan,nan,nan,nan,nan,nan,nan,nan,nan,nan,0.0,nan,nan,nan,nan,nan,nan,nan,nan,nan,nan,nan,nan,nan,nan,nan,nan,nan,nan,151.72530291276053,295.9803140615113,nan,296.07635717326775,nan,nan,nan,nan
1,91,1,1,1.0,1.0,0.25553744519129395,0.0,4,0,2,5,8,6,nan,nan,nan,nan,nan,nan,nan,nan,nan,nan,nan,nan,0.0,nan,nan,nan,nan,nan,nan,nan,nan,nan,nan,nan,nan,nan,nan,nan,nan,nan,nan,151.72530291276053,296.9887972418219,nan,297.2443346870132,nan,nan,nan,nan
1,92,1,1,1.0,1.0,0.23105354234576225,0.0,7,2,3,0,1,4,nan,nan,nan,nan,nan,nan,nan,nan,nan,nan,nan,nan,0.0,nan,nan,nan,nan,nan,nan,nan,nan,nan,nan,nan,nan,nan,nan,nan,nan,nan,nan,151.72530291276053,297.99727158341557,nan,298.22832512576133,nan,nan,nan,nan
1,93,1,1,1.0,1.0,0.23056858545169234,0.0,0,3,8,7,4,6,nan,nan,nan,nan,nan,nan,nan,nan,nan,nan,nan,nan,0.0,nan,nan,nan,nan,nan,nan,nan,nan,nan,nan,nan,nan,nan,nan,nan,nan,nan,nan,151.72530291276053,299.0057604657486,nan,299.2363290512003,nan,nan,nan,nan
1,94,1,1,1.0,1.0,0.23008562438189983,0.0,7,4,1,6,0,2,nan,nan,nan,nan,nan,nan,nan,nan,nan,nan,nan,nan,0.0,nan,nan,nan,nan,nan,nan,nan,nan,nan,nan,nan,nan,nan,nan,nan,nan,nan,nan,151.72530291276053,300.0142356627621,nan,300.244321287144,nan,nan,nan,nan
1,95,1,1,1.0,1.0,0.20555867068469524,0.0,0,3,7,4,5,8,nan,nan,nan,nan,nan,nan,nan,nan,nan,nan,nan,nan,0.0,nan,nan,nan,nan,nan,nan,nan,nan,nan,nan,nan,nan,nan,nan,nan,nan,nan,nan,151.72530291276053,301.02275191480294,nan,301.22831058548763,nan,nan,nan,nan
1,96,0,0,1.0,0.0,0.253154001198709,1.0,4,1,2,0,8,3,1.0,1.0,1.0,1.0,1.0,1.0,1.0,1.0,0.0,1.0,0.0,0.0,3.0,4.0,1.0,0.0,0.0,0.0,0.0,2.0,1.0,6.0,5.0,4.0,3.0,2.1660034745000303,0.9008518531918526,6.493169693276286,5.533022820483893,4.517784172203392,3.3007883899845183,151.72530291276053,302.03116239374503,302.8396292659454,302.28431639494374,310.3990279198624,311.3999137287028,303.8647631993517,310.39070011954755
1,97,1,1,1.0,1.0,0.5967063996940851,0.0,7,8,1,5,6,2,nan,nan,nan,nan,nan,nan,nan,nan,nan,nan,nan,nan,0.0,nan,nan,nan,nan,nan,nan,nan,nan,nan,nan,nan,nan,nan,nan,nan,nan,nan,nan,151.72530291276053,311.60756618110463,nan,312.2042725807987,nan,nan,nan,nan
1,98,1,1,1.0,1.0,0.5561847100034356,0.0,4,3,0,2,1,7,nan,nan,nan,nan,nan,nan,nan,nan,nan,nan,nan,nan,0.0,nan,nan,nan,nan,nan,nan,nan,nan,nan,nan,nan,nan,nan,nan,nan,nan,nan,nan,151.72530291276053,312.6160493614152,nan,313.17223407141864,nan,nan,nan,nan
1,99,1,1,1.0,1.0,0.4277013815008104,0.0,5,4,6,8,0,3,nan,nan,nan,nan,nan,nan,nan,nan,nan,nan,nan,nan,0.0,nan,nan,nan,nan,nan,nan,nan,nan,nan,nan,nan,nan,nan,nan,nan,nan,nan,nan,151.72530291276053,313.62453881371766,nan,314.0522401952185,nan,nan,nan,nan
1,100,1,1,1.0,1.0,0.39525945438072085,0.0,4,8,2,0,5,6,nan,nan,nan,nan,nan,nan,nan,nan,nan,nan,nan,nan,0.0,nan,nan,nan,nan,nan,nan,nan,nan,nan,nan,nan,nan,nan,nan,nan,nan,nan,nan,151.72530291276053,314.6329666841775,nan,315.02822613855824,nan,nan,nan,nan
1,101,1,1,1.0,1.0,0.4587446032091975,0.0,8,6,4,5,1,2,nan,nan,nan,nan,nan,nan,nan,nan,nan,nan,nan,nan,0.0,nan,nan,nan,nan,nan,nan,nan,nan,nan,nan,nan,nan,nan,nan,nan,nan,nan,nan,151.72530291276053,315.64148920821026,nan,316.10023381141946,nan,nan,nan,nan
1,102,1,1,1.0,1.0,0.26624583825469017,0.0,4,7,6,0,8,3,nan,nan,nan,nan,nan,nan,nan,nan,nan,nan,nan,nan,0.0,nan,nan,nan,nan,nan,nan,nan,nan,nan,nan,nan,nan,nan,nan,nan,nan,nan,nan,151.72530291276053,316.6499629798345,nan,316.9162088180892,nan,nan,nan,nan
1,103,1,1,1.0,1.0,0.2660898882895708,0.0,6,3,1,2,5,0,nan,nan,nan,nan,nan,nan,nan,nan,nan,nan,nan,nan,0.0,nan,nan,nan,nan,nan,nan,nan,nan,nan,nan,nan,nan,nan,nan,nan,nan,nan,nan,151.72530291276053,317.65011835983023,nan,317.9162082481198,nan,nan,nan,nan
1,104,1,1,1.0,1.0,0.2576024318113923,0.0,1,2,5,4,8,3,nan,nan,nan,nan,nan,nan,nan,nan,nan,nan,nan,nan,0.0,nan,nan,nan,nan,nan,nan,nan,nan,nan,nan,nan,nan,nan,nan,nan,nan,nan,nan,151.72530291276053,318.65859754849225,nan,318.91619998030365,nan,nan,nan,nan
1,105,1,1,1.0,1.0,0.25713458098471165,0.0,4,7,1,8,5,6,nan,nan,nan,nan,nan,nan,nan,nan,nan,nan,nan,nan,0.0,nan,nan,nan,nan,nan,nan,nan,nan,nan,nan,nan,nan,nan,nan,nan,nan,nan,nan,151.72530291276053,319.66706191189587,nan,319.9241964928806,nan,nan,nan,nan
1,106,1,1,1.0,1.0,0.32863648422062397,0.0,0,5,3,2,7,4,nan,nan,nan,nan,nan,nan,nan,nan,nan,nan,nan,nan,0.0,nan,nan,nan,nan,nan,nan,nan,nan,nan,nan,nan,nan,nan,nan,nan,nan,nan,nan,151.72530291276053,320.67554908338934,nan,321.00418556760997,nan,nan,nan,nan
1,107,1,1,1.0,1.0,0.3601441355422139,0.0,6,4,7,1,8,0,nan,nan,nan,nan,nan,nan,nan,nan,nan,nan,nan,nan,0.0,nan,nan,nan,nan,nan,nan,nan,nan,nan,nan,nan,nan,nan,nan,nan,nan,nan,nan,151.72530291276053,321.68402713164687,nan,322.0441712671891,nan,nan,nan,nan
1,108,1,1,1.0,1.0,0.35966944228857756,0.0,2,1,0,4,3,6,nan,nan,nan,nan,nan,nan,nan,nan,nan,nan,nan,nan,0.0,nan,nan,nan,nan,nan,nan,nan,nan,nan,nan,nan,nan,nan,nan,nan,nan,nan,nan,151.72530291276053,322.6925066052936,nan,323.0521760475822,nan,nan,nan,nan
1,109,1,1,1.0,1.0,0.39117481280118227,0.0,4,8,1,3,6,2,nan,nan,nan,nan,nan,nan,nan,nan,nan,nan,nan,nan,0.0,nan,nan,nan,nan,nan,nan,nan,nan,nan,nan,nan,nan,nan,nan,nan,nan,nan,nan,151.72530291276053,323.7009937767871,nan,324.09216858958825,nan,nan,nan,nan
1,110,1,1,1.0,1.0,0.3266866789199412,0.0,6,3,8,0,4,7,nan,nan,nan,nan,nan,nan,nan,nan,nan,nan,nan,nan,0.0,nan,nan,nan,nan,nan,nan,nan,nan,nan,nan,nan,nan,nan,nan,nan,nan,nan,nan,151.72530291276053,324.7094726799987,nan,325.03615935891867,nan,nan,nan,nan
1,111,0,0,1.0,0.0,0.29421253548935056,1.0,4,0,6,2,3,1,1.0,1.0,1.0,1.0,1.0,1.0,1.0,1.0,1.0,0.0,0.0,1.0,4.0,4.0,0.0,6.0,8.0,8.0,1.0,2.0,1.0,4.0,5.0,6.0,3.0,2.174130563158542,1.2315530395135283,3.9510943461209536,5.50218914821744,6.502385867759585,3.1922156596556306,151.72530291276053,325.71793675841764,326.5263719842769,326.012149293907,334.0857900250703,335.0961714074947,327.5431866706349,334.07745794858783
1,112,1,1,nan,nan,nan,0.0,8,6,1,0,7,2,nan,nan,nan,nan,nan,nan,nan,nan,nan,nan,nan,nan,0.0,nan,nan,nan,nan,nan,nan,nan,nan,nan,nan,nan,nan,nan,nan,nan,nan,nan,nan,151.72530291276053,335.3026560866274,nan,nan,nan,nan,nan,nan
1,113,1,1,1.0,1.0,0.5649829264730215,0.0,3,5,6,7,8,4,nan,nan,nan,nan,nan,nan,nan,nan,nan,nan,nan,nan,0.0,nan,nan,nan,nan,nan,nan,nan,nan,nan,nan,nan,nan,nan,nan,nan,nan,nan,nan,151.72530291276053,336.3111215904355,nan,336.8761045169085,nan,nan,nan,nan
1,114,1,1,1.0,1.0,0.33247765013948083,0.0,2,1,3,4,6,5,nan,nan,nan,nan,nan,nan,nan,nan,nan,nan,nan,nan,0.0,nan,nan,nan,nan,nan,nan,nan,nan,nan,nan,nan,nan,nan,nan,nan,nan,nan,nan,151.72530291276053,337.3196093318984,nan,337.6520869820379,nan,nan,nan,nan
1,115,1,1,1.0,1.0,0.3239770792424679,0.0,5,3,8,6,4,1,nan,nan,nan,nan,nan,nan,nan,nan,nan,nan,nan,nan,0.0,nan,nan,nan,nan,nan,nan,nan,nan,nan,nan,nan,nan,nan,nan,nan,nan,nan,nan,151.72530291276053,338.3281036308035,nan,338.652080710046,nan,nan,nan,nan
1,116,1,1,1.0,1.0,0.5235155578702688,0.0,6,4,0,7,2,5,nan,nan,nan,nan,nan,nan,nan,nan,nan,nan,nan,nan,0.0,nan,nan,nan,nan,nan,nan,nan,nan,nan,nan,nan,nan,nan,nan,nan,nan,nan,nan,151.72530291276053,339.33655459433794,nan,339.8600701522082,nan,nan,nan,nan
1,117,1,1,1.0,1.0,0.523002945818007,0.0,0,8,7,6,5,3,nan,nan,nan,nan,nan,nan,nan,nan,nan,nan,nan,nan,0.0,nan,nan,nan,nan,nan,nan,nan,nan,nan,nan,nan,nan,nan,nan,nan,nan,nan,nan,151.72530291276053,340.34505174448714,nan,340.86805469030514,nan,nan,nan,nan
1,118,1,1,1.0,1.0,0.4905193941667676,0.0,7,6,0,5,4,2,nan,nan,nan,nan,nan,nan,nan,nan,nan,nan,nan,nan,0.0,nan,nan,nan,nan,nan,nan,nan,nan,nan,nan,nan,nan,nan,nan,nan,nan,nan,nan,151.72530291276053,341.3535300777294,nan,341.84404947189614,nan,nan,nan,nan
1,119,0,0,nan,nan,nan,1.0,8,2,7,6,3,1,1.0,1.0,1.0,1.0,1.0,1.0,1.0,1.0,1.0,0.0,0.0,1.0,4.0,8.0,2.0,7.0,7.0,7.0,1.0,2.0,1.0,6.0,5.0,4.0,3.0,2.435306735802442,1.1572962049394846,5.802064074203372,4.906648526433855,4.09144186694175,3.235684722661972,151.72530291276053,342.3620078410022,343.17044677305967,nan,350.0297542801127,351.0392797891982,344.1872643106617,350.02142305905
1,120,1,1,1.0,1.0,0.4933903613127768,0.0,0,5,3,2,8,4,nan,nan,nan,nan,nan,nan,nan,nan,nan,nan,nan,nan,0.0,nan,nan,nan,nan,nan,nan,nan,nan,nan,nan,nan,nan,nan,nan,nan,nan,nan,nan,151.72530291276053,351.24660694180056,nan,351.73999730311334,nan,nan,nan,nan
1,121,1,1,1.0,1.0,0.380882381927222,0.0,1,6,4,0,2,7,nan,nan,nan,nan,nan,nan,nan,nan,nan,nan,nan,nan,0.0,nan,nan,nan,nan,nan,nan,nan,nan,nan,nan,nan,nan,nan,nan,nan,nan,nan,nan,151.72530291276053,352.25509069208056,nan,352.6359730740078,nan,nan,nan,nan
1,122,1,1,1.0,1.0,0.36437703017145395,0.0,5,1,0,3,4,8,nan,nan,nan,nan,nan,nan,nan,nan,nan,nan,nan,nan,0.0,nan,nan,nan,nan,nan,nan,nan,nan,nan,nan,nan,nan,nan,nan,nan,nan,nan,nan,151.72530291276053,353.26358898263425,nan,353.6279660128057,nan,nan,nan,nan
1,123,1,1,1.0,1.0,0.25990690290927887,0.0,1,7,3,4,6,2,nan,nan,nan,nan,nan,nan,nan,nan,nan,nan,nan,nan,0.0,nan,nan,nan,nan,nan,nan,nan,nan,nan,nan,nan,nan,nan,nan,nan,nan,nan,nan,151.72530291276053,354.2720453632064,nan,354.5319522661157,nan,nan,nan,nan
1,124,1,1,1.0,1.0,0.3954000095836818,0.0,4,3,0,2,5,6,nan,nan,nan,nan,nan,nan,nan,nan,nan,nan,nan,nan,0.0,nan,nan,nan,nan,nan,nan,nan,nan,nan,nan,nan,nan,nan,nan,nan,nan,nan,nan,151.72530291276053,355.2805524915457,nan,355.67595250112936,nan,nan,nan,nan
1,125,1,1,1.0,1.0,0.36293042777106166,0.0,2,5,6,7,8,1,nan,nan,nan,nan,nan,nan,nan,nan,nan,nan,nan,nan,0.0,nan,nan,nan,nan,nan,nan,nan,nan,nan,nan,nan,nan,nan,nan,nan,nan,nan,nan,151.72530291276053,356.28902569320053,nan,356.6519561209716,nan,nan,nan,nan
1,126,1,1,1.0,1.0,0.41843731002882123,0.0,3,2,8,4,0,5,nan,nan,nan,nan,nan,nan,nan,nan,nan,nan,nan,nan,0.0,nan,nan,nan,nan,nan,nan,nan,nan,nan,nan,nan,nan,nan,nan,nan,nan,nan,nan,151.72530291276053,357.29750488186255,nan,357.7159421918914,nan,nan,nan,nan
1,127,1,1,1.0,1.0,0.4019559067673981,0.0,7,3,4,5,8,0,nan,nan,nan,nan,nan,nan,nan,nan,nan,nan,nan,nan,0.0,nan,nan,nan,nan,nan,nan,nan,nan,nan,nan,nan,nan,nan,nan,nan,nan,nan,nan,151.72530291276053,358.3059806493111,nan,358.7079365560785,nan,nan,nan,nan
1,128,1,1,1.0,1.0,0.401471805293113,0.0,1,2,7,6,0,8,nan,nan,nan,nan,nan,nan,nan,nan,nan,nan,nan,nan,0.0,nan,nan,nan,nan,nan,nan,nan,nan,nan,nan,nan,nan,nan,nan,nan,nan,nan,nan,151.72530291276053,359.3144629737362,nan,359.71593477902934,nan,nan,nan,nan
1,129,1,1,1.0,1.0,0.3930174205452204,0.0,4,3,6,8,7,0,nan,nan,nan,nan,nan,nan,nan,nan,nan,nan,nan,nan,0.0,nan,nan,nan,nan,nan,nan,nan,nan,nan,nan,nan,nan,nan,nan,nan,nan,nan,nan,151.72530291276053,360.32290994608775,nan,360.71592736663297,nan,nan,nan,nan
1,130,1,1,1.0,1.0,0.36849787971004844,0.0,8,0,5,4,2,3,nan,nan,nan,nan,nan,nan,nan,nan,nan,nan,nan,nan,0.0,nan,nan,nan,nan,nan,nan,nan,nan,nan,nan,nan,nan,nan,nan,nan,nan,nan,nan,151.72530291276053,361.3314167894423,nan,361.69991466915235,nan,nan,nan,nan
1,131,1,1,1.0,1.0,0.296021216083318,0.0,3,6,1,2,5,8,nan,nan,nan,nan,nan,nan,nan,nan,nan,nan,nan,nan,0.0,nan,nan,nan,nan,nan,nan,nan,nan,nan,nan,nan,nan,nan,nan,nan,nan,nan,nan,151.72530291276053,362.3398868548684,nan,362.6359080709517,nan,nan,nan,nan
1,132,1,1,1.0,1.0,0.31153327599167824,0.0,1,8,3,7,6,5,nan,nan,nan,nan,nan,nan,nan,nan,nan,nan,nan,nan,0.0,nan,nan,nan,nan,nan,nan,nan,nan,nan,nan,nan,nan,nan,nan,nan,nan,nan,nan,151.72530291276053,363.3483711751178,nan,363.65990445110947,nan,nan,nan,nan
1,133,1,1,1.0,1.0,0.5030367532745004,0.0,0,2,4,5,7,3,nan,nan,nan,nan,nan,nan,nan,nan,nan,nan,nan,nan,0.0,nan,nan,nan,nan,nan,nan,nan,nan,nan,nan,nan,nan,nan,nan,nan,nan,nan,nan,151.72530291276053,364.3568520746194,nan,364.8598888278939,nan,nan,nan,nan
1,134,1,1,1.0,1.0,0.29454581812024117,0.0,5,6,2,0,3,1,nan,nan,nan,nan,nan,nan,nan,nan,nan,nan,nan,nan,0.0,nan,nan,nan,nan,nan,nan,nan,nan,nan,nan,nan,nan,nan,nan,nan,nan,nan,nan,151.72530291276053,365.36533896112815,nan,365.6598847792484,nan,nan,nan,nan
1,135,1,1,1.0,1.0,0.29407654237002134,0.0,3,0,1,5,4,6,nan,nan,nan,nan,nan,nan,nan,nan,nan,nan,nan,nan,0.0,nan,nan,nan,nan,nan,nan,nan,nan,nan,nan,nan,nan,nan,nan,nan,nan,nan,nan,151.72530291276053,366.37380988150835,nan,366.6678864238784,nan,nan,nan,nan
1,136,1,1,1.0,1.0,0.4775778050534427,0.0,5,6,2,8,3,0,nan,nan,nan,nan,nan,nan,nan,nan,nan,nan,nan,nan,0.0,nan,nan,nan,nan,nan,nan,nan,nan,nan,nan,nan,nan,nan,nan,nan,nan,nan,nan,151.72530291276053,367.38229135097936,nan,367.8598691560328,nan,nan,nan,nan
1,137,1,1,1.0,1.0,0.5091011365875602,0.0,8,3,4,5,0,1,nan,nan,nan,nan,nan,nan,nan,nan,nan,nan,nan,nan,0.0,nan,nan,nan,nan,nan,nan,nan,nan,nan,nan,nan,nan,nan,nan,nan,nan,nan,nan,151.72530291276053,368.3907668334432,nan,368.89986797003075,nan,nan,nan,nan
1,138,1,1,1.0,1.0,0.4526009620167315,0.0,4,0,6,1,8,2,nan,nan,nan,nan,nan,nan,nan,nan,nan,nan,nan,nan,0.0,nan,nan,nan,nan,nan,nan,nan,nan,nan,nan,nan,nan,nan,nan,nan,nan,nan,nan,151.72530291276053,369.39925514534116,nan,369.8518561073579,nan,nan,nan,nan
1,139,1,1,1.0,1.0,0.46811615815386176,0.0,5,4,7,2,0,3,nan,nan,nan,nan,nan,nan,nan,nan,nan,nan,nan,nan,0.0,nan,nan,nan,nan,nan,nan,nan,nan,nan,nan,nan,nan,nan,nan,nan,nan,nan,nan,151.72530291276053,370.4077326231636,nan,370.8758487813175,nan,nan,nan,nan
1,140,1,1,1.0,1.0,0.5796499471180141,0.0,4,6,3,5,1,7,nan,nan,nan,nan,nan,nan,nan,nan,nan,nan,nan,nan,0.0,nan,nan,nan,nan,nan,nan,nan,nan,nan,nan,nan,nan,nan,nan,nan,nan,nan,nan,151.72530291276053,371.4162038289942,nan,371.9958537761122,nan,nan,nan,nan
1,141,1,1,1.0,1.0,0.4031570376828313,0.0,1,4,6,8,3,0,nan,nan,nan,nan,nan,nan,nan,nan,nan,nan,nan,nan,0.0,nan,nan,nan,nan,nan,nan,nan,nan,nan,nan,nan,nan,nan,nan,nan,nan,nan,nan,151.72530291276053,372.4246844430454,nan,372.82784148072824,nan,nan,nan,nan
1,142,0,0,nan,nan,nan,1.0,2,6,1,4,5,7,1.0,1.0,1.0,1.0,1.0,1.0,0.0,1.0,1.0,1.0,1.0,0.0,4.0,7.0,6.0,1.0,4.0,5.0,5.0,4.0,2.0,1.0,3.0,5.0,6.0,5.27466686675325,3.0271809585392475,1.3073169174604118,4.034098648931831,8.226444599684328,9.24265259085223,151.72530291276053,373.4331422490068,374.2415843177587,nan,384.55140812834725,385.56188416387886,375.26675160788,384.54308260884136
1,143,1,1,1.0,1.0,0.7074878071434796,0.0,6,3,8,2,7,0,nan,nan,nan,nan,nan,nan,nan,nan,nan,nan,nan,nan,0.0,nan,nan,nan,nan,nan,nan,nan,nan,nan,nan,nan,nan,nan,nan,nan,nan,nan,nan,151.72530291276053,385.7682804618962,nan,386.4757682690397,nan,nan,nan,nan
1,144,0,0,nan,nan,nan,1.0,8,5,0,1,3,2,1.0,1.0,1.0,1.0,1.0,1.0,1.0,1.0,1.0,1.0,0.0,0.0,4.0,8.0,5.0,0.0,1.0,5.0,3.0,3.0,2.0,1.0,4.0,5.0,6.0,4.467400269117206,3.4535908326506615,1.5001657861284912,5.659918420948088,7.715663933195174,12.866960472427309,151.72530291276053,386.7767342766747,387.5851934510283,nan,401.51219419715926,402.51898273685947,388.60201098863035,401.5038698185235
1,145,1,1,1.0,1.0,0.530918204691261,0.0,0,3,7,6,2,5,nan,nan,nan,nan,nan,nan,nan,nan,nan,nan,nan,nan,0.0,nan,nan,nan,nan,nan,nan,nan,nan,nan,nan,nan,nan,nan,nan,nan,nan,nan,nan,151.72530291276053,402.72074500331655,nan,403.2516632080078,nan,nan,nan,nan
1,146,1,1,1.0,1.0,0.30645648250356317,0.0,7,8,1,2,5,3,nan,nan,nan,nan,nan,nan,nan,nan,nan,nan,nan,nan,0.0,nan,nan,nan,nan,nan,nan,nan,nan,nan,nan,nan,nan,nan,nan,nan,nan,nan,nan,151.72530291276053,403.7292176345363,nan,404.0356741170399,nan,nan,nan,nan
1,147,1,1,1.0,1.0,0.3219491555355489,0.0,4,3,2,5,7,1,nan,nan,nan,nan,nan,nan,nan,nan,nan,nan,nan,nan,0.0,nan,nan,nan,nan,nan,nan,nan,nan,nan,nan,nan,nan,nan,nan,nan,nan,nan,nan,151.72530291276053,404.7376865595579,nan,405.05963571509346,nan,nan,nan,nan
1,148,1,1,1.0,1.0,0.2094976264052093,0.0,3,0,7,2,4,6,nan,nan,nan,nan,nan,nan,nan,nan,nan,nan,nan,nan,0.0,nan,nan,nan,nan,nan,nan,nan,nan,nan,nan,nan,nan,nan,nan,nan,nan,nan,nan,151.72530291276053,405.7461306806654,nan,405.9556283070706,nan,nan,nan,nan
1,149,1,1,1.0,1.0,0.2649688711389899,0.0,6,2,4,5,3,1,nan,nan,nan,nan,nan,nan,nan,nan,nan,nan,nan,nan,0.0,nan,nan,nan,nan,nan,nan,nan,nan,nan,nan,nan,nan,nan,nan,nan,nan,nan,nan,151.72530291276053,406.75464379647747,nan,407.01961266761646,nan,nan,nan,nan
1,150,1,1,1.0,1.0,0.22451189998537302,0.0,3,8,0,4,7,6,nan,nan,nan,nan,nan,nan,nan,nan,nan,nan,nan,nan,0.0,nan,nan,nan,nan,nan,nan,nan,nan,nan,nan,nan,nan,nan,nan,nan,nan,nan,nan,151.72530291276053,407.7631038832478,nan,407.9876157832332,nan,nan,nan,nan
1,151,1,1,1.0,1.0,0.26431598979979753,0.0,6,4,5,0,3,2,nan,nan,nan,nan,nan,nan,nan,nan,nan,nan,nan,nan,0.0,nan,nan,nan,nan,nan,nan,nan,nan,nan,nan,nan,nan,nan,nan,nan,nan,nan,nan,151.72530291276053,408.76328634796664,nan,409.02760233776644,nan,nan,nan,nan
1,152,1,1,1.0,1.0,0.3678467092104256,0.0,4,7,6,2,1,8,nan,nan,nan,nan,nan,nan,nan,nan,nan,nan,nan,nan,0.0,nan,nan,nan,nan,nan,nan,nan,nan,nan,nan,nan,nan,nan,nan,nan,nan,nan,nan,151.72530291276053,409.7717458643019,nan,410.13959257351235,nan,nan,nan,nan
1,153,0,0,1.0,0.0,0.27134800562635064,0.0,1,6,3,5,2,0,nan,nan,nan,nan,nan,nan,nan,nan,nan,nan,nan,nan,0.0,nan,nan,nan,nan,nan,nan,nan,nan,nan,nan,nan,nan,nan,nan,nan,nan,nan,nan,151.72530291276053,410.78023788286373,nan,411.0515858884901,nan,nan,nan,nan
1,154,1,1,nan,nan,nan,0.0,3,7,1,8,0,5,nan,nan,nan,nan,nan,nan,nan,nan,nan,nan,nan,nan,0.0,nan,nan,nan,nan,nan,nan,nan,nan,nan,nan,nan,nan,nan,nan,nan,nan,nan,nan,151.72530291276053,411.7887122244574,nan,nan,nan,nan,nan,nan
1,155,1,1,1.0,1.0,0.5023964163847268,0.0,4,8,6,2,3,1,nan,nan,nan,nan,nan,nan,nan,nan,nan,nan,nan,nan,0.0,nan,nan,nan,nan,nan,nan,nan,nan,nan,nan,nan,nan,nan,nan,nan,nan,nan,nan,151.72530291276053,412.7971651838161,nan,413.29956160020083,nan,nan,nan,nan
1,156,1,1,1.0,1.0,0.2858935734257102,0.0,2,4,1,7,6,5,nan,nan,nan,nan,nan,nan,nan,nan,nan,nan,nan,nan,0.0,nan,nan,nan,nan,nan,nan,nan,nan,nan,nan,nan,nan,nan,nan,nan,nan,nan,nan,151.72530291276053,413.80568713787943,nan,414.09158071130514,nan,nan,nan,nan
1,157,1,1,1.0,1.0,0.2694192980416119,0.0,6,0,5,3,1,8,nan,nan,nan,nan,nan,nan,nan,nan,nan,nan,nan,nan,0.0,nan,nan,nan,nan,nan,nan,nan,nan,nan,nan,nan,nan,nan,nan,nan,nan,nan,nan,151.72530291276053,414.8141492200084,nan,415.08356851805,nan,nan,nan,nan
1,158,1,1,1.0,1.0,0.2849436169490218,0.0,3,7,8,0,5,6,nan,nan,nan,nan,nan,nan,nan,nan,nan,nan,nan,nan,0.0,nan,nan,nan,nan,nan,nan,nan,nan,nan,nan,nan,nan,nan,nan,nan,nan,nan,nan,151.72530291276053,415.82261871546507,nan,416.1075623324141,nan,nan,nan,nan
1,159,1,1,1.0,1.0,0.2684505246579647,0.0,5,2,3,7,6,4,nan,nan,nan,nan,nan,nan,nan,nan,nan,nan,nan,nan,0.0,nan,nan,nan,nan,nan,nan,nan,nan,nan,nan,nan,nan,nan,nan,nan,nan,nan,nan,151.72530291276053,416.8311030357145,nan,417.09955356037244,nan,nan,nan,nan
1,160,1,1,1.0,1.0,0.30796637712046504,0.0,1,8,0,2,7,6,nan,nan,nan,nan,nan,nan,nan,nan,nan,nan,nan,nan,0.0,nan,nan,nan,nan,nan,nan,nan,nan,nan,nan,nan,nan,nan,nan,nan,nan,nan,nan,151.72530291276053,417.8395805140026,nan,418.14754689112306,nan,nan,nan,nan
1,161,1,1,1.0,1.0,0.25947383465245366,0.0,0,4,7,8,1,2,nan,nan,nan,nan,nan,nan,nan,nan,nan,nan,nan,nan,0.0,nan,nan,nan,nan,nan,nan,nan,nan,nan,nan,nan,nan,nan,nan,nan,nan,nan,nan,151.72530291276053,418.84806911088526,nan,419.1075429455377,nan,nan,nan,nan
1,162,1,1,1.0,1.0,0.25896635465323925,0.0,1,7,4,2,6,3,nan,nan,nan,nan,nan,nan,nan,nan,nan,nan,nan,nan,0.0,nan,nan,nan,nan,nan,nan,nan,nan,nan,nan,nan,nan,nan,nan,nan,nan,nan,nan,151.72530291276053,419.856560559012,nan,420.11552691366524,nan,nan,nan,nan
1,163,1,1,1.0,1.0,0.2265292746014893,0.0,2,5,6,0,1,4,nan,nan,nan,nan,nan,nan,nan,nan,nan,nan,nan,nan,0.0,nan,nan,nan,nan,nan,nan,nan,nan,nan,nan,nan,nan,nan,nan,nan,nan,nan,nan,151.72530291276053,420.8649964123033,nan,421.0915256869048,nan,nan,nan,nan
1,164,1,1,1.0,1.0,0.2580189644359052,0.0,4,3,7,5,0,6,nan,nan,nan,nan,nan,nan,nan,nan,nan,nan,nan,nan,0.0,nan,nan,nan,nan,nan,nan,nan,nan,nan,nan,nan,nan,nan,nan,nan,nan,nan,nan,151.72530291276053,421.8735004044138,nan,422.1315193688497,nan,nan,nan,nan
1,165,1,1,1.0,1.0,0.24152245046570897,0.0,6,2,3,1,4,8,nan,nan,nan,nan,nan,nan,nan,nan,nan,nan,nan,nan,0.0,nan,nan,nan,nan,nan,nan,nan,nan,nan,nan,nan,nan,nan,nan,nan,nan,nan,nan,151.72530291276053,422.8819815889001,nan,423.1235040393658,nan,nan,nan,nan
1,166,1,1,1.0,1.0,0.36105161206796765,0.0,4,1,0,2,3,6,nan,nan,nan,nan,nan,nan,nan,nan,nan,nan,nan,nan,0.0,nan,nan,nan,nan,nan,nan,nan,nan,nan,nan,nan,nan,nan,nan,nan,nan,nan,nan,151.72530291276053,423.890447948128,nan,424.25149956019595,nan,nan,nan,nan
1,167,1,1,1.0,1.0,0.328565779607743,0.0,5,8,6,3,1,7,nan,nan,nan,nan,nan,nan,nan,nan,nan,nan,nan,nan,0.0,nan,nan,nan,nan,nan,nan,nan,nan,nan,nan,nan,nan,nan,nan,nan,nan,nan,nan,151.72530291276053,424.8989325533621,nan,425.22749833296984,nan,nan,nan,nan
1,168,1,1,1.0,1.0,0.5520675666630268,0.0,6,7,4,5,0,8,nan,nan,nan,nan,nan,nan,nan,nan,nan,nan,nan,nan,0.0,nan,nan,nan,nan,nan,nan,nan,nan,nan,nan,nan,nan,nan,nan,nan,nan,nan,nan,151.72530291276053,425.9074177290313,nan,426.4594852956943,nan,nan,nan,nan
1,169,0,0,nan,nan,nan,1.0,4,0,3,1,8,5,1.0,1.0,1.0,1.0,1.0,1.0,1.0,1.0,1.0,1.0,1.0,0.0,5.0,4.0,0.0,3.0,1.0,8.0,8.0,3.0,2.0,1.0,4.0,5.0,6.0,3.3438719967380166,2.3284816746599972,1.1707871840335429,4.6643263678997755,6.784026589710265,7.607488063629717,151.72530291276053,426.9158915011212,427.7243290077895,nan,436.39223681390285,437.4003847152926,428.7411405579187,436.38390559284016
1,170,1,1,1.0,1.0,0.6503515723161399,0.0,6,2,7,0,1,8,nan,nan,nan,nan,nan,nan,nan,nan,nan,nan,nan,nan,0.0,nan,nan,nan,nan,nan,nan,nan,nan,nan,nan,nan,nan,nan,nan,nan,nan,nan,nan,151.72530291276053,437.60908377403393,nan,438.2594353463501,nan,nan,nan,nan
1,171,1,1,1.0,1.0,0.3538140384480357,0.0,2,7,4,5,3,0,nan,nan,nan,nan,nan,nan,nan,nan,nan,nan,nan,nan,0.0,nan,nan,nan,nan,nan,nan,nan,nan,nan,nan,nan,nan,nan,nan,nan,nan,nan,nan,151.72530291276053,438.6175897619687,nan,438.97140380041674,nan,nan,nan,nan
1,172,1,1,1.0,1.0,0.40133068012073636,0.0,6,3,2,8,0,4,nan,nan,nan,nan,nan,nan,nan,nan,nan,nan,nan,nan,0.0,nan,nan,nan,nan,nan,nan,nan,nan,nan,nan,nan,nan,nan,nan,nan,nan,nan,nan,151.72530291276053,439.6260746526532,nan,440.0274053327739,nan,nan,nan,nan
1,173,1,1,1.0,1.0,0.5288497973233461,0.0,1,2,3,5,4,7,nan,nan,nan,nan,nan,nan,nan,nan,nan,nan,nan,nan,0.0,nan,nan,nan,nan,nan,nan,nan,nan,nan,nan,nan,nan,nan,nan,nan,nan,nan,nan,151.72530291276053,440.6345464284532,nan,441.1633962257765,nan,nan,nan,nan
1,174,1,1,1.0,1.0,0.40036504343152046,0.0,3,8,2,4,7,0,nan,nan,nan,nan,nan,nan,nan,nan,nan,nan,nan,nan,0.0,nan,nan,nan,nan,nan,nan,nan,nan,nan,nan,nan,nan,nan,nan,nan,nan,nan,nan,151.72530291276053,441.64301848970354,nan,442.04338353313506,nan,nan,nan,nan
1,175,1,1,1.0,1.0,0.36787236807867885,0.0,8,5,7,6,3,1,nan,nan,nan,nan,nan,nan,nan,nan,nan,nan,nan,nan,0.0,nan,nan,nan,nan,nan,nan,nan,nan,nan,nan,nan,nan,nan,nan,nan,nan,nan,nan,151.72530291276053,442.651505661197,nan,443.0193780292757,nan,nan,nan,nan
1,176,1,1,1.0,1.0,0.3434229623526335,0.0,0,3,2,1,6,7,nan,nan,nan,nan,nan,nan,nan,nan,nan,nan,nan,nan,0.0,nan,nan,nan,nan,nan,nan,nan,nan,nan,nan,nan,nan,nan,nan,nan,nan,nan,nan,151.72530291276053,443.65995092270896,nan,444.0033738850616,nan,nan,nan,nan
1,177,1,1,1.0,1.0,0.3512207600288093,0.0,1,6,4,8,0,3,nan,nan,nan,nan,nan,nan,nan,nan,nan,nan,nan,nan,0.0,nan,nan,nan,nan,nan,nan,nan,nan,nan,nan,nan,nan,nan,nan,nan,nan,nan,nan,151.72530291276053,444.66014194022864,nan,445.01136270025745,nan,nan,nan,nan
1,178,1,1,1.0,1.0,0.3907722500152886,0.0,6,0,8,1,2,5,nan,nan,nan,nan,nan,nan,nan,nan,nan,nan,nan,nan,0.0,nan,nan,nan,nan,nan,nan,nan,nan,nan,nan,nan,nan,nan,nan,nan,nan,nan,nan,151.72530291276053,445.6685963254422,nan,446.0593685754575,nan,nan,nan,nan
1,179,1,1,1.0,1.0,0.38226683204993606,0.0,1,4,0,5,8,3,nan,nan,nan,nan,nan,nan,nan,nan,nan,nan,nan,nan,0.0,nan,nan,nan,nan,nan,nan,nan,nan,nan,nan,nan,nan,nan,nan,nan,nan,nan,nan,151.72530291276053,446.6770940455608,nan,447.05936087761074,nan,nan,nan,nan
1,180,1,1,1.0,1.0,0.4057768299244344,0.0,2,1,3,0,6,7,nan,nan,nan,nan,nan,nan,nan,nan,nan,nan,nan,nan,0.0,nan,nan,nan,nan,nan,nan,nan,nan,nan,nan,nan,nan,nan,nan,nan,nan,nan,nan,151.72530291276053,447.68556724721566,nan,448.0913440771401,nan,nan,nan,nan
1,181,1,1,1.0,1.0,0.34962561959400773,0.0,5,8,1,6,3,0,nan,nan,nan,nan,nan,nan,nan,nan,nan,nan,nan,nan,0.0,nan,nan,nan,nan,nan,nan,nan,nan,nan,nan,nan,nan,nan,nan,nan,nan,nan,nan,151.72530291276053,448.68571549933404,nan,449.03534111892805,nan,nan,nan,nan
1,182,1,1,1.0,1.0,0.3011570256203413,0.0,7,1,5,2,0,8,nan,nan,nan,nan,nan,nan,nan,nan,nan,nan,nan,nan,0.0,nan,nan,nan,nan,nan,nan,nan,nan,nan,nan,nan,nan,nan,nan,nan,nan,nan,nan,151.72530291276053,449.69418100314215,nan,449.9953380287625,nan,nan,nan,nan
1,183,1,1,1.0,1.0,0.4046558132395148,0.0,8,3,2,4,6,0,nan,nan,nan,nan,nan,nan,nan,nan,nan,nan,nan,nan,0.0,nan,nan,nan,nan,nan,nan,nan,nan,nan,nan,nan,nan,nan,nan,nan,nan,nan,nan,151.72530291276053,450.70266503840685,nan,451.10732085164636,nan,nan,nan,nan
1,184,0,0,nan,nan,nan,1.0,1,0,5,3,8,6,1.0,1.0,1.0,1.0,1.0,1.0,0.0,0.0,1.0,1.0,1.0,0.0,3.0,5.0,1.0,5.0,3.0,8.0,1.0,4.0,5.0,3.0,1.0,2.0,6.0,4.893228252418339,5.97966517182067,4.0596773396246135,2.0544055374339223,2.9956918386742473,6.996110367123038,151.72530291276053,451.71113367844373,452.51957660214975,nan,460.5790583626367,461.5802443828434,453.54472963744774,460.5707288524136
1,185,1,1,1.0,1.0,0.34368554037064314,0.0,0,6,3,4,7,2,nan,nan,nan,nan,nan,nan,nan,nan,nan,nan,nan,nan,0.0,nan,nan,nan,nan,nan,nan,nan,nan,nan,nan,nan,nan,nan,nan,nan,nan,nan,nan,151.72530291276053,461.7875766674988,nan,462.13126220786944,nan,nan,nan,nan
1,186,0,0,nan,nan,nan,1.0,2,1,6,5,4,3,1.0,1.0,1.0,1.0,1.0,1.0,0.0,0.0,1.0,0.0,0.0,1.0,2.0,1.0,2.0,6.0,0.0,0.0,3.0,3.0,2.0,1.0,6.0,5.0,4.0,3.400452569592744,1.993330062367022,1.279920422937721,6.495307380333543,5.775409412104636,4.552067281678319,151.72530291276053,462.7960792342201,463.604509328492,nan,471.1555981435813,472.15698886616156,464.62133028684184,471.1472731945105
1,187,1,1,1.0,1.0,0.655107056722045,0.0,5,6,1,3,7,4,nan,nan,nan,nan,nan,nan,nan,nan,nan,nan,nan,nan,0.0,nan,nan,nan,nan,nan,nan,nan,nan,nan,nan,nan,nan,nan,nan,nan,nan,nan,nan,151.72530291276053,472.36409592069685,nan,473.0192029774189,nan,nan,nan,nan
1,188,1,1,1.0,1.0,0.4865724556148052,0.0,8,3,4,5,2,6,nan,nan,nan,nan,nan,nan,nan,nan,nan,nan,nan,nan,0.0,nan,nan,nan,nan,nan,nan,nan,nan,nan,nan,nan,nan,nan,nan,nan,nan,nan,nan,151.72530291276053,473.3726047598757,nan,473.8591772154905,nan,nan,nan,nan
1,189,1,1,1.0,1.0,0.38207809580489993,0.0,4,6,0,1,7,5,nan,nan,nan,nan,nan,nan,nan,nan,nan,nan,nan,nan,0.0,nan,nan,nan,nan,nan,nan,nan,nan,nan,nan,nan,nan,nan,nan,nan,nan,nan,nan,151.72530291276053,474.3810882247053,nan,474.7631663205102,nan,nan,nan,nan
1,190,0,0,nan,nan,nan,0.0,6,7,5,0,4,3,nan,nan,nan,nan,nan,nan,nan,nan,nan,nan,nan,nan,0.0,nan,nan,nan,nan,nan,nan,nan,nan,nan,nan,nan,nan,nan,nan,nan,nan,nan,nan,151.72530291276053,475.3895679838024,nan,nan,nan,nan,nan,nan
1,191,1,1,nan,nan,nan,0.0,2,0,8,7,3,5,nan,nan,nan,nan,nan,nan,nan,nan,nan,nan,nan,nan,0.0,nan,nan,nan,nan,nan,nan,nan,nan,nan,nan,nan,nan,nan,nan,nan,nan,nan,nan,151.72530291276053,476.39804489165545,nan,nan,nan,nan,nan,nan
1,192,1,1,1.0,1.0,0.37259478121995926,0.0,7,2,5,8,0,4,nan,nan,nan,nan,nan,nan,nan,nan,nan,nan,nan,nan,0.0,nan,nan,nan,nan,nan,nan,nan,nan,nan,nan,nan,nan,nan,nan,nan,nan,nan,nan,151.72530291276053,477.4065209440887,nan,477.77911572530866,nan,nan,nan,nan
1,193,1,1,1.0,1.0,0.4521570596843958,0.0,8,1,7,0,5,6,nan,nan,nan,nan,nan,nan,nan,nan,nan,nan,nan,nan,0.0,nan,nan,nan,nan,nan,nan,nan,nan,nan,nan,nan,nan,nan,nan,nan,nan,nan,nan,151.72530291276053,478.41499443072826,nan,478.86715149041265,nan,nan,nan,nan
1,194,0,0,nan,nan,nan,0.0,5,2,0,7,1,3,nan,nan,nan,nan,nan,nan,nan,nan,nan,nan,nan,nan,0.0,nan,nan,nan,nan,nan,nan,nan,nan,nan,nan,nan,nan,nan,nan,nan,nan,nan,nan,151.72530291276053,479.4234767551534,nan,nan,nan,nan,nan,nan
1,195,1,1,1.0,1.0,0.6511997478082776,0.0,4,0,2,1,5,8,nan,nan,nan,nan,nan,nan,nan,nan,nan,nan,nan,nan,0.0,nan,nan,nan,nan,nan,nan,nan,nan,nan,nan,nan,nan,nan,nan,nan,nan,nan,nan,151.72530291276053,480.4319533780217,nan,481.08315312583,nan,nan,nan,nan
1,196,1,1,1.0,1.0,0.4346849303692579,0.0,5,6,1,2,3,4,nan,nan,nan,nan,nan,nan,nan,nan,nan,nan,nan,nan,0.0,nan,nan,nan,nan,nan,nan,nan,nan,nan,nan,nan,nan,nan,nan,nan,nan,nan,nan,151.72530291276053,481.4404357029125,nan,481.87512063328177,nan,nan,nan,nan
1,197,1,1,1.0,1.0,0.3861869708634913,0.0,0,1,4,8,7,5,nan,nan,nan,nan,nan,nan,nan,nan,nan,nan,nan,nan,0.0,nan,nan,nan,nan,nan,nan,nan,nan,nan,nan,nan,nan,nan,nan,nan,nan,nan,nan,151.72530291276053,482.4489345634356,nan,482.8351215342991,nan,nan,nan,nan
1,198,1,1,1.0,1.0,0.3377206572331488,0.0,8,0,1,6,3,4,nan,nan,nan,nan,nan,nan,nan,nan,nan,nan,nan,nan,0.0,nan,nan,nan,nan,nan,nan,nan,nan,nan,nan,nan,nan,nan,nan,nan,nan,nan,nan,151.72530291276053,483.4573906590231,nan,483.7951113162562,nan,nan,nan,nan
1,199,1,1,1.0,1.0,0.34521539229899645,0.0,6,2,3,1,0,5,nan,nan,nan,nan,nan,nan,nan,nan,nan,nan,nan,nan,0.0,nan,nan,nan,nan,nan,nan,nan,nan,nan,nan,nan,nan,nan,nan,nan,nan,nan,nan,151.72530291276053,484.4658741238527,nan,484.8110895161517,nan,nan,nan,nan
1,200,1,1,1.0,1.0,0.38472810899838805,0.0,4,3,0,5,6,8,nan,nan,nan,nan,nan,nan,nan,nan,nan,nan,nan,nan,0.0,nan,nan,nan,nan,nan,nan,nan,nan,nan,nan,nan,nan,nan,nan,nan,nan,nan,nan,151.72530291276053,485.4743561637588,nan,485.8590842727572,nan,nan,nan,nan
1,201,1,1,1.0,1.0,0.28824394615367055,0.0,5,4,8,7,0,2,nan,nan,nan,nan,nan,nan,nan,nan,nan,nan,nan,nan,0.0,nan,nan,nan,nan,nan,nan,nan,nan,nan,nan,nan,nan,nan,nan,nan,nan,nan,nan,151.72530291276053,486.48283478198573,nan,486.7710787281394,nan,nan,nan,nan
1,202,1,1,1.0,1.0,0.22376807173714042,0.0,7,3,2,0,6,4,nan,nan,nan,nan,nan,nan,nan,nan,nan,nan,nan,nan,0.0,nan,nan,nan,nan,nan,nan,nan,nan,nan,nan,nan,nan,nan,nan,nan,nan,nan,nan,151.72530291276053,487.491306272801,nan,487.71507434453815,nan,nan,nan,nan
1,203,1,1,1.0,1.0,0.2792752389796078,0.0,6,0,3,7,4,2,nan,nan,nan,nan,nan,nan,nan,nan,nan,nan,nan,nan,0.0,nan,nan,nan,nan,nan,nan,nan,nan,nan,nan,nan,nan,nan,nan,nan,nan,nan,nan,151.72530291276053,488.499787742272,nan,488.7790629812516,nan,nan,nan,nan
1,204,1,1,1.0,1.0,0.3191203838214278,0.0,7,6,5,8,3,1,nan,nan,nan,nan,nan,nan,nan,nan,nan,nan,nan,nan,0.0,nan,nan,nan,nan,nan,nan,nan,nan,nan,nan,nan,nan,nan,nan,nan,nan,nan,nan,151.72530291276053,489.49993856064975,nan,489.8190589444712,nan,nan,nan,nan
1,205,1,1,1.0,1.0,0.2706449464894831,0.0,0,4,6,1,2,3,nan,nan,nan,nan,nan,nan,nan,nan,nan,nan,nan,nan,0.0,nan,nan,nan,nan,nan,nan,nan,nan,nan,nan,nan,nan,nan,nan,nan,nan,nan,nan,151.72530291276053,490.5084066307172,nan,490.7790515772067,nan,nan,nan,nan
1,206,1,1,1.0,1.0,0.2461844221688807,0.0,4,0,3,2,6,8,nan,nan,nan,nan,nan,nan,nan,nan,nan,nan,nan,nan,0.0,nan,nan,nan,nan,nan,nan,nan,nan,nan,nan,nan,nan,nan,nan,nan,nan,nan,nan,151.72530291276053,491.5168675724417,nan,491.7630519946106,nan,nan,nan,nan
1,207,0,0,1.0,0.0,0.24566610855981708,0.0,0,7,1,4,2,3,nan,nan,nan,nan,nan,nan,nan,nan,nan,nan,nan,nan,0.0,nan,nan,nan,nan,nan,nan,nan,nan,nan,nan,nan,nan,nan,nan,nan,nan,nan,nan,151.72530291276053,492.5253778374754,nan,492.7710439460352,nan,nan,nan,nan
1,208,1,1,1.0,1.0,0.3331872667185962,0.0,7,0,5,6,8,4,nan,nan,nan,nan,nan,nan,nan,nan,nan,nan,nan,nan,0.0,nan,nan,nan,nan,nan,nan,nan,nan,nan,nan,nan,nan,nan,nan,nan,nan,nan,nan,151.72530291276053,493.53385788109154,nan,493.86704514781013,nan,nan,nan,nan
1,209,1,1,1.0,1.0,0.3647157303057611,0.0,4,3,7,2,0,8,nan,nan,nan,nan,nan,nan,nan,nan,nan,nan,nan,nan,0.0,nan,nan,nan,nan,nan,nan,nan,nan,nan,nan,nan,nan,nan,nan,nan,nan,nan,nan,151.72530291276053,494.54232224449515,nan,494.9070379748009,nan,nan,nan,nan
1,210,1,1,1.0,1.0,0.32454842142760754,0.0,1,6,0,8,2,4,nan,nan,nan,nan,nan,nan,nan,nan,nan,nan,nan,nan,0.0,nan,nan,nan,nan,nan,nan,nan,nan,nan,nan,nan,nan,nan,nan,nan,nan,nan,nan,151.72530291276053,495.54247962031513,nan,495.86702804174274,nan,nan,nan,nan
1,211,1,1,1.0,1.0,0.26808844646438956,0.0,0,2,8,4,5,6,nan,nan,nan,nan,nan,nan,nan,nan,nan,nan,nan,nan,0.0,nan,nan,nan,nan,nan,nan,nan,nan,nan,nan,nan,nan,nan,nan,nan,nan,nan,nan,151.72530291276053,496.550938566681,nan,496.8190270131454,nan,nan,nan,nan
1,212,1,1,1.0,1.0,0.05961547279730439,0.0,4,7,5,0,6,8,nan,nan,nan,nan,nan,nan,nan,nan,nan,nan,nan,nan,0.0,nan,nan,nan,nan,nan,nan,nan,nan,nan,nan,nan,nan,nan,nan,nan,nan,nan,nan,151.72530291276053,497.559429729823,nan,497.6190452026203,nan,nan,nan,nan
1,213,1,1,1.0,1.0,0.37110370257869363,0.0,2,0,4,8,5,1,nan,nan,nan,nan,nan,nan,nan,nan,nan,nan,nan,nan,0.0,nan,nan,nan,nan,nan,nan,nan,nan,nan,nan,nan,nan,nan,nan,nan,nan,nan,nan,151.72530291276053,498.5679032164626,nan,498.9390069190413,nan,nan,nan,nan
1,214,1,1,1.0,1.0,0.34662407636642456,0.0,6,1,2,4,0,7,nan,nan,nan,nan,nan,nan,nan,nan,nan,nan,nan,nan,0.0,nan,nan,nan,nan,nan,nan,nan,nan,nan,nan,nan,nan,nan,nan,nan,nan,nan,nan,151.72530291276053,499.5763869667426,nan,499.923011043109,nan,nan,nan,nan
1,215,1,1,1.0,1.0,0.2661092751659453,0.0,4,0,5,2,3,8,nan,nan,nan,nan,nan,nan,nan,nan,nan,nan,nan,nan,0.0,nan,nan,nan,nan,nan,nan,nan,nan,nan,nan,nan,nan,nan,nan,nan,nan,nan,nan,151.72530291276053,500.5848826910369,nan,500.85099196620286,nan,nan,nan,nan
1,216,1,1,1.0,1.0,0.3136558528058231,0.0,3,1,8,6,7,4,nan,nan,nan,nan,nan,nan,nan,nan,nan,nan,nan,nan,0.0,nan,nan,nan,nan,nan,nan,nan,nan,nan,nan,nan,nan,nan,nan,nan,nan,nan,nan,151.72530291276053,501.5933390716091,nan,501.9069949244149,nan,nan,nan,nan
1,217,1,1,1.0,1.0,0.31317175133153796,0.0,6,3,4,5,2,8,nan,nan,nan,nan,nan,nan,nan,nan,nan,nan,nan,nan,0.0,nan,nan,nan,nan,nan,nan,nan,nan,nan,nan,nan,nan,nan,nan,nan,nan,nan,nan,151.72530291276053,502.6018179752864,nan,502.91498972661793,nan,nan,nan,nan
1,218,1,1,1.0,1.0,0.26466923020780087,0.0,1,0,7,8,6,2,nan,nan,nan,nan,nan,nan,nan,nan,nan,nan,nan,nan,0.0,nan,nan,nan,nan,nan,nan,nan,nan,nan,nan,nan,nan,nan,nan,nan,nan,nan,nan,151.72530291276053,503.6103211119771,nan,503.8749903421849,nan,nan,nan,nan
1,219,1,1,1.0,1.0,0.08819428132846951,0.0,7,4,0,2,5,8,nan,nan,nan,nan,nan,nan,nan,nan,nan,nan,nan,nan,0.0,nan,nan,nan,nan,nan,nan,nan,nan,nan,nan,nan,nan,nan,nan,nan,nan,nan,nan,151.72530291276053,504.61877834796906,nan,504.7069726292975,nan,nan,nan,nan
1,220,1,1,1.0,1.0,0.42373448656871915,0.0,5,6,2,1,8,3,nan,nan,nan,nan,nan,nan,nan,nan,nan,nan,nan,nan,0.0,nan,nan,nan,nan,nan,nan,nan,nan,nan,nan,nan,nan,nan,nan,nan,nan,nan,nan,151.72530291276053,505.62722589029,nan,506.0509603768587,nan,nan,nan,nan
1,221,1,1,1.0,1.0,0.4872068059630692,0.0,7,4,0,6,1,8,nan,nan,nan,nan,nan,nan,nan,nan,nan,nan,nan,nan,0.0,nan,nan,nan,nan,nan,nan,nan,nan,nan,nan,nan,nan,nan,nan,nan,nan,nan,nan,151.72530291276053,506.63574499310926,nan,507.1229517990723,nan,nan,nan,nan
1,222,1,1,1.0,1.0,0.5347348521463573,0.0,0,5,4,2,6,3,nan,nan,nan,nan,nan,nan,nan,nan,nan,nan,nan,nan,0.0,nan,nan,nan,nan,nan,nan,nan,nan,nan,nan,nan,nan,nan,nan,nan,nan,nan,nan,151.72530291276053,507.64421648392454,nan,508.1789513360709,nan,nan,nan,nan
1,223,1,1,1.0,1.0,0.4862477257847786,0.0,1,3,7,4,8,2,nan,nan,nan,nan,nan,nan,nan,nan,nan,nan,nan,nan,0.0,nan,nan,nan,nan,nan,nan,nan,nan,nan,nan,nan,nan,nan,nan,nan,nan,nan,nan,151.72530291276053,508.65269880881533,nan,509.1389465346001,nan,nan,nan,nan
1,224,1,1,1.0,1.0,0.4217995060607791,0.0,6,1,2,8,3,0,nan,nan,nan,nan,nan,nan,nan,nan,nan,nan,nan,nan,0.0,nan,nan,nan,nan,nan,nan,nan,nan,nan,nan,nan,nan,nan,nan,nan,nan,nan,nan,151.72530291276053,509.6611415045336,nan,510.08294101059437,nan,nan,nan,nan
1,225,1,1,1.0,1.0,0.40527391200885177,0.0,8,6,3,0,5,7,nan,nan,nan,nan,nan,nan,nan,nan,nan,nan,nan,nan,0.0,nan,nan,nan,nan,nan,nan,nan,nan,nan,nan,nan,nan,nan,nan,nan,nan,nan,nan,151.72530291276053,510.6696537649259,nan,511.07492767693475,nan,nan,nan,nan
1,226,1,1,1.0,1.0,0.356817577034235,0.0,4,0,6,2,1,8,nan,nan,nan,nan,nan,nan,nan,nan,nan,nan,nan,nan,0.0,nan,nan,nan,nan,nan,nan,nan,nan,nan,nan,nan,nan,nan,nan,nan,nan,nan,nan,151.72530291276053,511.6781021626666,nan,512.0349197397009,nan,nan,nan,nan
1,227,1,1,1.0,1.0,0.34831329993903637,0.0,0,1,2,8,3,5,nan,nan,nan,nan,nan,nan,nan,nan,nan,nan,nan,nan,0.0,nan,nan,nan,nan,nan,nan,nan,nan,nan,nan,nan,nan,nan,nan,nan,nan,nan,nan,151.72530291276053,512.6866135676391,nan,513.0349268675782,nan,nan,nan,nan
1,228,1,1,1.0,1.0,0.4118067161180079,0.0,8,7,5,3,2,4,nan,nan,nan,nan,nan,nan,nan,nan,nan,nan,nan,nan,0.0,nan,nan,nan,nan,nan,nan,nan,nan,nan,nan,nan,nan,nan,nan,nan,nan,nan,nan,151.72530291276053,513.6950984583236,nan,514.1069051744416,nan,nan,nan,nan
1,229,0,0,0.0,1.0,0.5956529513932765,0.0,6,2,3,7,1,5,nan,nan,nan,nan,nan,nan,nan,nan,nan,nan,nan,nan,0.0,nan,nan,nan,nan,nan,nan,nan,nan,nan,nan,nan,nan,nan,nan,nan,nan,nan,nan,151.72530291276053,514.695251842495,nan,515.2909047938883,nan,nan,nan,nan
1,230,1,1,1.0,1.0,0.7071673534810543,0.0,2,8,5,6,4,3,nan,nan,nan,nan,nan,nan,nan,nan,nan,nan,nan,nan,0.0,nan,nan,nan,nan,nan,nan,nan,nan,nan,nan,nan,nan,nan,nan,nan,nan,nan,nan,151.72530291276053,515.7037304611877,nan,516.4108978146687,nan,nan,nan,nan
1,231,1,1,1.0,1.0,0.6026943754404783,0.0,1,6,2,0,3,7,nan,nan,nan,nan,nan,nan,nan,nan,nan,nan,nan,nan,0.0,nan,nan,nan,nan,nan,nan,nan,nan,nan,nan,nan,nan,nan,nan,nan,nan,nan,nan,151.72530291276053,516.712188267149,nan,517.3148826425895,nan,nan,nan,nan
1,232,1,1,1.0,1.0,0.5142483497038484,0.0,2,8,7,6,5,1,nan,nan,nan,nan,nan,nan,nan,nan,nan,nan,nan,nan,0.0,nan,nan,nan,nan,nan,nan,nan,nan,nan,nan,nan,nan,nan,nan,nan,nan,nan,nan,151.72530291276053,517.7206443627365,nan,518.2348927124403,nan,nan,nan,nan
1,233,0,0,0.0,1.0,0.5780491051264107,0.0,1,3,5,8,7,0,nan,nan,nan,nan,nan,nan,nan,nan,nan,nan,nan,nan,0.0,nan,nan,nan,nan,nan,nan,nan,nan,nan,nan,nan,nan,nan,nan,nan,nan,nan,nan,151.72530291276053,518.7208276824094,nan,519.2988767875358,nan,nan,nan,nan
1,234,1,1,1.0,1.0,0.5055747223086655,0.0,3,6,4,2,0,7,nan,nan,nan,nan,nan,nan,nan,nan,nan,nan,nan,nan,0.0,nan,nan,nan,nan,nan,nan,nan,nan,nan,nan,nan,nan,nan,nan,nan,nan,nan,nan,151.72530291276053,519.7292986032553,nan,520.234873325564,nan,nan,nan,nan
1,235,1,1,1.0,1.0,0.43308437382802367,0.0,7,2,1,0,3,6,nan,nan,nan,nan,nan,nan,nan,nan,nan,nan,nan,nan,0.0,nan,nan,nan,nan,nan,nan,nan,nan,nan,nan,nan,nan,nan,nan,nan,nan,nan,nan,151.72530291276053,520.7377692386508,nan,521.1708536124788,nan,nan,nan,nan
1,236,1,1,1.0,1.0,0.46459402050822973,0.0,2,3,7,5,8,0,nan,nan,nan,nan,nan,nan,nan,nan,nan,nan,nan,nan,0.0,nan,nan,nan,nan,nan,nan,nan,nan,nan,nan,nan,nan,nan,nan,nan,nan,nan,nan,151.72530291276053,521.746257265564,nan,522.2108512860723,nan,nan,nan,nan
1,237,1,1,1.0,1.0,0.39213360752910376,0.0,1,6,0,3,2,8,nan,nan,nan,nan,nan,nan,nan,nan,nan,nan,nan,nan,0.0,nan,nan,nan,nan,nan,nan,nan,nan,nan,nan,nan,nan,nan,nan,nan,nan,nan,nan,151.72530291276053,522.7547147865407,nan,523.1468483940698,nan,nan,nan,nan
1,238,1,1,1.0,1.0,0.4156122445128858,0.0,0,8,3,6,4,2,nan,nan,nan,nan,nan,nan,nan,nan,nan,nan,nan,nan,0.0,nan,nan,nan,nan,nan,nan,nan,nan,nan,nan,nan,nan,nan,nan,nan,nan,nan,nan,151.72530291276053,523.7632341743447,nan,524.1788464188576,nan,nan,nan,nan
1,239,1,1,1.0,1.0,0.40713391080498695,0.0,7,6,8,4,5,0,nan,nan,nan,nan,nan,nan,nan,nan,nan,nan,nan,nan,0.0,nan,nan,nan,nan,nan,nan,nan,nan,nan,nan,nan,nan,nan,nan,nan,nan,nan,nan,151.72530291276053,524.7717279032804,nan,525.1788618140854,nan,nan,nan,nan
1,240,1,1,1.0,1.0,0.41467141127213836,0.0,3,2,0,7,4,1,nan,nan,nan,nan,nan,nan,nan,nan,nan,nan,nan,nan,0.0,nan,nan,nan,nan,nan,nan,nan,nan,nan,nan,nan,nan,nan,nan,nan,nan,nan,nan,151.72530291276053,525.7801720243879,nan,526.19484343566,nan,nan,nan,nan
1,241,1,1,1.0,1.0,0.3821881446056068,0.0,1,0,7,5,2,3,nan,nan,nan,nan,nan,nan,nan,nan,nan,nan,nan,nan,0.0,nan,nan,nan,nan,nan,nan,nan,nan,nan,nan,nan,nan,nan,nan,nan,nan,nan,nan,151.72530291276053,526.7886244133115,nan,527.1708125579171,nan,nan,nan,nan
1,242,1,1,1.0,1.0,0.32602524431422353,0.0,0,7,2,8,4,5,nan,nan,nan,nan,nan,nan,nan,nan,nan,nan,nan,nan,0.0,nan,nan,nan,nan,nan,nan,nan,nan,nan,nan,nan,nan,nan,nan,nan,nan,nan,nan,151.72530291276053,527.7888017464429,nan,528.1148269907571,nan,nan,nan,nan
1,243,1,1,1.0,1.0,0.30954013485461473,0.0,5,0,1,3,7,8,nan,nan,nan,nan,nan,nan,nan,nan,nan,nan,nan,nan,0.0,nan,nan,nan,nan,nan,nan,nan,nan,nan,nan,nan,nan,nan,nan,nan,nan,nan,nan,151.72530291276053,528.7972772284411,nan,529.1068173632957,nan,nan,nan,nan
1,244,1,1,1.0,1.0,0.29337091743946075,0.0,3,1,6,7,2,5,nan,nan,nan,nan,nan,nan,nan,nan,nan,nan,nan,nan,0.0,nan,nan,nan,nan,nan,nan,nan,nan,nan,nan,nan,nan,nan,nan,nan,nan,nan,nan,151.72530291276053,529.7974300426431,nan,530.0908009600826,nan,nan,nan,nan
1,245,1,1,1.0,1.0,0.26890640100464225,0.0,6,0,3,5,4,2,nan,nan,nan,nan,nan,nan,nan,nan,nan,nan,nan,nan,0.0,nan,nan,nan,nan,nan,nan,nan,nan,nan,nan,nan,nan,nan,nan,nan,nan,nan,nan,151.72530291276053,530.805891269818,nan,531.0747976708226,nan,nan,nan,nan
1,246,1,1,1.0,1.0,0.18040848709642887,0.0,1,2,4,6,0,3,nan,nan,nan,nan,nan,nan,nan,nan,nan,nan,nan,nan,0.0,nan,nan,nan,nan,nan,nan,nan,nan,nan,nan,nan,nan,nan,nan,nan,nan,nan,nan,151.72530291276053,531.814375590533,nan,531.9947840776294,nan,nan,nan,nan
1,247,1,1,1.0,1.0,0.1799278063699603,0.0,4,0,8,2,5,1,nan,nan,nan,nan,nan,nan,nan,nan,nan,nan,nan,nan,0.0,nan,nan,nan,nan,nan,nan,nan,nan,nan,nan,nan,nan,nan,nan,nan,nan,nan,nan,151.72530291276053,532.8228513579816,nan,533.0027791643515,nan,nan,nan,nan
1,248,1,1,1.0,1.0,0.21940745180472732,0.0,3,4,7,8,0,5,nan,nan,nan,nan,nan,nan,nan,nan,nan,nan,nan,nan,0.0,nan,nan,nan,nan,nan,nan,nan,nan,nan,nan,nan,nan,nan,nan,nan,nan,nan,nan,151.72530291276053,533.831381009426,nan,534.0507884612307,nan,nan,nan,nan
1,249,1,1,1.0,1.0,0.21895642159506679,0.0,5,1,4,2,6,0,nan,nan,nan,nan,nan,nan,nan,nan,nan,nan,nan,nan,0.0,nan,nan,nan,nan,nan,nan,nan,nan,nan,nan,nan,nan,nan,nan,nan,nan,nan,nan,151.72530291276053,534.8398131565191,nan,535.0587695781142,nan,nan,nan,nan
1,250,1,1,1.0,1.0,0.36245801532641053,0.0,1,3,0,6,2,7,nan,nan,nan,nan,nan,nan,nan,nan,nan,nan,nan,nan,0.0,nan,nan,nan,nan,nan,nan,nan,nan,nan,nan,nan,nan,nan,nan,nan,nan,nan,nan,151.72530291276053,535.8482989021577,nan,536.2107569174841,nan,nan,nan,nan
1,251,0,0,1.0,0.0,0.2659960901364684,1.0,5,2,8,3,4,6,1.0,1.0,1.0,1.0,1.0,1.0,0.0,1.0,1.0,0.0,0.0,0.0,2.0,1.0,2.0,8.0,1.0,1.0,1.0,6.0,2.0,1.0,3.0,4.0,5.0,6.761924135033041,2.8509178394451737,1.6112456945702434,4.249412335455418,5.225406546611339,5.954575713723898,151.72530291276053,536.8567621251568,537.6652141720988,537.1227582152933,545.49132052809,546.4905590233393,538.6903589395806,545.482987311203
1,252,1,1,1.0,1.0,0.5828422228805721,0.0,8,5,6,2,0,1,nan,nan,nan,nan,nan,nan,nan,nan,nan,nan,nan,nan,0.0,nan,nan,nan,nan,nan,nan,nan,nan,nan,nan,nan,nan,nan,nan,nan,nan,nan,nan,151.72530291276053,546.6998590747826,nan,547.2827012976632,nan,nan,nan,nan
1,253,1,1,1.0,1.0,0.42233578115701675,0.0,3,4,1,0,6,8,nan,nan,nan,nan,nan,nan,nan,nan,nan,nan,nan,nan,0.0,nan,nan,nan,nan,nan,nan,nan,nan,nan,nan,nan,nan,nan,nan,nan,nan,nan,nan,151.72530291276053,547.7083419696428,nan,548.1306777507998,nan,nan,nan,nan
1,254,1,1,1.0,1.0,0.3498696661554277,0.0,1,5,3,8,0,6,nan,nan,nan,nan,nan,nan,nan,nan,nan,nan,nan,nan,0.0,nan,nan,nan,nan,nan,nan,nan,nan,nan,nan,nan,nan,nan,nan,nan,nan,nan,nan,151.72530291276053,548.7167986351997,nan,549.0666683013551,nan,nan,nan,nan
1,255,1,1,1.0,1.0,0.3093836149200797,0.0,8,7,6,2,5,1,nan,nan,nan,nan,nan,nan,nan,nan,nan,nan,nan,nan,0.0,nan,nan,nan,nan,nan,nan,nan,nan,nan,nan,nan,nan,nan,nan,nan,nan,nan,nan,151.72530291276053,549.7252977807075,nan,550.0346813956276,nan,nan,nan,nan
1,256,0,0,0.0,1.0,0.5648971116170287,0.0,0,1,7,6,8,3,nan,nan,nan,nan,nan,nan,nan,nan,nan,nan,nan,nan,0.0,nan,nan,nan,nan,nan,nan,nan,nan,nan,nan,nan,nan,nan,nan,nan,nan,nan,nan,151.72530291276053,550.7337667057291,nan,551.2986638173461,nan,nan,nan,nan
1,257,1,1,1.0,1.0,0.4767270633019507,0.0,4,5,0,1,2,8,nan,nan,nan,nan,nan,nan,nan,nan,nan,nan,nan,nan,0.0,nan,nan,nan,nan,nan,nan,nan,nan,nan,nan,nan,nan,nan,nan,nan,nan,nan,nan,151.72530291276053,551.7339272177778,nan,552.2106542810798,nan,nan,nan,nan
1,258,1,1,1.0,1.0,0.34825342847034335,0.0,1,7,8,0,6,4,nan,nan,nan,nan,nan,nan,nan,nan,nan,nan,nan,nan,0.0,nan,nan,nan,nan,nan,nan,nan,nan,nan,nan,nan,nan,nan,nan,nan,nan,nan,nan,151.72530291276053,552.7423918661661,nan,553.0906452946365,nan,nan,nan,nan
1,259,1,1,1.0,1.0,0.3157918294891715,0.0,7,5,2,6,3,0,nan,nan,nan,nan,nan,nan,nan,nan,nan,nan,nan,nan,0.0,nan,nan,nan,nan,nan,nan,nan,nan,nan,nan,nan,nan,nan,nan,nan,nan,nan,nan,151.72530291276053,553.7508476767689,nan,554.0666395062581,nan,nan,nan,nan
1,260,1,1,1.0,1.0,0.35526605788618326,0.0,4,2,8,1,6,7,nan,nan,nan,nan,nan,nan,nan,nan,nan,nan,nan,nan,0.0,nan,nan,nan,nan,nan,nan,nan,nan,nan,nan,nan,nan,nan,nan,nan,nan,nan,nan,151.72530291276053,554.7593687749468,nan,555.114634832833,nan,nan,nan,nan
1,261,1,1,1.0,1.0,0.331104033626616,0.0,7,4,6,5,8,0,nan,nan,nan,nan,nan,nan,nan,nan,nan,nan,nan,nan,0.0,nan,nan,nan,nan,nan,nan,nan,nan,nan,nan,nan,nan,nan,nan,nan,nan,nan,nan,151.72530291276053,555.759523014538,nan,556.0906270481646,nan,nan,nan,nan
1,262,1,1,1.0,1.0,0.33863868238404393,0.0,4,3,5,2,1,7,nan,nan,nan,nan,nan,nan,nan,nan,nan,nan,nan,nan,0.0,nan,nan,nan,nan,nan,nan,nan,nan,nan,nan,nan,nan,nan,nan,nan,nan,nan,nan,151.72530291276053,556.7679751189426,nan,557.1066138013266,nan,nan,nan,nan
1,263,1,1,1.0,1.0,0.2741881818510592,0.0,1,6,8,7,2,0,nan,nan,nan,nan,nan,nan,nan,nan,nan,nan,nan,nan,0.0,nan,nan,nan,nan,nan,nan,nan,nan,nan,nan,nan,nan,nan,nan,nan,nan,nan,nan,151.72530291276053,557.7764468947425,nan,558.0506350765936,nan,nan,nan,nan
1,264,1,1,1.0,1.0,0.28967287251725793,0.0,8,4,0,1,6,3,nan,nan,nan,nan,nan,nan,nan,nan,nan,nan,nan,nan,0.0,nan,nan,nan,nan,nan,nan,nan,nan,nan,nan,nan,nan,nan,nan,nan,nan,nan,nan,151.72530291276053,558.7849334958009,nan,559.0746063683182,nan,nan,nan,nan
1,265,0,0,0.0,1.0,0.4891951000317931,1.0,1,6,8,7,5,4,1.0,1.0,1.0,1.0,1.0,1.0,1.0,1.0,1.0,1.0,1.0,0.0,5.0,1.0,6.0,8.0,7.0,5.0,1.0,6.0,3.0,2.0,1.0,4.0,5.0,5.761048019863665,2.7371970410458744,2.0261195274069905,1.0278965616598725,3.6824690541252494,4.8660279074683785,151.72530291276053,559.793413254898,560.6018493361771,560.2826083549298,567.4194896179251,568.4240361233242,561.618642069865,567.4111586818472
1,266,1,1,1.0,1.0,0.39853897178545594,0.0,2,1,0,5,3,7,nan,nan,nan,nan,nan,nan,nan,nan,nan,nan,nan,nan,0.0,nan,nan,nan,nan,nan,nan,nan,nan,nan,nan,nan,nan,nan,nan,nan,nan,nan,nan,151.72530291276053,568.6280284496024,nan,569.0265674213879,nan,nan,nan,nan
1,267,1,1,1.0,1.0,0.3580021718516946,0.0,8,2,4,6,1,5,nan,nan,nan,nan,nan,nan,nan,nan,nan,nan,nan,nan,0.0,nan,nan,nan,nan,nan,nan,nan,nan,nan,nan,nan,nan,nan,nan,nan,nan,nan,nan,151.72530291276053,569.636542705819,nan,569.9945448776707,nan,nan,nan,nan
1,268,1,1,1.0,1.0,0.30154447769746184,0.0,0,3,8,1,2,7,nan,nan,nan,nan,nan,nan,nan,nan,nan,nan,nan,nan,0.0,nan,nan,nan,nan,nan,nan,nan,nan,nan,nan,nan,nan,nan,nan,nan,nan,nan,nan,151.72530291276053,570.6449962351471,nan,570.9465407128446,nan,nan,nan,nan
1,269,1,1,1.0,1.0,0.26105728559195995,0.0,8,2,1,7,0,4,nan,nan,nan,nan,nan,nan,nan,nan,nan,nan,nan,nan,0.0,nan,nan,nan,nan,nan,nan,nan,nan,nan,nan,nan,nan,nan,nan,nan,nan,nan,nan,151.72530291276053,571.6534697217867,nan,571.9145270073786,nan,nan,nan,nan
1,270,1,1,1.0,1.0,0.29256721725687385,0.0,4,5,6,3,8,0,nan,nan,nan,nan,nan,nan,nan,nan,nan,nan,nan,nan,0.0,nan,nan,nan,nan,nan,nan,nan,nan,nan,nan,nan,nan,nan,nan,nan,nan,nan,nan,151.72530291276053,572.6619563233107,nan,572.9545235405676,nan,nan,nan,nan
1,271,1,1,1.0,1.0,0.30007706256583333,0.0,8,2,1,6,5,7,nan,nan,nan,nan,nan,nan,nan,nan,nan,nan,nan,nan,0.0,nan,nan,nan,nan,nan,nan,nan,nan,nan,nan,nan,nan,nan,nan,nan,nan,nan,nan,151.72530291276053,573.670432375744,nan,573.9705094383098,nan,nan,nan,nan
1,272,1,1,1.0,1.0,0.3316237726248801,0.0,0,4,5,1,3,2,nan,nan,nan,nan,nan,nan,nan,nan,nan,nan,nan,nan,0.0,nan,nan,nan,nan,nan,nan,nan,nan,nan,nan,nan,nan,nan,nan,nan,nan,nan,nan,151.72530291276053,574.6788921775296,nan,575.0105159501545,nan,nan,nan,nan
1,273,0,0,0.0,1.0,0.5151176229119301,0.0,3,6,2,0,4,7,nan,nan,nan,nan,nan,nan,nan,nan,nan,nan,nan,nan,0.0,nan,nan,nan,nan,nan,nan,nan,nan,nan,nan,nan,nan,nan,nan,nan,nan,nan,nan,151.72530291276053,575.6873844806105,nan,576.2025021035224,nan,nan,nan,nan
1,274,1,1,1.0,1.0,0.5386241995729506,0.0,1,7,3,5,2,8,nan,nan,nan,nan,nan,nan,nan,nan,nan,nan,nan,nan,0.0,nan,nan,nan,nan,nan,nan,nan,nan,nan,nan,nan,nan,nan,nan,nan,nan,nan,nan,151.72530291276053,576.695867090486,nan,577.2344912900589,nan,nan,nan,nan
1,275,1,1,1.0,1.0,0.3861470567062497,0.0,7,8,4,2,6,1,nan,nan,nan,nan,nan,nan,nan,nan,nan,nan,nan,nan,0.0,nan,nan,nan,nan,nan,nan,nan,nan,nan,nan,nan,nan,nan,nan,nan,nan,nan,nan,151.72530291276053,577.7043380113319,nan,578.0904850680381,nan,nan,nan,nan
1,276,1,1,1.0,1.0,0.31365357199683785,0.0,8,2,7,4,0,3,nan,nan,nan,nan,nan,nan,nan,nan,nan,nan,nan,nan,0.0,nan,nan,nan,nan,nan,nan,nan,nan,nan,nan,nan,nan,nan,nan,nan,nan,nan,nan,151.72530291276053,578.7128229020163,nan,579.0264764740132,nan,nan,nan,nan
1,277,1,1,1.0,1.0,0.32915536873042583,0.0,2,6,4,0,1,5,nan,nan,nan,nan,nan,nan,nan,nan,nan,nan,nan,nan,0.0,nan,nan,nan,nan,nan,nan,nan,nan,nan,nan,nan,nan,nan,nan,nan,nan,nan,nan,151.72530291276053,579.721306366846,nan,580.0504617355764,nan,nan,nan,nan
1,278,1,1,1.0,1.0,0.3046731762588024,0.0,4,8,0,3,2,6,nan,nan,nan,nan,nan,nan,nan,nan,nan,nan,nan,nan,0.0,nan,nan,nan,nan,nan,nan,nan,nan,nan,nan,nan,nan,nan,nan,nan,nan,nan,nan,151.72530291276053,580.7297969595529,nan,581.0344701358117,nan,nan,nan,nan
1,279,1,1,1.0,1.0,0.3041947763413191,0.0,3,1,6,8,7,4,nan,nan,nan,nan,nan,nan,nan,nan,nan,nan,nan,nan,0.0,nan,nan,nan,nan,nan,nan,nan,nan,nan,nan,nan,nan,nan,nan,nan,nan,nan,nan,151.72530291276053,581.738260182552,nan,582.0424549588934,nan,nan,nan,nan
1,280,1,1,1.0,1.0,0.31170718744397163,0.0,0,6,7,4,5,2,nan,nan,nan,nan,nan,nan,nan,nan,nan,nan,nan,nan,0.0,nan,nan,nan,nan,nan,nan,nan,nan,nan,nan,nan,nan,nan,nan,nan,nan,nan,nan,151.72530291276053,582.7467379458249,nan,583.0584451332688,nan,nan,nan,nan
1,281,1,1,1.0,1.0,0.3912150119431317,0.0,7,4,8,2,1,6,nan,nan,nan,nan,nan,nan,nan,nan,nan,nan,nan,nan,0.0,nan,nan,nan,nan,nan,nan,nan,nan,nan,nan,nan,nan,nan,nan,nan,nan,nan,nan,151.72530291276053,583.7552174194716,nan,584.1464324314147,nan,nan,nan,nan
1,282,1,1,1.0,1.0,0.4147292864508927,0.0,2,8,5,0,7,1,nan,nan,nan,nan,nan,nan,nan,nan,nan,nan,nan,nan,0.0,nan,nan,nan,nan,nan,nan,nan,nan,nan,nan,nan,nan,nan,nan,nan,nan,nan,nan,151.72530291276053,584.7637111484073,nan,585.1784404348582,nan,nan,nan,nan
1,283,1,1,1.0,1.0,0.42224597465246916,0.0,8,6,1,7,0,4,nan,nan,nan,nan,nan,nan,nan,nan,nan,nan,nan,nan,0.0,nan,nan,nan,nan,nan,nan,nan,nan,nan,nan,nan,nan,nan,nan,nan,nan,nan,nan,151.72530291276053,585.772183209192,nan,586.1944291838445,nan,nan,nan,nan
1,284,0,0,0.0,1.0,0.47776654129847884,0.0,0,1,2,6,3,8,nan,nan,nan,nan,nan,nan,nan,nan,nan,nan,nan,nan,0.0,nan,nan,nan,nan,nan,nan,nan,nan,nan,nan,nan,nan,nan,nan,nan,nan,nan,nan,151.72530291276053,586.780652419664,nan,587.2584189609624,nan,nan,nan,nan
1,285,1,1,1.0,1.0,0.5092759034596384,0.0,8,2,4,3,0,6,nan,nan,nan,nan,nan,nan,nan,nan,nan,nan,nan,nan,0.0,nan,nan,nan,nan,nan,nan,nan,nan,nan,nan,nan,nan,nan,nan,nan,nan,nan,nan,151.72530291276053,587.7891355995089,nan,588.2984115029685,nan,nan,nan,nan
1,286,1,1,1.0,1.0,0.5087855295278132,0.0,4,8,2,1,6,5,nan,nan,nan,nan,nan,nan,nan,nan,nan,nan,nan,nan,0.0,nan,nan,nan,nan,nan,nan,nan,nan,nan,nan,nan,nan,nan,nan,nan,nan,nan,nan,151.72530291276053,588.7976170689799,nan,589.3064025985077,nan,nan,nan,nan
1,287,1,1,1.0,1.0,0.4283095020800829,0.0,6,0,5,4,1,3,nan,nan,nan,nan,nan,nan,nan,nan,nan,nan,nan,nan,0.0,nan,nan,nan,nan,nan,nan,nan,nan,nan,nan,nan,nan,nan,nan,nan,nan,nan,nan,151.72530291276053,589.8060965426266,nan,590.2344060447067,nan,nan,nan,nan
1,288,1,1,1.0,1.0,0.3558265664614737,0.0,0,2,1,5,3,4,nan,nan,nan,nan,nan,nan,nan,nan,nan,nan,nan,nan,0.0,nan,nan,nan,nan,nan,nan,nan,nan,nan,nan,nan,nan,nan,nan,nan,nan,nan,nan,151.72530291276053,590.8145668930374,nan,591.1703934594989,nan,nan,nan,nan
1,289,1,1,1.0,1.0,0.33934858441352844,0.0,2,3,5,7,4,8,nan,nan,nan,nan,nan,nan,nan,nan,nan,nan,nan,nan,0.0,nan,nan,nan,nan,nan,nan,nan,nan,nan,nan,nan,nan,nan,nan,nan,nan,nan,nan,151.72530291276053,591.8230506433174,nan,592.1623992277309,nan,nan,nan,nan
1,290,1,1,1.0,1.0,0.3468387573957443,0.0,1,2,7,4,8,5,nan,nan,nan,nan,nan,nan,nan,nan,nan,nan,nan,nan,0.0,nan,nan,nan,nan,nan,nan,nan,nan,nan,nan,nan,nan,nan,nan,nan,nan,nan,nan,151.72530291276053,592.8315500742756,nan,593.1783888316713,nan,nan,nan,nan
1,291,1,1,1.0,1.0,0.3623719150200486,0.0,5,7,3,1,2,4,nan,nan,nan,nan,nan,nan,nan,nan,nan,nan,nan,nan,0.0,nan,nan,nan,nan,nan,nan,nan,nan,nan,nan,nan,nan,nan,nan,nan,nan,nan,nan,151.72530291276053,593.8400058844127,nan,594.2023777994327,nan,nan,nan,nan
1,292,1,1,1.0,1.0,0.3938995227217674,0.0,0,5,2,7,6,1,nan,nan,nan,nan,nan,nan,nan,nan,nan,nan,nan,nan,0.0,nan,nan,nan,nan,nan,nan,nan,nan,nan,nan,nan,nan,nan,nan,nan,nan,nan,nan,151.72530291276053,594.8484671120532,nan,595.242366634775,nan,nan,nan,nan
1,293,1,1,1.0,1.0,0.329430490732193,0.0,3,7,0,8,5,6,nan,nan,nan,nan,nan,nan,nan,nan,nan,nan,nan,nan,0.0,nan,nan,nan,nan,nan,nan,nan,nan,nan,nan,nan,nan,nan,nan,nan,nan,nan,nan,151.72530291276053,595.8569380324334,nan,596.1863685231656,nan,nan,nan,nan
1,294,1,1,1.0,1.0,0.31292913062497973,0.0,4,3,6,7,8,2,nan,nan,nan,nan,nan,nan,nan,nan,nan,nan,nan,nan,0.0,nan,nan,nan,nan,nan,nan,nan,nan,nan,nan,nan,nan,nan,nan,nan,nan,nan,nan,151.72530291276053,596.86544031417,nan,597.178369444795,nan,nan,nan,nan
1,295,0,0,0.0,1.0,0.46444348711520433,1.0,7,0,3,6,1,5,1.0,1.0,1.0,1.0,1.0,1.0,0.0,1.0,1.0,1.0,1.0,0.0,4.0,4.0,0.0,3.0,6.0,1.0,4.0,6.0,3.0,2.0,1.0,4.0,5.0,6.16847415920347,3.2020650431513786,2.2565424260683358,1.1693063690327108,4.136674849782139,5.432395569514483,151.72530291276053,597.8738989755511,598.6823570099659,598.3383424626663,605.9083870723844,606.9090105886571,599.6991773983464,605.9000612683594
1,296,1,1,1.0,1.0,0.413370780646801,0.0,4,1,0,2,3,6,nan,nan,nan,nan,nan,nan,nan,nan,nan,nan,nan,nan,0.0,nan,nan,nan,nan,nan,nan,nan,nan,nan,nan,nan,nan,nan,nan,nan,nan,nan,nan,151.72530291276053,607.1169347423129,nan,607.5303055229597,nan,nan,nan,nan
1,297,1,1,1.0,1.0,0.332873085513711,0.0,8,7,5,3,6,1,nan,nan,nan,nan,nan,nan,nan,nan,nan,nan,nan,nan,0.0,nan,nan,nan,nan,nan,nan,nan,nan,nan,nan,nan,nan,nan,nan,nan,nan,nan,nan,151.72530291276053,608.1254130755551,nan,608.4582861610688,nan,nan,nan,nan
1,298,0,0,1.0,0.0,0.2924007186666131,1.0,3,5,6,4,8,7,1.0,1.0,1.0,1.0,1.0,1.0,1.0,1.0,1.0,1.0,0.0,0.0,4.0,3.0,5.0,6.0,4.0,3.0,3.0,6.0,3.0,2.0,1.0,4.0,5.0,6.492544466629624,3.79798912582919,2.7337838117964566,1.2307430673390627,4.908632544334978,5.596568980719894,151.72530291276053,609.1338851368055,609.9423183673061,609.4262858554721,617.493399199564,618.4997749128379,610.9591287770309,617.4850357617252
1,299,1,1,1.0,1.0,0.4602935570292175,0.0,8,7,0,1,3,2,nan,nan,nan,nan,nan,nan,nan,nan,nan,nan,nan,nan,0.0,nan,nan,nan,nan,nan,nan,nan,nan,nan,nan,nan,nan,nan,nan,nan,nan,nan,nan,151.72530291276053,618.7019363204017,nan,619.162229877431,nan,nan,nan,nan
1,300,1,1,1.0,1.0,0.3478035391308367,0.0,6,8,2,3,1,0,nan,nan,nan,nan,nan,nan,nan,nan,nan,nan,nan,nan,0.0,nan,nan,nan,nan,nan,nan,nan,nan,nan,nan,nan,nan,nan,nan,nan,nan,nan,nan,151.72530291276053,619.7104089516215,nan,620.0582124907523,nan,nan,nan,nan
1,301,1,1,1.0,1.0,0.37128474190831184,0.0,1,2,0,6,5,4,nan,nan,nan,nan,nan,nan,nan,nan,nan,nan,nan,nan,0.0,nan,nan,nan,nan,nan,nan,nan,nan,nan,nan,nan,nan,nan,nan,nan,nan,nan,nan,151.72530291276053,620.7189180762507,nan,621.090202818159,nan,nan,nan,nan
1,302,1,1,1.0,1.0,0.3388202921487391,0.0,3,4,5,8,7,6,nan,nan,nan,nan,nan,nan,nan,nan,nan,nan,nan,nan,0.0,nan,nan,nan,nan,nan,nan,nan,nan,nan,nan,nan,nan,nan,nan,nan,nan,nan,nan,151.72530291276053,621.7273704651743,nan,622.066190757323,nan,nan,nan,nan
1,303,1,1,1.0,1.0,0.3223223527893424,0.0,5,8,0,2,6,1,nan,nan,nan,nan,nan,nan,nan,nan,nan,nan,nan,nan,0.0,nan,nan,nan,nan,nan,nan,nan,nan,nan,nan,nan,nan,nan,nan,nan,nan,nan,nan,151.72530291276053,622.7358679003082,nan,623.0581902530976,nan,nan,nan,nan
1,304,1,1,1.0,1.0,0.3458437551744282,0.0,7,6,3,8,4,0,nan,nan,nan,nan,nan,nan,nan,nan,nan,nan,nan,nan,0.0,nan,nan,nan,nan,nan,nan,nan,nan,nan,nan,nan,nan,nan,nan,nan,nan,nan,nan,151.72530291276053,623.7443339740857,nan,624.0901777292602,nan,nan,nan,nan
1,305,1,1,1.0,1.0,0.3217008328065276,0.0,3,8,7,5,1,6,nan,nan,nan,nan,nan,nan,nan,nan,nan,nan,nan,nan,0.0,nan,nan,nan,nan,nan,nan,nan,nan,nan,nan,nan,nan,nan,nan,nan,nan,nan,nan,151.72530291276053,624.7444731034338,nan,625.0661739362404,nan,nan,nan,nan
1,306,1,1,1.0,1.0,0.31321622710675,0.0,4,7,2,1,3,8,nan,nan,nan,nan,nan,nan,nan,nan,nan,nan,nan,nan,0.0,nan,nan,nan,nan,nan,nan,nan,nan,nan,nan,nan,nan,nan,nan,nan,nan,nan,nan,151.72530291276053,625.7529551433399,nan,626.0661713704467,nan,nan,nan,nan
1,307,1,1,1.0,1.0,0.3367764032445848,0.0,7,4,0,3,2,6,nan,nan,nan,nan,nan,nan,nan,nan,nan,nan,nan,nan,0.0,nan,nan,nan,nan,nan,nan,nan,nan,nan,nan,nan,nan,nan,nan,nan,nan,nan,nan,151.72530291276053,626.7614286295138,nan,627.0982050327584,nan,nan,nan,nan
1,308,1,1,1.0,1.0,0.3522322978824377,0.0,3,8,2,6,4,1,nan,nan,nan,nan,nan,nan,nan,nan,nan,nan,nan,nan,0.0,nan,nan,nan,nan,nan,nan,nan,nan,nan,nan,nan,nan,nan,nan,nan,nan,nan,nan,151.72530291276053,627.7699109544046,nan,628.1221432522871,nan,nan,nan,nan
1,309,1,1,1.0,1.0,0.31174624618142843,0.0,8,6,4,0,2,7,nan,nan,nan,nan,nan,nan,nan,nan,nan,nan,nan,nan,0.0,nan,nan,nan,nan,nan,nan,nan,nan,nan,nan,nan,nan,nan,nan,nan,nan,nan,nan,151.72530291276053,628.7783955601044,nan,629.0901418062858,nan,nan,nan,nan
1,310,1,1,1.0,1.0,0.36726852459833026,0.0,6,0,5,8,1,4,nan,nan,nan,nan,nan,nan,nan,nan,nan,nan,nan,nan,0.0,nan,nan,nan,nan,nan,nan,nan,nan,nan,nan,nan,nan,nan,nan,nan,nan,nan,nan,151.72530291276053,629.7868681913242,nan,630.1541367159225,nan,nan,nan,nan
1,311,1,1,1.0,1.0,0.4707832778804004,0.0,3,1,7,4,6,0,nan,nan,nan,nan,nan,nan,nan,nan,nan,nan,nan,nan,0.0,nan,nan,nan,nan,nan,nan,nan,nan,nan,nan,nan,nan,nan,nan,nan,nan,nan,nan,151.72530291276053,630.7953530820087,nan,631.2661363598891,nan,nan,nan,nan
1,312,0,0,0.0,1.0,0.6302975681610405,0.0,2,6,4,0,5,7,nan,nan,nan,nan,nan,nan,nan,nan,nan,nan,nan,nan,0.0,nan,nan,nan,nan,nan,nan,nan,nan,nan,nan,nan,nan,nan,nan,nan,nan,nan,nan,151.72530291276053,631.8038331260905,nan,632.4341306942515,nan,nan,nan,nan
1,313,1,1,1.0,1.0,0.6141408951953053,0.0,6,4,7,3,0,5,nan,nan,nan,nan,nan,nan,nan,nan,nan,nan,nan,nan,0.0,nan,nan,nan,nan,nan,nan,nan,nan,nan,nan,nan,nan,nan,nan,nan,nan,nan,nan,151.72530291276053,632.8039836590178,nan,633.4181245542131,nan,nan,nan,nan
1,314,1,1,1.0,1.0,0.4056699173524976,0.0,5,1,0,2,8,4,nan,nan,nan,nan,nan,nan,nan,nan,nan,nan,nan,nan,0.0,nan,nan,nan,nan,nan,nan,nan,nan,nan,nan,nan,nan,nan,nan,nan,nan,nan,nan,151.72530291276053,633.812445171643,nan,634.2181150889955,nan,nan,nan,nan
1,315,1,1,1.0,1.0,0.325480701867491,0.0,3,2,7,1,0,6,nan,nan,nan,nan,nan,nan,nan,nan,nan,nan,nan,nan,0.0,nan,nan,nan,nan,nan,nan,nan,nan,nan,nan,nan,nan,nan,nan,nan,nan,nan,nan,151.72530291276053,634.8126159468666,nan,635.1380966487341,nan,nan,nan,nan
1,316,1,1,1.0,1.0,0.3170263166539371,0.0,8,1,4,2,6,0,nan,nan,nan,nan,nan,nan,nan,nan,nan,nan,nan,nan,0.0,nan,nan,nan,nan,nan,nan,nan,nan,nan,nan,nan,nan,nan,nan,nan,nan,nan,nan,151.72530291276053,635.8210706170648,nan,636.1380969337188,nan,nan,nan,nan
1,317,1,1,1.0,1.0,0.30086707742884755,0.0,2,7,8,1,0,5,nan,nan,nan,nan,nan,nan,nan,nan,nan,nan,nan,nan,0.0,nan,nan,nan,nan,nan,nan,nan,nan,nan,nan,nan,nan,nan,nan,nan,nan,nan,nan,151.72530291276053,636.8212282778695,nan,637.1220953552984,nan,nan,nan,nan
1,318,0,0,0.0,1.0,0.44438948342576623,0.0,1,0,7,6,2,3,nan,nan,nan,nan,nan,nan,nan,nan,nan,nan,nan,nan,0.0,nan,nan,nan,nan,nan,nan,nan,nan,nan,nan,nan,nan,nan,nan,nan,nan,nan,nan,151.72530291276053,637.8296920708381,nan,638.2740815542638,nan,nan,nan,nan
1,319,1,1,1.0,1.0,0.5719046085141599,0.0,6,1,8,3,4,2,nan,nan,nan,nan,nan,nan,nan,nan,nan,nan,nan,nan,0.0,nan,nan,nan,nan,nan,nan,nan,nan,nan,nan,nan,nan,nan,nan,nan,nan,nan,nan,151.72530291276053,638.8381706895307,nan,639.4100752980448,nan,nan,nan,nan
1,320,0,0,0.0,1.0,0.6434059422463179,0.0,7,2,5,6,0,4,nan,nan,nan,nan,nan,nan,nan,nan,nan,nan,nan,nan,0.0,nan,nan,nan,nan,nan,nan,nan,nan,nan,nan,nan,nan,nan,nan,nan,nan,nan,nan,151.72530291276053,639.846661852207,nan,640.4900677944534,nan,nan,nan,nan
1,321,1,1,1.0,1.0,0.5069272415712476,0.0,6,7,0,2,8,5,nan,nan,nan,nan,nan,nan,nan,nan,nan,nan,nan,nan,0.0,nan,nan,nan,nan,nan,nan,nan,nan,nan,nan,nan,nan,nan,nan,nan,nan,nan,nan,151.72530291276053,640.8551384750754,nan,641.3620657166466,nan,nan,nan,nan
1,322,1,1,1.0,1.0,0.38647207198664546,0.0,7,4,8,5,2,0,nan,nan,nan,nan,nan,nan,nan,nan,nan,nan,nan,nan,0.0,nan,nan,nan,nan,nan,nan,nan,nan,nan,nan,nan,nan,nan,nan,nan,nan,nan,nan,151.72530291276053,641.8635897235945,nan,642.2500617955811,nan,nan,nan,nan
1,323,1,1,1.0,1.0,0.3299576425924897,0.0,3,0,5,2,8,7,nan,nan,nan,nan,nan,nan,nan,nan,nan,nan,nan,nan,0.0,nan,nan,nan,nan,nan,nan,nan,nan,nan,nan,nan,nan,nan,nan,nan,nan,nan,nan,151.72530291276053,642.8721005585976,nan,643.2020582011901,nan,nan,nan,nan
1,324,1,1,1.0,1.0,0.3374575092457235,0.0,5,2,7,4,6,8,nan,nan,nan,nan,nan,nan,nan,nan,nan,nan,nan,nan,0.0,nan,nan,nan,nan,nan,nan,nan,nan,nan,nan,nan,nan,nan,nan,nan,nan,nan,nan,151.72530291276053,643.8805800322443,nan,644.21803754149,nan,nan,nan,nan
1,325,1,1,1.0,1.0,0.3769898982718587,0.0,7,4,6,5,2,3,nan,nan,nan,nan,nan,nan,nan,nan,nan,nan,nan,nan,0.0,nan,nan,nan,nan,nan,nan,nan,nan,nan,nan,nan,nan,nan,nan,nan,nan,nan,nan,151.72530291276053,644.889059505891,nan,645.2660494041629,nan,nan,nan,nan
1,326,1,1,1.0,1.0,0.3604831206612289,0.0,2,6,0,7,3,4,nan,nan,nan,nan,nan,nan,nan,nan,nan,nan,nan,nan,0.0,nan,nan,nan,nan,nan,nan,nan,nan,nan,nan,nan,nan,nan,nan,nan,nan,nan,nan,151.72530291276053,645.8975800345652,nan,646.2580631552264,nan,nan,nan,nan
1,327,1,1,1.0,1.0,0.32001417502760887,0.0,6,3,7,5,8,2,nan,nan,nan,nan,nan,nan,nan,nan,nan,nan,nan,nan,0.0,nan,nan,nan,nan,nan,nan,nan,nan,nan,nan,nan,nan,nan,nan,nan,nan,nan,nan,151.72530291276053,646.9060153174214,nan,647.226029492449,nan,nan,nan,nan
1,328,1,1,1.0,1.0,0.3195141083560884,0.0,3,5,1,8,4,6,nan,nan,nan,nan,nan,nan,nan,nan,nan,nan,nan,nan,0.0,nan,nan,nan,nan,nan,nan,nan,nan,nan,nan,nan,nan,nan,nan,nan,nan,nan,nan,151.72530291276053,647.9145041992888,nan,648.2340183076449,nan,nan,nan,nan
1,329,1,1,1.0,1.0,0.270988208707422,0.0,2,3,8,4,1,5,nan,nan,nan,nan,nan,nan,nan,nan,nan,nan,nan,nan,0.0,nan,nan,nan,nan,nan,nan,nan,nan,nan,nan,nan,nan,nan,nan,nan,nan,nan,nan,151.72530291276053,648.9230252979323,nan,649.1940135066397,nan,nan,nan,nan
1,330,1,1,1.0,1.0,0.29456320963799953,0.0,3,7,6,5,0,4,nan,nan,nan,nan,nan,nan,nan,nan,nan,nan,nan,nan,0.0,nan,nan,nan,nan,nan,nan,nan,nan,nan,nan,nan,nan,nan,nan,nan,nan,nan,nan,151.72530291276053,649.9314477513544,nan,650.2260109609924,nan,nan,nan,nan
1,331,1,1,1.0,1.0,0.3900871523655951,0.0,7,1,0,2,4,6,nan,nan,nan,nan,nan,nan,nan,nan,nan,nan,nan,nan,0.0,nan,nan,nan,nan,nan,nan,nan,nan,nan,nan,nan,nan,nan,nan,nan,nan,nan,nan,151.72530291276053,650.9399195276201,nan,651.3300066799857,nan,nan,nan,nan
1,332,0,0,0.0,1.0,0.4855860066600144,0.0,2,5,3,7,1,8,nan,nan,nan,nan,nan,nan,nan,nan,nan,nan,nan,nan,0.0,nan,nan,nan,nan,nan,nan,nan,nan,nan,nan,nan,nan,nan,nan,nan,nan,nan,nan,151.72530291276053,651.948409549892,nan,652.433995556552,nan,nan,nan,nan
1,333,1,1,1.0,1.0,0.4611157882027328,0.0,0,3,7,6,8,5,nan,nan,nan,nan,nan,nan,nan,nan,nan,nan,nan,nan,0.0,nan,nan,nan,nan,nan,nan,nan,nan,nan,nan,nan,nan,nan,nan,nan,nan,nan,nan,151.72530291276053,652.956881896127,nan,653.4179976843297,nan,nan,nan,nan
1,334,0,0,0.0,1.0,0.5486226915381849,1.0,5,2,3,4,0,8,1.0,1.0,1.0,1.0,1.0,1.0,0.0,1.0,1.0,1.0,1.0,1.0,5.0,8.0,2.0,3.0,4.0,0.0,8.0,6.0,3.0,2.0,1.0,4.0,5.0,6.748614765703678,2.956793799996376,1.933698623906821,1.0230544065125287,4.005177434068173,5.964037075638771,151.72530291276053,653.965363365598,654.7737954556942,654.5139860571362,662.5832496327348,663.5834885472432,655.7989459247328,662.574920122046
1,335,1,1,1.0,1.0,0.3861479121260345,0.0,7,5,6,2,3,1,nan,nan,nan,nan,nan,nan,nan,nan,nan,nan,nan,nan,0.0,nan,nan,nan,nan,nan,nan,nan,nan,nan,nan,nan,nan,nan,nan,nan,nan,nan,nan,151.72530291276053,663.7917933110148,nan,664.1779412231408,nan,nan,nan,nan
1,336,1,1,1.0,1.0,0.32168258586898446,0.0,6,4,3,0,1,5,nan,nan,nan,nan,nan,nan,nan,nan,nan,nan,nan,nan,0.0,nan,nan,nan,nan,nan,nan,nan,nan,nan,nan,nan,nan,nan,nan,nan,nan,nan,nan,151.72530291276053,664.8002368621528,nan,665.1219194480218,nan,nan,nan,nan
1,337,1,1,1.0,1.0,0.2892705947160721,0.0,8,0,6,5,7,3,nan,nan,nan,nan,nan,nan,nan,nan,nan,nan,nan,nan,0.0,nan,nan,nan,nan,nan,nan,nan,nan,nan,nan,nan,nan,nan,nan,nan,nan,nan,nan,151.72530291276053,665.8087214673869,nan,666.097992062103,nan,nan,nan,nan
1,338,1,1,1.0,1.0,0.2566453479230404,0.0,3,5,0,1,6,2,nan,nan,nan,nan,nan,nan,nan,nan,nan,nan,nan,nan,0.0,nan,nan,nan,nan,nan,nan,nan,nan,nan,nan,nan,nan,nan,nan,nan,nan,nan,nan,151.72530291276053,666.8172425660305,nan,667.0738879139535,nan,nan,nan,nan
1,339,0,0,1.0,0.0,0.32821596087887883,1.0,8,7,2,4,0,1,1.0,1.0,1.0,1.0,1.0,1.0,0.0,1.0,1.0,1.0,0.0,0.0,3.0,3.0,7.0,2.0,4.0,5.0,3.0,6.0,3.0,2.0,1.0,4.0,5.0,7.376450486946851,4.680210484657437,2.7943381224758923,1.731054540257901,5.704306649975479,6.761107605881989,151.72530291276053,667.8256638790481,668.6341421552934,668.153879839927,677.0686845355667,678.0758077837527,669.6509499992244,677.06035046326
1,340,1,1,1.0,1.0,0.3726272825151682,0.0,0,2,8,7,3,4,nan,nan,nan,nan,nan,nan,nan,nan,nan,nan,nan,nan,0.0,nan,nan,nan,nan,nan,nan,nan,nan,nan,nan,nan,nan,nan,nan,nan,nan,nan,nan,151.72530291276053,678.2772150994278,nan,678.649842381943,nan,nan,nan,nan
1,341,1,1,1.0,1.0,0.31611684476956725,0.0,5,3,7,1,8,2,nan,nan,nan,nan,nan,nan,nan,nan,nan,nan,nan,nan,0.0,nan,nan,nan,nan,nan,nan,nan,nan,nan,nan,nan,nan,nan,nan,nan,nan,nan,nan,151.72530291276053,679.2856994196773,nan,679.6018162644468,nan,nan,nan,nan
1,342,1,1,1.0,1.0,0.3079660926014185,0.0,0,7,5,4,3,6,nan,nan,nan,nan,nan,nan,nan,nan,nan,nan,nan,nan,0.0,nan,nan,nan,nan,nan,nan,nan,nan,nan,nan,nan,nan,nan,nan,nan,nan,nan,nan,151.72530291276053,680.2858476722613,nan,680.5938137648627,nan,nan,nan,nan
1,343,1,1,1.0,1.0,0.2914809826761484,0.0,4,6,7,8,2,0,nan,nan,nan,nan,nan,nan,nan,nan,nan,nan,nan,nan,0.0,nan,nan,nan,nan,nan,nan,nan,nan,nan,nan,nan,nan,nan,nan,nan,nan,nan,nan,151.72530291276053,681.2943291417323,nan,681.5858101244085,nan,nan,nan,nan
1,344,1,1,1.0,1.0,0.299026180524379,0.0,2,0,5,4,8,3,nan,nan,nan,nan,nan,nan,nan,nan,nan,nan,nan,nan,0.0,nan,nan,nan,nan,nan,nan,nan,nan,nan,nan,nan,nan,nan,nan,nan,nan,nan,nan,151.72530291276053,682.302782101091,nan,682.6018082816154,nan,nan,nan,nan
1,345,1,1,1.0,1.0,0.40252012200653553,0.0,5,2,1,8,3,7,nan,nan,nan,nan,nan,nan,nan,nan,nan,nan,nan,nan,0.0,nan,nan,nan,nan,nan,nan,nan,nan,nan,nan,nan,nan,nan,nan,nan,nan,nan,nan,151.72530291276053,683.3112801061943,nan,683.7138002282009,nan,nan,nan,nan
1,346,1,1,1.0,1.0,0.3460056926123798,0.0,6,8,5,0,4,3,nan,nan,nan,nan,nan,nan,nan,nan,nan,nan,nan,nan,0.0,nan,nan,nan,nan,nan,nan,nan,nan,nan,nan,nan,nan,nan,nan,nan,nan,nan,nan,151.72530291276053,684.3197798221372,nan,684.6657855147496,nan,nan,nan,nan
1,347,1,1,1.0,1.0,0.2735438537783921,0.0,4,7,0,3,2,8,nan,nan,nan,nan,nan,nan,nan,nan,nan,nan,nan,nan,0.0,nan,nan,nan,nan,nan,nan,nan,nan,nan,nan,nan,nan,nan,nan,nan,nan,nan,nan,151.72530291276053,685.328233351931,nan,685.6017772057094,nan,nan,nan,nan
1,348,1,1,1.0,1.0,0.3130388939753175,0.0,0,8,7,5,1,4,nan,nan,nan,nan,nan,nan,nan,nan,nan,nan,nan,nan,0.0,nan,nan,nan,nan,nan,nan,nan,nan,nan,nan,nan,nan,nan,nan,nan,nan,nan,nan,151.72530291276053,686.3367296466604,nan,686.6497685406357,nan,nan,nan,nan
1,349,1,1,1.0,1.0,0.264591112267226,0.0,8,3,2,7,0,5,nan,nan,nan,nan,nan,nan,nan,nan,nan,nan,nan,nan,0.0,nan,nan,nan,nan,nan,nan,nan,nan,nan,nan,nan,nan,nan,nan,nan,nan,nan,nan,151.72530291276053,687.3451783293858,nan,687.609769441653,nan,nan,nan,nan
1,350,1,1,1.0,1.0,0.3200749019160867,0.0,4,6,5,0,1,8,nan,nan,nan,nan,nan,nan,nan,nan,nan,nan,nan,nan,0.0,nan,nan,nan,nan,nan,nan,nan,nan,nan,nan,nan,nan,nan,nan,nan,nan,nan,nan,151.72530291276053,688.3536706324667,nan,688.6737455343828,nan,nan,nan,nan
1,351,1,1,1.0,1.0,0.31960762152448297,0.0,8,4,0,3,7,2,nan,nan,nan,nan,nan,nan,nan,nan,nan,nan,nan,nan,0.0,nan,nan,nan,nan,nan,nan,nan,nan,nan,nan,nan,nan,nan,nan,nan,nan,nan,nan,151.72530291276053,689.3621444040909,nan,689.6817520256154,nan,nan,nan,nan
1,352,1,1,1.0,1.0,0.28710496751591563,0.0,1,2,3,0,6,5,nan,nan,nan,nan,nan,nan,nan,nan,nan,nan,nan,nan,0.0,nan,nan,nan,nan,nan,nan,nan,nan,nan,nan,nan,nan,nan,nan,nan,nan,nan,nan,151.72530291276053,690.3706330014393,nan,690.6577379689552,nan,nan,nan,nan
1,353,1,1,1.0,1.0,0.3266202500090003,0.0,4,5,7,3,2,8,nan,nan,nan,nan,nan,nan,nan,nan,nan,nan,nan,nan,0.0,nan,nan,nan,nan,nan,nan,nan,nan,nan,nan,nan,nan,nan,nan,nan,nan,nan,nan,151.72530291276053,691.379107913468,nan,691.705728163477,nan,nan,nan,nan
1,354,1,1,1.0,1.0,0.342128889169544,0.0,8,1,2,0,6,7,nan,nan,nan,nan,nan,nan,nan,nan,nan,nan,nan,nan,0.0,nan,nan,nan,nan,nan,nan,nan,nan,nan,nan,nan,nan,nan,nan,nan,nan,nan,nan,151.72530291276053,692.3875930891372,nan,692.7297219783068,nan,nan,nan,nan
1,355,1,1,1.0,1.0,0.31764270504936576,0.0,7,8,5,4,3,6,nan,nan,nan,nan,nan,nan,nan,nan,nan,nan,nan,nan,0.0,nan,nan,nan,nan,nan,nan,nan,nan,nan,nan,nan,nan,nan,nan,nan,nan,nan,nan,151.72530291276053,693.3960668607615,nan,693.7137095658109,nan,nan,nan,nan
1,356,1,1,1.0,1.0,0.3331858408637345,0.0,3,4,6,0,1,2,nan,nan,nan,nan,nan,nan,nan,nan,nan,nan,nan,nan,0.0,nan,nan,nan,nan,nan,nan,nan,nan,nan,nan,nan,nan,nan,nan,nan,nan,nan,nan,151.72530291276053,694.4045218159445,nan,694.7377076568082,nan,nan,nan,nan
1,357,0,0,0.0,1.0,0.5887104566209018,1.0,1,5,2,7,4,3,1.0,1.0,1.0,1.0,1.0,1.0,1.0,0.0,1.0,1.0,1.0,0.0,4.0,1.0,1.0,2.0,7.0,4.0,1.0,5.0,4.0,3.0,1.0,2.0,6.0,6.79673525178805,5.925077170133591,4.686276578344405,2.062185373622924,3.3742141551338136,7.748537503182888,151.72530291276053,695.412999864202,696.2214559023269,696.0017103208229,705.031064033974,706.0308479275554,697.2466129288077,705.0227291067131
1,358,1,1,1.0,1.0,0.4980754256248474,0.0,4,3,8,1,6,0,nan,nan,nan,nan,nan,nan,nan,nan,nan,nan,nan,nan,0.0,nan,nan,nan,nan,nan,nan,nan,nan,nan,nan,nan,nan,nan,nan,nan,nan,nan,nan,151.72530291276053,706.2395851896144,nan,706.7376606152393,nan,nan,nan,nan
1,359,1,1,1.0,1.0,0.30589511850848794,0.0,1,4,0,3,8,5,nan,nan,nan,nan,nan,nan,nan,nan,nan,nan,nan,nan,0.0,nan,nan,nan,nan,nan,nan,nan,nan,nan,nan,nan,nan,nan,nan,nan,nan,nan,nan,151.72530291276053,707.2397314463742,nan,707.5456265648827,nan,nan,nan,nan
1,360,1,1,1.0,1.0,0.3137567788362503,0.0,0,3,5,6,4,8,nan,nan,nan,nan,nan,nan,nan,nan,nan,nan,nan,nan,0.0,nan,nan,nan,nan,nan,nan,nan,nan,nan,nan,nan,nan,nan,nan,nan,nan,nan,nan,151.72530291276053,708.239875422325,nan,708.5536322011612,nan,nan,nan,nan
1,361,1,1,1.0,1.0,0.3932551946491003,0.0,7,0,8,2,1,5,nan,nan,nan,nan,nan,nan,nan,nan,nan,nan,nan,nan,0.0,nan,nan,nan,nan,nan,nan,nan,nan,nan,nan,nan,nan,nan,nan,nan,nan,nan,nan,151.72530291276053,709.2483765636571,nan,709.6416317583062,nan,nan,nan,nan
1,362,1,1,1.0,1.0,0.3611032157205045,0.0,3,1,6,5,7,2,nan,nan,nan,nan,nan,nan,nan,nan,nan,nan,nan,nan,0.0,nan,nan,nan,nan,nan,nan,nan,nan,nan,nan,nan,nan,nan,nan,nan,nan,nan,nan,151.72530291276053,710.2485091355629,nan,710.6096123512834,nan,nan,nan,nan
1,363,1,1,1.0,1.0,0.3286219444125891,0.0,1,2,7,4,3,5,nan,nan,nan,nan,nan,nan,nan,nan,nan,nan,nan,nan,0.0,nan,nan,nan,nan,nan,nan,nan,nan,nan,nan,nan,nan,nan,nan,nan,nan,nan,nan,151.72530291276053,711.256979200989,nan,711.5856011454016,nan,nan,nan,nan
1,364,1,1,1.0,1.0,0.2961355419829488,0.0,6,1,3,5,8,0,nan,nan,nan,nan,nan,nan,nan,nan,nan,nan,nan,nan,0.0,nan,nan,nan,nan,nan,nan,nan,nan,nan,nan,nan,nan,nan,nan,nan,nan,nan,nan,151.72530291276053,712.2654598150402,nan,712.5615953570232,nan,nan,nan,nan
1,365,0,0,1.0,0.0,0.2876443788409233,0.0,2,6,1,0,3,4,nan,nan,nan,nan,nan,nan,nan,nan,nan,nan,nan,nan,0.0,nan,nan,nan,nan,nan,nan,nan,nan,nan,nan,nan,nan,nan,nan,nan,nan,nan,nan,151.72530291276053,713.2739384337328,nan,713.5615828125738,nan,nan,nan,nan
1,366,1,1,1.0,1.0,0.5194788128137589,0.0,5,1,7,4,6,0,nan,nan,nan,nan,nan,nan,nan,nan,nan,nan,nan,nan,0.0,nan,nan,nan,nan,nan,nan,nan,nan,nan,nan,nan,nan,nan,nan,nan,nan,nan,nan,151.72530291276053,714.2740986603312,nan,714.793577473145,nan,nan,nan,nan
1,367,1,1,1.0,1.0,0.40732663916423917,0.0,8,3,1,2,7,6,nan,nan,nan,nan,nan,nan,nan,nan,nan,nan,nan,nan,0.0,nan,nan,nan,nan,nan,nan,nan,nan,nan,nan,nan,nan,nan,nan,nan,nan,nan,nan,151.72530291276053,715.2742412108928,nan,715.681567850057,nan,nan,nan,nan
1,368,1,1,1.0,1.0,0.33480036817491055,0.0,3,1,7,5,2,8,nan,nan,nan,nan,nan,nan,nan,nan,nan,nan,nan,nan,0.0,nan,nan,nan,nan,nan,nan,nan,nan,nan,nan,nan,nan,nan,nan,nan,nan,nan,nan,151.72530291276053,716.2827637349255,nan,716.6175641031004,nan,nan,nan,nan
1,369,1,1,1.0,1.0,0.3103754809126258,0.0,1,3,4,8,6,2,nan,nan,nan,nan,nan,nan,nan,nan,nan,nan,nan,nan,0.0,nan,nan,nan,nan,nan,nan,nan,nan,nan,nan,nan,nan,nan,nan,nan,nan,nan,nan,151.72530291276053,717.2911930307746,nan,717.6015685116872,nan,nan,nan,nan
1,370,0,0,0.0,1.0,0.5022108159027994,1.0,2,6,7,1,0,4,1.0,1.0,1.0,1.0,1.0,1.0,0.0,0.0,1.0,1.0,1.0,0.0,3.0,5.0,5.0,7.0,1.0,0.0,5.0,5.0,6.0,3.0,2.0,1.0,4.0,5.5583634516224265,6.317968575283885,3.607249148655683,2.648788078222424,1.5850962311960757,4.670717476401478,151.72530291276053,718.2913449895568,719.0997579777613,718.7935558054596,726.475830135867,727.4807230387814,720.1165880598128,726.4674957785755
1,371,1,1,1.0,1.0,0.3331470675766468,0.0,6,3,0,5,4,8,nan,nan,nan,nan,nan,nan,nan,nan,nan,nan,nan,nan,0.0,nan,nan,nan,nan,nan,nan,nan,nan,nan,nan,nan,nan,nan,nan,nan,nan,nan,nan,151.72530291276053,727.6843558526598,nan,728.0175029202364,nan,nan,nan,nan
1,372,1,1,1.0,1.0,0.30864805402234197,0.0,3,4,8,6,7,5,nan,nan,nan,nan,nan,nan,nan,nan,nan,nan,nan,nan,0.0,nan,nan,nan,nan,nan,nan,nan,nan,nan,nan,nan,nan,nan,nan,nan,nan,nan,nan,151.72530291276053,728.6928313351236,nan,729.001479389146,nan,nan,nan,nan
1,373,1,1,1.0,1.0,0.3241606839001179,0.0,8,3,4,5,0,7,nan,nan,nan,nan,nan,nan,nan,nan,nan,nan,nan,nan,0.0,nan,nan,nan,nan,nan,nan,nan,nan,nan,nan,nan,nan,nan,nan,nan,nan,nan,nan,151.72530291276053,729.7013230682351,nan,730.0254837521352,nan,nan,nan,nan
1,374,1,1,1.0,1.0,0.34767866507172585,0.0,4,5,3,1,7,0,nan,nan,nan,nan,nan,nan,nan,nan,nan,nan,nan,nan,0.0,nan,nan,nan,nan,nan,nan,nan,nan,nan,nan,nan,nan,nan,nan,nan,nan,nan,nan,151.72530291276053,730.7097954144701,nan,731.0574740795419,nan,nan,nan,nan
1,375,1,1,1.0,1.0,0.3154847756959498,0.0,5,4,2,3,8,7,nan,nan,nan,nan,nan,nan,nan,nan,nan,nan,nan,nan,0.0,nan,nan,nan,nan,nan,nan,nan,nan,nan,nan,nan,nan,nan,nan,nan,nan,nan,nan,151.72530291276053,731.7099761683494,nan,732.0254609440453,nan,nan,nan,nan
1,376,1,1,1.0,1.0,0.2590265115723014,0.0,7,2,0,6,1,5,nan,nan,nan,nan,nan,nan,nan,nan,nan,nan,nan,nan,0.0,nan,nan,nan,nan,nan,nan,nan,nan,nan,nan,nan,nan,nan,nan,nan,nan,nan,nan,151.72530291276053,732.7184259914793,nan,732.9774525030516,nan,nan,nan,nan
1,377,1,1,1.0,1.0,0.27487384993582964,0.0,5,3,7,4,2,6,nan,nan,nan,nan,nan,nan,nan,nan,nan,nan,nan,nan,0.0,nan,nan,nan,nan,nan,nan,nan,nan,nan,nan,nan,nan,nan,nan,nan,nan,nan,nan,151.72530291276053,733.7185839377344,nan,733.9934577876702,nan,nan,nan,nan
1,378,0,0,0.0,1.0,0.5224005277268589,0.0,3,4,0,1,6,2,nan,nan,nan,nan,nan,nan,nan,nan,nan,nan,nan,nan,0.0,nan,nan,nan,nan,nan,nan,nan,nan,nan,nan,nan,nan,nan,nan,nan,nan,nan,nan,151.72530291276053,734.7270520073362,nan,735.249452535063,nan,nan,nan,nan
1,379,1,1,1.0,1.0,0.4579329206608236,0.0,4,8,6,0,5,7,nan,nan,nan,nan,nan,nan,nan,nan,nan,nan,nan,nan,0.0,nan,nan,nan,nan,nan,nan,nan,nan,nan,nan,nan,nan,nan,nan,nan,nan,nan,nan,151.72530291276053,735.7355129495263,nan,736.1934458701871,nan,nan,nan,nan
