block,trial,time,setsize,freqtrials,colorind,colordeg,colorrgb,correctresp,actualresp,acc,rts,probe_trials,fast_rt_trigger,slow_rt_trigger,rt_trailingavg,rt_runningavg,rt_runningstd,rt_runningslowthresh,rt_runningfastthresh,wm_mousepos,wm_respdeg,wm_colorind,wm_colorrgb,wm_colorhsv,wm_degdiff,wm_rts,timeBlockStart,timeEncArrayOnset,timeResponse,timeProbeOnset,timeProbeOffset
0,0,17:15:15:389000,6,1,378,265.78125,[-0.11745014  0.47867092 -0.15481012],1,1,1,0.593207601,0,nan,nan,nan,nan,nan,nan,nan,nan,nan,nan,[ nan  nan  nan],nan,nan,nan,148.9922513,150.0149973,150.6082049,nan,nan
0,1,17:15:16:325000,6,1,123,86.484375,[ 1.         -0.31144114 -0.20867286],1,1,1,0.323452318,0,nan,nan,nan,nan,nan,nan,nan,nan,nan,nan,[ nan  nan  nan],nan,nan,nan,148.9922513,150.9567584,151.2802107,nan,nan
0,2,17:15:17:277000,6,0,279,196.171875,[ 0.23815758  0.33893035  0.61897842],0,0,1,0.637498403,0,nan,nan,nan,nan,nan,nan,nan,nan,nan,nan,[ nan  nan  nan],nan,nan,nan,148.9922513,151.8986782,152.5361766,nan,nan
0,3,17:15:18:229000,6,1,443,311.484375,[ 0.28155878  0.41926821 -1.        ],1,1,1,0.575800099,0,nan,nan,nan,nan,nan,nan,nan,nan,nan,nan,[ nan  nan  nan],nan,nan,nan,148.9922513,152.8403663,153.4161664,nan,nan
0,4,17:15:19:165000,6,1,212,149.0625,[ 0.93926289  0.04677313  0.543851  ],1,1,1,0.345362086,0,nan,nan,nan,nan,nan,nan,nan,nan,nan,nan,[ nan  nan  nan],nan,nan,nan,148.9922513,153.7987931,154.1441552,nan,nan
0,5,17:15:20:116000,6,1,464,326.25,[ 0.44840488  0.37350356 -1.        ],1,1,1,0.315489251,0,nan,nan,nan,nan,nan,nan,nan,nan,nan,nan,[ nan  nan  nan],nan,nan,nan,148.9922513,154.7406573,155.0561466,nan,nan
0,6,17:15:21:052000,6,1,335,235.546875,[-0.15559599  0.45562772  0.27689323],1,1,1,0.381731445,0,nan,nan,nan,nan,nan,nan,nan,nan,nan,nan,[ nan  nan  nan],nan,nan,nan,148.9922513,155.6823896,156.0641211,nan,nan
0,7,17:15:22:004000,6,1,294,206.71875,[ 0.0948762   0.38121213  0.55985823],1,1,1,0.279924438,0,nan,nan,nan,nan,nan,nan,nan,nan,nan,nan,[ nan  nan  nan],nan,nan,nan,148.9922513,156.6241846,156.9041091,nan,nan
0,8,17:15:22:940000,6,1,434,305.15625,[ 0.21388182  0.43461034 -1.        ],1,1,1,0.354112023,0,nan,nan,nan,nan,nan,nan,nan,nan,nan,nan,[ nan  nan  nan],nan,nan,nan,148.9922513,157.5659845,157.9200965,nan,nan
0,9,17:15:23:876000,6,1,272,191.25,[ 0.3101667   0.31621412  0.63728143],1,1,1,0.316313754,0,nan,nan,nan,nan,nan,nan,nan,nan,nan,nan,[ nan  nan  nan],nan,nan,nan,148.9922513,158.5077541,158.8240678,nan,nan
0,10,17:15:24:827000,6,0,345,242.578125,[-0.17351954  0.46559515  0.18611928],0,nan,nan,nan,0,nan,nan,nan,nan,nan,nan,nan,nan,nan,nan,[ nan  nan  nan],nan,nan,nan,148.9922513,159.4495497,nan,nan,nan
0,11,17:15:25:763000,6,1,197,138.515625,[ 1.         -0.0357976   0.45577474],1,1,1,0.464670108,0,nan,nan,nan,nan,nan,nan,nan,nan,nan,nan,[ nan  nan  nan],nan,nan,nan,148.9922513,160.3913401,160.8560102,nan,nan
0,12,17:15:26:699000,6,1,52,36.5625,[ 1.         -0.04388606 -1.        ],1,1,1,0.714891914,0,nan,nan,nan,nan,nan,nan,nan,nan,nan,nan,[ nan  nan  nan],nan,nan,nan,148.9922513,161.3331268,162.0480187,nan,nan
0,13,17:15:27:651000,6,1,509,357.890625,[ 0.82238638  0.224555   -1.        ],1,1,1,0.517062534,0,nan,nan,nan,nan,nan,nan,nan,nan,nan,nan,[ nan  nan  nan],nan,nan,nan,148.9922513,162.2749275,162.7919901,nan,nan
0,14,17:15:28:587000,6,1,447,314.296875,[ 0.31246764  0.41164647 -1.        ],1,1,1,0.415295726,0,nan,nan,nan,nan,nan,nan,nan,nan,nan,nan,[ nan  nan  nan],nan,nan,nan,148.9922513,163.2167023,163.631998,nan,nan
0,15,17:15:29:539000,6,1,366,257.34375,[-0.15559338  0.47730203 -0.02447665],1,1,1,0.441488519,0,nan,nan,nan,nan,nan,nan,nan,nan,nan,nan,[ nan  nan  nan],nan,nan,nan,148.9922513,164.1584927,164.5999812,nan,nan
0,16,17:15:30:475000,6,0,40,28.125,[ 1.          0.02011655 -1.        ],0,0,1,0.499672993,0,nan,nan,nan,nan,nan,nan,nan,nan,nan,nan,[ nan  nan  nan],nan,nan,nan,148.9922513,165.1002749,165.5999479,nan,nan
0,17,17:15:31:411000,6,1,265,186.328125,[ 0.38425915  0.29156831  0.64947886],1,1,1,0.501872523,0,nan,nan,nan,nan,nan,nan,nan,nan,nan,nan,[ nan  nan  nan],nan,nan,nan,148.9922513,166.0420628,166.5439353,nan,nan
0,18,17:15:32:362000,6,1,472,331.875,[ 0.51429865  0.35221228 -1.        ],1,1,1,0.352052476,0,nan,nan,nan,nan,nan,nan,nan,nan,nan,nan,[ nan  nan  nan],nan,nan,nan,148.9922513,166.9838703,167.3359228,nan,nan
0,19,17:15:33:298000,6,1,230,161.71875,[ 0.76002313  0.14022421  0.6178111 ],1,1,1,0.34626214,0,nan,nan,nan,nan,nan,nan,nan,nan,nan,nan,[ nan  nan  nan],nan,nan,nan,148.9922513,167.9256533,168.2719155,nan,nan
0,20,17:15:34:234000,6,0,150,105.46875,[ 1.         -0.26615253  0.06382271],0,0,1,0.540485316,0,nan,nan,nan,nan,nan,nan,nan,nan,nan,nan,[ nan  nan  nan],nan,nan,nan,148.9922513,168.8674061,169.4078915,nan,nan
0,21,17:15:35:186000,6,1,19,13.359375,[ 0.99625917  0.12637453 -1.        ],1,1,1,0.422602783,0,nan,nan,nan,nan,nan,nan,nan,nan,nan,nan,[ nan  nan  nan],nan,nan,nan,148.9922513,169.8092633,170.2318661,nan,nan
0,22,17:15:36:122000,6,1,348,244.6875,[-0.17538477  0.46801784  0.15758216],1,1,1,0.744844291,0,nan,nan,nan,nan,nan,nan,nan,nan,nan,nan,[ nan  nan  nan],nan,nan,nan,148.9922513,170.7510038,171.4958481,nan,nan
0,23,17:15:37:058000,6,1,427,300.234375,[ 0.16326517  0.44486322 -0.84020871],1,1,1,0.419048469,0,nan,nan,nan,nan,nan,nan,nan,nan,nan,nan,[ nan  nan  nan],nan,nan,nan,148.9922513,171.6927954,172.1118439,nan,nan
0,24,17:15:38:009000,6,1,502,352.96875,[ 0.76474094  0.25241358 -1.        ],1,1,1,0.341224176,0,nan,nan,nan,nan,nan,nan,nan,nan,nan,nan,[ nan  nan  nan],nan,nan,nan,148.9922513,172.634593,172.9758171,nan,nan
0,25,17:15:38:945000,6,1,46,32.34375,[ 1.         -0.01173137 -1.        ],1,1,1,0.351443507,0,nan,nan,nan,nan,nan,nan,nan,nan,nan,nan,[ nan  nan  nan],nan,nan,nan,148.9922513,173.5763726,173.9278161,nan,nan
0,26,17:15:39:897000,6,1,480,337.5,[ 0.58092807  0.32870764 -1.        ],1,1,1,0.305625151,0,nan,nan,nan,nan,nan,nan,nan,nan,nan,nan,[ nan  nan  nan],nan,nan,nan,148.9922513,174.5181653,174.8237904,nan,nan
0,27,17:15:40:833000,6,1,433,304.453125,[ 0.2065363   0.43616372 -1.        ],1,1,1,0.307839506,0,nan,nan,nan,nan,nan,nan,nan,nan,nan,nan,[ nan  nan  nan],nan,nan,nan,148.9922513,175.4599466,175.7677861,nan,nan
0,28,17:15:41:769000,6,1,373,262.265625,[-0.13540771  0.47855957 -0.09969749],1,1,1,0.318004954,0,nan,nan,nan,nan,nan,nan,nan,nan,nan,nan,[ nan  nan  nan],nan,nan,nan,148.9922513,176.4017536,176.7197585,nan,nan
0,29,17:15:42:721000,6,1,15,10.546875,[ 0.96573443  0.14535278 -1.        ],1,1,1,0.264174494,0,nan,nan,nan,nan,nan,nan,nan,nan,nan,nan,[ nan  nan  nan],nan,nan,nan,148.9922513,177.3435774,177.6077519,nan,nan
0,30,17:15:43:657000,6,1,425,298.828125,[ 0.14916262  0.4475296  -0.79171567],1,1,1,0.330425526,0,nan,nan,nan,nan,nan,nan,nan,nan,nan,nan,[ nan  nan  nan],nan,nan,nan,148.9922513,178.2853048,178.6157303,nan,nan
0,31,17:15:44:593000,6,1,30,21.09375,[ 1.          0.07194566 -1.        ],1,1,1,0.276610746,0,nan,nan,nan,nan,nan,nan,nan,nan,nan,nan,[ nan  nan  nan],nan,nan,nan,148.9922513,179.2271101,179.5037208,nan,nan
0,32,17:15:45:544000,6,1,282,198.28125,[ 0.20814231  0.34807905  0.6092955 ],1,1,1,0.294795995,0,nan,nan,nan,nan,nan,nan,nan,nan,nan,nan,[ nan  nan  nan],nan,nan,nan,148.9922513,180.1688908,180.4636868,nan,nan
0,33,17:15:46:480000,6,1,399,280.546875,[-0.01644604  0.47203125 -0.40027452],1,1,1,0.216986527,0,nan,nan,nan,nan,nan,nan,nan,nan,nan,nan,[ nan  nan  nan],nan,nan,nan,148.9922513,181.1106932,181.3276797,nan,nan
0,34,17:15:47:432000,6,1,241,169.453125,[ 0.64365311  0.19260594  0.64425478],1,1,1,0.315195885,0,nan,nan,nan,nan,nan,nan,nan,nan,nan,nan,[ nan  nan  nan],nan,nan,nan,148.9922513,182.0524748,182.3676707,nan,nan
0,35,17:15:48:368000,6,1,436,306.5625,[ 0.22868171  0.43141373 -1.        ],1,1,1,0.173377109,0,nan,nan,nan,nan,nan,nan,nan,nan,nan,nan,[ nan  nan  nan],nan,nan,nan,148.9922513,182.9942704,183.1676475,nan,nan
0,36,17:15:49:304000,6,1,484,340.3125,[ 0.61439895  0.31611274 -1.        ],1,1,1,0.151578245,0,nan,nan,nan,nan,nan,nan,nan,nan,nan,nan,[ nan  nan  nan],nan,nan,nan,148.9922513,183.9360528,184.0876311,nan,nan
0,37,17:15:50:256000,6,1,190,133.59375,[ 1.         -0.07468844  0.40739964],1,1,1,0.121805194,0,nan,nan,nan,nan,nan,nan,nan,nan,nan,nan,[ nan  nan  nan],nan,nan,nan,148.9922513,184.8778142,184.9996194,nan,nan
0,38,17:15:51:192000,6,1,226,158.90625,[ 0.80126593  0.12020899  0.60458277],1,1,1,0.187968416,0,nan,nan,nan,nan,nan,nan,nan,nan,nan,nan,[ nan  nan  nan],nan,nan,nan,148.9922513,185.8196289,186.0075973,nan,nan
0,39,17:15:52:128000,6,1,388,272.8125,[-0.07396337  0.47694192 -0.26857716],1,1,1,0.03014995,0,nan,nan,nan,nan,nan,nan,nan,nan,nan,nan,[ nan  nan  nan],nan,nan,nan,148.9922513,186.7614033,186.7915533,nan,nan
0,40,17:15:53:079000,6,1,498,350.15625,[ 0.73150794  0.26756188 -1.        ],1,1,1,0.104359203,0,nan,nan,nan,nan,nan,nan,nan,nan,nan,nan,[ nan  nan  nan],nan,nan,nan,148.9922513,187.703204,187.8075632,nan,nan
0,41,17:15:54:015000,6,0,373,262.265625,[-0.13540771  0.47855957 -0.09969749],0,0,1,0.570551163,0,nan,nan,nan,nan,nan,nan,nan,nan,nan,nan,[ nan  nan  nan],nan,nan,nan,148.9922513,188.6449891,189.2155402,nan,nan
0,42,17:15:54:967000,6,1,43,30.234375,[ 1.          0.00424534 -1.        ],1,1,1,0.588781458,0,nan,nan,nan,nan,nan,nan,nan,nan,nan,nan,[ nan  nan  nan],nan,nan,nan,148.9922513,189.5867724,190.1755538,nan,nan
0,43,17:15:55:903000,6,1,316,222.1875,[-0.07182156  0.42820351  0.42789226],1,1,1,0.478954364,0,nan,nan,nan,nan,nan,nan,nan,nan,nan,nan,[ nan  nan  nan],nan,nan,nan,148.9922513,190.5285551,191.0075095,nan,nan
0,44,17:15:56:839000,6,1,202,142.03125,[ 1.         -0.00802826  0.48759698],1,1,1,0.505117791,0,nan,nan,nan,nan,nan,nan,nan,nan,nan,nan,[ nan  nan  nan],nan,nan,nan,148.9922513,191.4703686,191.9754864,nan,nan
0,45,17:15:57:806000,6,1,21,14.765625,[ 1.        0.116714 -1.      ],1,1,1,0.378625589,0,nan,nan,nan,nan,nan,nan,nan,nan,nan,nan,[ nan  nan  nan],nan,nan,nan,148.9922513,192.4288453,192.8074709,nan,nan
0,46,17:15:58:742000,6,1,285,200.390625,[ 0.17873435  0.35687868  0.59852701],1,1,1,0.324863267,0,nan,nan,nan,nan,nan,nan,nan,nan,nan,nan,[ nan  nan  nan],nan,nan,nan,148.9922513,193.3705981,193.6954614,nan,nan
0,47,17:15:59:694000,6,1,177,124.453125,[ 1.         -0.14519215  0.30692121],1,1,1,0.479052152,0,nan,nan,nan,nan,nan,nan,nan,nan,nan,nan,[ nan  nan  nan],nan,nan,nan,148.9922513,194.3123888,194.791441,nan,nan
0,48,17:16:00:630000,6,1,33,23.203125,[ 1.          0.05659903 -1.        ],1,1,1,0.313291146,0,nan,nan,nan,nan,nan,nan,nan,nan,nan,nan,[ nan  nan  nan],nan,nan,nan,148.9922513,195.2541379,195.5674291,nan,nan
0,49,17:16:01:566000,6,1,194,136.40625,[ 1.         -0.05248646  0.4355717 ],1,1,1,0.355442004,0,nan,nan,nan,nan,nan,nan,nan,nan,nan,nan,[ nan  nan  nan],nan,nan,nan,148.9922513,196.1959711,196.5514131,nan,nan
0,50,17:16:02:517000,6,1,411,288.984375,[ 0.05552017  0.46302271 -0.55705476],1,1,1,0.381640213,0,nan,nan,nan,nan,nan,nan,nan,nan,nan,nan,[ nan  nan  nan],nan,nan,nan,148.9922513,197.1377456,197.5193858,nan,nan
0,51,17:16:03:453000,6,1,335,235.546875,[-0.15559599  0.45562772  0.27689323],1,1,1,0.351836942,0,nan,nan,nan,nan,nan,nan,nan,nan,nan,nan,[ nan  nan  nan],nan,nan,nan,148.9922513,198.0795335,198.4313704,nan,nan
0,52,17:16:04:389000,6,1,491,345.234375,[ 0.67303348  0.29270771 -1.        ],1,1,1,0.306048236,0,nan,nan,nan,nan,nan,nan,nan,nan,nan,nan,[ nan  nan  nan],nan,nan,nan,148.9922513,199.0213176,199.3273659,nan,nan
0,53,17:16:05:341000,6,1,331,232.734375,[-0.14329784  0.45080175  0.31116671],1,1,1,0.292237528,0,nan,nan,nan,nan,nan,nan,nan,nan,nan,nan,[ nan  nan  nan],nan,nan,nan,148.9922513,199.9631081,200.2553456,nan,nan
0,54,17:16:06:277000,6,1,128,90,[ 1.         -0.31066301 -0.15668979],1,1,1,0.190449907,0,nan,nan,nan,nan,nan,nan,nan,nan,nan,nan,[ nan  nan  nan],nan,nan,nan,148.9922513,200.9049127,201.0953627,nan,nan
0,55,17:16:11:425000,6,1,508,357.1875,[ 0.81419982  0.22863893 -1.        ],1,1,1,0.41663312,1,nan,nan,nan,nan,nan,nan,nan,nan,69.37646862,29,[ 1.          0.07701739 -1.        ],nan,23.43603138,2.167248076,148.9922513,201.8466872,202.2633203,203.6635484,205.8388222
0,56,17:16:12:361000,6,1,447,314.296875,[ 0.31246764  0.41164647 -1.        ],1,1,1,0.562200932,0,nan,nan,nan,nan,nan,nan,nan,nan,nan,nan,[ nan  nan  nan],nan,nan,nan,148.9922513,206.9890118,207.5512127,nan,nan
0,57,17:16:17:275000,6,1,179,125.859375,[ 1.         -0.13461442  0.32320413],1,1,1,0.556403183,1,nan,nan,nan,nan,nan,nan,nan,nan,-41.34777722,187,[ 1.         -0.09124635  0.38538321],nan,5.48840222,1.908788939,148.9922513,207.9308022,208.4872054,209.7643341,211.6812438
0,58,17:16:18:211000,6,1,424,298.125,[ 0.14217456  0.44881957 -0.77022942],1,1,1,0.615315797,0,nan,nan,nan,nan,nan,nan,nan,nan,nan,nan,[ nan  nan  nan],nan,nan,nan,148.9922513,212.8397699,213.4550857,nan,nan
0,59,17:16:19:162000,6,1,369,259.453125,[-0.14769469  0.47799919 -0.05643387],1,1,1,0.737532387,0,nan,nan,nan,nan,nan,nan,nan,nan,nan,nan,[ nan  nan  nan],nan,nan,nan,148.9922513,213.7815549,214.5190873,nan,nan
0,60,17:16:20:098000,6,1,303,213.046875,[ 0.01913493  0.40252284  0.51201836],1,1,1,0.755750993,0,nan,nan,nan,nan,nan,nan,nan,nan,nan,nan,[ nan  nan  nan],nan,nan,nan,148.9922513,214.7233251,215.4790761,nan,nan
0,61,17:16:24:685000,6,1,162,113.90625,[ 1.         -0.21873956  0.17663297],1,1,1,0.533922079,1,nan,nan,nan,nan,nan,nan,nan,nan,-53.74616226,204,[ 1.          0.00303257  0.49965442],nan,29.83991226,1.600457639,148.9922513,215.6651318,216.1990539,217.4903326,219.0988585
0,62,17:16:25:621000,6,1,323,227.109375,[-0.11001989  0.43965345  0.37585536],1,1,1,0.541914512,0,nan,nan,nan,nan,nan,nan,nan,nan,nan,nan,[ nan  nan  nan],nan,nan,nan,148.9922513,220.2490578,220.7909723,nan,nan
0,63,17:16:26:572000,6,1,159,111.796875,[ 1.         -0.23176597  0.14905501],1,1,1,0.472103463,0,nan,nan,nan,nan,nan,nan,nan,nan,nan,nan,[ nan  nan  nan],nan,nan,nan,148.9922513,221.1908562,221.6629596,nan,nan
0,64,17:16:27:508000,6,1,315,221.484375,[-0.06571114  0.42643481  0.43495652],1,1,1,0.330330018,0,nan,nan,nan,nan,nan,nan,nan,nan,nan,nan,[ nan  nan  nan],nan,nan,nan,148.9922513,222.1326309,222.4629609,nan,nan
0,65,17:16:28:444000,6,1,173,121.640625,[ 1.         -0.16590952  0.27353519],1,1,1,0.340518844,0,nan,nan,nan,nan,nan,nan,nan,nan,nan,nan,[ nan  nan  nan],nan,nan,nan,148.9922513,223.0744199,223.4149388,nan,nan
0,66,17:16:29:396000,6,1,345,242.578125,[-0.17351954  0.46559515  0.18611928],1,1,1,0.310704454,0,nan,nan,nan,nan,nan,nan,nan,nan,nan,nan,[ nan  nan  nan],nan,nan,nan,148.9922513,224.0162101,224.3269145,nan,nan
0,67,17:16:30:332000,6,0,191,134.296875,[ 1.         -0.06914798  0.41457165],0,1,0,0.113005079,0,0,0,nan,nan,nan,nan,nan,nan,nan,nan,[ nan  nan  nan],nan,nan,nan,148.9922513,224.9579655,225.0709705,nan,nan
0,68,17:16:31:268000,6,1,6,4.21875,[ 0.89512908  0.18627278 -1.        ],1,1,1,0.371072777,0,nan,nan,nan,nan,nan,nan,nan,nan,nan,nan,[ nan  nan  nan],nan,nan,nan,148.9922513,225.8997858,226.2708586,nan,nan
0,69,17:16:32:220000,6,1,492,345.9375,[ 0.68140332  0.28922202 -1.        ],1,1,1,0.349285032,0,nan,nan,nan,nan,nan,nan,nan,nan,nan,nan,[ nan  nan  nan],nan,nan,nan,148.9922513,226.8415646,227.1908496,nan,nan
0,70,17:16:33:156000,6,0,192,135,[ 1.         -0.06359976  0.42165841],0,0,1,0.639472421,0,nan,nan,nan,nan,nan,nan,nan,nan,nan,nan,[ nan  nan  nan],nan,nan,nan,148.9922513,227.7833616,228.422834,nan,nan
0,71,17:16:34:107000,6,1,47,33.046875,[ 1.         -0.01707559 -1.        ],1,1,1,0.289670222,0,nan,nan,nan,nan,nan,nan,nan,nan,nan,nan,[ nan  nan  nan],nan,nan,nan,148.9922513,228.72516,229.0148302,nan,nan
0,72,17:16:35:043000,6,1,458,322.03125,[ 0.39968805  0.38805021 -1.        ],1,1,1,0.323876258,0,nan,nan,nan,nan,nan,nan,nan,nan,nan,nan,[ nan  nan  nan],nan,nan,nan,148.9922513,229.666939,229.9908153,nan,nan
0,73,17:16:35:979000,6,1,84,59.0625,[ 1.         -0.20765784 -0.65219109],1,1,1,0.278067025,0,nan,nan,nan,nan,nan,nan,nan,nan,nan,nan,[ nan  nan  nan],nan,nan,nan,148.9922513,230.6087309,230.8867979,nan,nan
0,74,17:16:36:931000,6,1,414,291.09375,[ 0.07478379  0.46016219 -0.60008918],1,1,1,0.280261138,0,nan,nan,nan,nan,nan,nan,nan,nan,nan,nan,[ nan  nan  nan],nan,nan,nan,148.9922513,231.5505228,231.8307839,nan,nan
0,75,17:16:41:221000,6,1,277,194.765625,[ 0.25847065  0.33263616  0.62482424],1,1,1,0.322457612,1,nan,nan,nan,nan,nan,nan,nan,nan,-96.09586154,265,[ 0.38425915  0.29156831  0.64947886],nan,-8.669763455,1.300522755,148.9922513,232.4923081,232.8147657,234.3175092,235.6260138
0,76,17:16:42:157000,6,1,496,348.75,[ 0.71483372  0.27492388 -1.        ],1,1,1,0.534148162,0,nan,nan,nan,nan,nan,nan,nan,nan,nan,nan,[ nan  nan  nan],nan,nan,nan,148.9922513,236.7845342,237.3186823,nan,nan
0,77,17:16:43:093000,6,1,285,200.390625,[ 0.17873435  0.35687868  0.59852701],1,1,1,0.456358081,0,nan,nan,nan,nan,nan,nan,nan,nan,nan,nan,[ nan  nan  nan],nan,nan,nan,148.9922513,237.7263115,238.1826696,nan,nan
0,78,17:16:44:044000,6,1,497,349.453125,[ 0.72317494  0.2712606  -1.        ],1,1,1,0.362561752,0,nan,nan,nan,nan,nan,nan,nan,nan,nan,nan,[ nan  nan  nan],nan,nan,nan,148.9922513,238.6680997,239.0306614,nan,nan
0,79,17:16:44:980000,6,1,116,81.5625,[ 1.         -0.30644692 -0.28251544],1,1,1,0.548741749,0,nan,nan,nan,nan,nan,nan,nan,nan,nan,nan,[ nan  nan  nan],nan,nan,nan,148.9922513,239.609891,240.1586327,nan,nan
0,80,17:16:45:932000,6,1,178,125.15625,[ 1.         -0.13991966  0.31509783],1,1,1,0.382943681,0,0,0,0.431415727,0.394353223,0.152416143,0.546769366,0.241937081,nan,nan,nan,[ nan  nan  nan],nan,nan,nan,148.9922513,240.5516828,240.9346265,nan,nan
0,81,17:16:46:868000,6,1,275,193.359375,[ 0.27900239  0.32618525  0.63017847],1,1,1,0.297132657,0,0,0,0.409606029,0.394210604,0.151465851,0.545676455,0.242744753,nan,nan,nan,[ nan  nan  nan],nan,nan,nan,148.9922513,241.4934664,241.7905991,nan,nan
0,82,17:16:47:804000,6,0,413,290.390625,[ 0.06831062  0.46114313 -0.5854956 ],0,0,1,0.651328499,0,0,0,0.443801612,0.393012111,0.150909183,0.543921294,0.242102928,nan,nan,nan,[ nan  nan  nan],nan,nan,nan,148.9922513,242.4352574,243.0865859,nan,nan
0,83,17:16:48:756000,6,1,154,108.28125,[ 1.         -0.25181315  0.10213817],1,1,1,0.27752591,0,0,0,0.408662355,0.396162311,0.152642325,0.548804635,0.243519986,nan,nan,nan,[ nan  nan  nan],nan,nan,nan,148.9922513,243.3770464,243.6545723,nan,nan
0,84,17:16:49:692000,6,1,2,1.40625,[ 0.86302458  0.20362286 -1.        ],1,1,1,0.383731121,0,0,0,0.43752851,0.394732956,0.152271109,0.547004066,0.242461847,nan,nan,nan,[ nan  nan  nan],nan,nan,nan,148.9922513,244.3188306,244.7025617,nan,nan
0,85,17:16:50:628000,6,0,473,332.578125,[ 0.52259481  0.34939617 -1.        ],0,nan,nan,nan,0,0,0,0.330628515,0.394601982,0.151366723,0.545968705,0.243235259,nan,nan,nan,[ nan  nan  nan],nan,nan,nan,148.9922513,245.2606219,nan,nan,nan
0,86,17:16:51:579000,6,1,19,13.359375,[ 0.99625917  0.12637453 -1.        ],1,1,1,0.348109288,0,0,0,0.365920205,0.394601982,0.151366723,0.545968705,0.243235259,nan,nan,nan,[ nan  nan  nan],nan,nan,nan,148.9922513,246.2024089,246.5505182,nan,nan
0,87,17:16:52:515000,6,1,242,170.15625,[ 0.63291185  0.19716118  0.6459214 ],1,1,1,0.470308487,0,0,0,0.409208888,0.394055009,0.150557179,0.544612189,0.24349783,nan,nan,nan,[ nan  nan  nan],nan,nan,nan,148.9922513,247.1442005,247.614509,nan,nan
0,88,17:16:53:467000,6,1,314,220.78125,[-0.05944389  0.42463231  0.44192541],1,1,1,0.520491406,0,0,0,0.446303061,0.394941678,0.14990235,0.544844028,0.245039328,nan,nan,nan,[ nan  nan  nan],nan,nan,nan,148.9922513,248.0859875,248.6064789,nan,nan
0,89,17:16:54:403000,6,1,262,184.21875,[ 0.41645248  0.28041442  0.65281554],1,1,1,0.418697799,0,0,0,0.469832564,0.396384778,0.149637992,0.54602277,0.246746786,nan,nan,nan,[ nan  nan  nan],nan,nan,nan,148.9922513,249.0277759,249.4464737,nan,nan
0,90,17:16:55:339000,6,1,399,280.546875,[-0.01644604  0.47203125 -0.40027452],1,1,1,0.340886335,0,0,0,0.426691847,0.396638335,0.148804143,0.545442478,0.247834192,nan,nan,nan,[ nan  nan  nan],nan,nan,nan,148.9922513,249.9695647,250.310451,nan,nan
0,91,17:16:56:290000,6,1,270,189.84375,[ 0.33115907  0.30936972  0.64139387],1,1,1,0.559092511,0,0,0,0.439558881,0.396011908,0.148082446,0.544094355,0.247929462,nan,nan,nan,[ nan  nan  nan],nan,nan,nan,148.9922513,250.9113483,251.4704408,nan,nan
0,92,17:16:57:226000,6,1,25,17.578125,[ 1.          0.09706829 -1.        ],1,nan,nan,nan,0,0,0,0.449989423,0.397823915,0.148246355,0.54607027,0.24957756,nan,nan,nan,[ nan  nan  nan],nan,nan,nan,148.9922513,251.853141,nan,nan,nan
0,93,17:16:58:162000,6,1,369,259.453125,[-0.14769469  0.47799919 -0.05643387],1,nan,nan,nan,0,0,0,0.559092511,0.397823915,0.148246355,0.54607027,0.24957756,nan,nan,nan,[ nan  nan  nan],nan,nan,nan,148.9922513,252.7949263,nan,nan,nan
0,94,17:16:59:114000,6,0,21,14.765625,[ 1.        0.116714 -1.      ],0,1,0,0.261620017,0,0,0,0.261620017,0.397823915,0.148246355,0.54607027,0.24957756,nan,nan,nan,[ nan  nan  nan],nan,nan,nan,148.9922513,253.7367606,253.9983806,nan,nan
0,95,17:17:00:050000,6,1,144,101.25,[ 1.         -0.28442319  0.00519445],1,1,1,0.279863997,0,0,0,0.270742007,0.396327169,0.148111778,0.544438947,0.248215391,nan,nan,nan,[ nan  nan  nan],nan,nan,nan,148.9922513,254.6785026,254.9583666,nan,nan
0,96,17:17:01:002000,6,1,389,273.515625,[-0.06912081  0.47662608 -0.28023432],1,1,1,0.402059205,0,0,0,0.314514406,0.395061265,0.147798785,0.542860049,0.24726248,nan,nan,nan,[ nan  nan  nan],nan,nan,nan,148.9922513,255.620293,256.0223522,nan,nan
0,97,17:17:01:938000,6,1,330,232.03125,[-0.13976633  0.44951833  0.31954025],1,1,1,0.612255842,0,0,0,0.431393015,0.395136511,0.147003792,0.542140303,0.24813272,nan,nan,nan,[ nan  nan  nan],nan,nan,nan,148.9922513,256.5620812,257.174337,nan,nan
0,98,17:17:02:874000,6,1,242,170.15625,[ 0.63291185  0.19716118  0.6459214 ],1,1,1,0.502400524,0,0,0,0.505571857,0.397446291,0.147906669,0.545352961,0.249539622,nan,nan,nan,[ nan  nan  nan],nan,nan,nan,148.9922513,257.5039081,258.0063086,nan,nan
0,99,17:17:03:825000,6,1,10,7.03125,[ 0.9268115   0.16840058 -1.        ],1,1,1,0.432639937,0,0,0,0.515765434,0.398551073,0.147515545,0.546066618,0.251035528,nan,nan,nan,[ nan  nan  nan],nan,nan,nan,148.9922513,258.4456618,258.8783017,nan,nan
0,100,17:17:04:761000,6,1,209,146.953125,[ 0.96730184  0.03048352  0.52805   ],1,1,1,0.378936916,0,0,0,0.437992459,0.398906165,0.146786032,0.545692197,0.252120133,nan,nan,nan,[ nan  nan  nan],nan,nan,nan,148.9922513,259.3874477,259.7663846,nan,nan
0,101,17:17:05:697000,6,1,357,251.015625,[-0.17179183  0.47376752  0.06873903],1,1,1,0.389040783,0,0,0,0.400205879,0.398700297,0.146041373,0.54474167,0.252658923,nan,nan,nan,[ nan  nan  nan],nan,nan,nan,148.9922513,260.3292384,260.7182792,nan,nan
0,102,17:17:06:649000,6,1,39,27.421875,[ 1.          0.02537899 -1.        ],1,1,1,0.679217053,0,0,0,0.48239825,0.39860173,0.145297597,0.543899327,0.253304133,nan,nan,nan,[ nan  nan  nan],nan,nan,nan,148.9922513,261.2710208,261.9502379,nan,nan
0,103,17:17:07:585000,6,1,86,60.46875,[ 1.         -0.21659106 -0.6256178 ],1,1,1,0.457428623,0,0,0,0.508562153,0.401436228,0.147260023,0.548696252,0.254176205,nan,nan,nan,[ nan  nan  nan],nan,nan,nan,148.9922513,262.2128124,262.670241,nan,nan
0,104,17:17:08:536000,6,1,418,293.90625,[ 0.10117589  0.45596175 -0.66167931],1,1,1,0.539619474,0,0,1,0.55875505,0.401996152,0.146627751,0.548623903,0.255368401,nan,nan,nan,[ nan  nan  nan],nan,nan,nan,148.9922513,263.1546031,263.6942226,nan,nan
0,105,17:17:14:558000,6,1,499,350.859375,[ 0.73983189  0.26382776 -1.        ],1,1,1,0.645841791,1,0,0,0.547629963,0.403358759,0.146534975,0.549893734,0.256823785,nan,68.98269913,30,[ 1.          0.07194566 -1.        ],nan,30.15792587,3.042338167,148.9922513,264.0963853,264.7422271,265.9215858,268.97199
0,106,17:17:15:494000,6,0,167,117.421875,[ 1.         -0.19560581  0.22154672],0,nan,nan,nan,0,0,0,0.592730633,0.405736044,0.147759209,0.553495253,0.257976835,nan,nan,nan,[ nan  nan  nan],nan,nan,nan,148.9922513,270.1221619,nan,nan,nan
0,107,17:17:16:446000,6,1,423,297.421875,[ 0.13522958  0.45008089 -0.75003992],1,0,0,0.142133809,0,0,0,0.3939878,0.405736044,0.147759209,0.553495253,0.257976835,nan,nan,nan,[ nan  nan  nan],nan,nan,nan,148.9922513,271.0639566,271.2060904,nan,nan
0,108,17:17:17:382000,6,1,214,150.46875,[ 0.92024366  0.05754104  0.55385485],1,1,1,0.408304272,0,0,0,0.275219041,0.403176799,0.149294635,0.552471434,0.253882164,nan,nan,nan,[ nan  nan  nan],nan,nan,nan,148.9922513,272.0057464,272.4140507,nan,nan
0,109,17:17:18:318000,6,1,393,276.328125,[-0.04894566  0.47510217 -0.32744323],1,1,1,0.410506368,0,0,0,0.320314816,0.403226102,0.148575981,0.551802083,0.25465012,nan,nan,nan,[ nan  nan  nan],nan,nan,nan,148.9922513,272.9475329,273.3580392,nan,nan
0,110,17:17:19:269000,6,1,61,42.890625,[ 1.        -0.0921164 -1.       ],1,1,1,0.300626246,0,0,0,0.373145629,0.403295438,0.147868475,0.551163912,0.255426963,nan,nan,nan,[ nan  nan  nan],nan,nan,nan,148.9922513,273.8893977,274.190024,nan,nan
0,111,17:17:20:205000,6,1,471,331.171875,[ 0.50601401  0.35499378 -1.        ],1,1,1,0.254898266,0,0,0,0.322010293,0.40232686,0.147503614,0.549830475,0.254823246,nan,nan,nan,[ nan  nan  nan],nan,nan,nan,148.9922513,274.8311086,275.0860069,nan,nan
0,112,17:17:21:141000,6,1,405,284.765625,[ 0.01846332  0.46800938 -0.47629333],1,1,1,0.073092239,0,1,0,0.209538917,0.400949023,0.147496478,0.548445501,0.253452545,nan,nan,nan,[ nan  nan  nan],nan,nan,nan,148.9922513,275.7728845,275.8459768,nan,nan
0,113,17:17:22:093000,6,1,466,327.65625,[ 0.46478901  0.3683856  -1.        ],1,nan,nan,nan,0,0,0,0.163995253,0.397913312,0.150132731,0.548046043,0.247780581,nan,nan,nan,[ nan  nan  nan],nan,nan,nan,148.9922513,276.7146789,nan,nan,nan
0,114,17:17:23:029000,6,1,39,27.421875,[ 1.          0.02537899 -1.        ],1,1,1,0.541491141,0,0,0,0.30729169,0.397913312,0.150132731,0.548046043,0.247780581,nan,nan,nan,[ nan  nan  nan],nan,nan,nan,148.9922513,277.6564705,278.1979617,nan,nan
0,115,17:17:23:980000,6,1,192,135,[ 1.         -0.06359976  0.42165841],1,1,1,0.311688326,0,0,0,0.426589734,0.39923054,0.150068114,0.549298654,0.249162425,nan,nan,nan,[ nan  nan  nan],nan,nan,nan,148.9922513,278.5982593,278.9099476,nan,nan
0,116,17:17:24:916000,6,0,479,336.796875,[ 0.57257215  0.33176822 -1.        ],0,1,0,0.249894229,0,0,0,0.367691232,0.398434702,0.149615319,0.548050021,0.248819382,nan,nan,nan,[ nan  nan  nan],nan,nan,nan,148.9922513,279.540046,279.7899402,nan,nan
0,117,17:17:25:852000,6,1,41,28.828125,[ 1.         0.0148395 -1.       ],1,1,1,0.212089687,0,0,0,0.257890747,0.397096499,0.149599685,0.546696184,0.247496814,nan,nan,nan,[ nan  nan  nan],nan,nan,nan,148.9922513,280.4818344,280.6939241,nan,nan
0,118,17:17:26:804000,6,1,472,331.875,[ 0.51429865  0.35221228 -1.        ],1,1,1,0.494241594,0,0,0,0.318741837,0.395444653,0.149943716,0.545388369,0.245500936,nan,nan,nan,[ nan  nan  nan],nan,nan,nan,148.9922513,281.423648,281.9178895,nan,nan
0,119,17:17:27:740000,6,1,226,158.90625,[ 0.80126593  0.12020899  0.60458277],1,1,1,0.360462577,0,0,0,0.355597953,0.396318962,0.14956526,0.545884222,0.246753701,nan,nan,nan,[ nan  nan  nan],nan,nan,nan,148.9922513,282.3654142,282.7258767,nan,nan
0,120,17:17:28:676000,6,1,280,196.875,[ 0.22808935  0.34201885  0.61587222],1,1,1,0.370661952,0,0,0,0.408455374,0.396004432,0.148945359,0.544949791,0.247059073,nan,nan,nan,[ nan  nan  nan],nan,nan,nan,148.9922513,283.3071978,283.6778597,nan,nan
0,121,17:17:29:628000,6,1,121,85.078125,[ 1.         -0.31073281 -0.22964081],1,1,1,0.588848456,0,0,0,0.439990995,0.395784063,0.148315021,0.544099084,0.247469041,nan,nan,nan,[ nan  nan  nan],nan,nan,nan,148.9922513,284.2489873,284.8378358,nan,nan
0,122,17:17:30:564000,6,1,240,168.75,[ 0.65437302  0.18801506  0.64246395],1,1,1,0.359052768,0,0,0,0.439521058,0.397448411,0.148749016,0.546197426,0.248699395,nan,nan,nan,[ nan  nan  nan],nan,nan,nan,148.9922513,285.1907752,285.549828,nan,nan
0,123,17:17:31:515000,6,1,501,352.265625,[ 0.75644923  0.25625354 -1.        ],1,1,1,0.337253333,0,0,0,0.428384852,0.397120243,0.148154138,0.545274381,0.248966105,nan,nan,nan,[ nan  nan  nan],nan,nan,nan,148.9922513,286.1325668,286.4698201,nan,nan
0,124,17:17:32:451000,6,1,433,304.453125,[ 0.2065363   0.43616372 -1.        ],1,1,1,0.523438747,0,0,0,0.406581616,0.396612896,0.147627066,0.544239962,0.24898583,nan,nan,nan,[ nan  nan  nan],nan,nan,nan,148.9922513,287.0743529,287.5977917,nan,nan
0,125,17:17:33:387000,6,1,5,3.515625,[ 0.88714031  0.19065985 -1.        ],1,1,1,0.605629314,0,0,0,0.488773798,0.39767866,0.14746064,0.5451393,0.25021802,nan,nan,nan,[ nan  nan  nan],nan,nan,nan,148.9922513,288.0161465,288.6217758,nan,nan
0,126,17:17:34:339000,6,1,369,259.453125,[-0.14769469  0.47799919 -0.05643387],1,nan,nan,nan,0,0,0,0.56453403,0.399411582,0.148056727,0.547468309,0.251354855,nan,nan,nan,[ nan  nan  nan],nan,nan,nan,148.9922513,288.9579489,nan,nan,nan
0,127,17:17:35:275000,6,1,14,9.84375,[ 0.95801505  0.15002356 -1.        ],1,1,1,0.002034743,0,0,0,0.303832028,0.399411582,0.148056727,0.547468309,0.251354855,nan,nan,nan,[ nan  nan  nan],nan,nan,nan,148.9922513,289.8997183,289.901753,nan,nan
0,128,17:17:36:211000,6,1,168,118.125,[ 1.         -0.19079002  0.2303618 ],1,1,1,0.612233605,0,0,0,0.307134174,0.396127476,0.151769144,0.54789662,0.244358332,nan,nan,nan,[ nan  nan  nan],nan,nan,nan,148.9922513,290.8414873,291.4537209,nan,nan
0,129,17:17:37:162000,6,1,331,232.734375,[-0.14329784  0.45080175  0.31116671],1,1,1,0.406457979,0,0,0,0.340242109,0.397898837,0.152396638,0.550295475,0.2455022,nan,nan,nan,[ nan  nan  nan],nan,nan,nan,148.9922513,291.7832555,292.1897135,nan,nan
0,130,17:17:38:098000,6,1,190,133.59375,[ 1.         -0.07468844  0.40739964],1,1,1,0.392627598,0,0,0,0.470439727,0.397968424,0.151777821,0.549746245,0.246190603,nan,nan,nan,[ nan  nan  nan],nan,nan,nan,148.9922513,292.7250659,293.1176935,nan,nan
0,131,17:17:39:034000,6,1,117,82.265625,[ 1.         -0.30758797 -0.27188654],1,1,1,0.450810362,0,0,0,0.41663198,0.397925353,0.15116533,0.549090682,0.246760023,nan,nan,nan,[ nan  nan  nan],nan,nan,nan,148.9922513,293.6668717,294.1176821,nan,nan
0,132,17:17:39:986000,6,1,292,205.3125,[ 0.11288167  0.37606958  0.56926185],1,1,1,0.445014608,0,0,0,0.42948419,0.398348433,0.150633147,0.548981579,0.247715286,nan,nan,nan,[ nan  nan  nan],nan,nan,nan,148.9922513,294.6086505,295.0536651,nan,nan
0,133,17:17:40:922000,6,1,361,253.828125,[-0.16604781  0.47560771  0.02781731],1,1,1,0.3671906,0,0,0,0.42100519,0.398718799,0.150091336,0.548810135,0.248627463,nan,nan,nan,[ nan  nan  nan],nan,nan,nan,148.9922513,295.5504452,295.9176358,nan,nan
0,134,17:17:41:874000,6,1,314,220.78125,[-0.05944389  0.42463231  0.44192541],1,1,1,0.369320851,0,0,0,0.39384202,0.398470546,0.149525226,0.547995772,0.248945319,nan,nan,nan,[ nan  nan  nan],nan,nan,nan,148.9922513,296.4923046,296.8616255,nan,nan
0,135,17:17:42:810000,6,1,49,34.453125,[ 1.         -0.02778543 -1.        ],1,1,1,0.571574949,0,0,0,0.4360288,0.398242814,0.148962108,0.547204922,0.249280706,nan,nan,nan,[ nan  nan  nan],nan,nan,nan,148.9922513,297.4340247,298.0055996,nan,nan
0,136,17:17:43:746000,6,1,5,3.515625,[ 0.88714031  0.19065985 -1.        ],1,1,1,0.405785148,0,0,0,0.448893649,0.399586474,0.149160284,0.548746758,0.25042619,nan,nan,nan,[ nan  nan  nan],nan,nan,nan,148.9922513,298.3758151,298.7816002,nan,nan
0,137,17:17:44:697000,6,0,120,84.375,[ 1.         -0.3101615  -0.24016291],0,0,1,0.655962194,0,0,0,0.544440764,0.399634156,0.14858647,0.548220626,0.251047686,nan,nan,nan,[ nan  nan  nan],nan,nan,nan,148.9922513,299.3176001,299.9735623,nan,nan
0,138,17:17:45:633000,6,1,482,338.90625,[ 0.59765563  0.32248081 -1.        ],1,1,1,0.314182077,0,0,0,0.45864314,0.401590858,0.149690127,0.551280986,0.251900731,nan,nan,nan,[ nan  nan  nan],nan,nan,nan,148.9922513,300.2593917,300.5735738,nan,nan
0,139,17:17:46:569000,6,1,59,41.484375,[ 1.         -0.08144099 -1.        ],1,1,1,0.500396286,0,0,0,0.490180186,0.400928671,0.14931452,0.55024319,0.251614151,nan,nan,nan,[ nan  nan  nan],nan,nan,nan,148.9922513,301.2011781,301.7015744,nan,nan
0,140,17:17:47:521000,6,1,205,144.140625,[ 1.          0.008548    0.50553524],1,1,1,0.382561935,0,0,0,0.399046766,0.401676548,0.149000086,0.550676634,0.252676461,nan,nan,nan,[ nan  nan  nan],nan,nan,nan,148.9922513,302.1429666,302.5255285,nan,nan
0,141,17:17:48:457000,6,1,452,317.8125,[ 0.35173807  0.40140621 -1.        ],1,1,1,0.344753402,0,0,0,0.409237207,0.401533901,0.14845219,0.549986091,0.253081711,nan,nan,nan,[ nan  nan  nan],nan,nan,nan,148.9922513,303.084755,303.4295084,nan,nan
0,142,17:17:49:409000,6,1,344,241.875,[-0.17254346  0.46473023  0.19550382],1,1,1,0.338967912,0,0,0,0.355427749,0.401113305,0.14798146,0.549094765,0.253131845,nan,nan,nan,[ nan  nan  nan],nan,nan,nan,148.9922513,304.0265546,304.3655225,nan,nan
0,143,17:17:50:345000,6,0,395,277.734375,[-0.03839842  0.47418351 -0.35142722],0,1,0,0.229154788,0,0,0,0.304292034,0.400656353,0.147531972,0.548188325,0.253124382,nan,nan,nan,[ nan  nan  nan],nan,nan,nan,148.9922513,304.9683319,305.1974867,nan,nan
0,144,17:17:51:281000,6,1,34,23.90625,[ 1.          0.05144197 -1.        ],1,1,1,0.607345317,0,0,0,0.391822672,0.399404517,0.14771572,0.547120237,0.251688797,nan,nan,nan,[ nan  nan  nan],nan,nan,nan,148.9922513,305.9101121,306.5174574,nan,nan
0,145,17:17:52:232000,6,1,92,64.6875,[ 1.         -0.24170366 -0.55060884],1,1,1,0.337531874,0,0,0,0.391343993,0.400911335,0.148232509,0.549143844,0.252678825,nan,nan,nan,[ nan  nan  nan],nan,nan,nan,148.9922513,306.8519145,307.1894464,nan,nan
0,146,17:17:53:168000,6,0,141,99.140625,[ 1.         -0.29195274 -0.02458685],0,0,1,0.683728726,0,0,0,0.542868639,0.400455367,0.147795432,0.548250799,0.252659936,nan,nan,nan,[ nan  nan  nan],nan,nan,nan,148.9922513,307.7936838,308.4774126,nan,nan
0,147,17:17:54:104000,6,1,268,188.4375,[ 0.35230222  0.30236752  0.64500531],1,1,1,0.301926007,0,0,0,0.441062202,0.402478748,0.149186261,0.55166501,0.253292487,nan,nan,nan,[ nan  nan  nan],nan,nan,nan,148.9922513,308.7354828,309.0374088,nan,nan
0,148,17:17:55:056000,6,1,84,59.0625,[ 1.         -0.20765784 -0.65219109],1,1,1,0.536114197,0,0,0,0.50725631,0.401765608,0.148895575,0.550661184,0.252870033,nan,nan,nan,[ nan  nan  nan],nan,nan,nan,148.9922513,309.6772727,310.2133869,nan,nan
0,149,17:17:55:992000,6,1,273,191.953125,[ 0.29973296  0.31957719  0.63503803],1,1,1,0.442329272,0,0,0,0.426789825,0.402711725,0.148795096,0.551506822,0.253916629,nan,nan,nan,[ nan  nan  nan],nan,nan,nan,148.9922513,310.6190506,311.0613799,nan,nan
0,150,17:17:56:943000,6,1,189,132.890625,[ 1.         -0.08021946  0.40014347],1,1,1,0.332471958,0,0,0,0.436971809,0.402988771,0.14831067,0.551299441,0.254678101,nan,nan,nan,[ nan  nan  nan],nan,nan,nan,148.9922513,311.5608906,311.8933626,nan,nan
0,151,17:17:57:879000,6,1,112,78.75,[ 1.         -0.30050152 -0.32532486],1,1,1,0.422700572,0,0,0,0.399167267,0.402499071,0.147910773,0.550409844,0.254588298,nan,nan,nan,[ nan  nan  nan],nan,nan,nan,148.9922513,312.502638,312.9253386,nan,nan
0,152,17:17:58:815000,6,1,221,155.390625,[ 0.85178146  0.09454116  0.58542294],1,1,1,0.376905594,0,0,0,0.377359375,0.402638392,0.147409334,0.550047726,0.255229058,nan,nan,nan,[ nan  nan  nan],nan,nan,nan,148.9922513,313.4444265,313.821332,nan,nan
0,153,17:17:59:767000,6,1,389,273.515625,[-0.06912081  0.47662608 -0.28023432],1,1,1,0.347092915,0,0,0,0.382233027,0.40246214,0.14691897,0.54938111,0.255543169,nan,nan,nan,[ nan  nan  nan],nan,nan,nan,148.9922513,314.3862169,314.7333098,nan,nan
0,154,17:18:00:703000,6,1,466,327.65625,[ 0.46478901  0.3683856  -1.        ],1,1,1,0.365289283,0,0,0,0.36309593,0.402085478,0.14648911,0.548574589,0.255596368,nan,nan,nan,[ nan  nan  nan],nan,nan,nan,148.9922513,315.3279985,315.6932878,nan,nan
0,155,17:18:01:639000,6,1,109,76.640625,[ 1.         -0.29463833 -0.3577737 ],1,1,1,0.311491894,0,0,0,0.341291364,0.401836855,0.146024492,0.547861348,0.255812363,nan,nan,nan,[ nan  nan  nan],nan,nan,nan,148.9922513,316.2697958,316.5812877,nan,nan
0,156,17:18:02:591000,6,1,382,268.59375,[-0.10118876  0.47829114 -0.19973227],1,1,1,0.369688057,0,0,0,0.348823078,0.401230513,0.145720473,0.546950986,0.25551004,nan,nan,nan,[ nan  nan  nan],nan,nan,nan,148.9922513,317.2115777,317.5812657,nan,nan
0,157,17:18:03:527000,6,1,240,168.75,[ 0.65437302  0.18801506  0.64246395],1,1,1,0.395860608,0,0,0,0.35901352,0.40102023,0.145256607,0.546276837,0.255763623,nan,nan,nan,[ nan  nan  nan],nan,nan,nan,148.9922513,318.1533721,318.5492327,nan,nan
0,158,17:18:04:478000,6,0,436,306.5625,[ 0.22868171  0.43141373 -1.        ],0,0,1,0.590009659,0,0,0,0.451852775,0.40098606,0.144775431,0.545761491,0.25621063,nan,nan,nan,[ nan  nan  nan],nan,nan,nan,148.9922513,319.0952013,319.685211,nan,nan
0,159,17:18:05:414000,6,1,108,75.9375,[ 1.         -0.29242661 -0.36866329],1,1,1,0.336262904,0,0,0,0.440711057,0.402229637,0.145105306,0.547334943,0.257124331,nan,nan,nan,[ nan  nan  nan],nan,nan,nan,148.9922513,320.0369435,320.3732065,nan,nan
0,160,17:18:06:350000,6,1,464,326.25,[ 0.44840488  0.37350356 -1.        ],1,1,1,0.322490113,0,0,0,0.416254225,0.401798482,0.144727979,0.546526461,0.257070503,nan,nan,nan,[ nan  nan  nan],nan,nan,nan,148.9922513,320.9787291,321.3012192,nan,nan
0,161,17:18:07:302000,6,1,176,123.75,[ 1.         -0.15042967  0.29867547],1,1,1,0.372647943,0,0,0,0.34380032,0.401283492,0.144397893,0.545681385,0.256885599,nan,nan,nan,[ nan  nan  nan],nan,nan,nan,148.9922513,321.920521,322.2931689,nan,nan
0,162,17:18:08:238000,6,1,426,299.53125,[ 0.15619305  0.44621085 -0.8148597 ],1,1,1,0.382859862,0,0,0,0.359332639,0.401098747,0.143949598,0.545048344,0.257149149,nan,nan,nan,[ nan  nan  nan],nan,nan,nan,148.9922513,322.8623069,323.2451667,nan,nan
0,163,17:18:09:174000,6,1,100,70.3125,[ 1.         -0.27042709 -0.4574399 ],1,1,1,0.321055215,0,0,0,0.35885434,0.400981831,0.143494862,0.544476693,0.257486969,nan,nan,nan,[ nan  nan  nan],nan,nan,nan,148.9922513,323.8040953,324.1251505,nan,nan
0,164,17:18:10:125000,6,0,182,127.96875,[ 1.         -0.11852384  0.34708947],0,nan,nan,nan,0,0,0,0.351957539,0.400472744,0.1431784,0.543651144,0.257294344,nan,nan,nan,[ nan  nan  nan],nan,nan,nan,148.9922513,324.7458855,nan,nan,nan
0,165,17:18:11:061000,6,1,315,221.484375,[-0.06571114  0.42643481  0.43495652],1,1,1,0.40541281,0,0,0,0.363234013,0.400472744,0.1431784,0.543651144,0.257294344,nan,nan,nan,[ nan  nan  nan],nan,nan,nan,148.9922513,325.6876713,326.0930842,nan,nan
0,166,17:18:12:013000,6,1,67,47.109375,[ 1.         -0.12380467 -1.        ],1,1,1,0.543546982,0,0,0,0.474479896,0.40050401,0.142725123,0.543229133,0.257778888,nan,nan,nan,[ nan  nan  nan],nan,nan,nan,148.9922513,326.629551,327.173098,nan,nan
0,167,17:18:12:949000,6,1,187,131.484375,[ 1.         -0.09124635  0.38538321],1,1,1,0.761826428,0,0,1,0.570262073,0.401403652,0.142724288,0.54412794,0.258679363,nan,nan,nan,[ nan  nan  nan],nan,nan,nan,148.9922513,327.5712528,328.3330792,nan,nan
0,168,17:18:17:301000,6,1,267,187.734375,[ 0.36292453  0.29880723  0.64662252],1,1,1,0.468019152,1,0,0,0.591130854,0.403656294,0.145085278,0.548741572,0.258571016,nan,-94.74051057,263,[ 0.4056988   0.28417174  0.65182989],nan,-2.993864426,1.367197728,148.9922513,328.5130352,328.9810544,330.3382395,331.7134291
0,169,17:18:18:237000,6,1,7,4.921875,[ 0.90309146  0.18185306 -1.        ],1,1,1,0.773393702,0,0,0,0.667746427,0.404056063,0.144722371,0.548778434,0.259333693,nan,nan,nan,[ nan  nan  nan],nan,nan,nan,148.9922513,332.8635627,333.6369564,nan,nan
0,170,17:18:19:189000,6,1,426,299.53125,[ 0.15619305  0.44621085 -0.8148597 ],1,1,1,0.639563652,0,0,0,0.626992169,0.406335925,0.147146588,0.553482513,0.259189338,nan,nan,nan,[ nan  nan  nan],nan,nan,nan,148.9922513,333.8053817,334.4449453,nan,nan
0,171,17:18:20:125000,6,1,473,332.578125,[ 0.52259481  0.34939617 -1.        ],1,1,1,0.601761391,0,0,1,0.671572915,0.40776677,0.147820663,0.555587434,0.259946107,nan,nan,nan,[ nan  nan  nan],nan,nan,nan,148.9922513,334.7471781,335.3489395,nan,nan
0,172,17:18:25:351000,6,0,390,274.21875,[-0.06419603  0.4762842  -0.29194755],0,0,1,0.675976061,1,0,0,0.639100368,0.408949664,0.148141105,0.557090769,0.26080856,nan,-161.9894566,358,[-0.17058391  0.47426832  0.05858744],nan,-22.2292934,2.242234505,148.9922513,335.6889526,336.3649286,337.5141625,339.7644351
0,173,17:18:26:287000,6,1,218,153.28125,[ 0.88146739  0.07882461  0.57255963],1,1,1,0.490182942,0,0,0,0.589306798,0.410568006,0.149138537,0.559706543,0.26142947,nan,nan,nan,[ nan  nan  nan],nan,nan,nan,148.9922513,340.9146383,341.4048212,nan,nan
0,174,17:18:27:239000,6,1,20,14.0625,[ 1.          0.12155819 -1.        ],1,1,1,0.340394826,0,0,0,0.50218461,0.411047614,0.14881622,0.559863834,0.262231394,nan,nan,nan,[ nan  nan  nan],nan,nan,nan,148.9922513,341.856433,342.1968278,nan,nan
0,175,17:18:28:175000,6,1,152,106.875,[ 1.         -0.25918449  0.08306255],1,1,1,0.318587124,0,0,0,0.383054964,0.410624544,0.148470088,0.559094631,0.262154456,nan,nan,nan,[ nan  nan  nan],nan,nan,nan,148.9922513,342.7982186,343.1168057,nan,nan
0,176,17:18:29:111000,6,1,273,191.953125,[ 0.29973296  0.31957719  0.63503803],1,1,1,0.088784879,0,1,0,0.24925561,0.410076702,0.148196755,0.558273457,0.261879946,nan,nan,nan,[ nan  nan  nan],nan,nan,nan,148.9922513,343.740007,343.8287919,nan,nan
0,177,17:18:33:213000,6,1,426,299.53125,[ 0.15619305  0.44621085 -0.8148597 ],1,1,1,0.002964447,1,0,0,0.136778817,0.408175567,0.149798294,0.55797386,0.258377273,nan,165.367637,405,[ 0.01846332  0.46800938 -0.47629333],nan,-14.89888698,1.092160437,148.9922513,344.6817909,344.6847554,346.5153274,347.6154797
0,178,17:18:34:149000,6,1,143,100.546875,[ 1.         -0.28705753 -0.00469999],1,1,1,0.438720504,0,0,0,0.176823277,0.405791972,0.152537566,0.558329538,0.253254405,nan,nan,nan,[ nan  nan  nan],nan,nan,nan,148.9922513,348.7739764,349.2126969,nan,nan
0,179,17:18:35:085000,6,1,237,166.640625,[ 0.6863873   0.17403185  0.63634982],1,1,1,0.408916092,0,0,0,0.283533681,0.405984536,0.152111619,0.558096155,0.253872918,nan,nan,nan,[ nan  nan  nan],nan,nan,nan,148.9922513,349.7157732,350.1246892,nan,nan
0,180,17:18:36:037000,6,1,184,129.375,[ 1.         -0.10767189  0.36264005],1,1,1,0.411044633,0,0,0,0.41956041,0.40600158,0.151668953,0.557670533,0.254332628,nan,nan,nan,[ nan  nan  nan],nan,nan,nan,148.9922513,350.6576106,351.0686553,nan,nan
0,181,17:18:36:973000,6,1,498,350.15625,[ 0.73150794  0.26756188 -1.        ],1,1,1,0.477293384,0,0,0,0.432418036,0.406030731,0.151230451,0.557261182,0.25480028,nan,nan,nan,[ nan  nan  nan],nan,nan,nan,148.9922513,351.599352,352.0766454,nan,nan
0,182,17:18:37:925000,6,1,450,316.40625,[ 0.33594973  0.40559833 -1.        ],1,1,1,0.399490758,0,0,0,0.429276258,0.406440286,0.150891441,0.557331728,0.255548845,nan,nan,nan,[ nan  nan  nan],nan,nan,nan,148.9922513,352.5411442,352.9406349,nan,nan
0,183,17:18:38:861000,6,1,365,256.640625,[-0.15796203  0.47701659 -0.01391969],1,1,1,0.489688867,0,0,0,0.455491003,0.406400575,0.150460617,0.556861192,0.255939958,nan,nan,nan,[ nan  nan  nan],nan,nan,nan,148.9922513,353.4829301,353.9726189,nan,nan
0,184,17:18:39:797000,6,1,198,139.21875,[ 1.         -0.0302355   0.46232694],1,1,1,0.451876913,0,0,0,0.447018846,0.406873804,0.150163113,0.557036917,0.25671069,nan,nan,nan,[ nan  nan  nan],nan,nan,nan,148.9922513,354.4247194,354.8765963,nan,nan
0,185,17:18:40:748000,6,1,69,48.515625,[ 1.         -0.1342072  -0.93964801],1,1,1,0.366050209,0,0,0,0.435871996,0.407128059,0.14977631,0.556904368,0.257351749,nan,nan,nan,[ nan  nan  nan],nan,nan,nan,148.9922513,355.3665081,355.7325583,nan,nan
0,186,17:18:41:684000,6,1,265,186.328125,[ 0.38425915  0.29156831  0.64947886],1,1,1,0.392220479,0,0,0,0.403382534,0.406897284,0.149386551,0.556283835,0.257510733,nan,nan,nan,[ nan  nan  nan],nan,nan,nan,148.9922513,356.3082894,356.7005099,nan,nan
0,187,17:18:42:620000,6,1,65,45.703125,[ 1.         -0.11331216 -1.        ],1,1,1,0.482447667,0,0,0,0.413572785,0.406815291,0.148972702,0.555787993,0.257842589,nan,nan,nan,[ nan  nan  nan],nan,nan,nan,148.9922513,357.2500935,357.7325412,nan,nan
0,188,17:18:43:572000,6,0,166,116.71875,[ 1.         -0.20036215  0.21267421],0,1,0,0.348559173,0,0,0,0.40774244,0.407235471,0.148664639,0.55590011,0.258570831,nan,nan,nan,[ nan  nan  nan],nan,nan,nan,148.9922513,358.1919661,358.5405252,nan,nan
0,189,17:18:44:508000,6,1,55,38.671875,[ 1.         -0.05999965 -1.        ],1,1,1,0.334856516,0,0,0,0.388621119,0.406911292,0.148317179,0.555228471,0.258594113,nan,nan,nan,[ nan  nan  nan],nan,nan,nan,148.9922513,359.1336573,359.4685138,nan,nan
0,190,17:18:45:459000,6,1,119,83.671875,[ 1.         -0.30944633 -0.2507109 ],1,1,1,0.457043456,0,0,0,0.380153048,0.406515387,0.148005026,0.554520413,0.258510361,nan,nan,nan,[ nan  nan  nan],nan,nan,nan,148.9922513,360.07545,360.5324935,nan,nan
0,191,17:18:46:395000,6,1,461,324.140625,[ 0.42395965  0.38092737 -1.        ],1,1,1,0.723238152,0,0,0,0.505046041,0.406791497,0.147647081,0.554438578,0.259144416,nan,nan,nan,[ nan  nan  nan],nan,nan,nan,148.9922513,361.0172353,361.7404735,nan,nan
0,192,17:18:47:331000,6,1,331,232.734375,[-0.14329784  0.45080175  0.31116671],1,nan,nan,nan,0,0,0,0.590140804,0.408511315,0.149071987,0.557583302,0.259439329,nan,nan,nan,[ nan  nan  nan],nan,nan,nan,148.9922513,361.9590249,nan,nan,nan
0,193,17:18:48:283000,6,1,388,272.8125,[-0.07396337  0.47694192 -0.26857716],1,nan,nan,nan,0,0,0,0.723238152,0.408511315,0.149071987,0.557583302,0.259439329,nan,nan,nan,[ nan  nan  nan],nan,nan,nan,148.9922513,362.9007768,nan,nan,nan
0,194,17:18:49:219000,6,1,181,127.265625,[ 1.         -0.12391439  0.33920113],1,1,1,0.29782459,0,0,0,0.29782459,0.408511315,0.149071987,0.557583302,0.259439329,nan,nan,nan,[ nan  nan  nan],nan,nan,nan,148.9922513,363.8426038,364.1404284,nan,nan
0,195,17:18:50:155000,6,0,115,80.859375,[ 1.         -0.30516629 -0.29317275],0,0,1,0.644021157,0,0,0,0.470922873,0.407913009,0.148889901,0.556802909,0.259023108,nan,nan,nan,[ nan  nan  nan],nan,nan,nan,148.9922513,364.7843916,365.4284128,nan,nan
0,196,17:18:51:107000,6,1,381,267.890625,[-0.10540306  0.47842508 -0.18843114],1,1,1,0.342189517,0,0,0,0.428011754,0.409182407,0.14948954,0.558671947,0.259692867,nan,nan,nan,[ nan  nan  nan],nan,nan,nan,148.9922513,365.7262117,366.0684012,nan,nan
0,197,17:18:52:043000,6,1,44,30.9375,[ 1.         -0.00106984 -1.        ],1,1,1,0.592417025,0,0,0,0.526209233,0.408824157,0.149169337,0.557993494,0.259654819,nan,nan,nan,[ nan  nan  nan],nan,nan,nan,148.9922513,366.6679671,367.2603841,nan,nan
0,198,17:18:52:979000,6,1,408,286.875,[ 0.03673793  0.46563766 -0.51593845],1,1,1,0.482599339,0,0,0,0.472401961,0.409800714,0.149370237,0.559170951,0.260430478,nan,nan,nan,[ nan  nan  nan],nan,nan,nan,148.9922513,367.6097581,368.0923574,nan,nan
0,199,17:18:53:930000,6,1,443,311.484375,[ 0.28155878  0.41926821 -1.        ],1,1,1,0.652799889,0,0,1,0.575938751,0.410185892,0.149068137,0.55925403,0.261117755,nan,nan,nan,[ nan  nan  nan],nan,nan,nan,148.9922513,368.5515437,369.2043436,nan,nan
0,200,17:18:59:375000,6,1,332,233.4375,[-0.14664709  0.45205424  0.30271419],1,1,1,0.566998559,1,0,0,0.567465929,0.411462808,0.149708124,0.561170932,0.261754684,nan,-146.234444,336,[-0.15821161  0.45675811  0.26813527],nan,2.796944007,2.450631036,148.9922513,369.493331,370.0603296,371.3185344,373.7771559
0,201,17:19:00:311000,6,1,475,333.984375,[ 0.53921875  0.34365981 -1.        ],1,1,1,0.556499261,0,0,0,0.592099236,0.412277131,0.149737011,0.562014143,0.26254012,nan,nan,nan,[ nan  nan  nan],nan,nan,nan,148.9922513,374.9357139,375.4922131,nan,nan
0,202,17:19:01:247000,6,1,231,162.421875,[ 0.74960968  0.14515127  0.62082146],1,1,1,0.558692804,0,0,0,0.560730208,0.413028288,0.14970693,0.562735218,0.263321358,nan,nan,nan,[ nan  nan  nan],nan,nan,nan,148.9922513,375.8774986,376.4361914,nan,nan
0,203,17:19:02:198000,6,1,154,108.28125,[ 1.         -0.25181315  0.10213817],1,1,1,0.320928632,0,0,0,0.478706899,0.413783027,0.149684363,0.56346739,0.264098663,nan,nan,nan,[ nan  nan  nan],nan,nan,nan,148.9922513,376.8192754,377.140204,nan,nan
0,204,17:19:03:134000,6,1,261,183.515625,[ 0.42722581  0.27661781  0.65367446],1,1,1,0.243131708,0,0,0,0.374251048,0.413304396,0.14944608,0.562750476,0.263858316,nan,nan,nan,[ nan  nan  nan],nan,nan,nan,148.9922513,377.7610666,378.0041984,nan,nan
0,205,17:19:04:086000,6,1,46,32.34375,[ 1.         -0.01173137 -1.        ],1,1,1,0.373305664,0,0,0,0.312455335,0.412431715,0.149557151,0.561988867,0.262874564,nan,nan,nan,[ nan  nan  nan],nan,nan,nan,148.9922513,378.7028497,379.0761553,nan,nan
0,206,17:19:05:022000,6,0,300,210.9375,[ 0.04335371  0.39574842  0.52895103],0,0,1,0.695496139,0,0,0,0.43731117,0.412232093,0.149201183,0.561433276,0.26303091,nan,nan,nan,[ nan  nan  nan],nan,nan,nan,148.9922513,379.644643,380.3401391,nan,nan
0,207,17:19:05:958000,6,1,123,86.484375,[ 1.         -0.31144114 -0.20867286],1,1,1,0.257699067,0,0,0,0.442166956,0.413669981,0.150177321,0.563847302,0.26349266,nan,nan,nan,[ nan  nan  nan],nan,nan,nan,148.9922513,380.5864308,380.8441299,nan,nan
0,208,17:19:06:909000,6,1,29,20.390625,[ 1.          0.07701739 -1.        ],1,1,1,0.36389715,0,0,0,0.439030785,0.412882249,0.150205077,0.563087327,0.262677172,nan,nan,nan,[ nan  nan  nan],nan,nan,nan,148.9922513,381.5282193,381.8921164,nan,nan
0,209,17:19:07:845000,6,1,91,63.984375,[ 1.         -0.2377099  -0.56272232],1,1,1,0.454078153,0,0,0,0.358558123,0.412636093,0.149867234,0.562503328,0.262768859,nan,nan,nan,[ nan  nan  nan],nan,nan,nan,148.9922513,382.4700123,382.9240904,nan,nan
0,210,17:19:08:781000,6,0,474,333.28125,[ 0.53090176  0.34654538 -1.        ],0,0,1,0.704246076,0,0,0,0.507407127,0.412843303,0.149520672,0.562363975,0.263322632,nan,nan,nan,[ nan  nan  nan],nan,nan,nan,148.9922513,383.4118361,384.1160821,nan,nan
0,211,17:19:09:733000,6,1,85,59.765625,[ 1.         -0.21215645 -0.63878123],1,1,1,0.394485866,0,0,0,0.517603365,0.414293068,0.150550885,0.564843954,0.263742183,nan,nan,nan,[ nan  nan  nan],nan,nan,nan,148.9922513,384.3535852,384.748071,nan,nan
0,212,17:19:10:669000,6,1,398,279.84375,[-0.02203778  0.4726088  -0.38794338],1,1,1,0.356685601,0,0,0,0.485139181,0.414195013,0.150184206,0.564379219,0.264010807,nan,nan,nan,[ nan  nan  nan],nan,nan,nan,148.9922513,385.295373,385.6520586,nan,nan
0,213,17:19:11:621000,6,1,48,33.75,[ 1.         -0.02242733 -1.        ],1,1,1,0.310888912,0,0,0,0.354020126,0.413911715,0.149867935,0.563779651,0.26404378,nan,nan,nan,[ nan  nan  nan],nan,nan,nan,148.9922513,386.2371606,386.5480495,nan,nan
0,214,17:19:12:557000,6,1,182,127.96875,[ 1.         -0.11852384  0.34708947],1,1,1,0.545078527,0,0,0,0.40421768,0.413406702,0.149673214,0.563079915,0.263733488,nan,nan,nan,[ nan  nan  nan],nan,nan,nan,148.9922513,387.1789408,387.7240193,nan,nan
0,215,17:19:13:493000,6,1,3,2.109375,[ 0.87108718  0.19933511 -1.        ],1,1,1,0.459268929,0,0,0,0.438412123,0.414049003,0.149589281,0.563638284,0.264459722,nan,nan,nan,[ nan  nan  nan],nan,nan,nan,148.9922513,388.1207398,388.5800087,nan,nan
0,216,17:19:14:444000,6,1,298,209.53125,[ 0.06008966  0.39105034  0.53969689],1,1,1,0.41345485,0,0,0,0.472600769,0.414268517,0.149258853,0.56352737,0.265009664,nan,nan,nan,[ nan  nan  nan],nan,nan,nan,148.9922513,389.0625245,389.4759794,nan,nan
0,217,17:19:15:380000,6,1,59,41.484375,[ 1.         -0.08144099 -1.        ],1,1,1,0.335669045,0,0,0,0.402797608,0.414264587,0.148897899,0.563162485,0.265366688,nan,nan,nan,[ nan  nan  nan],nan,nan,nan,148.9922513,390.0043075,390.3399766,nan,nan
0,218,17:19:16:316000,6,1,391,274.921875,[-0.0591908   0.47591628 -0.30371871],1,1,1,0.329827675,0,0,0,0.359650523,0.413886723,0.148638994,0.562525717,0.26524773,nan,nan,nan,[ nan  nan  nan],nan,nan,nan,148.9922513,390.9461256,391.2759533,nan,nan
0,219,17:19:17:268000,6,1,498,350.15625,[ 0.73150794  0.26756188 -1.        ],1,1,1,0.396039079,0,0,0,0.353845266,0.413484527,0.148396382,0.561880909,0.265088145,nan,nan,nan,[ nan  nan  nan],nan,nan,nan,148.9922513,391.8878898,392.2839289,nan,nan
0,220,17:19:18:204000,6,1,77,54.140625,[ 1.         -0.17459302 -0.75626719],1,1,1,0.534227419,0,0,0,0.420031391,0.413401454,0.148047507,0.56144896,0.265353947,nan,nan,nan,[ nan  nan  nan],nan,nan,nan,148.9922513,392.8296874,393.3639148,nan,nan
0,221,17:19:19:155000,6,1,431,303.046875,[ 0.19195726  0.43918129 -0.98229877],1,1,1,0.600422572,0,0,0,0.51022969,0.413974088,0.147929201,0.561903289,0.266044888,nan,nan,nan,[ nan  nan  nan],nan,nan,nan,148.9922513,393.7714701,394.3718927,nan,nan
0,222,17:19:20:091000,6,1,253,177.890625,[ 0.5138659   0.24483993  0.65597719],1,1,1,0.658630424,0,0,1,0.597760138,0.414853562,0.148131798,0.562985361,0.266721764,nan,nan,nan,[ nan  nan  nan],nan,nan,nan,148.9922513,394.7132555,395.3718859,nan,nan
0,223,17:19:24:959000,6,1,173,121.640625,[ 1.         -0.16590952  0.27353519],1,1,1,0.524812919,1,0,0,0.594621972,0.415998055,0.148720213,0.564718267,0.267277842,nan,-62.44718842,217,[ 0.89125041  0.07353733  0.56804835],nan,30.80656342,1.87551118,148.9922513,395.6550439,396.1798568,397.4802456,399.3637959
0,224,17:19:25:895000,6,1,272,191.25,[ 0.3101667   0.31621412  0.63728143],1,1,1,0.585395636,0,0,0,0.589612993,0.416506535,0.148557799,0.565064334,0.267948737,nan,nan,nan,[ nan  nan  nan],nan,nan,nan,148.9922513,400.5223654,401.107761,nan,nan
0,225,17:19:26:846000,6,1,468,329.0625,[ 0.48123648  0.36313162 -1.        ],1,1,1,0.459633855,0,0,0,0.523280803,0.417292066,0.148656724,0.56594879,0.268635342,nan,nan,nan,[ nan  nan  nan],nan,nan,nan,148.9922513,401.464123,401.9237569,nan,nan
0,226,17:19:27:782000,6,1,293,206.015625,[ 0.10383026  0.3786596   0.56461706],1,1,1,0.477841057,0,0,0,0.507623516,0.417488093,0.148340062,0.565828155,0.269148031,nan,nan,nan,[ nan  nan  nan],nan,nan,nan,148.9922513,402.4059089,402.8837499,nan,nan
0,227,17:19:28:718000,6,1,424,298.125,[ 0.14217456  0.44881957 -0.77022942],1,1,1,0.408043123,0,0,0,0.448506011,0.417766217,0.148054307,0.565820524,0.26971191,nan,nan,nan,[ nan  nan  nan],nan,nan,nan,148.9922513,403.3477044,403.7557476,nan,nan
0,228,17:19:29:670000,6,1,60,42.1875,[ 1.         -0.08678377 -1.        ],1,1,1,0.450227052,0,0,0,0.44537041,0.417721616,0.147715804,0.565437419,0.270005812,nan,nan,nan,[ nan  nan  nan],nan,nan,nan,148.9922513,404.2894915,404.7397185,nan,nan
0,229,17:19:30:606000,6,0,361,253.828125,[-0.16604781  0.47560771  0.02781731],0,nan,nan,nan,0,0,0,0.429135087,0.417870042,0.14739446,0.565264502,0.270475583,nan,nan,nan,[ nan  nan  nan],nan,nan,nan,148.9922513,405.2312822,nan,nan,nan
0,230,17:19:31:557000,6,1,12,8.4375,[ 0.94247669  0.15927395 -1.        ],1,1,1,0.390588579,0,0,0,0.420407815,0.417870042,0.14739446,0.565264502,0.270475583,nan,nan,nan,[ nan  nan  nan],nan,nan,nan,148.9922513,406.1730715,406.5636601,nan,nan
0,231,17:19:32:493000,6,1,395,277.734375,[-0.03839842  0.47418351 -0.35142722],1,1,1,0.632796855,0,0,0,0.511692717,0.417746036,0.14707054,0.564816576,0.270675495,nan,nan,nan,[ nan  nan  nan],nan,nan,nan,148.9922513,407.1148551,407.7476519,nan,nan
0,232,17:19:33:429000,6,1,248,174.375,[ 0.5681159   0.2237282   0.65329577],1,1,1,0.363010496,0,0,0,0.462131977,0.418719116,0.147445538,0.566164654,0.271273579,nan,nan,nan,[ nan  nan  nan],nan,nan,nan,148.9922513,408.0566455,408.419656,nan,nan
0,233,17:19:34:381000,6,1,484,340.3125,[ 0.61439895  0.31611274 -1.        ],1,1,1,0.317214378,0,0,0,0.43767391,0.418468177,0.14716037,0.565628546,0.271307807,nan,nan,nan,[ nan  nan  nan],nan,nan,nan,148.9922513,408.9984243,409.3156386,nan,nan
0,234,17:19:35:317000,6,1,147,103.359375,[ 1.         -0.27580113  0.03467205],1,1,1,0.447383486,0,0,0,0.375869453,0.418014124,0.146985815,0.564999939,0.271028308,nan,nan,nan,[ nan  nan  nan],nan,nan,nan,148.9922513,409.9402244,410.3876079,nan,nan
0,235,17:19:36:253000,6,1,451,317.109375,[ 0.34383096  0.40351836 -1.        ],1,1,1,0.417589338,0,0,0,0.394062401,0.418145237,0.146670424,0.564815661,0.271474813,nan,nan,nan,[ nan  nan  nan],nan,nan,nan,148.9922513,410.882012,411.2996013,nan,nan
0,236,17:19:37:205000,6,1,161,113.203125,[ 1.         -0.22315835  0.16749055],1,1,1,0.419783736,0,0,0,0.428252187,0.418142766,0.146344132,0.564486898,0.271798635,nan,nan,nan,[ nan  nan  nan],nan,nan,nan,148.9922513,411.8237959,412.2435796,nan,nan
0,237,17:19:38:141000,6,1,379,266.484375,[-0.11353594  0.47861499 -0.16597052],1,1,1,0.421979274,0,0,0,0.419784116,0.418150027,0.146020043,0.56417007,0.272129984,nan,nan,nan,[ nan  nan  nan],nan,nan,nan,148.9922513,412.7655863,413.1875656,nan,nan
0,238,17:19:39:077000,6,1,75,52.734375,[ 1.         -0.16471446 -0.79135592],1,1,1,0.384161048,0,0,0,0.408641353,0.418166896,0.145698279,0.563865175,0.272468618,nan,nan,nan,[ nan  nan  nan],nan,nan,nan,148.9922513,413.7073779,414.0915389,nan,nan
0,239,17:19:40:028000,6,1,474,333.28125,[ 0.53090176  0.34654538 -1.        ],1,1,1,0.354359203,0,0,0,0.386833175,0.418017748,0.14539578,0.563413528,0.272621968,nan,nan,nan,[ nan  nan  nan],nan,nan,nan,148.9922513,414.6491692,415.0035284,nan,nan
0,240,17:19:40:964000,6,1,428,300.9375,[ 0.17037832  0.44348657 -0.8686614 ],1,1,1,0.34855233,0,0,0,0.362357527,0.417739763,0.145138684,0.562878447,0.272601079,nan,nan,nan,[ nan  nan  nan],nan,nan,nan,148.9922513,415.5909559,415.9395082,nan,nan
0,241,17:19:41:916000,6,1,195,137.109375,[ 1.         -0.04692453  0.44239605],1,1,1,0.310744368,0,0,0,0.3378853,0.417438948,0.144894347,0.562333295,0.272544601,nan,nan,nan,[ nan  nan  nan],nan,nan,nan,148.9922513,416.5327429,416.8434873,nan,nan
0,242,17:19:42:852000,6,1,463,325.546875,[ 0.44023832  0.3760118  -1.        ],1,1,1,0.20895076,0,0,0,0.289415819,0.416977067,0.14474997,0.561727037,0.272227096,nan,nan,nan,[ nan  nan  nan],nan,nan,nan,148.9922513,417.4745302,417.683481,nan,nan
0,243,17:19:43:788000,6,1,281,197.578125,[ 0.2180834   0.34506839  0.61264442],1,1,1,0.115154147,0,1,0,0.211616425,0.416080401,0.145079175,0.561159577,0.271001226,nan,nan,nan,[ nan  nan  nan],nan,nan,nan,148.9922513,418.4163144,418.5314685,nan,nan
0,244,17:19:49:669000,6,1,206,144.84375,[ 0.99472346  0.01405192  0.51131616],1,1,1,0.797296303,1,0,0,0.373800403,0.414788873,0.146097979,0.560886851,0.268690894,nan,-49.36827743,198,[ 1.         -0.0302355   0.46232694],nan,-5.475472565,2.883971173,148.9922513,419.3580983,420.1553946,421.191643,424.0836677
0,245,17:19:50:605000,6,1,488,343.125,[ 0.64790771  0.30295149 -1.        ],1,1,1,0.505414293,0,0,0,0.472621581,0.41642352,0.147905361,0.56432888,0.268518159,nan,nan,nan,[ nan  nan  nan],nan,nan,nan,148.9922513,425.2338994,425.7393137,nan,nan
0,246,17:19:51:557000,6,1,72,50.625,[ 1.         -0.14960778 -0.85320374],1,1,1,0.40367913,0,0,0,0.568796575,0.416802204,0.147703969,0.564506172,0.269098235,nan,nan,nan,[ nan  nan  nan],nan,nan,nan,148.9922513,426.1756579,426.579337,nan,nan
0,247,17:19:52:493000,6,1,387,272.109375,[-0.07872193  0.47723176 -0.25697445],1,1,1,0.261874894,0,0,0,0.390322773,0.416746598,0.147393169,0.564139767,0.269353428,nan,nan,nan,[ nan  nan  nan],nan,nan,nan,148.9922513,427.117446,427.3793209,nan,nan
0,248,17:19:53:444000,6,1,264,185.625,[ 0.39496696  0.28788971  0.65071762],1,1,1,0.312083757,0,0,0,0.325879261,0.41609313,0.147424073,0.563517203,0.268669058,nan,nan,nan,[ nan  nan  nan],nan,nan,nan,148.9922513,428.0592539,428.3713376,nan,nan
0,249,17:19:54:380000,6,1,201,141.328125,[ 1.         -0.01357126  0.48142235],1,1,1,0.23426089,0,0,0,0.269406514,0.415656116,0.147267787,0.562923903,0.268388329,nan,nan,nan,[ nan  nan  nan],nan,nan,nan,148.9922513,429.0010158,429.2352767,nan,nan
0,250,17:19:55:316000,6,1,96,67.5,[ 1.         -0.25681952 -0.50330248],1,1,1,0.10050468,0,1,0,0.215616442,0.41489714,0.147425085,0.562322226,0.267472055,nan,nan,nan,[ nan  nan  nan],nan,nan,nan,148.9922513,429.9428074,430.0433121,nan,nan
0,251,17:20:01:338000,6,1,202,142.03125,[ 1.         -0.00802826  0.48759698],1,1,1,0.078647085,1,0,0,0.137804218,0.413587172,0.148504966,0.562092138,0.265082206,nan,-49.30866492,198,[ 1.         -0.0302355   0.46232694],nan,-2.722585083,3.025665076,148.9922513,430.8846035,430.9632506,432.7181221,435.7518349
0,252,17:20:02:274000,6,1,248,174.375,[ 0.5681159   0.2237282   0.65329577],1,1,1,0.461064475,0,0,0,0.213405414,0.412197379,0.149752401,0.56194978,0.262444978,nan,nan,nan,[ nan  nan  nan],nan,nan,nan,148.9922513,436.902033,437.3630975,nan,nan
0,253,17:20:03:226000,6,1,63,44.296875,[ 1.         -0.10274464 -1.        ],1,1,1,0.287288514,0,0,0,0.275666692,0.412399309,0.14947555,0.561874859,0.262923759,nan,nan,nan,[ nan  nan  nan],nan,nan,nan,148.9922513,437.8438271,438.1311156,nan,nan
0,254,17:20:04:162000,6,1,259,182.109375,[ 0.44882283  0.26890698  0.65501178],1,1,1,0.153509497,0,0,0,0.300620829,0.41188445,0.14938254,0.56126699,0.26250191,nan,nan,nan,[ nan  nan  nan],nan,nan,nan,148.9922513,438.7856158,438.9391253,nan,nan
0,255,17:20:05:098000,6,1,443,311.484375,[ 0.28155878  0.41926821 -1.        ],1,1,1,0.299673164,0,1,0,0.246823725,0.410825536,0.14998721,0.560812746,0.260838326,nan,nan,nan,[ nan  nan  nan],nan,nan,nan,148.9922513,439.7274128,440.027086,nan,nan
0,256,17:20:09:388000,6,1,359,252.421875,[-0.16922234  0.47474188  0.0483828 ],1,1,1,0.277886273,1,0,0,0.243689645,0.410371853,0.149848471,0.560220324,0.260523382,nan,-147.067769,337,[-0.16064337  0.45785839  0.25930356],nan,-15.35410604,1.292094408,148.9922513,440.6691867,440.947073,442.5027364,443.8029558
0,257,17:20:10:324000,6,1,280,196.875,[ 0.22808935  0.34201885  0.61587222],1,1,1,0.313879303,0,0,0,0.297146247,0.409833294,0.149780996,0.55961429,0.260052298,nan,nan,nan,[ nan  nan  nan],nan,nan,nan,148.9922513,444.953084,445.2669633,nan,nan
0,258,17:20:11:275000,6,1,148,104.0625,[ 1.         -0.27269559  0.04442646],1,1,1,0.092147608,0,0,0,0.227971061,0.409444816,0.149601619,0.559046435,0.259843197,nan,nan,nan,[ nan  nan  nan],nan,nan,nan,148.9922513,445.8948665,445.9870141,nan,nan
0,259,17:20:12:211000,6,1,199,139.921875,[ 1.         -0.02467618  0.4687863 ],1,1,1,0.4142708,0,0,0,0.27343257,0.408165392,0.150647671,0.558813063,0.257517721,nan,nan,nan,[ nan  nan  nan],nan,nan,nan,148.9922513,446.8366572,447.250928,nan,nan
0,260,17:20:13:163000,6,1,59,41.484375,[ 1.         -0.08144099 -1.        ],1,1,1,0.304505002,0,0,0,0.270307803,0.408189911,0.150345357,0.558535269,0.257844554,nan,nan,nan,[ nan  nan  nan],nan,nan,nan,148.9922513,447.7784491,448.0829541,nan,nan
0,261,17:20:14:099000,6,1,155,108.984375,[ 1.         -0.24798314  0.11161188],1,1,1,0.458684764,0,0,0,0.392486855,0.407775172,0.150187023,0.557962194,0.257588149,nan,nan,nan,[ nan  nan  nan],nan,nan,nan,148.9922513,448.7202386,449.1789234,nan,nan
0,262,17:20:15:035000,6,1,343,241.171875,[-0.17138818  0.46383642  0.20482281],1,1,1,0.460895698,0,0,0,0.408028488,0.407977999,0.149921851,0.55789985,0.258056148,nan,nan,nan,[ nan  nan  nan],nan,nan,nan,148.9922513,449.6620279,450.1229236,nan,nan
0,263,17:20:15:986000,6,1,57,40.078125,[ 1.         -0.07073133 -1.        ],1,1,1,0.479079237,0,0,0,0.466219899,0.40818799,0.149661073,0.557849063,0.258526917,nan,nan,nan,[ nan  nan  nan],nan,nan,nan,148.9922513,450.6038075,451.0828868,nan,nan
0,264,17:20:16:922000,6,1,192,135,[ 1.         -0.06359976  0.42165841],1,1,1,0.417279437,0,0,0,0.452418124,0.408468192,0.149431224,0.557899417,0.259036968,nan,nan,nan,[ nan  nan  nan],nan,nan,nan,148.9922513,451.5456025,451.962882,nan,nan
0,265,17:20:17:858000,6,1,13,9.140625,[ 0.95026217  0.15466406 -1.        ],1,1,1,0.507465857,0,0,0,0.46794151,0.408502882,0.149137799,0.557640681,0.259365083,nan,nan,nan,[ nan  nan  nan],nan,nan,nan,148.9922513,452.4873878,452.9948537,nan,nan
0,266,17:20:18:810000,6,1,408,286.875,[ 0.03673793  0.46563766 -0.51593845],1,1,1,0.469694957,0,0,0,0.464813417,0.408890972,0.148973539,0.557864511,0.259917434,nan,nan,nan,[ nan  nan  nan],nan,nan,nan,148.9922513,453.4291395,453.8988345,nan,nan
0,267,17:20:19:746000,6,1,362,254.53125,[-0.16423973  0.47600016  0.01745785],1,1,1,0.431843944,0,0,0,0.469668253,0.409128488,0.148730659,0.557859147,0.260397829,nan,nan,nan,[ nan  nan  nan],nan,nan,nan,148.9922513,454.3709758,454.8028198,nan,nan
0,268,17:20:20:698000,6,1,53,37.265625,[ 1.         -0.04925756 -1.        ],1,1,1,0.41804749,0,0,0,0.439862131,0.409216875,0.148447754,0.557664629,0.260769121,nan,nan,nan,[ nan  nan  nan],nan,nan,nan,148.9922513,455.3127529,455.7308004,nan,nan
0,269,17:20:21:634000,6,0,145,101.953125,[ 1.         -0.28166741  0.01505517],0,1,0,0.180265358,0,0,0,0.343385597,0.409251102,0.148160801,0.557411903,0.261090301,nan,nan,nan,[ nan  nan  nan],nan,nan,nan,148.9922513,456.254539,456.4348044,nan,nan
0,270,17:20:22:570000,6,1,374,262.96875,[-0.13203913  0.47863408 -0.11062844],1,1,1,0.470406561,0,0,0,0.356239803,0.408366987,0.148554824,0.556921811,0.259812163,nan,nan,nan,[ nan  nan  nan],nan,nan,nan,148.9922513,457.1963295,457.666736,nan,nan
0,271,17:20:23:521000,6,1,439,308.671875,[ 0.25114429  0.4263922  -1.        ],1,1,1,0.488641703,0,0,0,0.379771207,0.408605601,0.148318587,0.556924188,0.260287014,nan,nan,nan,[ nan  nan  nan],nan,nan,nan,148.9922513,458.1381191,458.6267608,nan,nan
0,272,17:20:24:457000,6,1,95,66.796875,[ 1.         -0.25317502 -0.51497544],1,1,1,0.362838582,0,0,0,0.440628949,0.408912253,0.148116736,0.557028988,0.260795517,nan,nan,nan,[ nan  nan  nan],nan,nan,nan,148.9922513,459.0799089,459.4427475,nan,nan
0,273,17:20:25:393000,6,1,436,306.5625,[ 0.22868171  0.43141373 -1.        ],1,1,1,0.261044975,0,0,0,0.370841753,0.408736399,0.147861096,0.556597495,0.260875303,nan,nan,nan,[ nan  nan  nan],nan,nan,nan,148.9922513,460.0216942,460.2827392,nan,nan
0,274,17:20:26:345000,6,0,152,106.875,[ 1.         -0.25918449  0.08306255],0,nan,nan,nan,0,0,0,0.311941778,0.408174835,0.147859385,0.556034219,0.26031545,nan,nan,nan,[ nan  nan  nan],nan,nan,nan,148.9922513,460.9634878,nan,nan,nan
0,275,17:20:27:281000,6,1,54,37.96875,[ 1.         -0.05462921 -1.        ],1,1,1,0.449386869,0,0,0,0.355215922,0.408174835,0.147859385,0.556034219,0.26031545,nan,nan,nan,[ nan  nan  nan],nan,nan,nan,148.9922513,461.9052717,462.3546586,nan,nan
0,276,17:20:28:232000,6,1,257,180.703125,[ 0.4704729   0.26103985  0.65584138],1,1,1,0.475585648,0,0,0,0.462486258,0.408330941,0.147600795,0.555931736,0.260730146,nan,nan,nan,[ nan  nan  nan],nan,nan,nan,148.9922513,462.8470613,463.3226469,nan,nan
0,277,17:20:29:168000,6,1,480,337.5,[ 0.58092807  0.32870764 -1.        ],1,1,1,0.51782175,0,0,0,0.480931422,0.408584732,0.147379739,0.555964472,0.261204993,nan,nan,nan,[ nan  nan  nan],nan,nan,nan,148.9922513,463.7888397,464.3066615,nan,nan
0,278,17:20:30:104000,6,1,368,258.75,[-0.15045717  0.47779326 -0.04573418],1,1,1,0.43200645,0,0,0,0.475137949,0.408995398,0.147254276,0.556249673,0.261741122,nan,nan,nan,[ nan  nan  nan],nan,nan,nan,148.9922513,464.730639,465.1626455,nan,nan
0,279,17:20:31:056000,6,1,321,225.703125,[-0.09994335  0.43654647  0.39117498],1,1,1,0.40219263,0,0,0,0.45067361,0.409081581,0.146984981,0.556066562,0.2620966,nan,nan,nan,[ nan  nan  nan],nan,nan,nan,148.9922513,465.67243,466.0746226,nan,nan
0,280,17:20:31:992000,6,0,89,62.578125,[ 1.         -0.2294841  -0.58737049],0,0,1,0.756390753,0,0,0,0.530196611,0.409055876,0.1467111,0.555766977,0.262344776,nan,nan,nan,[ nan  nan  nan],nan,nan,nan,148.9922513,466.6142147,467.3706055,nan,nan
0,281,17:20:32:928000,6,1,182,127.96875,[ 1.         -0.11852384  0.34708947],1,1,1,0.27853316,0,0,0,0.479038848,0.410347084,0.147955891,0.558302975,0.262391193,nan,nan,nan,[ nan  nan  nan],nan,nan,nan,148.9922513,467.5560497,467.8345828,nan,nan
0,282,17:20:33:880000,6,1,369,259.453125,[-0.14769469  0.47799919 -0.05643387],1,1,1,0.392788394,0,0,0,0.475904102,0.409858884,0.147898551,0.557757435,0.261960333,nan,nan,nan,[ nan  nan  nan],nan,nan,nan,148.9922513,468.4977882,468.8905766,nan,nan
0,283,17:20:34:816000,6,1,59,41.484375,[ 1.         -0.08144099 -1.        ],1,1,1,0.290983382,0,0,0,0.320768312,0.409795894,0.147629052,0.557424945,0.262166842,nan,nan,nan,[ nan  nan  nan],nan,nan,nan,148.9922513,469.4395784,469.7305617,nan,nan
0,284,17:20:35:767000,6,1,140,98.4375,[ 1.         -0.29420925 -0.03457774],1,1,1,0.333184417,0,0,0,0.338985398,0.409359083,0.147532771,0.556891854,0.261826312,nan,nan,nan,[ nan  nan  nan],nan,nan,nan,148.9922513,470.3813685,470.7145529,nan,nan
0,285,17:20:36:703000,6,1,197,138.515625,[ 1.         -0.0357976   0.45577474],1,1,1,0.255383502,0,0,0,0.293183767,0.409080055,0.147334201,0.556414256,0.261745854,nan,nan,nan,[ nan  nan  nan],nan,nan,nan,148.9922513,471.3231524,471.5785359,nan,nan
0,286,17:20:37:639000,6,1,234,164.53125,[ 0.71814775  0.15974031  0.6291316 ],1,1,1,0.297567146,0,0,0,0.295378355,0.408519119,0.147356853,0.555875972,0.261162265,nan,nan,nan,[ nan  nan  nan],nan,nan,nan,148.9922513,472.2649494,472.5625165,nan,nan
0,287,17:20:38:591000,6,1,64,45,[ 1.         -0.10803687 -1.        ],1,1,1,0.283764705,0,0,0,0.278905118,0.408115657,0.147240226,0.555355883,0.260875431,nan,nan,nan,[ nan  nan  nan],nan,nan,nan,148.9922513,473.2067367,473.4905014,nan,nan
0,288,17:20:39:527000,6,1,311,218.671875,[-0.03972498  0.41902022  0.46225021],1,1,1,0.35796569,0,0,0,0.313099181,0.40766511,0.14716303,0.55482814,0.26050208,nan,nan,nan,[ nan  nan  nan],nan,nan,nan,148.9922513,474.14852,474.5064857,nan,nan
0,289,17:20:40:463000,6,1,406,285.46875,[ 0.02449675  0.4672457  -0.4893661 ],1,1,1,0.416149024,0,0,0,0.352626473,0.40748569,0.146927392,0.554413081,0.260558298,nan,nan,nan,[ nan  nan  nan],nan,nan,nan,148.9922513,475.090313,475.506462,nan,nan
0,290,17:20:41:414000,6,0,250,175.78125,[ 0.54642845  0.23228666  0.65474773],0,1,0,0.354338961,0,0,0,0.376151225,0.407516853,0.146663813,0.554180665,0.26085304,nan,nan,nan,[ nan  nan  nan],nan,nan,nan,148.9922513,476.0320966,476.3864356,nan,nan
0,291,17:20:42:350000,6,1,93,65.390625,[ 1.         -0.2456143  -0.53861988],1,1,1,0.332541237,0,0,0,0.367676407,0.407326251,0.146435227,0.553761478,0.260891024,nan,nan,nan,[ nan  nan  nan],nan,nan,nan,148.9922513,476.9738856,477.3064268,nan,nan
0,292,17:20:43:302000,6,1,7,4.921875,[ 0.90309146  0.18185306 -1.        ],1,1,1,0.614728496,0,0,0,0.433869564,0.407059162,0.146241566,0.553300727,0.260817596,nan,nan,nan,[ nan  nan  nan],nan,nan,nan,148.9922513,477.9156763,478.5304048,nan,nan
0,293,17:20:44:238000,6,0,302,212.34375,[ 0.02708608  0.40030084  0.51777002],0,0,1,0.632922583,0,0,0,0.526730772,0.407798198,0.146503978,0.554302177,0.26129422,nan,nan,nan,[ nan  nan  nan],nan,nan,nan,148.9922513,478.8574653,479.4903879,nan,nan
0,294,17:20:45:174000,6,1,181,127.265625,[ 1.         -0.12391439  0.33920113],1,1,1,0.315111211,0,0,0,0.520920763,0.408596512,0.146854986,0.555451497,0.261741526,nan,nan,nan,[ nan  nan  nan],nan,nan,nan,148.9922513,479.7992555,480.1143667,nan,nan
0,295,17:20:46:126000,6,0,113,79.453125,[ 1.         -0.30219199 -0.31457635],0,0,1,0.685306457,0,0,0,0.544446751,0.408266175,0.146700215,0.55496639,0.26156596,nan,nan,nan,[ nan  nan  nan],nan,nan,nan,148.9922513,480.7410428,481.4263493,nan,nan
0,296,17:20:47:062000,6,1,428,300.9375,[ 0.17037832  0.44348657 -0.8686614 ],1,1,1,0.335507394,0,0,0,0.445308354,0.409241669,0.14735832,0.556599989,0.261883349,nan,nan,nan,[ nan  nan  nan],nan,nan,nan,148.9922513,481.6828338,482.0183412,nan,nan
0,297,17:20:47:998000,6,1,310,217.96875,[-0.03285454  0.41708073  0.46882802],1,1,1,0.593705667,0,0,0,0.538173173,0.408982952,0.147164169,0.556147122,0.261818783,nan,nan,nan,[ nan  nan  nan],nan,nan,nan,148.9922513,482.6246188,483.2183245,nan,nan
0,298,17:20:48:949000,6,0,409,287.578125,[ 0.04294362  0.46479315 -0.52946185],0,0,1,0.651898124,0,0,0,0.527037062,0.409628836,0.147310761,0.556939596,0.262318075,nan,nan,nan,[ nan  nan  nan],nan,nan,nan,148.9922513,483.5664041,484.2183023,nan,nan
0,299,17:20:49:885000,6,1,223,156.796875,[ 0.83172397  0.10489059  0.59343224],1,1,1,0.318103313,0,0,0,0.521235701,0.41047298,0.147745208,0.558218187,0.262727772,nan,nan,nan,[ nan  nan  nan],nan,nan,nan,148.9922513,484.5081894,484.8262927,nan,nan
0,300,17:20:50:821000,6,1,368,258.75,[-0.15045717  0.47779326 -0.04573418],1,1,1,0.392300306,0,0,0,0.454100581,0.410152252,0.147588533,0.557740785,0.262563719,nan,nan,nan,[ nan  nan  nan],nan,nan,nan,148.9922513,485.4499799,485.8422802,nan,nan
0,301,17:20:51:773000,6,1,408,286.875,[ 0.03673793  0.46563766 -0.51593845],1,1,1,0.458397956,0,0,0,0.389600525,0.41009048,0.147336698,0.557427178,0.262753782,nan,nan,nan,[ nan  nan  nan],nan,nan,nan,148.9922513,486.3918601,486.8502581,nan,nan
0,302,17:20:52:709000,6,1,251,176.484375,[ 0.53557652  0.23650919  0.65528415],1,1,1,0.452672906,0,0,0,0.434457056,0.410257058,0.147109708,0.557366766,0.26314735,nan,nan,nan,[ nan  nan  nan],nan,nan,nan,148.9922513,487.3335565,487.7862294,nan,nan
0,303,17:20:53:660000,6,1,92,64.6875,[ 1.         -0.24170366 -0.55060884],1,1,1,0.630895538,0,0,0,0.5139888,0.410402817,0.1468777,0.557280517,0.263525117,nan,nan,nan,[ nan  nan  nan],nan,nan,nan,148.9922513,488.2753358,488.9062313,nan,nan
0,304,17:20:54:596000,6,1,442,310.78125,[ 0.27390726  0.42109554 -1.        ],1,1,1,0.537093222,0,0,0,0.540220555,0.411157929,0.14719071,0.558348638,0.263967219,nan,nan,nan,[ nan  nan  nan],nan,nan,nan,148.9922513,489.2171359,489.7542291,nan,nan
0,305,17:20:55:532000,6,1,218,153.28125,[ 0.88146739  0.07882461  0.57255963],1,1,1,0.739239838,0,0,1,0.635742866,0.411587742,0.14712276,0.558710502,0.264464982,nan,nan,nan,[ nan  nan  nan],nan,nan,nan,148.9922513,490.15894,490.8981799,nan,nan
0,306,17:21:00:103000,6,1,27,18.984375,[ 1.          0.08709126 -1.        ],1,1,1,0.557471159,1,0,0,0.611268073,0.412702205,0.148106036,0.560808241,0.264596169,nan,65.06793883,35,[ 1.          0.04626536 -1.        ],nan,5.947686175,1.567278525,148.9922513,491.1007119,491.6581831,492.9342182,494.5094236
0,307,17:21:01:039000,6,1,506,355.78125,[ 0.79777474  0.23670313 -1.        ],1,1,1,0.446032123,0,0,0,0.580914373,0.413192947,0.148094038,0.561286985,0.26509891,nan,nan,nan,[ nan  nan  nan],nan,nan,nan,148.9922513,495.6680355,496.1140676,nan,nan
0,308,17:21:01:991000,6,1,69,48.515625,[ 1.         -0.1342072  -0.93964801],1,1,1,0.312312406,0,0,0,0.438605229,0.41330389,0.147855946,0.561159837,0.265447944,nan,nan,nan,[ nan  nan  nan],nan,nan,nan,148.9922513,496.6097601,496.9220725,nan,nan
0,309,17:21:02:927000,6,1,32,22.5,[ 1.         0.0617358 -1.       ],1,1,1,0.338519738,0,0,0,0.365621422,0.412963852,0.14772271,0.560686561,0.265241142,nan,nan,nan,[ nan  nan  nan],nan,nan,nan,148.9922513,497.5515426,497.8900623,nan,nan
0,310,17:21:03:878000,6,1,431,303.046875,[ 0.19195726  0.43918129 -0.98229877],1,1,1,0.108704094,0,1,0,0.253178746,0.412714039,0.147537471,0.56025151,0.265176568,nan,nan,nan,[ nan  nan  nan],nan,nan,nan,148.9922513,498.4933347,498.6020388,nan,nan
0,311,17:21:07:919000,6,1,270,189.84375,[ 0.33115907  0.30936972  0.64139387],1,1,1,0.230912131,1,0,0,0.226045321,0.411697284,0.14833265,0.560029934,0.263364633,nan,-96.61346048,265,[ 0.38425915  0.29156831  0.64947886],nan,-3.230289518,1.050493105,148.9922513,499.4351223,499.6660344,501.2603257,502.3187756
0,312,17:21:08:855000,6,0,465,326.953125,[ 0.45658868  0.37096153 -1.        ],0,0,1,0.580640489,0,0,0,0.306752238,0.411094666,0.148451387,0.559546053,0.26264328,nan,nan,nan,[ nan  nan  nan],nan,nan,nan,148.9922513,503.4773125,504.057953,nan,nan
0,313,17:21:09:791000,6,1,109,76.640625,[ 1.         -0.29463833 -0.3577737 ],1,1,1,0.254851795,0,0,0,0.355468138,0.411657942,0.14852536,0.560183302,0.263132581,nan,nan,nan,[ nan  nan  nan],nan,nan,nan,148.9922513,504.4190969,504.6739487,nan,nan
0,314,17:21:10:742000,6,1,355,249.609375,[-0.17373746  0.47268386  0.08887998],1,1,1,0.393034718,0,0,0,0.409509001,0.411138716,0.148552634,0.55969135,0.262586082,nan,nan,nan,[ nan  nan  nan],nan,nan,nan,148.9922513,505.3608857,505.7539204,nan,nan
0,315,17:21:11:678000,6,1,205,144.140625,[ 1.          0.008548    0.50553524],1,1,1,0.371247542,0,0,0,0.339711352,0.411078967,0.14831093,0.559389897,0.262768037,nan,nan,nan,[ nan  nan  nan],nan,nan,nan,148.9922513,506.3026707,506.6739182,nan,nan
0,316,17:21:12:630000,6,0,138,97.03125,[ 1.         -0.29832988 -0.05465081],0,0,1,0.645326334,0,0,0,0.469869532,0.410947942,0.148084361,0.559032303,0.262863581,nan,nan,nan,[ nan  nan  nan],nan,nan,nan,148.9922513,507.2445435,507.8898698,nan,nan
0,317,17:21:13:566000,6,1,223,156.796875,[ 0.83172397  0.10489059  0.59343224],1,1,1,0.359618117,0,0,0,0.458730665,0.411716396,0.148447291,0.560163687,0.263269105,nan,nan,nan,[ nan  nan  nan],nan,nan,nan,148.9922513,508.1862575,508.5458757,nan,nan
0,318,17:21:14:502000,6,1,20,14.0625,[ 1.          0.12155819 -1.        ],1,1,1,0.457824054,0,0,0,0.487589502,0.41154614,0.148234356,0.559780496,0.263311785,nan,nan,nan,[ nan  nan  nan],nan,nan,nan,148.9922513,509.1280289,509.5858529,nan,nan
0,319,17:21:15:454000,6,1,419,294.609375,[ 0.10789467  0.45484197 -0.67809886],1,1,1,0.460010754,0,0,0,0.425817642,0.411696883,0.148016225,0.559713107,0.263680658,nan,nan,nan,[ nan  nan  nan],nan,nan,nan,148.9922513,510.0698336,510.5298443,nan,nan
0,320,17:21:16:390000,6,1,354,248.90625,[-0.17447067  0.47210079  0.09886772],1,1,1,0.406211939,0,0,0,0.441348916,0.411853746,0.1478013,0.559655046,0.264052445,nan,nan,nan,[ nan  nan  nan],nan,nan,nan,148.9922513,511.0116166,511.4178285,nan,nan
0,321,17:21:17:326000,6,1,119,83.671875,[ 1.         -0.30944633 -0.2507109 ],1,1,1,0.488406212,0,0,0,0.451542968,0.411835488,0.147562294,0.559397781,0.264273194,nan,nan,nan,[ nan  nan  nan],nan,nan,nan,148.9922513,511.9534079,512.4418141,nan,nan
0,322,17:21:18:277000,6,1,355,249.609375,[-0.17373746  0.47268386  0.08887998],1,1,1,0.354606668,0,0,0,0.416408273,0.41208249,0.147388066,0.559470556,0.264694424,nan,nan,nan,[ nan  nan  nan],nan,nan,nan,148.9922513,512.8951923,513.249799,nan,nan
0,323,17:21:19:213000,6,0,481,338.203125,[ 0.58928949  0.32561186 -1.        ],0,0,1,0.636777106,0,0,0,0.493263328,0.41189768,0.147186889,0.559084569,0.264710791,nan,nan,nan,[ nan  nan  nan],nan,nan,nan,148.9922513,513.8369851,514.4737622,nan,nan
0,324,17:21:20:165000,6,1,377,265.078125,[-0.12125986  0.47870083 -0.1436959 ],1,1,1,0.326918537,0,0,0,0.439434104,0.412618448,0.147499528,0.560117975,0.26511892,nan,nan,nan,[ nan  nan  nan],nan,nan,nan,148.9922513,514.7788391,515.1057576,nan,nan
0,325,17:21:21:101000,6,1,475,333.984375,[ 0.53921875  0.34365981 -1.        ],1,1,1,0.377170165,0,0,0,0.446955269,0.412344646,0.14734311,0.559687756,0.265001536,nan,nan,nan,[ nan  nan  nan],nan,nan,nan,148.9922513,515.7205574,516.0977275,nan,nan
0,326,17:21:22:037000,6,1,62,43.59375,[ 1.         -0.09743725 -1.        ],1,1,1,0.36335632,0,0,0,0.355815007,0.412232625,0.147121649,0.559354275,0.265110976,nan,nan,nan,[ nan  nan  nan],nan,nan,nan,148.9922513,516.6623572,517.0257135,nan,nan
0,327,17:21:22:988000,6,1,492,345.9375,[ 0.68140332  0.28922202 -1.        ],1,1,1,0.269563983,0,0,0,0.336696822,0.412077462,0.146913668,0.55899113,0.265163794,nan,nan,nan,[ nan  nan  nan],nan,nan,nan,148.9922513,517.6041402,517.8737042,nan,nan
0,328,17:21:23:924000,6,1,368,258.75,[-0.15045717  0.47779326 -0.04573418],1,1,1,0.359761236,0,0,0,0.330893846,0.41162647,0.146899259,0.558525729,0.264727211,nan,nan,nan,[ nan  nan  nan],nan,nan,nan,148.9922513,518.5459241,518.9056854,nan,nan
0,329,17:21:24:860000,6,1,300,210.9375,[ 0.04335371  0.39574842  0.52895103],1,1,1,0.401954574,0,0,0,0.343759931,0.411462858,0.146696208,0.558159066,0.264766649,nan,nan,nan,[ nan  nan  nan],nan,nan,nan,148.9922513,519.4877154,519.88967,nan,nan
0,330,17:21:25:812000,6,1,184,129.375,[ 1.         -0.10767189  0.36264005],1,1,1,0.372148166,0,0,0,0.377954659,0.411432957,0.14646634,0.557899297,0.264966618,nan,nan,nan,[ nan  nan  nan],nan,nan,nan,148.9922513,520.4295039,520.801652,nan,nan
0,331,17:21:26:748000,6,1,277,194.765625,[ 0.25847065  0.33263616  0.62482424],1,1,1,0.342355159,0,0,0,0.372152633,0.411309808,0.146253077,0.557562885,0.26505673,nan,nan,nan,[ nan  nan  nan],nan,nan,nan,148.9922513,521.3712914,521.7136466,nan,nan
0,332,17:21:27:700000,6,1,46,32.34375,[ 1.         -0.01173137 -1.        ],1,1,1,0.320527499,0,0,0,0.345010275,0.411094324,0.146075087,0.557169411,0.265019237,nan,nan,nan,[ nan  nan  nan],nan,nan,nan,148.9922513,522.3130973,522.6336248,nan,nan
0,333,17:21:28:636000,6,1,444,312.1875,[ 0.2892412   0.41740978 -1.        ],1,1,1,0.33073115,0,0,0,0.331204603,0.410812185,0.145934679,0.556746864,0.264877505,nan,nan,nan,[ nan  nan  nan],nan,nan,nan,148.9922513,523.2548689,523.5856001,nan,nan
0,334,17:21:29:572000,6,1,370,260.15625,[-0.144806    0.47817873 -0.06718033],1,1,1,0.476929599,0,0,0,0.37606275,0.410563486,0.145776011,0.556339497,0.264787475,nan,nan,nan,[ nan  nan  nan],nan,nan,nan,148.9922513,524.1966576,524.6735872,nan,nan
0,335,17:21:30:523000,6,1,254,178.59375,[ 0.50301113  0.24894782  0.65613358],1,1,1,0.399122982,0,0,0,0.402261244,0.410768954,0.145596867,0.556365821,0.265172086,nan,nan,nan,[ nan  nan  nan],nan,nan,nan,148.9922513,525.1384464,525.5375693,nan,nan
0,336,17:21:31:459000,6,1,330,232.03125,[-0.13976633  0.44951833  0.31954025],1,1,1,0.489319665,0,0,0,0.455124082,0.410733009,0.145373442,0.556106452,0.265359567,nan,nan,nan,[ nan  nan  nan],nan,nan,nan,148.9922513,526.0802337,526.5695533,nan,nan
0,337,17:21:32:395000,6,1,437,307.265625,[ 0.23613483  0.42977024 -1.        ],1,1,1,0.38751665,0,0,0,0.425319766,0.410974814,0.145214861,0.556189676,0.265759953,nan,nan,nan,[ nan  nan  nan],nan,nan,nan,148.9922513,527.0220238,527.4095405,nan,nan
0,338,17:21:33:347000,6,1,93,65.390625,[ 1.         -0.2456143  -0.53861988],1,1,1,0.445714809,0,0,0,0.440850375,0.410902857,0.144997771,0.555900628,0.265905086,nan,nan,nan,[ nan  nan  nan],nan,nan,nan,148.9922513,527.9638105,528.4095253,nan,nan
0,339,17:21:34:283000,6,1,254,178.59375,[ 0.50301113  0.24894782  0.65613358],1,1,1,0.367904485,0,0,0,0.400378648,0.411009315,0.144788652,0.555797967,0.266220664,nan,nan,nan,[ nan  nan  nan],nan,nan,nan,148.9922513,528.9055916,529.2734961,nan,nan
0,340,17:21:35:235000,6,1,73,51.328125,[ 1.         -0.15467886 -0.83091687],1,1,1,0.330050337,0,0,0,0.38122321,0.410877898,0.1445873,0.555465198,0.266290598,nan,nan,nan,[ nan  nan  nan],nan,nan,nan,148.9922513,529.8474442,530.1774945,nan,nan
0,341,17:21:36:171000,6,1,453,318.515625,[ 0.35967042  0.39926175 -1.        ],1,1,1,0.284293562,0,0,0,0.327416128,0.410632222,0.144435944,0.555068165,0.266196278,nan,nan,nan,[ nan  nan  nan],nan,nan,nan,148.9922513,530.7891784,531.073472,nan,nan
0,342,17:21:37:107000,6,1,356,250.3125,[-0.17284378  0.47323941  0.07883681],1,1,1,0.254497133,0,0,0,0.289613677,0.410249377,0.144384022,0.5546334,0.265865355,nan,nan,nan,[ nan  nan  nan],nan,nan,nan,148.9922513,531.7309649,531.985462,nan,nan
0,343,17:21:38:058000,6,1,84,59.0625,[ 1.         -0.20765784 -0.65219109],1,1,1,0.232682588,0,1,0,0.257157761,0.409778827,0.144418948,0.554197775,0.265359878,nan,nan,nan,[ nan  nan  nan],nan,nan,nan,148.9922513,532.6727519,532.9054345,nan,nan
0,344,17:21:43:003000,6,1,137,96.328125,[ 1.         -0.30019022 -0.06473166],1,1,1,0.130897819,1,0,0,0.206025847,0.409245404,0.144527483,0.553772888,0.264717921,nan,-33.07067782,175,[ 1.         -0.15562995  0.29036176],nan,26.74255282,1.958888894,148.9922513,533.6145395,533.7454373,535.4397155,537.4066336
0,345,17:21:43:939000,6,1,312,219.375,[-0.04644836  0.4209252   0.45557321],1,1,1,0.732125507,0,0,0,0.365235305,0.408409526,0.145111792,0.553521318,0.263297733,nan,nan,nan,[ nan  nan  nan],nan,nan,nan,148.9922513,538.5651779,539.2973034,nan,nan
0,346,17:21:44:891000,6,1,416,292.5,[ 0.08788162  0.4581175  -0.63016532],1,1,1,0.710349165,0,0,0,0.524457497,0.409378735,0.145969844,0.555348579,0.263408891,nan,nan,nan,[ nan  nan  nan],nan,nan,nan,148.9922513,539.5069612,540.2173104,nan,nan
0,347,17:21:45:827000,6,1,15,10.546875,[ 0.96573443  0.14535278 -1.        ],1,1,1,0.480533236,0,0,1,0.641002636,0.410277154,0.146673727,0.556950881,0.263603427,nan,nan,nan,[ nan  nan  nan],nan,nan,nan,148.9922513,540.4487577,540.9292909,nan,nan
0,348,17:21:51:537000,6,1,99,69.609375,[ 1.         -0.26717627 -0.4687933 ],1,1,1,0.58673246,1,0,0,0.592538287,0.41048625,0.146505295,0.556991545,0.263980955,nan,20.36160328,99,[ 1.         -0.26717627 -0.4687933 ],nan,0.029021725,2.733978073,148.9922513,541.3905478,541.9772803,543.2073913,545.9494023
0,349,17:21:52:473000,6,1,373,262.265625,[-0.13540771  0.47855957 -0.09969749],1,1,1,0.605529529,0,0,0,0.557598408,0.411009236,0.146601539,0.557610775,0.264407696,nan,nan,nan,[ nan  nan  nan],nan,nan,nan,148.9922513,547.099634,547.7051635,nan,nan
0,350,17:21:53:424000,6,1,267,187.734375,[ 0.36292453  0.29880723  0.64662252],1,1,1,0.57576104,0,0,0,0.58934101,0.411584739,0.14676526,0.558349999,0.26481948,nan,nan,nan,[ nan  nan  nan],nan,nan,nan,148.9922513,548.0414039,548.6171649,nan,nan
0,351,17:21:54:360000,6,1,505,355.078125,[ 0.78953796  0.24068314 -1.        ],1,1,1,0.553951627,0,0,1,0.578414065,0.412069035,0.146818857,0.558887893,0.265250178,nan,nan,nan,[ nan  nan  nan],nan,nan,nan,148.9922513,548.9831938,549.5371454,nan,nan
0,352,17:21:59:571000,6,1,102,71.71875,[ 1.         -0.27661034 -0.43492695],1,1,1,0.62014735,1,0,0,0.583286672,0.412486337,0.146803989,0.559290326,0.265682348,nan,33.38326575,81,[ 1.         -0.19380425 -0.69421917],nan,-15.10201575,2.208945914,148.9922513,549.9249859,550.5451333,551.7585159,553.9754839
0,353,17:22:00:507000,6,1,336,236.25,[-0.15821161  0.45675811  0.26813527],1,1,1,0.579371519,0,0,0,0.584490165,0.413095314,0.147018028,0.560113341,0.266077286,nan,nan,nan,[ nan  nan  nan],nan,nan,nan,148.9922513,555.1256683,555.7050398,nan,nan
0,354,17:22:01:443000,6,1,36,25.3125,[ 1.          0.04106996 -1.        ],1,1,1,0.525587244,0,0,0,0.575035371,0.413581501,0.14707721,0.560658712,0.266504291,nan,nan,nan,[ nan  nan  nan],nan,nan,nan,148.9922513,556.0674407,556.593028,nan,nan
0,355,17:22:02:394000,6,1,474,333.28125,[ 0.53090176  0.34654538 -1.        ],1,1,1,0.543762231,0,0,0,0.549573665,0.413908049,0.146986762,0.560894811,0.266921287,nan,nan,nan,[ nan  nan  nan],nan,nan,nan,148.9922513,557.0092303,557.5529926,nan,nan
0,356,17:22:03:330000,6,1,36,25.3125,[ 1.          0.04106996 -1.        ],1,1,1,0.465970724,0,0,0,0.5117734,0.414285532,0.146939368,0.5612249,0.267346164,nan,nan,nan,[ nan  nan  nan],nan,nan,nan,148.9922513,557.951021,558.4169918,nan,nan
0,357,17:22:04:266000,6,1,302,212.34375,[ 0.02708608  0.40030084  0.51777002],1,1,1,0.444134797,0,0,0,0.484622584,0.414435344,0.146752565,0.561187909,0.267682779,nan,nan,nan,[ nan  nan  nan],nan,nan,nan,148.9922513,558.8928255,559.3369603,nan,nan
0,358,17:22:05:218000,6,1,192,135,[ 1.         -0.06359976  0.42165841],1,1,1,0.382394867,0,0,0,0.430833463,0.414521181,0.146549014,0.561070195,0.267972166,nan,nan,nan,[ nan  nan  nan],nan,nan,nan,148.9922513,559.8345974,560.2169922,nan,nan
0,359,17:22:06:154000,6,1,400,281.25,[-0.01078748  0.4714273  -0.41269269],1,1,1,0.496561435,0,0,0,0.441030366,0.414428598,0.146347829,0.560776427,0.268080768,nan,nan,nan,[ nan  nan  nan],nan,nan,nan,148.9922513,560.7763824,561.2729438,nan,nan
0,360,17:22:07:105000,6,1,157,110.390625,[ 1.         -0.24004838  0.1304259 ],1,1,1,0.514738987,0,0,0,0.464565097,0.414664611,0.146203525,0.560868137,0.268461086,nan,nan,nan,[ nan  nan  nan],nan,nan,nan,148.9922513,561.718176,562.2329149,nan,nan
0,361,17:22:08:041000,6,0,488,343.125,[ 0.64790771  0.30295149 -1.        ],0,0,1,0.612928673,0,0,0,0.541409698,0.414951358,0.146091878,0.561043235,0.26885948,nan,nan,nan,[ nan  nan  nan],nan,nan,nan,148.9922513,562.6599661,563.2728948,nan,nan
0,362,17:22:08:977000,6,1,298,209.53125,[ 0.06008966  0.39105034  0.53969689],1,1,1,0.311153768,0,0,0,0.479607143,0.415517007,0.146265249,0.561782256,0.269251758,nan,nan,nan,[ nan  nan  nan],nan,nan,nan,148.9922513,563.6017437,563.9128975,nan,nan
0,363,17:22:09:929000,6,1,100,70.3125,[ 1.         -0.27042709 -0.4574399 ],1,1,1,0.465324977,0,0,0,0.463135806,0.415219676,0.146162632,0.561382307,0.269057044,nan,nan,nan,[ nan  nan  nan],nan,nan,nan,148.9922513,564.5435393,565.0088643,nan,nan
0,364,17:22:10:865000,6,1,443,311.484375,[ 0.28155878  0.41926821 -1.        ],1,1,1,0.387523207,0,0,0,0.388000651,0.41536202,0.145979228,0.561341249,0.269382792,nan,nan,nan,[ nan  nan  nan],nan,nan,nan,148.9922513,565.485328,565.8728512,nan,nan
0,365,17:22:11:801000,6,1,156,109.6875,[ 1.         -0.24406061  0.12104147],1,1,1,0.389695652,0,0,0,0.414181279,0.415283157,0.145779821,0.561062978,0.269503336,nan,nan,nan,[ nan  nan  nan],nan,nan,nan,148.9922513,566.4271413,566.8168369,nan,nan
0,366,17:22:12:753000,6,0,113,79.453125,[ 1.         -0.30219199 -0.31457635],0,0,1,0.77590855,0,0,0,0.517709136,0.415210876,0.145580106,0.560790982,0.26963077,nan,nan,nan,[ nan  nan  nan],nan,nan,nan,148.9922513,567.3689086,568.1448172,nan,nan
0,367,17:22:13:689000,6,1,389,273.515625,[-0.06912081  0.47662608 -0.28023432],1,1,1,0.402124777,0,0,0,0.522576326,0.416226926,0.146626469,0.562853395,0.269600456,nan,nan,nan,[ nan  nan  nan],nan,nan,nan,148.9922513,568.3106885,568.7128133,nan,nan
0,368,17:22:14:640000,6,1,437,307.265625,[ 0.23613483  0.42977024 -1.        ],1,1,1,0.4363043,0,0,0,0.538112542,0.416187313,0.146422291,0.562609604,0.269765022,nan,nan,nan,[ nan  nan  nan],nan,nan,nan,148.9922513,569.2524875,569.6887918,nan,nan
0,369,17:22:15:576000,6,0,284,199.6875,[ 0.18846515  0.3539841   0.60223628],0,0,1,0.670493915,0,0,0,0.502974331,0.416243663,0.146220939,0.562464602,0.270022724,nan,nan,nan,[ nan  nan  nan],nan,nan,nan,148.9922513,570.1942722,570.8647661,nan,nan
0,370,17:22:16:512000,6,1,85,59.765625,[ 1.         -0.21215645 -0.63878123],1,1,1,0.272692646,0,0,0,0.459830287,0.416953859,0.146631866,0.563585725,0.270321994,nan,nan,nan,[ nan  nan  nan],nan,nan,nan,148.9922513,571.1360635,571.4087562,nan,nan
0,371,17:22:17:464000,6,1,378,265.78125,[-0.11745014  0.47867092 -0.15481012],1,1,1,0.346887644,0,0,0,0.430024735,0.416552017,0.146624765,0.563176782,0.269927253,nan,nan,nan,[ nan  nan  nan],nan,nan,nan,148.9922513,572.0778494,572.424737,nan,nan
0,372,17:22:18:400000,6,0,487,342.421875,[ 0.63952974  0.30629503 -1.        ],0,0,1,0.597089493,0,0,0,0.405556595,0.416358505,0.146466877,0.562825382,0.269891628,nan,nan,nan,[ nan  nan  nan],nan,nan,nan,148.9922513,573.0196358,573.6167253,nan,nan
0,373,17:22:19:336000,6,1,100,70.3125,[ 1.         -0.27042709 -0.4574399 ],1,1,1,0.27127571,0,0,0,0.405084283,0.416859145,0.146572,0.563431145,0.270287145,nan,nan,nan,[ nan  nan  nan],nan,nan,nan,148.9922513,573.9614246,574.2327003,nan,nan
0,374,17:22:20:287000,6,1,16,11.25,[ 0.97341943  0.14065211 -1.        ],1,1,1,0.409485148,0,0,0,0.425950117,0.416456981,0.146568727,0.563025708,0.269888254,nan,nan,nan,[ nan  nan  nan],nan,nan,nan,148.9922513,574.9032153,575.3127004,nan,nan
0,375,17:22:21:223000,6,1,476,334.6875,[ 0.54754504  0.34073938 -1.        ],1,1,1,0.395673869,0,0,0,0.358811575,0.416437775,0.146367159,0.562804933,0.270070616,nan,nan,nan,[ nan  nan  nan],nan,nan,nan,148.9922513,575.8449989,576.2406727,nan,nan
0,376,17:22:22:159000,6,1,215,151.171875,[ 0.91063986  0.06289474  0.55869515],1,1,1,0.685835314,0,0,0,0.49699811,0.416380731,0.146170007,0.562550738,0.270210724,nan,nan,nan,[ nan  nan  nan],nan,nan,nan,148.9922513,576.786791,577.4726263,nan,nan
0,377,17:22:23:111000,6,1,250,175.78125,[ 0.54642845  0.23228666  0.65474773],1,nan,nan,nan,0,0,0,0.540754591,0.417118963,0.14664757,0.563766533,0.270471393,nan,nan,nan,[ nan  nan  nan],nan,nan,nan,148.9922513,577.7285823,nan,nan,nan
0,378,17:22:24:047000,6,1,344,241.875,[-0.17254346  0.46473023  0.19550382],1,nan,nan,nan,0,0,0,0.685835314,0.417118963,0.14664757,0.563766533,0.270471393,nan,nan,nan,[ nan  nan  nan],nan,nan,nan,148.9922513,578.6703665,nan,nan,nan
0,379,17:22:24:999000,6,0,299,210.234375,[ 0.05166456  0.39341767  0.53437875],0,1,0,0.276448525,0,0,0,0.276448525,0.417118963,0.14664757,0.563766533,0.270471393,nan,nan,nan,[ nan  nan  nan],nan,nan,nan,148.9922513,579.6121561,579.8886046,nan,nan
0,380,17:22:25:935000,6,1,129,90.703125,[ 1.         -0.31007049 -0.146368  ],1,1,1,0.230654117,0,0,0,0.253551321,0.416734617,0.146631067,0.563365685,0.27010355,nan,nan,nan,[ nan  nan  nan],nan,nan,nan,148.9922513,580.5539394,580.7845935,nan,nan
0,381,17:22:26:871000,6,1,453,318.515625,[ 0.35967042  0.39926175 -1.        ],1,1,1,0.392829448,0,0,0,0.299977363,0.416227586,0.146752092,0.562979678,0.269475494,nan,nan,nan,[ nan  nan  nan],nan,nan,nan,148.9922513,581.4957361,581.8885655,nan,nan
0,382,17:22:27:822000,6,1,308,216.5625,[-0.01868286  0.41309748  0.48168233],1,1,1,0.395033254,0,0,0,0.339505606,0.416164004,0.146557627,0.562721631,0.269606377,nan,nan,nan,[ nan  nan  nan],nan,nan,nan,148.9922513,582.4375217,582.8325549,nan,nan
0,383,17:22:28:758000,6,1,260,182.8125,[ 0.43801664  0.27278198  0.65440657],1,1,1,0.661193739,0,0,0,0.483018813,0.416106739,0.146363027,0.562469766,0.269743712,nan,nan,nan,[ nan  nan  nan],nan,nan,nan,148.9922513,583.3793107,584.0405044,nan,nan
0,384,17:22:29:694000,6,0,201,141.328125,[ 1.         -0.01357126  0.48142235],0,0,1,0.527411015,0,0,0,0.527879336,0.416769136,0.146717907,0.563487043,0.270051229,nan,nan,nan,[ nan  nan  nan],nan,nan,nan,148.9922513,584.321098,584.848509,nan,nan
0,385,17:22:30:646000,6,1,483,339.609375,[ 0.60602571  0.31931445 -1.        ],1,1,1,0.241738435,0,0,0,0.476781063,0.417067363,0.146632294,0.563699657,0.270435069,nan,nan,nan,[ nan  nan  nan],nan,nan,nan,148.9922513,585.262873,585.5046115,nan,nan
0,386,17:22:31:582000,6,1,48,33.75,[ 1.         -0.02242733 -1.        ],1,1,1,0.371789228,0,0,0,0.380312893,0.416596048,0.146716202,0.563312251,0.269879846,nan,nan,nan,[ nan  nan  nan],nan,nan,nan,148.9922513,586.2046726,586.5764618,nan,nan
0,387,17:22:32:533000,6,1,269,189.140625,[ 0.34171297  0.30588835  0.64326235],1,1,1,0.645994889,0,0,0,0.419840851,0.416475923,0.146537717,0.56301364,0.269938205,nan,nan,nan,[ nan  nan  nan],nan,nan,nan,148.9922513,587.1464679,587.7924628,nan,nan
0,388,17:22:33:469000,6,1,52,36.5625,[ 1.         -0.04388606 -1.        ],1,1,1,0.544191873,0,0,0,0.520658663,0.41708961,0.146820855,0.563910465,0.270268755,nan,nan,nan,[ nan  nan  nan],nan,nan,nan,148.9922513,588.0882552,588.632447,nan,nan
0,389,17:22:34:405000,6,1,475,333.984375,[ 0.53921875  0.34365981 -1.        ],1,1,1,0.45039697,0,0,0,0.546861244,0.417428549,0.146771404,0.564199953,0.270657145,nan,nan,nan,[ nan  nan  nan],nan,nan,nan,148.9922513,589.0300419,589.4804389,nan,nan
0,390,17:22:35:357000,6,1,99,69.609375,[ 1.         -0.26717627 -0.4687933 ],1,1,1,0.636591792,0,0,0,0.543726879,0.417516231,0.146585933,0.564102165,0.270930298,nan,nan,nan,[ nan  nan  nan],nan,nan,nan,148.9922513,589.9718329,590.6084247,nan,nan
0,391,17:22:36:293000,6,1,148,104.0625,[ 1.         -0.27269559  0.04442646],1,nan,nan,nan,0,0,0,0.543494381,0.418097333,0.146824411,0.564921744,0.271272922,nan,nan,nan,[ nan  nan  nan],nan,nan,nan,148.9922513,590.9136111,nan,nan,nan
0,392,17:22:37:229000,6,1,221,155.390625,[ 0.85178146  0.09454116  0.58542294],1,nan,nan,nan,0,0,0,0.636591792,0.418097333,0.146824411,0.564921744,0.271272922,nan,nan,nan,[ nan  nan  nan],nan,nan,nan,148.9922513,591.8554015,nan,nan,nan
0,393,17:22:38:181000,6,1,320,225,[-0.09465004  0.43494402  0.39870124],1,1,1,0.035195326,0,0,0,0.035195326,0.418097333,0.146824411,0.564921744,0.271272922,nan,nan,nan,[ nan  nan  nan],nan,nan,nan,148.9922513,592.79717,592.8323653,nan,nan
0,394,17:22:39:117000,6,1,18,12.65625,[ 0.9886827   0.13116258 -1.        ],1,1,1,0.269386367,0,0,0,0.152290847,0.417084365,0.147943296,0.565027662,0.269141069,nan,nan,nan,[ nan  nan  nan],nan,nan,nan,148.9922513,593.7389807,594.0083671,nan,nan
0,395,17:22:40:068000,6,1,507,356.484375,[ 0.80599565  0.23268835 -1.        ],1,1,1,0.255562259,0,1,0,0.186714651,0.416694661,0.147942137,0.564636797,0.268752524,nan,nan,nan,[ nan  nan  nan],nan,nan,nan,148.9922513,594.6807703,594.9363325,nan,nan
0,396,17:22:44:124000,6,1,274,192.65625,[ 0.28934405  0.32290089  0.63267027],1,1,1,0.409758841,1,0,0,0.311569156,0.416270628,0.147977783,0.564248411,0.268292845,nan,-93.64627121,261,[ 0.42722581  0.27661781  0.65367446],nan,-9.009978791,1.0753964,148.9922513,595.6225573,596.0323161,597.4477641,598.5312396
0,397,17:22:45:060000,6,0,464,326.25,[ 0.44840488  0.37350356 -1.        ],0,0,1,0.462828946,0,0,0,0.376050015,0.416253537,0.147783835,0.564037371,0.268469702,nan,nan,nan,[ nan  nan  nan],nan,nan,nan,148.9922513,599.6814223,600.1442512,nan,nan
0,398,17:22:45:996000,6,1,365,256.640625,[-0.15796203  0.47701659 -0.01391969],1,nan,nan,nan,0,0,0,0.436293894,0.416375462,0.14760946,0.563984922,0.268766002,nan,nan,nan,[ nan  nan  nan],nan,nan,nan,148.9922513,600.6232045,nan,nan,nan
0,399,17:22:46:948000,6,1,428,300.9375,[ 0.17037832  0.44348657 -0.8686614 ],1,1,1,0.09122275,0,0,0,0.277025848,0.416375462,0.14760946,0.563984922,0.268766002,nan,nan,nan,[ nan  nan  nan],nan,nan,nan,148.9922513,601.5650006,601.6562233,nan,nan
0,400,17:22:47:884000,6,1,33,23.203125,[ 1.          0.05659903 -1.        ],1,1,1,0.389400576,0,0,0,0.240311663,0.415526499,0.148347515,0.563874014,0.267178984,nan,nan,nan,[ nan  nan  nan],nan,nan,nan,148.9922513,602.506789,602.8961896,nan,nan
0,401,17:22:48:835000,6,0,496,348.75,[ 0.71483372  0.27492388 -1.        ],0,0,1,0.639577907,0,0,0,0.373400411,0.415458463,0.148160212,0.563618675,0.267298251,nan,nan,nan,[ nan  nan  nan],nan,nan,nan,148.9922513,603.4485895,604.0881674,nan,nan
0,402,17:22:49:771000,6,1,65,45.703125,[ 1.         -0.11331216 -1.        ],1,1,1,0.257805123,0,0,0,0.428927869,0.416040591,0.148406735,0.564447326,0.267633856,nan,nan,nan,[ nan  nan  nan],nan,nan,nan,148.9922513,604.3903571,604.6481622,nan,nan
0,403,17:22:50:707000,6,1,409,287.578125,[ 0.04294362  0.46479315 -0.52946185],1,1,1,0.419996704,0,0,0,0.439126578,0.415630655,0.148432473,0.564063128,0.267198182,nan,nan,nan,[ nan  nan  nan],nan,nan,nan,148.9922513,605.3321464,605.7521431,nan,nan
0,404,17:22:51:659000,6,1,364,255.9375,[-0.16019432  0.47670452 -0.00341125],1,1,1,0.422192243,0,0,0,0.36666469,0.415641937,0.148240741,0.563882678,0.267401195,nan,nan,nan,[ nan  nan  nan],nan,nan,nan,148.9922513,606.2739394,606.6961316,nan,nan
0,405,17:22:52:595000,6,1,321,225.703125,[-0.09994335  0.43654647  0.39117498],1,1,1,0.512388641,0,0,0,0.451525863,0.415658819,0.148049959,0.563708778,0.26760886,nan,nan,nan,[ nan  nan  nan],nan,nan,nan,148.9922513,607.215729,607.7281176,nan,nan
0,406,17:22:53:531000,6,1,178,125.15625,[ 1.         -0.13991966  0.31509783],1,1,1,0.434575467,0,0,0,0.45638545,0.415907482,0.147940647,0.563848129,0.267966835,nan,nan,nan,[ nan  nan  nan],nan,nan,nan,148.9922513,608.1575165,608.592092,nan,nan
0,407,17:22:54:483000,6,1,117,82.265625,[ 1.         -0.30758797 -0.27188654],1,1,1,0.604778582,0,0,0,0.517247563,0.415955348,0.147753874,0.563709222,0.268201474,nan,nan,nan,[ nan  nan  nan],nan,nan,nan,148.9922513,609.0992996,609.7040782,nan,nan
0,408,17:22:55:419000,6,0,283,198.984375,[ 0.19826868  0.35105092  0.60582595],0,nan,nan,nan,0,0,0,0.519677024,0.416438272,0.147872671,0.564310944,0.268565601,nan,nan,nan,[ nan  nan  nan],nan,nan,nan,148.9922513,610.0410897,nan,nan,nan
0,409,17:22:56:370000,6,1,384,270,[-0.09247501  0.47794532 -0.22247927],1,1,1,0.361065844,0,0,0,0.482922213,0.416438272,0.147872671,0.564310944,0.268565601,nan,nan,nan,[ nan  nan  nan],nan,nan,nan,148.9922513,610.9829571,611.344023,nan,nan
0,410,17:22:57:306000,6,1,148,104.0625,[ 1.         -0.27269559  0.04442646],1,1,1,0.347373166,0,0,0,0.354219505,0.416297016,0.147710349,0.564007365,0.268586667,nan,nan,nan,[ nan  nan  nan],nan,nan,nan,148.9922513,611.92466,612.2720332,nan,nan
0,411,17:22:58:242000,6,1,496,348.75,[ 0.71483372  0.27492388 -1.        ],1,1,1,0.30155538,0,0,0,0.336664796,0.416121637,0.147563162,0.5636848,0.268558475,nan,nan,nan,[ nan  nan  nan],nan,nan,nan,148.9922513,612.8664568,613.1680121,nan,nan
0,412,17:22:59:194000,6,0,221,155.390625,[ 0.85178146  0.09454116  0.58542294],0,1,0,0.335751153,0,0,0,0.328226566,0.41583086,0.147488472,0.563319332,0.268342388,nan,nan,nan,[ nan  nan  nan],nan,nan,nan,148.9922513,613.8082441,614.1439952,nan,nan
