block,trial,freq_trials,correct_response,actual_response,acc,rts,probe_trials,fast_rt_trigger,slow_rt_trigger,rt_triggered,rts_runningavg,rts_runningstd,rts_runningfastthresh,rts_runningslowthresh,rts_runningstd,rts_trailingavg,trials_colorind,trials_colorrgb0,trials_colorrgb1,trials_colorrgb2,wm_respdeg,wm_respdeg_in_colorspace,wm_respcolorminusorigcolor,wm_resptexind,wm_resptexrgb0,wm_resptexrgb1,wm_resptexrgb2,wm_rts,time_blockstart,time_encarray_offset,time_encarray_onset,time_response,time_iti_offset,time_iti_onset,time_memprobe_offset,time_memprobe_onset
1,1,1,1,1.0,1.0,0.5932076014,0,nan,nan,nan,nan,nan,nan,nan,nan,nan,378,-0.117450136118,0.478670924818,-0.154810124165,nan,nan,nan,nan,nan,nan,nan,nan,148.992251326,150.014997286,nan,150.608204887,nan,nan,nan,nan
1,2,1,1,1.0,1.0,0.323452317971,0,nan,nan,nan,nan,nan,nan,nan,nan,nan,123,1.0,-0.311441137266,-0.208672863777,nan,nan,nan,nan,nan,nan,nan,nan,148.992251326,150.956758358,nan,151.280210676,nan,nan,nan,nan
1,3,0,0,0.0,1.0,0.637498403492,0,nan,nan,nan,nan,nan,nan,nan,nan,nan,279,0.238157575771,0.338930353633,0.618978422254,nan,nan,nan,nan,nan,nan,nan,nan,148.992251326,151.898678229,nan,152.536176633,nan,nan,nan,nan
1,4,1,1,1.0,1.0,0.575800098537,0,nan,nan,nan,nan,nan,nan,nan,nan,nan,443,0.281558783006,0.419268214519,-1.0,nan,nan,nan,nan,nan,nan,nan,nan,148.992251326,152.840366316,nan,153.416166415,nan,nan,nan,nan
1,5,1,1,1.0,1.0,0.345362085674,0,nan,nan,nan,nan,nan,nan,nan,nan,nan,212,0.93926288676,0.0467731277665,0.543851001166,nan,nan,nan,nan,nan,nan,nan,nan,148.992251326,153.798793067,nan,154.144155153,nan,nan,nan,nan
1,6,1,1,1.0,1.0,0.315489250701,0,nan,nan,nan,nan,nan,nan,nan,nan,nan,464,0.448404880525,0.373503555275,-1.0,nan,nan,nan,nan,nan,nan,nan,nan,148.992251326,154.740657344,nan,155.056146595,nan,nan,nan,nan
1,7,1,1,1.0,1.0,0.381731444679,0,nan,nan,nan,nan,nan,nan,nan,nan,nan,335,-0.155595990888,0.455627721073,0.276893227044,nan,nan,nan,nan,nan,nan,nan,nan,148.992251326,155.682389622,nan,156.064121066,nan,nan,nan,nan
1,8,1,1,1.0,1.0,0.279924437637,0,nan,nan,nan,nan,nan,nan,nan,nan,nan,294,0.0948761993654,0.381212130724,0.559858230992,nan,nan,nan,nan,nan,nan,nan,nan,148.992251326,156.62418462,nan,156.904109058,nan,nan,nan,nan
1,9,1,1,1.0,1.0,0.354112022964,0,nan,nan,nan,nan,nan,nan,nan,nan,nan,434,0.213881816697,0.43461034373,-1.0,nan,nan,nan,nan,nan,nan,nan,nan,148.992251326,157.565984466,nan,157.920096489,nan,nan,nan,nan
1,10,1,1,1.0,1.0,0.316313753603,0,nan,nan,nan,nan,nan,nan,nan,nan,nan,272,0.310166696092,0.316214117232,0.637281430288,nan,nan,nan,nan,nan,nan,nan,nan,148.992251326,158.507754091,nan,158.824067844,nan,nan,nan,nan
1,11,0,0,nan,nan,nan,0,nan,nan,nan,nan,nan,nan,nan,nan,nan,345,-0.173519535469,0.465595146217,0.186119282857,nan,nan,nan,nan,nan,nan,nan,nan,148.992251326,159.44954966,nan,nan,nan,nan,nan,nan
1,12,1,1,1.0,1.0,0.464670107584,0,nan,nan,nan,nan,nan,nan,nan,nan,nan,197,1.0,-0.035797595552,0.455774741445,nan,nan,nan,nan,nan,nan,nan,nan,148.992251326,160.391340097,nan,160.856010204,nan,nan,nan,nan
1,13,1,1,1.0,1.0,0.714891913696,0,nan,nan,nan,nan,nan,nan,nan,nan,nan,52,1.0,-0.0438860552364,-1.0,nan,nan,nan,nan,nan,nan,nan,nan,148.992251326,161.333126827,nan,162.048018741,nan,nan,nan,nan
1,14,1,1,1.0,1.0,0.517062534462,0,nan,nan,nan,nan,nan,nan,nan,nan,nan,509,0.822386376617,0.224555004187,-1.0,nan,nan,nan,nan,nan,nan,nan,nan,148.992251326,162.274927528,nan,162.791990063,nan,nan,nan,nan
1,15,1,1,1.0,1.0,0.41529572627,0,nan,nan,nan,nan,nan,nan,nan,nan,nan,447,0.312467642152,0.411646472288,-1.0,nan,nan,nan,nan,nan,nan,nan,nan,148.992251326,163.216702285,nan,163.631998011,nan,nan,nan,nan
1,16,1,1,1.0,1.0,0.441488518554,0,nan,nan,nan,nan,nan,nan,nan,nan,nan,366,-0.155593376329,0.477302029306,-0.0244766492797,nan,nan,nan,nan,nan,nan,nan,nan,148.992251326,164.158492722,nan,164.599981241,nan,nan,nan,nan
1,17,0,0,0.0,1.0,0.499672992795,0,nan,nan,nan,nan,nan,nan,nan,nan,nan,40,1.0,0.0201165467467,-1.0,nan,nan,nan,nan,nan,nan,nan,nan,148.992251326,165.100274891,nan,165.599947884,nan,nan,nan,nan
1,18,1,1,1.0,1.0,0.501872522524,0,nan,nan,nan,nan,nan,nan,nan,nan,nan,265,0.384259149088,0.291568309415,0.649478858709,nan,nan,nan,nan,nan,nan,nan,nan,148.992251326,166.042062763,nan,166.543935285,nan,nan,nan,nan
1,19,1,1,1.0,1.0,0.352052476257,0,nan,nan,nan,nan,nan,nan,nan,nan,nan,472,0.51429864939,0.352212277195,-1.0,nan,nan,nan,nan,nan,nan,nan,nan,148.992251326,166.983870306,nan,167.335922782,nan,nan,nan,nan
1,20,1,1,1.0,1.0,0.346262139501,0,nan,nan,nan,nan,nan,nan,nan,nan,nan,230,0.760023132926,0.140224214653,0.61781109556,nan,nan,nan,nan,nan,nan,nan,nan,148.992251326,167.92565333,nan,168.27191547,nan,nan,nan,nan
1,21,0,0,0.0,1.0,0.540485316305,0,nan,nan,nan,nan,nan,nan,nan,nan,nan,150,1.0,-0.266152531622,0.0638227105866,nan,nan,nan,nan,nan,nan,nan,nan,148.992251326,168.867406134,nan,169.407891451,nan,nan,nan,nan
1,22,1,1,1.0,1.0,0.422602783481,0,nan,nan,nan,nan,nan,nan,nan,nan,nan,19,0.99625917486,0.126374530333,-1.0,nan,nan,nan,nan,nan,nan,nan,nan,148.992251326,169.809263284,nan,170.231866068,nan,nan,nan,nan
1,23,1,1,1.0,1.0,0.744844290952,0,nan,nan,nan,nan,nan,nan,nan,nan,nan,348,-0.175384772129,0.468017843042,0.157582163916,nan,nan,nan,nan,nan,nan,nan,nan,148.992251326,170.751003829,nan,171.49584812,nan,nan,nan,nan
1,24,1,1,1.0,1.0,0.419048468932,0,nan,nan,nan,nan,nan,nan,nan,nan,nan,427,0.163265173604,0.444863218481,-0.840208708629,nan,nan,nan,nan,nan,nan,nan,nan,148.992251326,171.692795407,nan,172.111843876,nan,nan,nan,nan
1,25,1,1,1.0,1.0,0.34122417582,0,nan,nan,nan,nan,nan,nan,nan,nan,nan,502,0.764740937618,0.25241357569,-1.0,nan,nan,nan,nan,nan,nan,nan,nan,148.992251326,172.634592972,nan,172.975817147,nan,nan,nan,nan
1,26,1,1,1.0,1.0,0.351443507301,0,nan,nan,nan,nan,nan,nan,nan,nan,nan,46,1.0,-0.0117313672748,-1.0,nan,nan,nan,nan,nan,nan,nan,nan,148.992251326,173.576372575,nan,173.927816082,nan,nan,nan,nan
1,27,1,1,1.0,1.0,0.305625151086,0,nan,nan,nan,nan,nan,nan,nan,nan,nan,480,0.580928072941,0.32870764083,-1.0,nan,nan,nan,nan,nan,nan,nan,nan,148.992251326,174.518165293,nan,174.823790444,nan,nan,nan,nan
1,28,1,1,1.0,1.0,0.307839505898,0,nan,nan,nan,nan,nan,nan,nan,nan,nan,433,0.206536295144,0.436163724167,-1.0,nan,nan,nan,nan,nan,nan,nan,nan,148.992251326,175.459946607,nan,175.767786113,nan,nan,nan,nan
1,29,1,1,1.0,1.0,0.31800495385,0,nan,nan,nan,nan,nan,nan,nan,nan,nan,373,-0.135407706169,0.478559568072,-0.0996974893599,nan,nan,nan,nan,nan,nan,nan,nan,148.992251326,176.40175358,nan,176.719758534,nan,nan,nan,nan
1,30,1,1,1.0,1.0,0.264174493554,0,nan,nan,nan,nan,nan,nan,nan,nan,nan,15,0.965734432428,0.145352784795,-1.0,nan,nan,nan,nan,nan,nan,nan,nan,148.992251326,177.343577373,nan,177.607751867,nan,nan,nan,nan
1,31,1,1,1.0,1.0,0.330425525608,0,nan,nan,nan,nan,nan,nan,nan,nan,nan,425,0.149162615564,0.447529597292,-0.791715667876,nan,nan,nan,nan,nan,nan,nan,nan,148.992251326,178.285304804,nan,178.615730329,nan,nan,nan,nan
1,32,1,1,1.0,1.0,0.276610745641,0,nan,nan,nan,nan,nan,nan,nan,nan,nan,30,1.0,0.071945658744,-1.0,nan,nan,nan,nan,nan,nan,nan,nan,148.992251326,179.227110066,nan,179.503720812,nan,nan,nan,nan
1,33,1,1,1.0,1.0,0.294795995404,0,nan,nan,nan,nan,nan,nan,nan,nan,nan,282,0.208142307666,0.34807905204,0.609295500931,nan,nan,nan,nan,nan,nan,nan,nan,148.992251326,180.16889081,nan,180.463686805,nan,nan,nan,nan
1,34,1,1,1.0,1.0,0.216986527375,0,nan,nan,nan,nan,nan,nan,nan,nan,nan,399,-0.0164460389312,0.472031251936,-0.400274523968,nan,nan,nan,nan,nan,nan,nan,nan,148.992251326,181.110693221,nan,181.327679748,nan,nan,nan,nan
1,35,1,1,1.0,1.0,0.315195885021,0,nan,nan,nan,nan,nan,nan,nan,nan,nan,241,0.64365311028,0.192605941253,0.644254782112,nan,nan,nan,nan,nan,nan,nan,nan,148.992251326,182.05247482,nan,182.367670705,nan,nan,nan,nan
1,36,1,1,1.0,1.0,0.173377109168,0,nan,nan,nan,nan,nan,nan,nan,nan,nan,436,0.228681708805,0.431413732101,-1.0,nan,nan,nan,nan,nan,nan,nan,nan,148.992251326,182.994270389,nan,183.167647498,nan,nan,nan,nan
1,37,1,1,1.0,1.0,0.15157824452,0,nan,nan,nan,nan,nan,nan,nan,nan,nan,484,0.614398947124,0.316112737715,-1.0,nan,nan,nan,nan,nan,nan,nan,nan,148.992251326,183.936052843,nan,184.087631088,nan,nan,nan,nan
1,38,1,1,1.0,1.0,0.121805193776,0,nan,nan,nan,nan,nan,nan,nan,nan,nan,190,1.0,-0.0746884387243,0.407399635172,nan,nan,nan,nan,nan,nan,nan,nan,148.992251326,184.877814201,nan,184.999619394,nan,nan,nan,nan
1,39,1,1,1.0,1.0,0.187968415674,0,nan,nan,nan,nan,nan,nan,nan,nan,nan,226,0.801265930663,0.120208988367,0.60458276857,nan,nan,nan,nan,nan,nan,nan,nan,148.992251326,185.819628871,nan,186.007597287,nan,nan,nan,nan
1,40,1,1,1.0,1.0,0.0301499500638,0,nan,nan,nan,nan,nan,nan,nan,nan,nan,388,-0.0739633693698,0.476941921698,-0.268577162136,nan,nan,nan,nan,nan,nan,nan,nan,148.992251326,186.761403343,nan,186.791553293,nan,nan,nan,nan
1,41,1,1,1.0,1.0,0.104359202727,0,nan,nan,nan,nan,nan,nan,nan,nan,nan,498,0.731507943485,0.267561876527,-1.0,nan,nan,nan,nan,nan,nan,nan,nan,148.992251326,187.703204043,nan,187.807563246,nan,nan,nan,nan
1,42,0,0,0.0,1.0,0.570551162527,0,nan,nan,nan,nan,nan,nan,nan,nan,nan,373,-0.135407706169,0.478559568072,-0.0996974893599,nan,nan,nan,nan,nan,nan,nan,nan,148.992251326,188.644989064,nan,189.215540226,nan,nan,nan,nan
1,43,1,1,1.0,1.0,0.588781457685,0,nan,nan,nan,nan,nan,nan,nan,nan,nan,43,1.0,0.00424534395127,-1.0,nan,nan,nan,nan,nan,nan,nan,nan,148.992251326,189.586772373,nan,190.175553831,nan,nan,nan,nan
1,44,1,1,1.0,1.0,0.478954363847,0,nan,nan,nan,nan,nan,nan,nan,nan,nan,316,-0.0718215561597,0.428203514031,0.427892255365,nan,nan,nan,nan,nan,nan,nan,nan,148.992251326,190.528555113,nan,191.007509477,nan,nan,nan,nan
1,45,1,1,1.0,1.0,0.505117791065,0,nan,nan,nan,nan,nan,nan,nan,nan,nan,202,1.0,-0.00802826454356,0.487596984314,nan,nan,nan,nan,nan,nan,nan,nan,148.992251326,191.470368643,nan,191.975486434,nan,nan,nan,nan
1,46,1,1,1.0,1.0,0.378625589015,0,nan,nan,nan,nan,nan,nan,nan,nan,nan,21,1.0,0.116713997928,-1.0,nan,nan,nan,nan,nan,nan,nan,nan,148.992251326,192.428845285,nan,192.807470874,nan,nan,nan,nan
1,47,1,1,1.0,1.0,0.324863267073,0,nan,nan,nan,nan,nan,nan,nan,nan,nan,285,0.178734351563,0.356878681702,0.598527012995,nan,nan,nan,nan,nan,nan,nan,nan,148.992251326,193.37059809,nan,193.695461357,nan,nan,nan,nan
1,48,1,1,1.0,1.0,0.479052152426,0,nan,nan,nan,nan,nan,nan,nan,nan,nan,177,1.0,-0.145192147526,0.306921212481,nan,nan,nan,nan,nan,nan,nan,nan,148.992251326,194.312388812,nan,194.791440964,nan,nan,nan,nan
1,49,1,1,1.0,1.0,0.313291146478,0,nan,nan,nan,nan,nan,nan,nan,nan,nan,33,1.0,0.0565990290419,-1.0,nan,nan,nan,nan,nan,nan,nan,nan,148.992251326,195.25413791,nan,195.567429056,nan,nan,nan,nan
1,50,1,1,1.0,1.0,0.35544200422,0,nan,nan,nan,nan,nan,nan,nan,nan,nan,194,1.0,-0.0524864644427,0.435571704399,nan,nan,nan,nan,nan,nan,nan,nan,148.992251326,196.195971112,nan,196.551413116,nan,nan,nan,nan
1,51,1,1,1.0,1.0,0.381640213367,0,nan,nan,nan,nan,nan,nan,nan,nan,nan,411,0.0555201669072,0.463022710015,-0.557054760163,nan,nan,nan,nan,nan,nan,nan,nan,148.992251326,197.137745583,nan,197.519385797,nan,nan,nan,nan
1,52,1,1,1.0,1.0,0.351836942253,0,nan,nan,nan,nan,nan,nan,nan,nan,nan,335,-0.155595990888,0.455627721073,0.276893227044,nan,nan,nan,nan,nan,nan,nan,nan,148.992251326,198.079533455,nan,198.431370397,nan,nan,nan,nan
1,53,1,1,1.0,1.0,0.306048236263,0,nan,nan,nan,nan,nan,nan,nan,nan,nan,491,0.673033477965,0.292707709811,-1.0,nan,nan,nan,nan,nan,nan,nan,nan,148.992251326,199.02131762,nan,199.327365856,nan,nan,nan,nan
1,54,1,1,1.0,1.0,0.292237527552,0,nan,nan,nan,nan,nan,nan,nan,nan,nan,331,-0.143297839787,0.450801753776,0.311166711333,nan,nan,nan,nan,nan,nan,nan,nan,148.992251326,199.963108057,nan,200.255345584,nan,nan,nan,nan
1,55,1,1,1.0,1.0,0.190449907212,0,nan,nan,nan,nan,nan,nan,nan,nan,nan,128,1.0,-0.310663006781,-0.156689791083,nan,nan,nan,nan,nan,nan,nan,nan,148.992251326,200.904912749,nan,201.095362656,nan,nan,nan,nan
1,56,1,1,1.0,1.0,0.416633120156,1,nan,nan,nan,nan,nan,nan,nan,nan,nan,508,0.814199817736,0.228638933499,-1.0,69.3764686167,20.6235313833,23.4360313833,29.0,1.0,0.0770173926463,-1.0,2.16724807618,148.992251326,201.84668722,202.65510633,202.26332034,205.84723917,206.848855674,203.663548362,205.838822227
1,57,1,1,1.0,1.0,0.562200932356,0,nan,nan,nan,nan,nan,nan,nan,nan,nan,447,0.312467642152,0.411646472288,-1.0,nan,nan,nan,nan,nan,nan,nan,nan,148.992251326,206.98901176,nan,207.551212692,nan,nan,nan,nan
1,58,1,1,1.0,1.0,0.556403183087,1,nan,nan,nan,nan,nan,nan,nan,nan,nan,179,1.0,-0.13461441766,0.323204131591,-41.3477772197,131.34777722,5.48840221969,187.0,1.0,-0.0912463489427,0.385383214542,1.90878893866,148.992251326,207.930802197,208.739213039,208.48720538,211.689575227,212.698768777,209.764334148,211.681243813
1,59,1,1,1.0,1.0,0.615315797157,0,nan,nan,nan,nan,nan,nan,nan,nan,nan,424,0.142174562463,0.448819569244,-0.770229420881,nan,nan,nan,nan,nan,nan,nan,nan,148.992251326,212.839769892,nan,213.455085689,nan,nan,nan,nan
1,60,1,1,1.0,1.0,0.73753238708,0,nan,nan,nan,nan,nan,nan,nan,nan,nan,369,-0.147694689129,0.477999187239,-0.0564338676883,nan,nan,nan,nan,nan,nan,nan,nan,148.992251326,213.781554912,nan,214.519087299,nan,nan,nan,nan
1,61,1,1,1.0,1.0,0.755750993325,0,nan,nan,nan,nan,nan,nan,nan,nan,nan,303,0.0191349273956,0.402522842081,0.512018356663,nan,nan,nan,nan,nan,nan,nan,nan,148.992251326,214.723325107,nan,215.479076101,nan,nan,nan,nan
1,62,1,1,1.0,1.0,0.533922079368,1,nan,nan,nan,nan,nan,nan,nan,nan,nan,162,1.0,-0.218739557155,0.176632971453,-53.7461622626,143.746162263,29.8399122626,204.0,1.0,0.00303256528985,0.499654420455,1.60045763903,148.992251326,215.665131795,216.473541782,216.199053874,219.10717882,220.108649355,217.490332618,219.098858525
1,63,1,1,1.0,1.0,0.541914511705,0,nan,nan,nan,nan,nan,nan,nan,nan,nan,323,-0.11001989341,0.43965344528,0.375855360355,nan,nan,nan,nan,nan,nan,nan,nan,148.992251326,220.249057752,nan,220.790972263,nan,nan,nan,nan
1,64,1,1,1.0,1.0,0.472103463137,0,nan,nan,nan,nan,nan,nan,nan,nan,nan,159,1.0,-0.231765974528,0.149055008463,nan,nan,nan,nan,nan,nan,nan,nan,148.992251326,221.190856172,nan,221.662959635,nan,nan,nan,nan
1,65,1,1,1.0,1.0,0.330330017838,0,nan,nan,nan,nan,nan,nan,nan,nan,nan,315,-0.0657111424032,0.426434809442,0.434956515233,nan,nan,nan,nan,nan,nan,nan,nan,148.992251326,222.132630928,nan,222.462960946,nan,nan,nan,nan
1,66,1,1,1.0,1.0,0.34051884379,0,nan,nan,nan,nan,nan,nan,nan,nan,nan,173,1.0,-0.165909522591,0.273535192888,nan,nan,nan,nan,nan,nan,nan,nan,148.992251326,223.07441994,nan,223.414938784,nan,nan,nan,nan
1,67,1,1,1.0,1.0,0.310704453907,0,nan,nan,nan,nan,nan,nan,nan,nan,nan,345,-0.173519535469,0.465595146217,0.186119282857,nan,nan,nan,nan,nan,nan,nan,nan,148.992251326,224.016210092,nan,224.326914546,nan,nan,nan,nan
1,68,0,0,1.0,0.0,0.113005079329,0,0.0,0.0,0.0,nan,nan,nan,nan,nan,nan,191,1.0,-0.0691479807067,0.414571651978,nan,nan,nan,nan,nan,nan,nan,nan,148.992251326,224.957965462,nan,225.070970541,nan,nan,nan,nan
1,69,1,1,1.0,1.0,0.371072777489,0,nan,nan,nan,nan,nan,nan,nan,nan,nan,6,0.895129075663,0.186272780825,-1.0,nan,nan,nan,nan,nan,nan,nan,nan,148.992251326,225.899785835,nan,226.270858612,nan,nan,nan,nan
1,70,1,1,1.0,1.0,0.349285031669,0,nan,nan,nan,nan,nan,nan,nan,nan,nan,492,0.681403316433,0.289222019555,-1.0,nan,nan,nan,nan,nan,nan,nan,nan,148.992251326,226.841564583,nan,227.190849614,nan,nan,nan,nan
1,71,0,0,0.0,1.0,0.639472420793,0,nan,nan,nan,nan,nan,nan,nan,nan,nan,192,1.0,-0.0635997558896,0.421658406928,nan,nan,nan,nan,nan,nan,nan,nan,148.992251326,227.783361577,nan,228.422833998,nan,nan,nan,nan
1,72,1,1,1.0,1.0,0.289670221624,0,nan,nan,nan,nan,nan,nan,nan,nan,nan,47,1.0,-0.0170755915744,-1.0,nan,nan,nan,nan,nan,nan,nan,nan,148.992251326,228.725159997,nan,229.014830219,nan,nan,nan,nan
1,73,1,1,1.0,1.0,0.323876258393,0,nan,nan,nan,nan,nan,nan,nan,nan,nan,458,0.399688045963,0.388050214986,-1.0,nan,nan,nan,nan,nan,nan,nan,nan,148.992251326,229.66693903,nan,229.990815289,nan,nan,nan,nan
1,74,1,1,1.0,1.0,0.278067025356,0,nan,nan,nan,nan,nan,nan,nan,nan,nan,84,1.0,-0.20765784414,-0.652191087791,nan,nan,nan,nan,nan,nan,nan,nan,148.992251326,230.608730893,nan,230.886797918,nan,nan,nan,nan
1,75,1,1,1.0,1.0,0.280261138221,0,nan,nan,nan,nan,nan,nan,nan,nan,nan,414,0.0747837862165,0.460162189034,-0.600089175003,nan,nan,nan,nan,nan,nan,nan,nan,148.992251326,231.550522755,nan,231.830783894,nan,nan,nan,nan
1,76,1,1,1.0,1.0,0.322457611677,1,nan,nan,nan,nan,nan,nan,nan,nan,nan,277,0.258470646878,0.33263615818,0.624824240443,-96.0958615446,186.095861545,-8.6697634554,265.0,0.384259149088,0.291568309415,0.649478858709,1.30052275537,148.992251326,232.492308061,233.300719188,232.814765672,235.634338094,236.644386937,234.317509169,235.626013808
1,77,1,1,1.0,1.0,0.53414816194,0,nan,nan,nan,nan,nan,nan,nan,nan,nan,496,0.714833717156,0.274923884212,-1.0,nan,nan,nan,nan,nan,nan,nan,nan,148.992251326,236.784534184,nan,237.318682346,nan,nan,nan,nan
1,78,1,1,1.0,1.0,0.456358080555,0,nan,nan,nan,nan,nan,nan,nan,nan,nan,285,0.178734351563,0.356878681702,0.598527012995,nan,nan,nan,nan,nan,nan,nan,nan,148.992251326,237.726311507,nan,238.182669588,nan,nan,nan,nan
1,79,1,1,1.0,1.0,0.362561752147,0,nan,nan,nan,nan,nan,nan,nan,nan,nan,497,0.723174939644,0.271260599794,-1.0,nan,nan,nan,nan,nan,nan,nan,nan,148.992251326,238.668099663,nan,239.030661416,nan,nan,nan,nan
1,80,1,1,1.0,1.0,0.548741749255,0,nan,nan,nan,nan,nan,nan,nan,nan,nan,116,1.0,-0.306446923025,-0.282515442494,nan,nan,nan,nan,nan,nan,nan,nan,148.992251326,239.609890956,nan,240.158632705,nan,nan,nan,nan
1,81,1,1,1.0,1.0,0.382943680626,0,0.0,0.0,0.0,0.394353223326,0.152416142668,0.241937080659,0.546769365994,0.152416142668,0.431415727343,178,1.0,-0.139919655122,0.315097826042,nan,nan,nan,nan,nan,nan,nan,nan,148.992251326,240.551682818,nan,240.934626499,nan,nan,nan,nan
1,82,1,1,1.0,1.0,0.297132657142,0,0.0,0.0,0.0,0.394210604043,0.151465850671,0.242744753372,0.545676454714,0.151465850671,0.409606029008,275,0.279002393219,0.326185254474,0.630178474337,nan,nan,nan,nan,nan,nan,nan,nan,148.992251326,241.493466413,nan,241.79059907,nan,nan,nan,nan
1,83,0,0,0.0,1.0,0.651328498847,0,0.0,0.0,0.0,0.393012110871,0.150909182651,0.24210292822,0.543921293522,0.150909182651,0.443801612205,413,0.0683106243366,0.461143133648,-0.585495598612,nan,nan,nan,nan,nan,nan,nan,nan,148.992251326,242.435257421,nan,243.086585919,nan,nan,nan,nan
1,84,1,1,1.0,1.0,0.277525909711,0,0.0,0.0,0.0,0.396162310724,0.152642324714,0.24351998601,0.548804635439,0.152642324714,0.408662355233,154,1.0,-0.251813147593,0.102138173725,nan,nan,nan,nan,nan,nan,nan,nan,148.992251326,243.377046432,nan,243.654572342,nan,nan,nan,nan
1,85,1,1,1.0,1.0,0.383731120848,0,0.0,0.0,0.0,0.394732956495,0.152271109061,0.243235259345,0.545968705178,0.152271109061,0.437528509802,2,0.863024578927,0.203622855609,-1.0,nan,nan,nan,nan,nan,nan,nan,nan,148.992251326,244.318830597,nan,244.702561718,nan,nan,nan,nan
1,86,0,0,nan,nan,nan,0,0.0,0.0,0.0,0.394601982262,0.151366722917,0.243235259345,0.545968705178,0.151366722917,0.330628515279,473,0.522594813828,0.349396171415,-1.0,nan,nan,nan,nan,nan,nan,nan,nan,148.992251326,245.26062189,nan,nan,nan,nan,nan,nan
1,87,1,1,1.0,1.0,0.348109288258,0,0.0,0.0,0.0,0.394601982262,0.151366722917,0.243235259345,0.545968705178,0.151366722917,0.365920204553,19,0.99625917486,0.126374530333,-1.0,nan,nan,nan,nan,nan,nan,nan,nan,148.992251326,246.202408906,nan,246.550518194,nan,nan,nan,nan
1,88,1,1,1.0,1.0,0.470308487245,0,0.0,0.0,0.0,0.394055009391,0.150557179449,0.243497829942,0.54461218884,0.150557179449,0.409208887751,242,0.632911854383,0.197161183215,0.645921401967,nan,nan,nan,nan,nan,nan,nan,nan,148.992251326,247.144200483,nan,247.61450897,nan,nan,nan,nan
1,89,1,1,1.0,1.0,0.52049140603,0,0.0,0.0,0.0,0.394941677738,0.149902349821,0.245039327917,0.544844027559,0.149902349821,0.446303060511,314,-0.0594438881467,0.42463230952,0.441925406839,nan,nan,nan,nan,nan,nan,nan,nan,148.992251326,248.085987499,nan,248.606478905,nan,nan,nan,nan
1,90,1,1,1.0,1.0,0.418697798625,0,0.0,0.0,0.0,0.396384778063,0.149637992243,0.24674678582,0.546022770307,0.149637992243,0.469832563967,262,0.416452475899,0.2804144186,0.652815538838,nan,nan,nan,nan,nan,nan,nan,nan,148.992251326,249.02777594,nan,249.446473739,nan,nan,nan,nan
1,91,1,1,1.0,1.0,0.340886334947,0,0.0,0.0,0.0,0.396638335115,0.148804142634,0.247834192481,0.545442477749,0.148804142634,0.426691846534,399,-0.0164460389312,0.472031251936,-0.400274523968,nan,nan,nan,nan,nan,nan,nan,nan,148.992251326,249.969564667,nan,250.310451002,nan,nan,nan,nan
1,92,1,1,1.0,1.0,0.559092510841,0,0.0,0.0,0.0,0.396011908147,0.148082446406,0.249577560085,0.546070269602,0.148082446406,0.439558881471,270,0.331159066004,0.309369715406,0.641393874915,nan,nan,nan,nan,nan,nan,nan,nan,148.992251326,250.911348262,nan,251.470440773,nan,nan,nan,nan
1,93,1,1,nan,nan,nan,0,0.0,0.0,0.0,0.397823914843,0.148246354759,0.249577560085,0.546070269602,0.148246354759,0.449989422894,25,1.0,0.0970682892709,-1.0,nan,nan,nan,nan,nan,nan,nan,nan,148.992251326,251.85314098,nan,nan,nan,nan,nan,nan
1,94,1,1,nan,nan,nan,0,0.0,0.0,0.0,0.397823914843,0.148246354759,0.249577560085,0.546070269602,0.148246354759,0.559092510841,369,-0.147694689129,0.477999187239,-0.0564338676883,nan,nan,nan,nan,nan,nan,nan,nan,148.992251326,252.794926285,nan,nan,nan,nan,nan,nan
1,95,0,0,1.0,0.0,0.26162001706,0,0.0,0.0,0.0,0.397823914843,0.148246354759,0.249577560085,0.546070269602,0.148246354759,0.26162001706,21,1.0,0.116713997928,-1.0,nan,nan,nan,nan,nan,nan,nan,nan,148.992251326,253.736760627,nan,253.998380644,nan,nan,nan,nan
1,96,1,1,1.0,1.0,0.279863996897,0,0.0,0.0,0.0,0.396327168714,0.148111778106,0.248215390608,0.54443894682,0.148111778106,0.270742006978,144,1.0,-0.284423189345,0.00519445478499,nan,nan,nan,nan,nan,nan,nan,nan,148.992251326,254.678502598,nan,254.958366595,nan,nan,nan,nan
1,97,1,1,1.0,1.0,0.402059204585,0,0.0,0.0,0.0,0.395061264672,0.147798784752,0.24726247992,0.542860049425,0.147798784752,0.314514406181,389,-0.0691208065164,0.476626077068,-0.280234315682,nan,nan,nan,nan,nan,nan,nan,nan,148.992251326,255.620293035,nan,256.02235224,nan,nan,nan,nan
1,98,1,1,1.0,1.0,0.612255842192,0,0.0,0.0,0.0,0.395136511338,0.147003791767,0.248132719571,0.542140303105,0.147003791767,0.431393014558,330,-0.139766326074,0.449518327743,0.319540245599,nan,nan,nan,nan,nan,nan,nan,nan,148.992251326,256.562081191,nan,257.174337034,nan,nan,nan,nan
1,99,1,1,1.0,1.0,0.502400523692,0,0.0,0.0,0.0,0.397446291454,0.147906669168,0.249539622285,0.545352960622,0.147906669168,0.505571856823,242,0.632911854383,0.197161183215,0.645921401967,nan,nan,nan,nan,nan,nan,nan,nan,148.992251326,257.503908121,nan,258.006308645,nan,nan,nan,nan
1,100,1,1,1.0,1.0,0.43263993744,0,0.0,0.0,0.0,0.398551072846,0.147515544984,0.251035527862,0.546066617829,0.147515544984,0.515765434441,10,0.926811495151,0.168400576072,-1.0,nan,nan,nan,nan,nan,nan,nan,nan,148.992251326,258.44566178,nan,258.878301718,nan,nan,nan,nan
1,101,1,1,1.0,1.0,0.378936915833,0,0.0,0.0,0.0,0.398906165185,0.146786032172,0.252120133013,0.545692197357,0.146786032172,0.437992458988,209,0.967301840512,0.0304835193525,0.52804999659,nan,nan,nan,nan,nan,nan,nan,nan,148.992251326,259.387447656,nan,259.766384572,nan,nan,nan,nan
1,102,1,1,1.0,1.0,0.389040782698,0,0.0,0.0,0.0,0.398700296635,0.146041373427,0.252658923208,0.544741670063,0.146041373427,0.400205878657,357,-0.1717918326,0.473767524415,0.068739031695,nan,nan,nan,nan,nan,nan,nan,nan,148.992251326,260.329238378,nan,260.718279161,nan,nan,nan,nan
1,103,1,1,1.0,1.0,0.679217052937,0,0.0,0.0,0.0,0.398601730166,0.145297596828,0.253304133339,0.543899326994,0.145297596828,0.482398250489,39,1.0,0.0253789930673,-1.0,nan,nan,nan,nan,nan,nan,nan,nan,148.992251326,261.271020833,nan,261.950237886,nan,nan,nan,nan
1,104,1,1,1.0,1.0,0.457428622933,0,0.0,0.0,0.0,0.401436228376,0.147260023474,0.254176204902,0.54869625185,0.147260023474,0.508562152856,86,1.0,-0.21659106269,-0.625617802914,nan,nan,nan,nan,nan,nan,nan,nan,148.992251326,262.21281241,nan,262.670241033,nan,nan,nan,nan
1,105,1,1,1.0,1.0,0.539619474206,0,0.0,1.0,0.0,0.401996152322,0.146627750907,0.255368401414,0.548623903229,0.146627750907,0.558755050025,418,0.101175887384,0.455961754156,-0.661679309199,nan,nan,nan,nan,nan,nan,nan,nan,148.992251326,263.154603132,nan,263.694222607,nan,nan,nan,nan
1,106,1,1,1.0,1.0,0.645841791236,1,0.0,0.0,1.0,0.403358759469,0.146534974902,0.257976834988,0.553495253201,0.146534974902,0.547629962792,499,0.739831889234,0.263827757734,-1.0,68.9826991252,21.0173008748,30.1579258748,30.0,1.0,0.071945658744,-1.0,3.04233816708,148.992251326,264.096385302,264.90479871,264.742227093,268.980347922,269.981004217,265.92158584,268.971989994
1,107,0,0,nan,nan,nan,0,0.0,0.0,0.0,0.405736044094,0.147759209107,0.257976834988,0.553495253201,0.147759209107,0.592730632721,167,1.0,-0.195605812978,0.221546716301,nan,nan,nan,nan,nan,nan,nan,nan,148.992251326,270.122161851,nan,nan,nan,nan,nan,nan
1,108,1,1,0.0,0.0,0.142133808928,0,0.0,0.0,0.0,0.405736044094,0.147759209107,0.257976834988,0.553495253201,0.147759209107,0.393987800082,423,0.135229581944,0.450080889006,-0.750039916123,nan,nan,nan,nan,nan,nan,nan,nan,148.992251326,271.063956565,nan,271.206090374,nan,nan,nan,nan
1,109,1,1,1.0,1.0,0.408304272336,0,0.0,0.0,0.0,0.403176799093,0.149294635095,0.253882163998,0.552471434187,0.149294635095,0.275219040632,214,0.920243657418,0.0575410437433,0.553854850604,nan,nan,nan,nan,nan,nan,nan,nan,148.992251326,272.005746432,nan,272.414050704,nan,nan,nan,nan
1,110,1,1,1.0,1.0,0.410506367974,0,0.0,0.0,0.0,0.40322610172,0.148575981248,0.254650120472,0.551802082968,0.148575981248,0.320314816413,393,-0.0489456633786,0.475102171109,-0.327443230616,nan,nan,nan,nan,nan,nan,nan,nan,148.992251326,272.947532878,nan,273.358039245,nan,nan,nan,nan
1,111,1,1,1.0,1.0,0.300626245851,0,0.0,0.0,0.0,0.403295437589,0.147868474591,0.255426962998,0.551163912181,0.147868474591,0.373145628721,61,1.0,-0.0921163965413,-1.0,nan,nan,nan,nan,nan,nan,nan,nan,148.992251326,273.889397725,nan,274.190023971,nan,nan,nan,nan
1,112,1,1,1.0,1.0,0.254898265703,0,0.0,0.0,0.0,0.402326860309,0.147503614493,0.254823245816,0.549830474801,0.147503614493,0.322010293176,471,0.506014005179,0.354993781952,-1.0,nan,nan,nan,nan,nan,nan,nan,nan,148.992251326,274.83110862,nan,275.086006886,nan,nan,nan,nan
1,113,1,1,1.0,1.0,0.0730922394432,0,1.0,0.0,0.0,0.400949022976,0.14749647816,0.247780581343,0.548046042692,0.14749647816,0.209538916999,405,0.018463324075,0.468009379796,-0.476293327428,nan,nan,nan,nan,nan,nan,nan,nan,148.992251326,275.772884517,nan,275.845976757,nan,nan,nan,nan
1,114,1,1,nan,nan,nan,0,0.0,0.0,0.0,0.397913312017,0.150132730675,0.247780581343,0.548046042692,0.150132730675,0.163995252573,466,0.464789014893,0.368385601135,-1.0,nan,nan,nan,nan,nan,nan,nan,nan,148.992251326,276.714678946,nan,nan,nan,nan,nan,nan
1,115,1,1,1.0,1.0,0.541491141426,0,0.0,0.0,0.0,0.397913312017,0.150132730675,0.247780581343,0.548046042692,0.150132730675,0.307291690435,39,1.0,0.0253789930673,-1.0,nan,nan,nan,nan,nan,nan,nan,nan,148.992251326,277.656470523,nan,278.197961665,nan,nan,nan,nan
1,116,1,1,1.0,1.0,0.311688326474,0,0.0,0.0,0.0,0.39923053981,0.150068114349,0.249162425461,0.549298654159,0.150068114349,0.42658973395,192,1.0,-0.0635997558896,0.421658406928,nan,nan,nan,nan,nan,nan,nan,nan,148.992251326,278.59825925,nan,278.909947576,nan,nan,nan,nan
1,117,0,0,1.0,0.0,0.249894228706,0,0.0,0.0,0.0,0.398434701507,0.149615319299,0.248819382207,0.548050020806,0.149615319299,0.367691232202,479,0.572572153349,0.331768222426,-1.0,nan,nan,nan,nan,nan,nan,nan,nan,148.992251326,279.540045981,nan,279.789940209,nan,nan,nan,nan
1,118,1,1,1.0,1.0,0.212089687237,0,0.0,0.0,0.0,0.397096499049,0.14959968533,0.24749681372,0.546696184379,0.14959968533,0.257890747472,41,1.0,0.0148395037771,-1.0,nan,nan,nan,nan,nan,nan,nan,nan,148.992251326,280.481834422,nan,280.693924109,nan,nan,nan,nan
1,119,1,1,1.0,1.0,0.494241594162,0,0.0,0.0,0.0,0.395444652515,0.149943716434,0.245500936081,0.545388368949,0.149943716434,0.318741836702,472,0.51429864939,0.352212277195,-1.0,nan,nan,nan,nan,nan,nan,nan,nan,148.992251326,281.423647952,nan,281.917889546,nan,nan,nan,nan
1,120,1,1,1.0,1.0,0.360462576908,0,0.0,0.0,0.0,0.396318961733,0.149565260376,0.246753701357,0.54588422211,0.149565260376,0.355597952769,226,0.801265930663,0.120208988367,0.60458276857,nan,nan,nan,nan,nan,nan,nan,nan,148.992251326,282.365414156,nan,282.725876733,nan,nan,nan,nan
1,121,1,1,1.0,1.0,0.370661951543,0,0.0,0.0,0.0,0.396004432042,0.148945359286,0.247059072756,0.544949791328,0.148945359286,0.408455374204,280,0.228089347314,0.342018854333,0.61587222022,nan,nan,nan,nan,nan,nan,nan,nan,148.992251326,283.307197751,nan,283.677859702,nan,nan,nan,nan
1,122,1,1,1.0,1.0,0.588848455693,0,0.0,0.0,0.0,0.395784062646,0.148315021451,0.247469041195,0.544099084098,0.148315021451,0.439990994715,121,1.0,-0.310732805591,-0.229640808446,nan,nan,nan,nan,nan,nan,nan,nan,148.992251326,284.248987333,nan,284.837835788,nan,nan,nan,nan
1,123,1,1,1.0,1.0,0.35905276821,0,0.0,0.0,0.0,0.397448410862,0.148749015532,0.24869939533,0.546197426394,0.148749015532,0.439521058482,240,0.654373017221,0.188015059697,0.642463954019,nan,nan,nan,nan,nan,nan,nan,nan,148.992251326,285.190775204,nan,285.549827972,nan,nan,nan,nan
1,124,1,1,1.0,1.0,0.337253333419,0,0.0,0.0,0.0,0.397120242976,0.148154138413,0.248966104563,0.545274381389,0.148154138413,0.42838485244,501,0.7564492333,0.256253544744,-1.0,nan,nan,nan,nan,nan,nan,nan,nan,148.992251326,286.132566781,nan,286.469820115,nan,nan,nan,nan
1,125,1,1,1.0,1.0,0.523438747332,0,0.0,0.0,0.0,0.396612896285,0.147627066063,0.248985830222,0.544239962348,0.147627066063,0.40658161632,433,0.206536295144,0.436163724167,-1.0,nan,nan,nan,nan,nan,nan,nan,nan,148.992251326,287.074352942,nan,287.597791689,nan,nan,nan,nan
1,126,1,1,1.0,1.0,0.605629313563,0,0.0,0.0,0.0,0.397678659739,0.147460640098,0.251354855194,0.547468308515,0.147460640098,0.488773798104,5,0.88714030954,0.190659852496,-1.0,nan,nan,nan,nan,nan,nan,nan,nan,148.992251326,288.016146515,nan,288.621775829,nan,nan,nan,nan
1,127,1,1,nan,nan,nan,0,0.0,0.0,0.0,0.399411581854,0.148056726661,0.251354855194,0.547468308515,0.148056726661,0.564534030447,369,-0.147694689129,0.477999187239,-0.0564338676883,nan,nan,nan,nan,nan,nan,nan,nan,148.992251326,288.957948926,nan,nan,nan,nan,nan,nan
1,128,1,1,1.0,1.0,0.00203474320006,0,0.0,0.0,0.0,0.399411581854,0.148056726661,0.251354855194,0.547468308515,0.148056726661,0.303832028381,14,0.95801504718,0.150023555696,-1.0,nan,nan,nan,nan,nan,nan,nan,nan,148.992251326,289.899718266,nan,289.90175301,nan,nan,nan,nan
1,129,1,1,1.0,1.0,0.612233604596,0,0.0,0.0,0.0,0.39612747575,0.151769143995,0.244358331755,0.547896619744,0.151769143995,0.307134173898,168,1.0,-0.190790017254,0.230361799274,nan,nan,nan,nan,nan,nan,nan,nan,148.992251326,290.841487321,nan,291.453720926,nan,nan,nan,nan
1,130,1,1,1.0,1.0,0.406457978825,0,0.0,0.0,0.0,0.397898837462,0.152396637859,0.245502199603,0.55029547532,0.152396637859,0.340242108873,331,-0.143297839787,0.450801753776,0.311166711333,nan,nan,nan,nan,nan,nan,nan,nan,148.992251326,291.783255521,nan,292.1897135,nan,nan,nan,nan
1,131,1,1,1.0,1.0,0.392627598369,0,0.0,0.0,0.0,0.397968423977,0.151777821185,0.246190602792,0.549746245161,0.151777821185,0.470439727263,190,1.0,-0.0746884387243,0.407399635172,nan,nan,nan,nan,nan,nan,nan,nan,148.992251326,292.725065915,nan,293.117693513,nan,nan,nan,nan
1,132,1,1,1.0,1.0,0.450810362061,0,0.0,0.0,0.0,0.397925352803,0.151165329695,0.246760023108,0.549090682497,0.151165329695,0.416631979751,117,1.0,-0.307587969795,-0.271886539361,nan,nan,nan,nan,nan,nan,nan,nan,148.992251326,293.666871747,nan,294.117682109,nan,nan,nan,nan
1,133,1,1,1.0,1.0,0.445014608384,0,0.0,0.0,0.0,0.398348432877,0.150633146563,0.247715286314,0.548981579439,0.150633146563,0.429484189604,292,0.112881669716,0.376069582356,0.569261850688,nan,nan,nan,nan,nan,nan,nan,nan,148.992251326,294.608650495,nan,295.053665104,nan,nan,nan,nan
1,134,1,1,1.0,1.0,0.367190600431,0,0.0,0.0,0.0,0.398718799349,0.150091336049,0.2486274633,0.548810135398,0.150091336049,0.421005190292,361,-0.166047812515,0.475607712818,0.0278173107143,nan,nan,nan,nan,nan,nan,nan,nan,148.992251326,295.550445209,nan,295.917635809,nan,nan,nan,nan
1,135,1,1,1.0,1.0,0.369320851343,0,0.0,0.0,0.0,0.398470545814,0.149525226432,0.248945319382,0.547995772246,0.149525226432,0.393842020053,314,-0.0594438881467,0.42463230952,0.441925406839,nan,nan,nan,nan,nan,nan,nan,nan,148.992251326,296.49230464,nan,296.861625491,nan,nan,nan,nan
1,136,1,1,1.0,1.0,0.571574948786,0,0.0,0.0,0.0,0.398242813826,0.148962107716,0.249280706111,0.547204921542,0.148962107716,0.436028800187,49,1.0,-0.027785429985,-1.0,nan,nan,nan,nan,nan,nan,nan,nan,148.992251326,297.434024658,nan,298.005599606,nan,nan,nan,nan
1,137,1,1,1.0,1.0,0.405785148032,0,0.0,0.0,0.0,0.399586473787,0.149160283958,0.250426189829,0.548746757745,0.149160283958,0.448893649387,5,0.88714030954,0.190659852496,-1.0,nan,nan,nan,nan,nan,nan,nan,nan,148.992251326,298.375815095,nan,298.781600243,nan,nan,nan,nan
1,138,0,0,0.0,1.0,0.655962193734,0,0.0,0.0,0.0,0.399634155897,0.148586469983,0.251047685914,0.548220625879,0.148586469983,0.544440763517,120,1.0,-0.310161497659,-0.240162905937,nan,nan,nan,nan,nan,nan,nan,nan,148.992251326,299.317600115,nan,299.973562309,nan,nan,nan,nan
1,139,1,1,1.0,1.0,0.314182077127,0,0.0,0.0,0.0,0.401590858475,0.149690127342,0.251900731134,0.551280985817,0.149690127342,0.458643139631,482,0.597655625539,0.322480811492,-1.0,nan,nan,nan,nan,nan,nan,nan,nan,148.992251326,300.259391693,nan,300.57357377,nan,nan,nan,nan
1,140,1,1,1.0,1.0,0.500396285963,0,0.0,0.0,0.0,0.400928670738,0.149314519513,0.251614151225,0.550243190251,0.149314519513,0.490180185608,59,1.0,-0.0814409933332,-1.0,nan,nan,nan,nan,nan,nan,nan,nan,148.992251326,301.201178138,nan,301.701574424,nan,nan,nan,nan
1,141,1,1,1.0,1.0,0.382561934646,0,0.0,0.0,0.0,0.401676547544,0.149000086145,0.252676461399,0.55067663369,0.149000086145,0.399046765912,205,1.0,0.00854800403903,0.505535240796,nan,nan,nan,nan,nan,nan,nan,nan,148.992251326,302.14296658,nan,302.525528514,nan,nan,nan,nan
1,142,1,1,1.0,1.0,0.34475340182,0,0.0,0.0,0.0,0.401533901179,0.148452189803,0.253081711376,0.549986090982,0.148452189803,0.409237207476,452,0.351738073422,0.401406211611,-1.0,nan,nan,nan,nan,nan,nan,nan,nan,148.992251326,303.084755021,nan,303.429508423,nan,nan,nan,nan
1,143,1,1,1.0,1.0,0.338967911666,0,0.0,0.0,0.0,0.401113304888,0.147981460288,0.2531318446,0.549094765176,0.147981460288,0.355427749377,344,-0.172543464245,0.464730234515,0.195503824632,nan,nan,nan,nan,nan,nan,nan,nan,148.992251326,304.026554581,nan,304.365522493,nan,nan,nan,nan
1,144,0,0,1.0,0.0,0.22915478755,0,0.0,0.0,0.0,0.400656353467,0.147531971909,0.253124381558,0.548188325376,0.147531971909,0.304292033679,395,-0.0383984177995,0.474183508328,-0.351427224487,nan,nan,nan,nan,nan,nan,nan,nan,148.992251326,304.968331904,nan,305.197486692,nan,nan,nan,nan
1,145,1,1,1.0,1.0,0.607345317316,0,0.0,0.0,0.0,0.399404517219,0.147715719953,0.251688797266,0.547120237173,0.147715719953,0.391822672177,34,1.0,0.0514419701458,-1.0,nan,nan,nan,nan,nan,nan,nan,nan,148.992251326,305.910112078,nan,306.517457395,nan,nan,nan,nan
1,146,1,1,1.0,1.0,0.337531873898,0,0.0,0.0,0.0,0.400911334611,0.148232509166,0.252678825446,0.549143843777,0.148232509166,0.391343992921,92,1.0,-0.241703663401,-0.55060883727,nan,nan,nan,nan,nan,nan,nan,nan,148.992251326,306.851914489,nan,307.189446363,nan,nan,nan,nan
1,147,0,0,0.0,1.0,0.683728725999,0,0.0,0.0,0.0,0.400455367268,0.147795431531,0.252659935737,0.5482507988,0.147795431531,0.542868639071,141,1.0,-0.291952736687,-0.024586852943,nan,nan,nan,nan,nan,nan,nan,nan,148.992251326,307.793683829,nan,308.477412555,nan,nan,nan,nan
1,148,1,1,1.0,1.0,0.301926006854,0,0.0,0.0,0.0,0.402478748402,0.149186261279,0.253292487123,0.551665009681,0.149186261279,0.44106220225,268,0.35230222188,0.302367520405,0.645005310408,nan,nan,nan,nan,nan,nan,nan,nan,148.992251326,308.735482819,nan,309.037408826,nan,nan,nan,nan
1,149,1,1,1.0,1.0,0.536114196526,0,0.0,0.0,0.0,0.401765608391,0.148895575366,0.252870033025,0.550661183757,0.148895575366,0.507256309793,84,1.0,-0.20765784414,-0.652191087791,nan,nan,nan,nan,nan,nan,nan,nan,148.992251326,309.677272686,nan,310.213386882,nan,nan,nan,nan
1,150,1,1,1.0,1.0,0.442329271988,0,0.0,0.0,0.0,0.402711725209,0.1487950963,0.253916628909,0.551506821508,0.1487950963,0.426789825122,273,0.299732959835,0.319577193062,0.635038033336,nan,nan,nan,nan,nan,nan,nan,nan,148.992251326,310.619050579,nan,311.061379851,nan,nan,nan,nan
1,151,1,1,1.0,1.0,0.332471957779,0,0.0,0.0,0.0,0.402988770991,0.148310669754,0.254678101236,0.551299440745,0.148310669754,0.436971808764,189,1.0,-0.0802194643608,0.400143472992,nan,nan,nan,nan,nan,nan,nan,nan,148.992251326,311.560890623,nan,311.893362581,nan,nan,nan,nan
1,152,1,1,1.0,1.0,0.422700572002,0,0.0,0.0,0.0,0.402499070899,0.147910772651,0.254588298247,0.55040984355,0.147910772651,0.399167267256,112,1.0,-0.300501516081,-0.325324861792,nan,nan,nan,nan,nan,nan,nan,nan,148.992251326,312.50263801,nan,312.925338582,nan,nan,nan,nan
1,153,1,1,1.0,1.0,0.376905593846,0,0.0,0.0,0.0,0.402638391596,0.147409334054,0.255229057542,0.55004772565,0.147409334054,0.377359374543,221,0.851781464038,0.0945411604707,0.585422935822,nan,nan,nan,nan,nan,nan,nan,nan,148.992251326,313.444426452,nan,313.821332045,nan,nan,nan,nan
1,154,1,1,1.0,1.0,0.347092914511,0,0.0,0.0,0.0,0.402462139557,0.146918970481,0.255543169076,0.549381110038,0.146918970481,0.382233026787,389,-0.0691208065164,0.476626077068,-0.280234315682,nan,nan,nan,nan,nan,nan,nan,nan,148.992251326,314.386216889,nan,314.733309803,nan,nan,nan,nan
1,155,1,1,1.0,1.0,0.365289283043,0,0.0,0.0,0.0,0.402085478162,0.146489110439,0.255596367722,0.548574588601,0.146489110439,0.363095930467,466,0.464789014893,0.368385601135,-1.0,nan,nan,nan,nan,nan,nan,nan,nan,148.992251326,315.327998488,nan,315.693287771,nan,nan,nan,nan
1,156,1,1,1.0,1.0,0.311491894128,0,0.0,0.0,0.0,0.401836855222,0.146024492456,0.255812362766,0.547861347678,0.146024492456,0.341291363894,109,1.0,-0.294638327523,-0.357773695079,nan,nan,nan,nan,nan,nan,nan,nan,148.992251326,316.269795767,nan,316.581287661,nan,nan,nan,nan
1,157,1,1,1.0,1.0,0.369688057341,0,0.0,0.0,0.0,0.401230513201,0.145720473123,0.255510040078,0.546950986324,0.145720473123,0.348823078171,382,-0.1011887567,0.478291136399,-0.199732273247,nan,nan,nan,nan,nan,nan,nan,nan,148.992251326,317.211577652,nan,317.581265709,nan,nan,nan,nan
1,158,1,1,1.0,1.0,0.395860607678,0,0.0,0.0,0.0,0.401020230162,0.145256606975,0.255763623187,0.546276837137,0.145256606975,0.359013519716,240,0.654373017221,0.188015059697,0.642463954019,nan,nan,nan,nan,nan,nan,nan,nan,148.992251326,318.15337208,nan,318.549232688,nan,nan,nan,nan
1,159,0,0,0.0,1.0,0.590009659121,0,0.0,0.0,0.0,0.400986060477,0.144775430709,0.256210629767,0.545761491186,0.144775430709,0.451852774713,436,0.228681708805,0.431413732101,-1.0,nan,nan,nan,nan,nan,nan,nan,nan,148.992251326,319.095201291,nan,319.68521095,nan,nan,nan,nan
1,160,1,1,1.0,1.0,0.336262903525,0,0.0,0.0,0.0,0.402229636784,0.145105306168,0.257124330616,0.547334942951,0.145105306168,0.440711056775,108,1.0,-0.292426609412,-0.368663285579,nan,nan,nan,nan,nan,nan,nan,nan,148.992251326,320.036943546,nan,320.37320645,nan,nan,nan,nan
1,161,1,1,1.0,1.0,0.322490112798,0,0.0,0.0,0.0,0.401798481664,0.144727978999,0.257070502666,0.546526460663,0.144727978999,0.416254225148,464,0.448404880525,0.373503555275,-1.0,nan,nan,nan,nan,nan,nan,nan,nan,148.992251326,320.978729137,nan,321.301219249,nan,nan,nan,nan
1,162,1,1,1.0,1.0,0.372647942975,0,0.0,0.0,0.0,0.401283492256,0.14439789283,0.256885599426,0.545681385086,0.14439789283,0.343800319766,176,1.0,-0.150429669724,0.298675466069,nan,nan,nan,nan,nan,nan,nan,nan,148.992251326,321.920520999,nan,322.293168942,nan,nan,nan,nan
1,163,1,1,1.0,1.0,0.382859861886,0,0.0,0.0,0.0,0.401098746777,0.143949597547,0.25714914923,0.545048344324,0.143949597547,0.35933263922,426,0.156193047225,0.446210853967,-0.81485970128,nan,nan,nan,nan,nan,nan,nan,nan,148.992251326,322.862306875,nan,323.245166737,nan,nan,nan,nan
1,164,1,1,1.0,1.0,0.321055215434,0,0.0,0.0,0.0,0.400981830848,0.143494861714,0.257294343826,0.543651144425,0.143494861714,0.358854340098,100,1.0,-0.270427092546,-0.457439896749,nan,nan,nan,nan,nan,nan,nan,nan,148.992251326,323.804095316,nan,324.125150532,nan,nan,nan,nan
1,165,0,0,nan,nan,nan,0,0.0,0.0,0.0,0.400472744126,0.1431784003,0.257294343826,0.543651144425,0.1431784003,0.35195753866,182,1.0,-0.118523835432,0.347089474713,nan,nan,nan,nan,nan,nan,nan,nan,148.992251326,324.745885468,nan,nan,nan,nan,nan,nan
1,166,1,1,1.0,1.0,0.405412810273,0,0.0,0.0,0.0,0.400472744126,0.1431784003,0.257294343826,0.543651144425,0.1431784003,0.363234012853,315,-0.0657111424032,0.426434809442,0.434956515233,nan,nan,nan,nan,nan,nan,nan,nan,148.992251326,325.687671344,nan,326.093084154,nan,nan,nan,nan
1,167,1,1,1.0,1.0,0.543546981877,0,0.0,0.0,0.0,0.400504010367,0.142725122571,0.257778887796,0.543229132938,0.142725122571,0.474479896075,67,1.0,-0.12380466598,-1.0,nan,nan,nan,nan,nan,nan,nan,nan,148.992251326,326.629551017,nan,327.173097998,nan,nan,nan,nan
1,168,1,1,1.0,1.0,0.761826427886,0,0.0,1.0,0.0,0.401403651697,0.142724288483,0.258679363214,0.544127940181,0.142724288483,0.570262073345,187,1.0,-0.0912463489427,0.385383214542,nan,nan,nan,nan,nan,nan,nan,nan,148.992251326,327.571252788,nan,328.333079216,nan,nan,nan,nan
1,169,1,1,1.0,1.0,0.468019151711,1,0.0,0.0,1.0,0.403656294048,0.145085277836,0.258571016213,0.548741571884,0.145085277836,0.591130853825,267,0.362924526182,0.298807232282,0.646622522267,-94.7405105739,184.740510574,-2.99386442611,263.0,0.405698801511,0.284171736334,0.651829885785,1.3671977279,148.992251326,328.513035243,329.321449791,328.981054394,331.721756214,332.723121833,330.338239487,331.713429077
1,170,1,1,1.0,1.0,0.77339370182,0,0.0,0.0,0.0,0.404056063351,0.144722370802,0.259333692549,0.548778434153,0.144722370802,0.667746427139,7,0.9030914636,0.181853060355,-1.0,nan,nan,nan,nan,nan,nan,nan,nan,148.992251326,332.863562731,nan,333.636956432,nan,nan,nan,nan
1,171,1,1,1.0,1.0,0.639563652105,0,0.0,0.0,0.0,0.406335925317,0.147146587588,0.259189337729,0.553482512904,0.147146587588,0.626992168545,426,0.156193047225,0.446210853967,-0.81485970128,nan,nan,nan,nan,nan,nan,nan,nan,148.992251326,333.805381678,nan,334.44494533,nan,nan,nan,nan
1,172,1,1,1.0,1.0,0.601761391328,0,0.0,1.0,0.0,0.407766770266,0.147820663492,0.259946106774,0.555587433758,0.147820663492,0.671572915084,473,0.522594813828,0.349396171415,-1.0,nan,nan,nan,nan,nan,nan,nan,nan,148.992251326,334.747178102,nan,335.348939493,nan,nan,nan,nan
1,173,0,0,0.0,1.0,0.675976060913,1,0.0,0.0,1.0,0.408949664297,0.148141104711,0.260808559586,0.557090769008,0.148141104711,0.639100368115,390,-0.0641960347588,0.476284203309,-0.291947553613,-161.989456596,251.989456596,-22.2292934036,358.0,-0.170583909915,0.474268316859,0.0585874414746,2.24223450548,148.992251326,335.688952573,336.497377955,336.364928634,339.772765346,340.772582884,337.514162519,339.764435073
1,174,1,1,1.0,1.0,0.490182941605,0,0.0,0.0,0.0,0.410568006095,0.14913853655,0.261429469544,0.559706542645,0.14913853655,0.589306797949,218,0.881467392804,0.0788246127756,0.572559633417,nan,nan,nan,nan,nan,nan,nan,nan,148.992251326,340.914638291,nan,341.404821232,nan,nan,nan,nan
1,175,1,1,1.0,1.0,0.340394826257,0,0.0,0.0,0.0,0.41104761414,0.148816219702,0.262231394438,0.559863833842,0.148816219702,0.502184609591,20,1.0,0.121558187834,-1.0,nan,nan,nan,nan,nan,nan,nan,nan,148.992251326,341.856433004,nan,342.196827831,nan,nan,nan,nan
1,176,1,1,1.0,1.0,0.318587123591,0,0.0,0.0,0.0,0.410624543554,0.148470087881,0.262154455673,0.559094631435,0.148470087881,0.383054963818,152,1.0,-0.259184487343,0.0830625546756,nan,nan,nan,nan,nan,nan,nan,nan,148.992251326,342.798218595,nan,343.116805718,nan,nan,nan,nan
1,177,1,1,1.0,1.0,0.0887848788407,0,1.0,0.0,0.0,0.410076701768,0.148196755334,0.261879946435,0.558273457102,0.148196755334,0.249255609563,273,0.299732959835,0.319577193062,0.635038033336,nan,nan,nan,nan,nan,nan,nan,nan,148.992251326,343.740007036,nan,343.828791915,nan,nan,nan,nan
1,178,1,1,1.0,1.0,0.00296444713604,1,0.0,0.0,1.0,0.408175566721,0.149798293757,0.258377272965,0.557973860478,0.149798293757,0.136778816523,426,0.156193047225,0.446210853967,-0.81485970128,165.367636984,284.632363016,-14.8988869841,405.0,0.018463324075,0.468009379796,-0.476293327428,1.09216043708,148.992251326,344.681790916,345.490217438,344.684755363,347.623818555,348.634887193,346.515327429,347.615479728
1,179,1,1,1.0,1.0,0.438720503764,0,0.0,0.0,0.0,0.4057919719,0.152537566474,0.253254405426,0.558329538375,0.152537566474,0.17682327658,143,1.0,-0.287057525782,-0.00469998909502,nan,nan,nan,nan,nan,nan,nan,nan,148.992251326,348.773976442,nan,349.212696946,nan,nan,nan,nan
1,180,1,1,1.0,1.0,0.408916092303,0,0.0,0.0,0.0,0.405984536414,0.152111618546,0.253872917868,0.55809615496,0.152111618546,0.283533681068,237,0.686387300223,0.174031846447,0.636349816437,nan,nan,nan,nan,nan,nan,nan,nan,148.992251326,349.715773151,nan,350.124689243,nan,nan,nan,nan
1,181,1,1,1.0,1.0,0.411044632609,0,0.0,0.0,0.0,0.406001580344,0.151668952783,0.25433262756,0.557670533127,0.151668952783,0.419560409558,184,1.0,-0.107671891867,0.362640045218,nan,nan,nan,nan,nan,nan,nan,nan,148.992251326,350.657610629,nan,351.068655262,nan,nan,nan,nan
1,182,1,1,1.0,1.0,0.477293383912,0,0.0,0.0,0.0,0.406030730935,0.151230451149,0.254800279786,0.557261182084,0.151230451149,0.432418036275,498,0.731507943485,0.267561876527,-1.0,nan,nan,nan,nan,nan,nan,nan,nan,148.992251326,351.59935203,nan,352.076645414,nan,nan,nan,nan
1,183,1,1,1.0,1.0,0.399490758253,0,0.0,0.0,0.0,0.406440286412,0.150891441491,0.25554884492,0.557331727903,0.150891441491,0.429276258258,450,0.335949728395,0.405598329481,-1.0,nan,nan,nan,nan,nan,nan,nan,nan,148.992251326,352.541144177,nan,352.940634936,nan,nan,nan,nan
1,184,1,1,1.0,1.0,0.489688867063,0,0.0,0.0,0.0,0.406400574822,0.150460617306,0.255939957516,0.556861192129,0.150460617306,0.455491003076,365,-0.157962026257,0.477016591838,-0.0139196855225,nan,nan,nan,nan,nan,nan,nan,nan,148.992251326,353.482930053,nan,353.97261892,nan,nan,nan,nan
1,185,1,1,1.0,1.0,0.451876913023,0,0.0,0.0,0.0,0.406873803755,0.150163113269,0.256710690487,0.557036917024,0.150163113269,0.447018846113,198,1.0,-0.0302354974571,0.462326941081,nan,nan,nan,nan,nan,nan,nan,nan,148.992251326,354.42471935,nan,354.876596263,nan,nan,nan,nan
1,186,1,1,1.0,1.0,0.366050209152,0,0.0,0.0,0.0,0.40712805861,0.149776309684,0.257351748926,0.556904368294,0.149776309684,0.435871996412,69,1.0,-0.134207199312,-0.939648005704,nan,nan,nan,nan,nan,nan,nan,nan,148.992251326,355.366508076,nan,355.732558285,nan,nan,nan,nan
1,187,1,1,1.0,1.0,0.39222047868,0,0.0,0.0,0.0,0.406897284175,0.149386551047,0.257510733128,0.556283835222,0.149386551047,0.403382533618,265,0.384259149088,0.291568309415,0.649478858709,nan,nan,nan,nan,nan,nan,nan,nan,148.992251326,356.30828939,nan,356.700509869,nan,nan,nan,nan
1,188,1,1,1.0,1.0,0.482447667455,0,0.0,0.0,0.0,0.406815290848,0.148972702236,0.257842588612,0.555787993084,0.148972702236,0.413572785095,65,1.0,-0.113312155659,-1.0,nan,nan,nan,nan,nan,nan,nan,nan,148.992251326,357.250093512,nan,357.73254118,nan,nan,nan,nan
1,189,0,0,1.0,0.0,0.348559172649,0,0.0,0.0,0.0,0.407235470718,0.148664639247,0.258570831471,0.555900109965,0.148664639247,0.407742439595,166,1.0,-0.20036215083,0.21267421211,nan,nan,nan,nan,nan,nan,nan,nan,148.992251326,358.191966057,nan,358.54052523,nan,nan,nan,nan
1,190,1,1,1.0,1.0,0.334856515925,0,0.0,0.0,0.0,0.406911292276,0.148317178785,0.258594113491,0.55522847106,0.148317178785,0.388621118676,55,1.0,-0.0599996532909,-1.0,nan,nan,nan,nan,nan,nan,nan,nan,148.992251326,359.133657281,nan,359.468513796,nan,nan,nan,nan
1,191,1,1,1.0,1.0,0.457043455739,0,0.0,0.0,0.0,0.406515386911,0.148005025596,0.258510361315,0.554520412507,0.148005025596,0.380153048104,119,1.0,-0.309446327048,-0.250710895617,nan,nan,nan,nan,nan,nan,nan,nan,148.992251326,360.075449998,nan,360.532493454,nan,nan,nan,nan
1,192,1,1,1.0,1.0,0.723238152452,0,0.0,0.0,0.0,0.406791496577,0.147647081025,0.259439328571,0.557583302147,0.147647081025,0.505046041372,461,0.423959648591,0.380927367285,-1.0,nan,nan,nan,nan,nan,nan,nan,nan,148.992251326,361.017235304,nan,361.740473456,nan,nan,nan,nan
1,193,1,1,nan,nan,nan,0,0.0,0.0,0.0,0.408511315359,0.149071986788,0.259439328571,0.557583302147,0.149071986788,0.590140804095,331,-0.143297839787,0.450801753776,0.311166711333,nan,nan,nan,nan,nan,nan,nan,nan,148.992251326,361.959024886,nan,nan,nan,nan,nan,nan
1,194,1,1,nan,nan,nan,0,0.0,0.0,0.0,0.408511315359,0.149071986788,0.259439328571,0.557583302147,0.149071986788,0.723238152452,388,-0.0739633693698,0.476941921698,-0.268577162136,nan,nan,nan,nan,nan,nan,nan,nan,148.992251326,362.900776835,nan,nan,nan,nan,nan,nan
1,195,1,1,1.0,1.0,0.297824589594,0,0.0,0.0,0.0,0.408511315359,0.149071986788,0.259439328571,0.557583302147,0.149071986788,0.297824589594,181,1.0,-0.123914391386,0.3392011262,nan,nan,nan,nan,nan,nan,nan,nan,148.992251326,363.842603764,nan,364.140428354,nan,nan,nan,nan
1,196,0,0,0.0,1.0,0.644021156535,0,0.0,0.0,0.0,0.407913008733,0.148889900548,0.259023108186,0.556802909281,0.148889900548,0.470922873064,115,1.0,-0.305166285737,-0.293172749504,nan,nan,nan,nan,nan,nan,nan,nan,148.992251326,364.784391636,nan,365.428412792,nan,nan,nan,nan
1,197,1,1,1.0,1.0,0.342189517105,0,0.0,0.0,0.0,0.409182407377,0.14948954007,0.259692867307,0.558671947448,0.14948954007,0.428011754411,381,-0.105403061426,0.478425078289,-0.188431136224,nan,nan,nan,nan,nan,nan,nan,nan,148.992251326,365.726211723,nan,366.06840124,nan,nan,nan,nan
1,198,1,1,1.0,1.0,0.592417025124,0,0.0,0.0,0.0,0.408824156627,0.149169337234,0.259654819393,0.557993493861,0.149169337234,0.526209232921,44,1.0,-0.00106984144607,-1.0,nan,nan,nan,nan,nan,nan,nan,nan,148.992251326,366.667967093,nan,367.260384118,nan,nan,nan,nan
1,199,1,1,1.0,1.0,0.482599339448,0,0.0,0.0,0.0,0.409800714438,0.149370236526,0.260430477912,0.559170950964,0.149370236526,0.472401960559,408,0.036737934283,0.465637664749,-0.515938449969,nan,nan,nan,nan,nan,nan,nan,nan,148.992251326,367.6097581,nan,368.09235744,nan,nan,nan,nan
1,200,1,1,1.0,1.0,0.652799888747,0,0.0,1.0,0.0,0.410185892348,0.149068137196,0.261117755152,0.559254029544,0.149068137196,0.575938751106,443,0.281558783006,0.419268214519,-1.0,nan,nan,nan,nan,nan,nan,nan,nan,148.992251326,368.551543691,nan,369.204343579,nan,nan,nan,nan
1,201,1,1,1.0,1.0,0.566998558526,1,0.0,0.0,1.0,0.411462808119,0.149708123997,0.261754684122,0.561170932116,0.149708123997,0.567465928907,332,-0.146647089803,0.45205423783,0.302714191958,-146.234444007,236.234444007,2.79694400714,336.0,-0.158211608236,0.456758111158,0.268135266647,2.45063103555,148.992251326,369.493330992,370.301740978,370.06032955,373.7854981,374.795626485,371.318534381,373.777155853
1,202,1,1,1.0,1.0,0.556499261002,0,0.0,0.0,0.0,0.412277131419,0.149737011472,0.262540119947,0.562014142892,0.149737011472,0.592099236092,475,0.539218753276,0.343659807328,-1.0,nan,nan,nan,nan,nan,nan,nan,nan,148.992251326,374.935713862,nan,375.492213123,nan,nan,nan,nan
1,203,1,1,1.0,1.0,0.558692803723,0,0.0,0.0,0.0,0.413028288344,0.149706929962,0.263321358382,0.562735218306,0.149706929962,0.56073020775,231,0.749609680972,0.145151270079,0.620821461523,nan,nan,nan,nan,nan,nan,nan,nan,148.992251326,375.877498597,nan,376.436191401,nan,nan,nan,nan
1,204,1,1,1.0,1.0,0.320928632049,0,0.0,0.0,0.0,0.413783026766,0.149684363406,0.264098663359,0.563467390172,0.149684363406,0.478706898924,154,1.0,-0.251813147593,0.102138173725,nan,nan,nan,nan,nan,nan,nan,nan,148.992251326,376.81927535,nan,377.140203982,nan,nan,nan,nan
1,205,1,1,1.0,1.0,0.243131708354,0,0.0,0.0,0.0,0.413304395865,0.149446079729,0.263858316137,0.562750475594,0.149446079729,0.374251048042,261,0.427225806086,0.276617811781,0.653674462902,nan,nan,nan,nan,nan,nan,nan,nan,148.992251326,377.761066642,nan,378.004198351,nan,nan,nan,nan
1,206,1,1,1.0,1.0,0.373305663641,0,0.0,0.0,0.0,0.412431715417,0.149557151446,0.262874563971,0.561988866862,0.149557151446,0.312455334681,46,1.0,-0.0117313672748,-1.0,nan,nan,nan,nan,nan,nan,nan,nan,148.992251326,378.702849667,nan,379.07615533,nan,nan,nan,nan
1,207,0,0,0.0,1.0,0.695496138651,0,0.0,0.0,0.0,0.412232092703,0.149201183167,0.263030909536,0.56143327587,0.149201183167,0.437311170215,300,0.0433537089178,0.395748422077,0.528951029102,nan,nan,nan,nan,nan,nan,nan,nan,148.992251326,379.644642955,nan,380.340139094,nan,nan,nan,nan
1,208,1,1,1.0,1.0,0.257699066715,0,0.0,0.0,0.0,0.413669981262,0.15017732086,0.263492660401,0.563847302122,0.15017732086,0.442166956336,123,1.0,-0.311441137266,-0.208672863777,nan,nan,nan,nan,nan,nan,nan,nan,148.992251326,380.586430826,nan,380.844129893,nan,nan,nan,nan
1,209,1,1,1.0,1.0,0.363897150382,0,0.0,0.0,0.0,0.41288224937,0.150205077319,0.262677172051,0.563087326689,0.150205077319,0.439030785249,29,1.0,0.0770173926463,-1.0,nan,nan,nan,nan,nan,nan,nan,nan,148.992251326,381.528219268,nan,381.892116418,nan,nan,nan,nan
1,210,1,1,1.0,1.0,0.4540781533,0,0.0,0.0,0.0,0.412636093094,0.149867234409,0.262768858685,0.562503327502,0.149867234409,0.358558123466,91,1.0,-0.237709898716,-0.562722318432,nan,nan,nan,nan,nan,nan,nan,nan,148.992251326,382.470012271,nan,382.924090424,nan,nan,nan,nan
1,211,0,0,0.0,1.0,0.70424607594,0,0.0,0.0,0.0,0.412843303395,0.149520671799,0.263322631596,0.562363975193,0.149520671799,0.507407126541,474,0.530901762182,0.346545376391,-1.0,nan,nan,nan,nan,nan,nan,nan,nan,148.992251326,383.411836064,nan,384.11608214,nan,nan,nan,nan
1,212,1,1,1.0,1.0,0.394485866011,0,0.0,0.0,0.0,0.414293068432,0.150550885091,0.263742183341,0.564843953523,0.150550885091,0.517603365084,85,1.0,-0.212156452387,-0.638781227021,nan,nan,nan,nan,nan,nan,nan,nan,148.992251326,384.353585162,nan,384.748071028,nan,nan,nan,nan
1,213,1,1,1.0,1.0,0.356685600942,0,0.0,0.0,0.0,0.414195012975,0.15018420624,0.264010806735,0.564379219215,0.15018420624,0.485139180964,398,-0.0220377755791,0.472608796233,-0.387943383198,nan,nan,nan,nan,nan,nan,nan,nan,148.992251326,385.295373033,nan,385.652058634,nan,nan,nan,nan
1,214,1,1,1.0,1.0,0.31088891218,0,0.0,0.0,0.0,0.413911715378,0.149867935173,0.264043780205,0.563779650552,0.149867935173,0.354020126377,48,1.0,-0.0224273256894,-1.0,nan,nan,nan,nan,nan,nan,nan,nan,148.992251326,386.23716062,nan,386.548049532,nan,nan,nan,nan
1,215,1,1,1.0,1.0,0.545078527299,0,0.0,0.0,0.0,0.413406701637,0.149673213687,0.263733487951,0.563079915324,0.149673213687,0.40421768014,182,1.0,-0.118523835432,0.347089474713,nan,nan,nan,nan,nan,nan,nan,nan,148.992251326,387.178940793,nan,387.724019321,nan,nan,nan,nan
1,216,1,1,1.0,1.0,0.45926892932,0,0.0,0.0,0.0,0.414049003226,0.14958928094,0.264459722286,0.563638284166,0.14958928094,0.438412122933,3,0.871087178923,0.199335109687,-1.0,nan,nan,nan,nan,nan,nan,nan,nan,148.992251326,388.120739783,nan,388.580008713,nan,nan,nan,nan
1,217,1,1,1.0,1.0,0.41345484968,0,0.0,0.0,0.0,0.41426851743,0.149258853059,0.265009664371,0.563527370489,0.149258853059,0.472600768767,298,0.0600896634305,0.391050340636,0.53969689008,nan,nan,nan,nan,nan,nan,nan,nan,148.992251326,389.062524518,nan,389.475979368,nan,nan,nan,nan
1,218,1,1,1.0,1.0,0.335669044754,0,0.0,0.0,0.0,0.414264586668,0.14889789864,0.265366688028,0.563162485309,0.14889789864,0.402797607918,59,1.0,-0.0814409933332,-1.0,nan,nan,nan,nan,nan,nan,nan,nan,148.992251326,390.004307543,nan,390.339976588,nan,nan,nan,nan
1,219,1,1,1.0,1.0,0.329827675479,0,0.0,0.0,0.0,0.413886723486,0.148638993717,0.265247729768,0.562525717203,0.148638993717,0.359650523305,391,-0.0591907973189,0.475916278612,-0.303718712187,nan,nan,nan,nan,nan,nan,nan,nan,148.992251326,390.946125635,nan,391.27595331,nan,nan,nan,nan
1,220,1,1,1.0,1.0,0.396039078943,0,0.0,0.0,0.0,0.413484527084,0.148396381931,0.265088145153,0.561880909015,0.148396381931,0.353845266392,498,0.731507943485,0.267561876527,-1.0,nan,nan,nan,nan,nan,nan,nan,nan,148.992251326,391.887889843,nan,392.283928922,nan,nan,nan,nan
1,221,1,1,1.0,1.0,0.534227419121,0,0.0,0.0,0.0,0.413401453521,0.148047506918,0.265353946603,0.56144896044,0.148047506918,0.420031391181,77,1.0,-0.174593022316,-0.756267193339,nan,nan,nan,nan,nan,nan,nan,nan,148.992251326,392.829687407,nan,393.363914826,nan,nan,nan,nan
1,222,1,1,1.0,1.0,0.600422571995,0,0.0,0.0,0.0,0.413974088429,0.147929200896,0.266044887533,0.561903289325,0.147929200896,0.51022969002,431,0.191957257768,0.43918128748,-0.982298765802,nan,nan,nan,nan,nan,nan,nan,nan,148.992251326,393.771470147,nan,394.371892719,nan,nan,nan,nan
1,223,1,1,1.0,1.0,0.658630424296,0,0.0,1.0,0.0,0.414853562408,0.148131798295,0.266721764113,0.562985360704,0.148131798295,0.597760138471,253,0.513865899396,0.244839928328,0.655977188727,nan,nan,nan,nan,nan,nan,nan,nan,148.992251326,394.713255452,nan,395.371885877,nan,nan,nan,nan
1,224,1,1,1.0,1.0,0.524812918797,1,0.0,0.0,1.0,0.415998054718,0.148720212576,0.267277842142,0.564718267293,0.148720212576,0.594621971696,173,1.0,-0.165909522591,0.273535192888,-62.4471884233,152.447188423,30.8065634233,217.0,0.891250405156,0.0735373331823,0.568048345461,1.87551118038,148.992251326,395.655043894,396.463455021,396.179856812,399.37214332,400.37921232,397.480245572,399.363795941
1,225,1,1,1.0,1.0,0.585395635979,0,0.0,0.0,0.0,0.416506535391,0.148557798804,0.267948736587,0.565064334195,0.148557798804,0.589612993024,272,0.310166696092,0.316214117232,0.637281430288,nan,nan,nan,nan,nan,nan,nan,nan,148.992251326,400.522365354,nan,401.10776099,nan,nan,nan,nan
1,226,1,1,1.0,1.0,0.459633854567,0,0.0,0.0,0.0,0.417292066091,0.148656724157,0.268635341934,0.565948790249,0.148656724157,0.523280803114,468,0.481236483515,0.363131620867,-1.0,nan,nan,nan,nan,nan,nan,nan,nan,148.992251326,401.464123005,nan,401.923756859,nan,nan,nan,nan
1,227,1,1,1.0,1.0,0.477841056825,0,0.0,0.0,0.0,0.41748809289,0.14834006194,0.26914803095,0.56582815483,0.14834006194,0.50762351579,293,0.103830259013,0.378659598285,0.564617056734,nan,nan,nan,nan,nan,nan,nan,nan,148.992251326,402.40590888,nan,402.883749937,nan,nan,nan,nan
1,228,1,1,1.0,1.0,0.408043122734,0,0.0,0.0,0.0,0.417766217148,0.148054306787,0.26971191036,0.565820523935,0.148054306787,0.448506011375,424,0.142174562463,0.448819569244,-0.770229420881,nan,nan,nan,nan,nan,nan,nan,nan,148.992251326,403.347704449,nan,403.755747572,nan,nan,nan,nan
1,229,1,1,1.0,1.0,0.450227051915,0,0.0,0.0,0.0,0.417721615797,0.147715803544,0.270475582764,0.565264502128,0.147715803544,0.445370410491,60,1.0,-0.0867837676833,-1.0,nan,nan,nan,nan,nan,nan,nan,nan,148.992251326,404.289491465,nan,404.739718517,nan,nan,nan,nan
1,230,0,0,nan,nan,nan,0,0.0,0.0,0.0,0.417870042446,0.147394459682,0.270475582764,0.565264502128,0.147394459682,0.429135087325,361,-0.166047812515,0.475607712818,0.0278173107143,nan,nan,nan,nan,nan,nan,nan,nan,148.992251326,405.231282188,nan,nan,nan,nan,nan,nan
1,231,1,1,1.0,1.0,0.390588578768,0,0.0,0.0,0.0,0.417870042446,0.147394459682,0.270475582764,0.565264502128,0.147394459682,0.420407815342,12,0.942476689623,0.159273951266,-1.0,nan,nan,nan,nan,nan,nan,nan,nan,148.992251326,406.173071484,nan,406.563660063,nan,nan,nan,nan
1,232,1,1,1.0,1.0,0.632796855236,0,0.0,0.0,0.0,0.417746035793,0.14707054047,0.270675495323,0.564816576263,0.14707054047,0.511692717002,395,-0.0383984177995,0.474183508328,-0.351427224487,nan,nan,nan,nan,nan,nan,nan,nan,148.992251326,407.114855079,nan,407.747651934,nan,nan,nan,nan
1,233,1,1,1.0,1.0,0.363010496134,0,0.0,0.0,0.0,0.418719116424,0.147445537848,0.271273578576,0.566164654272,0.147445537848,0.462131976713,248,0.568115903494,0.223728204869,0.653295769881,nan,nan,nan,nan,nan,nan,nan,nan,148.992251326,408.056645516,nan,408.419656012,nan,nan,nan,nan
1,234,1,1,1.0,1.0,0.317214377574,0,0.0,0.0,0.0,0.418468176693,0.147160369658,0.271307807034,0.565628546351,0.147160369658,0.437673909648,484,0.614398947124,0.316112737715,-1.0,nan,nan,nan,nan,nan,nan,nan,nan,148.992251326,408.998424264,nan,409.315638642,nan,nan,nan,nan
1,235,1,1,1.0,1.0,0.4473834862,0,0.0,0.0,0.0,0.418014123782,0.146985815392,0.27102830839,0.564999939174,0.146985815392,0.375869453303,147,1.0,-0.275801134503,0.0346720467303,nan,nan,nan,nan,nan,nan,nan,nan,148.992251326,409.940224395,nan,410.387607881,nan,nan,nan,nan
1,236,1,1,1.0,1.0,0.417589338263,0,0.0,0.0,0.0,0.418145237007,0.146670424129,0.271474812879,0.564815661136,0.146670424129,0.394062400679,451,0.343830962376,0.403518361206,-1.0,nan,nan,nan,nan,nan,nan,nan,nan,148.992251326,410.882011981,nan,411.299601319,nan,nan,nan,nan
1,237,1,1,1.0,1.0,0.419783736172,0,0.0,0.0,0.0,0.418142766346,0.146344131568,0.271798634778,0.564486897914,0.146344131568,0.428252186878,161,1.0,-0.223158351501,0.167490545043,nan,nan,nan,nan,nan,nan,nan,nan,148.992251326,411.823795861,nan,412.243579597,nan,nan,nan,nan
1,238,1,1,1.0,1.0,0.421979274484,0,0.0,0.0,0.0,0.418150027275,0.146020043037,0.272129984238,0.564170070311,0.146020043037,0.419784116306,379,-0.113535935895,0.478614986251,-0.165970515924,nan,nan,nan,nan,nan,nan,nan,nan,148.992251326,412.765586298,nan,413.187565573,nan,nan,nan,nan
1,239,1,1,1.0,1.0,0.384161048336,0,0.0,0.0,0.0,0.418166896205,0.145698278684,0.272468617521,0.563865174889,0.145698278684,0.408641352997,75,1.0,-0.164714458691,-0.791355921409,nan,nan,nan,nan,nan,nan,nan,nan,148.992251326,413.707377876,nan,414.091538924,nan,nan,nan,nan
1,240,1,1,1.0,1.0,0.354359202727,0,0.0,0.0,0.0,0.418017747749,0.145395780109,0.27262196764,0.563413527859,0.145395780109,0.386833175182,474,0.530901762182,0.346545376391,-1.0,nan,nan,nan,nan,nan,nan,nan,nan,148.992251326,414.649169168,nan,415.003528371,nan,nan,nan,nan
1,241,1,1,1.0,1.0,0.348552330281,0,0.0,0.0,0.0,0.417739762837,0.145138684008,0.272601078828,0.562878446845,0.145138684008,0.362357527115,428,0.170378320166,0.443486568519,-0.86866140055,nan,nan,nan,nan,nan,nan,nan,nan,148.992251326,415.590955899,nan,415.939508229,nan,nan,nan,nan
1,242,1,1,1.0,1.0,0.310744367656,0,0.0,0.0,0.0,0.417438947913,0.14489434678,0.272544601132,0.562333294693,0.14489434678,0.337885300221,195,1.0,-0.0469245268387,0.442396054288,nan,nan,nan,nan,nan,nan,nan,nan,148.992251326,416.532742915,nan,416.843487282,nan,nan,nan,nan
1,243,1,1,1.0,1.0,0.208950760192,0,0.0,0.0,0.0,0.416977066613,0.144749970293,0.27222709632,0.561727036906,0.144749970293,0.289415819376,463,0.440238315199,0.376011795327,-1.0,nan,nan,nan,nan,nan,nan,nan,nan,148.992251326,417.474530216,nan,417.683480976,nan,nan,nan,nan
1,244,1,1,1.0,1.0,0.115154146682,0,1.0,0.0,0.0,0.416080401499,0.145079175249,0.27100122625,0.561159576748,0.145079175249,0.211616424844,281,0.218083397074,0.345068392493,0.612644422055,nan,nan,nan,nan,nan,nan,nan,nan,148.992251326,418.416314381,nan,418.531468528,nan,nan,nan,nan
1,245,1,1,1.0,1.0,0.797296303266,1,0.0,0.0,1.0,0.414788872508,0.146097978779,0.26869089373,0.560886851287,0.146097978779,0.37380040338,206,0.994723455659,0.014051917983,0.511316161583,-49.3682774346,139.368277435,-5.47547256541,198.0,1.0,-0.0302354974571,0.462326941081,2.8839711732,148.992251326,419.358098261,420.174847644,420.155394564,424.091992229,425.089186297,421.191643042,424.083667658
1,246,1,1,1.0,1.0,0.505414292798,0,0.0,0.0,0.0,0.416423519648,0.147905360577,0.268518159071,0.564328880225,0.147905360577,0.472621580916,488,0.647907709101,0.302951493728,-1.0,nan,nan,nan,nan,nan,nan,nan,nan,148.992251326,425.233899386,nan,425.739313678,nan,nan,nan,nan
1,247,1,1,1.0,1.0,0.403679130366,0,0.0,0.0,0.0,0.416802203789,0.147703968589,0.269098235201,0.564506172378,0.147703968589,0.568796575477,72,1.0,-0.149607777062,-0.853203742106,nan,nan,nan,nan,nan,nan,nan,nan,148.992251326,426.175657892,nan,426.579337022,nan,nan,nan,nan
1,248,1,1,1.0,1.0,0.261874894495,0,0.0,0.0,0.0,0.416746597546,0.14739316922,0.269353428326,0.564139766765,0.14739316922,0.390322772553,387,-0.0787219327085,0.477231755363,-0.256974454483,nan,nan,nan,nan,nan,nan,nan,nan,148.992251326,427.117446048,nan,427.379320943,nan,nan,nan,nan
1,249,1,1,1.0,1.0,0.312083757191,0,0.0,0.0,0.0,0.416093130444,0.147424072932,0.268669057512,0.563517203377,0.147424072932,0.325879260684,264,0.394966959701,0.287889713878,0.650717615019,nan,nan,nan,nan,nan,nan,nan,nan,148.992251326,428.059253876,nan,428.371337633,nan,nan,nan,nan
1,250,1,1,1.0,1.0,0.234260889643,0,0.0,0.0,0.0,0.415656116271,0.147267787179,0.268388329092,0.56292390345,0.147267787179,0.269406513777,201,1.0,-0.0135712615467,0.48142235136,nan,nan,nan,nan,nan,nan,nan,nan,148.992251326,429.001015804,nan,429.235276693,nan,nan,nan,nan
1,251,1,1,1.0,1.0,0.100504680129,0,1.0,0.0,0.0,0.414897140427,0.147425085225,0.267472055202,0.562322225653,0.147425085225,0.215616442321,96,1.0,-0.25681952169,-0.503302481145,nan,nan,nan,nan,nan,nan,nan,nan,148.992251326,429.942807381,nan,430.043312061,nan,nan,nan,nan
1,252,1,1,1.0,1.0,0.0786470854073,1,0.0,0.0,1.0,0.413587171843,0.148504966247,0.265082205596,0.56209213809,0.148504966247,0.137804218393,202,1.0,-0.00802826454356,0.487596984314,-49.3086649165,139.308664917,-2.72258508348,198.0,1.0,-0.0302354974571,0.462326941081,3.02566507622,148.992251326,430.88460352,431.693010656,430.963250606,435.760163167,436.7577826,432.718122072,435.75183489
1,253,1,1,1.0,1.0,0.461064475472,0,0.0,0.0,0.0,0.412197378953,0.149752400962,0.262444977991,0.561949779915,0.149752400962,0.21340541367,248,0.568115903494,0.223728204869,0.653295769881,nan,nan,nan,nan,nan,nan,nan,nan,148.992251326,436.902032976,nan,437.363097451,nan,nan,nan,nan
1,254,1,1,1.0,1.0,0.287288514432,0,0.0,0.0,0.0,0.412399309104,0.149475549972,0.262923759132,0.561874859076,0.149475549972,0.27566669177,63,1.0,-0.102744642793,-1.0,nan,nan,nan,nan,nan,nan,nan,nan,148.992251326,437.843827119,nan,438.131115633,nan,nan,nan,nan
1,255,1,1,1.0,1.0,0.153509497177,0,0.0,0.0,0.0,0.411884449867,0.14938253965,0.262501910217,0.561266989517,0.14938253965,0.300620829027,259,0.44882283482,0.268906983076,0.655011783756,nan,nan,nan,nan,nan,nan,nan,nan,148.992251326,438.785615846,nan,438.939125343,nan,nan,nan,nan
1,256,1,1,1.0,1.0,0.299673163856,0,1.0,0.0,0.0,0.410825536126,0.149987209911,0.260838326215,0.560812746037,0.149987209911,0.246823725155,443,0.281558783006,0.419268214519,-1.0,nan,nan,nan,nan,nan,nan,nan,nan,148.992251326,439.72741284,nan,440.027086004,nan,nan,nan,nan
1,257,1,1,1.0,1.0,0.277886273281,1,0.0,0.0,1.0,0.410371852974,0.149848470773,0.260523382201,0.560220323747,0.149848470773,0.243689644771,359,-0.169222339917,0.474741883077,0.0483828026834,-147.067768959,237.067768959,-15.3541060413,337.0,-0.160643365934,0.457858386897,0.259303564052,1.29209440842,148.992251326,440.669186741,441.477614119,440.947073015,443.811293751,444.807260472,442.502736369,443.80295578
1,258,1,1,1.0,1.0,0.313879303285,0,0.0,0.0,0.0,0.409833293707,0.149780996016,0.260052297691,0.559614289723,0.149780996016,0.297146246807,280,0.228089347314,0.342018854333,0.61587222022,nan,nan,nan,nan,nan,nan,nan,nan,148.992251326,444.953084017,nan,445.26696332,nan,nan,nan,nan
1,259,1,1,1.0,1.0,0.0921476077056,0,0.0,0.0,0.0,0.409444816013,0.149601619385,0.259843196628,0.559046435398,0.149601619385,0.227971061424,148,1.0,-0.272695592461,0.0444264621409,nan,nan,nan,nan,nan,nan,nan,nan,148.992251326,445.894866472,nan,445.987014079,nan,nan,nan,nan
1,260,1,1,1.0,1.0,0.414270799607,0,0.0,0.0,0.0,0.408165391786,0.150647671065,0.257517720721,0.558813062851,0.150647671065,0.273432570199,199,1.0,-0.0246761787097,0.468786302982,nan,nan,nan,nan,nan,nan,nan,nan,148.992251326,446.836657194,nan,447.250927993,nan,nan,nan,nan
1,261,1,1,1.0,1.0,0.304505001754,0,0.0,0.0,0.0,0.408189911496,0.150345357235,0.257844554262,0.558535268731,0.150345357235,0.270307803022,59,1.0,-0.0814409933332,-1.0,nan,nan,nan,nan,nan,nan,nan,nan,148.992251326,447.778449056,nan,448.082954058,nan,nan,nan,nan
1,262,1,1,1.0,1.0,0.458684763929,0,0.0,0.0,0.0,0.407775171857,0.150187022639,0.257588149218,0.557962194496,0.150187022639,0.392486855097,155,1.0,-0.2479831371,0.111611878621,nan,nan,nan,nan,nan,nan,nan,nan,148.992251326,448.720238638,nan,449.178923402,nan,nan,nan,nan
1,263,1,1,1.0,1.0,0.460895697528,0,0.0,0.0,0.0,0.407977998917,0.149921850865,0.258056148052,0.557899849782,0.149921850865,0.408028487737,343,-0.171388175652,0.463836419185,0.204822810802,nan,nan,nan,nan,nan,nan,nan,nan,148.992251326,449.662027935,nan,450.122923633,nan,nan,nan,nan
1,264,1,1,1.0,1.0,0.479079236684,0,0.0,0.0,0.0,0.408187989785,0.149661073096,0.258526916689,0.55784906288,0.149661073096,0.46621989938,57,1.0,-0.0707313323512,-1.0,nan,nan,nan,nan,nan,nan,nan,nan,148.992251326,450.603807538,nan,451.082886775,nan,nan,nan,nan
1,265,1,1,1.0,1.0,0.417279436893,0,0.0,0.0,0.0,0.408468192342,0.149431224396,0.259036967945,0.557899416738,0.149431224396,0.452418123702,192,1.0,-0.0635997558896,0.421658406928,nan,nan,nan,nan,nan,nan,nan,nan,148.992251326,451.545602537,nan,451.962881974,nan,nan,nan,nan
1,266,1,1,1.0,1.0,0.507465856674,0,0.0,0.0,0.0,0.408502882281,0.149137799079,0.259365083202,0.55764068136,0.149137799079,0.467941510084,13,0.950262168777,0.154664060346,-1.0,nan,nan,nan,nan,nan,nan,nan,nan,148.992251326,452.487387843,nan,452.994853699,nan,nan,nan,nan
1,267,1,1,1.0,1.0,0.46969495673,0,0.0,0.0,0.0,0.408890972376,0.148973538573,0.259917433803,0.55786451095,0.148973538573,0.464813416766,408,0.036737934283,0.465637664749,-0.515938449969,nan,nan,nan,nan,nan,nan,nan,nan,148.992251326,453.429139506,nan,453.898834463,nan,nan,nan,nan
1,268,1,1,1.0,1.0,0.431843944301,0,0.0,0.0,0.0,0.40912848794,0.148730658634,0.260397829306,0.557859146575,0.148730658634,0.469668252568,362,-0.164239727892,0.476000155386,0.0174578511848,nan,nan,nan,nan,nan,nan,nan,nan,148.992251326,454.370975844,nan,454.802819789,nan,nan,nan,nan
1,269,1,1,1.0,1.0,0.418047490472,0,0.0,0.0,0.0,0.40921687493,0.148447753672,0.260769121258,0.557664628602,0.148447753672,0.439862130501,53,1.0,-0.049257555853,-1.0,nan,nan,nan,nan,nan,nan,nan,nan,148.992251326,455.312752882,nan,455.730800372,nan,nan,nan,nan
1,270,0,0,1.0,0.0,0.180265357601,0,0.0,0.0,0.0,0.409251102122,0.148160800964,0.261090301158,0.557411903086,0.148160800964,0.343385597458,145,1.0,-0.281667413287,0.0150551701241,nan,nan,nan,nan,nan,nan,nan,nan,148.992251326,456.254539042,nan,456.4348044,nan,nan,nan,nan
1,271,1,1,1.0,1.0,0.470406560926,0,0.0,0.0,0.0,0.408366987278,0.148554823812,0.259812163466,0.556921811091,0.148554823812,0.356239803,374,-0.132039125116,0.478634076427,-0.110628443238,nan,nan,nan,nan,nan,nan,nan,nan,148.992251326,457.19632948,nan,457.66673604,nan,nan,nan,nan
1,272,1,1,1.0,1.0,0.488641702745,0,0.0,0.0,0.0,0.408605601023,0.148318587011,0.260287014012,0.556924188034,0.148318587011,0.379771207091,439,0.251144291643,0.426392204401,-1.0,nan,nan,nan,nan,nan,nan,nan,nan,148.992251326,458.138119061,nan,458.626760764,nan,nan,nan,nan
1,273,1,1,1.0,1.0,0.362838582194,0,0.0,0.0,0.0,0.408912252754,0.148116735573,0.260795517181,0.557028988327,0.148116735573,0.440628948621,95,1.0,-0.253175017597,-0.514975443931,nan,nan,nan,nan,nan,nan,nan,nan,148.992251326,459.079908928,nan,459.442747511,nan,nan,nan,nan
1,274,1,1,1.0,1.0,0.26104497473,0,0.0,0.0,0.0,0.408736399049,0.147861095857,0.260315450008,0.556034219389,0.147861095857,0.370841753223,436,0.228681708805,0.431413732101,-1.0,nan,nan,nan,nan,nan,nan,nan,nan,148.992251326,460.021694234,nan,460.282739208,nan,nan,nan,nan
1,275,0,0,nan,nan,nan,0,0.0,0.0,0.0,0.408174834698,0.147859384691,0.260315450008,0.556034219389,0.147859384691,0.311941778462,152,1.0,-0.259184487343,0.0830625546756,nan,nan,nan,nan,nan,nan,nan,nan,148.992251326,460.963487807,nan,nan,nan,nan,nan,nan
1,276,1,1,1.0,1.0,0.449386868626,0,0.0,0.0,0.0,0.408174834698,0.147859384691,0.260315450008,0.556034219389,0.147859384691,0.355215921678,54,1.0,-0.0546292063271,-1.0,nan,nan,nan,nan,nan,nan,nan,nan,148.992251326,461.905271687,nan,462.354658555,nan,nan,nan,nan
1,277,1,1,1.0,1.0,0.475585647917,0,0.0,0.0,0.0,0.408330940888,0.147600794758,0.260730146129,0.555931735646,0.147600794758,0.462486258271,257,0.470472903111,0.261039853404,0.655841377839,nan,nan,nan,nan,nan,nan,nan,nan,148.992251326,462.847061269,nan,463.322646917,nan,nan,nan,nan
1,278,1,1,1.0,1.0,0.517821750022,0,0.0,0.0,0.0,0.408584732235,0.147379739332,0.261204992903,0.555964471567,0.147379739332,0.480931422188,480,0.580928072941,0.32870764083,-1.0,nan,nan,nan,nan,nan,nan,nan,nan,148.992251326,463.788839732,nan,464.306661482,nan,nan,nan,nan
1,279,1,1,1.0,1.0,0.432006450021,0,0.0,0.0,0.0,0.408995397715,0.147254275645,0.26174112207,0.55624967336,0.147254275645,0.47513794932,368,-0.150457169737,0.477793263397,-0.0457341785459,nan,nan,nan,nan,nan,nan,nan,nan,148.992251326,464.730639007,nan,465.162645457,nan,nan,nan,nan
1,280,1,1,1.0,1.0,0.402192630339,0,0.0,0.0,0.0,0.409081581432,0.14698498097,0.262096600462,0.556066562402,0.14698498097,0.450673610127,321,-0.0999433513493,0.43654647086,0.391174984052,nan,nan,nan,nan,nan,nan,nan,nan,148.992251326,465.672430014,nan,466.074622645,nan,nan,nan,nan
1,281,0,0,0.0,1.0,0.756390752795,0,0.0,0.0,0.0,0.40905587639,0.146711100224,0.262344776166,0.555766976614,0.146711100224,0.530196611052,89,1.0,-0.229484098413,-0.587370487375,nan,nan,nan,nan,nan,nan,nan,nan,148.992251326,466.614214749,nan,467.370605502,nan,nan,nan,nan
1,282,1,1,1.0,1.0,0.278533160337,0,0.0,0.0,0.0,0.410347084109,0.147955891295,0.262391192814,0.558302975405,0.147955891295,0.479038847824,182,1.0,-0.118523835432,0.347089474713,nan,nan,nan,nan,nan,nan,nan,nan,148.992251326,467.556049662,nan,467.834582822,nan,nan,nan,nan
1,283,1,1,1.0,1.0,0.392788393539,0,0.0,0.0,0.0,0.409858884392,0.147898550951,0.26196033344,0.557757435343,0.147898550951,0.475904102224,369,-0.147694689129,0.477999187239,-0.0564338676883,nan,nan,nan,nan,nan,nan,nan,nan,148.992251326,468.497788211,nan,468.890576605,nan,nan,nan,nan
1,284,1,1,1.0,1.0,0.290983382205,0,0.0,0.0,0.0,0.40979589365,0.147629051647,0.262166842004,0.557424945297,0.147629051647,0.320768312027,59,1.0,-0.0814409933332,-1.0,nan,nan,nan,nan,nan,nan,nan,nan,148.992251326,469.439578363,nan,469.730561745,nan,nan,nan,nan
1,285,1,1,1.0,1.0,0.333184417221,0,0.0,0.0,0.0,0.409359082947,0.147532770681,0.261826312266,0.556891853627,0.147532770681,0.338985397655,140,1.0,-0.294209249228,-0.0345777392028,nan,nan,nan,nan,nan,nan,nan,nan,148.992251326,470.381368515,nan,470.714552932,nan,nan,nan,nan
1,286,1,1,1.0,1.0,0.255383502168,0,0.0,0.0,0.0,0.409080054867,0.147334201053,0.261745853815,0.55641425592,0.147334201053,0.293183767198,197,1.0,-0.035797595552,0.455774741445,nan,nan,nan,nan,nan,nan,nan,nan,148.992251326,471.323152395,nan,471.578535897,nan,nan,nan,nan
1,287,1,1,1.0,1.0,0.297567146248,0,0.0,0.0,0.0,0.408519118543,0.147356853125,0.261162265418,0.555875971669,0.147356853125,0.295378355212,234,0.71814774995,0.15974031316,0.62913160129,nan,nan,nan,nan,nan,nan,nan,nan,148.992251326,472.264949389,nan,472.562516536,nan,nan,nan,nan
1,288,1,1,1.0,1.0,0.283764705295,0,0.0,0.0,0.0,0.408115656826,0.147240225827,0.260875430999,0.555355882653,0.147240225827,0.278905117904,64,1.0,-0.108036866323,-1.0,nan,nan,nan,nan,nan,nan,nan,nan,148.992251326,473.206736691,nan,473.490501396,nan,nan,nan,nan
1,289,1,1,1.0,1.0,0.357965690142,0,0.0,0.0,0.0,0.4076651099,0.147163030235,0.260502079665,0.554828140135,0.147163030235,0.313099180562,311,-0.0397249783266,0.419020224334,0.462250212202,nan,nan,nan,nan,nan,nan,nan,nan,148.992251326,474.14852,nan,474.50648569,nan,nan,nan,nan
1,290,1,1,1.0,1.0,0.416149024037,0,0.0,0.0,0.0,0.407485689612,0.146927391587,0.260558298025,0.554413081199,0.146927391587,0.352626473158,406,0.0244967455079,0.467245700284,-0.489366101921,nan,nan,nan,nan,nan,nan,nan,nan,148.992251326,475.090313003,nan,475.506462027,nan,nan,nan,nan
1,291,0,0,1.0,0.0,0.35433896078,0,0.0,0.0,0.0,0.407516852686,0.146663812701,0.260853039984,0.554180665387,0.146663812701,0.376151224986,250,0.546428449327,0.232286661223,0.654747725831,nan,nan,nan,nan,nan,nan,nan,nan,148.992251326,476.032096598,nan,476.386435559,nan,nan,nan,nan
1,292,1,1,1.0,1.0,0.332541236538,0,0.0,0.0,0.0,0.407326250922,0.146435226878,0.260891024044,0.553761477801,0.146435226878,0.367676407118,93,1.0,-0.245614297951,-0.538619881923,nan,nan,nan,nan,nan,nan,nan,nan,148.992251326,476.97388561,nan,477.306426846,nan,nan,nan,nan
1,293,1,1,1.0,1.0,0.614728495595,0,0.0,0.0,0.0,0.407059161585,0.146241565523,0.260817596062,0.553300727109,0.146241565523,0.433869564304,7,0.9030914636,0.181853060355,-1.0,nan,nan,nan,nan,nan,nan,nan,nan,148.992251326,477.915676332,nan,478.530404827,nan,nan,nan,nan
1,294,0,0,0.0,1.0,0.632922583376,0,0.0,0.0,0.0,0.407798198361,0.146503978464,0.261294219898,0.554302176825,0.146503978464,0.526730771836,302,0.027086081288,0.400300843718,0.517770016443,nan,nan,nan,nan,nan,nan,nan,nan,148.992251326,478.857465344,nan,479.490387927,nan,nan,nan,nan
1,295,1,1,1.0,1.0,0.315111210977,0,0.0,0.0,0.0,0.408596511783,0.146854985671,0.261741526113,0.555451497454,0.146854985671,0.520920763316,181,1.0,-0.123914391386,0.3392011262,nan,nan,nan,nan,nan,nan,nan,nan,148.992251326,479.799255496,nan,480.114366707,nan,nan,nan,nan
1,296,0,0,0.0,1.0,0.685306457337,0,0.0,0.0,0.0,0.408266175031,0.14670021476,0.261565960271,0.554966389792,0.14670021476,0.544446750563,113,1.0,-0.302191989669,-0.314576349441,nan,nan,nan,nan,nan,nan,nan,nan,148.992251326,480.741042797,nan,481.426349254,nan,nan,nan,nan
1,297,1,1,1.0,1.0,0.335507394338,0,0.0,0.0,0.0,0.409241668983,0.147358320221,0.261883348762,0.556599989205,0.147358320221,0.445308354218,428,0.170378320166,0.443486568519,-0.86866140055,nan,nan,nan,nan,nan,nan,nan,nan,148.992251326,481.682833804,nan,482.018341198,nan,nan,nan,nan
1,298,1,1,1.0,1.0,0.593705667299,0,0.0,0.0,0.0,0.40898295223,0.147164169408,0.261818782822,0.556147121638,0.147164169408,0.538173172992,310,-0.032854544558,0.417080732083,0.468828018046,nan,nan,nan,nan,nan,nan,nan,nan,148.992251326,482.624618824,nan,483.218324492,nan,nan,nan,nan
1,299,0,0,0.0,1.0,0.651898124255,0,0.0,0.0,0.0,0.409628835849,0.14731076053,0.26231807532,0.556939596379,0.14731076053,0.527037061964,409,0.0429436170054,0.464793150178,-0.529461854507,nan,nan,nan,nan,nan,nan,nan,nan,148.992251326,483.56640413,nan,484.218302254,nan,nan,nan,nan
1,300,1,1,1.0,1.0,0.318103312573,0,0.0,0.0,0.0,0.410472979711,0.147745207578,0.262727772133,0.558218187289,0.147745207578,0.521235701376,223,0.83172397378,0.104890589731,0.593432239612,nan,nan,nan,nan,nan,nan,nan,nan,148.992251326,484.508189435,nan,484.826292748,nan,nan,nan,nan
1,301,1,1,1.0,1.0,0.392300306121,0,0.0,0.0,0.0,0.4101522517,0.147588533174,0.262563718526,0.557740784874,0.147588533174,0.454100580983,368,-0.150457169737,0.477793263397,-0.0457341785459,nan,nan,nan,nan,nan,nan,nan,nan,148.992251326,485.449979872,nan,485.842280178,nan,nan,nan,nan
1,302,1,1,1.0,1.0,0.458397955517,0,0.0,0.0,0.0,0.410090480262,0.147336697767,0.262753782495,0.557427178029,0.147336697767,0.389600524737,408,0.036737934283,0.465637664749,-0.515938449969,nan,nan,nan,nan,nan,nan,nan,nan,148.992251326,486.391860115,nan,486.850258071,nan,nan,nan,nan
1,303,1,1,1.0,1.0,0.452672906104,0,0.0,0.0,0.0,0.410257057763,0.147109707951,0.263147349812,0.557366765714,0.147109707951,0.434457055914,251,0.535576518695,0.236509187076,0.655284151108,nan,nan,nan,nan,nan,nan,nan,nan,148.992251326,487.33355647,nan,487.786229376,nan,nan,nan,nan
1,304,1,1,1.0,1.0,0.630895537848,0,0.0,0.0,0.0,0.410402816692,0.146877700159,0.263525116533,0.557280516851,0.146877700159,0.513988799823,92,1.0,-0.241703663401,-0.55060883727,nan,nan,nan,nan,nan,nan,nan,nan,148.992251326,488.275335788,nan,488.906231326,nan,nan,nan,nan
1,305,1,1,1.0,1.0,0.537093222432,0,0.0,0.0,0.0,0.411157928751,0.147190709571,0.26396721918,0.558348638322,0.147190709571,0.540220555461,442,0.273907262724,0.421095538958,-1.0,nan,nan,nan,nan,nan,nan,nan,nan,148.992251326,489.217135919,nan,489.754229141,nan,nan,nan,nan
1,306,1,1,1.0,1.0,0.739239837974,0,0.0,1.0,0.0,0.41158774204,0.147122760202,0.264464981838,0.558710502242,0.147122760202,0.635742866085,218,0.881467392804,0.0788246127756,0.572559633417,nan,nan,nan,nan,nan,nan,nan,nan,148.992251326,490.158940041,nan,490.898179878,nan,nan,nan,nan
1,307,1,1,1.0,1.0,0.557471159496,1,0.0,0.0,1.0,0.412702204951,0.148106035796,0.264596169155,0.560808240747,0.148106035796,0.611268073301,27,1.0,0.0870912575778,-1.0,65.0679388252,24.9320611748,5.94768617481,35.0,1.0,0.0462653595507,-1.0,1.56727852463,148.992251326,491.100711946,491.909126209,491.658183106,494.517772428,495.521991876,492.934218239,494.509423623
1,308,1,1,1.0,1.0,0.446032122592,0,0.0,0.0,0.0,0.41319294717,0.148094037586,0.265098909584,0.561286984756,0.148094037586,0.580914373354,506,0.797774742377,0.236703125255,-1.0,nan,nan,nan,nan,nan,nan,nan,nan,148.992251326,495.668035516,nan,496.114067639,nan,nan,nan,nan
1,309,1,1,1.0,1.0,0.312312405673,0,0.0,0.0,0.0,0.41330389033,0.147855946362,0.265447943968,0.561159836692,0.147855946362,0.438605229254,69,1.0,-0.134207199312,-0.939648005704,nan,nan,nan,nan,nan,nan,nan,nan,148.992251326,496.609760096,nan,496.922072502,nan,nan,nan,nan
1,310,1,1,1.0,1.0,0.338519737881,0,0.0,0.0,0.0,0.412963851661,0.147722709545,0.265241142117,0.560686561206,0.147722709545,0.365621422049,32,1.0,0.061735800531,-1.0,nan,nan,nan,nan,nan,nan,nan,nan,148.992251326,497.55154255,nan,497.890062288,nan,nan,nan,nan
1,311,1,1,1.0,1.0,0.108704093553,0,1.0,0.0,0.0,0.412714039199,0.147537471146,0.265176568053,0.560251510345,0.147537471146,0.253178745702,431,0.191957257768,0.43918128748,-0.982298765802,nan,nan,nan,nan,nan,nan,nan,nan,148.992251326,498.493334698,nan,498.602038792,nan,nan,nan,nan
1,312,1,1,1.0,1.0,0.230912130559,1,0.0,0.0,1.0,0.411697283528,0.148332650094,0.263364633434,0.560029933621,0.148332650094,0.226045320664,270,0.331159066004,0.309369715406,0.641393874915,-96.6134604823,186.613460482,-3.23028951769,265.0,0.384259149088,0.291568309415,0.649478858709,1.0504931052,148.992251326,499.435122284,500.243534837,499.666034415,502.32711725,503.337460029,501.260325673,502.318775573
1,313,0,0,0.0,1.0,0.58064048941,0,0.0,0.0,0.0,0.411094666351,0.14845138685,0.262643279501,0.559546053202,0.14845138685,0.306752237841,465,0.456588679398,0.37096152752,-1.0,nan,nan,nan,nan,nan,nan,nan,nan,148.992251326,503.477312485,nan,504.057952975,nan,nan,nan,nan
1,314,1,1,1.0,1.0,0.254851794743,0,0.0,0.0,0.0,0.411657941511,0.148525360123,0.263132581388,0.560183301634,0.148525360123,0.355468138237,109,1.0,-0.294638327523,-0.357773695079,nan,nan,nan,nan,nan,nan,nan,nan,148.992251326,504.419096936,nan,504.67394873,nan,nan,nan,nan
1,315,1,1,1.0,1.0,0.393034718116,0,0.0,0.0,0.0,0.411138715859,0.148552634243,0.262586081617,0.559691350102,0.148552634243,0.409509000756,355,-0.173737462994,0.472683863687,0.0888799762457,nan,nan,nan,nan,nan,nan,nan,nan,148.992251326,505.360885662,nan,505.75392038,nan,nan,nan,nan
1,316,1,1,1.0,1.0,0.371247542498,0,0.0,0.0,0.0,0.411078966692,0.148310930026,0.262768036666,0.559389896718,0.148310930026,0.339711351786,205,1.0,0.00854800403903,0.505535240796,nan,nan,nan,nan,nan,nan,nan,nan,148.992251326,506.302670682,nan,506.673918225,nan,nan,nan,nan
1,317,0,0,0.0,1.0,0.645326334343,0,0.0,0.0,0.0,0.41094794227,0.148084361057,0.262863581213,0.559032303328,0.148084361057,0.469869531652,138,1.0,-0.29832987918,-0.0546508148191,nan,nan,nan,nan,nan,nan,nan,nan,148.992251326,507.244543513,nan,507.889869847,nan,nan,nan,nan
1,318,1,1,1.0,1.0,0.359618117218,0,0.0,0.0,0.0,0.411716396015,0.148447290757,0.263269105258,0.560163686772,0.148447290757,0.458730664686,223,0.83172397378,0.104890589731,0.593432239612,nan,nan,nan,nan,nan,nan,nan,nan,148.992251326,508.186257544,nan,508.545875661,nan,nan,nan,nan
1,319,1,1,1.0,1.0,0.457824053592,0,0.0,0.0,0.0,0.411546140202,0.148234355513,0.263311784689,0.559780495715,0.148234355513,0.487589501718,20,1.0,0.121558187834,-1.0,nan,nan,nan,nan,nan,nan,nan,nan,148.992251326,509.128028879,nan,509.585852933,nan,nan,nan,nan
1,320,1,1,1.0,1.0,0.460010753886,0,0.0,0.0,0.0,0.411696882591,0.148016224796,0.263680657795,0.559713107386,0.148016224796,0.425817641565,419,0.107894673663,0.454841969249,-0.678098861371,nan,nan,nan,nan,nan,nan,nan,nan,148.992251326,510.069833571,nan,510.529844325,nan,nan,nan,nan
1,321,1,1,1.0,1.0,0.406211939466,0,0.0,0.0,0.0,0.411853745809,0.147801300365,0.264052445445,0.559655046174,0.147801300365,0.441348915648,354,-0.174470673547,0.472100788149,0.0988677247603,nan,nan,nan,nan,nan,nan,nan,nan,148.992251326,511.011616596,nan,511.417828535,nan,nan,nan,nan
1,322,1,1,1.0,1.0,0.488406211894,0,0.0,0.0,0.0,0.411835487536,0.147562293784,0.264273193753,0.55939778132,0.147562293784,0.451542968415,119,1.0,-0.309446327048,-0.250710895617,nan,nan,nan,nan,nan,nan,nan,nan,148.992251326,511.953407888,nan,512.4418141,nan,nan,nan,nan
1,323,1,1,1.0,1.0,0.354606667592,0,0.0,0.0,0.0,0.412082489873,0.147388065801,0.264694424072,0.559470555674,0.147388065801,0.416408272984,355,-0.173737462994,0.472683863687,0.0888799762457,nan,nan,nan,nan,nan,nan,nan,nan,148.992251326,512.895192338,nan,513.249799006,nan,nan,nan,nan
1,324,0,0,0.0,1.0,0.636777105974,0,0.0,0.0,0.0,0.411897680155,0.147186888764,0.264710791391,0.559084568919,0.147186888764,0.493263328487,481,0.589289488337,0.325611856148,-1.0,nan,nan,nan,nan,nan,nan,nan,nan,148.992251326,513.836985056,nan,514.473762162,nan,nan,nan,nan
1,325,1,1,1.0,1.0,0.326918537263,0,0.0,0.0,0.0,0.412618447545,0.147499527597,0.265118919949,0.560117975142,0.147499527597,0.43943410361,377,-0.121259861678,0.478700828387,-0.143695900877,nan,nan,nan,nan,nan,nan,nan,nan,148.992251326,514.77883907,nan,515.105757608,nan,nan,nan,nan
1,326,1,1,1.0,1.0,0.377170164604,0,0.0,0.0,0.0,0.412344645915,0.147343110149,0.265001535766,0.559687756064,0.147343110149,0.44695526928,475,0.539218753276,0.343659807328,-1.0,nan,nan,nan,nan,nan,nan,nan,nan,148.992251326,515.720557378,nan,516.097727542,nan,nan,nan,nan
1,327,1,1,1.0,1.0,0.36335631978,0,0.0,0.0,0.0,0.412232625274,0.147121649411,0.265110975863,0.559354274685,0.147121649411,0.355815007216,62,1.0,-0.0974372467467,-1.0,nan,nan,nan,nan,nan,nan,nan,nan,148.992251326,516.662357223,nan,517.025713543,nan,nan,nan,nan
1,328,1,1,1.0,1.0,0.269563982787,0,0.0,0.0,0.0,0.412077462399,0.146913668021,0.265163794378,0.558991130421,0.146913668021,0.33669682239,492,0.681403316433,0.289222019555,-1.0,nan,nan,nan,nan,nan,nan,nan,nan,148.992251326,517.604140248,nan,517.87370423,nan,nan,nan,nan
1,329,1,1,1.0,1.0,0.359761236294,0,0.0,0.0,0.0,0.411626470375,0.146899258973,0.264727211402,0.558525729348,0.146899258973,0.330893846287,368,-0.150457169737,0.477793263397,-0.0457341785459,nan,nan,nan,nan,nan,nan,nan,nan,148.992251326,518.545924128,nan,518.905685364,nan,nan,nan,nan
1,330,1,1,1.0,1.0,0.401954573637,0,0.0,0.0,0.0,0.411462857649,0.146696208326,0.264766649323,0.558159065976,0.146696208326,0.343759930906,300,0.0433537089178,0.395748422077,0.528951029102,nan,nan,nan,nan,nan,nan,nan,nan,148.992251326,519.48771542,nan,519.889669994,nan,nan,nan,nan
1,331,1,1,1.0,1.0,0.372148166469,0,0.0,0.0,0.0,0.411432957385,0.146466339775,0.26496661761,0.55789929716,0.146466339775,0.3779546588,184,1.0,-0.107671891867,0.362640045218,nan,nan,nan,nan,nan,nan,nan,nan,148.992251326,520.429503861,nan,520.801652028,nan,nan,nan,nan
1,332,1,1,1.0,1.0,0.342355158878,0,0.0,0.0,0.0,0.41130980757,0.146253077125,0.265056730445,0.557562884696,0.146253077125,0.372152632995,277,0.258470646878,0.33263615818,0.624824240443,nan,nan,nan,nan,nan,nan,nan,nan,148.992251326,521.371291448,nan,521.713646606,nan,nan,nan,nan
1,333,1,1,1.0,1.0,0.320527499367,0,0.0,0.0,0.0,0.411094324293,0.146075087117,0.265019237176,0.55716941141,0.146075087117,0.345010274905,46,1.0,-0.0117313672748,-1.0,nan,nan,nan,nan,nan,nan,nan,nan,148.992251326,522.31309728,nan,522.633624779,nan,nan,nan,nan
1,334,1,1,1.0,1.0,0.330731150461,0,0.0,0.0,0.0,0.410812184652,0.145934679427,0.264877505225,0.556746864079,0.145934679427,0.331204602902,444,0.289241202529,0.417409780569,-1.0,nan,nan,nan,nan,nan,nan,nan,nan,148.992251326,523.254868901,nan,523.585600051,nan,nan,nan,nan
1,335,1,1,1.0,1.0,0.47692959907,0,0.0,0.0,0.0,0.410563485788,0.145776010833,0.264787474955,0.556339496621,0.145776010833,0.376062749633,370,-0.144805996584,0.478178727438,-0.0671803333712,nan,nan,nan,nan,nan,nan,nan,nan,148.992251326,524.196657627,nan,524.673587226,nan,nan,nan,nan
1,336,1,1,1.0,1.0,0.399122982111,0,0.0,0.0,0.0,0.410768953631,0.145596867232,0.265172086399,0.556365820863,0.145596867232,0.402261243881,254,0.503011129055,0.248947817922,0.65613358125,nan,nan,nan,nan,nan,nan,nan,nan,148.992251326,525.138446354,nan,525.537569336,nan,nan,nan,nan
1,337,1,1,1.0,1.0,0.489319665416,0,0.0,0.0,0.0,0.410733009274,0.145373442399,0.265359566875,0.556106451673,0.145373442399,0.455124082199,330,-0.139766326074,0.449518327743,0.319540245599,nan,nan,nan,nan,nan,nan,nan,nan,148.992251326,526.080233655,nan,526.56955332,nan,nan,nan,nan
1,338,1,1,1.0,1.0,0.387516649731,0,0.0,0.0,0.0,0.41097481437,0.145214861419,0.265759952952,0.556189675789,0.145214861419,0.425319765753,437,0.23613482661,0.429770237144,-1.0,nan,nan,nan,nan,nan,nan,nan,nan,148.992251326,527.022023807,nan,527.409540457,nan,nan,nan,nan
1,339,1,1,1.0,1.0,0.445714808651,0,0.0,0.0,0.0,0.41090285681,0.14499777119,0.265905085619,0.555900628,0.14499777119,0.440850374599,93,1.0,-0.245614297951,-0.538619881923,nan,nan,nan,nan,nan,nan,nan,nan,148.992251326,527.963810538,nan,528.409525346,nan,nan,nan,nan
1,340,1,1,1.0,1.0,0.367904485378,0,0.0,0.0,0.0,0.411009315378,0.144788651792,0.266220663586,0.55579796717,0.144788651792,0.40037864792,254,0.503011129055,0.248947817922,0.65613358125,nan,nan,nan,nan,nan,nan,nan,nan,148.992251326,528.905591567,nan,529.273496052,nan,nan,nan,nan
1,341,1,1,1.0,1.0,0.330050336837,0,0.0,0.0,0.0,0.410877898214,0.144587299749,0.266290598465,0.555465197963,0.144587299749,0.381223210289,73,1.0,-0.1546788618,-0.830916872461,nan,nan,nan,nan,nan,nan,nan,nan,148.992251326,529.847444155,nan,530.177494492,nan,nan,nan,nan
1,342,1,1,1.0,1.0,0.284293561766,0,0.0,0.0,0.0,0.410632221735,0.144435943615,0.26619627812,0.55506816535,0.144435943615,0.327416127994,453,0.359670421306,0.39926174925,-1.0,nan,nan,nan,nan,nan,nan,nan,nan,148.992251326,530.789178428,nan,531.07347199,nan,nan,nan,nan
1,343,1,1,1.0,1.0,0.254497133079,0,0.0,0.0,0.0,0.410249377311,0.144384022282,0.265865355029,0.554633399593,0.144384022282,0.289613677228,356,-0.17284377641,0.473239407326,0.0788368070227,nan,nan,nan,nan,nan,nan,nan,nan,148.992251326,531.730964874,nan,531.985462007,nan,nan,nan,nan
1,344,1,1,1.0,1.0,0.232682588103,0,1.0,0.0,0.0,0.409778826724,0.144418948469,0.265359878255,0.554197775193,0.144418948469,0.257157760983,84,1.0,-0.20765784414,-0.652191087791,nan,nan,nan,nan,nan,nan,nan,nan,148.992251326,532.67275189,nan,532.905434478,nan,nan,nan,nan
1,345,1,1,1.0,1.0,0.130897818657,1,0.0,0.0,1.0,0.409245404319,0.144527483386,0.264717920933,0.553772887705,0.144527483386,0.206025846613,137,1.0,-0.300190217086,-0.0647316600203,-33.0706778228,123.070677823,26.7425528228,175.0,1.0,-0.155629953633,0.290361762956,1.95888889395,148.992251326,533.614539476,534.422953169,533.745437294,537.414987536,538.421291619,535.439715495,537.406633599
1,346,1,1,1.0,1.0,0.732125506911,0,0.0,0.0,0.0,0.408409525683,0.145111792261,0.263297733422,0.553521317944,0.145111792261,0.365235304557,312,-0.0464483572634,0.420925197877,0.455573212045,nan,nan,nan,nan,nan,nan,nan,nan,148.992251326,538.565177924,nan,539.297303431,nan,nan,nan,nan
1,347,1,1,1.0,1.0,0.71034916502,0,0.0,0.0,0.0,0.409378735208,0.145969843783,0.263408891425,0.555348578991,0.145969843783,0.524457496863,416,0.087881616042,0.458117504295,-0.630165317015,nan,nan,nan,nan,nan,nan,nan,nan,148.992251326,539.506961234,nan,540.217310399,nan,nan,nan,nan
1,348,1,1,1.0,1.0,0.48053323559,0,0.0,1.0,0.0,0.410277154401,0.146673726958,0.263603427443,0.556950881359,0.146673726958,0.64100263584,15,0.965734432428,0.145352784795,-1.0,nan,nan,nan,nan,nan,nan,nan,nan,148.992251326,540.448757658,nan,540.929290893,nan,nan,nan,nan
1,349,1,1,1.0,1.0,0.586732459662,1,0.0,0.0,1.0,0.410486249881,0.146505294648,0.263980955233,0.556991544529,0.146505294648,0.592538286757,99,1.0,-0.267176270739,-0.468793303331,20.3616032754,69.6383967246,0.0290217246138,99.0,1.0,-0.267176270739,-0.468793303331,2.73397807259,148.992251326,541.39054781,542.198958367,541.977280269,545.957734818,546.954484133,543.207391275,545.949402264
1,350,1,1,1.0,1.0,0.605529529275,0,0.0,0.0,0.0,0.411009235667,0.146601539225,0.264407696442,0.557610774891,0.146601539225,0.557598408176,373,-0.135407706169,0.478559568072,-0.0996974893599,nan,nan,nan,nan,nan,nan,nan,nan,148.992251326,547.099633991,nan,547.705163521,nan,nan,nan,nan
1,351,1,1,1.0,1.0,0.575761040149,0,0.0,0.0,0.0,0.411584739494,0.146765259648,0.264819479846,0.558349999142,0.146765259648,0.589341009695,267,0.362924526182,0.298807232282,0.646622522267,nan,nan,nan,nan,nan,nan,nan,nan,148.992251326,548.041403902,nan,548.617164942,nan,nan,nan,nan
1,352,1,1,1.0,1.0,0.553951626876,0,0.0,1.0,0.0,0.412069035366,0.146818857292,0.265250178074,0.558887892658,0.146818857292,0.578414065434,505,0.789537956352,0.240683140511,-1.0,nan,nan,nan,nan,nan,nan,nan,nan,148.992251326,548.983193768,nan,549.537145395,nan,nan,nan,nan
1,353,1,1,1.0,1.0,0.620147349953,1,0.0,0.0,1.0,0.412486337106,0.14680398913,0.265682347976,0.559290326236,0.14680398913,0.583286672326,102,1.0,-0.276610342793,-0.434926949461,33.3832657487,56.6167342513,-15.1020157487,81.0,1.0,-0.193804253699,-0.694219169772,2.20894591353,148.992251326,549.924985916,550.733399324,550.545133266,553.983925615,554.988223464,551.758515872,553.975483868
1,354,1,1,1.0,1.0,0.579371518979,0,0.0,0.0,0.0,0.413095313683,0.14701802762,0.266077286063,0.560113341303,0.14701802762,0.58449016527,336,-0.158211608236,0.456758111158,0.268135266647,nan,nan,nan,nan,nan,nan,nan,nan,148.992251326,555.125668269,nan,555.705039788,nan,nan,nan,nan
1,355,1,1,1.0,1.0,0.525587244483,0,0.0,0.0,0.0,0.413581501418,0.147077210368,0.26650429105,0.560658711786,0.147077210368,0.575035371139,36,1.0,0.0410699577143,-1.0,nan,nan,nan,nan,nan,nan,nan,nan,148.992251326,556.067440745,nan,556.59302799,nan,nan,nan,nan
1,356,1,1,1.0,1.0,0.543762230664,0,0.0,0.0,0.0,0.413908048774,0.146986761846,0.266921286928,0.560894810619,0.146986761846,0.549573664709,474,0.530901762182,0.346545376391,-1.0,nan,nan,nan,nan,nan,nan,nan,nan,148.992251326,557.009230327,nan,557.552992558,nan,nan,nan,nan
1,357,1,1,1.0,1.0,0.46597072389,0,0.0,0.0,0.0,0.414285531861,0.146939368023,0.267346163838,0.561224899883,0.146939368023,0.511773399679,36,1.0,0.0410699577143,-1.0,nan,nan,nan,nan,nan,nan,nan,nan,148.992251326,557.951021049,nan,558.416991773,nan,nan,nan,nan
1,358,1,1,1.0,1.0,0.444134796562,0,0.0,0.0,0.0,0.414435344011,0.146752565145,0.267682778866,0.561187909157,0.146752565145,0.484622583705,302,0.027086081288,0.400300843718,0.517770016443,nan,nan,nan,nan,nan,nan,nan,nan,148.992251326,558.892825456,nan,559.336960253,nan,nan,nan,nan
1,359,1,1,1.0,1.0,0.382394867309,0,0.0,0.0,0.0,0.414521180579,0.146549014401,0.267972166179,0.56107019498,0.146549014401,0.430833462587,192,1.0,-0.0635997558896,0.421658406928,nan,nan,nan,nan,nan,nan,nan,nan,148.992251326,559.834597362,nan,560.216992229,nan,nan,nan,nan
1,360,1,1,1.0,1.0,0.496561435168,0,0.0,0.0,0.0,0.414428597544,0.146347829309,0.268080768235,0.560776426853,0.146347829309,0.441030366346,400,-0.0107874812989,0.471427301814,-0.412692688905,nan,nan,nan,nan,nan,nan,nan,nan,148.992251326,560.776382382,nan,561.272943817,nan,nan,nan,nan
1,361,1,1,1.0,1.0,0.5147389872,0,0.0,0.0,0.0,0.414664611445,0.146203525451,0.268461085994,0.560868136897,0.146203525451,0.464565096559,157,1.0,-0.240048375319,0.130425901556,nan,nan,nan,nan,nan,nan,nan,nan,148.992251326,561.718175956,nan,562.232914943,nan,nan,nan,nan
1,362,0,0,0.0,1.0,0.612928673101,0,0.0,0.0,0.0,0.414951357508,0.146091877929,0.268859479579,0.561043235436,0.146091877929,0.54140969849,488,0.647907709101,0.302951493728,-1.0,nan,nan,nan,nan,nan,nan,nan,nan,148.992251326,562.659966108,nan,563.272894781,nan,nan,nan,nan
1,363,1,1,1.0,1.0,0.311153768038,0,0.0,0.0,0.0,0.415517006981,0.14626524901,0.269251757971,0.561782255991,0.14626524901,0.47960714278,298,0.0600896634305,0.391050340636,0.53969689008,nan,nan,nan,nan,nan,nan,nan,nan,148.992251326,563.601743715,nan,563.912897483,nan,nan,nan,nan
1,364,1,1,1.0,1.0,0.465324977296,0,0.0,0.0,0.0,0.415219675816,0.146162631673,0.269057044143,0.561382307488,0.146162631673,0.463135806145,100,1.0,-0.270427092546,-0.457439896749,nan,nan,nan,nan,nan,nan,nan,nan,148.992251326,564.543539284,nan,565.008864262,nan,nan,nan,nan
1,365,1,1,1.0,1.0,0.387523206999,0,0.0,0.0,0.0,0.415362020422,0.14597922815,0.269382792272,0.561341248572,0.14597922815,0.388000650778,443,0.281558783006,0.419268214519,-1.0,nan,nan,nan,nan,nan,nan,nan,nan,148.992251326,565.485328011,nan,565.872851218,nan,nan,nan,nan
1,366,1,1,1.0,1.0,0.389695652353,0,0.0,0.0,0.0,0.415283156928,0.145779820997,0.269503335931,0.561062977925,0.145779820997,0.414181278883,156,1.0,-0.244060613314,0.121041471254,nan,nan,nan,nan,nan,nan,nan,nan,148.992251326,566.427141256,nan,566.816836908,nan,nan,nan,nan
1,367,0,0,0.0,1.0,0.775908549724,0,0.0,0.0,0.0,0.415210875842,0.145580106018,0.269630769823,0.56079098186,0.145580106018,0.517709136358,113,1.0,-0.302191989669,-0.314576349441,nan,nan,nan,nan,nan,nan,nan,nan,148.992251326,567.3689086,nan,568.14481715,nan,nan,nan,nan
1,368,1,1,1.0,1.0,0.402124777029,0,0.0,0.0,0.0,0.416226925627,0.146626469356,0.269600456271,0.562853394983,0.146626469356,0.522576326369,389,-0.0691208065164,0.476626077068,-0.280234315682,nan,nan,nan,nan,nan,nan,nan,nan,148.992251326,568.310688488,nan,568.712813266,nan,nan,nan,nan
1,369,1,1,1.0,1.0,0.436304299685,0,0.0,0.0,0.0,0.41618731285,0.146422290719,0.269765022131,0.562609603569,0.146422290719,0.538112542146,437,0.23613482661,0.429770237144,-1.0,nan,nan,nan,nan,nan,nan,nan,nan,148.992251326,569.252487479,nan,569.688791778,nan,nan,nan,nan
1,370,0,0,0.0,1.0,0.670493914862,0,0.0,0.0,0.0,0.416243662953,0.146220939172,0.270022723782,0.562464602125,0.146220939172,0.502974330525,284,0.188465149253,0.353984098999,0.602236276499,nan,nan,nan,nan,nan,nan,nan,nan,148.992251326,570.194272214,nan,570.864766129,nan,nan,nan,nan
1,371,1,1,1.0,1.0,0.272692646307,0,0.0,0.0,0.0,0.416953859188,0.146631865575,0.270321993613,0.563585724763,0.146631865575,0.459830286951,85,1.0,-0.212156452387,-0.638781227021,nan,nan,nan,nan,nan,nan,nan,nan,148.992251326,571.136063506,nan,571.408756152,nan,nan,nan,nan
1,372,1,1,1.0,1.0,0.346887644089,0,0.0,0.0,0.0,0.416552017369,0.146624764674,0.269927252695,0.563176782043,0.146624764674,0.430024735086,378,-0.117450136118,0.478670924818,-0.154810124165,nan,nan,nan,nan,nan,nan,nan,nan,148.992251326,572.077849382,nan,572.424737026,nan,nan,nan,nan
1,373,0,0,0.0,1.0,0.597089493356,0,0.0,0.0,0.0,0.416358505221,0.146466877219,0.269891628002,0.56282538244,0.146466877219,0.405556594584,487,0.639529740128,0.306295026098,-1.0,nan,nan,nan,nan,nan,nan,nan,nan,148.992251326,573.019635827,nan,573.616725321,nan,nan,nan,nan
1,374,1,1,1.0,1.0,0.27127571014,0,0.0,0.0,0.0,0.416859145078,0.146572000336,0.270287144742,0.563431145414,0.146572000336,0.405084282528,100,1.0,-0.270427092546,-0.457439896749,nan,nan,nan,nan,nan,nan,nan,nan,148.992251326,573.961424554,nan,574.232700264,nan,nan,nan,nan
1,375,1,1,1.0,1.0,0.409485147567,0,0.0,0.0,0.0,0.416456980893,0.146568726936,0.269888253957,0.563025707829,0.146568726936,0.425950117021,16,0.973419431522,0.140652110383,-1.0,nan,nan,nan,nan,nan,nan,nan,nan,148.992251326,574.903215276,nan,575.312700424,nan,nan,nan,nan
1,376,1,1,1.0,1.0,0.395673868596,0,0.0,0.0,0.0,0.41643777474,0.146367158565,0.270070616175,0.562804933305,0.146367158565,0.358811575434,476,0.547545041103,0.340739382997,-1.0,nan,nan,nan,nan,nan,nan,nan,nan,148.992251326,575.844998871,nan,576.24067274,nan,nan,nan,nan
