block,trial,time,setsize,freqtrials,trials_colorind,trials_colordeg,colorrgb0,colorrgb1,colorrgb2,correct_response,actual_response,acc,rts,probe_trials,rt_triggered_fast,rt_triggered_slow,rt_strailingavg,rts_runningavg,rts_runningstd,rts_runningslowthresh,rts_runningfastthresh,wm_respdeg,wm_respind,wm_resprgb0,wm_resprgb1,wm_resprgb2,wm_respcolorminusorigcolor,wm_rts,time_blockstart,time_encarray_onset,time_response,time_encarray_offest,time_memprobe_onset,time_memprobe_offset
0,0,4257,6,1,490,344,0.664660387652,0.296157848571,-1.0,1,1.0,1.0,0.360479397699,0,nan,nan,nan,nan,nan,nan,nan,nan,nan,0.0,0.0,0.0,nan,nan,169.794213256,170.809703476,171.170182873,171.309733696,nan,nan
0,1,4259,6,1,80,56,1.0,-0.189075709245,-0.708965549488,1,1.0,1.0,0.359210426919,0,nan,nan,nan,nan,nan,nan,nan,nan,nan,0.0,0.0,0.0,nan,nan,169.794213256,171.834959437,172.194169864,172.334854805,nan,nan
0,2,4300,6,1,286,201,0.169078956243,0.359734776014,0.594698705761,1,1.0,1.0,0.415135501418,0,nan,nan,nan,nan,nan,nan,nan,nan,nan,0.0,0.0,0.0,nan,nan,169.794213256,172.835022443,173.250157944,173.334994789,nan,nan
0,3,4301,6,1,241,169,0.64365311028,0.192605941253,0.644254782112,1,1.0,1.0,0.423025013413,0,nan,nan,nan,nan,nan,nan,nan,nan,nan,0.0,0.0,0.0,nan,nan,169.794213256,173.8351017,174.258126714,174.33513135,nan,nan
0,4,4305,6,1,129,90,1.0,-0.310070485259,-0.146368003411,1,1.0,1.0,0.438887001015,1,nan,nan,nan,nan,nan,nan,nan,-14.1013522803,148.0,1.0,-0.272695592461,0.0444264621409,13.3982272803,1.77545039728,169.794213256,174.835234841,175.274121842,175.335256509,176.66876052,178.452298858
0,5,4306,6,1,251,176,0.535576518695,0.236509187076,0.655284151108,1,1.0,1.0,0.421204378828,0,nan,nan,nan,nan,nan,nan,nan,nan,nan,0.0,0.0,0.0,nan,nan,169.794213256,179.660800874,180.082005253,180.160852477,nan,nan
0,6,4307,6,1,47,33,1.0,-0.0170755915744,-1.0,1,1.0,1.0,0.373057343531,0,nan,nan,nan,nan,nan,nan,nan,nan,nan,0.0,0.0,0.0,nan,nan,169.794213256,180.660955967,181.034013311,181.16097678,nan,nan
0,7,4308,6,1,194,136,1.0,-0.0524864644427,0.435571704399,1,1.0,1.0,0.340913419146,0,nan,nan,nan,nan,nan,nan,nan,nan,nan,0.0,0.0,0.0,nan,nan,169.794213256,181.661086542,182.001999961,182.161130162,nan,nan
0,8,4309,6,1,278,195,0.248285521772,0.335802812283,0.621962573991,1,1.0,1.0,0.324774316512,0,nan,nan,nan,nan,nan,nan,nan,nan,nan,0.0,0.0,0.0,nan,nan,169.794213256,182.66121056,182.985984876,183.161222249,nan,nan
0,9,4310,6,0,111,78,1.0,-0.298677811705,-0.336106236365,0,0.0,1.0,0.460611740127,0,nan,nan,nan,nan,nan,nan,nan,nan,nan,0.0,0.0,0.0,nan,nan,169.794213256,183.661353964,184.121965704,184.161381048,nan,nan
0,10,4311,6,1,217,152,0.891250405156,0.0735373331823,0.568048345461,1,1.0,1.0,0.340489478782,0,nan,nan,nan,nan,nan,nan,nan,nan,nan,0.0,0.0,0.0,nan,nan,169.794213256,184.661452893,185.001942371,185.161477982,nan,nan
0,11,4312,6,1,67,47,1.0,-0.12380466598,-1.0,1,1.0,1.0,0.316333425231,0,nan,nan,nan,nan,nan,nan,nan,nan,nan,0.0,0.0,0.0,nan,nan,169.794213256,185.661580902,185.977914327,186.161601429,nan,nan
0,12,4317,6,1,466,327,0.464789014893,0.368385601135,-1.0,1,1.0,1.0,0.356181547977,1,nan,nan,nan,nan,nan,nan,nan,116.800834947,474.0,0.530901762182,0.346545376391,-1.0,5.54291505305,1.57548306976,169.794213256,186.661718604,187.017900152,187.161733999,188.49523345,190.078769393
0,13,4318,6,1,510,358,0.830554458933,0.220436700166,-1.0,1,1.0,1.0,0.330563798081,0,nan,nan,nan,nan,nan,nan,nan,nan,nan,0.0,0.0,0.0,nan,nan,169.794213256,191.287285949,191.617849747,191.787325292,nan,nan
0,14,4319,6,1,111,78,1.0,-0.298677811705,-0.336106236365,1,1.0,1.0,0.306368686259,0,nan,nan,nan,nan,nan,nan,nan,nan,nan,0.0,0.0,0.0,nan,nan,169.794213256,192.287440187,192.593808873,192.787457578,nan,nan
0,15,4320,6,1,498,350,0.731507943485,0.267561876527,-1.0,1,1.0,1.0,0.306239251979,0,nan,nan,nan,nan,nan,nan,nan,nan,nan,0.0,0.0,0.0,nan,nan,169.794213256,193.287563064,193.593802316,193.787577889,nan,nan
0,16,4321,6,0,299,210,0.0516645560415,0.393417669654,0.534378752182,0,0.0,1.0,0.402078876272,0,nan,nan,nan,nan,nan,nan,nan,nan,nan,0.0,0.0,0.0,nan,nan,169.794213256,194.287705042,194.689783919,194.787733553,nan,nan
0,17,4322,6,1,238,167,0.675741828754,0.178727669763,0.638511091232,1,1.0,1.0,0.409940733574,0,nan,nan,nan,nan,nan,nan,nan,nan,nan,0.0,0.0,0.0,nan,nan,169.794213256,195.287820507,195.697761241,195.787839609,nan,nan
0,18,4323,6,1,144,101,1.0,-0.284423189345,0.00519445478499,1,1.0,1.0,0.409812440164,0,nan,nan,nan,nan,nan,nan,nan,nan,nan,0.0,0.0,0.0,nan,nan,169.794213256,196.287925708,196.697738148,196.787984438,nan,nan
0,19,4324,6,1,40,28,1.0,0.0201165467467,-1.0,1,1.0,1.0,0.489650093485,0,nan,nan,nan,nan,nan,nan,nan,nan,nan,0.0,0.0,0.0,nan,nan,169.794213256,197.288077665,197.777727759,197.796428181,nan,nan
0,20,4325,6,1,198,139,1.0,-0.0302354974571,0.462326941081,1,1.0,1.0,0.385190821718,0,nan,nan,nan,nan,nan,nan,nan,nan,nan,0.0,0.0,0.0,nan,nan,169.794213256,198.296515706,198.681706527,198.796580138,nan,nan
0,21,4326,6,1,153,107,1.0,-0.255547855702,0.0926213922694,1,1.0,1.0,0.27839403227,0,nan,nan,nan,nan,nan,nan,nan,nan,nan,0.0,0.0,0.0,nan,nan,169.794213256,199.323281545,199.601675577,199.821695831,nan,nan
0,22,4327,6,1,277,194,0.258470646878,0.33263615818,0.624824240443,1,1.0,1.0,0.287874675356,0,nan,nan,nan,nan,nan,nan,nan,nan,nan,0.0,0.0,0.0,nan,nan,169.794213256,200.321781645,200.60965632,200.821813291,nan,nan
0,23,4328,6,1,469,329,0.489482198204,0.360453357602,-1.0,1,1.0,1.0,0.351752838586,0,nan,nan,nan,nan,nan,nan,nan,nan,nan,0.0,0.0,0.0,nan,nan,169.794213256,201.321901671,201.67365451,201.821947002,nan,nan
0,24,4329,6,1,337,236,-0.160643365934,0.457858386897,0.259303564052,1,1.0,1.0,0.351594609208,0,nan,nan,nan,nan,nan,nan,nan,nan,nan,0.0,0.0,0.0,nan,nan,169.794213256,202.322034242,202.673628851,202.8220599,nan,nan
0,25,4330,6,1,425,298,0.149162615564,0.447529597292,-0.791715667876,1,1.0,1.0,0.335435264744,0,nan,nan,nan,nan,nan,nan,nan,nan,nan,0.0,0.0,0.0,nan,nan,169.794213256,203.322168238,203.657603502,203.822199883,nan,nan
0,26,4331,6,0,347,243,-0.174938837379,0.46723881498,0.167157479366,0,0.0,1.0,0.423206335865,0,nan,nan,nan,nan,nan,nan,nan,nan,nan,0.0,0.0,0.0,nan,nan,169.794213256,204.322388048,204.745594384,204.822342147,nan,nan
0,27,4332,6,1,66,46,1.0,-0.118568705386,-1.0,1,1.0,1.0,0.383150376845,0,nan,nan,nan,nan,nan,nan,nan,nan,nan,0.0,0.0,0.0,nan,nan,169.794213256,205.322430242,205.705580619,205.822443927,nan,nan
0,28,4333,6,1,362,254,-0.164239727892,0.476000155386,0.0174578511848,1,1.0,1.0,0.319019047078,0,nan,nan,nan,nan,nan,nan,nan,nan,nan,0.0,0.0,0.0,nan,nan,169.794213256,206.322538294,206.641557341,206.822573932,nan,nan
0,29,4334,6,1,469,329,0.489482198204,0.360453357602,-1.0,1,1.0,1.0,0.350879298523,0,nan,nan,nan,nan,nan,nan,nan,nan,nan,0.0,0.0,0.0,nan,nan,169.794213256,207.322666589,207.673545887,207.822702226,nan,nan
0,30,4335,6,1,192,135,1.0,-0.0635997558896,0.421658406928,1,1.0,1.0,0.350726201199,0,nan,nan,nan,nan,nan,nan,nan,nan,nan,0.0,0.0,0.0,nan,nan,169.794213256,208.322791461,208.673517663,208.822826813,nan,nan
0,31,4336,6,0,50,35,1.0,-0.033148730948,-1.0,0,0.0,1.0,0.422548044473,0,nan,nan,nan,nan,nan,nan,nan,nan,nan,0.0,0.0,0.0,nan,nan,169.794213256,209.322949691,209.745497735,209.822980481,nan,nan
0,32,4337,6,1,443,311,0.281558783006,0.419268214519,-1.0,1,1.0,1.0,0.398366902489,0,nan,nan,nan,nan,nan,nan,nan,nan,nan,0.0,0.0,0.0,nan,nan,169.794213256,210.323118469,210.721485371,210.823074849,nan,nan
0,33,4338,6,1,290,203,0.131265381085,0.370776544741,0.578206616232,1,1.0,1.0,0.350275746547,0,nan,nan,nan,nan,nan,nan,nan,nan,nan,0.0,0.0,0.0,nan,nan,169.794213256,211.323200577,211.673476323,211.823205994,nan,nan
0,34,4339,6,1,404,284,0.0124894593597,0.468746268022,-0.463349101315,1,1.0,1.0,0.310124279931,0,nan,nan,nan,nan,nan,nan,nan,nan,nan,0.0,0.0,0.0,nan,nan,169.794213256,212.32332773,212.63345201,212.823333432,nan,nan
0,35,4340,6,1,288,202,0.150005133015,0.365331945294,0.586687239957,1,1.0,1.0,0.294007129967,0,nan,nan,nan,nan,nan,nan,nan,nan,nan,0.0,0.0,0.0,nan,nan,169.794213256,213.323437208,213.617444338,213.823459161,nan,nan
0,36,4341,6,1,227,159,0.791019951953,0.125257787881,0.608066708266,1,1.0,1.0,0.285872718785,0,nan,nan,nan,nan,nan,nan,nan,nan,nan,0.0,0.0,0.0,nan,nan,169.794213256,214.323557519,214.609430238,214.823612828,nan,nan
0,37,4342,6,1,7,4,0.9030914636,0.181853060355,-1.0,1,1.0,1.0,0.26974501973,0,nan,nan,nan,nan,nan,nan,nan,nan,nan,0.0,0.0,0.0,nan,nan,169.794213256,215.32367726,215.59342228,215.823721736,nan,nan
0,38,4343,6,1,380,267,-0.109519508899,0.478533032186,-0.177177385375,1,1.0,1.0,0.269554859493,0,nan,nan,nan,nan,nan,nan,nan,nan,nan,0.0,0.0,0.0,nan,nan,169.794213256,216.323811827,216.593366686,216.823855161,nan,nan
0,39,4344,6,1,253,177,0.513865899396,0.244839928328,0.655977188727,1,1.0,1.0,0.277407594025,0,nan,nan,nan,nan,nan,nan,nan,nan,nan,0.0,0.0,0.0,nan,nan,169.794213256,217.323957512,217.601365106,217.823987162,nan,nan
0,40,4345,6,0,407,286,0.0305886347219,0.46645515455,-0.502577406972,0,1.0,0.0,0.277259913739,0,0.0,0.0,nan,nan,nan,nan,nan,nan,nan,0.0,0.0,0.0,nan,nan,169.794213256,218.324094358,218.601354272,218.82412743,nan,nan
0,41,4346,6,1,188,132,1.0,-0.0857393506835,0.392804289229,1,1.0,1.0,0.301132009365,0,nan,nan,nan,nan,nan,nan,nan,nan,nan,0.0,0.0,0.0,nan,nan,169.794213256,219.324188156,219.625320165,219.824233201,nan,nan
0,42,4347,6,0,467,328,0.473005185182,0.365775667588,-1.0,0,1.0,0.0,0.372984358575,0,0.0,0.0,nan,nan,nan,nan,nan,nan,nan,0.0,0.0,0.0,nan,nan,169.794213256,220.324322151,220.69730651,220.824382307,nan,nan
0,43,4348,6,1,121,85,1.0,-0.310732805591,-0.229640808446,1,1.0,1.0,0.380842509679,0,nan,nan,nan,nan,nan,nan,nan,nan,nan,0.0,0.0,0.0,nan,nan,169.794213256,221.324460424,221.705302934,221.8244781,nan,nan
0,44,4349,6,1,22,15,1.0,0.111842423158,-1.0,1,1.0,1.0,0.404708903749,0,nan,nan,nan,nan,nan,nan,nan,nan,nan,0.0,0.0,0.0,nan,nan,169.794213256,222.324569901,222.729278805,222.824607534,nan,nan
0,45,4350,6,1,489,343,0.656284860842,0.299572439858,-1.0,1,1.0,1.0,0.412558502052,0,nan,nan,nan,nan,nan,nan,nan,nan,nan,0.0,0.0,0.0,nan,nan,169.794213256,223.324702187,223.737260689,223.824743241,nan,nan
0,46,4351,6,1,102,71,1.0,-0.276610342793,-0.434926949461,1,1.0,1.0,0.436403798871,0,nan,nan,nan,nan,nan,nan,nan,nan,nan,0.0,0.0,0.0,nan,nan,169.794213256,224.324872961,224.76127676,224.824890351,nan,nan
0,47,4352,6,1,15,10,0.965734432428,0.145352784795,-1.0,1,1.0,1.0,0.492256457917,0,nan,nan,nan,nan,nan,nan,nan,nan,nan,0.0,0.0,0.0,nan,nan,169.794213256,225.324954214,225.817210671,225.833330958,nan,nan
0,48,4353,6,1,189,132,1.0,-0.0802194643608,0.400143472992,1,1.0,1.0,0.404097653925,0,nan,nan,nan,nan,nan,nan,nan,nan,nan,0.0,0.0,0.0,nan,nan,169.794213256,226.32510617,226.729203824,226.825120711,nan,nan
0,49,4354,6,1,477,335,0.555879874869,0.337784025865,-1.0,1,1.0,1.0,0.363955880515,0,nan,nan,nan,nan,nan,nan,nan,nan,nan,0.0,0.0,0.0,nan,nan,169.794213256,227.325232754,227.689188635,227.825270102,nan,nan
0,50,4355,6,1,302,212,0.027086081288,0.400300843718,0.517770016443,1,1.0,1.0,0.387828832027,0,nan,nan,nan,nan,nan,nan,nan,nan,nan,0.0,0.0,0.0,nan,nan,169.794213256,228.325364469,228.713193301,228.825371882,nan,nan
0,51,4356,6,1,377,265,-0.121259861678,0.478700828387,-0.143695900877,1,1.0,1.0,0.39564478863,0,nan,nan,nan,nan,nan,nan,nan,nan,nan,0.0,0.0,0.0,nan,nan,169.794213256,229.32549704,229.721141828,229.825508159,nan,nan
0,52,4357,6,1,0,0,0.846831709088,0.212097570855,-1.0,1,1.0,1.0,0.395513358526,0,nan,nan,nan,nan,nan,nan,nan,nan,nan,0.0,0.0,0.0,nan,nan,169.794213256,230.325613074,230.721126433,230.825649567,nan,nan
0,53,4402,6,1,490,344,0.664660387652,0.296157848571,-1.0,1,1.0,1.0,0.371385244653,1,nan,nan,nan,nan,nan,nan,nan,110.199806621,483.0,0.606025706087,0.319314454546,-1.0,-4.73105662143,1.61716893269,169.794213256,231.325738803,231.697124047,231.825755624,233.159259635,234.784487429
0,54,4403,6,1,131,92,1.0,-0.308451667147,-0.125800503078,1,1.0,1.0,0.336033114698,0,nan,nan,nan,nan,nan,nan,nan,nan,nan,0.0,0.0,0.0,nan,nan,169.794213256,235.992995717,236.329028832,236.493013963,nan,nan
0,55,4404,6,1,419,294,0.107894673663,0.454841969249,-0.678098861371,1,1.0,1.0,0.343871023972,0,nan,nan,nan,nan,nan,nan,nan,nan,nan,0.0,0.0,0.0,nan,nan,169.794213256,236.993151951,237.337022975,237.493151095,nan,nan
0,56,4409,6,1,174,122,1.0,-0.160790688716,0.281981279739,1,1.0,1.0,0.359739283565,1,nan,nan,nan,nan,nan,nan,nan,-19.7708222783,156.0,1.0,-0.244060613314,0.121041471254,-12.5729277217,2.00052800123,169.794213256,237.993248599,238.352987882,238.493265419,239.818461681,241.827028871
0,57,4410,6,1,399,280,-0.0164460389312,0.472031251936,-0.400274523968,1,1.0,1.0,0.317014238797,0,nan,nan,nan,nan,nan,nan,nan,nan,nan,0.0,0.0,0.0,nan,nan,169.794213256,243.043877125,243.360891364,243.543915614,nan,nan
0,58,4411,6,1,196,137,1.0,-0.0413610816081,0.449130757868,1,1.0,1.0,0.316872545518,0,nan,nan,nan,nan,nan,nan,nan,nan,nan,0.0,0.0,0.0,nan,nan,169.794213256,244.04400599,244.360878535,244.544045903,nan,nan
0,59,4412,6,1,86,60,1.0,-0.21659106269,-0.625617802914,1,1.0,1.0,0.260759877041,0,nan,nan,nan,nan,nan,nan,nan,nan,nan,0.0,0.0,0.0,nan,nan,169.794213256,245.04415139,245.304911267,245.544189307,nan,nan
0,60,4413,6,1,363,255,-0.162287729338,0.476365729747,0.00704812682028,1,1.0,1.0,0.276558857877,0,nan,nan,nan,nan,nan,nan,nan,nan,nan,0.0,0.0,0.0,nan,nan,169.794213256,246.044276262,246.32083512,246.544298215,nan,nan
0,61,4414,6,1,447,314,0.312467642152,0.411646472288,-1.0,1,1.0,1.0,0.244435460772,0,nan,nan,nan,nan,nan,nan,nan,nan,nan,0.0,0.0,0.0,nan,nan,169.794213256,247.044410544,247.288846004,247.544450457,nan,nan
0,62,4415,6,1,315,221,-0.0657111424032,0.426434809442,0.434956515233,1,1.0,1.0,0.260296022519,0,nan,nan,nan,nan,nan,nan,nan,nan,nan,0.0,0.0,0.0,nan,nan,169.794213256,248.044537412,248.304833435,248.544591296,nan,nan
0,63,4416,6,1,10,7,0.926811495151,0.168400576072,-1.0,1,1.0,1.0,0.244146371726,0,nan,nan,nan,nan,nan,nan,nan,nan,nan,0.0,0.0,0.0,nan,nan,169.794213256,249.044664565,249.288810937,249.544686803,nan,nan
0,64,4417,6,0,225,158,0.81146624694,0.115131125244,0.600981946568,0,1.0,0.0,0.21198277548,0,0.0,0.0,nan,nan,nan,nan,nan,nan,nan,0.0,0.0,0.0,nan,nan,169.794213256,250.044805404,250.256788179,250.544839045,nan,nan
0,65,4418,6,1,174,122,1.0,-0.160790688716,0.281981279739,1,1.0,1.0,0.219847484492,0,nan,nan,nan,nan,nan,nan,nan,nan,nan,0.0,0.0,0.0,nan,nan,169.794213256,251.044922009,251.264769493,251.544964203,nan,nan
0,66,4419,6,1,503,353,0.773020196022,0.248538461814,-1.0,1,1.0,1.0,0.243630629499,0,nan,nan,nan,nan,nan,nan,nan,nan,nan,0.0,0.0,0.0,nan,nan,169.794213256,252.045107608,252.288738237,252.545089646,nan,nan
0,67,4420,6,1,370,260,-0.144805996584,0.478178727438,-0.0671803333712,1,1.0,1.0,0.243553082924,0,nan,nan,nan,nan,nan,nan,nan,nan,nan,0.0,0.0,0.0,nan,nan,169.794213256,253.045171184,253.288724267,253.545191711,nan,nan
0,68,4421,6,1,76,53,1.0,-0.169674511773,-0.773365826749,1,1.0,1.0,0.267403226346,0,nan,nan,nan,nan,nan,nan,nan,nan,nan,0.0,0.0,0.0,nan,nan,169.794213256,254.045293776,254.312697003,254.54531801,nan,nan
0,69,4422,6,1,489,343,0.656284860842,0.299572439858,-1.0,1,1.0,1.0,0.283290302847,0,nan,nan,nan,nan,nan,nan,nan,nan,nan,0.0,0.0,0.0,nan,nan,169.794213256,255.045406675,255.328696978,255.545455712,nan,nan
0,70,4423,6,1,179,125,1.0,-0.13461441766,0.323204131591,1,1.0,1.0,0.307102813385,0,nan,nan,nan,nan,nan,nan,nan,nan,nan,0.0,0.0,0.0,nan,nan,169.794213256,256.045554641,256.352657454,256.545573458,nan,nan
0,71,4424,6,1,381,267,-0.105403061426,0.478425078289,-0.188431136224,1,1.0,1.0,0.298955572769,0,nan,nan,nan,nan,nan,nan,nan,nan,nan,0.0,0.0,0.0,nan,nan,169.794213256,257.045688067,257.344643639,257.54569776,nan,nan
0,72,4425,6,1,218,153,0.881467392804,0.0788246127756,0.572559633417,1,1.0,1.0,0.314794752281,0,nan,nan,nan,nan,nan,nan,nan,nan,nan,0.0,0.0,0.0,nan,nan,169.794213256,258.045832897,258.360627649,258.545824629,nan,nan
0,73,4426,6,1,115,80,1.0,-0.305166285737,-0.293172749504,1,1.0,1.0,0.378698003478,0,nan,nan,nan,nan,nan,nan,nan,nan,nan,0.0,0.0,0.0,nan,nan,169.794213256,259.045910443,259.424608447,259.54596062,nan,nan
0,74,4427,6,1,504,354,0.78128615449,0.244628286196,-1.0,1,1.0,1.0,0.354571885429,0,nan,nan,nan,nan,nan,nan,nan,nan,nan,0.0,0.0,0.0,nan,nan,169.794213256,260.046041018,260.400612903,260.546079791,nan,nan
0,75,4428,6,1,35,24,1.0,0.0462653595507,-1.0,1,1.0,1.0,0.354388567619,0,nan,nan,nan,nan,nan,nan,nan,nan,nan,0.0,0.0,0.0,nan,nan,169.794213256,261.046191264,261.400579832,261.546210651,nan,nan
0,76,4429,6,1,432,303,0.199227897075,0.437687328843,-1.0,1,1.0,1.0,0.370261104312,0,nan,nan,nan,nan,nan,nan,nan,nan,nan,0.0,0.0,0.0,nan,nan,169.794213256,262.046301027,262.416562131,262.546332103,nan,nan
0,77,4430,6,1,505,355,0.789537956352,0.240683140511,-1.0,1,1.0,1.0,0.402119074948,0,nan,nan,nan,nan,nan,nan,nan,nan,nan,0.0,0.0,0.0,nan,nan,169.794213256,263.046432172,263.448551247,263.546463248,nan,nan
0,78,4431,6,0,306,215,-0.00395437407881,0.408974006242,0.494128827808,0,0.0,1.0,0.42592588393,0,nan,nan,nan,nan,nan,nan,nan,nan,nan,0.0,0.0,0.0,nan,nan,169.794213256,264.046609503,264.472535387,264.546615775,nan,nan
0,79,4432,6,1,80,56,1.0,-0.189075709245,-0.708965549488,1,1.0,1.0,0.377837008797,0,nan,nan,nan,nan,nan,nan,nan,nan,nan,0.0,0.0,0.0,nan,nan,169.794213256,265.046682488,265.424519497,265.546724397,nan,nan
0,80,4433,6,1,180,126,1.0,-0.129278616986,0.331238955499,1,1.0,1.0,0.313687717542,0,0.0,0.0,0.372483536756,0.346134298056,0.0620160175067,0.408150315563,0.284118280549,nan,nan,0.0,0.0,0.0,nan,nan,169.794213256,266.046811637,266.360499355,266.5468487,nan,nan
0,81,4434,6,1,267,187,0.362924526182,0.298807232282,0.646622522267,1,1.0,1.0,0.337541852612,0,0.0,0.0,0.343022192984,0.345733722988,0.0617360668029,0.407469789791,0.283997656185,nan,nan,0.0,0.0,0.0,nan,nan,169.794213256,267.046936795,267.384478648,267.546980415,nan,nan
0,82,4435,6,1,381,267,-0.105403061426,0.478425078289,-0.188431136224,1,1.0,1.0,0.361392566003,0,0.0,0.0,0.337540712052,0.34563382213,0.0613650597586,0.406998881888,0.284268762371,nan,nan,0.0,0.0,0.0,nan,nan,169.794213256,268.047069366,268.408461932,268.547093884,nan,nan
0,83,4436,6,1,102,71,1.0,-0.276610342793,-0.434926949461,1,1.0,1.0,0.336919769179,0,0.0,0.0,0.345284729265,0.345823686514,0.0610184972782,0.406842183792,0.284805189236,nan,nan,0.0,0.0,0.0,nan,nan,169.794213256,269.05553392,269.392453689,269.555563,nan,nan
0,84,4437,6,1,271,190,0.320642857732,0.312811632898,0.639400143054,1,1.0,1.0,0.376737670973,0,0.0,0.0,0.358350002052,0.345717687498,0.0606618916005,0.406379579098,0.285055795897,nan,nan,0.0,0.0,0.0,nan,nan,169.794213256,270.055697851,270.432435522,270.555718949,nan,nan
0,85,4438,6,1,320,225,-0.0946500390753,0.43494401576,0.398701238857,1,1.0,1.0,0.368607251439,0,0.0,0.0,0.360754897197,0.34608262848,0.0603966873542,0.406479315834,0.285685941126,nan,nan,0.0,0.0,0.0,nan,nan,169.794213256,271.05579564,271.424402891,271.555838405,nan,nan
0,86,4439,6,1,219,153,0.871627318206,0.0840881726889,0.576959667802,1,1.0,1.0,0.384450137615,0,0.0,0.0,0.376598353342,0.3463445427,0.0600930524373,0.406437595138,0.286251490263,nan,nan,0.0,0.0,0.0,nan,nan,169.794213256,272.055946171,272.440396309,272.555939899,nan,nan
0,87,4440,6,0,276,194,0.268710435127,0.329430325417,0.627563005949,0,0.0,1.0,0.456298210192,0,0.0,0.0,0.403118533082,0.346782538044,0.0598846009121,0.406667138956,0.286897937132,nan,nan,0.0,0.0,0.0,nan,nan,169.794213256,273.056066768,273.512364978,273.55610269,nan,nan
0,88,4441,6,1,123,86,1.0,-0.311441137266,-0.208672863777,1,1.0,1.0,0.328180950601,0,0.0,0.0,0.389643099469,0.348027034319,0.0606642944536,0.408691328772,0.287362739865,nan,nan,0.0,0.0,0.0,nan,nan,169.794213256,274.056158569,274.38433952,274.556201904,nan,nan
0,89,4442,6,1,455,319,0.375608248681,0.394875365091,-1.0,1,1.0,1.0,0.264009136707,0,0.0,0.0,0.349496099167,0.347804044614,0.0603587797681,0.408162824382,0.287445264846,nan,nan,0.0,0.0,0.0,nan,nan,169.794213256,275.056314518,275.320323654,275.556323356,nan,nan
0,90,4443,6,1,79,55,1.0,-0.184296021705,-0.724170777997,1,1.0,1.0,0.247897688765,0,1.0,0.0,0.280029258691,0.346872990082,0.0606617940558,0.407534784138,0.286211196026,nan,nan,0.0,0.0,0.0,nan,nan,169.794213256,276.056413162,276.30431085,276.556454216,nan,nan
0,91,4447,6,1,324,227,-0.114799643766,0.441158325109,0.368064040095,1,1.0,1.0,0.279770485125,1,0.0,0.0,0.263892436866,0.345785349408,0.0612036102804,0.406988959688,0.284581739127,-120.478584469,299.0,0.0516645560415,0.393417669654,0.534378752182,-17.3339155315,1.242122747,169.794213256,277.056544592,277.336315077,277.556585646,278.881771074,280.13192189
0,92,4448,6,0,464,326,0.448404880525,0.373503555275,-1.0,0,0.0,1.0,0.595752099529,0,0.0,0.0,0.374473424473,0.345067796535,0.0612537352086,0.406321531744,0.283814061327,nan,nan,0.0,0.0,0.0,nan,nan,169.794213256,281.340456693,281.936208792,281.840503734,nan,nan
0,93,4449,6,1,332,233,-0.146647089803,0.45205423783,0.302714191958,1,1.0,1.0,0.355671508238,0,0.0,0.0,0.410398030964,0.347763326675,0.0661826033534,0.413945930028,0.281580723322,nan,nan,0.0,0.0,0.0,nan,nan,169.794213256,282.340545928,282.696217436,282.840589548,nan,nan
0,94,4450,6,1,235,165,0.707591924495,0.164537776567,0.631659631194,1,1.0,1.0,0.307497673668,0,0.0,0.0,0.419640427145,0.347847456266,0.0658346262915,0.413682082558,0.282012829975,nan,nan,0.0,0.0,0.0,nan,nan,169.794213256,283.340700736,283.64819841,283.840717842,nan,nan
0,95,4451,6,1,25,17,1.0,0.0970682892709,-1.0,1,1.0,1.0,0.251349938102,0,0.0,0.0,0.304839706669,0.347422721712,0.0656165560614,0.413039277774,0.281806165651,nan,nan,0.0,0.0,0.0,nan,nan,169.794213256,284.340836728,284.592186666,284.840843,nan,nan
0,96,4452,6,1,371,260,-0.14179360683,0.478331938097,-0.0779732583494,1,1.0,1.0,0.243191008456,0,1.0,0.0,0.267346206742,0.34642196355,0.0659986911895,0.412420654739,0.28042327236,nan,nan,0.0,0.0,0.0,nan,nan,169.794213256,285.340953618,285.584144627,285.840971294,nan,nan
0,97,4457,6,1,234,164,0.71814774995,0.15974031316,0.62913160129,1,1.0,1.0,0.259054136463,1,0.0,0.0,0.251198361007,0.345357726899,0.0664804585536,0.411838185453,0.278877268346,-79.8925731235,242.0,0.632911854383,0.197161183215,0.645921401967,5.36132312347,1.65051226364,169.794213256,286.341083908,286.600138044,286.841102154,288.15793393,289.816470272
0,98,4458,6,1,64,45,1.0,-0.108036866323,-1.0,1,1.0,1.0,0.398709019646,0,0.0,0.0,0.300318054855,0.344477078017,0.0667066751091,0.411183753126,0.277770402908,nan,nan,0.0,0.0,0.0,nan,nan,169.794213256,291.033342761,291.432051781,291.533359297,nan,nan
0,99,4459,6,1,264,185,0.394966959701,0.287889713878,0.650717615019,1,1.0,1.0,0.294557653368,0,0.0,0.0,0.317440269825,0.345024875408,0.0665900988166,0.411614974224,0.278434776591,nan,nan,0.0,0.0,0.0,nan,nan,169.794213256,292.033480178,292.328037831,292.533495288,nan,nan
0,100,4500,6,1,404,284,0.0124894593597,0.468746268022,-0.463349101315,1,1.0,1.0,0.246408622712,0,0.0,0.0,0.313225098575,0.344520203187,0.066446320882,0.410966524069,0.278073882305,nan,nan,0.0,0.0,0.0,nan,nan,169.794213256,293.033614459,293.280023082,293.533642969,nan,nan
0,101,4501,6,1,128,90,1.0,-0.310663006781,-0.156689791083,1,1.0,1.0,0.32627535658,0,0.0,0.0,0.28908054422,0.3435488014,0.066826354878,0.410375156278,0.276722446522,nan,nan,0.0,0.0,0.0,nan,nan,169.794213256,294.03373249,294.360007846,294.533740472,nan,nan
0,102,4502,6,0,338,237,-0.162891363375,0.458928707883,0.250399161362,0,0.0,1.0,0.47009894019,0,0.0,0.0,0.347594306494,0.343379453902,0.0665197434215,0.409899197323,0.276859710481,nan,nan,0.0,0.0,0.0,nan,nan,169.794213256,295.033877319,295.503976259,295.533895566,nan,nan
0,103,4503,6,1,474,333,0.530901762182,0.346545376391,-1.0,1,1.0,1.0,0.325977429282,0,0.0,0.0,0.374117242017,0.344609740177,0.0673520893627,0.411961829539,0.277257650814,nan,nan,0.0,0.0,0.0,nan,nan,169.794213256,296.033985371,296.359962801,296.534006753,nan,nan
0,104,4504,6,1,182,127,1.0,-0.118523835432,0.347089474713,1,1.0,1.0,0.316507050302,0,0.0,0.0,0.370861139925,0.344430583341,0.0670521561404,0.411482739481,0.277378427201,nan,nan,0.0,0.0,0.0,nan,nan,169.794213256,297.067447017,297.383954068,297.56746897,nan,nan
0,105,4505,6,1,370,260,-0.144805996584,0.478178727438,-0.0671803333712,1,1.0,1.0,0.332366471644,0,0.0,0.0,0.324950317076,0.344164644931,0.0667871835892,0.41095182852,0.277377461342,nan,nan,0.0,0.0,0.0,nan,nan,169.794213256,298.067556495,298.399922967,298.567591562,nan,nan
0,106,4506,6,1,508,357,0.814199817736,0.228638933499,-1.0,1,1.0,1.0,0.332179732155,0,0.0,0.0,0.327017751367,0.34405334141,0.0664811870361,0.410534528446,0.277572154374,nan,nan,0.0,0.0,0.0,nan,nan,169.794213256,299.067721852,299.399901584,299.567719286,nan,nan
0,107,4507,6,1,360,253,-0.167709501072,0.475188317955,0.0381258551808,1,1.0,1.0,0.284060351551,0,0.0,0.0,0.316202185117,0.343942373099,0.0661796604094,0.410122033508,0.277762712689,nan,nan,0.0,0.0,0.0,nan,nan,169.794213256,300.067808807,300.351869158,300.567848436,nan,nan
0,108,4508,6,1,298,209,0.0600896634305,0.391050340636,0.53969689008,1,1.0,1.0,0.275916247629,0,0.0,0.0,0.297385443778,0.343387909936,0.0661217753876,0.409509685324,0.277266134549,nan,nan,0.0,0.0,0.0,nan,nan,169.794213256,301.067955917,301.343872165,301.568004099,nan,nan
0,109,4509,6,1,87,61,1.0,-0.220959007447,-0.612675615602,1,1.0,1.0,0.339786997996,0,0.0,0.0,0.299921199058,0.34276890386,0.0661313879403,0.4089002918,0.27663751592,nan,nan,0.0,0.0,0.0,nan,nan,169.794213256,302.068071382,302.40785838,302.568101317,nan,nan
0,110,4510,6,1,505,355,0.789537956352,0.240683140511,-1.0,1,1.0,1.0,0.259649706073,0,0.0,0.0,0.291784317233,0.342741795625,0.0658307128003,0.408572508425,0.276911082825,nan,nan,0.0,0.0,0.0,nan,nan,169.794213256,303.068191123,303.327840829,303.568238449,nan,nan
0,111,4511,6,1,190,133,1.0,-0.0746884387243,0.407399635172,1,1.0,1.0,0.267518120818,0,0.0,0.0,0.288984941629,0.341993218242,0.0660021291456,0.407995347387,0.275991089096,nan,nan,0.0,0.0,0.0,nan,nan,169.794213256,304.068331391,304.335849512,304.568365033,nan,nan
0,112,4512,6,1,334,234,-0.152796554809,0.454467054946,0.285576400052,1,1.0,1.0,0.259358621202,0,1.0,0.0,0.262175482698,0.341328262015,0.0660792418103,0.407407503825,0.275249020204,nan,nan,0.0,0.0,0.0,nan,nan,169.794213256,305.068467953,305.327826574,305.568491331,nan,nan
0,113,4516,6,1,178,125,1.0,-0.139919655122,0.315097826042,1,1.0,1.0,0.267211070284,1,0.0,0.0,0.264695937435,0.340602866963,0.0662326134036,0.406835480367,0.27437025356,-48.576334375,197.0,1.0,-0.035797595552,0.455774741445,13.420084375,1.05875638034,169.794213256,306.068589405,306.335800475,306.568617629,307.893778824,308.96058209
0,114,4517,6,1,443,311,0.281558783006,0.419268214519,-1.0,1,1.0,1.0,0.302630768623,0,0.0,0.0,0.27640015337,0.339959079273,0.0662956484858,0.406254727759,0.273663430787,nan,nan,0.0,0.0,0.0,nan,nan,169.794213256,310.169092944,310.471723713,310.669139985,nan,nan
0,115,4518,6,1,16,11,0.973419431522,0.140652110383,-1.0,1,1.0,1.0,0.28646857338,0,0.0,0.0,0.285436804096,0.339634485267,0.066097699043,0.40573218431,0.273536786224,nan,nan,0.0,0.0,0.0,nan,nan,169.794213256,311.16923977,311.455708343,311.669276262,nan,nan
0,116,4519,6,1,139,97,1.0,-0.296335611021,-0.0445992895203,1,1.0,1.0,0.318302026019,0,0.0,0.0,0.302467122674,0.339176158441,0.0659954554327,0.405171613874,0.273180703008,nan,nan,0.0,0.0,0.0,nan,nan,169.794213256,312.16937234,312.487674366,312.669407977,nan,nan
0,117,4520,6,1,291,204,0.122027637739,0.373441943191,0.573791926984,1,1.0,1.0,0.35013889987,0,0.0,0.0,0.318303166423,0.338997747053,0.0657409069598,0.404738654012,0.273256840093,nan,nan,0.0,0.0,0.0,nan,nan,169.794213256,313.169502915,313.519641815,313.66951774,nan,nan
0,118,4521,6,1,369,259,-0.147694689129,0.477999187239,-0.0564338676883,1,1.0,1.0,0.326019338798,0,0.0,0.0,0.331486754895,0.339092163602,0.0654697170635,0.404561880665,0.273622446538,nan,nan,0.0,0.0,0.0,nan,nan,169.794213256,314.169623796,314.495643135,314.669642043,nan,nan
0,119,4522,6,1,59,41,1.0,-0.0814409933332,-1.0,1,1.0,1.0,0.317901178263,0,0.0,0.0,0.331353138977,0.338982307931,0.0652049746262,0.404187282557,0.273777333305,nan,nan,0.0,0.0,0.0,nan,nan,169.794213256,315.169731563,315.487632742,315.669769767,nan,nan
0,120,4523,6,1,432,303,0.199227897075,0.437687328843,-1.0,1,1.0,1.0,0.325753627345,0,0.0,0.0,0.323224714802,0.338806631851,0.0649609926406,0.403767624491,0.27384563921,nan,nan,0.0,0.0,0.0,nan,nan,169.794213256,316.169864989,316.495618617,316.669906899,nan,nan
0,121,4524,6,0,178,125,1.0,-0.139919655122,0.315097826042,0,1.0,0.0,0.373561966699,0,0.0,0.0,0.339072257436,0.33869875578,0.0647027941841,0.403401549964,0.273995961596,nan,nan,0.0,0.0,0.0,nan,nan,169.794213256,317.170030346,317.543592313,317.670059996,nan,nan
0,122,4525,6,1,304,213,0.0113092810281,0.404708921832,0.506160370659,1,1.0,1.0,0.309456580784,0,0.0,0.0,0.336257391609,0.338984519804,0.0645136992331,0.403498219037,0.274470820571,nan,nan,0.0,0.0,0.0,nan,nan,169.794213256,318.170117016,318.479573597,318.670148376,nan,nan
0,123,4526,6,1,362,254,-0.164239727892,0.476000155386,0.0174578511848,1,1.0,1.0,0.301285677124,0,0.0,0.0,0.328101408202,0.338744455259,0.0643056049598,0.403050060219,0.2744388503,nan,nan,0.0,0.0,0.0,nan,nan,169.794213256,319.170265837,319.471551514,319.670279806,nan,nan
0,124,4527,6,0,407,286,0.0305886347219,0.46645515455,-0.502577406972,0,0.0,1.0,0.525126526598,0,0.0,0.0,0.378622928169,0.338442368339,0.0641333525184,0.402575720857,0.274309015821,nan,nan,0.0,0.0,0.0,nan,nan,169.794213256,320.170406105,320.695532632,320.670450865,nan,nan
0,125,4528,6,1,355,249,-0.173737462994,0.472683863687,0.0888799762457,1,1.0,1.0,0.356994076632,0,0.0,0.0,0.394468760118,0.339935841605,0.0660057538944,0.405941595499,0.273930087711,nan,nan,0.0,0.0,0.0,nan,nan,169.794213256,321.170520714,321.527514791,321.670539816,nan,nan
0,126,4529,6,1,259,182,0.44882283482,0.268906983076,0.655011783756,1,1.0,1.0,0.34888104815,0,0.0,0.0,0.410333883793,0.340071224423,0.0657607265308,0.405831950954,0.274310497892,nan,nan,0.0,0.0,0.0,nan,nan,169.794213256,322.170640741,322.519521789,322.670664689,nan,nan
0,127,4530,6,0,182,127,1.0,-0.118523835432,0.347089474713,0,0.0,1.0,0.444687316194,0,0.0,0.0,0.383520813659,0.340140593114,0.0655059424638,0.405646535577,0.27463465065,nan,nan,0.0,0.0,0.0,nan,nan,169.794213256,323.170791557,323.615478873,323.670818641,nan,nan
0,128,4531,6,1,67,47,1.0,-0.12380466598,-1.0,1,1.0,1.0,0.292572802398,0,0.0,0.0,0.362047055581,0.340957364388,0.0658955877341,0.406852952122,0.275061776653,nan,nan,0.0,0.0,0.0,nan,nan,169.794213256,324.170905026,324.463477829,324.670917571,nan,nan
0,129,4532,6,1,258,181,0.459642287315,0.26499291187,0.655490062901,1,1.0,1.0,0.308420820162,0,0.0,0.0,0.348560312918,0.340582290264,0.0657767049457,0.406358995209,0.274805585318,nan,nan,0.0,0.0,0.0,nan,nan,169.794213256,325.171026763,325.479447583,325.67106069,nan,nan
0,130,4533,6,1,372,261,-0.138660017671,0.478458869494,-0.0888123791441,1,1.0,1.0,0.364312822931,0,0.0,0.0,0.321768815164,0.34033489434,0.065583450503,0.405918344843,0.274751443837,nan,nan,0.0,0.0,0.0,nan,nan,169.794213256,326.171157338,326.535470161,326.67117929,nan,nan
0,131,4534,6,0,430,302,0.184725017221,0.440645728776,-0.941904167281,0,1.0,0.0,0.292053354438,0,0.0,0.0,0.321595665844,0.340517931963,0.0653659761382,0.405883908101,0.275151955824,nan,nan,0.0,0.0,0.0,nan,nan,169.794213256,327.171363178,327.463416533,327.671330107,nan,nan
0,132,4535,6,1,310,217,-0.032854544558,0.417080732083,0.468828018046,1,1.0,1.0,0.268005637918,0,0.0,0.0,0.308123938429,0.340150776072,0.0652533605776,0.40540413665,0.274897415495,nan,nan,0.0,0.0,0.0,nan,nan,169.794213256,328.171387412,328.43939305,328.671430176,nan,nan
0,133,4536,6,1,476,334,0.547545041103,0.340739382997,-1.0,1,1.0,1.0,0.323843472172,0,0.0,0.0,0.294634154843,0.339608331424,0.0653056392582,0.404913970683,0.274302692166,nan,nan,0.0,0.0,0.0,nan,nan,169.794213256,329.171531386,329.495374858,329.671551058,nan,nan
0,134,4537,6,1,314,220,-0.0594438881467,0.42463230952,0.441925406839,1,1.0,1.0,0.323726296891,0,0.0,0.0,0.305191802327,0.339490683221,0.0650756507583,0.404566333979,0.274415032463,nan,nan,0.0,0.0,0.0,nan,nan,169.794213256,330.171651412,330.495377709,330.671702445,nan,nan
0,135,4538,6,0,366,257,-0.155593376329,0.477302029306,-0.0244766492797,0,1.0,0.0,0.355549771339,0,0.0,0.0,0.334373180134,0.339373909989,0.0648482718074,0.404222181796,0.274525638182,nan,nan,0.0,0.0,0.0,nan,nan,169.794213256,331.171808501,331.527358273,331.671812777,nan,nan
0,136,4539,6,1,5,3,0.88714030954,0.190659852496,-1.0,1,1.0,1.0,0.411429229658,0,0.0,0.0,0.363568432629,0.339492850146,0.0646241971531,0.404117047299,0.274868652993,nan,nan,0.0,0.0,0.0,nan,nan,169.794213256,332.171904864,332.583334094,332.671940501,nan,nan
0,137,4540,6,1,109,76,1.0,-0.294638327523,-0.357773695079,1,1.0,1.0,0.443251563236,0,0.0,0.0,0.403410188078,0.340017933208,0.0646784343829,0.404696367591,0.275339498825,nan,nan,0.0,0.0,0.0,nan,nan,169.794213256,333.172055111,333.615306674,333.672068225,nan,nan
0,138,4541,6,1,430,302,0.184725017221,0.440645728776,-0.941904167281,1,1.0,1.0,0.411113341339,0,0.0,1.0,0.421931378078,0.340766002991,0.0650357782902,0.405801781281,0.275730224701,nan,nan,0.0,0.0,0.0,nan,nan,169.794213256,334.172178273,334.583291614,334.672207923,nan,nan
0,139,4545,6,1,141,99,1.0,-0.291952736687,-0.024586852943,1,1.0,1.0,0.442967891227,1,0.0,0.0,0.432444265268,0.34127209895,0.0650735712406,0.406345670191,0.27619852771,-10.5895708581,143.0,1.0,-0.287057525782,-0.00469998909502,1.44894585807,1.28379093437,169.794213256,335.172307707,335.615275599,335.672337928,337.005823408,338.297652391
0,140,4546,6,0,455,319,0.375608248681,0.394875365091,-1.0,0,0.0,1.0,0.492574057076,0,0.0,0.0,0.448885096548,0.341998497467,0.0654038742398,0.407402371706,0.276594623227,nan,nan,0.0,0.0,0.0,nan,nan,169.794213256,339.514619532,340.007193589,340.022907325,nan,nan
0,141,4547,6,1,35,24,1.0,0.0462653595507,-1.0,1,1.0,1.0,0.37220518617,0,0.0,0.0,0.435915711491,0.343066409237,0.0663851615972,0.409451570834,0.27668124764,nan,nan,0.0,0.0,0.0,nan,nan,169.794213256,340.522971472,340.895176658,341.02299542,nan,nan
0,142,4548,6,1,149,104,1.0,-0.269478519393,0.0541436597792,1,1.0,1.0,0.372048097197,0,0.0,0.0,0.412275780148,0.343271611891,0.066195859296,0.409467471187,0.277075752595,nan,nan,0.0,0.0,0.0,nan,nan,169.794213256,341.523119153,341.89516725,342.023124855,nan,nan
0,143,4549,6,1,80,56,1.0,-0.189075709245,-0.708965549488,1,1.0,1.0,0.363909124397,0,0.0,0.0,0.369387469254,0.343472846054,0.0660075715715,0.409480417626,0.277465274483,nan,nan,0.0,0.0,0.0,nan,nan,169.794213256,342.52324146,342.887150584,343.023262842,nan,nan
0,144,4550,6,1,494,347,0.698129958021,0.282143999684,-1.0,1,1.0,1.0,0.395766810514,0,0.0,0.0,0.377241344036,0.343614764654,0.0657998686235,0.409414633277,0.27781489603,nan,nan,0.0,0.0,0.0,nan,nan,169.794213256,343.523360916,343.919127726,344.023405391,nan,nan
0,145,4551,6,1,190,133,1.0,-0.0746884387243,0.407399635172,1,1.0,1.0,0.467615453061,0,0.0,0.0,0.409097129324,0.343974433936,0.0657144685042,0.40968890244,0.278259965431,nan,nan,0.0,0.0,0.0,nan,nan,169.794213256,344.523485219,344.991100672,345.023517719,nan,nan
0,146,4552,6,1,286,201,0.169078956243,0.359734776014,0.594698705761,1,1.0,1.0,0.619480791502,0,0.0,1.0,0.494287685025,0.344821290231,0.0662782193298,0.411099509561,0.278543070901,nan,nan,0.0,0.0,0.0,nan,nan,169.794213256,345.5235927,346.143073492,346.02369391,nan,nan
0,147,4556,6,1,417,293,0.0945046041228,0.457053563907,-0.645720198395,1,1.0,1.0,0.435380012728,1,0.0,0.0,0.507492085764,0.346689722212,0.0698040894676,0.41649381168,0.276885632745,-178.393997011,382.0,-0.1011887567,0.478291136399,-0.199732273247,-24.8091279893,0.925422400702,169.794213256,346.52372299,346.959103003,347.023759482,348.348937783,349.282405929
0,148,4557,6,1,85,59,1.0,-0.212156452387,-0.638781227021,1,1.0,1.0,0.491756396368,0,0.0,0.0,0.515539066866,0.347288980932,0.0699462449219,0.417235225854,0.27734273601,nan,nan,0.0,0.0,0.0,nan,nan,169.794213256,350.499234512,350.990990909,351.007600138,nan,nan
0,149,4558,6,0,131,92,1.0,-0.308451667147,-0.125800503078,0,1.0,0.0,0.411588029005,0,0.0,0.0,0.446241479367,0.348258560902,0.0707020112039,0.418960572105,0.277556549698,nan,nan,0.0,0.0,0.0,nan,nan,169.794213256,351.49940272,351.910990749,351.999436932,nan,nan
0,150,4559,6,1,442,310,0.273907262724,0.421095538958,-1.0,1,1.0,1.0,0.350651505403,0,0.0,0.0,0.417998643592,0.348680757356,0.0706541467482,0.419334904104,0.278026610607,nan,nan,0.0,0.0,0.0,nan,nan,169.794213256,352.52828313,352.878934635,353.032882613,nan,nan
0,151,4600,6,1,169,118,1.0,-0.185917379452,0.239118302078,1,1.0,1.0,0.313971959986,0,0.0,0.0,0.358737164798,0.348693808667,0.0704199854061,0.419113794073,0.278273823261,nan,nan,0.0,0.0,0.0,nan,nan,169.794213256,353.532968997,353.846940957,354.033002924,nan,nan
0,152,4601,6,1,444,312,0.289241202529,0.417409780569,-1.0,1,1.0,1.0,0.313817152288,0,0.0,0.0,0.326146872559,0.348465375452,0.0702440670461,0.418709442498,0.278221308406,nan,nan,0.0,0.0,0.0,nan,nan,169.794213256,354.533104134,354.846921286,355.033129223,nan,nan
0,153,4602,6,1,382,268,-0.1011887567,0.478291136399,-0.199732273247,1,1.0,1.0,0.281683491077,0,0.0,0.0,0.30315753445,0.348238916477,0.0700697810055,0.418308697483,0.278169135472,nan,nan,0.0,0.0,0.0,nan,nan,169.794213256,355.533229292,355.814912783,356.033252955,nan,nan
0,154,4603,6,1,156,109,1.0,-0.244060613314,0.121041471254,1,1.0,1.0,0.257538841572,0,0.0,0.0,0.284346494979,0.34780673839,0.0700461960278,0.417852934418,0.277760542362,nan,nan,0.0,0.0,0.0,nan,nan,169.794213256,356.53335616,356.790895002,357.033381819,nan,nan
0,155,4604,6,1,37,26,1.0,0.0358565504353,-1.0,1,1.0,1.0,0.257404845674,0,1.0,0.0,0.265542392774,0.347224364862,0.0701929156691,0.417417280531,0.277031449193,nan,nan,0.0,0.0,0.0,nan,nan,169.794213256,357.533471055,357.790875901,358.033520947,nan,nan
0,156,4609,6,1,431,303,0.191957257768,0.43918128748,-0.982298765802,1,1.0,1.0,0.28925226815,1,0.0,0.0,0.268065318465,0.346648598714,0.0703338134732,0.416982412187,0.27631478524,144.520021866,434.0,0.213881816697,0.43461034373,-1.0,2.43310313423,1.54207131546,169.794213256,358.533616455,358.822868723,359.033634131,360.358803308,361.908997345
0,157,4610,6,1,228,160,0.780729811514,0.1302769546,0.611433142569,1,1.0,1.0,0.297296873759,0,0.0,0.0,0.281317995861,0.34628301699,0.0702579970411,0.416541014031,0.276025019949,nan,nan,0.0,0.0,0.0,nan,nan,169.794213256,363.117511906,363.414808779,363.617558662,nan,nan
0,158,4611,6,1,131,92,1.0,-0.308451667147,-0.125800503078,1,1.0,1.0,0.297080484219,0,0.0,0.0,0.29454320871,0.345972978109,0.0701429679204,0.41611594603,0.275830010189,nan,nan,0.0,0.0,0.0,nan,nan,169.794213256,364.117662438,364.414742922,364.61768439,nan,nan
0,159,4612,6,1,423,297,0.135229581944,0.450080889006,-0.750039916123,1,1.0,1.0,0.264980750158,0,0.0,0.0,0.286452702712,0.345665478148,0.0700287955781,0.415694273726,0.275636682569,nan,nan,0.0,0.0,0.0,nan,nan,169.794213256,365.117768779,365.382749529,365.617809263,nan,nan
0,160,4613,6,1,495,348,0.706485112283,0.278551693791,-1.0,1,1.0,1.0,0.280825346708,0,0.0,0.0,0.280962193695,0.345161198598,0.0700986117499,0.415259810348,0.275062586848,nan,nan,0.0,0.0,0.0,nan,nan,169.794213256,366.117893937,366.398719284,366.617939838,nan,nan
0,161,4614,6,1,367,258,-0.15309091083,0.477560897992,-0.0350816338538,1,1.0,1.0,0.240677301306,0,1.0,0.0,0.262161132724,0.344761597033,0.0700631415408,0.414824738574,0.274698455492,nan,nan,0.0,0.0,0.0,nan,nan,169.794213256,367.118022516,367.358699817,367.618056443,nan,nan
0,162,4619,6,1,145,101,1.0,-0.281667413287,0.0150551701241,1,1.0,1.0,0.248499529902,1,0.0,0.0,0.256667392639,0.34411910138,0.0703207167516,0.414439818132,0.273798384629,-9.82393172342,142.0,1.0,-0.289568116499,-0.0146273521697,-2.12919327658,2.07554607606,169.794213256,368.118182456,368.366681986,368.618186732,369.95169103,372.035291689
0,163,4620,6,1,69,48,1.0,-0.134207199312,-0.939648005704,1,1.0,1.0,0.290364434943,0,0.0,0.0,0.259847088717,0.343532478243,0.0705011651524,0.414033643395,0.27303131309,nan,nan,0.0,0.0,0.0,nan,nan,169.794213256,373.252240014,373.542604449,373.752179858,nan,nan
0,164,4621,6,1,468,329,0.481236483515,0.363131620867,-1.0,1,1.0,1.0,0.249990306795,0,0.0,0.0,0.26295142388,0.343208282857,0.0704076602035,0.41361594306,0.272800622653,nan,nan,0.0,0.0,0.0,nan,nan,169.794213256,374.260595376,374.510585682,374.760647263,nan,nan
0,165,4622,6,1,138,97,1.0,-0.29832987918,-0.0546508148191,1,1.0,1.0,0.209807764273,0,1.0,0.0,0.25005416867,0.342643325426,0.0705658540392,0.413209179465,0.272077471387,nan,nan,0.0,0.0,0.0,nan,nan,169.794213256,375.260752465,375.470560229,375.760764724,nan,nan
0,166,4626,6,1,507,356,0.805995650865,0.232688349973,-1.0,1,1.0,1.0,0.217697561253,1,0.0,0.0,0.22583187744,0.341843111202,0.0710999232875,0.41294303449,0.270743187915,78.8869594641,16.0,0.973419431522,0.140652110383,-1.0,14.6286655359,1.18383278698,169.794213256,376.260861657,376.478559218,376.760893588,378.094421263,379.286249618
0,167,4627,6,1,268,188,0.35230222188,0.302367520405,0.645005310408,1,1.0,1.0,0.439740583766,0,0.0,0.0,0.289081969764,0.341099724675,0.0715308600808,0.412630584756,0.269568864595,nan,nan,0.0,0.0,0.0,nan,nan,169.794213256,380.494726831,380.934467415,380.994767885,nan,nan
0,168,4628,6,1,345,242,-0.173519535469,0.465595146217,0.186119282857,1,1.0,1.0,0.319580119103,0,0.0,0.0,0.325672754707,0.341686872646,0.0717201481343,0.413407020781,0.269966724512,nan,nan,0.0,0.0,0.0,nan,nan,169.794213256,381.494879643,381.814459763,381.994897889,nan,nan
0,169,4629,6,1,37,26,1.0,0.0358565504353,-1.0,1,1.0,1.0,0.247111103497,0,0.0,0.0,0.335477268789,0.341556063454,0.0715277410379,0.413083804492,0.270028322416,nan,nan,0.0,0.0,0.0,nan,nan,169.794213256,382.503336785,382.750447889,383.003366435,nan,nan
0,170,4630,6,1,432,303,0.199227897075,0.437687328843,-1.0,1,1.0,1.0,0.222958756611,0,1.0,0.0,0.263216659737,0.341000504866,0.0716818205877,0.412682325453,0.269318684278,nan,nan,0.0,0.0,0.0,nan,nan,169.794213256,383.503461658,383.726420415,384.003491023,nan,nan
0,171,4635,6,1,259,182,0.44882283482,0.268906983076,0.655011783756,1,1.0,1.0,0.246856226586,1,0.0,0.0,0.238975362231,0.340310202244,0.072036400329,0.412346602573,0.268273801915,-79.7174649707,241.0,0.64365311028,0.192605941253,0.644254782112,-12.3919100293,1.35887942882,169.794213256,384.503567714,384.750423941,385.003610194,386.328779086,387.695653228
0,172,4636,6,1,498,350,0.731507943485,0.267561876527,-1.0,1,1.0,1.0,0.438160286751,0,0.0,0.0,0.302658423316,0.339766865177,0.0721772453687,0.411944110545,0.267589619808,nan,nan,0.0,0.0,0.0,nan,nan,169.794213256,388.904156099,389.342316386,389.404182043,nan,nan
0,173,4637,6,1,243,170,0.622151010882,0.20168048164,0.647463484622,1,1.0,1.0,0.302001557779,0,0.0,0.0,0.329006023705,0.340335613278,0.0723538479496,0.412689461228,0.267981765329,nan,nan,0.0,0.0,0.0,nan,nan,169.794213256,389.904283538,390.206285096,390.404311763,nan,nan
0,174,4638,6,0,498,350,0.731507943485,0.267561876527,-1.0,0,1.0,0.0,0.253875334747,0,0.0,0.0,0.331345726425,0.340115302614,0.072203805404,0.412319108018,0.26791149721,nan,nan,0.0,0.0,0.0,nan,nan,169.794213256,390.904414113,391.158289447,391.404458873,nan,nan
0,175,4639,6,1,46,32,1.0,-0.0117313672748,-1.0,1,1.0,1.0,0.261777961161,0,0.0,0.0,0.272551617896,0.339622502798,0.0722900747424,0.41191257754,0.267332428056,nan,nan,0.0,0.0,0.0,nan,nan,169.794213256,391.904542407,392.166320368,392.404569206,nan,nan
0,176,4640,6,1,416,292,0.087881616042,0.458117504295,-0.630165317015,1,1.0,1.0,0.309564632829,0,0.0,0.0,0.275072642912,0.339180204266,0.0723214867611,0.411501691027,0.266858717505,nan,nan,0.0,0.0,0.0,nan,nan,169.794213256,392.904683815,393.214248448,393.404718597,nan,nan
0,177,4641,6,1,125,87,1.0,-0.311567427947,-0.187805059354,1,1.0,1.0,0.293434367981,0,0.0,0.0,0.288258987324,0.339012884653,0.0721510530025,0.411163937656,0.266861831651,nan,nan,0.0,0.0,0.0,nan,nan,169.794213256,393.904780749,394.198215117,394.404810399,nan,nan
0,178,4642,6,0,366,257,-0.155593376329,0.477302029306,-0.0244766492797,0,1.0,0.0,0.285293399822,0,0.0,0.0,0.296097466877,0.338756825571,0.0720287008934,0.410785526464,0.266728124677,nan,nan,0.0,0.0,0.0,nan,nan,169.794213256,394.904934131,395.190227531,395.404972619,nan,nan
0,179,4643,6,1,33,23,1.0,0.0565990290419,-1.0,1,1.0,1.0,0.341128097847,0,0.0,0.0,0.306618621883,0.338458147215,0.0719376738872,0.410395821102,0.266520473327,nan,nan,0.0,0.0,0.0,nan,nan,169.794213256,395.905053017,396.246181115,396.405098632,nan,nan
0,180,4644,6,1,400,281,-0.0107874812989,0.471427301814,-0.412692688905,1,1.0,1.0,0.309009547345,0,0.0,0.0,0.311810348338,0.338472980274,0.071737843201,0.410210823475,0.266735137073,nan,nan,0.0,0.0,0.0,nan,nan,169.794213256,396.905174754,397.214184301,397.405200697,nan,nan
0,181,4645,6,1,38,26,1.0,0.0306259494545,-1.0,1,1.0,1.0,0.324855854269,0,0.0,0.0,0.324997833154,0.338310198876,0.0715727256096,0.409882924486,0.266737473267,nan,nan,0.0,0.0,0.0,nan,nan,169.794213256,397.905305614,398.230161468,398.405331843,nan,nan
0,182,4646,6,1,452,317,0.351738073422,0.401406211611,-1.0,1,1.0,1.0,0.364731346257,0,0.0,0.0,0.332865582624,0.338236273906,0.0713827552143,0.40961902912,0.266853518692,nan,nan,0.0,0.0,0.0,nan,nan,169.794213256,398.90542507,399.270156416,399.405481519,nan,nan
0,183,4647,6,1,13,9,0.950262168777,0.154664060346,-1.0,1,1.0,1.0,0.308594730217,0,0.0,0.0,0.332727310248,0.338381055722,0.0712142439049,0.409595299627,0.267166811817,nan,nan,0.0,0.0,0.0,nan,nan,169.794213256,399.905555074,400.214149804,400.405578738,nan,nan
0,184,4648,6,1,222,156,0.841778467246,0.0997291618919,0.589484691865,1,1.0,1.0,0.2924388065,0,0.0,0.0,0.321921627658,0.338219173518,0.071054217863,0.409273391381,0.267164955655,nan,nan,0.0,0.0,0.0,nan,nan,169.794213256,400.905689925,401.198128732,401.405703325,nan,nan
0,185,4649,6,1,329,231,-0.136053278316,0.448203788942,0.3278337444,1,1.0,1.0,0.324262280948,0,0.0,0.0,0.308431939222,0.337971712075,0.0709413788578,0.408913090933,0.267030333217,nan,nan,0.0,0.0,0.0,nan,nan,169.794213256,401.905806816,402.230069097,402.405832189,nan,nan
0,186,4650,6,1,93,65,1.0,-0.245614297951,-0.538619881923,1,1.0,1.0,0.364143474959,0,0.0,0.0,0.326948187469,0.337898005456,0.0707575215942,0.40865552705,0.267140483862,nan,nan,0.0,0.0,0.0,nan,nan,169.794213256,402.905937105,403.27008058,403.405969321,nan,nan
0,187,4651,6,1,417,293,0.0945046041228,0.457053563907,-0.645720198395,1,1.0,1.0,0.347962462809,0,0.0,0.0,0.345456072905,0.33803835556,0.0705940317074,0.408632387268,0.267444323853,nan,nan,0.0,0.0,0.0,nan,nan,169.794213256,403.906094764,404.254057227,404.406084216,nan,nan
0,188,4652,6,1,27,18,1.0,0.0870912575778,-1.0,1,1.0,1.0,0.299891834147,0,0.0,0.0,0.337332590638,0.338091143365,0.0704097317647,0.40850087513,0.2676814116,nan,nan,0.0,0.0,0.0,nan,nan,169.794213256,404.906174877,405.206066711,405.406232752,nan,nan
0,189,4653,6,1,251,176,0.535576518695,0.236509187076,0.655284151108,1,1.0,1.0,0.323701207992,0,0.0,0.0,0.323851834983,0.337889030618,0.0702778750799,0.408166905698,0.267611155538,nan,nan,0.0,0.0,0.0,nan,nan,169.794213256,405.90632997,406.230031178,406.40634451,nan,nan
0,190,4654,6,1,300,210,0.0433537089178,0.395748422077,0.528951029102,1,1.0,1.0,0.283572264481,0,0.0,0.0,0.30238843554,0.337814357867,0.0701002065856,0.407914564453,0.267714151281,nan,nan,0.0,0.0,0.0,nan,nan,169.794213256,406.906457694,407.190029958,407.406487629,nan,nan
0,191,4655,6,1,199,139,1.0,-0.0246761787097,0.468786302982,1,1.0,1.0,0.267422042787,0,0.0,0.0,0.291565171753,0.337530367849,0.070025956426,0.407556324275,0.267504411423,nan,nan,0.0,0.0,0.0,nan,nan,169.794213256,407.906578861,408.174000903,408.406604234,nan,nan
0,192,4656,6,1,470,330,0.497741612616,0.357740777197,-1.0,1,1.0,1.0,0.291260497179,0,0.0,0.0,0.280751601482,0.337165220323,0.0700254336562,0.407190653979,0.267139786667,nan,nan,0.0,0.0,0.0,nan,nan,169.794213256,408.906701168,409.197961665,409.406748494,nan,nan
0,193,4657,6,1,80,56,1.0,-0.189075709245,-0.708965549488,1,1.0,1.0,0.299110665917,0,0.0,0.0,0.285931068628,0.336927372016,0.0699214995113,0.406848871528,0.267005872505,nan,nan,0.0,0.0,0.0,nan,nan,169.794213256,409.906834023,410.205944689,410.406867379,nan,nan
0,194,4658,6,1,238,167,0.675741828754,0.178727669763,0.638511091232,1,1.0,1.0,0.298979520798,0,0.0,0.0,0.296450227965,0.336732440542,0.0697936146652,0.406526055207,0.266938825877,nan,nan,0.0,0.0,0.0,nan,nan,169.794213256,410.906965453,411.205944974,411.406976572,nan,nan
0,195,4659,6,1,169,118,1.0,-0.185917379452,0.239118302078,1,1.0,1.0,0.264865570702,0,0.0,0.0,0.287651919139,0.336538835825,0.0696666351929,0.406205471018,0.266872200632,nan,nan,0.0,0.0,0.0,nan,nan,169.794213256,411.933048768,412.197914339,412.432111651,nan,nan
0,196,4700,6,1,495,348,0.706485112283,0.278551693791,-1.0,1,1.0,1.0,0.305675613228,0,0.0,0.0,0.289840234909,0.336173155901,0.0696760601796,0.405849216081,0.266497095721,nan,nan,0.0,0.0,0.0,nan,nan,169.794213256,412.93222341,413.237899023,413.432257622,nan,nan
0,197,4701,6,1,121,85,1.0,-0.310732805591,-0.229640808446,1,1.0,1.0,0.433553390671,0,0.0,0.0,0.334698191533,0.33601834604,0.0695327785892,0.405551124629,0.266485567451,nan,nan,0.0,0.0,0.0,nan,nan,169.794213256,413.932328896,414.365882287,414.432359972,nan,nan
0,198,4702,6,1,251,176,0.535576518695,0.236509187076,0.655284151108,1,1.0,1.0,0.432984905783,0,0.0,0.0,0.390737969894,0.336510947275,0.0697007339069,0.406211681182,0.266810213368,nan,nan,0.0,0.0,0.0,nan,nan,169.794213256,414.940862444,415.37384735,415.440826522,nan,nan
0,199,4703,6,1,97,68,1.0,-0.260369742894,-0.491718830742,1,1.0,1.0,0.448896500282,0,0.0,1.0,0.438478265579,0.336995741037,0.0698592458356,0.406854986872,0.267136495201,nan,nan,0.0,0.0,0.0,nan,nan,169.794213256,415.94093828,416.38983478,416.440953105,nan,nan
0,200,4707,6,1,196,137,1.0,-0.0413610816081,0.449130757868,1,1.0,1.0,0.40075003542,1,0.0,0.0,0.427543813828,0.337555244833,0.0701299402016,0.407685185034,0.267425304631,-65.9343684194,222.0,0.841778467246,0.0997291618919,0.589484691865,18.1218684194,1.71718381532,169.794213256,416.941063723,417.341813758,417.441103066,418.766246585,420.491468448
0,201,4708,6,1,21,14,1.0,0.116713997928,-1.0,1,1.0,1.0,0.513370803092,0,0.0,0.0,0.454339112931,0.337869646776,0.0700964302229,0.407966076999,0.267773216553,nan,nan,0.0,0.0,0.0,nan,nan,169.794213256,421.708318128,422.221688931,422.208397956,nan,nan
0,202,4709,6,1,292,205,0.112881669716,0.376069582356,0.569261850688,1,1.0,1.0,0.409260490444,0,0.0,0.0,0.441127109652,0.338738464382,0.0709993582771,0.409737822659,0.267739106104,nan,nan,0.0,0.0,0.0,nan,nan,169.794213256,422.708452124,423.117712615,423.208480634,nan,nan
0,203,4710,6,1,365,256,-0.157962026257,0.477016591838,-0.0139196855225,1,1.0,1.0,0.353091657627,0,0.0,1.0,0.425240983721,0.339085863525,0.070996164809,0.410082028334,0.268089698716,nan,nan,0.0,0.0,0.0,nan,nan,169.794213256,423.708592108,424.061683765,424.208609784,nan,nan
0,204,4715,6,1,473,332,0.522594813828,0.349396171415,-1.0,1,1.0,1.0,0.344988037366,1,0.0,0.0,0.369113395146,0.339154519378,0.0708286959425,0.409983215321,0.268325823436,120.874510842,468.0,0.481236483515,0.363131620867,-1.0,-3.45263584177,1.25043249363,169.794213256,424.708707572,425.053695609,425.208739503,426.53390925,427.792396327
0,205,4716,6,1,167,117,1.0,-0.195605812978,0.221546716301,1,1.0,1.0,0.492354531772,0,0.0,0.0,0.396811408922,0.339182975563,0.0706569008037,0.409839876367,0.26852607476,nan,nan,0.0,0.0,0.0,nan,nan,169.794213256,429.009249144,429.501603676,429.517635582,nan,nan
0,206,4717,6,1,312,219,-0.0464483572634,0.420925197877,0.455573212045,1,1.0,1.0,0.436192826368,0,0.0,0.0,0.424511798502,0.339926526807,0.0712846457794,0.411211172587,0.268641881028,nan,nan,0.0,0.0,0.0,nan,nan,169.794213256,430.009389982,430.445582808,430.509414216,nan,nan
0,207,4718,6,1,364,255,-0.160194321586,0.476704516321,-0.00341124574885,1,1.0,1.0,0.340063257609,0,0.0,1.0,0.42287020525,0.340391581394,0.0714248221535,0.411816403548,0.268966759241,nan,nan,0.0,0.0,0.0,nan,nan,169.794213256,431.009528825,431.349592082,431.509569309,nan,nan
0,208,4722,6,1,213,149,0.929785093221,0.0521668813814,0.548906519778,1,1.0,1.0,0.299930321984,1,0.0,0.0,0.358728801987,0.340390002915,0.0712529246278,0.411642927542,0.269137078287,-55.451632944,207.0,0.985653507947,0.0195431921708,0.51699622314,-4.31399205601,1.10041401908,169.794213256,432.009637447,432.309567769,432.509679357,433.834840266,434.943317421
0,209,4723,6,1,488,343,0.647907709101,0.302951493728,-1.0,1,1.0,1.0,0.469614558853,0,0.0,0.0,0.369869379482,0.340196415925,0.0711370683478,0.411333484272,0.269059347577,nan,nan,0.0,0.0,0.0,nan,nan,169.794213256,436.151849088,436.621463647,436.65186876,nan,nan
0,210,4724,6,1,206,144,0.994723455659,0.014051917983,0.511316161583,1,1.0,1.0,0.35749556357,0,0.0,0.0,0.375680148136,0.340812692796,0.0715245591978,0.412337251993,0.269288133598,nan,nan,0.0,0.0,0.0,nan,nan,169.794213256,437.151968829,437.509464392,437.651990496,nan,nan
0,211,4725,6,1,351,246,-0.175686286722,0.4701852659,0.128489978773,1,1.0,1.0,0.317325280979,0,0.0,0.0,0.381478467801,0.340891758534,0.0713640668706,0.412255825405,0.269527691663,nan,nan,0.0,0.0,0.0,nan,nan,169.794213256,438.152111663,438.469436944,438.652123637,nan,nan
0,212,4726,6,1,421,296,0.121471671064,0.452518040197,-0.712610339232,1,1.0,1.0,0.325210516341,0,0.0,0.0,0.333343786964,0.340780595904,0.0712138653044,0.411994461208,0.2695667306,nan,nan,0.0,0.0,0.0,nan,nan,169.794213256,439.152213728,439.477424244,439.652254497,nan,nan
0,213,4727,6,1,91,63,1.0,-0.237709898716,-0.562722318432,1,1.0,1.0,0.309027793817,0,0.0,0.0,0.317187863713,0.340707496939,0.0710544718267,0.411761968766,0.269653025112,nan,nan,0.0,0.0,0.0,nan,nan,169.794213256,440.152369391,440.461397185,440.652385357,nan,nan
0,214,4728,6,1,18,12,0.988682696815,0.131162580546,-1.0,1,1.0,1.0,0.3408934623,0,0.0,0.0,0.325043924153,0.340559460943,0.0709211784647,0.411480639408,0.269638282478,nan,nan,0.0,0.0,0.0,nan,nan,169.794213256,441.1524974,441.493390862,441.65251137,nan,nan
0,215,4729,6,1,469,329,0.489482198204,0.360453357602,-1.0,1,1.0,1.0,0.340757470578,0,0.0,0.0,0.330226242232,0.340561014438,0.0707560569113,0.411317071349,0.269804957526,nan,nan,0.0,0.0,0.0,nan,nan,169.794213256,442.15262769,442.49338516,442.652632251,nan,nan
0,216,4730,6,1,145,101,1.0,-0.281667413287,0.0150551701241,1,1.0,1.0,0.324619793333,0,0.0,0.0,0.335423575404,0.340561923957,0.0705920809936,0.41115400495,0.269969842963,nan,nan,0.0,0.0,0.0,nan,nan,169.794213256,443.152744865,443.477364658,443.652757409,nan,nan
0,217,4731,6,1,273,191,0.299732959835,0.319577193062,0.635038033336,1,1.0,1.0,0.372470041737,0,0.0,0.0,0.345949101883,0.340488457917,0.0704375145684,0.410925972485,0.270050943349,nan,nan,0.0,0.0,0.0,nan,nan,169.794213256,444.152874585,444.525344627,444.652891405,nan,nan
0,218,4732,6,0,496,348,0.714833717156,0.274923884212,-1.0,0,0.0,1.0,0.444310131483,0,0.0,0.0,0.380466655518,0.34063516243,0.0703089956129,0.410944158043,0.270326166817,nan,nan,0.0,0.0,0.0,nan,nan,169.794213256,445.153013142,445.597323274,445.653041082,nan,nan
0,219,4733,6,1,44,30,1.0,-0.00106984144607,-1.0,1,1.0,1.0,0.32419442758,0,0.0,0.0,0.380324866933,0.341108564115,0.0704956613087,0.411604225424,0.270612902806,nan,nan,0.0,0.0,0.0,nan,nan,169.794213256,446.153113212,446.477307639,446.653157687,nan,nan
0,220,4734,6,1,228,160,0.780729811514,0.1302769546,0.611433142569,1,1.0,1.0,0.324050738476,0,0.0,0.0,0.36418509918,0.341031681676,0.0703444630918,0.411376144768,0.270687218585,nan,nan,0.0,0.0,0.0,nan,nan,169.794213256,447.153239225,447.477289963,447.65326973,nan,nan
0,221,4735,6,0,314,220,-0.0594438881467,0.42463230952,0.441925406839,0,1.0,0.0,0.259876928758,0,0.0,0.0,0.302707364938,0.340954844829,0.0701943847569,0.411149229586,0.270760460072,nan,nan,0.0,0.0,0.0,nan,nan,169.794213256,448.153393748,448.413270677,448.653427104,nan,nan
0,222,4736,6,1,69,48,1.0,-0.134207199312,-0.939648005704,1,1.0,1.0,0.283751305658,0,0.0,0.0,0.289226324297,0.340589628991,0.0702462410425,0.410835870034,0.270343387949,nan,nan,0.0,0.0,0.0,nan,nan,169.794213256,449.153504366,449.437255671,449.653528314,nan,nan
0,223,4737,6,1,19,13,0.99625917486,0.126374530333,-1.0,1,1.0,1.0,0.275611477438,0,0.0,0.0,0.273079903952,0.340334748617,0.0701913700737,0.410526118691,0.270143378544,nan,nan,0.0,0.0,0.0,nan,nan,169.794213256,450.15361869,450.429230168,450.653658889,nan,nan
0,224,4738,6,1,169,118,1.0,-0.185917379452,0.239118302078,1,1.0,1.0,0.243471829686,0,1.0,0.0,0.267611537594,0.340045805443,0.0701673109243,0.410213116367,0.269878494518,nan,nan,0.0,0.0,0.0,nan,nan,169.794213256,451.153746699,451.397218529,451.653784902,nan,nan
0,225,4742,6,1,361,253,-0.166047812515,0.475607712818,0.0278173107143,1,1.0,1.0,0.267302872147,1,0.0,0.0,0.262128726424,0.339616587773,0.0703053095053,0.409921897278,0.269311278267,-156.037511025,350.0,-0.175756816429,0.469490941964,0.138247479403,-7.79061397458,1.00040341355,169.794213256,452.153883546,452.421186418,452.653910915,453.987410651,454.995870358
0,226,4743,6,1,272,191,0.310166696092,0.316214117232,0.637281430288,1,1.0,1.0,0.240450933576,0,0.0,0.0,0.250408545136,0.33929661558,0.0703135945777,0.409610210157,0.268983021002,nan,nan,0.0,0.0,0.0,nan,nan,169.794213256,456.212741421,456.453192355,456.712766225,nan,nan
0,227,4744,6,0,472,331,0.51429864939,0.352212277195,-1.0,0,1.0,0.0,0.23222557595,0,0.0,0.0,0.246659793891,0.338861172046,0.0704632808044,0.409324452851,0.268397891242,nan,nan,0.0,0.0,0.0,nan,nan,169.794213256,457.212880549,457.445106125,457.712910484,nan,nan
0,228,4745,6,1,236,165,0.697004556276,0.169301754335,0.634065852989,1,1.0,1.0,0.27209764719,0,0.0,0.0,0.248258052239,0.338393472064,0.0706608238334,0.409054295897,0.26773264823,nan,nan,0.0,0.0,0.0,nan,nan,169.794213256,458.212992592,458.485090239,458.713030225,nan,nan
0,229,4746,6,1,289,203,0.140592130943,0.368073254824,0.582505265782,1,1.0,1.0,0.335929909255,0,0.0,0.0,0.280084377465,0.338103970645,0.0706417558187,0.408745726464,0.267462214826,nan,nan,0.0,0.0,0.0,nan,nan,169.794213256,459.213129439,459.549059349,459.713158804,nan,nan
0,230,4747,6,1,179,125,1.0,-0.13461441766,0.323204131591,1,1.0,1.0,0.447795167565,0,0.0,0.0,0.351940908004,0.338094518204,0.0704881646344,0.408582682838,0.26760635357,nan,nan,0.0,0.0,0.0,nan,nan,169.794213256,460.213261724,460.661056892,460.713269707,nan,nan
0,231,4748,6,1,248,174,0.568115903494,0.223728204869,0.653295769881,1,1.0,1.0,0.431654069107,0,0.0,0.0,0.405126381976,0.33856941279,0.0707032040499,0.40927261684,0.26786620874,nan,nan,0.0,0.0,0.0,nan,nan,169.794213256,461.213386598,461.645040667,461.713394295,nan,nan
0,232,4749,6,1,9,6,0.918933560847,0.172916688009,-1.0,1,1.0,1.0,0.455515046604,0,0.0,1.0,0.444988094425,0.338970639757,0.0708137203216,0.409784360079,0.268156919435,nan,nan,0.0,0.0,0.0,nan,nan,169.794213256,462.213508334,462.669023381,462.713536274,nan,nan
0,233,4754,6,1,153,107,1.0,-0.255547855702,0.0926213922694,1,1.0,1.0,0.63933899533,1,0.0,0.0,0.508836037014,0.339470830344,0.0710711291249,0.410541959469,0.268399701219,-8.13010235416,140.0,1.0,-0.294209249228,-0.0345777392028,-9.44802264584,1.81724345777,169.794213256,463.213645466,463.852984461,463.713697924,465.047157461,466.872425282
0,234,4755,6,1,356,250,-0.17284377641,0.473239407326,0.0788368070227,1,1.0,1.0,0.331678815652,0,0.0,0.0,0.475510952529,0.340752318229,0.0735673479459,0.414319666175,0.267184970283,nan,nan,0.0,0.0,0.0,nan,nan,169.794213256,468.089246167,468.420924983,468.589278669,nan,nan
0,235,4756,6,1,122,85,1.0,-0.311159539646,-0.219144224573,1,1.0,1.0,0.339506461285,0,0.0,0.0,0.436841424089,0.34071370758,0.0734130307328,0.414126738312,0.267300676847,nan,nan,0.0,0.0,0.0,nan,nan,169.794213256,469.089395844,469.428902305,469.589413805,nan,nan
0,236,4757,6,1,289,203,0.140592130943,0.368073254824,0.582505265782,1,1.0,1.0,0.355358185712,0,0.0,0.0,0.342181154216,0.340708592129,0.0732573715094,0.413965963639,0.26745122062,nan,nan,0.0,0.0,0.0,nan,nan,169.794213256,470.089514159,470.444872345,470.589529269,nan,nan
0,237,4758,6,1,378,265,-0.117450136118,0.478670924818,-0.154810124165,1,1.0,1.0,0.232160288841,0,0.0,0.0,0.309008311946,0.34077040476,0.0731088238757,0.413879228636,0.267661580885,nan,nan,0.0,0.0,0.0,nan,nan,169.794213256,471.148679085,471.380839374,471.64799542,nan,nan
0,238,4759,6,0,176,123,1.0,-0.150429669724,0.298675466069,0,1.0,0.0,0.296716699377,0,0.0,0.0,0.294745057976,0.340314059735,0.0732925507824,0.413606610518,0.267021508953,nan,nan,0.0,0.0,0.0,nan,nan,169.794213256,472.148122859,472.444839559,472.648161632,nan,nan
0,239,4800,6,1,384,270,-0.0924750057551,0.477945316949,-0.222479273925,1,1.0,1.0,0.280586719979,0,0.0,0.0,0.269821236065,0.340131644002,0.0731931788278,0.413324822829,0.266938465174,nan,nan,0.0,0.0,0.0,nan,nan,169.794213256,473.148214946,473.428801666,473.648253149,nan,nan
0,240,4801,6,1,495,348,0.706485112283,0.278551693791,-1.0,1,1.0,1.0,0.254578100983,0,0.0,0.0,0.277293840113,0.339883540152,0.0731411741567,0.413024714308,0.266742365995,nan,nan,0.0,0.0,0.0,nan,nan,169.794213256,474.206225795,474.460803896,474.706718444,nan,nan
0,241,4802,6,0,47,33,1.0,-0.0170755915744,-1.0,0,0.0,1.0,0.389926866628,0,0.0,0.0,0.308363895863,0.339529575674,0.0731949692323,0.412724544906,0.266334606441,nan,nan,0.0,0.0,0.0,nan,nan,169.794213256,475.206856432,475.596783299,475.706895205,nan,nan
0,242,4803,6,1,306,215,-0.00395437407881,0.408974006242,0.494128827808,1,1.0,1.0,0.341806915589,0,0.0,0.0,0.328770627733,0.339737828942,0.0731150949377,0.41285292388,0.266622734004,nan,nan,0.0,0.0,0.0,nan,nan,169.794213256,476.206969331,476.548776246,476.706977028,nan,nan
0,243,4804,6,1,426,299,0.156193047225,0.446210853967,-0.81485970128,1,1.0,1.0,0.420291780494,0,0.0,0.0,0.384008520904,0.339746343702,0.0729646174914,0.412710961193,0.266781726211,nan,nan,0.0,0.0,0.0,nan,nan,169.794213256,477.240444947,477.660736727,477.740441525,nan,nan
0,244,4805,6,1,148,104,1.0,-0.272695592461,0.0444264621409,1,1.0,1.0,0.356199224014,0,0.0,0.0,0.372765973366,0.340076447951,0.0729965467007,0.413072994652,0.267079901251,nan,nan,0.0,0.0,0.0,nan,nan,169.794213256,478.240532757,478.596731981,478.740577802,nan,nan
0,245,4806,6,1,390,274,-0.0641960347588,0.476284203309,-0.291947553613,1,1.0,1.0,0.316061156802,0,0.0,0.0,0.36418405377,0.3401422552,0.0728546740614,0.412996929262,0.267287581139,nan,nan,0.0,0.0,0.0,nan,nan,169.794213256,479.2406582,479.556719357,479.740696118,nan,nan
0,246,4807,6,1,90,63,1.0,-0.233635786423,-0.574971871003,1,1.0,1.0,0.323888232931,0,0.0,0.0,0.332049537916,0.340044364557,0.0727225881492,0.412766952706,0.267321776407,nan,nan,0.0,0.0,0.0,nan,nan,169.794213256,480.240809016,480.564697249,480.740825837,nan,nan
0,247,4808,6,1,381,267,-0.105403061426,0.478425078289,-0.188431136224,1,1.0,1.0,0.331740682013,0,0.0,0.0,0.323896690582,0.339978955117,0.0725824777624,0.412561432879,0.267396477354,nan,nan,0.0,0.0,0.0,nan,nan,169.794213256,481.240941302,481.572681984,481.740956412,nan,nan
0,248,4809,6,1,236,165,0.697004556276,0.169301754335,0.634065852989,1,1.0,1.0,0.34759383183,0,0.0,0.0,0.334407582258,0.339945736274,0.0724378756851,0.412383611959,0.267507860588,nan,nan,0.0,0.0,0.0,nan,nan,169.794213256,482.241069596,482.588663428,482.741074157,nan,nan
0,249,4810,6,1,288,202,0.150005133015,0.365331945294,0.586687239957,1,1.0,1.0,0.339455144014,0,0.0,0.0,0.339596552619,0.339976451517,0.0722938899702,0.412270341487,0.267682561547,nan,nan,0.0,0.0,0.0,nan,nan,169.794213256,483.241203022,483.580658166,483.741234953,nan,nan
0,250,4811,6,1,191,134,1.0,-0.0691479807067,0.414571651978,1,1.0,1.0,0.363316976465,0,0.0,0.0,0.350121984103,0.339974366287,0.0721491648158,0.412123531103,0.267825201471,nan,nan,0.0,0.0,0.0,nan,nan,169.794213256,484.241315635,484.604632612,484.741334167,nan,nan
0,251,4812,6,1,367,258,-0.15309091083,0.477560897992,-0.0350816338538,1,1.0,1.0,0.355161183048,0,0.0,0.0,0.352644434509,0.340067364734,0.0720203103969,0.412087675131,0.268047054337,nan,nan,0.0,0.0,0.0,nan,nan,169.794213256,485.241459895,485.596621078,485.741463886,nan,nan
0,252,4813,6,0,471,331,0.506014005179,0.354993781952,-1.0,0,0.0,1.0,0.491017993074,0,0.0,0.0,0.403165384196,0.340127260838,0.0718835346021,0.41201079544,0.268243726236,nan,nan,0.0,0.0,0.0,nan,nan,169.794213256,486.241565951,486.732583944,486.749954385,nan,nan
0,253,4814,6,1,209,146,0.967301840512,0.0304835193525,0.52804999659,1,1.0,1.0,0.378853382077,0,0.0,0.0,0.408344186066,0.340723666894,0.072363354743,0.413087021637,0.268360312151,nan,nan,0.0,0.0,0.0,nan,nan,169.794213256,487.241723896,487.620577278,487.741713062,nan,nan
0,254,4815,6,1,314,220,-0.0594438881467,0.42463230952,0.441925406839,1,1.0,1.0,0.330732291099,0,0.0,0.0,0.400201222083,0.340873783883,0.0722602278407,0.413134011724,0.268613556043,nan,nan,0.0,0.0,0.0,nan,nan,169.794213256,488.241817122,488.572549413,488.74188184,nan,nan
0,255,4816,6,1,262,184,0.416452475899,0.2804144186,0.652815538838,1,1.0,1.0,0.282632296905,0,0.0,0.0,0.33073932336,0.340834013323,0.0721211872421,0.412955200565,0.268712826081,nan,nan,0.0,0.0,0.0,nan,nan,169.794213256,489.241934013,489.52456631,489.742001866,nan,nan
0,256,4817,6,1,382,268,-0.1011887567,0.478291136399,-0.199732273247,1,1.0,1.0,0.274369306862,0,0.0,0.0,0.295911298289,0.340606662869,0.0720716859973,0.412678348866,0.268534976871,nan,nan,0.0,0.0,0.0,nan,nan,169.794213256,490.242151257,490.516520564,490.742102506,nan,nan
0,257,4818,6,1,194,136,1.0,-0.0524864644427,0.435571704399,1,1.0,1.0,0.266305884812,0,0.0,0.0,0.274435829526,0.340348929966,0.0720494389262,0.412398368892,0.26829949104,nan,nan,0.0,0.0,0.0,nan,nan,169.794213256,491.242205141,491.508511025,491.742217685,nan,nan
0,258,4819,6,1,90,63,1.0,-0.233635786423,-0.574971871003,1,1.0,1.0,0.234165382106,0,1.0,0.0,0.25828019126,0.340061941419,0.0720567010524,0.412118642471,0.268005240366,nan,nan,0.0,0.0,0.0,nan,nan,169.794213256,492.242338281,492.476503663,492.742358808,nan,nan
0,259,4823,6,1,489,343,0.656284860842,0.299572439858,-1.0,1,1.0,1.0,0.266024778131,1,0.0,0.0,0.255498681683,0.339653074394,0.0722166990666,0.411869773461,0.267436375328,111.223656503,482.0,0.597655625539,0.322480811492,-1.0,-5.05178150277,1.05888039805,169.794213256,493.242446334,493.508471112,493.742502213,495.075986838,496.14282061
0,260,4824,6,1,178,125,1.0,-0.139919655122,0.315097826042,1,1.0,1.0,0.293038937729,0,0.0,0.0,0.264409699322,0.33936988864,0.0722216259473,0.411591514587,0.267148262692,nan,nan,0.0,0.0,0.0,nan,nan,169.794213256,497.351314928,497.644353866,497.851348285,nan,nan
0,261,4825,6,1,9,6,0.918933560847,0.172916688009,-1.0,1,1.0,1.0,0.23696361715,0,0.0,0.0,0.265342444337,0.339192375418,0.072139944319,0.411332319737,0.267052431099,nan,nan,0.0,0.0,0.0,nan,nan,169.794213256,498.351430108,498.588393725,498.851473728,nan,nan
0,262,4826,6,1,403,283,0.00657627305109,0.469456436931,-0.450524507496,1,1.0,1.0,0.252809924074,0,1.0,0.0,0.260937492984,0.338802189317,0.0722775505356,0.411079739853,0.266524638782,nan,nan,0.0,0.0,0.0,nan,nan,169.794213256,499.351573797,499.604383721,499.851612285,nan,nan
0,263,4830,6,1,467,328,0.473005185182,0.365775667588,-1.0,1,1.0,1.0,0.237398676109,1,0.0,0.0,0.242390739111,0.338475222529,0.0723338837098,0.410809106239,0.26614133882,139.953257478,441.0,0.266287261384,0.422891888867,-1.0,-18.3126324778,1.14209959703,169.794213256,500.366954825,500.604353501,500.868417377,502.193566027,503.34371308
0,264,4831,6,1,299,210,0.0516645560415,0.393417669654,0.534378752182,1,1.0,1.0,0.339721424971,0,0.0,0.0,0.276643341718,0.338092356823,0.0724632595557,0.410555616379,0.265629097268,nan,nan,0.0,0.0,0.0,nan,nan,169.794213256,504.560557629,504.900279054,505.060614078,nan,nan
0,265,4832,6,1,351,246,-0.175686286722,0.4701852659,0.128489978773,1,1.0,1.0,0.267564876936,0,0.0,0.0,0.281561659339,0.33809850425,0.0723264761669,0.410424980417,0.265772028083,nan,nan,0.0,0.0,0.0,nan,nan,169.794213256,505.560703028,505.828267905,506.060734104,nan,nan
0,266,4833,6,1,480,337,0.580928072941,0.32870764083,-1.0,1,1.0,1.0,0.25144088408,0,0.0,0.0,0.286242395329,0.337833340238,0.0723193332444,0.410152673482,0.265514006993,nan,nan,0.0,0.0,0.0,nan,nan,169.794213256,506.560813647,506.812254531,507.060856411,nan,nan
0,267,4834,6,0,266,187,0.373577590308,0.295207490188,0.648113769863,0,1.0,0.0,0.259187562391,0,0.0,0.0,0.259397774469,0.337509772986,0.0723764236324,0.409886196619,0.265133349354,nan,nan,0.0,0.0,0.0,nan,nan,169.794213256,507.561024904,507.820212467,508.061011789,nan,nan
0,268,4835,6,1,399,280,-0.0164460389312,0.472031251936,-0.400274523968,1,1.0,1.0,0.235095085576,0,0.0,0.0,0.248574510682,0.337217525932,0.0723989271678,0.4096164531,0.264818598764,nan,nan,0.0,0.0,0.0,nan,nan,169.794213256,508.561088196,508.796183282,509.061109863,nan,nan
0,269,4836,6,1,194,136,1.0,-0.0524864644427,0.435571704399,1,1.0,1.0,0.251000123098,0,0.0,0.0,0.248427590355,0.336837888607,0.0725309899384,0.409368878545,0.264306898669,nan,nan,0.0,0.0,0.0,nan,nan,169.794213256,509.561192256,509.812192379,510.061252412,nan,nan
0,270,4837,6,1,256,180,0.481312611765,0.257047908656,0.656065722404,1,1.0,1.0,0.306816290133,0,0.0,0.0,0.264303832936,0.336519970957,0.0725840790505,0.409104050007,0.263935891907,nan,nan,0.0,0.0,0.0,nan,nan,169.794213256,510.561336801,510.868153091,511.061367592,nan,nan
0,271,4838,6,1,471,331,0.506014005179,0.354993781952,-1.0,1,1.0,1.0,0.258694057819,0,0.0,0.0,0.272170157017,0.336410363279,0.07247241889,0.408882782169,0.263937944389,nan,nan,0.0,0.0,0.0,nan,nan,169.794213256,511.5614497,511.820143758,512.061497311,nan,nan
0,272,4839,6,1,226,158,0.801265930663,0.120208988367,0.60458276857,1,1.0,1.0,0.242540415842,0,0.0,0.0,0.269350254598,0.336124641567,0.072491829543,0.40861647111,0.263632812024,nan,nan,0.0,0.0,0.0,nan,nan,169.794213256,512.561606789,512.804147204,513.061628456,nan,nan
0,273,4840,6,1,483,339,0.606025706087,0.319314454546,-1.0,1,1.0,1.0,0.242430367507,0,1.0,0.0,0.247888280389,0.335781842206,0.0725794676772,0.408361309883,0.263202374529,nan,nan,0.0,0.0,0.0,nan,nan,169.794213256,513.561730521,513.804160889,514.061751048,nan,nan
0,274,4845,6,1,326,229,-0.12383419111,0.444071765824,0.352223541474,1,1.0,1.0,0.25024860492,1,0.0,0.0,0.245073129423,0.335441143393,0.0726652758747,0.408106419268,0.262775867518,-127.476179561,309.0,-0.0258396312562,0.415106541901,0.475305697888,-11.7425704386,1.90052167233,169.794213256,514.561853399,514.812102003,515.061874781,516.387049945,518.295660127
0,275,4846,6,1,112,78,1.0,-0.300501516081,-0.325324861792,1,1.0,1.0,0.403868720401,0,0.0,0.0,0.298849230943,0.335131352344,0.0727140794631,0.407845431807,0.262417272881,nan,nan,0.0,0.0,0.0,nan,nan,169.794213256,519.504128787,519.907997507,520.004190653,nan,nan
0,276,4847,6,0,200,140,1.0,-0.0191209939188,0.47515178387,0,1.0,0.0,0.29135514982,0,0.0,0.0,0.315157491714,0.335380400779,0.0726996371489,0.408080037928,0.26268076363,nan,nan,0.0,0.0,0.0,nan,nan,169.794213256,520.512630404,520.803985554,521.012661194,nan,nan
0,277,4848,6,1,262,184,0.416452475899,0.2804144186,0.652815538838,1,1.0,1.0,0.315223824698,0,0.0,0.0,0.336815898307,0.335221464855,0.0726163128784,0.407837777733,0.262605151977,nan,nan,0.0,0.0,0.0,nan,nan,169.794213256,521.512739596,521.827963421,522.012784927,nan,nan
0,278,4849,6,1,86,60,1.0,-0.21659106269,-0.625617802914,1,1.0,1.0,0.299058778211,0,0.0,0.0,0.30187925091,0.335149530898,0.0724954766961,0.407645007594,0.262654054201,nan,nan,0.0,0.0,0.0,nan,nan,169.794213256,522.512871312,522.81193009,523.012883286,nan,nan
0,279,4850,6,1,428,300,0.170378320166,0.443486568519,-0.86866140055,1,1.0,1.0,0.362942357548,0,0.0,0.0,0.325741653486,0.335020173361,0.0723975742957,0.407417747657,0.262622599065,nan,nan,0.0,0.0,0.0,nan,nan,169.794213256,523.512982215,523.875924572,524.013028685,nan,nan
0,280,4851,6,1,371,260,-0.14179360683,0.478331938097,-0.0779732583494,1,1.0,1.0,0.290815744549,0,0.0,0.0,0.317605626769,0.335119895447,0.0722873706871,0.407407266135,0.26283252476,nan,nan,0.0,0.0,0.0,nan,nan,169.794213256,524.513125619,524.803941363,525.013156124,nan,nan
0,281,4852,6,1,57,40,1.0,-0.0707313323512,-1.0,1,1.0,1.0,0.314648497384,0,0.0,0.0,0.322802199827,0.33496222943,0.0722068445797,0.40716907401,0.26275538485,nan,nan,0.0,0.0,0.0,nan,nan,169.794213256,525.513251632,525.827900129,526.013270163,nan,nan
0,282,4853,6,1,277,194,0.258470646878,0.33263615818,0.624824240443,1,1.0,1.0,0.370496309362,0,0.0,0.0,0.325320183765,0.334890194919,0.072088818493,0.406979013412,0.262801376426,nan,nan,0.0,0.0,0.0,nan,nan,169.794213256,526.513379926,526.883876236,527.013402734,nan,nan
0,283,4854,6,1,77,54,1.0,-0.174593022316,-0.756267193339,1,1.0,1.0,0.362345647998,0,0.0,0.0,0.349163484915,0.335016011578,0.071992350436,0.407008362014,0.263023661142,nan,nan,0.0,0.0,0.0,nan,nan,169.794213256,527.513513637,527.875859285,528.013546993,nan,nan
0,284,4855,6,1,187,131,1.0,-0.0912463489427,0.385383214542,1,1.0,1.0,0.362203669269,0,0.0,0.0,0.365015208876,0.335112242692,0.0718837226329,0.406995965325,0.263228520059,nan,nan,0.0,0.0,0.0,nan,nan,169.794213256,528.513620263,528.875823933,529.013652765,nan,nan
0,285,4856,6,0,382,268,-0.1011887567,0.478291136399,-0.199732273247,0,0.0,1.0,0.441966342274,0,0.0,0.0,0.38883855318,0.335207300329,0.0717753789272,0.406982679257,0.263431921402,nan,nan,0.0,0.0,0.0,nan,nan,169.794213256,529.513849767,529.95581611,530.013808713,nan,nan
0,286,4857,6,1,128,90,1.0,-0.310663006781,-0.156689791083,1,1.0,1.0,0.361928835046,0,0.0,0.0,0.388699615529,0.335580583693,0.0719263797179,0.407506963411,0.263654203975,nan,nan,0.0,0.0,0.0,nan,nan,169.794213256,530.513870009,530.875798844,531.013904506,nan,nan
0,287,4858,6,1,240,168,0.654373017221,0.188015059697,0.642463954019,1,1.0,1.0,0.377781128976,0,0.0,0.0,0.393892102099,0.335672389447,0.0718177470674,0.407490136514,0.263854642379,nan,nan,0.0,0.0,0.0,nan,nan,169.794213256,531.513996308,531.891777437,532.014031375,nan,nan
0,288,4859,6,1,286,201,0.169078956243,0.359734776014,0.594698705761,1,1.0,1.0,0.345266292803,0,0.0,0.0,0.361658752275,0.335818600348,0.0717357315715,0.407554331919,0.264082868776,nan,nan,0.0,0.0,0.0,nan,nan,169.794213256,532.522495359,532.867761652,533.022499065,nan,nan
0,289,4900,6,1,368,258,-0.150457169737,0.477793263397,-0.0457341785459,1,1.0,1.0,0.321147302166,0,0.0,0.0,0.348064907982,0.335851291325,0.0716136627243,0.407464954049,0.264237628601,nan,nan,0.0,0.0,0.0,nan,nan,169.794213256,533.522612534,533.843759836,534.022621657,nan,nan
0,290,4901,6,1,487,342,0.639529740128,0.306295026098,-1.0,1,1.0,1.0,0.281046867836,0,0.0,0.0,0.315820154268,0.335800587914,0.071495280404,0.407295868318,0.26430530751,nan,nan,0.0,0.0,0.0,nan,nan,169.794213256,534.522716309,534.803763177,535.022760215,nan,nan
0,291,4902,6,1,299,210,0.0516645560415,0.393417669654,0.534378752182,1,1.0,1.0,0.295181162655,0,0.0,0.0,0.299125110886,0.335612430801,0.0714442192808,0.407056650081,0.26416821152,nan,nan,0.0,0.0,0.0,nan,nan,169.794213256,535.564541301,535.859722463,536.064553845,nan,nan
0,292,4903,6,0,497,349,0.723174939644,0.271260599794,-1.0,0,1.0,0.0,0.383034911938,0,0.0,0.0,0.319754314143,0.335473967553,0.0713608796357,0.406834847189,0.264113087918,nan,nan,0.0,0.0,0.0,nan,nan,169.794213256,536.564679288,536.9477142,537.064708653,nan,nan
0,293,4904,6,1,449,315,0.328095008353,0.407646248688,-1.0,1,1.0,1.0,0.382876682561,0,0.0,0.0,0.353697585718,0.335636291596,0.0712929797251,0.406929271321,0.264343311871,nan,nan,0.0,0.0,0.0,nan,nan,169.794213256,537.564799029,537.947675711,538.064810148,nan,nan
0,294,4905,6,1,508,357,0.814199817736,0.228638933499,-1.0,1,1.0,1.0,0.438749013469,0,0.0,0.0,0.401553535989,0.335796973198,0.0712247551314,0.407021728329,0.264572218066,nan,nan,0.0,0.0,0.0,nan,nan,169.794213256,538.564900239,539.003649252,539.06494785,nan,nan
0,295,4906,6,1,405,284,0.018463324075,0.468009379796,-0.476293327428,1,1.0,1.0,0.366608715616,0,0.0,0.0,0.396078137215,0.336145963165,0.0713552849102,0.407501248075,0.264790678254,nan,nan,0.0,0.0,0.0,nan,nan,169.794213256,539.565029388,539.931638104,540.065066736,nan,nan
0,296,4907,6,1,467,328,0.473005185182,0.365775667588,-1.0,1,1.0,1.0,0.326432445552,0,0.0,0.0,0.377263391546,0.336248877869,0.0712565778421,0.407505455711,0.264992300027,nan,nan,0.0,0.0,0.0,nan,nan,169.794213256,540.565199306,540.891631752,541.065203583,nan,nan
0,297,4908,6,1,251,176,0.535576518695,0.236509187076,0.655284151108,1,1.0,1.0,0.326316980645,0,0.0,0.0,0.339786047271,0.336215825908,0.0711387889021,0.40735461481,0.265077037006,nan,nan,0.0,0.0,0.0,nan,nan,169.794213256,541.56529852,541.891615501,542.065324464,nan,nan
0,298,4909,6,1,188,132,1.0,-0.0857393506835,0.392804289229,1,1.0,1.0,0.334183400031,0,0.0,0.0,0.328977608743,0.336182608307,0.0710216353839,0.407204243691,0.265160972923,nan,nan,0.0,0.0,0.0,nan,nan,169.794213256,542.56541256,542.89959596,543.06545732,nan,nan
0,299,4910,6,1,343,241,-0.171388175652,0.463836419185,0.204822810802,1,1.0,1.0,0.406030332204,0,0.0,0.0,0.355510237627,0.336175921991,0.0709028645888,0.40707878658,0.265273057403,nan,nan,0.0,0.0,0.0,nan,nan,169.794213256,543.565541994,543.971572326,544.06557307,nan,nan
0,300,4911,6,1,106,74,1.0,-0.287630069369,-0.390564445695,1,1.0,1.0,0.373897241428,0,0.0,0.0,0.371370324555,0.336408770025,0.0708990131344,0.40730778316,0.265509756891,nan,nan,0.0,0.0,0.0,nan,nan,169.794213256,544.565668292,544.939565534,545.065697657,nan,nan
0,301,4912,6,0,497,349,0.723174939644,0.271260599794,-1.0,0,0.0,1.0,0.501654992811,0,0.0,0.0,0.427194188815,0.336533316442,0.0708140078364,0.407347324278,0.265719308606,nan,nan,0.0,0.0,0.0,nan,nan,169.794213256,545.565862444,546.067517437,546.065873563,nan,nan
0,302,4913,6,1,437,307,0.23613482661,0.429770237144,-1.0,1,1.0,1.0,0.421607791912,0,0.0,0.0,0.432386675384,0.33708007696,0.071330232425,0.408410309385,0.265749844535,nan,nan,0.0,0.0,0.0,nan,nan,169.794213256,546.5659226,546.987530392,547.065962798,nan,nan
0,303,4914,6,1,309,217,-0.0258396312562,0.415106541901,0.475305697888,1,1.0,1.0,0.325476227794,0,0.0,0.0,0.416246337506,0.337359046316,0.0713772568128,0.408736303129,0.265981789503,nan,nan,0.0,0.0,0.0,nan,nan,169.794213256,547.566043196,547.891519424,548.066081114,nan,nan
0,304,4915,6,1,49,34,1.0,-0.027785429985,-1.0,1,1.0,1.0,0.365286717191,0,0.0,0.0,0.370790245632,0.337319958097,0.0712630115614,0.408582969659,0.266056946536,nan,nan,0.0,0.0,0.0,nan,nan,169.794213256,548.5662,548.931486717,549.066209408,nan,nan
0,305,4916,6,1,506,355,0.797774742377,0.236703125255,-1.0,1,1.0,1.0,0.341151761357,0,0.0,0.0,0.343971568781,0.337411652389,0.0711640516988,0.408575704088,0.266247600691,nan,nan,0.0,0.0,0.0,nan,nan,169.794213256,549.566302635,549.907454396,550.066372484,nan,nan
0,306,4917,6,1,432,303,0.199227897075,0.437687328843,-1.0,1,1.0,1.0,0.349016184453,0,0.0,0.0,0.351818221,0.337423874968,0.071047996072,0.40847187104,0.266375878896,nan,nan,0.0,0.0,0.0,nan,nan,169.794213256,550.56644889,550.915465075,551.066473979,nan,nan
0,307,4918,6,0,70,49,1.0,-0.13936984996,-0.906436913284,0,0.0,1.0,0.404844325036,0,0.0,0.0,0.365004090282,0.337461634933,0.0709352637421,0.408396898676,0.266526371191,nan,nan,0.0,0.0,0.0,nan,nan,169.794213256,551.566590869,551.971435194,552.066627932,nan,nan
0,308,4919,6,1,121,85,1.0,-0.310732805591,-0.229640808446,1,1.0,1.0,0.292703947518,0,0.0,0.0,0.348854819002,0.337680409901,0.0709236799296,0.408604089831,0.266756729972,nan,nan,0.0,0.0,0.0,nan,nan,169.794213256,552.566713746,552.859417694,553.066731137,nan,nan
0,309,4920,6,1,372,261,-0.138660017671,0.478458869494,-0.0888123791441,1,1.0,1.0,0.268551030196,0,0.0,0.0,0.322033100917,0.337534855007,0.0708548860044,0.408389741011,0.266679969002,nan,nan,0.0,0.0,0.0,nan,nan,169.794213256,553.56684204,553.83539307,554.066875682,nan,nan
0,310,4921,6,0,489,343,0.656284860842,0.299572439858,-1.0,0,1.0,0.0,0.18843084434,0,0.0,0.0,0.249895274018,0.33731232654,0.0708485802956,0.408160906835,0.266463746244,nan,nan,0.0,0.0,0.0,nan,nan,169.794213256,554.566971189,554.755402034,555.067010818,nan,nan
0,311,4922,6,1,39,27,1.0,0.0253789930673,-1.0,1,1.0,1.0,0.196304676123,0,0.0,0.0,0.217762183553,0.336833607947,0.0712349952763,0.408068603224,0.265598612671,nan,nan,0.0,0.0,0.0,nan,nan,169.794213256,555.567066127,555.763370803,556.067112883,nan,nan
0,312,4923,6,1,386,271,-0.0833946583454,0.477495592553,-0.245424736514,1,1.0,1.0,0.324139403645,0,0.0,0.0,0.236291641369,0.336383194704,0.0715629344744,0.407946129179,0.26482026023,nan,nan,0.0,0.0,0.0,nan,nan,169.794213256,556.567201834,556.891341237,557.067239752,nan,nan
0,313,4924,6,0,123,86,1.0,-0.311441137266,-0.208672863777,0,1.0,0.0,0.307976352982,0,0.0,0.0,0.27614014425,0.336344077161,0.0714518661399,0.407795943301,0.264892211021,nan,nan,0.0,0.0,0.0,nan,nan,169.794213256,557.56736548,557.875341833,558.067360633,nan,nan
0,314,4925,6,1,400,281,-0.0107874812989,0.471427301814,-0.412692688905,1,1.0,1.0,0.387869600672,0,0.0,0.0,0.3399951191,0.33625373409,0.0713559016677,0.407609635758,0.264897832423,nan,nan,0.0,0.0,0.0,nan,nan,169.794213256,558.567447303,558.955316904,559.067516582,nan,nan
0,315,4926,6,1,444,312,0.289241202529,0.417409780569,-1.0,1,1.0,1.0,0.379716658033,0,0.0,0.0,0.358520870563,0.336417593984,0.0713016942873,0.407719288272,0.265115899697,nan,nan,0.0,0.0,0.0,nan,nan,169.794213256,559.567578733,559.947295391,560.0676138,nan,nan
0,316,4927,6,1,209,146,0.967301840512,0.0304835193525,0.52804999659,1,1.0,1.0,0.435613507871,0,0.0,0.0,0.401066588859,0.336554616339,0.071230312239,0.407784928578,0.2653243041,nan,nan,0.0,0.0,0.0,nan,nan,169.794213256,560.567705031,561.003318539,561.067755779,nan,nan
0,317,4928,6,1,328,230,-0.132159558243,0.44685796506,0.336046158271,1,1.0,1.0,0.500244898722,0,0.0,1.0,0.438525021542,0.336867104956,0.0713344865036,0.408201591459,0.265532618452,nan,nan,0.0,0.0,0.0,nan,nan,169.794213256,561.567834466,562.068079364,562.067921421,nan,nan
0,318,4934,6,1,204,143,1.0,0.00303256528985,0.499654420455,1,1.0,1.0,0.555237988476,1,0.0,0.0,0.497032131689,0.337380871603,0.0718072500162,0.409188121619,0.265573621587,-27.9999055464,168.0,1.0,-0.190790017254,0.230361799274,-25.4375944536,3.10902511375,169.794213256,562.567981006,563.123218994,563.068045723,564.40150526,567.518569847
0,319,4935,6,1,384,270,-0.0924750057551,0.477945316949,-0.222479273925,1,1.0,1.0,0.41168524744,0,0.0,0.0,0.489056044879,0.338063809273,0.0727216177773,0.410785427051,0.265342191496,nan,nan,0.0,0.0,0.0,nan,nan,169.794213256,568.735441195,569.147126442,569.235451458,nan,nan
0,320,4936,6,1,457,321,0.391639248186,0.390358177281,-1.0,1,1.0,1.0,0.483557838481,0,0.0,0.0,0.483493691466,0.338293876268,0.0727240831433,0.411017959411,0.265569793124,nan,nan,0.0,0.0,0.0,nan,nan,169.794213256,569.735566923,570.219124761,570.235576616,nan,nan
0,321,4937,6,1,215,151,0.910639861846,0.0628947364355,0.558695148714,1,1.0,1.0,0.515387014952,0,0.0,1.0,0.470210033624,0.338746411975,0.0730605818622,0.411806993838,0.265685830113,nan,nan,0.0,0.0,0.0,nan,nan,169.794213256,570.735690655,571.25107767,571.23576307,nan,nan
0,322,4942,6,1,25,17,1.0,0.0970682892709,-1.0,1,1.0,1.0,0.523257139605,1,0.0,0.0,0.507400664346,0.339294985277,0.0736061875011,0.412901172778,0.265688797775,74.9875650881,21.0,1.0,0.116713997928,-1.0,-2.56569008809,1.10879247356,169.794213256,571.735798708,572.259055847,572.235881671,573.561007228,574.67780867
0,323,4943,6,1,362,254,-0.164239727892,0.476000155386,0.0174578511848,1,1.0,1.0,0.268298718613,0,0.0,0.0,0.43564762439,0.33986452755,0.0741993739173,0.414063901467,0.265665153633,nan,nan,0.0,0.0,0.0,nan,nan,169.794213256,575.89468515,576.162983868,576.394706247,nan,nan
0,324,4944,6,1,8,5,0.91102658764,0.177400941622,-1.0,1,1.0,1.0,0.284151868429,0,0.0,0.0,0.358569242215,0.339643645424,0.0741910606446,0.413834706068,0.265452584779,nan,nan,0.0,0.0,0.0,nan,nan,169.794213256,576.894814869,577.178966737,577.39483283,nan,nan
0,325,4945,6,1,434,305,0.213881816697,0.43461034373,-1.0,1,1.0,1.0,0.292035107967,0,0.0,0.0,0.281495231669,0.339472901494,0.0741405615096,0.413613463004,0.265332339985,nan,nan,0.0,0.0,0.0,nan,nan,169.794213256,577.894944304,578.186979412,578.394957988,nan,nan
0,326,4946,6,1,269,189,0.34171296506,0.305888347675,0.643262349404,1,1.0,1.0,0.243903468363,0,0.0,0.0,0.273363481586,0.33932738679,0.0740732283831,0.413400615173,0.265254158407,nan,nan,0.0,0.0,0.0,nan,nan,169.794213256,578.895060909,579.138964377,579.395099967,nan,nan
0,327,4947,6,1,25,17,1.0,0.0970682892709,-1.0,1,1.0,1.0,0.235734560061,0,1.0,0.0,0.257224378797,0.339035570526,0.0741473190404,0.413182889566,0.264888251486,nan,nan,0.0,0.0,0.0,nan,nan,169.794213256,579.895200606,580.130935166,580.395226265,nan,nan
0,328,4951,6,1,277,194,0.258470646878,0.33263615818,0.624824240443,1,1.0,1.0,0.29963667132,1,0.0,0.0,0.259758233248,0.338720628421,0.0742529319872,0.412973560408,0.264467696434,-93.5923298462,261.0,0.427225806086,0.276617811781,0.653674462902,-11.1732951538,1.55047685467,169.794213256,580.895302671,581.194939343,581.395360546,582.712171225,584.270703804
0,329,4952,6,0,125,87,1.0,-0.311567427947,-0.187805059354,0,1.0,0.0,0.371239845175,0,0.0,0.0,0.302203692185,0.338601832199,0.074171210522,0.412773042721,0.264430621677,nan,nan,0.0,0.0,0.0,nan,nan,169.794213256,585.487593113,585.858832958,585.987621908,nan,nan
0,330,4953,6,1,250,175,0.546428449327,0.232286661223,0.654747725831,1,1.0,1.0,0.323100507259,0,0.0,0.0,0.331325674585,0.338700735268,0.0740804689146,0.412781204183,0.264620266354,nan,nan,0.0,0.0,0.0,nan,nan,169.794213256,586.487704872,586.810805379,586.987721692,nan,nan
0,331,4954,6,0,29,20,1.0,0.0770173926463,-1.0,0,0.0,1.0,0.386960993987,0,0.0,0.0,0.36043378214,0.33865360467,0.0739734350637,0.412627039734,0.264680169607,nan,nan,0.0,0.0,0.0,nan,nan,169.794213256,587.48783117,587.874792164,587.98787479,nan,nan
0,332,4955,6,1,401,281,-0.00506340639596,0.470796889516,-0.425203102762,1,1.0,1.0,0.322815409396,0,0.0,0.0,0.344292303547,0.338799108855,0.07390936825,0.412708477105,0.264889740605,nan,nan,0.0,0.0,0.0,nan,nan,169.794213256,588.487961459,588.810776869,588.987992535,nan,nan
0,333,4956,6,1,146,102,1.0,-0.278792578557,0.0248813210997,1,1.0,1.0,0.402684139088,0,0.0,0.0,0.370820180823,0.338751109757,0.0738034919636,0.412554601721,0.264947617794,nan,nan,0.0,0.0,0.0,nan,nan,169.794213256,589.488081771,589.89076591,589.988109425,nan,nan
0,334,4957,6,1,366,257,-0.155593376329,0.477302029306,-0.0244766492797,1,1.0,1.0,0.34654039517,0,0.0,0.0,0.357346647885,0.338942526013,0.0737756623633,0.412718188376,0.26516686365,nan,nan,0.0,0.0,0.0,nan,nan,169.794213256,590.488200657,590.834741052,590.988235153,nan,nan
0,335,4958,6,1,155,108,1.0,-0.2479831371,0.111611878621,1,1.0,1.0,0.346403833013,0,0.0,0.0,0.365209455757,0.338965206219,0.0736666332572,0.412631839477,0.265298572962,nan,nan,0.0,0.0,0.0,nan,nan,169.794213256,591.488331802,591.834735635,591.988373141,nan,nan
0,336,4959,6,1,268,188,0.35230222188,0.302367520405,0.645005310408,1,1.0,1.0,0.362189129461,0,0.0,0.0,0.351711119215,0.33898734499,0.0735580446837,0.412545389673,0.265429300306,nan,nan,0.0,0.0,0.0,nan,nan,169.794213256,592.488498013,592.850687143,592.988486895,nan,nan
0,337,5000,6,1,364,255,-0.160194321586,0.476704516321,-0.00341124574885,1,1.0,1.0,0.31414729543,0,0.0,0.0,0.340913419301,0.339056193015,0.0734596681864,0.412515861201,0.265596524828,nan,nan,0.0,0.0,0.0,nan,nan,169.794213256,593.488577556,593.802724851,593.988615474,nan,nan
0,338,5001,6,1,200,140,1.0,-0.0191209939188,0.47515178387,1,1.0,1.0,0.264623807743,0,0.0,0.0,0.313653410878,0.338982498051,0.073363394327,0.412345892378,0.265619103724,nan,nan,0.0,0.0,0.0,nan,nan,169.794213256,594.522080827,594.786704634,595.022089379,nan,nan
0,339,5002,6,1,6,4,0.895129075663,0.186272780825,-1.0,1,1.0,1.0,0.360467138235,0,0.0,0.0,0.313079413803,0.338763150882,0.073366022262,0.412129173144,0.26539712862,nan,nan,0.0,0.0,0.0,nan,nan,169.794213256,595.522170918,595.882638056,596.022210261,nan,nan
0,340,5003,6,1,60,42,1.0,-0.0867837676833,-1.0,1,1.0,1.0,0.400275632739,0,0.0,0.0,0.341788859572,0.338826986139,0.0732674793446,0.412094465484,0.265559506795,nan,nan,0.0,0.0,0.0,nan,nan,169.794213256,596.522348818,596.922624451,597.022334564,nan,nan
0,341,5004,6,1,194,136,1.0,-0.0524864644427,0.435571704399,1,1.0,1.0,0.26412175037,0,0.0,0.0,0.341621507114,0.339007187449,0.0732353868417,0.412242574291,0.265771800607,nan,nan,0.0,0.0,0.0,nan,nan,169.794213256,597.522477683,597.786599433,598.022474832,nan,nan
0,342,5005,6,1,366,257,-0.155593376329,0.477302029306,-0.0244766492797,1,1.0,1.0,0.258880797308,0,0.0,0.0,0.307759393472,0.338788224183,0.0732399384264,0.412028162609,0.265548285756,nan,nan,0.0,0.0,0.0,nan,nan,169.794213256,598.551727864,598.810608661,599.05592707,nan,nan
0,343,5006,6,1,150,105,1.0,-0.266152531622,0.0638227105866,1,1.0,1.0,0.294891218189,0,0.0,0.0,0.272631255289,0.338555257924,0.0732598887491,0.411815146673,0.265295369175,nan,nan,0.0,0.0,0.0,nan,nan,169.794213256,599.547684607,599.842575825,600.047726516,nan,nan
0,344,5007,6,1,488,343,0.647907709101,0.302951493728,-1.0,1,1.0,1.0,0.334757871926,0,0.0,0.0,0.296176629141,0.338428327575,0.0731910903248,0.4116194179,0.265237237251,nan,nan,0.0,0.0,0.0,nan,nan,169.794213256,600.547815752,600.882573624,601.047856236,nan,nan
0,345,5008,6,1,140,98,1.0,-0.294209249228,-0.0345777392028,1,1.0,1.0,0.374594591092,0,0.0,0.0,0.334747893736,0.338417688574,0.073085205684,0.411502894258,0.26533248289,nan,nan,0.0,0.0,0.0,nan,nan,169.794213256,601.547960581,601.922555172,602.047979113,nan,nan
0,346,5009,6,1,235,165,0.707591924495,0.164537776567,0.631659631194,1,1.0,1.0,0.374457173981,0,0.0,0.0,0.361269879,0.338522246095,0.073005350598,0.411527596693,0.265516895497,nan,nan,0.0,0.0,0.0,nan,nan,169.794213256,602.548086024,602.922543198,603.048109117,nan,nan
0,347,5010,6,1,469,329,0.489482198204,0.360453357602,-1.0,1,1.0,1.0,0.276002916973,0,0.0,0.0,0.341684894015,0.338625804965,0.0729255255173,0.411551330483,0.265700279448,nan,nan,0.0,0.0,0.0,nan,nan,169.794213256,603.590516848,603.866519765,604.089926411,nan,nan
0,348,5011,6,1,253,177,0.513865899396,0.244839928328,0.655977188727,1,1.0,1.0,0.300509640947,0,0.0,0.0,0.316989910634,0.338445854138,0.0728977841975,0.411343638335,0.26554806994,nan,nan,0.0,0.0,0.0,nan,nan,169.794213256,604.589995404,604.890505045,605.09004045,nan,nan
0,349,5012,6,1,400,281,-0.0107874812989,0.471427301814,-0.412692688905,1,1.0,1.0,0.284349156078,0,0.0,0.0,0.286953904666,0.338337154387,0.0728215089933,0.41115866338,0.265515645393,nan,nan,0.0,0.0,0.0,nan,nan,169.794213256,605.590125694,605.87447485,606.090171025,nan,nan
0,350,5013,6,0,40,28,1.0,0.0201165467467,-1.0,0,1.0,0.0,0.308179342654,0,0.0,0.0,0.297679379893,0.338182902963,0.0727744787347,0.410957381697,0.265408424228,nan,nan,0.0,0.0,0.0,nan,nan,169.794213256,606.59028706,606.898466402,607.090319846,nan,nan
0,351,5014,6,1,228,160,0.780729811514,0.1302769546,0.611433142569,1,1.0,1.0,0.307944992092,0,0.0,0.0,0.300157830274,0.338097422734,0.0726883311469,0.410785753881,0.265409091587,nan,nan,0.0,0.0,0.0,nan,nan,169.794213256,607.590500883,607.898445875,608.090425617,nan,nan
0,352,5015,6,1,482,338,0.597655625539,0.322480811492,-1.0,1,1.0,1.0,0.331912880763,0,0.0,0.0,0.31601240517,0.33801176242,0.07260274654,0.41061450896,0.26540901588,nan,nan,0.0,0.0,0.0,nan,nan,169.794213256,608.590509721,608.922422602,609.090539086,nan,nan
0,353,5016,6,1,342,240,-0.170052622031,0.462913557708,0.21407524247,1,1.0,1.0,0.339785002172,0,0.0,0.0,0.326547625009,0.337994485134,0.0725005614982,0.410495046633,0.265493923636,nan,nan,0.0,0.0,0.0,nan,nan,169.794213256,609.590636875,609.930421877,610.090677073,nan,nan
0,354,5017,6,1,176,123,1.0,-0.150429669724,0.298675466069,1,1.0,1.0,0.379629988689,0,0.0,0.0,0.350442623875,0.337999543092,0.072398149524,0.410397692616,0.265601393568,nan,nan,0.0,0.0,0.0,nan,nan,169.794213256,610.590761747,610.970391736,611.09079824,nan,nan
0,355,5018,6,1,98,68,1.0,-0.263822910468,-0.480217789416,1,1.0,1.0,0.4034815575,0,0.0,0.0,0.374298849454,0.338116811953,0.0723297690519,0.410446581005,0.265787042901,nan,nan,0.0,0.0,0.0,nan,nan,169.794213256,611.590888331,611.994369888,612.090924823,nan,nan
0,356,5019,6,1,404,284,0.0124894593597,0.468746268022,-0.463349101315,1,1.0,1.0,0.363311559428,0,0.0,0.0,0.382141035205,0.338300420789,0.0723109108695,0.410611331658,0.265989509919,nan,nan,0.0,0.0,0.0,nan,nan,169.794213256,612.591015485,612.954327044,613.091054258,nan,nan
0,357,5020,6,1,66,46,1.0,-0.118568705386,-1.0,1,1.0,1.0,0.331111470703,0,0.0,0.0,0.365968195877,0.338370480001,0.072221662225,0.410592142226,0.266148817776,nan,nan,0.0,0.0,0.0,nan,nan,169.794213256,613.591198517,613.922309988,614.091189394,nan,nan
0,358,5021,6,1,251,176,0.535576518695,0.236509187076,0.655284151108,1,1.0,1.0,0.347041026689,0,0.0,0.0,0.347154685607,0.338350203438,0.0721217410131,0.410471944452,0.266228462425,nan,nan,0.0,0.0,0.0,nan,nan,169.794213256,614.591274924,614.93831595,615.09132225,nan,nan
0,359,5022,6,0,73,51,1.0,-0.1546788618,-0.830916872461,0,1.0,0.0,0.322893240955,0,0.0,0.0,0.333681912782,0.33837441186,0.0720226793938,0.410397091254,0.266351732466,nan,nan,0.0,0.0,0.0,nan,nan,169.794213256,615.591439425,615.914332666,616.091468505,nan,nan
0,360,5023,6,1,448,315,0.32026743599,0.409662251776,-1.0,1,1.0,1.0,0.266763751861,0,0.0,0.0,0.312232673168,0.338331408607,0.0719271935036,0.410258602111,0.266404215104,nan,nan,0.0,0.0,0.0,nan,nan,169.794213256,616.591527805,616.858291557,617.091567149,nan,nan
0,361,5024,6,1,140,98,1.0,-0.294209249228,-0.0345777392028,1,1.0,1.0,0.2905976451,0,0.0,0.0,0.293418212639,0.338133160251,0.0719259268252,0.410059087076,0.266207233425,nan,nan,0.0,0.0,0.0,nan,nan,169.794213256,617.59165838,617.882256025,618.091692022,nan,nan
0,362,5025,6,0,489,343,0.656284860842,0.299572439858,-1.0,0,1.0,0.0,0.418414411601,0,0.0,0.0,0.325258602854,0.338001846673,0.0718698321509,0.409871678824,0.266132014522,nan,nan,0.0,0.0,0.0,nan,nan,169.794213256,618.591828298,619.01024271,619.091854527,nan,nan
0,363,5026,6,1,269,189,0.34171296506,0.305888347675,0.643262349404,1,0.0,0.0,0.442299336661,0,0.0,0.0,0.383770464454,0.33822336889,0.0718944189031,0.410117787793,0.266328949987,nan,nan,0.0,0.0,0.0,nan,nan,169.794213256,619.591928938,620.034228275,620.091953171,nan,nan
0,364,5027,6,1,474,333,0.530901762182,0.346545376391,-1.0,1,1.0,1.0,0.306187364273,0,0.0,0.0,0.388967037511,0.338509291879,0.0720019680889,0.410511259968,0.26650732379,nan,nan,0.0,0.0,0.0,nan,nan,169.794213256,620.592033854,620.898221218,621.092076619,nan,nan
0,365,5028,6,1,111,78,1.0,-0.298677811705,-0.336106236365,1,1.0,1.0,0.282014204655,0,0.0,0.0,0.343500301863,0.338420738652,0.0719231135434,0.410343852196,0.266497625109,nan,nan,0.0,0.0,0.0,nan,nan,169.794213256,621.59216842,621.874182625,622.092214036,nan,nan
0,366,5029,6,1,433,304,0.206536295144,0.436163724167,-1.0,1,1.0,1.0,0.273877798114,0,0.0,0.0,0.287359789014,0.338266622439,0.0718851164791,0.410151738918,0.26638150596,nan,nan,0.0,0.0,0.0,nan,nan,169.794213256,622.592318952,622.86619675,623.092343185,nan,nan
0,367,5030,6,1,247,173,0.578947625354,0.219392674348,0.6523805853,1,1.0,1.0,0.289706429001,0,0.0,0.0,0.281866143923,0.338091176051,0.0718655388679,0.409956714919,0.266225637184,nan,nan,0.0,0.0,0.0,nan,nan,169.794213256,623.592441544,623.882147973,624.092476326,nan,nan
0,368,5031,6,1,474,333,0.530901762182,0.346545376391,-1.0,1,1.0,1.0,0.329561108723,0,0.0,0.0,0.297715111946,0.337959695761,0.0718120159855,0.409771711746,0.266147679775,nan,nan,0.0,0.0,0.0,nan,nan,169.794213256,624.592556438,624.922117547,625.092603764,nan,nan
0,369,5032,6,1,372,261,-0.138660017671,0.478458869494,-0.0888123791441,1,1.0,1.0,0.32141900016,0,0.0,0.0,0.313562179295,0.337936935362,0.0717159728402,0.409652908202,0.266220962522,nan,nan,0.0,0.0,0.0,nan,nan,169.794213256,625.592702693,625.914121693,626.09273491,nan,nan
0,370,5033,6,1,300,210,0.0433537089178,0.395748422077,0.528951029102,1,1.0,1.0,0.22325354768,0,0.0,0.0,0.291411218854,0.337892292294,0.0716241278493,0.409516420143,0.266268164445,nan,nan,0.0,0.0,0.0,nan,nan,169.794213256,626.642844843,626.866098391,627.14284969,nan,nan
0,371,5034,6,1,46,32,1.0,-0.0117313672748,-1.0,1,1.0,1.0,0.23115303833,0,1.0,0.0,0.258608528723,0.337583292982,0.071774061939,0.409357354921,0.265809231043,nan,nan,0.0,0.0,0.0,nan,nan,169.794213256,627.642933223,627.874086262,628.14298283,nan,nan
0,372,5039,6,1,188,132,1.0,-0.0857393506835,0.392804289229,1,1.0,1.0,0.24698651582,1,0.0,0.0,0.23379770061,0.337297190147,0.0718890530524,0.4091862432,0.265408137095,-37.8749836511,182.0,1.0,-0.118523835432,0.347089474713,-4.3125163489,1.20891911443,169.794213256,628.6430829,628.890069416,629.14311198,630.468271178,631.685127986
0,373,5040,6,1,332,233,-0.146647089803,0.45205423783,0.302714191958,1,1.0,1.0,0.396375494078,0,0.0,0.0,0.291505016076,0.337055070377,0.0719443396124,0.408999409989,0.265110730765,nan,nan,0.0,0.0,0.0,nan,nan,169.794213256,632.893634564,633.290010058,633.393670201,nan,nan
0,374,5041,6,1,509,357,0.822386376617,0.224555004187,-1.0,1,1.0,1.0,0.276190796867,0,0.0,0.0,0.306517602255,0.337213681135,0.0719133656713,0.409127046807,0.265300315464,nan,nan,0.0,0.0,0.0,nan,nan,169.794213256,633.893788802,634.169979599,634.393781105,nan,nan
0,375,5042,6,1,225,158,0.81146624694,0.115131125244,0.600981946568,1,1.0,1.0,0.236048738007,0,0.0,0.0,0.302871676317,0.337050953444,0.0718863341847,0.408937287629,0.265164619259,nan,nan,0.0,0.0,0.0,nan,nan,169.794213256,634.893901701,635.129950439,635.393917666,nan,nan
0,376,5043,6,1,359,252,-0.169222339917,0.474741883077,0.0483828026834,1,1.0,1.0,0.227930577938,0,1.0,0.0,0.246723370937,0.336782330531,0.0719788903555,0.408761220886,0.264803440175,nan,nan,0.0,0.0,0.0,nan,nan,169.794213256,635.893999204,636.121929782,636.394035697,nan,nan
0,377,5048,6,1,456,320,0.383612429175,0.392633185378,-1.0,1,1.0,1.0,0.299784637056,1,0.0,0.0,0.254587984333,0.336493599091,0.0721010652691,0.408594664361,0.264392533822,164.54400093,406.0,0.0244967455079,0.467245700284,-0.489366101921,-35.1690009297,2.69231957849,169.794213256,636.894134055,637.193918692,637.394187654,638.719347708,641.419698777
0,378,5049,6,1,8,5,0.91102658764,0.177400941622,-1.0,1,1.0,1.0,0.317617220804,0,0.0,0.0,0.281777478599,0.336396485435,0.0720303152124,0.408426800648,0.264366170223,nan,nan,0.0,0.0,0.0,nan,nan,169.794213256,642.628205925,642.945823146,643.12823244,nan,nan
0,379,5050,6,1,156,109,1.0,-0.244060613314,0.121041471254,1,1.0,1.0,0.244091917761,0,0.0,0.0,0.287164591874,0.336346935924,0.0719416759393,0.408288611864,0.264405259985,nan,nan,0.0,0.0,0.0,nan,nan,169.794213256,643.661694371,643.905786288,644.161697792,nan,nan
0,380,5051,6,1,295,207,0.0860222946478,0.38372732295,0.554986075565,1,1.0,1.0,0.243986146525,0,0.0,0.0,0.26856509503,0.336104159561,0.0720022438675,0.408106403428,0.264101915693,nan,nan,0.0,0.0,0.0,nan,nan,169.794213256,644.661806129,644.905792275,645.161834639,nan,nan
0,381,5052,6,1,441,310,0.266287261384,0.422891888867,-1.0,1,1.0,1.0,0.195829418022,0,1.0,0.0,0.227969160769,0.335862379999,0.0720619856105,0.40792436561,0.263800394389,nan,nan,0.0,0.0,0.0,nan,nan,169.794213256,645.661932427,645.857761845,646.16195438,nan,nan
0,382,5057,6,1,41,28,1.0,0.0148395037771,-1.0,1,1.0,1.0,0.211709081661,1,0.0,0.0,0.217174882069,0.335495801565,0.0723224335692,0.407818235134,0.263173367995,82.8114628573,10.0,0.926811495151,0.168400576072,-1.0,-21.6395878573,1.42553900601,169.794213256,646.662040194,646.873749276,647.162090942,648.48724786,649.920783004
0,383,5058,6,1,197,138,1.0,-0.035797595552,0.455774741445,1,1.0,1.0,0.344360251911,0,0.0,0.0,0.250632917198,0.33517259864,0.072503664868,0.407676263509,0.262668933772,nan,nan,0.0,0.0,0.0,nan,nan,169.794213256,651.129293574,651.473653825,651.62931182,nan,nan
0,384,5059,6,1,110,77,1.0,-0.296722754836,-0.346921960777,1,1.0,1.0,0.328212026041,0,0.0,0.0,0.294760453204,0.335196524821,0.072410711482,0.407607236303,0.262785813339,nan,nan,0.0,0.0,0.0,nan,nan,169.794213256,652.12942871,652.457640736,652.629472045,nan,nan
