block,trial,freq_trials,correct_response,actual_response,acc,rts,probe_trials,fast_rt_trigger,slow_rt_trigger,rt_triggered,rts_runningavg,rts_runningstd,rts_runningfastthresh,rts_runningslowthresh,rts_runningstd,rts_trailingavg,trials_colorind,trials_colorrgb0,trials_colorrgb1,trials_colorrgb2,wm_respdeg,wm_respdeg_in_colorspace,wm_respcolorminusorigcolor,wm_resptexind,wm_resptexrgb0,wm_resptexrgb1,wm_resptexrgb2,wm_rts,time_blockstart,time_encarray_offset,time_encarray_onset,time_response,time_iti_offset,time_iti_onset,time_memprobe_offset,time_memprobe_onset
1,1,1,1,1.0,1.0,0.360479397699,0,nan,nan,nan,nan,nan,nan,nan,nan,nan,490,0.664660387652,0.296157848571,-1.0,nan,nan,nan,nan,0.0,0.0,0.0,nan,169.794213256,170.809703476,171.309733696,171.170182873,nan,nan,nan,nan
1,2,1,1,1.0,1.0,0.359210426919,0,nan,nan,nan,nan,nan,nan,nan,nan,nan,80,1.0,-0.189075709245,-0.708965549488,nan,nan,nan,nan,0.0,0.0,0.0,nan,169.794213256,171.834959437,172.334854805,172.194169864,nan,nan,nan,nan
1,3,1,1,1.0,1.0,0.415135501418,0,nan,nan,nan,nan,nan,nan,nan,nan,nan,286,0.169078956243,0.359734776014,0.594698705761,nan,nan,nan,nan,0.0,0.0,0.0,nan,169.794213256,172.835022443,173.334994789,173.250157944,nan,nan,nan,nan
1,4,1,1,1.0,1.0,0.423025013413,0,nan,nan,nan,nan,nan,nan,nan,nan,nan,241,0.64365311028,0.192605941253,0.644254782112,nan,nan,nan,nan,0.0,0.0,0.0,nan,169.794213256,173.8351017,174.33513135,174.258126714,nan,nan,nan,nan
1,5,1,1,1.0,1.0,0.438887001015,1,nan,nan,nan,nan,nan,nan,nan,nan,nan,129,1.0,-0.310070485259,-0.146368003411,-14.1013522803,104.10135228,13.3982272803,148.0,1.0,-0.272695592461,0.0444264621409,1.77545039728,169.794213256,174.835234841,175.335256509,175.274121842,178.46062571,179.462026681,176.66876052,178.452298858
1,6,1,1,1.0,1.0,0.421204378828,0,nan,nan,nan,nan,nan,nan,nan,nan,nan,251,0.535576518695,0.236509187076,0.655284151108,nan,nan,nan,nan,0.0,0.0,0.0,nan,169.794213256,179.660800874,180.160852477,180.082005253,nan,nan,nan,nan
1,7,1,1,1.0,1.0,0.373057343531,0,nan,nan,nan,nan,nan,nan,nan,nan,nan,47,1.0,-0.0170755915744,-1.0,nan,nan,nan,nan,0.0,0.0,0.0,nan,169.794213256,180.660955967,181.16097678,181.034013311,nan,nan,nan,nan
1,8,1,1,1.0,1.0,0.340913419146,0,nan,nan,nan,nan,nan,nan,nan,nan,nan,194,1.0,-0.0524864644427,0.435571704399,nan,nan,nan,nan,0.0,0.0,0.0,nan,169.794213256,181.661086542,182.161130162,182.001999961,nan,nan,nan,nan
1,9,1,1,1.0,1.0,0.324774316512,0,nan,nan,nan,nan,nan,nan,nan,nan,nan,278,0.248285521772,0.335802812283,0.621962573991,nan,nan,nan,nan,0.0,0.0,0.0,nan,169.794213256,182.66121056,183.161222249,182.985984876,nan,nan,nan,nan
1,10,0,0,0.0,1.0,0.460611740127,0,nan,nan,nan,nan,nan,nan,nan,nan,nan,111,1.0,-0.298677811705,-0.336106236365,nan,nan,nan,nan,0.0,0.0,0.0,nan,169.794213256,183.661353964,184.161381048,184.121965704,nan,nan,nan,nan
1,11,1,1,1.0,1.0,0.340489478782,0,nan,nan,nan,nan,nan,nan,nan,nan,nan,217,0.891250405156,0.0735373331823,0.568048345461,nan,nan,nan,nan,0.0,0.0,0.0,nan,169.794213256,184.661452893,185.161477982,185.001942371,nan,nan,nan,nan
1,12,1,1,1.0,1.0,0.316333425231,0,nan,nan,nan,nan,nan,nan,nan,nan,nan,67,1.0,-0.12380466598,-1.0,nan,nan,nan,nan,0.0,0.0,0.0,nan,169.794213256,185.661580902,186.161601429,185.977914327,nan,nan,nan,nan
1,13,1,1,1.0,1.0,0.356181547977,1,nan,nan,nan,nan,nan,nan,nan,nan,nan,466,0.464789014893,0.368385601135,-1.0,116.800834947,333.199165053,5.54291505305,474.0,0.530901762182,0.346545376391,-1.0,1.57548306976,169.794213256,186.661718604,187.161733999,187.017900152,190.087100521,191.083813343,188.49523345,190.078769393
1,14,1,1,1.0,1.0,0.330563798081,0,nan,nan,nan,nan,nan,nan,nan,nan,nan,510,0.830554458933,0.220436700166,-1.0,nan,nan,nan,nan,0.0,0.0,0.0,nan,169.794213256,191.287285949,191.787325292,191.617849747,nan,nan,nan,nan
1,15,1,1,1.0,1.0,0.306368686259,0,nan,nan,nan,nan,nan,nan,nan,nan,nan,111,1.0,-0.298677811705,-0.336106236365,nan,nan,nan,nan,0.0,0.0,0.0,nan,169.794213256,192.287440187,192.787457578,192.593808873,nan,nan,nan,nan
1,16,1,1,1.0,1.0,0.306239251979,0,nan,nan,nan,nan,nan,nan,nan,nan,nan,498,0.731507943485,0.267561876527,-1.0,nan,nan,nan,nan,0.0,0.0,0.0,nan,169.794213256,193.287563064,193.787577889,193.593802316,nan,nan,nan,nan
1,17,0,0,0.0,1.0,0.402078876272,0,nan,nan,nan,nan,nan,nan,nan,nan,nan,299,0.0516645560415,0.393417669654,0.534378752182,nan,nan,nan,nan,0.0,0.0,0.0,nan,169.794213256,194.287705042,194.787733553,194.689783919,nan,nan,nan,nan
1,18,1,1,1.0,1.0,0.409940733574,0,nan,nan,nan,nan,nan,nan,nan,nan,nan,238,0.675741828754,0.178727669763,0.638511091232,nan,nan,nan,nan,0.0,0.0,0.0,nan,169.794213256,195.287820507,195.787839609,195.697761241,nan,nan,nan,nan
1,19,1,1,1.0,1.0,0.409812440164,0,nan,nan,nan,nan,nan,nan,nan,nan,nan,144,1.0,-0.284423189345,0.00519445478499,nan,nan,nan,nan,0.0,0.0,0.0,nan,169.794213256,196.287925708,196.787984438,196.697738148,nan,nan,nan,nan
1,20,1,1,1.0,1.0,0.489650093485,0,nan,nan,nan,nan,nan,nan,nan,nan,nan,40,1.0,0.0201165467467,-1.0,nan,nan,nan,nan,0.0,0.0,0.0,nan,169.794213256,197.288077665,197.796428181,197.777727759,nan,nan,nan,nan
1,21,1,1,1.0,1.0,0.385190821718,0,nan,nan,nan,nan,nan,nan,nan,nan,nan,198,1.0,-0.0302354974571,0.462326941081,nan,nan,nan,nan,0.0,0.0,0.0,nan,169.794213256,198.296515706,198.796580138,198.681706527,nan,nan,nan,nan
1,22,1,1,1.0,1.0,0.27839403227,0,nan,nan,nan,nan,nan,nan,nan,nan,nan,153,1.0,-0.255547855702,0.0926213922694,nan,nan,nan,nan,0.0,0.0,0.0,nan,169.794213256,199.323281545,199.821695831,199.601675577,nan,nan,nan,nan
1,23,1,1,1.0,1.0,0.287874675356,0,nan,nan,nan,nan,nan,nan,nan,nan,nan,277,0.258470646878,0.33263615818,0.624824240443,nan,nan,nan,nan,0.0,0.0,0.0,nan,169.794213256,200.321781645,200.821813291,200.60965632,nan,nan,nan,nan
1,24,1,1,1.0,1.0,0.351752838586,0,nan,nan,nan,nan,nan,nan,nan,nan,nan,469,0.489482198204,0.360453357602,-1.0,nan,nan,nan,nan,0.0,0.0,0.0,nan,169.794213256,201.321901671,201.821947002,201.67365451,nan,nan,nan,nan
1,25,1,1,1.0,1.0,0.351594609208,0,nan,nan,nan,nan,nan,nan,nan,nan,nan,337,-0.160643365934,0.457858386897,0.259303564052,nan,nan,nan,nan,0.0,0.0,0.0,nan,169.794213256,202.322034242,202.8220599,202.673628851,nan,nan,nan,nan
1,26,1,1,1.0,1.0,0.335435264744,0,nan,nan,nan,nan,nan,nan,nan,nan,nan,425,0.149162615564,0.447529597292,-0.791715667876,nan,nan,nan,nan,0.0,0.0,0.0,nan,169.794213256,203.322168238,203.822199883,203.657603502,nan,nan,nan,nan
1,27,0,0,0.0,1.0,0.423206335865,0,nan,nan,nan,nan,nan,nan,nan,nan,nan,347,-0.174938837379,0.46723881498,0.167157479366,nan,nan,nan,nan,0.0,0.0,0.0,nan,169.794213256,204.322388048,204.822342147,204.745594384,nan,nan,nan,nan
1,28,1,1,1.0,1.0,0.383150376845,0,nan,nan,nan,nan,nan,nan,nan,nan,nan,66,1.0,-0.118568705386,-1.0,nan,nan,nan,nan,0.0,0.0,0.0,nan,169.794213256,205.322430242,205.822443927,205.705580619,nan,nan,nan,nan
1,29,1,1,1.0,1.0,0.319019047078,0,nan,nan,nan,nan,nan,nan,nan,nan,nan,362,-0.164239727892,0.476000155386,0.0174578511848,nan,nan,nan,nan,0.0,0.0,0.0,nan,169.794213256,206.322538294,206.822573932,206.641557341,nan,nan,nan,nan
1,30,1,1,1.0,1.0,0.350879298523,0,nan,nan,nan,nan,nan,nan,nan,nan,nan,469,0.489482198204,0.360453357602,-1.0,nan,nan,nan,nan,0.0,0.0,0.0,nan,169.794213256,207.322666589,207.822702226,207.673545887,nan,nan,nan,nan
1,31,1,1,1.0,1.0,0.350726201199,0,nan,nan,nan,nan,nan,nan,nan,nan,nan,192,1.0,-0.0635997558896,0.421658406928,nan,nan,nan,nan,0.0,0.0,0.0,nan,169.794213256,208.322791461,208.822826813,208.673517663,nan,nan,nan,nan
1,32,0,0,0.0,1.0,0.422548044473,0,nan,nan,nan,nan,nan,nan,nan,nan,nan,50,1.0,-0.033148730948,-1.0,nan,nan,nan,nan,0.0,0.0,0.0,nan,169.794213256,209.322949691,209.822980481,209.745497735,nan,nan,nan,nan
1,33,1,1,1.0,1.0,0.398366902489,0,nan,nan,nan,nan,nan,nan,nan,nan,nan,443,0.281558783006,0.419268214519,-1.0,nan,nan,nan,nan,0.0,0.0,0.0,nan,169.794213256,210.323118469,210.823074849,210.721485371,nan,nan,nan,nan
1,34,1,1,1.0,1.0,0.350275746547,0,nan,nan,nan,nan,nan,nan,nan,nan,nan,290,0.131265381085,0.370776544741,0.578206616232,nan,nan,nan,nan,0.0,0.0,0.0,nan,169.794213256,211.323200577,211.823205994,211.673476323,nan,nan,nan,nan
1,35,1,1,1.0,1.0,0.310124279931,0,nan,nan,nan,nan,nan,nan,nan,nan,nan,404,0.0124894593597,0.468746268022,-0.463349101315,nan,nan,nan,nan,0.0,0.0,0.0,nan,169.794213256,212.32332773,212.823333432,212.63345201,nan,nan,nan,nan
1,36,1,1,1.0,1.0,0.294007129967,0,nan,nan,nan,nan,nan,nan,nan,nan,nan,288,0.150005133015,0.365331945294,0.586687239957,nan,nan,nan,nan,0.0,0.0,0.0,nan,169.794213256,213.323437208,213.823459161,213.617444338,nan,nan,nan,nan
1,37,1,1,1.0,1.0,0.285872718785,0,nan,nan,nan,nan,nan,nan,nan,nan,nan,227,0.791019951953,0.125257787881,0.608066708266,nan,nan,nan,nan,0.0,0.0,0.0,nan,169.794213256,214.323557519,214.823612828,214.609430238,nan,nan,nan,nan
1,38,1,1,1.0,1.0,0.26974501973,0,nan,nan,nan,nan,nan,nan,nan,nan,nan,7,0.9030914636,0.181853060355,-1.0,nan,nan,nan,nan,0.0,0.0,0.0,nan,169.794213256,215.32367726,215.823721736,215.59342228,nan,nan,nan,nan
1,39,1,1,1.0,1.0,0.269554859493,0,nan,nan,nan,nan,nan,nan,nan,nan,nan,380,-0.109519508899,0.478533032186,-0.177177385375,nan,nan,nan,nan,0.0,0.0,0.0,nan,169.794213256,216.323811827,216.823855161,216.593366686,nan,nan,nan,nan
1,40,1,1,1.0,1.0,0.277407594025,0,nan,nan,nan,nan,nan,nan,nan,nan,nan,253,0.513865899396,0.244839928328,0.655977188727,nan,nan,nan,nan,0.0,0.0,0.0,nan,169.794213256,217.323957512,217.823987162,217.601365106,nan,nan,nan,nan
1,41,0,0,1.0,0.0,0.277259913739,0,0.0,0.0,0.0,nan,nan,nan,nan,nan,nan,407,0.0305886347219,0.46645515455,-0.502577406972,nan,nan,nan,nan,0.0,0.0,0.0,nan,169.794213256,218.324094358,218.82412743,218.601354272,nan,nan,nan,nan
1,42,1,1,1.0,1.0,0.301132009365,0,nan,nan,nan,nan,nan,nan,nan,nan,nan,188,1.0,-0.0857393506835,0.392804289229,nan,nan,nan,nan,0.0,0.0,0.0,nan,169.794213256,219.324188156,219.824233201,219.625320165,nan,nan,nan,nan
1,43,0,0,1.0,0.0,0.372984358575,0,0.0,0.0,0.0,nan,nan,nan,nan,nan,nan,467,0.473005185182,0.365775667588,-1.0,nan,nan,nan,nan,0.0,0.0,0.0,nan,169.794213256,220.324322151,220.824382307,220.69730651,nan,nan,nan,nan
1,44,1,1,1.0,1.0,0.380842509679,0,nan,nan,nan,nan,nan,nan,nan,nan,nan,121,1.0,-0.310732805591,-0.229640808446,nan,nan,nan,nan,0.0,0.0,0.0,nan,169.794213256,221.324460424,221.8244781,221.705302934,nan,nan,nan,nan
1,45,1,1,1.0,1.0,0.404708903749,0,nan,nan,nan,nan,nan,nan,nan,nan,nan,22,1.0,0.111842423158,-1.0,nan,nan,nan,nan,0.0,0.0,0.0,nan,169.794213256,222.324569901,222.824607534,222.729278805,nan,nan,nan,nan
1,46,1,1,1.0,1.0,0.412558502052,0,nan,nan,nan,nan,nan,nan,nan,nan,nan,489,0.656284860842,0.299572439858,-1.0,nan,nan,nan,nan,0.0,0.0,0.0,nan,169.794213256,223.324702187,223.824743241,223.737260689,nan,nan,nan,nan
1,47,1,1,1.0,1.0,0.436403798871,0,nan,nan,nan,nan,nan,nan,nan,nan,nan,102,1.0,-0.276610342793,-0.434926949461,nan,nan,nan,nan,0.0,0.0,0.0,nan,169.794213256,224.324872961,224.824890351,224.76127676,nan,nan,nan,nan
1,48,1,1,1.0,1.0,0.492256457917,0,nan,nan,nan,nan,nan,nan,nan,nan,nan,15,0.965734432428,0.145352784795,-1.0,nan,nan,nan,nan,0.0,0.0,0.0,nan,169.794213256,225.324954214,225.833330958,225.817210671,nan,nan,nan,nan
1,49,1,1,1.0,1.0,0.404097653925,0,nan,nan,nan,nan,nan,nan,nan,nan,nan,189,1.0,-0.0802194643608,0.400143472992,nan,nan,nan,nan,0.0,0.0,0.0,nan,169.794213256,226.32510617,226.825120711,226.729203824,nan,nan,nan,nan
1,50,1,1,1.0,1.0,0.363955880515,0,nan,nan,nan,nan,nan,nan,nan,nan,nan,477,0.555879874869,0.337784025865,-1.0,nan,nan,nan,nan,0.0,0.0,0.0,nan,169.794213256,227.325232754,227.825270102,227.689188635,nan,nan,nan,nan
1,51,1,1,1.0,1.0,0.387828832027,0,nan,nan,nan,nan,nan,nan,nan,nan,nan,302,0.027086081288,0.400300843718,0.517770016443,nan,nan,nan,nan,0.0,0.0,0.0,nan,169.794213256,228.325364469,228.825371882,228.713193301,nan,nan,nan,nan
1,52,1,1,1.0,1.0,0.39564478863,0,nan,nan,nan,nan,nan,nan,nan,nan,nan,377,-0.121259861678,0.478700828387,-0.143695900877,nan,nan,nan,nan,0.0,0.0,0.0,nan,169.794213256,229.32549704,229.825508159,229.721141828,nan,nan,nan,nan
1,53,1,1,1.0,1.0,0.395513358526,0,nan,nan,nan,nan,nan,nan,nan,nan,nan,0,0.846831709088,0.212097570855,-1.0,nan,nan,nan,nan,0.0,0.0,0.0,nan,169.794213256,230.325613074,230.825649567,230.721126433,nan,nan,nan,nan
1,54,1,1,1.0,1.0,0.371385244653,1,nan,nan,nan,nan,nan,nan,nan,nan,nan,490,0.664660387652,0.296157848571,-1.0,110.199806621,339.800193379,-4.73105662143,483.0,0.606025706087,0.319314454546,-1.0,1.61716893269,169.794213256,231.325738803,231.825755624,231.697124047,234.792797745,235.79269511,233.159259635,234.784487429
1,55,1,1,1.0,1.0,0.336033114698,0,nan,nan,nan,nan,nan,nan,nan,nan,nan,131,1.0,-0.308451667147,-0.125800503078,nan,nan,nan,nan,0.0,0.0,0.0,nan,169.794213256,235.992995717,236.493013963,236.329028832,nan,nan,nan,nan
1,56,1,1,1.0,1.0,0.343871023972,0,nan,nan,nan,nan,nan,nan,nan,nan,nan,419,0.107894673663,0.454841969249,-0.678098861371,nan,nan,nan,nan,0.0,0.0,0.0,nan,169.794213256,236.993151951,237.493151095,237.337022975,nan,nan,nan,nan
1,57,1,1,1.0,1.0,0.359739283565,1,nan,nan,nan,nan,nan,nan,nan,nan,nan,174,1.0,-0.160790688716,0.281981279739,-19.7708222783,109.770822278,-12.5729277217,156.0,1.0,-0.244060613314,0.121041471254,2.00052800123,169.794213256,237.993248599,238.493265419,238.352987882,241.835365986,242.843766964,239.818461681,241.827028871
1,58,1,1,1.0,1.0,0.317014238797,0,nan,nan,nan,nan,nan,nan,nan,nan,nan,399,-0.0164460389312,0.472031251936,-0.400274523968,nan,nan,nan,nan,0.0,0.0,0.0,nan,169.794213256,243.043877125,243.543915614,243.360891364,nan,nan,nan,nan
1,59,1,1,1.0,1.0,0.316872545518,0,nan,nan,nan,nan,nan,nan,nan,nan,nan,196,1.0,-0.0413610816081,0.449130757868,nan,nan,nan,nan,0.0,0.0,0.0,nan,169.794213256,244.04400599,244.544045903,244.360878535,nan,nan,nan,nan
1,60,1,1,1.0,1.0,0.260759877041,0,nan,nan,nan,nan,nan,nan,nan,nan,nan,86,1.0,-0.21659106269,-0.625617802914,nan,nan,nan,nan,0.0,0.0,0.0,nan,169.794213256,245.04415139,245.544189307,245.304911267,nan,nan,nan,nan
1,61,1,1,1.0,1.0,0.276558857877,0,nan,nan,nan,nan,nan,nan,nan,nan,nan,363,-0.162287729338,0.476365729747,0.00704812682028,nan,nan,nan,nan,0.0,0.0,0.0,nan,169.794213256,246.044276262,246.544298215,246.32083512,nan,nan,nan,nan
1,62,1,1,1.0,1.0,0.244435460772,0,nan,nan,nan,nan,nan,nan,nan,nan,nan,447,0.312467642152,0.411646472288,-1.0,nan,nan,nan,nan,0.0,0.0,0.0,nan,169.794213256,247.044410544,247.544450457,247.288846004,nan,nan,nan,nan
1,63,1,1,1.0,1.0,0.260296022519,0,nan,nan,nan,nan,nan,nan,nan,nan,nan,315,-0.0657111424032,0.426434809442,0.434956515233,nan,nan,nan,nan,0.0,0.0,0.0,nan,169.794213256,248.044537412,248.544591296,248.304833435,nan,nan,nan,nan
1,64,1,1,1.0,1.0,0.244146371726,0,nan,nan,nan,nan,nan,nan,nan,nan,nan,10,0.926811495151,0.168400576072,-1.0,nan,nan,nan,nan,0.0,0.0,0.0,nan,169.794213256,249.044664565,249.544686803,249.288810937,nan,nan,nan,nan
1,65,0,0,1.0,0.0,0.21198277548,0,0.0,0.0,0.0,nan,nan,nan,nan,nan,nan,225,0.81146624694,0.115131125244,0.600981946568,nan,nan,nan,nan,0.0,0.0,0.0,nan,169.794213256,250.044805404,250.544839045,250.256788179,nan,nan,nan,nan
1,66,1,1,1.0,1.0,0.219847484492,0,nan,nan,nan,nan,nan,nan,nan,nan,nan,174,1.0,-0.160790688716,0.281981279739,nan,nan,nan,nan,0.0,0.0,0.0,nan,169.794213256,251.044922009,251.544964203,251.264769493,nan,nan,nan,nan
1,67,1,1,1.0,1.0,0.243630629499,0,nan,nan,nan,nan,nan,nan,nan,nan,nan,503,0.773020196022,0.248538461814,-1.0,nan,nan,nan,nan,0.0,0.0,0.0,nan,169.794213256,252.045107608,252.545089646,252.288738237,nan,nan,nan,nan
1,68,1,1,1.0,1.0,0.243553082924,0,nan,nan,nan,nan,nan,nan,nan,nan,nan,370,-0.144805996584,0.478178727438,-0.0671803333712,nan,nan,nan,nan,0.0,0.0,0.0,nan,169.794213256,253.045171184,253.545191711,253.288724267,nan,nan,nan,nan
1,69,1,1,1.0,1.0,0.267403226346,0,nan,nan,nan,nan,nan,nan,nan,nan,nan,76,1.0,-0.169674511773,-0.773365826749,nan,nan,nan,nan,0.0,0.0,0.0,nan,169.794213256,254.045293776,254.54531801,254.312697003,nan,nan,nan,nan
1,70,1,1,1.0,1.0,0.283290302847,0,nan,nan,nan,nan,nan,nan,nan,nan,nan,489,0.656284860842,0.299572439858,-1.0,nan,nan,nan,nan,0.0,0.0,0.0,nan,169.794213256,255.045406675,255.545455712,255.328696978,nan,nan,nan,nan
1,71,1,1,1.0,1.0,0.307102813385,0,nan,nan,nan,nan,nan,nan,nan,nan,nan,179,1.0,-0.13461441766,0.323204131591,nan,nan,nan,nan,0.0,0.0,0.0,nan,169.794213256,256.045554641,256.545573458,256.352657454,nan,nan,nan,nan
1,72,1,1,1.0,1.0,0.298955572769,0,nan,nan,nan,nan,nan,nan,nan,nan,nan,381,-0.105403061426,0.478425078289,-0.188431136224,nan,nan,nan,nan,0.0,0.0,0.0,nan,169.794213256,257.045688067,257.54569776,257.344643639,nan,nan,nan,nan
1,73,1,1,1.0,1.0,0.314794752281,0,nan,nan,nan,nan,nan,nan,nan,nan,nan,218,0.881467392804,0.0788246127756,0.572559633417,nan,nan,nan,nan,0.0,0.0,0.0,nan,169.794213256,258.045832897,258.545824629,258.360627649,nan,nan,nan,nan
1,74,1,1,1.0,1.0,0.378698003478,0,nan,nan,nan,nan,nan,nan,nan,nan,nan,115,1.0,-0.305166285737,-0.293172749504,nan,nan,nan,nan,0.0,0.0,0.0,nan,169.794213256,259.045910443,259.54596062,259.424608447,nan,nan,nan,nan
1,75,1,1,1.0,1.0,0.354571885429,0,nan,nan,nan,nan,nan,nan,nan,nan,nan,504,0.78128615449,0.244628286196,-1.0,nan,nan,nan,nan,0.0,0.0,0.0,nan,169.794213256,260.046041018,260.546079791,260.400612903,nan,nan,nan,nan
1,76,1,1,1.0,1.0,0.354388567619,0,nan,nan,nan,nan,nan,nan,nan,nan,nan,35,1.0,0.0462653595507,-1.0,nan,nan,nan,nan,0.0,0.0,0.0,nan,169.794213256,261.046191264,261.546210651,261.400579832,nan,nan,nan,nan
1,77,1,1,1.0,1.0,0.370261104312,0,nan,nan,nan,nan,nan,nan,nan,nan,nan,432,0.199227897075,0.437687328843,-1.0,nan,nan,nan,nan,0.0,0.0,0.0,nan,169.794213256,262.046301027,262.546332103,262.416562131,nan,nan,nan,nan
1,78,1,1,1.0,1.0,0.402119074948,0,nan,nan,nan,nan,nan,nan,nan,nan,nan,505,0.789537956352,0.240683140511,-1.0,nan,nan,nan,nan,0.0,0.0,0.0,nan,169.794213256,263.046432172,263.546463248,263.448551247,nan,nan,nan,nan
1,79,0,0,0.0,1.0,0.42592588393,0,nan,nan,nan,nan,nan,nan,nan,nan,nan,306,-0.00395437407881,0.408974006242,0.494128827808,nan,nan,nan,nan,0.0,0.0,0.0,nan,169.794213256,264.046609503,264.546615775,264.472535387,nan,nan,nan,nan
1,80,1,1,1.0,1.0,0.377837008797,0,nan,nan,nan,nan,nan,nan,nan,nan,nan,80,1.0,-0.189075709245,-0.708965549488,nan,nan,nan,nan,0.0,0.0,0.0,nan,169.794213256,265.046682488,265.546724397,265.424519497,nan,nan,nan,nan
1,81,1,1,1.0,1.0,0.313687717542,0,0.0,0.0,0.0,0.346134298056,0.0620160175067,0.284118280549,0.408150315563,0.0620160175067,0.372483536756,180,1.0,-0.129278616986,0.331238955499,nan,nan,nan,nan,0.0,0.0,0.0,nan,169.794213256,266.046811637,266.5468487,266.360499355,nan,nan,nan,nan
1,82,1,1,1.0,1.0,0.337541852612,0,0.0,0.0,0.0,0.345733722988,0.0617360668029,0.283997656185,0.407469789791,0.0617360668029,0.343022192984,267,0.362924526182,0.298807232282,0.646622522267,nan,nan,nan,nan,0.0,0.0,0.0,nan,169.794213256,267.046936795,267.546980415,267.384478648,nan,nan,nan,nan
1,83,1,1,1.0,1.0,0.361392566003,0,0.0,0.0,0.0,0.34563382213,0.0613650597586,0.284268762371,0.406998881888,0.0613650597586,0.337540712052,381,-0.105403061426,0.478425078289,-0.188431136224,nan,nan,nan,nan,0.0,0.0,0.0,nan,169.794213256,268.047069366,268.547093884,268.408461932,nan,nan,nan,nan
1,84,1,1,1.0,1.0,0.336919769179,0,0.0,0.0,0.0,0.345823686514,0.0610184972782,0.284805189236,0.406842183792,0.0610184972782,0.345284729265,102,1.0,-0.276610342793,-0.434926949461,nan,nan,nan,nan,0.0,0.0,0.0,nan,169.794213256,269.05553392,269.555563,269.392453689,nan,nan,nan,nan
1,85,1,1,1.0,1.0,0.376737670973,0,0.0,0.0,0.0,0.345717687498,0.0606618916005,0.285055795897,0.406379579098,0.0606618916005,0.358350002052,271,0.320642857732,0.312811632898,0.639400143054,nan,nan,nan,nan,0.0,0.0,0.0,nan,169.794213256,270.055697851,270.555718949,270.432435522,nan,nan,nan,nan
1,86,1,1,1.0,1.0,0.368607251439,0,0.0,0.0,0.0,0.34608262848,0.0603966873542,0.285685941126,0.406479315834,0.0603966873542,0.360754897197,320,-0.0946500390753,0.43494401576,0.398701238857,nan,nan,nan,nan,0.0,0.0,0.0,nan,169.794213256,271.05579564,271.555838405,271.424402891,nan,nan,nan,nan
1,87,1,1,1.0,1.0,0.384450137615,0,0.0,0.0,0.0,0.3463445427,0.0600930524373,0.286251490263,0.406437595138,0.0600930524373,0.376598353342,219,0.871627318206,0.0840881726889,0.576959667802,nan,nan,nan,nan,0.0,0.0,0.0,nan,169.794213256,272.055946171,272.555939899,272.440396309,nan,nan,nan,nan
1,88,0,0,0.0,1.0,0.456298210192,0,0.0,0.0,0.0,0.346782538044,0.0598846009121,0.286897937132,0.406667138956,0.0598846009121,0.403118533082,276,0.268710435127,0.329430325417,0.627563005949,nan,nan,nan,nan,0.0,0.0,0.0,nan,169.794213256,273.056066768,273.55610269,273.512364978,nan,nan,nan,nan
1,89,1,1,1.0,1.0,0.328180950601,0,0.0,0.0,0.0,0.348027034319,0.0606642944536,0.287362739865,0.408691328772,0.0606642944536,0.389643099469,123,1.0,-0.311441137266,-0.208672863777,nan,nan,nan,nan,0.0,0.0,0.0,nan,169.794213256,274.056158569,274.556201904,274.38433952,nan,nan,nan,nan
1,90,1,1,1.0,1.0,0.264009136707,0,0.0,0.0,0.0,0.347804044614,0.0603587797681,0.287445264846,0.408162824382,0.0603587797681,0.349496099167,455,0.375608248681,0.394875365091,-1.0,nan,nan,nan,nan,0.0,0.0,0.0,nan,169.794213256,275.056314518,275.556323356,275.320323654,nan,nan,nan,nan
1,91,1,1,1.0,1.0,0.247897688765,0,1.0,0.0,0.0,0.346872990082,0.0606617940558,0.286211196026,0.407534784138,0.0606617940558,0.280029258691,79,1.0,-0.184296021705,-0.724170777997,nan,nan,nan,nan,0.0,0.0,0.0,nan,169.794213256,276.056413162,276.556454216,276.30431085,nan,nan,nan,nan
1,92,1,1,1.0,1.0,0.279770485125,1,0.0,0.0,1.0,0.345785349408,0.0612036102804,0.284581739127,0.406988959688,0.0612036102804,0.263892436866,324,-0.114799643766,0.441158325109,0.368064040095,-120.478584469,210.478584469,-17.3339155315,299.0,0.0516645560415,0.393417669654,0.534378752182,1.242122747,169.794213256,277.056544592,277.556585646,277.336315077,280.140256725,281.141107742,278.881771074,280.13192189
1,93,0,0,0.0,1.0,0.595752099529,0,0.0,0.0,0.0,0.345067796535,0.0612537352086,0.283814061327,0.406321531744,0.0612537352086,0.374473424473,464,0.448404880525,0.373503555275,-1.0,nan,nan,nan,nan,0.0,0.0,0.0,nan,169.794213256,281.340456693,281.840503734,281.936208792,nan,nan,nan,nan
1,94,1,1,1.0,1.0,0.355671508238,0,0.0,0.0,0.0,0.347763326675,0.0661826033534,0.281580723322,0.413945930028,0.0661826033534,0.410398030964,332,-0.146647089803,0.45205423783,0.302714191958,nan,nan,nan,nan,0.0,0.0,0.0,nan,169.794213256,282.340545928,282.840589548,282.696217436,nan,nan,nan,nan
1,95,1,1,1.0,1.0,0.307497673668,0,0.0,0.0,0.0,0.347847456266,0.0658346262915,0.282012829975,0.413682082558,0.0658346262915,0.419640427145,235,0.707591924495,0.164537776567,0.631659631194,nan,nan,nan,nan,0.0,0.0,0.0,nan,169.794213256,283.340700736,283.840717842,283.64819841,nan,nan,nan,nan
1,96,1,1,1.0,1.0,0.251349938102,0,0.0,0.0,0.0,0.347422721712,0.0656165560614,0.281806165651,0.413039277774,0.0656165560614,0.304839706669,25,1.0,0.0970682892709,-1.0,nan,nan,nan,nan,0.0,0.0,0.0,nan,169.794213256,284.340836728,284.840843,284.592186666,nan,nan,nan,nan
1,97,1,1,1.0,1.0,0.243191008456,0,1.0,0.0,0.0,0.34642196355,0.0659986911895,0.28042327236,0.412420654739,0.0659986911895,0.267346206742,371,-0.14179360683,0.478331938097,-0.0779732583494,nan,nan,nan,nan,0.0,0.0,0.0,nan,169.794213256,285.340953618,285.840971294,285.584144627,nan,nan,nan,nan
1,98,1,1,1.0,1.0,0.259054136463,1,0.0,0.0,1.0,0.345357726899,0.0664804585536,0.278877268346,0.411838185453,0.0664804585536,0.251198361007,234,0.71814774995,0.15974031316,0.62913160129,-79.8925731235,169.892573123,5.36132312347,242.0,0.632911854383,0.197161183215,0.645921401967,1.65051226364,169.794213256,286.341083908,286.841102154,286.600138044,289.824816511,290.828578377,288.15793393,289.816470272
1,99,1,1,1.0,1.0,0.398709019646,0,0.0,0.0,0.0,0.344477078017,0.0667066751091,0.277770402908,0.411183753126,0.0667066751091,0.300318054855,64,1.0,-0.108036866323,-1.0,nan,nan,nan,nan,0.0,0.0,0.0,nan,169.794213256,291.033342761,291.533359297,291.432051781,nan,nan,nan,nan
1,100,1,1,1.0,1.0,0.294557653368,0,0.0,0.0,0.0,0.345024875408,0.0665900988166,0.278434776591,0.411614974224,0.0665900988166,0.317440269825,264,0.394966959701,0.287889713878,0.650717615019,nan,nan,nan,nan,0.0,0.0,0.0,nan,169.794213256,292.033480178,292.533495288,292.328037831,nan,nan,nan,nan
1,101,1,1,1.0,1.0,0.246408622712,0,0.0,0.0,0.0,0.344520203187,0.066446320882,0.278073882305,0.410966524069,0.066446320882,0.313225098575,404,0.0124894593597,0.468746268022,-0.463349101315,nan,nan,nan,nan,0.0,0.0,0.0,nan,169.794213256,293.033614459,293.533642969,293.280023082,nan,nan,nan,nan
1,102,1,1,1.0,1.0,0.32627535658,0,0.0,0.0,0.0,0.3435488014,0.066826354878,0.276722446522,0.410375156278,0.066826354878,0.28908054422,128,1.0,-0.310663006781,-0.156689791083,nan,nan,nan,nan,0.0,0.0,0.0,nan,169.794213256,294.03373249,294.533740472,294.360007846,nan,nan,nan,nan
1,103,0,0,0.0,1.0,0.47009894019,0,0.0,0.0,0.0,0.343379453902,0.0665197434215,0.276859710481,0.409899197323,0.0665197434215,0.347594306494,338,-0.162891363375,0.458928707883,0.250399161362,nan,nan,nan,nan,0.0,0.0,0.0,nan,169.794213256,295.033877319,295.533895566,295.503976259,nan,nan,nan,nan
1,104,1,1,1.0,1.0,0.325977429282,0,0.0,0.0,0.0,0.344609740177,0.0673520893627,0.277257650814,0.411961829539,0.0673520893627,0.374117242017,474,0.530901762182,0.346545376391,-1.0,nan,nan,nan,nan,0.0,0.0,0.0,nan,169.794213256,296.033985371,296.534006753,296.359962801,nan,nan,nan,nan
1,105,1,1,1.0,1.0,0.316507050302,0,0.0,0.0,0.0,0.344430583341,0.0670521561404,0.277378427201,0.411482739481,0.0670521561404,0.370861139925,182,1.0,-0.118523835432,0.347089474713,nan,nan,nan,nan,0.0,0.0,0.0,nan,169.794213256,297.067447017,297.56746897,297.383954068,nan,nan,nan,nan
1,106,1,1,1.0,1.0,0.332366471644,0,0.0,0.0,0.0,0.344164644931,0.0667871835892,0.277377461342,0.41095182852,0.0667871835892,0.324950317076,370,-0.144805996584,0.478178727438,-0.0671803333712,nan,nan,nan,nan,0.0,0.0,0.0,nan,169.794213256,298.067556495,298.567591562,298.399922967,nan,nan,nan,nan
1,107,1,1,1.0,1.0,0.332179732155,0,0.0,0.0,0.0,0.34405334141,0.0664811870361,0.277572154374,0.410534528446,0.0664811870361,0.327017751367,508,0.814199817736,0.228638933499,-1.0,nan,nan,nan,nan,0.0,0.0,0.0,nan,169.794213256,299.067721852,299.567719286,299.399901584,nan,nan,nan,nan
1,108,1,1,1.0,1.0,0.284060351551,0,0.0,0.0,0.0,0.343942373099,0.0661796604094,0.277762712689,0.410122033508,0.0661796604094,0.316202185117,360,-0.167709501072,0.475188317955,0.0381258551808,nan,nan,nan,nan,0.0,0.0,0.0,nan,169.794213256,300.067808807,300.567848436,300.351869158,nan,nan,nan,nan
1,109,1,1,1.0,1.0,0.275916247629,0,0.0,0.0,0.0,0.343387909936,0.0661217753876,0.277266134549,0.409509685324,0.0661217753876,0.297385443778,298,0.0600896634305,0.391050340636,0.53969689008,nan,nan,nan,nan,0.0,0.0,0.0,nan,169.794213256,301.067955917,301.568004099,301.343872165,nan,nan,nan,nan
1,110,1,1,1.0,1.0,0.339786997996,0,0.0,0.0,0.0,0.34276890386,0.0661313879403,0.27663751592,0.4089002918,0.0661313879403,0.299921199058,87,1.0,-0.220959007447,-0.612675615602,nan,nan,nan,nan,0.0,0.0,0.0,nan,169.794213256,302.068071382,302.568101317,302.40785838,nan,nan,nan,nan
1,111,1,1,1.0,1.0,0.259649706073,0,0.0,0.0,0.0,0.342741795625,0.0658307128003,0.276911082825,0.408572508425,0.0658307128003,0.291784317233,505,0.789537956352,0.240683140511,-1.0,nan,nan,nan,nan,0.0,0.0,0.0,nan,169.794213256,303.068191123,303.568238449,303.327840829,nan,nan,nan,nan
1,112,1,1,1.0,1.0,0.267518120818,0,0.0,0.0,0.0,0.341993218242,0.0660021291456,0.275991089096,0.407995347387,0.0660021291456,0.288984941629,190,1.0,-0.0746884387243,0.407399635172,nan,nan,nan,nan,0.0,0.0,0.0,nan,169.794213256,304.068331391,304.568365033,304.335849512,nan,nan,nan,nan
1,113,1,1,1.0,1.0,0.259358621202,0,1.0,0.0,0.0,0.341328262015,0.0660792418103,0.275249020204,0.407407503825,0.0660792418103,0.262175482698,334,-0.152796554809,0.454467054946,0.285576400052,nan,nan,nan,nan,0.0,0.0,0.0,nan,169.794213256,305.068467953,305.568491331,305.327826574,nan,nan,nan,nan
1,114,1,1,1.0,1.0,0.267211070284,1,0.0,0.0,1.0,0.340602866963,0.0662326134036,0.27437025356,0.406835480367,0.0662326134036,0.264695937435,178,1.0,-0.139919655122,0.315097826042,-48.576334375,138.576334375,13.420084375,197.0,1.0,-0.035797595552,0.455774741445,1.05875638034,169.794213256,306.068589405,306.568617629,306.335800475,308.968914074,309.969431526,307.893778824,308.96058209
1,115,1,1,1.0,1.0,0.302630768623,0,0.0,0.0,0.0,0.339959079273,0.0662956484858,0.273663430787,0.406254727759,0.0662956484858,0.27640015337,443,0.281558783006,0.419268214519,-1.0,nan,nan,nan,nan,0.0,0.0,0.0,nan,169.794213256,310.169092944,310.669139985,310.471723713,nan,nan,nan,nan
1,116,1,1,1.0,1.0,0.28646857338,0,0.0,0.0,0.0,0.339634485267,0.066097699043,0.273536786224,0.40573218431,0.066097699043,0.285436804096,16,0.973419431522,0.140652110383,-1.0,nan,nan,nan,nan,0.0,0.0,0.0,nan,169.794213256,311.16923977,311.669276262,311.455708343,nan,nan,nan,nan
1,117,1,1,1.0,1.0,0.318302026019,0,0.0,0.0,0.0,0.339176158441,0.0659954554327,0.273180703008,0.405171613874,0.0659954554327,0.302467122674,139,1.0,-0.296335611021,-0.0445992895203,nan,nan,nan,nan,0.0,0.0,0.0,nan,169.794213256,312.16937234,312.669407977,312.487674366,nan,nan,nan,nan
1,118,1,1,1.0,1.0,0.35013889987,0,0.0,0.0,0.0,0.338997747053,0.0657409069598,0.273256840093,0.404738654012,0.0657409069598,0.318303166423,291,0.122027637739,0.373441943191,0.573791926984,nan,nan,nan,nan,0.0,0.0,0.0,nan,169.794213256,313.169502915,313.66951774,313.519641815,nan,nan,nan,nan
1,119,1,1,1.0,1.0,0.326019338798,0,0.0,0.0,0.0,0.339092163602,0.0654697170635,0.273622446538,0.404561880665,0.0654697170635,0.331486754895,369,-0.147694689129,0.477999187239,-0.0564338676883,nan,nan,nan,nan,0.0,0.0,0.0,nan,169.794213256,314.169623796,314.669642043,314.495643135,nan,nan,nan,nan
1,120,1,1,1.0,1.0,0.317901178263,0,0.0,0.0,0.0,0.338982307931,0.0652049746262,0.273777333305,0.404187282557,0.0652049746262,0.331353138977,59,1.0,-0.0814409933332,-1.0,nan,nan,nan,nan,0.0,0.0,0.0,nan,169.794213256,315.169731563,315.669769767,315.487632742,nan,nan,nan,nan
1,121,1,1,1.0,1.0,0.325753627345,0,0.0,0.0,0.0,0.338806631851,0.0649609926406,0.27384563921,0.403767624491,0.0649609926406,0.323224714802,432,0.199227897075,0.437687328843,-1.0,nan,nan,nan,nan,0.0,0.0,0.0,nan,169.794213256,316.169864989,316.669906899,316.495618617,nan,nan,nan,nan
1,122,0,0,1.0,0.0,0.373561966699,0,0.0,0.0,0.0,0.33869875578,0.0647027941841,0.273995961596,0.403401549964,0.0647027941841,0.339072257436,178,1.0,-0.139919655122,0.315097826042,nan,nan,nan,nan,0.0,0.0,0.0,nan,169.794213256,317.170030346,317.670059996,317.543592313,nan,nan,nan,nan
1,123,1,1,1.0,1.0,0.309456580784,0,0.0,0.0,0.0,0.338984519804,0.0645136992331,0.274470820571,0.403498219037,0.0645136992331,0.336257391609,304,0.0113092810281,0.404708921832,0.506160370659,nan,nan,nan,nan,0.0,0.0,0.0,nan,169.794213256,318.170117016,318.670148376,318.479573597,nan,nan,nan,nan
1,124,1,1,1.0,1.0,0.301285677124,0,0.0,0.0,0.0,0.338744455259,0.0643056049598,0.2744388503,0.403050060219,0.0643056049598,0.328101408202,362,-0.164239727892,0.476000155386,0.0174578511848,nan,nan,nan,nan,0.0,0.0,0.0,nan,169.794213256,319.170265837,319.670279806,319.471551514,nan,nan,nan,nan
1,125,0,0,0.0,1.0,0.525126526598,0,0.0,0.0,0.0,0.338442368339,0.0641333525184,0.274309015821,0.402575720857,0.0641333525184,0.378622928169,407,0.0305886347219,0.46645515455,-0.502577406972,nan,nan,nan,nan,0.0,0.0,0.0,nan,169.794213256,320.170406105,320.670450865,320.695532632,nan,nan,nan,nan
1,126,1,1,1.0,1.0,0.356994076632,0,0.0,0.0,0.0,0.339935841605,0.0660057538944,0.273930087711,0.405941595499,0.0660057538944,0.394468760118,355,-0.173737462994,0.472683863687,0.0888799762457,nan,nan,nan,nan,0.0,0.0,0.0,nan,169.794213256,321.170520714,321.670539816,321.527514791,nan,nan,nan,nan
1,127,1,1,1.0,1.0,0.34888104815,0,0.0,0.0,0.0,0.340071224423,0.0657607265308,0.274310497892,0.405831950954,0.0657607265308,0.410333883793,259,0.44882283482,0.268906983076,0.655011783756,nan,nan,nan,nan,0.0,0.0,0.0,nan,169.794213256,322.170640741,322.670664689,322.519521789,nan,nan,nan,nan
1,128,0,0,0.0,1.0,0.444687316194,0,0.0,0.0,0.0,0.340140593114,0.0655059424638,0.27463465065,0.405646535577,0.0655059424638,0.383520813659,182,1.0,-0.118523835432,0.347089474713,nan,nan,nan,nan,0.0,0.0,0.0,nan,169.794213256,323.170791557,323.670818641,323.615478873,nan,nan,nan,nan
1,129,1,1,1.0,1.0,0.292572802398,0,0.0,0.0,0.0,0.340957364388,0.0658955877341,0.275061776653,0.406852952122,0.0658955877341,0.362047055581,67,1.0,-0.12380466598,-1.0,nan,nan,nan,nan,0.0,0.0,0.0,nan,169.794213256,324.170905026,324.670917571,324.463477829,nan,nan,nan,nan
1,130,1,1,1.0,1.0,0.308420820162,0,0.0,0.0,0.0,0.340582290264,0.0657767049457,0.274805585318,0.406358995209,0.0657767049457,0.348560312918,258,0.459642287315,0.26499291187,0.655490062901,nan,nan,nan,nan,0.0,0.0,0.0,nan,169.794213256,325.171026763,325.67106069,325.479447583,nan,nan,nan,nan
1,131,1,1,1.0,1.0,0.364312822931,0,0.0,0.0,0.0,0.34033489434,0.065583450503,0.274751443837,0.405918344843,0.065583450503,0.321768815164,372,-0.138660017671,0.478458869494,-0.0888123791441,nan,nan,nan,nan,0.0,0.0,0.0,nan,169.794213256,326.171157338,326.67117929,326.535470161,nan,nan,nan,nan
1,132,0,0,1.0,0.0,0.292053354438,0,0.0,0.0,0.0,0.340517931963,0.0653659761382,0.275151955824,0.405883908101,0.0653659761382,0.321595665844,430,0.184725017221,0.440645728776,-0.941904167281,nan,nan,nan,nan,0.0,0.0,0.0,nan,169.794213256,327.171363178,327.671330107,327.463416533,nan,nan,nan,nan
1,133,1,1,1.0,1.0,0.268005637918,0,0.0,0.0,0.0,0.340150776072,0.0652533605776,0.274897415495,0.40540413665,0.0652533605776,0.308123938429,310,-0.032854544558,0.417080732083,0.468828018046,nan,nan,nan,nan,0.0,0.0,0.0,nan,169.794213256,328.171387412,328.671430176,328.43939305,nan,nan,nan,nan
1,134,1,1,1.0,1.0,0.323843472172,0,0.0,0.0,0.0,0.339608331424,0.0653056392582,0.274302692166,0.404913970683,0.0653056392582,0.294634154843,476,0.547545041103,0.340739382997,-1.0,nan,nan,nan,nan,0.0,0.0,0.0,nan,169.794213256,329.171531386,329.671551058,329.495374858,nan,nan,nan,nan
1,135,1,1,1.0,1.0,0.323726296891,0,0.0,0.0,0.0,0.339490683221,0.0650756507583,0.274415032463,0.404566333979,0.0650756507583,0.305191802327,314,-0.0594438881467,0.42463230952,0.441925406839,nan,nan,nan,nan,0.0,0.0,0.0,nan,169.794213256,330.171651412,330.671702445,330.495377709,nan,nan,nan,nan
1,136,0,0,1.0,0.0,0.355549771339,0,0.0,0.0,0.0,0.339373909989,0.0648482718074,0.274525638182,0.404222181796,0.0648482718074,0.334373180134,366,-0.155593376329,0.477302029306,-0.0244766492797,nan,nan,nan,nan,0.0,0.0,0.0,nan,169.794213256,331.171808501,331.671812777,331.527358273,nan,nan,nan,nan
1,137,1,1,1.0,1.0,0.411429229658,0,0.0,0.0,0.0,0.339492850146,0.0646241971531,0.274868652993,0.404117047299,0.0646241971531,0.363568432629,5,0.88714030954,0.190659852496,-1.0,nan,nan,nan,nan,0.0,0.0,0.0,nan,169.794213256,332.171904864,332.671940501,332.583334094,nan,nan,nan,nan
1,138,1,1,1.0,1.0,0.443251563236,0,0.0,0.0,0.0,0.340017933208,0.0646784343829,0.275339498825,0.404696367591,0.0646784343829,0.403410188078,109,1.0,-0.294638327523,-0.357773695079,nan,nan,nan,nan,0.0,0.0,0.0,nan,169.794213256,333.172055111,333.672068225,333.615306674,nan,nan,nan,nan
1,139,1,1,1.0,1.0,0.411113341339,0,0.0,1.0,0.0,0.340766002991,0.0650357782902,0.275730224701,0.405801781281,0.0650357782902,0.421931378078,430,0.184725017221,0.440645728776,-0.941904167281,nan,nan,nan,nan,0.0,0.0,0.0,nan,169.794213256,334.172178273,334.672207923,334.583291614,nan,nan,nan,nan
1,140,1,1,1.0,1.0,0.442967891227,1,0.0,0.0,1.0,0.34127209895,0.0650735712406,0.27619852771,0.406345670191,0.0650735712406,0.432444265268,141,1.0,-0.291952736687,-0.024586852943,-10.5895708581,100.589570858,1.44894585807,143.0,1.0,-0.287057525782,-0.00469998909502,1.28379093437,169.794213256,335.172307707,335.672337928,335.615275599,338.305994068,339.31252794,337.005823408,338.297652391
1,141,0,0,0.0,1.0,0.492574057076,0,0.0,0.0,0.0,0.341998497467,0.0654038742398,0.276594623227,0.407402371706,0.0654038742398,0.448885096548,455,0.375608248681,0.394875365091,-1.0,nan,nan,nan,nan,0.0,0.0,0.0,nan,169.794213256,339.514619532,340.022907325,340.007193589,nan,nan,nan,nan
1,142,1,1,1.0,1.0,0.37220518617,0,0.0,0.0,0.0,0.343066409237,0.0663851615972,0.27668124764,0.409451570834,0.0663851615972,0.435915711491,35,1.0,0.0462653595507,-1.0,nan,nan,nan,nan,0.0,0.0,0.0,nan,169.794213256,340.522971472,341.02299542,340.895176658,nan,nan,nan,nan
1,143,1,1,1.0,1.0,0.372048097197,0,0.0,0.0,0.0,0.343271611891,0.066195859296,0.277075752595,0.409467471187,0.066195859296,0.412275780148,149,1.0,-0.269478519393,0.0541436597792,nan,nan,nan,nan,0.0,0.0,0.0,nan,169.794213256,341.523119153,342.023124855,341.89516725,nan,nan,nan,nan
1,144,1,1,1.0,1.0,0.363909124397,0,0.0,0.0,0.0,0.343472846054,0.0660075715715,0.277465274483,0.409480417626,0.0660075715715,0.369387469254,80,1.0,-0.189075709245,-0.708965549488,nan,nan,nan,nan,0.0,0.0,0.0,nan,169.794213256,342.52324146,343.023262842,342.887150584,nan,nan,nan,nan
1,145,1,1,1.0,1.0,0.395766810514,0,0.0,0.0,0.0,0.343614764654,0.0657998686235,0.27781489603,0.409414633277,0.0657998686235,0.377241344036,494,0.698129958021,0.282143999684,-1.0,nan,nan,nan,nan,0.0,0.0,0.0,nan,169.794213256,343.523360916,344.023405391,343.919127726,nan,nan,nan,nan
1,146,1,1,1.0,1.0,0.467615453061,0,0.0,0.0,0.0,0.343974433936,0.0657144685042,0.278259965431,0.40968890244,0.0657144685042,0.409097129324,190,1.0,-0.0746884387243,0.407399635172,nan,nan,nan,nan,0.0,0.0,0.0,nan,169.794213256,344.523485219,345.023517719,344.991100672,nan,nan,nan,nan
1,147,1,1,1.0,1.0,0.619480791502,0,0.0,1.0,0.0,0.344821290231,0.0662782193298,0.278543070901,0.411099509561,0.0662782193298,0.494287685025,286,0.169078956243,0.359734776014,0.594698705761,nan,nan,nan,nan,0.0,0.0,0.0,nan,169.794213256,345.5235927,346.02369391,346.143073492,nan,nan,nan,nan
1,148,1,1,1.0,1.0,0.435380012728,1,0.0,0.0,1.0,0.346689722212,0.0698040894676,0.276885632745,0.41649381168,0.0698040894676,0.507492085764,417,0.0945046041228,0.457053563907,-0.645720198395,-178.393997011,268.393997011,-24.8091279893,382.0,-0.1011887567,0.478291136399,-0.199732273247,0.925422400702,169.794213256,346.52372299,347.023759482,346.959103003,349.290740764,350.294750095,348.348937783,349.282405929
1,149,1,1,1.0,1.0,0.491756396368,0,0.0,0.0,0.0,0.347288980932,0.0699462449219,0.27734273601,0.417235225854,0.0699462449219,0.515539066866,85,1.0,-0.212156452387,-0.638781227021,nan,nan,nan,nan,0.0,0.0,0.0,nan,169.794213256,350.499234512,351.007600138,350.990990909,nan,nan,nan,nan
1,150,0,0,1.0,0.0,0.411588029005,0,0.0,0.0,0.0,0.348258560902,0.0707020112039,0.277556549698,0.418960572105,0.0707020112039,0.446241479367,131,1.0,-0.308451667147,-0.125800503078,nan,nan,nan,nan,0.0,0.0,0.0,nan,169.794213256,351.49940272,351.999436932,351.910990749,nan,nan,nan,nan
1,151,1,1,1.0,1.0,0.350651505403,0,0.0,0.0,0.0,0.348680757356,0.0706541467482,0.278026610607,0.419334904104,0.0706541467482,0.417998643592,442,0.273907262724,0.421095538958,-1.0,nan,nan,nan,nan,0.0,0.0,0.0,nan,169.794213256,352.52828313,353.032882613,352.878934635,nan,nan,nan,nan
1,152,1,1,1.0,1.0,0.313971959986,0,0.0,0.0,0.0,0.348693808667,0.0704199854061,0.278273823261,0.419113794073,0.0704199854061,0.358737164798,169,1.0,-0.185917379452,0.239118302078,nan,nan,nan,nan,0.0,0.0,0.0,nan,169.794213256,353.532968997,354.033002924,353.846940957,nan,nan,nan,nan
1,153,1,1,1.0,1.0,0.313817152288,0,0.0,0.0,0.0,0.348465375452,0.0702440670461,0.278221308406,0.418709442498,0.0702440670461,0.326146872559,444,0.289241202529,0.417409780569,-1.0,nan,nan,nan,nan,0.0,0.0,0.0,nan,169.794213256,354.533104134,355.033129223,354.846921286,nan,nan,nan,nan
1,154,1,1,1.0,1.0,0.281683491077,0,0.0,0.0,0.0,0.348238916477,0.0700697810055,0.278169135472,0.418308697483,0.0700697810055,0.30315753445,382,-0.1011887567,0.478291136399,-0.199732273247,nan,nan,nan,nan,0.0,0.0,0.0,nan,169.794213256,355.533229292,356.033252955,355.814912783,nan,nan,nan,nan
1,155,1,1,1.0,1.0,0.257538841572,0,0.0,0.0,0.0,0.34780673839,0.0700461960278,0.277760542362,0.417852934418,0.0700461960278,0.284346494979,156,1.0,-0.244060613314,0.121041471254,nan,nan,nan,nan,0.0,0.0,0.0,nan,169.794213256,356.53335616,357.033381819,356.790895002,nan,nan,nan,nan
1,156,1,1,1.0,1.0,0.257404845674,0,1.0,0.0,0.0,0.347224364862,0.0701929156691,0.277031449193,0.417417280531,0.0701929156691,0.265542392774,37,1.0,0.0358565504353,-1.0,nan,nan,nan,nan,0.0,0.0,0.0,nan,169.794213256,357.533471055,358.033520947,357.790875901,nan,nan,nan,nan
1,157,1,1,1.0,1.0,0.28925226815,1,0.0,0.0,1.0,0.346648598714,0.0703338134732,0.27631478524,0.416982412187,0.0703338134732,0.268065318465,431,0.191957257768,0.43918128748,-0.982298765802,144.520021866,305.479978134,2.43310313423,434.0,0.213881816697,0.43461034373,-1.0,1.54207131546,169.794213256,358.533616455,359.033634131,358.822868723,361.917323342,362.914933652,360.358803308,361.908997345
1,158,1,1,1.0,1.0,0.297296873759,0,0.0,0.0,0.0,0.34628301699,0.0702579970411,0.276025019949,0.416541014031,0.0702579970411,0.281317995861,228,0.780729811514,0.1302769546,0.611433142569,nan,nan,nan,nan,0.0,0.0,0.0,nan,169.794213256,363.117511906,363.617558662,363.414808779,nan,nan,nan,nan
1,159,1,1,1.0,1.0,0.297080484219,0,0.0,0.0,0.0,0.345972978109,0.0701429679204,0.275830010189,0.41611594603,0.0701429679204,0.29454320871,131,1.0,-0.308451667147,-0.125800503078,nan,nan,nan,nan,0.0,0.0,0.0,nan,169.794213256,364.117662438,364.61768439,364.414742922,nan,nan,nan,nan
1,160,1,1,1.0,1.0,0.264980750158,0,0.0,0.0,0.0,0.345665478148,0.0700287955781,0.275636682569,0.415694273726,0.0700287955781,0.286452702712,423,0.135229581944,0.450080889006,-0.750039916123,nan,nan,nan,nan,0.0,0.0,0.0,nan,169.794213256,365.117768779,365.617809263,365.382749529,nan,nan,nan,nan
1,161,1,1,1.0,1.0,0.280825346708,0,0.0,0.0,0.0,0.345161198598,0.0700986117499,0.275062586848,0.415259810348,0.0700986117499,0.280962193695,495,0.706485112283,0.278551693791,-1.0,nan,nan,nan,nan,0.0,0.0,0.0,nan,169.794213256,366.117893937,366.617939838,366.398719284,nan,nan,nan,nan
1,162,1,1,1.0,1.0,0.240677301306,0,1.0,0.0,0.0,0.344761597033,0.0700631415408,0.274698455492,0.414824738574,0.0700631415408,0.262161132724,367,-0.15309091083,0.477560897992,-0.0350816338538,nan,nan,nan,nan,0.0,0.0,0.0,nan,169.794213256,367.118022516,367.618056443,367.358699817,nan,nan,nan,nan
1,163,1,1,1.0,1.0,0.248499529902,1,0.0,0.0,1.0,0.34411910138,0.0703207167516,0.273798384629,0.414439818132,0.0703207167516,0.256667392639,145,1.0,-0.281667413287,0.0150551701241,-9.82393172342,99.8239317234,-2.12919327658,142.0,1.0,-0.289568116499,-0.0146273521697,2.07554607606,169.794213256,368.118182456,368.618186732,368.366681986,372.043634222,373.054763586,369.95169103,372.035291689
1,164,1,1,1.0,1.0,0.290364434943,0,0.0,0.0,0.0,0.343532478243,0.0705011651524,0.27303131309,0.414033643395,0.0705011651524,0.259847088717,69,1.0,-0.134207199312,-0.939648005704,nan,nan,nan,nan,0.0,0.0,0.0,nan,169.794213256,373.252240014,373.752179858,373.542604449,nan,nan,nan,nan
1,165,1,1,1.0,1.0,0.249990306795,0,0.0,0.0,0.0,0.343208282857,0.0704076602035,0.272800622653,0.41361594306,0.0704076602035,0.26295142388,468,0.481236483515,0.363131620867,-1.0,nan,nan,nan,nan,0.0,0.0,0.0,nan,169.794213256,374.260595376,374.760647263,374.510585682,nan,nan,nan,nan
1,166,1,1,1.0,1.0,0.209807764273,0,1.0,0.0,0.0,0.342643325426,0.0705658540392,0.272077471387,0.413209179465,0.0705658540392,0.25005416867,138,1.0,-0.29832987918,-0.0546508148191,nan,nan,nan,nan,0.0,0.0,0.0,nan,169.794213256,375.260752465,375.760764724,375.470560229,nan,nan,nan,nan
1,167,1,1,1.0,1.0,0.217697561253,1,0.0,0.0,1.0,0.341843111202,0.0710999232875,0.270743187915,0.41294303449,0.0710999232875,0.22583187744,507,0.805995650865,0.232688349973,-1.0,78.8869594641,11.1130405359,14.6286655359,16.0,0.973419431522,0.140652110383,-1.0,1.18383278698,169.794213256,376.260861657,376.760893588,376.478559218,379.294576185,380.293066592,378.094421263,379.286249618
1,168,1,1,1.0,1.0,0.439740583766,0,0.0,0.0,0.0,0.341099724675,0.0715308600808,0.269568864595,0.412630584756,0.0715308600808,0.289081969764,268,0.35230222188,0.302367520405,0.645005310408,nan,nan,nan,nan,0.0,0.0,0.0,nan,169.794213256,380.494726831,380.994767885,380.934467415,nan,nan,nan,nan
1,169,1,1,1.0,1.0,0.319580119103,0,0.0,0.0,0.0,0.341686872646,0.0717201481343,0.269966724512,0.413407020781,0.0717201481343,0.325672754707,345,-0.173519535469,0.465595146217,0.186119282857,nan,nan,nan,nan,0.0,0.0,0.0,nan,169.794213256,381.494879643,381.994897889,381.814459763,nan,nan,nan,nan
1,170,1,1,1.0,1.0,0.247111103497,0,0.0,0.0,0.0,0.341556063454,0.0715277410379,0.270028322416,0.413083804492,0.0715277410379,0.335477268789,37,1.0,0.0358565504353,-1.0,nan,nan,nan,nan,0.0,0.0,0.0,nan,169.794213256,382.503336785,383.003366435,382.750447889,nan,nan,nan,nan
1,171,1,1,1.0,1.0,0.222958756611,0,1.0,0.0,0.0,0.341000504866,0.0716818205877,0.269318684278,0.412682325453,0.0716818205877,0.263216659737,432,0.199227897075,0.437687328843,-1.0,nan,nan,nan,nan,0.0,0.0,0.0,nan,169.794213256,383.503461658,384.003491023,383.726420415,nan,nan,nan,nan
1,172,1,1,1.0,1.0,0.246856226586,1,0.0,0.0,1.0,0.340310202244,0.072036400329,0.268273801915,0.412346602573,0.072036400329,0.238975362231,259,0.44882283482,0.268906983076,0.655011783756,-79.7174649707,169.717464971,-12.3919100293,241.0,0.64365311028,0.192605941253,0.644254782112,1.35887942882,169.794213256,384.503567714,385.003610194,384.750423941,387.703974948,388.70129959,386.328779086,387.695653228
1,173,1,1,1.0,1.0,0.438160286751,0,0.0,0.0,0.0,0.339766865177,0.0721772453687,0.267589619808,0.411944110545,0.0721772453687,0.302658423316,498,0.731507943485,0.267561876527,-1.0,nan,nan,nan,nan,0.0,0.0,0.0,nan,169.794213256,388.904156099,389.404182043,389.342316386,nan,nan,nan,nan
1,174,1,1,1.0,1.0,0.302001557779,0,0.0,0.0,0.0,0.340335613278,0.0723538479496,0.267981765329,0.412689461228,0.0723538479496,0.329006023705,243,0.622151010882,0.20168048164,0.647463484622,nan,nan,nan,nan,0.0,0.0,0.0,nan,169.794213256,389.904283538,390.404311763,390.206285096,nan,nan,nan,nan
1,175,0,0,1.0,0.0,0.253875334747,0,0.0,0.0,0.0,0.340115302614,0.072203805404,0.26791149721,0.412319108018,0.072203805404,0.331345726425,498,0.731507943485,0.267561876527,-1.0,nan,nan,nan,nan,0.0,0.0,0.0,nan,169.794213256,390.904414113,391.404458873,391.158289447,nan,nan,nan,nan
1,176,1,1,1.0,1.0,0.261777961161,0,0.0,0.0,0.0,0.339622502798,0.0722900747424,0.267332428056,0.41191257754,0.0722900747424,0.272551617896,46,1.0,-0.0117313672748,-1.0,nan,nan,nan,nan,0.0,0.0,0.0,nan,169.794213256,391.904542407,392.404569206,392.166320368,nan,nan,nan,nan
1,177,1,1,1.0,1.0,0.309564632829,0,0.0,0.0,0.0,0.339180204266,0.0723214867611,0.266858717505,0.411501691027,0.0723214867611,0.275072642912,416,0.087881616042,0.458117504295,-0.630165317015,nan,nan,nan,nan,0.0,0.0,0.0,nan,169.794213256,392.904683815,393.404718597,393.214248448,nan,nan,nan,nan
1,178,1,1,1.0,1.0,0.293434367981,0,0.0,0.0,0.0,0.339012884653,0.0721510530025,0.266861831651,0.411163937656,0.0721510530025,0.288258987324,125,1.0,-0.311567427947,-0.187805059354,nan,nan,nan,nan,0.0,0.0,0.0,nan,169.794213256,393.904780749,394.404810399,394.198215117,nan,nan,nan,nan
1,179,0,0,1.0,0.0,0.285293399822,0,0.0,0.0,0.0,0.338756825571,0.0720287008934,0.266728124677,0.410785526464,0.0720287008934,0.296097466877,366,-0.155593376329,0.477302029306,-0.0244766492797,nan,nan,nan,nan,0.0,0.0,0.0,nan,169.794213256,394.904934131,395.404972619,395.190227531,nan,nan,nan,nan
1,180,1,1,1.0,1.0,0.341128097847,0,0.0,0.0,0.0,0.338458147215,0.0719376738872,0.266520473327,0.410395821102,0.0719376738872,0.306618621883,33,1.0,0.0565990290419,-1.0,nan,nan,nan,nan,0.0,0.0,0.0,nan,169.794213256,395.905053017,396.405098632,396.246181115,nan,nan,nan,nan
1,181,1,1,1.0,1.0,0.309009547345,0,0.0,0.0,0.0,0.338472980274,0.071737843201,0.266735137073,0.410210823475,0.071737843201,0.311810348338,400,-0.0107874812989,0.471427301814,-0.412692688905,nan,nan,nan,nan,0.0,0.0,0.0,nan,169.794213256,396.905174754,397.405200697,397.214184301,nan,nan,nan,nan
1,182,1,1,1.0,1.0,0.324855854269,0,0.0,0.0,0.0,0.338310198876,0.0715727256096,0.266737473267,0.409882924486,0.0715727256096,0.324997833154,38,1.0,0.0306259494545,-1.0,nan,nan,nan,nan,0.0,0.0,0.0,nan,169.794213256,397.905305614,398.405331843,398.230161468,nan,nan,nan,nan
1,183,1,1,1.0,1.0,0.364731346257,0,0.0,0.0,0.0,0.338236273906,0.0713827552143,0.266853518692,0.40961902912,0.0713827552143,0.332865582624,452,0.351738073422,0.401406211611,-1.0,nan,nan,nan,nan,0.0,0.0,0.0,nan,169.794213256,398.90542507,399.405481519,399.270156416,nan,nan,nan,nan
1,184,1,1,1.0,1.0,0.308594730217,0,0.0,0.0,0.0,0.338381055722,0.0712142439049,0.267166811817,0.409595299627,0.0712142439049,0.332727310248,13,0.950262168777,0.154664060346,-1.0,nan,nan,nan,nan,0.0,0.0,0.0,nan,169.794213256,399.905555074,400.405578738,400.214149804,nan,nan,nan,nan
1,185,1,1,1.0,1.0,0.2924388065,0,0.0,0.0,0.0,0.338219173518,0.071054217863,0.267164955655,0.409273391381,0.071054217863,0.321921627658,222,0.841778467246,0.0997291618919,0.589484691865,nan,nan,nan,nan,0.0,0.0,0.0,nan,169.794213256,400.905689925,401.405703325,401.198128732,nan,nan,nan,nan
1,186,1,1,1.0,1.0,0.324262280948,0,0.0,0.0,0.0,0.337971712075,0.0709413788578,0.267030333217,0.408913090933,0.0709413788578,0.308431939222,329,-0.136053278316,0.448203788942,0.3278337444,nan,nan,nan,nan,0.0,0.0,0.0,nan,169.794213256,401.905806816,402.405832189,402.230069097,nan,nan,nan,nan
1,187,1,1,1.0,1.0,0.364143474959,0,0.0,0.0,0.0,0.337898005456,0.0707575215942,0.267140483862,0.40865552705,0.0707575215942,0.326948187469,93,1.0,-0.245614297951,-0.538619881923,nan,nan,nan,nan,0.0,0.0,0.0,nan,169.794213256,402.905937105,403.405969321,403.27008058,nan,nan,nan,nan
1,188,1,1,1.0,1.0,0.347962462809,0,0.0,0.0,0.0,0.33803835556,0.0705940317074,0.267444323853,0.408632387268,0.0705940317074,0.345456072905,417,0.0945046041228,0.457053563907,-0.645720198395,nan,nan,nan,nan,0.0,0.0,0.0,nan,169.794213256,403.906094764,404.406084216,404.254057227,nan,nan,nan,nan
1,189,1,1,1.0,1.0,0.299891834147,0,0.0,0.0,0.0,0.338091143365,0.0704097317647,0.2676814116,0.40850087513,0.0704097317647,0.337332590638,27,1.0,0.0870912575778,-1.0,nan,nan,nan,nan,0.0,0.0,0.0,nan,169.794213256,404.906174877,405.406232752,405.206066711,nan,nan,nan,nan
1,190,1,1,1.0,1.0,0.323701207992,0,0.0,0.0,0.0,0.337889030618,0.0702778750799,0.267611155538,0.408166905698,0.0702778750799,0.323851834983,251,0.535576518695,0.236509187076,0.655284151108,nan,nan,nan,nan,0.0,0.0,0.0,nan,169.794213256,405.90632997,406.40634451,406.230031178,nan,nan,nan,nan
1,191,1,1,1.0,1.0,0.283572264481,0,0.0,0.0,0.0,0.337814357867,0.0701002065856,0.267714151281,0.407914564453,0.0701002065856,0.30238843554,300,0.0433537089178,0.395748422077,0.528951029102,nan,nan,nan,nan,0.0,0.0,0.0,nan,169.794213256,406.906457694,407.406487629,407.190029958,nan,nan,nan,nan
1,192,1,1,1.0,1.0,0.267422042787,0,0.0,0.0,0.0,0.337530367849,0.070025956426,0.267504411423,0.407556324275,0.070025956426,0.291565171753,199,1.0,-0.0246761787097,0.468786302982,nan,nan,nan,nan,0.0,0.0,0.0,nan,169.794213256,407.906578861,408.406604234,408.174000903,nan,nan,nan,nan
1,193,1,1,1.0,1.0,0.291260497179,0,0.0,0.0,0.0,0.337165220323,0.0700254336562,0.267139786667,0.407190653979,0.0700254336562,0.280751601482,470,0.497741612616,0.357740777197,-1.0,nan,nan,nan,nan,0.0,0.0,0.0,nan,169.794213256,408.906701168,409.406748494,409.197961665,nan,nan,nan,nan
1,194,1,1,1.0,1.0,0.299110665917,0,0.0,0.0,0.0,0.336927372016,0.0699214995113,0.267005872505,0.406848871528,0.0699214995113,0.285931068628,80,1.0,-0.189075709245,-0.708965549488,nan,nan,nan,nan,0.0,0.0,0.0,nan,169.794213256,409.906834023,410.406867379,410.205944689,nan,nan,nan,nan
1,195,1,1,1.0,1.0,0.298979520798,0,0.0,0.0,0.0,0.336732440542,0.0697936146652,0.266938825877,0.406526055207,0.0697936146652,0.296450227965,238,0.675741828754,0.178727669763,0.638511091232,nan,nan,nan,nan,0.0,0.0,0.0,nan,169.794213256,410.906965453,411.406976572,411.205944974,nan,nan,nan,nan
1,196,1,1,1.0,1.0,0.264865570702,0,0.0,0.0,0.0,0.336538835825,0.0696666351929,0.266872200632,0.406205471018,0.0696666351929,0.287651919139,169,1.0,-0.185917379452,0.239118302078,nan,nan,nan,nan,0.0,0.0,0.0,nan,169.794213256,411.933048768,412.432111651,412.197914339,nan,nan,nan,nan
1,197,1,1,1.0,1.0,0.305675613228,0,0.0,0.0,0.0,0.336173155901,0.0696760601796,0.266497095721,0.405849216081,0.0696760601796,0.289840234909,495,0.706485112283,0.278551693791,-1.0,nan,nan,nan,nan,0.0,0.0,0.0,nan,169.794213256,412.93222341,413.432257622,413.237899023,nan,nan,nan,nan
1,198,1,1,1.0,1.0,0.433553390671,0,0.0,0.0,0.0,0.33601834604,0.0695327785892,0.266485567451,0.405551124629,0.0695327785892,0.334698191533,121,1.0,-0.310732805591,-0.229640808446,nan,nan,nan,nan,0.0,0.0,0.0,nan,169.794213256,413.932328896,414.432359972,414.365882287,nan,nan,nan,nan
1,199,1,1,1.0,1.0,0.432984905783,0,0.0,0.0,0.0,0.336510947275,0.0697007339069,0.266810213368,0.406211681182,0.0697007339069,0.390737969894,251,0.535576518695,0.236509187076,0.655284151108,nan,nan,nan,nan,0.0,0.0,0.0,nan,169.794213256,414.940862444,415.440826522,415.37384735,nan,nan,nan,nan
1,200,1,1,1.0,1.0,0.448896500282,0,0.0,1.0,0.0,0.336995741037,0.0698592458356,0.267136495201,0.406854986872,0.0698592458356,0.438478265579,97,1.0,-0.260369742894,-0.491718830742,nan,nan,nan,nan,0.0,0.0,0.0,nan,169.794213256,415.94093828,416.440953105,416.38983478,nan,nan,nan,nan
1,201,1,1,1.0,1.0,0.40075003542,1,0.0,0.0,1.0,0.337555244833,0.0701299402016,0.267425304631,0.407685185034,0.0701299402016,0.427543813828,196,1.0,-0.0413610816081,0.449130757868,-65.9343684194,155.934368419,18.1218684194,222.0,0.841778467246,0.0997291618919,0.589484691865,1.71718381532,169.794213256,416.941063723,417.441103066,417.341813758,420.499804708,421.507552526,418.766246585,420.491468448
1,202,1,1,1.0,1.0,0.513370803092,0,0.0,0.0,0.0,0.337869646776,0.0700964302229,0.267773216553,0.407966076999,0.0700964302229,0.454339112931,21,1.0,0.116713997928,-1.0,nan,nan,nan,nan,0.0,0.0,0.0,nan,169.794213256,421.708318128,422.208397956,422.221688931,nan,nan,nan,nan
1,203,1,1,1.0,1.0,0.409260490444,0,0.0,0.0,0.0,0.338738464382,0.0709993582771,0.267739106104,0.409737822659,0.0709993582771,0.441127109652,292,0.112881669716,0.376069582356,0.569261850688,nan,nan,nan,nan,0.0,0.0,0.0,nan,169.794213256,422.708452124,423.208480634,423.117712615,nan,nan,nan,nan
1,204,1,1,1.0,1.0,0.353091657627,0,0.0,1.0,0.0,0.339085863525,0.070996164809,0.268089698716,0.410082028334,0.070996164809,0.425240983721,365,-0.157962026257,0.477016591838,-0.0139196855225,nan,nan,nan,nan,0.0,0.0,0.0,nan,169.794213256,423.708592108,424.208609784,424.061683765,nan,nan,nan,nan
1,205,1,1,1.0,1.0,0.344988037366,1,0.0,0.0,1.0,0.339154519378,0.0708286959425,0.268325823436,0.409983215321,0.0708286959425,0.369113395146,473,0.522594813828,0.349396171415,-1.0,120.874510842,329.125489158,-3.45263584177,468.0,0.481236483515,0.363131620867,-1.0,1.25043249363,169.794213256,424.708707572,425.208739503,425.053695609,427.800730592,428.808203291,426.53390925,427.792396327
1,206,1,1,1.0,1.0,0.492354531772,0,0.0,0.0,0.0,0.339182975563,0.0706569008037,0.26852607476,0.409839876367,0.0706569008037,0.396811408922,167,1.0,-0.195605812978,0.221546716301,nan,nan,nan,nan,0.0,0.0,0.0,nan,169.794213256,429.009249144,429.517635582,429.501603676,nan,nan,nan,nan
1,207,1,1,1.0,1.0,0.436192826368,0,0.0,0.0,0.0,0.339926526807,0.0712846457794,0.268641881028,0.411211172587,0.0712846457794,0.424511798502,312,-0.0464483572634,0.420925197877,0.455573212045,nan,nan,nan,nan,0.0,0.0,0.0,nan,169.794213256,430.009389982,430.509414216,430.445582808,nan,nan,nan,nan
1,208,1,1,1.0,1.0,0.340063257609,0,0.0,1.0,0.0,0.340391581394,0.0714248221535,0.268966759241,0.411816403548,0.0714248221535,0.42287020525,364,-0.160194321586,0.476704516321,-0.00341124574885,nan,nan,nan,nan,0.0,0.0,0.0,nan,169.794213256,431.009528825,431.509569309,431.349592082,nan,nan,nan,nan
1,209,1,1,1.0,1.0,0.299930321984,1,0.0,0.0,1.0,0.340390002915,0.0712529246278,0.269137078287,0.411642927542,0.0712529246278,0.358728801987,213,0.929785093221,0.0521668813814,0.548906519778,-55.451632944,145.451632944,-4.31399205601,207.0,0.985653507947,0.0195431921708,0.51699622314,1.10041401908,169.794213256,432.009637447,432.509679357,432.309567769,434.951641708,435.952927499,433.834840266,434.943317421
1,210,1,1,1.0,1.0,0.469614558853,0,0.0,0.0,0.0,0.340196415925,0.0711370683478,0.269059347577,0.411333484272,0.0711370683478,0.369869379482,488,0.647907709101,0.302951493728,-1.0,nan,nan,nan,nan,0.0,0.0,0.0,nan,169.794213256,436.151849088,436.65186876,436.621463647,nan,nan,nan,nan
1,211,1,1,1.0,1.0,0.35749556357,0,0.0,0.0,0.0,0.340812692796,0.0715245591978,0.269288133598,0.412337251993,0.0715245591978,0.375680148136,206,0.994723455659,0.014051917983,0.511316161583,nan,nan,nan,nan,0.0,0.0,0.0,nan,169.794213256,437.151968829,437.651990496,437.509464392,nan,nan,nan,nan
1,212,1,1,1.0,1.0,0.317325280979,0,0.0,0.0,0.0,0.340891758534,0.0713640668706,0.269527691663,0.412255825405,0.0713640668706,0.381478467801,351,-0.175686286722,0.4701852659,0.128489978773,nan,nan,nan,nan,0.0,0.0,0.0,nan,169.794213256,438.152111663,438.652123637,438.469436944,nan,nan,nan,nan
1,213,1,1,1.0,1.0,0.325210516341,0,0.0,0.0,0.0,0.340780595904,0.0712138653044,0.2695667306,0.411994461208,0.0712138653044,0.333343786964,421,0.121471671064,0.452518040197,-0.712610339232,nan,nan,nan,nan,0.0,0.0,0.0,nan,169.794213256,439.152213728,439.652254497,439.477424244,nan,nan,nan,nan
1,214,1,1,1.0,1.0,0.309027793817,0,0.0,0.0,0.0,0.340707496939,0.0710544718267,0.269653025112,0.411761968766,0.0710544718267,0.317187863713,91,1.0,-0.237709898716,-0.562722318432,nan,nan,nan,nan,0.0,0.0,0.0,nan,169.794213256,440.152369391,440.652385357,440.461397185,nan,nan,nan,nan
1,215,1,1,1.0,1.0,0.3408934623,0,0.0,0.0,0.0,0.340559460943,0.0709211784647,0.269638282478,0.411480639408,0.0709211784647,0.325043924153,18,0.988682696815,0.131162580546,-1.0,nan,nan,nan,nan,0.0,0.0,0.0,nan,169.794213256,441.1524974,441.65251137,441.493390862,nan,nan,nan,nan
1,216,1,1,1.0,1.0,0.340757470578,0,0.0,0.0,0.0,0.340561014438,0.0707560569113,0.269804957526,0.411317071349,0.0707560569113,0.330226242232,469,0.489482198204,0.360453357602,-1.0,nan,nan,nan,nan,0.0,0.0,0.0,nan,169.794213256,442.15262769,442.652632251,442.49338516,nan,nan,nan,nan
1,217,1,1,1.0,1.0,0.324619793333,0,0.0,0.0,0.0,0.340561923957,0.0705920809936,0.269969842963,0.41115400495,0.0705920809936,0.335423575404,145,1.0,-0.281667413287,0.0150551701241,nan,nan,nan,nan,0.0,0.0,0.0,nan,169.794213256,443.152744865,443.652757409,443.477364658,nan,nan,nan,nan
1,218,1,1,1.0,1.0,0.372470041737,0,0.0,0.0,0.0,0.340488457917,0.0704375145684,0.270050943349,0.410925972485,0.0704375145684,0.345949101883,273,0.299732959835,0.319577193062,0.635038033336,nan,nan,nan,nan,0.0,0.0,0.0,nan,169.794213256,444.152874585,444.652891405,444.525344627,nan,nan,nan,nan
1,219,0,0,0.0,1.0,0.444310131483,0,0.0,0.0,0.0,0.34063516243,0.0703089956129,0.270326166817,0.410944158043,0.0703089956129,0.380466655518,496,0.714833717156,0.274923884212,-1.0,nan,nan,nan,nan,0.0,0.0,0.0,nan,169.794213256,445.153013142,445.653041082,445.597323274,nan,nan,nan,nan
1,220,1,1,1.0,1.0,0.32419442758,0,0.0,0.0,0.0,0.341108564115,0.0704956613087,0.270612902806,0.411604225424,0.0704956613087,0.380324866933,44,1.0,-0.00106984144607,-1.0,nan,nan,nan,nan,0.0,0.0,0.0,nan,169.794213256,446.153113212,446.653157687,446.477307639,nan,nan,nan,nan
1,221,1,1,1.0,1.0,0.324050738476,0,0.0,0.0,0.0,0.341031681676,0.0703444630918,0.270687218585,0.411376144768,0.0703444630918,0.36418509918,228,0.780729811514,0.1302769546,0.611433142569,nan,nan,nan,nan,0.0,0.0,0.0,nan,169.794213256,447.153239225,447.65326973,447.477289963,nan,nan,nan,nan
1,222,0,0,1.0,0.0,0.259876928758,0,0.0,0.0,0.0,0.340954844829,0.0701943847569,0.270760460072,0.411149229586,0.0701943847569,0.302707364938,314,-0.0594438881467,0.42463230952,0.441925406839,nan,nan,nan,nan,0.0,0.0,0.0,nan,169.794213256,448.153393748,448.653427104,448.413270677,nan,nan,nan,nan
1,223,1,1,1.0,1.0,0.283751305658,0,0.0,0.0,0.0,0.340589628991,0.0702462410425,0.270343387949,0.410835870034,0.0702462410425,0.289226324297,69,1.0,-0.134207199312,-0.939648005704,nan,nan,nan,nan,0.0,0.0,0.0,nan,169.794213256,449.153504366,449.653528314,449.437255671,nan,nan,nan,nan
1,224,1,1,1.0,1.0,0.275611477438,0,0.0,0.0,0.0,0.340334748617,0.0701913700737,0.270143378544,0.410526118691,0.0701913700737,0.273079903952,19,0.99625917486,0.126374530333,-1.0,nan,nan,nan,nan,0.0,0.0,0.0,nan,169.794213256,450.15361869,450.653658889,450.429230168,nan,nan,nan,nan
1,225,1,1,1.0,1.0,0.243471829686,0,1.0,0.0,0.0,0.340045805443,0.0701673109243,0.269878494518,0.410213116367,0.0701673109243,0.267611537594,169,1.0,-0.185917379452,0.239118302078,nan,nan,nan,nan,0.0,0.0,0.0,nan,169.794213256,451.153746699,451.653784902,451.397218529,nan,nan,nan,nan
1,226,1,1,1.0,1.0,0.267302872147,1,0.0,0.0,1.0,0.339616587773,0.0703053095053,0.269311278267,0.409921897278,0.0703053095053,0.262128726424,361,-0.166047812515,0.475607712818,0.0278173107143,-156.037511025,246.037511025,-7.79061397458,350.0,-0.175756816429,0.469490941964,0.138247479403,1.00040341355,169.794213256,452.153883546,452.653910915,452.421186418,455.004202912,456.014169362,453.987410651,454.995870358
1,227,1,1,1.0,1.0,0.240450933576,0,0.0,0.0,0.0,0.33929661558,0.0703135945777,0.268983021002,0.409610210157,0.0703135945777,0.250408545136,272,0.310166696092,0.316214117232,0.637281430288,nan,nan,nan,nan,0.0,0.0,0.0,nan,169.794213256,456.212741421,456.712766225,456.453192355,nan,nan,nan,nan
1,228,0,0,1.0,0.0,0.23222557595,0,0.0,0.0,0.0,0.338861172046,0.0704632808044,0.268397891242,0.409324452851,0.0704632808044,0.246659793891,472,0.51429864939,0.352212277195,-1.0,nan,nan,nan,nan,0.0,0.0,0.0,nan,169.794213256,457.212880549,457.712910484,457.445106125,nan,nan,nan,nan
1,229,1,1,1.0,1.0,0.27209764719,0,0.0,0.0,0.0,0.338393472064,0.0706608238334,0.26773264823,0.409054295897,0.0706608238334,0.248258052239,236,0.697004556276,0.169301754335,0.634065852989,nan,nan,nan,nan,0.0,0.0,0.0,nan,169.794213256,458.212992592,458.713030225,458.485090239,nan,nan,nan,nan
1,230,1,1,1.0,1.0,0.335929909255,0,0.0,0.0,0.0,0.338103970645,0.0706417558187,0.267462214826,0.408745726464,0.0706417558187,0.280084377465,289,0.140592130943,0.368073254824,0.582505265782,nan,nan,nan,nan,0.0,0.0,0.0,nan,169.794213256,459.213129439,459.713158804,459.549059349,nan,nan,nan,nan
1,231,1,1,1.0,1.0,0.447795167565,0,0.0,0.0,0.0,0.338094518204,0.0704881646344,0.26760635357,0.408582682838,0.0704881646344,0.351940908004,179,1.0,-0.13461441766,0.323204131591,nan,nan,nan,nan,0.0,0.0,0.0,nan,169.794213256,460.213261724,460.713269707,460.661056892,nan,nan,nan,nan
1,232,1,1,1.0,1.0,0.431654069107,0,0.0,0.0,0.0,0.33856941279,0.0707032040499,0.26786620874,0.40927261684,0.0707032040499,0.405126381976,248,0.568115903494,0.223728204869,0.653295769881,nan,nan,nan,nan,0.0,0.0,0.0,nan,169.794213256,461.213386598,461.713394295,461.645040667,nan,nan,nan,nan
1,233,1,1,1.0,1.0,0.455515046604,0,0.0,1.0,0.0,0.338970639757,0.0708137203216,0.268156919435,0.409784360079,0.0708137203216,0.444988094425,9,0.918933560847,0.172916688009,-1.0,nan,nan,nan,nan,0.0,0.0,0.0,nan,169.794213256,462.213508334,462.713536274,462.669023381,nan,nan,nan,nan
1,234,1,1,1.0,1.0,0.63933899533,1,0.0,0.0,1.0,0.339470830344,0.0710711291249,0.268399701219,0.410541959469,0.0710711291249,0.508836037014,153,1.0,-0.255547855702,0.0926213922694,-8.13010235416,98.1301023542,-9.44802264584,140.0,1.0,-0.294209249228,-0.0345777392028,1.81724345777,169.794213256,463.213645466,463.713697924,463.852984461,466.880759832,467.885558313,465.047157461,466.872425282
1,235,1,1,1.0,1.0,0.331678815652,0,0.0,0.0,0.0,0.340752318229,0.0735673479459,0.267184970283,0.414319666175,0.0735673479459,0.475510952529,356,-0.17284377641,0.473239407326,0.0788368070227,nan,nan,nan,nan,0.0,0.0,0.0,nan,169.794213256,468.089246167,468.589278669,468.420924983,nan,nan,nan,nan
1,236,1,1,1.0,1.0,0.339506461285,0,0.0,0.0,0.0,0.34071370758,0.0734130307328,0.267300676847,0.414126738312,0.0734130307328,0.436841424089,122,1.0,-0.311159539646,-0.219144224573,nan,nan,nan,nan,0.0,0.0,0.0,nan,169.794213256,469.089395844,469.589413805,469.428902305,nan,nan,nan,nan
1,237,1,1,1.0,1.0,0.355358185712,0,0.0,0.0,0.0,0.340708592129,0.0732573715094,0.26745122062,0.413965963639,0.0732573715094,0.342181154216,289,0.140592130943,0.368073254824,0.582505265782,nan,nan,nan,nan,0.0,0.0,0.0,nan,169.794213256,470.089514159,470.589529269,470.444872345,nan,nan,nan,nan
1,238,1,1,1.0,1.0,0.232160288841,0,0.0,0.0,0.0,0.34077040476,0.0731088238757,0.267661580885,0.413879228636,0.0731088238757,0.309008311946,378,-0.117450136118,0.478670924818,-0.154810124165,nan,nan,nan,nan,0.0,0.0,0.0,nan,169.794213256,471.148679085,471.64799542,471.380839374,nan,nan,nan,nan
1,239,0,0,1.0,0.0,0.296716699377,0,0.0,0.0,0.0,0.340314059735,0.0732925507824,0.267021508953,0.413606610518,0.0732925507824,0.294745057976,176,1.0,-0.150429669724,0.298675466069,nan,nan,nan,nan,0.0,0.0,0.0,nan,169.794213256,472.148122859,472.648161632,472.444839559,nan,nan,nan,nan
1,240,1,1,1.0,1.0,0.280586719979,0,0.0,0.0,0.0,0.340131644002,0.0731931788278,0.266938465174,0.413324822829,0.0731931788278,0.269821236065,384,-0.0924750057551,0.477945316949,-0.222479273925,nan,nan,nan,nan,0.0,0.0,0.0,nan,169.794213256,473.148214946,473.648253149,473.428801666,nan,nan,nan,nan
1,241,1,1,1.0,1.0,0.254578100983,0,0.0,0.0,0.0,0.339883540152,0.0731411741567,0.266742365995,0.413024714308,0.0731411741567,0.277293840113,495,0.706485112283,0.278551693791,-1.0,nan,nan,nan,nan,0.0,0.0,0.0,nan,169.794213256,474.206225795,474.706718444,474.460803896,nan,nan,nan,nan
1,242,0,0,0.0,1.0,0.389926866628,0,0.0,0.0,0.0,0.339529575674,0.0731949692323,0.266334606441,0.412724544906,0.0731949692323,0.308363895863,47,1.0,-0.0170755915744,-1.0,nan,nan,nan,nan,0.0,0.0,0.0,nan,169.794213256,475.206856432,475.706895205,475.596783299,nan,nan,nan,nan
1,243,1,1,1.0,1.0,0.341806915589,0,0.0,0.0,0.0,0.339737828942,0.0731150949377,0.266622734004,0.41285292388,0.0731150949377,0.328770627733,306,-0.00395437407881,0.408974006242,0.494128827808,nan,nan,nan,nan,0.0,0.0,0.0,nan,169.794213256,476.206969331,476.706977028,476.548776246,nan,nan,nan,nan
1,244,1,1,1.0,1.0,0.420291780494,0,0.0,0.0,0.0,0.339746343702,0.0729646174914,0.266781726211,0.412710961193,0.0729646174914,0.384008520904,426,0.156193047225,0.446210853967,-0.81485970128,nan,nan,nan,nan,0.0,0.0,0.0,nan,169.794213256,477.240444947,477.740441525,477.660736727,nan,nan,nan,nan
1,245,1,1,1.0,1.0,0.356199224014,0,0.0,0.0,0.0,0.340076447951,0.0729965467007,0.267079901251,0.413072994652,0.0729965467007,0.372765973366,148,1.0,-0.272695592461,0.0444264621409,nan,nan,nan,nan,0.0,0.0,0.0,nan,169.794213256,478.240532757,478.740577802,478.596731981,nan,nan,nan,nan
1,246,1,1,1.0,1.0,0.316061156802,0,0.0,0.0,0.0,0.3401422552,0.0728546740614,0.267287581139,0.412996929262,0.0728546740614,0.36418405377,390,-0.0641960347588,0.476284203309,-0.291947553613,nan,nan,nan,nan,0.0,0.0,0.0,nan,169.794213256,479.2406582,479.740696118,479.556719357,nan,nan,nan,nan
1,247,1,1,1.0,1.0,0.323888232931,0,0.0,0.0,0.0,0.340044364557,0.0727225881492,0.267321776407,0.412766952706,0.0727225881492,0.332049537916,90,1.0,-0.233635786423,-0.574971871003,nan,nan,nan,nan,0.0,0.0,0.0,nan,169.794213256,480.240809016,480.740825837,480.564697249,nan,nan,nan,nan
1,248,1,1,1.0,1.0,0.331740682013,0,0.0,0.0,0.0,0.339978955117,0.0725824777624,0.267396477354,0.412561432879,0.0725824777624,0.323896690582,381,-0.105403061426,0.478425078289,-0.188431136224,nan,nan,nan,nan,0.0,0.0,0.0,nan,169.794213256,481.240941302,481.740956412,481.572681984,nan,nan,nan,nan
1,249,1,1,1.0,1.0,0.34759383183,0,0.0,0.0,0.0,0.339945736274,0.0724378756851,0.267507860588,0.412383611959,0.0724378756851,0.334407582258,236,0.697004556276,0.169301754335,0.634065852989,nan,nan,nan,nan,0.0,0.0,0.0,nan,169.794213256,482.241069596,482.741074157,482.588663428,nan,nan,nan,nan
1,250,1,1,1.0,1.0,0.339455144014,0,0.0,0.0,0.0,0.339976451517,0.0722938899702,0.267682561547,0.412270341487,0.0722938899702,0.339596552619,288,0.150005133015,0.365331945294,0.586687239957,nan,nan,nan,nan,0.0,0.0,0.0,nan,169.794213256,483.241203022,483.741234953,483.580658166,nan,nan,nan,nan
1,251,1,1,1.0,1.0,0.363316976465,0,0.0,0.0,0.0,0.339974366287,0.0721491648158,0.267825201471,0.412123531103,0.0721491648158,0.350121984103,191,1.0,-0.0691479807067,0.414571651978,nan,nan,nan,nan,0.0,0.0,0.0,nan,169.794213256,484.241315635,484.741334167,484.604632612,nan,nan,nan,nan
1,252,1,1,1.0,1.0,0.355161183048,0,0.0,0.0,0.0,0.340067364734,0.0720203103969,0.268047054337,0.412087675131,0.0720203103969,0.352644434509,367,-0.15309091083,0.477560897992,-0.0350816338538,nan,nan,nan,nan,0.0,0.0,0.0,nan,169.794213256,485.241459895,485.741463886,485.596621078,nan,nan,nan,nan
1,253,0,0,0.0,1.0,0.491017993074,0,0.0,0.0,0.0,0.340127260838,0.0718835346021,0.268243726236,0.41201079544,0.0718835346021,0.403165384196,471,0.506014005179,0.354993781952,-1.0,nan,nan,nan,nan,0.0,0.0,0.0,nan,169.794213256,486.241565951,486.749954385,486.732583944,nan,nan,nan,nan
1,254,1,1,1.0,1.0,0.378853382077,0,0.0,0.0,0.0,0.340723666894,0.072363354743,0.268360312151,0.413087021637,0.072363354743,0.408344186066,209,0.967301840512,0.0304835193525,0.52804999659,nan,nan,nan,nan,0.0,0.0,0.0,nan,169.794213256,487.241723896,487.741713062,487.620577278,nan,nan,nan,nan
1,255,1,1,1.0,1.0,0.330732291099,0,0.0,0.0,0.0,0.340873783883,0.0722602278407,0.268613556043,0.413134011724,0.0722602278407,0.400201222083,314,-0.0594438881467,0.42463230952,0.441925406839,nan,nan,nan,nan,0.0,0.0,0.0,nan,169.794213256,488.241817122,488.74188184,488.572549413,nan,nan,nan,nan
1,256,1,1,1.0,1.0,0.282632296905,0,0.0,0.0,0.0,0.340834013323,0.0721211872421,0.268712826081,0.412955200565,0.0721211872421,0.33073932336,262,0.416452475899,0.2804144186,0.652815538838,nan,nan,nan,nan,0.0,0.0,0.0,nan,169.794213256,489.241934013,489.742001866,489.52456631,nan,nan,nan,nan
1,257,1,1,1.0,1.0,0.274369306862,0,0.0,0.0,0.0,0.340606662869,0.0720716859973,0.268534976871,0.412678348866,0.0720716859973,0.295911298289,382,-0.1011887567,0.478291136399,-0.199732273247,nan,nan,nan,nan,0.0,0.0,0.0,nan,169.794213256,490.242151257,490.742102506,490.516520564,nan,nan,nan,nan
1,258,1,1,1.0,1.0,0.266305884812,0,0.0,0.0,0.0,0.340348929966,0.0720494389262,0.26829949104,0.412398368892,0.0720494389262,0.274435829526,194,1.0,-0.0524864644427,0.435571704399,nan,nan,nan,nan,0.0,0.0,0.0,nan,169.794213256,491.242205141,491.742217685,491.508511025,nan,nan,nan,nan
1,259,1,1,1.0,1.0,0.234165382106,0,1.0,0.0,0.0,0.340061941419,0.0720567010524,0.268005240366,0.412118642471,0.0720567010524,0.25828019126,90,1.0,-0.233635786423,-0.574971871003,nan,nan,nan,nan,0.0,0.0,0.0,nan,169.794213256,492.242338281,492.742358808,492.476503663,nan,nan,nan,nan
1,260,1,1,1.0,1.0,0.266024778131,1,0.0,0.0,1.0,0.339653074394,0.0722166990666,0.267436375328,0.411869773461,0.0722166990666,0.255498681683,489,0.656284860842,0.299572439858,-1.0,111.223656503,338.776343497,-5.05178150277,482.0,0.597655625539,0.322480811492,-1.0,1.05888039805,169.794213256,493.242446334,493.742502213,493.508471112,496.151153449,497.150691591,495.075986838,496.14282061
1,261,1,1,1.0,1.0,0.293038937729,0,0.0,0.0,0.0,0.33936988864,0.0722216259473,0.267148262692,0.411591514587,0.0722216259473,0.264409699322,178,1.0,-0.139919655122,0.315097826042,nan,nan,nan,nan,0.0,0.0,0.0,nan,169.794213256,497.351314928,497.851348285,497.644353866,nan,nan,nan,nan
1,262,1,1,1.0,1.0,0.23696361715,0,0.0,0.0,0.0,0.339192375418,0.072139944319,0.267052431099,0.411332319737,0.072139944319,0.265342444337,9,0.918933560847,0.172916688009,-1.0,nan,nan,nan,nan,0.0,0.0,0.0,nan,169.794213256,498.351430108,498.851473728,498.588393725,nan,nan,nan,nan
1,263,1,1,1.0,1.0,0.252809924074,0,1.0,0.0,0.0,0.338802189317,0.0722775505356,0.266524638782,0.411079739853,0.0722775505356,0.260937492984,403,0.00657627305109,0.469456436931,-0.450524507496,nan,nan,nan,nan,0.0,0.0,0.0,nan,169.794213256,499.351573797,499.851612285,499.604383721,nan,nan,nan,nan
1,264,1,1,1.0,1.0,0.237398676109,1,0.0,0.0,1.0,0.338475222529,0.0723338837098,0.26614133882,0.410809106239,0.0723338837098,0.242390739111,467,0.473005185182,0.365775667588,-1.0,139.953257478,310.046742522,-18.3126324778,441.0,0.266287261384,0.422891888867,-1.0,1.14209959703,169.794213256,500.366954825,500.868417377,500.604353501,503.352045064,504.357763271,502.193566027,503.34371308
1,265,1,1,1.0,1.0,0.339721424971,0,0.0,0.0,0.0,0.338092356823,0.0724632595557,0.265629097268,0.410555616379,0.0724632595557,0.276643341718,299,0.0516645560415,0.393417669654,0.534378752182,nan,nan,nan,nan,0.0,0.0,0.0,nan,169.794213256,504.560557629,505.060614078,504.900279054,nan,nan,nan,nan
1,266,1,1,1.0,1.0,0.267564876936,0,0.0,0.0,0.0,0.33809850425,0.0723264761669,0.265772028083,0.410424980417,0.0723264761669,0.281561659339,351,-0.175686286722,0.4701852659,0.128489978773,nan,nan,nan,nan,0.0,0.0,0.0,nan,169.794213256,505.560703028,506.060734104,505.828267905,nan,nan,nan,nan
1,267,1,1,1.0,1.0,0.25144088408,0,0.0,0.0,0.0,0.337833340238,0.0723193332444,0.265514006993,0.410152673482,0.0723193332444,0.286242395329,480,0.580928072941,0.32870764083,-1.0,nan,nan,nan,nan,0.0,0.0,0.0,nan,169.794213256,506.560813647,507.060856411,506.812254531,nan,nan,nan,nan
1,268,0,0,1.0,0.0,0.259187562391,0,0.0,0.0,0.0,0.337509772986,0.0723764236324,0.265133349354,0.409886196619,0.0723764236324,0.259397774469,266,0.373577590308,0.295207490188,0.648113769863,nan,nan,nan,nan,0.0,0.0,0.0,nan,169.794213256,507.561024904,508.061011789,507.820212467,nan,nan,nan,nan
1,269,1,1,1.0,1.0,0.235095085576,0,0.0,0.0,0.0,0.337217525932,0.0723989271678,0.264818598764,0.4096164531,0.0723989271678,0.248574510682,399,-0.0164460389312,0.472031251936,-0.400274523968,nan,nan,nan,nan,0.0,0.0,0.0,nan,169.794213256,508.561088196,509.061109863,508.796183282,nan,nan,nan,nan
1,270,1,1,1.0,1.0,0.251000123098,0,0.0,0.0,0.0,0.336837888607,0.0725309899384,0.264306898669,0.409368878545,0.0725309899384,0.248427590355,194,1.0,-0.0524864644427,0.435571704399,nan,nan,nan,nan,0.0,0.0,0.0,nan,169.794213256,509.561192256,510.061252412,509.812192379,nan,nan,nan,nan
1,271,1,1,1.0,1.0,0.306816290133,0,0.0,0.0,0.0,0.336519970957,0.0725840790505,0.263935891907,0.409104050007,0.0725840790505,0.264303832936,256,0.481312611765,0.257047908656,0.656065722404,nan,nan,nan,nan,0.0,0.0,0.0,nan,169.794213256,510.561336801,511.061367592,510.868153091,nan,nan,nan,nan
1,272,1,1,1.0,1.0,0.258694057819,0,0.0,0.0,0.0,0.336410363279,0.07247241889,0.263937944389,0.408882782169,0.07247241889,0.272170157017,471,0.506014005179,0.354993781952,-1.0,nan,nan,nan,nan,0.0,0.0,0.0,nan,169.794213256,511.5614497,512.061497311,511.820143758,nan,nan,nan,nan
1,273,1,1,1.0,1.0,0.242540415842,0,0.0,0.0,0.0,0.336124641567,0.072491829543,0.263632812024,0.40861647111,0.072491829543,0.269350254598,226,0.801265930663,0.120208988367,0.60458276857,nan,nan,nan,nan,0.0,0.0,0.0,nan,169.794213256,512.561606789,513.061628456,512.804147204,nan,nan,nan,nan
1,274,1,1,1.0,1.0,0.242430367507,0,1.0,0.0,0.0,0.335781842206,0.0725794676772,0.263202374529,0.408361309883,0.0725794676772,0.247888280389,483,0.606025706087,0.319314454546,-1.0,nan,nan,nan,nan,0.0,0.0,0.0,nan,169.794213256,513.561730521,514.061751048,513.804160889,nan,nan,nan,nan
1,275,1,1,1.0,1.0,0.25024860492,1,0.0,0.0,1.0,0.335441143393,0.0726652758747,0.262775867518,0.408106419268,0.0726652758747,0.245073129423,326,-0.12383419111,0.444071765824,0.352223541474,-127.476179561,217.476179561,-11.7425704386,309.0,-0.0258396312562,0.415106541901,0.475305697888,1.90052167233,169.794213256,514.561853399,515.061874781,514.812102003,518.303980422,519.302295779,516.387049945,518.295660127
1,276,1,1,1.0,1.0,0.403868720401,0,0.0,0.0,0.0,0.335131352344,0.0727140794631,0.262417272881,0.407845431807,0.0727140794631,0.298849230943,112,1.0,-0.300501516081,-0.325324861792,nan,nan,nan,nan,0.0,0.0,0.0,nan,169.794213256,519.504128787,520.004190653,519.907997507,nan,nan,nan,nan
1,277,0,0,1.0,0.0,0.29135514982,0,0.0,0.0,0.0,0.335380400779,0.0726996371489,0.26268076363,0.408080037928,0.0726996371489,0.315157491714,200,1.0,-0.0191209939188,0.47515178387,nan,nan,nan,nan,0.0,0.0,0.0,nan,169.794213256,520.512630404,521.012661194,520.803985554,nan,nan,nan,nan
1,278,1,1,1.0,1.0,0.315223824698,0,0.0,0.0,0.0,0.335221464855,0.0726163128784,0.262605151977,0.407837777733,0.0726163128784,0.336815898307,262,0.416452475899,0.2804144186,0.652815538838,nan,nan,nan,nan,0.0,0.0,0.0,nan,169.794213256,521.512739596,522.012784927,521.827963421,nan,nan,nan,nan
1,279,1,1,1.0,1.0,0.299058778211,0,0.0,0.0,0.0,0.335149530898,0.0724954766961,0.262654054201,0.407645007594,0.0724954766961,0.30187925091,86,1.0,-0.21659106269,-0.625617802914,nan,nan,nan,nan,0.0,0.0,0.0,nan,169.794213256,522.512871312,523.012883286,522.81193009,nan,nan,nan,nan
1,280,1,1,1.0,1.0,0.362942357548,0,0.0,0.0,0.0,0.335020173361,0.0723975742957,0.262622599065,0.407417747657,0.0723975742957,0.325741653486,428,0.170378320166,0.443486568519,-0.86866140055,nan,nan,nan,nan,0.0,0.0,0.0,nan,169.794213256,523.512982215,524.013028685,523.875924572,nan,nan,nan,nan
1,281,1,1,1.0,1.0,0.290815744549,0,0.0,0.0,0.0,0.335119895447,0.0722873706871,0.26283252476,0.407407266135,0.0722873706871,0.317605626769,371,-0.14179360683,0.478331938097,-0.0779732583494,nan,nan,nan,nan,0.0,0.0,0.0,nan,169.794213256,524.513125619,525.013156124,524.803941363,nan,nan,nan,nan
1,282,1,1,1.0,1.0,0.314648497384,0,0.0,0.0,0.0,0.33496222943,0.0722068445797,0.26275538485,0.40716907401,0.0722068445797,0.322802199827,57,1.0,-0.0707313323512,-1.0,nan,nan,nan,nan,0.0,0.0,0.0,nan,169.794213256,525.513251632,526.013270163,525.827900129,nan,nan,nan,nan
1,283,1,1,1.0,1.0,0.370496309362,0,0.0,0.0,0.0,0.334890194919,0.072088818493,0.262801376426,0.406979013412,0.072088818493,0.325320183765,277,0.258470646878,0.33263615818,0.624824240443,nan,nan,nan,nan,0.0,0.0,0.0,nan,169.794213256,526.513379926,527.013402734,526.883876236,nan,nan,nan,nan
1,284,1,1,1.0,1.0,0.362345647998,0,0.0,0.0,0.0,0.335016011578,0.071992350436,0.263023661142,0.407008362014,0.071992350436,0.349163484915,77,1.0,-0.174593022316,-0.756267193339,nan,nan,nan,nan,0.0,0.0,0.0,nan,169.794213256,527.513513637,528.013546993,527.875859285,nan,nan,nan,nan
1,285,1,1,1.0,1.0,0.362203669269,0,0.0,0.0,0.0,0.335112242692,0.0718837226329,0.263228520059,0.406995965325,0.0718837226329,0.365015208876,187,1.0,-0.0912463489427,0.385383214542,nan,nan,nan,nan,0.0,0.0,0.0,nan,169.794213256,528.513620263,529.013652765,528.875823933,nan,nan,nan,nan
1,286,0,0,0.0,1.0,0.441966342274,0,0.0,0.0,0.0,0.335207300329,0.0717753789272,0.263431921402,0.406982679257,0.0717753789272,0.38883855318,382,-0.1011887567,0.478291136399,-0.199732273247,nan,nan,nan,nan,0.0,0.0,0.0,nan,169.794213256,529.513849767,530.013808713,529.95581611,nan,nan,nan,nan
1,287,1,1,1.0,1.0,0.361928835046,0,0.0,0.0,0.0,0.335580583693,0.0719263797179,0.263654203975,0.407506963411,0.0719263797179,0.388699615529,128,1.0,-0.310663006781,-0.156689791083,nan,nan,nan,nan,0.0,0.0,0.0,nan,169.794213256,530.513870009,531.013904506,530.875798844,nan,nan,nan,nan
1,288,1,1,1.0,1.0,0.377781128976,0,0.0,0.0,0.0,0.335672389447,0.0718177470674,0.263854642379,0.407490136514,0.0718177470674,0.393892102099,240,0.654373017221,0.188015059697,0.642463954019,nan,nan,nan,nan,0.0,0.0,0.0,nan,169.794213256,531.513996308,532.014031375,531.891777437,nan,nan,nan,nan
1,289,1,1,1.0,1.0,0.345266292803,0,0.0,0.0,0.0,0.335818600348,0.0717357315715,0.264082868776,0.407554331919,0.0717357315715,0.361658752275,286,0.169078956243,0.359734776014,0.594698705761,nan,nan,nan,nan,0.0,0.0,0.0,nan,169.794213256,532.522495359,533.022499065,532.867761652,nan,nan,nan,nan
1,290,1,1,1.0,1.0,0.321147302166,0,0.0,0.0,0.0,0.335851291325,0.0716136627243,0.264237628601,0.407464954049,0.0716136627243,0.348064907982,368,-0.150457169737,0.477793263397,-0.0457341785459,nan,nan,nan,nan,0.0,0.0,0.0,nan,169.794213256,533.522612534,534.022621657,533.843759836,nan,nan,nan,nan
1,291,1,1,1.0,1.0,0.281046867836,0,0.0,0.0,0.0,0.335800587914,0.071495280404,0.26430530751,0.407295868318,0.071495280404,0.315820154268,487,0.639529740128,0.306295026098,-1.0,nan,nan,nan,nan,0.0,0.0,0.0,nan,169.794213256,534.522716309,535.022760215,534.803763177,nan,nan,nan,nan
1,292,1,1,1.0,1.0,0.295181162655,0,0.0,0.0,0.0,0.335612430801,0.0714442192808,0.26416821152,0.407056650081,0.0714442192808,0.299125110886,299,0.0516645560415,0.393417669654,0.534378752182,nan,nan,nan,nan,0.0,0.0,0.0,nan,169.794213256,535.564541301,536.064553845,535.859722463,nan,nan,nan,nan
1,293,0,0,1.0,0.0,0.383034911938,0,0.0,0.0,0.0,0.335473967553,0.0713608796357,0.264113087918,0.406834847189,0.0713608796357,0.319754314143,497,0.723174939644,0.271260599794,-1.0,nan,nan,nan,nan,0.0,0.0,0.0,nan,169.794213256,536.564679288,537.064708653,536.9477142,nan,nan,nan,nan
1,294,1,1,1.0,1.0,0.382876682561,0,0.0,0.0,0.0,0.335636291596,0.0712929797251,0.264343311871,0.406929271321,0.0712929797251,0.353697585718,449,0.328095008353,0.407646248688,-1.0,nan,nan,nan,nan,0.0,0.0,0.0,nan,169.794213256,537.564799029,538.064810148,537.947675711,nan,nan,nan,nan
1,295,1,1,1.0,1.0,0.438749013469,0,0.0,0.0,0.0,0.335796973198,0.0712247551314,0.264572218066,0.407021728329,0.0712247551314,0.401553535989,508,0.814199817736,0.228638933499,-1.0,nan,nan,nan,nan,0.0,0.0,0.0,nan,169.794213256,538.564900239,539.06494785,539.003649252,nan,nan,nan,nan
1,296,1,1,1.0,1.0,0.366608715616,0,0.0,0.0,0.0,0.336145963165,0.0713552849102,0.264790678254,0.407501248075,0.0713552849102,0.396078137215,405,0.018463324075,0.468009379796,-0.476293327428,nan,nan,nan,nan,0.0,0.0,0.0,nan,169.794213256,539.565029388,540.065066736,539.931638104,nan,nan,nan,nan
1,297,1,1,1.0,1.0,0.326432445552,0,0.0,0.0,0.0,0.336248877869,0.0712565778421,0.264992300027,0.407505455711,0.0712565778421,0.377263391546,467,0.473005185182,0.365775667588,-1.0,nan,nan,nan,nan,0.0,0.0,0.0,nan,169.794213256,540.565199306,541.065203583,540.891631752,nan,nan,nan,nan
1,298,1,1,1.0,1.0,0.326316980645,0,0.0,0.0,0.0,0.336215825908,0.0711387889021,0.265077037006,0.40735461481,0.0711387889021,0.339786047271,251,0.535576518695,0.236509187076,0.655284151108,nan,nan,nan,nan,0.0,0.0,0.0,nan,169.794213256,541.56529852,542.065324464,541.891615501,nan,nan,nan,nan
1,299,1,1,1.0,1.0,0.334183400031,0,0.0,0.0,0.0,0.336182608307,0.0710216353839,0.265160972923,0.407204243691,0.0710216353839,0.328977608743,188,1.0,-0.0857393506835,0.392804289229,nan,nan,nan,nan,0.0,0.0,0.0,nan,169.794213256,542.56541256,543.06545732,542.89959596,nan,nan,nan,nan
1,300,1,1,1.0,1.0,0.406030332204,0,0.0,0.0,0.0,0.336175921991,0.0709028645888,0.265273057403,0.40707878658,0.0709028645888,0.355510237627,343,-0.171388175652,0.463836419185,0.204822810802,nan,nan,nan,nan,0.0,0.0,0.0,nan,169.794213256,543.565541994,544.06557307,543.971572326,nan,nan,nan,nan
1,301,1,1,1.0,1.0,0.373897241428,0,0.0,0.0,0.0,0.336408770025,0.0708990131344,0.265509756891,0.40730778316,0.0708990131344,0.371370324555,106,1.0,-0.287630069369,-0.390564445695,nan,nan,nan,nan,0.0,0.0,0.0,nan,169.794213256,544.565668292,545.065697657,544.939565534,nan,nan,nan,nan
1,302,0,0,0.0,1.0,0.501654992811,0,0.0,0.0,0.0,0.336533316442,0.0708140078364,0.265719308606,0.407347324278,0.0708140078364,0.427194188815,497,0.723174939644,0.271260599794,-1.0,nan,nan,nan,nan,0.0,0.0,0.0,nan,169.794213256,545.565862444,546.065873563,546.067517437,nan,nan,nan,nan
1,303,1,1,1.0,1.0,0.421607791912,0,0.0,0.0,0.0,0.33708007696,0.071330232425,0.265749844535,0.408410309385,0.071330232425,0.432386675384,437,0.23613482661,0.429770237144,-1.0,nan,nan,nan,nan,0.0,0.0,0.0,nan,169.794213256,546.5659226,547.065962798,546.987530392,nan,nan,nan,nan
1,304,1,1,1.0,1.0,0.325476227794,0,0.0,0.0,0.0,0.337359046316,0.0713772568128,0.265981789503,0.408736303129,0.0713772568128,0.416246337506,309,-0.0258396312562,0.415106541901,0.475305697888,nan,nan,nan,nan,0.0,0.0,0.0,nan,169.794213256,547.566043196,548.066081114,547.891519424,nan,nan,nan,nan
1,305,1,1,1.0,1.0,0.365286717191,0,0.0,0.0,0.0,0.337319958097,0.0712630115614,0.266056946536,0.408582969659,0.0712630115614,0.370790245632,49,1.0,-0.027785429985,-1.0,nan,nan,nan,nan,0.0,0.0,0.0,nan,169.794213256,548.5662,549.066209408,548.931486717,nan,nan,nan,nan
1,306,1,1,1.0,1.0,0.341151761357,0,0.0,0.0,0.0,0.337411652389,0.0711640516988,0.266247600691,0.408575704088,0.0711640516988,0.343971568781,506,0.797774742377,0.236703125255,-1.0,nan,nan,nan,nan,0.0,0.0,0.0,nan,169.794213256,549.566302635,550.066372484,549.907454396,nan,nan,nan,nan
1,307,1,1,1.0,1.0,0.349016184453,0,0.0,0.0,0.0,0.337423874968,0.071047996072,0.266375878896,0.40847187104,0.071047996072,0.351818221,432,0.199227897075,0.437687328843,-1.0,nan,nan,nan,nan,0.0,0.0,0.0,nan,169.794213256,550.56644889,551.066473979,550.915465075,nan,nan,nan,nan
1,308,0,0,0.0,1.0,0.404844325036,0,0.0,0.0,0.0,0.337461634933,0.0709352637421,0.266526371191,0.408396898676,0.0709352637421,0.365004090282,70,1.0,-0.13936984996,-0.906436913284,nan,nan,nan,nan,0.0,0.0,0.0,nan,169.794213256,551.566590869,552.066627932,551.971435194,nan,nan,nan,nan
1,309,1,1,1.0,1.0,0.292703947518,0,0.0,0.0,0.0,0.337680409901,0.0709236799296,0.266756729972,0.408604089831,0.0709236799296,0.348854819002,121,1.0,-0.310732805591,-0.229640808446,nan,nan,nan,nan,0.0,0.0,0.0,nan,169.794213256,552.566713746,553.066731137,552.859417694,nan,nan,nan,nan
1,310,1,1,1.0,1.0,0.268551030196,0,0.0,0.0,0.0,0.337534855007,0.0708548860044,0.266679969002,0.408389741011,0.0708548860044,0.322033100917,372,-0.138660017671,0.478458869494,-0.0888123791441,nan,nan,nan,nan,0.0,0.0,0.0,nan,169.794213256,553.56684204,554.066875682,553.83539307,nan,nan,nan,nan
1,311,0,0,1.0,0.0,0.18843084434,0,0.0,0.0,0.0,0.33731232654,0.0708485802956,0.266463746244,0.408160906835,0.0708485802956,0.249895274018,489,0.656284860842,0.299572439858,-1.0,nan,nan,nan,nan,0.0,0.0,0.0,nan,169.794213256,554.566971189,555.067010818,554.755402034,nan,nan,nan,nan
1,312,1,1,1.0,1.0,0.196304676123,0,0.0,0.0,0.0,0.336833607947,0.0712349952763,0.265598612671,0.408068603224,0.0712349952763,0.217762183553,39,1.0,0.0253789930673,-1.0,nan,nan,nan,nan,0.0,0.0,0.0,nan,169.794213256,555.567066127,556.067112883,555.763370803,nan,nan,nan,nan
1,313,1,1,1.0,1.0,0.324139403645,0,0.0,0.0,0.0,0.336383194704,0.0715629344744,0.26482026023,0.407946129179,0.0715629344744,0.236291641369,386,-0.0833946583454,0.477495592553,-0.245424736514,nan,nan,nan,nan,0.0,0.0,0.0,nan,169.794213256,556.567201834,557.067239752,556.891341237,nan,nan,nan,nan
1,314,0,0,1.0,0.0,0.307976352982,0,0.0,0.0,0.0,0.336344077161,0.0714518661399,0.264892211021,0.407795943301,0.0714518661399,0.27614014425,123,1.0,-0.311441137266,-0.208672863777,nan,nan,nan,nan,0.0,0.0,0.0,nan,169.794213256,557.56736548,558.067360633,557.875341833,nan,nan,nan,nan
1,315,1,1,1.0,1.0,0.387869600672,0,0.0,0.0,0.0,0.33625373409,0.0713559016677,0.264897832423,0.407609635758,0.0713559016677,0.3399951191,400,-0.0107874812989,0.471427301814,-0.412692688905,nan,nan,nan,nan,0.0,0.0,0.0,nan,169.794213256,558.567447303,559.067516582,558.955316904,nan,nan,nan,nan
1,316,1,1,1.0,1.0,0.379716658033,0,0.0,0.0,0.0,0.336417593984,0.0713016942873,0.265115899697,0.407719288272,0.0713016942873,0.358520870563,444,0.289241202529,0.417409780569,-1.0,nan,nan,nan,nan,0.0,0.0,0.0,nan,169.794213256,559.567578733,560.0676138,559.947295391,nan,nan,nan,nan
1,317,1,1,1.0,1.0,0.435613507871,0,0.0,0.0,0.0,0.336554616339,0.071230312239,0.2653243041,0.407784928578,0.071230312239,0.401066588859,209,0.967301840512,0.0304835193525,0.52804999659,nan,nan,nan,nan,0.0,0.0,0.0,nan,169.794213256,560.567705031,561.067755779,561.003318539,nan,nan,nan,nan
1,318,1,1,1.0,1.0,0.500244898722,0,0.0,1.0,0.0,0.336867104956,0.0713344865036,0.265532618452,0.408201591459,0.0713344865036,0.438525021542,328,-0.132159558243,0.44685796506,0.336046158271,nan,nan,nan,nan,0.0,0.0,0.0,nan,169.794213256,561.567834466,562.067921421,562.068079364,nan,nan,nan,nan
1,319,1,1,1.0,1.0,0.555237988476,1,0.0,0.0,1.0,0.337380871603,0.0718072500162,0.265573621587,0.409188121619,0.0718072500162,0.497032131689,204,1.0,0.00303256528985,0.499654420455,-27.9999055464,117.999905546,-25.4375944536,168.0,1.0,-0.190790017254,0.230361799274,3.10902511375,169.794213256,562.567981006,563.068045723,563.123218994,567.526902116,568.535096112,564.40150526,567.518569847
1,320,1,1,1.0,1.0,0.41168524744,0,0.0,0.0,0.0,0.338063809273,0.0727216177773,0.265342191496,0.410785427051,0.0727216177773,0.489056044879,384,-0.0924750057551,0.477945316949,-0.222479273925,nan,nan,nan,nan,0.0,0.0,0.0,nan,169.794213256,568.735441195,569.235451458,569.147126442,nan,nan,nan,nan
1,321,1,1,1.0,1.0,0.483557838481,0,0.0,0.0,0.0,0.338293876268,0.0727240831433,0.265569793124,0.411017959411,0.0727240831433,0.483493691466,457,0.391639248186,0.390358177281,-1.0,nan,nan,nan,nan,0.0,0.0,0.0,nan,169.794213256,569.735566923,570.235576616,570.219124761,nan,nan,nan,nan
1,322,1,1,1.0,1.0,0.515387014952,0,0.0,1.0,0.0,0.338746411975,0.0730605818622,0.265685830113,0.411806993838,0.0730605818622,0.470210033624,215,0.910639861846,0.0628947364355,0.558695148714,nan,nan,nan,nan,0.0,0.0,0.0,nan,169.794213256,570.735690655,571.23576307,571.25107767,nan,nan,nan,nan
1,323,1,1,1.0,1.0,0.523257139605,1,0.0,0.0,1.0,0.339294985277,0.0736061875011,0.265688797775,0.412901172778,0.0736061875011,0.507400664346,25,1.0,0.0970682892709,-1.0,74.9875650881,15.0124349119,-2.56569008809,21.0,1.0,0.116713997928,-1.0,1.10879247356,169.794213256,571.735798708,572.235881671,572.259055847,574.686144075,575.695332778,573.561007228,574.67780867
1,324,1,1,1.0,1.0,0.268298718613,0,0.0,0.0,0.0,0.33986452755,0.0741993739173,0.265665153633,0.414063901467,0.0741993739173,0.43564762439,362,-0.164239727892,0.476000155386,0.0174578511848,nan,nan,nan,nan,0.0,0.0,0.0,nan,169.794213256,575.89468515,576.394706247,576.162983868,nan,nan,nan,nan
1,325,1,1,1.0,1.0,0.284151868429,0,0.0,0.0,0.0,0.339643645424,0.0741910606446,0.265452584779,0.413834706068,0.0741910606446,0.358569242215,8,0.91102658764,0.177400941622,-1.0,nan,nan,nan,nan,0.0,0.0,0.0,nan,169.794213256,576.894814869,577.39483283,577.178966737,nan,nan,nan,nan
1,326,1,1,1.0,1.0,0.292035107967,0,0.0,0.0,0.0,0.339472901494,0.0741405615096,0.265332339985,0.413613463004,0.0741405615096,0.281495231669,434,0.213881816697,0.43461034373,-1.0,nan,nan,nan,nan,0.0,0.0,0.0,nan,169.794213256,577.894944304,578.394957988,578.186979412,nan,nan,nan,nan
1,327,1,1,1.0,1.0,0.243903468363,0,0.0,0.0,0.0,0.33932738679,0.0740732283831,0.265254158407,0.413400615173,0.0740732283831,0.273363481586,269,0.34171296506,0.305888347675,0.643262349404,nan,nan,nan,nan,0.0,0.0,0.0,nan,169.794213256,578.895060909,579.395099967,579.138964377,nan,nan,nan,nan
1,328,1,1,1.0,1.0,0.235734560061,0,1.0,0.0,0.0,0.339035570526,0.0741473190404,0.264888251486,0.413182889566,0.0741473190404,0.257224378797,25,1.0,0.0970682892709,-1.0,nan,nan,nan,nan,0.0,0.0,0.0,nan,169.794213256,579.895200606,580.395226265,580.130935166,nan,nan,nan,nan
1,329,1,1,1.0,1.0,0.29963667132,1,0.0,0.0,1.0,0.338720628421,0.0742529319872,0.264467696434,0.412973560408,0.0742529319872,0.259758233248,277,0.258470646878,0.33263615818,0.624824240443,-93.5923298462,183.592329846,-11.1732951538,261.0,0.427225806086,0.276617811781,0.653674462902,1.55047685467,169.794213256,580.895302671,581.395360546,581.194939343,584.279035503,585.289188977,582.712171225,584.270703804
1,330,0,0,1.0,0.0,0.371239845175,0,0.0,0.0,0.0,0.338601832199,0.074171210522,0.264430621677,0.412773042721,0.074171210522,0.302203692185,125,1.0,-0.311567427947,-0.187805059354,nan,nan,nan,nan,0.0,0.0,0.0,nan,169.794213256,585.487593113,585.987621908,585.858832958,nan,nan,nan,nan
1,331,1,1,1.0,1.0,0.323100507259,0,0.0,0.0,0.0,0.338700735268,0.0740804689146,0.264620266354,0.412781204183,0.0740804689146,0.331325674585,250,0.546428449327,0.232286661223,0.654747725831,nan,nan,nan,nan,0.0,0.0,0.0,nan,169.794213256,586.487704872,586.987721692,586.810805379,nan,nan,nan,nan
1,332,0,0,0.0,1.0,0.386960993987,0,0.0,0.0,0.0,0.33865360467,0.0739734350637,0.264680169607,0.412627039734,0.0739734350637,0.36043378214,29,1.0,0.0770173926463,-1.0,nan,nan,nan,nan,0.0,0.0,0.0,nan,169.794213256,587.48783117,587.98787479,587.874792164,nan,nan,nan,nan
1,333,1,1,1.0,1.0,0.322815409396,0,0.0,0.0,0.0,0.338799108855,0.07390936825,0.264889740605,0.412708477105,0.07390936825,0.344292303547,401,-0.00506340639596,0.470796889516,-0.425203102762,nan,nan,nan,nan,0.0,0.0,0.0,nan,169.794213256,588.487961459,588.987992535,588.810776869,nan,nan,nan,nan
1,334,1,1,1.0,1.0,0.402684139088,0,0.0,0.0,0.0,0.338751109757,0.0738034919636,0.264947617794,0.412554601721,0.0738034919636,0.370820180823,146,1.0,-0.278792578557,0.0248813210997,nan,nan,nan,nan,0.0,0.0,0.0,nan,169.794213256,589.488081771,589.988109425,589.89076591,nan,nan,nan,nan
1,335,1,1,1.0,1.0,0.34654039517,0,0.0,0.0,0.0,0.338942526013,0.0737756623633,0.26516686365,0.412718188376,0.0737756623633,0.357346647885,366,-0.155593376329,0.477302029306,-0.0244766492797,nan,nan,nan,nan,0.0,0.0,0.0,nan,169.794213256,590.488200657,590.988235153,590.834741052,nan,nan,nan,nan
1,336,1,1,1.0,1.0,0.346403833013,0,0.0,0.0,0.0,0.338965206219,0.0736666332572,0.265298572962,0.412631839477,0.0736666332572,0.365209455757,155,1.0,-0.2479831371,0.111611878621,nan,nan,nan,nan,0.0,0.0,0.0,nan,169.794213256,591.488331802,591.988373141,591.834735635,nan,nan,nan,nan
1,337,1,1,1.0,1.0,0.362189129461,0,0.0,0.0,0.0,0.33898734499,0.0735580446837,0.265429300306,0.412545389673,0.0735580446837,0.351711119215,268,0.35230222188,0.302367520405,0.645005310408,nan,nan,nan,nan,0.0,0.0,0.0,nan,169.794213256,592.488498013,592.988486895,592.850687143,nan,nan,nan,nan
1,338,1,1,1.0,1.0,0.31414729543,0,0.0,0.0,0.0,0.339056193015,0.0734596681864,0.265596524828,0.412515861201,0.0734596681864,0.340913419301,364,-0.160194321586,0.476704516321,-0.00341124574885,nan,nan,nan,nan,0.0,0.0,0.0,nan,169.794213256,593.488577556,593.988615474,593.802724851,nan,nan,nan,nan
1,339,1,1,1.0,1.0,0.264623807743,0,0.0,0.0,0.0,0.338982498051,0.073363394327,0.265619103724,0.412345892378,0.073363394327,0.313653410878,200,1.0,-0.0191209939188,0.47515178387,nan,nan,nan,nan,0.0,0.0,0.0,nan,169.794213256,594.522080827,595.022089379,594.786704634,nan,nan,nan,nan
1,340,1,1,1.0,1.0,0.360467138235,0,0.0,0.0,0.0,0.338763150882,0.073366022262,0.26539712862,0.412129173144,0.073366022262,0.313079413803,6,0.895129075663,0.186272780825,-1.0,nan,nan,nan,nan,0.0,0.0,0.0,nan,169.794213256,595.522170918,596.022210261,595.882638056,nan,nan,nan,nan
1,341,1,1,1.0,1.0,0.400275632739,0,0.0,0.0,0.0,0.338826986139,0.0732674793446,0.265559506795,0.412094465484,0.0732674793446,0.341788859572,60,1.0,-0.0867837676833,-1.0,nan,nan,nan,nan,0.0,0.0,0.0,nan,169.794213256,596.522348818,597.022334564,596.922624451,nan,nan,nan,nan
1,342,1,1,1.0,1.0,0.26412175037,0,0.0,0.0,0.0,0.339007187449,0.0732353868417,0.265771800607,0.412242574291,0.0732353868417,0.341621507114,194,1.0,-0.0524864644427,0.435571704399,nan,nan,nan,nan,0.0,0.0,0.0,nan,169.794213256,597.522477683,598.022474832,597.786599433,nan,nan,nan,nan
1,343,1,1,1.0,1.0,0.258880797308,0,0.0,0.0,0.0,0.338788224183,0.0732399384264,0.265548285756,0.412028162609,0.0732399384264,0.307759393472,366,-0.155593376329,0.477302029306,-0.0244766492797,nan,nan,nan,nan,0.0,0.0,0.0,nan,169.794213256,598.551727864,599.05592707,598.810608661,nan,nan,nan,nan
1,344,1,1,1.0,1.0,0.294891218189,0,0.0,0.0,0.0,0.338555257924,0.0732598887491,0.265295369175,0.411815146673,0.0732598887491,0.272631255289,150,1.0,-0.266152531622,0.0638227105866,nan,nan,nan,nan,0.0,0.0,0.0,nan,169.794213256,599.547684607,600.047726516,599.842575825,nan,nan,nan,nan
1,345,1,1,1.0,1.0,0.334757871926,0,0.0,0.0,0.0,0.338428327575,0.0731910903248,0.265237237251,0.4116194179,0.0731910903248,0.296176629141,488,0.647907709101,0.302951493728,-1.0,nan,nan,nan,nan,0.0,0.0,0.0,nan,169.794213256,600.547815752,601.047856236,600.882573624,nan,nan,nan,nan
1,346,1,1,1.0,1.0,0.374594591092,0,0.0,0.0,0.0,0.338417688574,0.073085205684,0.26533248289,0.411502894258,0.073085205684,0.334747893736,140,1.0,-0.294209249228,-0.0345777392028,nan,nan,nan,nan,0.0,0.0,0.0,nan,169.794213256,601.547960581,602.047979113,601.922555172,nan,nan,nan,nan
1,347,1,1,1.0,1.0,0.374457173981,0,0.0,0.0,0.0,0.338522246095,0.073005350598,0.265516895497,0.411527596693,0.073005350598,0.361269879,235,0.707591924495,0.164537776567,0.631659631194,nan,nan,nan,nan,0.0,0.0,0.0,nan,169.794213256,602.548086024,603.048109117,602.922543198,nan,nan,nan,nan
1,348,1,1,1.0,1.0,0.276002916973,0,0.0,0.0,0.0,0.338625804965,0.0729255255173,0.265700279448,0.411551330483,0.0729255255173,0.341684894015,469,0.489482198204,0.360453357602,-1.0,nan,nan,nan,nan,0.0,0.0,0.0,nan,169.794213256,603.590516848,604.089926411,603.866519765,nan,nan,nan,nan
1,349,1,1,1.0,1.0,0.300509640947,0,0.0,0.0,0.0,0.338445854138,0.0728977841975,0.26554806994,0.411343638335,0.0728977841975,0.316989910634,253,0.513865899396,0.244839928328,0.655977188727,nan,nan,nan,nan,0.0,0.0,0.0,nan,169.794213256,604.589995404,605.09004045,604.890505045,nan,nan,nan,nan
1,350,1,1,1.0,1.0,0.284349156078,0,0.0,0.0,0.0,0.338337154387,0.0728215089933,0.265515645393,0.41115866338,0.0728215089933,0.286953904666,400,-0.0107874812989,0.471427301814,-0.412692688905,nan,nan,nan,nan,0.0,0.0,0.0,nan,169.794213256,605.590125694,606.090171025,605.87447485,nan,nan,nan,nan
1,351,0,0,1.0,0.0,0.308179342654,0,0.0,0.0,0.0,0.338182902963,0.0727744787347,0.265408424228,0.410957381697,0.0727744787347,0.297679379893,40,1.0,0.0201165467467,-1.0,nan,nan,nan,nan,0.0,0.0,0.0,nan,169.794213256,606.59028706,607.090319846,606.898466402,nan,nan,nan,nan
1,352,1,1,1.0,1.0,0.307944992092,0,0.0,0.0,0.0,0.338097422734,0.0726883311469,0.265409091587,0.410785753881,0.0726883311469,0.300157830274,228,0.780729811514,0.1302769546,0.611433142569,nan,nan,nan,nan,0.0,0.0,0.0,nan,169.794213256,607.590500883,608.090425617,607.898445875,nan,nan,nan,nan
1,353,1,1,1.0,1.0,0.331912880763,0,0.0,0.0,0.0,0.33801176242,0.07260274654,0.26540901588,0.41061450896,0.07260274654,0.31601240517,482,0.597655625539,0.322480811492,-1.0,nan,nan,nan,nan,0.0,0.0,0.0,nan,169.794213256,608.590509721,609.090539086,608.922422602,nan,nan,nan,nan
1,354,1,1,1.0,1.0,0.339785002172,0,0.0,0.0,0.0,0.337994485134,0.0725005614982,0.265493923636,0.410495046633,0.0725005614982,0.326547625009,342,-0.170052622031,0.462913557708,0.21407524247,nan,nan,nan,nan,0.0,0.0,0.0,nan,169.794213256,609.590636875,610.090677073,609.930421877,nan,nan,nan,nan
1,355,1,1,1.0,1.0,0.379629988689,0,0.0,0.0,0.0,0.337999543092,0.072398149524,0.265601393568,0.410397692616,0.072398149524,0.350442623875,176,1.0,-0.150429669724,0.298675466069,nan,nan,nan,nan,0.0,0.0,0.0,nan,169.794213256,610.590761747,611.09079824,610.970391736,nan,nan,nan,nan
1,356,1,1,1.0,1.0,0.4034815575,0,0.0,0.0,0.0,0.338116811953,0.0723297690519,0.265787042901,0.410446581005,0.0723297690519,0.374298849454,98,1.0,-0.263822910468,-0.480217789416,nan,nan,nan,nan,0.0,0.0,0.0,nan,169.794213256,611.590888331,612.090924823,611.994369888,nan,nan,nan,nan
1,357,1,1,1.0,1.0,0.363311559428,0,0.0,0.0,0.0,0.338300420789,0.0723109108695,0.265989509919,0.410611331658,0.0723109108695,0.382141035205,404,0.0124894593597,0.468746268022,-0.463349101315,nan,nan,nan,nan,0.0,0.0,0.0,nan,169.794213256,612.591015485,613.091054258,612.954327044,nan,nan,nan,nan
