block,trial,freq_trials,correct_response,actual_response,acc,rts,probe_trials,trials_colorind0,trials_colorind1,trials_colorind2,trials_colorind3,trials_colorind4,trials_colorind5,wholereport_resp0,wholereport_resp1,wholereport_resp2,wholereport_resp3,wholereport_resp4,wholereport_resp5,wholereport_respacc0,wholereport_respacc1,wholereport_respacc2,wholereport_respacc3,wholereport_respacc4,wholereport_respacc5,wholereport_respacc_total,wholereport_respcolorind0,wholereport_respcolorind1,wholereport_respcolorind2,wholereport_respcolorind3,wholereport_respcolorind4,wholereport_respcolorind5,wholereport_resporder0,wholereport_resporder1,wholereport_resporder2,wholereport_resporder3,wholereport_resporder4,wholereport_resporder5,wholereport_rts0,wholereport_rts1,wholereport_rts2,wholereport_rts3,wholereport_rts4,wholereport_rts5,time_blockstart,time_encarray_offset,time_encarray_onset,time_response,time_iti_offset,time_iti_onset,time_memprobe_offset,time_memprobe_onset
1,1,1,1,1.0,1.0,0.36907708924263716,0.0,6,5,0,4,8,3,nan,nan,nan,nan,nan,nan,nan,nan,nan,nan,nan,nan,0.0,nan,nan,nan,nan,nan,nan,nan,nan,nan,nan,nan,nan,nan,nan,nan,nan,nan,nan,171.69776515872218,172.7206464158371,nan,173.08972350507975,nan,nan,nan,nan
1,2,1,1,1.0,1.0,0.3365821004845202,0.0,5,2,4,1,8,0,nan,nan,nan,nan,nan,nan,nan,nan,nan,nan,nan,nan,0.0,nan,nan,nan,nan,nan,nan,nan,nan,nan,nan,nan,nan,nan,nan,nan,nan,nan,nan,171.69776515872218,173.729152263375,nan,174.06573436385952,nan,nan,nan,nan
1,3,1,1,1.0,1.0,0.3841296024620533,0.0,7,0,8,4,2,3,nan,nan,nan,nan,nan,nan,nan,nan,nan,nan,nan,nan,0.0,nan,nan,nan,nan,nan,nan,nan,nan,nan,nan,nan,nan,nan,nan,nan,nan,nan,nan,171.69776515872218,174.737545782933,nan,175.12167538539506,nan,nan,nan,nan
1,4,1,1,1.0,1.0,0.3756764978170395,0.0,8,1,2,0,7,6,nan,nan,nan,nan,nan,nan,nan,nan,nan,nan,nan,nan,0.0,nan,nan,nan,nan,nan,nan,nan,nan,nan,nan,nan,nan,nan,nan,nan,nan,nan,nan,171.69776515872218,175.74598976434208,nan,176.12166626215912,nan,nan,nan,nan
1,5,0,0,0.0,1.0,0.44716524495743215,0.0,5,7,0,1,3,4,nan,nan,nan,nan,nan,nan,nan,nan,nan,nan,nan,nan,0.0,nan,nan,nan,nan,nan,nan,nan,nan,nan,nan,nan,nan,nan,nan,nan,nan,nan,nan,171.69776515872218,176.75444429460913,nan,177.20160953956656,nan,nan,nan,nan
1,6,1,1,1.0,1.0,0.42269201041199267,0.0,8,5,6,4,1,7,nan,nan,nan,nan,nan,nan,nan,nan,nan,nan,nan,nan,0.0,nan,nan,nan,nan,nan,nan,nan,nan,nan,nan,nan,nan,nan,nan,nan,nan,nan,nan,171.69776515872218,177.76290310104378,nan,178.18559511145577,nan,nan,nan,nan
1,7,1,1,1.0,1.0,0.3581952494569123,0.0,3,4,8,7,2,0,nan,nan,nan,nan,nan,nan,nan,nan,nan,nan,nan,nan,0.0,nan,nan,nan,nan,nan,nan,nan,nan,nan,nan,nan,nan,nan,nan,nan,nan,nan,nan,171.69776515872218,178.77135848649777,nan,179.1295537359547,nan,nan,nan,nan
1,8,1,1,1.0,1.0,0.38974229292944074,0.0,5,1,6,0,7,3,nan,nan,nan,nan,nan,nan,nan,nan,nan,nan,nan,nan,0.0,nan,nan,nan,nan,nan,nan,nan,nan,nan,nan,nan,nan,nan,nan,nan,nan,nan,nan,171.69776515872218,179.77981130615808,nan,180.16955359908752,nan,nan,nan,nan
1,9,1,1,1.0,1.0,0.39724916289560497,0.0,3,2,0,8,1,4,nan,nan,nan,nan,nan,nan,nan,nan,nan,nan,nan,nan,0.0,nan,nan,nan,nan,nan,nan,nan,nan,nan,nan,nan,nan,nan,nan,nan,nan,nan,nan,171.69776515872218,180.788272108417,nan,181.1855212713126,nan,nan,nan,nan
1,10,1,1,1.0,1.0,0.38877781201153994,0.0,7,6,4,2,3,8,nan,nan,nan,nan,nan,nan,nan,nan,nan,nan,nan,nan,0.0,nan,nan,nan,nan,nan,nan,nan,nan,nan,nan,nan,nan,nan,nan,nan,nan,nan,nan,171.69776515872218,181.79672378767282,nan,182.18550159968436,nan,nan,nan,nan
1,11,1,1,1.0,1.0,0.40429047076031566,0.0,0,7,3,1,8,4,nan,nan,nan,nan,nan,nan,nan,nan,nan,nan,nan,nan,0.0,nan,nan,nan,nan,nan,nan,nan,nan,nan,nan,nan,nan,nan,nan,nan,nan,nan,nan,171.69776515872218,182.8051817389205,nan,183.20947220968083,nan,nan,nan,nan
1,12,1,1,1.0,1.0,0.5238558587152511,0.0,8,0,6,2,7,5,nan,nan,nan,nan,nan,nan,nan,nan,nan,nan,nan,nan,0.0,nan,nan,nan,nan,nan,nan,nan,nan,nan,nan,nan,nan,nan,nan,nan,nan,nan,nan,171.69776515872218,183.81363569875248,nan,184.33749155746773,nan,nan,nan,nan
1,13,1,1,1.0,1.0,0.5633057712111622,0.0,6,2,7,8,3,4,nan,nan,nan,nan,nan,nan,nan,nan,nan,nan,nan,nan,0.0,nan,nan,nan,nan,nan,nan,nan,nan,nan,nan,nan,nan,nan,nan,nan,nan,nan,nan,171.69776515872218,184.82212615106255,nan,185.3854319222737,nan,nan,nan,nan
1,14,1,1,1.0,1.0,0.514875611057505,0.0,3,5,8,2,4,1,nan,nan,nan,nan,nan,nan,nan,nan,nan,nan,nan,nan,0.0,nan,nan,nan,nan,nan,nan,nan,nan,nan,nan,nan,nan,nan,nan,nan,nan,nan,nan,171.69776515872218,185.8305441888515,nan,186.345419799909,nan,nan,nan,nan
1,15,0,0,nan,nan,nan,0.0,5,4,0,3,1,8,nan,nan,nan,nan,nan,nan,nan,nan,nan,nan,nan,nan,0.0,nan,nan,nan,nan,nan,nan,nan,nan,nan,nan,nan,nan,nan,nan,nan,nan,nan,nan,171.69776515872218,186.83903321577236,nan,nan,nan,nan,nan,nan
1,16,1,1,1.0,1.0,0.6019306150265038,0.0,3,7,2,0,4,1,nan,nan,nan,nan,nan,nan,nan,nan,nan,nan,nan,nan,0.0,nan,nan,nan,nan,nan,nan,nan,nan,nan,nan,nan,nan,nan,nan,nan,nan,nan,nan,171.69776515872218,187.8474640827626,nan,188.4493946977891,nan,nan,nan,nan
1,17,1,1,1.0,1.0,0.4253627920988947,0.0,1,2,3,5,7,6,nan,nan,nan,nan,nan,nan,nan,nan,nan,nan,nan,nan,0.0,nan,nan,nan,nan,nan,nan,nan,nan,nan,nan,nan,nan,nan,nan,nan,nan,nan,nan,171.69776515872218,188.85595567547716,nan,189.28131846757606,nan,nan,nan,nan
1,18,1,1,1.0,1.0,0.3609187740366906,0.0,2,8,7,1,3,0,nan,nan,nan,nan,nan,nan,nan,nan,nan,nan,nan,nan,0.0,nan,nan,nan,nan,nan,nan,nan,nan,nan,nan,nan,nan,nan,nan,nan,nan,nan,nan,171.69776515872218,189.86439880169928,nan,190.22531757573597,nan,nan,nan,nan
1,19,1,1,1.0,1.0,0.40841552894562483,0.0,1,6,2,3,5,4,nan,nan,nan,nan,nan,nan,nan,nan,nan,nan,nan,nan,0.0,nan,nan,nan,nan,nan,nan,nan,nan,nan,nan,nan,nan,nan,nan,nan,nan,nan,nan,171.69776515872218,190.87287157797255,nan,191.28128710691817,nan,nan,nan,nan
1,20,1,1,1.0,1.0,0.35195734282024205,0.0,2,7,5,0,6,8,nan,nan,nan,nan,nan,nan,nan,nan,nan,nan,nan,nan,0.0,nan,nan,nan,nan,nan,nan,nan,nan,nan,nan,nan,nan,nan,nan,nan,nan,nan,nan,171.69776515872218,191.8812958879862,nan,192.23325323080644,nan,nan,nan,nan
1,21,1,1,1.0,1.0,0.31943184859119356,0.0,8,1,2,7,4,0,nan,nan,nan,nan,nan,nan,nan,nan,nan,nan,nan,nan,0.0,nan,nan,nan,nan,nan,nan,nan,nan,nan,nan,nan,nan,nan,nan,nan,nan,nan,nan,171.69776515872218,192.88979745912366,nan,193.20922930771485,nan,nan,nan,nan
1,22,0,0,0.0,1.0,0.390996431466192,0.0,3,2,4,6,0,1,nan,nan,nan,nan,nan,nan,nan,nan,nan,nan,nan,nan,0.0,nan,nan,nan,nan,nan,nan,nan,nan,nan,nan,nan,nan,nan,nan,nan,nan,nan,nan,171.69776515872218,193.89824942336418,nan,194.28924585483037,nan,nan,nan,nan
1,23,1,1,1.0,1.0,0.39850045065395534,0.0,4,6,5,3,2,8,nan,nan,nan,nan,nan,nan,nan,nan,nan,nan,nan,nan,0.0,nan,nan,nan,nan,nan,nan,nan,nan,nan,nan,nan,nan,nan,nan,nan,nan,nan,nan,171.69776515872218,194.90670623420738,nan,195.30520668486133,nan,nan,nan,nan
1,24,1,1,1.0,1.0,0.3180248986463994,0.0,1,2,7,8,4,3,nan,nan,nan,nan,nan,nan,nan,nan,nan,nan,nan,nan,0.0,nan,nan,nan,nan,nan,nan,nan,nan,nan,nan,nan,nan,nan,nan,nan,nan,nan,nan,171.69776515872218,195.91516361525282,nan,196.23318851389922,nan,nan,nan,nan
1,25,1,1,1.0,1.0,0.26957649225369096,0.0,4,7,0,3,5,1,nan,nan,nan,nan,nan,nan,nan,nan,nan,nan,nan,nan,0.0,nan,nan,nan,nan,nan,nan,nan,nan,nan,nan,nan,nan,nan,nan,nan,nan,nan,nan,171.69776515872218,196.92358792526647,nan,197.19316441752017,nan,nan,nan,nan
1,26,1,1,1.0,1.0,0.4210507108364254,0.0,6,3,1,2,4,0,nan,nan,nan,nan,nan,nan,nan,nan,nan,nan,nan,nan,0.0,nan,nan,nan,nan,nan,nan,nan,nan,nan,nan,nan,nan,nan,nan,nan,nan,nan,nan,171.69776515872218,197.9320792327635,nan,198.35312994359992,nan,nan,nan,nan
1,27,1,1,1.0,1.0,0.3485934918280691,0.0,5,7,4,1,3,2,nan,nan,nan,nan,nan,nan,nan,nan,nan,nan,nan,nan,0.0,nan,nan,nan,nan,nan,nan,nan,nan,nan,nan,nan,nan,nan,nan,nan,nan,nan,nan,171.69776515872218,198.94052064837888,nan,199.28911414020695,nan,nan,nan,nan
1,28,1,1,1.0,1.0,0.3561111956369132,0.0,0,5,6,2,4,8,nan,nan,nan,nan,nan,nan,nan,nan,nan,nan,nan,nan,0.0,nan,nan,nan,nan,nan,nan,nan,nan,nan,nan,nan,nan,nan,nan,nan,nan,nan,nan,171.69776515872218,199.94899199926294,nan,200.30510319489986,nan,nan,nan,nan
1,29,1,1,1.0,1.0,0.3795940058771521,0.0,5,6,7,4,3,2,nan,nan,nan,nan,nan,nan,nan,nan,nan,nan,nan,nan,0.0,nan,nan,nan,nan,nan,nan,nan,nan,nan,nan,nan,nan,nan,nan,nan,nan,nan,nan,171.69776515872218,200.95744966552593,nan,201.33704367140308,nan,nan,nan,nan
1,30,1,1,1.0,1.0,0.34716430422849953,0.0,3,4,0,2,6,8,nan,nan,nan,nan,nan,nan,nan,nan,nan,nan,nan,nan,0.0,nan,nan,nan,nan,nan,nan,nan,nan,nan,nan,nan,nan,nan,nan,nan,nan,nan,nan,171.69776515872218,201.96586713311262,nan,202.31303143734112,nan,nan,nan,nan
1,31,1,1,1.0,1.0,0.3387003659736365,0.0,0,1,8,4,2,5,nan,nan,nan,nan,nan,nan,nan,nan,nan,nan,nan,nan,0.0,nan,nan,nan,nan,nan,nan,nan,nan,nan,nan,nan,nan,nan,nan,nan,nan,nan,nan,171.69776515872218,202.97432223334908,nan,203.31302259932272,nan,nan,nan,nan
1,32,1,1,1.0,1.0,0.27419305639341474,0.0,8,4,7,2,3,0,nan,nan,nan,nan,nan,nan,nan,nan,nan,nan,nan,nan,0.0,nan,nan,nan,nan,nan,nan,nan,nan,nan,nan,nan,nan,nan,nan,nan,nan,nan,nan,171.69776515872218,203.9828141112812,nan,204.2570071676746,nan,nan,nan,nan
1,33,0,0,0.0,1.0,0.5537051539868116,1.0,0,5,8,3,7,6,1.0,1.0,1.0,1.0,1.0,1.0,1.0,0.0,1.0,0.0,0.0,1.0,3.0,0.0,1.0,8.0,5.0,4.0,6.0,5.0,2.0,1.0,3.0,4.0,6.0,14.925530856242403,7.894302550237626,3.429085294250399,9.46934174397029,13.97401318908669,15.668685908429325,171.69776515872218,204.99125809269026,205.79967595962808,205.54496324667707,222.51838999288157,223.5187118665781,206.80815044650808,222.5100554882083
1,34,1,1,1.0,1.0,0.32162395399063826,0.0,8,0,5,6,1,2,nan,nan,nan,nan,nan,nan,nan,nan,nan,nan,nan,nan,0.0,nan,nan,nan,nan,nan,nan,nan,nan,nan,nan,nan,nan,nan,nan,nan,nan,nan,nan,171.69776515872218,223.72690399410203,nan,224.04852794809267,nan,nan,nan,nan
1,35,1,1,1.0,1.0,0.361158540006727,0.0,2,1,3,7,5,8,nan,nan,nan,nan,nan,nan,nan,nan,nan,nan,nan,nan,0.0,nan,nan,nan,nan,nan,nan,nan,nan,nan,nan,nan,nan,nan,nan,nan,nan,nan,nan,171.69776515872218,224.73534997133538,nan,225.0965085113421,nan,nan,nan,nan
1,36,1,1,1.0,1.0,0.30466756760142744,0.0,5,7,6,8,2,4,nan,nan,nan,nan,nan,nan,nan,nan,nan,nan,nan,nan,0.0,nan,nan,nan,nan,nan,nan,nan,nan,nan,nan,nan,nan,nan,nan,nan,nan,nan,nan,171.69776515872218,225.7438207520172,nan,226.04848831961863,nan,nan,nan,nan
1,37,1,1,1.0,1.0,0.24820995167829096,0.0,7,6,5,2,0,8,nan,nan,nan,nan,nan,nan,nan,nan,nan,nan,nan,nan,0.0,nan,nan,nan,nan,nan,nan,nan,nan,nan,nan,nan,nan,nan,nan,nan,nan,nan,nan,171.69776515872218,226.75224933843128,nan,227.00045929010957,nan,nan,nan,nan
1,38,1,1,1.0,1.0,0.3037432855926454,0.0,5,1,7,8,6,4,nan,nan,nan,nan,nan,nan,nan,nan,nan,nan,nan,nan,0.0,nan,nan,nan,nan,nan,nan,nan,nan,nan,nan,nan,nan,nan,nan,nan,nan,nan,nan,171.69776515872218,227.76069674105383,nan,228.06444002664648,nan,nan,nan,nan
1,39,1,1,1.0,1.0,0.2632815665565431,0.0,4,6,8,7,0,5,nan,nan,nan,nan,nan,nan,nan,nan,nan,nan,nan,nan,0.0,nan,nan,nan,nan,nan,nan,nan,nan,nan,nan,nan,nan,nan,nan,nan,nan,nan,nan,171.69776515872218,228.76916124951094,nan,229.0324428160675,nan,nan,nan,nan
1,40,1,1,1.0,1.0,0.26276411674916744,0.0,6,4,7,1,2,3,nan,nan,nan,nan,nan,nan,nan,nan,nan,nan,nan,nan,0.0,nan,nan,nan,nan,nan,nan,nan,nan,nan,nan,nan,nan,nan,nan,nan,nan,nan,nan,171.69776515872218,229.77764542982914,nan,230.0404095465783,nan,nan,nan,nan
1,41,1,1,1.0,1.0,0.3103153249248862,0.0,8,6,2,0,1,5,nan,nan,nan,nan,nan,nan,nan,nan,nan,nan,nan,nan,0.0,nan,nan,nan,nan,nan,nan,nan,nan,nan,nan,nan,nan,nan,nan,nan,nan,nan,nan,171.69776515872218,230.78607202041894,nan,231.09638734534383,nan,nan,nan,nan
1,42,1,1,1.0,1.0,0.26180961448699236,0.0,1,0,3,4,5,6,nan,nan,nan,nan,nan,nan,nan,nan,nan,nan,nan,nan,0.0,nan,nan,nan,nan,nan,nan,nan,nan,nan,nan,nan,nan,nan,nan,nan,nan,nan,nan,171.69776515872218,231.79455534531735,nan,232.05636495980434,nan,nan,nan,nan
1,43,1,1,1.0,1.0,0.2853203641716391,0.0,7,4,2,6,3,5,nan,nan,nan,nan,nan,nan,nan,nan,nan,nan,nan,nan,0.0,nan,nan,nan,nan,nan,nan,nan,nan,nan,nan,nan,nan,nan,nan,nan,nan,nan,nan,171.69776515872218,232.80301757296547,nan,233.0883379371371,nan,nan,nan,nan
1,44,1,1,1.0,1.0,0.2688703089952469,0.0,3,1,5,0,4,6,nan,nan,nan,nan,nan,nan,nan,nan,nan,nan,nan,nan,0.0,nan,nan,nan,nan,nan,nan,nan,nan,nan,nan,nan,nan,nan,nan,nan,nan,nan,nan,171.69776515872218,233.81142420694232,nan,234.08029451593757,nan,nan,nan,nan
1,45,1,1,1.0,1.0,0.24437027517706156,0.0,1,5,3,6,0,8,nan,nan,nan,nan,nan,nan,nan,nan,nan,nan,nan,nan,0.0,nan,nan,nan,nan,nan,nan,nan,nan,nan,nan,nan,nan,nan,nan,nan,nan,nan,nan,171.69776515872218,234.81989527260885,nan,235.0642655477859,nan,nan,nan,nan
1,46,1,1,1.0,1.0,0.2679197976831347,0.0,4,7,1,0,3,5,nan,nan,nan,nan,nan,nan,nan,nan,nan,nan,nan,nan,0.0,nan,nan,nan,nan,nan,nan,nan,nan,nan,nan,nan,nan,nan,nan,nan,nan,nan,nan,171.69776515872218,235.82834552647546,nan,236.0962653241586,nan,nan,nan,nan
1,47,0,0,0.0,1.0,0.3953883396461606,1.0,1,8,6,5,2,3,1.0,1.0,1.0,1.0,1.0,1.0,1.0,1.0,1.0,1.0,1.0,0.0,5.0,1.0,8.0,6.0,5.0,2.0,4.0,5.0,4.0,3.0,1.0,2.0,6.0,7.95065639144741,4.878277288749814,4.247664562659338,1.5523968471679837,3.270251885522157,9.966180738992989,171.69776515872218,236.8368422507774,237.64522419543937,237.23223059042357,248.67159474594519,249.6793450883124,238.66204002918676,248.66326166666113
1,48,1,1,1.0,1.0,0.6794964745640755,0.0,5,2,4,0,1,8,nan,nan,nan,nan,nan,nan,nan,nan,nan,nan,nan,nan,0.0,nan,nan,nan,nan,nan,nan,nan,nan,nan,nan,nan,nan,nan,nan,nan,nan,nan,nan,171.69776515872218,249.88840818475,nan,250.56790465931408,nan,nan,nan,nan
1,49,1,1,1.0,1.0,0.3110753917135298,0.0,6,5,0,1,7,4,nan,nan,nan,nan,nan,nan,nan,nan,nan,nan,nan,nan,0.0,nan,nan,nan,nan,nan,nan,nan,nan,nan,nan,nan,nan,nan,nan,nan,nan,nan,nan,171.69776515872218,250.89683392015286,nan,251.2079093118664,nan,nan,nan,nan
1,50,1,1,1.0,1.0,0.29451842536218464,0.0,4,6,3,0,1,7,nan,nan,nan,nan,nan,nan,nan,nan,nan,nan,nan,nan,0.0,nan,nan,nan,nan,nan,nan,nan,nan,nan,nan,nan,nan,nan,nan,nan,nan,nan,nan,171.69776515872218,251.90535516291857,nan,252.19987358828075,nan,nan,nan,nan
1,51,1,1,1.0,1.0,0.33408009563572705,0.0,7,8,4,2,0,5,nan,nan,nan,nan,nan,nan,nan,nan,nan,nan,nan,nan,0.0,nan,nan,nan,nan,nan,nan,nan,nan,nan,nan,nan,nan,nan,nan,nan,nan,nan,nan,171.69776515872218,252.91378859593533,nan,253.24786869157106,nan,nan,nan,nan
1,52,1,1,1.0,1.0,0.4535519718192518,0.0,8,4,3,1,6,0,nan,nan,nan,nan,nan,nan,nan,nan,nan,nan,nan,nan,0.0,nan,nan,nan,nan,nan,nan,nan,nan,nan,nan,nan,nan,nan,nan,nan,nan,nan,nan,171.69776515872218,253.92227106541395,nan,254.3758230372332,nan,nan,nan,nan
1,53,1,1,1.0,1.0,0.5810826644301414,0.0,2,3,1,6,5,4,nan,nan,nan,nan,nan,nan,nan,nan,nan,nan,nan,nan,0.0,nan,nan,nan,nan,nan,nan,nan,nan,nan,nan,nan,nan,nan,nan,nan,nan,nan,nan,171.69776515872218,254.93072787648998,nan,255.51181054092012,nan,nan,nan,nan
1,54,1,1,1.0,1.0,0.6446100980974734,0.0,7,1,3,5,0,8,nan,nan,nan,nan,nan,nan,nan,nan,nan,nan,nan,nan,0.0,nan,nan,nan,nan,nan,nan,nan,nan,nan,nan,nan,nan,nan,nan,nan,nan,nan,nan,171.69776515872218,255.93917755992152,nan,256.583787658019,nan,nan,nan,nan
1,55,1,1,1.0,1.0,0.6201451311353594,0.0,4,5,8,7,1,0,nan,nan,nan,nan,nan,nan,nan,nan,nan,nan,nan,nan,0.0,nan,nan,nan,nan,nan,nan,nan,nan,nan,nan,nan,nan,nan,nan,nan,nan,nan,nan,171.69776515872218,256.94761555455625,nan,257.5677606856916,nan,nan,nan,nan
1,56,1,1,1.0,1.0,0.7956475492101163,0.0,5,0,6,1,3,2,nan,nan,nan,nan,nan,nan,nan,nan,nan,nan,nan,nan,0.0,nan,nan,nan,nan,nan,nan,nan,nan,nan,nan,nan,nan,nan,nan,nan,nan,nan,nan,171.69776515872218,257.95606096158735,nan,258.75170851079747,nan,nan,nan,nan
1,57,1,1,1.0,1.0,0.5708807792980224,0.0,2,3,7,5,4,0,nan,nan,nan,nan,nan,nan,nan,nan,nan,nan,nan,nan,0.0,nan,nan,nan,nan,nan,nan,nan,nan,nan,nan,nan,nan,nan,nan,nan,nan,nan,nan,171.69776515872218,258.97284543467686,nan,259.5437262139749,nan,nan,nan,nan
1,58,1,1,1.0,1.0,0.5623390097171068,0.0,4,2,1,6,7,3,nan,nan,nan,nan,nan,nan,nan,nan,nan,nan,nan,nan,0.0,nan,nan,nan,nan,nan,nan,nan,nan,nan,nan,nan,nan,nan,nan,nan,nan,nan,nan,171.69776515872218,259.98135014181025,nan,260.54368915152736,nan,nan,nan,nan
1,59,1,1,1.0,1.0,0.5058828191831708,0.0,1,4,7,8,0,2,nan,nan,nan,nan,nan,nan,nan,nan,nan,nan,nan,nan,0.0,nan,nan,nan,nan,nan,nan,nan,nan,nan,nan,nan,nan,nan,nan,nan,nan,nan,nan,171.69776515872218,260.9898021060508,nan,261.49568492523395,nan,nan,nan,nan
1,60,1,1,1.0,1.0,0.4893594940658659,0.0,4,2,6,0,8,1,nan,nan,nan,nan,nan,nan,nan,nan,nan,nan,nan,nan,0.0,nan,nan,nan,nan,nan,nan,nan,nan,nan,nan,nan,nan,nan,nan,nan,nan,nan,nan,171.69776515872218,261.99827345693484,nan,262.4876329510007,nan,nan,nan,nan
1,61,1,1,1.0,1.0,0.4809043938294053,0.0,6,3,8,4,0,5,nan,nan,nan,nan,nan,nan,nan,nan,nan,nan,nan,nan,0.0,nan,nan,nan,nan,nan,nan,nan,nan,nan,nan,nan,nan,nan,nan,nan,nan,nan,nan,171.69776515872218,263.0067145875655,nan,263.4876189813949,nan,nan,nan,nan
1,62,1,1,1.0,1.0,0.504448214545846,0.0,3,1,0,7,8,6,nan,nan,nan,nan,nan,nan,nan,nan,nan,nan,nan,nan,0.0,nan,nan,nan,nan,nan,nan,nan,nan,nan,nan,nan,nan,nan,nan,nan,nan,nan,nan,171.69776515872218,264.01516940281726,nan,264.5196176173631,nan,nan,nan,nan
1,63,0,0,0.0,1.0,0.559937073616311,0.0,0,8,3,4,2,1,nan,nan,nan,nan,nan,nan,nan,nan,nan,nan,nan,nan,0.0,nan,nan,nan,nan,nan,nan,nan,nan,nan,nan,nan,nan,nan,nan,nan,nan,nan,nan,171.69776515872218,265.02363362605684,nan,265.58357069967315,nan,nan,nan,nan
1,64,1,1,1.0,1.0,0.5434482451528311,0.0,1,7,6,3,5,8,nan,nan,nan,nan,nan,nan,nan,nan,nan,nan,nan,nan,0.0,nan,nan,nan,nan,nan,nan,nan,nan,nan,nan,nan,nan,nan,nan,nan,nan,nan,nan,171.69776515872218,266.03210326633416,nan,266.575551511487,nan,nan,nan,nan
1,65,1,1,1.0,1.0,0.39899338223040104,0.0,8,2,3,7,0,5,nan,nan,nan,nan,nan,nan,nan,nan,nan,nan,nan,nan,0.0,nan,nan,nan,nan,nan,nan,nan,nan,nan,nan,nan,nan,nan,nan,nan,nan,nan,nan,171.69776515872218,267.0405438267626,nan,267.439537208993,nan,nan,nan,nan
1,66,1,1,1.0,1.0,0.3665197757072747,0.0,1,3,7,2,5,8,nan,nan,nan,nan,nan,nan,nan,nan,nan,nan,nan,nan,0.0,nan,nan,nan,nan,nan,nan,nan,nan,nan,nan,nan,nan,nan,nan,nan,nan,nan,nan,171.69776515872218,268.048984387191,nan,268.4155041628983,nan,nan,nan,nan
1,67,1,1,1.0,1.0,0.34206963353790343,0.0,7,5,1,8,4,0,nan,nan,nan,nan,nan,nan,nan,nan,nan,nan,nan,nan,0.0,nan,nan,nan,nan,nan,nan,nan,nan,nan,nan,nan,nan,nan,nan,nan,nan,nan,nan,171.69776515872218,269.0574269434437,nan,269.3994965769816,nan,nan,nan,nan
1,68,1,1,1.0,1.0,0.41355667007155716,0.0,6,2,7,5,1,8,nan,nan,nan,nan,nan,nan,nan,nan,nan,nan,nan,nan,0.0,nan,nan,nan,nan,nan,nan,nan,nan,nan,nan,nan,nan,nan,nan,nan,nan,nan,nan,171.69776515872218,270.06588917109184,nan,270.4794458411634,nan,nan,nan,nan
1,69,1,1,1.0,1.0,0.31709234858863056,0.0,8,5,0,4,7,2,nan,nan,nan,nan,nan,nan,nan,nan,nan,nan,nan,nan,0.0,nan,nan,nan,nan,nan,nan,nan,nan,nan,nan,nan,nan,nan,nan,nan,nan,nan,nan,171.69776515872218,271.07435481995344,nan,271.3914471685421,nan,nan,nan,nan
1,70,0,0,0.0,1.0,0.5006076826248318,1.0,3,1,2,7,6,4,1.0,1.0,1.0,1.0,1.0,1.0,1.0,1.0,0.0,0.0,1.0,1.0,4.0,3.0,1.0,1.0,8.0,6.0,4.0,2.0,1.0,4.0,5.0,6.0,3.0,2.807916952529922,1.6904895016923547,4.464937861775979,7.992188361939043,9.384076859569177,3.616578576620668,171.69776515872218,272.0827928145882,272.89120811549947,272.583400497213,283.3257715345826,284.32611792651005,273.899662360549,283.31750174681656
1,71,1,1,1.0,1.0,0.35278782807290554,0.0,7,8,0,4,5,6,nan,nan,nan,nan,nan,nan,nan,nan,nan,nan,nan,nan,0.0,nan,nan,nan,nan,nan,nan,nan,nan,nan,nan,nan,nan,nan,nan,nan,nan,nan,nan,171.69776515872218,284.53436251194216,nan,284.88715034001507,nan,nan,nan,nan
1,72,1,1,1.0,1.0,0.16829575435258448,0.0,2,7,8,6,0,4,nan,nan,nan,nan,nan,nan,nan,nan,nan,nan,nan,nan,0.0,nan,nan,nan,nan,nan,nan,nan,nan,nan,nan,nan,nan,nan,nan,nan,nan,nan,nan,171.69776515872218,285.54281647177413,nan,285.7111122261267,nan,nan,nan,nan
1,73,1,1,1.0,1.0,0.3918246361427009,0.0,8,3,0,4,2,5,nan,nan,nan,nan,nan,nan,nan,nan,nan,nan,nan,nan,0.0,nan,nan,nan,nan,nan,nan,nan,nan,nan,nan,nan,nan,nan,nan,nan,nan,nan,nan,171.69776515872218,286.5512690062169,nan,286.9430936423596,nan,nan,nan,nan
1,74,1,1,1.0,1.0,0.41532683302648365,0.0,4,8,1,0,6,2,nan,nan,nan,nan,nan,nan,nan,nan,nan,nan,nan,nan,0.0,nan,nan,nan,nan,nan,nan,nan,nan,nan,nan,nan,nan,nan,nan,nan,nan,nan,nan,171.69776515872218,287.5597369358875,nan,287.97506376891397,nan,nan,nan,nan
1,75,0,0,0.0,1.0,0.46286891819909215,1.0,1,4,3,8,0,6,1.0,1.0,1.0,1.0,1.0,1.0,1.0,1.0,0.0,0.0,0.0,1.0,3.0,1.0,4.0,0.0,1.0,8.0,6.0,2.0,1.0,6.0,5.0,4.0,3.0,3.3382938185241073,2.6426035903859884,8.889477010816336,7.145793960196897,5.986736750928685,5.15417522075586,171.69776515872218,288.5681407188531,289.3765850996133,289.0310096370522,299.31943983142264,300.3157840417698,290.39336615172215,299.3111081777606
1,76,1,1,1.0,1.0,0.3591574493329972,0.0,4,3,6,0,8,5,nan,nan,nan,nan,nan,nan,nan,nan,nan,nan,nan,nan,0.0,nan,nan,nan,nan,nan,nan,nan,nan,nan,nan,nan,nan,nan,nan,nan,nan,nan,nan,171.69776515872218,300.51961932796985,nan,300.87877677730285,nan,nan,nan,nan
1,77,1,1,1.0,1.0,0.27061281725764275,0.0,3,8,4,2,6,1,nan,nan,nan,nan,nan,nan,nan,nan,nan,nan,nan,nan,0.0,nan,nan,nan,nan,nan,nan,nan,nan,nan,nan,nan,nan,nan,nan,nan,nan,nan,nan,171.69776515872218,301.52812774130143,nan,301.7987405585591,nan,nan,nan,nan
1,78,1,1,1.0,1.0,0.2861693808808923,0.0,7,4,1,0,2,6,nan,nan,nan,nan,nan,nan,nan,nan,nan,nan,nan,nan,0.0,nan,nan,nan,nan,nan,nan,nan,nan,nan,nan,nan,nan,nan,nan,nan,nan,nan,nan,171.69776515872218,302.5365241118707,nan,302.82269349275157,nan,nan,nan,nan
1,79,1,1,1.0,1.0,0.2776983152143657,0.0,5,6,0,3,8,4,nan,nan,nan,nan,nan,nan,nan,nan,nan,nan,nan,nan,0.0,nan,nan,nan,nan,nan,nan,nan,nan,nan,nan,nan,nan,nan,nan,nan,nan,nan,nan,171.69776515872218,303.54498576931655,nan,303.8226840845309,nan,nan,nan,nan
1,80,1,1,1.0,1.0,0.25321624241769314,0.0,7,1,8,5,4,0,nan,nan,nan,nan,nan,nan,nan,nan,nan,nan,nan,nan,0.0,nan,nan,nan,nan,nan,nan,nan,nan,nan,nan,nan,nan,nan,nan,nan,nan,nan,nan,171.69776515872218,304.5534377335571,nan,304.80665397597477,nan,nan,nan,nan
1,81,1,1,1.0,1.0,0.2767401065211743,0.0,2,8,0,4,3,5,nan,nan,nan,nan,nan,nan,nan,nan,nan,nan,nan,nan,0.0,nan,nan,nan,nan,nan,nan,nan,nan,nan,nan,nan,nan,nan,nan,nan,nan,nan,nan,171.69776515872218,305.5618956850376,nan,305.8386357915588,nan,nan,nan,nan
1,82,1,1,1.0,1.0,0.3082480919547379,0.0,7,2,3,5,6,4,nan,nan,nan,nan,nan,nan,nan,nan,nan,nan,nan,nan,0.0,nan,nan,nan,nan,nan,nan,nan,nan,nan,nan,nan,nan,nan,nan,nan,nan,nan,nan,171.69776515872218,306.57035990827717,nan,306.8786080002319,nan,nan,nan,nan
1,83,1,1,1.0,1.0,0.26777810510247946,0.0,1,3,5,6,7,2,nan,nan,nan,nan,nan,nan,nan,nan,nan,nan,nan,nan,0.0,nan,nan,nan,nan,nan,nan,nan,nan,nan,nan,nan,nan,nan,nan,nan,nan,nan,nan,171.69776515872218,307.5788118725177,nan,307.84658997762017,nan,nan,nan,nan
1,84,1,1,1.0,1.0,0.25927653396502137,0.0,8,6,4,7,0,3,nan,nan,nan,nan,nan,nan,nan,nan,nan,nan,nan,nan,0.0,nan,nan,nan,nan,nan,nan,nan,nan,nan,nan,nan,nan,nan,nan,nan,nan,nan,nan,171.69776515872218,308.5872709644027,nan,308.8465474983677,nan,nan,nan,nan
1,85,1,1,1.0,1.0,0.31483267550356686,0.0,3,2,7,1,6,8,nan,nan,nan,nan,nan,nan,nan,nan,nan,nan,nan,nan,0.0,nan,nan,nan,nan,nan,nan,nan,nan,nan,nan,nan,nan,nan,nan,nan,nan,nan,nan,171.69776515872218,309.59574972768314,nan,309.9105824031867,nan,nan,nan,nan
1,86,0,0,1.0,0.0,0.2902702058199793,0.0,1,7,0,3,2,4,nan,nan,nan,nan,nan,nan,nan,nan,nan,nan,nan,nan,0.0,nan,nan,nan,nan,nan,nan,nan,nan,nan,nan,nan,nan,nan,nan,nan,nan,nan,nan,171.69776515872218,310.60423219716176,nan,310.89450240298174,nan,nan,nan,nan
1,87,1,1,1.0,1.0,0.305820212000981,0.0,4,1,5,6,7,2,nan,nan,nan,nan,nan,nan,nan,nan,nan,nan,nan,nan,0.0,nan,nan,nan,nan,nan,nan,nan,nan,nan,nan,nan,nan,nan,nan,nan,nan,nan,nan,171.69776515872218,311.6126716171857,nan,311.9184918291867,nan,nan,nan,nan
1,88,1,1,1.0,1.0,0.32936118193902075,0.0,2,3,7,5,4,1,nan,nan,nan,nan,nan,nan,nan,nan,nan,nan,nan,nan,0.0,nan,nan,nan,nan,nan,nan,nan,nan,nan,nan,nan,nan,nan,nan,nan,nan,nan,nan,171.69776515872218,312.6211298536509,nan,312.95049103558995,nan,nan,nan,nan
1,89,1,1,1.0,1.0,0.2968795928172767,0.0,7,4,5,1,8,0,nan,nan,nan,nan,nan,nan,nan,nan,nan,nan,nan,nan,0.0,nan,nan,nan,nan,nan,nan,nan,nan,nan,nan,nan,nan,nan,nan,nan,nan,nan,nan,171.69776515872218,313.62956642266363,nan,313.9264460154809,nan,nan,nan,nan
1,90,0,0,0.0,1.0,0.5364023759029806,1.0,1,2,0,3,7,4,1.0,1.0,1.0,1.0,1.0,1.0,1.0,1.0,1.0,0.0,0.0,0.0,3.0,1.0,2.0,0.0,8.0,4.0,3.0,3.0,1.0,2.0,4.0,5.0,6.0,6.275857163360342,2.443627200089395,5.5020568270701915,7.547438737703487,8.95563217671588,9.70735323172994,171.69776515872218,314.63800954888575,315.4464177223854,315.1744119247887,326.19773251516744,327.19398492458276,316.45488907326944,326.18940228712745
1,91,1,1,1.0,1.0,0.464243937516585,0.0,7,8,1,5,2,6,nan,nan,nan,nan,nan,nan,nan,nan,nan,nan,nan,nan,0.0,nan,nan,nan,nan,nan,nan,nan,nan,nan,nan,nan,nan,nan,nan,nan,nan,nan,nan,171.69776515872218,327.3979008931201,nan,327.8621448306367,nan,nan,nan,nan
1,92,1,1,1.0,1.0,0.48770793131552637,0.0,6,2,3,0,4,8,nan,nan,nan,nan,nan,nan,nan,nan,nan,nan,nan,nan,0.0,nan,nan,nan,nan,nan,nan,nan,nan,nan,nan,nan,nan,nan,nan,nan,nan,nan,nan,171.69776515872218,328.4063742395956,nan,328.89408217091113,nan,nan,nan,nan
1,93,1,1,1.0,1.0,0.48723609698936343,0.0,1,6,8,3,7,4,nan,nan,nan,nan,nan,nan,nan,nan,nan,nan,nan,nan,0.0,nan,nan,nan,nan,nan,nan,nan,nan,nan,nan,nan,nan,nan,nan,nan,nan,nan,nan,171.69776515872218,329.41482135723345,nan,329.9020574542228,nan,nan,nan,nan
1,94,1,1,1.0,1.0,0.42279321956448257,0.0,2,8,1,5,4,6,nan,nan,nan,nan,nan,nan,nan,nan,nan,nan,nan,nan,0.0,nan,nan,nan,nan,nan,nan,nan,nan,nan,nan,nan,nan,nan,nan,nan,nan,nan,nan,171.69776515872218,330.42327474686317,nan,330.84606796642765,nan,nan,nan,nan
1,95,1,1,1.0,1.0,0.40627360064536333,0.0,0,7,5,1,3,2,nan,nan,nan,nan,nan,nan,nan,nan,nan,nan,nan,nan,0.0,nan,nan,nan,nan,nan,nan,nan,nan,nan,nan,nan,nan,nan,nan,nan,nan,nan,nan,171.69776515872218,331.4317643439863,nan,331.83803794463165,nan,nan,nan,nan
1,96,1,1,1.0,1.0,0.32580261025577784,0.0,6,3,7,0,4,1,nan,nan,nan,nan,nan,nan,nan,nan,nan,nan,nan,nan,0.0,nan,nan,nan,nan,nan,nan,nan,nan,nan,nan,nan,nan,nan,nan,nan,nan,nan,nan,171.69776515872218,332.44020034279674,nan,332.7660029530525,nan,nan,nan,nan
1,97,1,1,1.0,1.0,0.33332972205244005,0.0,8,0,6,2,1,7,nan,nan,nan,nan,nan,nan,nan,nan,nan,nan,nan,nan,0.0,nan,nan,nan,nan,nan,nan,nan,nan,nan,nan,nan,nan,nan,nan,nan,nan,nan,nan,171.69776515872218,333.44864803063683,nan,333.7819777526893,nan,nan,nan,nan
1,98,1,1,1.0,1.0,0.3168465958442539,0.0,4,7,1,0,5,3,nan,nan,nan,nan,nan,nan,nan,nan,nan,nan,nan,nan,0.0,nan,nan,nan,nan,nan,nan,nan,nan,nan,nan,nan,nan,nan,nan,nan,nan,nan,nan,171.69776515872218,334.45711139868945,nan,334.7739579945337,nan,nan,nan,nan
1,99,1,1,1.0,1.0,0.3643846893683076,0.0,6,1,0,4,2,7,nan,nan,nan,nan,nan,nan,nan,nan,nan,nan,nan,nan,0.0,nan,nan,nan,nan,nan,nan,nan,nan,nan,nan,nan,nan,nan,nan,nan,nan,nan,nan,171.69776515872218,335.46556165255606,nan,335.82994634192437,nan,nan,nan,nan
1,100,1,1,1.0,1.0,0.37988879531621933,0.0,0,7,5,8,4,1,nan,nan,nan,nan,nan,nan,nan,nan,nan,nan,nan,nan,0.0,nan,nan,nan,nan,nan,nan,nan,nan,nan,nan,nan,nan,nan,nan,nan,nan,nan,nan,171.69776515872218,336.4740190336015,nan,336.8539078289177,nan,nan,nan,nan
1,101,1,1,1.0,1.0,0.3714265674352646,0.0,4,0,3,1,7,5,nan,nan,nan,nan,nan,nan,nan,nan,nan,nan,nan,nan,0.0,nan,nan,nan,nan,nan,nan,nan,nan,nan,nan,nan,nan,nan,nan,nan,nan,nan,nan,171.69776515872218,337.4824613046367,nan,337.85388787207194,nan,nan,nan,nan
1,102,0,0,0.0,1.0,0.40293369768187404,0.0,1,5,0,3,6,2,nan,nan,nan,nan,nan,nan,nan,nan,nan,nan,nan,nan,0.0,nan,nan,nan,nan,nan,nan,nan,nan,nan,nan,nan,nan,nan,nan,nan,nan,nan,nan,171.69776515872218,338.4909377871081,nan,338.89387148479,nan,nan,nan,nan
1,103,1,1,1.0,1.0,0.5624439250677824,0.0,2,6,5,7,0,8,nan,nan,nan,nan,nan,nan,nan,nan,nan,nan,nan,nan,0.0,nan,nan,nan,nan,nan,nan,nan,nan,nan,nan,nan,nan,nan,nan,nan,nan,nan,nan,171.69776515872218,339.49938604515046,nan,340.06182997021824,nan,nan,nan,nan
1,104,1,1,1.0,1.0,0.40997243975289166,0.0,5,4,1,3,8,0,nan,nan,nan,nan,nan,nan,nan,nan,nan,nan,nan,nan,0.0,nan,nan,nan,nan,nan,nan,nan,nan,nan,nan,nan,nan,nan,nan,nan,nan,nan,nan,171.69776515872218,340.50784770259634,nan,340.9178201423492,nan,nan,nan,nan
1,105,1,1,1.0,1.0,0.4094923376105726,0.0,1,3,5,2,0,8,nan,nan,nan,nan,nan,nan,nan,nan,nan,nan,nan,nan,0.0,nan,nan,nan,nan,nan,nan,nan,nan,nan,nan,nan,nan,nan,nan,nan,nan,nan,nan,171.69776515872218,341.51630194764584,nan,341.9257942852564,nan,nan,nan,nan
1,106,1,1,1.0,1.0,0.46504135173745453,0.0,7,4,2,1,6,3,nan,nan,nan,nan,nan,nan,nan,nan,nan,nan,nan,nan,0.0,nan,nan,nan,nan,nan,nan,nan,nan,nan,nan,nan,nan,nan,nan,nan,nan,nan,nan,171.69776515872218,342.52475476730615,nan,342.9897961190436,nan,nan,nan,nan
1,107,1,1,1.0,1.0,0.5125358258374035,0.0,8,3,6,4,1,2,nan,nan,nan,nan,nan,nan,nan,nan,nan,nan,nan,nan,0.0,nan,nan,nan,nan,nan,nan,nan,nan,nan,nan,nan,nan,nan,nan,nan,nan,nan,nan,171.69776515872218,343.5332184205763,nan,344.0457542464137,nan,nan,nan,nan
1,108,1,1,1.0,1.0,0.5200529594440013,0.0,1,6,7,5,2,8,nan,nan,nan,nan,nan,nan,nan,nan,nan,nan,nan,nan,0.0,nan,nan,nan,nan,nan,nan,nan,nan,nan,nan,nan,nan,nan,nan,nan,nan,nan,nan,171.69776515872218,344.5416709550191,nan,345.0617239144631,nan,nan,nan,nan
1,109,1,1,1.0,1.0,0.5675531355664134,0.0,6,7,0,1,8,2,nan,nan,nan,nan,nan,nan,nan,nan,nan,nan,nan,nan,0.0,nan,nan,nan,nan,nan,nan,nan,nan,nan,nan,nan,nan,nan,nan,nan,nan,nan,nan,171.69776515872218,345.5501374590676,nan,346.11769059463404,nan,nan,nan,nan
1,110,1,1,1.0,1.0,0.5110912432428449,0.0,0,3,7,6,5,1,nan,nan,nan,nan,nan,nan,nan,nan,nan,nan,nan,nan,0.0,nan,nan,nan,nan,nan,nan,nan,nan,nan,nan,nan,nan,nan,nan,nan,nan,nan,nan,171.69776515872218,346.55860966513865,nan,347.0697009083815,nan,nan,nan,nan
1,111,1,1,1.0,1.0,0.5265873661264777,0.0,7,4,0,2,6,3,nan,nan,nan,nan,nan,nan,nan,nan,nan,nan,nan,nan,0.0,nan,nan,nan,nan,nan,nan,nan,nan,nan,nan,nan,nan,nan,nan,nan,nan,nan,nan,171.69776515872218,347.56708386703394,nan,348.0936712331604,nan,nan,nan,nan
1,112,0,0,0.0,1.0,0.5901415988337249,1.0,6,8,5,7,4,2,1.0,1.0,1.0,1.0,1.0,1.0,1.0,1.0,1.0,0.0,0.0,0.0,3.0,6.0,8.0,5.0,6.0,1.0,0.0,1.0,2.0,3.0,4.0,5.0,6.0,1.6429422846995294,2.3779960409738123,7.130066338926554,8.618061362300068,10.257540012476966,10.984712567180395,171.69776515872218,348.57550675142556,349.3839340263512,349.1656483502593,361.427051987499,362.43360350001603,350.4007344651036,361.41871947865
1,113,1,1,1.0,1.0,0.2577900420874357,0.0,8,1,2,5,7,0,nan,nan,nan,nan,nan,nan,nan,nan,nan,nan,nan,nan,0.0,nan,nan,nan,nan,nan,nan,nan,nan,nan,nan,nan,nan,nan,nan,nan,nan,nan,nan,171.69776515872218,362.6355654185172,nan,362.89335546060465,nan,nan,nan,nan
1,114,1,1,1.0,1.0,0.36928036296740174,0.0,4,3,0,6,2,7,nan,nan,nan,nan,nan,nan,nan,nan,nan,nan,nan,nan,0.0,nan,nan,nan,nan,nan,nan,nan,nan,nan,nan,nan,nan,nan,nan,nan,nan,nan,nan,171.69776515872218,363.6440267909784,nan,364.0133071539458,nan,nan,nan,nan
1,115,1,1,1.0,1.0,0.440779943484813,0.0,2,0,5,8,3,1,nan,nan,nan,nan,nan,nan,nan,nan,nan,nan,nan,nan,0.0,nan,nan,nan,nan,nan,nan,nan,nan,nan,nan,nan,nan,nan,nan,nan,nan,nan,nan,171.69776515872218,364.6525141072925,nan,365.09329405077733,nan,nan,nan,nan
1,116,1,1,1.0,1.0,0.3922870622482151,0.0,8,7,1,5,0,4,nan,nan,nan,nan,nan,nan,nan,nan,nan,nan,nan,nan,0.0,nan,nan,nan,nan,nan,nan,nan,nan,nan,nan,nan,nan,nan,nan,nan,nan,nan,nan,171.69776515872218,365.66096493112855,nan,366.05325199337676,nan,nan,nan,nan
1,117,1,1,1.0,1.0,0.4078099844045937,0.0,0,4,3,1,8,7,nan,nan,nan,nan,nan,nan,nan,nan,nan,nan,nan,nan,0.0,nan,nan,nan,nan,nan,nan,nan,nan,nan,nan,nan,nan,nan,nan,nan,nan,nan,nan,171.69776515872218,366.66942259739153,nan,367.0772325817961,nan,nan,nan,nan
1,118,1,1,1.0,1.0,0.3913319897837937,0.0,5,7,8,2,1,4,nan,nan,nan,nan,nan,nan,nan,nan,nan,nan,nan,nan,0.0,nan,nan,nan,nan,nan,nan,nan,nan,nan,nan,nan,nan,nan,nan,nan,nan,nan,nan,171.69776515872218,367.6778688596096,nan,368.0692008493934,nan,nan,nan,nan
1,119,1,1,1.0,1.0,0.39083221601322293,0.0,8,3,5,6,7,0,nan,nan,nan,nan,nan,nan,nan,nan,nan,nan,nan,nan,0.0,nan,nan,nan,nan,nan,nan,nan,nan,nan,nan,nan,nan,nan,nan,nan,nan,nan,nan,171.69776515872218,368.6863356488757,nan,369.0771678648889,nan,nan,nan,nan
1,120,1,1,1.0,1.0,0.3824041998013854,0.0,4,5,0,8,3,2,nan,nan,nan,nan,nan,nan,nan,nan,nan,nan,nan,nan,0.0,nan,nan,nan,nan,nan,nan,nan,nan,nan,nan,nan,nan,nan,nan,nan,nan,nan,nan,171.69776515872218,369.6947468444705,nan,370.0771510442719,nan,nan,nan,nan
1,121,1,1,1.0,1.0,0.2938735375646502,0.0,3,8,5,1,0,4,nan,nan,nan,nan,nan,nan,nan,nan,nan,nan,nan,nan,0.0,nan,nan,nan,nan,nan,nan,nan,nan,nan,nan,nan,nan,nan,nan,nan,nan,nan,nan,171.69776515872218,370.7032518365886,nan,370.99712537415326,nan,nan,nan,nan
1,122,0,0,0.0,1.0,0.46142946695908904,0.0,4,0,8,7,2,5,nan,nan,nan,nan,nan,nan,nan,nan,nan,nan,nan,nan,0.0,nan,nan,nan,nan,nan,nan,nan,nan,nan,nan,nan,nan,nan,nan,nan,nan,nan,nan,171.69776515872218,371.71167956781574,nan,372.1731090347748,nan,nan,nan,nan
1,123,1,1,1.0,1.0,0.5089858069550246,0.0,0,6,7,1,3,4,nan,nan,nan,nan,nan,nan,nan,nan,nan,nan,nan,nan,0.0,nan,nan,nan,nan,nan,nan,nan,nan,nan,nan,nan,nan,nan,nan,nan,nan,nan,nan,171.69776515872218,372.7201018820051,nan,373.22908768896013,nan,nan,nan,nan
1,124,1,1,1.0,1.0,0.29246003017760813,0.0,7,3,2,0,8,1,nan,nan,nan,nan,nan,nan,nan,nan,nan,nan,nan,nan,0.0,nan,nan,nan,nan,nan,nan,nan,nan,nan,nan,nan,nan,nan,nan,nan,nan,nan,nan,171.69776515872218,373.72860858472995,nan,374.02106861490756,nan,nan,nan,nan
1,125,1,1,1.0,1.0,0.30798836913891137,0.0,0,1,8,2,6,3,nan,nan,nan,nan,nan,nan,nan,nan,nan,nan,nan,nan,0.0,nan,nan,nan,nan,nan,nan,nan,nan,nan,nan,nan,nan,nan,nan,nan,nan,nan,nan,171.69776515872218,374.73703374993056,nan,375.0450221190695,nan,nan,nan,nan
1,126,1,1,1.0,1.0,0.29150296188890934,0.0,6,4,1,8,2,0,nan,nan,nan,nan,nan,nan,nan,nan,nan,nan,nan,nan,0.0,nan,nan,nan,nan,nan,nan,nan,nan,nan,nan,nan,nan,nan,nan,nan,nan,nan,nan,171.69776515872218,375.7455008244142,nan,376.0370037863031,nan,nan,nan,nan
1,127,1,1,1.0,1.0,0.30700706760399044,0.0,2,6,0,1,3,5,nan,nan,nan,nan,nan,nan,nan,nan,nan,nan,nan,nan,0.0,nan,nan,nan,nan,nan,nan,nan,nan,nan,nan,nan,nan,nan,nan,nan,nan,nan,nan,171.69776515872218,376.75395563966595,nan,377.06096270726994,nan,nan,nan,nan
1,128,1,1,1.0,1.0,0.434544317657128,0.0,4,3,7,5,0,8,nan,nan,nan,nan,nan,nan,nan,nan,nan,nan,nan,nan,0.0,nan,nan,nan,nan,nan,nan,nan,nan,nan,nan,nan,nan,nan,nan,nan,nan,nan,nan,171.69776515872218,377.76241359091364,nan,378.19695790857077,nan,nan,nan,nan
1,129,1,1,1.0,1.0,0.42606355901807547,0.0,0,4,5,7,8,1,nan,nan,nan,nan,nan,nan,nan,nan,nan,nan,nan,nan,0.0,nan,nan,nan,nan,nan,nan,nan,nan,nan,nan,nan,nan,nan,nan,nan,nan,nan,nan,171.69776515872218,378.77087068674155,nan,379.1969342457596,nan,nan,nan,nan
1,130,1,1,1.0,1.0,0.4415839151479304,0.0,6,8,0,2,4,3,nan,nan,nan,nan,nan,nan,nan,nan,nan,nan,nan,nan,0.0,nan,nan,nan,nan,nan,nan,nan,nan,nan,nan,nan,nan,nan,nan,nan,nan,nan,nan,171.69776515872218,379.7793189447839,nan,380.2209028599318,nan,nan,nan,nan
1,131,1,1,1.0,1.0,0.5131054483354092,0.0,2,1,8,0,7,6,nan,nan,nan,nan,nan,nan,nan,nan,nan,nan,nan,nan,0.0,nan,nan,nan,nan,nan,nan,nan,nan,nan,nan,nan,nan,nan,nan,nan,nan,nan,nan,171.69776515872218,380.78778373845853,nan,381.30088918679394,nan,nan,nan,nan
1,132,1,1,1.0,1.0,0.4646336641162634,0.0,8,5,2,3,6,0,nan,nan,nan,nan,nan,nan,nan,nan,nan,nan,nan,nan,0.0,nan,nan,nan,nan,nan,nan,nan,nan,nan,nan,nan,nan,nan,nan,nan,nan,nan,nan,171.69776515872218,381.79623655811884,nan,382.2608702222351,nan,nan,nan,nan
1,133,1,1,1.0,1.0,0.5121312742121518,0.0,2,3,0,7,8,1,nan,nan,nan,nan,nan,nan,nan,nan,nan,nan,nan,nan,0.0,nan,nan,nan,nan,nan,nan,nan,nan,nan,nan,nan,nan,nan,nan,nan,nan,nan,nan,171.69776515872218,382.8047116152011,nan,383.31684288941324,nan,nan,nan,nan
1,134,0,0,0.0,1.0,0.407660593977198,0.0,4,1,2,0,6,8,nan,nan,nan,nan,nan,nan,nan,nan,nan,nan,nan,nan,0.0,nan,nan,nan,nan,nan,nan,nan,nan,nan,nan,nan,nan,nan,nan,nan,nan,nan,nan,171.69776515872218,383.81315417122096,nan,384.22081476519816,nan,nan,nan,nan
1,135,1,1,1.0,1.0,0.5911930338479578,0.0,8,5,7,6,1,2,nan,nan,nan,nan,nan,nan,nan,nan,nan,nan,nan,nan,0.0,nan,nan,nan,nan,nan,nan,nan,nan,nan,nan,nan,nan,nan,nan,nan,nan,nan,nan,171.69776515872218,384.8216035696678,nan,385.41279660351574,nan,nan,nan,nan
1,136,1,1,1.0,1.0,0.35070006805472076,0.0,1,4,6,3,0,7,nan,nan,nan,nan,nan,nan,nan,nan,nan,nan,nan,nan,0.0,nan,nan,nan,nan,nan,nan,nan,nan,nan,nan,nan,nan,nan,nan,nan,nan,nan,nan,171.69776515872218,385.83006266131997,nan,386.1807627293747,nan,nan,nan,nan
1,137,1,1,1.0,1.0,0.3742219365667552,0.0,5,1,4,6,7,2,nan,nan,nan,nan,nan,nan,nan,nan,nan,nan,nan,nan,0.0,nan,nan,nan,nan,nan,nan,nan,nan,nan,nan,nan,nan,nan,nan,nan,nan,nan,nan,171.69776515872218,386.8385169063695,nan,387.21273884293623,nan,nan,nan,nan
1,138,1,1,1.0,1.0,0.24577465932816267,0.0,1,7,2,5,6,8,nan,nan,nan,nan,nan,nan,nan,nan,nan,nan,nan,nan,0.0,nan,nan,nan,nan,nan,nan,nan,nan,nan,nan,nan,nan,nan,nan,nan,nan,nan,nan,171.69776515872218,387.84697599802166,nan,388.0927506573498,nan,nan,nan,nan
1,139,1,1,1.0,1.0,0.3012863260228187,0.0,7,5,8,3,0,6,nan,nan,nan,nan,nan,nan,nan,nan,nan,nan,nan,nan,0.0,nan,nan,nan,nan,nan,nan,nan,nan,nan,nan,nan,nan,nan,nan,nan,nan,nan,nan,171.69776515872218,388.8554482040927,nan,389.1567345301155,nan,nan,nan,nan
1,140,1,1,1.0,1.0,0.2127807519864291,0.0,1,3,0,2,6,7,nan,nan,nan,nan,nan,nan,nan,nan,nan,nan,nan,nan,0.0,nan,nan,nan,nan,nan,nan,nan,nan,nan,nan,nan,nan,nan,nan,nan,nan,nan,nan,171.69776515872218,389.863898742944,nan,390.07667949493043,nan,nan,nan,nan
1,141,1,1,1.0,1.0,0.2683175071142614,0.0,0,1,5,4,2,6,nan,nan,nan,nan,nan,nan,nan,nan,nan,nan,nan,nan,0.0,nan,nan,nan,nan,nan,nan,nan,nan,nan,nan,nan,nan,nan,nan,nan,nan,nan,nan,171.69776515872218,390.87235127738677,nan,391.14066878450103,nan,nan,nan,nan
1,142,1,1,1.0,1.0,0.2598113745916635,0.0,5,8,0,6,1,4,nan,nan,nan,nan,nan,nan,nan,nan,nan,nan,nan,nan,0.0,nan,nan,nan,nan,nan,nan,nan,nan,nan,nan,nan,nan,nan,nan,nan,nan,nan,nan,171.69776515872218,391.880809513852,nan,392.14062088844366,nan,nan,nan,nan
1,143,0,0,0.0,1.0,0.4433403932489455,1.0,2,4,8,7,3,0,1.0,1.0,1.0,1.0,1.0,1.0,1.0,1.0,1.0,1.0,0.0,1.0,5.0,2.0,4.0,8.0,7.0,1.0,0.0,1.0,2.0,3.0,4.0,5.0,6.0,2.566916800569743,3.4945696284994483,4.608518049586564,5.92753251735121,11.902612536679953,13.342654936248437,171.69776515872218,392.88926461408846,393.69767991499975,393.3326050073374,408.0911042264197,409.0921667802613,394.70615183608606,408.08277200255543
1,144,1,1,1.0,1.0,0.2965836627408862,0.0,4,7,6,2,8,3,nan,nan,nan,nan,nan,nan,nan,nan,nan,nan,nan,nan,0.0,nan,nan,nan,nan,nan,nan,nan,nan,nan,nan,nan,nan,nan,nan,nan,nan,nan,nan,171.69776515872218,409.2996541496832,nan,409.5962378124241,nan,nan,nan,nan
1,145,1,1,1.0,1.0,0.3121439325623214,0.0,6,1,4,3,7,8,nan,nan,nan,nan,nan,nan,nan,nan,nan,nan,nan,nan,0.0,nan,nan,nan,nan,nan,nan,nan,nan,nan,nan,nan,nan,nan,nan,nan,nan,nan,nan,171.69776515872218,410.30806848127395,nan,410.62021241383627,nan,nan,nan,nan
1,146,1,1,1.0,1.0,0.2956402793060988,0.0,0,4,5,6,3,7,nan,nan,nan,nan,nan,nan,nan,nan,nan,nan,nan,nan,0.0,nan,nan,nan,nan,nan,nan,nan,nan,nan,nan,nan,nan,nan,nan,nan,nan,nan,nan,171.69776515872218,411.3165258623194,nan,411.6121661416255,nan,nan,nan,nan
1,147,1,1,1.0,1.0,0.25518198125064373,0.0,7,6,8,0,2,4,nan,nan,nan,nan,nan,nan,nan,nan,nan,nan,nan,nan,0.0,nan,nan,nan,nan,nan,nan,nan,nan,nan,nan,nan,nan,nan,nan,nan,nan,nan,nan,171.69776515872218,412.32497554575093,nan,412.5801575270016,nan,nan,nan,nan
1,148,1,1,1.0,1.0,0.3906956547871232,0.0,4,3,0,6,7,8,nan,nan,nan,nan,nan,nan,nan,nan,nan,nan,nan,nan,0.0,nan,nan,nan,nan,nan,nan,nan,nan,nan,nan,nan,nan,nan,nan,nan,nan,nan,nan,171.69776515872218,413.33344147983007,nan,413.7241371346172,nan,nan,nan,nan
1,149,1,1,1.0,1.0,0.2541969735175371,0.0,8,1,2,5,6,4,nan,nan,nan,nan,nan,nan,nan,nan,nan,nan,nan,nan,0.0,nan,nan,nan,nan,nan,nan,nan,nan,nan,nan,nan,nan,nan,nan,nan,nan,nan,nan,171.69776515872218,414.34189914609306,nan,414.5960961196106,nan,nan,nan,nan
1,150,1,1,1.0,1.0,0.2536889319308102,0.0,4,5,6,0,1,8,nan,nan,nan,nan,nan,nan,nan,nan,nan,nan,nan,nan,0.0,nan,nan,nan,nan,nan,nan,nan,nan,nan,nan,nan,nan,nan,nan,nan,nan,nan,nan,171.69776515872218,415.3504112656228,nan,415.60410019755363,nan,nan,nan,nan
1,151,0,0,0.0,1.0,0.4532278173137456,1.0,6,8,2,1,4,0,1.0,1.0,1.0,1.0,1.0,1.0,0.0,1.0,0.0,0.0,1.0,1.0,3.0,3.0,8.0,7.0,2.0,4.0,0.0,2.0,3.0,4.0,5.0,6.0,1.0,2.545121475122869,3.3856001291424036,4.1448890645988286,4.936436644289643,5.792317624669522,1.889461615588516,171.69776515872218,416.358851255849,417.16722920909524,416.81207907316275,424.0180520112626,425.0194082141388,418.1840168184135,424.0097271997947
1,152,1,1,1.0,1.0,0.2732719103805721,0.0,1,5,3,6,7,8,nan,nan,nan,nan,nan,nan,nan,nan,nan,nan,nan,nan,0.0,nan,nan,nan,nan,nan,nan,nan,nan,nan,nan,nan,nan,nan,nan,nan,nan,nan,nan,171.69776515872218,425.22659708792344,nan,425.499868998304,nan,nan,nan,nan
1,153,1,1,1.0,1.0,0.29679634468629956,0.0,2,1,4,8,0,3,nan,nan,nan,nan,nan,nan,nan,nan,nan,nan,nan,nan,0.0,nan,nan,nan,nan,nan,nan,nan,nan,nan,nan,nan,nan,nan,nan,nan,nan,nan,nan,171.69776515872218,426.2350544689689,nan,426.5318508136552,nan,nan,nan,nan
1,154,1,1,1.0,1.0,0.4723569224588573,0.0,8,4,1,6,7,0,nan,nan,nan,nan,nan,nan,nan,nan,nan,nan,nan,nan,0.0,nan,nan,nan,nan,nan,nan,nan,nan,nan,nan,nan,nan,nan,nan,nan,nan,nan,nan,171.69776515872218,427.2434730769601,nan,427.71582999941893,nan,nan,nan,nan
1,155,1,1,1.0,1.0,0.6158515810966492,0.0,5,7,2,3,8,1,nan,nan,nan,nan,nan,nan,nan,nan,nan,nan,nan,nan,0.0,nan,nan,nan,nan,nan,nan,nan,nan,nan,nan,nan,nan,nan,nan,nan,nan,nan,nan,171.69776515872218,428.2519364452455,nan,428.86778802634217,nan,nan,nan,nan
1,156,1,1,1.0,1.0,0.6793373906984925,0.0,4,2,3,0,7,6,nan,nan,nan,nan,nan,nan,nan,nan,nan,nan,nan,nan,0.0,nan,nan,nan,nan,nan,nan,nan,nan,nan,nan,nan,nan,nan,nan,nan,nan,nan,nan,171.69776515872218,429.260427467525,nan,429.9397648582235,nan,nan,nan,nan
1,157,1,1,1.0,1.0,0.5828881792258471,0.0,2,8,5,6,3,7,nan,nan,nan,nan,nan,nan,nan,nan,nan,nan,nan,nan,0.0,nan,nan,nan,nan,nan,nan,nan,nan,nan,nan,nan,nan,nan,nan,nan,nan,nan,nan,171.69776515872218,430.26884921174496,nan,430.8517373909708,nan,nan,nan,nan
1,158,1,1,1.0,1.0,0.4144102483987808,0.0,7,5,0,2,6,1,nan,nan,nan,nan,nan,nan,nan,nan,nan,nan,nan,nan,0.0,nan,nan,nan,nan,nan,nan,nan,nan,nan,nan,nan,nan,nan,nan,nan,nan,nan,nan,171.69776515872218,431.27730231639,nan,431.69171256478876,nan,nan,nan,nan
1,159,0,0,0.0,1.0,0.5099260546267033,1.0,1,3,8,4,2,7,1.0,1.0,1.0,1.0,1.0,1.0,1.0,0.0,1.0,1.0,1.0,0.0,4.0,1.0,7.0,8.0,4.0,2.0,3.0,5.0,4.0,3.0,2.0,1.0,6.0,8.416605204576626,7.67373011703603,5.410044283838943,3.7786429815459996,2.8580556944943964,9.74476983747445,171.69776515872218,432.2857542806305,433.09416644554585,432.7956803352572,443.89549767412245,444.8933839702513,434.11099881492555,443.88715889304876
1,160,1,1,1.0,1.0,0.6597230518236756,0.0,6,0,1,3,7,4,nan,nan,nan,nan,nan,nan,nan,nan,nan,nan,nan,nan,0.0,nan,nan,nan,nan,nan,nan,nan,nan,nan,nan,nan,nan,nan,nan,nan,nan,nan,nan,171.69776515872218,445.09570511011407,nan,445.75542816193774,nan,nan,nan,nan
1,161,1,1,1.0,1.0,0.2912338310852647,0.0,8,5,6,2,3,0,nan,nan,nan,nan,nan,nan,nan,nan,nan,nan,nan,nan,0.0,nan,nan,nan,nan,nan,nan,nan,nan,nan,nan,nan,nan,nan,nan,nan,nan,nan,nan,171.69776515872218,446.1041331263259,nan,446.39536695741117,nan,nan,nan,nan
1,162,1,1,1.0,1.0,0.26677114493213594,0.0,7,0,2,4,8,1,nan,nan,nan,nan,nan,nan,nan,nan,nan,nan,nan,nan,0.0,nan,nan,nan,nan,nan,nan,nan,nan,nan,nan,nan,nan,nan,nan,nan,nan,nan,nan,171.69776515872218,447.1125850905664,nan,447.37935623549856,nan,nan,nan,nan
1,163,0,0,0.0,1.0,0.4423026426229626,0.0,1,3,8,2,4,5,nan,nan,nan,nan,nan,nan,nan,nan,nan,nan,nan,nan,0.0,nan,nan,nan,nan,nan,nan,nan,nan,nan,nan,nan,nan,nan,nan,nan,nan,nan,nan,171.69776515872218,448.12104218662716,nan,448.5633448292501,nan,nan,nan,nan
1,164,1,1,1.0,1.0,0.48180301720276475,0.0,0,2,5,7,8,6,nan,nan,nan,nan,nan,nan,nan,nan,nan,nan,nan,nan,0.0,nan,nan,nan,nan,nan,nan,nan,nan,nan,nan,nan,nan,nan,nan,nan,nan,nan,nan,171.69776515872218,449.1295121118892,nan,449.61131512909196,nan,nan,nan,nan
1,165,1,1,1.0,1.0,0.2653083158656955,0.0,1,4,8,6,3,0,nan,nan,nan,nan,nan,nan,nan,nan,nan,nan,nan,nan,0.0,nan,nan,nan,nan,nan,nan,nan,nan,nan,nan,nan,nan,nan,nan,nan,nan,nan,nan,171.69776515872218,450.1379854583647,nan,450.4032937742304,nan,nan,nan,nan
1,166,1,1,1.0,1.0,0.28085661167278886,0.0,5,8,3,7,1,2,nan,nan,nan,nan,nan,nan,nan,nan,nan,nan,nan,nan,0.0,nan,nan,nan,nan,nan,nan,nan,nan,nan,nan,nan,nan,nan,nan,nan,nan,nan,nan,171.69776515872218,451.146415470168,nan,451.4272720818408,nan,nan,nan,nan
1,167,1,1,1.0,1.0,0.30437790998257697,0.0,2,0,8,4,3,7,nan,nan,nan,nan,nan,nan,nan,nan,nan,nan,nan,nan,0.0,nan,nan,nan,nan,nan,nan,nan,nan,nan,nan,nan,nan,nan,nan,nan,nan,nan,nan,171.69776515872218,452.15486686420627,nan,452.45924477418885,nan,nan,nan,nan
1,168,1,1,1.0,1.0,0.28020032006315887,0.0,8,2,1,3,6,0,nan,nan,nan,nan,nan,nan,nan,nan,nan,nan,nan,nan,0.0,nan,nan,nan,nan,nan,nan,nan,nan,nan,nan,nan,nan,nan,nan,nan,nan,nan,nan,171.69776515872218,453.1549988638144,nan,453.43519918387756,nan,nan,nan,nan
1,169,1,1,1.0,1.0,0.31206211005337536,0.0,4,3,7,8,1,5,nan,nan,nan,nan,nan,nan,nan,nan,nan,nan,nan,nan,0.0,nan,nan,nan,nan,nan,nan,nan,nan,nan,nan,nan,nan,nan,nan,nan,nan,nan,nan,171.69776515872218,454.1551231658086,nan,454.467185275862,nan,nan,nan,nan
1,170,1,1,1.0,1.0,0.3676216728053987,0.0,1,2,4,6,0,8,nan,nan,nan,nan,nan,nan,nan,nan,nan,nan,nan,nan,0.0,nan,nan,nan,nan,nan,nan,nan,nan,nan,nan,nan,nan,nan,nan,nan,nan,nan,nan,171.69776515872218,455.16355602862313,nan,455.53117770142853,nan,nan,nan,nan
1,171,1,1,1.0,1.0,0.3514350464101881,0.0,6,4,3,5,2,7,nan,nan,nan,nan,nan,nan,nan,nan,nan,nan,nan,nan,0.0,nan,nan,nan,nan,nan,nan,nan,nan,nan,nan,nan,nan,nan,nan,nan,nan,nan,nan,171.69776515872218,456.16372794169,nan,456.5151629881002,nan,nan,nan,nan
1,172,1,1,1.0,1.0,0.43096208292990923,0.0,3,1,6,8,5,0,nan,nan,nan,nan,nan,nan,nan,nan,nan,nan,nan,nan,0.0,nan,nan,nan,nan,nan,nan,nan,nan,nan,nan,nan,nan,nan,nan,nan,nan,nan,nan,171.69776515872218,457.17218133155257,nan,457.6031434144825,nan,nan,nan,nan
1,173,1,1,1.0,1.0,0.47880751080811024,0.0,1,8,4,6,7,2,nan,nan,nan,nan,nan,nan,nan,nan,nan,nan,nan,nan,0.0,nan,nan,nan,nan,nan,nan,nan,nan,nan,nan,nan,nan,nan,nan,nan,nan,nan,nan,171.69776515872218,458.17230677371845,nan,458.65111428452656,nan,nan,nan,nan
1,174,1,1,1.0,1.0,0.4383201329037547,0.0,0,2,8,4,5,1,nan,nan,nan,nan,nan,nan,nan,nan,nan,nan,nan,nan,0.0,nan,nan,nan,nan,nan,nan,nan,nan,nan,nan,nan,nan,nan,nan,nan,nan,nan,nan,171.69776515872218,459.1807670057751,nan,459.6190871386789,nan,nan,nan,nan
1,175,1,1,1.0,1.0,0.35018775006756186,0.0,2,1,7,0,3,6,nan,nan,nan,nan,nan,nan,nan,nan,nan,nan,nan,nan,0.0,nan,nan,nan,nan,nan,nan,nan,nan,nan,nan,nan,nan,nan,nan,nan,nan,nan,nan,171.69776515872218,460.180883895373,nan,460.53107164544053,nan,nan,nan,nan
1,176,1,1,1.0,1.0,0.3256919926498085,0.0,5,6,8,3,1,2,nan,nan,nan,nan,nan,nan,nan,nan,nan,nan,nan,nan,0.0,nan,nan,nan,nan,nan,nan,nan,nan,nan,nan,nan,nan,nan,nan,nan,nan,nan,nan,171.69776515872218,461.18934042123146,nan,461.5150324138813,nan,nan,nan,nan
1,177,1,1,1.0,1.0,0.3652123238425702,0.0,2,0,5,7,6,4,nan,nan,nan,nan,nan,nan,nan,nan,nan,nan,nan,nan,0.0,nan,nan,nan,nan,nan,nan,nan,nan,nan,nan,nan,nan,nan,nan,nan,nan,nan,nan,171.69776515872218,462.1978035042994,nan,462.56301582814194,nan,nan,nan,nan
1,178,1,1,1.0,1.0,0.3807859933003783,0.0,8,1,0,5,2,7,nan,nan,nan,nan,nan,nan,nan,nan,nan,nan,nan,nan,0.0,nan,nan,nan,nan,nan,nan,nan,nan,nan,nan,nan,nan,nan,nan,nan,nan,nan,nan,171.69776515872218,463.20622068666853,nan,463.5870066799689,nan,nan,nan,nan
1,179,1,1,1.0,1.0,0.43626173795200884,0.0,5,2,4,1,8,3,nan,nan,nan,nan,nan,nan,nan,nan,nan,nan,nan,nan,0.0,nan,nan,nan,nan,nan,nan,nan,nan,nan,nan,nan,nan,nan,nan,nan,nan,nan,nan,171.69776515872218,464.21471313457005,nan,464.65097487252206,nan,nan,nan,nan
1,180,1,1,1.0,1.0,0.5797467033844441,0.0,6,8,2,0,5,7,nan,nan,nan,nan,nan,nan,nan,nan,nan,nan,nan,nan,0.0,nan,nan,nan,nan,nan,nan,nan,nan,nan,nan,nan,nan,nan,nan,nan,nan,nan,nan,171.69776515872218,465.22317764326,nan,465.80292434664443,nan,nan,nan,nan
1,181,1,1,1.0,1.0,0.5633197408169508,0.0,5,6,1,7,0,8,nan,nan,nan,nan,nan,nan,nan,nan,nan,nan,nan,nan,0.0,nan,nan,nan,nan,nan,nan,nan,nan,nan,nan,nan,nan,nan,nan,nan,nan,nan,nan,171.69776515872218,466.23158997902647,nan,466.7949097198434,nan,nan,nan,nan
1,182,0,0,0.0,1.0,0.5868373329285532,0.0,1,2,6,4,5,3,nan,nan,nan,nan,nan,nan,nan,nan,nan,nan,nan,nan,0.0,nan,nan,nan,nan,nan,nan,nan,nan,nan,nan,nan,nan,nan,nan,nan,nan,nan,nan,171.69776515872218,467.2400408028625,nan,467.82687813579105,nan,nan,nan,nan
1,183,1,1,1.0,1.0,0.43440804188139737,0.0,4,8,5,1,7,0,nan,nan,nan,nan,nan,nan,nan,nan,nan,nan,nan,nan,0.0,nan,nan,nan,nan,nan,nan,nan,nan,nan,nan,nan,nan,nan,nan,nan,nan,nan,nan,171.69776515872218,468.24847167008556,nan,468.68287971196696,nan,nan,nan,nan
1,184,1,1,1.0,1.0,0.37015788932330906,0.0,8,4,3,2,5,1,nan,nan,nan,nan,nan,nan,nan,nan,nan,nan,nan,nan,0.0,nan,nan,nan,nan,nan,nan,nan,nan,nan,nan,nan,nan,nan,nan,nan,nan,nan,nan,171.69776515872218,469.2486735181883,nan,469.6188314075116,nan,nan,nan,nan
1,185,1,1,1.0,1.0,0.3617207498755306,0.0,6,2,5,8,0,3,nan,nan,nan,nan,nan,nan,nan,nan,nan,nan,nan,nan,0.0,nan,nan,nan,nan,nan,nan,nan,nan,nan,nan,nan,nan,nan,nan,nan,nan,nan,nan,171.69776515872218,470.25709412200376,nan,470.6188148718793,nan,nan,nan,nan
1,186,1,1,1.0,1.0,0.3692555595189333,0.0,8,6,0,7,2,1,nan,nan,nan,nan,nan,nan,nan,nan,nan,nan,nan,nan,0.0,nan,nan,nan,nan,nan,nan,nan,nan,nan,nan,nan,nan,nan,nan,nan,nan,nan,nan,171.69776515872218,471.26553325681016,nan,471.6347888163291,nan,nan,nan,nan
1,187,1,1,1.0,1.0,0.4967859669122845,0.0,2,7,5,1,4,0,nan,nan,nan,nan,nan,nan,nan,nan,nan,nan,nan,nan,0.0,nan,nan,nan,nan,nan,nan,nan,nan,nan,nan,nan,nan,nan,nan,nan,nan,nan,nan,171.69776515872218,472.2740026121028,nan,472.77078857901506,nan,nan,nan,nan
1,188,1,1,1.0,1.0,0.440301266964525,0.0,5,8,3,2,1,6,nan,nan,nan,nan,nan,nan,nan,nan,nan,nan,nan,nan,0.0,nan,nan,nan,nan,nan,nan,nan,nan,nan,nan,nan,nan,nan,nan,nan,nan,nan,nan,171.69776515872218,473.2824885027949,nan,473.7227897697594,nan,nan,nan,nan
1,189,1,1,1.0,1.0,0.4881059257313609,0.0,2,0,4,8,6,5,nan,nan,nan,nan,nan,nan,nan,nan,nan,nan,nan,nan,0.0,nan,nan,nan,nan,nan,nan,nan,nan,nan,nan,nan,nan,nan,nan,nan,nan,nan,nan,171.69776515872218,474.2826207873877,nan,474.7707267131191,nan,nan,nan,nan
1,190,1,1,1.0,1.0,0.4956749470438808,0.0,5,7,3,2,4,1,nan,nan,nan,nan,nan,nan,nan,nan,nan,nan,nan,nan,0.0,nan,nan,nan,nan,nan,nan,nan,nan,nan,nan,nan,nan,nan,nan,nan,nan,nan,nan,171.69776515872218,475.2910442419816,nan,475.78671918902546,nan,nan,nan,nan
1,191,1,1,1.0,1.0,0.5751811715308577,0.0,3,4,5,7,0,6,nan,nan,nan,nan,nan,nan,nan,nan,nan,nan,nan,nan,0.0,nan,nan,nan,nan,nan,nan,nan,nan,nan,nan,nan,nan,nan,nan,nan,nan,nan,nan,171.69776515872218,476.29952072468586,nan,476.8747018962167,nan,nan,nan,nan
1,192,1,1,1.0,1.0,0.5110259561333805,0.0,6,1,0,2,5,8,nan,nan,nan,nan,nan,nan,nan,nan,nan,nan,nan,nan,0.0,nan,nan,nan,nan,nan,nan,nan,nan,nan,nan,nan,nan,nan,nan,nan,nan,nan,nan,171.69776515872218,477.29964844766073,nan,477.8106744037941,nan,nan,nan,nan
1,193,0,0,0.0,1.0,0.534547254210338,0.0,4,0,5,3,8,6,nan,nan,nan,nan,nan,nan,nan,nan,nan,nan,nan,nan,0.0,nan,nan,nan,nan,nan,nan,nan,nan,nan,nan,nan,nan,nan,nan,nan,nan,nan,nan,171.69776515872218,478.30811010533944,nan,478.8426573595498,nan,nan,nan,nan
1,194,1,1,1.0,1.0,0.4940570255275816,0.0,1,6,0,8,4,7,nan,nan,nan,nan,nan,nan,nan,nan,nan,nan,nan,nan,0.0,nan,nan,nan,nan,nan,nan,nan,nan,nan,nan,nan,nan,nan,nan,nan,nan,nan,nan,171.69776515872218,479.31656092917547,nan,479.81061795470305,nan,nan,nan,nan
1,195,1,1,1.0,1.0,0.5175640690140426,0.0,4,5,6,1,7,3,nan,nan,nan,nan,nan,nan,nan,nan,nan,nan,nan,nan,0.0,nan,nan,nan,nan,nan,nan,nan,nan,nan,nan,nan,nan,nan,nan,nan,nan,nan,nan,171.69776515872218,480.3250231568236,nan,480.84258722583763,nan,nan,nan,nan
1,196,1,1,1.0,1.0,0.5010943422093987,0.0,2,7,3,5,4,6,nan,nan,nan,nan,nan,nan,nan,nan,nan,nan,nan,nan,0.0,nan,nan,nan,nan,nan,nan,nan,nan,nan,nan,nan,nan,nan,nan,nan,nan,nan,nan,171.69776515872218,481.3334594408516,nan,481.834553783061,nan,nan,nan,nan
1,197,1,1,1.0,1.0,0.332583055133,0.0,1,6,5,4,0,2,nan,nan,nan,nan,nan,nan,nan,nan,nan,nan,nan,nan,0.0,nan,nan,nan,nan,nan,nan,nan,nan,nan,nan,nan,nan,nan,nan,nan,nan,nan,nan,171.69776515872218,482.3419370637275,nan,482.6745201188605,nan,nan,nan,nan
1,198,1,1,1.0,1.0,0.36414178740233183,0.0,4,5,0,7,2,3,nan,nan,nan,nan,nan,nan,nan,nan,nan,nan,nan,nan,0.0,nan,nan,nan,nan,nan,nan,nan,nan,nan,nan,nan,nan,nan,nan,nan,nan,nan,nan,171.69776515872218,483.35035937814973,nan,483.71450116555206,nan,nan,nan,nan
1,199,1,1,1.0,1.0,0.3316713171079755,0.0,3,8,4,2,7,1,nan,nan,nan,nan,nan,nan,nan,nan,nan,nan,nan,nan,0.0,nan,nan,nan,nan,nan,nan,nan,nan,nan,nan,nan,nan,nan,nan,nan,nan,nan,nan,171.69776515872218,484.3588121975772,nan,484.6904835146852,nan,nan,nan,nan
1,200,1,1,1.0,1.0,0.2752122755628079,0.0,4,5,6,1,8,0,nan,nan,nan,nan,nan,nan,nan,nan,nan,nan,nan,nan,0.0,nan,nan,nan,nan,nan,nan,nan,nan,nan,nan,nan,nan,nan,nan,nan,nan,nan,nan,171.69776515872218,485.367285259068,nan,485.6424975346308,nan,nan,nan,nan
1,201,1,1,1.0,1.0,0.29069556947797537,0.0,7,0,4,8,6,3,nan,nan,nan,nan,nan,nan,nan,nan,nan,nan,nan,nan,0.0,nan,nan,nan,nan,nan,nan,nan,nan,nan,nan,nan,nan,nan,nan,nan,nan,nan,nan,171.69776515872218,486.37573750829324,nan,486.6664330777712,nan,nan,nan,nan
1,202,1,1,1.0,1.0,0.4422635845839977,0.0,0,2,7,5,3,6,nan,nan,nan,nan,nan,nan,nan,nan,nan,nan,nan,nan,0.0,nan,nan,nan,nan,nan,nan,nan,nan,nan,nan,nan,nan,nan,nan,nan,nan,nan,nan,171.69776515872218,487.38418263033964,nan,487.82644621492364,nan,nan,nan,nan
1,203,0,0,0.0,1.0,0.49777154508046806,1.0,1,8,6,7,5,2,1.0,1.0,1.0,1.0,1.0,1.0,0.0,1.0,1.0,1.0,1.0,1.0,5.0,0.0,8.0,6.0,7.0,5.0,2.0,6.0,5.0,4.0,3.0,2.0,1.0,8.796326078241691,6.972105609951541,5.516795164439827,4.221743894042447,3.1814478158485144,1.8215451249852777,171.69776515872218,488.39263944118284,489.2010798305273,488.8904109862633,499.06061431975104,500.06933826580644,490.22622646274976,499.0522840914782
1,204,1,1,1.0,1.0,0.6606920938938856,0.0,6,0,8,5,1,7,nan,nan,nan,nan,nan,nan,nan,nan,nan,nan,nan,nan,0.0,nan,nan,nan,nan,nan,nan,nan,nan,nan,nan,nan,nan,nan,nan,nan,nan,nan,nan,171.69776515872218,500.2774682424497,nan,500.93816033634357,nan,nan,nan,nan
1,205,0,0,0.0,1.0,0.548179417848587,1.0,3,7,5,2,0,4,1.0,1.0,1.0,1.0,1.0,1.0,1.0,1.0,0.0,0.0,1.0,1.0,4.0,3.0,7.0,8.0,6.0,0.0,4.0,3.0,4.0,5.0,6.0,1.0,2.0,3.6394812159705907,4.646975256735459,7.303890680195764,8.199165979167446,1.5922507408540696,2.728655625600368,171.69776515872218,501.28592562349513,502.09432838018984,501.8341050413437,511.3537625723984,512.3618672892917,503.11110772169195,511.3454337697476
1,206,1,1,1.0,1.0,0.45558299752883613,0.0,2,4,7,6,3,8,nan,nan,nan,nan,nan,nan,nan,nan,nan,nan,nan,nan,0.0,nan,nan,nan,nan,nan,nan,nan,nan,nan,nan,nan,nan,nan,nan,nan,nan,nan,nan,171.69776515872218,512.5622925390489,nan,513.0178755365778,nan,nan,nan,nan
1,207,1,1,1.0,1.0,0.37509604170918465,0.0,7,5,1,8,4,0,nan,nan,nan,nan,nan,nan,nan,nan,nan,nan,nan,nan,0.0,nan,nan,nan,nan,nan,nan,nan,nan,nan,nan,nan,nan,nan,nan,nan,nan,nan,nan,171.69776515872218,513.5707368056756,nan,513.9458328473847,nan,nan,nan,nan
1,208,1,1,1.0,1.0,0.3106275056488812,0.0,5,4,8,2,3,6,nan,nan,nan,nan,nan,nan,nan,nan,nan,nan,nan,nan,0.0,nan,nan,nan,nan,nan,nan,nan,nan,nan,nan,nan,nan,nan,nan,nan,nan,nan,nan,171.69776515872218,514.5791836380959,nan,514.8898111437447,nan,nan,nan,nan
1,209,1,1,1.0,1.0,0.3261187819298357,0.0,1,6,3,5,0,7,nan,nan,nan,nan,nan,nan,nan,nan,nan,nan,nan,nan,0.0,nan,nan,nan,nan,nan,nan,nan,nan,nan,nan,nan,nan,nan,nan,nan,nan,nan,nan,171.69776515872218,515.5876718095969,nan,515.9137905915268,nan,nan,nan,nan
1,210,1,1,1.0,1.0,0.277636734303087,0.0,2,8,0,7,3,1,nan,nan,nan,nan,nan,nan,nan,nan,nan,nan,nan,nan,0.0,nan,nan,nan,nan,nan,nan,nan,nan,nan,nan,nan,nan,nan,nan,nan,nan,nan,nan,171.69776515872218,516.5961115148384,nan,516.8737482491415,nan,nan,nan,nan
1,211,1,1,1.0,1.0,0.22916808631271124,0.0,6,1,3,2,4,0,nan,nan,nan,nan,nan,nan,nan,nan,nan,nan,nan,nan,0.0,nan,nan,nan,nan,nan,nan,nan,nan,nan,nan,nan,nan,nan,nan,nan,nan,nan,nan,171.69776515872218,517.6045563516673,nan,517.83372443798,nan,nan,nan,nan
1,212,1,1,1.0,1.0,0.2846891609951854,0.0,5,0,7,8,6,4,nan,nan,nan,nan,nan,nan,nan,nan,nan,nan,nan,nan,0.0,nan,nan,nan,nan,nan,nan,nan,nan,nan,nan,nan,nan,nan,nan,nan,nan,nan,nan,171.69776515872218,518.6130117371213,nan,518.8977008981165,nan,nan,nan,nan
1,213,1,1,1.0,1.0,0.22819761838763952,0.0,3,2,0,6,7,5,nan,nan,nan,nan,nan,nan,nan,nan,nan,nan,nan,nan,0.0,nan,nan,nan,nan,nan,nan,nan,nan,nan,nan,nan,nan,nan,nan,nan,nan,nan,nan,171.69776515872218,519.6214933514129,nan,519.8496909698006,nan,nan,nan,nan
1,214,1,1,1.0,1.0,0.2517437201458961,0.0,4,5,8,2,0,1,nan,nan,nan,nan,nan,nan,nan,nan,nan,nan,nan,nan,0.0,nan,nan,nan,nan,nan,nan,nan,nan,nan,nan,nan,nan,nan,nan,nan,nan,nan,nan,171.69776515872218,520.6299501622561,nan,520.881693882402,nan,nan,nan,nan
1,215,1,1,1.0,1.0,0.23522552684880793,0.0,2,1,5,4,8,6,nan,nan,nan,nan,nan,nan,nan,nan,nan,nan,nan,nan,0.0,nan,nan,nan,nan,nan,nan,nan,nan,nan,nan,nan,nan,nan,nan,nan,nan,nan,nan,171.69776515872218,521.6384064028971,nan,521.8736319297459,nan,nan,nan,nan
1,216,1,1,1.0,1.0,0.22680948465131223,0.0,0,5,2,3,7,1,nan,nan,nan,nan,nan,nan,nan,nan,nan,nan,nan,nan,0.0,nan,nan,nan,nan,nan,nan,nan,nan,nan,nan,nan,nan,nan,nan,nan,nan,nan,nan,171.69776515872218,522.6468295725062,nan,522.8736390571576,nan,nan,nan,nan
1,217,1,1,1.0,1.0,0.2423158714082092,0.0,3,4,7,1,2,0,nan,nan,nan,nan,nan,nan,nan,nan,nan,nan,nan,nan,0.0,nan,nan,nan,nan,nan,nan,nan,nan,nan,nan,nan,nan,nan,nan,nan,nan,nan,nan,171.69776515872218,523.6553029189818,nan,523.89761879039,nan,nan,nan,nan
1,218,1,1,1.0,1.0,0.24181182123720646,0.0,5,6,2,4,7,3,nan,nan,nan,nan,nan,nan,nan,nan,nan,nan,nan,nan,0.0,nan,nan,nan,nan,nan,nan,nan,nan,nan,nan,nan,nan,nan,nan,nan,nan,nan,nan,171.69776515872218,524.663762010634,nan,524.9055738318712,nan,nan,nan,nan
1,219,1,1,1.0,1.0,0.28131019975990057,0.0,0,2,7,6,5,4,nan,nan,nan,nan,nan,nan,nan,nan,nan,nan,nan,nan,0.0,nan,nan,nan,nan,nan,nan,nan,nan,nan,nan,nan,nan,nan,nan,nan,nan,nan,nan,171.69776515872218,525.6722421995364,nan,525.9535523992963,nan,nan,nan,nan
1,220,1,1,1.0,1.0,0.28081327700056136,0.0,4,6,2,3,0,8,nan,nan,nan,nan,nan,nan,nan,nan,nan,nan,nan,nan,0.0,nan,nan,nan,nan,nan,nan,nan,nan,nan,nan,nan,nan,nan,nan,nan,nan,nan,nan,171.69776515872218,526.6806927383877,nan,526.9615060153883,nan,nan,nan,nan
1,221,1,1,1.0,1.0,0.2643589451909065,0.0,5,0,3,7,4,1,nan,nan,nan,nan,nan,nan,nan,nan,nan,nan,nan,nan,0.0,nan,nan,nan,nan,nan,nan,nan,nan,nan,nan,nan,nan,nan,nan,nan,nan,nan,nan,171.69776515872218,527.6891256012022,nan,527.9534845463932,nan,nan,nan,nan
1,222,1,1,1.0,1.0,0.32820226554758847,0.0,1,2,8,6,7,3,nan,nan,nan,nan,nan,nan,nan,nan,nan,nan,nan,nan,0.0,nan,nan,nan,nan,nan,nan,nan,nan,nan,nan,nan,nan,nan,nan,nan,nan,nan,nan,171.69776515872218,528.6892630176153,nan,529.0174652831629,nan,nan,nan,nan
1,223,1,1,1.0,1.0,0.4717451056931168,0.0,4,0,7,2,5,1,nan,nan,nan,nan,nan,nan,nan,nan,nan,nan,nan,nan,0.0,nan,nan,nan,nan,nan,nan,nan,nan,nan,nan,nan,nan,nan,nan,nan,nan,nan,nan,171.69776515872218,529.6976941698231,nan,530.1694392755162,nan,nan,nan,nan
1,224,1,1,1.0,1.0,0.35924868006259203,0.0,5,1,6,0,3,4,nan,nan,nan,nan,nan,nan,nan,nan,nan,nan,nan,nan,0.0,nan,nan,nan,nan,nan,nan,nan,nan,nan,nan,nan,nan,nan,nan,nan,nan,nan,nan,171.69776515872218,530.7061606738716,nan,531.0654093539342,nan,nan,nan,nan
1,225,1,1,1.0,1.0,0.3027859323192388,0.0,0,6,2,8,4,3,nan,nan,nan,nan,nan,nan,nan,nan,nan,nan,nan,nan,0.0,nan,nan,nan,nan,nan,nan,nan,nan,nan,nan,nan,nan,nan,nan,nan,nan,nan,nan,171.69776515872218,531.714608931914,nan,532.0173948642332,nan,nan,nan,nan
1,226,1,1,1.0,1.0,0.31032530358061194,0.0,3,5,8,0,1,7,nan,nan,nan,nan,nan,nan,nan,nan,nan,nan,nan,nan,0.0,nan,nan,nan,nan,nan,nan,nan,nan,nan,nan,nan,nan,nan,nan,nan,nan,nan,nan,171.69776515872218,532.7230543389451,nan,533.0333796425257,nan,nan,nan,nan
1,227,1,1,1.0,1.0,0.30980471754446626,0.0,0,3,4,2,5,6,nan,nan,nan,nan,nan,nan,nan,nan,nan,nan,nan,nan,0.0,nan,nan,nan,nan,nan,nan,nan,nan,nan,nan,nan,nan,nan,nan,nan,nan,nan,nan,171.69776515872218,533.7315636076964,nan,534.0413683252409,nan,nan,nan,nan
1,228,1,1,1.0,1.0,0.2936571496538818,0.0,2,7,3,8,0,1,nan,nan,nan,nan,nan,nan,nan,nan,nan,nan,nan,nan,0.0,nan,nan,nan,nan,nan,nan,nan,nan,nan,nan,nan,nan,nan,nan,nan,nan,nan,nan,171.69776515872218,534.7316864840686,nan,535.0253436337225,nan,nan,nan,nan
1,229,0,0,0.0,1.0,0.46120253042317927,0.0,8,6,5,1,3,2,nan,nan,nan,nan,nan,nan,nan,nan,nan,nan,nan,nan,0.0,nan,nan,nan,nan,nan,nan,nan,nan,nan,nan,nan,nan,nan,nan,nan,nan,nan,nan,171.69776515872218,535.7401261893101,nan,536.2013287197333,nan,nan,nan,nan
1,230,1,1,1.0,1.0,0.4446869029197842,0.0,4,1,2,5,0,3,nan,nan,nan,nan,nan,nan,nan,nan,nan,nan,nan,nan,0.0,nan,nan,nan,nan,nan,nan,nan,nan,nan,nan,nan,nan,nan,nan,nan,nan,nan,nan,171.69776515872218,536.7486203478184,nan,537.1933072507381,nan,nan,nan,nan
1,231,1,1,1.0,1.0,0.3002377417869866,0.0,1,5,8,3,2,6,nan,nan,nan,nan,nan,nan,nan,nan,nan,nan,nan,nan,0.0,nan,nan,nan,nan,nan,nan,nan,nan,nan,nan,nan,nan,nan,nan,nan,nan,nan,nan,171.69776515872218,537.7570640442427,nan,538.0573017860297,nan,nan,nan,nan
1,232,1,1,1.0,1.0,0.28374777315184474,0.0,7,2,6,5,8,1,nan,nan,nan,nan,nan,nan,nan,nan,nan,nan,nan,nan,0.0,nan,nan,nan,nan,nan,nan,nan,nan,nan,nan,nan,nan,nan,nan,nan,nan,nan,nan,171.69776515872218,538.7655100214761,nan,539.0492577946279,nan,nan,nan,nan
1,233,1,1,1.0,1.0,0.3152423589490354,0.0,3,0,8,6,1,5,nan,nan,nan,nan,nan,nan,nan,nan,nan,nan,nan,nan,0.0,nan,nan,nan,nan,nan,nan,nan,nan,nan,nan,nan,nan,nan,nan,nan,nan,nan,nan,171.69776515872218,539.7739782363642,nan,540.0892205953132,nan,nan,nan,nan
1,234,0,0,0.0,1.0,0.4427964296191931,0.0,5,2,4,7,3,0,nan,nan,nan,nan,nan,nan,nan,nan,nan,nan,nan,nan,0.0,nan,nan,nan,nan,nan,nan,nan,nan,nan,nan,nan,nan,nan,nan,nan,nan,nan,nan,171.69776515872218,540.7824019759428,nan,541.225198405562,nan,nan,nan,nan
1,235,1,1,1.0,1.0,0.5382794495671988,0.0,0,1,2,5,6,3,nan,nan,nan,nan,nan,nan,nan,nan,nan,nan,nan,nan,0.0,nan,nan,nan,nan,nan,nan,nan,nan,nan,nan,nan,nan,nan,nan,nan,nan,nan,nan,171.69776515872218,541.7908870114479,nan,542.3291664610151,nan,nan,nan,nan
1,236,1,1,1.0,1.0,0.4178154384717345,0.0,1,6,0,3,7,4,nan,nan,nan,nan,nan,nan,nan,nan,nan,nan,nan,nan,0.0,nan,nan,nan,nan,nan,nan,nan,nan,nan,nan,nan,nan,nan,nan,nan,nan,nan,nan,171.69776515872218,542.7993466733024,nan,543.2171621117741,nan,nan,nan,nan
1,237,1,1,1.0,1.0,0.2653200048953295,0.0,8,3,2,1,6,5,nan,nan,nan,nan,nan,nan,nan,nan,nan,nan,nan,nan,0.0,nan,nan,nan,nan,nan,nan,nan,nan,nan,nan,nan,nan,nan,nan,nan,nan,nan,nan,171.69776515872218,543.8078031991608,nan,544.0731232040562,nan,nan,nan,nan
1,238,1,1,1.0,1.0,0.38490820047445595,0.0,1,7,0,4,2,8,nan,nan,nan,nan,nan,nan,nan,nan,nan,nan,nan,nan,0.0,nan,nan,nan,nan,nan,nan,nan,nan,nan,nan,nan,nan,nan,nan,nan,nan,nan,nan,171.69776515872218,544.8162303599529,nan,545.2011385604274,nan,nan,nan,nan
1,239,1,1,1.0,1.0,0.360359700396657,0.0,6,5,7,3,8,0,nan,nan,nan,nan,nan,nan,nan,nan,nan,nan,nan,nan,0.0,nan,nan,nan,nan,nan,nan,nan,nan,nan,nan,nan,nan,nan,nan,nan,nan,nan,nan,171.69776515872218,545.8247159656603,nan,546.185075666057,nan,nan,nan,nan
1,240,1,1,1.0,1.0,0.3918485844042152,0.0,5,3,4,8,6,7,nan,nan,nan,nan,nan,nan,nan,nan,nan,nan,nan,nan,0.0,nan,nan,nan,nan,nan,nan,nan,nan,nan,nan,nan,nan,nan,nan,nan,nan,nan,nan,171.69776515872218,546.8332115495577,nan,547.225060133962,nan,nan,nan,nan
1,241,0,0,0.0,1.0,0.5517074845265597,0.0,2,7,6,4,1,3,nan,nan,nan,nan,nan,nan,nan,nan,nan,nan,nan,nan,0.0,nan,nan,nan,nan,nan,nan,nan,nan,nan,nan,nan,nan,nan,nan,nan,nan,nan,nan,171.69776515872218,547.8333227371331,nan,548.3850302216597,nan,nan,nan,nan
1,242,1,1,1.0,1.0,0.4552562772296369,0.0,6,2,3,0,5,4,nan,nan,nan,nan,nan,nan,nan,nan,nan,nan,nan,nan,0.0,nan,nan,nan,nan,nan,nan,nan,nan,nan,nan,nan,nan,nan,nan,nan,nan,nan,nan,171.69776515872218,548.8417327923235,nan,549.2969890695531,nan,nan,nan,nan
1,243,0,0,1.0,0.0,0.23911538044922054,1.0,4,5,1,3,6,8,1.0,1.0,1.0,1.0,1.0,1.0,0.0,0.0,1.0,0.0,0.0,0.0,1.0,7.0,3.0,1.0,4.0,8.0,2.0,6.0,1.0,2.0,3.0,4.0,5.0,21.28176863468252,12.09233726770617,15.923753281123936,16.786296676145867,19.202337390277535,20.21040076832287,171.69776515872218,549.8418764809612,550.6502552893944,550.0809918614104,572.9863282078877,573.9961295328103,551.6670731189661,572.9779840100091
1,244,1,1,1.0,1.0,0.38924080855213106,0.0,7,8,6,5,2,4,nan,nan,nan,nan,nan,nan,nan,nan,nan,nan,nan,nan,0.0,nan,nan,nan,nan,nan,nan,nan,nan,nan,nan,nan,nan,nan,nan,nan,nan,nan,nan,171.69776515872218,574.2031972405966,nan,574.5924380491488,nan,nan,nan,nan
1,245,1,1,1.0,1.0,0.35675522801466286,0.0,6,5,0,2,8,1,nan,nan,nan,nan,nan,nan,nan,nan,nan,nan,nan,nan,0.0,nan,nan,nan,nan,nan,nan,nan,nan,nan,nan,nan,nan,nan,nan,nan,nan,nan,nan,171.69776515872218,575.2116474944633,nan,575.5684027224779,nan,nan,nan,nan
1,246,1,1,1.0,1.0,0.33228912064805627,0.0,8,2,6,7,3,5,nan,nan,nan,nan,nan,nan,nan,nan,nan,nan,nan,nan,0.0,nan,nan,nan,nan,nan,nan,nan,nan,nan,nan,nan,nan,nan,nan,nan,nan,nan,nan,171.69776515872218,576.2200803572778,nan,576.5523694779258,nan,nan,nan,nan
1,247,1,1,1.0,1.0,0.3081465975847095,0.0,3,0,4,5,8,2,nan,nan,nan,nan,nan,nan,nan,nan,nan,nan,nan,nan,0.0,nan,nan,nan,nan,nan,nan,nan,nan,nan,nan,nan,nan,nan,nan,nan,nan,nan,nan,171.69776515872218,577.22020323365,nan,577.5283498312347,nan,nan,nan,nan
1,248,1,1,1.0,1.0,0.30801801942288876,0.0,6,8,0,2,5,3,nan,nan,nan,nan,nan,nan,nan,nan,nan,nan,nan,nan,0.0,nan,nan,nan,nan,nan,nan,nan,nan,nan,nan,nan,nan,nan,nan,nan,nan,nan,nan,171.69776515872218,578.2203229740262,nan,578.5283409934491,nan,nan,nan,nan
1,249,1,1,1.0,1.0,0.2994916448369622,0.0,7,1,6,4,0,2,nan,nan,nan,nan,nan,nan,nan,nan,nan,nan,nan,nan,0.0,nan,nan,nan,nan,nan,nan,nan,nan,nan,nan,nan,nan,nan,nan,nan,nan,nan,nan,171.69776515872218,579.2288125711493,nan,579.5283042159863,nan,nan,nan,nan
1,250,1,1,1.0,1.0,0.28337258636020124,0.0,4,7,5,6,8,3,nan,nan,nan,nan,nan,nan,nan,nan,nan,nan,nan,nan,0.0,nan,nan,nan,nan,nan,nan,nan,nan,nan,nan,nan,nan,nan,nan,nan,nan,nan,nan,171.69776515872218,580.2289095039014,nan,580.5122820902616,nan,nan,nan,nan
1,251,1,1,1.0,1.0,0.28321891953237355,0.0,2,8,4,7,0,6,nan,nan,nan,nan,nan,nan,nan,nan,nan,nan,nan,nan,0.0,nan,nan,nan,nan,nan,nan,nan,nan,nan,nan,nan,nan,nan,nan,nan,nan,nan,nan,171.69776515872218,581.2290303846821,nan,581.5122493042145,nan,nan,nan,nan
1,252,1,1,1.0,1.0,0.2827285537496209,0.0,8,6,5,2,7,4,nan,nan,nan,nan,nan,nan,nan,nan,nan,nan,nan,nan,0.0,nan,nan,nan,nan,nan,nan,nan,nan,nan,nan,nan,nan,nan,nan,nan,nan,nan,nan,171.69776515872218,582.237510288367,nan,582.5202388421167,nan,nan,nan,nan
1,253,0,0,0.0,1.0,0.7222717497497797,0.0,2,3,1,6,4,8,nan,nan,nan,nan,nan,nan,nan,nan,nan,nan,nan,nan,0.0,nan,nan,nan,nan,nan,nan,nan,nan,nan,nan,nan,nan,nan,nan,nan,nan,nan,nan,171.69776515872218,583.2459414405748,nan,583.9682131903246,nan,nan,nan,nan
1,254,1,1,1.0,1.0,0.5217795025091618,0.0,4,6,0,1,7,2,nan,nan,nan,nan,nan,nan,nan,nan,nan,nan,nan,nan,0.0,nan,nan,nan,nan,nan,nan,nan,nan,nan,nan,nan,nan,nan,nan,nan,nan,nan,nan,171.69776515872218,584.2543934048153,nan,584.7761729073245,nan,nan,nan,nan
1,255,1,1,1.0,1.0,0.3212761366739869,0.0,7,8,2,6,5,3,nan,nan,nan,nan,nan,nan,nan,nan,nan,nan,nan,nan,0.0,nan,nan,nan,nan,nan,nan,nan,nan,nan,nan,nan,nan,nan,nan,nan,nan,nan,nan,171.69776515872218,585.2628792955074,nan,585.5841554321814,nan,nan,nan,nan
1,256,1,1,1.0,1.0,0.34481653617694974,0.0,1,6,4,8,3,0,nan,nan,nan,nan,nan,nan,nan,nan,nan,nan,nan,nan,0.0,nan,nan,nan,nan,nan,nan,nan,nan,nan,nan,nan,nan,nan,nan,nan,nan,nan,nan,171.69776515872218,586.271334966179,nan,586.6161515023559,nan,nan,nan,nan
1,257,1,1,1.0,1.0,0.3606633278541267,0.0,7,3,5,0,4,2,nan,nan,nan,nan,nan,nan,nan,nan,nan,nan,nan,nan,0.0,nan,nan,nan,nan,nan,nan,nan,nan,nan,nan,nan,nan,nan,nan,nan,nan,nan,nan,171.69776515872218,587.2714612637646,nan,587.6321245916188,nan,nan,nan,nan
1,258,0,0,0.0,1.0,0.5205051221419126,0.0,8,4,6,5,0,1,nan,nan,nan,nan,nan,nan,nan,nan,nan,nan,nan,nan,0.0,nan,nan,nan,nan,nan,nan,nan,nan,nan,nan,nan,nan,nan,nan,nan,nan,nan,nan,171.69776515872218,588.2715650389437,nan,588.7920701610856,nan,nan,nan,nan
1,259,1,1,1.0,1.0,0.4960951788816601,0.0,4,6,1,2,7,0,nan,nan,nan,nan,nan,nan,nan,nan,nan,nan,nan,nan,0.0,nan,nan,nan,nan,nan,nan,nan,nan,nan,nan,nan,nan,nan,nan,nan,nan,nan,nan,171.69776515872218,589.2799947655294,nan,589.7760899444111,nan,nan,nan,nan
1,260,0,0,1.0,0.0,0.37557614385150373,0.0,8,1,4,7,5,6,nan,nan,nan,nan,nan,nan,nan,nan,nan,nan,nan,nan,0.0,nan,nan,nan,nan,nan,nan,nan,nan,nan,nan,nan,nan,nan,nan,nan,nan,nan,nan,171.69776515872218,590.2884706780314,nan,590.664046821883,nan,nan,nan,nan
1,261,1,1,1.0,1.0,0.3510667020455003,0.0,4,0,6,5,2,1,nan,nan,nan,nan,nan,nan,nan,nan,nan,nan,nan,nan,0.0,nan,nan,nan,nan,nan,nan,nan,nan,nan,nan,nan,nan,nan,nan,nan,nan,nan,nan,171.69776515872218,591.2969551431015,nan,591.648021845147,nan,nan,nan,nan
1,262,1,1,1.0,1.0,0.3506142543628812,0.0,1,3,8,6,4,5,nan,nan,nan,nan,nan,nan,nan,nan,nan,nan,nan,nan,0.0,nan,nan,nan,nan,nan,nan,nan,nan,nan,nan,nan,nan,nan,nan,nan,nan,nan,nan,171.69776515872218,592.305414804956,nan,592.6560290593188,nan,nan,nan,nan
1,263,1,1,1.0,1.0,0.3584717926569283,0.0,4,5,3,1,7,2,nan,nan,nan,nan,nan,nan,nan,nan,nan,nan,nan,nan,0.0,nan,nan,nan,nan,nan,nan,nan,nan,nan,nan,nan,nan,nan,nan,nan,nan,nan,nan,171.69776515872218,593.3055105975363,nan,593.6639823901933,nan,nan,nan,nan
1,264,1,1,1.0,1.0,0.49399202363565564,0.0,0,1,2,3,8,6,nan,nan,nan,nan,nan,nan,nan,nan,nan,nan,nan,nan,0.0,nan,nan,nan,nan,nan,nan,nan,nan,nan,nan,nan,nan,nan,nan,nan,nan,nan,nan,171.69776515872218,594.3139597107656,nan,594.8079517344013,nan,nan,nan,nan
1,265,1,1,1.0,1.0,0.4694834367837757,0.0,2,7,5,8,4,1,nan,nan,nan,nan,nan,nan,nan,nan,nan,nan,nan,nan,0.0,nan,nan,nan,nan,nan,nan,nan,nan,nan,nan,nan,nan,nan,nan,nan,nan,nan,nan,171.69776515872218,595.32244617166,nan,595.7919296084438,nan,nan,nan,nan
1,266,1,1,1.0,1.0,0.5010139450896531,0.0,8,1,2,4,0,3,nan,nan,nan,nan,nan,nan,nan,nan,nan,nan,nan,nan,0.0,nan,nan,nan,nan,nan,nan,nan,nan,nan,nan,nan,nan,nan,nan,nan,nan,nan,nan,171.69776515872218,596.3308650646359,nan,596.8318790097255,nan,nan,nan,nan
1,267,1,1,1.0,1.0,0.5088629303500056,0.0,4,8,7,2,3,0,nan,nan,nan,nan,nan,nan,nan,nan,nan,nan,nan,nan,0.0,nan,nan,nan,nan,nan,nan,nan,nan,nan,nan,nan,nan,nan,nan,nan,nan,nan,nan,171.69776515872218,597.3310144552961,nan,597.8398773856461,nan,nan,nan,nan
1,268,1,1,1.0,1.0,0.5643988302908838,0.0,5,1,3,6,0,7,nan,nan,nan,nan,nan,nan,nan,nan,nan,nan,nan,nan,0.0,nan,nan,nan,nan,nan,nan,nan,nan,nan,nan,nan,nan,nan,nan,nan,nan,nan,nan,171.69776515872218,598.3394521647133,nan,598.9038509950042,nan,nan,nan,nan
1,269,1,1,1.0,1.0,0.4919265010394156,0.0,2,5,8,7,4,3,nan,nan,nan,nan,nan,nan,nan,nan,nan,nan,nan,nan,0.0,nan,nan,nan,nan,nan,nan,nan,nan,nan,nan,nan,nan,nan,nan,nan,nan,nan,nan,171.69776515872218,599.3478950059507,nan,599.8398215069901,nan,nan,nan,nan
1,270,1,1,1.0,1.0,0.39544393331743777,0.0,3,4,1,6,7,8,nan,nan,nan,nan,nan,nan,nan,nan,nan,nan,nan,nan,0.0,nan,nan,nan,nan,nan,nan,nan,nan,nan,nan,nan,nan,nan,nan,nan,nan,nan,nan,171.69776515872218,600.3563578038011,nan,600.7518017371185,nan,nan,nan,nan
1,271,1,1,1.0,1.0,0.33126676524989307,0.0,6,1,2,0,3,7,nan,nan,nan,nan,nan,nan,nan,nan,nan,nan,nan,nan,0.0,nan,nan,nan,nan,nan,nan,nan,nan,nan,nan,nan,nan,nan,nan,nan,nan,nan,nan,171.69776515872218,601.3564997818321,nan,601.687766547082,nan,nan,nan,nan
1,272,1,1,1.0,1.0,0.3308368402067572,0.0,7,5,0,2,8,3,nan,nan,nan,nan,nan,nan,nan,nan,nan,nan,nan,nan,0.0,nan,nan,nan,nan,nan,nan,nan,nan,nan,nan,nan,nan,nan,nan,nan,nan,nan,nan,171.69776515872218,602.364942337852,nan,602.6957791780587,nan,nan,nan,nan
1,273,1,1,1.0,1.0,0.2743242005817592,0.0,8,0,5,4,1,6,nan,nan,nan,nan,nan,nan,nan,nan,nan,nan,nan,nan,0.0,nan,nan,nan,nan,nan,nan,nan,nan,nan,nan,nan,nan,nan,nan,nan,nan,nan,nan,171.69776515872218,603.3734424833674,nan,603.6477666839492,nan,nan,nan,nan
1,274,1,1,1.0,1.0,0.2578422147780657,0.0,7,2,1,5,0,3,nan,nan,nan,nan,nan,nan,nan,nan,nan,nan,nan,nan,0.0,nan,nan,nan,nan,nan,nan,nan,nan,nan,nan,nan,nan,nan,nan,nan,nan,nan,nan,171.69776515872218,604.3818964431994,nan,604.6397386579774,nan,nan,nan,nan
1,275,1,1,1.0,1.0,0.3293583309277892,0.0,2,1,6,4,5,7,nan,nan,nan,nan,nan,nan,nan,nan,nan,nan,nan,nan,0.0,nan,nan,nan,nan,nan,nan,nan,nan,nan,nan,nan,nan,nan,nan,nan,nan,nan,nan,171.69776515872218,605.3903378590476,nan,605.7196961899754,nan,nan,nan,nan
1,276,1,1,1.0,1.0,0.3209035156760365,0.0,5,3,7,2,1,4,nan,nan,nan,nan,nan,nan,nan,nan,nan,nan,nan,nan,0.0,nan,nan,nan,nan,nan,nan,nan,nan,nan,nan,nan,nan,nan,nan,nan,nan,nan,nan,171.69776515872218,606.3987903934903,nan,606.7196939091664,nan,nan,nan,nan
1,277,1,1,1.0,1.0,0.3203966144938022,0.0,0,7,2,4,5,8,nan,nan,nan,nan,nan,nan,nan,nan,nan,nan,nan,nan,0.0,nan,nan,nan,nan,nan,nan,nan,nan,nan,nan,nan,nan,nan,nan,nan,nan,nan,nan,171.69776515872218,607.4072668759618,nan,607.7276634904556,nan,nan,nan,nan
1,278,1,1,1.0,1.0,0.3039505505003035,0.0,7,8,1,0,2,5,nan,nan,nan,nan,nan,nan,nan,nan,nan,nan,nan,nan,0.0,nan,nan,nan,nan,nan,nan,nan,nan,nan,nan,nan,nan,nan,nan,nan,nan,nan,nan,171.69776515872218,608.4156863393728,nan,608.7196368898731,nan,nan,nan,nan
1,279,1,1,1.0,1.0,0.23144172900356352,0.0,2,0,5,8,4,3,nan,nan,nan,nan,nan,nan,nan,nan,nan,nan,nan,nan,0.0,nan,nan,nan,nan,nan,nan,nan,nan,nan,nan,nan,nan,nan,nan,nan,nan,nan,nan,171.69776515872218,609.4241747958586,nan,609.6556165248621,nan,nan,nan,nan
1,280,1,1,1.0,1.0,0.42299250164069235,0.0,1,5,4,3,8,0,nan,nan,nan,nan,nan,nan,nan,nan,nan,nan,nan,nan,0.0,nan,nan,nan,nan,nan,nan,nan,nan,nan,nan,nan,nan,nan,nan,nan,nan,nan,nan,171.69776515872218,610.4326082288753,nan,610.855600730516,nan,nan,nan,nan
1,281,1,1,1.0,1.0,0.3984896168112755,0.0,5,2,7,0,1,8,nan,nan,nan,nan,nan,nan,nan,nan,nan,nan,nan,nan,0.0,nan,nan,nan,nan,nan,nan,nan,nan,nan,nan,nan,nan,nan,nan,nan,nan,nan,nan,171.69776515872218,611.4410693163518,nan,611.8395589331631,nan,nan,nan,nan
1,282,1,1,1.0,1.0,0.350058886455372,0.0,3,0,4,6,5,7,nan,nan,nan,nan,nan,nan,nan,nan,nan,nan,nan,nan,0.0,nan,nan,nan,nan,nan,nan,nan,nan,nan,nan,nan,nan,nan,nan,nan,nan,nan,nan,171.69776515872218,612.4494961921591,nan,612.7995550786145,nan,nan,nan,nan
1,283,1,1,1.0,1.0,0.3255109565798193,0.0,2,8,1,4,3,0,nan,nan,nan,nan,nan,nan,nan,nan,nan,nan,nan,nan,0.0,nan,nan,nan,nan,nan,nan,nan,nan,nan,nan,nan,nan,nan,nan,nan,nan,nan,nan,171.69776515872218,613.4580123031046,nan,613.7835232596844,nan,nan,nan,nan
1,284,1,1,1.0,1.0,0.30901899212040007,0.0,4,1,3,7,8,5,nan,nan,nan,nan,nan,nan,nan,nan,nan,nan,nan,nan,0.0,nan,nan,nan,nan,nan,nan,nan,nan,nan,nan,nan,nan,nan,nan,nan,nan,nan,nan,171.69776515872218,614.4664648375474,nan,614.7754838296678,nan,nan,nan,nan
1,285,1,1,1.0,1.0,0.2925404275301844,0.0,5,7,6,3,4,8,nan,nan,nan,nan,nan,nan,nan,nan,nan,nan,nan,nan,0.0,nan,nan,nan,nan,nan,nan,nan,nan,nan,nan,nan,nan,nan,nan,nan,nan,nan,nan,171.69776515872218,615.4749170867726,nan,615.7674575143028,nan,nan,nan,nan
1,286,1,1,1.0,1.0,0.2920626059640199,0.0,7,5,4,6,1,0,nan,nan,nan,nan,nan,nan,nan,nan,nan,nan,nan,nan,0.0,nan,nan,nan,nan,nan,nan,nan,nan,nan,nan,nan,nan,nan,nan,nan,nan,nan,nan,171.69776515872218,616.4833778890315,nan,616.7754404949956,nan,nan,nan,nan
1,287,1,1,1.0,1.0,0.2675850947853178,0.0,1,7,0,4,8,5,nan,nan,nan,nan,nan,nan,nan,nan,nan,nan,nan,nan,0.0,nan,nan,nan,nan,nan,nan,nan,nan,nan,nan,nan,nan,nan,nan,nan,nan,nan,nan,171.69776515872218,617.4918327042833,nan,617.7594177990686,nan,nan,nan,nan
1,288,1,1,1.0,1.0,0.2990984972566366,0.0,4,8,5,1,3,0,nan,nan,nan,nan,nan,nan,nan,nan,nan,nan,nan,nan,0.0,nan,nan,nan,nan,nan,nan,nan,nan,nan,nan,nan,nan,nan,nan,nan,nan,nan,nan,171.69776515872218,618.5002895151265,nan,618.7993880123831,nan,nan,nan,nan
1,289,1,1,1.0,1.0,0.3386658690869808,0.0,8,4,1,5,0,2,nan,nan,nan,nan,nan,nan,nan,nan,nan,nan,nan,nan,0.0,nan,nan,nan,nan,nan,nan,nan,nan,nan,nan,nan,nan,nan,nan,nan,nan,nan,nan,171.69776515872218,619.5087052723393,nan,619.8473711414263,nan,nan,nan,nan
1,290,1,1,1.0,1.0,0.2901664306409657,0.0,0,2,5,7,8,4,nan,nan,nan,nan,nan,nan,nan,nan,nan,nan,nan,nan,0.0,nan,nan,nan,nan,nan,nan,nan,nan,nan,nan,nan,nan,nan,nan,nan,nan,nan,nan,171.69776515872218,620.5171920182183,nan,620.8073584488593,nan,nan,nan,nan
1,291,0,0,0.0,1.0,0.6176776229403913,0.0,1,5,6,3,4,8,nan,nan,nan,nan,nan,nan,nan,nan,nan,nan,nan,nan,0.0,nan,nan,nan,nan,nan,nan,nan,nan,nan,nan,nan,nan,nan,nan,nan,nan,nan,nan,171.69776515872218,621.5256254512351,nan,622.1433030741755,nan,nan,nan,nan
1,292,1,1,1.0,1.0,0.46519302297383547,0.0,5,3,0,1,7,6,nan,nan,nan,nan,nan,nan,nan,nan,nan,nan,nan,nan,0.0,nan,nan,nan,nan,nan,nan,nan,nan,nan,nan,nan,nan,nan,nan,nan,nan,nan,nan,171.69776515872218,622.5340802664869,nan,622.9992732894607,nan,nan,nan,nan
1,293,1,1,1.0,1.0,0.3207230498082936,0.0,6,1,7,5,8,2,nan,nan,nan,nan,nan,nan,nan,nan,nan,nan,nan,nan,0.0,nan,nan,nan,nan,nan,nan,nan,nan,nan,nan,nan,nan,nan,nan,nan,nan,nan,nan,171.69776515872218,623.5425302351359,nan,623.8632532849442,nan,nan,nan,nan
1,294,1,1,1.0,1.0,0.23221434000879526,0.0,2,8,5,1,4,7,nan,nan,nan,nan,nan,nan,nan,nan,nan,nan,nan,nan,0.0,nan,nan,nan,nan,nan,nan,nan,nan,nan,nan,nan,nan,nan,nan,nan,nan,nan,nan,171.69776515872218,624.5510469162837,nan,624.7832612562925,nan,nan,nan,nan
1,295,1,1,1.0,1.0,0.19974871608428657,0.0,7,1,2,5,8,0,nan,nan,nan,nan,nan,nan,nan,nan,nan,nan,nan,nan,0.0,nan,nan,nan,nan,nan,nan,nan,nan,nan,nan,nan,nan,nan,nan,nan,nan,nan,nan,171.69776515872218,625.5594566862565,nan,625.7592054023407,nan,nan,nan,nan
1,296,1,1,1.0,1.0,0.23927588970400393,0.0,5,0,8,4,6,1,nan,nan,nan,nan,nan,nan,nan,nan,nan,nan,nan,nan,0.0,nan,nan,nan,nan,nan,nan,nan,nan,nan,nan,nan,nan,nan,nan,nan,nan,nan,nan,171.69776515872218,626.5679103611037,nan,626.8071862508077,nan,nan,nan,nan
1,297,1,1,1.0,1.0,0.21481576934456825,0.0,3,8,7,2,4,5,nan,nan,nan,nan,nan,nan,nan,nan,nan,nan,nan,nan,0.0,nan,nan,nan,nan,nan,nan,nan,nan,nan,nan,nan,nan,nan,nan,nan,nan,nan,nan,171.69776515872218,627.5763725889847,nan,627.7911883583292,nan,nan,nan,nan
1,298,1,1,1.0,1.0,0.2462932493072003,0.0,7,2,5,6,8,3,nan,nan,nan,nan,nan,nan,nan,nan,nan,nan,nan,nan,0.0,nan,nan,nan,nan,nan,nan,nan,nan,nan,nan,nan,nan,nan,nan,nan,nan,nan,nan,171.69776515872218,628.5848579094745,nan,628.8311511587817,nan,nan,nan,nan
1,299,1,1,1.0,1.0,0.26982794725336134,0.0,4,5,8,0,3,7,nan,nan,nan,nan,nan,nan,nan,nan,nan,nan,nan,nan,0.0,nan,nan,nan,nan,nan,nan,nan,nan,nan,nan,nan,nan,nan,nan,nan,nan,nan,nan,171.69776515872218,629.5933047418948,nan,629.8631326891482,nan,nan,nan,nan
1,300,1,1,1.0,1.0,0.25331003894098103,0.0,7,3,1,5,4,6,nan,nan,nan,nan,nan,nan,nan,nan,nan,nan,nan,nan,0.0,nan,nan,nan,nan,nan,nan,nan,nan,nan,nan,nan,nan,nan,nan,nan,nan,nan,nan,171.69776515872218,630.6017778033856,nan,630.8550878423266,nan,nan,nan,nan
1,301,1,1,1.0,1.0,0.5248633890878409,0.0,3,7,6,2,0,5,nan,nan,nan,nan,nan,nan,nan,nan,nan,nan,nan,nan,0.0,nan,nan,nan,nan,nan,nan,nan,nan,nan,nan,nan,nan,nan,nan,nan,nan,nan,nan,171.69776515872218,631.610202398384,nan,632.1350657874718,nan,nan,nan,nan
1,302,1,1,1.0,1.0,0.5483852573670447,0.0,4,1,2,7,6,3,nan,nan,nan,nan,nan,nan,nan,nan,nan,nan,nan,nan,0.0,nan,nan,nan,nan,nan,nan,nan,nan,nan,nan,nan,nan,nan,nan,nan,nan,nan,nan,171.69776515872218,632.6186523670331,nan,633.1670376244001,nan,nan,nan,nan
1,303,1,1,1.0,1.0,0.39592032926157117,0.0,2,4,3,1,5,0,nan,nan,nan,nan,nan,nan,nan,nan,nan,nan,nan,nan,0.0,nan,nan,nan,nan,nan,nan,nan,nan,nan,nan,nan,nan,nan,nan,nan,nan,nan,nan,171.69776515872218,633.6271080374718,nan,634.0230283667333,nan,nan,nan,nan
1,304,1,1,1.0,1.0,0.38742702594026923,0.0,3,2,0,6,8,5,nan,nan,nan,nan,nan,nan,nan,nan,nan,nan,nan,nan,0.0,nan,nan,nan,nan,nan,nan,nan,nan,nan,nan,nan,nan,nan,nan,nan,nan,nan,nan,171.69776515872218,634.6355668441392,nan,635.0229938700795,nan,nan,nan,nan
1,305,1,1,1.0,1.0,0.33895296114496887,0.0,1,3,2,7,5,8,nan,nan,nan,nan,nan,nan,nan,nan,nan,nan,nan,nan,0.0,nan,nan,nan,nan,nan,nan,nan,nan,nan,nan,nan,nan,nan,nan,nan,nan,nan,nan,171.69776515872218,635.644022514578,nan,635.9829754757229,nan,nan,nan,nan
1,306,1,1,1.0,1.0,0.47448003431782126,0.0,6,4,7,2,0,3,nan,nan,nan,nan,nan,nan,nan,nan,nan,nan,nan,nan,0.0,nan,nan,nan,nan,nan,nan,nan,nan,nan,nan,nan,nan,nan,nan,nan,nan,nan,nan,171.69776515872218,636.6524736236315,nan,637.1269536579493,nan,nan,nan,nan
1,307,0,0,0.0,1.0,0.7859796492848545,0.0,2,5,3,0,1,4,nan,nan,nan,nan,nan,nan,nan,nan,nan,nan,nan,nan,0.0,nan,nan,nan,nan,nan,nan,nan,nan,nan,nan,nan,nan,nan,nan,nan,nan,nan,nan,171.69776515872218,637.6609398426954,nan,638.4469194919802,nan,nan,nan,nan
1,308,1,1,1.0,1.0,0.5215123675297946,0.0,6,1,0,4,2,8,nan,nan,nan,nan,nan,nan,nan,nan,nan,nan,nan,nan,0.0,nan,nan,nan,nan,nan,nan,nan,nan,nan,nan,nan,nan,nan,nan,nan,nan,nan,nan,171.69776515872218,638.6693915217184,nan,639.1909038892481,nan,nan,nan,nan
1,309,1,1,1.0,1.0,0.48100731358863413,0.0,0,2,3,8,7,1,nan,nan,nan,nan,nan,nan,nan,nan,nan,nan,nan,nan,0.0,nan,nan,nan,nan,nan,nan,nan,nan,nan,nan,nan,nan,nan,nan,nan,nan,nan,nan,171.69776515872218,639.6779033562634,nan,640.158910669852,nan,nan,nan,nan
1,310,1,1,1.0,1.0,0.5205470314249396,0.0,7,4,1,0,8,6,nan,nan,nan,nan,nan,nan,nan,nan,nan,nan,nan,nan,0.0,nan,nan,nan,nan,nan,nan,nan,nan,nan,nan,nan,nan,nan,nan,nan,nan,nan,nan,171.69776515872218,640.6863461975008,nan,641.2068932289258,nan,nan,nan,nan
1,311,1,1,1.0,1.0,0.5600645116064698,0.0,5,7,3,6,0,4,nan,nan,nan,nan,nan,nan,nan,nan,nan,nan,nan,nan,0.0,nan,nan,nan,nan,nan,nan,nan,nan,nan,nan,nan,nan,nan,nan,nan,nan,nan,nan,171.69776515872218,641.6947998723481,nan,642.2548643839546,nan,nan,nan,nan
1,312,1,1,1.0,1.0,0.6075823635328561,0.0,1,0,8,4,6,5,nan,nan,nan,nan,nan,nan,nan,nan,nan,nan,nan,nan,0.0,nan,nan,nan,nan,nan,nan,nan,nan,nan,nan,nan,nan,nan,nan,nan,nan,nan,nan,171.69776515872218,642.703262955416,nan,643.3108453189489,nan,nan,nan,nan
1,313,1,1,nan,nan,nan,0.0,8,1,3,7,5,2,nan,nan,nan,nan,nan,nan,nan,nan,nan,nan,nan,nan,0.0,nan,nan,nan,nan,nan,nan,nan,nan,nan,nan,nan,nan,nan,nan,nan,nan,nan,nan,171.69776515872218,643.7117129240651,nan,nan,nan,nan,nan,nan
1,314,1,1,nan,nan,nan,0.0,4,7,0,3,8,6,nan,nan,nan,nan,nan,nan,nan,nan,nan,nan,nan,nan,0.0,nan,nan,nan,nan,nan,nan,nan,nan,nan,nan,nan,nan,nan,nan,nan,nan,nan,nan,171.69776515872218,644.7201358084567,nan,nan,nan,nan,nan,nan
1,315,1,1,1.0,1.0,0.6541234757751226,0.0,2,8,4,0,5,1,nan,nan,nan,nan,nan,nan,nan,nan,nan,nan,nan,nan,0.0,nan,nan,nan,nan,nan,nan,nan,nan,nan,nan,nan,nan,nan,nan,nan,nan,nan,nan,171.69776515872218,645.7285903384909,nan,646.382713814266,nan,nan,nan,nan
1,316,1,1,1.0,1.0,0.5660181771963835,0.0,0,2,5,8,6,4,nan,nan,nan,nan,nan,nan,nan,nan,nan,nan,nan,nan,0.0,nan,nan,nan,nan,nan,nan,nan,nan,nan,nan,nan,nan,nan,nan,nan,nan,nan,nan,171.69776515872218,646.7287226233166,nan,647.294740800513,nan,nan,nan,nan
1,317,0,0,0.0,1.0,0.6778543198015541,0.0,1,3,2,6,0,8,nan,nan,nan,nan,nan,nan,nan,nan,nan,nan,nan,nan,0.0,nan,nan,nan,nan,nan,nan,nan,nan,nan,nan,nan,nan,nan,nan,nan,nan,nan,nan,171.69776515872218,647.7288509164937,nan,648.4067052362952,nan,nan,nan,nan
1,318,1,1,1.0,1.0,0.49340329971164465,0.0,0,8,3,5,2,7,nan,nan,nan,nan,nan,nan,nan,nan,nan,nan,nan,nan,0.0,nan,nan,nan,nan,nan,nan,nan,nan,nan,nan,nan,nan,nan,nan,nan,nan,nan,nan,171.69776515872218,648.7372960385401,nan,649.2306993382517,nan,nan,nan,nan
1,319,1,1,1.0,1.0,0.35725842299871147,0.0,4,7,1,3,6,5,nan,nan,nan,nan,nan,nan,nan,nan,nan,nan,nan,nan,0.0,nan,nan,nan,nan,nan,nan,nan,nan,nan,nan,nan,nan,nan,nan,nan,nan,nan,nan,171.69776515872218,649.7374234765302,nan,650.094681899529,nan,nan,nan,nan
1,320,1,1,1.0,1.0,0.28513106028549373,0.0,3,8,0,1,5,2,nan,nan,nan,nan,nan,nan,nan,nan,nan,nan,nan,nan,0.0,nan,nan,nan,nan,nan,nan,nan,nan,nan,nan,nan,nan,nan,nan,nan,nan,nan,nan,171.69776515872218,650.7375494891312,nan,651.0226805494167,nan,nan,nan,nan
1,321,1,1,1.0,1.0,0.2529168913606554,0.0,7,0,4,6,8,3,nan,nan,nan,nan,nan,nan,nan,nan,nan,nan,nan,nan,0.0,nan,nan,nan,nan,nan,nan,nan,nan,nan,nan,nan,nan,nan,nan,nan,nan,nan,nan,171.69776515872218,651.7376994497608,nan,651.9906163411215,nan,nan,nan,nan
1,322,1,1,1.0,1.0,0.20450326660647988,0.0,8,2,6,1,0,4,nan,nan,nan,nan,nan,nan,nan,nan,nan,nan,nan,nan,0.0,nan,nan,nan,nan,nan,nan,nan,nan,nan,nan,nan,nan,nan,nan,nan,nan,nan,nan,171.69776515872218,652.7461172025651,nan,652.9506204691716,nan,nan,nan,nan
1,323,1,1,1.0,1.0,0.30003389809280634,0.0,4,1,3,2,5,8,nan,nan,nan,nan,nan,nan,nan,nan,nan,nan,nan,nan,0.0,nan,nan,nan,nan,nan,nan,nan,nan,nan,nan,nan,nan,nan,nan,nan,nan,nan,nan,171.69776515872218,653.7545557671692,nan,654.054589665262,nan,nan,nan,nan
1,324,1,1,1.0,1.0,0.48383233277127147,0.0,7,0,4,3,8,5,nan,nan,nan,nan,nan,nan,nan,nan,nan,nan,nan,nan,0.0,nan,nan,nan,nan,nan,nan,nan,nan,nan,nan,nan,nan,nan,nan,nan,nan,nan,nan,171.69776515872218,654.7547105744015,nan,655.2385429071728,nan,nan,nan,nan
1,325,1,1,1.0,1.0,0.44336434127762914,0.0,3,4,7,2,5,1,nan,nan,nan,nan,nan,nan,nan,nan,nan,nan,nan,nan,0.0,nan,nan,nan,nan,nan,nan,nan,nan,nan,nan,nan,nan,nan,nan,nan,nan,nan,nan,171.69776515872218,655.7631442926358,nan,656.2065086339135,nan,nan,nan,nan
1,326,1,1,1.0,1.0,0.6268728331197053,0.0,6,3,0,7,1,8,nan,nan,nan,nan,nan,nan,nan,nan,nan,nan,nan,nan,0.0,nan,nan,nan,nan,nan,nan,nan,nan,nan,nan,nan,nan,nan,nan,nan,nan,nan,nan,171.69776515872218,656.7716142178979,nan,657.3984870510176,nan,nan,nan,nan
1,327,1,1,1.0,1.0,0.5867113203275949,0.0,2,6,8,1,3,7,nan,nan,nan,nan,nan,nan,nan,nan,nan,nan,nan,nan,0.0,nan,nan,nan,nan,nan,nan,nan,nan,nan,nan,nan,nan,nan,nan,nan,nan,nan,nan,171.69776515872218,657.7717447921168,nan,658.3584561124444,nan,nan,nan,nan
1,328,1,1,1.0,1.0,0.514282610733062,0.0,6,1,7,4,5,8,nan,nan,nan,nan,nan,nan,nan,nan,nan,nan,nan,nan,0.0,nan,nan,nan,nan,nan,nan,nan,nan,nan,nan,nan,nan,nan,nan,nan,nan,nan,nan,171.69776515872218,658.7801830717362,nan,659.2944656824693,nan,nan,nan,nan
1,329,1,1,1.0,1.0,0.4897800113540143,0.0,2,3,8,1,4,7,nan,nan,nan,nan,nan,nan,nan,nan,nan,nan,nan,nan,0.0,nan,nan,nan,nan,nan,nan,nan,nan,nan,nan,nan,nan,nan,nan,nan,nan,nan,nan,171.69776515872218,659.788669247413,nan,660.2784492587671,nan,nan,nan,nan
1,330,1,1,1.0,1.0,0.5212874265853316,0.0,0,8,3,4,7,1,nan,nan,nan,nan,nan,nan,nan,nan,nan,nan,nan,nan,0.0,nan,nan,nan,nan,nan,nan,nan,nan,nan,nan,nan,nan,nan,nan,nan,nan,nan,nan,171.69776515872218,660.7971157948487,nan,661.318403221434,nan,nan,nan,nan
1,331,1,1,1.0,1.0,0.49681818298995495,0.0,4,6,5,3,8,7,nan,nan,nan,nan,nan,nan,nan,nan,nan,nan,nan,nan,0.0,nan,nan,nan,nan,nan,nan,nan,nan,nan,nan,nan,nan,nan,nan,nan,nan,nan,nan,171.69776515872218,661.8055594915058,nan,662.3023776744958,nan,nan,nan,nan
1,332,1,1,1.0,1.0,0.4003416025079787,0.0,2,7,3,5,1,0,nan,nan,nan,nan,nan,nan,nan,nan,nan,nan,nan,nan,0.0,nan,nan,nan,nan,nan,nan,nan,nan,nan,nan,nan,nan,nan,nan,nan,nan,nan,nan,171.69776515872218,662.8140123109333,nan,663.2143539134413,nan,nan,nan,nan
1,333,1,1,1.0,1.0,0.4401778201572597,0.0,8,3,1,0,4,5,nan,nan,nan,nan,nan,nan,nan,nan,nan,nan,nan,nan,0.0,nan,nan,nan,nan,nan,nan,nan,nan,nan,nan,nan,nan,nan,nan,nan,nan,nan,nan,171.69776515872218,663.8141571399756,nan,664.2543349601328,nan,nan,nan,nan
1,334,1,1,1.0,1.0,0.3436981034465134,0.0,3,0,6,2,8,7,nan,nan,nan,nan,nan,nan,nan,nan,nan,nan,nan,nan,0.0,nan,nan,nan,nan,nan,nan,nan,nan,nan,nan,nan,nan,nan,nan,nan,nan,nan,nan,171.69776515872218,664.8226036874112,nan,665.1663017908577,nan,nan,nan,nan
1,335,1,1,1.0,1.0,0.3195535847917199,0.0,1,2,0,7,4,5,nan,nan,nan,nan,nan,nan,nan,nan,nan,nan,nan,nan,0.0,nan,nan,nan,nan,nan,nan,nan,nan,nan,nan,nan,nan,nan,nan,nan,nan,nan,nan,171.69776515872218,665.822733691195,nan,666.1422872759867,nan,nan,nan,nan
1,336,1,1,1.0,1.0,0.42307803058065474,0.0,2,6,3,0,5,1,nan,nan,nan,nan,nan,nan,nan,nan,nan,nan,nan,nan,0.0,nan,nan,nan,nan,nan,nan,nan,nan,nan,nan,nan,nan,nan,nan,nan,nan,nan,nan,171.69776515872218,666.8311836598441,nan,667.2542616904248,nan,nan,nan,nan
1,337,1,1,1.0,1.0,0.4066191373858601,0.0,5,8,1,4,2,7,nan,nan,nan,nan,nan,nan,nan,nan,nan,nan,nan,nan,0.0,nan,nan,nan,nan,nan,nan,nan,nan,nan,nan,nan,nan,nan,nan,nan,nan,nan,nan,171.69776515872218,667.8396250754595,nan,668.2462442128453,nan,nan,nan,nan
1,338,1,1,1.0,1.0,0.3341382551006973,0.0,6,1,0,2,4,5,nan,nan,nan,nan,nan,nan,nan,nan,nan,nan,nan,nan,0.0,nan,nan,nan,nan,nan,nan,nan,nan,nan,nan,nan,nan,nan,nan,nan,nan,nan,nan,171.69776515872218,668.8481129619759,nan,669.1822512170766,nan,nan,nan,nan
1,339,1,1,1.0,1.0,0.44594303728081286,0.0,4,5,2,6,1,3,nan,nan,nan,nan,nan,nan,nan,nan,nan,nan,nan,nan,0.0,nan,nan,nan,nan,nan,nan,nan,nan,nan,nan,nan,nan,nan,nan,nan,nan,nan,nan,171.69776515872218,669.8482589311898,nan,670.2942019684706,nan,nan,nan,nan
1,340,1,1,1.0,1.0,0.34149801544845104,0.0,6,1,7,2,4,5,nan,nan,nan,nan,nan,nan,nan,nan,nan,nan,nan,nan,0.0,nan,nan,nan,nan,nan,nan,nan,nan,nan,nan,nan,nan,nan,nan,nan,nan,nan,nan,171.69776515872218,670.8566735479981,nan,671.1981715634465,nan,nan,nan,nan
1,341,1,1,1.0,1.0,0.30902098794467747,0.0,1,7,6,8,0,4,nan,nan,nan,nan,nan,nan,nan,nan,nan,nan,nan,nan,0.0,nan,nan,nan,nan,nan,nan,nan,nan,nan,nan,nan,nan,nan,nan,nan,nan,nan,nan,171.69776515872218,671.8651178146247,nan,672.1741388025694,nan,nan,nan,nan
1,342,0,0,0.0,1.0,0.5565221903380007,0.0,8,4,2,5,3,7,nan,nan,nan,nan,nan,nan,nan,nan,nan,nan,nan,nan,0.0,nan,nan,nan,nan,nan,nan,nan,nan,nan,nan,nan,nan,nan,nan,nan,nan,nan,nan,171.69776515872218,672.8735934419092,nan,673.4301156322472,nan,nan,nan,nan
1,343,1,1,1.0,1.0,0.500050604576245,0.0,3,8,7,4,1,0,nan,nan,nan,nan,nan,nan,nan,nan,nan,nan,nan,nan,0.0,nan,nan,nan,nan,nan,nan,nan,nan,nan,nan,nan,nan,nan,nan,nan,nan,nan,nan,171.69776515872218,673.8820402743295,nan,674.3820908789057,nan,nan,nan,nan
1,344,1,1,1.0,1.0,0.35556894238106906,0.0,5,3,0,2,6,8,nan,nan,nan,nan,nan,nan,nan,nan,nan,nan,nan,nan,0.0,nan,nan,nan,nan,nan,nan,nan,nan,nan,nan,nan,nan,nan,nan,nan,nan,nan,nan,171.69776515872218,674.8905033573974,nan,675.2460722997785,nan,nan,nan,nan
1,345,0,0,0.0,1.0,0.571395092876628,1.0,0,2,6,4,8,1,1.0,1.0,1.0,1.0,1.0,1.0,1.0,0.0,0.0,1.0,0.0,1.0,3.0,0.0,6.0,3.0,4.0,2.0,1.0,1.0,6.0,5.0,2.0,4.0,3.0,1.6006530984304845,14.05442687519826,6.791060064919293,2.80772251682356,5.72743626893498,4.392178440699354,171.69776515872218,675.8906573094428,676.6990463815164,676.4620524023194,691.8092392291874,692.8186411340721,677.7158408330288,691.8009052947164
1,346,1,1,1.0,1.0,0.3236333127133548,0.0,6,0,4,8,1,7,nan,nan,nan,nan,nan,nan,nan,nan,nan,nan,nan,nan,0.0,nan,nan,nan,nan,nan,nan,nan,nan,nan,nan,nan,nan,nan,nan,nan,nan,nan,nan,171.69776515872218,693.0260652122088,nan,693.3496985249221,nan,nan,nan,nan
1,347,1,1,1.0,1.0,0.49113079719245434,0.0,1,8,3,6,2,4,nan,nan,nan,nan,nan,nan,nan,nan,nan,nan,nan,nan,0.0,nan,nan,nan,nan,nan,nan,nan,nan,nan,nan,nan,nan,nan,nan,nan,nan,nan,nan,171.69776515872218,694.0345083386637,nan,694.5256391358562,nan,nan,nan,nan
1,348,1,1,1.0,1.0,0.4026166705880314,0.0,4,3,6,8,1,5,nan,nan,nan,nan,nan,nan,nan,nan,nan,nan,nan,nan,0.0,nan,nan,nan,nan,nan,nan,nan,nan,nan,nan,nan,nan,nan,nan,nan,nan,nan,nan,171.69776515872218,695.042981114937,nan,695.445597785525,nan,nan,nan,nan
1,349,1,1,1.0,1.0,0.3061446517240256,0.0,2,1,7,4,0,3,nan,nan,nan,nan,nan,nan,nan,nan,nan,nan,nan,nan,0.0,nan,nan,nan,nan,nan,nan,nan,nan,nan,nan,nan,nan,nan,nan,nan,nan,nan,nan,171.69776515872218,696.0514268069528,nan,696.3575714586768,nan,nan,nan,nan
1,350,1,1,1.0,1.0,0.3056896380148828,0.0,1,4,6,7,8,5,nan,nan,nan,nan,nan,nan,nan,nan,nan,nan,nan,nan,0.0,nan,nan,nan,nan,nan,nan,nan,nan,nan,nan,nan,nan,nan,nan,nan,nan,nan,nan,171.69776515872218,697.0598719289992,nan,697.3655615670141,nan,nan,nan,nan
1,351,1,1,1.0,1.0,0.32951570418663323,0.0,7,5,3,2,0,1,nan,nan,nan,nan,nan,nan,nan,nan,nan,nan,nan,nan,0.0,nan,nan,nan,nan,nan,nan,nan,nan,nan,nan,nan,nan,nan,nan,nan,nan,nan,nan,171.69776515872218,698.0600184684154,nan,698.389534172602,nan,nan,nan,nan
1,352,1,1,1.0,1.0,0.313378399470821,0.0,8,1,4,6,5,3,nan,nan,nan,nan,nan,nan,nan,nan,nan,nan,nan,nan,0.0,nan,nan,nan,nan,nan,nan,nan,nan,nan,nan,nan,nan,nan,nan,nan,nan,nan,nan,171.69776515872218,699.0601407748181,nan,699.373519174289,nan,nan,nan,nan
1,353,1,1,1.0,1.0,0.3609022384043783,0.0,5,8,3,7,0,6,nan,nan,nan,nan,nan,nan,nan,nan,nan,nan,nan,nan,0.0,nan,nan,nan,nan,nan,nan,nan,nan,nan,nan,nan,nan,nan,nan,nan,nan,nan,nan,171.69776515872218,700.0685799098574,nan,700.4294821482617,nan,nan,nan,nan
1,354,1,1,1.0,1.0,0.36878515081480145,0.0,8,4,2,3,6,7,nan,nan,nan,nan,nan,nan,nan,nan,nan,nan,nan,nan,0.0,nan,nan,nan,nan,nan,nan,nan,nan,nan,nan,nan,nan,nan,nan,nan,nan,nan,nan,171.69776515872218,701.0687036414165,nan,701.4374887922313,nan,nan,nan,nan
1,355,1,1,1.0,1.0,0.304258169606328,0.0,7,5,1,6,0,3,nan,nan,nan,nan,nan,nan,nan,nan,nan,nan,nan,nan,0.0,nan,nan,nan,nan,nan,nan,nan,nan,nan,nan,nan,nan,nan,nan,nan,nan,nan,nan,171.69776515872218,702.0772057827562,nan,702.3814639523625,nan,nan,nan,nan
1,356,1,1,1.0,1.0,0.2961346360389143,0.0,5,6,7,1,2,8,nan,nan,nan,nan,nan,nan,nan,nan,nan,nan,nan,nan,0.0,nan,nan,nan,nan,nan,nan,nan,nan,nan,nan,nan,nan,nan,nan,nan,nan,nan,nan,171.69776515872218,703.0772984391078,nan,703.3734330751467,nan,nan,nan,nan
1,357,1,1,1.0,1.0,0.3279750437941402,0.0,8,5,4,2,3,0,nan,nan,nan,nan,nan,nan,nan,nan,nan,nan,nan,nan,0.0,nan,nan,nan,nan,nan,nan,nan,nan,nan,nan,nan,nan,nan,nan,nan,nan,nan,nan,171.69776515872218,704.0774193198886,nan,704.4053943636827,nan,nan,nan,nan
1,358,1,1,1.0,1.0,0.3114993297494948,0.0,0,2,6,8,7,4,nan,nan,nan,nan,nan,nan,nan,nan,nan,nan,nan,nan,0.0,nan,nan,nan,nan,nan,nan,nan,nan,nan,nan,nan,nan,nan,nan,nan,nan,nan,nan,171.69776515872218,705.0859037851915,nan,705.397403114941,nan,nan,nan,nan
1,359,1,1,1.0,1.0,0.31103319744579494,0.0,8,3,0,4,5,2,nan,nan,nan,nan,nan,nan,nan,nan,nan,nan,nan,nan,0.0,nan,nan,nan,nan,nan,nan,nan,nan,nan,nan,nan,nan,nan,nan,nan,nan,nan,nan,171.69776515872218,706.0943571748212,nan,706.405390372267,nan,nan,nan,nan
1,360,1,1,1.0,1.0,0.29453895217739046,0.0,0,5,7,8,6,1,nan,nan,nan,nan,nan,nan,nan,nan,nan,nan,nan,nan,0.0,nan,nan,nan,nan,nan,nan,nan,nan,nan,nan,nan,nan,nan,nan,nan,nan,nan,nan,171.69776515872218,707.1028268150985,nan,707.3973657672759,nan,nan,nan,nan
1,361,1,1,1.0,1.0,0.27804242610000074,0.0,1,4,6,0,5,8,nan,nan,nan,nan,nan,nan,nan,nan,nan,nan,nan,nan,0.0,nan,nan,nan,nan,nan,nan,nan,nan,nan,nan,nan,nan,nan,nan,nan,nan,nan,nan,171.69776515872218,708.1112802049611,nan,708.3893226310611,nan,nan,nan,nan
1,362,1,1,1.0,1.0,0.26992373960092664,0.0,5,7,4,8,0,3,nan,nan,nan,nan,nan,nan,nan,nan,nan,nan,nan,nan,0.0,nan,nan,nan,nan,nan,nan,nan,nan,nan,nan,nan,nan,nan,nan,nan,nan,nan,nan,171.69776515872218,709.1113697250839,nan,709.3812934646849,nan,nan,nan,nan
1,363,1,1,1.0,1.0,0.2614116200711578,0.0,6,1,2,5,4,8,nan,nan,nan,nan,nan,nan,nan,nan,nan,nan,nan,nan,0.0,nan,nan,nan,nan,nan,nan,nan,nan,nan,nan,nan,nan,nan,nan,nan,nan,nan,nan,171.69776515872218,710.1198576113675,nan,710.3812692314386,nan,nan,nan,nan
1,364,1,1,1.0,1.0,0.28490982530638576,0.0,1,7,8,2,3,0,nan,nan,nan,nan,nan,nan,nan,nan,nan,nan,nan,nan,0.0,nan,nan,nan,nan,nan,nan,nan,nan,nan,nan,nan,nan,nan,nan,nan,nan,nan,nan,171.69776515872218,711.1283298176713,nan,711.4132396429777,nan,nan,nan,nan
1,365,0,0,0.0,1.0,0.6524602242279798,0.0,0,3,1,4,5,6,nan,nan,nan,nan,nan,nan,nan,nan,nan,nan,nan,nan,0.0,nan,nan,nan,nan,nan,nan,nan,nan,nan,nan,nan,nan,nan,nan,nan,nan,nan,nan,171.69776515872218,712.1367470000405,nan,712.7892072242685,nan,nan,nan,nan
1,366,1,1,1.0,1.0,0.42799565638415515,0.0,1,5,2,8,7,0,nan,nan,nan,nan,nan,nan,nan,nan,nan,nan,nan,nan,0.0,nan,nan,nan,nan,nan,nan,nan,nan,nan,nan,nan,nan,nan,nan,nan,nan,nan,nan,171.69776515872218,713.1451869902667,nan,713.5731826466508,nan,nan,nan,nan
1,367,0,0,1.0,0.0,0.31552431895397604,1.0,7,1,8,2,5,3,1.0,1.0,1.0,1.0,1.0,1.0,1.0,1.0,0.0,0.0,0.0,0.0,2.0,7.0,1.0,4.0,0.0,1.0,8.0,1.0,2.0,6.0,5.0,4.0,3.0,3.671983617125079,6.25606264360249,14.830423308070749,13.542099454673007,11.927366306306794,9.974306553136557,171.69776515872218,714.1536426609382,714.962057676632,714.4691669798922,730.8473591674119,731.8489405964501,715.978879782604,730.8390269435477
1,368,1,1,1.0,1.0,0.3248994252644479,0.0,8,3,4,6,2,1,nan,nan,nan,nan,nan,nan,nan,nan,nan,nan,nan,nan,0.0,nan,nan,nan,nan,nan,nan,nan,nan,nan,nan,nan,nan,nan,nan,nan,nan,nan,nan,171.69776515872218,732.0558822916355,nan,732.3807817169,nan,nan,nan,nan
1,369,0,0,0.0,1.0,0.7724375762045383,0.0,0,1,2,3,8,4,nan,nan,nan,nan,nan,nan,nan,nan,nan,nan,nan,nan,0.0,nan,nan,nan,nan,nan,nan,nan,nan,nan,nan,nan,nan,nan,nan,nan,nan,nan,nan,171.69776515872218,733.0642997592222,nan,733.8367373354267,nan,nan,nan,nan
1,370,1,1,1.0,1.0,0.5159133614506572,0.0,8,2,4,5,6,7,nan,nan,nan,nan,nan,nan,nan,nan,nan,nan,nan,nan,0.0,nan,nan,nan,nan,nan,nan,nan,nan,nan,nan,nan,nan,nan,nan,nan,nan,nan,nan,171.69776515872218,734.0727907817345,nan,734.5887041431852,nan,nan,nan,nan
1,371,1,1,1.0,1.0,0.5314405602402985,0.0,5,3,6,7,1,0,nan,nan,nan,nan,nan,nan,nan,nan,nan,nan,nan,nan,0.0,nan,nan,nan,nan,nan,nan,nan,nan,nan,nan,nan,nan,nan,nan,nan,nan,nan,nan,171.69776515872218,735.0812433161773,nan,735.6126838764176,nan,nan,nan,nan
1,372,1,1,1.0,1.0,0.29897333960980177,0.0,4,1,3,6,0,2,nan,nan,nan,nan,nan,nan,nan,nan,nan,nan,nan,nan,0.0,nan,nan,nan,nan,nan,nan,nan,nan,nan,nan,nan,nan,nan,nan,nan,nan,nan,nan,171.69776515872218,736.0896995570511,nan,736.3886728966609,nan,nan,nan,nan
1,373,1,1,1.0,1.0,0.3708481073845178,0.0,5,0,8,7,2,1,nan,nan,nan,nan,nan,nan,nan,nan,nan,nan,nan,nan,0.0,nan,nan,nan,nan,nan,nan,nan,nan,nan,nan,nan,nan,nan,nan,nan,nan,nan,nan,171.69776515872218,737.0897993405815,nan,737.460647447966,nan,nan,nan,nan
1,374,1,1,1.0,1.0,0.3063262577634305,0.0,1,8,3,2,7,4,nan,nan,nan,nan,nan,nan,nan,nan,nan,nan,nan,nan,0.0,nan,nan,nan,nan,nan,nan,nan,nan,nan,nan,nan,nan,nan,nan,nan,nan,nan,nan,171.69776515872218,738.0982769636903,nan,738.4046032214537,nan,nan,nan,nan
1,375,1,1,1.0,1.0,0.3778797220438719,0.0,3,4,0,1,8,7,nan,nan,nan,nan,nan,nan,nan,nan,nan,nan,nan,nan,0.0,nan,nan,nan,nan,nan,nan,nan,nan,nan,nan,nan,nan,nan,nan,nan,nan,nan,nan,171.69776515872218,739.1067072604783,nan,739.4845869825222,nan,nan,nan,nan
1,376,1,1,1.0,1.0,0.2893869774416089,0.0,7,3,2,6,0,8,nan,nan,nan,nan,nan,nan,nan,nan,nan,nan,nan,nan,0.0,nan,nan,nan,nan,nan,nan,nan,nan,nan,nan,nan,nan,nan,nan,nan,nan,nan,nan,171.69776515872218,740.1151683479548,nan,740.4045553253964,nan,nan,nan,nan
1,377,0,0,nan,nan,nan,1.0,1,2,4,7,8,5,1.0,1.0,1.0,1.0,1.0,1.0,0.0,0.0,1.0,1.0,1.0,0.0,3.0,0.0,1.0,4.0,7.0,8.0,2.0,5.0,4.0,1.0,2.0,3.0,6.0,15.972311449469998,11.756278889020905,2.0300443009473383,3.3978703876491636,4.238088178448379,16.939826438901946,171.69776515872218,741.1152977815364,741.9237013936508,nan,759.9175886441953,760.9267333925236,742.9405249250121,759.909264117945
1,378,1,1,1.0,1.0,0.725652136374265,0.0,6,7,1,5,4,0,nan,nan,nan,nan,nan,nan,nan,nan,nan,nan,nan,nan,0.0,nan,nan,nan,nan,nan,nan,nan,nan,nan,nan,nan,nan,nan,nan,nan,nan,nan,nan,171.69776515872218,761.134440286085,nan,761.8600924224593,nan,nan,nan,nan
1,379,1,1,1.0,1.0,0.3411767119541764,0.0,7,4,6,3,8,5,nan,nan,nan,nan,nan,nan,nan,nan,nan,nan,nan,nan,0.0,nan,nan,nan,nan,nan,nan,nan,nan,nan,nan,nan,nan,nan,nan,nan,nan,nan,nan,171.69776515872218,762.1428959567565,nan,762.4840726687107,nan,nan,nan,nan
1,380,1,1,1.0,1.0,0.29269723035395145,0.0,6,1,4,0,5,8,nan,nan,nan,nan,nan,nan,nan,nan,nan,nan,nan,nan,0.0,nan,nan,nan,nan,nan,nan,nan,nan,nan,nan,nan,nan,nan,nan,nan,nan,nan,nan,171.69776515872218,763.1513493463863,nan,763.4440465767402,nan,nan,nan,nan
1,381,1,1,1.0,1.0,0.27620982751250267,0.0,2,0,3,1,7,5,nan,nan,nan,nan,nan,nan,nan,nan,nan,nan,nan,nan,0.0,nan,nan,nan,nan,nan,nan,nan,nan,nan,nan,nan,nan,nan,nan,nan,nan,nan,nan,171.69776515872218,764.1598175610416,nan,764.4360273885541,nan,nan,nan,nan
