block,trial,freq_trials,correct_response,actual_response,acc,rts,probe_trials,fast_rt_trigger,slow_rt_trigger,rt_triggered,rts_runningavg,rts_runningstd,rts_runningfastthresh,rts_runningslowthresh,rts_runningstd,rts_trailingavg,trials_colorind,trials_colorrgb0,trials_colorrgb1,trials_colorrgb2,wm_respdeg,wm_respdeg_in_colorspace,wm_respcolorminusorigcolor,wm_resptexind,wm_resptexrgb0,wm_resptexrgb1,wm_resptexrgb2,wm_rts,time_blockstart,time_encarray_offset,time_encarray_onset,time_response,time_iti_offset,time_iti_onset,time_memprobe_offset,time_memprobe_onset
1,1,1,1,1.0,1.0,0.38004058646,0,nan,nan,nan,nan,nan,nan,nan,nan,nan,174,1.0,-0.160790688716,0.281981279739,nan,nan,nan,nan,0.0,0.0,0.0,nan,175.722752281,176.734698986,177.234790217,177.114739572,nan,nan,nan,nan
1,2,1,1,1.0,1.0,0.179182045162,0,nan,nan,nan,nan,nan,nan,nan,nan,nan,23,1.0,0.106943944166,-1.0,nan,nan,nan,nan,0.0,0.0,0.0,nan,175.722752281,177.751537956,178.251537956,177.930720001,nan,nan,nan,nan
1,3,1,1,1.0,1.0,0.378701770911,0,nan,nan,nan,nan,nan,nan,nan,nan,nan,330,-0.139766326074,0.449518327743,0.319540245599,nan,nan,nan,nan,0.0,0.0,0.0,nan,175.722752281,178.759965993,179.260013035,179.138667764,nan,nan,nan,nan
1,4,1,1,1.0,1.0,0.226229609223,0,nan,nan,nan,nan,nan,nan,nan,nan,nan,381,-0.105403061426,0.478425078289,-0.188431136224,nan,nan,nan,nan,0.0,0.0,0.0,nan,175.722752281,179.768438506,180.268509496,179.994668116,nan,nan,nan,nan
1,5,1,1,1.0,1.0,0.225738101872,0,nan,nan,nan,nan,nan,nan,nan,nan,nan,98,1.0,-0.263822910468,-0.480217789416,nan,nan,nan,nan,0.0,0.0,0.0,nan,175.722752281,180.776900471,181.276959201,181.002638573,nan,nan,nan,nan
1,6,1,1,1.0,1.0,0.257284085965,0,nan,nan,nan,nan,nan,nan,nan,nan,nan,178,1.0,-0.139919655122,0.315097826042,nan,nan,nan,nan,0.0,0.0,0.0,nan,175.722752281,181.785341623,182.28539009,182.042625709,nan,nan,nan,nan
1,7,1,1,1.0,1.0,0.256807403872,1,nan,nan,nan,nan,nan,nan,nan,nan,nan,511,0.838703193994,0.216284169582,-1.0,92.7791668641,357.220833136,-2.07604186407,508.0,0.814199817736,0.228638933499,-1.0,3.43407701841,175.722752281,182.793802447,183.293860607,183.050609851,188.069439938,189.069067031,184.619006049,188.061105697
1,8,1,1,1.0,1.0,0.300540430006,0,nan,nan,nan,nan,nan,nan,nan,nan,nan,339,-0.164955840019,0.45996923152,0.241423096872,nan,nan,nan,nan,0.0,0.0,0.0,nan,175.722752281,189.277949343,189.777995528,189.578489773,nan,nan,nan,nan
1,9,1,1,1.0,1.0,0.164052517153,0,nan,nan,nan,nan,nan,nan,nan,nan,nan,147,1.0,-0.275801134503,0.0346720467303,nan,nan,nan,nan,0.0,0.0,0.0,nan,175.722752281,190.286412733,190.786458633,190.45046525,nan,nan,nan,nan
1,10,1,1,1.0,1.0,0.243555239635,0,nan,nan,nan,nan,nan,nan,nan,nan,nan,268,0.35230222188,0.302367520405,0.645005310408,nan,nan,nan,nan,0.0,0.0,0.0,nan,175.722752281,191.294867855,191.79491347,191.538423094,nan,nan,nan,nan
1,11,1,1,1.0,1.0,0.123470383231,0,nan,nan,nan,nan,nan,nan,nan,nan,nan,34,1.0,0.0514419701458,-1.0,nan,nan,nan,nan,0.0,0.0,0.0,nan,175.722752281,192.295007837,192.79507398,192.41847822,nan,nan,nan,nan
1,12,1,1,1.0,1.0,0.0752747338265,0,nan,nan,nan,nan,nan,nan,nan,nan,nan,165,1.0,-0.205056383665,0.203745440608,nan,nan,nan,nan,0.0,0.0,0.0,nan,175.722752281,193.295150386,193.795209971,193.37042512,nan,nan,nan,nan
1,13,1,1,1.0,1.0,0.491085016401,0,nan,nan,nan,nan,nan,nan,nan,nan,nan,370,-0.144805996584,0.478178727438,-0.0671803333712,nan,nan,nan,nan,0.0,0.0,0.0,nan,175.722752281,194.295283811,194.803652264,194.786368828,nan,nan,nan,nan
1,14,1,1,1.0,1.0,0.234636549605,0,nan,nan,nan,nan,nan,nan,nan,nan,nan,435,0.221263830514,0.433027056876,-1.0,nan,nan,nan,nan,0.0,0.0,0.0,nan,175.722752281,195.303721827,195.803760316,195.538358377,nan,nan,nan,nan
1,15,1,1,1.0,1.0,0.0264604235999,1,nan,nan,nan,nan,nan,nan,nan,nan,nan,12,0.942476689623,0.159273951266,-1.0,67.9391005328,22.0608994672,13.6233994672,31.0,1.0,0.0668515730764,-1.0,1.56716201315,175.722752281,196.303872074,196.803915978,196.330332497,199.712602827,200.712466266,198.129076816,199.704268301
1,16,1,1,1.0,1.0,0.344262907514,0,nan,nan,nan,nan,nan,nan,nan,nan,nan,503,0.773020196022,0.248538461814,-1.0,nan,nan,nan,nan,0.0,0.0,0.0,nan,175.722752281,200.91399564,201.412805075,201.258258548,nan,nan,nan,nan
1,17,1,1,1.0,1.0,0.208913101815,0,nan,nan,nan,nan,nan,nan,nan,nan,nan,405,0.018463324075,0.468009379796,-0.476293327428,nan,nan,nan,nan,0.0,0.0,0.0,nan,175.722752281,201.921329476,202.421284145,202.130242578,nan,nan,nan,nan
1,18,1,1,1.0,1.0,0.20083858422,0,nan,nan,nan,nan,nan,nan,nan,nan,nan,246,0.589768841079,0.215019897151,0.651339528662,nan,nan,nan,nan,0.0,0.0,0.0,nan,175.722752281,202.921368249,203.421388776,203.122206833,nan,nan,nan,nan
1,19,0,0,1.0,0.0,0.0166690521874,0,0.0,0.0,0.0,nan,nan,nan,nan,nan,nan,98,1.0,-0.263822910468,-0.480217789416,nan,nan,nan,nan,0.0,0.0,0.0,nan,175.722752281,203.921501104,204.421569813,203.938170156,nan,nan,nan,nan
1,20,1,1,1.0,1.0,0.0722832106985,0,nan,nan,nan,nan,nan,nan,nan,nan,nan,307,-0.0113868739462,0.411053355611,0.487957006857,nan,nan,nan,nan,0.0,0.0,0.0,nan,175.722752281,204.929924295,205.430006973,205.002207506,nan,nan,nan,nan
1,21,0,0,1.0,0.0,0.0720596949104,0,0.0,0.0,0.0,nan,nan,nan,nan,nan,nan,123,1.0,-0.311441137266,-0.208672863777,nan,nan,nan,nan,0.0,0.0,0.0,nan,175.722752281,205.930111319,206.430128425,206.002171014,nan,nan,nan,nan
1,22,1,1,1.0,1.0,0.0394092448987,0,nan,nan,nan,nan,nan,nan,nan,nan,nan,368,-0.150457169737,0.477793263397,-0.0457341785459,nan,nan,nan,nan,0.0,0.0,0.0,nan,175.722752281,206.938737499,207.438594951,206.978146744,nan,nan,nan,nan
1,23,1,1,1.0,1.0,0.223471580772,0,nan,nan,nan,nan,nan,nan,nan,nan,nan,148,1.0,-0.272695592461,0.0444264621409,nan,nan,nan,nan,0.0,0.0,0.0,nan,175.722752281,207.938671357,208.438689318,208.162142937,nan,nan,nan,nan
1,24,0,0,1.0,0.0,0.14326609415,0,0.0,0.0,0.0,nan,nan,nan,nan,nan,nan,325,-0.119404900653,0.442631039184,0.360186421743,nan,nan,nan,nan,0.0,0.0,0.0,nan,175.722752281,208.93882873,209.438855244,209.082094824,nan,nan,nan,nan
1,25,1,1,1.0,1.0,0.134815818863,0,nan,nan,nan,nan,nan,nan,nan,nan,nan,376,-0.124962824795,0.478704673615,-0.132627625282,nan,nan,nan,nan,0.0,0.0,0.0,nan,175.722752281,209.947245364,210.447276725,210.082061183,nan,nan,nan,nan
1,26,1,1,1.0,1.0,0.246410486288,0,nan,nan,nan,nan,nan,nan,nan,nan,nan,265,0.384259149088,0.291568309415,0.649478858709,nan,nan,nan,nan,0.0,0.0,0.0,nan,175.722752281,210.955690793,211.455735268,211.202101279,nan,nan,nan,nan
1,27,1,1,1.0,1.0,0.15019081533,0,nan,nan,nan,nan,nan,nan,nan,nan,nan,141,1.0,-0.291952736687,-0.024586852943,nan,nan,nan,nan,0.0,0.0,0.0,nan,175.722752281,211.955844745,212.455866698,212.106035561,nan,nan,nan,nan
1,28,1,1,1.0,1.0,0.118069220334,0,nan,nan,nan,nan,nan,nan,nan,nan,nan,90,1.0,-0.233635786423,-0.574971871003,nan,nan,nan,nan,0.0,0.0,0.0,nan,175.722752281,212.955968477,213.45599157,213.074037698,nan,nan,nan,nan
1,29,1,1,1.0,1.0,0.541901277611,0,nan,nan,nan,nan,nan,nan,nan,nan,nan,185,1.0,-0.102214474652,0.370299946716,nan,nan,nan,nan,0.0,0.0,0.0,nan,175.722752281,213.956097056,214.45615379,214.497998334,nan,nan,nan,nan
1,30,1,1,1.0,1.0,0.213412787998,0,nan,nan,nan,nan,nan,nan,nan,nan,nan,307,-0.0113868739462,0.411053355611,0.487957006857,nan,nan,nan,nan,0.0,0.0,0.0,nan,175.722752281,214.964524239,215.464604066,215.177937027,nan,nan,nan,nan
1,31,1,1,1.0,1.0,0.436892636586,0,nan,nan,nan,nan,nan,nan,nan,nan,nan,419,0.107894673663,0.454841969249,-0.678098861371,nan,nan,nan,nan,0.0,0.0,0.0,nan,175.722752281,215.972999317,216.473054056,216.409891954,nan,nan,nan,nan
1,32,0,0,1.0,0.0,0.268750117626,0,0.0,0.0,0.0,nan,nan,nan,nan,nan,nan,136,1.0,-0.301914900238,-0.074841205769,nan,nan,nan,nan,0.0,0.0,0.0,nan,175.722752281,216.973160112,217.473187196,217.24191023,nan,nan,nan,nan
1,33,1,1,1.0,1.0,0.0686365347356,0,nan,nan,nan,nan,nan,nan,nan,nan,nan,218,0.881467392804,0.0788246127756,0.572559633417,nan,nan,nan,nan,0.0,0.0,0.0,nan,175.722752281,217.973245926,218.473332881,218.041882461,nan,nan,nan,nan
1,34,1,1,1.0,1.0,0.476174728014,0,nan,nan,nan,nan,nan,nan,nan,nan,nan,142,1.0,-0.289568116499,-0.0146273521697,nan,nan,nan,nan,0.0,0.0,0.0,nan,175.722752281,218.981706465,219.481743528,219.457881193,nan,nan,nan,nan
1,35,0,0,1.0,0.0,0.227979249554,0,0.0,0.0,0.0,nan,nan,nan,nan,nan,nan,302,0.027086081288,0.400300843718,0.517770016443,nan,nan,nan,nan,0.0,0.0,0.0,nan,175.722752281,219.981884651,220.481906033,220.2098639,nan,nan,nan,nan
1,36,1,1,1.0,1.0,0.41185684246,0,nan,nan,nan,nan,nan,nan,nan,nan,nan,413,0.0683106243366,0.461143133648,-0.585495598612,nan,nan,nan,nan,0.0,0.0,0.0,nan,175.722752281,220.981978733,221.482002396,221.393835575,nan,nan,nan,nan
1,37,1,1,1.0,1.0,0.36369654513,0,nan,nan,nan,nan,nan,nan,nan,nan,nan,77,1.0,-0.174593022316,-0.756267193339,nan,nan,nan,nan,0.0,0.0,0.0,nan,175.722752281,221.982108452,222.482129549,222.345804997,nan,nan,nan,nan
1,38,1,1,1.0,1.0,0.387546335347,0,nan,nan,nan,nan,nan,nan,nan,nan,nan,438,0.243622561222,0.428096439079,-1.0,nan,nan,nan,nan,0.0,0.0,0.0,nan,175.722752281,222.982239312,223.48225043,223.369785647,nan,nan,nan,nan
1,39,1,1,1.0,1.0,0.243409840157,0,nan,nan,nan,nan,nan,nan,nan,nan,nan,322,-0.105067232891,0.43811622051,0.383559350674,nan,nan,nan,nan,0.0,0.0,0.0,nan,175.722752281,223.982359622,224.482401247,224.225769463,nan,nan,nan,nan
1,40,1,1,1.0,1.0,0.211307631573,0,nan,nan,nan,nan,nan,nan,nan,nan,nan,81,1.0,-0.193804253699,-0.694219169772,nan,nan,nan,nan,0.0,0.0,0.0,nan,175.722752281,224.982489342,225.48254294,225.193796973,nan,nan,nan,nan
1,41,0,0,1.0,0.0,0.235110666137,0,0.0,0.0,0.0,nan,nan,nan,nan,nan,nan,128,1.0,-0.310663006781,-0.156689791083,nan,nan,nan,nan,0.0,0.0,0.0,nan,175.722752281,225.982625333,226.482662681,226.217735999,nan,nan,nan,nan
1,42,1,1,1.0,1.0,0.338653623592,0,nan,nan,nan,nan,nan,nan,nan,nan,nan,498,0.731507943485,0.267561876527,-1.0,nan,nan,nan,nan,0.0,0.0,0.0,nan,175.722752281,226.991045673,227.491130632,227.329699297,nan,nan,nan,nan
1,43,1,1,1.0,1.0,0.226185418898,1,nan,nan,nan,nan,nan,nan,nan,nan,nan,308,-0.0186828559465,0.413097475488,0.481682330771,-139.099513403,229.099513403,12.5370134034,326.0,-0.12383419111,0.444071765824,0.352223541474,0.958757866407,175.722752281,227.999527594,228.499556959,228.225713013,230.799849355,231.799620707,229.824723499,230.791513973
1,44,1,1,1.0,1.0,0.385588574223,0,nan,nan,nan,nan,nan,nan,nan,nan,nan,228,0.780729811514,0.1302769546,0.611433142569,nan,nan,nan,nan,0.0,0.0,0.0,nan,175.722752281,232.000031075,232.500113183,232.38561965,nan,nan,nan,nan
1,45,0,0,1.0,0.0,0.265425601508,0,0.0,0.0,0.0,nan,nan,nan,nan,nan,nan,434,0.213881816697,0.43461034373,-1.0,nan,nan,nan,nan,0.0,0.0,0.0,nan,175.722752281,233.000186453,233.50021981,233.265612055,nan,nan,nan,nan
1,46,1,1,1.0,1.0,0.128967623925,0,nan,nan,nan,nan,nan,nan,nan,nan,nan,214,0.920243657418,0.0575410437433,0.553854850604,nan,nan,nan,nan,0.0,0.0,0.0,nan,175.722752281,234.008606508,234.508682059,234.137574132,nan,nan,nan,nan
1,47,1,1,1.0,1.0,0.432440846693,0,nan,nan,nan,nan,nan,nan,nan,nan,nan,170,1.0,-0.180990482069,0.247815061387,nan,nan,nan,nan,0.0,0.0,0.0,nan,175.722752281,235.017055928,235.517110097,235.449496775,nan,nan,nan,nan
1,48,1,1,1.0,1.0,0.312001899816,0,nan,nan,nan,nan,nan,nan,nan,nan,nan,233,0.728670395113,0.154909781369,0.626482233315,nan,nan,nan,nan,0.0,0.0,0.0,nan,175.722752281,236.025525591,236.525572917,236.33752749,nan,nan,nan,nan
1,49,1,1,1.0,1.0,0.247826848179,0,nan,nan,nan,nan,nan,nan,nan,nan,nan,312,-0.0464483572634,0.420925197877,0.455573212045,nan,nan,nan,nan,0.0,0.0,0.0,nan,175.722752281,237.025677262,237.525717176,237.27350411,nan,nan,nan,nan
1,50,0,0,1.0,0.0,0.199676529039,0,0.0,0.0,0.0,nan,nan,nan,nan,nan,nan,1,0.854939129564,0.207877072944,-1.0,nan,nan,nan,nan,0.0,0.0,0.0,nan,175.722752281,238.025796148,238.52584718,238.225472677,nan,nan,nan,nan
1,51,1,1,1.0,1.0,0.135217520408,0,nan,nan,nan,nan,nan,nan,nan,nan,nan,156,1.0,-0.244060613314,0.121041471254,nan,nan,nan,nan,0.0,0.0,0.0,nan,175.722752281,239.034240436,239.534333092,239.169457956,nan,nan,nan,nan
1,52,1,1,1.0,1.0,0.278727657627,0,nan,nan,nan,nan,nan,nan,nan,nan,nan,385,-0.0879796604702,0.477733444059,-0.233926720364,nan,nan,nan,nan,0.0,0.0,0.0,nan,175.722752281,240.042704966,240.542758564,240.321432624,nan,nan,nan,nan
1,53,1,1,1.0,1.0,0.326266443823,0,nan,nan,nan,nan,nan,nan,nan,nan,nan,11,0.934659501434,0.163852895862,-1.0,nan,nan,nan,nan,0.0,0.0,0.0,nan,175.722752281,241.051156952,241.551212546,241.377423396,nan,nan,nan,nan
1,54,1,1,1.0,1.0,0.253756010439,0,nan,nan,nan,nan,nan,nan,nan,nan,nan,488,0.647907709101,0.302951493728,-1.0,nan,nan,nan,nan,0.0,0.0,0.0,nan,175.722752281,242.059636307,242.559700169,242.313392318,nan,nan,nan,nan
1,55,1,1,1.0,1.0,0.277606941294,0,nan,nan,nan,nan,nan,nan,nan,nan,nan,1,0.854939129564,0.207877072944,-1.0,nan,nan,nan,nan,0.0,0.0,0.0,nan,175.722752281,243.059765456,243.559799668,243.337372398,nan,nan,nan,nan
1,56,1,1,1.0,1.0,0.220129958587,0,nan,nan,nan,nan,nan,nan,nan,nan,nan,341,-0.168535884224,0.46196150489,0.223260112086,nan,nan,nan,nan,0.0,0.0,0.0,nan,175.722752281,244.093258083,244.593256372,244.313388041,nan,nan,nan,nan
1,57,1,1,1.0,1.0,0.0199644882232,0,nan,nan,nan,nan,nan,nan,nan,nan,nan,59,1.0,-0.0814409933332,-1.0,nan,nan,nan,nan,0.0,0.0,0.0,nan,175.722752281,245.093361573,245.593427431,245.113326061,nan,nan,nan,nan
1,58,1,1,1.0,1.0,0.40380456252,0,nan,nan,nan,nan,nan,nan,nan,nan,nan,116,1.0,-0.306446923025,-0.282515442494,nan,nan,nan,nan,0.0,0.0,0.0,nan,175.722752281,246.093483309,246.593511534,246.497287872,nan,nan,nan,nan
1,59,1,1,1.0,1.0,0.267357418779,0,nan,nan,nan,nan,nan,nan,nan,nan,nan,504,0.78128615449,0.244628286196,-1.0,nan,nan,nan,nan,0.0,0.0,0.0,nan,175.722752281,247.101918475,247.601980911,247.369275894,nan,nan,nan,nan
1,60,0,0,1.0,0.0,0.251157636521,0,0.0,0.0,0.0,nan,nan,nan,nan,nan,nan,255,0.492159363509,0.253017189294,0.656163111527,nan,nan,nan,nan,0.0,0.0,0.0,nan,175.722752281,248.102141421,248.602152824,248.353299057,nan,nan,nan,nan
1,61,1,1,1.0,1.0,0.226717980346,0,nan,nan,nan,nan,nan,nan,nan,nan,nan,196,1.0,-0.0413610816081,0.449130757868,nan,nan,nan,nan,0.0,0.0,0.0,nan,175.722752281,249.110529545,249.610562901,249.337247525,nan,nan,nan,nan
1,62,1,1,1.0,1.0,0.0345571788494,0,nan,nan,nan,nan,nan,nan,nan,nan,nan,350,-0.175756816429,0.469490941964,0.138247479403,nan,nan,nan,nan,0.0,0.0,0.0,nan,175.722752281,250.110649,250.610769026,250.145206179,nan,nan,nan,nan
1,63,1,1,1.0,1.0,0.402462610975,0,nan,nan,nan,nan,nan,nan,nan,nan,nan,240,0.654373017221,0.188015059697,0.642463954019,nan,nan,nan,nan,0.0,0.0,0.0,nan,175.722752281,251.11078043,251.610812931,251.513243041,nan,nan,nan,nan
1,64,1,1,1.0,1.0,0.274275012547,0,nan,nan,nan,nan,nan,nan,nan,nan,nan,89,1.0,-0.229484098413,-0.587370487375,nan,nan,nan,nan,0.0,0.0,0.0,nan,175.722752281,252.110899886,252.610938659,252.385174898,nan,nan,nan,nan
1,65,1,1,1.0,1.0,0.32214051974,0,nan,nan,nan,nan,nan,nan,nan,nan,nan,1,0.854939129564,0.207877072944,-1.0,nan,nan,nan,nan,0.0,0.0,0.0,nan,175.722752281,253.111028465,253.611063246,253.433168984,nan,nan,nan,nan
1,66,1,1,1.0,1.0,0.417972458526,0,nan,nan,nan,nan,nan,nan,nan,nan,nan,111,1.0,-0.298677811705,-0.336106236365,nan,nan,nan,nan,0.0,0.0,0.0,nan,175.722752281,254.111184128,254.611188689,254.529156586,nan,nan,nan,nan
1,67,1,1,1.0,1.0,0.601825248217,0,nan,nan,nan,nan,nan,nan,nan,nan,nan,438,0.243622561222,0.428096439079,-1.0,nan,nan,nan,nan,0.0,0.0,0.0,nan,175.722752281,255.111289043,255.611358037,255.713114291,nan,nan,nan,nan
1,68,1,1,1.0,1.0,0.401675172849,0,nan,nan,nan,nan,nan,nan,nan,nan,nan,364,-0.160194321586,0.476704516321,-0.00341124574885,nan,nan,nan,nan,0.0,0.0,0.0,nan,175.722752281,256.11142532,256.611439859,256.513100493,nan,nan,nan,nan
1,69,1,1,1.0,1.0,0.313533440931,0,nan,nan,nan,nan,nan,nan,nan,nan,nan,191,1.0,-0.0691479807067,0.414571651978,nan,nan,nan,nan,0.0,0.0,0.0,nan,175.722752281,257.111538218,257.611564447,257.425071659,nan,nan,nan,nan
1,70,1,1,1.0,1.0,0.209041110473,0,nan,nan,nan,nan,nan,nan,nan,nan,nan,431,0.191957257768,0.43918128748,-0.982298765802,nan,nan,nan,nan,0.0,0.0,0.0,nan,175.722752281,258.120017288,258.620023845,258.329058399,nan,nan,nan,nan
1,71,1,1,1.0,1.0,0.112939469982,0,nan,nan,nan,nan,nan,nan,nan,nan,nan,65,1.0,-0.113312155659,-1.0,nan,nan,nan,nan,0.0,0.0,0.0,nan,175.722752281,259.12014102,259.620156131,259.23308049,nan,nan,nan,nan
1,72,1,1,1.0,1.0,0.24078210094,0,nan,nan,nan,nan,nan,nan,nan,nan,nan,405,0.018463324075,0.468009379796,-0.476293327428,nan,nan,nan,nan,0.0,0.0,0.0,nan,175.722752281,260.120240804,260.620288416,260.361022905,nan,nan,nan,nan
1,73,1,1,1.0,1.0,0.0246004508808,1,nan,nan,nan,nan,nan,nan,nan,nan,nan,297,0.0686262056446,0.388646276542,0.544904663634,-138.551733355,228.551733355,19.7236083548,325.0,-0.119404900653,0.442631039184,0.360186421743,1.30048540607,175.722752281,261.120395612,261.620453201,261.144996063,264.262411841,265.261800023,262.945578972,264.254079025
1,74,1,1,1.0,1.0,0.386329256231,0,nan,nan,nan,nan,nan,nan,nan,nan,nan,172,1.0,-0.170984061773,0.265024678188,nan,nan,nan,nan,0.0,0.0,0.0,nan,175.722752281,265.462594417,265.962622927,265.848923673,nan,nan,nan,nan
1,75,1,1,1.0,1.0,0.210163252195,0,nan,nan,nan,nan,nan,nan,nan,nan,nan,453,0.359670421306,0.39926174925,-1.0,nan,nan,nan,nan,0.0,0.0,0.0,nan,175.722752281,266.462715298,266.962752076,266.67287855,nan,nan,nan,nan
1,76,1,1,1.0,1.0,0.178021985572,0,nan,nan,nan,nan,nan,nan,nan,nan,nan,319,-0.0891891826932,0.433308674125,0.406137099325,nan,nan,nan,nan,0.0,0.0,0.0,nan,175.722752281,267.462841881,267.962880939,267.640863867,nan,nan,nan,nan
1,77,1,1,1.0,1.0,0.217878832715,0,nan,nan,nan,nan,nan,nan,nan,nan,nan,204,1.0,0.00303256528985,0.499654420455,nan,nan,nan,nan,0.0,0.0,0.0,nan,175.722752281,268.462965613,268.963007237,268.680844446,nan,nan,nan,nan
1,78,1,1,1.0,1.0,0.23375217896,0,nan,nan,nan,nan,nan,nan,nan,nan,nan,393,-0.0489456633786,0.475102171109,-0.327443230616,nan,nan,nan,nan,0.0,0.0,0.0,nan,175.722752281,269.46311871,269.963138382,269.696870889,nan,nan,nan,nan
1,79,1,1,1.0,1.0,0.16158443247,0,nan,nan,nan,nan,nan,nan,nan,nan,nan,108,1.0,-0.292426609412,-0.368663285579,nan,nan,nan,nan,0.0,0.0,0.0,nan,175.722752281,270.463245293,270.963294615,270.624829726,nan,nan,nan,nan
1,80,1,1,1.0,1.0,0.161423352547,0,nan,nan,nan,nan,nan,nan,nan,nan,nan,198,1.0,-0.0302354974571,0.462326941081,nan,nan,nan,nan,0.0,0.0,0.0,nan,175.722752281,271.463350209,271.963438589,271.624773562,nan,nan,nan,nan
1,81,1,1,1.0,1.0,0.0812515073922,0,0.0,0.0,0.0,0.246535319398,0.124799386426,0.121735932972,0.371334705825,0.124799386426,0.13475309747,99,1.0,-0.267176270739,-0.468793303331,nan,nan,nan,nan,0.0,0.0,0.0,nan,175.722752281,272.463498745,272.96354493,272.544750252,nan,nan,nan,nan
1,82,1,1,1.0,1.0,0.0571585292928,0,1.0,0.0,0.0,0.244494778509,0.125362310397,0.119132468112,0.369857088907,0.125362310397,0.0999444630773,52,1.0,-0.0438860552364,-1.0,nan,nan,nan,nan,0.0,0.0,0.0,nan,175.722752281,273.463598529,273.963652697,273.520757058,nan,nan,nan,nan
1,83,1,1,1.0,1.0,0.313065881841,1,0.0,0.0,1.0,0.242210190104,0.126280722047,0.115929468058,0.368490912151,0.126280722047,0.150491972842,308,-0.0186828559465,0.413097475488,0.481682330771,-128.440788757,218.440788757,1.87828875701,311.0,-0.0397249783266,0.419020224334,0.462250212202,1.68384480686,175.722752281,274.463723401,274.963805224,274.776789283,277.989147212,278.989308007,276.288937267,277.980816107
1,84,1,1,1.0,1.0,0.338938435772,0,0.0,0.0,0.0,0.243063873137,0.125755516448,0.117308356689,0.368819389585,0.125755516448,0.236387615635,51,1.0,-0.0385160204876,-1.0,nan,nan,nan,nan,0.0,0.0,0.0,nan,175.722752281,279.197658042,279.697736444,279.536596478,nan,nan,nan,nan
1,85,1,1,1.0,1.0,0.306799449725,0,0.0,0.0,0.0,0.244205236978,0.125436468795,0.118768768183,0.369641705774,0.125436468795,0.319601255779,498,0.731507943485,0.267561876527,-1.0,nan,nan,nan,nan,0.0,0.0,0.0,nan,175.722752281,280.197801161,280.697846206,280.50460061,nan,nan,nan,nan
1,86,1,1,1.0,1.0,0.290681775426,0,0.0,0.0,0.0,0.244941639481,0.124878943172,0.120062696309,0.369820582653,0.124878943172,0.312139886975,125,1.0,-0.311567427947,-0.187805059354,nan,nan,nan,nan,0.0,0.0,0.0,nan,175.722752281,281.197920331,281.697974785,281.488602107,nan,nan,nan,nan
1,87,1,1,1.0,1.0,0.194506009575,0,0.0,0.0,0.0,0.245473501527,0.124247578267,0.12122592326,0.369721079794,0.124247578267,0.263995744909,377,-0.121259861678,0.478700828387,-0.143695900877,nan,nan,nan,nan,0.0,0.0,0.0,nan,175.722752281,282.198059459,282.698110776,282.392565468,nan,nan,nan,nan
1,88,1,1,1.0,1.0,0.362056666985,0,0.0,0.0,0.0,0.244887668286,0.123650854743,0.121236813544,0.368538523029,0.123650854743,0.282414817329,335,-0.155595990888,0.455627721073,0.276893227044,nan,nan,nan,nan,0.0,0.0,0.0,nan,175.722752281,283.206487211,283.706535963,283.568543878,nan,nan,nan,nan
1,89,1,1,1.0,1.0,0.329906277126,0,0.0,0.0,0.0,0.24621913418,0.12357193411,0.122647200071,0.36979106829,0.12357193411,0.295489651229,236,0.697004556276,0.169301754335,0.634065852989,nan,nan,nan,nan,0.0,0.0,0.0,nan,175.722752281,284.206639168,284.706682788,284.536545445,nan,nan,nan,nan
1,90,1,1,1.0,1.0,0.233785535209,0,0.0,0.0,0.0,0.247159439157,0.123191951329,0.123967487829,0.370351390486,0.123191951329,0.30858282644,315,-0.0657111424032,0.426434809442,0.434956515233,nan,nan,nan,nan,0.0,0.0,0.0,nan,175.722752281,285.206756913,285.706791695,285.440542448,nan,nan,nan,nan
1,91,1,1,1.0,1.0,0.209618146764,0,0.0,0.0,0.0,0.247010840225,0.122513660716,0.124497179509,0.369524500941,0.122513660716,0.257769986366,1,0.854939129564,0.207877072944,-1.0,nan,nan,nan,nan,0.0,0.0,0.0,nan,175.722752281,286.206896611,286.706969025,286.416514757,nan,nan,nan,nan
1,92,0,0,1.0,0.0,0.209410311189,0,0.0,0.0,0.0,0.246599931505,0.121900994962,0.124698936543,0.368500926468,0.121900994962,0.217604664387,437,0.23613482661,0.429770237144,-1.0,nan,nan,nan,nan,0.0,0.0,0.0,nan,175.722752281,287.207061967,287.707065958,287.416472278,nan,nan,nan,nan
1,93,1,1,1.0,1.0,0.281302938936,0,0.0,0.0,0.0,0.246195696502,0.121297989994,0.124897706508,0.367493686495,0.121297989994,0.233443798963,366,-0.155593376329,0.477302029306,-0.0244766492797,nan,nan,nan,nan,0.0,0.0,0.0,nan,175.722752281,288.207150917,288.707164032,288.488453856,nan,nan,nan,nan
1,94,1,1,1.0,1.0,0.217148699332,0,0.0,0.0,0.0,0.246573193732,0.120698410437,0.125874783296,0.367271604169,0.120698410437,0.235953983152,315,-0.0657111424032,0.426434809442,0.434956515233,nan,nan,nan,nan,0.0,0.0,0.0,nan,175.722752281,289.207274364,289.707334805,289.424423063,nan,nan,nan,nan
1,95,1,1,1.0,1.0,0.000985010294244,0,0.0,0.0,0.0,0.246260167196,0.120092627125,0.126167540071,0.366352794321,0.120092627125,0.166478882854,79,1.0,-0.184296021705,-0.724170777997,nan,nan,nan,nan,0.0,0.0,0.0,nan,175.722752281,290.20741007,290.707461103,290.208395081,nan,nan,nan,nan
1,96,1,1,1.0,1.0,0.088908072561,0,1.0,0.0,0.0,0.243678323439,0.122053358258,0.121624965181,0.365731681698,0.122053358258,0.102347260729,141,1.0,-0.291952736687,-0.024586852943,nan,nan,nan,nan,0.0,0.0,0.0,nan,175.722752281,291.207532092,291.707587116,291.296440165,nan,nan,nan,nan
1,97,1,1,1.0,1.0,0.488717000699,1,0.0,0.0,1.0,0.242066133326,0.122428611273,0.119637522053,0.364494744599,0.122428611273,0.192870027851,479,0.572572153349,0.331768222426,-1.0,142.581834118,307.418165882,-29.3787091179,437.0,0.23613482661,0.429770237144,-1.0,2.42562930891,175.722752281,292.207636437,292.71600375,292.696353438,296.474826219,297.474969623,294.032836903,296.466507944
1,98,1,1,1.0,1.0,0.340780732455,0,0.0,0.0,0.0,0.244608925773,0.124317970054,0.120290955719,0.368926895827,0.124317970054,0.306135268571,286,0.169078956243,0.359734776014,0.594698705761,nan,nan,nan,nan,0.0,0.0,0.0,nan,175.722752281,297.683450803,298.183375252,298.024231535,nan,nan,nan,nan
1,99,1,1,1.0,1.0,0.300438365201,0,0.0,0.0,0.0,0.245590270739,0.12405913392,0.121531136819,0.36964940466,0.12405913392,0.376645366118,109,1.0,-0.294638327523,-0.357773695079,nan,nan,nan,nan,0.0,0.0,0.0,nan,175.722752281,298.691782763,299.191824102,298.992221128,nan,nan,nan,nan
1,100,1,1,1.0,1.0,0.227994359564,0,0.0,0.0,0.0,0.246144291895,0.123552772022,0.122591519874,0.369697063917,0.123552772022,0.289737819073,304,0.0113092810281,0.404708921832,0.506160370659,nan,nan,nan,nan,0.0,0.0,0.0,nan,175.722752281,299.700252995,300.200287777,299.928247355,nan,nan,nan,nan
1,101,1,1,1.0,1.0,0.147797140991,0,0.0,0.0,0.0,0.245962792572,0.12294671959,0.123016072982,0.368909512162,0.12294671959,0.225409955252,348,-0.175384772129,0.468017843042,0.157582163916,nan,nan,nan,nan,0.0,0.0,0.0,nan,175.722752281,300.70039868,301.2004155,300.848195821,nan,nan,nan,nan
1,102,1,1,1.0,1.0,0.0996693444904,0,0.0,0.0,0.0,0.244990855428,0.122722042454,0.122268812974,0.367712897881,0.122722042454,0.158486948349,283,0.19826868328,0.351050922538,0.605825948857,nan,nan,nan,nan,0.0,0.0,0.0,nan,175.722752281,301.700505591,302.200566602,301.800174935,nan,nan,nan,nan
1,103,1,1,1.0,1.0,0.0515252973419,0,1.0,0.0,0.0,0.243566134732,0.122955514396,0.120610620336,0.366521649128,0.122955514396,0.0996639276079,191,1.0,-0.0691479807067,0.414571651978,nan,nan,nan,nan,0.0,0.0,0.0,nan,175.722752281,302.700640157,303.200699742,302.752165454,nan,nan,nan,nan
1,104,1,1,1.0,1.0,0.0273419436999,1,0.0,0.0,1.0,0.241701660583,0.123797658161,0.117904002421,0.365499318744,0.123797658161,0.0595121951774,497,0.723174939644,0.271260599794,-1.0,128.703181281,321.296818719,-28.156306281,457.0,0.391639248186,0.390358177281,-1.0,2.36735148868,175.722752281,303.700765884,304.200838584,303.728107828,307.909614269,308.909325181,305.525959793,307.901290577
1,105,1,1,1.0,1.0,0.538209271617,0,0.0,0.0,0.0,0.239640509459,0.124964297116,0.114676212343,0.364604806575,0.124964297116,0.205692170886,25,1.0,0.0970682892709,-1.0,nan,nan,nan,nan,0.0,0.0,0.0,nan,175.722752281,309.109793139,309.609851869,309.648002411,nan,nan,nan,nan
1,106,1,1,1.0,1.0,0.322104027262,0,0.0,0.0,0.0,0.24248402148,0.127703756124,0.114780265356,0.370187777603,0.127703756124,0.29588508086,213,0.929785093221,0.0521668813814,0.548906519778,nan,nan,nan,nan,0.0,0.0,0.0,nan,175.722752281,310.109896344,310.609941675,310.432000372,nan,nan,nan,nan
1,107,0,0,1.0,0.0,0.233898718609,0,0.0,0.0,0.0,0.24323515361,0.127332787861,0.115902365749,0.37056794147,0.127332787861,0.364737339163,351,-0.175686286722,0.4701852659,0.128489978773,nan,nan,nan,nan,0.0,0.0,0.0,nan,175.722752281,311.110069398,311.6100885,311.343968117,nan,nan,nan,nan
1,108,1,1,1.0,1.0,0.14582312922,0,0.0,0.0,0.0,0.243147897208,0.126739562013,0.116408335195,0.369887459221,0.126739562013,0.233941958363,196,1.0,-0.0413610816081,0.449130757868,nan,nan,nan,nan,0.0,0.0,0.0,nan,175.722752281,312.110153502,312.610214228,312.255976631,nan,nan,nan,nan
1,109,1,1,1.0,1.0,0.057641198393,0,0.0,0.0,0.0,0.242246741949,0.126495369543,0.115751372405,0.368742111492,0.126495369543,0.145787682074,331,-0.143297839787,0.450801753776,0.311166711333,nan,nan,nan,nan,0.0,0.0,0.0,nan,175.722752281,313.110299757,313.610355921,313.167940955,nan,nan,nan,nan
1,110,1,1,1.0,1.0,0.161188432481,0,0.0,0.0,0.0,0.240553113109,0.12713797436,0.113415138749,0.367691087469,0.12713797436,0.121550920031,221,0.851781464038,0.0945411604707,0.585422935822,nan,nan,nan,nan,0.0,0.0,0.0,nan,175.722752281,314.11872865,314.618784814,314.279917082,nan,nan,nan,nan
1,111,1,1,1.0,1.0,0.409014425473,0,0.0,0.0,0.0,0.239831616012,0.126782724816,0.113048891196,0.366614340828,0.126782724816,0.209281352116,96,1.0,-0.25681952169,-0.503302481145,nan,nan,nan,nan,0.0,0.0,0.0,nan,175.722752281,315.118866637,315.61890598,315.527881062,nan,nan,nan,nan
1,112,1,1,1.0,1.0,0.368852809537,0,0.0,0.0,0.0,0.241355785467,0.127218669803,0.114137115664,0.368574455269,0.127218669803,0.313018555831,51,1.0,-0.0385160204876,-1.0,nan,nan,nan,nan,0.0,0.0,0.0,nan,175.722752281,316.119026291,316.619043682,316.4878791,nan,nan,nan,nan
1,113,1,1,1.0,1.0,0.487622228218,0,0.0,1.0,0.0,0.242494151753,0.127216064689,0.115278087064,0.369710216442,0.127216064689,0.421829821076,177,1.0,-0.145192147526,0.306921212481,nan,nan,nan,nan,0.0,0.0,0.0,nan,175.722752281,317.144216608,317.652516067,317.631838836,nan,nan,nan,nan
1,114,1,1,1.0,1.0,0.359239338432,1,0.0,0.0,1.0,0.244663426766,0.128715775949,0.115947650817,0.373379202715,0.128715775949,0.405238125396,70,1.0,-0.13936984996,-0.906436913284,70.7873281828,19.2126718172,-30.0060781828,27.0,1.0,0.0870912575778,-1.0,2.30058718589,175.722752281,318.152581639,318.652651488,318.511820977,322.294752961,323.294899785,319.977798355,322.286416154
1,115,0,0,0.0,1.0,0.500250600278,0,0.0,0.0,0.0,0.245668478623,0.128594573886,0.117073904737,0.374263052508,0.128594573886,0.449037388976,469,0.489482198204,0.360453357602,-1.0,nan,nan,nan,nan,0.0,0.0,0.0,nan,175.722752281,323.494969748,323.9950319,323.995220348,nan,nan,nan,nan
1,116,1,1,1.0,1.0,0.248679288197,0,0.0,0.0,0.0,0.247882236202,0.130197736536,0.117684499666,0.378079972739,0.130197736536,0.369389742302,273,0.299732959835,0.319577193062,0.635038033336,nan,nan,nan,nan,0.0,0.0,0.0,nan,175.722752281,324.495049575,324.995103744,324.743728864,nan,nan,nan,nan
1,117,1,1,1.0,1.0,0.208475477993,0,0.0,0.0,0.0,0.24788910734,0.129635345619,0.118253761721,0.377524452959,0.129635345619,0.319135122156,483,0.606025706087,0.319314454546,-1.0,nan,nan,nan,nan,0.0,0.0,0.0,nan,175.722752281,325.495200107,325.995239735,325.703675585,nan,nan,nan,nan
1,118,1,1,1.0,1.0,0.104365747655,0,0.0,0.0,0.0,0.247552238713,0.12913114005,0.118421098663,0.376683378763,0.12913114005,0.187173504615,51,1.0,-0.0385160204876,-1.0,nan,nan,nan,nan,0.0,0.0,0.0,nan,175.722752281,326.495326119,326.995371735,326.599691867,nan,nan,nan,nan
1,119,0,0,1.0,0.0,0.240124952281,0,0.0,0.0,0.0,0.246338793874,0.129250978687,0.117087815187,0.375589772561,0.129250978687,0.18432205931,493,0.689769084006,0.285700779988,-1.0,nan,nan,nan,nan,0.0,0.0,0.0,nan,175.722752281,327.495512003,327.995525402,327.735636955,nan,nan,nan,nan
1,120,1,1,1.0,1.0,0.232103462797,0,0.0,0.0,0.0,0.246286576717,0.128708011522,0.117578565196,0.374994588239,0.128708011522,0.192198054244,180,1.0,-0.129278616986,0.331238955499,nan,nan,nan,nan,0.0,0.0,0.0,nan,175.722752281,328.49557729,328.995614353,328.727680753,nan,nan,nan,nan
1,121,1,1,1.0,1.0,0.271882478613,0,0.0,0.0,0.0,0.246168384101,0.128177091028,0.117991293073,0.37434547513,0.128177091028,0.248036964564,390,-0.0641960347588,0.476284203309,-0.291947553613,nan,nan,nan,nan,0.0,0.0,0.0,nan,175.722752281,329.495707294,329.995724115,329.767589773,nan,nan,nan,nan
1,122,1,1,1.0,1.0,0.407738046022,0,0.0,0.0,0.0,0.246380897279,0.127667561255,0.118713336024,0.374048458534,0.127667561255,0.303907995811,450,0.335949728395,0.405598329481,-1.0,nan,nan,nan,nan,0.0,0.0,0.0,nan,175.722752281,330.495837869,330.9958698,330.903575915,nan,nan,nan,nan
1,123,1,1,1.0,1.0,0.319620832335,0,0.0,0.0,0.0,0.247703496859,0.12797292453,0.119730572329,0.375676421389,0.12797292453,0.333080452324,105,1.0,-0.285049837405,-0.401580786678,nan,nan,nan,nan,0.0,0.0,0.0,nan,175.722752281,331.495950482,331.995979847,331.815571314,nan,nan,nan,nan
1,124,1,1,1.0,1.0,0.34329300723,0,0.0,0.0,0.0,0.248288190643,0.127615164692,0.120673025952,0.375903355335,0.127615164692,0.356883961863,317,-0.077772836126,0.429938605076,0.420733606481,nan,nan,nan,nan,0.0,0.0,0.0,nan,175.722752281,332.496242421,332.996108711,332.839535429,nan,nan,nan,nan
1,125,1,1,1.0,1.0,0.359279822093,0,0.0,0.0,0.0,0.249054358519,0.127383268747,0.121671089772,0.376437627266,0.127383268747,0.340731220553,75,1.0,-0.164714458691,-0.791355921409,nan,nan,nan,nan,0.0,0.0,0.0,nan,175.722752281,333.496217333,333.996260382,333.855497155,nan,nan,nan,nan
1,126,1,1,1.0,1.0,0.287159116706,0,0.0,0.0,0.0,0.249936162228,0.127252130922,0.122684031306,0.37718829315,0.127252130922,0.329910648676,373,-0.135407706169,0.478559568072,-0.0996974893599,nan,nan,nan,nan,0.0,0.0,0.0,nan,175.722752281,334.496325385,334.996371855,334.783484501,nan,nan,nan,nan
1,127,1,1,1.0,1.0,0.311006056145,0,0.0,0.0,0.0,0.250231582501,0.126789184324,0.123442398178,0.377020766825,0.126789184324,0.319148331648,499,0.739831889234,0.263827757734,-1.0,nan,nan,nan,nan,0.0,0.0,0.0,nan,175.722752281,335.49647278,335.996495017,335.807478836,nan,nan,nan,nan
1,128,1,1,1.0,1.0,0.238871665671,0,0.0,0.0,0.0,0.250710121664,0.126403213997,0.124306907667,0.377113335661,0.126403213997,0.279012279507,89,1.0,-0.229484098413,-0.587370487375,nan,nan,nan,nan,0.0,0.0,0.0,nan,175.722752281,336.496579976,336.996627587,336.735451642,nan,nan,nan,nan
1,129,1,1,1.0,1.0,0.206737811677,0,0.0,0.0,0.0,0.250617633727,0.12591279729,0.124704836436,0.376530431017,0.12591279729,0.252205177831,146,1.0,-0.278792578557,0.0248813210997,nan,nan,nan,nan,0.0,0.0,0.0,nan,175.722752281,337.49670827,337.996735924,337.703446082,nan,nan,nan,nan
1,130,1,1,1.0,1.0,0.1186106198,0,0.0,0.0,0.0,0.250277480067,0.125482840349,0.124794639718,0.375760320416,0.125482840349,0.188073365716,358,-0.170583909915,0.474268316859,0.0585874414746,nan,nan,nan,nan,0.0,0.0,0.0,nan,175.722752281,338.496832857,338.996895579,338.615443477,nan,nan,nan,nan
1,131,1,1,1.0,1.0,0.294452468166,0,0.0,0.0,0.0,0.249264658065,0.125527486498,0.123737171567,0.374792144563,0.125527486498,0.206600299881,248,0.568115903494,0.223728204869,0.653295769881,nan,nan,nan,nan,0.0,0.0,0.0,nan,175.722752281,339.496952313,339.996989946,339.791404781,nan,nan,nan,nan
1,132,1,1,1.0,1.0,0.246285898611,0,0.0,0.0,0.0,0.24960960318,0.12510929065,0.12450031253,0.374718893831,0.12510929065,0.219782995526,56,1.0,-0.0653675053377,-1.0,nan,nan,nan,nan,0.0,0.0,0.0,nan,175.722752281,340.497078326,340.997112538,340.743364224,nan,nan,nan,nan
1,133,1,1,1.0,1.0,0.34211270581,0,0.0,0.0,0.0,0.2495844236,0.124634824066,0.124949599534,0.374219247667,0.124634824066,0.294283690862,106,1.0,-0.287630069369,-0.390564445695,nan,nan,nan,nan,0.0,0.0,0.0,nan,175.722752281,341.4972223,341.997262498,341.839335005,nan,nan,nan,nan
1,134,1,1,1.0,1.0,0.3179245051,0,0.0,0.0,0.0,0.25028012497,0.124422392026,0.125857732944,0.374702516997,0.124422392026,0.302107703174,406,0.0244967455079,0.467245700284,-0.489366101921,nan,nan,nan,nan,0.0,0.0,0.0,nan,175.722752281,342.497379103,342.997381384,342.815303608,nan,nan,nan,nan
1,135,1,1,1.0,1.0,0.253821582766,0,0.0,0.0,0.0,0.250784933777,0.124093895675,0.126691038102,0.374878829453,0.124093895675,0.304619597892,183,1.0,-0.113108999915,0.354902835149,nan,nan,nan,nan,0.0,0.0,0.0,nan,175.722752281,343.497476036,343.997513384,343.751297619,nan,nan,nan,nan
1,136,1,1,1.0,1.0,0.2456914715,0,0.0,0.0,0.0,0.250807427474,0.123633708559,0.127173718915,0.374441136032,0.123633708559,0.272479186455,43,1.0,0.00424534395127,-1.0,nan,nan,nan,nan,0.0,0.0,0.0,nan,175.722752281,344.497592071,344.997621721,344.743283542,nan,nan,nan,nan
1,137,1,1,1.0,1.0,0.293564676307,0,0.0,0.0,0.0,0.25076981015,0.123179109668,0.127590700482,0.373948919818,0.123179109668,0.264359243525,133,1.0,-0.306259573676,-0.105336427414,nan,nan,nan,nan,0.0,0.0,0.0,nan,175.722752281,345.497714377,345.997748304,345.791279054,nan,nan,nan,nan
1,138,1,1,1.0,1.0,0.413384107174,0,0.0,0.0,0.0,0.251082181436,0.122782779192,0.128299402244,0.373864960628,0.122782779192,0.317546751661,75,1.0,-0.164714458691,-0.791355921409,nan,nan,nan,nan,0.0,0.0,0.0,nan,175.722752281,346.497856926,346.997894844,346.911241033,nan,nan,nan,nan
1,139,1,1,1.0,1.0,0.389251215383,0,0.0,0.0,0.0,0.252258282347,0.123109169189,0.129149113158,0.375367451536,0.123109169189,0.365399999622,209,0.967301840512,0.0304835193525,0.52804999659,nan,nan,nan,nan,0.0,0.0,0.0,nan,175.722752281,347.497960131,347.998003751,347.887211346,nan,nan,nan,nan
1,140,1,1,1.0,1.0,0.301088671433,0,0.0,0.0,0.0,0.253243843016,0.123210697738,0.130033145278,0.376454540755,0.123210697738,0.367907997997,395,-0.0383984177995,0.474183508328,-0.351427224487,nan,nan,nan,nan,0.0,0.0,0.0,nan,175.722752281,348.498097833,348.99813404,348.799186504,nan,nan,nan,nan
1,141,1,1,1.0,1.0,0.260933327721,0,0.0,0.0,0.0,0.253585591791,0.122835969193,0.130749622598,0.376421560984,0.122835969193,0.317091071513,291,0.122027637739,0.373441943191,0.573791926984,nan,nan,nan,nan,0.0,0.0,0.0,nan,175.722752281,349.49823639,349.998274878,349.759169718,nan,nan,nan,nan
1,142,1,1,1.0,1.0,0.212826913688,0,0.0,0.0,0.0,0.253637703393,0.122401158624,0.131236544769,0.376038862017,0.122401158624,0.258282970948,73,1.0,-0.1546788618,-0.830916872461,nan,nan,nan,nan,0.0,0.0,0.0,nan,175.722752281,350.498362973,350.998380649,350.711189887,nan,nan,nan,nan
1,143,0,0,1.0,0.0,0.156642275862,0,0.0,0.0,0.0,0.253350303466,0.122017141018,0.131333162448,0.375367444484,0.122017141018,0.210134172424,376,-0.124962824795,0.478704673615,-0.132627625282,nan,nan,nan,nan,0.0,0.0,0.0,nan,175.722752281,351.498505521,351.998537452,351.655147797,nan,nan,nan,nan
1,144,1,1,1.0,1.0,0.00284384284168,0,0.0,0.0,0.0,0.252674023552,0.121856529897,0.130817493656,0.374530553449,0.121856529897,0.124104344131,169,1.0,-0.185917379452,0.239118302078,nan,nan,nan,nan,0.0,0.0,0.0,nan,175.722752281,352.540285348,353.040364605,352.543129191,nan,nan,nan,nan
1,145,1,1,1.0,1.0,0.266705116723,0,0.0,0.0,0.0,0.250939091742,0.123192224048,0.127746867694,0.37413131579,0.123192224048,0.142063745142,61,1.0,-0.0921163965413,-1.0,nan,nan,nan,nan,0.0,0.0,0.0,nan,175.722752281,353.540403378,354.040433028,353.807108495,nan,nan,nan,nan
1,146,1,1,1.0,1.0,0.36257839459,0,0.0,0.0,0.0,0.251047822949,0.122773621753,0.128274201195,0.373821444702,0.122773621753,0.210709118051,294,0.0948761993654,0.381212130724,0.559858230992,nan,nan,nan,nan,0.0,0.0,0.0,nan,175.722752281,354.540521123,355.040569019,354.903099518,nan,nan,nan,nan
1,147,1,1,1.0,1.0,0.298384526279,0,0.0,0.0,0.0,0.251811730974,0.122697740545,0.129113990429,0.374509471519,0.122697740545,0.309222679197,343,-0.171388175652,0.463836419185,0.204822810802,nan,nan,nan,nan,0.0,0.0,0.0,nan,175.722752281,355.54065911,356.040689045,355.839043636,nan,nan,nan,nan
1,148,1,1,1.0,1.0,0.362291587051,0,0.0,0.0,0.0,0.25212855271,0.12233959811,0.1297889546,0.374468150821,0.12233959811,0.341084835973,52,1.0,-0.0438860552364,-1.0,nan,nan,nan,nan,0.0,0.0,0.0,nan,175.722752281,356.540775144,357.040813633,356.903066732,nan,nan,nan,nan
1,149,0,0,0.0,1.0,0.554084328236,0,0.0,0.0,0.0,0.252872897537,0.12225912758,0.130613769957,0.375132025117,0.12225912758,0.404920147189,122,1.0,-0.311159539646,-0.219144224573,nan,nan,nan,nan,0.0,0.0,0.0,nan,175.722752281,357.54093708,358.04098127,358.095021408,nan,nan,nan,nan
1,150,1,1,1.0,1.0,0.281953815371,0,0.0,0.0,0.0,0.254894450763,0.124305290021,0.130589160742,0.379199740785,0.124305290021,0.399443243553,206,0.994723455659,0.014051917983,0.511316161583,nan,nan,nan,nan,0.0,0.0,0.0,nan,175.722752281,358.541035723,359.041067939,358.822989539,nan,nan,nan,nan
1,151,1,1,1.0,1.0,0.35381166148,0,0.0,0.0,0.0,0.255074846527,0.123909813757,0.13116503277,0.378984660284,0.123909813757,0.396616601696,0,0.846831709088,0.212097570855,-1.0,nan,nan,nan,nan,0.0,0.0,0.0,nan,175.722752281,359.541175706,360.041213054,359.894987367,nan,nan,nan,nan
1,152,1,1,1.0,1.0,0.425636721542,0,0.0,0.0,0.0,0.255728732719,0.12375822102,0.131970511699,0.379486953739,0.12375822102,0.353800732798,451,0.343830962376,0.403518361206,-1.0,nan,nan,nan,nan,0.0,0.0,0.0,nan,175.722752281,360.541321961,361.041314263,360.966958682,nan,nan,nan,nan
1,153,0,0,1.0,0.0,0.273493276676,0,0.0,0.0,0.0,0.256846548435,0.124112891274,0.132733657161,0.380959439709,0.124112891274,0.350980553233,108,1.0,-0.292426609412,-0.368663285579,nan,nan,nan,nan,0.0,0.0,0.0,nan,175.722752281,361.541441416,362.041476198,361.814934693,nan,nan,nan,nan
1,154,1,1,1.0,1.0,0.113376523834,0,0.0,0.0,0.0,0.25695535058,0.123713901158,0.133241449422,0.380669251738,0.123713901158,0.270835507351,164,1.0,-0.209685835145,0.194761549991,nan,nan,nan,nan,0.0,0.0,0.0,nan,175.722752281,362.541592232,363.041569995,362.654968756,nan,nan,nan,nan
1,155,1,1,1.0,1.0,0.449210252613,0,0.0,0.0,0.0,0.256023020536,0.123849662888,0.132173357648,0.379872683425,0.123849662888,0.278693351041,410,0.0492046846968,0.463921527344,-0.54316189137,nan,nan,nan,nan,0.0,0.0,0.0,nan,175.722752281,363.54167206,364.041704846,363.990882312,nan,nan,nan,nan
1,156,1,1,1.0,1.0,0.376728899544,0,0.0,0.0,0.0,0.257269389776,0.124414663839,0.132854725936,0.381684053615,0.124414663839,0.31310522533,363,-0.162287729338,0.476365729747,0.00704812682028,nan,nan,nan,nan,0.0,0.0,0.0,nan,175.722752281,364.550138871,365.050163959,364.92686777,nan,nan,nan,nan
1,157,1,1,1.0,1.0,0.400269074598,0,0.0,1.0,0.0,0.258035155864,0.124381171437,0.133653984427,0.382416327301,0.124381171437,0.408736075585,313,-0.0530221528698,0.42279583272,0.448797959603,nan,nan,nan,nan,0.0,0.0,0.0,nan,175.722752281,365.558577457,366.058618226,365.958846532,nan,nan,nan,nan
1,158,1,1,1.0,1.0,0.264097334351,1,0.0,0.0,1.0,0.258941104391,0.124499688105,0.134441416286,0.383440792496,0.124499688105,0.347031769498,176,1.0,-0.150429669724,0.298675466069,-171.583625612,261.583625612,137.833625612,372.0,-0.138660017671,0.478458869494,-0.0888123791441,1.85054216883,175.722752281,366.558729414,367.058750226,366.822826748,370.250806112,371.25058174,368.383919331,370.242477288
1,159,1,1,1.0,1.0,0.371719745221,0,0.0,0.0,0.0,0.258973738758,0.124105750016,0.134867988742,0.383079488773,0.124105750016,0.34536205139,510,0.830554458933,0.220436700166,-1.0,nan,nan,nan,nan,0.0,0.0,0.0,nan,175.722752281,371.450996385,371.951035729,371.822716131,nan,nan,nan,nan
1,160,1,1,1.0,1.0,0.363569961861,0,0.0,0.0,0.0,0.259682833138,0.124035529246,0.135647303892,0.383718362384,0.124035529246,0.333129013811,204,1.0,0.00303256528985,0.499654420455,nan,nan,nan,nan,0.0,0.0,0.0,nan,175.722752281,372.451121258,372.951159746,372.81469122,nan,nan,nan,nan
1,161,1,1,1.0,1.0,0.323422600981,0,0.0,0.0,0.0,0.260332127693,0.123918074552,0.13641405314,0.384250202245,0.123918074552,0.352904102687,80,1.0,-0.189075709245,-0.708965549488,nan,nan,nan,nan,0.0,0.0,0.0,nan,175.722752281,373.451258675,373.951286329,373.774681276,nan,nan,nan,nan
1,162,1,1,1.0,1.0,0.131313116988,0,0.0,0.0,0.0,0.260723993986,0.123632041639,0.137091952347,0.384356035626,0.123632041639,0.272768559943,11,0.934659501434,0.163852895862,-1.0,nan,nan,nan,nan,0.0,0.0,0.0,nan,175.722752281,374.451381266,374.951448264,374.582694383,nan,nan,nan,nan
1,163,1,1,1.0,1.0,0.195172281237,0,0.0,0.0,0.0,0.259925161412,0.123665961722,0.13625919969,0.383591123134,0.123665961722,0.216635999735,361,-0.166047812515,0.475607712818,0.0278173107143,nan,nan,nan,nan,0.0,0.0,0.0,nan,175.722752281,375.45149331,375.95153978,375.646665591,nan,nan,nan,nan
1,164,1,1,1.0,1.0,0.490999202244,0,0.0,0.0,0.0,0.259527904479,0.123389675676,0.136138228803,0.382917580154,0.123389675676,0.272494866823,468,0.481236483515,0.363131620867,-1.0,nan,nan,nan,nan,0.0,0.0,0.0,nan,175.722752281,376.451618467,376.960017425,376.942617669,nan,nan,nan,nan
1,165,1,1,1.0,1.0,0.194839573232,0,0.0,0.0,0.0,0.260939314831,0.124325723528,0.136613591303,0.385265038358,0.124325723528,0.293670352238,209,0.967301840512,0.0304835193525,0.52804999659,nan,nan,nan,nan,0.0,0.0,0.0,nan,175.722752281,377.451769568,377.951812333,377.646609142,nan,nan,nan,nan
1,166,1,1,1.0,1.0,0.402662748937,0,0.0,0.0,0.0,0.260538710336,0.124054531582,0.136484178754,0.384593241919,0.124054531582,0.362833841471,154,1.0,-0.251813147593,0.102138173725,nan,nan,nan,nan,0.0,0.0,0.0,nan,175.722752281,378.451897007,378.951925232,378.854559756,nan,nan,nan,nan
1,167,1,1,1.0,1.0,0.282527145464,0,0.0,0.0,0.0,0.261394879244,0.124168305018,0.137226574226,0.385563184261,0.124168305018,0.293343155878,247,0.578947625354,0.219392674348,0.6523805853,nan,nan,nan,nan,0.0,0.0,0.0,nan,175.722752281,379.452025871,379.952046113,379.734553016,nan,nan,nan,nan
1,168,0,0,1.0,0.0,0.466387347551,0,0.0,0.0,0.0,0.26152141976,0.123806720667,0.138301316051,0.387180403562,0.123806720667,0.383859080651,154,1.0,-0.251813147593,0.102138173725,nan,nan,nan,nan,0.0,0.0,0.0,nan,175.722752281,380.452166994,380.952194933,380.918554341,nan,nan,nan,nan
1,169,1,1,nan,nan,nan,0,0.0,0.0,0.0,0.262740859806,0.124439543756,0.138301316051,0.387180403562,0.124439543756,0.374457246508,20,1.0,0.121558187834,-1.0,nan,nan,nan,nan,0.0,0.0,0.0,nan,175.722752281,381.452261076,381.952338622,nan,nan,nan,nan,nan
1,170,1,1,nan,nan,nan,0,0.0,0.0,0.0,0.262740859806,0.124439543756,0.138301316051,0.387180403562,0.124439543756,0.466387347551,118,1.0,-0.308588151016,-0.261285249573,nan,nan,nan,nan,0.0,0.0,0.0,nan,175.722752281,382.452411322,382.95251025,nan,nan,nan,nan,nan
1,171,1,1,1.0,1.0,0.113961827708,0,0.0,0.0,0.0,0.262740859806,0.124439543756,0.138301316051,0.387180403562,0.124439543756,0.113961827708,459,0.407758158413,0.385709174134,-1.0,nan,nan,nan,nan,0.0,0.0,0.0,nan,175.722752281,383.452539901,383.952591503,383.566501728,nan,nan,nan,nan
1,172,1,1,1.0,1.0,0.145842515863,0,0.0,0.0,0.0,0.261860510504,0.124594438679,0.137266071825,0.386454949183,0.124594438679,0.129902171786,322,-0.105067232891,0.43811622051,0.383559350674,nan,nan,nan,nan,0.0,0.0,0.0,nan,175.722752281,384.4526394,384.952714095,384.598481915,nan,nan,nan,nan
1,173,1,1,1.0,1.0,0.185650041094,0,0.0,0.0,0.0,0.261178051712,0.124543846021,0.136634205691,0.385721897732,0.124543846021,0.148484794889,487,0.639529740128,0.306295026098,-1.0,nan,nan,nan,nan,0.0,0.0,0.0,nan,175.722752281,385.452789646,385.952826708,385.638439687,nan,nan,nan,nan
1,174,1,1,1.0,1.0,0.041598504642,0,1.0,0.0,0.0,0.260736367439,0.124312611738,0.136423755702,0.385048979177,0.124312611738,0.1243636872,336,-0.158211608236,0.456758111158,0.268135266647,nan,nan,nan,nan,0.0,0.0,0.0,nan,175.722752281,386.452892281,386.952967261,386.494490785,nan,nan,nan,nan
1,175,1,1,1.0,1.0,0.489334806101,1,0.0,0.0,1.0,0.259462310097,0.125065381934,0.134396928163,0.384527692032,0.125065381934,0.238861117279,383,-0.0968787136249,0.478131214543,-0.211081409456,149.681103799,300.318896201,31.0220212008,427.0,0.163265173604,0.444863218481,-0.840208708629,3.00903130299,175.722752281,387.453035114,387.961393018,387.94236992,392.303602372,393.303381422,389.278228168,392.295276114
1,176,1,1,1.0,1.0,0.390460026916,0,0.0,0.0,0.0,0.260791052849,0.125915103095,0.134875949753,0.386706155944,0.125915103095,0.307131112553,201,1.0,-0.0135712615467,0.48142235136,nan,nan,nan,nan,0.0,0.0,0.0,nan,175.722752281,393.503786088,394.003819159,393.894246115,nan,nan,nan,nan
1,177,1,1,1.0,1.0,0.438332946738,0,0.0,0.0,0.0,0.261536276838,0.125934791826,0.135601485012,0.387471068664,0.125934791826,0.439375926585,499,0.739831889234,0.263827757734,-1.0,nan,nan,nan,nan,0.0,0.0,0.0,nan,175.722752281,394.503910961,395.003948309,394.942243907,nan,nan,nan,nan
1,178,1,1,1.0,1.0,0.318191926228,0,0.0,0.0,0.0,0.262546543523,0.126279597776,0.136266945746,0.388826141299,0.126279597776,0.382328299961,282,0.208142307666,0.34807905204,0.609295500931,nan,nan,nan,nan,0.0,0.0,0.0,nan,175.722752281,395.504036688,396.004090002,395.822228615,nan,nan,nan,nan
1,179,1,1,1.0,1.0,0.213615776971,0,0.0,0.0,0.0,0.26286271047,0.125989780383,0.136872930087,0.388852490853,0.125989780383,0.323380216646,115,1.0,-0.305166285737,-0.293172749504,nan,nan,nan,nan,0.0,0.0,0.0,nan,175.722752281,396.512586463,397.012540277,396.72620224,nan,nan,nan,nan
1,180,1,1,1.0,1.0,0.25317954435,0,0.0,0.0,0.0,0.262584479207,0.125687584983,0.136896894224,0.388272064191,0.125687584983,0.26166241585,434,0.213881816697,0.43461034373,-1.0,nan,nan,nan,nan,0.0,0.0,0.0,nan,175.722752281,397.520996825,398.021023339,397.774176369,nan,nan,nan,nan
1,181,1,1,1.0,1.0,0.141103918431,0,0.0,0.0,0.0,0.262531642495,0.125336003961,0.137195638534,0.387867646456,0.125336003961,0.202633079917,268,0.35230222188,0.302367520405,0.645005310408,nan,nan,nan,nan,0.0,0.0,0.0,nan,175.722752281,398.521110008,399.021134811,398.662213926,nan,nan,nan,nan
1,182,1,1,1.0,1.0,0.101008730242,0,0.0,0.0,0.0,0.261853275321,0.125312672448,0.136540602873,0.387165947769,0.125312672448,0.165097397674,511,0.838703193994,0.216284169582,-1.0,nan,nan,nan,nan,0.0,0.0,0.0,nan,175.722752281,399.521224047,400.021293325,399.622232777,nan,nan,nan,nan
1,183,1,1,1.0,1.0,0.100522639696,0,1.0,0.0,0.0,0.260959694515,0.125534674977,0.135425019538,0.386494369493,0.125534674977,0.11421176279,418,0.101175887384,0.455961754156,-0.661679309199,nan,nan,nan,nan,0.0,0.0,0.0,nan,175.722752281,400.529675748,401.029746452,400.630198387,nan,nan,nan,nan
1,184,1,1,1.0,1.0,0.0762925301678,1,0.0,0.0,1.0,0.260073301947,0.125750996399,0.134322305548,0.385824298346,0.125750996399,0.0926079667018,184,1.0,-0.107671891867,0.362640045218,-61.0279149694,151.027914969,21.6529149694,215.0,0.910639861846,0.0628947364355,0.558695148714,1.4506522736,175.722752281,401.529818296,402.029878737,401.606110826,404.821873954,405.821848295,403.35501306,404.813561666
1,185,1,1,1.0,1.0,0.511952977162,0,0.0,0.0,0.0,0.259063517487,0.126138757178,0.132924760309,0.385202274665,0.126138757178,0.229589382342,228,0.780729811514,0.1302769546,0.611433142569,nan,nan,nan,nan,0.0,0.0,0.0,nan,175.722752281,406.022039424,406.522110984,406.533992402,nan,nan,nan,nan
1,186,0,0,1.0,0.0,0.319822110934,0,0.0,0.0,0.0,0.260445427102,0.127167611778,0.133277815325,0.38761303888,0.127167611778,0.302689206088,397,-0.0275613476434,0.473159987783,-0.37569455347,nan,nan,nan,nan,0.0,0.0,0.0,nan,175.722752281,407.022200504,407.522229869,407.342022615,nan,nan,nan,nan
1,187,1,1,1.0,1.0,0.343375685392,0,0.0,0.0,0.0,0.260768126471,0.126896686443,0.133871440028,0.387664812914,0.126896686443,0.391716924496,255,0.492159363509,0.253017189294,0.656163111527,nan,nan,nan,nan,0.0,0.0,0.0,nan,175.722752281,408.030622555,408.530663324,408.37399824,nan,nan,nan,nan
1,188,1,1,1.0,1.0,0.311195930699,0,0.0,0.0,0.0,0.261214653817,0.126698122254,0.134516531562,0.387912776071,0.126698122254,0.324797909008,79,1.0,-0.184296021705,-0.724170777997,nan,nan,nan,nan,0.0,0.0,0.0,nan,175.722752281,409.030752274,409.530821268,409.341948205,nan,nan,nan,nan
1,189,1,1,1.0,1.0,0.215091153979,0,0.0,0.0,0.0,0.261483370359,0.126409926304,0.135073444055,0.387893296663,0.126409926304,0.289887590023,346,-0.174317561957,0.466431294057,0.176670174816,nan,nan,nan,nan,0.0,0.0,0.0,nan,175.722752281,410.030874581,410.530912213,410.245965735,nan,nan,nan,nan
1,190,1,1,1.0,1.0,0.277201533318,0,0.0,0.0,0.0,0.26123528364,0.126116872406,0.135118411235,0.387352156046,0.126116872406,0.267829539332,249,0.557275547736,0.228026269286,0.654084877906,nan,nan,nan,nan,0.0,0.0,0.0,nan,175.722752281,411.072698027,411.57272112,411.34989956,nan,nan,nan,nan
1,191,1,1,1.0,1.0,0.221074484987,0,0.0,0.0,0.0,0.2613202105,0.125786369358,0.135533841142,0.387106579859,0.125786369358,0.237789057428,340,-0.166837174664,0.460980112934,0.232376404312,nan,nan,nan,nan,0.0,0.0,0.0,nan,175.722752281,412.072821189,412.572851124,412.293895674,nan,nan,nan,nan
1,192,1,1,1.0,1.0,0.252973989351,0,0.0,0.0,0.0,0.261107270154,0.125487130459,0.135620139694,0.386594400613,0.125487130459,0.250416669218,166,1.0,-0.20036215083,0.21267421211,nan,nan,nan,nan,0.0,0.0,0.0,nan,175.722752281,413.072926675,413.572977137,413.325900664,nan,nan,nan,nan
1,193,0,0,0.0,1.0,0.420757571235,0,0.0,0.0,0.0,0.261064463413,0.125157849077,0.135906614336,0.38622231249,0.125157849077,0.298268681858,67,1.0,-0.12380466598,-1.0,nan,nan,nan,nan,0.0,0.0,0.0,nan,175.722752281,414.073094027,414.573113698,414.493851598,nan,nan,nan,nan
1,194,1,1,1.0,1.0,0.116657705279,0,0.0,0.0,0.0,0.261900552982,0.125360651162,0.135673993976,0.386614165659,0.125360651162,0.263463088622,478,0.56422249903,0.334793662244,-1.0,nan,nan,nan,nan,0.0,0.0,0.0,nan,175.722752281,415.073192385,415.573253396,415.18985009,nan,nan,nan,nan
1,195,1,1,nan,nan,nan,0,0.0,0.0,0.0,0.261144079817,0.125470085842,0.135673993976,0.386614165659,0.125470085842,0.268707638257,186,1.0,-0.0967386681424,0.377881386018,nan,nan,nan,nan,0.0,0.0,0.0,nan,175.722752281,416.081633823,416.581731896,nan,nan,nan,nan,nan
1,196,1,1,1.0,1.0,0.228006904013,0,0.0,0.0,0.0,0.261144079817,0.125470085842,0.135673993976,0.386614165659,0.125470085842,0.172332304646,367,-0.15309091083,0.477560897992,-0.0350816338538,nan,nan,nan,nan,0.0,0.0,0.0,nan,175.722752281,417.081792336,417.581823127,417.30979924,nan,nan,nan,nan
1,197,0,0,1.0,0.0,0.0438841274008,0,0.0,0.0,0.0,0.260972384606,0.125167223516,0.13580516109,0.386139608121,0.125167223516,0.135945515707,50,1.0,-0.033148730948,-1.0,nan,nan,nan,nan,0.0,0.0,0.0,nan,175.722752281,418.081925762,418.581966816,418.125809889,nan,nan,nan,nan
1,198,1,1,1.0,1.0,0.0997158151586,0,0.0,0.0,0.0,0.259853372971,0.125808382335,0.134044990636,0.385661755306,0.125808382335,0.123868948858,196,1.0,-0.0413610816081,0.449130757868,nan,nan,nan,nan,0.0,0.0,0.0,nan,175.722752281,419.082028112,419.582089693,419.181743927,nan,nan,nan,nan
1,199,1,1,1.0,1.0,0.115619951859,0,0.0,0.0,0.0,0.259032154726,0.126005613393,0.133026541332,0.385037768119,0.126005613393,0.0864066314728,332,-0.146647089803,0.45205423783,0.302714191958,nan,nan,nan,nan,0.0,0.0,0.0,nan,175.722752281,420.082176932,420.582215991,420.197796884,nan,nan,nan,nan
1,200,1,1,1.0,1.0,0.178834511898,0,1.0,0.0,0.0,0.258300459813,0.126098398051,0.132202061762,0.384398857864,0.126098398051,0.131390092972,148,1.0,-0.272695592461,0.0444264621409,nan,nan,nan,nan,0.0,0.0,0.0,nan,175.722752281,421.09088294,421.590653152,421.269717452,nan,nan,nan,nan
1,201,1,1,1.0,1.0,0.282931413036,1,0.0,0.0,1.0,0.257897079367,0.125904660492,0.131992418875,0.383801739859,0.125904660492,0.192461958931,396,-0.0330153705648,0.473684876347,-0.363523780775,161.205834696,288.794165304,10.3566653045,411.0,0.0555201669072,0.463022710015,-0.557054760163,2.77563948673,175.722752281,422.090768046,422.590794275,422.373699459,426.707961733,427.707598234,423.915952261,426.699629488
1,202,1,1,1.0,1.0,0.321466835681,0,0.0,0.0,0.0,0.258023515395,0.125598854558,0.132424660837,0.383622369954,0.125598854558,0.261077586872,189,1.0,-0.0802194643608,0.400143472992,nan,nan,nan,nan,0.0,0.0,0.0,nan,175.722752281,427.908137467,428.408179091,428.229604302,nan,nan,nan,nan
1,203,1,1,1.0,1.0,0.265252547571,0,0.0,0.0,0.0,0.25834232605,0.12536317367,0.13297915238,0.38370549972,0.12536317367,0.289883598763,79,1.0,-0.184296021705,-0.724170777997,nan,nan,nan,nan,0.0,0.0,0.0,nan,175.722752281,428.908283151,429.408303393,429.173535699,nan,nan,nan,nan
1,204,1,1,1.0,1.0,0.257158358349,0,0.0,0.0,0.0,0.258376877158,0.125050322863,0.133326554295,0.38342720002,0.125050322863,0.281292580534,142,1.0,-0.289568116499,-0.0146273521697,nan,nan,nan,nan,0.0,0.0,0.0,nan,175.722752281,429.908410305,430.408430262,430.165568663,nan,nan,nan,nan
1,205,1,1,1.0,1.0,0.500262289308,0,0.0,0.0,0.0,0.258370814875,0.124738894001,0.133631920874,0.383109708877,0.124738894001,0.340891065076,89,1.0,-0.229484098413,-0.587370487375,nan,nan,nan,nan,0.0,0.0,0.0,nan,175.722752281,430.908518071,431.408599894,431.408780361,nan,nan,nan,nan
1,206,1,1,1.0,1.0,0.464831002988,0,0.0,1.0,0.0,0.259568297422,0.125582601739,0.133985695683,0.38515089916,0.125582601739,0.407417216881,2,0.863024578927,0.203622855609,-1.0,nan,nan,nan,nan,0.0,0.0,0.0,nan,175.722752281,431.908653778,432.408678296,432.373484781,nan,nan,nan,nan
1,207,1,1,1.0,1.0,0.45669376431,1,0.0,0.0,1.0,0.260579443755,0.126094521964,0.134484921791,0.386673965718,0.126094521964,0.473929018869,222,0.841778467246,0.0997291618919,0.589484691865,-78.5223730404,168.52237304,12.4286230404,240.0,0.654373017221,0.188015059697,0.642463954019,1.50882460782,175.722752281,432.908773803,433.408809726,433.365467568,436.259166867,437.258968154,434.733975695,436.2508446
1,208,1,1,1.0,1.0,0.274025837891,0,0.0,0.0,0.0,0.261540788463,0.126528642664,0.135012145799,0.388069431127,0.126528642664,0.398516868396,377,-0.121259861678,0.478700828387,-0.143695900877,nan,nan,nan,nan,0.0,0.0,0.0,nan,175.722752281,437.45935486,437.959389641,437.733380697,nan,nan,nan,nan
1,209,1,1,1.0,1.0,0.209883572068,0,0.0,0.0,0.0,0.261601691143,0.126222656322,0.135379034822,0.387824347465,0.126222656322,0.313534391423,18,0.988682696815,0.131162580546,-1.0,nan,nan,nan,nan,0.0,0.0,0.0,nan,175.722752281,438.45948743,438.959541598,438.669371002,nan,nan,nan,nan
1,210,1,1,1.0,1.0,0.161716717528,0,0.0,0.0,0.0,0.261350632313,0.125967216574,0.135383415739,0.387317848886,0.125967216574,0.215208709162,174,1.0,-0.160790688716,0.281981279739,nan,nan,nan,nan,0.0,0.0,0.0,nan,175.722752281,439.459611447,439.959670177,439.621328164,nan,nan,nan,nan
1,211,1,1,1.0,1.0,0.0896493250038,0,0.0,0.0,0.0,0.260869309053,0.125852327562,0.135016981491,0.386721636615,0.125852327562,0.153749871533,433,0.206536295144,0.436163724167,-1.0,nan,nan,nan,nan,0.0,0.0,0.0,nan,175.722752281,440.459749719,440.959800181,440.549399044,nan,nan,nan,nan
1,212,0,0,1.0,0.0,0.193412377266,0,0.0,0.0,0.0,0.260046136053,0.126106805089,0.133939330963,0.386152941142,0.126106805089,0.148259473266,382,-0.1011887567,0.478291136399,-0.199732273247,nan,nan,nan,nan,0.0,0.0,0.0,nan,175.722752281,441.459888276,441.959924768,441.653300653,nan,nan,nan,nan
1,213,1,1,1.0,1.0,0.0893248845823,0,0.0,0.0,0.0,0.25972731424,0.125888753993,0.133838560248,0.385616068233,0.125888753993,0.124128862284,162,1.0,-0.218739557155,0.176632971453,nan,nan,nan,nan,0.0,0.0,0.0,nan,175.722752281,442.460000319,442.960052207,442.549325204,nan,nan,nan,nan
1,214,1,1,1.0,1.0,0.0714065374341,0,0.0,0.0,0.0,0.258915874099,0.126135343003,0.132780531096,0.385051217103,0.126135343003,0.118047933094,425,0.149162615564,0.447529597292,-0.791715667876,nan,nan,nan,nan,0.0,0.0,0.0,nan,175.722752281,443.501905873,444.001841441,443.573312411,nan,nan,nan,nan
1,215,1,1,1.0,1.0,0.223335304298,0,1.0,0.0,0.0,0.258027204257,0.126493341636,0.131533862621,0.384520545893,0.126493341636,0.128022242105,250,0.546428449327,0.232286661223,0.654747725831,nan,nan,nan,nan,0.0,0.0,0.0,nan,175.722752281,444.50192526,445.001956051,444.725260564,nan,nan,nan,nan
1,216,1,1,1.0,1.0,0.287149423501,1,0.0,0.0,1.0,0.25786356322,0.12621704066,0.13164652256,0.384080603879,0.12621704066,0.193963755077,413,0.0683106243366,0.461143133648,-0.585495598612,169.309761724,280.690238276,-9.7003867235,399.0,-0.0164460389312,0.472031251936,-0.400274523968,1.85051251901,175.722752281,445.502041294,446.002084629,445.789190718,449.194135668,450.193452576,447.327257156,449.185805419
1,217,1,1,1.0,1.0,0.266786939697,0,0.0,0.0,0.0,0.258001055521,0.125936320481,0.132064735041,0.383937376002,0.125936320481,0.259090555832,250,0.546428449327,0.232286661223,0.654747725831,nan,nan,nan,nan,0.0,0.0,0.0,nan,175.722752281,450.394315394,450.894352741,450.661102333,nan,nan,nan,nan
1,218,1,1,1.0,1.0,0.226633591577,0,0.0,0.0,0.0,0.258042111055,0.125643160944,0.132398950111,0.383685271999,0.125643160944,0.260189984925,18,0.988682696815,0.131162580546,-1.0,nan,nan,nan,nan,0.0,0.0,0.0,nan,175.722752281,451.394443687,451.894513821,451.621077279,nan,nan,nan,nan
1,219,1,1,1.0,1.0,0.178474719636,0,0.0,0.0,0.0,0.257896024918,0.125368842605,0.132527182313,0.383264867523,0.125368842605,0.223965083637,348,-0.175384772129,0.468017843042,0.157582163916,nan,nan,nan,nan,0.0,0.0,0.0,nan,175.722752281,452.394589657,452.894642115,452.573064377,nan,nan,nan,nan
1,220,1,1,1.0,1.0,0.338350850623,0,0.0,0.0,0.0,0.25752833369,0.125194442858,0.132333890832,0.382722776548,0.125194442858,0.247819720612,417,0.0945046041228,0.457053563907,-0.645720198395,nan,nan,nan,nan,0.0,0.0,0.0,nan,175.722752281,453.394699704,453.894740758,453.733050555,nan,nan,nan,nan
1,221,0,0,0.0,1.0,0.514176163822,0,0.0,0.0,0.0,0.257900787685,0.125025532092,0.132875255593,0.382926319777,0.125025532092,0.343667244694,509,0.822386376617,0.224555004187,-1.0,nan,nan,nan,nan,0.0,0.0,0.0,nan,175.722752281,454.394842253,454.894901553,454.909018417,nan,nan,nan,nan
1,222,1,1,1.0,1.0,0.226030896651,0,0.0,0.0,0.0,0.259076362805,0.125934780975,0.13314158183,0.385011143779,0.125934780975,0.359519303699,320,-0.0946500390753,0.43494401576,0.398701238857,nan,nan,nan,nan,0.0,0.0,0.0,nan,175.722752281,455.394967981,455.895034123,455.620998877,nan,nan,nan,nan
1,223,1,1,1.0,1.0,0.249886673875,0,0.0,0.0,0.0,0.258925470265,0.125666680076,0.133258790189,0.384592150341,0.125666680076,0.330031244783,181,1.0,-0.123914391386,0.3392011262,nan,nan,nan,nan,0.0,0.0,0.0,nan,175.722752281,456.395099125,456.895132767,456.644985799,nan,nan,nan,nan
1,224,1,1,1.0,1.0,0.337743023643,0,0.0,0.0,0.0,0.258884384827,0.125382222893,0.133502161934,0.38426660772,0.125382222893,0.271220198056,128,1.0,-0.310663006781,-0.156689791083,nan,nan,nan,nan,0.0,0.0,0.0,nan,175.722752281,457.395224853,457.895252793,457.732967877,nan,nan,nan,nan
1,225,1,1,1.0,1.0,0.233579125023,0,0.0,0.0,0.0,0.259241211247,0.12521013913,0.134031072117,0.384451350377,0.12521013913,0.27373627418,211,0.948675772315,0.0413606888024,0.538689155053,nan,nan,nan,nan,0.0,0.0,0.0,nan,175.722752281,458.395346304,458.895395626,458.628925429,nan,nan,nan,nan
1,226,1,1,1.0,1.0,0.177422426408,0,0.0,0.0,0.0,0.259125616264,0.124939634473,0.134185981791,0.384065250737,0.124939634473,0.249581525025,428,0.170378320166,0.443486568519,-0.86866140055,nan,nan,nan,nan,0.0,0.0,0.0,nan,175.722752281,459.39547916,459.89552278,459.572901586,nan,nan,nan,nan
1,227,1,1,1.0,1.0,0.145336183487,0,0.0,0.0,0.0,0.258759234247,0.124778656025,0.133980578222,0.383537890272,0.124778656025,0.185445911639,209,0.967301840512,0.0304835193525,0.52804999659,nan,nan,nan,nan,0.0,0.0,0.0,nan,175.722752281,460.395600896,460.895660766,460.54093708,nan,nan,nan,nan
1,228,1,1,1.0,1.0,0.177167549962,0,0.0,0.0,0.0,0.258252881342,0.124729230937,0.133523650405,0.382982112278,0.124729230937,0.166642053286,302,0.027086081288,0.400300843718,0.517770016443,nan,nan,nan,nan,0.0,0.0,0.0,nan,175.722752281,461.395728905,461.89577566,461.572896454,nan,nan,nan,nan
1,229,1,1,1.0,1.0,0.297021192499,0,0.0,0.0,0.0,0.257892502091,0.124568570402,0.133323931689,0.382461072493,0.124568570402,0.206508308649,33,1.0,0.0565990290419,-1.0,nan,nan,nan,nan,0.0,0.0,0.0,nan,175.722752281,462.395855203,462.895876015,462.692876395,nan,nan,nan,nan
1,230,1,1,1.0,1.0,0.408884991193,0,0.0,0.0,0.0,0.258065637889,0.124319799656,0.133745838233,0.382385437545,0.124319799656,0.294357911218,134,1.0,-0.304950998219,-0.095144111098,nan,nan,nan,nan,0.0,0.0,0.0,nan,175.722752281,463.395984352,463.89603795,463.804869343,nan,nan,nan,nan
1,231,1,1,1.0,1.0,0.368701138068,0,0.0,0.0,0.0,0.258730040327,0.124447138914,0.134282901413,0.383177179241,0.124447138914,0.358202440587,80,1.0,-0.189075709245,-0.708965549488,nan,nan,nan,nan,0.0,0.0,0.0,nan,175.722752281,464.396107798,464.896130606,464.764808937,nan,nan,nan,nan
1,232,1,1,1.0,1.0,0.648556069238,0,0.0,1.0,0.0,0.259212369703,0.124386390727,0.134825978975,0.38359876043,0.124386390727,0.475380732833,236,0.697004556276,0.169301754335,0.634065852989,nan,nan,nan,nan,0.0,0.0,0.0,nan,175.722752281,465.396235807,465.896285129,466.044791876,nan,nan,nan,nan
1,233,1,1,1.0,1.0,0.384370069485,1,0.0,0.0,1.0,0.26091256053,0.126741780522,0.134170780008,0.387654341053,0.126741780522,0.467209092264,427,0.163265173604,0.444863218481,-0.840208708629,-177.588970253,267.588970253,-32.6454047466,381.0,-0.105403061426,0.478425078289,-0.188431136224,1.67552054441,175.722752281,466.39640658,466.896404299,466.78077665,469.913429438,470.91317057,468.22154404,469.905094627
1,234,1,1,1.0,1.0,0.33106320072,0,0.0,0.0,0.0,0.261449332309,0.12672654852,0.134722783788,0.388175880829,0.12672654852,0.454663113148,44,1.0,-0.00106984144607,-1.0,nan,nan,nan,nan,0.0,0.0,0.0,nan,175.722752281,471.11361572,471.613667893,471.444678921,nan,nan,nan,nan
1,235,1,1,1.0,1.0,0.186911595287,0,0.0,0.0,0.0,0.261750691046,0.126534516532,0.135216174514,0.388285207579,0.126534516532,0.300781621831,391,-0.0591907973189,0.475916278612,-0.303718712187,nan,nan,nan,nan,0.0,0.0,0.0,nan,175.722752281,472.113752282,472.613775659,472.300663877,nan,nan,nan,nan
1,236,1,1,1.0,1.0,0.0908390348777,0,0.0,0.0,0.0,0.261428108737,0.126356672643,0.135071436093,0.38778478138,0.126356672643,0.202937943628,149,1.0,-0.269478519393,0.0541436597792,nan,nan,nan,nan,0.0,0.0,0.0,nan,175.722752281,473.113877439,473.613931037,473.204716474,nan,nan,nan,nan
1,237,1,1,1.0,1.0,0.130661670351,0,0.0,0.0,0.0,0.260695966789,0.12657742478,0.134118542009,0.387273391569,0.12657742478,0.136137433505,63,1.0,-0.102744642793,-1.0,nan,nan,nan,nan,0.0,0.0,0.0,nan,175.722752281,474.11398435,474.614031676,474.244646021,nan,nan,nan,nan
1,238,1,1,1.0,1.0,0.234477465739,0,0.0,0.0,0.0,0.260140264667,0.12659117889,0.133549085778,0.386731443557,0.12659117889,0.151992723656,235,0.707591924495,0.164537776567,0.631659631194,nan,nan,nan,nan,0.0,0.0,0.0,nan,175.722752281,475.114108938,475.614148566,475.348586404,nan,nan,nan,nan
1,239,1,1,1.0,1.0,0.234362856485,0,0.0,0.0,0.0,0.260031061268,0.126332593709,0.133698467559,0.386363654977,0.126332593709,0.199833997525,6,0.895129075663,0.186272780825,-1.0,nan,nan,nan,nan,0.0,0.0,0.0,nan,175.722752281,476.114236376,476.61427629,476.348599233,nan,nan,nan,nan
1,240,1,1,1.0,1.0,0.242174799787,0,0.0,0.0,0.0,0.259922297688,0.126075681128,0.13384661656,0.385997978816,0.126075681128,0.23700504067,424,0.142174562463,0.448819569244,-0.770229420881,nan,nan,nan,nan,0.0,0.0,0.0,nan,175.722752281,477.114385197,477.614401732,477.356559996,nan,nan,nan,nan
1,241,1,1,1.0,1.0,0.186061436078,0,0.0,0.0,0.0,0.259847413731,0.125814676927,0.134032736804,0.385662090657,0.125814676927,0.220866364116,489,0.656284860842,0.299572439858,-1.0,nan,nan,nan,nan,0.0,0.0,0.0,nan,175.722752281,478.114487832,478.614533162,478.300549268,nan,nan,nan,nan
1,242,1,1,1.0,1.0,0.209898967296,0,0.0,0.0,0.0,0.259537388615,0.125640767741,0.133896620873,0.385178156356,0.125640767741,0.212711734387,276,0.268710435127,0.329430325417,0.627563005949,nan,nan,nan,nan,0.0,0.0,0.0,nan,175.722752281,479.114617266,479.614656039,479.324516233,nan,nan,nan,nan
1,243,1,1,1.0,1.0,0.249762086431,0,0.0,0.0,0.0,0.259329696475,0.125418580547,0.133911115928,0.384748277022,0.125418580547,0.215240829935,147,1.0,-0.275801134503,0.0346720467303,nan,nan,nan,nan,0.0,0.0,0.0,nan,175.722752281,480.114741853,480.614809706,480.36450394,nan,nan,nan,nan
1,244,1,1,1.0,1.0,0.121620958904,0,0.0,0.0,0.0,0.259289831433,0.125158536474,0.134131294959,0.384448367907,0.125158536474,0.193760670877,220,0.861731547614,0.0893272636146,0.581247684387,nan,nan,nan,nan,0.0,0.0,0.0,nan,175.722752281,481.11489381,481.614936574,481.236514769,nan,nan,nan,nan
1,245,0,0,1.0,0.0,0.0813726738561,0,0.0,0.0,0.0,0.258718591298,0.125211726033,0.133506865265,0.383930317332,0.125211726033,0.150918573063,314,-0.0594438881467,0.42463230952,0.441925406839,nan,nan,nan,nan,0.0,0.0,0.0,nan,175.722752281,482.115134147,482.615071995,482.19650682,nan,nan,nan,nan
1,246,1,1,1.0,1.0,0.297290894203,0,0.0,0.0,0.0,0.257985756929,0.125469595709,0.13251616122,0.383455352638,0.125469595709,0.166761508988,396,-0.0330153705648,0.473684876347,-0.363523780775,nan,nan,nan,nan,0.0,0.0,0.0,nan,175.722752281,483.115145265,483.61516009,483.41243616,nan,nan,nan,nan
1,247,0,0,1.0,0.0,0.289125430631,0,0.0,0.0,0.0,0.258147506465,0.125236442101,0.132911064364,0.383383948566,0.125236442101,0.222596332897,290,0.131265381085,0.370776544741,0.578206616232,nan,nan,nan,nan,0.0,0.0,0.0,nan,175.722752281,484.115286959,484.615317179,484.404412389,nan,nan,nan,nan
1,248,1,1,1.0,1.0,0.568994331639,0,0.0,0.0,0.0,0.25827446517,0.124995215341,0.13327924983,0.383269680511,0.124995215341,0.385136885491,182,1.0,-0.118523835432,0.347089474713,nan,nan,nan,nan,0.0,0.0,0.0,nan,175.722752281,485.115379045,485.615460868,485.684373377,nan,nan,nan,nan
1,249,1,1,1.0,1.0,0.344847641187,0,0.0,0.0,0.0,0.259542709523,0.126303180888,0.133239528636,0.385845890411,0.126303180888,0.400989134486,381,-0.105403061426,0.478425078289,-0.188431136224,nan,nan,nan,nan,0.0,0.0,0.0,nan,175.722752281,486.115501922,486.615544116,486.460349563,nan,nan,nan,nan
1,250,1,1,1.0,1.0,0.472679723753,0,0.0,1.0,0.0,0.259889477538,0.126163016536,0.133726461002,0.386052494075,0.126163016536,0.46217389886,463,0.440238315199,0.376011795327,-1.0,nan,nan,nan,nan,0.0,0.0,0.0,nan,175.722752281,487.115657015,487.615675546,487.588336738,nan,nan,nan,nan
1,251,1,1,1.0,1.0,0.25849261228,1,0.0,0.0,1.0,0.260750976511,0.126630333696,0.134120642815,0.387381310206,0.126630333696,0.35867332574,109,1.0,-0.294638327523,-0.357773695079,-20.4223330247,110.422333025,33.7817080247,157.0,1.0,-0.240048375319,0.130425901556,2.46729566669,175.722752281,488.161822773,488.665810996,488.420315386,492.466282432,493.465973387,489.982631605,492.457955888
1,252,1,1,1.0,1.0,0.265782827977,0,0.0,0.0,0.0,0.260741870203,0.12637485376,0.134367016444,0.387116723963,0.12637485376,0.332318388003,488,0.647907709101,0.302951493728,-1.0,nan,nan,nan,nan,0.0,0.0,0.0,nan,175.722752281,493.666461017,494.166508628,493.932243844,nan,nan,nan,nan
1,253,1,1,1.0,1.0,0.265606067842,0,0.0,0.0,0.0,0.260762115014,0.126121236656,0.134640878358,0.38688335167,0.126121236656,0.263293836033,182,1.0,-0.118523835432,0.347089474713,nan,nan,nan,nan,0.0,0.0,0.0,nan,175.722752281,494.666604991,495.166628083,494.932211058,nan,nan,nan,nan
1,254,1,1,1.0,1.0,0.265449834522,0,0.0,0.0,0.0,0.260781490825,0.125869112773,0.134912378052,0.386650603599,0.125869112773,0.265612910114,231,0.749609680972,0.145151270079,0.620821461523,nan,nan,nan,nan,0.0,0.0,0.0,nan,175.722752281,495.666726157,496.166754952,495.932175991,nan,nan,nan,nan
1,255,0,0,1.0,0.0,0.209298267961,0,0.0,0.0,0.0,0.260800089804,0.125618471473,0.135181618331,0.386418561277,0.125618471473,0.246784723441,10,0.926811495151,0.168400576072,-1.0,nan,nan,nan,nan,0.0,0.0,0.0,nan,175.722752281,496.666869846,497.166905483,496.876168114,nan,nan,nan,nan
1,256,1,1,1.0,1.0,0.161150799831,0,0.0,0.0,0.0,0.260595717495,0.125410785439,0.135184932056,0.386006502934,0.125410785439,0.211966300771,213,0.929785093221,0.0521668813814,0.548906519778,nan,nan,nan,nan,0.0,0.0,0.0,nan,175.722752281,497.666975047,498.167040334,497.828125846,nan,nan,nan,nan
1,257,1,1,1.0,1.0,0.105030023493,0,0.0,0.0,0.0,0.260202654579,0.12531812814,0.134884526439,0.385520782719,0.12531812814,0.158493030428,503,0.773020196022,0.248538461814,-1.0,nan,nan,nan,nan,0.0,0.0,0.0,nan,175.722752281,498.667093647,499.1671615,498.77212367,nan,nan,nan,nan
1,258,1,1,1.0,1.0,0.584489639383,0,0.0,0.0,0.0,0.259591738709,0.125448109514,0.134143629195,0.385039848223,0.125448109514,0.283556820902,282,0.208142307666,0.34807905204,0.609295500931,nan,nan,nan,nan,0.0,0.0,0.0,nan,175.722752281,499.675548769,500.175666229,500.260038408,nan,nan,nan,nan
1,259,0,0,0.0,1.0,0.464344912674,0,0.0,0.0,0.0,0.260865848123,0.126837871629,0.134027976494,0.387703719753,0.126837871629,0.384621525183,410,0.0492046846968,0.463921527344,-0.54316189137,nan,nan,nan,nan,0.0,0.0,0.0,nan,175.722752281,500.675730091,501.175744345,501.140075003,nan,nan,nan,nan
1,260,1,1,1.0,1.0,0.264235036448,0,0.0,0.0,0.0,0.261660688219,0.127224620576,0.134436067644,0.388885308795,0.127224620576,0.437689862835,271,0.320642857732,0.312811632898,0.639400143054,nan,nan,nan,nan,0.0,0.0,0.0,nan,175.722752281,501.675804786,502.175838142,501.940039822,nan,nan,nan,nan
1,261,1,1,1.0,1.0,0.0961227377411,0,0.0,0.0,0.0,0.261670705138,0.126976961759,0.134693743379,0.388647666898,0.126976961759,0.274900895621,420,0.1146601879,0.45369410126,-0.695047497311,nan,nan,nan,nan,0.0,0.0,0.0,nan,175.722752281,502.675925097,503.176006635,502.772047835,nan,nan,nan,nan
1,262,1,1,1.0,1.0,0.391608682694,0,0.0,0.0,0.0,0.26102904635,0.127147432435,0.133881613915,0.388176478785,0.127147432435,0.250655485628,128,1.0,-0.310663006781,-0.156689791083,nan,nan,nan,nan,0.0,0.0,0.0,nan,175.722752281,503.684379079,504.184456625,504.075987761,nan,nan,nan,nan
1,263,1,1,1.0,1.0,0.231475679204,0,0.0,0.0,0.0,0.26153321483,0.127159862867,0.134373351963,0.388693077697,0.127159862867,0.23973569988,470,0.497741612616,0.357740777197,-1.0,nan,nan,nan,nan,0.0,0.0,0.0,nan,175.722752281,504.684516781,505.18455926,504.91599246,nan,nan,nan,nan
1,264,0,0,1.0,0.0,0.0153285257984,0,0.0,0.0,0.0,0.261417608924,0.126928725279,0.134488883645,0.388346334203,0.126928725279,0.212804295899,278,0.248285521772,0.335802812283,0.621962573991,nan,nan,nan,nan,0.0,0.0,0.0,nan,175.722752281,505.684677575,506.184718914,505.700006101,nan,nan,nan,nan
1,265,1,1,1.0,1.0,0.342846260406,0,0.0,0.0,0.0,0.260474738874,0.127594336598,0.132880402275,0.388069075472,0.127594336598,0.196550155136,223,0.83172397378,0.104890589731,0.593432239612,nan,nan,nan,nan,0.0,0.0,0.0,nan,175.722752281,506.693145241,507.193175177,507.035991502,nan,nan,nan,nan
1,266,0,0,1.0,0.0,0.254677443998,0,0.0,0.0,0.0,0.260789133994,0.127451851639,0.133337282355,0.388240985633,0.127451851639,0.204284076734,393,-0.0489456633786,0.475102171109,-0.327443230616,nan,nan,nan,nan,0.0,0.0,0.0,nan,175.722752281,507.693264982,508.193299764,507.947942426,nan,nan,nan,nan
1,267,1,1,1.0,1.0,0.470550619066,0,0.0,0.0,0.0,0.260765895629,0.127209873085,0.133556022544,0.387975768714,0.127209873085,0.35602477449,284,0.188465149253,0.353984098999,0.602236276499,nan,nan,nan,nan,0.0,0.0,0.0,nan,175.722752281,508.693354503,509.193391565,509.163905122,nan,nan,nan,nan
1,268,1,1,1.0,1.0,0.302386718104,0,0.0,0.0,0.0,0.261560534733,0.127621027721,0.133939507012,0.389181562454,0.127621027721,0.342538260389,62,1.0,-0.0974372467467,-1.0,nan,nan,nan,nan,0.0,0.0,0.0,nan,175.722752281,509.693505604,510.193533829,509.995892322,nan,nan,nan,nan
1,269,1,1,1.0,1.0,0.25424324139,0,0.0,0.0,0.0,0.261714595802,0.127404599021,0.134309996781,0.389119194823,0.127404599021,0.342393526187,260,0.438016636947,0.272781976488,0.654406567654,nan,nan,nan,nan,0.0,0.0,0.0,nan,175.722752281,510.693620213,511.193651859,510.947863454,nan,nan,nan,nan
1,270,1,1,1.0,1.0,0.389723051107,0,0.0,0.0,0.0,0.261686508004,0.127165713211,0.134520794793,0.388852221215,0.127165713211,0.315451003533,491,0.673033477965,0.292707709811,-1.0,nan,nan,nan,nan,0.0,0.0,0.0,nan,175.722752281,511.702080752,512.202137201,512.091803803,nan,nan,nan,nan
1,271,1,1,1.0,1.0,0.149655118352,0,0.0,0.0,0.0,0.262166045618,0.127168081731,0.134997963887,0.38933412735,0.127168081731,0.264540470283,225,0.81146624694,0.115131125244,0.600981946568,nan,nan,nan,nan,0.0,0.0,0.0,nan,175.722752281,512.70220762,513.20223613,512.851862738,nan,nan,nan,nan
1,272,1,1,1.0,1.0,0.02146466868,0,0.0,0.0,0.0,0.261746228726,0.127115838944,0.134630389782,0.388862067669,0.127115838944,0.186947612713,492,0.681403316433,0.289222019555,-1.0,nan,nan,nan,nan,0.0,0.0,0.0,nan,175.722752281,513.702322514,514.202407758,513.723787183,nan,nan,nan,nan
1,273,1,1,1.0,1.0,0.07736164378,0,1.0,0.0,0.0,0.260852988725,0.127719220152,0.133133768574,0.388572208877,0.127719220152,0.0828271436039,104,1.0,-0.282351481576,-0.412644567278,nan,nan,nan,nan,0.0,0.0,0.0,nan,175.722752281,514.702451948,515.202528354,514.779813592,nan,nan,nan,nan
1,274,1,1,1.0,1.0,0.0612006348092,1,0.0,0.0,1.0,0.260173391152,0.127968832391,0.13220455876,0.388142223543,0.127968832391,0.0533423157564,402,0.000724920831492,0.470139955471,-0.437811562499,171.427001636,278.572998364,-4.08325163639,396.0,-0.0330153705648,0.473684876347,-0.363523780775,2.01724010124,175.722752281,515.702576821,516.202655222,515.763777456,519.561392505,520.560911261,517.527788406,519.553060545
1,275,1,1,1.0,1.0,0.0820916881785,0,0.0,0.0,0.0,0.259439174338,0.128300989889,0.131138184449,0.387740164228,0.128300989889,0.0735513222559,328,-0.132159558243,0.44685796506,0.336046158271,nan,nan,nan,nan,0.0,0.0,0.0,nan,175.722752281,520.761575081,521.261593612,520.843666769,nan,nan,nan,nan
1,276,1,1,1.0,1.0,0.681949767051,0,0.0,0.0,0.0,0.258787161522,0.128513940131,0.13027322139,0.387301101653,0.128513940131,0.27508069668,195,1.0,-0.0469245268387,0.442396054288,nan,nan,nan,nan,0.0,0.0,0.0,nan,175.722752281,521.761680852,522.261758683,522.443630619,nan,nan,nan,nan
1,277,1,1,1.0,1.0,0.345793308225,0,0.0,0.0,0.0,0.260337207696,0.130800818754,0.129536388942,0.391138026449,0.130800818754,0.369944921151,99,1.0,-0.267176270739,-0.468793303331,nan,nan,nan,nan,0.0,0.0,0.0,nan,175.722752281,522.761821975,523.261860748,523.107615283,nan,nan,nan,nan
1,278,1,1,1.0,1.0,0.169654958649,0,0.0,1.0,0.0,0.260649091274,0.130663568741,0.129985522534,0.391312660015,0.130663568741,0.399132677975,205,1.0,0.00854800403903,0.505535240796,nan,nan,nan,nan,0.0,0.0,0.0,nan,175.722752281,523.76195483,524.261986191,523.931609789,nan,nan,nan,nan
1,279,1,1,1.0,1.0,0.353511739289,1,0.0,0.0,1.0,0.260318203519,0.130540737063,0.130231572089,0.391080150426,0.130540737063,0.289653335388,388,-0.0739633693698,0.476941921698,-0.268577162136,-173.088772881,263.088772881,-9.72372711902,374.0,-0.132039125116,0.478634076427,-0.110628443238,2.44230748387,175.722752281,524.762058035,525.2621008,525.115569775,529.045901189,530.045308757,526.587263918,529.037569229
1,280,1,1,nan,nan,nan,0,0.0,0.0,0.0,0.260655861258,0.130424289169,0.130231572089,0.391080150426,0.130424289169,0.261583348969,276,0.268710435127,0.329430325417,0.627563005949,nan,nan,nan,nan,0.0,0.0,0.0,nan,175.722752281,530.246086901,530.746168439,nan,nan,nan,nan,nan
1,281,1,1,nan,nan,nan,0,0.0,0.0,0.0,0.260655861258,0.130424289169,0.130231572089,0.391080150426,0.130424289169,0.353511739289,419,0.107894673663,0.454841969249,-0.678098861371,nan,nan,nan,nan,0.0,0.0,0.0,nan,175.722752281,531.246225173,531.746285899,nan,nan,nan,nan,nan
1,282,1,1,1.0,1.0,0.285072491737,0,0.0,0.0,0.0,0.260655861258,0.130424289169,0.130231572089,0.391080150426,0.130424289169,0.285072491737,492,0.681403316433,0.289222019555,-1.0,nan,nan,nan,nan,0.0,0.0,0.0,nan,175.722752281,532.246337501,532.746375419,532.531409993,nan,nan,nan,nan
1,283,1,1,1.0,1.0,0.444951473502,0,0.0,0.0,0.0,0.260744007938,0.130196889173,0.130547118765,0.390940897111,0.130196889173,0.36501198262,59,1.0,-0.0814409933332,-1.0,nan,nan,nan,nan,0.0,0.0,0.0,nan,175.722752281,533.246460663,533.746497726,533.691412137,nan,nan,nan,nan
1,284,1,1,1.0,1.0,0.268458463484,0,0.0,0.0,0.0,0.261406624721,0.130429575634,0.130977049086,0.391836200355,0.130429575634,0.332827476241,171,1.0,-0.176011872558,0.256450910142,nan,nan,nan,nan,0.0,0.0,0.0,nan,175.722752281,534.254917496,534.754966818,534.523375959,nan,nan,nan,nan
1,285,1,1,1.0,1.0,0.220324679743,0,0.0,0.0,0.0,0.261431900128,0.130196303096,0.131298353777,0.391271823478,0.130196303096,0.311244872243,254,0.503011129055,0.248947817922,0.65613358125,nan,nan,nan,nan,0.0,0.0,0.0,nan,175.722752281,535.255049496,535.75509169,535.475374175,nan,nan,nan,nan
1,286,1,1,nan,nan,nan,0,0.0,0.0,0.0,0.261285088627,0.12998673485,0.131298353777,0.391271823478,0.12998673485,0.244391571614,339,-0.164955840019,0.45996923152,0.241423096872,nan,nan,nan,nan,0.0,0.0,0.0,nan,175.722752281,536.255181781,536.755262178,nan,nan,nan,nan,nan
1,287,1,1,1.0,1.0,0.484000355704,0,0.0,0.0,0.0,0.261285088627,0.12998673485,0.131298353777,0.391271823478,0.12998673485,0.352162517724,437,0.23613482661,0.429770237144,-1.0,nan,nan,nan,nan,0.0,0.0,0.0,nan,175.722752281,537.255300096,537.755339439,537.739300452,nan,nan,nan,nan
1,288,1,1,1.0,1.0,0.259519246407,0,0.0,0.0,0.0,0.262077669649,0.130431257261,0.131646412387,0.39250892691,0.130431257261,0.371759801055,184,1.0,-0.107671891867,0.362640045218,nan,nan,nan,nan,0.0,0.0,0.0,nan,175.722752281,538.263764341,538.763809386,538.523283588,nan,nan,nan,nan
1,289,1,1,1.0,1.0,0.227377980016,0,0.0,0.0,0.0,0.262068597226,0.130199879604,0.131960074121,0.391931956958,0.130199879604,0.323632527376,19,0.99625917486,0.126374530333,-1.0,nan,nan,nan,nan,0.0,0.0,0.0,nan,175.722752281,539.263900047,539.763930267,539.491278027,nan,nan,nan,nan
1,290,1,1,nan,nan,nan,0,0.0,0.0,0.0,0.26194601554,0.129985941418,0.131960074121,0.391931956958,0.129985941418,0.243448613212,145,1.0,-0.281667413287,0.0150551701241,nan,nan,nan,nan,0.0,0.0,0.0,nan,175.722752281,540.264018933,540.764131261,nan,nan,nan,nan,nan
1,291,0,0,0.0,1.0,0.555012319004,0,0.0,0.0,0.0,0.26194601554,0.129985941418,0.131960074121,0.391931956958,0.129985941418,0.39119514951,75,1.0,-0.164714458691,-0.791355921409,nan,nan,nan,nan,0.0,0.0,0.0,nan,175.722752281,541.264197974,541.764226198,541.819210293,nan,nan,nan,nan
1,292,1,1,1.0,1.0,0.22661163914,0,0.0,0.0,0.0,0.262977939143,0.130912978591,0.132064960552,0.393890917735,0.130912978591,0.390811979072,152,1.0,-0.259184487343,0.0830625546756,nan,nan,nan,nan,0.0,0.0,0.0,nan,175.722752281,542.272614608,542.772641407,542.499226247,nan,nan,nan,nan
1,293,1,1,1.0,1.0,0.0264347649645,0,0.0,0.0,0.0,0.262850338091,0.130700795701,0.13214954239,0.393551133791,0.130700795701,0.269352907703,196,1.0,-0.0413610816081,0.449130757868,nan,nan,nan,nan,0.0,0.0,0.0,nan,175.722752281,543.272739765,543.772807618,543.29917453,nan,nan,nan,nan
1,294,1,1,1.0,1.0,0.490284179104,0,0.0,0.0,0.0,0.262023710213,0.131216282044,0.130807428169,0.393239992256,0.131216282044,0.24777686107,302,0.027086081288,0.400300843718,0.517770016443,nan,nan,nan,nan,0.0,0.0,0.0,nan,175.722752281,544.272876041,544.781238222,544.763160221,nan,nan,nan,nan
1,295,1,1,1.0,1.0,0.346129437676,0,0.0,0.0,0.0,0.262819042857,0.131676235864,0.131142806992,0.394495278721,0.131676235864,0.287616127248,58,1.0,-0.0760896648475,-1.0,nan,nan,nan,nan,0.0,0.0,0.0,nan,175.722752281,545.273005761,545.773019445,545.619135198,nan,nan,nan,nan
1,296,0,0,1.0,0.0,0.233989664819,0,0.0,0.0,0.0,0.263108315061,0.131538751759,0.131569563302,0.39464706682,0.131538751759,0.356801093866,232,0.739158239773,0.150046616059,0.623712016981,nan,nan,nan,nan,0.0,0.0,0.0,nan,175.722752281,546.273146313,546.77318138,546.507135978,nan,nan,nan,nan
1,297,1,1,1.0,1.0,0.457873210311,0,0.0,0.0,0.0,0.263007558486,0.131322111285,0.131685447201,0.394329669771,0.131322111285,0.345997437602,404,0.0124894593597,0.468746268022,-0.463349101315,nan,nan,nan,nan,0.0,0.0,0.0,nan,175.722752281,547.273229847,547.773301121,547.731103057,nan,nan,nan,nan
1,298,1,1,1.0,1.0,0.27372677112,0,0.0,0.0,0.0,0.263679509009,0.131592242328,0.132087266682,0.395271751337,0.131592242328,0.321863215417,456,0.383612429175,0.392633185378,-1.0,nan,nan,nan,nan,0.0,0.0,0.0,nan,175.722752281,548.273385225,548.773401475,548.547111996,nan,nan,nan,nan
1,299,1,1,1.0,1.0,0.0735553135164,0,0.0,0.0,0.0,0.263714035683,0.131367260045,0.132346775638,0.395081295728,0.131367260045,0.268385098316,365,-0.157962026257,0.477016591838,-0.0139196855225,nan,nan,nan,nan,0.0,0.0,0.0,nan,175.722752281,549.273518365,549.773566261,549.347073679,nan,nan,nan,nan
1,300,1,1,1.0,1.0,0.249455037061,0,0.0,0.0,0.0,0.263062807183,0.131611812369,0.131450994814,0.394674619551,0.131611812369,0.198912373899,464,0.448404880525,0.373503555275,-1.0,nan,nan,nan,nan,0.0,0.0,0.0,nan,175.722752281,550.27363668,550.773668896,550.523091717,nan,nan,nan,nan
1,301,1,1,1.0,1.0,0.153267582413,0,0.0,0.0,0.0,0.263016364281,0.13138942369,0.131626940591,0.394405787971,0.13138942369,0.158759310997,145,1.0,-0.281667413287,0.0150551701241,nan,nan,nan,nan,0.0,0.0,0.0,nan,175.722752281,551.273762693,551.773815721,551.427030276,nan,nan,nan,nan
1,302,1,1,1.0,1.0,0.265156184789,0,0.0,0.0,0.0,0.262643069105,0.131321329942,0.131321739163,0.393964399046,0.131321329942,0.222626268088,372,-0.138660017671,0.478458869494,-0.0888123791441,nan,nan,nan,nan,0.0,0.0,0.0,nan,175.722752281,552.273899255,552.773909803,552.539055439,nan,nan,nan,nan
1,303,0,0,1.0,0.0,0.328970018541,0,0.0,0.0,0.0,0.262651588141,0.131098643847,0.131942069444,0.393809204341,0.131098643847,0.249131261914,163,1.0,-0.214247802105,0.185723682048,nan,nan,nan,nan,0.0,0.0,0.0,nan,175.722752281,553.274003885,553.774069743,553.602973904,nan,nan,nan,nan
1,304,1,1,nan,nan,nan,0,0.0,0.0,0.0,0.262875636892,0.130933567448,0.131942069444,0.393809204341,0.130933567448,0.297063101665,416,0.087881616042,0.458117504295,-0.630165317015,nan,nan,nan,nan,0.0,0.0,0.0,nan,175.722752281,554.274120775,554.774205164,nan,nan,nan,nan,nan
1,305,1,1,1.0,1.0,0.504625984002,0,0.0,0.0,0.0,0.262875636892,0.130933567448,0.131942069444,0.393809204341,0.130933567448,0.416798001272,137,1.0,-0.300190217086,-0.0647316600203,nan,nan,nan,nan,0.0,0.0,0.0,nan,175.722752281,555.274278719,555.774329466,555.778904703,nan,nan,nan,nan
1,306,1,1,1.0,1.0,0.416529297596,0,0.0,0.0,0.0,0.263689611125,0.13146099242,0.132228618705,0.395150603546,0.13146099242,0.460577640799,313,-0.0530221528698,0.42279583272,0.448797959603,nan,nan,nan,nan,0.0,0.0,0.0,nan,175.722752281,556.274379358,556.774412999,556.690908656,nan,nan,nan,nan
1,307,1,1,1.0,1.0,0.296380009269,0,0.0,1.0,0.0,0.264202495979,0.131537543591,0.132664952388,0.39574003957,0.131537543591,0.405845096956,18,0.988682696815,0.131162580546,-1.0,nan,nan,nan,nan,0.0,0.0,0.0,nan,175.722752281,557.274502805,557.774538442,557.570882814,nan,nan,nan,nan
1,308,1,1,1.0,1.0,0.264240738004,1,0.0,0.0,1.0,0.26431011308,0.131330537208,0.132979575873,0.395640650288,0.131330537208,0.325716681623,165,1.0,-0.205056383665,0.203745440608,-162.171791668,252.171791668,136.156166668,359.0,-0.169222339917,0.474741883077,0.0483828026834,3.06736671273,175.722752281,558.274625397,558.77466417,558.538866135,563.183556003,564.18351495,560.099839547,563.175224614
1,309,1,1,1.0,1.0,0.0670348599087,0,0.0,0.0,0.0,0.26430988183,0.131111470332,0.133198411498,0.395421352162,0.131111470332,0.209218535728,208,0.97651257568,0.025020743352,0.522574479073,nan,nan,nan,nan,0.0,0.0,0.0,nan,175.722752281,564.383755686,564.883816126,564.450790545,nan,nan,nan,nan
1,310,1,1,1.0,1.0,0.146899370477,0,0.0,0.0,0.0,0.263654483086,0.131384822369,0.132269660717,0.395039305455,0.131384822369,0.15939165613,376,-0.124962824795,0.478704673615,-0.132627625282,nan,nan,nan,nan,0.0,0.0,0.0,nan,175.722752281,565.383880558,565.883937292,565.530779928,nan,nan,nan,nan
1,311,1,1,1.0,1.0,0.442684952402,0,0.0,0.0,0.0,0.263267876753,0.131338499703,0.13192937705,0.394606376456,0.131338499703,0.218873060929,68,1.0,-0.129018143495,-0.972903198114,nan,nan,nan,nan,0.0,0.0,0.0,nan,175.722752281,566.383999443,566.884056748,566.826684396,nan,nan,nan,nan
1,312,0,0,1.0,0.0,0.138581950217,0,0.0,0.0,0.0,0.263860012316,0.1315247508,0.132335261517,0.395384763116,0.1315247508,0.242722091032,297,0.0686262056446,0.388646276542,0.544904663634,nan,nan,nan,nan,0.0,0.0,0.0,nan,175.722752281,567.384130588,567.884183616,567.522712538,nan,nan,nan,nan
1,313,1,1,1.0,1.0,0.129094206728,0,0.0,0.0,0.0,0.263447913428,0.131504043214,0.131943870214,0.394951956641,0.131504043214,0.236787036449,362,-0.164239727892,0.476000155386,0.0174578511848,nan,nan,nan,nan,0.0,0.0,0.0,nan,175.722752281,568.417613806,568.917651724,568.546708013,nan,nan,nan,nan
1,314,1,1,1.0,1.0,0.288961499929,0,0.0,0.0,0.0,0.263007409471,0.13151274953,0.131494659941,0.394520159002,0.13151274953,0.185545885625,186,1.0,-0.0967386681424,0.377881386018,nan,nan,nan,nan,0.0,0.0,0.0,nan,175.722752281,569.417723284,569.917755785,569.706684784,nan,nan,nan,nan
1,315,0,0,0.0,1.0,0.480767355766,0,0.0,0.0,0.0,0.26309222676,0.131306038975,0.131786187786,0.394398265735,0.131306038975,0.299607687475,307,-0.0113868739462,0.411053355611,0.487957006857,nan,nan,nan,nan,0.0,0.0,0.0,nan,175.722752281,570.417866973,570.917899759,570.898634328,nan,nan,nan,nan
1,316,1,1,1.0,1.0,0.168698458234,0,0.0,0.0,0.0,0.263801266269,0.131677457801,0.132123808468,0.39547872407,0.131677457801,0.312809104643,189,1.0,-0.0802194643608,0.400143472992,nan,nan,nan,nan,0.0,0.0,0.0,nan,175.722752281,571.417983007,571.918028337,571.586681465,nan,nan,nan,nan
1,317,0,0,1.0,0.0,0.256458444986,0,0.0,0.0,0.0,0.263492490918,0.131574798697,0.131917692221,0.395067289614,0.131574798697,0.301974752995,411,0.0555201669072,0.463022710015,-0.557054760163,nan,nan,nan,nan,0.0,0.0,0.0,nan,175.722752281,572.418128692,572.918155206,572.674587137,nan,nan,nan,nan
1,318,1,1,1.0,1.0,0.344352427637,0,0.0,0.0,0.0,0.263469727015,0.131362329457,0.132107397558,0.394832056472,0.131362329457,0.256503110286,275,0.279002393219,0.326185254474,0.630178474337,nan,nan,nan,nan,0.0,0.0,0.0,nan,175.722752281,573.418221918,573.918249858,573.762574346,nan,nan,nan,nan
1,319,1,1,1.0,1.0,0.208195227664,0,0.0,0.0,0.0,0.263730638953,0.131230454059,0.132500184893,0.394961093012,0.131230454059,0.269668700096,498,0.731507943485,0.267561876527,-1.0,nan,nan,nan,nan,0.0,0.0,0.0,nan,175.722752281,574.418338808,574.918411223,574.626534036,nan,nan,nan,nan
1,320,1,1,1.0,1.0,0.0881360301282,0,0.0,0.0,0.0,0.263552068498,0.131057021136,0.132495047362,0.394609089635,0.131057021136,0.213561228476,78,1.0,-0.179467652321,-0.739907630878,nan,nan,nan,nan,0.0,0.0,0.0,nan,175.722752281,575.418469953,575.918542938,575.506605983,nan,nan,nan,nan
1,321,1,1,1.0,1.0,0.263900902588,0,0.0,0.0,0.0,0.262989837606,0.131221949013,0.131767888594,0.394211786619,0.131221949013,0.18674405346,200,1.0,-0.0191209939188,0.47515178387,nan,nan,nan,nan,0.0,0.0,0.0,nan,175.722752281,576.418610506,576.918630462,576.682511408,nan,nan,nan,nan
1,322,1,1,1.0,1.0,0.207428601803,0,0.0,0.0,0.0,0.262992748357,0.131012171678,0.131980576679,0.394004920035,0.131012171678,0.186488511506,447,0.312467642152,0.411646472288,-1.0,nan,nan,nan,nan,0.0,0.0,0.0,nan,175.722752281,577.427057645,577.927118656,577.634486247,nan,nan,nan,nan
1,323,1,1,1.0,1.0,0.199310749536,0,0.0,0.0,0.0,0.262815792476,0.130840846811,0.131974945665,0.393656639287,0.130840846811,0.223546751309,496,0.714833717156,0.274923884212,-1.0,nan,nan,nan,nan,0.0,0.0,0.0,nan,175.722752281,578.427180807,578.927252651,578.626491556,nan,nan,nan,nan
1,324,1,1,1.0,1.0,0.207142934436,0,0.0,0.0,0.0,0.262614189165,0.130681836178,0.131932352987,0.393296025343,0.130681836178,0.204627428592,240,0.654373017221,0.188015059697,0.642463954019,nan,nan,nan,nan,0.0,0.0,0.0,nan,175.722752281,579.427308245,579.927345308,579.63445118,nan,nan,nan,nan
1,325,1,1,1.0,1.0,0.198992010904,0,0.0,0.0,0.0,0.26243864722,0.130512089614,0.131926557606,0.392950736834,0.130512089614,0.201815231626,416,0.087881616042,0.458117504295,-0.630165317015,nan,nan,nan,nan,0.0,0.0,0.0,nan,175.722752281,580.42745393,580.92752948,580.626445941,nan,nan,nan,nan
1,326,1,1,1.0,1.0,0.110890192445,0,0.0,0.0,0.0,0.262238500102,0.130354635505,0.131883864598,0.392593135607,0.130354635505,0.172341712595,328,-0.132159558243,0.44685796506,0.336046158271,nan,nan,nan,nan,0.0,0.0,0.0,nan,175.722752281,581.427580513,581.9276324,581.538470705,nan,nan,nan,nan
1,327,1,1,1.0,1.0,0.254679154605,0,0.0,0.0,0.0,0.261762562028,0.130425081558,0.13133748047,0.392187643586,0.130425081558,0.188187119318,263,0.405698801511,0.284171736334,0.651829885785,nan,nan,nan,nan,0.0,0.0,0.0,nan,175.722752281,582.427703675,582.927729333,582.682382829,nan,nan,nan,nan
1,328,1,1,1.0,1.0,0.254532329738,0,0.0,0.0,0.0,0.261740356989,0.130221095101,0.131519261887,0.39196145209,0.130221095101,0.206700558929,25,1.0,0.0970682892709,-1.0,nan,nan,nan,nan,0.0,0.0,0.0,nan,175.722752281,583.427833679,583.927863329,583.682366009,nan,nan,nan,nan
1,329,1,1,1.0,1.0,0.302429767558,0,0.0,0.0,0.0,0.261717831904,0.130018087861,0.131699744043,0.391735919764,0.130018087861,0.270547083967,444,0.289241202529,0.417409780569,-1.0,nan,nan,nan,nan,0.0,0.0,0.0,nan,175.722752281,584.427938595,584.927992193,584.730368362,nan,nan,nan,nan
1,330,1,1,1.0,1.0,0.302251867251,0,0.0,0.0,0.0,0.261844660364,0.129835233627,0.132009426737,0.39167989399,0.129835233627,0.286404654849,324,-0.114799643766,0.441158325109,0.368064040095,nan,nan,nan,nan,0.0,0.0,0.0,nan,175.722752281,585.428090836,585.928103381,585.730342704,nan,nan,nan,nan
1,331,1,1,1.0,1.0,0.302092498168,0,0.0,0.0,0.0,0.261970148584,0.129652964705,0.132317183879,0.391623113289,0.129652964705,0.302258044326,100,1.0,-0.270427092546,-0.457439896749,nan,nan,nan,nan,0.0,0.0,0.0,nan,175.722752281,586.428213428,586.928231104,586.730305926,nan,nan,nan,nan
1,332,1,1,1.0,1.0,0.213648848236,0,0.0,0.0,0.0,0.262094366384,0.129471296934,0.13262306945,0.391565663319,0.129471296934,0.272664404552,452,0.351738073422,0.401406211611,-1.0,nan,nan,nan,nan,0.0,0.0,0.0,nan,175.722752281,587.436642321,587.936697345,587.65029117,nan,nan,nan,nan
1,333,1,1,1.0,1.0,0.269472838612,0,0.0,0.0,0.0,0.26194484318,0.12929926919,0.13264557399,0.39124411237,0.12929926919,0.261738061672,338,-0.162891363375,0.458928707883,0.250399161362,nan,nan,nan,nan,0.0,0.0,0.0,nan,175.722752281,588.436778027,588.936822788,588.706250866,nan,nan,nan,nan
1,334,1,1,1.0,1.0,0.237331571756,0,0.0,0.0,0.0,0.261968006243,0.129100867239,0.132867139004,0.391068873482,0.129100867239,0.240151086201,449,0.328095008353,0.407646248688,-1.0,nan,nan,nan,nan,0.0,0.0,0.0,nan,175.722752281,589.436925137,589.936950796,589.674256709,nan,nan,nan,nan
1,335,1,1,1.0,1.0,0.24517601612,0,0.0,0.0,0.0,0.261892434358,0.12890990715,0.132982527208,0.390802341509,0.12890990715,0.250660142163,505,0.789537956352,0.240683140511,-1.0,nan,nan,nan,nan,0.0,0.0,0.0,nan,175.722752281,590.437057422,590.937077379,590.682233439,nan,nan,nan,nan
1,336,1,1,1.0,1.0,0.197026552167,0,0.0,0.0,0.0,0.261841313813,0.128715955693,0.13312535812,0.390557269506,0.128715955693,0.226511380014,341,-0.168535884224,0.46196150489,0.223260112086,nan,nan,nan,nan,0.0,0.0,0.0,nan,175.722752281,591.437176878,591.937229051,591.63420343,nan,nan,nan,nan
1,337,1,1,1.0,1.0,0.236895088339,0,0.0,0.0,0.0,0.261643707832,0.128569259193,0.13307444864,0.390212967025,0.128569259193,0.226365885542,411,0.0555201669072,0.463022710015,-0.557054760163,nan,nan,nan,nan,0.0,0.0,0.0,nan,175.722752281,592.437289206,592.93732855,592.674184295,nan,nan,nan,nan
1,338,1,1,1.0,1.0,0.268739283783,0,0.0,0.0,0.0,0.261568484065,0.128380945271,0.133187538794,0.389949429336,0.128380945271,0.234220308096,26,1.0,0.0920921692153,-1.0,nan,nan,nan,nan,0.0,0.0,0.0,nan,175.722752281,593.437414364,593.937446865,593.706153648,nan,nan,nan,nan
1,339,1,1,1.0,1.0,0.292601333465,0,0.0,0.0,0.0,0.261590213761,0.128186887044,0.133403326717,0.389777100805,0.128186887044,0.266078568529,138,1.0,-0.29832987918,-0.0546508148191,nan,nan,nan,nan,0.0,0.0,0.0,nan,175.722752281,594.437538381,594.937582571,594.730139715,nan,nan,nan,nan
1,340,1,1,1.0,1.0,0.260453509632,0,0.0,0.0,0.0,0.261683902944,0.128004419857,0.133679483088,0.389688322801,0.128004419857,0.273931375627,511,0.838703193994,0.216284169582,-1.0,nan,nan,nan,nan,0.0,0.0,0.0,nan,175.722752281,595.43766696,595.9377274,595.698120469,nan,nan,nan,nan
1,341,1,1,1.0,1.0,0.196273896145,0,0.0,0.0,0.0,0.261680196941,0.127811514518,0.133868682423,0.389491711458,0.127811514518,0.249776246414,306,-0.00395437407881,0.408974006242,0.494128827808,nan,nan,nan,nan,0.0,0.0,0.0,nan,175.722752281,596.43781464,596.937862251,596.634088536,nan,nan,nan,nan
1,342,1,1,1.0,1.0,0.116199839395,0,0.0,0.0,0.0,0.261483781623,0.12766963248,0.133814149143,0.389153414103,0.12766963248,0.190975748391,431,0.191957257768,0.43918128748,-0.982298765802,nan,nan,nan,nan,0.0,0.0,0.0,nan,175.722752281,597.437945215,597.937995962,597.554145054,nan,nan,nan,nan
1,343,1,1,1.0,1.0,0.0119883292355,0,1.0,0.0,0.0,0.26104879976,0.127725254844,0.133323544916,0.388774054604,0.127725254844,0.108154021592,122,1.0,-0.311159539646,-0.219144224573,nan,nan,nan,nan,0.0,0.0,0.0,nan,175.722752281,598.43804842,598.938141932,598.450036749,nan,nan,nan,nan
1,344,1,1,1.0,1.0,0.267858049134,1,0.0,0.0,1.0,0.260305335669,0.128256219221,0.132049116447,0.38856155489,0.128256219221,0.132015405921,171,1.0,-0.176011872558,0.256450910142,-14.7865024583,104.786502458,-15.4478725417,149.0,1.0,-0.269478519393,0.0541436597792,3.10070225084,175.722752281,599.438172722,599.938218623,599.706030771,604.380435446,605.379992975,601.263378605,604.37210206
1,345,1,1,1.0,1.0,0.621271429816,0,0.0,0.0,0.0,0.260327813983,0.128065880394,0.132261933588,0.388393694377,0.128065880394,0.300372602729,489,0.656284860842,0.299572439858,-1.0,nan,nan,nan,nan,0.0,0.0,0.0,nan,175.722752281,605.58061346,606.080693288,606.20188489,nan,nan,nan,nan
1,346,1,1,1.0,1.0,0.261095548049,0,0.0,0.0,0.0,0.261398863288,0.129374045752,0.132024817536,0.39077290904,0.129374045752,0.383408342333,443,0.281558783006,0.419268214519,-1.0,nan,nan,nan,nan,0.0,0.0,0.0,nan,175.722752281,606.580769408,607.080782808,606.841864956,nan,nan,nan,nan
1,347,0,0,1.0,0.0,0.252971708775,0,0.0,0.0,0.0,0.261397965905,0.129182523314,0.132215442592,0.390580489219,0.129182523314,0.37844622888,367,-0.15309091083,0.477560897992,-0.0350816338538,nan,nan,nan,nan,0.0,0.0,0.0,nan,175.722752281,607.580898842,608.080929063,607.833870551,nan,nan,nan,nan
1,348,1,1,1.0,1.0,0.100875304779,0,0.0,0.0,0.0,0.26137310969,0.128992657354,0.132380452335,0.390365767044,0.128992657354,0.204980853867,214,0.920243657418,0.0575410437433,0.553854850604,nan,nan,nan,nan,0.0,0.0,0.0,nan,175.722752281,608.58099549,609.081075602,608.681870795,nan,nan,nan,nan
1,349,1,1,1.0,1.0,0.308701046742,0,0.0,0.0,0.0,0.260901057322,0.129095730528,0.131805326794,0.389996787851,0.129095730528,0.220849353432,60,1.0,-0.0867837676833,-1.0,nan,nan,nan,nan,0.0,0.0,0.0,nan,175.722752281,609.581120933,610.081161417,609.88982198,nan,nan,nan,nan
1,350,0,0,1.0,0.0,0.228538894793,0,0.0,0.0,0.0,0.261041233244,0.128932212251,0.132109020993,0.389973445496,0.128932212251,0.212705082105,402,0.000724920831492,0.470139955471,-0.437811562499,nan,nan,nan,nan,0.0,0.0,0.0,nan,175.722752281,610.581277451,611.081317935,610.809816346,nan,nan,nan,nan
1,351,1,1,1.0,1.0,0.236409853213,0,0.0,0.0,0.0,0.260946197167,0.128755537546,0.132190659621,0.389701734713,0.128755537546,0.257883264916,227,0.791019951953,0.125257787881,0.608066708266,nan,nan,nan,nan,0.0,0.0,0.0,nan,175.722752281,611.581374669,612.081445658,611.817784522,nan,nan,nan,nan
1,352,1,1,1.0,1.0,0.468266992131,0,0.0,0.0,0.0,0.260874662637,0.128574516136,0.1323001465,0.389449178773,0.128574516136,0.311071913379,112,1.0,-0.300501516081,-0.325324861792,nan,nan,nan,nan,0.0,0.0,0.0,nan,175.722752281,612.58149498,613.081556276,613.049761972,nan,nan,nan,nan
1,353,1,1,1.0,1.0,0.363783214474,0,0.0,0.0,0.0,0.261477547315,0.128872107045,0.13260544027,0.390349654361,0.128872107045,0.356153353273,0,0.846831709088,0.212097570855,-1.0,nan,nan,nan,nan,0.0,0.0,0.0,nan,175.722752281,613.589967493,614.090001135,613.953750708,nan,nan,nan,nan
1,354,1,1,1.0,1.0,0.259633285459,0,0.0,0.0,0.0,0.261774085481,0.128802680042,0.132971405439,0.390576765523,0.128802680042,0.363894497355,406,0.0244967455079,0.467245700284,-0.489366101921,nan,nan,nan,nan,0.0,0.0,0.0,nan,175.722752281,614.590088089,615.090131424,614.849721375,nan,nan,nan,nan
1,355,0,0,1.0,0.0,0.155469386606,0,0.0,0.0,0.0,0.261767898198,0.128616465663,0.133151432534,0.390384363861,0.128616465663,0.259628628846,469,0.489482198204,0.360453357602,-1.0,nan,nan,nan,nan,0.0,0.0,0.0,nan,175.722752281,615.590247744,616.090294499,615.74571713,nan,nan,nan,nan
1,356,1,1,1.0,1.0,0.275330156554,0,0.0,0.0,0.0,0.261461562429,0.128557350634,0.132904211796,0.390018913063,0.128557350634,0.230144276206,226,0.801265930663,0.120208988367,0.60458276857,nan,nan,nan,nan,0.0,0.0,0.0,nan,175.722752281,616.590342681,617.090378033,616.865672837,nan,nan,nan,nan
1,357,1,1,1.0,1.0,0.27517734468,0,0.0,0.0,0.0,0.261501414711,0.128374655409,0.133126759302,0.38987607012,0.128374655409,0.23532562928,168,1.0,-0.190790017254,0.230361799274,nan,nan,nan,nan,0.0,0.0,0.0,nan,175.722752281,617.590470119,618.090507467,617.865647464,nan,nan,nan,nan
1,358,1,1,1.0,1.0,0.283064838499,0,0.0,0.0,0.0,0.261540600757,0.128192689892,0.133347910866,0.389733290649,0.128192689892,0.277857446577,377,-0.121259861678,0.478700828387,-0.143695900877,nan,nan,nan,nan,0.0,0.0,0.0,nan,175.722752281,618.590592141,619.090637756,618.873656979,nan,nan,nan,nan
1,359,1,1,1.0,1.0,0.290899019223,0,0.0,0.0,0.0,0.261602098579,0.128014581903,0.133587516676,0.389616680482,0.128014581903,0.283047067467,436,0.228681708805,0.431413732101,-1.0,nan,nan,nan,nan,0.0,0.0,0.0,nan,175.722752281,619.590720434,620.090759207,619.881619454,nan,nan,nan,nan
1,360,1,1,1.0,1.0,0.226744494401,0,0.0,0.0,0.0,0.26168556559,0.127841631877,0.133843933713,0.389527197467,0.127841631877,0.266902784041,328,-0.132159558243,0.44685796506,0.336046158271,nan,nan,nan,nan,0.0,0.0,0.0,nan,175.722752281,620.590845307,621.090932261,620.817589801,nan,nan,nan,nan
1,361,1,1,1.0,1.0,0.410633491352,0,0.0,0.0,0.0,0.261586301183,0.127673454732,0.133912846451,0.389259755915,0.127673454732,0.309425668325,247,0.578947625354,0.219392674348,0.6523805853,nan,nan,nan,nan,0.0,0.0,0.0,nan,175.722752281,621.590977307,622.0910463,622.001610798,nan,nan,nan,nan
