block,trial,time,setsize,freqtrials,trials_colorind,trials_colordeg,colorrgb0,colorrgb1,colorrgb2,correct_response,actual_response,acc,rts,probe_trials,rt_triggered_fast,rt_triggered_slow,rt_strailingavg,rts_runningavg,rts_runningstd,rts_runningslowthresh,rts_runningfastthresh,wm_respdeg,wm_respind,wm_resprgb0,wm_resprgb1,wm_resprgb2,wm_respcolorminusorigcolor,wm_rts,time_blockstart,time_encarray_onset,time_response,time_encarray_offest,time_memprobe_onset,time_memprobe_offset
0,0,1604,6,1,174,122,1.0,-0.160790688716,0.281981279739,1,1.0,1.0,0.38004058646,0,nan,nan,nan,nan,nan,nan,nan,nan,nan,0.0,0.0,0.0,nan,nan,175.722752281,176.734698986,177.114739572,177.234790217,nan,nan
0,1,1605,6,1,23,16,1.0,0.106943944166,-1.0,1,1.0,1.0,0.179182045162,0,nan,nan,nan,nan,nan,nan,nan,nan,nan,0.0,0.0,0.0,nan,nan,175.722752281,177.751537956,177.930720001,178.251537956,nan,nan
0,2,1606,6,1,330,232,-0.139766326074,0.449518327743,0.319540245599,1,1.0,1.0,0.378701770911,0,nan,nan,nan,nan,nan,nan,nan,nan,nan,0.0,0.0,0.0,nan,nan,175.722752281,178.759965993,179.138667764,179.260013035,nan,nan
0,3,1607,6,1,381,267,-0.105403061426,0.478425078289,-0.188431136224,1,1.0,1.0,0.226229609223,0,nan,nan,nan,nan,nan,nan,nan,nan,nan,0.0,0.0,0.0,nan,nan,175.722752281,179.768438506,179.994668116,180.268509496,nan,nan
0,4,1608,6,1,98,68,1.0,-0.263822910468,-0.480217789416,1,1.0,1.0,0.225738101872,0,nan,nan,nan,nan,nan,nan,nan,nan,nan,0.0,0.0,0.0,nan,nan,175.722752281,180.776900471,181.002638573,181.276959201,nan,nan
0,5,1609,6,1,178,125,1.0,-0.139919655122,0.315097826042,1,1.0,1.0,0.257284085965,0,nan,nan,nan,nan,nan,nan,nan,nan,nan,0.0,0.0,0.0,nan,nan,175.722752281,181.785341623,182.042625709,182.28539009,nan,nan
0,6,1615,6,1,511,359,0.838703193994,0.216284169582,-1.0,1,1.0,1.0,0.256807403872,1,nan,nan,nan,nan,nan,nan,nan,92.7791668641,508.0,0.814199817736,0.228638933499,-1.0,-2.07604186407,3.43407701841,175.722752281,182.793802447,183.050609851,183.293860607,184.619006049,188.061105697
0,7,1616,6,1,339,238,-0.164955840019,0.45996923152,0.241423096872,1,1.0,1.0,0.300540430006,0,nan,nan,nan,nan,nan,nan,nan,nan,nan,0.0,0.0,0.0,nan,nan,175.722752281,189.277949343,189.578489773,189.777995528,nan,nan
0,8,1617,6,1,147,103,1.0,-0.275801134503,0.0346720467303,1,1.0,1.0,0.164052517153,0,nan,nan,nan,nan,nan,nan,nan,nan,nan,0.0,0.0,0.0,nan,nan,175.722752281,190.286412733,190.45046525,190.786458633,nan,nan
0,9,1618,6,1,268,188,0.35230222188,0.302367520405,0.645005310408,1,1.0,1.0,0.243555239635,0,nan,nan,nan,nan,nan,nan,nan,nan,nan,0.0,0.0,0.0,nan,nan,175.722752281,191.294867855,191.538423094,191.79491347,nan,nan
0,10,1619,6,1,34,23,1.0,0.0514419701458,-1.0,1,1.0,1.0,0.123470383231,0,nan,nan,nan,nan,nan,nan,nan,nan,nan,0.0,0.0,0.0,nan,nan,175.722752281,192.295007837,192.41847822,192.79507398,nan,nan
0,11,1620,6,1,165,116,1.0,-0.205056383665,0.203745440608,1,1.0,1.0,0.0752747338265,0,nan,nan,nan,nan,nan,nan,nan,nan,nan,0.0,0.0,0.0,nan,nan,175.722752281,193.295150386,193.37042512,193.795209971,nan,nan
0,12,1621,6,1,370,260,-0.144805996584,0.478178727438,-0.0671803333712,1,1.0,1.0,0.491085016401,0,nan,nan,nan,nan,nan,nan,nan,nan,nan,0.0,0.0,0.0,nan,nan,175.722752281,194.295283811,194.786368828,194.803652264,nan,nan
0,13,1622,6,1,435,305,0.221263830514,0.433027056876,-1.0,1,1.0,1.0,0.234636549605,0,nan,nan,nan,nan,nan,nan,nan,nan,nan,0.0,0.0,0.0,nan,nan,175.722752281,195.303721827,195.538358377,195.803760316,nan,nan
0,14,1627,6,1,12,8,0.942476689623,0.159273951266,-1.0,1,1.0,1.0,0.0264604235999,1,nan,nan,nan,nan,nan,nan,nan,67.9391005328,31.0,1.0,0.0668515730764,-1.0,13.6233994672,1.56716201315,175.722752281,196.303872074,196.330332497,196.803915978,198.129076816,199.704268301
0,15,1628,6,1,503,353,0.773020196022,0.248538461814,-1.0,1,1.0,1.0,0.344262907514,0,nan,nan,nan,nan,nan,nan,nan,nan,nan,0.0,0.0,0.0,nan,nan,175.722752281,200.91399564,201.258258548,201.412805075,nan,nan
0,16,1629,6,1,405,284,0.018463324075,0.468009379796,-0.476293327428,1,1.0,1.0,0.208913101815,0,nan,nan,nan,nan,nan,nan,nan,nan,nan,0.0,0.0,0.0,nan,nan,175.722752281,201.921329476,202.130242578,202.421284145,nan,nan
0,17,1630,6,1,246,172,0.589768841079,0.215019897151,0.651339528662,1,1.0,1.0,0.20083858422,0,nan,nan,nan,nan,nan,nan,nan,nan,nan,0.0,0.0,0.0,nan,nan,175.722752281,202.921368249,203.122206833,203.421388776,nan,nan
0,18,1631,6,0,98,68,1.0,-0.263822910468,-0.480217789416,0,1.0,0.0,0.0166690521874,0,0.0,0.0,nan,nan,nan,nan,nan,nan,nan,0.0,0.0,0.0,nan,nan,175.722752281,203.921501104,203.938170156,204.421569813,nan,nan
0,19,1632,6,1,307,215,-0.0113868739462,0.411053355611,0.487957006857,1,1.0,1.0,0.0722832106985,0,nan,nan,nan,nan,nan,nan,nan,nan,nan,0.0,0.0,0.0,nan,nan,175.722752281,204.929924295,205.002207506,205.430006973,nan,nan
0,20,1633,6,0,123,86,1.0,-0.311441137266,-0.208672863777,0,1.0,0.0,0.0720596949104,0,0.0,0.0,nan,nan,nan,nan,nan,nan,nan,0.0,0.0,0.0,nan,nan,175.722752281,205.930111319,206.002171014,206.430128425,nan,nan
0,21,1634,6,1,368,258,-0.150457169737,0.477793263397,-0.0457341785459,1,1.0,1.0,0.0394092448987,0,nan,nan,nan,nan,nan,nan,nan,nan,nan,0.0,0.0,0.0,nan,nan,175.722752281,206.938737499,206.978146744,207.438594951,nan,nan
0,22,1635,6,1,148,104,1.0,-0.272695592461,0.0444264621409,1,1.0,1.0,0.223471580772,0,nan,nan,nan,nan,nan,nan,nan,nan,nan,0.0,0.0,0.0,nan,nan,175.722752281,207.938671357,208.162142937,208.438689318,nan,nan
0,23,1636,6,0,325,228,-0.119404900653,0.442631039184,0.360186421743,0,1.0,0.0,0.14326609415,0,0.0,0.0,nan,nan,nan,nan,nan,nan,nan,0.0,0.0,0.0,nan,nan,175.722752281,208.93882873,209.082094824,209.438855244,nan,nan
0,24,1637,6,1,376,264,-0.124962824795,0.478704673615,-0.132627625282,1,1.0,1.0,0.134815818863,0,nan,nan,nan,nan,nan,nan,nan,nan,nan,0.0,0.0,0.0,nan,nan,175.722752281,209.947245364,210.082061183,210.447276725,nan,nan
0,25,1638,6,1,265,186,0.384259149088,0.291568309415,0.649478858709,1,1.0,1.0,0.246410486288,0,nan,nan,nan,nan,nan,nan,nan,nan,nan,0.0,0.0,0.0,nan,nan,175.722752281,210.955690793,211.202101279,211.455735268,nan,nan
0,26,1639,6,1,141,99,1.0,-0.291952736687,-0.024586852943,1,1.0,1.0,0.15019081533,0,nan,nan,nan,nan,nan,nan,nan,nan,nan,0.0,0.0,0.0,nan,nan,175.722752281,211.955844745,212.106035561,212.455866698,nan,nan
0,27,1640,6,1,90,63,1.0,-0.233635786423,-0.574971871003,1,1.0,1.0,0.118069220334,0,nan,nan,nan,nan,nan,nan,nan,nan,nan,0.0,0.0,0.0,nan,nan,175.722752281,212.955968477,213.074037698,213.45599157,nan,nan
0,28,1641,6,1,185,130,1.0,-0.102214474652,0.370299946716,1,1.0,1.0,0.541901277611,0,nan,nan,nan,nan,nan,nan,nan,nan,nan,0.0,0.0,0.0,nan,nan,175.722752281,213.956097056,214.497998334,214.45615379,nan,nan
0,29,1642,6,1,307,215,-0.0113868739462,0.411053355611,0.487957006857,1,1.0,1.0,0.213412787998,0,nan,nan,nan,nan,nan,nan,nan,nan,nan,0.0,0.0,0.0,nan,nan,175.722752281,214.964524239,215.177937027,215.464604066,nan,nan
0,30,1643,6,1,419,294,0.107894673663,0.454841969249,-0.678098861371,1,1.0,1.0,0.436892636586,0,nan,nan,nan,nan,nan,nan,nan,nan,nan,0.0,0.0,0.0,nan,nan,175.722752281,215.972999317,216.409891954,216.473054056,nan,nan
0,31,1644,6,0,136,95,1.0,-0.301914900238,-0.074841205769,0,1.0,0.0,0.268750117626,0,0.0,0.0,nan,nan,nan,nan,nan,nan,nan,0.0,0.0,0.0,nan,nan,175.722752281,216.973160112,217.24191023,217.473187196,nan,nan
0,32,1645,6,1,218,153,0.881467392804,0.0788246127756,0.572559633417,1,1.0,1.0,0.0686365347356,0,nan,nan,nan,nan,nan,nan,nan,nan,nan,0.0,0.0,0.0,nan,nan,175.722752281,217.973245926,218.041882461,218.473332881,nan,nan
0,33,1646,6,1,142,99,1.0,-0.289568116499,-0.0146273521697,1,1.0,1.0,0.476174728014,0,nan,nan,nan,nan,nan,nan,nan,nan,nan,0.0,0.0,0.0,nan,nan,175.722752281,218.981706465,219.457881193,219.481743528,nan,nan
0,34,1647,6,0,302,212,0.027086081288,0.400300843718,0.517770016443,0,1.0,0.0,0.227979249554,0,0.0,0.0,nan,nan,nan,nan,nan,nan,nan,0.0,0.0,0.0,nan,nan,175.722752281,219.981884651,220.2098639,220.481906033,nan,nan
0,35,1648,6,1,413,290,0.0683106243366,0.461143133648,-0.585495598612,1,1.0,1.0,0.41185684246,0,nan,nan,nan,nan,nan,nan,nan,nan,nan,0.0,0.0,0.0,nan,nan,175.722752281,220.981978733,221.393835575,221.482002396,nan,nan
0,36,1649,6,1,77,54,1.0,-0.174593022316,-0.756267193339,1,1.0,1.0,0.36369654513,0,nan,nan,nan,nan,nan,nan,nan,nan,nan,0.0,0.0,0.0,nan,nan,175.722752281,221.982108452,222.345804997,222.482129549,nan,nan
0,37,1650,6,1,438,307,0.243622561222,0.428096439079,-1.0,1,1.0,1.0,0.387546335347,0,nan,nan,nan,nan,nan,nan,nan,nan,nan,0.0,0.0,0.0,nan,nan,175.722752281,222.982239312,223.369785647,223.48225043,nan,nan
0,38,1651,6,1,322,226,-0.105067232891,0.43811622051,0.383559350674,1,1.0,1.0,0.243409840157,0,nan,nan,nan,nan,nan,nan,nan,nan,nan,0.0,0.0,0.0,nan,nan,175.722752281,223.982359622,224.225769463,224.482401247,nan,nan
0,39,1652,6,1,81,56,1.0,-0.193804253699,-0.694219169772,1,1.0,1.0,0.211307631573,0,nan,nan,nan,nan,nan,nan,nan,nan,nan,0.0,0.0,0.0,nan,nan,175.722752281,224.982489342,225.193796973,225.48254294,nan,nan
0,40,1653,6,0,128,90,1.0,-0.310663006781,-0.156689791083,0,1.0,0.0,0.235110666137,0,0.0,0.0,nan,nan,nan,nan,nan,nan,nan,0.0,0.0,0.0,nan,nan,175.722752281,225.982625333,226.217735999,226.482662681,nan,nan
0,41,1654,6,1,498,350,0.731507943485,0.267561876527,-1.0,1,1.0,1.0,0.338653623592,0,nan,nan,nan,nan,nan,nan,nan,nan,nan,0.0,0.0,0.0,nan,nan,175.722752281,226.991045673,227.329699297,227.491130632,nan,nan
0,42,1658,6,1,308,216,-0.0186828559465,0.413097475488,0.481682330771,1,1.0,1.0,0.226185418898,1,nan,nan,nan,nan,nan,nan,nan,-139.099513403,326.0,-0.12383419111,0.444071765824,0.352223541474,12.5370134034,0.958757866407,175.722752281,227.999527594,228.225713013,228.499556959,229.824723499,230.791513973
0,43,1659,6,1,228,160,0.780729811514,0.1302769546,0.611433142569,1,1.0,1.0,0.385588574223,0,nan,nan,nan,nan,nan,nan,nan,nan,nan,0.0,0.0,0.0,nan,nan,175.722752281,232.000031075,232.38561965,232.500113183,nan,nan
0,44,1700,6,0,434,305,0.213881816697,0.43461034373,-1.0,0,1.0,0.0,0.265425601508,0,0.0,0.0,nan,nan,nan,nan,nan,nan,nan,0.0,0.0,0.0,nan,nan,175.722752281,233.000186453,233.265612055,233.50021981,nan,nan
0,45,1701,6,1,214,150,0.920243657418,0.0575410437433,0.553854850604,1,1.0,1.0,0.128967623925,0,nan,nan,nan,nan,nan,nan,nan,nan,nan,0.0,0.0,0.0,nan,nan,175.722752281,234.008606508,234.137574132,234.508682059,nan,nan
0,46,1702,6,1,170,119,1.0,-0.180990482069,0.247815061387,1,1.0,1.0,0.432440846693,0,nan,nan,nan,nan,nan,nan,nan,nan,nan,0.0,0.0,0.0,nan,nan,175.722752281,235.017055928,235.449496775,235.517110097,nan,nan
0,47,1703,6,1,233,163,0.728670395113,0.154909781369,0.626482233315,1,1.0,1.0,0.312001899816,0,nan,nan,nan,nan,nan,nan,nan,nan,nan,0.0,0.0,0.0,nan,nan,175.722752281,236.025525591,236.33752749,236.525572917,nan,nan
0,48,1704,6,1,312,219,-0.0464483572634,0.420925197877,0.455573212045,1,1.0,1.0,0.247826848179,0,nan,nan,nan,nan,nan,nan,nan,nan,nan,0.0,0.0,0.0,nan,nan,175.722752281,237.025677262,237.27350411,237.525717176,nan,nan
0,49,1705,6,0,1,0,0.854939129564,0.207877072944,-1.0,0,1.0,0.0,0.199676529039,0,0.0,0.0,nan,nan,nan,nan,nan,nan,nan,0.0,0.0,0.0,nan,nan,175.722752281,238.025796148,238.225472677,238.52584718,nan,nan
0,50,1706,6,1,156,109,1.0,-0.244060613314,0.121041471254,1,1.0,1.0,0.135217520408,0,nan,nan,nan,nan,nan,nan,nan,nan,nan,0.0,0.0,0.0,nan,nan,175.722752281,239.034240436,239.169457956,239.534333092,nan,nan
0,51,1707,6,1,385,270,-0.0879796604702,0.477733444059,-0.233926720364,1,1.0,1.0,0.278727657627,0,nan,nan,nan,nan,nan,nan,nan,nan,nan,0.0,0.0,0.0,nan,nan,175.722752281,240.042704966,240.321432624,240.542758564,nan,nan
0,52,1708,6,1,11,7,0.934659501434,0.163852895862,-1.0,1,1.0,1.0,0.326266443823,0,nan,nan,nan,nan,nan,nan,nan,nan,nan,0.0,0.0,0.0,nan,nan,175.722752281,241.051156952,241.377423396,241.551212546,nan,nan
0,53,1709,6,1,488,343,0.647907709101,0.302951493728,-1.0,1,1.0,1.0,0.253756010439,0,nan,nan,nan,nan,nan,nan,nan,nan,nan,0.0,0.0,0.0,nan,nan,175.722752281,242.059636307,242.313392318,242.559700169,nan,nan
0,54,1710,6,1,1,0,0.854939129564,0.207877072944,-1.0,1,1.0,1.0,0.277606941294,0,nan,nan,nan,nan,nan,nan,nan,nan,nan,0.0,0.0,0.0,nan,nan,175.722752281,243.059765456,243.337372398,243.559799668,nan,nan
0,55,1711,6,1,341,239,-0.168535884224,0.46196150489,0.223260112086,1,1.0,1.0,0.220129958587,0,nan,nan,nan,nan,nan,nan,nan,nan,nan,0.0,0.0,0.0,nan,nan,175.722752281,244.093258083,244.313388041,244.593256372,nan,nan
0,56,1712,6,1,59,41,1.0,-0.0814409933332,-1.0,1,1.0,1.0,0.0199644882232,0,nan,nan,nan,nan,nan,nan,nan,nan,nan,0.0,0.0,0.0,nan,nan,175.722752281,245.093361573,245.113326061,245.593427431,nan,nan
0,57,1713,6,1,116,81,1.0,-0.306446923025,-0.282515442494,1,1.0,1.0,0.40380456252,0,nan,nan,nan,nan,nan,nan,nan,nan,nan,0.0,0.0,0.0,nan,nan,175.722752281,246.093483309,246.497287872,246.593511534,nan,nan
0,58,1714,6,1,504,354,0.78128615449,0.244628286196,-1.0,1,1.0,1.0,0.267357418779,0,nan,nan,nan,nan,nan,nan,nan,nan,nan,0.0,0.0,0.0,nan,nan,175.722752281,247.101918475,247.369275894,247.601980911,nan,nan
0,59,1715,6,0,255,179,0.492159363509,0.253017189294,0.656163111527,0,1.0,0.0,0.251157636521,0,0.0,0.0,nan,nan,nan,nan,nan,nan,nan,0.0,0.0,0.0,nan,nan,175.722752281,248.102141421,248.353299057,248.602152824,nan,nan
0,60,1716,6,1,196,137,1.0,-0.0413610816081,0.449130757868,1,1.0,1.0,0.226717980346,0,nan,nan,nan,nan,nan,nan,nan,nan,nan,0.0,0.0,0.0,nan,nan,175.722752281,249.110529545,249.337247525,249.610562901,nan,nan
0,61,1717,6,1,350,246,-0.175756816429,0.469490941964,0.138247479403,1,1.0,1.0,0.0345571788494,0,nan,nan,nan,nan,nan,nan,nan,nan,nan,0.0,0.0,0.0,nan,nan,175.722752281,250.110649,250.145206179,250.610769026,nan,nan
0,62,1718,6,1,240,168,0.654373017221,0.188015059697,0.642463954019,1,1.0,1.0,0.402462610975,0,nan,nan,nan,nan,nan,nan,nan,nan,nan,0.0,0.0,0.0,nan,nan,175.722752281,251.11078043,251.513243041,251.610812931,nan,nan
0,63,1719,6,1,89,62,1.0,-0.229484098413,-0.587370487375,1,1.0,1.0,0.274275012547,0,nan,nan,nan,nan,nan,nan,nan,nan,nan,0.0,0.0,0.0,nan,nan,175.722752281,252.110899886,252.385174898,252.610938659,nan,nan
0,64,1720,6,1,1,0,0.854939129564,0.207877072944,-1.0,1,1.0,1.0,0.32214051974,0,nan,nan,nan,nan,nan,nan,nan,nan,nan,0.0,0.0,0.0,nan,nan,175.722752281,253.111028465,253.433168984,253.611063246,nan,nan
0,65,1721,6,1,111,78,1.0,-0.298677811705,-0.336106236365,1,1.0,1.0,0.417972458526,0,nan,nan,nan,nan,nan,nan,nan,nan,nan,0.0,0.0,0.0,nan,nan,175.722752281,254.111184128,254.529156586,254.611188689,nan,nan
0,66,1722,6,1,438,307,0.243622561222,0.428096439079,-1.0,1,1.0,1.0,0.601825248217,0,nan,nan,nan,nan,nan,nan,nan,nan,nan,0.0,0.0,0.0,nan,nan,175.722752281,255.111289043,255.713114291,255.611358037,nan,nan
0,67,1723,6,1,364,255,-0.160194321586,0.476704516321,-0.00341124574885,1,1.0,1.0,0.401675172849,0,nan,nan,nan,nan,nan,nan,nan,nan,nan,0.0,0.0,0.0,nan,nan,175.722752281,256.11142532,256.513100493,256.611439859,nan,nan
0,68,1724,6,1,191,134,1.0,-0.0691479807067,0.414571651978,1,1.0,1.0,0.313533440931,0,nan,nan,nan,nan,nan,nan,nan,nan,nan,0.0,0.0,0.0,nan,nan,175.722752281,257.111538218,257.425071659,257.611564447,nan,nan
0,69,1725,6,1,431,303,0.191957257768,0.43918128748,-0.982298765802,1,1.0,1.0,0.209041110473,0,nan,nan,nan,nan,nan,nan,nan,nan,nan,0.0,0.0,0.0,nan,nan,175.722752281,258.120017288,258.329058399,258.620023845,nan,nan
0,70,1726,6,1,65,45,1.0,-0.113312155659,-1.0,1,1.0,1.0,0.112939469982,0,nan,nan,nan,nan,nan,nan,nan,nan,nan,0.0,0.0,0.0,nan,nan,175.722752281,259.12014102,259.23308049,259.620156131,nan,nan
0,71,1727,6,1,405,284,0.018463324075,0.468009379796,-0.476293327428,1,1.0,1.0,0.24078210094,0,nan,nan,nan,nan,nan,nan,nan,nan,nan,0.0,0.0,0.0,nan,nan,175.722752281,260.120240804,260.361022905,260.620288416,nan,nan
0,72,1732,6,1,297,208,0.0686262056446,0.388646276542,0.544904663634,1,1.0,1.0,0.0246004508808,1,nan,nan,nan,nan,nan,nan,nan,-138.551733355,325.0,-0.119404900653,0.442631039184,0.360186421743,19.7236083548,1.30048540607,175.722752281,261.120395612,261.144996063,261.620453201,262.945578972,264.254079025
0,73,1733,6,1,172,120,1.0,-0.170984061773,0.265024678188,1,1.0,1.0,0.386329256231,0,nan,nan,nan,nan,nan,nan,nan,nan,nan,0.0,0.0,0.0,nan,nan,175.722752281,265.462594417,265.848923673,265.962622927,nan,nan
0,74,1734,6,1,453,318,0.359670421306,0.39926174925,-1.0,1,1.0,1.0,0.210163252195,0,nan,nan,nan,nan,nan,nan,nan,nan,nan,0.0,0.0,0.0,nan,nan,175.722752281,266.462715298,266.67287855,266.962752076,nan,nan
0,75,1735,6,1,319,224,-0.0891891826932,0.433308674125,0.406137099325,1,1.0,1.0,0.178021985572,0,nan,nan,nan,nan,nan,nan,nan,nan,nan,0.0,0.0,0.0,nan,nan,175.722752281,267.462841881,267.640863867,267.962880939,nan,nan
0,76,1736,6,1,204,143,1.0,0.00303256528985,0.499654420455,1,1.0,1.0,0.217878832715,0,nan,nan,nan,nan,nan,nan,nan,nan,nan,0.0,0.0,0.0,nan,nan,175.722752281,268.462965613,268.680844446,268.963007237,nan,nan
0,77,1737,6,1,393,276,-0.0489456633786,0.475102171109,-0.327443230616,1,1.0,1.0,0.23375217896,0,nan,nan,nan,nan,nan,nan,nan,nan,nan,0.0,0.0,0.0,nan,nan,175.722752281,269.46311871,269.696870889,269.963138382,nan,nan
0,78,1738,6,1,108,75,1.0,-0.292426609412,-0.368663285579,1,1.0,1.0,0.16158443247,0,nan,nan,nan,nan,nan,nan,nan,nan,nan,0.0,0.0,0.0,nan,nan,175.722752281,270.463245293,270.624829726,270.963294615,nan,nan
0,79,1739,6,1,198,139,1.0,-0.0302354974571,0.462326941081,1,1.0,1.0,0.161423352547,0,nan,nan,nan,nan,nan,nan,nan,nan,nan,0.0,0.0,0.0,nan,nan,175.722752281,271.463350209,271.624773562,271.963438589,nan,nan
0,80,1740,6,1,99,69,1.0,-0.267176270739,-0.468793303331,1,1.0,1.0,0.0812515073922,0,0.0,0.0,0.13475309747,0.246535319398,0.124799386426,0.371334705825,0.121735932972,nan,nan,0.0,0.0,0.0,nan,nan,175.722752281,272.463498745,272.544750252,272.96354493,nan,nan
0,81,1741,6,1,52,36,1.0,-0.0438860552364,-1.0,1,1.0,1.0,0.0571585292928,0,1.0,0.0,0.0999444630773,0.244494778509,0.125362310397,0.369857088907,0.119132468112,nan,nan,0.0,0.0,0.0,nan,nan,175.722752281,273.463598529,273.520757058,273.963652697,nan,nan
0,82,1745,6,1,308,216,-0.0186828559465,0.413097475488,0.481682330771,1,1.0,1.0,0.313065881841,1,0.0,0.0,0.150491972842,0.242210190104,0.126280722047,0.368490912151,0.115929468058,-128.440788757,311.0,-0.0397249783266,0.419020224334,0.462250212202,1.87828875701,1.68384480686,175.722752281,274.463723401,274.776789283,274.963805224,276.288937267,277.980816107
0,83,1746,6,1,51,35,1.0,-0.0385160204876,-1.0,1,1.0,1.0,0.338938435772,0,0.0,0.0,0.236387615635,0.243063873137,0.125755516448,0.368819389585,0.117308356689,nan,nan,0.0,0.0,0.0,nan,nan,175.722752281,279.197658042,279.536596478,279.697736444,nan,nan
0,84,1747,6,1,498,350,0.731507943485,0.267561876527,-1.0,1,1.0,1.0,0.306799449725,0,0.0,0.0,0.319601255779,0.244205236978,0.125436468795,0.369641705774,0.118768768183,nan,nan,0.0,0.0,0.0,nan,nan,175.722752281,280.197801161,280.50460061,280.697846206,nan,nan
0,85,1748,6,1,125,87,1.0,-0.311567427947,-0.187805059354,1,1.0,1.0,0.290681775426,0,0.0,0.0,0.312139886975,0.244941639481,0.124878943172,0.369820582653,0.120062696309,nan,nan,0.0,0.0,0.0,nan,nan,175.722752281,281.197920331,281.488602107,281.697974785,nan,nan
0,86,1749,6,1,377,265,-0.121259861678,0.478700828387,-0.143695900877,1,1.0,1.0,0.194506009575,0,0.0,0.0,0.263995744909,0.245473501527,0.124247578267,0.369721079794,0.12122592326,nan,nan,0.0,0.0,0.0,nan,nan,175.722752281,282.198059459,282.392565468,282.698110776,nan,nan
0,87,1750,6,1,335,235,-0.155595990888,0.455627721073,0.276893227044,1,1.0,1.0,0.362056666985,0,0.0,0.0,0.282414817329,0.244887668286,0.123650854743,0.368538523029,0.121236813544,nan,nan,0.0,0.0,0.0,nan,nan,175.722752281,283.206487211,283.568543878,283.706535963,nan,nan
0,88,1751,6,1,236,165,0.697004556276,0.169301754335,0.634065852989,1,1.0,1.0,0.329906277126,0,0.0,0.0,0.295489651229,0.24621913418,0.12357193411,0.36979106829,0.122647200071,nan,nan,0.0,0.0,0.0,nan,nan,175.722752281,284.206639168,284.536545445,284.706682788,nan,nan
0,89,1752,6,1,315,221,-0.0657111424032,0.426434809442,0.434956515233,1,1.0,1.0,0.233785535209,0,0.0,0.0,0.30858282644,0.247159439157,0.123191951329,0.370351390486,0.123967487829,nan,nan,0.0,0.0,0.0,nan,nan,175.722752281,285.206756913,285.440542448,285.706791695,nan,nan
0,90,1753,6,1,1,0,0.854939129564,0.207877072944,-1.0,1,1.0,1.0,0.209618146764,0,0.0,0.0,0.257769986366,0.247010840225,0.122513660716,0.369524500941,0.124497179509,nan,nan,0.0,0.0,0.0,nan,nan,175.722752281,286.206896611,286.416514757,286.706969025,nan,nan
0,91,1754,6,0,437,307,0.23613482661,0.429770237144,-1.0,0,1.0,0.0,0.209410311189,0,0.0,0.0,0.217604664387,0.246599931505,0.121900994962,0.368500926468,0.124698936543,nan,nan,0.0,0.0,0.0,nan,nan,175.722752281,287.207061967,287.416472278,287.707065958,nan,nan
0,92,1755,6,1,366,257,-0.155593376329,0.477302029306,-0.0244766492797,1,1.0,1.0,0.281302938936,0,0.0,0.0,0.233443798963,0.246195696502,0.121297989994,0.367493686495,0.124897706508,nan,nan,0.0,0.0,0.0,nan,nan,175.722752281,288.207150917,288.488453856,288.707164032,nan,nan
0,93,1756,6,1,315,221,-0.0657111424032,0.426434809442,0.434956515233,1,1.0,1.0,0.217148699332,0,0.0,0.0,0.235953983152,0.246573193732,0.120698410437,0.367271604169,0.125874783296,nan,nan,0.0,0.0,0.0,nan,nan,175.722752281,289.207274364,289.424423063,289.707334805,nan,nan
0,94,1757,6,1,79,55,1.0,-0.184296021705,-0.724170777997,1,1.0,1.0,0.000985010294244,0,0.0,0.0,0.166478882854,0.246260167196,0.120092627125,0.366352794321,0.126167540071,nan,nan,0.0,0.0,0.0,nan,nan,175.722752281,290.20741007,290.208395081,290.707461103,nan,nan
0,95,1758,6,1,141,99,1.0,-0.291952736687,-0.024586852943,1,1.0,1.0,0.088908072561,0,1.0,0.0,0.102347260729,0.243678323439,0.122053358258,0.365731681698,0.121624965181,nan,nan,0.0,0.0,0.0,nan,nan,175.722752281,291.207532092,291.296440165,291.707587116,nan,nan
0,96,1804,6,1,479,336,0.572572153349,0.331768222426,-1.0,1,1.0,1.0,0.488717000699,1,0.0,0.0,0.192870027851,0.242066133326,0.122428611273,0.364494744599,0.119637522053,142.581834118,437.0,0.23613482661,0.429770237144,-1.0,-29.3787091179,2.42562930891,175.722752281,292.207636437,292.696353438,292.71600375,294.032836903,296.466507944
0,97,1805,6,1,286,201,0.169078956243,0.359734776014,0.594698705761,1,1.0,1.0,0.340780732455,0,0.0,0.0,0.306135268571,0.244608925773,0.124317970054,0.368926895827,0.120290955719,nan,nan,0.0,0.0,0.0,nan,nan,175.722752281,297.683450803,298.024231535,298.183375252,nan,nan
0,98,1806,6,1,109,76,1.0,-0.294638327523,-0.357773695079,1,1.0,1.0,0.300438365201,0,0.0,0.0,0.376645366118,0.245590270739,0.12405913392,0.36964940466,0.121531136819,nan,nan,0.0,0.0,0.0,nan,nan,175.722752281,298.691782763,298.992221128,299.191824102,nan,nan
0,99,1807,6,1,304,213,0.0113092810281,0.404708921832,0.506160370659,1,1.0,1.0,0.227994359564,0,0.0,0.0,0.289737819073,0.246144291895,0.123552772022,0.369697063917,0.122591519874,nan,nan,0.0,0.0,0.0,nan,nan,175.722752281,299.700252995,299.928247355,300.200287777,nan,nan
0,100,1808,6,1,348,244,-0.175384772129,0.468017843042,0.157582163916,1,1.0,1.0,0.147797140991,0,0.0,0.0,0.225409955252,0.245962792572,0.12294671959,0.368909512162,0.123016072982,nan,nan,0.0,0.0,0.0,nan,nan,175.722752281,300.70039868,300.848195821,301.2004155,nan,nan
0,101,1809,6,1,283,198,0.19826868328,0.351050922538,0.605825948857,1,1.0,1.0,0.0996693444904,0,0.0,0.0,0.158486948349,0.244990855428,0.122722042454,0.367712897881,0.122268812974,nan,nan,0.0,0.0,0.0,nan,nan,175.722752281,301.700505591,301.800174935,302.200566602,nan,nan
0,102,1810,6,1,191,134,1.0,-0.0691479807067,0.414571651978,1,1.0,1.0,0.0515252973419,0,1.0,0.0,0.0996639276079,0.243566134732,0.122955514396,0.366521649128,0.120610620336,nan,nan,0.0,0.0,0.0,nan,nan,175.722752281,302.700640157,302.752165454,303.200699742,nan,nan
0,103,1815,6,1,497,349,0.723174939644,0.271260599794,-1.0,1,1.0,1.0,0.0273419436999,1,0.0,0.0,0.0595121951774,0.241701660583,0.123797658161,0.365499318744,0.117904002421,128.703181281,457.0,0.391639248186,0.390358177281,-1.0,-28.156306281,2.36735148868,175.722752281,303.700765884,303.728107828,304.200838584,305.525959793,307.901290577
0,104,1816,6,1,25,17,1.0,0.0970682892709,-1.0,1,1.0,1.0,0.538209271617,0,0.0,0.0,0.205692170886,0.239640509459,0.124964297116,0.364604806575,0.114676212343,nan,nan,0.0,0.0,0.0,nan,nan,175.722752281,309.109793139,309.648002411,309.609851869,nan,nan
0,105,1817,6,1,213,149,0.929785093221,0.0521668813814,0.548906519778,1,1.0,1.0,0.322104027262,0,0.0,0.0,0.29588508086,0.24248402148,0.127703756124,0.370187777603,0.114780265356,nan,nan,0.0,0.0,0.0,nan,nan,175.722752281,310.109896344,310.432000372,310.609941675,nan,nan
0,106,1818,6,0,351,246,-0.175686286722,0.4701852659,0.128489978773,0,1.0,0.0,0.233898718609,0,0.0,0.0,0.364737339163,0.24323515361,0.127332787861,0.37056794147,0.115902365749,nan,nan,0.0,0.0,0.0,nan,nan,175.722752281,311.110069398,311.343968117,311.6100885,nan,nan
0,107,1819,6,1,196,137,1.0,-0.0413610816081,0.449130757868,1,1.0,1.0,0.14582312922,0,0.0,0.0,0.233941958363,0.243147897208,0.126739562013,0.369887459221,0.116408335195,nan,nan,0.0,0.0,0.0,nan,nan,175.722752281,312.110153502,312.255976631,312.610214228,nan,nan
0,108,1820,6,1,331,232,-0.143297839787,0.450801753776,0.311166711333,1,1.0,1.0,0.057641198393,0,0.0,0.0,0.145787682074,0.242246741949,0.126495369543,0.368742111492,0.115751372405,nan,nan,0.0,0.0,0.0,nan,nan,175.722752281,313.110299757,313.167940955,313.610355921,nan,nan
0,109,1821,6,1,221,155,0.851781464038,0.0945411604707,0.585422935822,1,1.0,1.0,0.161188432481,0,0.0,0.0,0.121550920031,0.240553113109,0.12713797436,0.367691087469,0.113415138749,nan,nan,0.0,0.0,0.0,nan,nan,175.722752281,314.11872865,314.279917082,314.618784814,nan,nan
0,110,1822,6,1,96,67,1.0,-0.25681952169,-0.503302481145,1,1.0,1.0,0.409014425473,0,0.0,0.0,0.209281352116,0.239831616012,0.126782724816,0.366614340828,0.113048891196,nan,nan,0.0,0.0,0.0,nan,nan,175.722752281,315.118866637,315.527881062,315.61890598,nan,nan
0,111,1823,6,1,51,35,1.0,-0.0385160204876,-1.0,1,1.0,1.0,0.368852809537,0,0.0,0.0,0.313018555831,0.241355785467,0.127218669803,0.368574455269,0.114137115664,nan,nan,0.0,0.0,0.0,nan,nan,175.722752281,316.119026291,316.4878791,316.619043682,nan,nan
0,112,1824,6,1,177,124,1.0,-0.145192147526,0.306921212481,1,1.0,1.0,0.487622228218,0,0.0,1.0,0.421829821076,0.242494151753,0.127216064689,0.369710216442,0.115278087064,nan,nan,0.0,0.0,0.0,nan,nan,175.722752281,317.144216608,317.631838836,317.652516067,nan,nan
0,113,1830,6,1,70,49,1.0,-0.13936984996,-0.906436913284,1,1.0,1.0,0.359239338432,1,0.0,0.0,0.405238125396,0.244663426766,0.128715775949,0.373379202715,0.115947650817,70.7873281828,27.0,1.0,0.0870912575778,-1.0,-30.0060781828,2.30058718589,175.722752281,318.152581639,318.511820977,318.652651488,319.977798355,322.286416154
0,114,1831,6,0,469,329,0.489482198204,0.360453357602,-1.0,0,0.0,1.0,0.500250600278,0,0.0,0.0,0.449037388976,0.245668478623,0.128594573886,0.374263052508,0.117073904737,nan,nan,0.0,0.0,0.0,nan,nan,175.722752281,323.494969748,323.995220348,323.9950319,nan,nan
0,115,1832,6,1,273,191,0.299732959835,0.319577193062,0.635038033336,1,1.0,1.0,0.248679288197,0,0.0,0.0,0.369389742302,0.247882236202,0.130197736536,0.378079972739,0.117684499666,nan,nan,0.0,0.0,0.0,nan,nan,175.722752281,324.495049575,324.743728864,324.995103744,nan,nan
0,116,1833,6,1,483,339,0.606025706087,0.319314454546,-1.0,1,1.0,1.0,0.208475477993,0,0.0,0.0,0.319135122156,0.24788910734,0.129635345619,0.377524452959,0.118253761721,nan,nan,0.0,0.0,0.0,nan,nan,175.722752281,325.495200107,325.703675585,325.995239735,nan,nan
0,117,1834,6,1,51,35,1.0,-0.0385160204876,-1.0,1,1.0,1.0,0.104365747655,0,0.0,0.0,0.187173504615,0.247552238713,0.12913114005,0.376683378763,0.118421098663,nan,nan,0.0,0.0,0.0,nan,nan,175.722752281,326.495326119,326.599691867,326.995371735,nan,nan
0,118,1835,6,0,493,346,0.689769084006,0.285700779988,-1.0,0,1.0,0.0,0.240124952281,0,0.0,0.0,0.18432205931,0.246338793874,0.129250978687,0.375589772561,0.117087815187,nan,nan,0.0,0.0,0.0,nan,nan,175.722752281,327.495512003,327.735636955,327.995525402,nan,nan
0,119,1836,6,1,180,126,1.0,-0.129278616986,0.331238955499,1,1.0,1.0,0.232103462797,0,0.0,0.0,0.192198054244,0.246286576717,0.128708011522,0.374994588239,0.117578565196,nan,nan,0.0,0.0,0.0,nan,nan,175.722752281,328.49557729,328.727680753,328.995614353,nan,nan
0,120,1837,6,1,390,274,-0.0641960347588,0.476284203309,-0.291947553613,1,1.0,1.0,0.271882478613,0,0.0,0.0,0.248036964564,0.246168384101,0.128177091028,0.37434547513,0.117991293073,nan,nan,0.0,0.0,0.0,nan,nan,175.722752281,329.495707294,329.767589773,329.995724115,nan,nan
0,121,1838,6,1,450,316,0.335949728395,0.405598329481,-1.0,1,1.0,1.0,0.407738046022,0,0.0,0.0,0.303907995811,0.246380897279,0.127667561255,0.374048458534,0.118713336024,nan,nan,0.0,0.0,0.0,nan,nan,175.722752281,330.495837869,330.903575915,330.9958698,nan,nan
0,122,1839,6,1,105,73,1.0,-0.285049837405,-0.401580786678,1,1.0,1.0,0.319620832335,0,0.0,0.0,0.333080452324,0.247703496859,0.12797292453,0.375676421389,0.119730572329,nan,nan,0.0,0.0,0.0,nan,nan,175.722752281,331.495950482,331.815571314,331.995979847,nan,nan
0,123,1840,6,1,317,222,-0.077772836126,0.429938605076,0.420733606481,1,1.0,1.0,0.34329300723,0,0.0,0.0,0.356883961863,0.248288190643,0.127615164692,0.375903355335,0.120673025952,nan,nan,0.0,0.0,0.0,nan,nan,175.722752281,332.496242421,332.839535429,332.996108711,nan,nan
0,124,1841,6,1,75,52,1.0,-0.164714458691,-0.791355921409,1,1.0,1.0,0.359279822093,0,0.0,0.0,0.340731220553,0.249054358519,0.127383268747,0.376437627266,0.121671089772,nan,nan,0.0,0.0,0.0,nan,nan,175.722752281,333.496217333,333.855497155,333.996260382,nan,nan
0,125,1842,6,1,373,262,-0.135407706169,0.478559568072,-0.0996974893599,1,1.0,1.0,0.287159116706,0,0.0,0.0,0.329910648676,0.249936162228,0.127252130922,0.37718829315,0.122684031306,nan,nan,0.0,0.0,0.0,nan,nan,175.722752281,334.496325385,334.783484501,334.996371855,nan,nan
0,126,1843,6,1,499,350,0.739831889234,0.263827757734,-1.0,1,1.0,1.0,0.311006056145,0,0.0,0.0,0.319148331648,0.250231582501,0.126789184324,0.377020766825,0.123442398178,nan,nan,0.0,0.0,0.0,nan,nan,175.722752281,335.49647278,335.807478836,335.996495017,nan,nan
0,127,1844,6,1,89,62,1.0,-0.229484098413,-0.587370487375,1,1.0,1.0,0.238871665671,0,0.0,0.0,0.279012279507,0.250710121664,0.126403213997,0.377113335661,0.124306907667,nan,nan,0.0,0.0,0.0,nan,nan,175.722752281,336.496579976,336.735451642,336.996627587,nan,nan
0,128,1845,6,1,146,102,1.0,-0.278792578557,0.0248813210997,1,1.0,1.0,0.206737811677,0,0.0,0.0,0.252205177831,0.250617633727,0.12591279729,0.376530431017,0.124704836436,nan,nan,0.0,0.0,0.0,nan,nan,175.722752281,337.49670827,337.703446082,337.996735924,nan,nan
0,129,1846,6,1,358,251,-0.170583909915,0.474268316859,0.0585874414746,1,1.0,1.0,0.1186106198,0,0.0,0.0,0.188073365716,0.250277480067,0.125482840349,0.375760320416,0.124794639718,nan,nan,0.0,0.0,0.0,nan,nan,175.722752281,338.496832857,338.615443477,338.996895579,nan,nan
0,130,1847,6,1,248,174,0.568115903494,0.223728204869,0.653295769881,1,1.0,1.0,0.294452468166,0,0.0,0.0,0.206600299881,0.249264658065,0.125527486498,0.374792144563,0.123737171567,nan,nan,0.0,0.0,0.0,nan,nan,175.722752281,339.496952313,339.791404781,339.996989946,nan,nan
0,131,1848,6,1,56,39,1.0,-0.0653675053377,-1.0,1,1.0,1.0,0.246285898611,0,0.0,0.0,0.219782995526,0.24960960318,0.12510929065,0.374718893831,0.12450031253,nan,nan,0.0,0.0,0.0,nan,nan,175.722752281,340.497078326,340.743364224,340.997112538,nan,nan
0,132,1849,6,1,106,74,1.0,-0.287630069369,-0.390564445695,1,1.0,1.0,0.34211270581,0,0.0,0.0,0.294283690862,0.2495844236,0.124634824066,0.374219247667,0.124949599534,nan,nan,0.0,0.0,0.0,nan,nan,175.722752281,341.4972223,341.839335005,341.997262498,nan,nan
0,133,1850,6,1,406,285,0.0244967455079,0.467245700284,-0.489366101921,1,1.0,1.0,0.3179245051,0,0.0,0.0,0.302107703174,0.25028012497,0.124422392026,0.374702516997,0.125857732944,nan,nan,0.0,0.0,0.0,nan,nan,175.722752281,342.497379103,342.815303608,342.997381384,nan,nan
0,134,1851,6,1,183,128,1.0,-0.113108999915,0.354902835149,1,1.0,1.0,0.253821582766,0,0.0,0.0,0.304619597892,0.250784933777,0.124093895675,0.374878829453,0.126691038102,nan,nan,0.0,0.0,0.0,nan,nan,175.722752281,343.497476036,343.751297619,343.997513384,nan,nan
0,135,1852,6,1,43,30,1.0,0.00424534395127,-1.0,1,1.0,1.0,0.2456914715,0,0.0,0.0,0.272479186455,0.250807427474,0.123633708559,0.374441136032,0.127173718915,nan,nan,0.0,0.0,0.0,nan,nan,175.722752281,344.497592071,344.743283542,344.997621721,nan,nan
0,136,1853,6,1,133,93,1.0,-0.306259573676,-0.105336427414,1,1.0,1.0,0.293564676307,0,0.0,0.0,0.264359243525,0.25076981015,0.123179109668,0.373948919818,0.127590700482,nan,nan,0.0,0.0,0.0,nan,nan,175.722752281,345.497714377,345.791279054,345.997748304,nan,nan
0,137,1854,6,1,75,52,1.0,-0.164714458691,-0.791355921409,1,1.0,1.0,0.413384107174,0,0.0,0.0,0.317546751661,0.251082181436,0.122782779192,0.373864960628,0.128299402244,nan,nan,0.0,0.0,0.0,nan,nan,175.722752281,346.497856926,346.911241033,346.997894844,nan,nan
0,138,1855,6,1,209,146,0.967301840512,0.0304835193525,0.52804999659,1,1.0,1.0,0.389251215383,0,0.0,0.0,0.365399999622,0.252258282347,0.123109169189,0.375367451536,0.129149113158,nan,nan,0.0,0.0,0.0,nan,nan,175.722752281,347.497960131,347.887211346,347.998003751,nan,nan
0,139,1856,6,1,395,277,-0.0383984177995,0.474183508328,-0.351427224487,1,1.0,1.0,0.301088671433,0,0.0,0.0,0.367907997997,0.253243843016,0.123210697738,0.376454540755,0.130033145278,nan,nan,0.0,0.0,0.0,nan,nan,175.722752281,348.498097833,348.799186504,348.99813404,nan,nan
0,140,1857,6,1,291,204,0.122027637739,0.373441943191,0.573791926984,1,1.0,1.0,0.260933327721,0,0.0,0.0,0.317091071513,0.253585591791,0.122835969193,0.376421560984,0.130749622598,nan,nan,0.0,0.0,0.0,nan,nan,175.722752281,349.49823639,349.759169718,349.998274878,nan,nan
0,141,1858,6,1,73,51,1.0,-0.1546788618,-0.830916872461,1,1.0,1.0,0.212826913688,0,0.0,0.0,0.258282970948,0.253637703393,0.122401158624,0.376038862017,0.131236544769,nan,nan,0.0,0.0,0.0,nan,nan,175.722752281,350.498362973,350.711189887,350.998380649,nan,nan
0,142,1859,6,0,376,264,-0.124962824795,0.478704673615,-0.132627625282,0,1.0,0.0,0.156642275862,0,0.0,0.0,0.210134172424,0.253350303466,0.122017141018,0.375367444484,0.131333162448,nan,nan,0.0,0.0,0.0,nan,nan,175.722752281,351.498505521,351.655147797,351.998537452,nan,nan
0,143,1900,6,1,169,118,1.0,-0.185917379452,0.239118302078,1,1.0,1.0,0.00284384284168,0,0.0,0.0,0.124104344131,0.252674023552,0.121856529897,0.374530553449,0.130817493656,nan,nan,0.0,0.0,0.0,nan,nan,175.722752281,352.540285348,352.543129191,353.040364605,nan,nan
0,144,1901,6,1,61,42,1.0,-0.0921163965413,-1.0,1,1.0,1.0,0.266705116723,0,0.0,0.0,0.142063745142,0.250939091742,0.123192224048,0.37413131579,0.127746867694,nan,nan,0.0,0.0,0.0,nan,nan,175.722752281,353.540403378,353.807108495,354.040433028,nan,nan
0,145,1902,6,1,294,206,0.0948761993654,0.381212130724,0.559858230992,1,1.0,1.0,0.36257839459,0,0.0,0.0,0.210709118051,0.251047822949,0.122773621753,0.373821444702,0.128274201195,nan,nan,0.0,0.0,0.0,nan,nan,175.722752281,354.540521123,354.903099518,355.040569019,nan,nan
0,146,1903,6,1,343,241,-0.171388175652,0.463836419185,0.204822810802,1,1.0,1.0,0.298384526279,0,0.0,0.0,0.309222679197,0.251811730974,0.122697740545,0.374509471519,0.129113990429,nan,nan,0.0,0.0,0.0,nan,nan,175.722752281,355.54065911,355.839043636,356.040689045,nan,nan
0,147,1904,6,1,52,36,1.0,-0.0438860552364,-1.0,1,1.0,1.0,0.362291587051,0,0.0,0.0,0.341084835973,0.25212855271,0.12233959811,0.374468150821,0.1297889546,nan,nan,0.0,0.0,0.0,nan,nan,175.722752281,356.540775144,356.903066732,357.040813633,nan,nan
0,148,1905,6,0,122,85,1.0,-0.311159539646,-0.219144224573,0,0.0,1.0,0.554084328236,0,0.0,0.0,0.404920147189,0.252872897537,0.12225912758,0.375132025117,0.130613769957,nan,nan,0.0,0.0,0.0,nan,nan,175.722752281,357.54093708,358.095021408,358.04098127,nan,nan
0,149,1906,6,1,206,144,0.994723455659,0.014051917983,0.511316161583,1,1.0,1.0,0.281953815371,0,0.0,0.0,0.399443243553,0.254894450763,0.124305290021,0.379199740785,0.130589160742,nan,nan,0.0,0.0,0.0,nan,nan,175.722752281,358.541035723,358.822989539,359.041067939,nan,nan
0,150,1907,6,1,0,0,0.846831709088,0.212097570855,-1.0,1,1.0,1.0,0.35381166148,0,0.0,0.0,0.396616601696,0.255074846527,0.123909813757,0.378984660284,0.13116503277,nan,nan,0.0,0.0,0.0,nan,nan,175.722752281,359.541175706,359.894987367,360.041213054,nan,nan
0,151,1908,6,1,451,317,0.343830962376,0.403518361206,-1.0,1,1.0,1.0,0.425636721542,0,0.0,0.0,0.353800732798,0.255728732719,0.12375822102,0.379486953739,0.131970511699,nan,nan,0.0,0.0,0.0,nan,nan,175.722752281,360.541321961,360.966958682,361.041314263,nan,nan
0,152,1909,6,0,108,75,1.0,-0.292426609412,-0.368663285579,0,1.0,0.0,0.273493276676,0,0.0,0.0,0.350980553233,0.256846548435,0.124112891274,0.380959439709,0.132733657161,nan,nan,0.0,0.0,0.0,nan,nan,175.722752281,361.541441416,361.814934693,362.041476198,nan,nan
0,153,1910,6,1,164,115,1.0,-0.209685835145,0.194761549991,1,1.0,1.0,0.113376523834,0,0.0,0.0,0.270835507351,0.25695535058,0.123713901158,0.380669251738,0.133241449422,nan,nan,0.0,0.0,0.0,nan,nan,175.722752281,362.541592232,362.654968756,363.041569995,nan,nan
0,154,1911,6,1,410,288,0.0492046846968,0.463921527344,-0.54316189137,1,1.0,1.0,0.449210252613,0,0.0,0.0,0.278693351041,0.256023020536,0.123849662888,0.379872683425,0.132173357648,nan,nan,0.0,0.0,0.0,nan,nan,175.722752281,363.54167206,363.990882312,364.041704846,nan,nan
0,155,1912,6,1,363,255,-0.162287729338,0.476365729747,0.00704812682028,1,1.0,1.0,0.376728899544,0,0.0,0.0,0.31310522533,0.257269389776,0.124414663839,0.381684053615,0.132854725936,nan,nan,0.0,0.0,0.0,nan,nan,175.722752281,364.550138871,364.92686777,365.050163959,nan,nan
0,156,1913,6,1,313,220,-0.0530221528698,0.42279583272,0.448797959603,1,1.0,1.0,0.400269074598,0,0.0,1.0,0.408736075585,0.258035155864,0.124381171437,0.382416327301,0.133653984427,nan,nan,0.0,0.0,0.0,nan,nan,175.722752281,365.558577457,365.958846532,366.058618226,nan,nan
0,157,1918,6,1,176,123,1.0,-0.150429669724,0.298675466069,1,1.0,1.0,0.264097334351,1,0.0,0.0,0.347031769498,0.258941104391,0.124499688105,0.383440792496,0.134441416286,-171.583625612,372.0,-0.138660017671,0.478458869494,-0.0888123791441,137.833625612,1.85054216883,175.722752281,366.558729414,366.822826748,367.058750226,368.383919331,370.242477288
0,158,1919,6,1,510,358,0.830554458933,0.220436700166,-1.0,1,1.0,1.0,0.371719745221,0,0.0,0.0,0.34536205139,0.258973738758,0.124105750016,0.383079488773,0.134867988742,nan,nan,0.0,0.0,0.0,nan,nan,175.722752281,371.450996385,371.822716131,371.951035729,nan,nan
0,159,1920,6,1,204,143,1.0,0.00303256528985,0.499654420455,1,1.0,1.0,0.363569961861,0,0.0,0.0,0.333129013811,0.259682833138,0.124035529246,0.383718362384,0.135647303892,nan,nan,0.0,0.0,0.0,nan,nan,175.722752281,372.451121258,372.81469122,372.951159746,nan,nan
0,160,1921,6,1,80,56,1.0,-0.189075709245,-0.708965549488,1,1.0,1.0,0.323422600981,0,0.0,0.0,0.352904102687,0.260332127693,0.123918074552,0.384250202245,0.13641405314,nan,nan,0.0,0.0,0.0,nan,nan,175.722752281,373.451258675,373.774681276,373.951286329,nan,nan
0,161,1922,6,1,11,7,0.934659501434,0.163852895862,-1.0,1,1.0,1.0,0.131313116988,0,0.0,0.0,0.272768559943,0.260723993986,0.123632041639,0.384356035626,0.137091952347,nan,nan,0.0,0.0,0.0,nan,nan,175.722752281,374.451381266,374.582694383,374.951448264,nan,nan
0,162,1923,6,1,361,253,-0.166047812515,0.475607712818,0.0278173107143,1,1.0,1.0,0.195172281237,0,0.0,0.0,0.216635999735,0.259925161412,0.123665961722,0.383591123134,0.13625919969,nan,nan,0.0,0.0,0.0,nan,nan,175.722752281,375.45149331,375.646665591,375.95153978,nan,nan
0,163,1924,6,1,468,329,0.481236483515,0.363131620867,-1.0,1,1.0,1.0,0.490999202244,0,0.0,0.0,0.272494866823,0.259527904479,0.123389675676,0.382917580154,0.136138228803,nan,nan,0.0,0.0,0.0,nan,nan,175.722752281,376.451618467,376.942617669,376.960017425,nan,nan
0,164,1925,6,1,209,146,0.967301840512,0.0304835193525,0.52804999659,1,1.0,1.0,0.194839573232,0,0.0,0.0,0.293670352238,0.260939314831,0.124325723528,0.385265038358,0.136613591303,nan,nan,0.0,0.0,0.0,nan,nan,175.722752281,377.451769568,377.646609142,377.951812333,nan,nan
0,165,1926,6,1,154,108,1.0,-0.251813147593,0.102138173725,1,1.0,1.0,0.402662748937,0,0.0,0.0,0.362833841471,0.260538710336,0.124054531582,0.384593241919,0.136484178754,nan,nan,0.0,0.0,0.0,nan,nan,175.722752281,378.451897007,378.854559756,378.951925232,nan,nan
0,166,1927,6,1,247,173,0.578947625354,0.219392674348,0.6523805853,1,1.0,1.0,0.282527145464,0,0.0,0.0,0.293343155878,0.261394879244,0.124168305018,0.385563184261,0.137226574226,nan,nan,0.0,0.0,0.0,nan,nan,175.722752281,379.452025871,379.734553016,379.952046113,nan,nan
0,167,1928,6,0,154,108,1.0,-0.251813147593,0.102138173725,0,1.0,0.0,0.466387347551,0,0.0,0.0,0.383859080651,0.26152141976,0.123806720667,0.385328140427,0.137714699092,nan,nan,0.0,0.0,0.0,nan,nan,175.722752281,380.452166994,380.918554341,380.952194933,nan,nan
0,168,1929,6,1,20,14,1.0,0.121558187834,-1.0,1,nan,nan,nan,0,0.0,0.0,0.374457246508,0.262740859806,0.124439543756,0.387180403562,0.138301316051,nan,nan,0.0,0.0,0.0,nan,nan,175.722752281,381.452261076,nan,381.952338622,nan,nan
0,169,1930,6,1,118,82,1.0,-0.308588151016,-0.261285249573,1,nan,nan,nan,0,0.0,0.0,0.466387347551,0.262740859806,0.124439543756,0.387180403562,0.138301316051,nan,nan,0.0,0.0,0.0,nan,nan,175.722752281,382.452411322,nan,382.95251025,nan,nan
0,170,1931,6,1,459,322,0.407758158413,0.385709174134,-1.0,1,1.0,1.0,0.113961827708,0,0.0,0.0,0.113961827708,0.262740859806,0.124439543756,0.387180403562,0.138301316051,nan,nan,0.0,0.0,0.0,nan,nan,175.722752281,383.452539901,383.566501728,383.952591503,nan,nan
0,171,1932,6,1,322,226,-0.105067232891,0.43811622051,0.383559350674,1,1.0,1.0,0.145842515863,0,0.0,0.0,0.129902171786,0.261860510504,0.124594438679,0.386454949183,0.137266071825,nan,nan,0.0,0.0,0.0,nan,nan,175.722752281,384.4526394,384.598481915,384.952714095,nan,nan
0,172,1933,6,1,487,342,0.639529740128,0.306295026098,-1.0,1,1.0,1.0,0.185650041094,0,0.0,0.0,0.148484794889,0.261178051712,0.124543846021,0.385721897732,0.136634205691,nan,nan,0.0,0.0,0.0,nan,nan,175.722752281,385.452789646,385.638439687,385.952826708,nan,nan
0,173,1934,6,1,336,236,-0.158211608236,0.456758111158,0.268135266647,1,1.0,1.0,0.041598504642,0,1.0,0.0,0.1243636872,0.260736367439,0.124312611738,0.385048979177,0.136423755702,nan,nan,0.0,0.0,0.0,nan,nan,175.722752281,386.452892281,386.494490785,386.952967261,nan,nan
0,174,1940,6,1,383,269,-0.0968787136249,0.478131214543,-0.211081409456,1,1.0,1.0,0.489334806101,1,0.0,0.0,0.238861117279,0.259462310097,0.125065381934,0.384527692032,0.134396928163,149.681103799,427.0,0.163265173604,0.444863218481,-0.840208708629,31.0220212008,3.00903130299,175.722752281,387.453035114,387.94236992,387.961393018,389.278228168,392.295276114
0,175,1941,6,1,201,141,1.0,-0.0135712615467,0.48142235136,1,1.0,1.0,0.390460026916,0,0.0,0.0,0.307131112553,0.260791052849,0.125915103095,0.386706155944,0.134875949753,nan,nan,0.0,0.0,0.0,nan,nan,175.722752281,393.503786088,393.894246115,394.003819159,nan,nan
0,176,1942,6,1,499,350,0.739831889234,0.263827757734,-1.0,1,1.0,1.0,0.438332946738,0,0.0,0.0,0.439375926585,0.261536276838,0.125934791826,0.387471068664,0.135601485012,nan,nan,0.0,0.0,0.0,nan,nan,175.722752281,394.503910961,394.942243907,395.003948309,nan,nan
0,177,1943,6,1,282,198,0.208142307666,0.34807905204,0.609295500931,1,1.0,1.0,0.318191926228,0,0.0,0.0,0.382328299961,0.262546543523,0.126279597776,0.388826141299,0.136266945746,nan,nan,0.0,0.0,0.0,nan,nan,175.722752281,395.504036688,395.822228615,396.004090002,nan,nan
0,178,1944,6,1,115,80,1.0,-0.305166285737,-0.293172749504,1,1.0,1.0,0.213615776971,0,0.0,0.0,0.323380216646,0.26286271047,0.125989780383,0.388852490853,0.136872930087,nan,nan,0.0,0.0,0.0,nan,nan,175.722752281,396.512586463,396.72620224,397.012540277,nan,nan
0,179,1945,6,1,434,305,0.213881816697,0.43461034373,-1.0,1,1.0,1.0,0.25317954435,0,0.0,0.0,0.26166241585,0.262584479207,0.125687584983,0.388272064191,0.136896894224,nan,nan,0.0,0.0,0.0,nan,nan,175.722752281,397.520996825,397.774176369,398.021023339,nan,nan
0,180,1946,6,1,268,188,0.35230222188,0.302367520405,0.645005310408,1,1.0,1.0,0.141103918431,0,0.0,0.0,0.202633079917,0.262531642495,0.125336003961,0.387867646456,0.137195638534,nan,nan,0.0,0.0,0.0,nan,nan,175.722752281,398.521110008,398.662213926,399.021134811,nan,nan
0,181,1947,6,1,511,359,0.838703193994,0.216284169582,-1.0,1,1.0,1.0,0.101008730242,0,0.0,0.0,0.165097397674,0.261853275321,0.125312672448,0.387165947769,0.136540602873,nan,nan,0.0,0.0,0.0,nan,nan,175.722752281,399.521224047,399.622232777,400.021293325,nan,nan
0,182,1948,6,1,418,293,0.101175887384,0.455961754156,-0.661679309199,1,1.0,1.0,0.100522639696,0,1.0,0.0,0.11421176279,0.260959694515,0.125534674977,0.386494369493,0.135425019538,nan,nan,0.0,0.0,0.0,nan,nan,175.722752281,400.529675748,400.630198387,401.029746452,nan,nan
0,183,1952,6,1,184,129,1.0,-0.107671891867,0.362640045218,1,1.0,1.0,0.0762925301678,1,0.0,0.0,0.0926079667018,0.260073301947,0.125750996399,0.385824298346,0.134322305548,-61.0279149694,215.0,0.910639861846,0.0628947364355,0.558695148714,21.6529149694,1.4506522736,175.722752281,401.529818296,401.606110826,402.029878737,403.35501306,404.813561666
0,184,1953,6,1,228,160,0.780729811514,0.1302769546,0.611433142569,1,1.0,1.0,0.511952977162,0,0.0,0.0,0.229589382342,0.259063517487,0.126138757178,0.385202274665,0.132924760309,nan,nan,0.0,0.0,0.0,nan,nan,175.722752281,406.022039424,406.533992402,406.522110984,nan,nan
0,185,1954,6,0,397,279,-0.0275613476434,0.473159987783,-0.37569455347,0,1.0,0.0,0.319822110934,0,0.0,0.0,0.302689206088,0.260445427102,0.127167611778,0.38761303888,0.133277815325,nan,nan,0.0,0.0,0.0,nan,nan,175.722752281,407.022200504,407.342022615,407.522229869,nan,nan
0,186,1955,6,1,255,179,0.492159363509,0.253017189294,0.656163111527,1,1.0,1.0,0.343375685392,0,0.0,0.0,0.391716924496,0.260768126471,0.126896686443,0.387664812914,0.133871440028,nan,nan,0.0,0.0,0.0,nan,nan,175.722752281,408.030622555,408.37399824,408.530663324,nan,nan
0,187,1956,6,1,79,55,1.0,-0.184296021705,-0.724170777997,1,1.0,1.0,0.311195930699,0,0.0,0.0,0.324797909008,0.261214653817,0.126698122254,0.387912776071,0.134516531562,nan,nan,0.0,0.0,0.0,nan,nan,175.722752281,409.030752274,409.341948205,409.530821268,nan,nan
0,188,1957,6,1,346,243,-0.174317561957,0.466431294057,0.176670174816,1,1.0,1.0,0.215091153979,0,0.0,0.0,0.289887590023,0.261483370359,0.126409926304,0.387893296663,0.135073444055,nan,nan,0.0,0.0,0.0,nan,nan,175.722752281,410.030874581,410.245965735,410.530912213,nan,nan
0,189,1958,6,1,249,175,0.557275547736,0.228026269286,0.654084877906,1,1.0,1.0,0.277201533318,0,0.0,0.0,0.267829539332,0.26123528364,0.126116872406,0.387352156046,0.135118411235,nan,nan,0.0,0.0,0.0,nan,nan,175.722752281,411.072698027,411.34989956,411.57272112,nan,nan
0,190,1959,6,1,340,239,-0.166837174664,0.460980112934,0.232376404312,1,1.0,1.0,0.221074484987,0,0.0,0.0,0.237789057428,0.2613202105,0.125786369358,0.387106579859,0.135533841142,nan,nan,0.0,0.0,0.0,nan,nan,175.722752281,412.072821189,412.293895674,412.572851124,nan,nan
0,191,2000,6,1,166,116,1.0,-0.20036215083,0.21267421211,1,1.0,1.0,0.252973989351,0,0.0,0.0,0.250416669218,0.261107270154,0.125487130459,0.386594400613,0.135620139694,nan,nan,0.0,0.0,0.0,nan,nan,175.722752281,413.072926675,413.325900664,413.572977137,nan,nan
0,192,2001,6,0,67,47,1.0,-0.12380466598,-1.0,0,0.0,1.0,0.420757571235,0,0.0,0.0,0.298268681858,0.261064463413,0.125157849077,0.38622231249,0.135906614336,nan,nan,0.0,0.0,0.0,nan,nan,175.722752281,414.073094027,414.493851598,414.573113698,nan,nan
0,193,2002,6,1,478,336,0.56422249903,0.334793662244,-1.0,1,1.0,1.0,0.116657705279,0,0.0,0.0,0.263463088622,0.261900552982,0.125360651162,0.387261204144,0.136539901821,nan,nan,0.0,0.0,0.0,nan,nan,175.722752281,415.073192385,415.18985009,415.573253396,nan,nan
0,194,2003,6,1,186,130,1.0,-0.0967386681424,0.377881386018,1,nan,nan,nan,0,0.0,0.0,0.268707638257,0.261144079817,0.125470085842,0.386614165659,0.135673993976,nan,nan,0.0,0.0,0.0,nan,nan,175.722752281,416.081633823,nan,416.581731896,nan,nan
0,195,2004,6,1,367,258,-0.15309091083,0.477560897992,-0.0350816338538,1,1.0,1.0,0.228006904013,0,0.0,0.0,0.172332304646,0.261144079817,0.125470085842,0.386614165659,0.135673993976,nan,nan,0.0,0.0,0.0,nan,nan,175.722752281,417.081792336,417.30979924,417.581823127,nan,nan
0,196,2005,6,0,50,35,1.0,-0.033148730948,-1.0,0,1.0,0.0,0.0438841274008,0,0.0,0.0,0.135945515707,0.260972384606,0.125167223516,0.386139608121,0.13580516109,nan,nan,0.0,0.0,0.0,nan,nan,175.722752281,418.081925762,418.125809889,418.581966816,nan,nan
0,197,2006,6,1,196,137,1.0,-0.0413610816081,0.449130757868,1,1.0,1.0,0.0997158151586,0,0.0,0.0,0.123868948858,0.259853372971,0.125808382335,0.385661755306,0.134044990636,nan,nan,0.0,0.0,0.0,nan,nan,175.722752281,419.082028112,419.181743927,419.582089693,nan,nan
0,198,2007,6,1,332,233,-0.146647089803,0.45205423783,0.302714191958,1,1.0,1.0,0.115619951859,0,0.0,0.0,0.0864066314728,0.259032154726,0.126005613393,0.385037768119,0.133026541332,nan,nan,0.0,0.0,0.0,nan,nan,175.722752281,420.082176932,420.197796884,420.582215991,nan,nan
0,199,2008,6,1,148,104,1.0,-0.272695592461,0.0444264621409,1,1.0,1.0,0.178834511898,0,1.0,0.0,0.131390092972,0.258300459813,0.126098398051,0.384398857864,0.132202061762,nan,nan,0.0,0.0,0.0,nan,nan,175.722752281,421.09088294,421.269717452,421.590653152,nan,nan
0,200,2014,6,1,396,278,-0.0330153705648,0.473684876347,-0.363523780775,1,1.0,1.0,0.282931413036,1,0.0,0.0,0.192461958931,0.257897079367,0.125904660492,0.383801739859,0.131992418875,161.205834696,411.0,0.0555201669072,0.463022710015,-0.557054760163,10.3566653045,2.77563948673,175.722752281,422.090768046,422.373699459,422.590794275,423.915952261,426.699629488
0,201,2015,6,1,189,132,1.0,-0.0802194643608,0.400143472992,1,1.0,1.0,0.321466835681,0,0.0,0.0,0.261077586872,0.258023515395,0.125598854558,0.383622369954,0.132424660837,nan,nan,0.0,0.0,0.0,nan,nan,175.722752281,427.908137467,428.229604302,428.408179091,nan,nan
0,202,2016,6,1,79,55,1.0,-0.184296021705,-0.724170777997,1,1.0,1.0,0.265252547571,0,0.0,0.0,0.289883598763,0.25834232605,0.12536317367,0.38370549972,0.13297915238,nan,nan,0.0,0.0,0.0,nan,nan,175.722752281,428.908283151,429.173535699,429.408303393,nan,nan
0,203,2017,6,1,142,99,1.0,-0.289568116499,-0.0146273521697,1,1.0,1.0,0.257158358349,0,0.0,0.0,0.281292580534,0.258376877158,0.125050322863,0.38342720002,0.133326554295,nan,nan,0.0,0.0,0.0,nan,nan,175.722752281,429.908410305,430.165568663,430.408430262,nan,nan
0,204,2018,6,1,89,62,1.0,-0.229484098413,-0.587370487375,1,1.0,1.0,0.500262289308,0,0.0,0.0,0.340891065076,0.258370814875,0.124738894001,0.383109708877,0.133631920874,nan,nan,0.0,0.0,0.0,nan,nan,175.722752281,430.908518071,431.408780361,431.408599894,nan,nan
0,205,2019,6,1,2,1,0.863024578927,0.203622855609,-1.0,1,1.0,1.0,0.464831002988,0,0.0,1.0,0.407417216881,0.259568297422,0.125582601739,0.38515089916,0.133985695683,nan,nan,0.0,0.0,0.0,nan,nan,175.722752281,431.908653778,432.373484781,432.408678296,nan,nan
0,206,2024,6,1,222,156,0.841778467246,0.0997291618919,0.589484691865,1,1.0,1.0,0.45669376431,1,0.0,0.0,0.473929018869,0.260579443755,0.126094521964,0.386673965718,0.134484921791,-78.5223730404,240.0,0.654373017221,0.188015059697,0.642463954019,12.4286230404,1.50882460782,175.722752281,432.908773803,433.365467568,433.408809726,434.733975695,436.2508446
0,207,2025,6,1,377,265,-0.121259861678,0.478700828387,-0.143695900877,1,1.0,1.0,0.274025837891,0,0.0,0.0,0.398516868396,0.261540788463,0.126528642664,0.388069431127,0.135012145799,nan,nan,0.0,0.0,0.0,nan,nan,175.722752281,437.45935486,437.733380697,437.959389641,nan,nan
0,208,2026,6,1,18,12,0.988682696815,0.131162580546,-1.0,1,1.0,1.0,0.209883572068,0,0.0,0.0,0.313534391423,0.261601691143,0.126222656322,0.387824347465,0.135379034822,nan,nan,0.0,0.0,0.0,nan,nan,175.722752281,438.45948743,438.669371002,438.959541598,nan,nan
0,209,2027,6,1,174,122,1.0,-0.160790688716,0.281981279739,1,1.0,1.0,0.161716717528,0,0.0,0.0,0.215208709162,0.261350632313,0.125967216574,0.387317848886,0.135383415739,nan,nan,0.0,0.0,0.0,nan,nan,175.722752281,439.459611447,439.621328164,439.959670177,nan,nan
0,210,2028,6,1,433,304,0.206536295144,0.436163724167,-1.0,1,1.0,1.0,0.0896493250038,0,0.0,0.0,0.153749871533,0.260869309053,0.125852327562,0.386721636615,0.135016981491,nan,nan,0.0,0.0,0.0,nan,nan,175.722752281,440.459749719,440.549399044,440.959800181,nan,nan
0,211,2029,6,0,382,268,-0.1011887567,0.478291136399,-0.199732273247,0,1.0,0.0,0.193412377266,0,0.0,0.0,0.148259473266,0.260046136053,0.126106805089,0.386152941142,0.133939330963,nan,nan,0.0,0.0,0.0,nan,nan,175.722752281,441.459888276,441.653300653,441.959924768,nan,nan
0,212,2030,6,1,162,113,1.0,-0.218739557155,0.176632971453,1,1.0,1.0,0.0893248845823,0,0.0,0.0,0.124128862284,0.25972731424,0.125888753993,0.385616068233,0.133838560248,nan,nan,0.0,0.0,0.0,nan,nan,175.722752281,442.460000319,442.549325204,442.960052207,nan,nan
0,213,2031,6,1,425,298,0.149162615564,0.447529597292,-0.791715667876,1,1.0,1.0,0.0714065374341,0,0.0,0.0,0.118047933094,0.258915874099,0.126135343003,0.385051217103,0.132780531096,nan,nan,0.0,0.0,0.0,nan,nan,175.722752281,443.501905873,443.573312411,444.001841441,nan,nan
0,214,2032,6,1,250,175,0.546428449327,0.232286661223,0.654747725831,1,1.0,1.0,0.223335304298,0,1.0,0.0,0.128022242105,0.258027204257,0.126493341636,0.384520545893,0.131533862621,nan,nan,0.0,0.0,0.0,nan,nan,175.722752281,444.50192526,444.725260564,445.001956051,nan,nan
0,215,2037,6,1,413,290,0.0683106243366,0.461143133648,-0.585495598612,1,1.0,1.0,0.287149423501,1,0.0,0.0,0.193963755077,0.25786356322,0.12621704066,0.384080603879,0.13164652256,169.309761724,399.0,-0.0164460389312,0.472031251936,-0.400274523968,-9.7003867235,1.85051251901,175.722752281,445.502041294,445.789190718,446.002084629,447.327257156,449.185805419
0,216,2038,6,1,250,175,0.546428449327,0.232286661223,0.654747725831,1,1.0,1.0,0.266786939697,0,0.0,0.0,0.259090555832,0.258001055521,0.125936320481,0.383937376002,0.132064735041,nan,nan,0.0,0.0,0.0,nan,nan,175.722752281,450.394315394,450.661102333,450.894352741,nan,nan
0,217,2039,6,1,18,12,0.988682696815,0.131162580546,-1.0,1,1.0,1.0,0.226633591577,0,0.0,0.0,0.260189984925,0.258042111055,0.125643160944,0.383685271999,0.132398950111,nan,nan,0.0,0.0,0.0,nan,nan,175.722752281,451.394443687,451.621077279,451.894513821,nan,nan
0,218,2040,6,1,348,244,-0.175384772129,0.468017843042,0.157582163916,1,1.0,1.0,0.178474719636,0,0.0,0.0,0.223965083637,0.257896024918,0.125368842605,0.383264867523,0.132527182313,nan,nan,0.0,0.0,0.0,nan,nan,175.722752281,452.394589657,452.573064377,452.894642115,nan,nan
0,219,2041,6,1,417,293,0.0945046041228,0.457053563907,-0.645720198395,1,1.0,1.0,0.338350850623,0,0.0,0.0,0.247819720612,0.25752833369,0.125194442858,0.382722776548,0.132333890832,nan,nan,0.0,0.0,0.0,nan,nan,175.722752281,453.394699704,453.733050555,453.894740758,nan,nan
0,220,2042,6,0,509,357,0.822386376617,0.224555004187,-1.0,0,0.0,1.0,0.514176163822,0,0.0,0.0,0.343667244694,0.257900787685,0.125025532092,0.382926319777,0.132875255593,nan,nan,0.0,0.0,0.0,nan,nan,175.722752281,454.394842253,454.909018417,454.894901553,nan,nan
0,221,2043,6,1,320,225,-0.0946500390753,0.43494401576,0.398701238857,1,1.0,1.0,0.226030896651,0,0.0,0.0,0.359519303699,0.259076362805,0.125934780975,0.385011143779,0.13314158183,nan,nan,0.0,0.0,0.0,nan,nan,175.722752281,455.394967981,455.620998877,455.895034123,nan,nan
0,222,2044,6,1,181,127,1.0,-0.123914391386,0.3392011262,1,1.0,1.0,0.249886673875,0,0.0,0.0,0.330031244783,0.258925470265,0.125666680076,0.384592150341,0.133258790189,nan,nan,0.0,0.0,0.0,nan,nan,175.722752281,456.395099125,456.644985799,456.895132767,nan,nan
0,223,2045,6,1,128,90,1.0,-0.310663006781,-0.156689791083,1,1.0,1.0,0.337743023643,0,0.0,0.0,0.271220198056,0.258884384827,0.125382222893,0.38426660772,0.133502161934,nan,nan,0.0,0.0,0.0,nan,nan,175.722752281,457.395224853,457.732967877,457.895252793,nan,nan
0,224,2046,6,1,211,148,0.948675772315,0.0413606888024,0.538689155053,1,1.0,1.0,0.233579125023,0,0.0,0.0,0.27373627418,0.259241211247,0.12521013913,0.384451350377,0.134031072117,nan,nan,0.0,0.0,0.0,nan,nan,175.722752281,458.395346304,458.628925429,458.895395626,nan,nan
0,225,2047,6,1,428,300,0.170378320166,0.443486568519,-0.86866140055,1,1.0,1.0,0.177422426408,0,0.0,0.0,0.249581525025,0.259125616264,0.124939634473,0.384065250737,0.134185981791,nan,nan,0.0,0.0,0.0,nan,nan,175.722752281,459.39547916,459.572901586,459.89552278,nan,nan
0,226,2048,6,1,209,146,0.967301840512,0.0304835193525,0.52804999659,1,1.0,1.0,0.145336183487,0,0.0,0.0,0.185445911639,0.258759234247,0.124778656025,0.383537890272,0.133980578222,nan,nan,0.0,0.0,0.0,nan,nan,175.722752281,460.395600896,460.54093708,460.895660766,nan,nan
0,227,2049,6,1,302,212,0.027086081288,0.400300843718,0.517770016443,1,1.0,1.0,0.177167549962,0,0.0,0.0,0.166642053286,0.258252881342,0.124729230937,0.382982112278,0.133523650405,nan,nan,0.0,0.0,0.0,nan,nan,175.722752281,461.395728905,461.572896454,461.89577566,nan,nan
0,228,2050,6,1,33,23,1.0,0.0565990290419,-1.0,1,1.0,1.0,0.297021192499,0,0.0,0.0,0.206508308649,0.257892502091,0.124568570402,0.382461072493,0.133323931689,nan,nan,0.0,0.0,0.0,nan,nan,175.722752281,462.395855203,462.692876395,462.895876015,nan,nan
0,229,2051,6,1,134,94,1.0,-0.304950998219,-0.095144111098,1,1.0,1.0,0.408884991193,0,0.0,0.0,0.294357911218,0.258065637889,0.124319799656,0.382385437545,0.133745838233,nan,nan,0.0,0.0,0.0,nan,nan,175.722752281,463.395984352,463.804869343,463.89603795,nan,nan
0,230,2052,6,1,80,56,1.0,-0.189075709245,-0.708965549488,1,1.0,1.0,0.368701138068,0,0.0,0.0,0.358202440587,0.258730040327,0.124447138914,0.383177179241,0.134282901413,nan,nan,0.0,0.0,0.0,nan,nan,175.722752281,464.396107798,464.764808937,464.896130606,nan,nan
0,231,2053,6,1,236,165,0.697004556276,0.169301754335,0.634065852989,1,1.0,1.0,0.648556069238,0,0.0,1.0,0.475380732833,0.259212369703,0.124386390727,0.38359876043,0.134825978975,nan,nan,0.0,0.0,0.0,nan,nan,175.722752281,465.396235807,466.044791876,465.896285129,nan,nan
0,232,2057,6,1,427,300,0.163265173604,0.444863218481,-0.840208708629,1,1.0,1.0,0.384370069485,1,0.0,0.0,0.467209092264,0.26091256053,0.126741780522,0.387654341053,0.134170780008,-177.588970253,381.0,-0.105403061426,0.478425078289,-0.188431136224,-32.6454047466,1.67552054441,175.722752281,466.39640658,466.78077665,466.896404299,468.22154404,469.905094627
0,233,2058,6,1,44,30,1.0,-0.00106984144607,-1.0,1,1.0,1.0,0.33106320072,0,0.0,0.0,0.454663113148,0.261449332309,0.12672654852,0.388175880829,0.134722783788,nan,nan,0.0,0.0,0.0,nan,nan,175.722752281,471.11361572,471.444678921,471.613667893,nan,nan
0,234,2059,6,1,391,274,-0.0591907973189,0.475916278612,-0.303718712187,1,1.0,1.0,0.186911595287,0,0.0,0.0,0.300781621831,0.261750691046,0.126534516532,0.388285207579,0.135216174514,nan,nan,0.0,0.0,0.0,nan,nan,175.722752281,472.113752282,472.300663877,472.613775659,nan,nan
0,235,2100,6,1,149,104,1.0,-0.269478519393,0.0541436597792,1,1.0,1.0,0.0908390348777,0,0.0,0.0,0.202937943628,0.261428108737,0.126356672643,0.38778478138,0.135071436093,nan,nan,0.0,0.0,0.0,nan,nan,175.722752281,473.113877439,473.204716474,473.613931037,nan,nan
0,236,2101,6,1,63,44,1.0,-0.102744642793,-1.0,1,1.0,1.0,0.130661670351,0,0.0,0.0,0.136137433505,0.260695966789,0.12657742478,0.387273391569,0.134118542009,nan,nan,0.0,0.0,0.0,nan,nan,175.722752281,474.11398435,474.244646021,474.614031676,nan,nan
0,237,2102,6,1,235,165,0.707591924495,0.164537776567,0.631659631194,1,1.0,1.0,0.234477465739,0,0.0,0.0,0.151992723656,0.260140264667,0.12659117889,0.386731443557,0.133549085778,nan,nan,0.0,0.0,0.0,nan,nan,175.722752281,475.114108938,475.348586404,475.614148566,nan,nan
0,238,2103,6,1,6,4,0.895129075663,0.186272780825,-1.0,1,1.0,1.0,0.234362856485,0,0.0,0.0,0.199833997525,0.260031061268,0.126332593709,0.386363654977,0.133698467559,nan,nan,0.0,0.0,0.0,nan,nan,175.722752281,476.114236376,476.348599233,476.61427629,nan,nan
0,239,2104,6,1,424,298,0.142174562463,0.448819569244,-0.770229420881,1,1.0,1.0,0.242174799787,0,0.0,0.0,0.23700504067,0.259922297688,0.126075681128,0.385997978816,0.13384661656,nan,nan,0.0,0.0,0.0,nan,nan,175.722752281,477.114385197,477.356559996,477.614401732,nan,nan
0,240,2105,6,1,489,343,0.656284860842,0.299572439858,-1.0,1,1.0,1.0,0.186061436078,0,0.0,0.0,0.220866364116,0.259847413731,0.125814676927,0.385662090657,0.134032736804,nan,nan,0.0,0.0,0.0,nan,nan,175.722752281,478.114487832,478.300549268,478.614533162,nan,nan
0,241,2106,6,1,276,194,0.268710435127,0.329430325417,0.627563005949,1,1.0,1.0,0.209898967296,0,0.0,0.0,0.212711734387,0.259537388615,0.125640767741,0.385178156356,0.133896620873,nan,nan,0.0,0.0,0.0,nan,nan,175.722752281,479.114617266,479.324516233,479.614656039,nan,nan
0,242,2107,6,1,147,103,1.0,-0.275801134503,0.0346720467303,1,1.0,1.0,0.249762086431,0,0.0,0.0,0.215240829935,0.259329696475,0.125418580547,0.384748277022,0.133911115928,nan,nan,0.0,0.0,0.0,nan,nan,175.722752281,480.114741853,480.36450394,480.614809706,nan,nan
0,243,2108,6,1,220,154,0.861731547614,0.0893272636146,0.581247684387,1,1.0,1.0,0.121620958904,0,0.0,0.0,0.193760670877,0.259289831433,0.125158536474,0.384448367907,0.134131294959,nan,nan,0.0,0.0,0.0,nan,nan,175.722752281,481.11489381,481.236514769,481.614936574,nan,nan
0,244,2109,6,0,314,220,-0.0594438881467,0.42463230952,0.441925406839,0,1.0,0.0,0.0813726738561,0,0.0,0.0,0.150918573063,0.258718591298,0.125211726033,0.383930317332,0.133506865265,nan,nan,0.0,0.0,0.0,nan,nan,175.722752281,482.115134147,482.19650682,482.615071995,nan,nan
0,245,2110,6,1,396,278,-0.0330153705648,0.473684876347,-0.363523780775,1,1.0,1.0,0.297290894203,0,0.0,0.0,0.166761508988,0.257985756929,0.125469595709,0.383455352638,0.13251616122,nan,nan,0.0,0.0,0.0,nan,nan,175.722752281,483.115145265,483.41243616,483.61516009,nan,nan
0,246,2111,6,0,290,203,0.131265381085,0.370776544741,0.578206616232,0,1.0,0.0,0.289125430631,0,0.0,0.0,0.222596332897,0.258147506465,0.125236442101,0.383383948566,0.132911064364,nan,nan,0.0,0.0,0.0,nan,nan,175.722752281,484.115286959,484.404412389,484.615317179,nan,nan
0,247,2112,6,1,182,127,1.0,-0.118523835432,0.347089474713,1,1.0,1.0,0.568994331639,0,0.0,0.0,0.385136885491,0.25827446517,0.124995215341,0.383269680511,0.13327924983,nan,nan,0.0,0.0,0.0,nan,nan,175.722752281,485.115379045,485.684373377,485.615460868,nan,nan
0,248,2113,6,1,381,267,-0.105403061426,0.478425078289,-0.188431136224,1,1.0,1.0,0.344847641187,0,0.0,0.0,0.400989134486,0.259542709523,0.126303180888,0.385845890411,0.133239528636,nan,nan,0.0,0.0,0.0,nan,nan,175.722752281,486.115501922,486.460349563,486.615544116,nan,nan
0,249,2114,6,1,463,325,0.440238315199,0.376011795327,-1.0,1,1.0,1.0,0.472679723753,0,0.0,1.0,0.46217389886,0.259889477538,0.126163016536,0.386052494075,0.133726461002,nan,nan,0.0,0.0,0.0,nan,nan,175.722752281,487.115657015,487.588336738,487.615675546,nan,nan
0,250,2120,6,1,109,76,1.0,-0.294638327523,-0.357773695079,1,1.0,1.0,0.25849261228,1,0.0,0.0,0.35867332574,0.260750976511,0.126630333696,0.387381310206,0.134120642815,-20.4223330247,157.0,1.0,-0.240048375319,0.130425901556,33.7817080247,2.46729566669,175.722752281,488.161822773,488.420315386,488.665810996,489.982631605,492.457955888
0,251,2121,6,1,488,343,0.647907709101,0.302951493728,-1.0,1,1.0,1.0,0.265782827977,0,0.0,0.0,0.332318388003,0.260741870203,0.12637485376,0.387116723963,0.134367016444,nan,nan,0.0,0.0,0.0,nan,nan,175.722752281,493.666461017,493.932243844,494.166508628,nan,nan
0,252,2122,6,1,182,127,1.0,-0.118523835432,0.347089474713,1,1.0,1.0,0.265606067842,0,0.0,0.0,0.263293836033,0.260762115014,0.126121236656,0.38688335167,0.134640878358,nan,nan,0.0,0.0,0.0,nan,nan,175.722752281,494.666604991,494.932211058,495.166628083,nan,nan
0,253,2123,6,1,231,162,0.749609680972,0.145151270079,0.620821461523,1,1.0,1.0,0.265449834522,0,0.0,0.0,0.265612910114,0.260781490825,0.125869112773,0.386650603599,0.134912378052,nan,nan,0.0,0.0,0.0,nan,nan,175.722752281,495.666726157,495.932175991,496.166754952,nan,nan
0,254,2124,6,0,10,7,0.926811495151,0.168400576072,-1.0,0,1.0,0.0,0.209298267961,0,0.0,0.0,0.246784723441,0.260800089804,0.125618471473,0.386418561277,0.135181618331,nan,nan,0.0,0.0,0.0,nan,nan,175.722752281,496.666869846,496.876168114,497.166905483,nan,nan
0,255,2125,6,1,213,149,0.929785093221,0.0521668813814,0.548906519778,1,1.0,1.0,0.161150799831,0,0.0,0.0,0.211966300771,0.260595717495,0.125410785439,0.386006502934,0.135184932056,nan,nan,0.0,0.0,0.0,nan,nan,175.722752281,497.666975047,497.828125846,498.167040334,nan,nan
0,256,2126,6,1,503,353,0.773020196022,0.248538461814,-1.0,1,1.0,1.0,0.105030023493,0,0.0,0.0,0.158493030428,0.260202654579,0.12531812814,0.385520782719,0.134884526439,nan,nan,0.0,0.0,0.0,nan,nan,175.722752281,498.667093647,498.77212367,499.1671615,nan,nan
0,257,2127,6,1,282,198,0.208142307666,0.34807905204,0.609295500931,1,1.0,1.0,0.584489639383,0,0.0,0.0,0.283556820902,0.259591738709,0.125448109514,0.385039848223,0.134143629195,nan,nan,0.0,0.0,0.0,nan,nan,175.722752281,499.675548769,500.260038408,500.175666229,nan,nan
0,258,2128,6,0,410,288,0.0492046846968,0.463921527344,-0.54316189137,0,0.0,1.0,0.464344912674,0,0.0,0.0,0.384621525183,0.260865848123,0.126837871629,0.387703719753,0.134027976494,nan,nan,0.0,0.0,0.0,nan,nan,175.722752281,500.675730091,501.140075003,501.175744345,nan,nan
0,259,2129,6,1,271,190,0.320642857732,0.312811632898,0.639400143054,1,1.0,1.0,0.264235036448,0,0.0,0.0,0.437689862835,0.261660688219,0.127224620576,0.388885308795,0.134436067644,nan,nan,0.0,0.0,0.0,nan,nan,175.722752281,501.675804786,501.940039822,502.175838142,nan,nan
0,260,2130,6,1,420,295,0.1146601879,0.45369410126,-0.695047497311,1,1.0,1.0,0.0961227377411,0,0.0,0.0,0.274900895621,0.261670705138,0.126976961759,0.388647666898,0.134693743379,nan,nan,0.0,0.0,0.0,nan,nan,175.722752281,502.675925097,502.772047835,503.176006635,nan,nan
0,261,2131,6,1,128,90,1.0,-0.310663006781,-0.156689791083,1,1.0,1.0,0.391608682694,0,0.0,0.0,0.250655485628,0.26102904635,0.127147432435,0.388176478785,0.133881613915,nan,nan,0.0,0.0,0.0,nan,nan,175.722752281,503.684379079,504.075987761,504.184456625,nan,nan
0,262,2132,6,1,470,330,0.497741612616,0.357740777197,-1.0,1,1.0,1.0,0.231475679204,0,0.0,0.0,0.23973569988,0.26153321483,0.127159862867,0.388693077697,0.134373351963,nan,nan,0.0,0.0,0.0,nan,nan,175.722752281,504.684516781,504.91599246,505.18455926,nan,nan
0,263,2133,6,0,278,195,0.248285521772,0.335802812283,0.621962573991,0,1.0,0.0,0.0153285257984,0,0.0,0.0,0.212804295899,0.261417608924,0.126928725279,0.388346334203,0.134488883645,nan,nan,0.0,0.0,0.0,nan,nan,175.722752281,505.684677575,505.700006101,506.184718914,nan,nan
0,264,2134,6,1,223,156,0.83172397378,0.104890589731,0.593432239612,1,1.0,1.0,0.342846260406,0,0.0,0.0,0.196550155136,0.260474738874,0.127594336598,0.388069075472,0.132880402275,nan,nan,0.0,0.0,0.0,nan,nan,175.722752281,506.693145241,507.035991502,507.193175177,nan,nan
0,265,2135,6,0,393,276,-0.0489456633786,0.475102171109,-0.327443230616,0,1.0,0.0,0.254677443998,0,0.0,0.0,0.204284076734,0.260789133994,0.127451851639,0.388240985633,0.133337282355,nan,nan,0.0,0.0,0.0,nan,nan,175.722752281,507.693264982,507.947942426,508.193299764,nan,nan
0,266,2136,6,1,284,199,0.188465149253,0.353984098999,0.602236276499,1,1.0,1.0,0.470550619066,0,0.0,0.0,0.35602477449,0.260765895629,0.127209873085,0.387975768714,0.133556022544,nan,nan,0.0,0.0,0.0,nan,nan,175.722752281,508.693354503,509.163905122,509.193391565,nan,nan
0,267,2137,6,1,62,43,1.0,-0.0974372467467,-1.0,1,1.0,1.0,0.302386718104,0,0.0,0.0,0.342538260389,0.261560534733,0.127621027721,0.389181562454,0.133939507012,nan,nan,0.0,0.0,0.0,nan,nan,175.722752281,509.693505604,509.995892322,510.193533829,nan,nan
0,268,2138,6,1,260,182,0.438016636947,0.272781976488,0.654406567654,1,1.0,1.0,0.25424324139,0,0.0,0.0,0.342393526187,0.261714595802,0.127404599021,0.389119194823,0.134309996781,nan,nan,0.0,0.0,0.0,nan,nan,175.722752281,510.693620213,510.947863454,511.193651859,nan,nan
0,269,2139,6,1,491,345,0.673033477965,0.292707709811,-1.0,1,1.0,1.0,0.389723051107,0,0.0,0.0,0.315451003533,0.261686508004,0.127165713211,0.388852221215,0.134520794793,nan,nan,0.0,0.0,0.0,nan,nan,175.722752281,511.702080752,512.091803803,512.202137201,nan,nan
0,270,2140,6,1,225,158,0.81146624694,0.115131125244,0.600981946568,1,1.0,1.0,0.149655118352,0,0.0,0.0,0.264540470283,0.262166045618,0.127168081731,0.38933412735,0.134997963887,nan,nan,0.0,0.0,0.0,nan,nan,175.722752281,512.70220762,512.851862738,513.20223613,nan,nan
0,271,2141,6,1,492,345,0.681403316433,0.289222019555,-1.0,1,1.0,1.0,0.02146466868,0,0.0,0.0,0.186947612713,0.261746228726,0.127115838944,0.388862067669,0.134630389782,nan,nan,0.0,0.0,0.0,nan,nan,175.722752281,513.702322514,513.723787183,514.202407758,nan,nan
0,272,2142,6,1,104,73,1.0,-0.282351481576,-0.412644567278,1,1.0,1.0,0.07736164378,0,1.0,0.0,0.0828271436039,0.260852988725,0.127719220152,0.388572208877,0.133133768574,nan,nan,0.0,0.0,0.0,nan,nan,175.722752281,514.702451948,514.779813592,515.202528354,nan,nan
0,273,2147,6,1,402,282,0.000724920831492,0.470139955471,-0.437811562499,1,1.0,1.0,0.0612006348092,1,0.0,0.0,0.0533423157564,0.260173391152,0.127968832391,0.388142223543,0.13220455876,171.427001636,396.0,-0.0330153705648,0.473684876347,-0.363523780775,-4.08325163639,2.01724010124,175.722752281,515.702576821,515.763777456,516.202655222,517.527788406,519.553060545
0,274,2148,6,1,328,230,-0.132159558243,0.44685796506,0.336046158271,1,1.0,1.0,0.0820916881785,0,0.0,0.0,0.0735513222559,0.259439174338,0.128300989889,0.387740164228,0.131138184449,nan,nan,0.0,0.0,0.0,nan,nan,175.722752281,520.761575081,520.843666769,521.261593612,nan,nan
0,275,2149,6,1,195,137,1.0,-0.0469245268387,0.442396054288,1,1.0,1.0,0.681949767051,0,0.0,0.0,0.27508069668,0.258787161522,0.128513940131,0.387301101653,0.13027322139,nan,nan,0.0,0.0,0.0,nan,nan,175.722752281,521.761680852,522.443630619,522.261758683,nan,nan
0,276,2150,6,1,99,69,1.0,-0.267176270739,-0.468793303331,1,1.0,1.0,0.345793308225,0,0.0,0.0,0.369944921151,0.260337207696,0.130800818754,0.391138026449,0.129536388942,nan,nan,0.0,0.0,0.0,nan,nan,175.722752281,522.761821975,523.107615283,523.261860748,nan,nan
0,277,2151,6,1,205,144,1.0,0.00854800403903,0.505535240796,1,1.0,1.0,0.169654958649,0,0.0,1.0,0.399132677975,0.260649091274,0.130663568741,0.391312660015,0.129985522534,nan,nan,0.0,0.0,0.0,nan,nan,175.722752281,523.76195483,523.931609789,524.261986191,nan,nan
0,278,2156,6,1,388,272,-0.0739633693698,0.476941921698,-0.268577162136,1,1.0,1.0,0.353511739289,1,0.0,0.0,0.289653335388,0.260318203519,0.130540737063,0.390858940582,0.129777466457,-173.088772881,374.0,-0.132039125116,0.478634076427,-0.110628443238,-9.72372711902,2.44230748387,175.722752281,524.762058035,525.115569775,525.2621008,526.587263918,529.037569229
0,279,2157,6,1,276,194,0.268710435127,0.329430325417,0.627563005949,1,nan,nan,nan,0,0.0,0.0,0.261583348969,0.260655861258,0.130424289169,0.391080150426,0.130231572089,nan,nan,0.0,0.0,0.0,nan,nan,175.722752281,530.246086901,nan,530.746168439,nan,nan
0,280,2158,6,1,419,294,0.107894673663,0.454841969249,-0.678098861371,1,nan,nan,nan,0,0.0,0.0,0.353511739289,0.260655861258,0.130424289169,0.391080150426,0.130231572089,nan,nan,0.0,0.0,0.0,nan,nan,175.722752281,531.246225173,nan,531.746285899,nan,nan
0,281,2159,6,1,492,345,0.681403316433,0.289222019555,-1.0,1,1.0,1.0,0.285072491737,0,0.0,0.0,0.285072491737,0.260655861258,0.130424289169,0.391080150426,0.130231572089,nan,nan,0.0,0.0,0.0,nan,nan,175.722752281,532.246337501,532.531409993,532.746375419,nan,nan
0,282,2200,6,1,59,41,1.0,-0.0814409933332,-1.0,1,1.0,1.0,0.444951473502,0,0.0,0.0,0.36501198262,0.260744007938,0.130196889173,0.390940897111,0.130547118765,nan,nan,0.0,0.0,0.0,nan,nan,175.722752281,533.246460663,533.691412137,533.746497726,nan,nan
0,283,2201,6,1,171,120,1.0,-0.176011872558,0.256450910142,1,1.0,1.0,0.268458463484,0,0.0,0.0,0.332827476241,0.261406624721,0.130429575634,0.391836200355,0.130977049086,nan,nan,0.0,0.0,0.0,nan,nan,175.722752281,534.254917496,534.523375959,534.754966818,nan,nan
0,284,2202,6,1,254,178,0.503011129055,0.248947817922,0.65613358125,1,1.0,1.0,0.220324679743,0,0.0,0.0,0.311244872243,0.261431900128,0.130196303096,0.391628203225,0.131235597032,nan,nan,0.0,0.0,0.0,nan,nan,175.722752281,535.255049496,535.475374175,535.75509169,nan,nan
0,285,2203,6,1,339,238,-0.164955840019,0.45996923152,0.241423096872,1,nan,nan,nan,0,0.0,0.0,0.244391571614,0.261285088627,0.12998673485,0.391271823478,0.131298353777,nan,nan,0.0,0.0,0.0,nan,nan,175.722752281,536.255181781,nan,536.755262178,nan,nan
0,286,2204,6,1,437,307,0.23613482661,0.429770237144,-1.0,1,1.0,1.0,0.484000355704,0,0.0,0.0,0.352162517724,0.261285088627,0.12998673485,0.391271823478,0.131298353777,nan,nan,0.0,0.0,0.0,nan,nan,175.722752281,537.255300096,537.739300452,537.755339439,nan,nan
0,287,2205,6,1,184,129,1.0,-0.107671891867,0.362640045218,1,1.0,1.0,0.259519246407,0,0.0,0.0,0.371759801055,0.262077669649,0.130431257261,0.39250892691,0.131646412387,nan,nan,0.0,0.0,0.0,nan,nan,175.722752281,538.263764341,538.523283588,538.763809386,nan,nan
0,288,2206,6,1,19,13,0.99625917486,0.126374530333,-1.0,1,1.0,1.0,0.227377980016,0,0.0,0.0,0.323632527376,0.262068597226,0.130199879604,0.39226847683,0.131868717622,nan,nan,0.0,0.0,0.0,nan,nan,175.722752281,539.263900047,539.491278027,539.763930267,nan,nan
0,289,2207,6,1,145,101,1.0,-0.281667413287,0.0150551701241,1,nan,nan,nan,0,0.0,0.0,0.243448613212,0.26194601554,0.129985941418,0.391931956958,0.131960074121,nan,nan,0.0,0.0,0.0,nan,nan,175.722752281,540.264018933,nan,540.764131261,nan,nan
0,290,2208,6,0,75,52,1.0,-0.164714458691,-0.791355921409,0,0.0,1.0,0.555012319004,0,0.0,0.0,0.39119514951,0.26194601554,0.129985941418,0.391931956958,0.131960074121,nan,nan,0.0,0.0,0.0,nan,nan,175.722752281,541.264197974,541.819210293,541.764226198,nan,nan
0,291,2209,6,1,152,106,1.0,-0.259184487343,0.0830625546756,1,1.0,1.0,0.22661163914,0,0.0,0.0,0.390811979072,0.262977939143,0.130912978591,0.393890917735,0.132064960552,nan,nan,0.0,0.0,0.0,nan,nan,175.722752281,542.272614608,542.499226247,542.772641407,nan,nan
0,292,2210,6,1,196,137,1.0,-0.0413610816081,0.449130757868,1,1.0,1.0,0.0264347649645,0,0.0,0.0,0.269352907703,0.262850338091,0.130700795701,0.393551133791,0.13214954239,nan,nan,0.0,0.0,0.0,nan,nan,175.722752281,543.272739765,543.29917453,543.772807618,nan,nan
0,293,2211,6,1,302,212,0.027086081288,0.400300843718,0.517770016443,1,1.0,1.0,0.490284179104,0,0.0,0.0,0.24777686107,0.262023710213,0.131216282044,0.393239992256,0.130807428169,nan,nan,0.0,0.0,0.0,nan,nan,175.722752281,544.272876041,544.763160221,544.781238222,nan,nan
0,294,2212,6,1,58,40,1.0,-0.0760896648475,-1.0,1,1.0,1.0,0.346129437676,0,0.0,0.0,0.287616127248,0.262819042857,0.131676235864,0.394495278721,0.131142806992,nan,nan,0.0,0.0,0.0,nan,nan,175.722752281,545.273005761,545.619135198,545.773019445,nan,nan
0,295,2213,6,0,232,163,0.739158239773,0.150046616059,0.623712016981,0,1.0,0.0,0.233989664819,0,0.0,0.0,0.356801093866,0.263108315061,0.131538751759,0.39464706682,0.131569563302,nan,nan,0.0,0.0,0.0,nan,nan,175.722752281,546.273146313,546.507135978,546.77318138,nan,nan
0,296,2214,6,1,404,284,0.0124894593597,0.468746268022,-0.463349101315,1,1.0,1.0,0.457873210311,0,0.0,0.0,0.345997437602,0.263007558486,0.131322111285,0.394329669771,0.131685447201,nan,nan,0.0,0.0,0.0,nan,nan,175.722752281,547.273229847,547.731103057,547.773301121,nan,nan
0,297,2215,6,1,456,320,0.383612429175,0.392633185378,-1.0,1,1.0,1.0,0.27372677112,0,0.0,0.0,0.321863215417,0.263679509009,0.131592242328,0.395271751337,0.132087266682,nan,nan,0.0,0.0,0.0,nan,nan,175.722752281,548.273385225,548.547111996,548.773401475,nan,nan
0,298,2216,6,1,365,256,-0.157962026257,0.477016591838,-0.0139196855225,1,1.0,1.0,0.0735553135164,0,0.0,0.0,0.268385098316,0.263714035683,0.131367260045,0.395081295728,0.132346775638,nan,nan,0.0,0.0,0.0,nan,nan,175.722752281,549.273518365,549.347073679,549.773566261,nan,nan
0,299,2217,6,1,464,326,0.448404880525,0.373503555275,-1.0,1,1.0,1.0,0.249455037061,0,0.0,0.0,0.198912373899,0.263062807183,0.131611812369,0.394674619551,0.131450994814,nan,nan,0.0,0.0,0.0,nan,nan,175.722752281,550.27363668,550.523091717,550.773668896,nan,nan
0,300,2218,6,1,145,101,1.0,-0.281667413287,0.0150551701241,1,1.0,1.0,0.153267582413,0,0.0,0.0,0.158759310997,0.263016364281,0.13138942369,0.394405787971,0.131626940591,nan,nan,0.0,0.0,0.0,nan,nan,175.722752281,551.273762693,551.427030276,551.773815721,nan,nan
0,301,2219,6,1,372,261,-0.138660017671,0.478458869494,-0.0888123791441,1,1.0,1.0,0.265156184789,0,0.0,0.0,0.222626268088,0.262643069105,0.131321329942,0.393964399046,0.131321739163,nan,nan,0.0,0.0,0.0,nan,nan,175.722752281,552.273899255,552.539055439,552.773909803,nan,nan
0,302,2220,6,0,163,114,1.0,-0.214247802105,0.185723682048,0,1.0,0.0,0.328970018541,0,0.0,0.0,0.249131261914,0.262651588141,0.131098643847,0.393750231988,0.131552944294,nan,nan,0.0,0.0,0.0,nan,nan,175.722752281,553.274003885,553.602973904,553.774069743,nan,nan
0,303,2221,6,1,416,292,0.087881616042,0.458117504295,-0.630165317015,1,nan,nan,nan,0,0.0,0.0,0.297063101665,0.262875636892,0.130933567448,0.393809204341,0.131942069444,nan,nan,0.0,0.0,0.0,nan,nan,175.722752281,554.274120775,nan,554.774205164,nan,nan
0,304,2222,6,1,137,96,1.0,-0.300190217086,-0.0647316600203,1,1.0,1.0,0.504625984002,0,0.0,0.0,0.416798001272,0.262875636892,0.130933567448,0.393809204341,0.131942069444,nan,nan,0.0,0.0,0.0,nan,nan,175.722752281,555.274278719,555.778904703,555.774329466,nan,nan
0,305,2223,6,1,313,220,-0.0530221528698,0.42279583272,0.448797959603,1,1.0,1.0,0.416529297596,0,0.0,0.0,0.460577640799,0.263689611125,0.13146099242,0.395150603546,0.132228618705,nan,nan,0.0,0.0,0.0,nan,nan,175.722752281,556.274379358,556.690908656,556.774412999,nan,nan
0,306,2224,6,1,18,12,0.988682696815,0.131162580546,-1.0,1,1.0,1.0,0.296380009269,0,0.0,1.0,0.405845096956,0.264202495979,0.131537543591,0.39574003957,0.132664952388,nan,nan,0.0,0.0,0.0,nan,nan,175.722752281,557.274502805,557.570882814,557.774538442,nan,nan
0,307,2231,6,1,165,116,1.0,-0.205056383665,0.203745440608,1,1.0,1.0,0.264240738004,1,0.0,0.0,0.325716681623,0.26431011308,0.131330537208,0.395640650288,0.132979575873,-162.171791668,359.0,-0.169222339917,0.474741883077,0.0483828026834,136.156166668,3.06736671273,175.722752281,558.274625397,558.538866135,558.77466417,560.099839547,563.175224614
0,308,2232,6,1,208,146,0.97651257568,0.025020743352,0.522574479073,1,1.0,1.0,0.0670348599087,0,0.0,0.0,0.209218535728,0.26430988183,0.131111470332,0.395421352162,0.133198411498,nan,nan,0.0,0.0,0.0,nan,nan,175.722752281,564.383755686,564.450790545,564.883816126,nan,nan
0,309,2233,6,1,376,264,-0.124962824795,0.478704673615,-0.132627625282,1,1.0,1.0,0.146899370477,0,0.0,0.0,0.15939165613,0.263654483086,0.131384822369,0.395039305455,0.132269660717,nan,nan,0.0,0.0,0.0,nan,nan,175.722752281,565.383880558,565.530779928,565.883937292,nan,nan
0,310,2234,6,1,68,47,1.0,-0.129018143495,-0.972903198114,1,1.0,1.0,0.442684952402,0,0.0,0.0,0.218873060929,0.263267876753,0.131338499703,0.394606376456,0.13192937705,nan,nan,0.0,0.0,0.0,nan,nan,175.722752281,566.383999443,566.826684396,566.884056748,nan,nan
0,311,2235,6,0,297,208,0.0686262056446,0.388646276542,0.544904663634,0,1.0,0.0,0.138581950217,0,0.0,0.0,0.242722091032,0.263860012316,0.1315247508,0.395384763116,0.132335261517,nan,nan,0.0,0.0,0.0,nan,nan,175.722752281,567.384130588,567.522712538,567.884183616,nan,nan
0,312,2236,6,1,362,254,-0.164239727892,0.476000155386,0.0174578511848,1,1.0,1.0,0.129094206728,0,0.0,0.0,0.236787036449,0.263447913428,0.131504043214,0.394951956641,0.131943870214,nan,nan,0.0,0.0,0.0,nan,nan,175.722752281,568.417613806,568.546708013,568.917651724,nan,nan
0,313,2237,6,1,186,130,1.0,-0.0967386681424,0.377881386018,1,1.0,1.0,0.288961499929,0,0.0,0.0,0.185545885625,0.263007409471,0.13151274953,0.394520159002,0.131494659941,nan,nan,0.0,0.0,0.0,nan,nan,175.722752281,569.417723284,569.706684784,569.917755785,nan,nan
0,314,2238,6,0,307,215,-0.0113868739462,0.411053355611,0.487957006857,0,0.0,1.0,0.480767355766,0,0.0,0.0,0.299607687475,0.26309222676,0.131306038975,0.394398265735,0.131786187786,nan,nan,0.0,0.0,0.0,nan,nan,175.722752281,570.417866973,570.898634328,570.917899759,nan,nan
0,315,2239,6,1,189,132,1.0,-0.0802194643608,0.400143472992,1,1.0,1.0,0.168698458234,0,0.0,0.0,0.312809104643,0.263801266269,0.131677457801,0.39547872407,0.132123808468,nan,nan,0.0,0.0,0.0,nan,nan,175.722752281,571.417983007,571.586681465,571.918028337,nan,nan
0,316,2240,6,0,411,288,0.0555201669072,0.463022710015,-0.557054760163,0,1.0,0.0,0.256458444986,0,0.0,0.0,0.301974752995,0.263492490918,0.131574798697,0.395067289614,0.131917692221,nan,nan,0.0,0.0,0.0,nan,nan,175.722752281,572.418128692,572.674587137,572.918155206,nan,nan
0,317,2241,6,1,275,193,0.279002393219,0.326185254474,0.630178474337,1,1.0,1.0,0.344352427637,0,0.0,0.0,0.256503110286,0.263469727015,0.131362329457,0.394832056472,0.132107397558,nan,nan,0.0,0.0,0.0,nan,nan,175.722752281,573.418221918,573.762574346,573.918249858,nan,nan
0,318,2242,6,1,498,350,0.731507943485,0.267561876527,-1.0,1,1.0,1.0,0.208195227664,0,0.0,0.0,0.269668700096,0.263730638953,0.131230454059,0.394961093012,0.132500184893,nan,nan,0.0,0.0,0.0,nan,nan,175.722752281,574.418338808,574.626534036,574.918411223,nan,nan
0,319,2243,6,1,78,54,1.0,-0.179467652321,-0.739907630878,1,1.0,1.0,0.0881360301282,0,0.0,0.0,0.213561228476,0.263552068498,0.131057021136,0.394609089635,0.132495047362,nan,nan,0.0,0.0,0.0,nan,nan,175.722752281,575.418469953,575.506605983,575.918542938,nan,nan
0,320,2244,6,1,200,140,1.0,-0.0191209939188,0.47515178387,1,1.0,1.0,0.263900902588,0,0.0,0.0,0.18674405346,0.262989837606,0.131221949013,0.394211786619,0.131767888594,nan,nan,0.0,0.0,0.0,nan,nan,175.722752281,576.418610506,576.682511408,576.918630462,nan,nan
0,321,2245,6,1,447,314,0.312467642152,0.411646472288,-1.0,1,1.0,1.0,0.207428601803,0,0.0,0.0,0.186488511506,0.262992748357,0.131012171678,0.394004920035,0.131980576679,nan,nan,0.0,0.0,0.0,nan,nan,175.722752281,577.427057645,577.634486247,577.927118656,nan,nan
0,322,2246,6,1,496,348,0.714833717156,0.274923884212,-1.0,1,1.0,1.0,0.199310749536,0,0.0,0.0,0.223546751309,0.262815792476,0.130840846811,0.393656639287,0.131974945665,nan,nan,0.0,0.0,0.0,nan,nan,175.722752281,578.427180807,578.626491556,578.927252651,nan,nan
0,323,2247,6,1,240,168,0.654373017221,0.188015059697,0.642463954019,1,1.0,1.0,0.207142934436,0,0.0,0.0,0.204627428592,0.262614189165,0.130681836178,0.393296025343,0.131932352987,nan,nan,0.0,0.0,0.0,nan,nan,175.722752281,579.427308245,579.63445118,579.927345308,nan,nan
0,324,2248,6,1,416,292,0.087881616042,0.458117504295,-0.630165317015,1,1.0,1.0,0.198992010904,0,0.0,0.0,0.201815231626,0.26243864722,0.130512089614,0.392950736834,0.131926557606,nan,nan,0.0,0.0,0.0,nan,nan,175.722752281,580.42745393,580.626445941,580.92752948,nan,nan
0,325,2249,6,1,328,230,-0.132159558243,0.44685796506,0.336046158271,1,1.0,1.0,0.110890192445,0,0.0,0.0,0.172341712595,0.262238500102,0.130354635505,0.392593135607,0.131883864598,nan,nan,0.0,0.0,0.0,nan,nan,175.722752281,581.427580513,581.538470705,581.9276324,nan,nan
0,326,2250,6,1,263,184,0.405698801511,0.284171736334,0.651829885785,1,1.0,1.0,0.254679154605,0,0.0,0.0,0.188187119318,0.261762562028,0.130425081558,0.392187643586,0.13133748047,nan,nan,0.0,0.0,0.0,nan,nan,175.722752281,582.427703675,582.682382829,582.927729333,nan,nan
0,327,2251,6,1,25,17,1.0,0.0970682892709,-1.0,1,1.0,1.0,0.254532329738,0,0.0,0.0,0.206700558929,0.261740356989,0.130221095101,0.39196145209,0.131519261887,nan,nan,0.0,0.0,0.0,nan,nan,175.722752281,583.427833679,583.682366009,583.927863329,nan,nan
0,328,2252,6,1,444,312,0.289241202529,0.417409780569,-1.0,1,1.0,1.0,0.302429767558,0,0.0,0.0,0.270547083967,0.261717831904,0.130018087861,0.391735919764,0.131699744043,nan,nan,0.0,0.0,0.0,nan,nan,175.722752281,584.427938595,584.730368362,584.927992193,nan,nan
0,329,2253,6,1,324,227,-0.114799643766,0.441158325109,0.368064040095,1,1.0,1.0,0.302251867251,0,0.0,0.0,0.286404654849,0.261844660364,0.129835233627,0.39167989399,0.132009426737,nan,nan,0.0,0.0,0.0,nan,nan,175.722752281,585.428090836,585.730342704,585.928103381,nan,nan
0,330,2254,6,1,100,70,1.0,-0.270427092546,-0.457439896749,1,1.0,1.0,0.302092498168,0,0.0,0.0,0.302258044326,0.261970148584,0.129652964705,0.391623113289,0.132317183879,nan,nan,0.0,0.0,0.0,nan,nan,175.722752281,586.428213428,586.730305926,586.928231104,nan,nan
0,331,2255,6,1,452,317,0.351738073422,0.401406211611,-1.0,1,1.0,1.0,0.213648848236,0,0.0,0.0,0.272664404552,0.262094366384,0.129471296934,0.391565663319,0.13262306945,nan,nan,0.0,0.0,0.0,nan,nan,175.722752281,587.436642321,587.65029117,587.936697345,nan,nan
0,332,2256,6,1,338,237,-0.162891363375,0.458928707883,0.250399161362,1,1.0,1.0,0.269472838612,0,0.0,0.0,0.261738061672,0.26194484318,0.12929926919,0.39124411237,0.13264557399,nan,nan,0.0,0.0,0.0,nan,nan,175.722752281,588.436778027,588.706250866,588.936822788,nan,nan
0,333,2257,6,1,449,315,0.328095008353,0.407646248688,-1.0,1,1.0,1.0,0.237331571756,0,0.0,0.0,0.240151086201,0.261968006243,0.129100867239,0.391068873482,0.132867139004,nan,nan,0.0,0.0,0.0,nan,nan,175.722752281,589.436925137,589.674256709,589.936950796,nan,nan
0,334,2258,6,1,505,355,0.789537956352,0.240683140511,-1.0,1,1.0,1.0,0.24517601612,0,0.0,0.0,0.250660142163,0.261892434358,0.12890990715,0.390802341509,0.132982527208,nan,nan,0.0,0.0,0.0,nan,nan,175.722752281,590.437057422,590.682233439,590.937077379,nan,nan
0,335,2259,6,1,341,239,-0.168535884224,0.46196150489,0.223260112086,1,1.0,1.0,0.197026552167,0,0.0,0.0,0.226511380014,0.261841313813,0.128715955693,0.390557269506,0.13312535812,nan,nan,0.0,0.0,0.0,nan,nan,175.722752281,591.437176878,591.63420343,591.937229051,nan,nan
0,336,2300,6,1,411,288,0.0555201669072,0.463022710015,-0.557054760163,1,1.0,1.0,0.236895088339,0,0.0,0.0,0.226365885542,0.261643707832,0.128569259193,0.390212967025,0.13307444864,nan,nan,0.0,0.0,0.0,nan,nan,175.722752281,592.437289206,592.674184295,592.93732855,nan,nan
0,337,2301,6,1,26,18,1.0,0.0920921692153,-1.0,1,1.0,1.0,0.268739283783,0,0.0,0.0,0.234220308096,0.261568484065,0.128380945271,0.389949429336,0.133187538794,nan,nan,0.0,0.0,0.0,nan,nan,175.722752281,593.437414364,593.706153648,593.937446865,nan,nan
0,338,2302,6,1,138,97,1.0,-0.29832987918,-0.0546508148191,1,1.0,1.0,0.292601333465,0,0.0,0.0,0.266078568529,0.261590213761,0.128186887044,0.389777100805,0.133403326717,nan,nan,0.0,0.0,0.0,nan,nan,175.722752281,594.437538381,594.730139715,594.937582571,nan,nan
0,339,2303,6,1,511,359,0.838703193994,0.216284169582,-1.0,1,1.0,1.0,0.260453509632,0,0.0,0.0,0.273931375627,0.261683902944,0.128004419857,0.389688322801,0.133679483088,nan,nan,0.0,0.0,0.0,nan,nan,175.722752281,595.43766696,595.698120469,595.9377274,nan,nan
0,340,2304,6,1,306,215,-0.00395437407881,0.408974006242,0.494128827808,1,1.0,1.0,0.196273896145,0,0.0,0.0,0.249776246414,0.261680196941,0.127811514518,0.389491711458,0.133868682423,nan,nan,0.0,0.0,0.0,nan,nan,175.722752281,596.43781464,596.634088536,596.937862251,nan,nan
0,341,2305,6,1,431,303,0.191957257768,0.43918128748,-0.982298765802,1,1.0,1.0,0.116199839395,0,0.0,0.0,0.190975748391,0.261483781623,0.12766963248,0.389153414103,0.133814149143,nan,nan,0.0,0.0,0.0,nan,nan,175.722752281,597.437945215,597.554145054,597.937995962,nan,nan
0,342,2306,6,1,122,85,1.0,-0.311159539646,-0.219144224573,1,1.0,1.0,0.0119883292355,0,1.0,0.0,0.108154021592,0.26104879976,0.127725254844,0.388774054604,0.133323544916,nan,nan,0.0,0.0,0.0,nan,nan,175.722752281,598.43804842,598.450036749,598.938141932,nan,nan
0,343,2312,6,1,171,120,1.0,-0.176011872558,0.256450910142,1,1.0,1.0,0.267858049134,1,0.0,0.0,0.132015405921,0.260305335669,0.128256219221,0.38856155489,0.132049116447,-14.7865024583,149.0,1.0,-0.269478519393,0.0541436597792,-15.4478725417,3.10070225084,175.722752281,599.438172722,599.706030771,599.938218623,601.263378605,604.37210206
0,344,2313,6,1,489,343,0.656284860842,0.299572439858,-1.0,1,1.0,1.0,0.621271429816,0,0.0,0.0,0.300372602729,0.260327813983,0.128065880394,0.388393694377,0.132261933588,nan,nan,0.0,0.0,0.0,nan,nan,175.722752281,605.58061346,606.20188489,606.080693288,nan,nan
0,345,2314,6,1,443,311,0.281558783006,0.419268214519,-1.0,1,1.0,1.0,0.261095548049,0,0.0,0.0,0.383408342333,0.261398863288,0.129374045752,0.39077290904,0.132024817536,nan,nan,0.0,0.0,0.0,nan,nan,175.722752281,606.580769408,606.841864956,607.080782808,nan,nan
0,346,2315,6,0,367,258,-0.15309091083,0.477560897992,-0.0350816338538,0,1.0,0.0,0.252971708775,0,0.0,0.0,0.37844622888,0.261397965905,0.129182523314,0.390580489219,0.132215442592,nan,nan,0.0,0.0,0.0,nan,nan,175.722752281,607.580898842,607.833870551,608.080929063,nan,nan
0,347,2316,6,1,214,150,0.920243657418,0.0575410437433,0.553854850604,1,1.0,1.0,0.100875304779,0,0.0,0.0,0.204980853867,0.26137310969,0.128992657354,0.390365767044,0.132380452335,nan,nan,0.0,0.0,0.0,nan,nan,175.722752281,608.58099549,608.681870795,609.081075602,nan,nan
0,348,2317,6,1,60,42,1.0,-0.0867837676833,-1.0,1,1.0,1.0,0.308701046742,0,0.0,0.0,0.220849353432,0.260901057322,0.129095730528,0.389996787851,0.131805326794,nan,nan,0.0,0.0,0.0,nan,nan,175.722752281,609.581120933,609.88982198,610.081161417,nan,nan
0,349,2318,6,0,402,282,0.000724920831492,0.470139955471,-0.437811562499,0,1.0,0.0,0.228538894793,0,0.0,0.0,0.212705082105,0.261041233244,0.128932212251,0.389973445496,0.132109020993,nan,nan,0.0,0.0,0.0,nan,nan,175.722752281,610.581277451,610.809816346,611.081317935,nan,nan
0,350,2319,6,1,227,159,0.791019951953,0.125257787881,0.608066708266,1,1.0,1.0,0.236409853213,0,0.0,0.0,0.257883264916,0.260946197167,0.128755537546,0.389701734713,0.132190659621,nan,nan,0.0,0.0,0.0,nan,nan,175.722752281,611.581374669,611.817784522,612.081445658,nan,nan
0,351,2320,6,1,112,78,1.0,-0.300501516081,-0.325324861792,1,1.0,1.0,0.468266992131,0,0.0,0.0,0.311071913379,0.260874662637,0.128574516136,0.389449178773,0.1323001465,nan,nan,0.0,0.0,0.0,nan,nan,175.722752281,612.58149498,613.049761972,613.081556276,nan,nan
0,352,2321,6,1,0,0,0.846831709088,0.212097570855,-1.0,1,1.0,1.0,0.363783214474,0,0.0,0.0,0.356153353273,0.261477547315,0.128872107045,0.390349654361,0.13260544027,nan,nan,0.0,0.0,0.0,nan,nan,175.722752281,613.589967493,613.953750708,614.090001135,nan,nan
0,353,2322,6,1,406,285,0.0244967455079,0.467245700284,-0.489366101921,1,1.0,1.0,0.259633285459,0,0.0,0.0,0.363894497355,0.261774085481,0.128802680042,0.390576765523,0.132971405439,nan,nan,0.0,0.0,0.0,nan,nan,175.722752281,614.590088089,614.849721375,615.090131424,nan,nan
0,354,2323,6,0,469,329,0.489482198204,0.360453357602,-1.0,0,1.0,0.0,0.155469386606,0,0.0,0.0,0.259628628846,0.261767898198,0.128616465663,0.390384363861,0.133151432534,nan,nan,0.0,0.0,0.0,nan,nan,175.722752281,615.590247744,615.74571713,616.090294499,nan,nan
0,355,2324,6,1,226,158,0.801265930663,0.120208988367,0.60458276857,1,1.0,1.0,0.275330156554,0,0.0,0.0,0.230144276206,0.261461562429,0.128557350634,0.390018913063,0.132904211796,nan,nan,0.0,0.0,0.0,nan,nan,175.722752281,616.590342681,616.865672837,617.090378033,nan,nan
0,356,2325,6,1,168,118,1.0,-0.190790017254,0.230361799274,1,1.0,1.0,0.27517734468,0,0.0,0.0,0.23532562928,0.261501414711,0.128374655409,0.38987607012,0.133126759302,nan,nan,0.0,0.0,0.0,nan,nan,175.722752281,617.590470119,617.865647464,618.090507467,nan,nan
0,357,2326,6,1,377,265,-0.121259861678,0.478700828387,-0.143695900877,1,1.0,1.0,0.283064838499,0,0.0,0.0,0.277857446577,0.261540600757,0.128192689892,0.389733290649,0.133347910866,nan,nan,0.0,0.0,0.0,nan,nan,175.722752281,618.590592141,618.873656979,619.090637756,nan,nan
0,358,2327,6,1,436,306,0.228681708805,0.431413732101,-1.0,1,1.0,1.0,0.290899019223,0,0.0,0.0,0.283047067467,0.261602098579,0.128014581903,0.389616680482,0.133587516676,nan,nan,0.0,0.0,0.0,nan,nan,175.722752281,619.590720434,619.881619454,620.090759207,nan,nan
0,359,2328,6,1,328,230,-0.132159558243,0.44685796506,0.336046158271,1,1.0,1.0,0.226744494401,0,0.0,0.0,0.266902784041,0.26168556559,0.127841631877,0.389527197467,0.133843933713,nan,nan,0.0,0.0,0.0,nan,nan,175.722752281,620.590845307,620.817589801,621.090932261,nan,nan
0,360,2329,6,1,247,173,0.578947625354,0.219392674348,0.6523805853,1,1.0,1.0,0.410633491352,0,0.0,0.0,0.309425668325,0.261586301183,0.127673454732,0.389259755915,0.133912846451,nan,nan,0.0,0.0,0.0,nan,nan,175.722752281,621.590977307,622.001610798,622.0910463,nan,nan
0,361,2330,6,1,364,255,-0.160194321586,0.476704516321,-0.00341124574885,1,1.0,1.0,0.21843163576,0,0.0,0.0,0.285269873838,0.262008531183,0.127738357102,0.389746888286,0.134270174081,nan,nan,0.0,0.0,0.0,nan,nan,175.722752281,622.591124132,622.809555768,623.091164045,nan,nan
0,362,2331,6,1,173,121,1.0,-0.165909522591,0.273535192888,1,1.0,1.0,0.0182841264177,0,0.0,0.0,0.21578308451,0.261885432609,0.127578773732,0.389464206341,0.134306658876,nan,nan,0.0,0.0,0.0,nan,nan,175.722752281,623.591255847,623.609539973,624.091305453,nan,nan
0,363,2332,6,1,36,25,1.0,0.0410699577143,-1.0,1,1.0,1.0,0.114176505944,0,1.0,0.0,0.116964089374,0.261199231746,0.128051486547,0.389250718293,0.133147745199,nan,nan,0.0,0.0,0.0,nan,nan,175.722752281,624.59135563,624.705532136,625.091424339,nan,nan
0,364,2339,6,1,162,113,1.0,-0.218739557155,0.176632971453,1,1.0,1.0,0.106052951654,1,0.0,0.0,0.0795045280053,0.260786246561,0.128108045627,0.388894292188,0.132678200934,-75.8219355853,236.0,0.697004556276,0.169301754335,0.634065852989,51.9156855853,4.16762022092,175.722752281,625.591481358,625.69753431,626.091551777,627.416690377,631.592238861
0,365,2340,6,1,285,200,0.178734351563,0.356878681702,0.598527012995,1,1.0,1.0,0.472615862032,0,0.0,0.0,0.230948439877,0.260352819965,0.12818961718,0.388542437145,0.132163202785,nan,nan,0.0,0.0,0.0,nan,nan,175.722752281,632.800721752,633.273337614,633.300761095,nan,nan
0,366,2341,6,1,469,329,0.489482198204,0.360453357602,-1.0,1,1.0,1.0,0.264141239226,0,0.0,0.0,0.280936684304,0.26094573349,0.128499723654,0.389445457145,0.132446009836,nan,nan,0.0,0.0,0.0,nan,nan,175.722752281,633.809187707,634.073328946,634.309221919,nan,nan
0,367,2342,6,0,166,116,1.0,-0.20036215083,0.21267421211,0,1.0,0.0,0.231974028749,0,0.0,0.0,0.322910376669,0.26095463462,0.128320740397,0.389275375018,0.132633894223,nan,nan,0.0,0.0,0.0,nan,nan,175.722752281,634.809346221,635.04132025,635.309378722,nan,nan
0,368,2343,6,1,417,293,0.0945046041228,0.457053563907,-0.645720198395,1,1.0,1.0,0.423829206266,0,0.0,0.0,0.30664815808,0.260874132937,0.128151470706,0.389025603644,0.132722662231,nan,nan,0.0,0.0,0.0,nan,nan,175.722752281,635.809459405,636.233288611,636.309479361,nan,nan
0,369,2344,6,1,66,46,1.0,-0.118568705386,-1.0,1,1.0,1.0,0.471706402488,0,0.0,0.0,0.375836545834,0.261325532033,0.128260129957,0.389585661989,0.133065402076,nan,nan,0.0,0.0,0.0,nan,nan,175.722752281,636.80956432,637.281270723,637.309597107,nan,nan
0,370,2345,6,0,285,200,0.178734351563,0.356878681702,0.598527012995,0,1.0,0.0,0.255537296878,0,0.0,0.0,0.383690968544,0.261906694658,0.128557943632,0.39046463829,0.133348751027,nan,nan,0.0,0.0,0.0,nan,nan,175.722752281,637.809727111,638.065264408,638.309760467,nan,nan
0,371,2346,6,1,506,355,0.797774742377,0.236703125255,-1.0,1,1.0,1.0,0.223396600224,0,0.0,0.0,0.316880099863,0.261889148108,0.128381178524,0.390270326631,0.133507969584,nan,nan,0.0,0.0,0.0,nan,nan,175.722752281,638.809817201,639.033213802,639.309888761,nan,nan
0,372,2347,6,1,289,203,0.140592130943,0.368073254824,0.582505265782,1,1.0,1.0,0.167286372511,0,0.0,0.0,0.215406756538,0.26178339935,0.12822054003,0.39000393938,0.13356285932,nan,nan,0.0,0.0,0.0,nan,nan,175.722752281,639.809942359,639.977228732,640.310007076,nan,nan
0,373,2348,6,1,416,292,0.087881616042,0.458117504295,-0.630165317015,1,1.0,1.0,0.175111145014,0,0.0,0.0,0.18859803925,0.261524503386,0.128140010429,0.389664513815,0.133384492957,nan,nan,0.0,0.0,0.0,nan,nan,175.722752281,640.810087473,640.985198618,641.310152191,nan,nan
0,374,2349,6,1,182,127,1.0,-0.118523835432,0.347089474713,1,1.0,1.0,0.22298748605,0,0.0,0.0,0.188461667858,0.261288401314,0.128044312212,0.389332713526,0.133244089102,nan,nan,0.0,0.0,0.0,nan,nan,175.722752281,641.810215197,642.033202683,642.31026851,nan,nan
0,375,2350,6,1,97,68,1.0,-0.260369742894,-0.491718830742,1,1.0,1.0,0.270467827097,0,0.0,0.0,0.222855486053,0.261184039147,0.127885332224,0.389069371371,0.133298706923,nan,nan,0.0,0.0,0.0,nan,nan,175.722752281,642.818679442,643.089147269,643.318694267,nan,nan
0,376,2351,6,1,264,185,0.394966959701,0.287889713878,0.650717615019,1,1.0,1.0,0.230356388493,0,0.0,0.0,0.241270567213,0.261209266832,0.127712371225,0.388921638057,0.133496895606,nan,nan,0.0,0.0,0.0,nan,nan,175.722752281,643.818784073,644.049140461,644.318847079,nan,nan
0,377,2352,6,1,447,314,0.312467642152,0.411646472288,-1.0,1,1.0,1.0,0.340802399907,0,0.0,0.0,0.280542205165,0.261125654695,0.127549287286,0.388674941981,0.133576367409,nan,nan,0.0,0.0,0.0,nan,nan,175.722752281,644.852285252,645.193087652,645.352298937,nan,nan
0,378,2353,6,1,338,237,-0.162891363375,0.458928707883,0.250399161362,1,1.0,1.0,0.18074323656,0,0.0,0.0,0.25063400832,0.26134099725,0.127443957578,0.388784954827,0.133897039672,nan,nan,0.0,0.0,0.0,nan,nan,175.722752281,645.852399291,646.033142527,646.35244063,nan,nan
0,379,2354,6,1,75,52,1.0,-0.164714458691,-0.791355921409,1,1.0,1.0,0.0445754877292,0,0.0,0.0,0.188707041399,0.261123752612,0.127340667836,0.388464420448,0.133783084776,nan,nan,0.0,0.0,0.0,nan,nan,175.722752281,646.852525589,646.897101077,647.352577762,nan,nan
0,380,2355,6,0,186,130,1.0,-0.0967386681424,0.377881386018,0,1.0,0.0,0.100390925072,0,0.0,0.0,0.108569883121,0.26054163362,0.127662732364,0.388204365984,0.132878901256,nan,nan,0.0,0.0,0.0,nan,nan,175.722752281,647.852664716,647.953055641,648.35269066,nan,nan
0,381,2356,6,1,384,270,-0.0924750057551,0.477945316949,-0.222479273925,1,1.0,1.0,0.0523691845592,0,0.0,0.0,0.0657785324535,0.260112275152,0.127760154926,0.387872430078,0.132352120226,nan,nan,0.0,0.0,0.0,nan,nan,175.722752281,648.852745969,648.905115153,649.352828932,nan,nan
0,382,2357,6,1,118,82,1.0,-0.308588151016,-0.261285249573,1,1.0,1.0,0.436124300119,0,0.0,0.0,0.19629480325,0.259556812343,0.128039442127,0.38759625447,0.131517370217,nan,nan,0.0,0.0,0.0,nan,nan,175.722752281,649.852879679,650.289003979,650.352914746,nan,nan
0,383,2358,6,1,350,246,-0.175756816429,0.469490941964,0.138247479403,1,1.0,1.0,0.243990582647,0,0.0,0.0,0.244161355775,0.260027658977,0.128192416524,0.388220075501,0.131835242453,nan,nan,0.0,0.0,0.0,nan,nan,175.722752281,650.853015956,651.097006538,651.353062997,nan,nan
0,384,2359,6,1,453,318,0.359670421306,0.39926174925,-1.0,1,1.0,1.0,0.123831315897,0,0.0,0.0,0.267982066221,0.259985007178,0.128024498717,0.388009505895,0.131960508462,nan,nan,0.0,0.0,0.0,nan,nan,175.722752281,651.853137692,651.976969008,652.353206115,nan,nan
0,385,2400,6,1,310,217,-0.032854544558,0.417080732083,0.468828018046,1,1.0,1.0,0.371651321882,0,0.0,0.0,0.246491073476,0.259623856804,0.128046234913,0.387670091717,0.131577621891,nan,nan,0.0,0.0,0.0,nan,nan,175.722752281,652.853266841,653.224918163,653.353302763,nan,nan
0,386,2401,6,1,69,48,1.0,-0.134207199312,-0.939648005704,1,1.0,1.0,0.315519141732,0,0.0,0.0,0.270333926504,0.259920225759,0.128006158719,0.387926384478,0.13191406704,nan,nan,0.0,0.0,0.0,nan,nan,175.722752281,653.853406538,654.16892568,654.353430772,nan,nan
