block,trial,time,setsize,freqtrials,colorind,colordeg,colorrgb,correctresp,actualresp,acc,rts,probe_trials,fast_rt_trigger,slow_rt_trigger,rt_trailingavg,rt_runningavg,rt_runningstd,rt_runningslowthresh,rt_runningfastthresh,wm_mousepos,wm_respdeg,wm_colorind,wm_colorrgb,wm_colorhsv,wm_degdiff,wm_rts,timeBlockStart,timeEncArrayOnset,timeResponse,timeProbeOnset,timeProbeOffset
0,0,15:15:30:073000,6,1,437,307.265625,[ 0.23613483  0.42977024 -1.        ],1,1,1,0.299427498,0,nan,nan,nan,nan,nan,nan,nan,nan,nan,nan,[ nan  nan  nan],nan,nan,nan,742.3363765,743.3569978,743.6564253,nan,nan
0,1,15:15:31:025000,6,0,379,266.484375,[-0.11353594  0.47861499 -0.16597052],0,1,0,0.237248855,0,0,0,nan,nan,nan,nan,nan,nan,nan,nan,[ nan  nan  nan],nan,nan,nan,742.3363765,744.307171,744.5444199,nan,nan
0,2,15:15:31:977000,6,1,322,226.40625,[-0.10506723  0.43811622  0.38355935],1,1,1,0.215049263,0,nan,nan,nan,nan,nan,nan,nan,nan,nan,nan,[ nan  nan  nan],nan,nan,nan,742.3363765,745.2572675,745.4723167,nan,nan
0,3,15:15:32:928000,6,1,52,36.5625,[ 1.         -0.04388606 -1.        ],1,1,1,0.240941137,0,nan,nan,nan,nan,nan,nan,nan,nan,nan,nan,[ nan  nan  nan],nan,nan,nan,742.3363765,746.207407,746.4483481,nan,nan
0,4,15:15:33:895000,6,1,157,110.390625,[ 1.         -0.24004838  0.1304259 ],1,1,1,0.242423067,0,nan,nan,nan,nan,nan,nan,nan,nan,nan,nan,[ nan  nan  nan],nan,nan,nan,742.3363765,747.1659725,747.4083956,nan,nan
0,5,15:15:34:847000,6,1,497,349.453125,[ 0.72317494  0.2712606  -1.        ],1,1,1,0.260050285,0,nan,nan,nan,nan,nan,nan,nan,nan,nan,nan,[ nan  nan  nan],nan,nan,nan,742.3363765,748.1242718,748.384322,nan,nan
0,6,15:15:35:799000,6,1,412,289.6875,[ 0.06188912  0.46209661 -0.57115894],1,1,1,0.277792397,0,nan,nan,nan,nan,nan,nan,nan,nan,nan,nan,[ nan  nan  nan],nan,nan,nan,742.3363765,749.0743853,749.3521777,nan,nan
0,7,15:15:36:750000,6,1,193,135.703125,[ 1.         -0.05804539  0.42865879],1,1,1,0.287211693,0,nan,nan,nan,nan,nan,nan,nan,nan,nan,nan,[ nan  nan  nan],nan,nan,nan,742.3363765,750.0329312,750.3201429,nan,nan
0,8,15:15:37:702000,6,1,283,198.984375,[ 0.19826868  0.35105092  0.60582595],1,1,1,0.256971245,0,nan,nan,nan,nan,nan,nan,nan,nan,nan,nan,[ nan  nan  nan],nan,nan,nan,742.3363765,750.991284,751.2482553,nan,nan
0,9,15:15:38:654000,6,1,47,33.046875,[ 1.         -0.01707559 -1.        ],1,1,1,0.258851455,0,nan,nan,nan,nan,nan,nan,nan,nan,nan,nan,[ nan  nan  nan],nan,nan,nan,742.3363765,751.9413865,752.2002379,nan,nan
0,10,15:15:42:491000,6,1,371,260.859375,[-0.14179361  0.47833194 -0.07797326],1,1,1,0.284569991,1,nan,nan,nan,nan,nan,nan,nan,nan,-146.9875119,337,[-0.16064337  0.45785839  0.25930356],nan,-23.87186306,0.833703056,742.3363765,752.8915129,753.1760829,754.7250346,755.5667731
0,11,15:15:43:443000,6,1,282,198.28125,[ 0.20814231  0.34807905  0.6092955 ],1,1,1,0.690838175,0,nan,nan,nan,nan,nan,nan,nan,nan,nan,nan,[ nan  nan  nan],nan,nan,nan,742.3363765,756.7252909,757.4161291,nan,nan
0,12,15:15:44:410000,6,1,157,110.390625,[ 1.         -0.24004838  0.1304259 ],1,1,1,0.40421492,0,nan,nan,nan,nan,nan,nan,nan,nan,nan,nan,[ nan  nan  nan],nan,nan,nan,742.3363765,757.6838259,758.0880409,nan,nan
0,13,15:15:45:362000,6,1,202,142.03125,[ 1.         -0.00802826  0.48759698],1,1,1,0.229804136,0,nan,nan,nan,nan,nan,nan,nan,nan,nan,nan,[ nan  nan  nan],nan,nan,nan,742.3363765,758.6422065,758.8720106,nan,nan
0,14,15:15:46:329000,6,1,450,316.40625,[ 0.33594973  0.40559833 -1.        ],1,1,1,0.239405038,0,nan,nan,nan,nan,nan,nan,nan,nan,nan,nan,[ nan  nan  nan],nan,nan,nan,742.3363765,759.6006522,759.8400573,nan,nan
0,15,15:15:50:151000,6,1,282,198.28125,[ 0.20814231  0.34807905  0.6092955 ],1,1,1,0.208891754,1,nan,nan,nan,nan,nan,nan,nan,nan,-122.8361286,303,[ 0.01913493  0.40252284  0.51201836],nan,14.55487863,0.833816809,742.3363765,760.5591422,760.768034,762.3842847,763.226026
0,16,15:15:51:102000,6,0,379,266.484375,[-0.11353594  0.47861499 -0.16597052],0,0,1,0.367382477,0,nan,nan,nan,nan,nan,nan,nan,nan,nan,nan,[ nan  nan  nan],nan,nan,nan,742.3363765,764.3845618,764.7519443,nan,nan
0,17,15:15:52:070000,6,1,37,26.015625,[ 1.          0.03585655 -1.        ],1,1,1,0.272772707,0,nan,nan,nan,nan,nan,nan,nan,nan,nan,nan,[ nan  nan  nan],nan,nan,nan,742.3363765,765.3430105,765.6157832,nan,nan
0,18,15:15:53:021000,6,1,287,201.796875,[ 0.15950165  0.36255249  0.59075192],1,1,1,0.250359008,0,nan,nan,nan,nan,nan,nan,nan,nan,nan,nan,[ nan  nan  nan],nan,nan,nan,742.3363765,766.3015318,766.5518908,nan,nan
0,19,15:15:53:988000,6,1,98,68.90625,[ 1.         -0.26382291 -0.48021779],1,1,1,0.243807495,0,nan,nan,nan,nan,nan,nan,nan,nan,nan,nan,[ nan  nan  nan],nan,nan,nan,742.3363765,767.2600306,767.5038381,nan,nan
0,20,15:15:54:940000,6,1,377,265.078125,[-0.12125986  0.47870083 -0.1436959 ],1,1,1,0.261401072,0,nan,nan,nan,nan,nan,nan,nan,nan,nan,nan,[ nan  nan  nan],nan,nan,nan,742.3363765,768.2184091,768.4798102,nan,nan
0,21,15:15:55:892000,6,1,50,35.15625,[ 1.         -0.03314873 -1.        ],1,1,1,0.247228365,0,nan,nan,nan,nan,nan,nan,nan,nan,nan,nan,[ nan  nan  nan],nan,nan,nan,742.3363765,769.1684853,769.4157137,nan,nan
0,22,15:15:56:859000,6,1,267,187.734375,[ 0.36292453  0.29880723  0.64662252],1,1,1,0.080700208,0,nan,nan,nan,nan,nan,nan,nan,nan,nan,nan,[ nan  nan  nan],nan,nan,nan,742.3363765,770.1270423,770.2077425,nan,nan
0,23,15:15:57:810000,6,1,75,52.734375,[ 1.         -0.16471446 -0.79135592],1,1,1,0.018442308,0,nan,nan,nan,nan,nan,nan,nan,nan,nan,nan,[ nan  nan  nan],nan,nan,nan,742.3363765,771.0853912,771.1038335,nan,nan
0,24,15:15:58:762000,6,1,323,227.109375,[-0.11001989  0.43965345  0.37585536],1,1,1,0.051910901,0,nan,nan,nan,nan,nan,nan,nan,nan,nan,nan,[ nan  nan  nan],nan,nan,nan,742.3363765,772.0438832,772.0957941,nan,nan
0,25,15:15:59:729000,6,1,479,336.796875,[ 0.57257215  0.33176822 -1.        ],1,nan,nan,nan,0,nan,nan,nan,nan,nan,nan,nan,nan,nan,nan,[ nan  nan  nan],nan,nan,nan,742.3363765,773.0022899,nan,nan,nan
0,26,15:16:00:681000,6,1,58,40.78125,[ 1.         -0.07608966 -1.        ],1,nan,nan,nan,0,nan,nan,nan,nan,nan,nan,nan,nan,nan,nan,[ nan  nan  nan],nan,nan,nan,742.3363765,773.9607576,nan,nan,nan
0,27,15:16:01:632000,6,1,369,259.453125,[-0.14769469  0.47799919 -0.05643387],1,1,1,0.288861545,0,nan,nan,nan,nan,nan,nan,nan,nan,nan,nan,[ nan  nan  nan],nan,nan,nan,742.3363765,774.9108595,775.1997211,nan,nan
0,28,15:16:02:584000,6,1,213,149.765625,[ 0.92978509  0.05216688  0.54890652],1,1,1,0.050734023,0,nan,nan,nan,nan,nan,nan,nan,nan,nan,nan,[ nan  nan  nan],nan,nan,nan,742.3363765,775.8609688,775.9117028,nan,nan
0,29,15:16:03:551000,6,1,62,43.59375,[ 1.         -0.09743725 -1.        ],1,1,1,0.020206769,0,nan,nan,nan,nan,nan,nan,nan,nan,nan,nan,[ nan  nan  nan],nan,nan,nan,742.3363765,776.819438,776.8396447,nan,nan
0,30,15:16:04:503000,6,1,445,312.890625,[ 0.2969539  0.4155201 -1.       ],1,1,1,0.197716835,0,nan,nan,nan,nan,nan,nan,nan,nan,nan,nan,[ nan  nan  nan],nan,nan,nan,742.3363765,777.7779134,777.9756303,nan,nan
0,31,15:16:05:454000,6,1,135,94.921875,[ 1.         -0.30350232 -0.08497887],1,1,1,0.223246066,0,nan,nan,nan,nan,nan,nan,nan,nan,nan,nan,[ nan  nan  nan],nan,nan,nan,742.3363765,778.7363635,778.9596096,nan,nan
0,32,15:16:06:422000,6,1,401,281.953125,[-0.00506341  0.47079689 -0.4252031 ],1,1,1,0.224637621,0,nan,nan,nan,nan,nan,nan,nan,nan,nan,nan,[ nan  nan  nan],nan,nan,nan,742.3363765,779.6948278,779.9194654,nan,nan
0,33,15:16:07:373000,6,1,12,8.4375,[ 0.94247669  0.15927395 -1.        ],1,1,1,0.226346203,0,nan,nan,nan,nan,nan,nan,nan,nan,nan,nan,[ nan  nan  nan],nan,nan,nan,742.3363765,780.6532243,780.8795705,nan,nan
0,34,15:16:08:340000,6,1,245,172.265625,[ 0.6005777   0.21061011  0.65017283],1,1,1,0.203852392,0,nan,nan,nan,nan,nan,nan,nan,nan,nan,nan,[ nan  nan  nan],nan,nan,nan,742.3363765,781.6116838,781.8155362,nan,nan
0,35,15:16:09:292000,6,0,300,210.9375,[ 0.04335371  0.39574842  0.52895103],0,1,0,0.093272098,0,0,0,nan,nan,nan,nan,nan,nan,nan,nan,[ nan  nan  nan],nan,nan,nan,742.3363765,782.5701327,782.6634048,nan,nan
0,36,15:16:10:259000,6,1,204,143.4375,[ 1.          0.00303257  0.49965442],1,1,1,0.230810526,0,nan,nan,nan,nan,nan,nan,nan,nan,nan,nan,[ nan  nan  nan],nan,nan,nan,742.3363765,783.5286791,783.7594896,nan,nan
0,37,15:16:11:211000,6,1,370,260.15625,[-0.144806    0.47817873 -0.06718033],1,1,1,0.224449458,0,nan,nan,nan,nan,nan,nan,nan,nan,nan,nan,[ nan  nan  nan],nan,nan,nan,742.3363765,784.4870334,784.7114829,nan,nan
0,38,15:16:12:162000,6,1,158,111.09375,[ 1.         -0.23594923  0.13976411],1,1,1,0.225968451,0,nan,nan,nan,nan,nan,nan,nan,nan,nan,nan,[ nan  nan  nan],nan,nan,nan,742.3363765,785.4454906,785.671459,nan,nan
0,39,15:16:13:130000,6,1,113,79.453125,[ 1.         -0.30219199 -0.31457635],1,1,1,0.259522857,0,nan,nan,nan,nan,nan,nan,nan,nan,nan,nan,[ nan  nan  nan],nan,nan,nan,742.3363765,786.403937,786.6634598,nan,nan
0,40,15:16:17:045000,6,1,336,236.25,[-0.15821161  0.45675811  0.26813527],1,1,1,0.293057307,1,nan,nan,nan,nan,nan,nan,nan,nan,-146.1518756,336,[-0.15821161  0.45675811  0.26813527],nan,-0.098124448,0.917070909,742.3363765,787.3623825,787.6554398,789.1958982,790.1209894
0,41,15:16:17:997000,6,1,199,139.921875,[ 1.         -0.02467618  0.4687863 ],1,1,1,0.263592036,0,nan,nan,nan,nan,nan,nan,nan,nan,nan,nan,[ nan  nan  nan],nan,nan,nan,742.3363765,791.2796159,791.5432079,nan,nan
0,42,15:16:18:948000,6,1,154,108.28125,[ 1.         -0.25181315  0.10213817],1,1,1,0.16159086,0,nan,nan,nan,nan,nan,nan,nan,nan,nan,nan,[ nan  nan  nan],nan,nan,nan,742.3363765,792.2296562,792.391247,nan,nan
0,43,15:16:19:900000,6,1,454,319.21875,[ 0.36762736  0.39708484 -1.        ],1,1,1,0.131427389,0,nan,nan,nan,nan,nan,nan,nan,nan,nan,nan,[ nan  nan  nan],nan,nan,nan,742.3363765,793.1798057,793.3112331,nan,nan
0,44,15:16:20:867000,6,0,139,97.734375,[ 1.         -0.29633561 -0.04459929],0,1,0,0.197024336,0,0,0,nan,nan,nan,nan,nan,nan,nan,nan,[ nan  nan  nan],nan,nan,nan,742.3363765,794.1382418,794.3352661,nan,nan
0,45,15:16:21:819000,6,1,223,156.796875,[ 0.83172397  0.10489059  0.59343224],1,1,1,0.222607451,0,nan,nan,nan,nan,nan,nan,nan,nan,nan,nan,[ nan  nan  nan],nan,nan,nan,742.3363765,795.0966582,795.3192656,nan,nan
0,46,15:16:22:770000,6,1,480,337.5,[ 0.58092807  0.32870764 -1.        ],1,1,1,0.21646163,0,nan,nan,nan,nan,nan,nan,nan,nan,nan,nan,[ nan  nan  nan],nan,nan,nan,742.3363765,796.0467718,796.2632334,nan,nan
0,47,15:16:26:546000,6,1,239,168.046875,[ 0.66506983  0.18338886  0.64054927],1,1,1,0.266263388,1,nan,nan,nan,nan,nan,nan,nan,nan,-79.67031791,241,[ 0.64365311  0.19260594  0.64425478],nan,1.623442911,0.775371217,742.3363765,796.9969024,797.2631658,798.8220757,799.6054798
0,48,15:16:27:497000,6,1,134,94.21875,[ 1.         -0.304951   -0.09514411],1,1,1,0.306727388,0,nan,nan,nan,nan,nan,nan,nan,nan,nan,nan,[ nan  nan  nan],nan,nan,nan,742.3363765,800.772358,801.0790854,nan,nan
0,49,15:16:28:449000,6,1,51,35.859375,[ 1.         -0.03851602 -1.        ],1,1,1,0.220214067,0,nan,nan,nan,nan,nan,nan,nan,nan,nan,nan,[ nan  nan  nan],nan,nan,nan,742.3363765,801.7308072,801.9510213,nan,nan
0,50,15:16:29:416000,6,1,159,111.796875,[ 1.         -0.23176597  0.14905501],1,1,1,0.213762909,0,nan,nan,nan,nan,nan,nan,nan,nan,nan,nan,[ nan  nan  nan],nan,nan,nan,742.3363765,802.6892981,802.903061,nan,nan
0,51,15:16:30:368000,6,0,28,19.6875,[ 1.          0.08206613 -1.        ],0,1,0,0.199279163,0,0,0,nan,nan,nan,nan,nan,nan,nan,nan,[ nan  nan  nan],nan,nan,nan,742.3363765,803.6477573,803.8470364,nan,nan
0,52,15:16:31:319000,6,1,428,300.9375,[ 0.17037832  0.44348657 -0.8686614 ],1,1,1,0.224963201,0,nan,nan,nan,nan,nan,nan,nan,nan,nan,nan,[ nan  nan  nan],nan,nan,nan,742.3363765,804.5979455,804.8229087,nan,nan
0,53,15:16:32:286000,6,1,8,5.625,[ 0.91102659  0.17740094 -1.        ],1,1,1,0.234753978,0,nan,nan,nan,nan,nan,nan,nan,nan,nan,nan,[ nan  nan  nan],nan,nan,nan,742.3363765,805.5562599,805.7910139,nan,nan
0,54,15:16:33:238000,6,1,482,338.90625,[ 0.59765563  0.32248081 -1.        ],1,1,1,0.228104677,0,nan,nan,nan,nan,nan,nan,nan,nan,nan,nan,[ nan  nan  nan],nan,nan,nan,742.3363765,806.5147402,806.7428449,nan,nan
0,55,15:16:34:205000,6,1,85,59.765625,[ 1.         -0.21215645 -0.63878123],1,0,0,0.349695389,0,0,0,nan,nan,nan,nan,nan,nan,nan,nan,[ nan  nan  nan],nan,nan,nan,742.3363765,807.4732444,807.8229398,nan,nan
0,56,15:16:35:157000,6,1,417,293.203125,[ 0.0945046   0.45705356 -0.6457202 ],1,1,1,0.21532153,0,nan,nan,nan,nan,nan,nan,nan,nan,nan,nan,[ nan  nan  nan],nan,nan,nan,742.3363765,808.4316329,808.6469544,nan,nan
0,57,15:16:36:108000,6,1,101,71.015625,[ 1.         -0.27357267 -0.44615261],1,1,1,0.27281148,0,nan,nan,nan,nan,nan,nan,nan,nan,nan,nan,[ nan  nan  nan],nan,nan,nan,742.3363765,809.3900855,809.662897,nan,nan
0,58,15:16:37:076000,6,1,162,113.90625,[ 1.         -0.21873956  0.17663297],1,1,1,0.258352822,0,nan,nan,nan,nan,nan,nan,nan,nan,nan,nan,[ nan  nan  nan],nan,nan,nan,742.3363765,810.3485285,810.6068813,nan,nan
0,59,15:16:38:027000,6,1,425,298.828125,[ 0.14916262  0.4475296  -0.79171567],1,1,1,0.251819841,0,nan,nan,nan,nan,nan,nan,nan,nan,nan,nan,[ nan  nan  nan],nan,nan,nan,742.3363765,811.3069786,811.5587984,nan,nan
0,60,15:16:38:994000,6,1,126,88.59375,[ 1.         -0.31141175 -0.17740843],1,1,1,0.333347398,0,nan,nan,nan,nan,nan,nan,nan,nan,nan,nan,[ nan  nan  nan],nan,nan,nan,742.3363765,812.2655256,812.598873,nan,nan
0,61,15:16:39:946000,6,1,245,172.265625,[ 0.6005777   0.21061011  0.65017283],1,1,1,0.254778,0,nan,nan,nan,nan,nan,nan,nan,nan,nan,nan,[ nan  nan  nan],nan,nan,nan,742.3363765,813.2238947,813.4786727,nan,nan
0,62,15:16:40:913000,6,1,383,269.296875,[-0.09687871  0.47813121 -0.21108141],1,1,1,0.21632678,0,nan,nan,nan,nan,nan,nan,nan,nan,nan,nan,[ nan  nan  nan],nan,nan,nan,742.3363765,814.1823256,814.3986524,nan,nan
0,63,15:16:41:865000,6,1,1,0.703125,[ 0.85493913  0.20787707 -1.        ],1,1,1,0.233933756,0,nan,nan,nan,nan,nan,nan,nan,nan,nan,nan,[ nan  nan  nan],nan,nan,nan,742.3363765,815.140821,815.3747548,nan,nan
0,64,15:16:42:816000,6,1,192,135,[ 1.         -0.06359976  0.42165841],1,1,1,0.259392283,0,nan,nan,nan,nan,nan,nan,nan,nan,nan,nan,[ nan  nan  nan],nan,nan,nan,742.3363765,816.0993529,816.3587452,nan,nan
0,65,15:16:43:768000,6,1,470,330.46875,[ 0.49774161  0.35774078 -1.        ],1,1,1,0.229248198,0,nan,nan,nan,nan,nan,nan,nan,nan,nan,nan,[ nan  nan  nan],nan,nan,nan,742.3363765,817.0493758,817.278624,nan,nan
0,66,15:16:44:735000,6,1,108,75.9375,[ 1.         -0.29242661 -0.36866329],1,1,1,0.286877275,0,nan,nan,nan,nan,nan,nan,nan,nan,nan,nan,[ nan  nan  nan],nan,nan,nan,742.3363765,818.0078459,818.2947231,nan,nan
0,67,15:16:45:687000,6,1,310,217.96875,[-0.03285454  0.41708073  0.46882802],1,1,1,0.216295704,0,nan,nan,nan,nan,nan,nan,nan,nan,nan,nan,[ nan  nan  nan],nan,nan,nan,742.3363765,818.9662463,819.182542,nan,nan
0,68,15:16:46:654000,6,1,445,312.890625,[ 0.2969539  0.4155201 -1.       ],1,1,1,0.193754852,0,nan,nan,nan,nan,nan,nan,nan,nan,nan,nan,[ nan  nan  nan],nan,nan,nan,742.3363765,819.9247805,820.1185353,nan,nan
0,69,15:16:47:606000,6,1,229,161.015625,[ 0.77039703  0.13526594  0.61468147],1,1,1,0.123508554,0,nan,nan,nan,nan,nan,nan,nan,nan,nan,nan,[ nan  nan  nan],nan,nan,nan,742.3363765,820.8831459,821.0066544,nan,nan
0,70,15:16:48:557000,6,1,356,250.3125,[-0.17284378  0.47323941  0.07883681],1,1,1,0.221293157,0,nan,nan,nan,nan,nan,nan,nan,nan,nan,nan,[ nan  nan  nan],nan,nan,nan,742.3363765,821.8332535,822.0545466,nan,nan
0,71,15:16:49:509000,6,1,321,225.703125,[-0.09994335  0.43654647  0.39117498],1,1,1,0.319186096,0,nan,nan,nan,nan,nan,nan,nan,nan,nan,nan,[ nan  nan  nan],nan,nan,nan,742.3363765,822.7834081,823.1025942,nan,nan
0,72,15:16:50:460000,6,1,426,299.53125,[ 0.15619305  0.44621085 -0.8148597 ],1,1,1,0.248669812,0,nan,nan,nan,nan,nan,nan,nan,nan,nan,nan,[ nan  nan  nan],nan,nan,nan,742.3363765,823.7418875,823.9905573,nan,nan
0,73,15:16:51:428000,6,1,272,191.25,[ 0.3101667   0.31621412  0.63728143],1,1,1,0.250190801,0,nan,nan,nan,nan,nan,nan,nan,nan,nan,nan,[ nan  nan  nan],nan,nan,nan,742.3363765,824.7003581,824.9505489,nan,nan
0,74,15:16:52:379000,6,0,352,247.5,[-0.17544713  0.4708516   0.11867359],0,1,0,0.251750562,0,0,0,nan,nan,nan,nan,nan,nan,nan,nan,[ nan  nan  nan],nan,nan,nan,742.3363765,825.65878,825.9105305,nan,nan
0,75,15:16:53:346000,6,1,139,97.734375,[ 1.         -0.29633561 -0.04459929],1,1,1,0.269310498,0,nan,nan,nan,nan,nan,nan,nan,nan,nan,nan,[ nan  nan  nan],nan,nan,nan,742.3363765,826.6171816,826.8864921,nan,nan
0,76,15:16:54:298000,6,0,239,168.046875,[ 0.66506983  0.18338886  0.64054927],0,1,0,0.230830198,0,0,0,nan,nan,nan,nan,nan,nan,nan,nan,[ nan  nan  nan],nan,nan,nan,742.3363765,827.5756356,827.8064658,nan,nan
0,77,15:16:55:265000,6,1,356,250.3125,[-0.17284378  0.47323941  0.07883681],1,1,1,0.21629941,0,nan,nan,nan,nan,nan,nan,nan,nan,nan,nan,[ nan  nan  nan],nan,nan,nan,742.3363765,828.534092,828.7503914,nan,nan
0,78,15:16:56:248000,6,1,82,57.65625,[ 1.         -0.19847916 -0.67987248],1,1,1,0.185776148,0,nan,nan,nan,nan,nan,nan,nan,nan,nan,nan,[ nan  nan  nan],nan,nan,nan,742.3363765,829.492532,829.6783082,nan,nan
0,79,15:16:57:215000,6,0,186,130.78125,[ 1.         -0.09673867  0.37788139],0,1,0,0.233983362,0,0,0,nan,nan,nan,nan,nan,nan,nan,nan,[ nan  nan  nan],nan,nan,nan,742.3363765,830.4844273,830.7184107,nan,nan
0,80,15:16:58:167000,6,1,12,8.4375,[ 0.94247669  0.15927395 -1.        ],1,1,1,0.267620732,0,0,0,0.229126747,0.235896205,0.085316216,0.321212421,0.150579989,nan,nan,nan,[ nan  nan  nan],nan,nan,nan,742.3363765,831.4427827,831.7104035,nan,nan
0,81,15:16:59:134000,6,0,338,237.65625,[-0.16289136  0.45892871  0.25039916],0,0,1,0.341160747,0,0,0,0.280921614,0.236297781,0.084848676,0.321146457,0.151449105,nan,nan,nan,[ nan  nan  nan],nan,nan,nan,742.3363765,832.4012228,832.7423836,nan,nan
0,82,15:17:00:086000,6,1,428,300.9375,[ 0.17037832  0.44348657 -0.8686614 ],1,1,1,0.23058587,0,0,0,0.279789116,0.237608568,0.085117809,0.322726378,0.152490759,nan,nan,nan,[ nan  nan  nan],nan,nan,nan,742.3363765,833.3596923,833.5902782,nan,nan
0,83,15:17:01:037000,6,1,225,158.203125,[ 0.81146625  0.11513113  0.60098195],1,1,1,0.088074223,0,0,0,0.21994028,0.237521868,0.084594314,0.322116182,0.152927555,nan,nan,nan,[ nan  nan  nan],nan,nan,nan,742.3363765,834.3181358,834.40621,nan,nan
0,84,15:17:02:004000,6,1,447,314.296875,[ 0.31246764  0.41164647 -1.        ],1,1,1,0.257598742,0,0,0,0.192086279,0.235699336,0.085662003,0.321361339,0.150037333,nan,nan,nan,[ nan  nan  nan],nan,nan,nan,742.3363765,835.2765719,835.5341706,nan,nan
0,85,15:17:02:956000,6,1,86,60.46875,[ 1.         -0.21659106 -0.6256178 ],1,1,1,0.24320138,0,0,0,0.196291449,0.235963184,0.085177919,0.321141103,0.150785266,nan,nan,nan,[ nan  nan  nan],nan,nan,nan,742.3363765,836.235077,836.4782784,nan,nan
0,86,15:17:03:923000,6,1,211,148.359375,[ 0.94867577  0.04136069  0.53868916],1,1,1,0.164793347,0,0,0,0.22186449,0.236049353,0.084673029,0.320722382,0.151376325,nan,nan,nan,[ nan  nan  nan],nan,nan,nan,742.3363765,837.1935008,837.3582942,nan,nan
0,87,15:17:04:875000,6,0,453,318.515625,[ 0.35967042  0.39926175 -1.        ],0,1,0,0.214300886,0,0,0,0.207431871,0.235211047,0.084523405,0.319734452,0.150687642,nan,nan,nan,[ nan  nan  nan],nan,nan,nan,742.3363765,838.151927,838.3662278,nan,nan
0,88,15:17:05:842000,6,1,35,24.609375,[ 1.          0.04626536 -1.        ],1,1,1,0.223709063,0,0,0,0.200934432,0.234967906,0.084060448,0.319028354,0.150907458,nan,nan,nan,[ nan  nan  nan],nan,nan,nan,742.3363765,839.110472,839.334181,nan,nan
0,89,15:17:06:794000,6,1,454,319.21875,[ 0.36762736  0.39708484 -1.        ],1,1,1,0.329316137,0,0,0,0.255775362,0.234838494,0.083584562,0.318423055,0.151253932,nan,nan,nan,[ nan  nan  nan],nan,nan,nan,742.3363765,840.0688687,840.3981848,nan,nan
0,90,15:17:07:745000,6,1,77,54.140625,[ 1.         -0.17459302 -0.75626719],1,1,1,0.442850313,0,0,1,0.331958504,0.235912103,0.083709424,0.319621528,0.152202679,nan,nan,nan,[ nan  nan  nan],nan,nan,nan,742.3363765,841.0273042,841.4701546,nan,nan
0,91,15:17:11:630000,6,1,286,201.09375,[ 0.16907896  0.35973478  0.59469871],1,1,1,0.324685603,1,0,0,0.365617351,0.238237252,0.086048185,0.324285437,0.152189067,nan,-126.4789968,308,[-0.01868286  0.41309748  0.48168233],nan,15.38524683,0.867218404,742.3363765,841.9774321,842.3021177,843.8109093,844.6860309
0,92,15:17:12:581000,6,1,506,355.78125,[ 0.79777474  0.23670313 -1.        ],1,1,1,0.225114872,0,0,0,0.330883596,0.239197789,0.08604728,0.325245069,0.153150509,nan,nan,nan,[ nan  nan  nan],nan,nan,nan,742.3363765,845.8528598,846.0779747,nan,nan
0,93,15:17:13:533000,6,1,142,99.84375,[ 1.         -0.28956812 -0.01462735],1,1,1,0.258725443,0,0,0,0.269508639,0.239043032,0.085585781,0.324628812,0.153457251,nan,nan,nan,[ nan  nan  nan],nan,nan,nan,742.3363765,846.8113176,847.070043,nan,nan
0,94,15:17:14:500000,6,1,323,227.109375,[-0.11001989  0.43965345  0.37585536],1,1,1,0.188076304,0,0,0,0.223972207,0.239256971,0.085143832,0.324400803,0.154113139,nan,nan,nan,[ nan  nan  nan],nan,nan,nan,742.3363765,847.7699068,847.9579831,nan,nan
0,95,15:17:15:452000,6,1,172,120.9375,[ 1.         -0.17098406  0.26502468],1,1,1,0.2536972,0,0,0,0.233499649,0.238706641,0.084849185,0.323555826,0.153857456,nan,nan,nan,[ nan  nan  nan],nan,nan,nan,742.3363765,848.7282879,848.9819851,nan,nan
0,96,15:17:16:419000,6,1,30,21.09375,[ 1.          0.07194566 -1.        ],1,1,1,0.311303754,0,0,0,0.251025753,0.238866115,0.084410664,0.323276779,0.154455451,nan,nan,nan,[ nan  nan  nan],nan,nan,nan,742.3363765,849.6866624,849.9979661,nan,nan
0,97,15:17:17:370000,6,1,181,127.265625,[ 1.         -0.12391439  0.33920113],1,1,1,0.240778917,0,0,0,0.26859329,0.239628617,0.08429004,0.323918657,0.155338576,nan,nan,nan,[ nan  nan  nan],nan,nan,nan,742.3363765,850.6451153,850.8858942,nan,nan
0,98,15:17:18:338000,6,1,346,243.28125,[-0.17431756  0.46643129  0.17667017],1,1,1,0.258204857,0,0,0,0.270095843,0.239640599,0.083849962,0.323490561,0.155790637,nan,nan,nan,[ nan  nan  nan],nan,nan,nan,742.3363765,851.6035847,851.8617896,nan,nan
0,99,15:17:19:289000,6,1,201,141.328125,[ 1.         -0.01357126  0.48142235],1,1,1,0.219794976,0,0,0,0.239592917,0.239831983,0.0834377,0.323269683,0.156394284,nan,nan,nan,[ nan  nan  nan],nan,nan,nan,742.3363765,852.5620445,852.7818395,nan,nan
0,100,15:17:20:241000,6,1,392,275.625,[-0.05410679  0.47552228 -0.31554984],1,1,1,0.25371402,0,0,0,0.243904618,0.239627524,0.083035326,0.32266285,0.156592198,nan,nan,nan,[ nan  nan  nan],nan,nan,nan,742.3363765,853.5121535,853.7658675,nan,nan
0,101,15:17:21:192000,6,0,480,337.5,[ 0.58092807  0.32870764 -1.        ],0,0,1,0.383278305,0,0,0,0.285595767,0.239769812,0.082626899,0.32239671,0.157142913,nan,nan,nan,[ nan  nan  nan],nan,nan,nan,742.3363765,854.4705748,854.8538531,nan,nan
0,102,15:17:22:144000,6,1,48,33.75,[ 1.         -0.02242733 -1.        ],1,1,1,0.256793345,0,0,0,0.297928557,0.241204897,0.083443512,0.324648409,0.157761384,nan,nan,nan,[ nan  nan  nan],nan,nan,nan,742.3363765,855.4290733,855.6858667,nan,nan
0,103,15:17:23:096000,6,1,504,354.375,[ 0.78128615  0.24462829 -1.        ],1,1,1,0.274567673,0,0,0,0.304879774,0.241359238,0.083043742,0.32440298,0.158315496,nan,nan,nan,[ nan  nan  nan],nan,nan,nan,742.3363765,856.379147,856.6537146,nan,nan
0,104,15:17:24:047000,6,1,373,262.265625,[-0.13540771  0.47855957 -0.09969749],1,1,1,0.268409023,0,0,0,0.266590014,0.241684811,0.082700413,0.324385224,0.158984397,nan,nan,nan,[ nan  nan  nan],nan,nan,nan,742.3363765,857.3292757,857.5976847,nan,nan
0,105,15:17:24:999000,6,1,214,150.46875,[ 0.92024366  0.05754104  0.55385485],1,1,1,0.294392983,0,0,0,0.279123226,0.241944269,0.082339683,0.324283952,0.159604586,nan,nan,nan,[ nan  nan  nan],nan,nan,nan,742.3363765,858.2793772,858.5737702,nan,nan
0,106,15:17:25:950000,6,0,67,47.109375,[ 1.         -0.12380467 -1.        ],0,1,0,0.27192312,0,0,0,0.278241709,0.242448584,0.082102552,0.324551136,0.160346031,nan,nan,nan,[ nan  nan  nan],nan,nan,nan,742.3363765,859.2378607,859.5097838,nan,nan
0,107,15:17:26:918000,6,1,439,308.671875,[ 0.25114429  0.4263922  -1.        ],1,1,1,0.169792795,0,0,0,0.245369633,0.242729293,0.081760783,0.324490077,0.16096851,nan,nan,nan,[ nan  nan  nan],nan,nan,nan,742.3363765,860.1879346,860.3577274,nan,nan
0,108,15:17:27:869000,6,1,216,151.875,[ 0.90097501  0.06822711  0.56342658],1,0,0,0.331183517,0,0,0,0.257633144,0.242041213,0.081679092,0.323720305,0.160362122,nan,nan,nan,[ nan  nan  nan],nan,nan,nan,742.3363765,861.1465127,861.4776962,nan,nan
0,109,15:17:28:821000,6,0,461,324.140625,[ 0.42395965  0.38092737 -1.        ],0,0,1,0.669025173,0,0,0,0.390000495,0.242874319,0.08174775,0.324622069,0.161126569,nan,nan,nan,[ nan  nan  nan],nan,nan,nan,742.3363765,862.0965239,862.7655491,nan,nan
0,110,15:17:29:772000,6,1,3,2.109375,[ 0.87108718  0.19933511 -1.        ],1,1,1,0.487002888,0,0,0,0.495737193,0.24682016,0.091031708,0.337851868,0.155788452,nan,nan,nan,[ nan  nan  nan],nan,nan,nan,742.3363765,863.0466426,863.5336455,nan,nan
0,111,15:17:30:740000,6,1,286,201.09375,[ 0.16907896  0.35973478  0.59469871],1,1,1,0.432339098,0,0,0,0.52945572,0.249023671,0.093461951,0.342485622,0.155561721,nan,nan,nan,[ nan  nan  nan],nan,nan,nan,742.3363765,864.0052951,864.4376342,nan,nan
0,112,15:17:31:691000,6,1,107,75.234375,[ 1.         -0.29008977 -0.37959278],1,1,1,0.409972155,0,0,1,0.443104714,0.250690175,0.09464906,0.345339235,0.156041115,nan,nan,nan,[ nan  nan  nan],nan,nan,nan,742.3363765,864.9635311,865.3735032,nan,nan
0,113,15:17:35:669000,6,1,468,329.0625,[ 0.48123648  0.36313162 -1.        ],1,1,1,0.323626185,1,0,0,0.388645813,0.252125148,0.095416162,0.34754131,0.156708986,nan,127.8027925,458,[ 0.39968805  0.38805021 -1.        ],nan,-6.865292451,0.958815277,742.3363765,865.9219831,866.2456093,867.7554741,868.7222675
0,114,15:17:36:621000,6,1,189,132.890625,[ 1.         -0.08021946  0.40014347],1,1,1,0.228029697,0,0,0,0.320542679,0.25276355,0.095227071,0.347990621,0.15753648,nan,nan,nan,[ nan  nan  nan],nan,nan,nan,742.3363765,869.8974654,870.1254951,nan,nan
0,115,15:17:37:573000,6,1,293,206.015625,[ 0.10383026  0.3786596   0.56461706],1,1,1,0.245558556,0,0,0,0.265738146,0.252544667,0.094833071,0.347377738,0.157711595,nan,nan,nan,[ nan  nan  nan],nan,nan,nan,742.3363765,870.8559092,871.1014678,nan,nan
0,116,15:17:38:540000,6,1,461,324.140625,[ 0.42395965  0.38092737 -1.        ],1,1,1,0.239306395,0,0,0,0.237631549,0.252483385,0.094418468,0.346901853,0.158064917,nan,nan,nan,[ nan  nan  nan],nan,nan,nan,742.3363765,871.8060322,872.0453386,nan,nan
0,117,15:17:39:491000,6,1,309,217.265625,[-0.02583963  0.41510654  0.4753057 ],1,1,1,0.232958441,0,0,0,0.239274464,0.252368802,0.094015017,0.346383819,0.158353786,nan,nan,nan,[ nan  nan  nan],nan,nan,nan,742.3363765,872.7644808,872.9974393,nan,nan
0,118,15:17:40:443000,6,1,197,138.515625,[ 1.         -0.0357976   0.45577474],1,1,1,0.282356503,0,0,0,0.251540446,0.252201472,0.0936261,0.345827572,0.158575372,nan,nan,nan,[ nan  nan  nan],nan,nan,nan,742.3363765,873.7230099,874.0053664,nan,nan
0,119,15:17:41:395000,6,1,451,317.109375,[ 0.34383096  0.40351836 -1.        ],1,1,1,0.284218752,0,0,0,0.266511232,0.252459207,0.093266448,0.345725655,0.159192759,nan,nan,nan,[ nan  nan  nan],nan,nan,nan,742.3363765,874.6730493,874.9572681,nan,nan
0,120,15:17:42:362000,6,1,494,347.34375,[ 0.69812996  0.282144   -1.        ],1,1,1,0.245821415,0,0,0,0.27079889,0.252728356,0.092916031,0.345644387,0.159812325,nan,nan,nan,[ nan  nan  nan],nan,nan,nan,742.3363765,875.631496,875.8773174,nan,nan
0,121,15:17:43:313000,6,1,58,40.78125,[ 1.         -0.07608966 -1.        ],1,1,1,0.231317142,0,0,0,0.25378577,0.252670314,0.092526952,0.345197266,0.160143362,nan,nan,nan,[ nan  nan  nan],nan,nan,nan,742.3363765,876.5900187,876.8213359,nan,nan
0,122,15:17:44:281000,6,1,300,210.9375,[ 0.04335371  0.39574842  0.52895103],1,1,1,0.232825016,0,0,0,0.236654524,0.252492371,0.092161061,0.344653432,0.16033131,nan,nan,nan,[ nan  nan  nan],nan,nan,nan,742.3363765,877.5484845,877.7813095,nan,nan
0,123,15:17:45:232000,6,1,228,160.3125,[ 0.78072981  0.13027695  0.61143314],1,1,1,0.242375456,0,0,0,0.235505871,0.252329831,0.09179671,0.344126541,0.160533121,nan,nan,nan,[ nan  nan  nan],nan,nan,nan,742.3363765,878.5068658,878.7492413,nan,nan
0,124,15:17:46:199000,6,1,360,253.125,[-0.1677095   0.47518832  0.03812586],1,1,1,0.235874121,0,0,0,0.237024864,0.252248238,0.091424125,0.343672363,0.160824112,nan,nan,nan,[ nan  nan  nan],nan,nan,nan,742.3363765,879.4653019,879.7011761,nan,nan
0,125,15:17:47:151000,6,1,157,110.390625,[ 1.         -0.24004838  0.1304259 ],1,1,1,0.221488733,0,0,0,0.233246103,0.252115115,0.091063596,0.343178711,0.161051519,nan,nan,nan,[ nan  nan  nan],nan,nan,nan,742.3363765,880.4237754,880.6452641,nan,nan
0,126,15:17:48:103000,6,1,239,168.046875,[ 0.66506983  0.18338886  0.64054927],1,1,1,0.24699202,0,0,0,0.234784958,0.251868128,0.090737017,0.342605145,0.161131111,nan,nan,nan,[ nan  nan  nan],nan,nan,nan,742.3363765,881.3822289,881.6292209,nan,nan
0,127,15:17:49:054000,6,1,399,280.546875,[-0.01644604  0.47203125 -0.40027452],1,1,1,0.232902277,0,0,0,0.233794344,0.251829119,0.090374384,0.342203503,0.161454735,nan,nan,nan,[ nan  nan  nan],nan,nan,nan,742.3363765,882.3323148,882.5652171,nan,nan
0,128,15:17:50:021000,6,1,188,132.1875,[ 1.         -0.08573935  0.39280429],1,1,1,0.306445713,0,0,0,0.262113337,0.251678906,0.090030706,0.341709612,0.1616482,nan,nan,nan,[ nan  nan  nan],nan,nan,nan,742.3363765,883.2907731,883.5972188,nan,nan
0,129,15:17:50:973000,6,1,73,51.328125,[ 1.         -0.15467886 -0.83091687],1,1,1,0.267920083,0,0,0,0.269089358,0.252110141,0.089806105,0.341916245,0.162304036,nan,nan,nan,[ nan  nan  nan],nan,nan,nan,742.3363765,884.2492138,884.5171339,nan,nan
0,130,15:17:51:925000,6,1,305,214.453125,[ 0.00361193  0.40685925  0.50019691],1,1,1,0.357493913,0,0,0,0.310619903,0.252233656,0.08946544,0.341699096,0.162768215,nan,nan,nan,[ nan  nan  nan],nan,nan,nan,742.3363765,885.2076687,885.5651626,nan,nan
0,131,15:17:52:892000,6,1,59,41.484375,[ 1.         -0.08144099 -1.        ],1,1,1,0.351257146,0,0,0,0.325557047,0.253049627,0.089594874,0.342644501,0.163454752,nan,nan,nan,[ nan  nan  nan],nan,nan,nan,742.3363765,886.1577691,886.5090263,nan,nan
0,132,15:17:53:843000,6,1,390,274.21875,[-0.06419603  0.4762842  -0.29194755],1,1,1,0.336718662,0,0,1,0.348489907,0.253805069,0.089661101,0.34346617,0.164143969,nan,nan,nan,[ nan  nan  nan],nan,nan,nan,742.3363765,887.1162563,887.4529749,nan,nan
0,133,15:17:57:790000,6,1,493,346.640625,[ 0.68976908  0.28570078 -1.        ],1,1,1,0.266757745,1,0,0,0.318244518,0.254437997,0.089609282,0.34404728,0.164828715,nan,85.16559369,7,[ 0.90309146  0.18185306 -1.        ],nan,18.19378131,0.967063397,742.3363765,888.0663302,888.333088,889.8915351,890.8667089
0,134,15:17:58:742000,6,1,340,239.0625,[-0.16683717  0.46098011  0.2323764 ],1,1,1,0.235832782,0,0,0,0.27976973,0.254531329,0.089275599,0.343806928,0.16525573,nan,nan,nan,[ nan  nan  nan],nan,nan,nan,742.3363765,892.0251672,892.2609999,nan,nan
0,135,15:17:59:709000,6,1,61,42.890625,[ 1.        -0.0921164 -1.       ],1,1,1,0.261512829,0,0,0,0.254701119,0.254390738,0.08895401,0.343344748,0.165436729,nan,nan,nan,[ nan  nan  nan],nan,nan,nan,742.3363765,892.9753229,893.2368358,nan,nan
0,136,15:18:00:661000,6,1,232,163.125,[ 0.73915824  0.15004662  0.62371202],1,1,1,0.247177333,0,0,0,0.248174315,0.254443888,0.08862359,0.343067478,0.165820298,nan,nan,nan,[ nan  nan  nan],nan,nan,nan,742.3363765,893.9337587,894.1809361,nan,nan
0,137,15:18:01:612000,6,1,454,319.21875,[ 0.36762736  0.39708484 -1.        ],1,1,1,0.224680101,0,0,0,0.244456754,0.254390062,0.088296943,0.342687005,0.166093119,nan,nan,nan,[ nan  nan  nan],nan,nan,nan,742.3363765,894.892162,895.1168421,nan,nan
0,138,15:18:02:564000,6,1,183,128.671875,[ 1.         -0.113109    0.35490284],1,1,1,0.114494665,0,0,0,0.1954507,0.254171606,0.088008332,0.342179939,0.166163274,nan,nan,nan,[ nan  nan  nan],nan,nan,nan,742.3363765,895.842313,895.9568076,nan,nan
0,139,15:18:03:531000,6,1,4,2.8125,[ 0.87912605  0.19501404 -1.        ],1,1,1,0.219926975,0,0,0,0.186367247,0.253152067,0.088488966,0.341641032,0.164663101,nan,nan,nan,[ nan  nan  nan],nan,nan,nan,742.3363765,896.8008853,897.0208123,nan,nan
0,140,15:18:04:483000,6,1,257,180.703125,[ 0.4704729   0.26103985  0.65584138],1,1,1,0.093669523,0,1,0,0.142697054,0.252911305,0.088212794,0.3411241,0.164698511,nan,nan,nan,[ nan  nan  nan],nan,nan,nan,742.3363765,897.759198,897.8528675,nan,nan
0,141,15:18:08:710000,6,1,507,356.484375,[ 0.80599565  0.23268835 -1.        ],1,1,1,0.239154439,1,0,0,0.184250312,0.251765681,0.088919255,0.340684936,0.162846426,nan,71.83404347,26,[ 1.          0.09209217 -1.        ],nan,21.68158153,1.225398543,742.3363765,898.7176486,898.9568031,900.5511821,901.7846636
0,142,15:18:09:662000,6,0,425,298.828125,[ 0.14916262  0.4475296  -0.79171567],0,1,0,0.22947599,0,0,0,0.187433317,0.2516756,0.088607482,0.340283082,0.163068118,nan,nan,nan,[ nan  nan  nan],nan,nan,nan,742.3363765,902.9431575,903.1726335,nan,nan
0,143,15:18:10:613000,6,1,471,331.171875,[ 0.50601401  0.35499378 -1.        ],1,1,1,0.24738973,0,0,0,0.238673386,0.251518156,0.088312363,0.339830519,0.163205794,nan,nan,nan,[ nan  nan  nan],nan,nan,nan,742.3363765,903.8933366,904.1407264,nan,nan
0,144,15:18:11:565000,6,0,270,189.84375,[ 0.33115907  0.30936972  0.64139387],0,1,0,0.305290218,0,0,0,0.260718646,0.251489083,0.088001531,0.339490614,0.163487552,nan,nan,nan,[ nan  nan  nan],nan,nan,nan,742.3363765,904.8434029,905.1486931,nan,nan
0,145,15:18:12:532000,6,1,127,89.296875,[ 1.         -0.31111021 -0.16703665],1,1,1,0.282728269,0,0,0,0.278469406,0.251865315,0.087807824,0.339673139,0.164057491,nan,nan,nan,[ nan  nan  nan],nan,nan,nan,742.3363765,905.8018341,906.0845624,nan,nan
0,146,15:18:13:484000,6,0,29,20.390625,[ 1.          0.07701739 -1.        ],0,0,1,0.324338926,0,0,0,0.304119138,0.252079641,0.087539931,0.339619572,0.164539709,nan,nan,nan,[ nan  nan  nan],nan,nan,nan,742.3363765,906.7603082,907.0846471,nan,nan
0,147,15:18:14:451000,6,1,179,125.859375,[ 1.         -0.13461442  0.32320413],1,1,1,0.333785021,0,0,0,0.313617405,0.252577981,0.087442272,0.340020253,0.165135708,nan,nan,nan,[ nan  nan  nan],nan,nan,nan,742.3363765,907.7188332,908.0526182,nan,nan
0,148,15:18:15:403000,6,1,339,238.359375,[-0.16495584  0.45996923  0.2414231 ],1,1,1,0.359387237,0,0,0,0.339170395,0.253134193,0.087399308,0.340533502,0.165734885,nan,nan,nan,[ nan  nan  nan],nan,nan,nan,742.3363765,908.6772069,909.0365941,nan,nan
0,149,15:18:16:370000,6,1,262,184.21875,[ 0.41645248  0.28041442  0.65281554],1,1,1,0.368881798,0,0,1,0.354018019,0.253857003,0.087538299,0.341395303,0.166318704,nan,nan,nan,[ nan  nan  nan],nan,nan,nan,742.3363765,909.6356521,910.0045339,nan,nan
0,150,15:18:20:207000,6,1,53,37.265625,[ 1.         -0.04925756 -1.        ],1,1,1,0.338056048,1,0,0,0.355441694,0.254634198,0.087749472,0.342383669,0.166884726,nan,77.50398896,18,[ 0.9886827   0.13116258 -1.        ],nan,-24.76961396,0.80049048,742.3363765,910.6024284,910.9404844,912.4359476,913.2443831
0,151,15:18:21:159000,6,1,460,323.4375,[ 0.41584892  0.38333493 -1.        ],1,1,1,0.4802424,0,0,0,0.395726749,0.255194076,0.087719352,0.342913428,0.167474724,nan,nan,nan,[ nan  nan  nan],nan,nan,nan,742.3363765,914.4362455,914.9164879,nan,nan
0,152,15:18:22:126000,6,1,284,199.6875,[ 0.18846515  0.3539841   0.60223628],1,1,1,0.321577198,0,0,0,0.379958549,0.256694398,0.089324022,0.34601842,0.167370376,nan,nan,nan,[ nan  nan  nan],nan,nan,nan,742.3363765,915.3947326,915.7163098,nan,nan
0,153,15:18:23:078000,6,1,66,46.40625,[ 1.         -0.11856871 -1.        ],1,1,1,0.267280042,0,0,1,0.356366547,0.257124085,0.08918316,0.346307245,0.167940926,nan,nan,nan,[ nan  nan  nan],nan,nan,nan,742.3363765,916.3531308,916.6204108,nan,nan
0,154,15:18:26:837000,6,1,10,7.03125,[ 0.9268115   0.16840058 -1.        ],1,1,1,0.244687017,1,0,0,0.277848086,0.257190901,0.088893102,0.346084002,0.168297799,nan,94.60629785,505,[ 0.78953796  0.24068314 -1.        ],nan,-11.63754785,0.758757801,742.3363765,917.3115857,917.5562727,919.1451305,919.9119141
0,155,15:18:27:805000,6,1,63,44.296875,[ 1.         -0.10274464 -1.        ],1,1,1,0.445974113,0,0,0,0.319313724,0.257109176,0.088607854,0.34571703,0.168501322,nan,nan,nan,[ nan  nan  nan],nan,nan,nan,742.3363765,921.0703415,921.5163156,nan,nan
0,156,15:18:28:741000,6,1,433,304.453125,[ 0.2065363   0.43616372 -1.        ],1,1,1,0.367739703,0,0,0,0.352800277,0.258335572,0.08961299,0.347948562,0.168722581,nan,nan,nan,[ nan  nan  nan],nan,nan,nan,742.3363765,922.0205395,922.3882792,nan,nan
0,157,15:18:29:708000,6,1,139,97.734375,[ 1.         -0.29633561 -0.04459929],1,1,1,0.321305501,0,0,1,0.378339772,0.259041405,0.089751887,0.348793292,0.169289518,nan,nan,nan,[ nan  nan  nan],nan,nan,nan,742.3363765,922.9789608,923.3002663,nan,nan
0,158,15:18:33:592000,6,1,80,56.25,[ 1.         -0.18907571 -0.70896555],1,1,1,0.322835613,1,0,0,0.337293606,0.259440534,0.089601653,0.349042187,0.169838881,nan,64.44003483,36,[ 1.          0.04106996 -1.        ],nan,-30.69003483,0.883681289,742.3363765,923.9374122,924.2602479,925.7709497,926.6626624
0,159,15:18:34:544000,6,1,185,130.078125,[ 1.         -0.10221447  0.37029995],1,1,1,0.310952515,0,0,0,0.318364543,0.259844324,0.089458118,0.349302442,0.170386206,nan,nan,nan,[ nan  nan  nan],nan,nan,nan,742.3363765,927.8211848,928.1321373,nan,nan
0,160,15:18:35:511000,6,1,246,172.96875,[ 0.58976884  0.2150199   0.65133953],1,1,1,0.2644918,0,0,0,0.299426643,0.260167794,0.089266633,0.349434427,0.170901161,nan,nan,nan,[ nan  nan  nan],nan,nan,nan,742.3363765,928.7796414,929.0441332,nan,nan
0,161,15:18:36:463000,6,1,187,131.484375,[ 1.         -0.09124635  0.38538321],1,1,1,0.209791233,0,0,0,0.261745183,0.260194989,0.088986134,0.349181123,0.171208855,nan,nan,nan,[ nan  nan  nan],nan,nan,nan,742.3363765,929.7382206,929.9480118,nan,nan
0,162,15:18:37:430000,6,1,70,49.21875,[ 1.         -0.13936985 -0.90643691],1,1,1,0.227515953,0,0,0,0.233932995,0.259879965,0.088796511,0.348676476,0.171083454,nan,nan,nan,[ nan  nan  nan],nan,nan,nan,742.3363765,930.6965478,930.9240638,nan,nan
0,163,15:18:38:381000,6,1,459,322.734375,[ 0.40775816  0.38570917 -1.        ],1,1,1,0.188934444,0,0,0,0.20874721,0.259678946,0.088556828,0.348235774,0.171122119,nan,nan,nan,[ nan  nan  nan],nan,nan,nan,742.3363765,931.655003,931.8439374,nan,nan
0,164,15:18:39:349000,6,0,272,191.25,[ 0.3101667   0.31621412  0.63728143],0,1,0,0.094434721,0,0,0,0.170295039,0.259242252,0.0884568,0.347699052,0.170785452,nan,nan,nan,[ nan  nan  nan],nan,nan,nan,742.3363765,932.6135203,932.7079551,nan,nan
0,165,15:18:40:300000,6,1,163,114.609375,[ 1.         -0.2142478   0.18572368],1,1,1,0.16015312,0,0,0,0.147840762,0.258231163,0.089119103,0.347350266,0.16911206,nan,nan,nan,[ nan  nan  nan],nan,nan,nan,742.3363765,933.5719083,933.7320614,nan,nan
0,166,15:18:41:252000,6,1,411,288.984375,[ 0.05552017  0.46302271 -0.55705476],1,1,1,0.265651002,0,0,0,0.173412947,0.257633126,0.089174453,0.346807579,0.168458673,nan,nan,nan,[ nan  nan  nan],nan,nan,nan,742.3363765,934.5303526,934.7960036,nan,nan
0,167,15:18:42:235000,6,1,78,54.84375,[ 1.         -0.17946765 -0.73990763],1,1,1,0.275111637,0,0,0,0.233638586,0.257681719,0.088905994,0.346587713,0.168775725,nan,nan,nan,[ nan  nan  nan],nan,nan,nan,742.3363765,935.4887993,935.7639109,nan,nan
0,168,15:18:43:186000,6,1,234,164.53125,[ 0.71814775  0.15974031  0.6291316 ],1,1,1,0.243889033,0,0,0,0.261550557,0.257786719,0.088648061,0.34643478,0.169138657,nan,nan,nan,[ nan  nan  nan],nan,nan,nan,742.3363765,936.4639449,936.7078339,nan,nan
0,169,15:18:44:138000,6,1,299,210.234375,[ 0.05166456  0.39341767  0.53437875],1,1,1,0.261744612,0,0,0,0.260248427,0.257703499,0.088388753,0.346092252,0.169314746,nan,nan,nan,[ nan  nan  nan],nan,nan,nan,742.3363765,937.414187,937.6759316,nan,nan
0,170,15:18:45:105000,6,1,408,286.875,[ 0.03673793  0.46563766 -0.51593845],1,1,1,0.27134637,0,0,0,0.258993338,0.257727553,0.088125847,0.3458534,0.169601706,nan,nan,nan,[ nan  nan  nan],nan,nan,nan,742.3363765,938.3725855,938.6439319,nan,nan
0,171,15:18:46:057000,6,1,2,1.40625,[ 0.86302458  0.20362286 -1.        ],1,1,1,0.256966399,0,0,0,0.26335246,0.257808138,0.087870941,0.345679079,0.169937197,nan,nan,nan,[ nan  nan  nan],nan,nan,nan,742.3363765,939.3309352,939.5879016,nan,nan
0,172,15:18:47:024000,6,1,86,60.46875,[ 1.         -0.21659106 -0.6256178 ],1,1,1,0.290363432,0,0,0,0.272892067,0.257803187,0.087612139,0.345415326,0.170191047,nan,nan,nan,[ nan  nan  nan],nan,nan,nan,742.3363765,940.2894007,940.5797641,nan,nan
0,173,15:18:47:975000,6,1,306,215.15625,[-0.00395437  0.40897401  0.49412883],1,1,1,0.283984973,0,0,0,0.277104935,0.257993597,0.087390859,0.345384457,0.170602738,nan,nan,nan,[ nan  nan  nan],nan,nan,nan,742.3363765,941.2478627,941.5318477,nan,nan
0,174,15:18:48:927000,6,1,247,173.671875,[ 0.57894763  0.21939267  0.65238059],1,1,1,0.309533306,0,0,0,0.294627237,0.25814471,0.087158849,0.345303559,0.170985861,nan,nan,nan,[ nan  nan  nan],nan,nan,nan,742.3363765,942.206294,942.5158273,nan,nan
0,175,15:18:49:894000,6,1,161,113.203125,[ 1.         -0.22315835  0.16749055],1,1,1,0.287105067,0,0,0,0.293541115,0.258441754,0.086993851,0.345435605,0.171447903,nan,nan,nan,[ nan  nan  nan],nan,nan,nan,742.3363765,943.1647172,943.4518223,nan,nan
0,176,15:18:50:846000,6,1,224,157.5,[ 0.82161942  0.11002479  0.59726488],1,1,1,0.232616326,0,0,0,0.276418233,0.258606486,0.086770564,0.34537705,0.171835921,nan,nan,nan,[ nan  nan  nan],nan,nan,nan,742.3363765,944.123175,944.3557913,nan,nan
0,177,15:18:51:813000,6,1,296,208.125,[ 0.07727136  0.38620532  0.55000131],1,1,1,0.178078548,0,0,0,0.23259998,0.25845797,0.086544469,0.345002439,0.171913502,nan,nan,nan,[ nan  nan  nan],nan,nan,nan,742.3363765,945.0816521,945.2597307,nan,nan
0,178,15:18:52:765000,6,1,412,289.6875,[ 0.06188912  0.46209661 -0.57115894],1,1,1,0.203701006,0,0,0,0.204798627,0.258001269,0.086509476,0.344510745,0.171491793,nan,nan,nan,[ nan  nan  nan],nan,nan,nan,742.3363765,946.0400748,946.2437758,nan,nan
0,179,15:18:53:732000,6,1,477,335.390625,[ 0.55587987  0.33778403 -1.        ],1,1,1,0.236999681,0,0,0,0.206259745,0.257694488,0.086360707,0.344055195,0.171333781,nan,nan,nan,[ nan  nan  nan],nan,nan,nan,742.3363765,946.9986087,947.2356084,nan,nan
0,180,15:18:54:683000,6,0,362,254.53125,[-0.16423973  0.47600016  0.01745785],0,1,0,0.246707779,0,0,0,0.229136155,0.257578225,0.086131669,0.343709894,0.171446556,nan,nan,nan,[ nan  nan  nan],nan,nan,nan,742.3363765,947.956987,948.2036947,nan,nan
0,181,15:18:55:651000,6,1,270,189.84375,[ 0.33115907  0.30936972  0.64139387],1,1,1,0.488249329,0,0,0,0.323985597,0.257517496,0.085894562,0.343412058,0.171622934,nan,nan,nan,[ nan  nan  nan],nan,nan,nan,742.3363765,948.9154367,949.4036861,nan,nan
0,182,15:18:56:602000,6,1,389,273.515625,[-0.06912081  0.47662608 -0.28023432],1,1,1,0.369627895,0,0,0,0.368195001,0.25879934,0.087355633,0.346154973,0.171443707,nan,nan,nan,[ nan  nan  nan],nan,nan,nan,742.3363765,949.8738879,950.2435158,nan,nan
0,183,15:18:57:554000,6,1,174,122.34375,[ 1.         -0.16079069  0.28198128],1,1,1,0.28314679,0,0,1,0.380341338,0.259411652,0.087500475,0.346912127,0.171911177,nan,nan,nan,[ nan  nan  nan],nan,nan,nan,742.3363765,950.8323414,951.1154882,nan,nan
0,184,15:19:01:547000,6,1,400,281.25,[-0.01078748  0.4714273  -0.41269269],1,1,1,0.212837771,1,0,0,0.288537486,0.259542065,0.087277395,0.34681946,0.17226467,nan,-144.4308237,333,[-0.14981348  0.45327595  0.29418374],nan,-46.81917629,0.983874669,742.3363765,951.7907849,952.0036227,953.6159505,954.6077668
0,185,15:19:02:499000,6,1,295,207.421875,[ 0.08602229  0.38372732  0.55498608],1,1,1,0.373238354,0,0,0,0.289740972,0.25928685,0.087106678,0.346393528,0.172180172,nan,nan,nan,[ nan  nan  nan],nan,nan,nan,742.3363765,955.7662695,956.1395079,nan,nan
0,186,15:19:03:451000,6,0,426,299.53125,[ 0.15619305  0.44621085 -0.8148597 ],0,0,1,0.478734811,0,0,0,0.354936979,0.259906152,0.087272695,0.347178847,0.172633457,nan,nan,nan,[ nan  nan  nan],nan,nan,nan,742.3363765,956.7247333,957.2034681,nan,nan
0,187,15:19:04:418000,6,1,166,116.71875,[ 1.         -0.20036215  0.21267421],1,1,1,0.28027359,0,0,0,0.377415585,0.26108901,0.08850309,0.3495921,0.17258592,nan,nan,nan,[ nan  nan  nan],nan,nan,nan,742.3363765,957.683189,957.9634626,nan,nan
0,188,15:19:05:369000,6,1,38,26.71875,[ 1.          0.03062595 -1.        ],1,1,1,0.297629681,0,0,0,0.352212694,0.261192153,0.088276006,0.349468159,0.172916146,nan,nan,nan,[ nan  nan  nan],nan,nan,nan,742.3363765,958.6416816,958.9393113,nan,nan
0,189,15:19:06:337000,6,0,318,223.59375,[-0.08356276  0.43164026  0.41348156],0,1,0,0.267352171,0,0,0,0.281751814,0.261387006,0.088079755,0.349466761,0.17330725,nan,nan,nan,[ nan  nan  nan],nan,nan,nan,742.3363765,959.6000755,959.8674277,nan,nan
0,190,15:19:07:288000,6,1,265,186.328125,[ 0.38425915  0.29156831  0.64947886],1,1,1,0.316846311,0,0,0,0.293942721,0.261418735,0.08784626,0.349264995,0.173572475,nan,nan,nan,[ nan  nan  nan],nan,nan,nan,742.3363765,960.5585538,960.8754001,nan,nan
0,191,15:19:08:240000,6,1,6,4.21875,[ 0.89512908  0.18627278 -1.        ],1,1,1,0.294298901,0,0,0,0.292832461,0.261712003,0.087705781,0.349417784,0.174006222,nan,nan,nan,[ nan  nan  nan],nan,nan,nan,742.3363765,961.5170902,961.8113891,nan,nan
0,192,15:19:09:207000,6,1,215,151.171875,[ 0.91063986  0.06289474  0.55869515],1,1,1,0.287770196,0,0,0,0.299638469,0.261883513,0.087506444,0.349389957,0.174377069,nan,nan,nan,[ nan  nan  nan],nan,nan,nan,742.3363765,962.4754474,962.7632176,nan,nan
0,193,15:19:10:159000,6,1,335,235.546875,[-0.15559599  0.45562772  0.27689323],1,1,1,0.289322831,0,0,0,0.290463976,0.262019045,0.087297061,0.349316106,0.174721984,nan,nan,nan,[ nan  nan  nan],nan,nan,nan,742.3363765,963.4339037,963.7232265,nan,nan
0,194,15:19:11:110000,6,1,150,105.46875,[ 1.         -0.26615253  0.06382271],1,1,1,0.282797262,0,0,0,0.286630096,0.262161252,0.087091606,0.349252859,0.175069646,nan,nan,nan,[ nan  nan  nan],nan,nan,nan,742.3363765,964.392506,964.6753033,nan,nan
0,195,15:19:12:062000,6,1,270,189.84375,[ 0.33115907  0.30936972  0.64139387],1,1,1,0.228836519,0,0,0,0.266985537,0.262268175,0.086878321,0.349146496,0.175389854,nan,nan,nan,[ nan  nan  nan],nan,nan,nan,742.3363765,965.3424756,965.5713121,nan,nan
0,196,15:19:13:013000,6,1,379,266.484375,[-0.11353594  0.47861499 -0.16597052],1,1,1,0.278753742,0,0,0,0.263462508,0.262095847,0.086687184,0.34878303,0.175408663,nan,nan,nan,[ nan  nan  nan],nan,nan,nan,742.3363765,966.2925222,966.5712759,nan,nan
0,197,15:19:13:965000,6,1,29,20.390625,[ 1.          0.07701739 -1.        ],1,1,1,0.272613338,0,0,0,0.260067866,0.262181272,0.086472809,0.348654081,0.175708463,nan,nan,nan,[ nan  nan  nan],nan,nan,nan,742.3363765,967.2426526,967.5152659,nan,nan
0,198,15:19:14:917000,6,1,468,329.0625,[ 0.48123648  0.36313162 -1.        ],1,1,1,0.250427716,0,0,0,0.267264932,0.262234497,0.086255135,0.348489632,0.175979361,nan,nan,nan,[ nan  nan  nan],nan,nan,nan,742.3363765,968.1927556,968.4431833,nan,nan
0,199,15:19:15:868000,6,1,361,253.828125,[-0.16604781  0.47560771  0.02781731],1,1,1,0.252317334,0,0,0,0.258452796,0.262174564,0.086040027,0.34821459,0.176134537,nan,nan,nan,[ nan  nan  nan],nan,nan,nan,742.3363765,969.142894,969.3952113,nan,nan
0,200,15:19:16:820000,6,1,93,65.390625,[ 1.         -0.2456143  -0.53861988],1,1,1,0.278107428,0,0,0,0.260284159,0.26212478,0.085825323,0.347950103,0.176299456,nan,nan,nan,[ nan  nan  nan],nan,nan,nan,742.3363765,970.0930064,970.3711138,nan,nan
0,201,15:19:17:771000,6,1,144,101.25,[ 1.         -0.28442319  0.00519445],1,1,1,0.359524938,0,0,0,0.2966499,0.262205095,0.085616869,0.347821964,0.176588225,nan,nan,nan,[ nan  nan  nan],nan,nan,nan,742.3363765,971.0515166,971.4110416,nan,nan
0,202,15:19:18:723000,6,1,421,296.015625,[ 0.12147167  0.45251804 -0.71261034],1,1,1,0.28147299,0,0,0,0.306368452,0.262691694,0.085677979,0.348369673,0.177013715,nan,nan,nan,[ nan  nan  nan],nan,nan,nan,742.3363765,972.0016607,972.2831337,nan,nan
0,203,15:19:19:675000,6,1,52,36.5625,[ 1.         -0.04388606 -1.        ],1,1,1,0.291459057,0,0,0,0.310818995,0.262785133,0.085474799,0.348259932,0.177310334,nan,nan,nan,[ nan  nan  nan],nan,nan,nan,742.3363765,972.9516685,973.2431275,nan,nan
0,204,15:19:20:626000,6,1,440,309.375,[ 0.2586994  0.4246574 -1.       ],1,1,1,0.253292363,0,0,0,0.275408137,0.262927083,0.085286713,0.348213796,0.177640371,nan,nan,nan,[ nan  nan  nan],nan,nan,nan,742.3363765,973.9018114,974.1551038,nan,nan
0,205,15:19:21:578000,6,1,78,54.84375,[ 1.         -0.17946765 -0.73990763],1,1,1,0.19100966,0,0,0,0.245253693,0.262879621,0.085079062,0.347958683,0.17780056,nan,nan,nan,[ nan  nan  nan],nan,nan,nan,742.3363765,974.8519555,975.0429652,nan,nan
0,206,15:19:22:545000,6,1,158,111.09375,[ 1.         -0.23594923  0.13976411],1,1,1,0.264663143,0,0,0,0.236321722,0.262527318,0.085018587,0.347545904,0.177508731,nan,nan,nan,[ nan  nan  nan],nan,nan,nan,742.3363765,975.8103828,976.0750459,nan,nan
0,207,15:19:23:497000,6,1,288,202.5,[ 0.15000513  0.36533195  0.58668724],1,1,1,0.226183413,0,0,0,0.227285405,0.262537736,0.084811101,0.347348838,0.177726635,nan,nan,nan,[ nan  nan  nan],nan,nan,nan,742.3363765,976.7688305,976.995014,nan,nan
0,208,15:19:24:464000,6,1,75,52.734375,[ 1.         -0.16471446 -0.79135592],1,1,1,0.155620374,0,0,0,0.215488977,0.262361259,0.084642722,0.347003981,0.177718537,nan,nan,nan,[ nan  nan  nan],nan,nan,nan,742.3363765,977.7272977,977.8829181,nan,nan
0,209,15:19:25:415000,6,0,338,237.65625,[-0.16289136  0.45892871  0.25039916],0,1,0,0.253249884,0,0,0,0.211684557,0.261845603,0.084761757,0.34660736,0.177083845,nan,nan,nan,[ nan  nan  nan],nan,nan,nan,742.3363765,978.6857344,978.9389843,nan,nan
0,210,15:19:26:367000,6,1,389,273.515625,[-0.06912081  0.47662608 -0.28023432],1,1,1,0.214653264,0,0,0,0.207841174,0.261804277,0.084559848,0.346364125,0.177244429,nan,nan,nan,[ nan  nan  nan],nan,nan,nan,742.3363765,979.6443107,979.858964,nan,nan
0,211,15:19:27:334000,6,1,106,74.53125,[ 1.         -0.28763007 -0.39056445],1,1,1,0.240293968,0,0,0,0.236065706,0.261578674,0.084420034,0.345998708,0.17715864,nan,nan,nan,[ nan  nan  nan],nan,nan,nan,742.3363765,980.6026565,980.8429504,nan,nan
0,212,15:19:28:286000,6,1,190,133.59375,[ 1.         -0.07468844  0.40739964],1,1,1,0.297814423,0,0,0,0.250920552,0.261477318,0.08423154,0.345708858,0.177245778,nan,nan,nan,[ nan  nan  nan],nan,nan,nan,742.3363765,981.561098,981.8589124,nan,nan
0,213,15:19:29:253000,6,1,132,92.8125,[ 1.         -0.30742683 -0.11555536],1,1,1,0.275247342,0,0,0,0.271118578,0.261649532,0.084068752,0.345718284,0.17758078,nan,nan,nan,[ nan  nan  nan],nan,nan,nan,742.3363765,982.5196208,982.7948681,nan,nan
0,214,15:19:30:189000,6,1,396,278.4375,[-0.03301537  0.47368488 -0.36352378],1,1,1,0.333118751,0,0,0,0.302060172,0.261713673,0.083875417,0.34558909,0.177838256,nan,nan,nan,[ nan  nan  nan],nan,nan,nan,742.3363765,983.4696508,983.8027695,nan,nan
0,215,15:19:31:141000,6,1,80,56.25,[ 1.         -0.18907571 -0.70896555],1,1,1,0.303130043,0,0,0,0.303832046,0.262048908,0.083820535,0.345869443,0.178228373,nan,nan,nan,[ nan  nan  nan],nan,nan,nan,742.3363765,984.4197187,984.7228488,nan,nan
0,216,15:19:32:077000,6,1,293,206.015625,[ 0.10383026  0.3786596   0.56461706],1,1,1,0.329315567,0,0,0,0.321854787,0.262240876,0.083671383,0.345912259,0.178569493,nan,nan,nan,[ nan  nan  nan],nan,nan,nan,742.3363765,985.3615183,985.6908339,nan,nan
0,217,15:19:33:028000,6,1,340,239.0625,[-0.16683717  0.46098011  0.2323764 ],1,1,1,0.339484951,0,0,0,0.323976854,0.262552851,0.083601234,0.346154085,0.178951617,nan,nan,nan,[ nan  nan  nan],nan,nan,nan,742.3363765,986.3033419,986.6428268,nan,nan
0,218,15:19:33:964000,6,1,91,63.984375,[ 1.         -0.2377099  -0.56272232],1,1,1,0.221682598,0,0,0,0.296827705,0.262909018,0.083570825,0.346479844,0.179338193,nan,nan,nan,[ nan  nan  nan],nan,nan,nan,742.3363765,987.2451084,987.466791,nan,nan
0,219,15:19:34:900000,6,0,359,252.421875,[-0.16922234  0.47474188  0.0483828 ],0,1,0,0.207897908,0,0,0,0.256355152,0.262719035,0.083424783,0.346143818,0.179294252,nan,nan,nan,[ nan  nan  nan],nan,nan,nan,742.3363765,988.1868798,988.3947777,nan,nan
0,220,15:19:35:852000,6,1,100,70.3125,[ 1.         -0.27042709 -0.4574399 ],1,1,1,0.090087858,0,0,0,0.173222788,0.262467562,0.083315617,0.345783178,0.179151945,nan,nan,nan,[ nan  nan  nan],nan,nan,nan,742.3363765,989.1286651,989.2187529,nan,nan
0,221,15:19:36:788000,6,1,179,125.859375,[ 1.         -0.13461442  0.32320413],1,1,1,0.588276499,0,0,0,0.295420755,0.26168044,0.083933664,0.345614104,0.177746776,nan,nan,nan,[ nan  nan  nan],nan,nan,nan,742.3363765,990.0704493,990.6587258,nan,nan
0,222,15:19:37:724000,6,1,107,75.234375,[ 1.         -0.29008977 -0.37959278],1,1,1,0.574481545,0,0,1,0.417615301,0.263164967,0.086576411,0.349741378,0.176588557,nan,nan,nan,[ nan  nan  nan],nan,nan,nan,742.3363765,991.0122215,991.5867031,nan,nan
0,223,15:19:41:608000,6,1,317,222.890625,[-0.07777284  0.42993861  0.42073361],1,1,1,0.448659149,1,0,0,0.537139065,0.26457364,0.088871353,0.353444993,0.175702286,nan,-139.6354634,327,[-0.12808616  0.44548068  0.34417644],nan,6.744838427,0.85873622,742.3363765,991.954016,992.4026751,993.804213,994.6709399
0,224,15:19:42:560000,6,1,181,127.265625,[ 1.         -0.12391439  0.33920113],1,1,1,0.261087751,0,0,0,0.428076148,0.265402854,0.089523734,0.354926588,0.175879119,nan,nan,nan,[ nan  nan  nan],nan,nan,nan,742.3363765,995.8294808,996.0905685,nan,nan
0,225,15:19:43:512000,6,1,126,88.59375,[ 1.         -0.31141175 -0.17740843],1,1,1,0.246963511,0,0,0,0.31890347,0.265383503,0.089323248,0.354706752,0.176060255,nan,nan,nan,[ nan  nan  nan],nan,nan,nan,742.3363765,996.7795983,997.0265619,nan,nan
0,226,15:19:44:448000,6,1,244,171.5625,[ 0.61137236  0.20616355  0.64888072],1,1,1,0.240810563,0,0,0,0.249620608,0.265301271,0.089132102,0.354433374,0.176169169,nan,nan,nan,[ nan  nan  nan],nan,nan,nan,742.3363765,997.7297179,997.9705285,nan,nan
0,227,15:19:45:399000,6,1,452,317.8125,[ 0.35173807  0.40140621 -1.        ],1,1,1,0.242611231,0,0,0,0.243461768,0.265192424,0.08894873,0.354141154,0.176243694,nan,nan,nan,[ nan  nan  nan],nan,nan,nan,742.3363765,998.6799275,998.9225388,nan,nan
0,228,15:19:46:351000,6,1,504,354.375,[ 0.78128615  0.24462829 -1.        ],1,1,1,0.260310008,0,0,0,0.247910601,0.265092507,0.088764376,0.353856883,0.176328131,nan,nan,nan,[ nan  nan  nan],nan,nan,nan,742.3363765,999.6301212,999.8904312,nan,nan
0,229,15:19:47:302000,6,1,6,4.21875,[ 0.89512908  0.18627278 -1.        ],1,1,1,0.222401611,0,0,0,0.241774283,0.265071439,0.088569211,0.353640649,0.176502228,nan,nan,nan,[ nan  nan  nan],nan,nan,nan,742.3363765,1000.58007,1000.802472,nan,nan
0,230,15:19:48:254000,6,1,489,343.828125,[ 0.65628486  0.29957244 -1.        ],1,1,1,0.240313925,0,0,0,0.241008515,0.26488429,0.088419737,0.353304027,0.176464553,nan,nan,nan,[ nan  nan  nan],nan,nan,nan,742.3363765,1001.530164,1001.770478,nan,nan
0,231,15:19:49:206000,6,1,191,134.296875,[ 1.         -0.06914798  0.41457165],1,1,1,0.234143586,0,0,0,0.232286374,0.264776996,0.088241343,0.353018339,0.176535653,nan,nan,nan,[ nan  nan  nan],nan,nan,nan,742.3363765,1002.480291,1002.714435,nan,nan
0,232,15:19:50:157000,6,1,112,78.75,[ 1.         -0.30050152 -0.32532486],1,1,1,0.211920046,0,0,0,0.228792519,0.264643807,0.088072371,0.352716178,0.176571437,nan,nan,nan,[ nan  nan  nan],nan,nan,nan,742.3363765,1003.430425,1003.642345,nan,nan
0,233,15:19:51:109000,6,1,263,184.921875,[ 0.4056988   0.28417174  0.65182989],1,1,1,0.221855082,0,0,0,0.222639572,0.264415566,0.087949674,0.35236524,0.176465892,nan,nan,nan,[ nan  nan  nan],nan,nan,nan,742.3363765,1004.380523,1004.602378,nan,nan
0,234,15:19:52:060000,6,1,117,82.265625,[ 1.         -0.30758797 -0.27188654],1,1,1,0.359685733,0,0,0,0.264486954,0.264232116,0.087804203,0.352036319,0.176427912,nan,nan,nan,[ nan  nan  nan],nan,nan,nan,742.3363765,1005.330646,1005.690332,nan,nan
0,235,15:19:52:996000,6,0,388,272.8125,[-0.07396337  0.47694192 -0.26857716],0,0,1,0.457590646,0,0,0,0.346377153,0.264641788,0.087837501,0.352479289,0.176804286,nan,nan,nan,[ nan  nan  nan],nan,nan,nan,742.3363765,1006.280757,1006.738348,nan,nan
0,236,15:19:53:948000,6,1,435,305.859375,[ 0.22126383  0.43302706 -1.        ],1,1,1,0.395439372,0,0,0,0.404238583,0.265466356,0.088548711,0.354015067,0.176917645,nan,nan,nan,[ nan  nan  nan],nan,nan,nan,742.3363765,1007.230874,1007.626314,nan,nan
0,237,15:19:54:900000,6,1,108,75.9375,[ 1.         -0.29242661 -0.36866329],1,1,1,0.341123399,0,0,0,0.398051139,0.266019432,0.088764227,0.354783659,0.177255205,nan,nan,nan,[ nan  nan  nan],nan,nan,nan,742.3363765,1008.181092,1008.522216,nan,nan
0,238,15:19:55:851000,6,1,303,213.046875,[ 0.01913493  0.40252284  0.51201836],1,1,1,0.662922687,0,0,1,0.466495153,0.266337669,0.088710211,0.355047881,0.177627458,nan,nan,nan,[ nan  nan  nan],nan,nan,nan,742.3363765,1009.131216,1009.794139,nan,nan
0,239,15:20:15:710000,6,1,502,352.96875,[ 0.76474094  0.25241358 -1.        ],1,1,1,0.52094417,1,0,0,0.508330086,0.268011024,0.092179847,0.360190871,0.175831177,nan,86.56636964,5,[ 0.88714031  0.19065985 -1.        ],nan,10.46488036,16.85235862,742.3363765,1010.08129,1010.602234,1011.914741,1028.775107
0,240,15:20:16:646000,6,1,1,0.703125,[ 0.85493913  0.20787707 -1.        ],1,1,1,0.26814873,0,0,0,0.484005196,0.269073768,0.09342963,0.362503398,0.175644138,nan,nan,nan,[ nan  nan  nan],nan,nan,nan,742.3363765,1029.933666,1030.201815,nan,nan
0,241,15:20:17:598000,6,1,468,329.0625,[ 0.48123648  0.36313162 -1.        ],1,1,1,0.22223654,0,0,0,0.337109814,0.269069898,0.093233985,0.362303883,0.175835913,nan,nan,nan,[ nan  nan  nan],nan,nan,nan,742.3363765,1030.875425,1031.097662,nan,nan
0,242,15:20:18:534000,6,1,103,72.421875,[ 1.         -0.27953747 -0.42375884],1,1,1,0.232420465,0,0,0,0.240935245,0.268874759,0.093088441,0.361963199,0.175786318,nan,nan,nan,[ nan  nan  nan],nan,nan,nan,742.3363765,1031.817228,1032.049648,nan,nan
0,243,15:20:19:485000,6,1,207,145.546875,[ 0.98565351  0.01954319  0.51699622],1,1,1,0.122782414,0,0,0,0.192479806,0.268723496,0.092924662,0.361648158,0.175798834,nan,nan,nan,[ nan  nan  nan],nan,nan,nan,742.3363765,1032.758985,1032.881767,nan,nan
0,244,15:20:20:421000,6,1,317,222.890625,[-0.07777284  0.42993861  0.42073361],1,1,1,0.020918084,0,1,0,0.125373654,0.268120434,0.093203857,0.361324291,0.174916577,nan,nan,nan,[ nan  nan  nan],nan,nan,nan,742.3363765,1033.700779,1033.721697,nan,nan
0,245,15:20:24:774000,6,1,74,52.03125,[ 1.         -0.15971516 -0.81044328],1,1,1,0.214714845,1,0,0,0.119471781,0.26710314,0.09434857,0.36145171,0.17275457,nan,64.35899418,36,[ 1.          0.04106996 -1.        ],nan,-26.39024418,1.350388173,742.3363765,1034.650887,1034.865602,1036.484375,1037.842899
0,246,15:20:25:725000,6,0,429,301.640625,[ 0.17753182  0.44208078 -0.9018852 ],0,0,1,0.552166489,0,0,0,0.262599806,0.266888434,0.094214502,0.361102936,0.172673932,nan,nan,nan,[ nan  nan  nan],nan,nan,nan,742.3363765,1039.001438,1039.553605,nan,nan
0,247,15:20:26:661000,6,1,205,144.140625,[ 1.          0.008548    0.50553524],1,1,1,0.322257723,0,0,0,0.363046353,0.268052834,0.095765152,0.363817986,0.172287682,nan,nan,nan,[ nan  nan  nan],nan,nan,nan,742.3363765,1039.943198,1040.265455,nan,nan
0,248,15:20:27:597000,6,1,360,253.125,[-0.1677095   0.47518832  0.03812586],1,1,1,0.252457316,0,0,0,0.375627176,0.268273179,0.095632522,0.363905701,0.172640658,nan,nan,nan,[ nan  nan  nan],nan,nan,nan,742.3363765,1040.884978,1041.137435,nan,nan
0,249,15:20:28:549000,6,1,99,69.609375,[ 1.         -0.26717627 -0.4687933 ],1,1,1,0.25480765,0,0,0,0.276507563,0.268209147,0.095444021,0.363653169,0.172765126,nan,nan,nan,[ nan  nan  nan],nan,nan,nan,742.3363765,1041.826763,1042.081571,nan,nan
0,250,15:20:29:500000,6,1,244,171.5625,[ 0.61137236  0.20616355  0.64888072],1,1,1,0.240607004,0,0,0,0.249290657,0.268155109,0.095255186,0.363410295,0.172899924,nan,nan,nan,[ nan  nan  nan],nan,nan,nan,742.3363765,1042.776889,1043.017496,nan,nan
0,251,15:20:30:452000,6,1,287,201.796875,[ 0.15950165  0.36255249  0.59075192],1,1,1,0.226466229,0,0,0,0.240626961,0.268044474,0.095079682,0.363124156,0.172964792,nan,nan,nan,[ nan  nan  nan],nan,nan,nan,742.3363765,1043.727002,1043.953469,nan,nan
0,252,15:20:31:404000,6,1,85,59.765625,[ 1.         -0.21215645 -0.63878123],1,1,1,0.220345497,0,0,0,0.229139577,0.267878161,0.094925617,0.362803778,0.172952545,nan,nan,nan,[ nan  nan  nan],nan,nan,nan,742.3363765,1044.677109,1044.897455,nan,nan
0,253,15:20:32:340000,6,1,36,25.3125,[ 1.          0.04106996 -1.        ],1,1,1,0.254553914,0,0,0,0.233788547,0.267688788,0.09478364,0.362472428,0.172905148,nan,nan,nan,[ nan  nan  nan],nan,nan,nan,742.3363765,1045.61888,1045.873434,nan,nan
0,254,15:20:33:291000,6,1,393,276.328125,[-0.04894566  0.47510217 -0.32744323],1,1,1,0.240424828,0,0,0,0.238441413,0.267636666,0.094598994,0.36223566,0.173037671,nan,nan,nan,[ nan  nan  nan],nan,nan,nan,742.3363765,1046.569005,1046.80943,nan,nan
0,255,15:20:34:243000,6,1,15,10.546875,[ 0.96573443  0.14535278 -1.        ],1,1,1,0.202618495,0,0,0,0.232532412,0.267529109,0.094427292,0.361956401,0.173101816,nan,nan,nan,[ nan  nan  nan],nan,nan,nan,742.3363765,1047.510788,1047.713407,nan,nan
0,256,15:20:35:179000,6,1,233,163.828125,[ 0.7286704   0.15490978  0.62648223],1,1,1,0.228476158,0,0,0,0.223839827,0.267273555,0.09432885,0.361602406,0.172944705,nan,nan,nan,[ nan  nan  nan],nan,nan,nan,742.3363765,1048.460908,1048.689384,nan,nan
0,257,15:20:36:115000,6,1,124,87.1875,[ 1.         -0.31157719 -0.19822652],1,1,1,0.230693351,0,0,0,0.220596001,0.267121409,0.094174932,0.361296341,0.172946476,nan,nan,nan,[ nan  nan  nan],nan,nan,nan,742.3363765,1049.402689,1049.633382,nan,nan
0,258,15:20:37:066000,6,1,276,194.0625,[ 0.26871044  0.32943033  0.62756301],1,1,1,0.192747037,0,0,0,0.217305515,0.266979112,0.09401828,0.360997392,0.172960831,nan,nan,nan,[ nan  nan  nan],nan,nan,nan,742.3363765,1050.344464,1050.537211,nan,nan
0,259,15:20:38:002000,6,1,380,267.1875,[-0.10951951  0.47853303 -0.17717739],1,1,1,0.186964999,0,0,0,0.203468462,0.266690271,0.093948923,0.360639194,0.172741348,nan,nan,nan,[ nan  nan  nan],nan,nan,nan,742.3363765,1051.28625,1051.473215,nan,nan
0,260,15:20:38:954000,6,1,245,172.265625,[ 0.6005777   0.21061011  0.65017283],1,1,1,0.09327609,0,1,0,0.157662708,0.266381258,0.093897444,0.360278702,0.172483814,nan,nan,nan,[ nan  nan  nan],nan,nan,nan,742.3363765,1052.22805,1052.321326,nan,nan
0,261,15:21:45:348000,6,1,459,322.734375,[ 0.40775816  0.38570917 -1.        ],1,1,1,0.143462443,1,0,0,0.141234511,0.265712898,0.094328884,0.360041782,0.171384014,nan,126.8698976,460,[ 0.41584892  0.38333493 -1.        ],nan,0.395727354,63.40808368,742.3363765,1053.16981,1053.313272,1055.003314,1118.419396
0,262,15:21:46:299000,6,0,415,291.796875,[ 0.08130773  0.45915368 -0.61496802],0,1,0,0.294175169,0,0,0,0.176971234,0.265242704,0.094450918,0.359693622,0.170791787,nan,nan,nan,[ nan  nan  nan],nan,nan,nan,742.3363765,1119.569574,1119.863749,nan,nan
0,263,15:21:47:251000,6,1,350,246.09375,[-0.17575682  0.46949094  0.13824748],1,1,1,0.247986151,0,0,0,0.228541255,0.265353557,0.094286748,0.359640304,0.171066809,nan,nan,nan,[ nan  nan  nan],nan,nan,nan,742.3363765,1120.519703,1120.767689,nan,nan
0,264,15:21:48:203000,6,0,224,157.5,[ 0.82161942  0.11002479  0.59726488],0,1,0,0.25784307,0,0,0,0.26666813,0.265287269,0.094112732,0.359400001,0.171174536,nan,nan,nan,[ nan  nan  nan],nan,nan,nan,742.3363765,1121.469829,1121.727672,nan,nan
0,265,15:21:49:139000,6,1,346,243.28125,[-0.17431756  0.46643129  0.17667017],1,1,1,0.251640515,0,0,0,0.252489912,0.265258964,0.093934758,0.359193722,0.171324206,nan,nan,nan,[ nan  nan  nan],nan,nan,nan,742.3363765,1122.419923,1122.671564,nan,nan
0,266,15:21:50:090000,6,1,127,89.296875,[ 1.         -0.31111021 -0.16703665],1,1,1,0.445594079,0,0,0,0.318359222,0.265207379,0.093760414,0.358967793,0.171446964,nan,nan,nan,[ nan  nan  nan],nan,nan,nan,742.3363765,1123.370032,1123.815627,nan,nan
0,267,15:21:51:042000,6,1,42,29.53125,[ 1.          0.00954879 -1.        ],1,1,1,0.38345706,0,0,1,0.360230552,0.265888083,0.094234645,0.360122729,0.171653438,nan,nan,nan,[ nan  nan  nan],nan,nan,nan,742.3363765,1124.320154,1124.703611,nan,nan
0,268,15:21:55:145000,6,1,283,198.984375,[ 0.19826868  0.35105092  0.60582595],1,1,1,0.305308464,1,0,0,0.378119868,0.266330072,0.094332142,0.360662214,0.17199793,nan,-114.3764686,291,[ 0.12202764  0.37344194  0.57379193],nan,5.392093617,1.100539488,742.3363765,1125.27027,1125.575579,1127.103812,1128.212288
0,269,15:21:56:096000,6,1,348,244.6875,[-0.17538477  0.46801784  0.15758216],1,1,1,0.32504796,0,0,0,0.337937828,0.266476059,0.094185424,0.360661483,0.172290634,nan,nan,nan,[ nan  nan  nan],nan,nan,nan,742.3363765,1129.362441,1129.687489,nan,nan
0,270,15:21:57:032000,6,1,466,327.65625,[ 0.46478901  0.3683856  -1.        ],1,1,1,0.326936153,0,0,0,0.319097526,0.26669461,0.094077346,0.360771956,0.172617264,nan,nan,nan,[ nan  nan  nan],nan,nan,nan,742.3363765,1130.312552,1130.639489,nan,nan
0,271,15:21:57:968000,6,1,410,288.28125,[ 0.04920468  0.46392153 -0.54316189],1,1,1,0.329041589,0,0,0,0.327008567,0.266918557,0.093973859,0.360892415,0.172944698,nan,nan,nan,[ nan  nan  nan],nan,nan,nan,742.3363765,1131.25431,1131.583352,nan,nan
0,272,15:21:58:920000,6,1,148,104.0625,[ 1.         -0.27269559  0.04442646],1,1,1,0.28326482,0,0,0,0.313080854,0.267148642,0.093875551,0.361024193,0.173273091,nan,nan,nan,[ nan  nan  nan],nan,nan,nan,742.3363765,1132.196186,1132.479451,nan,nan
0,273,15:21:59:856000,6,1,221,155.390625,[ 0.85178146  0.09454116  0.58542294],1,1,1,0.261541909,0,0,0,0.291282773,0.267208111,0.093707284,0.360915395,0.173500828,nan,nan,nan,[ nan  nan  nan],nan,nan,nan,742.3363765,1133.137872,1133.399414,nan,nan
0,274,15:22:00:807000,6,1,398,279.84375,[-0.02203778  0.4726088  -0.38794338],1,1,1,0.231687482,0,0,0,0.258831404,0.26718728,0.093535498,0.360722777,0.173651782,nan,nan,nan,[ nan  nan  nan],nan,nan,nan,742.3363765,1134.079702,1134.311389,nan,nan
0,275,15:22:01:743000,6,1,342,240.46875,[-0.17005262  0.46291356  0.21407524],1,1,1,0.249794802,0,0,0,0.247674731,0.267057244,0.093388658,0.360445902,0.173668586,nan,nan,nan,[ nan  nan  nan],nan,nan,nan,742.3363765,1135.021499,1135.271293,nan,nan
0,276,15:22:02:695000,6,1,201,141.328125,[ 1.         -0.01357126  0.48142235],1,1,1,0.259579591,0,0,0,0.247020625,0.266994242,0.093223897,0.360218139,0.173770345,nan,nan,nan,[ nan  nan  nan],nan,nan,nan,742.3363765,1135.971634,1136.231214,nan,nan
0,277,15:22:03:647000,6,1,498,350.15625,[ 0.73150794  0.26756188 -1.        ],1,1,1,0.269508639,0,0,0,0.259627678,0.26696728,0.093055315,0.360022595,0.173911965,nan,nan,nan,[ nan  nan  nan],nan,nan,nan,742.3363765,1136.921808,1137.191317,nan,nan
0,278,15:22:04:583000,6,0,268,188.4375,[ 0.35230222  0.30236752  0.64500531],0,1,0,0.167829622,0,0,0,0.232305951,0.266976488,0.092886709,0.359863197,0.174089779,nan,nan,nan,[ nan  nan  nan],nan,nan,nan,742.3363765,1137.863467,1138.031297,nan,nan
0,279,15:22:05:534000,6,1,183,128.671875,[ 1.         -0.113109    0.35490284],1,1,1,0.209618179,0,0,0,0.215652147,0.266618557,0.092909378,0.359527935,0.173709179,nan,nan,nan,[ nan  nan  nan],nan,nan,nan,742.3363765,1138.81359,1139.023208,nan,nan
0,280,15:22:06:486000,6,0,3,2.109375,[ 0.87108718  0.19933511 -1.        ],0,0,1,0.411890853,0,0,0,0.263112885,0.266413519,0.092804885,0.359218405,0.173608634,nan,nan,nan,[ nan  nan  nan],nan,nan,nan,742.3363765,1139.755369,1140.167259,nan,nan
0,281,15:22:07:437000,6,1,400,281.25,[-0.01078748  0.4714273  -0.41269269],1,1,1,0.293707041,0,0,0,0.305072024,0.266934943,0.093045474,0.359980417,0.17388947,nan,nan,nan,[ nan  nan  nan],nan,nan,nan,742.3363765,1140.705512,1140.999219,nan,nan
0,282,15:22:08:373000,6,1,486,341.71875,[ 0.63115176  0.30960306 -1.        ],1,1,1,0.27959335,0,0,0,0.328397081,0.267030558,0.092892903,0.359923461,0.174137655,nan,nan,nan,[ nan  nan  nan],nan,nan,nan,742.3363765,1141.655604,1141.935197,nan,nan
0,283,15:22:09:325000,6,1,363,255.234375,[-0.16228773  0.47636573  0.00704813],1,1,1,0.241243624,0,0,0,0.271514672,0.267075266,0.092730483,0.359805749,0.174344782,nan,nan,nan,[ nan  nan  nan],nan,nan,nan,742.3363765,1142.605812,1142.847055,nan,nan
0,284,15:22:10:277000,6,1,11,7.734375,[ 0.9346595  0.1638529 -1.       ],1,1,1,0.259598693,0,0,0,0.260145222,0.266983664,0.092578657,0.359562321,0.174405007,nan,nan,nan,[ nan  nan  nan],nan,nan,nan,742.3363765,1143.547551,1143.80715,nan,nan
0,285,15:22:11:213000,6,1,328,230.625,[-0.13215956  0.44685797  0.33604616],1,1,1,0.261871195,0,0,0,0.254237837,0.266957569,0.092415984,0.359373553,0.174541585,nan,nan,nan,[ nan  nan  nan],nan,nan,nan,742.3363765,1144.489279,1144.75115,nan,nan
0,286,15:22:12:164000,6,1,217,152.578125,[ 0.89125041  0.07353733  0.56804835],1,1,1,0.255586248,0,0,0,0.259018712,0.266939659,0.092253629,0.359193287,0.17468603,nan,nan,nan,[ nan  nan  nan],nan,nan,nan,742.3363765,1145.43953,1145.695116,nan,nan
0,287,15:22:13:116000,6,1,429,301.640625,[ 0.17753182  0.44208078 -0.9018852 ],1,1,1,0.273430424,0,0,0,0.263629289,0.266899822,0.092094085,0.358993907,0.174805738,nan,nan,nan,[ nan  nan  nan],nan,nan,nan,742.3363765,1146.389599,1146.66303,nan,nan
0,288,15:22:14:067000,6,1,47,33.046875,[ 1.         -0.01707559 -1.        ],1,1,1,0.283435308,0,0,0,0.270817326,0.266922657,0.091933748,0.358856405,0.174988908,nan,nan,nan,[ nan  nan  nan],nan,nan,nan,742.3363765,1147.339633,1147.623069,nan,nan
0,289,15:22:15:003000,6,1,314,220.78125,[-0.05944389  0.42463231  0.44192541],1,1,1,0.205635669,0,0,0,0.254167133,0.266980192,0.091778603,0.358758795,0.175201589,nan,nan,nan,[ nan  nan  nan],nan,nan,nan,742.3363765,1148.281417,1148.487052,nan,nan
0,290,15:22:15:955000,6,1,182,127.96875,[ 1.         -0.11852384  0.34708947],1,1,1,0.287422379,0,0,0,0.258831119,0.26676719,0.09169016,0.358457351,0.17507703,nan,nan,nan,[ nan  nan  nan],nan,nan,nan,742.3363765,1149.231594,1149.519016,nan,nan
0,291,15:22:16:907000,6,0,22,15.46875,[ 1.          0.11184242 -1.        ],0,1,0,0.129365287,0,0,0,0.207474445,0.266838661,0.091539425,0.358378087,0.175299236,nan,nan,nan,[ nan  nan  nan],nan,nan,nan,742.3363765,1150.181646,1150.311011,nan,nan
0,292,15:22:17:858000,6,1,482,338.90625,[ 0.59765563  0.32248081 -1.        ],1,1,1,0.339223517,0,0,0,0.252003728,0.266364615,0.09173612,0.358100735,0.174628495,nan,nan,nan,[ nan  nan  nan],nan,nan,nan,742.3363765,1151.131753,1151.470976,nan,nan
0,293,15:22:18:810000,6,1,8,5.625,[ 0.91102659  0.17740094 -1.        ],1,1,1,0.333091952,0,0,0,0.267226919,0.26661499,0.091677564,0.358292553,0.174937426,nan,nan,nan,[ nan  nan  nan],nan,nan,nan,742.3363765,1152.081871,1152.414963,nan,nan
0,294,15:22:19:761000,6,1,263,184.921875,[ 0.4056988   0.28417174  0.65182989],1,1,1,0.302945586,0,0,0,0.325087019,0.26684265,0.091602809,0.358445459,0.175239842,nan,nan,nan,[ nan  nan  nan],nan,nan,nan,742.3363765,1153.031986,1153.334932,nan,nan
0,295,15:22:20:713000,6,1,209,146.953125,[ 0.96730184  0.03048352  0.52805   ],1,1,1,0.264732136,0,0,0,0.300256558,0.266965869,0.091470593,0.358436462,0.175495275,nan,nan,nan,[ nan  nan  nan],nan,nan,nan,742.3363765,1153.982107,1154.246839,nan,nan
0,296,15:22:21:665000,6,0,440,309.375,[ 0.2586994  0.4246574 -1.       ],0,0,1,0.354685144,0,0,0,0.307454289,0.266958271,0.091314991,0.358273262,0.17564328,nan,nan,nan,[ nan  nan  nan],nan,nan,nan,742.3363765,1154.932215,1155.2869,nan,nan
0,297,15:22:22:616000,6,1,217,152.578125,[ 0.89125041  0.07353733  0.56804835],1,1,1,0.292402156,0,0,0,0.303939812,0.26725565,0.091302582,0.358558232,0.175953068,nan,nan,nan,[ nan  nan  nan],nan,nan,nan,742.3363765,1155.882343,1156.174745,nan,nan
0,298,15:22:23:568000,6,1,18,12.65625,[ 0.9886827   0.13116258 -1.        ],1,1,1,0.270381319,0,0,0,0.305822873,0.267340605,0.091159903,0.358500507,0.176180702,nan,nan,nan,[ nan  nan  nan],nan,nan,nan,742.3363765,1156.832478,1157.102859,nan,nan
0,299,15:22:24:504000,6,1,449,315.703125,[ 0.32809501  0.40764625 -1.        ],1,1,1,0.296180252,0,0,0,0.286321242,0.267350843,0.091006476,0.358357319,0.176344367,nan,nan,nan,[ nan  nan  nan],nan,nan,nan,742.3363765,1157.782651,1158.078831,nan,nan
0,300,15:22:25:455000,6,1,136,95.625,[ 1.         -0.3019149  -0.07484121],1,1,1,0.321929292,0,0,0,0.296163621,0.267447586,0.090868949,0.358316534,0.176578637,nan,nan,nan,[ nan  nan  nan],nan,nan,nan,742.3363765,1158.732754,1159.054684,nan,nan
0,301,15:22:26:407000,6,1,461,324.140625,[ 0.42395965  0.38092737 -1.        ],1,1,1,0.363977572,0,0,0,0.327362372,0.267629799,0.090771383,0.358401182,0.176858416,nan,nan,nan,[ nan  nan  nan],nan,nan,nan,742.3363765,1159.682798,1160.046776,nan,nan
0,302,15:22:27:359000,6,0,24,16.875,[ 1.          0.10201906 -1.        ],0,1,0,0.293857002,0,0,0,0.326587955,0.267950958,0.090789972,0.35874093,0.177160986,nan,nan,nan,[ nan  nan  nan],nan,nan,nan,742.3363765,1160.632915,1160.926772,nan,nan
0,303,15:22:28:310000,6,1,304,213.75,[ 0.01130928  0.40470892  0.50616037],1,1,1,0.19971707,0,0,0,0.285850548,0.268037025,0.09065129,0.358688315,0.177385734,nan,nan,nan,[ nan  nan  nan],nan,nan,nan,742.3363765,1161.583028,1161.782745,nan,nan
0,304,15:22:29:262000,6,1,398,279.84375,[-0.02203778  0.4726088  -0.38794338],1,1,1,0.281585318,0,0,0,0.258386463,0.2678108,0.090586148,0.358396947,0.177224652,nan,nan,nan,[ nan  nan  nan],nan,nan,nan,742.3363765,1162.533149,1162.814734,nan,nan
0,305,15:22:30:213000,6,0,275,193.359375,[ 0.27900239  0.32618525  0.63017847],0,0,1,0.371417445,0,0,0,0.284239944,0.26785626,0.090439993,0.358296253,0.177416267,nan,nan,nan,[ nan  nan  nan],nan,nan,nan,742.3363765,1163.483275,1163.854692,nan,nan
0,306,15:22:31:149000,6,1,50,35.15625,[ 1.         -0.03314873 -1.        ],1,1,1,0.25335765,0,0,0,0.302120137,0.268196922,0.090485632,0.358682554,0.177711289,nan,nan,nan,[ nan  nan  nan],nan,nan,nan,742.3363765,1164.433342,1164.6867,nan,nan
0,307,15:22:32:101000,6,1,495,348.046875,[ 0.70648511  0.27855169 -1.        ],1,1,1,0.24753912,0,0,0,0.290771405,0.268148268,0.090341156,0.358489425,0.177807112,nan,nan,nan,[ nan  nan  nan],nan,nan,nan,742.3363765,1165.375127,1165.622666,nan,nan
0,308,15:22:33:053000,6,0,139,97.734375,[ 1.         -0.29633561 -0.04459929],0,1,0,0.233689428,0,0,0,0.244862066,0.268080918,0.090201088,0.358282007,0.17787983,nan,nan,nan,[ nan  nan  nan],nan,nan,nan,742.3363765,1166.31694,1166.550629,nan,nan
0,309,15:22:33:989000,6,1,46,32.34375,[ 1.         -0.01173137 -1.        ],1,1,1,0.283547065,0,0,0,0.254925205,0.267968894,0.09007538,0.358044274,0.177893514,nan,nan,nan,[ nan  nan  nan],nan,nan,nan,742.3363765,1167.267056,1167.550603,nan,nan
0,310,15:22:34:940000,6,1,436,306.5625,[ 0.22868171  0.43141373 -1.        ],1,1,1,0.429319358,0,0,0,0.315518617,0.268019472,0.089933401,0.357952874,0.178086071,nan,nan,nan,[ nan  nan  nan],nan,nan,nan,742.3363765,1168.217174,1168.646493,nan,nan
0,311,15:22:35:892000,6,1,504,354.375,[ 0.78128615  0.24462829 -1.        ],1,1,1,0.375313855,0,0,1,0.36272676,0.268541478,0.090253914,0.358795392,0.178287565,nan,nan,nan,[ nan  nan  nan],nan,nan,nan,742.3363765,1169.16729,1169.542604,nan,nan
0,312,15:22:40:166000,6,1,383,269.296875,[-0.09687871  0.47813121 -0.21108141],1,1,1,0.320972794,1,0,0,0.375202003,0.268885905,0.0903114,0.359197305,0.178574506,nan,-117.5635693,295,[ 0.08602229  0.38372732  0.55498608],nan,-61.73330567,1.267110124,742.3363765,1170.117467,1170.43844,1171.950919,1173.226051
0,313,15:22:41:118000,6,1,270,189.84375,[ 0.33115907  0.30936972  0.64139387],1,1,1,0.33345659,0,0,0,0.343247746,0.269053387,0.090214294,0.359267682,0.178839093,nan,nan,nan,[ nan  nan  nan],nan,nan,nan,742.3363765,1174.392983,1174.72644,nan,nan
0,314,15:22:42:069000,6,1,338,237.65625,[-0.16289136  0.45892871  0.25039916],1,1,1,0.287367926,0,0,0,0.313932437,0.269259808,0.090143137,0.359402945,0.179116671,nan,nan,nan,[ nan  nan  nan],nan,nan,nan,742.3363765,1175.343054,1175.630421,nan,nan
0,315,15:22:43:021000,6,1,190,133.59375,[ 1.         -0.07468844  0.40739964],1,1,1,0.225155926,0,0,0,0.281993481,0.269317661,0.090004824,0.359322486,0.179312837,nan,nan,nan,[ nan  nan  nan],nan,nan,nan,742.3363765,1176.293162,1176.518318,nan,nan
0,316,15:22:43:973000,6,1,346,243.28125,[-0.17431756  0.46643129  0.17667017],1,1,1,0.235114339,0,0,0,0.24921273,0.269177019,0.089895833,0.359072851,0.179281186,nan,nan,nan,[ nan  nan  nan],nan,nan,nan,742.3363765,1177.243272,1177.478387,nan,nan
0,317,15:22:44:924000,6,1,98,68.90625,[ 1.         -0.26382291 -0.48021779],1,1,1,0.204956285,0,0,0,0.221742183,0.269068883,0.089773479,0.358842363,0.179295404,nan,nan,nan,[ nan  nan  nan],nan,nan,nan,742.3363765,1178.193396,1178.398352,nan,nan
0,318,15:22:45:860000,6,1,151,106.171875,[ 1.         -0.26272029  0.07346267],1,1,1,0.198827855,0,0,0,0.21296616,0.268865995,0.089703624,0.358569619,0.179162372,nan,nan,nan,[ nan  nan  nan],nan,nan,nan,742.3363765,1179.143507,1179.342335,nan,nan
0,319,15:22:46:812000,6,1,3,2.109375,[ 0.87108718  0.19933511 -1.        ],1,1,1,0.265029777,0,0,0,0.222937972,0.268645055,0.089648098,0.358293153,0.178996957,nan,nan,nan,[ nan  nan  nan],nan,nan,nan,742.3363765,1180.085285,1180.350315,nan,nan
0,320,15:22:47:748000,6,1,388,272.8125,[-0.07396337  0.47694192 -0.26857716],1,1,1,0.323258411,0,0,0,0.262372014,0.268633686,0.08950726,0.358140946,0.179126426,nan,nan,nan,[ nan  nan  nan],nan,nan,nan,742.3363765,1181.027064,1181.350323,nan,nan
0,321,15:22:48:699000,6,1,209,146.953125,[ 0.96730184  0.03048352  0.52805   ],1,1,1,0.309083709,0,0,0,0.299123966,0.268804923,0.089419011,0.358223934,0.179385913,nan,nan,nan,[ nan  nan  nan],nan,nan,nan,742.3363765,1181.977186,1182.28627,nan,nan
0,322,15:22:49:651000,6,1,317,222.890625,[-0.07777284  0.42993861  0.42073361],1,1,1,0.278856661,0,0,0,0.303732927,0.268930795,0.089307485,0.358238279,0.17962331,nan,nan,nan,[ nan  nan  nan],nan,nan,nan,742.3363765,1182.92729,1183.206147,nan,nan
0,323,15:22:50:603000,6,1,127,89.296875,[ 1.         -0.31111021 -0.16703665],1,1,1,0.280724897,0,0,0,0.289555089,0.268961716,0.089169984,0.3581317,0.179791733,nan,nan,nan,[ nan  nan  nan],nan,nan,nan,742.3363765,1183.877502,1184.158227,nan,nan
0,324,15:22:51:554000,6,1,385,270.703125,[-0.08797966  0.47773344 -0.23392672],1,1,1,0.30659938,0,0,0,0.28872698,0.268998248,0.089033819,0.358032067,0.179964429,nan,nan,nan,[ nan  nan  nan],nan,nan,nan,742.3363765,1184.827599,1185.134198,nan,nan
0,325,15:22:52:506000,6,1,291,204.609375,[ 0.12202764  0.37344194  0.57379193],1,1,1,0.220507146,0,0,0,0.269277141,0.26911466,0.088920429,0.358035089,0.180194231,nan,nan,nan,[ nan  nan  nan],nan,nan,nan,742.3363765,1185.777682,1185.99819,nan,nan
0,326,15:22:53:442000,6,1,459,322.734375,[ 0.40775816  0.38570917 -1.        ],1,1,1,0.246653041,0,0,0,0.257919856,0.268964637,0.088824032,0.357788669,0.180140605,nan,nan,nan,[ nan  nan  nan],nan,nan,nan,742.3363765,1186.719429,1186.966082,nan,nan
0,327,15:22:54:393000,6,1,416,292.5,[ 0.08788162  0.4581175  -0.63016532],1,1,1,0.200566087,0,0,0,0.222575425,0.268895986,0.088695883,0.357591869,0.180200103,nan,nan,nan,[ nan  nan  nan],nan,nan,nan,742.3363765,1187.669607,1187.870173,nan,nan
0,328,15:22:55:345000,6,1,360,253.125,[-0.1677095   0.47518832  0.03812586],1,1,1,0.250452234,0,0,0,0.232557121,0.268686385,0.088640318,0.357326703,0.180046067,nan,nan,nan,[ nan  nan  nan],nan,nan,nan,742.3363765,1188.619661,1188.870114,nan,nan
0,329,15:22:56:297000,6,1,509,357.890625,[ 0.82238638  0.224555   -1.        ],1,1,1,0.292324039,0,0,0,0.247780787,0.268630623,0.088510405,0.357141028,0.180120218,nan,nan,nan,[ nan  nan  nan],nan,nan,nan,742.3363765,1189.569776,1189.8621,nan,nan
0,330,15:22:57:233000,6,1,108,75.9375,[ 1.         -0.29242661 -0.36866329],1,1,1,0.286513492,0,0,0,0.276429922,0.268702859,0.08838503,0.35708789,0.180317829,nan,nan,nan,[ nan  nan  nan],nan,nan,nan,742.3363765,1190.511594,1190.798108,nan,nan
0,331,15:22:58:184000,6,1,473,332.578125,[ 0.52259481  0.34939617 -1.        ],1,1,1,0.224406978,0,0,0,0.26774817,0.268756995,0.088256051,0.357013045,0.180500944,nan,nan,nan,[ nan  nan  nan],nan,nan,nan,742.3363765,1191.461668,1191.686075,nan,nan
0,332,15:22:59:136000,6,1,361,253.828125,[-0.16604781  0.47560771  0.02781731],1,1,1,0.250122378,0,0,0,0.253680949,0.268622601,0.088155938,0.356778538,0.180466663,nan,nan,nan,[ nan  nan  nan],nan,nan,nan,742.3363765,1192.411787,1192.661909,nan,nan
0,333,15:23:00:087000,6,1,299,210.234375,[ 0.05166456  0.39341767  0.53437875],1,1,1,0.164009902,0,0,0,0.212846419,0.268566709,0.088028526,0.356595235,0.180538182,nan,nan,nan,[ nan  nan  nan],nan,nan,nan,742.3363765,1193.361908,1193.525918,nan,nan
0,334,15:23:01:023000,6,1,196,137.8125,[ 1.         -0.04136108  0.44913076],1,1,1,0.262311669,0,0,0,0.225481316,0.268251779,0.088082404,0.356334183,0.180169374,nan,nan,nan,[ nan  nan  nan],nan,nan,nan,742.3363765,1194.303688,1194.566,nan,nan
0,335,15:23:01:975000,6,1,280,196.875,[ 0.22808935  0.34201885  0.61587222],1,1,1,0.16817915,0,0,0,0.198166907,0.268233941,0.08795065,0.35618459,0.180283291,nan,nan,nan,[ nan  nan  nan],nan,nan,nan,742.3363765,1195.253795,1195.421974,nan,nan
0,336,15:23:02:927000,6,1,50,35.15625,[ 1.         -0.03314873 -1.        ],1,1,1,0.194422547,0,0,0,0.208304455,0.267934375,0.087988865,0.35592324,0.17994551,nan,nan,nan,[ nan  nan  nan],nan,nan,nan,742.3363765,1196.195575,1196.389998,nan,nan
0,337,15:23:03:878000,6,1,439,308.671875,[ 0.25114429  0.4263922  -1.        ],1,1,1,0.108209148,0,1,0,0.156936948,0.267714937,0.087948922,0.355663859,0.179766015,nan,nan,nan,[ nan  nan  nan],nan,nan,nan,742.3363765,1197.145706,1197.253915,nan,nan
0,338,15:23:08:496000,6,1,501,352.265625,[ 0.75644923  0.25625354 -1.        ],1,1,1,0.166083692,1,0,0,0.156238462,0.267240217,0.088246741,0.355486958,0.178993477,nan,84.28940686,8,[ 0.91102659  0.17740094 -1.        ],nan,13.44496814,1.633890193,742.3363765,1198.09581,1198.261894,1199.921001,1201.562951
0,339,15:23:09:447000,6,1,224,157.5,[ 0.82161942  0.11002479  0.59726488],1,1,1,0.260422336,0,0,0,0.178238392,0.26694005,0.088287331,0.35522738,0.178652719,nan,nan,nan,[ nan  nan  nan],nan,nan,nan,742.3363765,1202.721385,1202.981807,nan,nan
0,340,15:23:10:399000,6,1,146,102.65625,[ 1.         -0.27879258  0.02488132],1,1,1,0.2866549,0,0,0,0.237720309,0.266920767,0.088157342,0.355078109,0.178763424,nan,nan,nan,[ nan  nan  nan],nan,nan,nan,742.3363765,1203.663133,1203.949788,nan,nan
0,341,15:23:11:335000,6,1,451,317.109375,[ 0.34383096  0.40351836 -1.        ],1,1,1,0.240471298,0,0,0,0.262516178,0.266978979,0.088033726,0.355012706,0.178945253,nan,nan,nan,[ nan  nan  nan],nan,nan,nan,742.3363765,1204.613266,1204.853737,nan,nan
0,342,15:23:12:287000,6,1,226,158.90625,[ 0.80126593  0.12020899  0.60458277],1,1,1,0.162365752,0,0,0,0.22983065,0.266901016,0.087915889,0.354816905,0.178985126,nan,nan,nan,[ nan  nan  nan],nan,nan,nan,742.3363765,1205.563386,1205.725752,nan,nan
0,343,15:23:13:238000,6,1,170,119.53125,[ 1.         -0.18099048  0.24781506],1,1,1,0.212189177,0,0,0,0.205008742,0.266594461,0.087968683,0.354563143,0.178625778,nan,nan,nan,[ nan  nan  nan],nan,nan,nan,742.3363765,1206.513508,1206.725697,nan,nan
0,344,15:23:14:190000,6,1,116,81.5625,[ 1.         -0.30644692 -0.28251544],1,1,1,0.229806987,0,0,0,0.201453972,0.266435381,0.087889086,0.354324467,0.178546295,nan,nan,nan,[ nan  nan  nan],nan,nan,nan,742.3363765,1207.463742,1207.693549,nan,nan
0,345,15:23:15:142000,6,0,452,317.8125,[ 0.35173807  0.40140621 -1.        ],0,1,0,0.239895404,0,0,0,0.227297189,0.266328592,0.087783091,0.354111684,0.178545501,nan,nan,nan,[ nan  nan  nan],nan,nan,nan,742.3363765,1208.413768,1208.653664,nan,nan
0,346,15:23:16:093000,6,1,342,240.46875,[-0.17005262  0.46291356  0.21407524],1,1,1,0.257778638,0,0,0,0.242493676,0.266251752,0.087666958,0.35391871,0.178584793,nan,nan,nan,[ nan  nan  nan],nan,nan,nan,742.3363765,1209.363848,1209.621626,nan,nan
0,347,15:23:17:045000,6,1,278,195.46875,[ 0.24828552  0.33580281  0.62196257],1,1,1,0.315485261,0,0,0,0.271053101,0.266227192,0.087540998,0.35376819,0.178686194,nan,nan,nan,[ nan  nan  nan],nan,nan,nan,742.3363765,1210.313998,1210.629483,nan,nan
0,348,15:23:17:996000,6,1,85,59.765625,[ 1.         -0.21215645 -0.63878123],1,1,1,0.197428032,0,0,0,0.25689731,0.266369556,0.087454388,0.353823944,0.178915168,nan,nan,nan,[ nan  nan  nan],nan,nan,nan,742.3363765,1211.264081,1211.461509,nan,nan
0,349,15:23:18:948000,6,1,402,282.65625,[ 0.00072492  0.47013996 -0.43781156],1,1,1,0.255310275,0,0,0,0.256074523,0.266170878,0.087406445,0.353577322,0.178764433,nan,nan,nan,[ nan  nan  nan],nan,nan,nan,742.3363765,1212.214252,1212.469563,nan,nan
0,350,15:23:19:900000,6,1,489,343.828125,[ 0.65628486  0.29957244 -1.        ],1,1,1,0.281128023,0,0,0,0.24462211,0.266139669,0.087282707,0.353422376,0.178856962,nan,nan,nan,[ nan  nan  nan],nan,nan,nan,742.3363765,1213.164317,1213.445445,nan,nan
0,351,15:23:20:836000,6,1,393,276.328125,[-0.04894566  0.47510217 -0.32744323],1,1,1,0.243021199,0,0,0,0.259819832,0.266182616,0.087161252,0.353343868,0.179021363,nan,nan,nan,[ nan  nan  nan],nan,nan,nan,742.3363765,1214.114431,1214.357452,nan,nan
0,352,15:23:21:787000,6,1,256,180,[ 0.48131261  0.25704791  0.65606572],1,1,1,0.140960438,0,0,0,0.22170322,0.26611644,0.087045426,0.353161866,0.179071014,nan,nan,nan,[ nan  nan  nan],nan,nan,nan,742.3363765,1215.064543,1215.205503,nan,nan
0,353,15:23:22:739000,6,1,199,139.921875,[ 1.         -0.02467618  0.4687863 ],1,1,1,0.238747891,0,0,0,0.20757651,0.26575987,0.087176943,0.352936813,0.178582928,nan,nan,nan,[ nan  nan  nan],nan,nan,nan,742.3363765,1216.014662,1216.25341,nan,nan
0,354,15:23:23:690000,6,1,230,161.71875,[ 0.76002313  0.14022421  0.6178111 ],1,1,1,0.224528429,0,0,0,0.201412253,0.265683132,0.087064895,0.352748027,0.178618237,nan,nan,nan,[ nan  nan  nan],nan,nan,nan,742.3363765,1216.964866,1217.189394,nan,nan
0,355,15:23:24:642000,6,1,118,82.96875,[ 1.         -0.30858815 -0.26128525],1,1,1,0.218380043,0,0,0,0.227218788,0.265566546,0.086968997,0.352535543,0.178597549,nan,nan,nan,[ nan  nan  nan],nan,nan,nan,742.3363765,1217.914971,1218.133351,nan,nan
0,356,15:23:25:578000,6,1,350,246.09375,[-0.17575682  0.46949094  0.13824748],1,1,1,0.212753953,0,0,0,0.218554142,0.265433251,0.086882175,0.352315426,0.178551076,nan,nan,nan,[ nan  nan  nan],nan,nan,nan,742.3363765,1218.856669,1219.069423,nan,nan
0,357,15:23:26:530000,6,1,510,358.59375,[ 0.83055446  0.2204367  -1.        ],1,1,1,0.246507927,0,0,0,0.225880641,0.265284859,0.086804632,0.35208949,0.178480227,nan,nan,nan,[ nan  nan  nan],nan,nan,nan,742.3363765,1219.806878,1220.053386,nan,nan
0,358,15:23:27:481000,6,1,416,292.5,[ 0.08788162  0.4581175  -0.63016532],1,1,1,0.192332792,0,0,0,0.217198224,0.265232114,0.086688326,0.35192044,0.178543789,nan,nan,nan,[ nan  nan  nan],nan,nan,nan,742.3363765,1220.756912,1220.949244,nan,nan
0,359,15:23:28:433000,6,1,504,354.375,[ 0.78128615  0.24462829 -1.        ],1,1,1,0.226333659,0,0,0,0.221724793,0.265027915,0.086652525,0.35168044,0.17837539,nan,nan,nan,[ nan  nan  nan],nan,nan,nan,742.3363765,1221.707024,1221.933358,nan,nan
0,360,15:23:29:384000,6,1,440,309.375,[ 0.2586994  0.4246574 -1.       ],1,1,1,0.156182298,0,0,0,0.19161625,0.26491983,0.086555512,0.351475342,0.178364318,nan,nan,nan,[ nan  nan  nan],nan,nan,nan,742.3363765,1222.65714,1222.813322,nan,nan
0,361,15:23:30:336000,6,1,487,342.421875,[ 0.63952974  0.30629503 -1.        ],1,1,1,0.214000964,0,0,0,0.198838974,0.26461694,0.086624661,0.351241601,0.177992279,nan,nan,nan,[ nan  nan  nan],nan,nan,nan,742.3363765,1223.607286,1223.821287,nan,nan
0,362,15:23:31:288000,6,1,403,283.359375,[ 0.00657627  0.46945644 -0.45052451],1,1,1,0.03199436,0,1,0,0.134059207,0.26447634,0.086545275,0.351021615,0.177931065,nan,nan,nan,[ nan  nan  nan],nan,nan,nan,742.3363765,1224.557403,1224.589398,nan,nan
0,363,15:23:32:239000,6,0,94,66.09375,[ 1.         -0.24943901 -0.52674516],0,1,0,0.001774724,0,0,0,0.082590016,0.263832346,0.087284815,0.35111716,0.176547531,nan,nan,nan,[ nan  nan  nan],nan,nan,nan,742.3363765,1225.507514,1225.509289,nan,nan
0,364,15:23:33:191000,6,1,192,135,[ 1.         -0.06359976  0.42165841],1,1,1,0.539626245,0,0,0,0.191131776,0.26310843,0.088242714,0.351351144,0.174865715,nan,nan,nan,[ nan  nan  nan],nan,nan,nan,742.3363765,1226.457601,1226.997227,nan,nan
0,365,15:23:34:142000,6,0,245,172.265625,[ 0.6005777   0.21061011  0.65017283],0,1,0,0.293490083,0,0,0,0.278297017,0.263870187,0.089305009,0.353175195,0.174565178,nan,nan,nan,[ nan  nan  nan],nan,nan,nan,742.3363765,1227.407732,1227.701222,nan,nan
0,366,15:23:35:078000,6,1,374,262.96875,[-0.13203913  0.47863408 -0.11062844],1,1,1,0.375353769,0,0,0,0.402823365,0.26395156,0.089195727,0.353147287,0.174755832,nan,nan,nan,[ nan  nan  nan],nan,nan,nan,742.3363765,1228.357831,1228.733185,nan,nan
0,367,15:23:36:030000,6,1,436,306.5625,[ 0.22868171  0.43141373 -1.        ],1,1,1,0.257023418,0,0,0,0.308622423,0.264256772,0.089263593,0.353520364,0.174993179,nan,nan,nan,[ nan  nan  nan],nan,nan,nan,742.3363765,1229.308047,1229.56507,nan,nan
0,368,15:23:36:982000,6,1,144,101.25,[ 1.         -0.28442319  0.00519445],1,1,1,0.266997796,0,0,0,0.299791661,0.264237008,0.089142364,0.353379372,0.175094644,nan,nan,nan,[ nan  nan  nan],nan,nan,nan,742.3363765,1230.258152,1230.52515,nan,nan
0,369,15:23:37:933000,6,0,208,146.25,[ 0.97651258  0.02502074  0.52257448],0,1,0,0.204954574,0,0,0,0.24299193,0.264244531,0.08902095,0.353265481,0.175223581,nan,nan,nan,[ nan  nan  nan],nan,nan,nan,742.3363765,1231.208182,1231.413137,nan,nan
0,370,15:23:38:885000,6,1,294,206.71875,[ 0.0948762   0.38121213  0.55985823],1,1,1,0.422697142,0,0,0,0.298216504,0.264083417,0.088953479,0.353036896,0.175129938,nan,nan,nan,[ nan  nan  nan],nan,nan,nan,742.3363765,1232.158287,1232.580985,nan,nan
0,371,15:23:39:836000,6,1,480,337.5,[ 0.58092807  0.32870764 -1.        ],1,1,1,0.28865485,0,0,0,0.305435522,0.264513264,0.089214756,0.35372802,0.175298508,nan,nan,nan,[ nan  nan  nan],nan,nan,nan,742.3363765,1233.108414,1233.397068,nan,nan
0,372,15:23:40:772000,6,0,322,226.40625,[-0.10506723  0.43811622  0.38355935],0,1,0,0.1868062,0,0,0,0.299386064,0.264578512,0.08910293,0.353681442,0.175475582,nan,nan,nan,[ nan  nan  nan],nan,nan,nan,742.3363765,1234.050168,1234.236974,nan,nan
0,373,15:23:41:724000,6,1,449,315.703125,[ 0.32809501  0.40764625 -1.        ],1,1,1,0.373084402,0,0,0,0.282848484,0.264368883,0.08907408,0.353442963,0.175294803,nan,nan,nan,[ nan  nan  nan],nan,nan,nan,742.3363765,1234.991977,1235.365062,nan,nan
0,374,15:23:42:676000,6,1,193,135.703125,[ 1.         -0.05804539  0.42865879],1,1,1,0.366780354,0,0,0,0.308890319,0.264661129,0.089132202,0.353793331,0.175528927,nan,nan,nan,[ nan  nan  nan],nan,nan,nan,742.3363765,1235.942112,1236.308892,nan,nan
0,375,15:23:43:627000,6,1,2,1.40625,[ 0.86302458  0.20362286 -1.        ],1,1,1,0.328779585,0,0,1,0.35621478,0.264934907,0.089169128,0.354104035,0.175765779,nan,nan,nan,[ nan  nan  nan],nan,nan,nan,742.3363765,1236.892207,1237.220987,nan,nan
0,376,15:23:48:323000,6,1,436,306.5625,[ 0.22868171  0.43141373 -1.        ],1,1,1,0.274632675,1,0,0,0.323397538,0.265105615,0.089110849,0.354216463,0.175994766,nan,105.2297329,490,[ 0.66466039  0.29615785 -1.        ],nan,38.20776711,1.708825754,742.3363765,1237.842351,1238.116984,1239.667503,1241.384364
0,377,15:23:49:274000,6,1,3,2.109375,[ 0.87108718  0.19933511 -1.        ],1,1,1,0.381819182,0,0,0,0.328410481,0.26513102,0.088993311,0.354124331,0.176137709,nan,nan,nan,[ nan  nan  nan],nan,nan,nan,742.3363765,1242.542939,1242.924759,nan,nan
0,378,15:23:50:210000,6,1,233,163.828125,[ 0.7286704   0.15490978  0.62648223],1,1,1,0.296069064,0,0,0,0.317506974,0.265441361,0.089077847,0.354519209,0.176363514,nan,nan,nan,[ nan  nan  nan],nan,nan,nan,742.3363765,1243.484678,1243.780747,nan,nan
0,379,15:23:51:146000,6,1,74,52.03125,[ 1.         -0.15971516 -0.81044328],1,1,1,0.202376448,0,0,0,0.293421565,0.265522602,0.088973576,0.354496177,0.176549026,nan,nan,nan,[ nan  nan  nan],nan,nan,nan,742.3363765,1244.42646,1244.628837,nan,nan
0,380,15:23:52:098000,6,1,359,252.421875,[-0.16922234  0.47474188  0.0483828 ],1,1,1,0.044560833,0,0,0,0.181002115,0.265355548,0.08891499,0.354270538,0.176440559,nan,nan,nan,[ nan  nan  nan],nan,nan,nan,742.3363765,1245.368239,1245.4128,nan,nan
0,381,15:23:53:034000,6,1,483,339.609375,[ 0.60602571  0.31931445 -1.        ],1,1,1,0.590796465,0,0,0,0.279244582,0.264772977,0.089517065,0.354290042,0.175255911,nan,nan,nan,[ nan  nan  nan],nan,nan,nan,742.3363765,1246.309991,1246.900787,nan,nan
0,382,15:23:53:986000,6,1,190,133.59375,[ 1.         -0.07468844  0.40739964],1,1,1,0.361012856,0,0,0,0.332123385,0.265630933,0.090946112,0.356577045,0.174684821,nan,nan,nan,[ nan  nan  nan],nan,nan,nan,742.3363765,1247.251775,1247.612788,nan,nan
0,383,15:23:54:922000,6,1,397,279.140625,[-0.02756135  0.47315999 -0.37569455],1,1,1,0.25910177,0,0,1,0.40363703,0.265881279,0.090957693,0.356838972,0.174923587,nan,nan,nan,[ nan  nan  nan],nan,nan,nan,742.3363765,1248.193549,1248.452651,nan,nan
0,384,15:23:58:634000,6,1,27,18.984375,[ 1.          0.08709126 -1.        ],1,1,1,0.24500775,1,0,0,0.288374125,0.265863532,0.090839221,0.356702753,0.175024311,nan,85.77400182,6,[ 0.89512908  0.18627278 -1.        ],nan,-14.75837682,0.717033676,742.3363765,1249.14371,1249.388718,1250.977221,1251.702286
0,385,15:23:59:570000,6,1,207,145.546875,[ 0.98565351  0.01954319  0.51699622],1,1,1,0.272180277,0,0,0,0.258763266,0.265809078,0.090726797,0.356535875,0.175082281,nan,nan,nan,[ nan  nan  nan],nan,nan,nan,742.3363765,1252.852462,1253.124642,nan,nan
0,386,15:24:00:522000,6,1,33,23.203125,[ 1.          0.05659903 -1.        ],1,1,1,0.250376113,0,0,0,0.255854713,0.26582567,0.090609168,0.356434838,0.175216502,nan,nan,nan,[ nan  nan  nan],nan,nan,nan,742.3363765,1253.79426,1254.044636,nan,nan
0,387,15:24:01:458000,6,0,145,101.953125,[ 1.         -0.28166741  0.01505517],0,1,0,0.236467406,0,0,0,0.253007932,0.265785541,0.090494834,0.356280375,0.175290708,nan,nan,nan,[ nan  nan  nan],nan,nan,nan,742.3363765,1254.736015,1254.972482,nan,nan
0,388,15:24:02:410000,6,1,495,348.046875,[ 0.70648511  0.27855169 -1.        ],1,1,1,0.246790457,0,0,0,0.244544659,0.265709587,0.090389823,0.356099411,0.175319764,nan,nan,nan,[ nan  nan  nan],nan,nan,nan,742.3363765,1255.677796,1255.924586,nan,nan
0,389,15:24:03:346000,6,1,393,276.328125,[-0.04894566  0.47510217 -0.32744323],1,1,1,0.352816053,0,0,0,0.278691305,0.265660701,0.090278074,0.355938775,0.175382627,nan,nan,nan,[ nan  nan  nan],nan,nan,nan,742.3363765,1256.619607,1256.972423,nan,nan
0,390,15:24:04:297000,6,1,276,194.0625,[ 0.26871044  0.32943033  0.62756301],1,1,1,0.306737367,0,0,0,0.302114626,0.265885328,0.090269885,0.356155213,0.175615443,nan,nan,nan,[ nan  nan  nan],nan,nan,nan,742.3363765,1257.569785,1257.876523,nan,nan
0,391,15:24:05:249000,6,1,325,228.515625,[-0.1194049   0.44263104  0.36018642],1,1,1,0.276557075,0,0,0,0.312036831,0.265990346,0.090177512,0.356167858,0.175812834,nan,nan,nan,[ nan  nan  nan],nan,nan,nan,742.3363765,1258.519842,1258.796399,nan,nan
0,392,15:24:06:200000,6,1,393,276.328125,[-0.04894566  0.47510217 -0.32744323],1,1,1,0.310510616,0,0,0,0.297935019,0.26601744,0.090063411,0.356080851,0.175954029,nan,nan,nan,[ nan  nan  nan],nan,nan,nan,742.3363765,1259.469958,1259.780469,nan,nan
0,393,15:24:07:152000,6,0,297,208.828125,[ 0.06862621  0.38864628  0.54490466],0,0,1,0.392330397,0,0,0,0.326466029,0.266131234,0.089976235,0.356107468,0.176154999,nan,nan,nan,[ nan  nan  nan],nan,nan,nan,742.3363765,1260.420102,1260.812432,nan,nan
0,394,15:24:08:104000,6,1,247,173.671875,[ 0.57894763  0.21939267  0.65238059],1,1,1,0.298256608,0,0,0,0.333699207,0.26645317,0.090086597,0.356539767,0.176366573,nan,nan,nan,[ nan  nan  nan],nan,nan,nan,742.3363765,1261.370189,1261.668445,nan,nan
0,395,15:24:09:055000,6,1,345,242.578125,[-0.17351954  0.46559515  0.18611928],1,1,1,0.2679848,0,0,0,0.319523935,0.266534095,0.089986175,0.35652027,0.17654792,nan,nan,nan,[ nan  nan  nan],nan,nan,nan,742.3363765,1262.320296,1262.58828,nan,nan
0,396,15:24:09:991000,6,1,174,122.34375,[ 1.         -0.16079069  0.28198128],1,1,1,0.261972975,0,0,0,0.276071461,0.266537777,0.089871936,0.356409713,0.176665841,nan,nan,nan,[ nan  nan  nan],nan,nan,nan,742.3363765,1263.270414,1263.532387,nan,nan
0,397,15:24:10:958000,6,1,439,308.671875,[ 0.25114429  0.4263922  -1.        ],1,1,1,0.335831442,0,0,0,0.288596405,0.266526221,0.089758395,0.356284616,0.176767825,nan,nan,nan,[ nan  nan  nan],nan,nan,nan,742.3363765,1264.220534,1264.556366,nan,nan
0,398,15:24:11:894000,6,1,160,112.5,[ 1.         -0.22750142  0.15829752],1,1,1,0.297725188,0,0,0,0.298509868,0.266701234,0.089712448,0.356413682,0.176988785,nan,nan,nan,[ nan  nan  nan],nan,nan,nan,742.3363765,1265.170654,1265.468379,nan,nan
0,399,15:24:12:846000,6,1,375,263.671875,[-0.1285567   0.47868243 -0.12160516],1,1,1,0.243778415,0,0,0,0.292445015,0.26677938,0.089612883,0.356392263,0.177166497,nan,nan,nan,[ nan  nan  nan],nan,nan,nan,742.3363765,1266.112443,1266.356221,nan,nan
0,400,15:24:13:798000,6,1,182,127.96875,[ 1.         -0.11852384  0.34708947],1,1,1,0.269750116,0,0,0,0.270417906,0.266721588,0.08950764,0.356229229,0.177213948,nan,nan,nan,[ nan  nan  nan],nan,nan,nan,742.3363765,1267.062556,1267.332306,nan,nan
0,401,15:24:14:749000,6,1,508,357.1875,[ 0.81419982  0.22863893 -1.        ],1,1,1,0.311521567,0,0,0,0.275016699,0.266729179,0.089395533,0.356124712,0.177333645,nan,nan,nan,[ nan  nan  nan],nan,nan,nan,742.3363765,1268.012681,1268.324202,nan,nan
0,402,15:24:15:701000,6,0,325,228.515625,[-0.1194049   0.44263104  0.36018642],0,1,0,0.265476808,0,0,0,0.282249497,0.26684116,0.089311734,0.356152894,0.177529426,nan,nan,nan,[ nan  nan  nan],nan,nan,nan,742.3363765,1268.962776,1269.228253,nan,nan
0,403,15:24:16:637000,6,1,96,67.5,[ 1.         -0.25681952 -0.50330248],1,1,1,0.219346519,0,0,0,0.265448298,0.266837757,0.089200329,0.356038086,0.177637428,nan,nan,nan,[ nan  nan  nan],nan,nan,nan,742.3363765,1269.912892,1270.132238,nan,nan
0,404,15:24:17:588000,6,1,219,153.984375,[ 0.87162732  0.08408817  0.57695967],1,1,1,0.333066008,0,0,0,0.272629778,0.26671962,0.089120718,0.355840338,0.177598901,nan,nan,nan,[ nan  nan  nan],nan,nan,nan,742.3363765,1270.863016,1271.196082,nan,nan
0,405,15:24:18:540000,6,1,271,190.546875,[ 0.32064286  0.31281163  0.63940014],1,1,1,0.302933042,0,0,0,0.28511519,0.266884251,0.089071261,0.355955512,0.17781299,nan,nan,nan,[ nan  nan  nan],nan,nan,nan,742.3363765,1271.813123,1272.116056,nan,nan
0,406,15:24:19:492000,6,1,505,355.078125,[ 0.78953796  0.24068314 -1.        ],1,1,1,0.27325737,0,0,0,0.303085473,0.266973481,0.088978989,0.355952469,0.177994492,nan,nan,nan,[ nan  nan  nan],nan,nan,nan,742.3363765,1272.754916,1273.028173,nan,nan
0,407,15:24:20:443000,6,0,71,49.921875,[ 1.         -0.14450407 -0.87798077],0,1,0,0.28311771,0,0,0,0.286436041,0.266988997,0.088869617,0.355858614,0.178119379,nan,nan,nan,[ nan  nan  nan],nan,nan,nan,742.3363765,1273.705024,1273.988142,nan,nan
0,408,15:24:21:379000,6,1,248,174.375,[ 0.5681159   0.2237282   0.65329577],1,1,1,0.396988015,0,0,0,0.317787698,0.267028722,0.088763705,0.355792427,0.178265018,nan,nan,nan,[ nan  nan  nan],nan,nan,nan,742.3363765,1274.65514,1275.052128,nan,nan
0,409,15:24:22:331000,6,1,295,207.421875,[ 0.08602229  0.38372732  0.55498608],1,1,1,0.27864512,0,0,0,0.319583615,0.267348033,0.088887749,0.356235782,0.178460283,nan,nan,nan,[ nan  nan  nan],nan,nan,nan,742.3363765,1275.605339,1275.883984,nan,nan
0,410,15:24:23:282000,6,1,118,82.96875,[ 1.         -0.30858815 -0.26128525],1,1,1,0.232996929,0,0,0,0.302876688,0.267375722,0.088780509,0.35615623,0.178595213,nan,nan,nan,[ nan  nan  nan],nan,nan,nan,742.3363765,1276.547076,1276.780073,nan,nan
