block,trial,freq_trials,correct_response,actual_response,acc,rts,probe_trials,fast_rt_trigger,slow_rt_trigger,rt_triggered,rts_runningavg,rts_runningstd,rts_runningfastthresh,rts_runningslowthresh,rts_runningstd,rts_trailingavg,trials_colorind,trials_colorrgb0,trials_colorrgb1,trials_colorrgb2,wm_respdeg,wm_respdeg_in_colorspace,wm_respcolorminusorigcolor,wm_resptexind,wm_resptexrgb0,wm_resptexrgb1,wm_resptexrgb2,wm_rts,time_blockstart,time_encarray_offset,time_encarray_onset,time_response,time_iti_offset,time_iti_onset,time_memprobe_offset,time_memprobe_onset
1,1,1,1,1.0,1.0,0.299427498132,0,nan,nan,nan,nan,nan,nan,nan,nan,nan,437,0.23613482661,0.429770237144,-1.0,nan,nan,nan,nan,nan,nan,nan,nan,742.336376546,743.356997845,nan,743.656425343,nan,nan,nan,nan
1,2,0,0,1.0,0.0,0.237248855119,0,0.0,0.0,0.0,nan,nan,nan,nan,nan,nan,379,-0.113535935895,0.478614986251,-0.165970515924,nan,nan,nan,nan,nan,nan,nan,nan,742.336376546,744.307170998,nan,744.544419853,nan,nan,nan,nan
1,3,1,1,1.0,1.0,0.215049263206,0,nan,nan,nan,nan,nan,nan,nan,nan,nan,322,-0.105067232891,0.43811622051,0.383559350674,nan,nan,nan,nan,nan,nan,nan,nan,742.336376546,745.257267461,nan,745.472316724,nan,nan,nan,nan
1,4,1,1,1.0,1.0,0.240941137075,0,nan,nan,nan,nan,nan,nan,nan,nan,nan,52,1.0,-0.0438860552364,-1.0,nan,nan,nan,nan,nan,nan,nan,nan,742.336376546,746.207406972,nan,746.448348109,nan,nan,nan,nan
1,5,1,1,1.0,1.0,0.242423067451,0,nan,nan,nan,nan,nan,nan,nan,nan,nan,157,1.0,-0.240048375319,0.130425901556,nan,nan,nan,nan,nan,nan,nan,nan,742.336376546,747.165972505,nan,747.408395572,nan,nan,nan,nan
1,6,1,1,1.0,1.0,0.260050285317,0,nan,nan,nan,nan,nan,nan,nan,nan,nan,497,0.723174939644,0.271260599794,-1.0,nan,nan,nan,nan,nan,nan,nan,nan,742.336376546,748.124271757,nan,748.384322043,nan,nan,nan,nan
1,7,1,1,1.0,1.0,0.277792396897,0,nan,nan,nan,nan,nan,nan,nan,nan,nan,412,0.0618891196837,0.462096609288,-0.571158935758,nan,nan,nan,nan,nan,nan,nan,nan,742.336376546,749.074385325,nan,749.352177722,nan,nan,nan,nan
1,8,1,1,1.0,1.0,0.287211692834,0,nan,nan,nan,nan,nan,nan,nan,nan,nan,193,1.0,-0.0580453890011,0.428658791268,nan,nan,nan,nan,nan,nan,nan,nan,742.336376546,750.032931186,nan,750.320142879,nan,nan,nan,nan
1,9,1,1,1.0,1.0,0.256971245457,0,nan,nan,nan,nan,nan,nan,nan,nan,nan,283,0.19826868328,0.351050922538,0.605825948857,nan,nan,nan,nan,nan,nan,nan,nan,742.336376546,750.991284037,nan,751.248255282,nan,nan,nan,nan
1,10,1,1,1.0,1.0,0.258851455408,0,nan,nan,nan,nan,nan,nan,nan,nan,nan,47,1.0,-0.0170755915744,-1.0,nan,nan,nan,nan,nan,nan,nan,nan,742.336376546,751.941386486,nan,752.200237941,nan,nan,nan,nan
1,11,1,1,1.0,1.0,0.284569990705,1,nan,nan,nan,nan,nan,nan,nan,nan,nan,371,-0.14179360683,0.478331938097,-0.0779732583494,-146.987511943,236.987511943,-23.8718630565,337.0,-0.160643365934,0.457858386897,0.259303564052,0.833703055687,742.336376546,752.891512883,753.699962111,753.176082874,755.575193716,756.577728222,754.725034618,755.566773112
1,12,1,1,1.0,1.0,0.690838174545,0,nan,nan,nan,nan,nan,nan,nan,nan,nan,282,0.208142307666,0.34807905204,0.609295500931,nan,nan,nan,nan,nan,nan,nan,nan,742.336376546,756.725290919,nan,757.416129094,nan,nan,nan,nan
1,13,1,1,1.0,1.0,0.40421492036,0,nan,nan,nan,nan,nan,nan,nan,nan,nan,157,1.0,-0.240048375319,0.130425901556,nan,nan,nan,nan,nan,nan,nan,nan,742.336376546,757.683825946,nan,758.088040867,nan,nan,nan,nan
1,14,1,1,1.0,1.0,0.229804136034,0,nan,nan,nan,nan,nan,nan,nan,nan,nan,202,1.0,-0.00802826454356,0.487596984314,nan,nan,nan,nan,nan,nan,nan,nan,742.336376546,758.642206451,nan,758.872010587,nan,nan,nan,nan
1,15,1,1,1.0,1.0,0.239405038243,0,nan,nan,nan,nan,nan,nan,nan,nan,nan,450,0.335949728395,0.405598329481,-1.0,nan,nan,nan,nan,nan,nan,nan,nan,742.336376546,759.600652243,nan,759.840057282,nan,nan,nan,nan
1,16,1,1,1.0,1.0,0.208891753806,1,nan,nan,nan,nan,nan,nan,nan,nan,nan,282,0.208142307666,0.34807905204,0.609295500931,-122.836128627,212.836128627,14.5548786266,303.0,0.0191349273956,0.402522842081,0.512018356663,0.833816809114,742.336376546,760.559142225,761.367515617,760.768033979,763.23436254,764.237082929,762.384284695,763.22602604
1,17,0,0,0.0,1.0,0.367382476863,0,nan,nan,nan,nan,nan,nan,nan,nan,nan,379,-0.113535935895,0.478614986251,-0.165970515924,nan,nan,nan,nan,nan,nan,nan,nan,742.336376546,764.384561808,nan,764.751944285,nan,nan,nan,nan
1,18,1,1,1.0,1.0,0.272772706696,0,nan,nan,nan,nan,nan,nan,nan,nan,nan,37,1.0,0.0358565504353,-1.0,nan,nan,nan,nan,nan,nan,nan,nan,742.336376546,765.343010451,nan,765.615783158,nan,nan,nan,nan
1,19,1,1,1.0,1.0,0.250359007507,0,nan,nan,nan,nan,nan,nan,nan,nan,nan,287,0.159501648714,0.36255249221,0.590751920292,nan,nan,nan,nan,nan,nan,nan,nan,742.336376546,766.301531794,nan,766.551890801,nan,nan,nan,nan
1,20,1,1,1.0,1.0,0.243807495048,0,nan,nan,nan,nan,nan,nan,nan,nan,nan,98,1.0,-0.263822910468,-0.480217789416,nan,nan,nan,nan,nan,nan,nan,nan,742.336376546,767.260030614,nan,767.503838109,nan,nan,nan,nan
1,21,1,1,1.0,1.0,0.261401071504,0,nan,nan,nan,nan,nan,nan,nan,nan,nan,377,-0.121259861678,0.478700828387,-0.143695900877,nan,nan,nan,nan,nan,nan,nan,nan,742.336376546,768.218409123,nan,768.479810194,nan,nan,nan,nan
1,22,1,1,1.0,1.0,0.247228365275,0,nan,nan,nan,nan,nan,nan,nan,nan,nan,50,1.0,-0.033148730948,-1.0,nan,nan,nan,nan,nan,nan,nan,nan,742.336376546,769.168485343,nan,769.415713709,nan,nan,nan,nan
1,23,1,1,1.0,1.0,0.0807002079091,0,nan,nan,nan,nan,nan,nan,nan,nan,nan,267,0.362924526182,0.298807232282,0.646622522267,nan,nan,nan,nan,nan,nan,nan,nan,742.336376546,770.127042323,nan,770.207742531,nan,nan,nan,nan
1,24,1,1,1.0,1.0,0.0184423080646,0,nan,nan,nan,nan,nan,nan,nan,nan,nan,75,1.0,-0.164714458691,-0.791355921409,nan,nan,nan,nan,nan,nan,nan,nan,742.336376546,771.085391182,nan,771.10383349,nan,nan,nan,nan
1,25,1,1,1.0,1.0,0.0519109005691,0,nan,nan,nan,nan,nan,nan,nan,nan,nan,323,-0.11001989341,0.43965344528,0.375855360355,nan,nan,nan,nan,nan,nan,nan,nan,742.336376546,772.04388316,nan,772.09579406,nan,nan,nan,nan
1,26,1,1,nan,nan,nan,0,nan,nan,nan,nan,nan,nan,nan,nan,nan,479,0.572572153349,0.331768222426,-1.0,nan,nan,nan,nan,nan,nan,nan,nan,742.336376546,773.002289893,nan,nan,nan,nan,nan,nan
1,27,1,1,nan,nan,nan,0,nan,nan,nan,nan,nan,nan,nan,nan,nan,58,1.0,-0.0760896648475,-1.0,nan,nan,nan,nan,nan,nan,nan,nan,742.336376546,773.960757638,nan,nan,nan,nan,nan,nan
1,28,1,1,1.0,1.0,0.288861544977,0,nan,nan,nan,nan,nan,nan,nan,nan,nan,369,-0.147694689129,0.477999187239,-0.0564338676883,nan,nan,nan,nan,nan,nan,nan,nan,742.336376546,774.910859517,nan,775.199721062,nan,nan,nan,nan
1,29,1,1,1.0,1.0,0.0507340231561,0,nan,nan,nan,nan,nan,nan,nan,nan,nan,213,0.929785093221,0.0521668813814,0.548906519778,nan,nan,nan,nan,nan,nan,nan,nan,742.336376546,775.860968808,nan,775.911702832,nan,nan,nan,nan
1,30,1,1,1.0,1.0,0.0202067689388,0,nan,nan,nan,nan,nan,nan,nan,nan,nan,62,1.0,-0.0974372467467,-1.0,nan,nan,nan,nan,nan,nan,nan,nan,742.336376546,776.819437978,nan,776.839644747,nan,nan,nan,nan
1,31,1,1,1.0,1.0,0.197716834955,0,nan,nan,nan,nan,nan,nan,nan,nan,nan,445,0.296953900578,0.415520102116,-1.0,nan,nan,nan,nan,nan,nan,nan,nan,742.336376546,777.77791342,nan,777.975630255,nan,nan,nan,nan
1,32,1,1,1.0,1.0,0.223246066307,0,nan,nan,nan,nan,nan,nan,nan,nan,nan,135,1.0,-0.303502321856,-0.0849788702499,nan,nan,nan,nan,nan,nan,nan,nan,742.336376546,778.736363489,nan,778.959609555,nan,nan,nan,nan
1,33,1,1,1.0,1.0,0.224637621257,0,nan,nan,nan,nan,nan,nan,nan,nan,nan,401,-0.00506340639596,0.470796889516,-0.425203102762,nan,nan,nan,nan,nan,nan,nan,nan,742.336376546,779.694827812,nan,779.919465433,nan,nan,nan,nan
1,34,1,1,1.0,1.0,0.226346203242,0,nan,nan,nan,nan,nan,nan,nan,nan,nan,12,0.942476689623,0.159273951266,-1.0,nan,nan,nan,nan,nan,nan,nan,nan,742.336376546,780.653224282,nan,780.879570485,nan,nan,nan,nan
1,35,1,1,1.0,1.0,0.203852391976,0,nan,nan,nan,nan,nan,nan,nan,nan,nan,245,0.600577697281,0.210610106048,0.650172825369,nan,nan,nan,nan,nan,nan,nan,nan,742.336376546,781.611683759,nan,781.815536151,nan,nan,nan,nan
1,36,0,0,1.0,0.0,0.0932720984565,0,0.0,0.0,0.0,nan,nan,nan,nan,nan,nan,300,0.0433537089178,0.395748422077,0.528951029102,nan,nan,nan,nan,nan,nan,nan,nan,742.336376546,782.570132687,nan,782.663404785,nan,nan,nan,nan
1,37,1,1,1.0,1.0,0.230810525827,0,nan,nan,nan,nan,nan,nan,nan,nan,nan,204,1.0,0.00303256528985,0.499654420455,nan,nan,nan,nan,nan,nan,nan,nan,742.336376546,783.528679118,nan,783.759489643,nan,nan,nan,nan
1,38,1,1,1.0,1.0,0.224449457717,0,nan,nan,nan,nan,nan,nan,nan,nan,nan,370,-0.144805996584,0.478178727438,-0.0671803333712,nan,nan,nan,nan,nan,nan,nan,nan,742.336376546,784.487033394,nan,784.711482851,nan,nan,nan,nan
1,39,1,1,1.0,1.0,0.225968450657,0,nan,nan,nan,nan,nan,nan,nan,nan,nan,158,1.0,-0.235949227405,0.139764106,nan,nan,nan,nan,nan,nan,nan,nan,742.336376546,785.445490589,nan,785.67145904,nan,nan,nan,nan
1,40,1,1,1.0,1.0,0.259522857203,0,nan,nan,nan,nan,nan,nan,nan,nan,nan,113,1.0,-0.302191989669,-0.314576349441,nan,nan,nan,nan,nan,nan,nan,nan,742.336376546,786.403936952,nan,786.663459809,nan,nan,nan,nan
1,41,1,1,1.0,1.0,0.293057306902,1,nan,nan,nan,nan,nan,nan,nan,nan,nan,336,-0.158211608236,0.456758111158,0.268135266647,-146.151875552,236.151875552,-0.0981244478382,336.0,-0.158211608236,0.456758111158,0.268135266647,0.917070909461,742.336376546,787.362382458,788.170808308,787.655439765,790.12932908,791.130915641,789.195898206,790.120989444
1,42,1,1,1.0,1.0,0.263592036325,0,nan,nan,nan,nan,nan,nan,nan,nan,nan,199,1.0,-0.0246761787097,0.468786302982,nan,nan,nan,nan,nan,nan,nan,nan,742.336376546,791.279615873,nan,791.543207909,nan,nan,nan,nan
1,43,1,1,1.0,1.0,0.161590860051,0,nan,nan,nan,nan,nan,nan,nan,nan,nan,154,1.0,-0.251813147593,0.102138173725,nan,nan,nan,nan,nan,nan,nan,nan,742.336376546,792.229656171,nan,792.391247031,nan,nan,nan,nan
1,44,1,1,1.0,1.0,0.131427388696,0,nan,nan,nan,nan,nan,nan,nan,nan,nan,454,0.367627362238,0.397084843583,-1.0,nan,nan,nan,nan,nan,nan,nan,nan,742.336376546,793.179805661,nan,793.31123305,nan,nan,nan,nan
1,45,0,0,1.0,0.0,0.197024336085,0,0.0,0.0,0.0,nan,nan,nan,nan,nan,nan,139,1.0,-0.296335611021,-0.0445992895203,nan,nan,nan,nan,nan,nan,nan,nan,742.336376546,794.13824176,nan,794.335266096,nan,nan,nan,nan
1,46,1,1,1.0,1.0,0.222607450618,0,nan,nan,nan,nan,nan,nan,nan,nan,nan,223,0.83172397378,0.104890589731,0.593432239612,nan,nan,nan,nan,nan,nan,nan,nan,742.336376546,795.096658187,nan,795.319265638,nan,nan,nan,nan
1,47,1,1,1.0,1.0,0.216461630131,0,nan,nan,nan,nan,nan,nan,nan,nan,nan,480,0.580928072941,0.32870764083,-1.0,nan,nan,nan,nan,nan,nan,nan,nan,742.336376546,796.046771755,nan,796.263233385,nan,nan,nan,nan
1,48,1,1,1.0,1.0,0.266263388447,1,nan,nan,nan,nan,nan,nan,nan,nan,nan,239,0.665069831863,0.183388857662,0.640549267122,-79.670317911,169.670317911,1.62344291098,241.0,0.64365311028,0.192605941253,0.644254782112,0.775371216703,742.336376546,796.996902429,797.805322006,797.263165817,799.613885842,800.615438477,798.822075689,799.605479779
1,49,1,1,1.0,1.0,0.30672738835,0,nan,nan,nan,nan,nan,nan,nan,nan,nan,134,1.0,-0.304950998219,-0.095144111098,nan,nan,nan,nan,nan,nan,nan,nan,742.336376546,800.772358034,nan,801.079085423,nan,nan,nan,nan
1,50,1,1,1.0,1.0,0.220214067376,0,nan,nan,nan,nan,nan,nan,nan,nan,nan,51,1.0,-0.0385160204876,-1.0,nan,nan,nan,nan,nan,nan,nan,nan,742.336376546,801.730807247,nan,801.951021315,nan,nan,nan,nan
1,51,1,1,1.0,1.0,0.213762908825,0,nan,nan,nan,nan,nan,nan,nan,nan,nan,159,1.0,-0.231765974528,0.149055008463,nan,nan,nan,nan,nan,nan,nan,nan,742.336376546,802.689298084,nan,802.903060993,nan,nan,nan,nan
1,52,0,0,1.0,0.0,0.199279162567,0,0.0,0.0,0.0,nan,nan,nan,nan,nan,nan,28,1.0,0.082066132397,-1.0,nan,nan,nan,nan,nan,nan,nan,nan,742.336376546,803.647757276,nan,803.847036438,nan,nan,nan,nan
1,53,1,1,1.0,1.0,0.22496320121,0,nan,nan,nan,nan,nan,nan,nan,nan,nan,428,0.170378320166,0.443486568519,-0.86866140055,nan,nan,nan,nan,nan,nan,nan,nan,742.336376546,804.597945539,nan,804.82290874,nan,nan,nan,nan
1,54,1,1,1.0,1.0,0.234753977566,0,nan,nan,nan,nan,nan,nan,nan,nan,nan,8,0.91102658764,0.177400941622,-1.0,nan,nan,nan,nan,nan,nan,nan,nan,742.336376546,805.556259902,nan,805.791013879,nan,nan,nan,nan
1,55,1,1,1.0,1.0,0.22810467711,0,nan,nan,nan,nan,nan,nan,nan,nan,nan,482,0.597655625539,0.322480811492,-1.0,nan,nan,nan,nan,nan,nan,nan,nan,742.336376546,806.51474019,nan,806.742844867,nan,nan,nan,nan
1,56,1,1,0.0,0.0,0.349695388926,0,0.0,0.0,0.0,nan,nan,nan,nan,nan,nan,85,1.0,-0.212156452387,-0.638781227021,nan,nan,nan,nan,nan,nan,nan,nan,742.336376546,807.473244427,nan,807.822939816,nan,nan,nan,nan
1,57,1,1,1.0,1.0,0.215321530122,0,nan,nan,nan,nan,nan,nan,nan,nan,nan,417,0.0945046041228,0.457053563907,-0.645720198395,nan,nan,nan,nan,nan,nan,nan,nan,742.336376546,808.431632915,nan,808.646954445,nan,nan,nan,nan
1,58,1,1,1.0,1.0,0.272811479808,0,nan,nan,nan,nan,nan,nan,nan,nan,nan,101,1.0,-0.273572672894,-0.446152610616,nan,nan,nan,nan,nan,nan,nan,nan,742.336376546,809.390085549,nan,809.662897029,nan,nan,nan,nan
1,59,1,1,1.0,1.0,0.258352822042,0,nan,nan,nan,nan,nan,nan,nan,nan,nan,162,1.0,-0.218739557155,0.176632971453,nan,nan,nan,nan,nan,nan,nan,nan,742.336376546,810.34852849,nan,810.606881312,nan,nan,nan,nan
1,60,1,1,1.0,1.0,0.251819840865,0,nan,nan,nan,nan,nan,nan,nan,nan,nan,425,0.149162615564,0.447529597292,-0.791715667876,nan,nan,nan,nan,nan,nan,nan,nan,742.336376546,811.306978558,nan,811.558798399,nan,nan,nan,nan
1,61,1,1,1.0,1.0,0.333347398089,0,nan,nan,nan,nan,nan,nan,nan,nan,nan,126,1.0,-0.311411754845,-0.177408431044,nan,nan,nan,nan,nan,nan,nan,nan,742.336376546,812.265525559,nan,812.598872957,nan,nan,nan,nan
1,62,1,1,1.0,1.0,0.254777999828,0,nan,nan,nan,nan,nan,nan,nan,nan,nan,245,0.600577697281,0.210610106048,0.650172825369,nan,nan,nan,nan,nan,nan,nan,nan,742.336376546,813.22389466,nan,813.47867266,nan,nan,nan,nan
1,63,1,1,1.0,1.0,0.216326779628,0,nan,nan,nan,nan,nan,nan,nan,nan,nan,383,-0.0968787136249,0.478131214543,-0.211081409456,nan,nan,nan,nan,nan,nan,nan,nan,742.336376546,814.182325627,nan,814.398652407,nan,nan,nan,nan
1,64,1,1,1.0,1.0,0.233933755604,0,nan,nan,nan,nan,nan,nan,nan,nan,nan,1,0.854939129564,0.207877072944,-1.0,nan,nan,nan,nan,nan,nan,nan,nan,742.336376546,815.140821026,nan,815.374754782,nan,nan,nan,nan
1,65,1,1,1.0,1.0,0.259392283042,0,nan,nan,nan,nan,nan,nan,nan,nan,nan,192,1.0,-0.0635997558896,0.421658406928,nan,nan,nan,nan,nan,nan,nan,nan,742.336376546,816.099352917,nan,816.3587452,nan,nan,nan,nan
1,66,1,1,1.0,1.0,0.229248198273,0,nan,nan,nan,nan,nan,nan,nan,nan,nan,470,0.497741612616,0.357740777197,-1.0,nan,nan,nan,nan,nan,nan,nan,nan,742.336376546,817.049375824,nan,817.278624023,nan,nan,nan,nan
1,67,1,1,1.0,1.0,0.286877274862,0,nan,nan,nan,nan,nan,nan,nan,nan,nan,108,1.0,-0.292426609412,-0.368663285579,nan,nan,nan,nan,nan,nan,nan,nan,742.336376546,818.00784585,nan,818.294723124,nan,nan,nan,nan
1,68,1,1,1.0,1.0,0.216295704187,0,nan,nan,nan,nan,nan,nan,nan,nan,nan,310,-0.032854544558,0.417080732083,0.468828018046,nan,nan,nan,nan,nan,nan,nan,nan,742.336376546,818.966246311,nan,819.182542015,nan,nan,nan,nan
1,69,1,1,1.0,1.0,0.193754851993,0,nan,nan,nan,nan,nan,nan,nan,nan,nan,445,0.296953900578,0.415520102116,-1.0,nan,nan,nan,nan,nan,nan,nan,nan,742.336376546,819.924780483,nan,820.118535335,nan,nan,nan,nan
1,70,1,1,1.0,1.0,0.123508554476,0,nan,nan,nan,nan,nan,nan,nan,nan,nan,229,0.770397026975,0.135265939772,0.614681466938,nan,nan,nan,nan,nan,nan,nan,nan,742.336376546,820.883145878,nan,821.006654432,nan,nan,nan,nan
1,71,1,1,1.0,1.0,0.221293156792,0,nan,nan,nan,nan,nan,nan,nan,nan,nan,356,-0.17284377641,0.473239407326,0.0788368070227,nan,nan,nan,nan,nan,nan,nan,nan,742.336376546,821.833253459,nan,822.054546616,nan,nan,nan,nan
1,72,1,1,1.0,1.0,0.31918609573,0,nan,nan,nan,nan,nan,nan,nan,nan,nan,321,-0.0999433513493,0.43654647086,0.391174984052,nan,nan,nan,nan,nan,nan,nan,nan,742.336376546,822.783408081,nan,823.102594177,nan,nan,nan,nan
1,73,1,1,1.0,1.0,0.248669812048,0,nan,nan,nan,nan,nan,nan,nan,nan,nan,426,0.156193047225,0.446210853967,-0.81485970128,nan,nan,nan,nan,nan,nan,nan,nan,742.336376546,823.741887514,nan,823.990557326,nan,nan,nan,nan
1,74,1,1,1.0,1.0,0.250190800696,0,nan,nan,nan,nan,nan,nan,nan,nan,nan,272,0.310166696092,0.316214117232,0.637281430288,nan,nan,nan,nan,nan,nan,nan,nan,742.336376546,824.700358109,nan,824.95054891,nan,nan,nan,nan
1,75,0,0,1.0,0.0,0.251750562398,0,0.0,0.0,0.0,nan,nan,nan,nan,nan,nan,352,-0.17544712699,0.470851603012,0.118673592819,nan,nan,nan,nan,nan,nan,nan,nan,742.336376546,825.658779953,nan,825.910530516,nan,nan,nan,nan
1,76,1,1,1.0,1.0,0.269310497504,0,nan,nan,nan,nan,nan,nan,nan,nan,nan,139,1.0,-0.296335611021,-0.0445992895203,nan,nan,nan,nan,nan,nan,nan,nan,742.336376546,826.617181555,nan,826.886492053,nan,nan,nan,nan
1,77,0,0,1.0,0.0,0.230830197514,0,0.0,0.0,0.0,nan,nan,nan,nan,nan,nan,239,0.665069831863,0.183388857662,0.640549267122,nan,nan,nan,nan,nan,nan,nan,nan,742.336376546,827.575635615,nan,827.806465813,nan,nan,nan,nan
1,78,1,1,1.0,1.0,0.216299410444,0,nan,nan,nan,nan,nan,nan,nan,nan,nan,356,-0.17284377641,0.473239407326,0.0788368070227,nan,nan,nan,nan,nan,nan,nan,nan,742.336376546,828.534091956,nan,828.750391366,nan,nan,nan,nan
1,79,1,1,1.0,1.0,0.185776147584,0,nan,nan,nan,nan,nan,nan,nan,nan,nan,82,1.0,-0.198479155091,-0.679872484948,nan,nan,nan,nan,nan,nan,nan,nan,742.336376546,829.492532046,nan,829.678308193,nan,nan,nan,nan
1,80,0,0,1.0,0.0,0.233983362326,0,0.0,0.0,0.0,nan,nan,nan,nan,nan,nan,186,1.0,-0.0967386681424,0.377881386018,nan,nan,nan,nan,nan,nan,nan,nan,742.336376546,830.484427329,nan,830.718410691,nan,nan,nan,nan
1,81,1,1,1.0,1.0,0.267620731902,0,0.0,0.0,0.0,0.235896204868,0.0853162160901,0.150579988778,0.321212420958,0.0853162160901,0.229126747271,12,0.942476689623,0.159273951266,-1.0,nan,nan,nan,nan,nan,nan,nan,nan,742.336376546,831.442782745,nan,831.710403477,nan,nan,nan,nan
1,82,0,0,0.0,1.0,0.341160746699,0,0.0,0.0,0.0,0.23629778116,0.0848486762148,0.151449104945,0.321146457375,0.0848486762148,0.280921613642,338,-0.162891363375,0.458928707883,0.250399161362,nan,nan,nan,nan,nan,nan,nan,nan,742.336376546,832.401222835,nan,832.742383582,nan,nan,nan,nan
1,83,1,1,1.0,1.0,0.230585869984,0,0.0,0.0,0.0,0.237608568229,0.0851178094686,0.152490758761,0.322726377698,0.0851178094686,0.279789116195,428,0.170378320166,0.443486568519,-0.86866140055,nan,nan,nan,nan,nan,nan,nan,nan,742.336376546,833.35969229,nan,833.59027816,nan,nan,nan,nan
1,84,1,1,1.0,1.0,0.0880742231384,0,0.0,0.0,0.0,0.237521868251,0.0845943135381,0.152927554713,0.322116181789,0.0845943135381,0.21994027994,225,0.81146624694,0.115131125244,0.600981946568,nan,nan,nan,nan,nan,nan,nan,nan,742.336376546,834.318135801,nan,834.406210024,nan,nan,nan,nan
1,85,1,1,1.0,1.0,0.257598742377,0,0.0,0.0,0.0,0.235699335993,0.0856620027041,0.150037333289,0.321361338698,0.0856620027041,0.1920862785,447,0.312467642152,0.411646472288,-1.0,nan,nan,nan,nan,nan,nan,nan,nan,742.336376546,835.2765719,nan,835.534170642,nan,nan,nan,nan
1,86,1,1,1.0,1.0,0.243201380363,0,0.0,0.0,0.0,0.235963184263,0.0851779186752,0.150785265588,0.321141102938,0.0851779186752,0.196291448626,86,1.0,-0.21659106269,-0.625617802914,nan,nan,nan,nan,nan,nan,nan,nan,742.336376546,836.235076992,nan,836.478278372,nan,nan,nan,nan
1,87,1,1,1.0,1.0,0.164793346543,0,0.0,0.0,0.0,0.236049353264,0.0846730285141,0.15137632475,0.320722381778,0.0846730285141,0.221864489761,211,0.948675772315,0.0413606888024,0.538689155053,nan,nan,nan,nan,nan,nan,nan,nan,742.336376546,837.193500831,nan,837.358294178,nan,nan,nan,nan
1,88,0,0,1.0,0.0,0.214300885506,0,0.0,0.0,0.0,0.235211047303,0.0845234051686,0.150687642134,0.319734452471,0.0845234051686,0.207431870804,453,0.359670421306,0.39926174925,-1.0,nan,nan,nan,nan,nan,nan,nan,nan,742.336376546,838.151926951,nan,838.366227837,nan,nan,nan,nan
1,89,1,1,1.0,1.0,0.223709062673,0,0.0,0.0,0.0,0.234967905887,0.0840604476961,0.150907458191,0.319028353583,0.0840604476961,0.200934431574,35,1.0,0.0462653595507,-1.0,nan,nan,nan,nan,nan,nan,nan,nan,742.336376546,839.110471957,nan,839.33418102,nan,nan,nan,nan
1,90,1,1,1.0,1.0,0.32931613666,0,0.0,0.0,0.0,0.234838493896,0.083584561564,0.151253932332,0.31842305546,0.083584561564,0.255775361613,454,0.367627362238,0.397084843583,-1.0,nan,nan,nan,nan,nan,nan,nan,nan,742.336376546,840.068868712,nan,840.398184849,nan,nan,nan,nan
1,91,1,1,1.0,1.0,0.442850312742,0,0.0,1.0,0.0,0.235912103472,0.0837094243602,0.152202679112,0.319621527833,0.0837094243602,0.331958504025,77,1.0,-0.174593022316,-0.756267193339,nan,nan,nan,nan,nan,nan,nan,nan,742.336376546,841.027304241,nan,841.470154554,nan,nan,nan,nan
1,92,1,1,1.0,1.0,0.324685602915,1,0.0,0.0,1.0,0.238237251891,0.0860481848523,0.152189067039,0.324285436744,0.0860481848523,0.365617350772,286,0.169078956243,0.359734776014,0.594698705761,-126.478996833,216.478996833,15.3852468332,308.0,-0.0186828559465,0.413097475488,0.481682330771,0.867218403961,742.336376546,841.977432064,842.785799183,842.302117667,844.694355122,845.698436561,843.810909323,844.686030881
1,93,1,1,1.0,1.0,0.225114872388,0,0.0,0.0,0.0,0.239197789125,0.0860472803426,0.153150508782,0.325245069467,0.0860472803426,0.330883596015,506,0.797774742377,0.236703125255,-1.0,nan,nan,nan,nan,nan,nan,nan,nan,742.336376546,845.852859815,nan,846.077974687,nan,nan,nan,nan
1,94,1,1,1.0,1.0,0.258725442865,0,0.0,0.0,0.0,0.239043031798,0.0855857805023,0.153457251296,0.3246288123,0.0855857805023,0.269508639389,142,1.0,-0.289568116499,-0.0146273521697,nan,nan,nan,nan,nan,nan,nan,nan,742.336376546,846.811317581,nan,847.070043024,nan,nan,nan,nan
1,95,1,1,1.0,1.0,0.18807630433,0,0.0,0.0,0.0,0.239256971049,0.0851438320461,0.154113139003,0.324400803095,0.0851438320461,0.223972206528,323,-0.11001989341,0.43965344528,0.375855360355,nan,nan,nan,nan,nan,nan,nan,nan,742.336376546,847.769906776,nan,847.957983081,nan,nan,nan,nan
1,96,1,1,1.0,1.0,0.253697199863,0,0.0,0.0,0.0,0.238706641299,0.0848491850455,0.153857456254,0.323555826345,0.0848491850455,0.23349964902,172,1.0,-0.170984061773,0.265024678188,nan,nan,nan,nan,nan,nan,nan,nan,742.336376546,848.728287851,nan,848.981985051,nan,nan,nan,nan
1,97,1,1,1.0,1.0,0.311303753813,0,0.0,0.0,0.0,0.238866115326,0.0844106639117,0.154455451415,0.323276779238,0.0844106639117,0.251025752669,30,1.0,0.071945658744,-1.0,nan,nan,nan,nan,nan,nan,nan,nan,742.336376546,849.686662369,nan,849.997966123,nan,nan,nan,nan
1,98,1,1,1.0,1.0,0.240778917272,0,0.0,0.0,0.0,0.239628616784,0.0842900402916,0.155338576493,0.323918657076,0.0842900402916,0.268593290316,181,1.0,-0.123914391386,0.3392011262,nan,nan,nan,nan,nan,nan,nan,nan,742.336376546,850.645115289,nan,850.885894206,nan,nan,nan,nan
1,99,1,1,1.0,1.0,0.258204857062,0,0.0,0.0,0.0,0.239640599081,0.0838499617485,0.155790637332,0.323490560829,0.0838499617485,0.270095842716,346,-0.174317561957,0.466431294057,0.176670174816,nan,nan,nan,nan,nan,nan,nan,nan,742.336376546,851.603584744,nan,851.861789601,nan,nan,nan,nan
1,100,1,1,1.0,1.0,0.219794975885,0,0.0,0.0,0.0,0.239831983184,0.0834376996397,0.156394283544,0.323269682824,0.0834376996397,0.23959291674,201,1.0,-0.0135712615467,0.48142235136,nan,nan,nan,nan,nan,nan,nan,nan,742.336376546,852.562044505,nan,852.781839481,nan,nan,nan,nan
1,101,1,1,1.0,1.0,0.25371402048,0,0.0,0.0,0.0,0.239627523926,0.0830353261351,0.156592197791,0.322662850061,0.0830353261351,0.243904617809,392,-0.0541067903503,0.475522277549,-0.315549842675,nan,nan,nan,nan,nan,nan,nan,nan,742.336376546,853.512153512,nan,853.765867532,nan,nan,nan,nan
1,102,0,0,0.0,1.0,0.383278305002,0,0.0,0.0,0.0,0.23976981177,0.0826268986035,0.157142913166,0.322396710373,0.0826268986035,0.285595767122,480,0.580928072941,0.32870764083,-1.0,nan,nan,nan,nan,nan,nan,nan,nan,742.336376546,854.470574785,nan,854.85385309,nan,nan,nan,nan
1,103,1,1,1.0,1.0,0.256793345383,0,0.0,0.0,0.0,0.241204896702,0.0834435122502,0.157761384452,0.324648408952,0.0834435122502,0.297928556955,48,1.0,-0.0224273256894,-1.0,nan,nan,nan,nan,nan,nan,nan,nan,742.336376546,855.42907332,nan,855.685866666,nan,nan,nan,nan
1,104,1,1,1.0,1.0,0.274567672925,0,0.0,0.0,0.0,0.241359237778,0.0830437417518,0.158315496026,0.32440297953,0.0830437417518,0.304879774437,504,0.78128615449,0.244628286196,-1.0,nan,nan,nan,nan,nan,nan,nan,nan,742.336376546,856.379146975,nan,856.653714648,nan,nan,nan,nan
1,105,1,1,1.0,1.0,0.268409023061,0,0.0,0.0,0.0,0.241684810672,0.082700413486,0.158984397186,0.324385224158,0.082700413486,0.26659001379,373,-0.135407706169,0.478559568072,-0.0996974893599,nan,nan,nan,nan,nan,nan,nan,nan,742.336376546,857.329275653,nan,857.597684676,nan,nan,nan,nan
1,106,1,1,1.0,1.0,0.294392983022,0,0.0,0.0,0.0,0.241944269044,0.0823396827477,0.159604586297,0.324283951792,0.0823396827477,0.279123226336,214,0.920243657418,0.0575410437433,0.553854850604,nan,nan,nan,nan,nan,nan,nan,nan,742.336376546,858.279377247,nan,858.57377023,nan,nan,nan,nan
1,107,0,0,1.0,0.0,0.271923119784,0,0.0,0.0,0.0,0.242448583602,0.0821025521078,0.160346031494,0.32455113571,0.0821025521078,0.278241708622,67,1.0,-0.12380466598,-1.0,nan,nan,nan,nan,nan,nan,nan,nan,742.336376546,859.237860672,nan,859.509783792,nan,nan,nan,nan
1,108,1,1,1.0,1.0,0.169792794914,0,0.0,0.0,0.0,0.24272929347,0.0817607832994,0.160968510171,0.32449007677,0.0817607832994,0.245369632573,439,0.251144291643,0.426392204401,-1.0,nan,nan,nan,nan,nan,nan,nan,nan,742.336376546,860.187934611,nan,860.357727406,nan,nan,nan,nan
1,109,1,1,0.0,0.0,0.331183517352,0,0.0,0.0,0.0,0.242041213295,0.0816790915525,0.160362121743,0.323720304848,0.0816790915525,0.257633144017,216,0.900975005756,0.0682271079607,0.563426584804,nan,nan,nan,nan,nan,nan,nan,nan,742.336376546,861.146512688,nan,861.477696205,nan,nan,nan,nan
1,110,0,0,0.0,1.0,0.66902517312,0,0.0,0.0,0.0,0.242874318941,0.0817477502095,0.161126568731,0.32462206915,0.0817477502095,0.390000495128,461,0.423959648591,0.380927367285,-1.0,nan,nan,nan,nan,nan,nan,nan,nan,742.336376546,862.096523907,nan,862.76554908,nan,nan,nan,nan
1,111,1,1,1.0,1.0,0.487002888345,0,0.0,0.0,0.0,0.246820160183,0.0910317077433,0.15578845244,0.337851867926,0.0910317077433,0.495737192939,3,0.871087178923,0.199335109687,-1.0,nan,nan,nan,nan,nan,nan,nan,nan,742.336376546,863.046642606,nan,863.533645495,nan,nan,nan,nan
1,112,1,1,1.0,1.0,0.432339098072,0,0.0,0.0,0.0,0.24902367145,0.0934619509267,0.155561720524,0.342485622377,0.0934619509267,0.529455719846,286,0.169078956243,0.359734776014,0.594698705761,nan,nan,nan,nan,nan,nan,nan,nan,742.336376546,864.005295093,nan,864.437634191,nan,nan,nan,nan
1,113,1,1,1.0,1.0,0.409972154652,0,0.0,1.0,0.0,0.250690175329,0.094649060088,0.156041115241,0.345339235417,0.094649060088,0.44310471369,107,1.0,-0.290089771429,-0.379592780214,nan,nan,nan,nan,nan,nan,nan,nan,742.336376546,864.963531054,nan,865.373503209,nan,nan,nan,nan
1,114,1,1,1.0,1.0,0.323626185185,1,0.0,0.0,1.0,0.252125148116,0.0954161622918,0.156708985824,0.347541310407,0.0954161622918,0.388645812636,468,0.481236483515,0.363131620867,-1.0,127.802792451,322.197207549,-6.86529245094,458.0,0.399688045963,0.388050214986,-1.0,0.958815276681,742.336376546,865.921983118,866.730388156,866.245609304,868.730662133,869.73750872,867.755474062,868.722267473
1,115,1,1,1.0,1.0,0.228029696795,0,0.0,0.0,0.0,0.252763550232,0.0952270706761,0.157536479556,0.347990620908,0.0952270706761,0.320542678877,189,1.0,-0.0802194643608,0.400143472992,nan,nan,nan,nan,nan,nan,nan,nan,742.336376546,869.897465409,nan,870.125495105,nan,nan,nan,nan
1,116,1,1,1.0,1.0,0.245558556402,0,0.0,0.0,0.0,0.252544666573,0.0948330712497,0.157711595324,0.347377737823,0.0948330712497,0.265738146127,293,0.103830259013,0.378659598285,0.564617056734,nan,nan,nan,nan,nan,nan,nan,nan,742.336376546,870.855909205,nan,871.101467761,nan,nan,nan,nan
1,117,1,1,1.0,1.0,0.239306394942,0,0.0,0.0,0.0,0.252483384905,0.0944184678502,0.158064917055,0.346901852756,0.0944184678502,0.23763154938,461,0.423959648591,0.380927367285,-1.0,nan,nan,nan,nan,nan,nan,nan,nan,742.336376546,871.806032181,nan,872.045338576,nan,nan,nan,nan
1,118,1,1,1.0,1.0,0.232958441251,0,0.0,0.0,0.0,0.252368802384,0.0940150168082,0.158353785576,0.346383819192,0.0940150168082,0.239274464198,309,-0.0258396312562,0.415106541901,0.475305697888,nan,nan,nan,nan,nan,nan,nan,nan,742.336376546,872.764480824,nan,872.997439265,nan,nan,nan,nan
1,119,1,1,1.0,1.0,0.282356503245,0,0.0,0.0,0.0,0.252201471684,0.0936260998967,0.158575371788,0.345827571581,0.0936260998967,0.251540446479,197,1.0,-0.035797595552,0.455774741445,nan,nan,nan,nan,nan,nan,nan,nan,742.336376546,873.723009864,nan,874.005366367,nan,nan,nan,nan
1,120,1,1,1.0,1.0,0.284218752116,0,0.0,0.0,0.0,0.252459206997,0.0932664484432,0.159192758554,0.34572565544,0.0932664484432,0.266511232204,451,0.343830962376,0.403518361206,-1.0,nan,nan,nan,nan,nan,nan,nan,nan,742.336376546,874.673049307,nan,874.957268059,nan,nan,nan,nan
1,121,1,1,1.0,1.0,0.245821415097,0,0.0,0.0,0.0,0.252728355684,0.0929160308948,0.15981232479,0.345644386579,0.0929160308948,0.270798890153,494,0.698129958021,0.282143999684,-1.0,nan,nan,nan,nan,nan,nan,nan,nan,742.336376546,875.631495954,nan,875.877317369,nan,nan,nan,nan
1,122,1,1,1.0,1.0,0.231317141966,0,0.0,0.0,0.0,0.252670314167,0.0925269519224,0.160143362245,0.345197266089,0.0925269519224,0.253785769727,58,1.0,-0.0760896648475,-1.0,nan,nan,nan,nan,nan,nan,nan,nan,742.336376546,876.590018722,nan,876.821335864,nan,nan,nan,nan
1,123,1,1,1.0,1.0,0.232825016137,0,0.0,0.0,0.0,0.252492371065,0.092161061071,0.160331309994,0.344653432136,0.092161061071,0.2366545244,300,0.0433537089178,0.395748422077,0.528951029102,nan,nan,nan,nan,nan,nan,nan,nan,742.336376546,877.548484471,nan,877.781309487,nan,nan,nan,nan
1,124,1,1,1.0,1.0,0.242375456379,0,0.0,0.0,0.0,0.252329830942,0.0917967098855,0.160533121056,0.344126540827,0.0917967098855,0.235505871494,228,0.780729811514,0.1302769546,0.611433142569,nan,nan,nan,nan,nan,nan,nan,nan,742.336376546,878.506865831,nan,878.749241288,nan,nan,nan,nan
1,125,1,1,1.0,1.0,0.235874120903,0,0.0,0.0,0.0,0.252248237708,0.0914241254348,0.160824112273,0.343672363143,0.0914241254348,0.237024864473,360,-0.167709501072,0.475188317955,0.0381258551808,nan,nan,nan,nan,nan,nan,nan,nan,742.336376546,879.46530193,nan,879.701176051,nan,nan,nan,nan
1,126,1,1,1.0,1.0,0.221488732903,0,0.0,0.0,0.0,0.252115114807,0.0910635960542,0.161051518753,0.343178710861,0.0910635960542,0.233246103395,157,1.0,-0.240048375319,0.130425901556,nan,nan,nan,nan,nan,nan,nan,nan,742.336376546,880.423775376,nan,880.645264109,nan,nan,nan,nan
1,127,1,1,1.0,1.0,0.246992020402,0,0.0,0.0,0.0,0.251868127856,0.0907370167416,0.161131111114,0.342605144598,0.0907370167416,0.234784958069,239,0.665069831863,0.183388857662,0.640549267122,nan,nan,nan,nan,nan,nan,nan,nan,742.336376546,881.382228866,nan,881.629220886,nan,nan,nan,nan
1,128,1,1,1.0,1.0,0.232902277261,0,0.0,0.0,0.0,0.251829118996,0.0903743837999,0.161454735196,0.342203502796,0.0903743837999,0.233794343522,399,-0.0164460389312,0.472031251936,-0.400274523968,nan,nan,nan,nan,nan,nan,nan,nan,742.336376546,882.332314779,nan,882.565217057,nan,nan,nan,nan
1,129,1,1,1.0,1.0,0.306445713271,0,0.0,0.0,0.0,0.251678905967,0.0900307063218,0.161648199645,0.341709612289,0.0900307063218,0.262113336978,188,1.0,-0.0857393506835,0.392804289229,nan,nan,nan,nan,nan,nan,nan,nan,742.336376546,883.290773116,nan,883.597218829,nan,nan,nan,nan
1,130,1,1,1.0,1.0,0.267920082959,0,0.0,0.0,0.0,0.25211014067,0.0898061045229,0.162304036147,0.341916245193,0.0898061045229,0.26908935783,73,1.0,-0.1546788618,-0.830916872461,nan,nan,nan,nan,nan,nan,nan,nan,742.336376546,884.249213776,nan,884.517133859,nan,nan,nan,nan
1,131,1,1,1.0,1.0,0.35749391251,0,0.0,0.0,0.0,0.252233655844,0.089465440496,0.162768215348,0.34169909634,0.089465440496,0.310619902913,305,0.00361192545304,0.406859252708,0.500196907155,nan,nan,nan,nan,nan,nan,nan,nan,742.336376546,885.207668691,nan,885.565162603,nan,nan,nan,nan
1,132,1,1,1.0,1.0,0.351257146278,0,0.0,0.0,0.0,0.253049626826,0.0895948744832,0.163454752343,0.342644501309,0.0895948744832,0.325557047249,59,1.0,-0.0814409933332,-1.0,nan,nan,nan,nan,nan,nan,nan,nan,742.336376546,886.157769144,nan,886.509026291,nan,nan,nan,nan
1,133,1,1,1.0,1.0,0.336718661594,0,0.0,1.0,0.0,0.253805069283,0.0896611005865,0.164143968697,0.34346616987,0.0896611005865,0.348489906794,390,-0.0641960347588,0.476284203309,-0.291947553613,nan,nan,nan,nan,nan,nan,nan,nan,742.336376546,887.116256275,nan,887.452974937,nan,nan,nan,nan
1,134,1,1,1.0,1.0,0.266757745412,1,0.0,0.0,1.0,0.254437997469,0.0896092820825,0.164828715386,0.344047279551,0.0896092820825,0.318244517761,493,0.689769084006,0.285700779988,-1.0,85.1655936937,4.83440630626,18.1937813063,7.0,0.9030914636,0.181853060355,-1.0,0.967063397111,742.336376546,888.066330215,888.874759201,888.33308796,890.875031753,891.873399291,889.891535121,890.866708937
1,135,1,1,1.0,1.0,0.23583278188,0,0.0,0.0,0.0,0.254531328893,0.0892755988413,0.165255730051,0.343806927734,0.0892755988413,0.279769729629,340,-0.166837174664,0.460980112934,0.232376404312,nan,nan,nan,nan,nan,nan,nan,nan,742.336376546,892.025167159,nan,892.260999941,nan,nan,nan,nan
1,136,1,1,1.0,1.0,0.261512829165,0,0.0,0.0,0.0,0.254390738314,0.0889540095425,0.165436728771,0.343344747856,0.0889540095425,0.254701118819,61,1.0,-0.0921163965413,-1.0,nan,nan,nan,nan,nan,nan,nan,nan,742.336376546,892.975322921,nan,893.236835751,nan,nan,nan,nan
1,137,1,1,1.0,1.0,0.247177332989,0,0.0,0.0,0.0,0.254443888245,0.0886235897666,0.165820298479,0.343067478012,0.0886235897666,0.248174314678,232,0.739158239773,0.150046616059,0.623712016981,nan,nan,nan,nan,nan,nan,nan,nan,742.336376546,893.933758735,nan,894.180936068,nan,nan,nan,nan
1,138,1,1,1.0,1.0,0.224680100568,0,0.0,0.0,0.0,0.25439006191,0.088296942632,0.166093119278,0.342687004542,0.088296942632,0.244456754241,454,0.367627362238,0.397084843583,-1.0,nan,nan,nan,nan,nan,nan,nan,nan,742.336376546,894.892162048,nan,895.116842148,nan,nan,nan,nan
1,139,1,1,1.0,1.0,0.114494665409,0,0.0,0.0,0.0,0.254171606312,0.0880083323281,0.166163273984,0.34217993864,0.0880083323281,0.195450699655,183,1.0,-0.113108999915,0.354902835149,nan,nan,nan,nan,nan,nan,nan,nan,742.336376546,895.842312963,nan,895.956807629,nan,nan,nan,nan
1,140,1,1,1.0,1.0,0.219926975435,0,0.0,0.0,0.0,0.253152066597,0.0884889656068,0.164663100991,0.341641032204,0.0884889656068,0.186367247137,4,0.879126049628,0.195014037372,-1.0,nan,nan,nan,nan,nan,nan,nan,nan,742.336376546,896.800885338,nan,897.020812313,nan,nan,nan,nan
1,141,1,1,1.0,1.0,0.0936695226119,0,1.0,0.0,0.0,0.252911305067,0.0882127944743,0.164698510593,0.341124099542,0.0882127944743,0.142697054485,257,0.470472903111,0.261039853404,0.655841377839,nan,nan,nan,nan,nan,nan,nan,nan,742.336376546,897.75919799,nan,897.852867513,nan,nan,nan,nan
1,142,1,1,1.0,1.0,0.239154438605,1,0.0,0.0,1.0,0.251765680733,0.0889192550648,0.162846425668,0.340684935798,0.0889192550648,0.184250312217,507,0.805995650865,0.232688349973,-1.0,71.8340434708,18.1659565292,21.6815815292,26.0,1.0,0.0920921692153,-1.0,1.22539854323,742.336376546,898.717648629,899.52606507,898.956803067,901.793032076,902.793220239,900.551182052,901.784663645
1,143,0,0,1.0,0.0,0.229475990171,0,0.0,0.0,0.0,0.251675600432,0.088607482047,0.163068118385,0.340283082479,0.088607482047,0.187433317129,425,0.149162615564,0.447529597292,-0.791715667876,nan,nan,nan,nan,nan,nan,nan,nan,742.336376546,902.943157504,nan,903.172633494,nan,nan,nan,nan
1,144,1,1,1.0,1.0,0.247389729717,0,0.0,0.0,0.0,0.251518156388,0.0883123626904,0.163205793697,0.339830519078,0.0883123626904,0.238673386164,471,0.506014005179,0.354993781952,-1.0,nan,nan,nan,nan,nan,nan,nan,nan,742.336376546,903.893336644,nan,904.140726374,nan,nan,nan,nan
1,145,0,0,1.0,0.0,0.305290218035,0,0.0,0.0,0.0,0.25148908296,0.0880015314303,0.16348755153,0.339490614391,0.0880015314303,0.260718645974,270,0.331159066004,0.309369715406,0.641393874915,nan,nan,nan,nan,nan,nan,nan,nan,742.336376546,904.843402886,nan,905.148693104,nan,nan,nan,nan
1,146,1,1,1.0,1.0,0.282728268765,0,0.0,0.0,0.0,0.251865314674,0.0878078239454,0.164057490729,0.33967313862,0.0878078239454,0.278469405506,127,1.0,-0.31111021432,-0.167036648065,nan,nan,nan,nan,nan,nan,nan,nan,742.336376546,905.801834138,nan,906.084562407,nan,nan,nan,nan
1,147,0,0,0.0,1.0,0.324338925886,0,0.0,0.0,0.0,0.252079640744,0.0875399314234,0.164539709321,0.339619572168,0.0875399314234,0.304119137562,29,1.0,0.0770173926463,-1.0,nan,nan,nan,nan,nan,nan,nan,nan,742.336376546,906.760308155,nan,907.084647081,nan,nan,nan,nan
1,148,1,1,1.0,1.0,0.333785020863,0,0.0,0.0,0.0,0.252577980642,0.0874422724286,0.165135708213,0.340020253071,0.0874422724286,0.313617405171,179,1.0,-0.13461441766,0.323204131591,nan,nan,nan,nan,nan,nan,nan,nan,742.336376546,907.718833204,nan,908.052618224,nan,nan,nan,nan
1,149,1,1,1.0,1.0,0.35938723688,0,0.0,0.0,0.0,0.253134193246,0.0873993084471,0.165734884799,0.340533501693,0.0873993084471,0.339170394543,339,-0.164955840019,0.45996923152,0.241423096872,nan,nan,nan,nan,nan,nan,nan,nan,742.336376546,908.677206866,nan,909.036594103,nan,nan,nan,nan
1,150,1,1,1.0,1.0,0.368881798233,0,0.0,1.0,0.0,0.253857003067,0.0875382994752,0.166318703592,0.341395302542,0.0875382994752,0.354018018659,262,0.416452475899,0.2804144186,0.652815538838,nan,nan,nan,nan,nan,nan,nan,nan,742.336376546,909.635652088,nan,910.004533886,nan,nan,nan,nan
1,151,1,1,1.0,1.0,0.338056048204,1,0.0,0.0,1.0,0.254634197629,0.0877494716425,0.166884725986,0.342383669271,0.0877494716425,0.355441694439,53,1.0,-0.049257555853,-1.0,77.5039889556,12.4960110444,-24.7696139556,18.0,0.988682696815,0.131162580546,-1.0,0.800490479625,742.336376546,910.602428393,911.410838562,910.940484441,913.252873842,914.258911896,912.435947562,913.244383104
1,152,1,1,1.0,1.0,0.480242400256,0,0.0,0.0,0.0,0.25519407582,0.0877193521141,0.167474723706,0.342913427935,0.0877193521141,0.395726748897,460,0.415848916989,0.383334931935,-1.0,nan,nan,nan,nan,nan,nan,nan,nan,742.336376546,914.436245487,nan,914.916487888,nan,nan,nan,nan
1,153,1,1,1.0,1.0,0.321577198221,0,0.0,0.0,0.0,0.256694397983,0.0893240217375,0.167370376246,0.346018419721,0.0893240217375,0.379958548894,284,0.188465149253,0.353984098999,0.602236276499,nan,nan,nan,nan,nan,nan,nan,nan,742.336376546,915.394732618,nan,915.716309816,nan,nan,nan,nan
1,154,1,1,1.0,1.0,0.267280041764,0,0.0,1.0,0.0,0.257124085402,0.0891831595241,0.167940925878,0.346307244926,0.0891831595241,0.356366546747,66,1.0,-0.118568705386,-1.0,nan,nan,nan,nan,nan,nan,nan,nan,742.336376546,916.353130799,nan,916.620410841,nan,nan,nan,nan
1,155,1,1,1.0,1.0,0.244687017053,1,0.0,0.0,1.0,0.257190900905,0.0888931015403,0.168297799364,0.346084002445,0.0888931015403,0.27784808568,10,0.926811495151,0.168400576072,-1.0,94.6062978506,355.393702149,-11.6375478506,505.0,0.789537956352,0.240683140511,-1.0,0.758757801261,742.336376546,917.311585714,918.119995883,917.556272731,919.92031559,920.919965207,919.145130541,919.911914088
1,156,1,1,1.0,1.0,0.445974112663,0,0.0,0.0,0.0,0.257109176173,0.0886078537607,0.168501322413,0.345717029934,0.0886078537607,0.319313723827,63,1.0,-0.102744642793,-1.0,nan,nan,nan,nan,nan,nan,nan,nan,742.336376546,921.07034152,nan,921.516315632,nan,nan,nan,nan
1,157,1,1,1.0,1.0,0.367739702517,0,0.0,0.0,0.0,0.258335571865,0.089612990367,0.168722581498,0.347948562232,0.089612990367,0.352800277411,433,0.206536295144,0.436163724167,-1.0,nan,nan,nan,nan,nan,nan,nan,nan,742.336376546,922.020539476,nan,922.388279179,nan,nan,nan,nan
1,158,1,1,1.0,1.0,0.321305501449,0,0.0,1.0,0.0,0.259041404966,0.0897518874379,0.169289517528,0.348793292404,0.0897518874379,0.37833977221,139,1.0,-0.296335611021,-0.0445992895203,nan,nan,nan,nan,nan,nan,nan,nan,742.336376546,922.97896075,nan,923.300266251,nan,nan,nan,nan
1,159,1,1,1.0,1.0,0.322835613217,1,0.0,0.0,1.0,0.25944053379,0.0896016529012,0.169838880888,0.349042186691,0.0896016529012,0.337293605728,80,1.0,-0.189075709245,-0.708965549488,64.4400348282,25.5599651718,-30.6900348282,36.0,1.0,0.0410699577143,-1.0,0.883681288571,742.336376546,923.937412244,924.745801886,924.260247857,926.670989772,927.674643565,925.770949659,926.662662394
1,160,1,1,1.0,1.0,0.310952515225,0,0.0,0.0,0.0,0.259844324104,0.0894581176382,0.170386206466,0.349302441743,0.0894581176382,0.318364543297,185,1.0,-0.102214474652,0.370299946716,nan,nan,nan,nan,nan,nan,nan,nan,742.336376546,927.821184763,nan,928.132137278,nan,nan,nan,nan
1,161,1,1,1.0,1.0,0.264491800219,0,0.0,0.0,0.0,0.260167793668,0.0892666330507,0.170901160618,0.349434426719,0.0892666330507,0.299426642887,246,0.589768841079,0.215019897151,0.651339528662,nan,nan,nan,nan,nan,nan,nan,nan,742.336376546,928.779641389,nan,929.044133189,nan,nan,nan,nan
1,162,1,1,1.0,1.0,0.209791232541,0,0.0,0.0,0.0,0.260194988678,0.0889861341783,0.1712088545,0.349181122856,0.0889861341783,0.261745182661,187,1.0,-0.0912463489427,0.385383214542,nan,nan,nan,nan,nan,nan,nan,nan,742.336376546,929.738220606,nan,929.948011838,nan,nan,nan,nan
1,163,1,1,1.0,1.0,0.227515953244,0,0.0,0.0,0.0,0.259879965202,0.0887965110642,0.171083454138,0.348676476267,0.0887965110642,0.233932995334,70,1.0,-0.13936984996,-0.906436913284,nan,nan,nan,nan,nan,nan,nan,nan,742.336376546,930.696547798,nan,930.924063751,nan,nan,nan,nan
1,164,1,1,1.0,1.0,0.188934444101,0,0.0,0.0,0.0,0.259678946495,0.0885568275229,0.171122118972,0.348235774017,0.0885568275229,0.208747209962,459,0.407758158413,0.385709174134,-1.0,nan,nan,nan,nan,nan,nan,nan,nan,742.336376546,931.655002998,nan,931.843937442,nan,nan,nan,nan
1,165,0,0,1.0,0.0,0.0944347210461,0,0.0,0.0,0.0,0.259242252035,0.0884567996233,0.170785452412,0.347699051659,0.0884567996233,0.170295039463,272,0.310166696092,0.316214117232,0.637281430288,nan,nan,nan,nan,nan,nan,nan,nan,742.336376546,932.613520349,nan,932.70795507,nan,nan,nan,nan
1,166,1,1,1.0,1.0,0.160153119534,0,0.0,0.0,0.0,0.258231162888,0.0891191028353,0.169112060053,0.347350265723,0.0891191028353,0.14784076156,163,1.0,-0.214247802105,0.185723682048,nan,nan,nan,nan,nan,nan,nan,nan,742.336376546,933.571908266,nan,933.732061386,nan,nan,nan,nan
1,167,1,1,1.0,1.0,0.265651001653,0,0.0,0.0,0.0,0.257633126038,0.0891744525581,0.16845867348,0.346807578597,0.0891744525581,0.173412947411,411,0.0555201669072,0.463022710015,-0.557054760163,nan,nan,nan,nan,nan,nan,nan,nan,742.336376546,934.530352633,nan,934.796003634,nan,nan,nan,nan
1,168,1,1,1.0,1.0,0.275111636613,0,0.0,0.0,0.0,0.257681719224,0.0889059941708,0.168775725053,0.346587713395,0.0889059941708,0.233638585933,78,1.0,-0.179467652321,-0.739907630878,nan,nan,nan,nan,nan,nan,nan,nan,742.336376546,935.48879928,nan,935.763910917,nan,nan,nan,nan
1,169,1,1,1.0,1.0,0.243889032572,0,0.0,0.0,0.0,0.257786718726,0.0886480613888,0.169138657338,0.346434780115,0.0886480613888,0.261550556946,234,0.71814774995,0.15974031316,0.62913160129,nan,nan,nan,nan,nan,nan,nan,nan,742.336376546,936.463944872,nan,936.707833904,nan,nan,nan,nan
1,170,1,1,1.0,1.0,0.26174461242,0,0.0,0.0,0.0,0.257703499049,0.0883887530414,0.169314746007,0.34609225209,0.0883887530414,0.260248427202,299,0.0516645560415,0.393417669654,0.534378752182,nan,nan,nan,nan,nan,nan,nan,nan,742.336376546,937.414187018,nan,937.67593163,nan,nan,nan,nan
1,171,1,1,1.0,1.0,0.271346370049,0,0.0,0.0,0.0,0.257727553295,0.0881258468827,0.169601706412,0.345853400178,0.0881258468827,0.258993338347,408,0.036737934283,0.465637664749,-0.515938449969,nan,nan,nan,nan,nan,nan,nan,nan,742.336376546,938.372585484,nan,938.643931854,nan,nan,nan,nan
1,172,1,1,1.0,1.0,0.256966398854,0,0.0,0.0,0.0,0.25780813801,0.087870940731,0.169937197278,0.345679078741,0.087870940731,0.263352460441,2,0.863024578927,0.203622855609,-1.0,nan,nan,nan,nan,nan,nan,nan,nan,742.336376546,939.330935198,nan,939.587901597,nan,nan,nan,nan
1,173,1,1,1.0,1.0,0.290363432199,0,0.0,0.0,0.0,0.257803186603,0.0876121392467,0.170191047356,0.345415325849,0.0876121392467,0.272892067034,86,1.0,-0.21659106269,-0.625617802914,nan,nan,nan,nan,nan,nan,nan,nan,742.336376546,940.289400662,nan,940.579764094,nan,nan,nan,nan
1,174,1,1,1.0,1.0,0.283984973154,0,0.0,0.0,0.0,0.257993597396,0.0873908592563,0.170602738139,0.345384456652,0.0873908592563,0.277104934736,306,-0.00395437407881,0.408974006242,0.494128827808,nan,nan,nan,nan,nan,nan,nan,nan,742.336376546,941.247862705,nan,941.531847678,nan,nan,nan,nan
1,175,1,1,1.0,1.0,0.30953330599,0,0.0,0.0,0.0,0.258144710045,0.0871588490395,0.170985861006,0.345303559085,0.0871588490395,0.294627237114,247,0.578947625354,0.219392674348,0.6523805853,nan,nan,nan,nan,nan,nan,nan,nan,742.336376546,942.206293956,nan,942.515827262,nan,nan,nan,nan
1,176,1,1,1.0,1.0,0.287105066818,0,0.0,0.0,0.0,0.258441753953,0.0869938505985,0.171447903354,0.345435604551,0.0869938505985,0.293541115321,161,1.0,-0.223158351501,0.167490545043,nan,nan,nan,nan,nan,nan,nan,nan,742.336376546,943.164717226,nan,943.451822293,nan,nan,nan,nan
1,177,1,1,1.0,1.0,0.232616325724,0,0.0,0.0,0.0,0.258606485636,0.0867705641931,0.171835921443,0.345377049829,0.0867705641931,0.276418232844,224,0.821619416966,0.11002478857,0.597264883709,nan,nan,nan,nan,nan,nan,nan,nan,742.336376546,944.123174992,nan,944.355791318,nan,nan,nan,nan
1,178,1,1,1.0,1.0,0.178078547993,0,0.0,0.0,0.0,0.258457970436,0.0865444688167,0.17191350162,0.345002439253,0.0865444688167,0.232599980178,296,0.0772713571413,0.386205321608,0.550001308524,nan,nan,nan,nan,nan,nan,nan,nan,742.336376546,945.081652144,nan,945.259730692,nan,nan,nan,nan
1,179,1,1,1.0,1.0,0.203701005841,0,0.0,0.0,0.0,0.258001269172,0.0865094756914,0.171491793481,0.344510744864,0.0865094756914,0.204798626519,412,0.0618891196837,0.462096609288,-0.571158935758,nan,nan,nan,nan,nan,nan,nan,nan,742.336376546,946.040074844,nan,946.243775849,nan,nan,nan,nan
1,180,1,1,1.0,1.0,0.236999680987,0,0.0,0.0,0.0,0.257694488024,0.0863607069561,0.171333781068,0.34405519498,0.0863607069561,0.20625974494,477,0.555879874869,0.337784025865,-1.0,nan,nan,nan,nan,nan,nan,nan,nan,742.336376546,946.99860873,nan,947.235608411,nan,nan,nan,nan
1,181,0,0,1.0,0.0,0.246707779414,0,0.0,0.0,0.0,0.257578225063,0.0861316688993,0.171446556163,0.343709893962,0.0861316688993,0.229136155414,362,-0.164239727892,0.476000155386,0.0174578511848,nan,nan,nan,nan,nan,nan,nan,nan,742.336376546,947.956986954,nan,948.203694734,nan,nan,nan,nan
1,182,1,1,1.0,1.0,0.48824932921,0,0.0,0.0,0.0,0.257517496316,0.0858945620833,0.171622934233,0.343412058399,0.0858945620833,0.323985596537,270,0.331159066004,0.309369715406,0.641393874915,nan,nan,nan,nan,nan,nan,nan,nan,742.336376546,948.915436738,nan,949.403686067,nan,nan,nan,nan
1,183,1,1,1.0,1.0,0.369627895183,0,0.0,0.0,0.0,0.258799339832,0.0873556327764,0.171443707056,0.346154972609,0.0873556327764,0.368195001269,389,-0.0691208065164,0.476626077068,-0.280234315682,nan,nan,nan,nan,nan,nan,nan,nan,742.336376546,949.873887946,nan,950.243515842,nan,nan,nan,nan
1,184,1,1,1.0,1.0,0.283146790054,0,0.0,1.0,0.0,0.259411652293,0.0875004748519,0.171911177441,0.346912127145,0.0875004748519,0.380341338149,174,1.0,-0.160790688716,0.281981279739,nan,nan,nan,nan,nan,nan,nan,nan,742.336376546,950.832341436,nan,951.115488226,nan,nan,nan,nan
1,185,1,1,1.0,1.0,0.212837771396,1,0.0,0.0,1.0,0.259542065138,0.0872773950938,0.172264670044,0.346819460231,0.0872773950938,0.288537485544,400,-0.0107874812989,0.471427301814,-0.412692688905,-144.430823707,234.430823707,-46.8191762932,333.0,-0.149813480994,0.453275949072,0.294183738108,0.983874669415,742.336376546,951.790784947,952.599193121,952.003622718,954.616094198,955.61361215,953.61595051,954.607766821
1,186,1,1,1.0,1.0,0.373238354456,0,0.0,0.0,0.0,0.259286850418,0.087106678011,0.172180172407,0.346393528429,0.087106678011,0.289740971969,295,0.0860222946478,0.38372732295,0.554986075565,nan,nan,nan,nan,nan,nan,nan,nan,742.336376546,955.766269518,nan,956.139507873,nan,nan,nan,nan
1,187,0,0,0.0,1.0,0.478734811128,0,0.0,0.0,0.0,0.25990615207,0.0872726954013,0.172633456669,0.347178847471,0.0872726954013,0.354936978993,426,0.156193047225,0.446210853967,-0.81485970128,nan,nan,nan,nan,nan,nan,nan,nan,742.336376546,956.724733271,nan,957.203468082,nan,nan,nan,nan
1,188,1,1,1.0,1.0,0.280273589771,0,0.0,0.0,0.0,0.261089009687,0.0885030901155,0.172585919571,0.349592099802,0.0885030901155,0.377415585118,166,1.0,-0.20036215083,0.21267421211,nan,nan,nan,nan,nan,nan,nan,nan,742.336376546,957.683189041,nan,957.963462631,nan,nan,nan,nan
1,189,1,1,1.0,1.0,0.297629681067,0,0.0,0.0,0.0,0.26119215259,0.0882760061581,0.172916146432,0.349468158748,0.0882760061581,0.352212693989,38,1.0,0.0306259494545,-1.0,nan,nan,nan,nan,nan,nan,nan,nan,742.336376546,958.641681589,nan,958.93931127,nan,nan,nan,nan
1,190,0,0,1.0,0.0,0.267352171184,0,0.0,0.0,0.0,0.261387005684,0.0880797554382,0.173307250245,0.349466761122,0.0880797554382,0.281751814007,318,-0.0835627602325,0.431640264478,0.413481556053,nan,nan,nan,nan,nan,nan,nan,nan,742.336376546,959.600075494,nan,959.867427665,nan,nan,nan,nan
1,191,1,1,1.0,1.0,0.316846310569,0,0.0,0.0,0.0,0.261418735287,0.0878462599987,0.173572475289,0.349264995286,0.0878462599987,0.29394272094,265,0.384259149088,0.291568309415,0.649478858709,nan,nan,nan,nan,nan,nan,nan,nan,742.336376546,960.558553786,nan,960.875400097,nan,nan,nan,nan
1,192,1,1,1.0,1.0,0.294298901223,0,0.0,0.0,0.0,0.261712002881,0.087705780863,0.174006222018,0.349417783744,0.087705780863,0.292832460992,6,0.895129075663,0.186272780825,-1.0,nan,nan,nan,nan,nan,nan,nan,nan,742.336376546,961.517090239,nan,961.81138914,nan,nan,nan,nan
1,193,1,1,1.0,1.0,0.287770196446,0,0.0,0.0,0.0,0.261883512873,0.0875064440442,0.174377068829,0.349389956917,0.0875064440442,0.299638469412,215,0.910639861846,0.0628947364355,0.558695148714,nan,nan,nan,nan,nan,nan,nan,nan,742.336376546,962.475447366,nan,962.763217562,nan,nan,nan,nan
1,194,1,1,1.0,1.0,0.289322830737,0,0.0,0.0,0.0,0.262019045247,0.0872970611243,0.174721984123,0.349316106372,0.0872970611243,0.290463976135,335,-0.155595990888,0.455627721073,0.276893227044,nan,nan,nan,nan,nan,nan,nan,nan,742.336376546,963.433903706,nan,963.723226537,nan,nan,nan,nan
1,195,1,1,1.0,1.0,0.282797262073,0,0.0,0.0,0.0,0.262161252464,0.0870916064103,0.175069646053,0.349252858874,0.0870916064103,0.286630096418,150,1.0,-0.266152531622,0.0638227105866,nan,nan,nan,nan,nan,nan,nan,nan,742.336376546,964.392506016,nan,964.675303278,nan,nan,nan,nan
1,196,1,1,1.0,1.0,0.228836519236,0,0.0,0.0,0.0,0.262268174793,0.0868783210976,0.175389853696,0.349146495891,0.0868783210976,0.266985537348,270,0.331159066004,0.309369715406,0.641393874915,nan,nan,nan,nan,nan,nan,nan,nan,742.336376546,965.342475611,nan,965.57131213,nan,nan,nan,nan
1,197,1,1,1.0,1.0,0.278753741528,0,0.0,0.0,0.0,0.262095846672,0.0866871835314,0.17540866314,0.348783030203,0.0866871835314,0.263462507612,379,-0.113535935895,0.478614986251,-0.165970515924,nan,nan,nan,nan,nan,nan,nan,nan,742.336376546,966.292522181,nan,966.571275923,nan,nan,nan,nan
1,198,1,1,1.0,1.0,0.272613337904,0,0.0,0.0,0.0,0.262181271774,0.0864728092271,0.175708462546,0.348654081001,0.0864728092271,0.260067866223,29,1.0,0.0770173926463,-1.0,nan,nan,nan,nan,nan,nan,nan,nan,742.336376546,967.24265257,nan,967.515265908,nan,nan,nan,nan
1,199,1,1,1.0,1.0,0.250427715655,0,0.0,0.0,0.0,0.262234496601,0.0862551354936,0.175979361107,0.348489632094,0.0862551354936,0.267264931696,468,0.481236483515,0.363131620867,-1.0,nan,nan,nan,nan,nan,nan,nan,nan,742.336376546,968.19275559,nan,968.443183305,nan,nan,nan,nan
1,200,1,1,1.0,1.0,0.252317333827,0,0.0,0.0,0.0,0.262174563703,0.0860400266512,0.176134537051,0.348214590354,0.0860400266512,0.258452795795,361,-0.166047812515,0.475607712818,0.0278173107143,nan,nan,nan,nan,nan,nan,nan,nan,742.336376546,969.142893961,nan,969.395211295,nan,nan,nan,nan
1,201,1,1,1.0,1.0,0.278107428283,0,0.0,0.0,0.0,0.262124779713,0.0858253233367,0.176299456377,0.34795010305,0.0858253233367,0.260284159255,93,1.0,-0.245614297951,-0.538619881923,nan,nan,nan,nan,nan,nan,nan,nan,742.336376546,970.093006389,nan,970.371113817,nan,nan,nan,nan
1,202,1,1,1.0,1.0,0.359524938394,0,0.0,0.0,0.0,0.26220509453,0.0856168693261,0.176588225204,0.347821963856,0.0856168693261,0.296649900168,144,1.0,-0.284423189345,0.00519445478499,nan,nan,nan,nan,nan,nan,nan,nan,742.336376546,971.051516612,nan,971.411041551,nan,nan,nan,nan
1,203,1,1,1.0,1.0,0.281472989882,0,0.0,0.0,0.0,0.26269169375,0.0856779788096,0.17701371494,0.348369672559,0.0856779788096,0.306368452186,421,0.121471671064,0.452518040197,-0.712610339232,nan,nan,nan,nan,nan,nan,nan,nan,742.336376546,972.001660686,nan,972.283133676,nan,nan,nan,nan
1,204,1,1,1.0,1.0,0.291459057189,0,0.0,0.0,0.0,0.262785133034,0.0854747989613,0.177310334072,0.348259931995,0.0854747989613,0.310818995155,52,1.0,-0.0438860552364,-1.0,nan,nan,nan,nan,nan,nan,nan,nan,742.336376546,972.951668483,nan,973.24312754,nan,nan,nan,nan
1,205,1,1,1.0,1.0,0.253292363079,0,0.0,0.0,0.0,0.262927083153,0.0852867126144,0.177640370539,0.348213795768,0.0852867126144,0.275408136717,440,0.258699398066,0.424657399123,-1.0,nan,nan,nan,nan,nan,nan,nan,nan,742.336376546,973.901811416,nan,974.155103779,nan,nan,nan,nan
1,206,1,1,1.0,1.0,0.191009659902,0,0.0,0.0,0.0,0.262879621478,0.085079061665,0.177800559813,0.347958683143,0.085079061665,0.24525369339,78,1.0,-0.179467652321,-0.739907630878,nan,nan,nan,nan,nan,nan,nan,nan,742.336376546,974.85195549,nan,975.04296515,nan,nan,nan,nan
1,207,1,1,1.0,1.0,0.264663143025,0,0.0,0.0,0.0,0.262527317745,0.0850185867303,0.177508731015,0.347545904475,0.0850185867303,0.236321722002,158,1.0,-0.235949227405,0.139764106,nan,nan,nan,nan,nan,nan,nan,nan,742.336376546,975.81038275,nan,976.075045893,nan,nan,nan,nan
1,208,1,1,1.0,1.0,0.226183413295,0,0.0,0.0,0.0,0.262537736405,0.0848111013724,0.177726635032,0.347348837777,0.0848111013724,0.227285405408,288,0.150005133015,0.365331945294,0.586687239957,nan,nan,nan,nan,nan,nan,nan,nan,742.336376546,976.768830538,nan,976.995013951,nan,nan,nan,nan
1,209,1,1,1.0,1.0,0.155620373727,0,0.0,0.0,0.0,0.262361259108,0.0846427219724,0.177718537136,0.347003981081,0.0846427219724,0.215488976683,75,1.0,-0.164714458691,-0.791355921409,nan,nan,nan,nan,nan,nan,nan,nan,742.336376546,977.727297712,nan,977.882918086,nan,nan,nan,nan
1,210,0,0,1.0,0.0,0.25324988371,0,0.0,0.0,0.0,0.261845602657,0.0847617574494,0.177083845208,0.346607360106,0.0847617574494,0.211684556911,338,-0.162891363375,0.458928707883,0.250399161362,nan,nan,nan,nan,nan,nan,nan,nan,742.336376546,978.685734381,nan,978.938984265,nan,nan,nan,nan
1,211,1,1,1.0,1.0,0.214653264498,0,0.0,0.0,0.0,0.261804277085,0.0845598480886,0.177244428997,0.346364125174,0.0845598480886,0.207841173979,389,-0.0691208065164,0.476626077068,-0.280234315682,nan,nan,nan,nan,nan,nan,nan,nan,742.336376546,979.644310747,nan,979.858964011,nan,nan,nan,nan
1,212,1,1,1.0,1.0,0.240293968469,0,0.0,0.0,0.0,0.261578674154,0.0844200339498,0.177158640204,0.345998708104,0.0844200339498,0.236065705559,106,1.0,-0.287630069369,-0.390564445695,nan,nan,nan,nan,nan,nan,nan,nan,742.336376546,980.60265647,nan,980.842950439,nan,nan,nan,nan
1,213,1,1,1.0,1.0,0.297814423451,0,0.0,0.0,0.0,0.261477318413,0.0842315399297,0.177245778483,0.345708858342,0.0842315399297,0.250920552139,190,1.0,-0.0746884387243,0.407399635172,nan,nan,nan,nan,nan,nan,nan,nan,742.336376546,981.561097986,nan,981.858912409,nan,nan,nan,nan
1,214,1,1,1.0,1.0,0.275247342419,0,0.0,0.0,0.0,0.261649532181,0.084068751892,0.177580780289,0.345718284073,0.084068751892,0.271118578113,132,1.0,-0.307426825298,-0.115555361894,nan,nan,nan,nan,nan,nan,nan,nan,742.336376546,982.519620754,nan,982.794868096,nan,nan,nan,nan
1,215,1,1,1.0,1.0,0.333118750888,0,0.0,0.0,0.0,0.261713672795,0.083875417011,0.177838255784,0.345589089806,0.083875417011,0.302060172253,396,-0.0330153705648,0.473684876347,-0.363523780775,nan,nan,nan,nan,nan,nan,nan,nan,742.336376546,983.469650788,nan,983.802769539,nan,nan,nan,nan
1,216,1,1,1.0,1.0,0.303130043496,0,0.0,0.0,0.0,0.262048907903,0.0838205351599,0.178228372744,0.345869443063,0.0838205351599,0.303832045601,80,1.0,-0.189075709245,-0.708965549488,nan,nan,nan,nan,nan,nan,nan,nan,742.336376546,984.419718741,nan,984.722848785,nan,nan,nan,nan
1,217,1,1,1.0,1.0,0.329315566516,0,0.0,0.0,0.0,0.262240875827,0.0836713827916,0.178569493035,0.345912258618,0.0836713827916,0.321854786967,293,0.103830259013,0.378659598285,0.564617056734,nan,nan,nan,nan,nan,nan,nan,nan,742.336376546,985.361518332,nan,985.690833898,nan,nan,nan,nan
1,218,1,1,1.0,1.0,0.33948495076,0,0.0,0.0,0.0,0.262552851132,0.0836012337817,0.178951617351,0.346154084914,0.0836012337817,0.323976853591,340,-0.166837174664,0.460980112934,0.232376404312,nan,nan,nan,nan,nan,nan,nan,nan,742.336376546,986.30334187,nan,986.642826821,nan,nan,nan,nan
1,219,1,1,1.0,1.0,0.22168259829,0,0.0,0.0,0.0,0.26290901826,0.0835708254621,0.179338192798,0.346479843722,0.0835708254621,0.296827705189,91,1.0,-0.237709898716,-0.562722318432,nan,nan,nan,nan,nan,nan,nan,nan,742.336376546,987.245108389,nan,987.466790988,nan,nan,nan,nan
1,220,0,0,1.0,0.0,0.207897908171,0,0.0,0.0,0.0,0.262719034758,0.0834247828925,0.179294251866,0.346143817651,0.0834247828925,0.256355152407,359,-0.169222339917,0.474741883077,0.0483828026834,nan,nan,nan,nan,nan,nan,nan,nan,742.336376546,988.186879755,nan,988.394777663,nan,nan,nan,nan
1,221,1,1,1.0,1.0,0.0900878580869,0,0.0,0.0,0.0,0.2624675617,0.0833156167511,0.179151944949,0.345783178451,0.0833156167511,0.173222788183,100,1.0,-0.270427092546,-0.457439896749,nan,nan,nan,nan,nan,nan,nan,nan,742.336376546,989.128665091,nan,989.218752949,nan,nan,nan,nan
1,222,1,1,1.0,1.0,0.588276498951,0,0.0,0.0,0.0,0.261680439766,0.0839336640982,0.177746775668,0.345614103864,0.0839336640982,0.29542075507,179,1.0,-0.13461441766,0.323204131591,nan,nan,nan,nan,nan,nan,nan,nan,742.336376546,990.070449286,nan,990.658725785,nan,nan,nan,nan
1,223,1,1,1.0,1.0,0.574481545307,0,0.0,1.0,0.0,0.263164967308,0.0865764107655,0.176588556542,0.349741378073,0.0865764107655,0.417615300782,107,1.0,-0.290089771429,-0.379592780214,nan,nan,nan,nan,nan,nan,nan,nan,742.336376546,991.012221507,nan,991.586703053,nan,nan,nan,nan
1,224,1,1,1.0,1.0,0.448659149464,1,0.0,0.0,1.0,0.264573639606,0.0888713531286,0.175702286478,0.353444992735,0.0888713531286,0.537139064574,317,-0.077772836126,0.429938605076,0.420733606481,-139.635463427,229.635463427,6.7448384269,327.0,-0.128086156831,0.445480682368,0.344176439252,0.858736219525,742.336376546,991.954015966,992.76242585,992.402675115,994.679274384,995.689140996,993.804212982,994.67093988
1,225,1,1,1.0,1.0,0.261087750667,0,0.0,0.0,0.0,0.265402853615,0.0895237342224,0.175879119392,0.354926587837,0.0895237342224,0.428076148479,181,1.0,-0.123914391386,0.3392011262,nan,nan,nan,nan,nan,nan,nan,nan,742.336376546,995.82948078,nan,996.09056853,nan,nan,nan,nan
1,226,1,1,1.0,1.0,0.246963510814,0,0.0,0.0,0.0,0.265383503377,0.089323248125,0.176060255252,0.354706751502,0.089323248125,0.318903470315,126,1.0,-0.311411754845,-0.177408431044,nan,nan,nan,nan,nan,nan,nan,nan,742.336376546,996.779598339,nan,997.02656185,nan,nan,nan,nan
1,227,1,1,1.0,1.0,0.240810562915,0,0.0,0.0,0.0,0.265301271268,0.089132102342,0.176169168926,0.35443337361,0.089132102342,0.249620608132,244,0.611372359265,0.206163547436,0.648880721676,nan,nan,nan,nan,nan,nan,nan,nan,742.336376546,997.729717894,nan,997.970528457,nan,nan,nan,nan
1,228,1,1,1.0,1.0,0.242611230991,0,0.0,0.0,0.0,0.265192423675,0.0889487298679,0.176243693807,0.354141153543,0.0889487298679,0.24346176824,452,0.351738073422,0.401406211611,-1.0,nan,nan,nan,nan,nan,nan,nan,nan,742.336376546,998.67992754,nan,998.922538771,nan,nan,nan,nan
1,229,1,1,1.0,1.0,0.260310008016,0,0.0,0.0,0.0,0.265092506893,0.0887643762923,0.176328130601,0.353856883185,0.0887643762923,0.247910600641,504,0.78128615449,0.244628286196,-1.0,nan,nan,nan,nan,nan,nan,nan,nan,742.336376546,999.63012122,nan,999.890431228,nan,nan,nan,nan
1,230,1,1,1.0,1.0,0.222401611158,0,0.0,0.0,0.0,0.265071438616,0.0885692105542,0.176502228062,0.35364064917,0.0885692105542,0.241774283388,6,0.895129075663,0.186272780825,-1.0,nan,nan,nan,nan,nan,nan,nan,nan,742.336376546,1000.58007,nan,1000.80247161,nan,nan,nan,nan
1,231,1,1,1.0,1.0,0.240313925198,0,0.0,0.0,0.0,0.26488429025,0.0884197370401,0.17646455321,0.35330402729,0.0884197370401,0.241008514791,489,0.656284860842,0.299572439858,-1.0,nan,nan,nan,nan,nan,nan,nan,nan,742.336376546,1001.53016418,nan,1001.77047811,nan,nan,nan,nan
1,232,1,1,1.0,1.0,0.23414358648,0,0.0,0.0,0.0,0.26477699608,0.0882413434125,0.176535652667,0.353018339492,0.0882413434125,0.232286374279,191,1.0,-0.0691479807067,0.414571651978,nan,nan,nan,nan,nan,nan,nan,nan,742.336376546,1002.48029144,nan,1002.71443502,nan,nan,nan,nan
1,233,1,1,1.0,1.0,0.21192004648,0,0.0,0.0,0.0,0.264643807342,0.0880723706648,0.176571436677,0.352716178007,0.0880723706648,0.228792519386,112,1.0,-0.300501516081,-0.325324861792,nan,nan,nan,nan,nan,nan,nan,nan,742.336376546,1003.43042525,nan,1003.64234529,nan,nan,nan,nan
1,234,1,1,1.0,1.0,0.22185508156,0,0.0,0.0,0.0,0.264415565953,0.0879496739792,0.176465891974,0.352365239932,0.0879496739792,0.222639571507,263,0.405698801511,0.284171736334,0.651829885785,nan,nan,nan,nan,nan,nan,nan,nan,742.336376546,1004.38052313,nan,1004.60237822,nan,nan,nan,nan
1,235,1,1,1.0,1.0,0.359685732634,0,0.0,0.0,0.0,0.264232115589,0.0878042031594,0.17642791243,0.352036318749,0.0878042031594,0.264486953558,117,1.0,-0.307587969795,-0.271886539361,nan,nan,nan,nan,nan,nan,nan,nan,742.336376546,1005.3306464,nan,1005.69033213,nan,nan,nan,nan
1,236,0,0,0.0,1.0,0.457590645703,0,0.0,0.0,0.0,0.264641787766,0.0878375012975,0.176804286468,0.352479289063,0.0878375012975,0.346377153299,388,-0.0739633693698,0.476941921698,-0.268577162136,nan,nan,nan,nan,nan,nan,nan,nan,742.336376546,1006.28075711,nan,1006.73834776,nan,nan,nan,nan
1,237,1,1,1.0,1.0,0.395439371874,0,0.0,0.0,0.0,0.265466355535,0.0885487110171,0.176917644517,0.354015066552,0.0885487110171,0.404238583404,435,0.221263830514,0.433027056876,-1.0,nan,nan,nan,nan,nan,nan,nan,nan,742.336376546,1007.23087439,nan,1007.62631376,nan,nan,nan,nan
1,238,1,1,1.0,1.0,0.341123399092,0,0.0,0.0,0.0,0.2660194322,0.0887642267427,0.177255205457,0.354783658943,0.0887642267427,0.39805113889,108,1.0,-0.292426609412,-0.368663285579,nan,nan,nan,nan,nan,nan,nan,nan,742.336376546,1008.1810923,nan,1008.5222157,nan,nan,nan,nan
1,239,1,1,1.0,1.0,0.662922687305,0,0.0,1.0,0.0,0.266337669348,0.0887102112537,0.177627458094,0.355047880601,0.0887102112537,0.466495152757,303,0.0191349273956,0.402522842081,0.512018356663,nan,nan,nan,nan,nan,nan,nan,nan,742.336376546,1009.13121642,nan,1009.7941391,nan,nan,nan,nan
1,240,1,1,1.0,1.0,0.520944170479,1,0.0,0.0,1.0,0.268011023854,0.0921798467357,0.175831177118,0.36019087059,0.0921798467357,0.508330085625,502,0.764740937618,0.25241357569,-1.0,86.5663696375,3.43363036245,10.4648803625,5.0,0.88714030954,0.190659852496,-1.0,16.8523586158,742.336376546,1010.0812895,1010.88963695,1010.60223367,1028.78349646,1029.7899747,1011.91474139,1028.77510665
1,241,1,1,1.0,1.0,0.26814873016,0,0.0,0.0,0.0,0.269073768167,0.0934296300953,0.175644138072,0.362503398263,0.0934296300953,0.484005195981,1,0.854939129564,0.207877072944,-1.0,nan,nan,nan,nan,nan,nan,nan,nan,742.336376546,1029.93366579,nan,1030.20181452,nan,nan,nan,nan
1,242,1,1,1.0,1.0,0.222236540401,0,0.0,0.0,0.0,0.269069897716,0.0932339848541,0.175835912861,0.36230388257,0.0932339848541,0.33710981368,468,0.481236483515,0.363131620867,-1.0,nan,nan,nan,nan,nan,nan,nan,nan,742.336376546,1030.87542547,nan,1031.09766201,nan,nan,nan,nan
1,243,1,1,1.0,1.0,0.23242046457,0,0.0,0.0,0.0,0.268874758727,0.093088440744,0.175786317983,0.361963199471,0.093088440744,0.240935245044,103,1.0,-0.279537473278,-0.423758835275,nan,nan,nan,nan,nan,nan,nan,nan,742.336376546,1031.81722763,nan,1032.04964809,nan,nan,nan,nan
1,244,1,1,1.0,1.0,0.122782414197,0,0.0,0.0,0.0,0.268723496095,0.0929246621506,0.175798833945,0.361648158246,0.0929246621506,0.19247980639,207,0.985653507947,0.0195431921708,0.51699622314,nan,nan,nan,nan,nan,nan,nan,nan,742.336376546,1032.75898474,nan,1032.88176715,nan,nan,nan,nan
1,245,1,1,1.0,1.0,0.0209180841921,0,1.0,0.0,0.0,0.268120433773,0.0932038568449,0.174916576929,0.361324290618,0.0932038568449,0.12537365432,317,-0.077772836126,0.429938605076,0.420733606481,nan,nan,nan,nan,nan,nan,nan,nan,742.336376546,1033.70077891,nan,1033.721697,nan,nan,nan,nan
1,246,1,1,1.0,1.0,0.214714845293,1,0.0,0.0,1.0,0.267103140154,0.0943485697574,0.172754570396,0.361451709911,0.0943485697574,0.119471781227,74,1.0,-0.159715158178,-0.810443278181,64.3589941757,25.6410058243,-26.3902441757,36.0,1.0,0.0410699577143,-1.0,1.35038817284,742.336376546,1034.65088678,1035.45929324,1034.86560162,1037.85132343,1038.85334933,1036.48437544,1037.84289941
1,247,0,0,0.0,1.0,0.552166489419,0,0.0,0.0,0.0,0.266888434027,0.0942145021828,0.172673931844,0.36110293621,0.0942145021828,0.262599806301,429,0.177531820842,0.442080780324,-0.901885199234,nan,nan,nan,nan,nan,nan,nan,nan,742.336376546,1039.00143831,nan,1039.5536048,nan,nan,nan,nan
1,248,1,1,1.0,1.0,0.322257723077,0,0.0,0.0,0.0,0.268052834253,0.0957651519831,0.17228768227,0.363817986237,0.0957651519831,0.363046352596,205,1.0,0.00854800403903,0.505535240796,nan,nan,nan,nan,nan,nan,nan,nan,742.336376546,1039.9431977,nan,1040.26545543,nan,nan,nan,nan
1,249,1,1,1.0,1.0,0.252457316092,0,0.0,0.0,0.0,0.26827317933,0.0956325217693,0.172640657561,0.363905701099,0.0956325217693,0.375627176196,360,-0.167709501072,0.475188317955,0.0381258551808,nan,nan,nan,nan,nan,nan,nan,nan,742.336376546,1040.88497791,nan,1041.13743522,nan,nan,nan,nan
1,250,1,1,1.0,1.0,0.254807649821,0,0.0,0.0,0.0,0.268209147495,0.095444021301,0.172765126194,0.363653168796,0.095444021301,0.276507562997,99,1.0,-0.267176270739,-0.468793303331,nan,nan,nan,nan,nan,nan,nan,nan,742.336376546,1041.82676296,nan,1042.08157061,nan,nan,nan,nan
1,251,1,1,1.0,1.0,0.240607004205,0,0.0,0.0,0.0,0.268155109198,0.0952551855515,0.172899923646,0.363410294749,0.0952551855515,0.249290656706,244,0.611372359265,0.206163547436,0.648880721676,nan,nan,nan,nan,nan,nan,nan,nan,742.336376546,1042.7768885,nan,1043.0174955,nan,nan,nan,nan
1,252,1,1,1.0,1.0,0.226466228778,0,0.0,0.0,0.0,0.268044474238,0.0950796821435,0.172964792095,0.363124156382,0.0950796821435,0.240626960935,287,0.159501648714,0.36255249221,0.590751920292,nan,nan,nan,nan,nan,nan,nan,nan,742.336376546,1043.72700235,nan,1043.95346858,nan,nan,nan,nan
1,253,1,1,1.0,1.0,0.220345496782,0,0.0,0.0,0.0,0.267878161256,0.0949256167463,0.17295254451,0.362803778002,0.0949256167463,0.229139576588,85,1.0,-0.212156452387,-0.638781227021,nan,nan,nan,nan,nan,nan,nan,nan,742.336376546,1044.67710936,nan,1044.89745486,nan,nan,nan,nan
1,254,1,1,1.0,1.0,0.254553914128,0,0.0,0.0,0.0,0.267688788091,0.0947836397924,0.172905148299,0.362472427883,0.0947836397924,0.233788546563,36,1.0,0.0410699577143,-1.0,nan,nan,nan,nan,nan,nan,nan,nan,742.336376546,1045.61887959,nan,1045.8734335,nan,nan,nan,nan
1,255,1,1,1.0,1.0,0.240424827673,0,0.0,0.0,0.0,0.267636665575,0.0945989943346,0.173037671241,0.36223565991,0.0945989943346,0.238441412861,393,-0.0489456633786,0.475102171109,-0.327443230616,nan,nan,nan,nan,nan,nan,nan,nan,742.336376546,1046.56900485,nan,1046.80942967,nan,nan,nan,nan
1,256,1,1,1.0,1.0,0.20261849527,0,0.0,0.0,0.0,0.267529108904,0.0944272924187,0.173101816485,0.361956401322,0.0944272924187,0.232532412357,15,0.965734432428,0.145352784795,-1.0,nan,nan,nan,nan,nan,nan,nan,nan,742.336376546,1047.51078819,nan,1047.71340668,nan,nan,nan,nan
1,257,1,1,1.0,1.0,0.228476157528,0,0.0,0.0,0.0,0.267273555307,0.0943288503196,0.172944704987,0.361602405626,0.0943288503196,0.223839826824,233,0.728670395113,0.154909781369,0.626482233315,nan,nan,nan,nan,nan,nan,nan,nan,742.336376546,1048.46090803,nan,1048.68938418,nan,nan,nan,nan
1,258,1,1,1.0,1.0,0.230693351245,0,0.0,0.0,0.0,0.267121408649,0.0941749324259,0.172946476223,0.361296341075,0.0941749324259,0.220596001348,124,1.0,-0.311577186586,-0.198226518473,nan,nan,nan,nan,nan,nan,nan,nan,742.336376546,1049.4026888,nan,1049.63338215,nan,nan,nan,nan
1,259,1,1,1.0,1.0,0.192747036635,0,0.0,0.0,0.0,0.26697911155,0.0940182803785,0.172960831171,0.360997391928,0.0940182803785,0.217305515136,276,0.268710435127,0.329430325417,0.627563005949,nan,nan,nan,nan,nan,nan,nan,nan,742.336376546,1050.34446359,nan,1050.53721062,nan,nan,nan,nan
1,260,1,1,1.0,1.0,0.186964999011,0,0.0,0.0,0.0,0.266690270791,0.0939489231896,0.172741347601,0.360639193981,0.0939489231896,0.203468462297,380,-0.109519508899,0.478533032186,-0.177177385375,nan,nan,nan,nan,nan,nan,nan,nan,742.336376546,1051.28625035,nan,1051.47321535,nan,nan,nan,nan
1,261,1,1,1.0,1.0,0.093276089814,0,1.0,0.0,0.0,0.26638125811,0.0938974437687,0.172483814341,0.360278701878,0.0938974437687,0.157662708487,245,0.600577697281,0.210610106048,0.650172825369,nan,nan,nan,nan,nan,nan,nan,nan,742.336376546,1052.22804994,nan,1052.32132603,nan,nan,nan,nan
1,262,1,1,1.0,1.0,0.143462442968,1,0.0,0.0,1.0,0.265712898387,0.094328883888,0.171384014499,0.360041782275,0.094328883888,0.141234510598,459,0.407758158413,0.385709174134,-1.0,126.869897646,323.130102354,0.395727354156,460.0,0.415848916989,0.383334931935,-1.0,63.4080836769,742.336376546,1053.1698099,1053.9782272,1053.31327234,1118.42772539,1119.42557633,1055.00331424,1118.41939573
1,263,0,0,1.0,0.0,0.294175169431,0,0.0,0.0,0.0,0.265242704327,0.0944509176834,0.170791786644,0.359693622011,0.0944509176834,0.176971234071,415,0.0813077335083,0.459153678902,-0.614968023274,nan,nan,nan,nan,nan,nan,nan,nan,742.336376546,1119.56957418,nan,1119.86374935,nan,nan,nan,nan
1,264,1,1,1.0,1.0,0.247986151197,0,0.0,0.0,0.0,0.265353556684,0.0942867478007,0.171066808883,0.359640304485,0.0942867478007,0.228541254532,350,-0.175756816429,0.469490941964,0.138247479403,nan,nan,nan,nan,nan,nan,nan,nan,742.336376546,1120.51970315,nan,1120.7676893,nan,nan,nan,nan
1,265,0,0,1.0,0.0,0.257843069907,0,0.0,0.0,0.0,0.265287268877,0.0941127324083,0.171174536469,0.359400001285,0.0941127324083,0.266668130178,224,0.821619416966,0.11002478857,0.597264883709,nan,nan,nan,nan,nan,nan,nan,nan,742.336376546,1121.46982897,nan,1121.72767204,nan,nan,nan,nan
1,266,1,1,1.0,1.0,0.251640515286,0,0.0,0.0,0.0,0.265258963938,0.0939347577678,0.17132420617,0.359193721706,0.0939347577678,0.25248991213,346,-0.174317561957,0.466431294057,0.176670174816,nan,nan,nan,nan,nan,nan,nan,nan,742.336376546,1122.41992316,nan,1122.67156367,nan,nan,nan,nan
1,267,1,1,1.0,1.0,0.445594079385,0,0.0,0.0,0.0,0.265207378905,0.0937604144151,0.17144696449,0.35896779332,0.0937604144151,0.318359221526,127,1.0,-0.31111021432,-0.167036648065,nan,nan,nan,nan,nan,nan,nan,nan,742.336376546,1123.37003245,nan,1123.81562653,nan,nan,nan,nan
1,268,1,1,1.0,1.0,0.383457060379,0,0.0,1.0,0.0,0.265888083435,0.0942346451903,0.171653438245,0.360122728625,0.0942346451903,0.360230551683,42,1.0,0.00954878589686,-1.0,nan,nan,nan,nan,nan,nan,nan,nan,742.336376546,1124.320154,nan,1124.70361106,nan,nan,nan,nan
1,269,1,1,1.0,1.0,0.305308464216,1,0.0,0.0,1.0,0.26633007207,0.0943321422437,0.171997929827,0.360662214314,0.0943321422437,0.378119867994,283,0.19826868328,0.351050922538,0.605825948857,-114.376468617,204.376468617,5.39209361667,291.0,0.122027637739,0.373441943191,0.573791926984,1.10053948773,742.336376546,1125.27027042,1126.07868429,1125.57557888,1128.22059268,1129.22220974,1127.10381182,1128.21228811
1,270,1,1,1.0,1.0,0.32504796033,0,0.0,0.0,0.0,0.266476058558,0.0941854243113,0.172290634246,0.360661482869,0.0941854243113,0.337937828309,348,-0.175384772129,0.468017843042,0.157582163916,nan,nan,nan,nan,nan,nan,nan,nan,742.336376546,1129.36244147,nan,1129.68748943,nan,nan,nan,nan
1,271,1,1,1.0,1.0,0.326936152996,0,0.0,0.0,0.0,0.26669461043,0.0940773460258,0.172617264404,0.360771956456,0.0940773460258,0.319097525848,466,0.464789014893,0.368385601135,-1.0,nan,nan,nan,nan,nan,nan,nan,nan,742.336376546,1130.31255248,nan,1130.63948863,nan,nan,nan,nan
1,272,1,1,1.0,1.0,0.329041588993,0,0.0,0.0,0.0,0.266918556685,0.0939738585423,0.172944698143,0.360892415227,0.0939738585423,0.32700856744,410,0.0492046846968,0.463921527344,-0.54316189137,nan,nan,nan,nan,nan,nan,nan,nan,742.336376546,1131.25431044,nan,1131.58335203,nan,nan,nan,nan
1,273,1,1,1.0,1.0,0.28326481994,0,0.0,0.0,0.0,0.26714864199,0.0938755507076,0.173273091282,0.361024192697,0.0938755507076,0.313080853977,148,1.0,-0.272695592461,0.0444264621409,nan,nan,nan,nan,nan,nan,nan,nan,742.336376546,1132.19618615,nan,1132.47945097,nan,nan,nan,nan
1,274,1,1,1.0,1.0,0.261541909014,0,0.0,0.0,0.0,0.267208111281,0.0937072836676,0.173500827613,0.360915394949,0.0937072836676,0.291282772649,221,0.851781464038,0.0945411604707,0.585422935822,nan,nan,nan,nan,nan,nan,nan,nan,742.336376546,1133.13787199,nan,1133.3994139,nan,nan,nan,nan
1,275,1,1,1.0,1.0,0.231687482039,0,0.0,0.0,0.0,0.267187279655,0.0935354976687,0.173651781986,0.360722777324,0.0935354976687,0.258831403664,398,-0.0220377755791,0.472608796233,-0.387943383198,nan,nan,nan,nan,nan,nan,nan,nan,742.336376546,1134.0797018,nan,1134.31138928,nan,nan,nan,nan
1,276,1,1,1.0,1.0,0.24979480193,0,0.0,0.0,0.0,0.267057243766,0.0933886580313,0.173668585735,0.360445901798,0.0933886580313,0.247674730994,342,-0.170052622031,0.462913557708,0.21407524247,nan,nan,nan,nan,nan,nan,nan,nan,742.336376546,1135.02149854,nan,1135.27129334,nan,nan,nan,nan
1,277,1,1,1.0,1.0,0.259579591337,0,0.0,0.0,0.0,0.266994242154,0.0932238969529,0.173770345201,0.360218139107,0.0932238969529,0.247020625102,201,1.0,-0.0135712615467,0.48142235136,nan,nan,nan,nan,nan,nan,nan,nan,742.336376546,1135.97163435,nan,1136.23121394,nan,nan,nan,nan
1,278,1,1,1.0,1.0,0.269508639409,0,0.0,0.0,0.0,0.266967279787,0.0930553148697,0.173911964917,0.360022594657,0.0930553148697,0.259627677558,498,0.731507943485,0.267561876527,-1.0,nan,nan,nan,nan,nan,nan,nan,nan,742.336376546,1136.92180835,nan,1137.19131699,nan,nan,nan,nan
1,279,0,0,1.0,0.0,0.167829621874,0,0.0,0.0,0.0,0.266976487612,0.0928867089313,0.174089778681,0.359863196543,0.0928867089313,0.232305950873,268,0.35230222188,0.302367520405,0.645005310408,nan,nan,nan,nan,nan,nan,nan,nan,742.336376546,1137.86346711,nan,1138.03129673,nan,nan,nan,nan
1,280,1,1,1.0,1.0,0.209618179128,0,0.0,0.0,0.0,0.266618556689,0.0929093779464,0.173709178742,0.359527934635,0.0929093779464,0.215652146804,183,1.0,-0.113108999915,0.354902835149,nan,nan,nan,nan,nan,nan,nan,nan,742.336376546,1138.81358951,nan,1139.02320769,nan,nan,nan,nan
1,281,0,0,0.0,1.0,0.411890852614,0,0.0,0.0,0.0,0.266413519359,0.0928048854692,0.17360863389,0.359218404829,0.0928048854692,0.263112884539,3,0.871087178923,0.199335109687,-1.0,nan,nan,nan,nan,nan,nan,nan,nan,742.336376546,1139.75536858,nan,1140.16725943,nan,nan,nan,nan
1,282,1,1,1.0,1.0,0.293707041303,0,0.0,0.0,0.0,0.266934943493,0.0930454739156,0.173889469577,0.359980417408,0.0930454739156,0.305072024348,400,-0.0107874812989,0.471427301814,-0.412692688905,nan,nan,nan,nan,nan,nan,nan,nan,742.336376546,1140.70551151,nan,1140.99921855,nan,nan,nan,nan
1,283,1,1,1.0,1.0,0.279593350075,0,0.0,0.0,0.0,0.267030558128,0.09289290273,0.174137655398,0.359923460858,0.09289290273,0.328397081331,486,0.631151757674,0.309603058574,-1.0,nan,nan,nan,nan,nan,nan,nan,nan,742.336376546,1141.6556037,nan,1141.93519705,nan,nan,nan,nan
1,284,1,1,1.0,1.0,0.241243624187,0,0.0,0.0,0.0,0.267075265573,0.0927304832239,0.174344782349,0.359805748796,0.0927304832239,0.271514671855,363,-0.162287729338,0.476365729747,0.00704812682028,nan,nan,nan,nan,nan,nan,nan,nan,742.336376546,1142.60581163,nan,1142.84705525,nan,nan,nan,nan
1,285,1,1,1.0,1.0,0.259598692763,0,0.0,0.0,0.0,0.266983664007,0.0925786565192,0.174405007488,0.359562320527,0.0925786565192,0.260145222341,11,0.934659501434,0.163852895862,-1.0,nan,nan,nan,nan,nan,nan,nan,nan,742.336376546,1143.54755135,nan,1143.80715004,nan,nan,nan,nan
1,286,1,1,1.0,1.0,0.261871195224,0,0.0,0.0,0.0,0.266957568703,0.0924159841999,0.174541584503,0.359373552903,0.0924159841999,0.254237837391,328,-0.132159558243,0.44685796506,0.336046158271,nan,nan,nan,nan,nan,nan,nan,nan,742.336376546,1144.4892791,nan,1144.75115029,nan,nan,nan,nan
1,287,1,1,1.0,1.0,0.255586247775,0,0.0,0.0,0.0,0.266939658937,0.0922536285115,0.174686030425,0.359193287448,0.0922536285115,0.25901871192,217,0.891250405156,0.0735373331823,0.568048345461,nan,nan,nan,nan,nan,nan,nan,nan,742.336376546,1145.4395298,nan,1145.69511604,nan,nan,nan,nan
1,288,1,1,1.0,1.0,0.273430423811,0,0.0,0.0,0.0,0.266899822406,0.0920940847701,0.174805737636,0.358993907177,0.0920940847701,0.263629288936,429,0.177531820842,0.442080780324,-0.901885199234,nan,nan,nan,nan,nan,nan,nan,nan,742.336376546,1146.38959917,nan,1146.6630296,nan,nan,nan,nan
1,289,1,1,1.0,1.0,0.283435307501,0,0.0,0.0,0.0,0.266922656677,0.0919337483363,0.174988908341,0.358856405013,0.0919337483363,0.270817326362,47,1.0,-0.0170755915744,-1.0,nan,nan,nan,nan,nan,nan,nan,nan,742.336376546,1147.33963349,nan,1147.62306879,nan,nan,nan,nan
1,290,1,1,1.0,1.0,0.205635669176,0,0.0,0.0,0.0,0.266980192046,0.0917786031967,0.175201588849,0.358758795243,0.0917786031967,0.254167133496,314,-0.0594438881467,0.42463230952,0.441925406839,nan,nan,nan,nan,nan,nan,nan,nan,742.336376546,1148.28141654,nan,1148.48705221,nan,nan,nan,nan
1,291,1,1,1.0,1.0,0.287422379013,0,0.0,0.0,0.0,0.26676719023,0.091690160424,0.175077029806,0.358457350654,0.091690160424,0.258831118563,182,1.0,-0.118523835432,0.347089474713,nan,nan,nan,nan,nan,nan,nan,nan,742.336376546,1149.23159397,nan,1149.51901635,nan,nan,nan,nan
1,292,0,0,1.0,0.0,0.129365287314,0,0.0,0.0,0.0,0.266838661472,0.0915394253921,0.17529923608,0.358378086864,0.0915394253921,0.207474445167,22,1.0,0.111842423158,-1.0,nan,nan,nan,nan,nan,nan,nan,nan,742.336376546,1150.18164567,nan,1150.31101096,nan,nan,nan,nan
1,293,1,1,1.0,1.0,0.339223517454,0,0.0,0.0,0.0,0.266364615354,0.091736119871,0.174628495483,0.358100735225,0.091736119871,0.252003727927,482,0.597655625539,0.322480811492,-1.0,nan,nan,nan,nan,nan,nan,nan,nan,742.336376546,1151.13175297,nan,1151.47097649,nan,nan,nan,nan
1,294,1,1,1.0,1.0,0.33309195179,0,0.0,0.0,0.0,0.266614989588,0.0916775637527,0.174937425835,0.358292553341,0.0916775637527,0.267226918853,8,0.91102658764,0.177400941622,-1.0,nan,nan,nan,nan,nan,nan,nan,nan,742.336376546,1152.08187081,nan,1152.41496277,nan,nan,nan,nan
1,295,1,1,1.0,1.0,0.302945586271,0,0.0,0.0,0.0,0.266842650417,0.0916028088441,0.175239841573,0.358445459262,0.0916028088441,0.325087018505,263,0.405698801511,0.284171736334,0.651829885785,nan,nan,nan,nan,nan,nan,nan,nan,742.336376546,1153.03198638,nan,1153.33493196,nan,nan,nan,nan
1,296,1,1,1.0,1.0,0.264732136391,0,0.0,0.0,0.0,0.266965868629,0.0914705934426,0.175495275186,0.358436462071,0.0914705934426,0.300256558151,209,0.967301840512,0.0304835193525,0.52804999659,nan,nan,nan,nan,nan,nan,nan,nan,742.336376546,1153.98210679,nan,1154.24683892,nan,nan,nan,nan
1,297,0,0,0.0,1.0,0.354685143917,0,0.0,0.0,0.0,0.2669582709,0.0913149913138,0.175643279586,0.358273262214,0.0913149913138,0.30745428886,440,0.258699398066,0.424657399123,-1.0,nan,nan,nan,nan,nan,nan,nan,nan,742.336376546,1154.93221465,nan,1155.2868998,nan,nan,nan,nan
1,298,1,1,1.0,1.0,0.292402155697,0,0.0,0.0,0.0,0.26725565013,0.0913025820983,0.175953068032,0.358558232229,0.0913025820983,0.303939812002,217,0.891250405156,0.0735373331823,0.568048345461,nan,nan,nan,nan,nan,nan,nan,nan,742.336376546,1155.88234333,nan,1156.17474549,nan,nan,nan,nan
1,299,1,1,1.0,1.0,0.270381319104,0,0.0,0.0,0.0,0.267340604541,0.0911599028047,0.176180701736,0.358500507346,0.0911599028047,0.305822872906,18,0.988682696815,0.131162580546,-1.0,nan,nan,nan,nan,nan,nan,nan,nan,742.336376546,1156.832478,nan,1157.10285932,nan,nan,nan,nan
1,300,1,1,1.0,1.0,0.29618025152,0,0.0,0.0,0.0,0.267350842637,0.0910064760175,0.17634436662,0.358357318655,0.0910064760175,0.286321242107,449,0.328095008353,0.407646248688,-1.0,nan,nan,nan,nan,nan,nan,nan,nan,742.336376546,1157.78265115,nan,1158.0788314,nan,nan,nan,nan
1,301,1,1,1.0,1.0,0.321929292171,0,0.0,0.0,0.0,0.26744758562,0.0908689485745,0.176578637046,0.358316534195,0.0908689485745,0.296163620932,136,1.0,-0.301914900238,-0.074841205769,nan,nan,nan,nan,nan,nan,nan,nan,742.336376546,1158.73275445,nan,1159.05468375,nan,nan,nan,nan
1,302,1,1,1.0,1.0,0.363977572008,0,0.0,0.0,0.0,0.267629798686,0.0907713828969,0.176858415789,0.358401181582,0.0907713828969,0.3273623719,461,0.423959648591,0.380927367285,-1.0,nan,nan,nan,nan,nan,nan,nan,nan,742.336376546,1159.68279817,nan,1160.04677575,nan,nan,nan,nan
1,303,0,0,1.0,0.0,0.293857001991,0,0.0,0.0,0.0,0.26795095793,0.0907899717736,0.177160986156,0.358740929704,0.0907899717736,0.32658795539,24,1.0,0.102019060141,-1.0,nan,nan,nan,nan,nan,nan,nan,nan,742.336376546,1160.63291459,nan,1160.9267716,nan,nan,nan,nan
1,304,1,1,1.0,1.0,0.199717070442,0,0.0,0.0,0.0,0.268037024521,0.0906512902912,0.17738573423,0.358688314813,0.0906512902912,0.285850548147,304,0.0113092810281,0.404708921832,0.506160370659,nan,nan,nan,nan,nan,nan,nan,nan,742.336376546,1161.58302816,nan,1161.78274523,nan,nan,nan,nan
1,305,1,1,1.0,1.0,0.281585317745,0,0.0,0.0,0.0,0.267810799508,0.0905861476902,0.177224651818,0.358396947198,0.0905861476902,0.258386463393,398,-0.0220377755791,0.472608796233,-0.387943383198,nan,nan,nan,nan,nan,nan,nan,nan,742.336376546,1162.53314914,nan,1162.81473446,nan,nan,nan,nan
1,306,0,0,0.0,1.0,0.371417444549,0,0.0,0.0,0.0,0.267856259964,0.0904399926409,0.177416267323,0.358296252605,0.0904399926409,0.284239944245,275,0.279002393219,0.326185254474,0.630178474337,nan,nan,nan,nan,nan,nan,nan,nan,742.336376546,1163.48327468,nan,1163.85469213,nan,nan,nan,nan
1,307,1,1,1.0,1.0,0.253357650188,0,0.0,0.0,0.0,0.268196921756,0.0904856323483,0.177711289407,0.358682554104,0.0904856323483,0.302120137494,50,1.0,-0.033148730948,-1.0,nan,nan,nan,nan,nan,nan,nan,nan,742.336376546,1164.43334235,nan,1164.6867,nan,nan,nan,nan
1,308,1,1,1.0,1.0,0.247539120202,0,0.0,0.0,0.0,0.268148268406,0.0903411562998,0.177807112106,0.358489424706,0.0903411562998,0.29077140498,495,0.706485112283,0.278551693791,-1.0,nan,nan,nan,nan,nan,nan,nan,nan,742.336376546,1165.37512712,nan,1165.62266624,nan,nan,nan,nan
1,309,0,0,1.0,0.0,0.233689428074,0,0.0,0.0,0.0,0.268080918249,0.0902010884977,0.177879829751,0.358282006746,0.0902010884977,0.244862066155,139,1.0,-0.296335611021,-0.0445992895203,nan,nan,nan,nan,nan,nan,nan,nan,742.336376546,1166.31693982,nan,1166.55062925,nan,nan,nan,nan
1,310,1,1,1.0,1.0,0.283547065279,0,0.0,0.0,0.0,0.267968893851,0.0900753801218,0.177893513729,0.358044273973,0.0900753801218,0.254925204519,46,1.0,-0.0117313672748,-1.0,nan,nan,nan,nan,nan,nan,nan,nan,742.336376546,1167.26705596,nan,1167.55060302,nan,nan,nan,nan
1,311,1,1,1.0,1.0,0.429319358314,0,0.0,0.0,0.0,0.268019472329,0.0899334014316,0.178086070898,0.357952873761,0.0899334014316,0.315518617223,436,0.228681708805,0.431413732101,-1.0,nan,nan,nan,nan,nan,nan,nan,nan,742.336376546,1168.2171738,nan,1168.64649316,nan,nan,nan,nan
1,312,1,1,1.0,1.0,0.375313855417,0,0.0,1.0,0.0,0.268541478433,0.0902539135792,0.178287564854,0.358795392012,0.0902539135792,0.36272675967,504,0.78128615449,0.244628286196,-1.0,nan,nan,nan,nan,nan,nan,nan,nan,742.336376546,1169.16728965,nan,1169.5426035,nan,nan,nan,nan
1,313,1,1,1.0,1.0,0.320972794085,1,0.0,0.0,1.0,0.268885905455,0.0903113996368,0.178574505819,0.359197305092,0.0903113996368,0.375202002605,383,-0.0968787136249,0.478131214543,-0.211081409456,-117.563569327,207.563569327,-61.7333056728,295.0,0.0860222946478,0.38372732295,0.554986075565,1.26711012441,742.336376546,1170.11746736,1170.92582365,1170.43844016,1173.23438335,1174.24269819,1171.95091897,1173.22605056
1,314,1,1,1.0,1.0,0.333456589957,0,0.0,0.0,0.0,0.269053387412,0.0902142943719,0.178839093041,0.359267681784,0.0902142943719,0.343247746486,270,0.331159066004,0.309369715406,0.641393874915,nan,nan,nan,nan,nan,nan,nan,nan,742.336376546,1174.39298298,nan,1174.72643957,nan,nan,nan,nan
1,315,1,1,1.0,1.0,0.287367925572,0,0.0,0.0,0.0,0.269259807933,0.0901431368723,0.179116671061,0.359402944806,0.0901431368723,0.313932436538,338,-0.162891363375,0.458928707883,0.250399161362,nan,nan,nan,nan,nan,nan,nan,nan,742.336376546,1175.3430535,nan,1175.63042143,nan,nan,nan,nan
1,316,1,1,1.0,1.0,0.22515592631,0,0.0,0.0,0.0,0.269317661344,0.0900048244246,0.17931283692,0.359322485769,0.0900048244246,0.281993480613,190,1.0,-0.0746884387243,0.407399635172,nan,nan,nan,nan,nan,nan,nan,nan,742.336376546,1176.29316194,nan,1176.51831786,nan,nan,nan,nan
1,317,1,1,1.0,1.0,0.235114339273,0,0.0,0.0,0.0,0.269177018876,0.0898958325553,0.179281186321,0.359072851431,0.0898958325553,0.249212730385,346,-0.174317561957,0.466431294057,0.176670174816,nan,nan,nan,nan,nan,nan,nan,nan,742.336376546,1177.24327237,nan,1177.47838671,nan,nan,nan,nan
1,318,1,1,1.0,1.0,0.204956284782,0,0.0,0.0,0.0,0.269068883385,0.0897734794145,0.179295403971,0.3588423628,0.0897734794145,0.221742183455,98,1.0,-0.263822910468,-0.480217789416,nan,nan,nan,nan,nan,nan,nan,nan,742.336376546,1178.19339563,nan,1178.39835192,nan,nan,nan,nan
1,319,1,1,1.0,1.0,0.198827855114,0,0.0,0.0,0.0,0.268865995415,0.089703623531,0.179162371884,0.358569618946,0.089703623531,0.212966159723,151,1.0,-0.262720288689,0.0734626651272,nan,nan,nan,nan,nan,nan,nan,nan,742.336376546,1179.14350692,nan,1179.34233477,nan,nan,nan,nan
1,320,1,1,1.0,1.0,0.2650297769,0,0.0,0.0,0.0,0.268645054909,0.0896480980497,0.17899695686,0.358293152959,0.0896480980497,0.222937972265,3,0.871087178923,0.199335109687,-1.0,nan,nan,nan,nan,nan,nan,nan,nan,742.336376546,1180.08528484,nan,1180.35031462,nan,nan,nan,nan
1,321,1,1,1.0,1.0,0.323258410965,0,0.0,0.0,0.0,0.268633686111,0.0895072598078,0.179126426303,0.358140945918,0.0895072598078,0.262372014326,388,-0.0739633693698,0.476941921698,-0.268577162136,nan,nan,nan,nan,nan,nan,nan,nan,742.336376546,1181.02706447,nan,1181.35032289,nan,nan,nan,nan
1,322,1,1,1.0,1.0,0.309083709086,0,0.0,0.0,0.0,0.268804923493,0.0894190105935,0.179385912899,0.358223934086,0.0894190105935,0.29912396565,209,0.967301840512,0.0304835193525,0.52804999659,nan,nan,nan,nan,nan,nan,nan,nan,742.336376546,1181.97718631,nan,1182.28627002,nan,nan,nan,nan
1,323,1,1,1.0,1.0,0.278856661287,0,0.0,0.0,0.0,0.268930794698,0.0893074845852,0.179623310112,0.358238279283,0.0893074845852,0.303732927113,317,-0.077772836126,0.429938605076,0.420733606481,nan,nan,nan,nan,nan,nan,nan,nan,742.336376546,1182.9272899,nan,1183.20614656,nan,nan,nan,nan
1,324,1,1,1.0,1.0,0.280724897166,0,0.0,0.0,0.0,0.2689617164,0.0891699835091,0.179791732891,0.358131699909,0.0891699835091,0.28955508918,127,1.0,-0.31111021432,-0.167036648065,nan,nan,nan,nan,nan,nan,nan,nan,742.336376546,1183.87750183,nan,1184.15822672,nan,nan,nan,nan
1,325,1,1,1.0,1.0,0.306599380099,0,0.0,0.0,0.0,0.268998248018,0.0890338189556,0.179964429062,0.358032066973,0.0890338189556,0.288726979517,385,-0.0879796604702,0.477733444059,-0.233926720364,nan,nan,nan,nan,nan,nan,nan,nan,742.336376546,1184.82759857,nan,1185.13419795,nan,nan,nan,nan
1,326,1,1,1.0,1.0,0.220507146383,0,0.0,0.0,0.0,0.269114660191,0.0889204292338,0.180194230957,0.358035089425,0.0889204292338,0.269277141216,291,0.122027637739,0.373441943191,0.573791926984,nan,nan,nan,nan,nan,nan,nan,nan,742.336376546,1185.77768249,nan,1185.99818964,nan,nan,nan,nan
1,327,1,1,1.0,1.0,0.246653040929,0,0.0,0.0,0.0,0.268964637,0.088824031922,0.180140605079,0.357788668922,0.088824031922,0.257919855804,459,0.407758158413,0.385709174134,-1.0,nan,nan,nan,nan,nan,nan,nan,nan,742.336376546,1186.71942934,nan,1186.96608238,nan,nan,nan,nan
1,328,1,1,1.0,1.0,0.200566087151,0,0.0,0.0,0.0,0.268895985936,0.08869588278,0.180200103156,0.357591868716,0.08869588278,0.222575424821,416,0.087881616042,0.458117504295,-0.630165317015,nan,nan,nan,nan,nan,nan,nan,nan,742.336376546,1187.66960705,nan,1187.87017314,nan,nan,nan,nan
1,329,1,1,1.0,1.0,0.250452234002,0,0.0,0.0,0.0,0.268686385019,0.0886403176947,0.180046067324,0.357326702714,0.0886403176947,0.232557120694,360,-0.167709501072,0.475188317955,0.0381258551808,nan,nan,nan,nan,nan,nan,nan,nan,742.336376546,1188.61966132,nan,1188.87011356,nan,nan,nan,nan
1,330,1,1,1.0,1.0,0.29232403927,0,0.0,0.0,0.0,0.268630623089,0.0885104046777,0.180120218412,0.357141027767,0.0885104046777,0.247780786808,509,0.822386376617,0.224555004187,-1.0,nan,nan,nan,nan,nan,nan,nan,nan,742.336376546,1189.56977603,nan,1189.86210007,nan,nan,nan,nan
1,331,1,1,1.0,1.0,0.286513492058,0,0.0,0.0,0.0,0.268702859114,0.0883850304653,0.180317828649,0.35708788958,0.0883850304653,0.276429921777,108,1.0,-0.292426609412,-0.368663285579,nan,nan,nan,nan,nan,nan,nan,nan,742.336376546,1190.51159415,nan,1190.79810764,nan,nan,nan,nan
1,332,1,1,1.0,1.0,0.224406978348,0,0.0,0.0,0.0,0.268756994777,0.0882560505111,0.180500944266,0.357013045288,0.0882560505111,0.267748169892,473,0.522594813828,0.349396171415,-1.0,nan,nan,nan,nan,nan,nan,nan,nan,742.336376546,1191.46166752,nan,1191.6860745,nan,nan,nan,nan
1,333,1,1,1.0,1.0,0.250122377591,0,0.0,0.0,0.0,0.268622600788,0.0881559376338,0.180466663154,0.356778538421,0.0881559376338,0.253680949332,361,-0.166047812515,0.475607712818,0.0278173107143,nan,nan,nan,nan,nan,nan,nan,nan,742.336376546,1192.41178679,nan,1192.66190917,nan,nan,nan,nan
1,334,1,1,1.0,1.0,0.164009901986,0,0.0,0.0,0.0,0.268566708875,0.0880285264543,0.18053818242,0.356595235329,0.0880285264543,0.212846419308,299,0.0516645560415,0.393417669654,0.534378752182,nan,nan,nan,nan,nan,nan,nan,nan,742.336376546,1193.36190834,nan,1193.52591825,nan,nan,nan,nan
1,335,1,1,1.0,1.0,0.26231166895,0,0.0,0.0,0.0,0.268251778733,0.0880824043301,0.180169374403,0.356334183063,0.0880824043301,0.225481316176,196,1.0,-0.0413610816081,0.449130757868,nan,nan,nan,nan,nan,nan,nan,nan,742.336376546,1194.30368826,nan,1194.56599993,nan,nan,nan,nan
1,336,1,1,1.0,1.0,0.168179149914,0,0.0,0.0,0.0,0.268233940566,0.0879506496074,0.180283290959,0.356184590173,0.0879506496074,0.19816690695,280,0.228089347314,0.342018854333,0.61587222022,nan,nan,nan,nan,nan,nan,nan,nan,742.336376546,1195.25379499,nan,1195.42197414,nan,nan,nan,nan
1,337,1,1,1.0,1.0,0.194422547414,0,0.0,0.0,0.0,0.267934375324,0.0879888648268,0.179945510498,0.355923240151,0.0879888648268,0.208304455426,50,1.0,-0.033148730948,-1.0,nan,nan,nan,nan,nan,nan,nan,nan,742.336376546,1196.19557548,nan,1196.38999802,nan,nan,nan,nan
1,338,1,1,1.0,1.0,0.108209147758,0,1.0,0.0,0.0,0.267714937032,0.0879489222342,0.179766014798,0.355663859266,0.0879489222342,0.156936948362,439,0.251144291643,0.426392204401,-1.0,nan,nan,nan,nan,nan,nan,nan,nan,742.336376546,1197.14570587,nan,1197.25391501,nan,nan,nan,nan
1,339,1,1,1.0,1.0,0.166083692282,1,0.0,0.0,1.0,0.267240217421,0.0882467405511,0.17899347687,0.355486957972,0.0882467405511,0.156238462485,501,0.7564492333,0.256253544744,-1.0,84.2894068625,5.7105931375,13.4449681375,8.0,0.91102658764,0.177400941622,-1.0,1.6338901929,742.336376546,1198.09581031,1198.90422647,1198.261894,1201.57130472,1202.5717603,1199.92100125,1201.56295111
1,340,1,1,1.0,1.0,0.260422335879,0,0.0,0.0,0.0,0.266940049691,0.0882873307508,0.17865271894,0.355227380442,0.0882873307508,0.178238391973,224,0.821619416966,0.11002478857,0.597264883709,nan,nan,nan,nan,nan,nan,nan,nan,742.336376546,1202.7213851,nan,1202.98180744,nan,nan,nan,nan
1,341,1,1,1.0,1.0,0.28665489977,0,0.0,0.0,0.0,0.266920766514,0.0881573421708,0.178763424343,0.355078108685,0.0881573421708,0.23772030931,146,1.0,-0.278792578557,0.0248813210997,nan,nan,nan,nan,nan,nan,nan,nan,742.336376546,1203.66313309,nan,1203.94978799,nan,nan,nan,nan
1,342,1,1,1.0,1.0,0.240471298341,0,0.0,0.0,0.0,0.266978979296,0.088033726207,0.178945253089,0.355012705503,0.088033726207,0.262516177997,451,0.343830962376,0.403518361206,-1.0,nan,nan,nan,nan,nan,nan,nan,nan,742.336376546,1204.61326604,nan,1204.85373734,nan,nan,nan,nan
1,343,1,1,1.0,1.0,0.162365751748,0,0.0,0.0,0.0,0.266901015529,0.0879158892238,0.178985126305,0.354816904753,0.0879158892238,0.229830649953,226,0.801265930663,0.120208988367,0.60458276857,nan,nan,nan,nan,nan,nan,nan,nan,742.336376546,1205.56338588,nan,1205.72575163,nan,nan,nan,nan
1,344,1,1,1.0,1.0,0.212189177342,0,0.0,0.0,0.0,0.266594460503,0.0879686826453,0.178625777858,0.354563143148,0.0879686826453,0.205008742477,170,1.0,-0.180990482069,0.247815061387,nan,nan,nan,nan,nan,nan,nan,nan,742.336376546,1206.513508,nan,1206.72569718,nan,nan,nan,nan
1,345,1,1,1.0,1.0,0.229806986987,0,0.0,0.0,0.0,0.266435380728,0.0878890860062,0.178546294722,0.354324466734,0.0878890860062,0.201453972026,116,1.0,-0.306446923025,-0.282515442494,nan,nan,nan,nan,nan,nan,nan,nan,742.336376546,1207.46374245,nan,1207.69354944,nan,nan,nan,nan
1,346,0,0,1.0,0.0,0.239895403851,0,0.0,0.0,0.0,0.266328592408,0.0877830914054,0.178545501002,0.354111683813,0.0877830914054,0.227297189393,452,0.351738073422,0.401406211611,-1.0,nan,nan,nan,nan,nan,nan,nan,nan,742.336376546,1208.41376821,nan,1208.65366362,nan,nan,nan,nan
1,347,1,1,1.0,1.0,0.257778638101,0,0.0,0.0,0.0,0.266251751743,0.0876669583582,0.178584793385,0.353918710102,0.0876669583582,0.242493676313,342,-0.170052622031,0.462913557708,0.21407524247,nan,nan,nan,nan,nan,nan,nan,nan,742.336376546,1209.36384757,nan,1209.62162621,nan,nan,nan,nan
1,348,1,1,1.0,1.0,0.315485260973,0,0.0,0.0,0.0,0.266227191994,0.0875409977288,0.178686194265,0.353768189722,0.0875409977288,0.271053100975,278,0.248285521772,0.335802812283,0.621962573991,nan,nan,nan,nan,nan,nan,nan,nan,742.336376546,1210.3139982,nan,1210.62948346,nan,nan,nan,nan
1,349,1,1,1.0,1.0,0.197428032407,0,0.0,0.0,0.0,0.266369556355,0.0874543879882,0.178915168367,0.353823944343,0.0874543879882,0.256897310494,85,1.0,-0.212156452387,-0.638781227021,nan,nan,nan,nan,nan,nan,nan,nan,742.336376546,1211.26408126,nan,1211.46150929,nan,nan,nan,nan
1,350,1,1,1.0,1.0,0.255310274544,0,0.0,0.0,0.0,0.266170877612,0.0874064448232,0.178764432788,0.353577322435,0.0874064448232,0.256074522641,402,0.000724920831492,0.470139955471,-0.437811562499,nan,nan,nan,nan,nan,nan,nan,nan,742.336376546,1212.21425242,nan,1212.46956269,nan,nan,nan,nan
1,351,1,1,1.0,1.0,0.281128023344,0,0.0,0.0,0.0,0.266139668982,0.0872827065923,0.17885696239,0.353422375574,0.0872827065923,0.244622110098,489,0.656284860842,0.299572439858,-1.0,nan,nan,nan,nan,nan,nan,nan,nan,742.336376546,1213.16431724,nan,1213.44544526,nan,nan,nan,nan
1,352,1,1,1.0,1.0,0.24302119948,0,0.0,0.0,0.0,0.266182615556,0.0871612521008,0.179021363455,0.353343867657,0.0871612521008,0.259819832456,393,-0.0489456633786,0.475102171109,-0.327443230616,nan,nan,nan,nan,nan,nan,nan,nan,742.336376546,1214.1144308,nan,1214.357452,nan,nan,nan,nan
1,353,1,1,1.0,1.0,0.140960438061,0,0.0,0.0,0.0,0.266116440082,0.0870454263725,0.179071013709,0.353161866454,0.0870454263725,0.221703220295,256,0.481312611765,0.257047908656,0.656065722404,nan,nan,nan,nan,nan,nan,nan,nan,742.336376546,1215.06454295,nan,1215.20550338,nan,nan,nan,nan
1,354,1,1,1.0,1.0,0.23874789133,0,0.0,0.0,0.0,0.265759870275,0.0871769426755,0.1785829276,0.352936812951,0.0871769426755,0.207576509623,199,1.0,-0.0246761787097,0.468786302982,nan,nan,nan,nan,nan,nan,nan,nan,742.336376546,1216.01466193,nan,1216.25340982,nan,nan,nan,nan
1,355,1,1,1.0,1.0,0.224528429389,0,0.0,0.0,0.0,0.265683131699,0.0870648948223,0.178618236876,0.352748026521,0.0870648948223,0.201412252927,230,0.760023132926,0.140224214653,0.61781109556,nan,nan,nan,nan,nan,nan,nan,nan,742.336376546,1216.96486588,nan,1217.1893943,nan,nan,nan,nan
1,356,1,1,1.0,1.0,0.218380042992,0,0.0,0.0,0.0,0.26556654614,0.0869689969823,0.178597549158,0.352535543122,0.0869689969823,0.227218787904,118,1.0,-0.308588151016,-0.261285249573,nan,nan,nan,nan,nan,nan,nan,nan,742.336376546,1217.91497118,nan,1218.13335122,nan,nan,nan,nan
1,357,1,1,1.0,1.0,0.212753953063,0,0.0,0.0,0.0,0.265433250933,0.0868821747155,0.178551076218,0.352315425649,0.0868821747155,0.218554141815,350,-0.175756816429,0.469490941964,0.138247479403,nan,nan,nan,nan,nan,nan,nan,nan,742.336376546,1218.8566687,nan,1219.06942265,nan,nan,nan,nan
1,358,1,1,1.0,1.0,0.24650792696,0,0.0,0.0,0.0,0.265284858545,0.0868046315294,0.178480227015,0.352089490074,0.0868046315294,0.225880641005,510,0.830554458933,0.220436700166,-1.0,nan,nan,nan,nan,nan,nan,nan,nan,742.336376546,1219.80687835,nan,1220.05338627,nan,nan,nan,nan
1,359,1,1,1.0,1.0,0.192332791747,0,0.0,0.0,0.0,0.265232114355,0.0866883255863,0.178543788769,0.351920439941,0.0866883255863,0.217198223923,416,0.087881616042,0.458117504295,-0.630165317015,nan,nan,nan,nan,nan,nan,nan,nan,742.336376546,1220.75691152,nan,1220.94924431,nan,nan,nan,nan
1,360,1,1,1.0,1.0,0.226333659026,0,0.0,0.0,0.0,0.265027914572,0.0866525249317,0.17837538964,0.351680439503,0.0866525249317,0.221724792578,504,0.78128615449,0.244628286196,-1.0,nan,nan,nan,nan,nan,nan,nan,nan,742.336376546,1221.70702423,nan,1221.93335789,nan,nan,nan,nan
1,361,1,1,1.0,1.0,0.156182298495,0,0.0,0.0,0.0,0.264919830059,0.0865555124397,0.178364317619,0.351475342499,0.0865555124397,0.191616249756,440,0.258699398066,0.424657399123,-1.0,nan,nan,nan,nan,nan,nan,nan,nan,742.336376546,1222.65713979,nan,1222.81332209,nan,nan,nan,nan
1,362,1,1,1.0,1.0,0.214000964188,0,0.0,0.0,0.0,0.264616939999,0.0866246606173,0.177992279382,0.351241600616,0.0866246606173,0.198838973903,487,0.639529740128,0.306295026098,-1.0,nan,nan,nan,nan,nan,nan,nan,nan,742.336376546,1223.60728558,nan,1223.82128654,nan,nan,nan,nan
1,363,1,1,1.0,1.0,0.031994359626,0,1.0,0.0,0.0,0.264476340066,0.0865452753432,0.177931064723,0.351021615409,0.0865452753432,0.134059207436,403,0.00657627305109,0.469456436931,-0.450524507496,nan,nan,nan,nan,nan,nan,nan,nan,742.336376546,1224.55740342,nan,1224.58939778,nan,nan,nan,nan
1,364,0,0,1.0,0.0,0.00177472428186,0,0.0,0.0,0.0,0.263832345661,0.0872848147918,0.176547530869,0.351117160452,0.0872848147918,0.0825900160319,94,1.0,-0.249439013202,-0.526745155233,nan,nan,nan,nan,nan,nan,nan,nan,742.336376546,1225.50751443,nan,1225.50928915,nan,nan,nan,nan
1,365,1,1,1.0,1.0,0.539626244514,0,0.0,0.0,0.0,0.263108429579,0.0882427141539,0.174865715425,0.351351143733,0.0882427141539,0.191131776141,192,1.0,-0.0635997558896,0.421658406928,nan,nan,nan,nan,nan,nan,nan,nan,742.336376546,1226.45760062,nan,1226.99722687,nan,nan,nan,nan
1,366,0,0,1.0,0.0,0.293490083073,0,0.0,0.0,0.0,0.263870186645,0.0893050085471,0.174565178098,0.353175195192,0.0893050085471,0.27829701729,245,0.600577697281,0.210610106048,0.650172825369,nan,nan,nan,nan,nan,nan,nan,nan,742.336376546,1227.40773158,nan,1227.70122167,nan,nan,nan,nan
1,367,1,1,1.0,1.0,0.375353768875,0,0.0,0.0,0.0,0.263951559987,0.0891957274919,0.174755832495,0.353147287479,0.0891957274919,0.402823365487,374,-0.132039125116,0.478634076427,-0.110628443238,nan,nan,nan,nan,nan,nan,nan,nan,742.336376546,1228.3578309,nan,1228.73318467,nan,nan,nan,nan
1,368,1,1,1.0,1.0,0.257023418148,0,0.0,0.0,0.0,0.264256771518,0.0892635925896,0.174993178929,0.353520364108,0.0892635925896,0.308622423365,436,0.228681708805,0.431413732101,-1.0,nan,nan,nan,nan,nan,nan,nan,nan,742.336376546,1229.30804681,nan,1229.56507023,nan,nan,nan,nan
1,369,1,1,1.0,1.0,0.266997796483,0,0.0,0.0,0.0,0.264237008258,0.0891423640275,0.17509464423,0.353379372285,0.0891423640275,0.299791661169,144,1.0,-0.284423189345,0.00519445478499,nan,nan,nan,nan,nan,nan,nan,nan,742.336376546,1230.2581524,nan,1230.5251502,nan,nan,nan,nan
1,370,0,0,1.0,0.0,0.204954574176,0,0.0,0.0,0.0,0.264244530841,0.0890209501528,0.175223580689,0.353265480994,0.0890209501528,0.242991929602,208,0.97651257568,0.025020743352,0.522574479073,nan,nan,nan,nan,nan,nan,nan,nan,742.336376546,1231.20818215,nan,1231.41313672,nan,nan,nan,nan
1,371,1,1,1.0,1.0,0.422697141883,0,0.0,0.0,0.0,0.264083416829,0.08895347919,0.175129937639,0.353036896019,0.08895347919,0.298216504181,294,0.0948761993654,0.381212130724,0.559858230992,nan,nan,nan,nan,nan,nan,nan,nan,742.336376546,1232.15828745,nan,1232.58098459,nan,nan,nan,nan
1,372,1,1,1.0,1.0,0.288654850156,0,0.0,0.0,0.0,0.264513264322,0.0892147561431,0.175298508179,0.353728020465,0.0892147561431,0.305435522071,480,0.580928072941,0.32870764083,-1.0,nan,nan,nan,nan,nan,nan,nan,nan,742.336376546,1233.10841356,nan,1233.39706841,nan,nan,nan,nan
