block,trial,freq_trials,correct_response,actual_response,acc,rts,probe_trials,fast_rt_trigger,slow_rt_trigger,rt_triggered,rts_runningavg,rts_runningstd,rts_runningfastthresh,rts_runningslowthresh,rts_runningstd,rts_trailingavg,trials_colorind0,trials_colorind1,trials_colorind2,trials_colorind3,trials_colorind4,trials_colorind5,wholereport_resp0,wholereport_resp1,wholereport_resp2,wholereport_resp3,wholereport_resp4,wholereport_resp5,wholereport_respacc0,wholereport_respacc1,wholereport_respacc2,wholereport_respacc3,wholereport_respacc4,wholereport_respacc5,wholereport_respacc_total,wholereport_respcolorind0,wholereport_respcolorind1,wholereport_respcolorind2,wholereport_respcolorind3,wholereport_respcolorind4,wholereport_respcolorind5,wholereport_resporder0,wholereport_resporder1,wholereport_resporder2,wholereport_resporder3,wholereport_resporder4,wholereport_resporder5,wholereport_rts0,wholereport_rts1,wholereport_rts2,wholereport_rts3,wholereport_rts4,wholereport_rts5,time_blockstart,time_encarray_offset,time_encarray_onset,time_response,time_iti_offset,time_iti_onset,time_memprobe_offset,time_memprobe_onset
1,1,1,1,1.0,1.0,0.39229704067111015,0,nan,nan,nan,nan,nan,nan,nan,nan,nan,5,1,8,2,6,0,nan,nan,nan,nan,nan,nan,nan,nan,nan,nan,nan,nan,0.0,nan,nan,nan,nan,nan,nan,nan,nan,nan,nan,nan,nan,nan,nan,nan,nan,nan,nan,1943.5709928221295,1944.6026929624277,nan,1944.9949900030988,nan,nan,nan,nan
1,2,1,1,1.0,1.0,0.46307133650770993,0,nan,nan,nan,nan,nan,nan,nan,nan,nan,2,0,3,7,8,1,nan,nan,nan,nan,nan,nan,nan,nan,nan,nan,nan,nan,0.0,nan,nan,nan,nan,nan,nan,nan,nan,nan,nan,nan,nan,nan,nan,nan,nan,nan,nan,1943.5709928221295,1945.6279028859426,nan,1946.0909742224503,nan,nan,nan,nan
1,3,1,1,1.0,1.0,0.43034513470047386,0,nan,nan,nan,nan,nan,nan,nan,nan,nan,5,1,2,0,3,7,nan,nan,nan,nan,nan,nan,nan,nan,nan,nan,nan,nan,0.0,nan,nan,nan,nan,nan,nan,nan,nan,nan,nan,nan,nan,nan,nan,nan,nan,nan,nan,1943.5709928221295,1946.6446112384401,nan,1947.0749563731406,nan,nan,nan,nan
1,4,1,1,1.0,1.0,0.5095540039328625,0,nan,nan,nan,nan,nan,nan,nan,nan,nan,7,0,8,3,6,2,nan,nan,nan,nan,nan,nan,nan,nan,nan,nan,nan,nan,0.0,nan,nan,nan,nan,nan,nan,nan,nan,nan,nan,nan,nan,nan,nan,nan,nan,nan,nan,1943.5709928221295,1947.6614165236679,nan,1948.1709705276007,nan,nan,nan,nan
1,5,1,1,1.0,1.0,0.4127019515108259,0,nan,nan,nan,nan,nan,nan,nan,nan,nan,8,1,2,4,5,0,nan,nan,nan,nan,nan,nan,nan,nan,nan,nan,nan,nan,0.0,nan,nan,nan,nan,nan,nan,nan,nan,nan,nan,nan,nan,nan,nan,nan,nan,nan,nan,1943.5709928221295,1948.678196150231,nan,1949.090898101742,nan,nan,nan,nan
1,6,1,1,1.0,1.0,0.38789600942254765,0,nan,nan,nan,nan,nan,nan,nan,nan,nan,4,6,1,8,7,5,nan,nan,nan,nan,nan,nan,nan,nan,nan,nan,nan,nan,0.0,nan,nan,nan,nan,nan,nan,nan,nan,nan,nan,nan,nan,nan,nan,nan,nan,nan,nan,1943.5709928221295,1949.694988891224,nan,1950.0828849006466,nan,nan,nan,nan
1,7,1,1,1.0,1.0,0.34708219639287563,0,nan,nan,nan,nan,nan,nan,nan,nan,nan,6,3,0,7,2,4,nan,nan,nan,nan,nan,nan,nan,nan,nan,nan,nan,nan,0.0,nan,nan,nan,nan,nan,nan,nan,nan,nan,nan,nan,nan,nan,nan,nan,nan,nan,nan,1943.5709928221295,1950.7117750750003,nan,1951.0588572713932,nan,nan,nan,nan
1,8,1,1,1.0,1.0,0.41792605571754393,0,nan,nan,nan,nan,nan,nan,nan,nan,nan,3,0,8,4,5,2,nan,nan,nan,nan,nan,nan,nan,nan,nan,nan,nan,nan,0.0,nan,nan,nan,nan,nan,nan,nan,nan,nan,nan,nan,nan,nan,nan,nan,nan,nan,nan,1943.5709928221295,1951.7369011802148,nan,1952.1548272359323,nan,nan,nan,nan
1,9,1,1,1.0,1.0,0.7771080232669192,0,nan,nan,nan,nan,nan,nan,nan,nan,nan,6,7,2,5,0,4,nan,nan,nan,nan,nan,nan,nan,nan,nan,nan,nan,nan,0.0,nan,nan,nan,nan,nan,nan,nan,nan,nan,nan,nan,nan,nan,nan,nan,nan,nan,nan,1943.5709928221295,1952.7536981976482,nan,1953.530806220915,nan,nan,nan,nan
1,10,1,1,1.0,1.0,0.7362622794535127,0,nan,nan,nan,nan,nan,nan,nan,nan,nan,4,3,5,2,6,1,nan,nan,nan,nan,nan,nan,nan,nan,nan,nan,nan,nan,0.0,nan,nan,nan,nan,nan,nan,nan,nan,nan,nan,nan,nan,nan,nan,nan,nan,nan,nan,1943.5709928221295,1953.770504053071,nan,1954.5067663325244,nan,nan,nan,nan
1,11,1,1,1.0,1.0,0.7514613322491641,0,nan,nan,nan,nan,nan,nan,nan,nan,nan,3,4,7,6,0,5,nan,nan,nan,nan,nan,nan,nan,nan,nan,nan,nan,nan,0.0,nan,nan,nan,nan,nan,nan,nan,nan,nan,nan,nan,nan,nan,nan,nan,nan,nan,nan,1943.5709928221295,1954.7872896666559,nan,1955.538750998905,nan,nan,nan,nan
1,12,1,1,1.0,1.0,0.7103136714758875,0,nan,nan,nan,nan,nan,nan,nan,nan,nan,6,1,4,8,7,2,nan,nan,nan,nan,nan,nan,nan,nan,nan,nan,nan,nan,0.0,nan,nan,nan,nan,nan,nan,nan,nan,nan,nan,nan,nan,nan,nan,nan,nan,nan,nan,1943.5709928221295,1955.8124077891734,nan,1956.5227214606493,nan,nan,nan,nan
1,13,1,1,1.0,1.0,0.6535102336747514,0,nan,nan,nan,nan,nan,nan,nan,nan,nan,5,8,7,3,1,6,nan,nan,nan,nan,nan,nan,nan,nan,nan,nan,nan,nan,0.0,nan,nan,nan,nan,nan,nan,nan,nan,nan,nan,nan,nan,nan,nan,nan,nan,nan,nan,1943.5709928221295,1956.829202525838,nan,1957.4827127595127,nan,nan,nan,nan
1,14,1,1,1.0,1.0,0.5246737999659672,0,nan,nan,nan,nan,nan,nan,nan,nan,nan,4,2,3,6,5,8,nan,nan,nan,nan,nan,nan,nan,nan,nan,nan,nan,nan,0.0,nan,nan,nan,nan,nan,nan,nan,nan,nan,nan,nan,nan,nan,nan,nan,nan,nan,nan,1943.5709928221295,1957.8460063855855,nan,1958.3706801855515,nan,nan,nan,nan
1,15,1,1,1.0,1.0,0.5078827695506334,0,nan,nan,nan,nan,nan,nan,nan,nan,nan,5,6,4,3,0,7,nan,nan,nan,nan,nan,nan,nan,nan,nan,nan,nan,nan,0.0,nan,nan,nan,nan,nan,nan,nan,nan,nan,nan,nan,nan,nan,nan,nan,nan,nan,nan,1943.5709928221295,1958.8627860121487,nan,1959.3706687816994,nan,nan,nan,nan
1,16,1,1,1.0,1.0,0.41886117151443614,0,nan,nan,nan,nan,nan,nan,nan,nan,nan,6,3,5,4,1,2,nan,nan,nan,nan,nan,nan,nan,nan,nan,nan,nan,nan,0.0,nan,nan,nan,nan,nan,nan,nan,nan,nan,nan,nan,nan,nan,nan,nan,nan,nan,nan,1943.5709928221295,1959.8797780354398,nan,1960.2986392069542,nan,nan,nan,nan
1,17,1,1,1.0,1.0,0.3622501736972481,0,nan,nan,nan,nan,nan,nan,nan,nan,nan,0,8,4,7,6,5,nan,nan,nan,nan,nan,nan,nan,nan,nan,nan,nan,nan,0.0,nan,nan,nan,nan,nan,nan,nan,nan,nan,nan,nan,nan,nan,nan,nan,nan,nan,nan,1943.5709928221295,1960.8963809023116,nan,1961.258631076009,nan,nan,nan,nan
1,18,1,1,1.0,1.0,0.36942120038656867,0,nan,nan,nan,nan,nan,nan,nan,nan,nan,5,4,2,8,3,0,nan,nan,nan,nan,nan,nan,nan,nan,nan,nan,nan,nan,0.0,nan,nan,nan,nan,nan,nan,nan,nan,nan,nan,nan,nan,nan,nan,nan,nan,nan,nan,1943.5709928221295,1961.9131670860916,nan,1962.2825882864781,nan,nan,nan,nan
1,19,0,0,0.0,1.0,0.6086055741434393,0,nan,nan,nan,nan,nan,nan,nan,nan,nan,3,8,5,0,7,2,nan,nan,nan,nan,nan,nan,nan,nan,nan,nan,nan,nan,0.0,nan,nan,nan,nan,nan,nan,nan,nan,nan,nan,nan,nan,nan,nan,nan,nan,nan,nan,1943.5709928221295,1962.9299598270845,nan,1963.538565401228,nan,nan,nan,nan
1,20,1,1,1.0,1.0,0.5198103425500449,0,nan,nan,nan,nan,nan,nan,nan,nan,nan,6,0,3,8,5,7,nan,nan,nan,nan,nan,nan,nan,nan,nan,nan,nan,nan,0.0,nan,nan,nan,nan,nan,nan,nan,nan,nan,nan,nan,nan,nan,nan,nan,nan,nan,nan,1943.5709928221295,1963.9467440151893,nan,1964.4665543577394,nan,nan,nan,nan
1,21,1,1,1.0,1.0,0.4549740320071578,0,nan,nan,nan,nan,nan,nan,nan,nan,nan,5,7,6,2,4,1,nan,nan,nan,nan,nan,nan,nan,nan,nan,nan,nan,nan,0.0,nan,nan,nan,nan,nan,nan,nan,nan,nan,nan,nan,nan,nan,nan,nan,nan,nan,nan,1943.5709928221295,1964.9635447388755,nan,1965.4185187708827,nan,nan,nan,nan
1,22,1,1,1.0,1.0,0.35818042432219954,1,nan,nan,nan,nan,nan,nan,nan,nan,nan,8,6,7,3,1,4,1.0,1.0,1.0,1.0,1.0,1.0,0.0,0.0,0.0,1.0,0.0,0.0,1.0,1.0,4.0,6.0,3.0,8.0,5.0,4.0,3.0,2.0,1.0,6.0,5.0,6.3125661601516185,5.505046631769801,4.2670847508525185,3.299302340896247,11.960624497693061,8.872678567913681,1943.5709928221295,1965.980332063038,1966.7887459384474,1966.3385124873603,1979.815347701995,1980.823250285739,1967.8138845878966,1979.8069741392028
1,23,1,1,nan,nan,nan,0,nan,nan,nan,nan,nan,nan,nan,nan,nan,4,7,2,1,5,6,nan,nan,nan,nan,nan,nan,nan,nan,nan,nan,nan,nan,0.0,nan,nan,nan,nan,nan,nan,nan,nan,nan,nan,nan,nan,nan,nan,nan,nan,nan,nan,1943.5709928221295,1981.0488612256813,nan,nan,nan,nan,nan,nan
1,24,1,1,nan,nan,nan,0,nan,nan,nan,nan,nan,nan,nan,nan,nan,3,5,6,2,4,7,nan,nan,nan,nan,nan,nan,nan,nan,nan,nan,nan,nan,0.0,nan,nan,nan,nan,nan,nan,nan,nan,nan,nan,nan,nan,nan,nan,nan,nan,nan,nan,1943.5709928221295,1982.073985905412,nan,nan,nan,nan,nan,nan
1,25,0,0,nan,nan,nan,0,nan,nan,nan,nan,nan,nan,nan,nan,nan,2,8,4,1,5,0,nan,nan,nan,nan,nan,nan,nan,nan,nan,nan,nan,nan,0.0,nan,nan,nan,nan,nan,nan,nan,nan,nan,nan,nan,nan,nan,nan,nan,nan,nan,nan,1943.5709928221295,1983.0991097298502,nan,nan,nan,nan,nan,nan
1,26,1,1,1.0,1.0,0.7657666082122887,0,nan,nan,nan,nan,nan,nan,nan,nan,nan,6,1,2,7,0,4,nan,nan,nan,nan,nan,nan,nan,nan,nan,nan,nan,nan,0.0,nan,nan,nan,nan,nan,nan,nan,nan,nan,nan,nan,nan,nan,nan,nan,nan,nan,nan,1943.5709928221295,1984.1242620639205,nan,1984.8900286721328,nan,nan,nan,nan
1,27,1,1,nan,nan,nan,0,nan,nan,nan,nan,nan,nan,nan,nan,nan,5,3,1,6,7,2,nan,nan,nan,nan,nan,nan,nan,nan,nan,nan,nan,nan,0.0,nan,nan,nan,nan,nan,nan,nan,nan,nan,nan,nan,nan,nan,nan,nan,nan,nan,nan,1943.5709928221295,1985.1493622253693,nan,nan,nan,nan,nan,nan
1,28,1,1,1.0,1.0,0.02789524536274257,0,nan,nan,nan,nan,nan,nan,nan,nan,nan,3,7,2,0,4,1,nan,nan,nan,nan,nan,nan,nan,nan,nan,nan,nan,nan,0.0,nan,nan,nan,nan,nan,nan,nan,nan,nan,nan,nan,nan,nan,nan,nan,nan,nan,nan,1943.5709928221295,1986.1661717870447,nan,1986.1940670324075,nan,nan,nan,nan
1,29,1,1,1.0,1.0,0.3550483566032199,0,nan,nan,nan,nan,nan,nan,nan,nan,nan,7,1,6,2,0,8,nan,nan,nan,nan,nan,nan,nan,nan,nan,nan,nan,nan,0.0,nan,nan,nan,nan,nan,nan,nan,nan,nan,nan,nan,nan,nan,nan,nan,nan,nan,nan,1943.5709928221295,1987.1829662386153,nan,1987.5380145952186,nan,nan,nan,nan
1,30,1,1,1.0,1.0,0.34623546044531395,0,nan,nan,nan,nan,nan,nan,nan,nan,nan,8,3,5,4,6,7,nan,nan,nan,nan,nan,nan,nan,nan,nan,nan,nan,nan,0.0,nan,nan,nan,nan,nan,nan,nan,nan,nan,nan,nan,nan,nan,nan,nan,nan,nan,nan,1943.5709928221295,1988.199760119991,nan,1988.5459955804363,nan,nan,nan,nan
1,31,1,1,1.0,1.0,0.5370925938550499,0,nan,nan,nan,nan,nan,nan,nan,nan,nan,4,6,3,1,0,2,nan,nan,nan,nan,nan,nan,nan,nan,nan,nan,nan,nan,0.0,nan,nan,nan,nan,nan,nan,nan,nan,nan,nan,nan,nan,nan,nan,nan,nan,nan,nan,1943.5709928221295,1989.224863702595,nan,1989.76195629645,nan,nan,nan,nan
1,32,0,0,0.0,1.0,0.5682815565196506,0,nan,nan,nan,nan,nan,nan,nan,nan,nan,1,5,4,2,3,8,nan,nan,nan,nan,nan,nan,nan,nan,nan,nan,nan,nan,0.0,nan,nan,nan,nan,nan,nan,nan,nan,nan,nan,nan,nan,nan,nan,nan,nan,nan,nan,1943.5709928221295,1990.241678681101,nan,1990.8099602376205,nan,nan,nan,nan
1,33,1,1,1.0,1.0,0.6794651137679466,0,nan,nan,nan,nan,nan,nan,nan,nan,nan,8,3,0,5,7,4,nan,nan,nan,nan,nan,nan,nan,nan,nan,nan,nan,nan,0.0,nan,nan,nan,nan,nan,nan,nan,nan,nan,nan,nan,nan,nan,nan,nan,nan,nan,nan,1943.5709928221295,1991.2584551716027,nan,1991.9379202853706,nan,nan,nan,nan
1,34,1,1,1.0,1.0,0.3666366650322743,0,nan,nan,nan,nan,nan,nan,nan,nan,nan,3,1,6,2,4,8,nan,nan,nan,nan,nan,nan,nan,nan,nan,nan,nan,nan,0.0,nan,nan,nan,nan,nan,nan,nan,nan,nan,nan,nan,nan,nan,nan,nan,nan,nan,nan,1943.5709928221295,1992.2752587462564,nan,1992.6418954112887,nan,nan,nan,nan
1,35,1,1,1.0,1.0,0.5685555340460269,0,nan,nan,nan,nan,nan,nan,nan,nan,nan,0,3,1,4,5,2,nan,nan,nan,nan,nan,nan,nan,nan,nan,nan,nan,nan,0.0,nan,nan,nan,nan,nan,nan,nan,nan,nan,nan,nan,nan,nan,nan,nan,nan,nan,nan,1943.5709928221295,1993.3213331558145,nan,1993.8898886898605,nan,nan,nan,nan
1,36,0,0,0.0,1.0,0.5876840688470111,0,nan,nan,nan,nan,nan,nan,nan,nan,nan,7,5,2,6,3,0,nan,nan,nan,nan,nan,nan,nan,nan,nan,nan,nan,nan,0.0,nan,nan,nan,nan,nan,nan,nan,nan,nan,nan,nan,nan,nan,nan,nan,nan,nan,nan,1943.5709928221295,1994.3421711279007,nan,1994.9298551967477,nan,nan,nan,nan
1,37,1,1,1.0,1.0,0.5788768746169808,1,nan,nan,nan,nan,nan,nan,nan,nan,nan,2,0,3,8,4,7,1.0,1.0,1.0,1.0,1.0,1.0,0.0,0.0,0.0,0.0,0.0,0.0,0.0,4.0,2.0,8.0,6.0,3.0,2.0,5.0,6.0,2.0,1.0,3.0,4.0,12.74961961029112,14.077776830625226,3.4627548796379415,2.4788254717568634,8.61491503988509,11.654348131636652,1943.5709928221295,1995.3589396357092,1996.1673746082415,1995.9378165103262,2011.3025789524254,2012.303307373415,1997.1841756170252,2011.2942467285902
1,38,1,1,1.0,1.0,0.6416767424416321,0,nan,nan,nan,nan,nan,nan,nan,nan,nan,6,8,1,3,2,5,nan,nan,nan,nan,nan,nan,nan,nan,nan,nan,nan,nan,0.0,nan,nan,nan,nan,nan,nan,nan,nan,nan,nan,nan,nan,nan,nan,nan,nan,nan,nan,1943.5709928221295,2012.5277545503523,nan,2013.169431292794,nan,nan,nan,nan
1,39,1,1,1.0,1.0,0.4805594273202587,0,nan,nan,nan,nan,nan,nan,nan,nan,nan,5,2,3,4,7,0,nan,nan,nan,nan,nan,nan,nan,nan,nan,nan,nan,nan,0.0,nan,nan,nan,nan,nan,nan,nan,nan,nan,nan,nan,nan,nan,nan,nan,nan,nan,nan,1943.5709928221295,2013.5528495800681,nan,2014.0334090073884,nan,nan,nan,nan
1,40,0,0,0.0,1.0,0.6476939844942535,0,nan,nan,nan,nan,nan,nan,nan,nan,nan,0,6,2,5,1,7,nan,nan,nan,nan,nan,nan,nan,nan,nan,nan,nan,nan,0.0,nan,nan,nan,nan,nan,nan,nan,nan,nan,nan,nan,nan,nan,nan,nan,nan,nan,nan,1943.5709928221295,2014.5696913576212,nan,2015.2173853421154,nan,nan,nan,nan
1,41,1,1,1.0,1.0,0.5988715319108451,0,nan,nan,nan,nan,nan,nan,nan,nan,nan,6,5,0,7,2,8,nan,nan,nan,nan,nan,nan,nan,nan,nan,nan,nan,nan,0.0,nan,nan,nan,nan,nan,nan,nan,nan,nan,nan,nan,nan,nan,nan,nan,nan,nan,nan,1943.5709928221295,2015.58647982217,nan,2016.185351354081,nan,nan,nan,nan
1,42,1,1,1.0,1.0,0.4860674874216784,0,nan,nan,nan,nan,nan,nan,nan,nan,nan,1,4,5,0,7,6,nan,nan,nan,nan,nan,nan,nan,nan,nan,nan,nan,nan,0.0,nan,nan,nan,nan,nan,nan,nan,nan,nan,nan,nan,nan,nan,nan,nan,nan,nan,nan,1943.5709928221295,2016.603271992968,nan,2017.0893394803898,nan,nan,nan,nan
1,43,1,1,1.0,1.0,0.3652348466348485,0,nan,nan,nan,nan,nan,nan,nan,nan,nan,7,1,2,3,8,5,nan,nan,nan,nan,nan,nan,nan,nan,nan,nan,nan,nan,0.0,nan,nan,nan,nan,nan,nan,nan,nan,nan,nan,nan,nan,nan,nan,nan,nan,nan,nan,1943.5709928221295,2017.6200661594412,nan,2017.985301006076,nan,nan,nan,nan
1,44,0,0,0.0,1.0,0.5084258779606898,0,nan,nan,nan,nan,nan,nan,nan,nan,nan,5,4,1,6,3,0,nan,nan,nan,nan,nan,nan,nan,nan,nan,nan,nan,nan,0.0,nan,nan,nan,nan,nan,nan,nan,nan,nan,nan,nan,nan,nan,nan,nan,nan,nan,nan,1943.5709928221295,2018.6368466412969,nan,2019.1452725192576,nan,nan,nan,nan
1,45,1,1,nan,nan,nan,0,nan,nan,nan,nan,nan,nan,nan,nan,nan,2,6,3,5,0,7,nan,nan,nan,nan,nan,nan,nan,nan,nan,nan,nan,nan,0.0,nan,nan,nan,nan,nan,nan,nan,nan,nan,nan,nan,nan,nan,nan,nan,nan,nan,nan,1943.5709928221295,2019.6536368164197,nan,nan,nan,nan,nan,nan
1,46,1,1,1.0,1.0,0.010839645601663506,0,nan,nan,nan,nan,nan,nan,nan,nan,nan,6,5,2,4,7,0,nan,nan,nan,nan,nan,nan,nan,nan,nan,nan,nan,nan,0.0,nan,nan,nan,nan,nan,nan,nan,nan,nan,nan,nan,nan,nan,nan,nan,nan,nan,nan,1943.5709928221295,2020.6704093155786,nan,2020.6812489611802,nan,nan,nan,nan
1,47,1,1,1.0,1.0,0.43366650634561665,0,nan,nan,nan,nan,nan,nan,nan,nan,nan,5,7,6,0,3,8,nan,nan,nan,nan,nan,nan,nan,nan,nan,nan,nan,nan,0.0,nan,nan,nan,nan,nan,nan,nan,nan,nan,nan,nan,nan,nan,nan,nan,nan,nan,nan,1943.5709928221295,2021.695549390508,nan,2022.1292158968536,nan,nan,nan,nan
1,48,1,1,1.0,1.0,0.30451618163715466,0,nan,nan,nan,nan,nan,nan,nan,nan,nan,3,8,7,1,6,4,nan,nan,nan,nan,nan,nan,nan,nan,nan,nan,nan,nan,0.0,nan,nan,nan,nan,nan,nan,nan,nan,nan,nan,nan,nan,nan,nan,nan,nan,nan,nan,1943.5709928221295,2022.7206786317765,nan,2023.0251948134137,nan,nan,nan,nan
1,49,1,1,1.0,1.0,0.31137303222931223,0,nan,nan,nan,nan,nan,nan,nan,nan,nan,2,3,0,7,5,8,nan,nan,nan,nan,nan,nan,nan,nan,nan,nan,nan,nan,0.0,nan,nan,nan,nan,nan,nan,nan,nan,nan,nan,nan,nan,nan,nan,nan,nan,nan,nan,1943.5709928221295,2023.7458024562184,nan,2024.0571754884477,nan,nan,nan,nan
1,50,1,1,1.0,1.0,0.3022465301655757,0,nan,nan,nan,nan,nan,nan,nan,nan,nan,1,7,3,8,4,6,nan,nan,nan,nan,nan,nan,nan,nan,nan,nan,nan,nan,0.0,nan,nan,nan,nan,nan,nan,nan,nan,nan,nan,nan,nan,nan,nan,nan,nan,nan,nan,1943.5709928221295,2024.7708986263206,nan,2025.0731451564861,nan,nan,nan,nan
1,51,0,0,1.0,0.0,0.27707452445247327,0,nan,nan,0.0,nan,nan,nan,nan,nan,nan,6,3,4,7,5,1,nan,nan,nan,nan,nan,nan,nan,nan,nan,nan,nan,nan,0.0,nan,nan,nan,nan,nan,nan,nan,nan,nan,nan,nan,nan,nan,nan,nan,nan,nan,nan,1943.5709928221295,2025.796059513279,nan,2026.0731340377315,nan,nan,nan,nan
1,52,1,1,1.0,1.0,0.5242364622754394,0,nan,nan,nan,nan,nan,nan,nan,nan,nan,2,5,6,3,4,7,nan,nan,nan,nan,nan,nan,nan,nan,nan,nan,nan,nan,0.0,nan,nan,nan,nan,nan,nan,nan,nan,nan,nan,nan,nan,nan,nan,nan,nan,nan,nan,1943.5709928221295,2026.8128602369652,nan,2027.3370966992406,nan,nan,nan,nan
1,53,1,1,1.0,1.0,0.5554163018605323,0,nan,nan,nan,nan,nan,nan,nan,nan,nan,4,1,3,5,7,6,nan,nan,nan,nan,nan,nan,nan,nan,nan,nan,nan,nan,0.0,nan,nan,nan,nan,nan,nan,nan,nan,nan,nan,nan,nan,nan,nan,nan,nan,nan,nan,1943.5709928221295,2027.8296506971892,nan,2028.3850669990497,nan,nan,nan,nan
1,54,1,1,1.0,1.0,0.42659440806528437,0,nan,nan,nan,nan,nan,nan,nan,nan,nan,8,4,5,7,6,0,nan,nan,nan,nan,nan,nan,nan,nan,nan,nan,nan,nan,0.0,nan,nan,nan,nan,nan,nan,nan,nan,nan,nan,nan,nan,nan,nan,nan,nan,nan,nan,1943.5709928221295,2028.8464425828934,nan,2029.2730369909586,nan,nan,nan,nan
1,55,1,1,1.0,1.0,0.41778464796516346,0,nan,nan,nan,nan,nan,nan,nan,nan,nan,2,0,7,4,5,6,nan,nan,nan,nan,nan,nan,nan,nan,nan,nan,nan,nan,0.0,nan,nan,nan,nan,nan,nan,nan,nan,nan,nan,nan,nan,nan,nan,nan,nan,nan,nan,1943.5709928221295,2029.863231332536,nan,2030.2810159805013,nan,nan,nan,nan
1,56,1,1,1.0,1.0,0.6329590684435971,1,nan,nan,nan,nan,nan,nan,nan,nan,nan,6,1,4,3,0,8,1.0,1.0,1.0,1.0,1.0,1.0,1.0,0.0,0.0,0.0,0.0,0.0,1.0,6.0,4.0,1.0,4.0,8.0,0.0,2.0,3.0,4.0,1.0,5.0,6.0,3.6133909151794796,5.581685072957043,6.740814411732572,2.2764182328210154,8.684257582208375,13.08352893314077,1943.5709928221295,2030.8800354773812,2031.688425119606,2031.5129945458248,2045.831837100548,2046.8409738660812,2032.7051976187613,2045.823501740655
1,57,1,1,1.0,1.0,0.6632864701568906,0,nan,nan,nan,nan,nan,nan,nan,nan,nan,1,8,6,5,7,4,nan,nan,nan,nan,nan,nan,nan,nan,nan,nan,nan,nan,0.0,nan,nan,nan,nan,nan,nan,nan,nan,nan,nan,nan,nan,nan,nan,nan,nan,nan,nan,1943.5709928221295,2047.0653406458623,nan,2047.7286271160192,nan,nan,nan,nan
1,58,1,1,1.0,1.0,0.5024713570892345,0,nan,nan,nan,nan,nan,nan,nan,nan,nan,6,0,4,3,2,8,nan,nan,nan,nan,nan,nan,nan,nan,nan,nan,nan,nan,0.0,nan,nan,nan,nan,nan,nan,nan,nan,nan,nan,nan,nan,nan,nan,nan,nan,nan,nan,1943.5709928221295,2048.082119132043,nan,2048.584590489132,nan,nan,nan,nan
1,59,1,1,1.0,1.0,0.33363648570957594,0,nan,nan,nan,nan,nan,nan,nan,nan,nan,4,8,5,6,0,2,nan,nan,nan,nan,nan,nan,nan,nan,nan,nan,nan,nan,0.0,nan,nan,nan,nan,nan,nan,nan,nan,nan,nan,nan,nan,nan,nan,nan,nan,nan,nan,1943.5709928221295,2049.0989326850613,nan,2049.432569170771,nan,nan,nan,nan
1,60,0,0,0.0,1.0,0.6124820282420842,0,nan,nan,nan,nan,nan,nan,nan,nan,nan,2,6,4,0,1,8,nan,nan,nan,nan,nan,nan,nan,nan,nan,nan,nan,nan,0.0,nan,nan,nan,nan,nan,nan,nan,nan,nan,nan,nan,nan,nan,nan,nan,nan,nan,nan,1943.5709928221295,2050.1240619263335,nan,2050.7365439545756,nan,nan,nan,nan
1,61,1,1,1.0,1.0,0.5876832135618315,0,nan,nan,nan,nan,nan,nan,nan,nan,nan,3,4,5,1,8,6,nan,nan,nan,nan,nan,nan,nan,nan,nan,nan,nan,nan,0.0,nan,nan,nan,nan,nan,nan,nan,nan,nan,nan,nan,nan,nan,nan,nan,nan,nan,nan,1943.5709928221295,2051.140847254821,nan,2051.728530468383,nan,nan,nan,nan
1,62,1,1,1.0,1.0,0.4268903379997937,0,nan,nan,nan,nan,nan,nan,nan,nan,nan,0,7,6,5,2,4,nan,nan,nan,nan,nan,nan,nan,nan,nan,nan,nan,nan,0.0,nan,nan,nan,nan,nan,nan,nan,nan,nan,nan,nan,nan,nan,nan,nan,nan,nan,nan,1943.5709928221295,2052.157635434276,nan,2052.584525772276,nan,nan,nan,nan
1,63,1,1,1.0,1.0,0.2980402196699288,0,nan,nan,nan,nan,nan,nan,nan,nan,nan,8,0,3,6,1,7,nan,nan,nan,nan,nan,nan,nan,nan,nan,nan,nan,nan,0.0,nan,nan,nan,nan,nan,nan,nan,nan,nan,nan,nan,nan,nan,nan,nan,nan,nan,nan,1943.5709928221295,2053.1744487022006,nan,2053.4724889218705,nan,nan,nan,nan
1,64,1,1,1.0,1.0,0.32089325225751963,0,nan,nan,nan,nan,nan,nan,nan,nan,nan,3,4,6,5,0,2,nan,nan,nan,nan,nan,nan,nan,nan,nan,nan,nan,nan,0.0,nan,nan,nan,nan,nan,nan,nan,nan,nan,nan,nan,nan,nan,nan,nan,nan,nan,nan,1943.5709928221295,2054.1995634035593,nan,2054.520456655817,nan,nan,nan,nan
1,65,1,1,1.0,1.0,0.33610114303883165,0,nan,nan,nan,nan,nan,nan,nan,nan,nan,5,0,7,4,6,3,nan,nan,nan,nan,nan,nan,nan,nan,nan,nan,nan,nan,0.0,nan,nan,nan,nan,nan,nan,nan,nan,nan,nan,nan,nan,nan,nan,nan,nan,nan,nan,1943.5709928221295,2055.216333336848,nan,2055.552434479887,nan,nan,nan,nan
1,66,1,1,1.0,1.0,0.3672501922264928,0,nan,nan,nan,nan,nan,nan,nan,nan,nan,6,7,2,0,8,1,nan,nan,nan,nan,nan,nan,nan,nan,nan,nan,nan,nan,0.0,nan,nan,nan,nan,nan,nan,nan,nan,nan,nan,nan,nan,nan,nan,nan,nan,nan,nan,1943.5709928221295,2056.2331565831446,nan,2056.600406775371,nan,nan,nan,nan
1,67,1,1,1.0,1.0,0.3824486748271738,0,nan,nan,nan,nan,nan,nan,nan,nan,nan,3,1,0,6,5,2,nan,nan,nan,nan,nan,nan,nan,nan,nan,nan,nan,nan,0.0,nan,nan,nan,nan,nan,nan,nan,nan,nan,nan,nan,nan,nan,nan,nan,nan,nan,nan,1943.5709928221295,2057.2499364948053,nan,2057.6323851696325,nan,nan,nan,nan
1,68,1,1,1.0,1.0,0.4613108669836947,1,nan,nan,nan,nan,nan,nan,nan,nan,nan,6,5,7,0,3,1,1.0,1.0,1.0,1.0,1.0,1.0,0.0,0.0,0.0,1.0,0.0,1.0,2.0,2.0,6.0,4.0,0.0,8.0,1.0,6.0,2.0,3.0,1.0,4.0,5.0,16.383786916761892,3.7283693889839924,12.05651891171874,2.337806874071248,13.296593641156505,15.560046835616959,1943.5709928221295,2058.2750472048174,2059.0834727691727,2058.736358071801,2076.527293264571,2077.5254903157074,2060.1002709269924,2076.5189881248843
1,69,1,1,nan,nan,nan,0,nan,nan,nan,nan,nan,nan,nan,nan,nan,3,6,5,4,0,2,nan,nan,nan,nan,nan,nan,nan,nan,nan,nan,nan,nan,0.0,nan,nan,nan,nan,nan,nan,nan,nan,nan,nan,nan,nan,nan,nan,nan,nan,nan,nan,1943.5709928221295,2077.7441674290603,nan,nan,nan,nan,nan,nan
1,70,1,1,nan,nan,nan,0,nan,nan,nan,nan,nan,nan,nan,nan,nan,1,3,0,8,6,4,nan,nan,nan,nan,nan,nan,nan,nan,nan,nan,nan,nan,0.0,nan,nan,nan,nan,nan,nan,nan,nan,nan,nan,nan,nan,nan,nan,nan,nan,nan,nan,1943.5709928221295,2078.769252480408,nan,nan,nan,nan,nan,nan
1,71,1,1,nan,nan,nan,0,nan,nan,nan,nan,nan,nan,nan,nan,nan,7,2,4,1,0,3,nan,nan,nan,nan,nan,nan,nan,nan,nan,nan,nan,nan,0.0,nan,nan,nan,nan,nan,nan,nan,nan,nan,nan,nan,nan,nan,nan,nan,nan,nan,nan,1943.5709928221295,2079.7860466468846,nan,nan,nan,nan,nan,nan
1,72,1,1,1.0,1.0,0.30101348876269185,0,nan,nan,nan,nan,nan,nan,nan,nan,nan,1,6,2,3,8,5,nan,nan,nan,nan,nan,nan,nan,nan,nan,nan,nan,nan,0.0,nan,nan,nan,nan,nan,nan,nan,nan,nan,nan,nan,nan,nan,nan,nan,nan,nan,nan,1943.5709928221295,2080.8028222820976,nan,2081.1038357708603,nan,nan,nan,nan
1,73,0,0,1.0,0.0,0.1801663080623257,0,nan,nan,0.0,nan,nan,nan,nan,nan,nan,0,1,4,6,7,2,nan,nan,nan,nan,nan,nan,nan,nan,nan,nan,nan,nan,0.0,nan,nan,nan,nan,nan,nan,nan,nan,nan,nan,nan,nan,nan,nan,nan,nan,nan,nan,1943.5709928221295,2081.81965579186,nan,2081.9998220999223,nan,nan,nan,nan
1,74,1,1,0.0,0.0,0.11536991099637817,0,nan,nan,0.0,nan,nan,nan,nan,nan,nan,4,7,6,3,8,5,nan,nan,nan,nan,nan,nan,nan,nan,nan,nan,nan,nan,0.0,nan,nan,nan,nan,nan,nan,nan,nan,nan,nan,nan,nan,nan,nan,nan,nan,nan,nan,1943.5709928221295,2082.8364345631344,nan,2082.9518044741308,nan,nan,nan,nan
1,75,1,1,1.0,1.0,0.3385447032414959,0,nan,nan,nan,nan,nan,nan,nan,nan,nan,6,5,0,4,3,8,nan,nan,nan,nan,nan,nan,nan,nan,nan,nan,nan,nan,0.0,nan,nan,nan,nan,nan,nan,nan,nan,nan,nan,nan,nan,nan,nan,nan,nan,nan,nan,1943.5709928221295,2083.8532207469107,nan,2084.191765450152,nan,nan,nan,nan
1,76,1,1,1.0,1.0,0.3217399882050813,0,nan,nan,nan,nan,nan,nan,nan,nan,nan,3,8,1,6,7,0,nan,nan,nan,nan,nan,nan,nan,nan,nan,nan,nan,nan,0.0,nan,nan,nan,nan,nan,nan,nan,nan,nan,nan,nan,nan,nan,nan,nan,nan,nan,nan,1943.5709928221295,2084.8700177643477,nan,2085.191757752553,nan,nan,nan,nan
1,77,1,1,1.0,1.0,0.2809156266084756,0,nan,nan,nan,nan,nan,nan,nan,nan,nan,5,7,8,2,3,4,nan,nan,nan,nan,nan,nan,nan,nan,nan,nan,nan,nan,0.0,nan,nan,nan,nan,nan,nan,nan,nan,nan,nan,nan,nan,nan,nan,nan,nan,nan,nan,1943.5709928221295,2085.8868059438028,nan,2086.1677215704112,nan,nan,nan,nan
1,78,1,1,1.0,1.0,0.3521073033953144,0,nan,nan,nan,nan,nan,nan,nan,nan,nan,2,4,6,3,0,7,nan,nan,nan,nan,nan,nan,nan,nan,nan,nan,nan,nan,0.0,nan,nan,nan,nan,nan,nan,nan,nan,nan,nan,nan,nan,nan,nan,nan,nan,nan,nan,1943.5709928221295,2086.903590702099,nan,2087.255698005494,nan,nan,nan,nan
1,79,1,1,1.0,1.0,0.35928460220748093,0,nan,nan,nan,nan,nan,nan,nan,nan,nan,8,6,4,0,3,1,nan,nan,nan,nan,nan,nan,nan,nan,nan,nan,nan,nan,0.0,nan,nan,nan,nan,nan,nan,nan,nan,nan,nan,nan,nan,nan,nan,nan,nan,nan,nan,1943.5709928221295,2087.920391425785,nan,2088.2796760279925,nan,nan,nan,nan
1,80,1,1,1.0,1.0,0.2864684468258929,0,nan,nan,nan,nan,nan,nan,nan,nan,nan,4,2,5,7,1,6,nan,nan,nan,nan,nan,nan,nan,nan,nan,nan,nan,nan,0.0,nan,nan,nan,nan,nan,nan,nan,nan,nan,nan,nan,nan,nan,nan,nan,nan,nan,nan,1943.5709928221295,2088.9371864475506,nan,2089.2236548943765,nan,nan,nan,nan
1,81,0,0,1.0,0.0,0.32565378991057514,0,0.0,0.0,0.0,0.44790373141273043,0.15954479287182582,0.2883589385409046,0.6074485242845562,0.15954479287182582,0.32380227964798297,8,1,2,6,0,4,nan,nan,nan,nan,nan,nan,nan,nan,nan,nan,nan,nan,0.0,nan,nan,nan,nan,nan,nan,nan,nan,nan,nan,nan,nan,nan,nan,nan,nan,nan,nan,1943.5709928221295,2089.9539749120995,nan,2090.27962870201,nan,nan,nan,nan
1,82,1,1,1.0,1.0,0.4208545646906714,0,0.0,0.0,0.0,0.4462290746798242,0.15908416264177094,0.28714491203805326,0.6053132373215951,0.15908416264177094,0.34432560047571314,7,3,4,2,5,1,nan,nan,nan,nan,nan,nan,nan,nan,nan,nan,nan,nan,0.0,nan,nan,nan,nan,nan,nan,nan,nan,nan,nan,nan,nan,nan,nan,nan,nan,nan,nan,1943.5709928221295,2090.9707636617422,nan,2091.391618226433,nan,nan,nan,nan
1,83,1,1,1.0,1.0,0.41169128520414233,0,0.0,0.0,0.0,0.445886175896187,0.15803277258125664,0.28785340331493037,0.6039189484774437,0.15803277258125664,0.3860665466017963,3,7,6,1,4,2,nan,nan,nan,nan,nan,nan,nan,nan,nan,nan,nan,nan,0.0,nan,nan,nan,nan,nan,nan,nan,nan,nan,nan,nan,nan,nan,nan,nan,nan,nan,nan,1943.5709928221295,2091.9958963241697,nan,2092.407587609374,nan,nan,nan,nan
1,84,1,1,1.0,1.0,0.4265664686317905,0,0.0,0.0,0.0,0.4454302440202931,0.15702467464395528,0.28840556937633777,0.6024549186642484,0.15702467464395528,0.4197041061755347,7,6,5,8,1,0,nan,nan,nan,nan,nan,nan,nan,nan,nan,nan,nan,nan,0.0,nan,nan,nan,nan,nan,nan,nan,nan,nan,nan,nan,nan,nan,nan,nan,nan,nan,nan,1943.5709928221295,2093.021004753409,nan,2093.447571222041,nan,nan,nan,nan
1,85,1,1,1.0,1.0,0.3454434629820753,0,0.0,0.0,0.0,0.44518203644939175,0.15600300660977667,0.2891790298396151,0.6011850430591684,0.15600300660977667,0.39456707227266935,3,1,0,7,4,2,nan,nan,nan,nan,nan,nan,nan,nan,nan,nan,nan,nan,0.0,nan,nan,nan,nan,nan,nan,nan,nan,nan,nan,nan,nan,nan,nan,nan,nan,nan,nan,1943.5709928221295,2094.0461539514217,nan,2094.391597414404,nan,nan,nan,nan
1,86,1,1,1.0,1.0,0.4565634437567496,0,0.0,0.0,0.0,0.44388673030046555,0.1553975164215051,0.2884892138789604,0.5992842467219707,0.1553975164215051,0.4095244584568718,0,7,3,8,5,1,nan,nan,nan,nan,nan,nan,nan,nan,nan,nan,nan,nan,0.0,nan,nan,nan,nan,nan,nan,nan,nan,nan,nan,nan,nan,nan,nan,nan,nan,nan,nan,1943.5709928221295,2095.062949543375,nan,2095.5195129871317,nan,nan,nan,nan
1,87,1,1,1.0,1.0,0.40775581617708667,0,0.0,0.0,0.0,0.4440492522678538,0.15440475129229145,0.2896445009755624,0.5984540035601452,0.15440475129229145,0.40325424097197055,2,3,8,6,7,0,nan,nan,nan,nan,nan,nan,nan,nan,nan,nan,nan,nan,0.0,nan,nan,nan,nan,nan,nan,nan,nan,nan,nan,nan,nan,nan,nan,nan,nan,nan,nan,1943.5709928221295,2096.0797303103245,nan,2096.4874861265016,nan,nan,nan,nan
1,88,1,1,1.0,1.0,0.42260819190050825,0,0.0,0.0,0.0,0.4435898416844264,0.1534780346796915,0.2901118070047349,0.597067876364118,0.1534780346796915,0.42897581727811485,8,6,7,2,0,3,nan,nan,nan,nan,nan,nan,nan,nan,nan,nan,nan,nan,0.0,nan,nan,nan,nan,nan,nan,nan,nan,nan,nan,nan,nan,nan,nan,nan,nan,nan,nan,1943.5709928221295,2097.1048584112104,nan,2097.527466603111,nan,nan,nan,nan
1,89,1,1,nan,nan,nan,0,0.0,0.0,0.0,0.4433275710621274,0.15253359424891522,0.2907939768132122,0.5958611653110426,0.15253359424891522,0.41518200403879746,6,7,0,3,8,4,nan,nan,nan,nan,nan,nan,nan,nan,nan,nan,nan,nan,0.0,nan,nan,nan,nan,nan,nan,nan,nan,nan,nan,nan,nan,nan,nan,nan,nan,nan,nan,1943.5709928221295,2098.1217184349225,nan,nan,nan,nan,nan,nan
1,90,1,1,nan,nan,nan,0,0.0,0.0,0.0,0.4433275710621274,0.15253359424891522,0.2907939768132122,0.5958611653110426,0.15253359424891522,0.42260819190050825,7,2,4,5,1,8,nan,nan,nan,nan,nan,nan,nan,nan,nan,nan,nan,nan,0.0,nan,nan,nan,nan,nan,nan,nan,nan,nan,nan,nan,nan,nan,nan,nan,nan,nan,nan,1943.5709928221295,2099.138455011951,nan,nan,nan,nan,nan,nan
1,91,1,1,nan,nan,nan,0,0.0,0.0,0.0,0.4433275710621274,0.15253359424891522,0.2907939768132122,0.5958611653110426,0.15253359424891522,nan,0,4,7,6,5,1,nan,nan,nan,nan,nan,nan,nan,nan,nan,nan,nan,nan,0.0,nan,nan,nan,nan,nan,nan,nan,nan,nan,nan,nan,nan,nan,nan,nan,nan,nan,nan,1943.5709928221295,2100.155237774572,nan,nan,nan,nan,nan,nan
1,92,1,1,1.0,1.0,0.05901521473424509,0,0.0,0.0,0.0,0.4433275710621274,0.15253359424891522,0.2907939768132122,0.5958611653110426,0.15253359424891522,0.05901521473424509,7,6,0,4,3,2,nan,nan,nan,nan,nan,nan,nan,nan,nan,nan,nan,nan,0.0,nan,nan,nan,nan,nan,nan,nan,nan,nan,nan,nan,nan,nan,nan,nan,nan,nan,nan,1943.5709928221295,2101.180371577382,nan,2101.2393867921164,nan,nan,nan,nan
1,93,1,1,1.0,1.0,0.51386123850898,0,0.0,0.0,0.0,0.4385829740704251,0.1574171296754557,0.2811658443949694,0.5960001037458809,0.1574171296754557,0.28643822662161256,8,3,1,2,5,6,nan,nan,nan,nan,nan,nan,nan,nan,nan,nan,nan,nan,0.0,nan,nan,nan,nan,nan,nan,nan,nan,nan,nan,nan,nan,nan,nan,nan,nan,nan,nan,1943.5709928221295,2102.205470883546,nan,2102.7193321220548,nan,nan,nan,nan
1,94,1,1,1.0,1.0,0.47303858749728533,0,0.0,0.0,0.0,0.43950100168552947,0.15667233476844733,0.28282866691708214,0.5961733364539767,0.15667233476844733,0.3486383469135035,0,7,4,6,8,3,nan,nan,nan,nan,nan,nan,nan,nan,nan,nan,nan,nan,0.0,nan,nan,nan,nan,nan,nan,nan,nan,nan,nan,nan,nan,nan,nan,nan,nan,nan,nan,1943.5709928221295,2103.2222784495425,nan,2103.69531703704,nan,nan,nan,nan
1,95,1,1,1.0,1.0,0.33590898814509274,0,0.0,0.0,0.0,0.4399050689844663,0.15576864593672235,0.28413642304774395,0.5956737149211886,0.15576864593672235,0.44093627138378605,6,8,3,7,2,1,nan,nan,nan,nan,nan,nan,nan,nan,nan,nan,nan,nan,0.0,nan,nan,nan,nan,nan,nan,nan,nan,nan,nan,nan,nan,nan,nan,nan,nan,nan,nan,1943.5709928221295,2104.247387448977,nan,2104.583296437122,nan,nan,nan,nan
1,96,1,1,1.0,1.0,0.45504758684546687,0,0.0,0.0,0.0,0.43866702040304517,0.15524894487630372,0.2834180755267415,0.5939159652793489,0.15524894487630372,0.42133172082928166,8,2,1,0,4,5,nan,nan,nan,nan,nan,nan,nan,nan,nan,nan,nan,nan,0.0,nan,nan,nan,nan,nan,nan,nan,nan,nan,nan,nan,nan,nan,nan,nan,nan,nan,nan,1943.5709928221295,2105.2642166822952,nan,2105.7192642691407,nan,nan,nan,nan
1,97,1,1,1.0,1.0,0.5022524031483044,0,0.0,0.0,0.0,0.4388597329494266,0.15434312029766184,0.28451661265176476,0.5932028532470884,0.15434312029766184,0.43106965937962133,3,8,7,5,2,6,nan,nan,nan,nan,nan,nan,nan,nan,nan,nan,nan,nan,0.0,nan,nan,nan,nan,nan,nan,nan,nan,nan,nan,nan,nan,nan,nan,nan,nan,nan,nan,1943.5709928221295,2106.28099687905,nan,2106.783249282198,nan,nan,nan,nan
1,98,1,1,1.0,1.0,0.4930802856761147,0,0.0,0.0,0.0,0.4395968570215066,0.15359357419582342,0.28600328282568316,0.59319043121733,0.15359357419582342,0.48346009188996203,2,1,6,0,5,7,nan,nan,nan,nan,nan,nan,nan,nan,nan,nan,nan,nan,0.0,nan,nan,nan,nan,nan,nan,nan,nan,nan,nan,nan,nan,nan,nan,nan,nan,nan,nan,1943.5709928221295,2107.306125265033,nan,2107.7992055507093,nan,nan,nan,nan
1,99,1,1,1.0,1.0,0.3962826866445539,0,0.0,0.0,0.0,0.44021160907500784,0.1528146799320667,0.2873969291429411,0.5930262890070745,0.1528146799320667,0.46387179182299104,0,2,8,5,3,4,nan,nan,nan,nan,nan,nan,nan,nan,nan,nan,nan,nan,0.0,nan,nan,nan,nan,nan,nan,nan,nan,nan,nan,nan,nan,nan,nan,nan,nan,nan,nan,1943.5709928221295,2108.3229120190044,nan,2108.719194705649,nan,nan,nan,nan
1,100,1,1,1.0,1.0,0.39547900023535476,0,0.0,0.0,0.0,0.4397124167746618,0.1520152585898579,0.2876971581848039,0.5917276753645196,0.1520152585898579,0.42828065751867445,7,1,6,4,5,8,nan,nan,nan,nan,nan,nan,nan,nan,nan,nan,nan,nan,0.0,nan,nan,nan,nan,nan,nan,nan,nan,nan,nan,nan,nan,nan,nan,nan,nan,nan,nan,1943.5709928221295,2109.339711032113,nan,2109.7351900323483,nan,nan,nan,nan
1,101,1,1,1.0,1.0,0.43466747938146,0,0.0,0.0,0.0,0.4392154120944448,0.15123071254896925,0.28798469954547556,0.5904461246434141,0.15123071254896925,0.4088097220871229,4,7,1,0,6,5,nan,nan,nan,nan,nan,nan,nan,nan,nan,nan,nan,nan,0.0,nan,nan,nan,nan,nan,nan,nan,nan,nan,nan,nan,nan,nan,nan,nan,nan,nan,nan,1943.5709928221295,2110.35649350964,nan,2110.7911609890216,nan,nan,nan,nan
1,102,0,0,0.0,1.0,0.6738253391849867,0,0.0,0.0,0.0,0.439164879508745,0.15038895065356736,0.28877592885517767,0.5895538301623123,0.15038895065356736,0.5013239396006005,0,1,3,5,2,8,nan,nan,nan,nan,nan,nan,nan,nan,nan,nan,nan,nan,0.0,nan,nan,nan,nan,nan,nan,nan,nan,nan,nan,nan,nan,nan,nan,nan,nan,nan,nan,1943.5709928221295,2111.3732916674635,nan,2112.0471170066485,nan,nan,nan,nan
1,103,1,1,1.0,1.0,0.7370249119994696,0,0.0,0.0,0.0,0.4417435658788136,0.15154789975333277,0.2901956661254808,0.5932914656321464,0.15154789975333277,0.6151725768553055,5,2,4,7,1,0,nan,nan,nan,nan,nan,nan,nan,nan,nan,nan,nan,nan,0.0,nan,nan,nan,nan,nan,nan,nan,nan,nan,nan,nan,nan,nan,nan,nan,nan,nan,nan,1943.5709928221295,2112.3900764257596,nan,2113.127101337759,nan,nan,nan,nan
1,104,0,0,nan,nan,nan,0,0.0,0.0,0.0,0.44495314572795114,0.15380037326085114,0.29115277246710003,0.5987535189888022,0.15380037326085114,0.7054251255922281,3,8,2,6,0,4,nan,nan,nan,nan,nan,nan,nan,nan,nan,nan,nan,nan,0.0,nan,nan,nan,nan,nan,nan,nan,nan,nan,nan,nan,nan,nan,nan,nan,nan,nan,nan,1943.5709928221295,2113.406878860027,nan,nan,nan,nan,nan,nan
1,105,1,1,0.0,0.0,0.031407061320351204,0,0.0,0.0,0.0,0.44495314572795114,0.15380037326085114,0.29115277246710003,0.5987535189888022,0.15380037326085114,0.3842159866599104,7,0,6,4,2,3,nan,nan,nan,nan,nan,nan,nan,nan,nan,nan,nan,nan,0.0,nan,nan,nan,nan,nan,nan,nan,nan,nan,nan,nan,nan,nan,nan,nan,nan,nan,nan,1943.5709928221295,2114.4236670394785,nan,2114.455074100799,nan,nan,nan,nan
1,106,1,1,1.0,1.0,0.582570867096365,0,0.0,0.0,0.0,0.44050641363754683,0.15880604516678049,0.28170036847076635,0.5993124588043273,0.15880604516678049,0.3069889642083581,5,1,7,8,0,4,nan,nan,nan,nan,nan,nan,nan,nan,nan,nan,nan,nan,0.0,nan,nan,nan,nan,nan,nan,nan,nan,nan,nan,nan,nan,nan,nan,nan,nan,nan,nan,1943.5709928221295,2115.4404560742187,nan,2116.023026941315,nan,nan,nan,nan
1,107,1,1,1.0,1.0,0.4377676163094293,0,0.0,0.0,0.0,0.442017737610513,0.15863004202214592,0.2833876955883671,0.6006477796326589,0.15863004202214592,0.35058184824204847,7,0,4,2,5,1,nan,nan,nan,nan,nan,nan,nan,nan,nan,nan,nan,nan,0.0,nan,nan,nan,nan,nan,nan,nan,nan,nan,nan,nan,nan,nan,nan,nan,nan,nan,nan,1943.5709928221295,2116.457243968576,nan,2116.8950115848857,nan,nan,nan,nan
1,108,1,1,1.0,1.0,0.5169465504368418,0,0.0,0.0,0.0,0.4419729994915542,0.1577935344947125,0.2841794649968417,0.5997665339862668,0.1577935344947125,0.512428344614212,8,4,6,0,1,3,nan,nan,nan,nan,nan,nan,nan,nan,nan,nan,nan,nan,0.0,nan,nan,nan,nan,nan,nan,nan,nan,nan,nan,nan,nan,nan,nan,nan,nan,nan,nan,1943.5709928221295,2117.4740367095656,nan,2117.9909832600024,nan,nan,nan,nan
1,109,1,1,1.0,1.0,0.540128299027856,0,0.0,0.0,0.0,0.44275397398056765,0.15715399944873737,0.2855999745318303,0.599907973429305,0.15715399944873737,0.498280821924709,3,6,7,8,5,4,nan,nan,nan,nan,nan,nan,nan,nan,nan,nan,nan,nan,0.0,nan,nan,nan,nan,nan,nan,nan,nan,nan,nan,nan,nan,nan,nan,nan,nan,nan,nan,1943.5709928221295,2118.4908271697896,nan,2119.0309554688174,nan,nan,nan,nan
1,110,1,1,1.0,1.0,0.7233194786022068,0,0.0,0.0,0.0,0.4437578330016737,0.15665091683162266,0.287106916170051,0.6004087498332964,0.15665091683162266,0.5934647760223015,7,8,5,4,0,3,nan,nan,nan,nan,nan,nan,nan,nan,nan,nan,nan,nan,0.0,nan,nan,nan,nan,nan,nan,nan,nan,nan,nan,nan,nan,nan,nan,nan,nan,nan,nan,1943.5709928221295,2119.507628748768,nan,2120.2309482273704,nan,nan,nan,nan
1,111,1,1,1.0,1.0,0.5785071047430392,0,0.0,1.0,0.0,0.44661050285474035,0.1583618196937656,0.28824868316097474,0.604972322548506,0.1583618196937656,0.613984960791034,4,0,1,6,2,8,nan,nan,nan,nan,nan,nan,nan,nan,nan,nan,nan,nan,0.0,nan,nan,nan,nan,nan,nan,nan,nan,nan,nan,nan,nan,nan,nan,nan,nan,nan,nan,1943.5709928221295,2120.524414647447,nan,2121.10292175219,nan,nan,nan,nan
1,112,1,1,1.0,1.0,0.4413877688566572,1,0.0,0.0,1.0,0.44794279176270296,0.15811102897943435,0.2898317627832686,0.6060538207421373,0.15811102897943435,0.5810714507339677,7,2,8,1,6,5,1.0,1.0,1.0,1.0,1.0,1.0,1.0,1.0,0.0,0.0,0.0,0.0,2.0,7.0,2.0,5.0,6.0,8.0,0.0,2.0,3.0,4.0,1.0,5.0,6.0,4.461635876745277,5.5325963404466165,6.628696879080962,3.0148617839004146,7.645246718042472,9.94823278795593,1943.5709928221295,2121.549514523802,2122.3579526323956,2121.9909022926586,2133.350963497127,2134.355034671986,2123.3664325360987,2133.3426483790718
1,113,0,0,0.0,1.0,0.670457211752364,0,0.0,0.0,0.0,0.4478772415336425,0.1573198394879255,0.290557402045717,0.605197081021568,0.1573198394879255,0.5634506951173535,3,0,1,5,7,4,nan,nan,nan,nan,nan,nan,nan,nan,nan,nan,nan,nan,0.0,nan,nan,nan,nan,nan,nan,nan,nan,nan,nan,nan,nan,nan,nan,nan,nan,nan,nan,1943.5709928221295,2134.5761522094836,nan,2135.246609421236,nan,nan,nan,nan
1,114,1,1,1.0,1.0,0.6052844875957817,0,0.0,0.0,0.0,0.450081003615016,0.15808271175993327,0.29199829185508275,0.6081637153749493,0.15808271175993327,0.5723764894016009,2,4,5,3,0,1,nan,nan,nan,nan,nan,nan,nan,nan,nan,nan,nan,nan,0.0,nan,nan,nan,nan,nan,nan,nan,nan,nan,nan,nan,nan,nan,nan,nan,nan,nan,nan,1943.5709928221295,2135.6012774594055,nan,2136.2065619470013,nan,nan,nan,nan
1,115,1,1,1.0,1.0,0.6284904693748103,0,0.0,0.0,0.0,0.4516026063991411,0.1580474141714648,0.29355519222767634,0.6096500205706059,0.1580474141714648,0.6347440562409853,1,8,3,2,7,6,nan,nan,nan,nan,nan,nan,nan,nan,nan,nan,nan,nan,0.0,nan,nan,nan,nan,nan,nan,nan,nan,nan,nan,nan,nan,nan,nan,nan,nan,nan,nan,1943.5709928221295,2136.6180644984706,nan,2137.2465549678454,nan,nan,nan,nan
1,116,1,1,1.0,1.0,0.7076542933937162,0,0.0,1.0,0.0,0.4533199642921088,0.15823179565783746,0.29508816863427134,0.6115517599499463,0.15823179565783746,0.6471430834547695,6,5,7,8,1,3,nan,nan,nan,nan,nan,nan,nan,nan,nan,nan,nan,nan,0.0,nan,nan,nan,nan,nan,nan,nan,nan,nan,nan,nan,nan,nan,nan,nan,nan,nan,nan,1943.5709928221295,2137.6348592351387,nan,2138.3425135285324,nan,nan,nan,nan
1,117,1,1,1.0,1.0,0.5468742471675796,1,0.0,0.0,1.0,0.4557654866873166,0.15941316631523736,0.29635232037207926,0.6151786530025539,0.15941316631523736,0.6276730033120353,1,3,2,4,8,0,1.0,1.0,1.0,1.0,1.0,1.0,0.0,0.0,0.0,1.0,0.0,0.0,1.0,3.0,5.0,6.0,4.0,3.0,2.0,4.0,3.0,2.0,1.0,6.0,5.0,9.390359241264377,6.909546648450487,3.445379686945671,2.5586025378688646,14.43696792125047,10.206013136663387,1943.5709928221295,2138.6516268876585,2139.4600649962485,2139.198501134826,2154.9619348001906,2155.9605378284286,2140.48520050964,2154.953602861453
1,118,1,1,1.0,1.0,0.7232881180134427,0,0.0,0.0,0.0,0.456633189168081,0.15889882197957986,0.2977343671885011,0.6155320111476609,0.15889882197957986,0.6592722195249129,3,5,6,7,0,8,nan,nan,nan,nan,nan,nan,nan,nan,nan,nan,nan,nan,0.0,nan,nan,nan,nan,nan,nan,nan,nan,nan,nan,nan,nan,nan,nan,nan,nan,nan,nan,1943.5709928221295,2156.1788178026654,nan,2156.902105920679,nan,nan,nan,nan
1,119,1,1,1.0,1.0,0.5304715178863262,0,0.0,0.0,0.0,0.459148801704358,0.16023455070431863,0.2989142510000394,0.6193833524086767,0.16023455070431863,0.6002112943557828,2,3,7,5,1,0,nan,nan,nan,nan,nan,nan,nan,nan,nan,nan,nan,nan,0.0,nan,nan,nan,nan,nan,nan,nan,nan,nan,nan,nan,nan,nan,nan,nan,nan,nan,nan,1943.5709928221295,2157.195641334056,nan,2157.726112851942,nan,nan,nan,nan
1,120,1,1,1.0,1.0,0.3216507530705712,0,0.0,0.0,0.0,0.45981536914531096,0.15963161972811027,0.3001837494172007,0.6194469888734212,0.15963161972811027,0.5251367963234467,0,4,1,7,8,5,nan,nan,nan,nan,nan,nan,nan,nan,nan,nan,nan,nan,0.0,nan,nan,nan,nan,nan,nan,nan,nan,nan,nan,nan,nan,nan,nan,nan,nan,nan,nan,1943.5709928221295,2158.212406420709,nan,2158.5340571737797,nan,nan,nan,nan
1,121,1,1,1.0,1.0,0.5688303668612207,0,0.0,0.0,0.0,0.4585360671446189,0.15944097615332892,0.29909509099129,0.6179770432979479,0.15944097615332892,0.47365087927270605,8,2,3,1,7,6,nan,nan,nan,nan,nan,nan,nan,nan,nan,nan,nan,nan,0.0,nan,nan,nan,nan,nan,nan,nan,nan,nan,nan,nan,nan,nan,nan,nan,nan,nan,nan,1943.5709928221295,2159.2291923193916,nan,2159.798022686253,nan,nan,nan,nan
1,122,1,1,1.0,1.0,0.40801211773214163,0,0.0,0.0,0.0,0.45954794145394556,0.1590559048700144,0.3004920365839312,0.6186038463239599,0.1590559048700144,0.4328310792213112,6,0,2,7,5,1,nan,nan,nan,nan,nan,nan,nan,nan,nan,nan,nan,nan,0.0,nan,nan,nan,nan,nan,nan,nan,nan,nan,nan,nan,nan,nan,nan,nan,nan,nan,nan,1943.5709928221295,2160.245990477215,nan,2160.654002594947,nan,nan,nan,nan
1,123,1,1,1.0,1.0,0.367208283074433,0,0.0,0.0,0.0,0.4590794339655655,0.15840680975592356,0.3006726242096419,0.6174862437214891,0.15840680975592356,0.4480169225559318,3,6,5,0,8,4,nan,nan,nan,nan,nan,nan,nan,nan,nan,nan,nan,nan,0.0,nan,nan,nan,nan,nan,nan,nan,nan,nan,nan,nan,nan,nan,nan,nan,nan,nan,nan,1943.5709928221295,2161.2627769460887,nan,2161.629985229163,nan,nan,nan,nan
1,124,1,1,1.0,1.0,0.3103848885257321,0,0.0,0.0,0.0,0.4582517659395193,0.15793039808689882,0.3003213678526204,0.6161821640264181,0.15793039808689882,0.36186842977743555,2,8,1,7,5,0,nan,nan,nan,nan,nan,nan,nan,nan,nan,nan,nan,nan,0.0,nan,nan,nan,nan,nan,nan,nan,nan,nan,nan,nan,nan,nan,nan,nan,nan,nan,nan,1943.5709928221295,2162.2795768144897,nan,2162.5899617030154,nan,nan,nan,nan
1,125,1,1,1.0,1.0,0.25356491513957735,0,0.0,0.0,0.0,0.45693152596261044,0.1578378625220883,0.29909366344052213,0.6147693884846988,0.1578378625220883,0.31038602891324746,0,5,7,1,6,4,nan,nan,nan,nan,nan,nan,nan,nan,nan,nan,nan,nan,0.0,nan,nan,nan,nan,nan,nan,nan,nan,nan,nan,nan,nan,nan,nan,nan,nan,nan,nan,1943.5709928221295,2163.2963635684573,nan,2163.549928483597,nan,nan,nan,nan
1,126,1,1,1.0,1.0,0.3167567903547024,0,1.0,0.0,0.0,0.45513182144205266,0.15828797977858206,0.2968438416634706,0.6134198012206347,0.15828797977858206,0.29356886467333726,5,7,4,0,2,3,nan,nan,nan,nan,nan,nan,nan,nan,nan,nan,nan,nan,0.0,nan,nan,nan,nan,nan,nan,nan,nan,nan,nan,nan,nan,nan,nan,nan,nan,nan,nan,1943.5709928221295,2164.3131545988726,nan,2164.6299113892273,nan,nan,nan,nan
1,127,0,0,1.0,0.0,0.21994835765872267,0,0.0,0.0,0.0,0.4539180053798829,0.15811954839593623,0.2957984569839467,0.6120375537758191,0.15811954839593623,0.2634233543843341,4,3,7,8,1,6,nan,nan,nan,nan,nan,nan,nan,nan,nan,nan,nan,nan,0.0,nan,nan,nan,nan,nan,nan,nan,nan,nan,nan,nan,nan,nan,nan,nan,nan,nan,nan,1943.5709928221295,2165.3299493355407,nan,2165.5498976931995,nan,nan,nan,nan
1,128,1,1,1.0,1.0,0.3551546975140809,0,0.0,0.0,0.0,0.4518834867040467,0.15892218552868176,0.29296130117536495,0.6108056722327284,0.15892218552868176,0.2972866151758353,1,7,6,2,8,3,nan,nan,nan,nan,nan,nan,nan,nan,nan,nan,nan,nan,0.0,nan,nan,nan,nan,nan,nan,nan,nan,nan,nan,nan,nan,nan,nan,nan,nan,nan,nan,1943.5709928221295,2166.3467138520027,nan,2166.701868549517,nan,nan,nan,nan
1,129,1,1,1.0,1.0,0.34636261338891927,0,0.0,0.0,0.0,0.45104961783171943,0.15848816502783472,0.2925614528038847,0.6095377828595542,0.15848816502783472,0.3071552228539076,6,5,3,7,1,4,nan,nan,nan,nan,nan,nan,nan,nan,nan,nan,nan,nan,0.0,nan,nan,nan,nan,nan,nan,nan,nan,nan,nan,nan,nan,nan,nan,nan,nan,nan,nan,1943.5709928221295,2167.3635265497323,nan,2167.7098891631213,nan,nan,nan,nan
1,130,1,1,1.0,1.0,0.3614883964364708,0,0.0,0.0,0.0,0.4501548571099861,0.1581033828095368,0.2920514743004493,0.6082582399195229,0.1581033828095368,0.3543352357798237,1,7,8,0,2,5,nan,nan,nan,nan,nan,nan,nan,nan,nan,nan,nan,nan,0.0,nan,nan,nan,nan,nan,nan,nan,nan,nan,nan,nan,nan,nan,nan,nan,nan,nan,nan,1943.5709928221295,2168.3803224267867,nan,2168.741810823223,nan,nan,nan,nan
1,131,1,1,1.0,1.0,0.4967252415990515,0,0.0,0.0,0.0,0.44940344642631225,0.15764169402593772,0.2917617524003745,0.60704514045225,0.15764169402593772,0.40152541714148055,4,0,1,7,5,6,nan,nan,nan,nan,nan,nan,nan,nan,nan,nan,nan,nan,0.0,nan,nan,nan,nan,nan,nan,nan,nan,nan,nan,nan,nan,nan,nan,nan,nan,nan,nan,1943.5709928221295,2169.3971103211406,nan,2169.8938355627397,nan,nan,nan,nan
1,132,1,1,1.0,1.0,0.48751349574376945,0,0.0,0.0,0.0,0.449801108570621,0.1570373602784917,0.2927637482921293,0.6068384688491126,0.1570373602784917,0.4485757112597639,2,5,4,8,6,0,nan,nan,nan,nan,nan,nan,nan,nan,nan,nan,nan,nan,0.0,nan,nan,nan,nan,nan,nan,nan,nan,nan,nan,nan,nan,nan,nan,nan,nan,nan,nan,1943.5709928221295,2170.422245264337,nan,2170.909758760081,nan,nan,nan,nan
1,133,1,1,1.0,1.0,0.5907075148825243,0,0.0,0.0,0.0,0.45011537846373056,0.15641924280981734,0.2936961356539132,0.6065346212735478,0.15641924280981734,0.524982084075115,7,1,8,0,2,5,nan,nan,nan,nan,nan,nan,nan,nan,nan,nan,nan,nan,0.0,nan,nan,nan,nan,nan,nan,nan,nan,nan,nan,nan,nan,nan,nan,nan,nan,nan,nan,1943.5709928221295,2171.4390479836984,nan,2172.029755498581,nan,nan,nan,nan
1,134,1,1,1.0,1.0,0.6138904038598412,0,0.0,0.0,0.0,0.4512772969465305,0.1562906895056558,0.2949866074408747,0.6075679864521863,0.1562906895056558,0.5640371381620449,0,3,6,8,7,4,nan,nan,nan,nan,nan,nan,nan,nan,nan,nan,nan,nan,0.0,nan,nan,nan,nan,nan,nan,nan,nan,nan,nan,nan,nan,nan,nan,nan,nan,nan,nan,1943.5709928221295,2172.4558233338175,nan,2173.0697137376774,nan,nan,nan,nan
1,135,1,1,1.0,1.0,0.6290769124207145,0,0.0,1.0,0.0,0.45261019126549207,0.15633787001283095,0.2962723212526611,0.608948061278323,0.15633787001283095,0.6112249437210266,1,6,2,5,8,0,nan,nan,nan,nan,nan,nan,nan,nan,nan,nan,nan,nan,0.0,nan,nan,nan,nan,nan,nan,nan,nan,nan,nan,nan,nan,nan,nan,nan,nan,nan,nan,1943.5709928221295,2173.472622917121,nan,2174.1016998295418,nan,nan,nan,nan
1,136,1,1,1.0,1.0,0.7962818883752334,1,0.0,0.0,1.0,0.4540448800553719,0.15650538160743174,0.29753949844794014,0.6105502616628037,0.15650538160743174,0.679749734885263,0,7,5,2,4,1,1.0,1.0,1.0,1.0,1.0,1.0,1.0,0.0,0.0,0.0,0.0,1.0,2.0,0.0,2.0,8.0,7.0,6.0,1.0,1.0,3.0,4.0,2.0,5.0,6.0,2.328974021173053,6.912013301451225,8.01514488450266,3.5350461727684888,9.335794949634874,12.23929556130679,1943.5709928221295,2174.489381731659,2175.306152919373,2175.285663620034,2188.5911288871794,2189.5934162146223,2176.3146151471083,2188.582786684976
1,137,1,1,1.0,1.0,0.6210286444766098,0,0.0,0.0,0.0,0.4568048559289192,0.1588500902160571,0.29795476571286206,0.6156549461449763,0.1588500902160571,0.6821291484241859,1,3,2,4,7,8,nan,nan,nan,nan,nan,nan,nan,nan,nan,nan,nan,nan,0.0,nan,nan,nan,nan,nan,nan,nan,nan,nan,nan,nan,nan,nan,nan,nan,nan,nan,nan,1943.5709928221295,2189.8163099019366,nan,2190.4373385464132,nan,nan,nan,nan
1,138,1,1,1.0,1.0,0.6598587576008867,0,0.0,0.0,0.0,0.4581186462373007,0.15888836939556505,0.29923027684173564,0.6170070156328658,0.15888836939556505,0.6923897634842433,6,8,0,7,4,1,nan,nan,nan,nan,nan,nan,nan,nan,nan,nan,nan,nan,0.0,nan,nan,nan,nan,nan,nan,nan,nan,nan,nan,nan,nan,nan,nan,nan,nan,nan,nan,1943.5709928221295,2190.841439143205,nan,2191.501297900806,nan,nan,nan,nan
1,139,1,1,1.0,1.0,0.7150325850780064,0,0.0,1.0,0.0,0.4597197582322498,0.15926580819519173,0.3004539500370581,0.6189855664274415,0.15926580819519173,0.6653066623851677,7,3,1,0,6,4,nan,nan,nan,nan,nan,nan,nan,nan,nan,nan,nan,nan,0.0,nan,nan,nan,nan,nan,nan,nan,nan,nan,nan,nan,nan,nan,nan,nan,nan,nan,nan,1943.5709928221295,2191.858239866895,nan,2192.573272451973,nan,nan,nan,nan
1,140,1,1,nan,nan,nan,0,0.0,0.0,0.0,0.4617300954515077,0.16023449056698386,0.30149560488452387,0.6219645860184916,0.16023449056698386,0.6874456713394466,6,8,3,5,4,7,nan,nan,nan,nan,nan,nan,nan,nan,nan,nan,nan,nan,0.0,nan,nan,nan,nan,nan,nan,nan,nan,nan,nan,nan,nan,nan,nan,nan,nan,nan,nan,1943.5709928221295,2192.8833425942103,nan,nan,nan,nan,nan,nan
1,141,1,1,1.0,1.0,0.5291218721031328,0,0.0,0.0,0.0,0.4617300954515077,0.16023449056698386,0.30149560488452387,0.6219645860184916,0.16023449056698386,0.6220772285905696,1,3,0,2,8,4,nan,nan,nan,nan,nan,nan,nan,nan,nan,nan,nan,nan,0.0,nan,nan,nan,nan,nan,nan,nan,nan,nan,nan,nan,nan,nan,nan,nan,nan,nan,nan,1943.5709928221295,2193.900113097694,nan,2194.429234969797,nan,nan,nan,nan
1,142,1,1,1.0,1.0,0.6962721095733286,0,0.0,0.0,0.0,0.46225659370659855,0.1597175937824902,0.3025389999241084,0.6219741874890887,0.1597175937824902,0.6126969908382307,8,4,1,3,2,6,nan,nan,nan,nan,nan,nan,nan,nan,nan,nan,nan,nan,0.0,nan,nan,nan,nan,nan,nan,nan,nan,nan,nan,nan,nan,nan,nan,nan,nan,nan,nan,1943.5709928221295,2194.916922659366,nan,2195.613194768939,nan,nan,nan,nan
1,143,1,1,nan,nan,nan,0,0.0,0.0,0.0,0.4640706674730073,0.1604156807179852,0.3036549867550221,0.6244863481909925,0.1604156807179852,0.6126969908382307,1,5,7,2,3,8,nan,nan,nan,nan,nan,nan,nan,nan,nan,nan,nan,nan,0.0,nan,nan,nan,nan,nan,nan,nan,nan,nan,nan,nan,nan,nan,nan,nan,nan,nan,nan,1943.5709928221295,2195.933721672478,nan,nan,nan,nan,nan,nan
1,144,1,1,nan,nan,nan,0,0.0,0.0,0.0,0.4640706674730073,0.1604156807179852,0.3036549867550221,0.6244863481909925,0.1604156807179852,0.6962721095733286,4,2,3,5,0,7,nan,nan,nan,nan,nan,nan,nan,nan,nan,nan,nan,nan,0.0,nan,nan,nan,nan,nan,nan,nan,nan,nan,nan,nan,nan,nan,nan,nan,nan,nan,nan,1943.5709928221295,2196.958830386815,nan,nan,nan,nan,nan,nan
1,145,1,1,nan,nan,nan,0,0.0,0.0,0.0,0.4640706674730073,0.16041568071798523,0.30365498675502206,0.6244863481909926,0.16041568071798523,nan,2,3,8,6,5,1,nan,nan,nan,nan,nan,nan,nan,nan,nan,nan,nan,nan,0.0,nan,nan,nan,nan,nan,nan,nan,nan,nan,nan,nan,nan,nan,nan,nan,nan,nan,nan,1943.5709928221295,2197.983975593477,nan,nan,nan,nan,nan,nan
1,146,1,1,1.0,1.0,0.7243292896237108,0,0.0,0.0,0.0,0.4640706674730073,0.16041568071798523,0.30365498675502206,0.6244863481909926,0.16041568071798523,0.7243292896237108,6,1,0,3,7,5,nan,nan,nan,nan,nan,nan,nan,nan,nan,nan,nan,nan,0.0,nan,nan,nan,nan,nan,nan,nan,nan,nan,nan,nan,nan,nan,nan,nan,nan,nan,nan,1943.5709928221295,2199.000777742647,nan,2199.725107032271,nan,nan,nan,nan
1,147,1,1,1.0,1.0,0.7552397132276383,0,0.0,0.0,0.0,0.46607265687416655,0.16140715610406728,0.30466550077009924,0.6274798129782339,0.16140715610406728,0.7397845014256745,4,0,8,2,6,7,nan,nan,nan,nan,nan,nan,nan,nan,nan,nan,nan,nan,0.0,nan,nan,nan,nan,nan,nan,nan,nan,nan,nan,nan,nan,nan,nan,nan,nan,nan,nan,1943.5709928221295,2200.0258918738145,nan,2200.781131587042,nan,nan,nan,nan
1,148,0,0,0.0,1.0,0.7223430238482251,0,0.0,0.0,0.0,0.46828003898373505,0.16274774161966862,0.3055322973640664,0.6310277806034037,0.16274774161966862,0.7339706755665247,7,2,6,1,0,5,nan,nan,nan,nan,nan,nan,nan,nan,nan,nan,nan,nan,0.0,nan,nan,nan,nan,nan,nan,nan,nan,nan,nan,nan,nan,nan,nan,nan,nan,nan,nan,1943.5709928221295,2201.0427074225117,nan,2201.76505044636,nan,nan,nan,nan
1,149,1,1,1.0,1.0,0.70518421923407,0,0.0,0.0,0.0,0.4702047585660418,0.16361987983001675,0.3065848787360251,0.6338246383960586,0.16361987983001675,0.7275889854366445,2,4,3,8,7,6,nan,nan,nan,nan,nan,nan,nan,nan,nan,nan,nan,nan,0.0,nan,nan,nan,nan,nan,nan,nan,nan,nan,nan,nan,nan,nan,nan,nan,nan,nan,nan,1943.5709928221295,2202.067836948878,nan,2202.773021168112,nan,nan,nan,nan
1,150,1,1,nan,nan,nan,0,0.0,0.0,0.0,0.4719715214282074,0.16426261716520688,0.30770890426300057,0.6362341385934143,0.16426261716520688,0.7137636215411476,8,1,0,3,6,5,nan,nan,nan,nan,nan,nan,nan,nan,nan,nan,nan,nan,0.0,nan,nan,nan,nan,nan,nan,nan,nan,nan,nan,nan,nan,nan,nan,nan,nan,nan,nan,1943.5709928221295,2203.0846271240043,nan,nan,nan,nan,nan,nan
1,151,1,1,nan,nan,nan,0,0.0,0.0,0.0,0.4719715214282074,0.16426261716520688,0.30770890426300057,0.6362341385934143,0.16426261716520688,0.70518421923407,6,3,5,1,4,0,nan,nan,nan,nan,nan,nan,nan,nan,nan,nan,nan,nan,0.0,nan,nan,nan,nan,nan,nan,nan,nan,nan,nan,nan,nan,nan,nan,nan,nan,nan,nan,1943.5709928221295,2204.101410741914,nan,nan,nan,nan,nan,nan
1,152,1,1,nan,nan,nan,0,0.0,0.0,0.0,0.4719715214282074,0.16426261716520688,0.30770890426300057,0.6362341385934143,0.16426261716520688,nan,2,8,0,3,5,4,nan,nan,nan,nan,nan,nan,nan,nan,nan,nan,nan,nan,0.0,nan,nan,nan,nan,nan,nan,nan,nan,nan,nan,nan,nan,nan,nan,nan,nan,nan,nan,1943.5709928221295,2205.1182026276183,nan,nan,nan,nan,nan,nan
1,153,1,1,1.0,1.0,0.061959118906088406,0,0.0,0.0,0.0,0.4719715214282074,0.16426261716520688,0.30770890426300057,0.6362341385934143,0.16426261716520688,0.061959118906088406,5,0,8,2,1,3,nan,nan,nan,nan,nan,nan,nan,nan,nan,nan,nan,nan,0.0,nan,nan,nan,nan,nan,nan,nan,nan,nan,nan,nan,nan,nan,nan,nan,nan,nan,nan,1943.5709928221295,2206.1349976493802,nan,2206.1969567682863,nan,nan,nan,nan
1,154,1,1,1.0,1.0,0.5971236066252459,0,0.0,0.0,0.0,0.4689117273795349,0.16740979305512838,0.30150193432440653,0.6363215204346633,0.16740979305512838,0.32954136276566715,0,4,6,8,5,7,nan,nan,nan,nan,nan,nan,nan,nan,nan,nan,nan,nan,0.0,nan,nan,nan,nan,nan,nan,nan,nan,nan,nan,nan,nan,nan,nan,nan,nan,nan,nan,1943.5709928221295,2207.1517872543154,nan,2207.7489108609407,nan,nan,nan,nan
1,155,1,1,1.0,1.0,0.6283182712213602,0,0.0,0.0,0.0,0.4698614450035772,0.16715053586823947,0.3027109091353377,0.6370119808718167,0.16715053586823947,0.4291336655842315,5,8,1,6,7,4,nan,nan,nan,nan,nan,nan,nan,nan,nan,nan,nan,nan,0.0,nan,nan,nan,nan,nan,nan,nan,nan,nan,nan,nan,nan,nan,nan,nan,nan,nan,nan,1943.5709928221295,2208.1685751486693,nan,2208.7968934198907,nan,nan,nan,nan
1,156,1,1,1.0,1.0,0.6995033907915058,0,0.0,1.0,0.0,0.47102656872576676,0.16708420001137925,0.3039423687143875,0.638110768737146,0.16708420001137925,0.6416484228793706,0,2,8,1,3,6,nan,nan,nan,nan,nan,nan,nan,nan,nan,nan,nan,nan,0.0,nan,nan,nan,nan,nan,nan,nan,nan,nan,nan,nan,nan,nan,nan,nan,nan,nan,nan,1943.5709928221295,2209.1853638983157,nan,2209.884867289107,nan,nan,nan,nan
1,157,0,0,0.0,1.0,0.690698477326805,1,0.0,0.0,1.0,0.47269428275544373,0.16760551289924142,0.3050887698562023,0.6402997956546852,0.16760551289924142,0.672840046446557,2,1,3,4,0,7,1.0,1.0,1.0,1.0,1.0,1.0,1.0,0.0,0.0,1.0,0.0,0.0,2.0,2.0,8.0,6.0,4.0,1.0,0.0,2.0,3.0,4.0,1.0,5.0,6.0,3.327915458692587,4.942334145955101,5.742959191036789,2.3751636096276343,6.982358527387987,12.414010828528262,1943.5709928221295,2210.2021480864205,2211.0105650978876,2210.8928465637473,2224.47055083737,2225.4725887055683,2212.019039014569,2224.4622171880546
1,158,1,1,nan,nan,nan,0,0.0,0.0,0.0,0.4742740232958159,0.1680176778249795,0.3062563454708364,0.6422917011207954,0.1680176778249795,0.6951009340591554,6,3,2,0,5,8,nan,nan,nan,nan,nan,nan,nan,nan,nan,nan,nan,nan,0.0,nan,nan,nan,nan,nan,nan,nan,nan,nan,nan,nan,nan,nan,nan,nan,nan,nan,nan,1943.5709928221295,2225.695730141546,nan,nan,nan,nan,nan,nan
1,159,1,1,1.0,1.0,0.6439064804362715,0,0.0,0.0,0.0,0.4742740232958159,0.1680176778249795,0.3062563454708364,0.6422917011207954,0.1680176778249795,0.6673024788815383,8,7,1,2,3,6,nan,nan,nan,nan,nan,nan,nan,nan,nan,nan,nan,nan,0.0,nan,nan,nan,nan,nan,nan,nan,nan,nan,nan,nan,nan,nan,nan,nan,nan,nan,nan,1943.5709928221295,2226.712514614748,nan,2227.3564210951845,nan,nan,nan,nan
1,160,1,1,1.0,1.0,0.33914568619366037,0,0.0,0.0,0.0,0.47549440068531557,0.16802491857452642,0.30746948211078917,0.643519319259842,0.16802491857452642,0.49152608331496594,6,0,3,4,2,1,nan,nan,nan,nan,nan,nan,nan,nan,nan,nan,nan,nan,0.0,nan,nan,nan,nan,nan,nan,nan,nan,nan,nan,nan,nan,nan,nan,nan,nan,nan,nan,1943.5709928221295,2227.7292911052537,nan,2228.0684367914473,nan,nan,nan,nan
1,161,1,1,1.0,1.0,0.2983084952684294,0,0.0,0.0,0.0,0.4745204812960895,0.1678170360563101,0.3067034452397794,0.6423375173523995,0.1678170360563101,0.4271202206327871,1,7,8,2,0,6,nan,nan,nan,nan,nan,nan,nan,nan,nan,nan,nan,nan,0.0,nan,nan,nan,nan,nan,nan,nan,nan,nan,nan,nan,nan,nan,nan,nan,nan,nan,nan,1943.5709928221295,2228.7461157770304,nan,2229.044424272299,nan,nan,nan,nan
1,162,1,1,1.0,1.0,0.30548408350296086,0,0.0,0.0,0.0,0.47327075089873016,0.1678734010764617,0.30539734982226846,0.6411441519751919,0.1678734010764617,0.3143127549883502,2,5,0,7,8,1,nan,nan,nan,nan,nan,nan,nan,nan,nan,nan,nan,nan,0.0,nan,nan,nan,nan,nan,nan,nan,nan,nan,nan,nan,nan,nan,nan,nan,nan,nan,nan,1943.5709928221295,2229.762906522348,nan,2230.068390605851,nan,nan,nan,nan
1,163,1,1,1.0,1.0,0.352666377199057,0,0.0,0.0,0.0,0.4720891546494642,0.16786863196536073,0.3042205226841035,0.6399577866148249,0.16786863196536073,0.3188196519901491,6,1,2,8,4,0,nan,nan,nan,nan,nan,nan,nan,nan,nan,nan,nan,nan,0.0,nan,nan,nan,nan,nan,nan,nan,nan,nan,nan,nan,nan,nan,nan,nan,nan,nan,nan,1943.5709928221295,2230.7797006888213,nan,2231.1323670660204,nan,nan,nan,nan
1,164,1,1,1.0,1.0,0.27184899476196733,0,0.0,0.0,0.0,0.47125403033162916,0.16757640332022697,0.3036776270114022,0.6388304336518561,0.16757640332022697,0.30999981848799507,4,6,0,5,1,8,nan,nan,nan,nan,nan,nan,nan,nan,nan,nan,nan,nan,0.0,nan,nan,nan,nan,nan,nan,nan,nan,nan,nan,nan,nan,nan,nan,nan,nan,nan,nan,1943.5709928221295,2231.7964962807782,nan,2232.06834527554,nan,nan,nan,nan
1,165,1,1,1.0,1.0,0.3190475389492349,0,0.0,0.0,0.0,0.4698692731401732,0.1678125385674862,0.302056734572687,0.6376818117076594,0.1678125385674862,0.31452097030341974,2,8,1,7,5,3,nan,nan,nan,nan,nan,nan,nan,nan,nan,nan,nan,nan,0.0,nan,nan,nan,nan,nan,nan,nan,nan,nan,nan,nan,nan,nan,nan,nan,nan,nan,nan,1943.5709928221295,2232.813284175132,nan,2233.1323317140814,nan,nan,nan,nan
1,166,1,1,1.0,1.0,0.25421436446049483,0,1.0,0.0,0.0,0.4688291232492012,0.16769803002484104,0.30113109322436016,0.6365271532740422,0.16769803002484104,0.28170363272389903,6,1,5,2,3,7,nan,nan,nan,nan,nan,nan,nan,nan,nan,nan,nan,nan,0.0,nan,nan,nan,nan,nan,nan,nan,nan,nan,nan,nan,nan,nan,nan,nan,nan,nan,nan,1943.5709928221295,2233.8300780565114,nan,2234.084292420972,nan,nan,nan,nan
1,167,1,1,1.0,1.0,0.2614062031825597,1,0.0,0.0,1.0,0.4673591591479087,0.16805750123790023,0.2993016579100085,0.6354166603858089,0.16805750123790023,0.2782227021974298,3,2,1,4,6,0,1.0,1.0,1.0,1.0,1.0,1.0,0.0,0.0,0.0,0.0,0.0,0.0,0.0,8.0,4.0,2.0,7.0,2.0,6.0,2.0,3.0,4.0,1.0,5.0,6.0,8.560826003744296,9.745065767434426,10.70521985627056,4.066377541028487,11.928255521532265,12.640487890963414,1943.5709928221295,2234.846872793176,2235.6552721286753,2235.1082789963584,2249.3486208610084,2250.354035694625,2236.672068861015,2249.3402855011154
1,168,1,1,nan,nan,nan,0,0.0,0.0,0.0,0.4659581186311376,0.16833828379118054,0.2976198348399571,0.6342964024223181,0.16833828379118054,0.25781028382152726,2,6,5,0,4,7,nan,nan,nan,nan,nan,nan,nan,nan,nan,nan,nan,nan,0.0,nan,nan,nan,nan,nan,nan,nan,nan,nan,nan,nan,nan,nan,nan,nan,nan,nan,nan,1943.5709928221295,2250.5738072925924,nan,nan,nan,nan,nan,nan
1,169,1,1,1.0,1.0,0.37295154760067817,0,0.0,0.0,0.0,0.4659581186311376,0.16833828379118054,0.2976198348399571,0.6342964024223181,0.16833828379118054,0.31717887539161893,1,3,4,8,0,5,nan,nan,nan,nan,nan,nan,nan,nan,nan,nan,nan,nan,0.0,nan,nan,nan,nan,nan,nan,nan,nan,nan,nan,nan,nan,nan,nan,nan,nan,nan,nan,1943.5709928221295,2251.5989222790486,nan,2251.9718738266492,nan,nan,nan,nan
1,170,1,1,1.0,1.0,0.3077736917148286,0,0.0,0.0,0.0,0.46532969585390477,0.1679415340250545,0.2973881618288503,0.6332712298789592,0.1679415340250545,0.3403626196577534,2,0,6,1,3,8,nan,nan,nan,nan,nan,nan,nan,nan,nan,nan,nan,nan,0.0,nan,nan,nan,nan,nan,nan,nan,nan,nan,nan,nan,nan,nan,nan,nan,nan,nan,nan,1943.5709928221295,2252.6240600732053,nan,2252.93183376492,nan,nan,nan,nan
1,171,1,1,1.0,1.0,0.2586419096660393,0,0.0,0.0,0.0,0.4642722730073338,0.16787064373202737,0.29640162927530644,0.6321429167393612,0.16787064373202737,0.3131223829938487,8,2,7,5,1,6,nan,nan,nan,nan,nan,nan,nan,nan,nan,nan,nan,nan,0.0,nan,nan,nan,nan,nan,nan,nan,nan,nan,nan,nan,nan,nan,nan,nan,nan,nan,nan,1943.5709928221295,2253.6491784808204,nan,2253.9078203904864,nan,nan,nan,nan
1,172,1,1,1.0,1.0,0.2018424632078677,0,1.0,0.0,0.0,0.46290140391839185,0.16814486522128877,0.29475653869710305,0.6310462691396806,0.16814486522128877,0.25608602152957854,3,4,6,0,7,1,nan,nan,nan,nan,nan,nan,nan,nan,nan,nan,nan,nan,0.0,nan,nan,nan,nan,nan,nan,nan,nan,nan,nan,nan,nan,nan,nan,nan,nan,nan,nan,1943.5709928221295,2254.66597521316,nan,2254.867817676368,nan,nan,nan,nan
1,173,1,1,1.0,1.0,0.16101753142720554,1,0.0,0.0,1.0,0.4611725367613685,0.1689195268520319,0.29225300990933656,0.6300920636134004,0.1689195268520319,0.20716730143370418,8,7,5,6,2,4,1.0,1.0,1.0,1.0,1.0,1.0,0.0,0.0,1.0,0.0,0.0,1.0,2.0,2.0,6.0,5.0,3.0,0.0,4.0,3.0,2.0,1.0,6.0,5.0,4.0,8.612459790736466,6.236385868691286,5.2529961480649945,19.115662704873102,12.332504368387163,10.611556035531976,1943.5709928221295,2255.6827779325213,2256.491165579071,2255.8437954639485,2276.6603231794397,2277.6690576741203,2257.507986544595,2276.652008061381
1,174,1,1,nan,nan,nan,0,0.0,0.0,0.0,0.4591978327789069,0.17010262187561773,0.28909521090328916,0.6293004546545247,0.17010262187561773,0.18142999731753662,1,5,8,0,7,6,nan,nan,nan,nan,nan,nan,nan,nan,nan,nan,nan,nan,0.0,nan,nan,nan,nan,nan,nan,nan,nan,nan,nan,nan,nan,nan,nan,nan,nan,nan,nan,1943.5709928221295,2277.885519304298,nan,nan,nan,nan,nan,nan
1,175,1,1,nan,nan,nan,0,0.0,0.0,0.0,0.4591978327789069,0.17010262187561773,0.28909521090328916,0.6293004546545247,0.17010262187561773,0.16101753142720554,8,3,0,7,2,1,nan,nan,nan,nan,nan,nan,nan,nan,nan,nan,nan,nan,0.0,nan,nan,nan,nan,nan,nan,nan,nan,nan,nan,nan,nan,nan,nan,nan,nan,nan,nan,1943.5709928221295,2278.9106291590215,nan,nan,nan,nan,nan,nan
1,176,1,1,1.0,1.0,0.09983244891554932,0,0.0,0.0,0.0,0.4591978327789069,0.17010262187561773,0.28909521090328916,0.6293004546545247,0.17010262187561773,0.09983244891554932,0,4,6,8,1,7,nan,nan,nan,nan,nan,nan,nan,nan,nan,nan,nan,nan,0.0,nan,nan,nan,nan,nan,nan,nan,nan,nan,nan,nan,nan,nan,nan,nan,nan,nan,nan,1943.5709928221295,2279.9274387206933,nan,2280.027271169609,nan,nan,nan,nan
1,177,0,0,1.0,0.0,0.7149863994818588,0,0.0,0.0,0.0,0.45684903942032284,0.17200099755323583,0.284848041867087,0.6288500369735587,0.17200099755323583,0.4074094241987041,3,8,1,5,4,0,nan,nan,nan,nan,nan,nan,nan,nan,nan,nan,nan,nan,0.0,nan,nan,nan,nan,nan,nan,nan,nan,nan,nan,nan,nan,nan,nan,nan,nan,nan,nan,1943.5709928221295,2280.9442112198485,nan,2281.6591976193304,nan,nan,nan,nan
1,178,1,1,1.0,1.0,0.4981826537732559,0,0.0,0.0,0.0,0.45852525604409905,0.17269082623833895,0.2858344298057601,0.631216082282438,0.17269082623833895,0.4376671673902213,7,6,2,4,1,3,nan,nan,nan,nan,nan,nan,nan,nan,nan,nan,nan,nan,0.0,nan,nan,nan,nan,nan,nan,nan,nan,nan,nan,nan,nan,nan,nan,nan,nan,nan,nan,1943.5709928221295,2281.9610048161303,nan,2282.4591874699036,nan,nan,nan,nan
1,179,1,1,1.0,1.0,0.4013921821497206,0,0.0,0.0,0.0,0.45878111022299684,0.17216213791886775,0.2866189723041291,0.6309432481418646,0.17216213791886775,0.5381870784682784,6,5,1,3,2,4,nan,nan,nan,nan,nan,nan,nan,nan,nan,nan,nan,nan,0.0,nan,nan,nan,nan,nan,nan,nan,nan,nan,nan,nan,nan,nan,nan,nan,nan,nan,nan,1943.5709928221295,2282.977778455672,nan,2283.3791706378215,nan,nan,nan,nan
1,180,1,1,1.0,1.0,0.32857374599552713,0,0.0,0.0,0.0,0.4584132324789374,0.1716705559468422,0.2867426765320952,0.6300837884257796,0.1716705559468422,0.4093828606395012,2,3,6,7,8,1,nan,nan,nan,nan,nan,nan,nan,nan,nan,nan,nan,nan,0.0,nan,nan,nan,nan,nan,nan,nan,nan,nan,nan,nan,nan,nan,nan,nan,nan,nan,nan,1943.5709928221295,2283.99455865243,nan,2284.3231323984255,nan,nan,nan,nan
1,181,1,1,1.0,1.0,0.4317426766610879,0,0.0,0.0,0.0,0.45758622938031696,0.17143442340878493,0.286151805971532,0.6290206527891019,0.17143442340878493,0.38723620160211186,0,6,7,4,5,8,nan,nan,nan,nan,nan,nan,nan,nan,nan,nan,nan,nan,0.0,nan,nan,nan,nan,nan,nan,nan,nan,nan,nan,nan,nan,nan,nan,nan,nan,nan,nan,1943.5709928221295,2285.0113827540117,nan,2285.443125430673,nan,nan,nan,nan
1,182,1,1,1.0,1.0,0.3269070731512329,0,0.0,0.0,0.0,0.4574226625909547,0.17090333751402007,0.28651932507693467,0.6283260001049747,0.17090333751402007,0.36240783193594933,7,5,8,1,0,3,nan,nan,nan,nan,nan,nan,nan,nan,nan,nan,nan,nan,0.0,nan,nan,nan,nan,nan,nan,nan,nan,nan,nan,nan,nan,nan,nan,nan,nan,nan,nan,1943.5709928221295,2286.0281914603984,nan,2286.3550985335496,nan,nan,nan,nan
1,183,0,0,0.0,1.0,0.38207548380160006,0,0.0,0.0,0.0,0.4566018098271829,0.17067721949009976,0.2859245903370832,0.6272790293172826,0.17067721949009976,0.3802417445379736,1,6,4,7,2,0,nan,nan,nan,nan,nan,nan,nan,nan,nan,nan,nan,nan,0.0,nan,nan,nan,nan,nan,nan,nan,nan,nan,nan,nan,nan,nan,nan,nan,nan,nan,nan,1943.5709928221295,2287.04499560524,nan,2287.4270710890414,nan,nan,nan,nan
1,184,1,1,1.0,1.0,0.4689451751328306,0,0.0,0.0,0.0,0.456136020289523,0.17024436236801144,0.28589165792151155,0.6263803826575345,0.17024436236801144,0.39264257736188785,8,2,3,1,5,7,nan,nan,nan,nan,nan,nan,nan,nan,nan,nan,nan,nan,0.0,nan,nan,nan,nan,nan,nan,nan,nan,nan,nan,nan,nan,nan,nan,nan,nan,nan,nan,1943.5709928221295,2288.070096051786,nan,2288.539041226919,nan,nan,nan,nan
1,185,1,1,1.0,1.0,0.38012514016008936,0,0.0,0.0,0.0,0.45621558025749387,0.16971781333443164,0.2864977669230622,0.6259333935919256,0.16971781333443164,0.41038193303150666,5,3,2,8,1,4,nan,nan,nan,nan,nan,nan,nan,nan,nan,nan,nan,nan,0.0,nan,nan,nan,nan,nan,nan,nan,nan,nan,nan,nan,nan,nan,nan,nan,nan,nan,nan,1943.5709928221295,2289.086887367299,nan,2289.467012507459,nan,nan,nan,nan
1,186,1,1,1.0,1.0,0.3633189996435249,0,0.0,0.0,0.0,0.4557458861828185,0.16929811419416965,0.2864477719886489,0.6250440003769882,0.16929811419416965,0.40412977164548164,2,0,1,6,4,3,nan,nan,nan,nan,nan,nan,nan,nan,nan,nan,nan,nan,0.0,nan,nan,nan,nan,nan,nan,nan,nan,nan,nan,nan,nan,nan,nan,nan,nan,nan,nan,1943.5709928221295,2290.1036883760826,nan,2290.467007375726,nan,nan,nan,nan
1,187,1,1,1.0,1.0,0.3465208418238035,0,0.0,0.0,0.0,0.45517885006908054,0.16893223417313594,0.2862466158959446,0.6241110842422165,0.16893223417313594,0.36332166054247256,4,6,0,5,7,2,nan,nan,nan,nan,nan,nan,nan,nan,nan,nan,nan,nan,0.0,nan,nan,nan,nan,nan,nan,nan,nan,nan,nan,nan,nan,nan,nan,nan,nan,nan,nan,1943.5709928221295,2291.120471423801,nan,2291.466992265625,nan,nan,nan,nan
1,188,1,1,1.0,1.0,0.625682556128595,0,0.0,0.0,0.0,0.45451630123831666,0.16862870219740414,0.28588759904091254,0.6231450034357208,0.16862870219740414,0.44517413253197446,7,8,3,0,1,6,nan,nan,nan,nan,nan,nan,nan,nan,nan,nan,nan,nan,0.0,nan,nan,nan,nan,nan,nan,nan,nan,nan,nan,nan,nan,nan,nan,nan,nan,nan,nan,1943.5709928221295,2292.137269296527,nan,2292.7629518526555,nan,nan,nan,nan
1,189,0,0,0.0,1.0,0.4805263561538595,0,0.0,0.0,0.0,0.4555536724800759,0.16864100571559903,0.28691266676447685,0.6241946781956749,0.16864100571559903,0.4842432513687527,5,2,6,3,7,8,nan,nan,nan,nan,nan,nan,nan,nan,nan,nan,nan,nan,0.0,nan,nan,nan,nan,nan,nan,nan,nan,nan,nan,nan,nan,nan,nan,nan,nan,nan,nan,1943.5709928221295,2293.1624048099147,nan,2293.6429311660686,nan,nan,nan,nan
1,190,1,1,1.0,1.0,0.5276884080158197,0,0.0,0.0,0.0,0.4557041103335324,0.16814338816967914,0.2875607221638533,0.6238474985032115,0.16814338816967914,0.5446324400994248,0,6,5,7,2,4,nan,nan,nan,nan,nan,nan,nan,nan,nan,nan,nan,nan,0.0,nan,nan,nan,nan,nan,nan,nan,nan,nan,nan,nan,nan,nan,nan,nan,nan,nan,nan,1943.5709928221295,2294.1792069590847,nan,2294.7068953671005,nan,nan,nan,nan
1,191,1,1,1.0,1.0,0.48690167913082405,0,0.0,0.0,0.0,0.45613515403222876,0.16773117468058396,0.2884039793516448,0.6238663287128128,0.16773117468058396,0.4983721477668344,2,3,7,5,6,0,nan,nan,nan,nan,nan,nan,nan,nan,nan,nan,nan,nan,0.0,nan,nan,nan,nan,nan,nan,nan,nan,nan,nan,nan,nan,nan,nan,nan,nan,nan,nan,1943.5709928221295,2295.195979173146,nan,2295.682880852277,nan,nan,nan,nan
1,192,1,1,1.0,1.0,0.3740825245404267,0,0.0,0.0,0.0,0.4563182881101966,0.1672479747002099,0.2890703134099867,0.6235662628104065,0.1672479747002099,0.46289087056235684,0,7,1,6,3,8,nan,nan,nan,nan,nan,nan,nan,nan,nan,nan,nan,nan,0.0,nan,nan,nan,nan,nan,nan,nan,nan,nan,nan,nan,nan,nan,nan,nan,nan,nan,nan,1943.5709928221295,2296.212780467027,nan,2296.5868629915676,nan,nan,nan,nan
1,193,1,1,1.0,1.0,0.3652396932702686,0,0.0,0.0,0.0,0.45583168595889617,0.16687165800837706,0.2889600279505191,0.6227033439672732,0.16687165800837706,0.40874129898050643,2,8,5,3,0,7,nan,nan,nan,nan,nan,nan,nan,nan,nan,nan,nan,nan,0.0,nan,nan,nan,nan,nan,nan,nan,nan,nan,nan,nan,nan,nan,nan,nan,nan,nan,nan,1943.5709928221295,2297.2296088450566,nan,2297.594848538327,nan,nan,nan,nan
1,194,1,1,1.0,1.0,0.3004740866017528,0,0.0,0.0,0.0,0.4552987918842572,0.166524296493577,0.28877449539068023,0.6218230883778342,0.166524296493577,0.3465987681374827,8,2,3,1,7,0,nan,nan,nan,nan,nan,nan,nan,nan,nan,nan,nan,nan,0.0,nan,nan,nan,nan,nan,nan,nan,nan,nan,nan,nan,nan,nan,nan,nan,nan,nan,nan,1943.5709928221295,2298.2463434264064,nan,2298.546817513008,nan,nan,nan,nan
1,195,1,1,1.0,1.0,0.33684581451598206,0,0.0,0.0,0.0,0.45439338425102616,0.16645580581927694,0.2879375784317492,0.620849190070303,0.16645580581927694,0.3341865314626678,4,6,8,7,0,5,nan,nan,nan,nan,nan,nan,nan,nan,nan,nan,nan,nan,0.0,nan,nan,nan,nan,nan,nan,nan,nan,nan,nan,nan,nan,nan,nan,nan,nan,nan,nan,1943.5709928221295,2299.265932961891,nan,2299.602778776407,nan,nan,nan,nan
1,196,1,1,1.0,1.0,0.35447844914597226,0,0.0,0.0,0.0,0.4537099681479155,0.16621164764827498,0.2874983204996405,0.6199216157961904,0.16621164764827498,0.33059945008790237,8,3,1,2,6,4,nan,nan,nan,nan,nan,nan,nan,nan,nan,nan,nan,nan,0.0,nan,nan,nan,nan,nan,nan,nan,nan,nan,nan,nan,nan,nan,nan,nan,nan,nan,nan,1943.5709928221295,2300.2882802336753,nan,2300.6427586828213,nan,nan,nan,nan
1,197,1,1,1.0,1.0,0.2973682477422699,0,0.0,0.0,0.0,0.4531363755525285,0.16590121038242267,0.28723516517010583,0.6190375859349512,0.16590121038242267,0.32956417046807474,3,6,4,1,0,5,nan,nan,nan,nan,nan,nan,nan,nan,nan,nan,nan,nan,0.0,nan,nan,nan,nan,nan,nan,nan,nan,nan,nan,nan,nan,nan,nan,nan,nan,nan,nan,1943.5709928221295,2301.31337868455,nan,2301.6107469322924,nan,nan,nan,nan
1,198,0,0,0.0,1.0,0.4325372399907792,0,0.0,0.0,0.0,0.45224115642718216,0.16584232698306428,0.2863988294441179,0.6180834834102464,0.16584232698306428,0.3614613122930071,1,4,3,8,5,6,nan,nan,nan,nan,nan,nan,nan,nan,nan,nan,nan,nan,0.0,nan,nan,nan,nan,nan,nan,nan,nan,nan,nan,nan,nan,nan,nan,nan,nan,nan,nan,1943.5709928221295,2302.3301888164133,nan,2302.762726056404,nan,nan,nan,nan
1,199,1,1,1.0,1.0,0.5997025875622057,0,0.0,0.0,0.0,0.45212856261897416,0.16537448234178553,0.2867540802771886,0.6175030449607597,0.16537448234178553,0.4432026917650849,8,2,0,4,3,1,nan,nan,nan,nan,nan,nan,nan,nan,nan,nan,nan,nan,0.0,nan,nan,nan,nan,nan,nan,nan,nan,nan,nan,nan,nan,nan,nan,nan,nan,nan,nan,1943.5709928221295,2303.3469864040453,nan,2303.9466889916075,nan,nan,nan,nan
1,200,1,1,1.0,1.0,0.7748948208572983,0,0.0,0.0,0.0,0.4529670513970607,0.16527663192067535,0.2876904194763854,0.618243683317736,0.16527663192067535,0.6023782161367611,0,4,8,3,1,2,nan,nan,nan,nan,nan,nan,nan,nan,nan,nan,nan,nan,0.0,nan,nan,nan,nan,nan,nan,nan,nan,nan,nan,nan,nan,nan,nan,nan,nan,nan,nan,1943.5709928221295,2304.363776008977,nan,2305.138670829834,nan,nan,nan,nan
1,201,1,1,1.0,1.0,0.7257248359055666,0,0.0,1.0,0.0,0.45478585235446317,0.1665660523976365,0.28821979995682667,0.6213519047520997,0.1665660523976365,0.7001074147750236,6,2,0,1,4,7,nan,nan,nan,nan,nan,nan,nan,nan,nan,nan,nan,nan,0.0,nan,nan,nan,nan,nan,nan,nan,nan,nan,nan,nan,nan,nan,nan,nan,nan,nan,nan,1943.5709928221295,2305.3889029694765,nan,2306.114627805382,nan,nan,nan,nan
1,202,1,1,1.0,1.0,0.7489080099803687,1,0.0,0.0,1.0,0.4563079814755368,0.16732743492683563,0.2889805465487012,0.6236354164023724,0.16732743492683563,0.7498425555810778,0,3,5,2,8,4,1.0,1.0,1.0,1.0,1.0,1.0,1.0,0.0,0.0,1.0,0.0,0.0,2.0,0.0,6.0,8.0,2.0,1.0,3.0,2.0,3.0,4.0,1.0,5.0,6.0,4.233426569317089,7.639886337816279,9.528662011802226,3.098364203080564,11.200362528426922,14.599936651604366,1943.5709928221295,2306.405695140278,2307.21411015607,2307.1546031502585,2322.866030122703,2323.8752122185433,2308.2225738092893,2322.8576996094453
1,203,1,1,nan,nan,nan,0,0.0,0.0,0.0,0.45794261850629003,0.16827857037237076,0.28966404813391927,0.6262211888786609,0.16827857037237076,0.7373164229429676,5,2,3,1,7,6,nan,nan,nan,nan,nan,nan,nan,nan,nan,nan,nan,nan,0.0,nan,nan,nan,nan,nan,nan,nan,nan,nan,nan,nan,nan,nan,nan,nan,nan,nan,nan,1943.5709928221295,2324.099558471393,nan,nan,nan,nan,nan,nan
1,204,1,1,1.0,1.0,0.6137766504434694,0,0.0,0.0,0.0,0.45794261850629003,0.16827857037237076,0.28966404813391927,0.6262211888786609,0.16827857037237076,0.681342330211919,1,8,4,2,3,5,nan,nan,nan,nan,nan,nan,nan,nan,nan,nan,nan,nan,0.0,nan,nan,nan,nan,nan,nan,nan,nan,nan,nan,nan,nan,nan,nan,nan,nan,nan,nan,1943.5709928221295,2325.116382858072,nan,2325.7301595085155,nan,nan,nan,nan
1,205,1,1,1.0,1.0,0.36503698981687194,0,0.0,0.0,0.0,0.45880836312816325,0.16820974935694263,0.29059861377122065,0.6270181124851059,0.16820974935694263,0.48940682013017067,2,7,5,3,8,4,nan,nan,nan,nan,nan,nan,nan,nan,nan,nan,nan,nan,0.0,nan,nan,nan,nan,nan,nan,nan,nan,nan,nan,nan,nan,nan,nan,nan,nan,nan,nan,1943.5709928221295,2326.1331405322235,nan,2326.4981775220404,nan,nan,nan,nan
1,206,1,1,1.0,1.0,0.31623620454774937,0,0.0,0.0,0.0,0.4582902892424655,0.16788838126629965,0.29040190797616583,0.6261786705087652,0.16788838126629965,0.4316832816026969,7,0,2,4,3,8,nan,nan,nan,nan,nan,nan,nan,nan,nan,nan,nan,nan,0.0,nan,nan,nan,nan,nan,nan,nan,nan,nan,nan,nan,nan,nan,nan,nan,nan,nan,nan,1943.5709928221295,2327.149929852061,nan,2327.466166056609,nan,nan,nan,nan
1,207,1,1,1.0,1.0,0.21940296847969876,0,0.0,0.0,0.0,0.45750977229359346,0.16775548888812739,0.28975428340546605,0.6252652611817209,0.16775548888812739,0.30022538761477335,3,1,0,5,6,2,nan,nan,nan,nan,nan,nan,nan,nan,nan,nan,nan,nan,0.0,nan,nan,nan,nan,nan,nan,nan,nan,nan,nan,nan,nan,nan,nan,nan,nan,nan,nan,1943.5709928221295,2328.1667168911263,nan,2328.386119859606,nan,nan,nan,nan
1,208,1,1,1.0,1.0,0.16254165613281657,0,1.0,0.0,0.0,0.4562086422181077,0.1682148570720845,0.2879937851460232,0.6244234992901923,0.1682148570720845,0.23272694305342156,2,5,6,0,7,8,nan,nan,nan,nan,nan,nan,nan,nan,nan,nan,nan,nan,0.0,nan,nan,nan,nan,nan,nan,nan,nan,nan,nan,nan,nan,nan,nan,nan,nan,nan,nan,1943.5709928221295,2329.1835310143397,nan,2329.3460726704725,nan,nan,nan,nan
1,209,1,1,1.0,1.0,0.10578297844040208,1,0.0,0.0,1.0,0.4546126259893833,0.16914078232253324,0.2854718436668501,0.6237534083119165,0.16914078232253324,0.1625758676843058,0,7,4,5,8,6,1.0,1.0,1.0,1.0,1.0,1.0,1.0,0.0,0.0,1.0,0.0,0.0,2.0,0.0,4.0,8.0,5.0,6.0,2.0,2.0,6.0,5.0,1.0,4.0,3.0,3.428610038754414,12.596008595082822,8.932753200420848,2.159150435898482,7.420716863187408,6.452693261777313,1943.5709928221295,2330.200293820224,2331.0087128273663,2330.3060767986644,2344.668731238882,2345.667915008238,2332.033848340754,2344.6603990150506
1,210,1,1,1.0,1.0,0.348134771851619,0,0.0,0.0,0.0,0.45272706032695637,0.17061110452793163,0.2821159557990247,0.623338164854888,0.17061110452793163,0.20548646880827923,1,4,5,2,0,7,nan,nan,nan,nan,nan,nan,nan,nan,nan,nan,nan,nan,0.0,nan,nan,nan,nan,nan,nan,nan,nan,nan,nan,nan,nan,nan,nan,nan,nan,nan,nan,1943.5709928221295,2345.885569196147,nan,2346.2337039679987,nan,nan,nan,nan
1,211,1,1,1.0,1.0,0.27533486696120235,0,0.0,0.0,0.0,0.4521647361953685,0.17032366871028687,0.28184106748508164,0.6224884049056554,0.17032366871028687,0.24308420575107448,5,8,0,3,7,4,nan,nan,nan,nan,nan,nan,nan,nan,nan,nan,nan,nan,0.0,nan,nan,nan,nan,nan,nan,nan,nan,nan,nan,nan,nan,nan,nan,nan,nan,nan,nan,1943.5709928221295,2346.9023568054035,nan,2347.1776916723647,nan,nan,nan,nan
1,212,1,1,1.0,1.0,0.3064904733655567,0,0.0,0.0,0.0,0.451219121921389,0.17035649762089786,0.28086262430049114,0.6215756195422869,0.17035649762089786,0.30998670405945933,8,2,3,1,6,7,nan,nan,nan,nan,nan,nan,nan,nan,nan,nan,nan,nan,0.0,nan,nan,nan,nan,nan,nan,nan,nan,nan,nan,nan,nan,nan,nan,nan,nan,nan,nan,1943.5709928221295,2347.919162090635,nan,2348.2256525640005,nan,nan,nan,nan
1,213,1,1,1.0,1.0,0.34567353568127146,0,0.0,0.0,0.0,0.45044928868438994,0.17022864551079997,0.28022064317358997,0.6206779341951899,0.17022864551079997,0.3091662920026768,4,3,5,2,7,6,nan,nan,nan,nan,nan,nan,nan,nan,nan,nan,nan,nan,0.0,nan,nan,nan,nan,nan,nan,nan,nan,nan,nan,nan,nan,nan,nan,nan,nan,nan,nan,1943.5709928221295,2348.9359536912416,nan,2349.281627226923,nan,nan,nan,nan
1,214,1,1,1.0,1.0,0.3208618916651176,0,0.0,0.0,0.0,0.44989491962088135,0.16994777790241908,0.27994714171846224,0.6198426975233005,0.16994777790241908,0.3243419669039819,8,7,2,1,0,5,nan,nan,nan,nan,nan,nan,nan,nan,nan,nan,nan,nan,0.0,nan,nan,nan,nan,nan,nan,nan,nan,nan,nan,nan,nan,nan,nan,nan,nan,nan,nan,1943.5709928221295,2349.9527401601154,nan,2350.2736020517805,nan,nan,nan,nan
1,215,1,1,1.0,1.0,0.28805187155739986,0,0.0,0.0,0.0,0.4492157984211142,0.1697568945453437,0.2794589038757705,0.6189726929664578,0.1697568945453437,0.31819576630126295,5,4,6,7,3,8,nan,nan,nan,nan,nan,nan,nan,nan,nan,nan,nan,nan,0.0,nan,nan,nan,nan,nan,nan,nan,nan,nan,nan,nan,nan,nan,nan,nan,nan,nan,nan,1943.5709928221295,2350.9695400285163,nan,2351.2575919000737,nan,nan,nan,nan
1,216,1,1,1.0,1.0,0.2705997028715501,0,0.0,0.0,0.0,0.4483720082281104,0.16971094056647926,0.2786610676616311,0.6180829487945897,0.16971094056647926,0.2931711553646892,7,5,2,0,4,3,nan,nan,nan,nan,nan,nan,nan,nan,nan,nan,nan,nan,0.0,nan,nan,nan,nan,nan,nan,nan,nan,nan,nan,nan,nan,nan,nan,nan,nan,nan,nan,1943.5709928221295,2352.0029630056233,nan,2352.273562708495,nan,nan,nan,nan
1,217,1,1,1.0,1.0,0.26974755009723594,0,1.0,0.0,0.0,0.44744611080437835,0.1697513934818299,0.27769471732254847,0.6171975042862082,0.1697513934818299,0.27613304150872864,6,7,5,2,1,8,nan,nan,nan,nan,nan,nan,nan,nan,nan,nan,nan,nan,0.0,nan,nan,nan,nan,nan,nan,nan,nan,nan,nan,nan,nan,nan,nan,nan,nan,nan,nan,1943.5709928221295,2353.019789387974,nan,2353.2895369380713,nan,nan,nan,nan
1,218,1,1,1.0,1.0,0.30094364017350017,1,0.0,0.0,1.0,0.44652539287325327,0.16979103281824148,0.2767343600550118,0.6163164256914948,0.16979103281824148,0.2804302977140954,3,4,2,5,7,1,1.0,1.0,1.0,1.0,1.0,1.0,0.0,0.0,0.0,1.0,1.0,1.0,3.0,8.0,3.0,0.0,5.0,7.0,1.0,2.0,4.0,3.0,1.0,5.0,6.0,3.9033634803636232,9.712563651308301,8.447922460654809,2.689652744178602,12.375617767997028,14.807255529227405,1943.5709928221295,2354.036580703487,2354.8449891620658,2354.3375243436603,2370.713606533496,2371.71933411773,2355.8701326581504,2370.7052694630256
1,219,1,1,1.0,1.0,0.2623655521601904,0,0.0,0.0,0.0,0.44577497146758444,0.16967344014485297,0.27610153132273146,0.6154484116124375,0.16967344014485297,0.27768558081030886,8,0,6,4,3,7,nan,nan,nan,nan,nan,nan,nan,nan,nan,nan,nan,nan,0.0,nan,nan,nan,nan,nan,nan,nan,nan,nan,nan,nan,nan,nan,nan,nan,nan,nan,nan,1943.5709928221295,2371.938750485733,nan,2372.2011160378934,nan,nan,nan,nan
1,220,1,1,1.0,1.0,0.3734997877436399,0,0.0,0.0,0.0,0.44483441034293114,0.16974411069720763,0.2750902996457235,0.6145785210401388,0.16974411069720763,0.31226966002577683,6,3,1,5,8,2,nan,nan,nan,nan,nan,nan,nan,nan,nan,nan,nan,nan,0.0,nan,nan,nan,nan,nan,nan,nan,nan,nan,nan,nan,nan,nan,nan,nan,nan,nan,nan,1943.5709928221295,2372.9555760127987,nan,2373.3290758005423,nan,nan,nan,nan
1,221,1,1,1.0,1.0,0.37268298690833035,0,0.0,0.0,0.0,0.4444704581868123,0.16938679883878693,0.27508365934802537,0.6138572570255992,0.16938679883878693,0.3361827756040536,5,4,8,1,3,7,nan,nan,nan,nan,nan,nan,nan,nan,nan,nan,nan,nan,0.0,nan,nan,nan,nan,nan,nan,nan,nan,nan,nan,nan,nan,nan,nan,nan,nan,nan,nan,1943.5709928221295,2373.9723835787954,nan,2374.3450665657037,nan,nan,nan,nan
1,222,0,0,0.0,1.0,0.5078605320413772,0,0.0,0.0,0.0,0.4441060547793073,0.16903334088445418,0.2750727138948531,0.6131393956637615,0.16903334088445418,0.4180144355644491,7,6,3,4,8,1,nan,nan,nan,nan,nan,nan,nan,nan,nan,nan,nan,nan,0.0,nan,nan,nan,nan,nan,nan,nan,nan,nan,nan,nan,nan,nan,nan,nan,nan,nan,nan,1943.5709928221295,2374.989185157774,nan,2375.4970456898154,nan,nan,nan,nan
1,223,1,1,1.0,1.0,0.6110405814579281,0,0.0,0.0,0.0,0.4444280470887117,0.16866650736667424,0.27576153972203743,0.613094554455386,0.16866650736667424,0.4971947001358785,8,1,7,5,2,3,nan,nan,nan,nan,nan,nan,nan,nan,nan,nan,nan,nan,0.0,nan,nan,nan,nan,nan,nan,nan,nan,nan,nan,nan,nan,nan,nan,nan,nan,nan,nan,1943.5709928221295,2376.005963358857,nan,2376.617003940315,nan,nan,nan,nan
1,224,1,1,1.0,1.0,0.5222279589943355,0,0.0,0.0,0.0,0.4452652960051399,0.16865417026615684,0.27661112573898305,0.6139194662712968,0.16865417026615684,0.5470430241645469,2,5,4,0,7,1,nan,nan,nan,nan,nan,nan,nan,nan,nan,nan,nan,nan,0.0,nan,nan,nan,nan,nan,nan,nan,nan,nan,nan,nan,nan,nan,nan,nan,nan,nan,nan,1943.5709928221295,2377.0227538190775,nan,2377.544981778072,nan,nan,nan,nan
1,225,1,1,1.0,1.0,0.48141443106214865,0,0.0,0.0,0.0,0.4456501093200859,0.16831956564407352,0.2773305436760124,0.6139696749641594,0.16831956564407352,0.5382276571714707,5,8,2,6,4,7,nan,nan,nan,nan,nan,nan,nan,nan,nan,nan,nan,nan,0.0,nan,nan,nan,nan,nan,nan,nan,nan,nan,nan,nan,nan,nan,nan,nan,nan,nan,nan,1943.5709928221295,2378.0395465600704,nan,2378.5209609911326,nan,nan,nan,nan
1,226,1,1,1.0,1.0,0.4245816283400927,0,0.0,0.0,0.0,0.4458280412690514,0.16791919341307618,0.27790884785597525,0.6137472346821276,0.16791919341307618,0.47607467279885896,8,2,3,5,0,4,nan,nan,nan,nan,nan,nan,nan,nan,nan,nan,nan,nan,0.0,nan,nan,nan,nan,nan,nan,nan,nan,nan,nan,nan,nan,nan,nan,nan,nan,nan,nan,1943.5709928221295,2379.056345288085,nan,2379.4809269164252,nan,nan,nan,nan
1,227,0,0,0.0,1.0,0.47977484236616874,0,0.0,0.0,0.0,0.44572286100702685,0.1675096736407885,0.27821318736623835,0.6132325346478154,0.1675096736407885,0.4619236339228034,2,3,5,8,6,1,nan,nan,nan,nan,nan,nan,nan,nan,nan,nan,nan,nan,0.0,nan,nan,nan,nan,nan,nan,nan,nan,nan,nan,nan,nan,nan,nan,nan,nan,nan,nan,1943.5709928221295,2380.073136888692,nan,2380.552911731058,nan,nan,nan,nan
1,228,1,1,1.0,1.0,0.5829463388945442,0,0.0,0.0,0.0,0.4458906047575645,0.16711358574309357,0.27877701901447094,0.613004190500658,0.16711358574309357,0.4957676032002685,6,5,3,1,2,4,nan,nan,nan,nan,nan,nan,nan,nan,nan,nan,nan,nan,0.0,nan,nan,nan,nan,nan,nan,nan,nan,nan,nan,nan,nan,nan,nan,nan,nan,nan,nan,1943.5709928221295,2381.0899390378618,nan,2381.6728853767563,nan,nan,nan,nan
1,229,1,1,1.0,1.0,0.46214021206105826,0,0.0,0.0,0.0,0.4465624465915693,0.16697808876578896,0.27958435782578034,0.6135405353573582,0.16697808876578896,0.5082871311072571,2,6,5,0,7,8,nan,nan,nan,nan,nan,nan,nan,nan,nan,nan,nan,nan,0.0,nan,nan,nan,nan,nan,nan,nan,nan,nan,nan,nan,nan,nan,nan,nan,nan,nan,nan,1943.5709928221295,2382.106716383656,nan,2382.568856595717,nan,nan,nan,nan
1,230,1,1,1.0,1.0,0.45334983850625576,0,0.0,0.0,0.0,0.4466384356914205,0.16657386316108028,0.28006457253034023,0.6132122988525007,0.16657386316108028,0.49947879648728605,3,2,0,5,4,7,nan,nan,nan,nan,nan,nan,nan,nan,nan,nan,nan,nan,0.0,nan,nan,nan,nan,nan,nan,nan,nan,nan,nan,nan,nan,nan,nan,nan,nan,nan,nan,1943.5709928221295,2383.1234980058944,nan,2383.5768478444006,nan,nan,nan,nan
1,231,1,1,1.0,1.0,0.4845350949217391,0,0.0,0.0,0.0,0.4466710153167352,0.1661697205455747,0.2805012947711605,0.6128407358623099,0.1661697205455747,0.46667504849635105,1,4,5,6,7,3,nan,nan,nan,nan,nan,nan,nan,nan,nan,nan,nan,nan,0.0,nan,nan,nan,nan,nan,nan,nan,nan,nan,nan,nan,nan,nan,nan,nan,nan,nan,nan,1943.5709928221295,2384.140289321407,nan,2384.624824416329,nan,nan,nan,nan
1,232,0,0,0.0,1.0,0.515697828734119,0,0.0,0.0,0.0,0.4468539335756966,0.16578864701095777,0.28106528656473884,0.6126425805866543,0.16578864701095777,0.4845275873873713,0,6,1,2,3,5,nan,nan,nan,nan,nan,nan,nan,nan,nan,nan,nan,nan,0.0,nan,nan,nan,nan,nan,nan,nan,nan,nan,nan,nan,nan,nan,nan,nan,nan,nan,nan,1943.5709928221295,2385.1570826325915,nan,2385.6727804613256,nan,nan,nan,nan
1,233,1,1,1.0,1.0,0.618887571425148,0,0.0,0.0,0.0,0.44718491384088127,0.1654581767951027,0.28172673704577855,0.612643090635984,0.1654581767951027,0.5397068316936687,1,5,0,7,4,8,nan,nan,nan,nan,nan,nan,nan,nan,nan,nan,nan,nan,0.0,nan,nan,nan,nan,nan,nan,nan,nan,nan,nan,nan,nan,nan,nan,nan,nan,nan,nan,1943.5709928221295,2386.1738787947397,nan,2386.792766366165,nan,nan,nan,nan
1,234,0,0,0.0,1.0,0.6021073746705952,0,0.0,0.0,0.0,0.4480064576570739,0.16548657646863565,0.2825198811884383,0.6134930341257095,0.16548657646863565,0.578897591609954,6,1,5,3,7,4,nan,nan,nan,nan,nan,nan,nan,nan,nan,nan,nan,nan,0.0,nan,nan,nan,nan,nan,nan,nan,nan,nan,nan,nan,nan,nan,nan,nan,nan,nan,nan,1943.5709928221295,2387.1906307669633,nan,2387.792738141634,nan,nan,nan,nan
1,235,1,1,1.0,1.0,0.4972538100955717,0,0.0,0.0,0.0,0.44874027154761453,0.16543258837729852,0.283307683170316,0.614172859924913,0.16543258837729852,0.572749585397105,0,8,2,6,1,7,nan,nan,nan,nan,nan,nan,nan,nan,nan,nan,nan,nan,0.0,nan,nan,nan,nan,nan,nan,nan,nan,nan,nan,nan,nan,nan,nan,nan,nan,nan,nan,1943.5709928221295,2388.207459715184,nan,2388.7047135252797,nan,nan,nan,nan
1,236,1,1,1.0,1.0,0.4484595820431423,0,0.0,0.0,0.0,0.4489701935312541,0.1650737316449388,0.28389646188631534,0.6140439251761929,0.1650737316449388,0.5159402556031031,7,6,3,5,8,0,nan,nan,nan,nan,nan,nan,nan,nan,nan,nan,nan,nan,0.0,nan,nan,nan,nan,nan,nan,nan,nan,nan,nan,nan,nan,nan,nan,nan,nan,nan,nan,1943.5709928221295,2389.224252741271,nan,2389.672712323314,nan,nan,nan,nan
1,237,1,1,1.0,1.0,0.3756365843510139,0,0.0,0.0,0.0,0.44896778498649886,0.1646839503269645,0.28428383465953433,0.6136517353134634,0.1646839503269645,0.4404499921632426,8,7,5,6,3,2,nan,nan,nan,nan,nan,nan,nan,nan,nan,nan,nan,nan,0.0,nan,nan,nan,nan,nan,nan,nan,nan,nan,nan,nan,nan,nan,nan,nan,nan,nan,nan,1943.5709928221295,2390.2410449120725,nan,2390.6166814964236,nan,nan,nan,nan
1,238,1,1,1.0,1.0,0.3187975095133879,0,0.0,0.0,0.0,0.4486235070492431,0.16437336635400202,0.28425014069524107,0.6129968734032452,0.16437336635400202,0.38096455863584805,0,5,8,3,4,6,nan,nan,nan,nan,nan,nan,nan,nan,nan,nan,nan,nan,0.0,nan,nan,nan,nan,nan,nan,nan,nan,nan,nan,nan,nan,nan,nan,nan,nan,nan,nan,1943.5709928221295,2391.2578650223077,nan,2391.576662531821,nan,nan,nan,nan
1,239,1,1,1.0,1.0,0.3979901282582432,0,0.0,0.0,0.0,0.4480168435093559,0.1642277110242903,0.2837891324850656,0.6122445545336461,0.1642277110242903,0.364141407374215,8,2,7,4,6,3,nan,nan,nan,nan,nan,nan,nan,nan,nan,nan,nan,nan,0.0,nan,nan,nan,nan,nan,nan,nan,nan,nan,nan,nan,nan,nan,nan,nan,nan,nan,nan,1943.5709928221295,2392.274639517138,nan,2392.6726296453962,nan,nan,nan,nan
1,240,1,1,1.0,1.0,0.389201750374923,0,0.0,0.0,0.0,0.4477841611128391,0.16388069427446394,0.28390346683837514,0.611664855387303,0.16388069427446394,0.3686631293821847,2,6,1,8,5,4,nan,nan,nan,nan,nan,nan,nan,nan,nan,nan,nan,nan,0.0,nan,nan,nan,nan,nan,nan,nan,nan,nan,nan,nan,nan,nan,nan,nan,nan,nan,nan,1943.5709928221295,2393.291414297066,nan,2393.6806160474407,nan,nan,nan,nan
1,241,0,0,0.0,1.0,0.5243681767533417,0,0.0,0.0,0.0,0.4475129462483117,0.16354925680817736,0.2839636894401344,0.6110622030564891,0.16354925680817736,0.43718668512883596,7,5,2,4,0,3,nan,nan,nan,nan,nan,nan,nan,nan,nan,nan,nan,nan,0.0,nan,nan,nan,nan,nan,nan,nan,nan,nan,nan,nan,nan,nan,nan,nan,nan,nan,nan,1943.5709928221295,2394.3082173015246,nan,2394.832585478278,nan,nan,nan,nan
1,242,1,1,1.0,1.0,0.7075299914176867,0,0.0,0.0,0.0,0.4478671178174593,0.16325498330387378,0.2846121345135855,0.611122101121333,0.16325498330387378,0.5403666395153172,8,7,3,1,4,6,nan,nan,nan,nan,nan,nan,nan,nan,nan,nan,nan,nan,0.0,nan,nan,nan,nan,nan,nan,nan,nan,nan,nan,nan,nan,nan,nan,nan,nan,nan,nan,1943.5709928221295,2395.325014889153,nan,2396.0325448805706,nan,nan,nan,nan
1,243,1,1,1.0,1.0,0.5783631311205681,0,0.0,0.0,0.0,0.4490582319165429,0.16382246848392773,0.2852357634326152,0.6128807004004706,0.16382246848392773,0.6034204330971988,3,0,4,6,2,1,nan,nan,nan,nan,nan,nan,nan,nan,nan,nan,nan,nan,0.0,nan,nan,nan,nan,nan,nan,nan,nan,nan,nan,nan,nan,nan,nan,nan,nan,nan,nan,1943.5709928221295,2396.3501415645587,nan,2396.9285046956793,nan,nan,nan,nan
1,244,1,1,1.0,1.0,0.45759064565208973,0,0.0,0.0,0.0,0.4496486652462417,0.16368033312979818,0.2859683321164435,0.6133289983760399,0.16368033312979818,0.5811612560634482,4,1,6,8,7,0,nan,nan,nan,nan,nan,nan,nan,nan,nan,nan,nan,nan,0.0,nan,nan,nan,nan,nan,nan,nan,nan,nan,nan,nan,nan,nan,nan,nan,nan,nan,nan,1943.5709928221295,2397.36692575266,nan,2397.824516398312,nan,nan,nan,nan
1,245,1,1,1.0,1.0,0.3684453158239194,0,0.0,0.0,0.0,0.44968476515717737,0.16330878249306066,0.2863759826641167,0.6129935476502381,0.16330878249306066,0.46813303086552577,7,5,0,3,4,1,nan,nan,nan,nan,nan,nan,nan,nan,nan,nan,nan,nan,0.0,nan,nan,nan,nan,nan,nan,nan,nan,nan,nan,nan,nan,nan,nan,nan,nan,nan,nan,1943.5709928221295,2398.392046441044,nan,2398.760491756868,nan,nan,nan,nan
1,246,1,1,1.0,1.0,0.351278243419074,0,0.0,0.0,0.0,0.44931716583892733,0.16303008690514706,0.28628707893378025,0.6123472527440744,0.16303008690514706,0.39243806829836103,4,3,5,7,0,2,nan,nan,nan,nan,nan,nan,nan,nan,nan,nan,nan,nan,0.0,nan,nan,nan,nan,nan,nan,nan,nan,nan,nan,nan,nan,nan,nan,nan,nan,nan,nan,1943.5709928221295,2399.4171816693342,nan,2399.7684599127533,nan,nan,nan,nan
1,247,1,1,1.0,1.0,0.28649467568538967,0,0.0,0.0,0.0,0.4488755490712703,0.1627949184619246,0.28608063060934574,0.6116704675331949,0.1627949184619246,0.335406078309461,2,7,3,5,8,0,nan,nan,nan,nan,nan,nan,nan,nan,nan,nan,nan,nan,0.0,nan,nan,nan,nan,nan,nan,nan,nan,nan,nan,nan,nan,nan,nan,nan,nan,nan,nan,1943.5709928221295,2400.4339453305074,nan,2400.720440006193,nan,nan,nan,nan
1,248,1,1,1.0,1.0,0.35765299620470614,0,0.0,0.0,0.0,0.44814738371976415,0.1627914355761063,0.28535594814365783,0.6109388192958705,0.1627914355761063,0.3318086384363899,8,5,2,3,1,4,nan,nan,nan,nan,nan,nan,nan,nan,nan,nan,nan,nan,0.0,nan,nan,nan,nan,nan,nan,nan,nan,nan,nan,nan,nan,nan,nan,nan,nan,nan,nan,1943.5709928221295,2401.4507668662263,nan,2401.808419862431,nan,nan,nan,nan
1,249,1,1,1.0,1.0,0.32485865639318945,0,0.0,0.0,0.0,0.44774339091835763,0.16253965393791897,0.28520373698043866,0.6102830448562766,0.16253965393791897,0.32300210942776175,3,1,5,6,8,7,nan,nan,nan,nan,nan,nan,nan,nan,nan,nan,nan,nan,0.0,nan,nan,nan,nan,nan,nan,nan,nan,nan,nan,nan,nan,nan,nan,nan,nan,nan,nan,1943.5709928221295,2402.4675322379735,nan,2402.7923908943667,nan,nan,nan,nan
1,250,1,1,1.0,1.0,0.37199362410683534,0,0.0,0.0,0.0,0.4471972365426902,0.162383916867127,0.2848133196755632,0.6095811534098172,0.162383916867127,0.351501758901577,5,6,0,7,3,2,nan,nan,nan,nan,nan,nan,nan,nan,nan,nan,nan,nan,0.0,nan,nan,nan,nan,nan,nan,nan,nan,nan,nan,nan,nan,nan,nan,nan,nan,nan,nan,1943.5709928221295,2403.4843697390825,nan,2403.8563633631893,nan,nan,nan,nan
1,251,1,1,1.0,1.0,0.315210143038712,0,0.0,0.0,0.0,0.4468644771956289,0.16210112736567273,0.28476334982995616,0.6089656045613017,0.16210112736567273,0.3373541411795789,8,3,5,0,4,1,nan,nan,nan,nan,nan,nan,nan,nan,nan,nan,nan,nan,0.0,nan,nan,nan,nan,nan,nan,nan,nan,nan,nan,nan,nan,nan,nan,nan,nan,nan,nan,1943.5709928221295,2404.5011371065084,nan,2404.816347249547,nan,nan,nan,nan
1,252,1,1,1.0,1.0,0.3383841940340062,0,0.0,0.0,0.0,0.4462845021552901,0.16197851286421794,0.28430598929107215,0.6082630150195081,0.16197851286421794,0.34186265372651786,7,6,4,5,0,8,nan,nan,nan,nan,nan,nan,nan,nan,nan,nan,nan,nan,0.0,nan,nan,nan,nan,nan,nan,nan,nan,nan,nan,nan,nan,nan,nan,nan,nan,nan,nan,1943.5709928221295,2405.5179463830827,nan,2405.8563305771168,nan,nan,nan,nan
1,253,1,1,1.0,1.0,0.3375682484875142,0,0.0,0.0,0.0,0.4458112551898458,0.1617801082629449,0.2840311469269009,0.6075913634527907,0.1617801082629449,0.33038752852007747,1,8,0,3,7,6,nan,nan,nan,nan,nan,nan,nan,nan,nan,nan,nan,nan,0.0,nan,nan,nan,nan,nan,nan,nan,nan,nan,nan,nan,nan,nan,nan,nan,nan,nan,nan,1943.5709928221295,2406.534721733202,nan,2406.8722899816894,nan,nan,nan,nan
1,254,1,1,1.0,1.0,0.33675857505295426,0,0.0,0.0,0.0,0.4453385783046828,0.1615841955617816,0.2837543827429012,0.6069227738664644,0.1615841955617816,0.33757033919149154,5,2,1,0,6,4,nan,nan,nan,nan,nan,nan,nan,nan,nan,nan,nan,nan,0.0,nan,nan,nan,nan,nan,nan,nan,nan,nan,nan,nan,nan,nan,nan,nan,nan,nan,nan,1943.5709928221295,2407.5515181804476,nan,2407.8882767555006,nan,nan,nan,nan
1,255,1,1,1.0,1.0,0.27993346993389423,0,0.0,0.0,0.0,0.4448664913340231,0.16139073466719706,0.28347575666682606,0.6062572260012202,0.16139073466719706,0.31808676449145423,6,1,3,2,0,8,nan,nan,nan,nan,nan,nan,nan,nan,nan,nan,nan,nan,0.0,nan,nan,nan,nan,nan,nan,nan,nan,nan,nan,nan,nan,nan,nan,nan,nan,nan,nan,1943.5709928221295,2408.568312917112,nan,2408.848246387046,nan,nan,nan,nan
1,256,1,1,1.0,1.0,0.2871127644175431,0,0.0,0.0,0.0,0.4441524955703862,0.1614046575612016,0.2827478380091846,0.6055571531315878,0.1614046575612016,0.3012682698014639,1,3,2,4,8,6,nan,nan,nan,nan,nan,nan,nan,nan,nan,nan,nan,nan,0.0,nan,nan,nan,nan,nan,nan,nan,nan,nan,nan,nan,nan,nan,nan,nan,nan,nan,nan,1943.5709928221295,2409.5851110749354,nan,2409.872223839353,nan,nan,nan,nan
1,257,1,1,1.0,1.0,0.3023061152853188,0,0.0,0.0,0.0,0.443475600177486,0.16138467701341053,0.28209092316407547,0.6048602771908965,0.16138467701341053,0.2897841165455854,4,6,3,2,0,7,nan,nan,nan,nan,nan,nan,nan,nan,nan,nan,nan,nan,0.0,nan,nan,nan,nan,nan,nan,nan,nan,nan,nan,nan,nan,nan,nan,nan,nan,nan,nan,1943.5709928221295,2410.601898969293,nan,2410.9042050845783,nan,nan,nan,nan
1,258,1,1,1.0,1.0,0.41349223839642946,0,0.0,0.0,0.0,0.4428697225599231,0.16130219199489276,0.2815675305650303,0.6041719145548159,0.16130219199489276,0.3343037060330971,8,3,1,4,6,2,nan,nan,nan,nan,nan,nan,nan,nan,nan,nan,nan,nan,0.0,nan,nan,nan,nan,nan,nan,nan,nan,nan,nan,nan,nan,nan,nan,nan,nan,nan,nan,1943.5709928221295,2411.618691140091,nan,2412.0321833784874,nan,nan,nan,nan
1,259,1,1,nan,nan,nan,0,0.0,0.0,0.0,0.4427441777558056,0.16096856786334587,0.28177560989245976,0.6037127456191514,0.16096856786334587,0.35789917684087413,0,7,5,6,2,4,nan,nan,nan,nan,nan,nan,nan,nan,nan,nan,nan,nan,0.0,nan,nan,nan,nan,nan,nan,nan,nan,nan,nan,nan,nan,nan,nan,nan,nan,nan,nan,1943.5709928221295,2412.635477894062,nan,nan,nan,nan,nan,nan
1,260,1,1,nan,nan,nan,0,0.0,0.0,0.0,0.4427441777558056,0.16096856786334587,0.28177560989245976,0.6037127456191514,0.16096856786334587,0.41349223839642946,6,4,1,0,3,7,nan,nan,nan,nan,nan,nan,nan,nan,nan,nan,nan,nan,0.0,nan,nan,nan,nan,nan,nan,nan,nan,nan,nan,nan,nan,nan,nan,nan,nan,nan,nan,1943.5709928221295,2413.6522834643874,nan,nan,nan,nan,nan,nan
1,261,1,1,nan,nan,nan,0,0.0,0.0,0.0,0.4427441777558056,0.16096856786334587,0.28177560989245976,0.6037127456191514,0.16096856786334587,nan,7,2,0,4,8,5,nan,nan,nan,nan,nan,nan,nan,nan,nan,nan,nan,nan,0.0,nan,nan,nan,nan,nan,nan,nan,nan,nan,nan,nan,nan,nan,nan,nan,nan,nan,nan,1943.5709928221295,2414.6690773457667,nan,nan,nan,nan,nan,nan
1,262,1,1,nan,nan,nan,0,0.0,0.0,0.0,0.4427441777558056,0.16096856786334587,0.28177560989245976,0.6037127456191514,0.16096856786334587,nan,3,5,2,6,1,8,nan,nan,nan,nan,nan,nan,nan,nan,nan,nan,nan,nan,0.0,nan,nan,nan,nan,nan,nan,nan,nan,nan,nan,nan,nan,nan,nan,nan,nan,nan,nan,1943.5709928221295,2415.6941900514503,nan,nan,nan,nan,nan,nan
1,263,1,1,1.0,1.0,0.17707386873007636,0,0.0,0.0,0.0,0.4427441777558056,0.16096856786334587,0.28177560989245976,0.6037127456191514,0.16096856786334587,0.17707386873007636,2,1,6,8,4,0,nan,nan,nan,nan,nan,nan,nan,nan,nan,nan,nan,nan,0.0,nan,nan,nan,nan,nan,nan,nan,nan,nan,nan,nan,nan,nan,nan,nan,nan,nan,nan,1943.5709928221295,2416.7110013237034,nan,2416.8880751924335,nan,nan,nan,nan
1,264,1,1,1.0,1.0,0.17625507221964654,0,0.0,0.0,0.0,0.4416136658025046,0.16155397296118082,0.2800596928413238,0.6031676387636854,0.16155397296118082,0.17666447047486145,5,7,1,6,8,4,nan,nan,nan,nan,nan,nan,nan,nan,nan,nan,nan,nan,0.0,nan,nan,nan,nan,nan,nan,nan,nan,nan,nan,nan,nan,nan,nan,nan,nan,nan,nan,1943.5709928221295,2417.7277826608442,nan,2417.904037733064,nan,nan,nan,nan
1,265,1,1,1.0,1.0,0.2234598885224841,0,1.0,0.0,0.0,0.4404892649822382,0.1621301928452419,0.2783590721369963,0.6026194578274802,0.1621301928452419,0.19226294315740233,1,5,6,8,4,3,nan,nan,nan,nan,nan,nan,nan,nan,nan,nan,nan,nan,0.0,nan,nan,nan,nan,nan,nan,nan,nan,nan,nan,nan,nan,nan,nan,nan,nan,nan,nan,1943.5709928221295,2418.7445637128876,nan,2418.96802360141,nan,nan,nan,nan
1,266,1,1,1.0,1.0,0.05464611426577903,1,0.0,0.0,1.0,0.43957352921658527,0.16239824564438482,0.27717528357220045,0.6019717748609701,0.16239824564438482,0.15145369166930323,4,1,2,7,3,8,1.0,1.0,1.0,1.0,1.0,1.0,0.0,0.0,0.0,1.0,0.0,0.0,1.0,2.0,4.0,6.0,7.0,8.0,5.0,4.0,3.0,2.0,1.0,6.0,5.0,8.186504283428803,6.681849373944715,4.56304576337061,2.417715369567304,11.681725071965047,10.185356485813827,1943.5709928221295,2419.761360445231,2420.5697763163116,2419.8160065594966,2433.304678686516,2434.305151946337,2421.586568772207,2433.296341330948
1,267,1,1,1.0,1.0,0.42977978878479917,0,0.0,0.0,0.0,0.43795618713696005,0.16395829340198737,0.2739978937349727,0.6019144805389474,0.16395829340198737,0.2359619305243541,1,3,6,8,5,2,nan,nan,nan,nan,nan,nan,nan,nan,nan,nan,nan,nan,0.0,nan,nan,nan,nan,nan,nan,nan,nan,nan,nan,nan,nan,nan,nan,nan,nan,nan,nan,1943.5709928221295,2434.529850863284,nan,2434.959630652069,nan,nan,nan,nan
1,268,1,1,1.0,1.0,0.5646132227084308,0,0.0,0.0,0.0,0.4379219762651937,0.1636157761097606,0.27430620015543306,0.6015377523749543,0.1636157761097606,0.34967970858633635,0,5,2,6,8,1,nan,nan,nan,nan,nan,nan,nan,nan,nan,nan,nan,nan,0.0,nan,nan,nan,nan,nan,nan,nan,nan,nan,nan,nan,nan,nan,nan,nan,nan,nan,nan,1943.5709928221295,2435.5549783939787,nan,2436.119591616687,nan,nan,nan,nan
1,269,1,1,1.0,1.0,0.539784472915926,0,0.0,0.0,0.0,0.43844985645870715,0.16347837520109357,0.2749714812576136,0.6019282316598007,0.16347837520109357,0.511392494803052,2,3,8,0,7,6,nan,nan,nan,nan,nan,nan,nan,nan,nan,nan,nan,nan,0.0,nan,nan,nan,nan,nan,nan,nan,nan,nan,nan,nan,nan,nan,nan,nan,nan,nan,nan,1943.5709928221295,2436.5717848195927,nan,2437.1115692925086,nan,nan,nan,nan
1,270,1,1,1.0,1.0,0.4990236877965799,0,0.0,0.0,0.0,0.4388703320456666,0.1632688526064481,0.27560147943921853,0.6021391846521147,0.1632688526064481,0.5344737944736456,7,2,4,8,5,3,nan,nan,nan,nan,nan,nan,nan,nan,nan,nan,nan,nan,0.0,nan,nan,nan,nan,nan,nan,nan,nan,nan,nan,nan,nan,nan,nan,nan,nan,nan,nan,1943.5709928221295,2437.5885556081703,nan,2438.087579295967,nan,nan,nan,nan
1,271,0,0,0.0,1.0,0.4581981858173094,0,0.0,0.0,0.0,0.43911889963141415,0.16297685998866826,0.27614203964274586,0.6020957596200824,0.16297685998866826,0.49900211550993845,3,6,7,5,1,4,nan,nan,nan,nan,nan,nan,nan,nan,nan,nan,nan,nan,0.0,nan,nan,nan,nan,nan,nan,nan,nan,nan,nan,nan,nan,nan,nan,nan,nan,nan,nan,1943.5709928221295,2438.6053514852247,nan,2439.063549671042,nan,nan,nan,nan
1,272,1,1,1.0,1.0,0.5533815697199316,0,0.0,0.0,0.0,0.43919741521242606,0.16264575721901783,0.2765516579934082,0.6018431724314439,0.16264575721901783,0.5035344811112736,0,2,8,4,6,5,nan,nan,nan,nan,nan,nan,nan,nan,nan,nan,nan,nan,0.0,nan,nan,nan,nan,nan,nan,nan,nan,nan,nan,nan,nan,nan,nan,nan,nan,nan,nan,1943.5709928221295,2439.622146792084,nan,2440.175528361804,nan,nan,nan,nan
1,273,1,1,1.0,1.0,0.4805899326238432,0,0.0,0.0,0.0,0.4396653830587683,0.1624759714337509,0.2771894116250174,0.6021413544925192,0.1624759714337509,0.4973898960536947,1,4,2,0,5,7,nan,nan,nan,nan,nan,nan,nan,nan,nan,nan,nan,nan,0.0,nan,nan,nan,nan,nan,nan,nan,nan,nan,nan,nan,nan,nan,nan,nan,nan,nan,nan,1943.5709928221295,2440.6389258484523,nan,2441.119515781076,nan,nan,nan,nan
1,274,1,1,1.0,1.0,0.5837428978957178,0,0.0,0.0,0.0,0.43983242203658496,0.16216504138153529,0.2776673806550497,0.6019974634181202,0.16216504138153529,0.5392381334131642,7,0,3,1,6,8,nan,nan,nan,nan,nan,nan,nan,nan,nan,nan,nan,nan,0.0,nan,nan,nan,nan,nan,nan,nan,nan,nan,nan,nan,nan,nan,nan,nan,nan,nan,nan,1943.5709928221295,2441.655734554839,nan,2442.2394774527347,nan,nan,nan,nan
1,275,1,1,1.0,1.0,0.4949342667750898,0,0.0,0.0,0.0,0.44041742397097167,0.16209394164075575,0.2783234823302159,0.6025113656117274,0.16209394164075575,0.519755699098217,6,5,4,8,0,2,nan,nan,nan,nan,nan,nan,nan,nan,nan,nan,nan,nan,0.0,nan,nan,nan,nan,nan,nan,nan,nan,nan,nan,nan,nan,nan,nan,nan,nan,nan,nan,1943.5709928221295,2442.6725270107345,nan,2443.1674612775096,nan,nan,nan,nan
