block,trial,time,setsize,freqtrials,trials_colorind,trials_colordeg,colorrgb0,colorrgb1,colorrgb2,correct_response,actual_response,acc,rts,probe_trials,rt_triggered_fast,rt_triggered_slow,rt_strailingavg,rts_runningavg,rts_runningstd,rts_runningslowthresh,rts_runningfastthresh,wm_respdeg,wm_respind,wm_resprgb0,wm_resprgb1,wm_resprgb2,wm_respcolorminusorigcolor,wm_rts,time_blockstart,time_encarray_onset,time_response,time_encarray_offest,time_memprobe_onset,time_memprobe_offset
0,0,2204,6,1,385,270,-0.0879796604702,0.477733444059,-0.233926720364,1,1.0,1.0,0.404295784421,0,nan,nan,nan,nan,nan,nan,nan,nan,nan,0.0,0.0,0.0,nan,nan,1003.34482141,1004.35651096,1004.76080674,1004.85648245,nan,nan
0,1,2205,6,1,141,99,1.0,-0.291952736687,-0.024586852943,1,1.0,1.0,0.387483899482,0,nan,nan,nan,nan,nan,nan,nan,nan,nan,0.0,0.0,0.0,nan,nan,1003.34482141,1005.37328493,1005.76076883,1005.87330431,nan,nan
0,2,2206,6,1,35,24,1.0,0.0462653595507,-1.0,1,1.0,1.0,0.403041928075,0,nan,nan,nan,nan,nan,nan,nan,nan,nan,0.0,0.0,0.0,nan,nan,1003.34482141,1006.38171667,1006.7847586,1006.88175431,nan,nan
0,3,2207,6,1,184,129,1.0,-0.107671891867,0.362640045218,1,1.0,1.0,0.386561609805,0,nan,nan,nan,nan,nan,nan,nan,nan,nan,0.0,0.0,0.0,nan,nan,1003.34482141,1007.39017921,1007.77674082,1007.89025276,nan,nan
0,4,2208,6,1,292,205,0.112881669716,0.376069582356,0.569261850688,1,1.0,1.0,0.378392726183,0,nan,nan,nan,nan,nan,nan,nan,nan,nan,0.0,0.0,0.0,nan,nan,1003.34482141,1008.39032232,1008.76871505,1008.89039303,nan,nan
0,5,2209,6,1,168,118,1.0,-0.190790017254,0.230361799274,1,1.0,1.0,0.409925880842,0,nan,nan,nan,nan,nan,nan,nan,nan,nan,0.0,0.0,0.0,nan,nan,1003.34482141,1009.39876747,1009.80869335,1009.8988339,nan,nan
0,6,2210,6,0,269,189,0.34171296506,0.305888347675,0.643262349404,0,1.0,0.0,0.500227222219,0,0.0,0.0,nan,nan,nan,nan,nan,nan,nan,0.0,0.0,0.0,nan,nan,1003.34482141,1010.39899042,1010.89921764,1010.8990309,nan,nan
0,7,2211,6,1,159,111,1.0,-0.231765974528,0.149055008463,1,1.0,1.0,0.393598659895,0,nan,nan,nan,nan,nan,nan,nan,nan,nan,0.0,0.0,0.0,nan,nan,1003.34482141,1011.39907024,1011.7926689,1011.8990711,nan,nan
0,8,2212,6,1,49,34,1.0,-0.027785429985,-1.0,1,1.0,1.0,0.44914268516,0,nan,nan,nan,nan,nan,nan,nan,nan,nan,0.0,0.0,0.0,nan,nan,1003.34482141,1012.40751795,1012.85666064,1012.90754161,nan,nan
0,9,2213,6,1,421,296,0.121471671064,0.452518040197,-0.712610339232,1,1.0,1.0,0.392661546357,0,nan,nan,nan,nan,nan,nan,nan,nan,nan,0.0,0.0,0.0,nan,nan,1003.34482141,1013.41596538,1013.80862692,1013.91599816,nan,nan
0,10,2214,6,1,34,23,1.0,0.0514419701458,-1.0,1,1.0,1.0,0.464492877945,0,nan,nan,nan,nan,nan,nan,nan,nan,nan,0.0,0.0,0.0,nan,nan,1003.34482141,1014.41611819,1014.88061107,1014.91614185,nan,nan
0,11,2215,6,1,368,258,-0.150457169737,0.477793263397,-0.0457341785459,1,1.0,1.0,0.439642967656,0,nan,nan,nan,nan,nan,nan,nan,nan,nan,0.0,0.0,0.0,nan,nan,1003.34482141,1015.43293321,1015.87257618,1015.93292722,nan,nan
0,12,2216,6,1,110,77,1.0,-0.296722754836,-0.346921960777,1,1.0,1.0,0.471184960566,0,nan,nan,nan,nan,nan,nan,nan,nan,nan,0.0,0.0,0.0,nan,nan,1003.34482141,1016.44135982,1016.91254478,1016.94138719,nan,nan
0,13,2217,6,1,449,315,0.328095008353,0.407646248688,-1.0,1,1.0,1.0,0.438684755936,0,nan,nan,nan,nan,nan,nan,nan,nan,nan,0.0,0.0,0.0,nan,nan,1003.34482141,1017.44983804,1017.88852279,1017.94988451,nan,nan
0,14,2218,6,1,117,82,1.0,-0.307587969795,-0.271886539361,1,1.0,1.0,0.462216948159,0,nan,nan,nan,nan,nan,nan,nan,nan,nan,0.0,0.0,0.0,nan,nan,1003.34482141,1018.45829259,1018.92050954,1018.95836272,nan,nan
0,15,2219,6,0,250,175,0.546428449327,0.232286661223,0.654747725831,0,0.0,1.0,0.437680644915,0,nan,nan,nan,nan,nan,nan,nan,nan,nan,0.0,0.0,0.0,nan,nan,1003.34482141,1019.46680245,1019.90448309,1019.96681955,nan,nan
0,16,2220,6,1,177,124,1.0,-0.145192147526,0.306921212481,1,1.0,1.0,0.485232545063,0,nan,nan,nan,nan,nan,nan,nan,nan,nan,0.0,0.0,0.0,nan,nan,1003.34482141,1020.47523134,1020.96046389,1020.97524702,nan,nan
0,17,2221,6,1,458,322,0.399688045963,0.388050214986,-1.0,1,0.0,0.0,0.628723295406,0,0.0,0.0,nan,nan,nan,nan,nan,nan,nan,0.0,0.0,0.0,nan,nan,1003.34482141,1021.48369644,1022.11241974,1021.98376914,nan,nan
0,18,2222,6,1,112,78,1.0,-0.300501516081,-0.325324861792,1,1.0,1.0,0.500274833292,0,nan,nan,nan,nan,nan,nan,nan,nan,nan,0.0,0.0,0.0,nan,nan,1003.34482141,1022.49215014,1022.99242497,1022.9922274,nan,nan
0,19,2223,6,1,311,218,-0.0397249783266,0.419020224334,0.462250212202,1,1.0,1.0,0.443795404397,0,nan,nan,nan,nan,nan,nan,nan,nan,nan,0.0,0.0,0.0,nan,nan,1003.34482141,1023.50060583,1023.94440124,1024.00065059,nan,nan
0,20,2224,6,1,181,127,1.0,-0.123914391386,0.3392011262,1,1.0,1.0,0.395625414327,0,nan,nan,nan,nan,nan,nan,nan,nan,nan,0.0,0.0,0.0,nan,nan,1003.34482141,1024.50075351,1024.89637893,1025.00077432,nan,nan
0,21,2225,6,1,118,82,1.0,-0.308588151016,-0.261285249573,1,1.0,1.0,0.347492771223,0,nan,nan,nan,nan,nan,nan,nan,nan,nan,0.0,0.0,0.0,nan,nan,1003.34482141,1025.50086299,1025.84835576,1026.0009029,nan,nan
0,22,2226,6,1,201,141,1.0,-0.0135712615467,0.48142235136,1,1.0,1.0,0.379016803578,0,nan,nan,nan,nan,nan,nan,nan,nan,nan,0.0,0.0,0.0,nan,nan,1003.34482141,1026.50932438,1026.88834119,1027.00936686,nan,nan
0,23,2227,6,1,266,187,0.373577590308,0.295207490188,0.648113769863,1,1.0,1.0,0.458832276985,0,nan,nan,nan,nan,nan,nan,nan,nan,nan,0.0,0.0,0.0,nan,nan,1003.34482141,1027.5094809,1027.96831318,1028.00950884,nan,nan
0,24,2231,6,1,114,80,1.0,-0.303747463913,-0.303859371662,1,1.0,1.0,0.530682710931,1,nan,nan,nan,nan,nan,nan,nan,-2.56759732919,132.0,1.0,-0.307426825298,-0.115555361894,12.4113473292,1.26710140146,1003.34482141,1028.50959665,1029.04027936,1029.00966564,1030.33481935,1031.60994367
0,25,2232,6,1,462,324,0.432089675478,0.378486360879,-1.0,1,nan,nan,nan,0,nan,nan,nan,nan,nan,nan,nan,nan,nan,0.0,0.0,0.0,nan,nan,1003.34482141,1032.81847759,nan,1033.31854915,nan,nan
0,26,2233,6,1,386,271,-0.0833946583454,0.477495592553,-0.245424736514,1,1.0,1.0,0.43757088203,0,nan,nan,nan,nan,nan,nan,nan,nan,nan,0.0,0.0,0.0,nan,nan,1003.34482141,1033.81861387,1034.25618475,1034.31862755,nan,nan
0,27,2234,6,1,204,143,1.0,0.00303256528985,0.499654420455,1,1.0,1.0,0.315736101009,0,nan,nan,nan,nan,nan,nan,nan,nan,nan,0.0,0.0,0.0,nan,nan,1003.34482141,1034.86042306,1035.17615916,1035.36045243,nan,nan
0,28,2235,6,1,424,298,0.142174562463,0.448819569244,-0.770229420881,1,1.0,1.0,0.275610977784,0,nan,nan,nan,nan,nan,nan,nan,nan,nan,0.0,0.0,0.0,nan,nan,1003.34482141,1035.86053881,1036.13614979,1036.36058956,nan,nan
0,29,2236,6,0,15,10,0.965734432428,0.145352784795,-1.0,0,0.0,1.0,0.403432510793,0,nan,nan,nan,nan,nan,nan,nan,nan,nan,0.0,0.0,0.0,nan,nan,1003.34482141,1036.86069561,1037.26412813,1037.36072583,nan,nan
0,30,2237,6,1,192,135,1.0,-0.0635997558896,0.421658406928,1,1.0,1.0,0.43496081885,0,nan,nan,nan,nan,nan,nan,nan,nan,nan,0.0,0.0,0.0,nan,nan,1003.34482141,1037.86914874,1038.30410956,1038.3691744,nan,nan
0,31,2238,6,1,359,252,-0.169222339917,0.474741883077,0.0483828026834,1,1.0,1.0,0.54647480417,0,nan,nan,nan,nan,nan,nan,nan,nan,nan,0.0,0.0,0.0,nan,nan,1003.34482141,1038.87760215,1039.42407696,1039.37766772,nan,nan
0,32,2239,6,0,271,190,0.320642857732,0.312811632898,0.639400143054,0,0.0,1.0,0.458317391574,0,nan,nan,nan,nan,nan,nan,nan,nan,nan,0.0,0.0,0.0,nan,nan,1003.34482141,1039.87774812,1040.33606551,1040.37778347,nan,nan
0,33,2240,6,1,413,290,0.0683106243366,0.461143133648,-0.585495598612,1,1.0,1.0,0.426204348914,0,nan,nan,nan,nan,nan,nan,nan,nan,nan,0.0,0.0,0.0,nan,nan,1003.34482141,1040.87785304,1041.30405739,1041.37789979,nan,nan
0,34,2241,6,0,483,339,0.606025706087,0.319314454546,-1.0,0,0.0,1.0,0.489998226985,0,nan,nan,nan,nan,nan,nan,nan,nan,nan,0.0,0.0,0.0,nan,nan,1003.34482141,1041.87802238,1042.36802061,1042.38637402,nan,nan
0,35,2242,6,1,243,170,0.622151010882,0.20168048164,0.647463484622,1,1.0,1.0,0.34559830185,0,nan,nan,nan,nan,nan,nan,nan,nan,nan,0.0,0.0,0.0,nan,nan,1003.34482141,1042.88644558,1043.23204388,1043.38648663,nan,nan
0,36,2243,6,1,1,0,0.854939129564,0.207877072944,-1.0,1,1.0,1.0,0.367665095255,0,nan,nan,nan,nan,nan,nan,nan,nan,nan,0.0,0.0,0.0,nan,nan,1003.34482141,1043.92829611,1044.2959612,1044.42827929,nan,nan
0,37,2244,6,1,80,56,1.0,-0.189075709245,-0.708965549488,1,1.0,1.0,0.375582238659,0,nan,nan,nan,nan,nan,nan,nan,nan,nan,0.0,0.0,0.0,nan,nan,1003.34482141,1044.92838819,1045.30397043,1045.42841328,nan,nan
0,38,2245,6,1,362,254,-0.164239727892,0.476000155386,0.0174578511848,1,1.0,1.0,0.447426400147,0,nan,nan,nan,nan,nan,nan,nan,nan,nan,0.0,0.0,0.0,nan,nan,1003.34482141,1045.92851136,1046.37593776,1046.42856324,nan,nan
0,39,2246,6,1,458,322,0.399688045963,0.388050214986,-1.0,1,1.0,1.0,0.431273659691,0,nan,nan,nan,nan,nan,nan,nan,nan,nan,0.0,0.0,0.0,nan,nan,1003.34482141,1046.92865134,1047.359925,1047.4286693,nan,nan
0,40,2247,6,1,298,209,0.0600896634305,0.391050340636,0.53969689008,1,1.0,1.0,0.438843269832,0,nan,nan,nan,nan,nan,nan,nan,nan,nan,0.0,0.0,0.0,nan,nan,1003.34482141,1047.93709677,1048.37594004,1048.43712927,nan,nan
0,41,2248,6,1,94,66,1.0,-0.249439013202,-0.526745155233,1,1.0,1.0,0.398649723269,0,nan,nan,nan,nan,nan,nan,nan,nan,nan,0.0,0.0,0.0,nan,nan,1003.34482141,1048.93725699,1049.33590671,1049.43728464,nan,nan
0,42,2249,6,1,485,341,0.622774561467,0.312875618285,-1.0,1,1.0,1.0,0.41448629275,0,nan,nan,nan,nan,nan,nan,nan,nan,nan,0.0,0.0,0.0,nan,nan,1003.34482141,1049.9373736,1050.35185989,1050.43739555,nan,nan
0,43,2250,6,1,77,54,1.0,-0.174593022316,-0.756267193339,1,1.0,1.0,0.454344564117,0,nan,nan,nan,nan,nan,nan,nan,nan,nan,0.0,0.0,0.0,nan,nan,1003.34482141,1050.93750503,1051.39184959,1051.43751957,nan,nan
0,44,2251,6,1,382,268,-0.1011887567,0.478291136399,-0.199732273247,1,1.0,1.0,0.510177963413,0,nan,nan,nan,nan,nan,nan,nan,nan,nan,0.0,0.0,0.0,nan,nan,1003.34482141,1051.93761422,1052.44779218,1052.43769889,nan,nan
0,45,2255,6,1,302,212,0.027086081288,0.400300843718,0.517770016443,1,1.0,1.0,0.446036837995,1,nan,nan,nan,nan,nan,nan,nan,-148.37567574,339.0,-0.164955840019,0.45996923152,0.241423096872,26.0319257403,1.03376175836,1003.34482141,1052.93775933,1053.38379617,1053.43780238,1054.76296236,1055.80477241
0,46,2256,6,1,69,48,1.0,-0.134207199312,-0.939648005704,1,1.0,1.0,0.500225226395,0,nan,nan,nan,nan,nan,nan,nan,nan,nan,0.0,0.0,0.0,nan,nan,1003.34482141,1057.01328923,1057.51351445,1057.51335537,nan,nan
0,47,2257,6,1,385,270,-0.0879796604702,0.477733444059,-0.233926720364,1,1.0,1.0,0.330286881886,0,nan,nan,nan,nan,nan,nan,nan,nan,nan,0.0,0.0,0.0,nan,nan,1003.34482141,1058.01341467,1058.34370155,1058.51346029,nan,nan
0,48,2258,6,1,171,120,1.0,-0.176011872558,0.256450910142,1,1.0,1.0,0.322135957889,0,nan,nan,nan,nan,nan,nan,nan,nan,nan,0.0,0.0,0.0,nan,nan,1003.34482141,1059.01354239,1059.33567835,1059.51356748,nan,nan
0,49,2259,6,1,379,266,-0.113535935895,0.478614986251,-0.165970515924,1,1.0,1.0,0.337978798896,0,nan,nan,nan,nan,nan,nan,nan,nan,nan,0.0,0.0,0.0,nan,nan,1003.34482141,1060.0136627,1060.3516415,1060.5136992,nan,nan
0,50,2300,6,1,78,54,1.0,-0.179467652321,-0.739907630878,1,1.0,1.0,0.337797762826,0,nan,nan,nan,nan,nan,nan,nan,nan,nan,0.0,0.0,0.0,nan,nan,1003.34482141,1061.01381865,1061.35161642,1061.51382806,nan,nan
0,51,2301,6,1,465,326,0.456588679398,0.37096152752,-1.0,1,1.0,1.0,0.326038366184,0,nan,nan,nan,nan,nan,nan,nan,nan,nan,0.0,0.0,0.0,nan,nan,1003.34482141,1062.10559765,1062.43163602,1062.6056407,nan,nan
0,52,2302,6,1,11,7,0.934659501434,0.163852895862,-1.0,1,1.0,1.0,0.307824088261,0,nan,nan,nan,nan,nan,nan,nan,nan,nan,0.0,0.0,0.0,nan,nan,1003.34482141,1063.1557713,1063.46359539,1063.65577216,nan,nan
0,53,2303,6,1,253,177,0.513865899396,0.244839928328,0.655977188727,1,1.0,1.0,0.33936722111,0,nan,nan,nan,nan,nan,nan,nan,nan,nan,0.0,0.0,0.0,nan,nan,1003.34482141,1064.16421018,1064.5035774,1064.6642518,nan,nan
0,54,2308,6,1,49,34,1.0,-0.027785429985,-1.0,1,1.0,1.0,0.443212381564,1,nan,nan,nan,nan,nan,nan,nan,63.8905716602,37.0,1.0,0.0358565504353,-1.0,-8.34369666018,1.39211644046,1003.34482141,1065.16435101,1065.6075634,1065.66436384,1066.98954635,1068.3897145
0,55,2309,6,1,203,142,1.0,-0.00249325098487,0.493674673203,1,1.0,1.0,0.505220126361,0,nan,nan,nan,nan,nan,nan,nan,nan,nan,0.0,0.0,0.0,nan,nan,1003.34482141,1069.59822447,1070.1034446,1070.09831856,nan,nan
0,56,2310,6,1,450,316,0.335949728395,0.405598329481,-1.0,1,1.0,1.0,0.449042616412,0,nan,nan,nan,nan,nan,nan,nan,nan,nan,0.0,0.0,0.0,nan,nan,1003.34482141,1070.59838612,1071.04742874,1071.09839981,nan,nan
0,57,2311,6,1,510,358,0.830554458933,0.220436700166,-1.0,1,1.0,1.0,0.352896500379,0,nan,nan,nan,nan,nan,nan,nan,nan,nan,0.0,0.0,0.0,nan,nan,1003.34482141,1071.5985033,1071.9513998,1072.09853665,nan,nan
0,58,2312,6,1,461,324,0.423959648591,0.380927367285,-1.0,1,1.0,1.0,0.32840809226,0,nan,nan,nan,nan,nan,nan,nan,nan,nan,0.0,0.0,0.0,nan,nan,1003.34482141,1072.60698493,1072.93539303,1073.10700204,nan,nan
0,59,2317,6,1,89,62,1.0,-0.229484098413,-0.587370487375,1,1.0,1.0,0.503930062987,1,nan,nan,nan,nan,nan,nan,nan,45.7252242991,63.0,1.0,-0.102744642793,-1.0,-18.3033492991,1.6838165829,1003.34482141,1073.61543293,1074.11936299,1074.1154985,1075.4406562,1077.13251052
0,60,2318,6,1,156,109,1.0,-0.244060613314,0.121041471254,1,1.0,1.0,0.409900791943,0,nan,nan,nan,nan,nan,nan,nan,nan,nan,0.0,0.0,0.0,nan,nan,1003.34482141,1078.34936614,1078.75926694,1078.84940948,nan,nan
0,61,2319,6,1,254,178,0.503011129055,0.248947817922,0.65613358125,1,1.0,1.0,0.361751043238,0,nan,nan,nan,nan,nan,nan,nan,nan,nan,0.0,0.0,0.0,nan,nan,1003.34482141,1079.34949757,1079.71124862,1079.84954718,nan,nan
0,62,2320,6,1,91,63,1.0,-0.237709898716,-0.562722318432,1,1.0,1.0,0.353597839363,0,nan,nan,nan,nan,nan,nan,nan,nan,nan,0.0,0.0,0.0,nan,nan,1003.34482141,1080.34963471,1080.70323254,1080.84966207,nan,nan
0,63,2321,6,1,221,155,0.851781464038,0.0945411604707,0.585422935822,1,1.0,1.0,0.361425462179,0,nan,nan,nan,nan,nan,nan,nan,nan,nan,0.0,0.0,0.0,nan,nan,1003.34482141,1081.34978353,1081.71120899,1081.84982002,nan,nan
0,64,2322,6,0,426,299,0.156193047225,0.446210853967,-0.81485970128,0,0.0,1.0,0.553266954608,0,nan,nan,nan,nan,nan,nan,nan,nan,nan,0.0,0.0,0.0,nan,nan,1003.34482141,1082.34991467,1082.90318163,1082.84996485,nan,nan
0,65,2323,6,1,94,66,1.0,-0.249439013202,-0.526745155233,1,1.0,1.0,0.377141149715,0,nan,nan,nan,nan,nan,nan,nan,nan,nan,0.0,0.0,0.0,nan,nan,1003.34482141,1083.3500327,1083.72717385,1083.85004553,nan,nan
0,66,2324,6,1,1,0,0.854939129564,0.207877072944,-1.0,1,1.0,1.0,0.465016030706,0,nan,nan,nan,nan,nan,nan,nan,nan,nan,0.0,0.0,0.0,nan,nan,1003.34482141,1084.35014674,1084.81516277,1084.85017211,nan,nan
0,67,2325,6,1,235,165,0.707591924495,0.164537776567,0.631659631194,1,1.0,1.0,0.38484104909,0,nan,nan,nan,nan,nan,nan,nan,nan,nan,0.0,0.0,0.0,nan,nan,1003.34482141,1085.35029014,1085.73513119,1085.85031409,nan,nan
0,68,2326,6,1,31,21,1.0,0.0668515730764,-1.0,1,1.0,1.0,0.290905862115,0,nan,nan,nan,nan,nan,nan,nan,nan,nan,0.0,0.0,0.0,nan,nan,1003.34482141,1086.39620445,1086.68711031,1086.90046408,nan,nan
0,69,2327,6,0,414,291,0.0747837862165,0.460162189034,-0.600089175003,0,0.0,1.0,0.398508884944,0,nan,nan,nan,nan,nan,nan,nan,nan,nan,0.0,0.0,0.0,nan,nan,1003.34482141,1087.40057185,1087.79908073,1087.90060777,nan,nan
0,70,2328,6,1,304,213,0.0113092810281,0.404708921832,0.506160370659,1,1.0,1.0,0.286082589999,0,nan,nan,nan,nan,nan,nan,nan,nan,nan,0.0,0.0,0.0,nan,nan,1003.34482141,1088.40898877,1088.69507136,1088.90903438,nan,nan
0,71,2329,6,1,470,330,0.497741612616,0.357740777197,-1.0,1,1.0,1.0,0.271790391766,0,nan,nan,nan,nan,nan,nan,nan,nan,nan,0.0,0.0,0.0,nan,nan,1003.34482141,1089.47925691,1089.7510473,1089.98419536,nan,nan
0,72,2330,6,1,297,208,0.0686262056446,0.388646276542,0.544904663634,1,1.0,1.0,0.370734735392,0,nan,nan,nan,nan,nan,nan,nan,nan,nan,0.0,0.0,0.0,nan,nan,1003.34482141,1090.48427034,1090.85500508,1090.98430598,nan,nan
0,73,2331,6,1,179,125,1.0,-0.13461441766,0.323204131591,1,1.0,1.0,0.39426550176,0,nan,nan,nan,nan,nan,nan,nan,nan,nan,0.0,0.0,0.0,nan,nan,1003.34482141,1091.49274058,1091.88700608,1091.99276823,nan,nan
0,74,2332,6,1,21,14,1.0,0.116713997928,-1.0,1,1.0,1.0,0.377754678018,0,nan,nan,nan,nan,nan,nan,nan,nan,nan,0.0,0.0,0.0,nan,nan,1003.34482141,1092.5012091,1092.87896378,1093.00123333,nan,nan
0,75,2333,6,1,505,355,0.789537956352,0.240683140511,-1.0,1,1.0,1.0,0.393307575025,0,nan,nan,nan,nan,nan,nan,nan,nan,nan,0.0,0.0,0.0,nan,nan,1003.34482141,1093.50965909,1093.90296666,1094.00971953,nan,nan
0,76,2334,6,1,111,78,1.0,-0.298677811705,-0.336106236365,1,1.0,1.0,0.417137124576,0,nan,nan,nan,nan,nan,nan,nan,nan,nan,0.0,0.0,0.0,nan,nan,1003.34482141,1094.50979451,1094.92693163,1095.00983528,nan,nan
0,77,2335,6,1,439,308,0.251144291643,0.426392204401,-1.0,1,1.0,1.0,0.45696517732,0,nan,nan,nan,nan,nan,nan,nan,nan,nan,0.0,0.0,0.0,nan,nan,1003.34482141,1095.50994219,1095.96690737,1096.0099516,nan,nan
0,78,2336,6,0,244,171,0.611372359265,0.206163547436,0.648880721676,0,0.0,1.0,0.384825940244,0,nan,nan,nan,nan,nan,nan,nan,nan,nan,0.0,0.0,0.0,nan,nan,1003.34482141,1096.51007932,1096.89490526,1097.01011553,nan,nan
0,79,2337,6,1,372,261,-0.138660017671,0.478458869494,-0.0888123791441,1,1.0,1.0,0.368677474558,0,nan,nan,nan,nan,nan,nan,nan,nan,nan,0.0,0.0,0.0,nan,nan,1003.34482141,1097.51021446,1097.87889193,1098.01024154,nan,nan
0,80,2338,6,1,480,337,0.580928072941,0.32870764083,-1.0,1,1.0,1.0,0.384201861918,0,0.0,0.0,0.37923509224,0.411007112682,0.0678247221968,0.478831834879,0.343182390485,nan,nan,0.0,0.0,0.0,nan,nan,1003.34482141,1098.51865589,1098.90285776,1099.01868355,nan,nan
0,81,2339,6,1,385,270,-0.0879796604702,0.477733444059,-0.233926720364,1,1.0,1.0,0.424023358151,0,0.0,0.0,0.392300898209,0.410672047047,0.0674652486743,0.478137295722,0.343206798373,nan,nan,0.0,0.0,0.0,nan,nan,1003.34482141,1099.51879901,1099.94282237,1100.01883208,nan,nan
0,82,2340,6,1,137,96,1.0,-0.300190217086,-0.0647316600203,1,1.0,1.0,0.375583379529,0,0.0,0.0,0.394602866533,0.410836878049,0.067063710182,0.477900588231,0.343773167867,nan,nan,0.0,0.0,0.0,nan,nan,1003.34482141,1100.5272376,1100.90282098,1101.0272701,nan,nan
0,83,2341,6,1,18,12,0.988682696815,0.131162580546,-1.0,1,1.0,1.0,0.351110937074,0,0.0,0.0,0.383572558252,0.410406957335,0.0667657437396,0.477172701075,0.343641213595,nan,nan,0.0,0.0,0.0,nan,nan,1003.34482141,1101.53569072,1101.88680166,1102.03575915,nan,nan
0,84,2342,6,1,355,249,-0.173737462994,0.472683863687,0.0888799762457,1,1.0,1.0,0.374622032978,0,0.0,0.0,0.36710544986,0.409692547452,0.0666769001742,0.476369447627,0.343015647278,nan,nan,0.0,0.0,0.0,nan,nan,1003.34482141,1102.54416808,1102.91879012,1103.04420429,nan,nan
0,85,2343,6,1,114,80,1.0,-0.303747463913,-0.303859371662,1,1.0,1.0,0.358465299942,0,0.0,0.0,0.361399423331,0.409275041328,0.0663878796336,0.475662920961,0.342887161694,nan,nan,0.0,0.0,0.0,nan,nan,1003.34482141,1103.54430065,1103.90276595,1104.04433259,nan,nan
0,86,2344,6,1,306,215,-0.00395437407881,0.408974006242,0.494128827808,1,1.0,1.0,0.350290713832,0,0.0,0.0,0.361126015584,0.408677279664,0.0662232147791,0.474900494443,0.342454064885,nan,nan,0.0,0.0,0.0,nan,nan,1003.34482141,1104.54443893,1104.89472964,1105.04446316,nan,nan
0,87,2345,6,1,376,264,-0.124962824795,0.478704673615,-0.132627625282,1,1.0,1.0,0.350162420422,0,0.0,0.0,0.352972811398,0.407998366108,0.0661339423612,0.474132308469,0.341864423747,nan,nan,0.0,0.0,0.0,nan,nan,1003.34482141,1105.54456266,1105.89472508,1106.04458547,nan,nan
0,88,2346,6,1,103,72,1.0,-0.279537473278,-0.423758835275,1,1.0,1.0,0.357698389329,0,0.0,0.0,0.352717174528,0.407333585123,0.066041140517,0.47337472564,0.341292444606,nan,nan,0.0,0.0,0.0,nan,nan,1003.34482141,1106.55300267,1106.91070106,1107.05305627,nan,nan
0,89,2347,6,1,290,203,0.131265381085,0.370776544741,0.578206616232,1,1.0,1.0,0.349193945527,0,0.0,0.0,0.352351585093,0.406769548807,0.0658752489694,0.472644797777,0.340894299838,nan,nan,0.0,0.0,0.0,nan,nan,1003.34482141,1107.56149229,1107.91068623,1108.06152935,nan,nan
0,90,2348,6,1,501,352,0.7564492333,0.256253544744,-1.0,1,1.0,1.0,0.325020284392,0,0.0,0.0,0.343970873083,0.406122631917,0.065784630306,0.471907262223,0.340338001611,nan,nan,0.0,0.0,0.0,nan,nan,1003.34482141,1108.56163113,1108.88665142,1109.06165166,nan,nan
0,91,2349,6,1,205,144,1.0,0.00854800403903,0.505535240796,1,1.0,1.0,0.484872182831,0,0.0,0.0,0.386362137583,0.405221494722,0.0659682138484,0.47118970857,0.339253280873,nan,nan,0.0,0.0,0.0,nan,nan,1003.34482141,1109.5617503,1110.04662248,1110.06176912,nan,nan
0,92,2350,6,1,30,21,1.0,0.071945658744,-1.0,1,1.0,1.0,0.404724855907,0,0.0,0.0,0.404872441043,0.406096777009,0.0661281628365,0.472224939845,0.339968614172,nan,nan,0.0,0.0,0.0,nan,nan,1003.34482141,1110.56188743,1110.96661229,1111.06190711,nan,nan
0,93,2351,6,0,434,305,0.213881816697,0.43461034373,-1.0,0,0.0,1.0,0.436527712271,0,0.0,0.0,0.44204158367,0.406081864823,0.0657679425378,0.471849807361,0.340313922285,nan,nan,0.0,0.0,0.0,nan,nan,1003.34482141,1111.56205136,1111.99857908,1112.06206106,nan,nan
0,94,2352,6,1,478,336,0.56422249903,0.334793662244,-1.0,1,1.0,1.0,0.460409147665,0,0.0,0.0,0.433887238614,0.406409239527,0.0654887194478,0.471897958974,0.340920520079,nan,nan,0.0,0.0,0.0,nan,nan,1003.34482141,1112.56214887,1113.02255802,1113.06216825,nan,nan
0,95,2353,6,1,127,89,1.0,-0.31111021432,-0.167036648065,1,1.0,1.0,0.372270267457,0,0.0,0.0,0.423069042464,0.406983706634,0.065374599773,0.472358306407,0.341609106861,nan,nan,0.0,0.0,0.0,nan,nan,1003.34482141,1113.56227916,1113.93454942,1114.06231879,nan,nan
0,96,2354,6,1,441,310,0.266287261384,0.422891888867,-1.0,1,1.0,1.0,0.396119202487,0,0.0,0.0,0.409599539203,0.406618302012,0.065126042829,0.471744344841,0.341492259183,nan,nan,0.0,0.0,0.0,nan,nan,1003.34482141,1114.56240431,1114.95852352,1115.06242028,nan,nan
0,97,2355,6,1,50,35,1.0,-0.033148730948,-1.0,1,1.0,1.0,0.371993723325,0,0.0,0.0,0.38012773109,0.406508936392,0.0647947256272,0.471303662019,0.341714210764,nan,nan,0.0,0.0,0.0,nan,nan,1003.34482141,1115.56251807,1115.93451179,1116.0625614,nan,nan
0,98,2356,6,0,229,161,0.770397026975,0.135265939772,0.614681466938,0,0.0,1.0,0.45178724546,0,0.0,0.0,0.406633390424,0.406153109453,0.0645540802231,0.470707189676,0.34159902923,nan,nan,0.0,0.0,0.0,nan,nan,1003.34482141,1116.56269483,1117.01448207,1117.06272676,nan,nan
0,99,2357,6,1,144,101,1.0,-0.284423189345,0.00519445478499,1,1.0,1.0,0.363651214167,0,0.0,0.0,0.395810727651,0.406618763902,0.0643874167066,0.471006180608,0.342231347195,nan,nan,0.0,0.0,0.0,nan,nan,1003.34482141,1117.56280858,1117.9264598,1118.06281856,nan,nan
0,100,2358,6,1,64,45,1.0,-0.108036866323,-1.0,1,1.0,1.0,0.411495054141,0,0.0,0.0,0.408977837923,0.406184748248,0.0642053229405,0.470390071188,0.341979425307,nan,nan,0.0,0.0,0.0,nan,nan,1003.34482141,1118.56294913,1118.97444419,1119.06295911,nan,nan
0,101,2359,6,1,145,101,1.0,-0.281667413287,0.0150551701241,1,1.0,1.0,0.403356390074,0,0.0,0.0,0.392834219461,0.406237851307,0.063885674705,0.470123526012,0.342352176602,nan,nan,0.0,0.0,0.0,nan,nan,1003.34482141,1119.56306945,1119.96642584,1120.06307144,nan,nan
0,102,2400,6,1,279,196,0.238157575771,0.338930353633,0.618978422254,1,1.0,1.0,0.395247946493,0,0.0,0.0,0.403366463569,0.406209321988,0.0635692624416,0.469778584429,0.342640059546,nan,nan,0.0,0.0,0.0,nan,nan,1003.34482141,1120.56317208,1120.95842003,1121.06320344,nan,nan
0,103,2401,6,1,7,4,0.9030914636,0.181853060355,-1.0,1,1.0,1.0,0.371088825166,0,0.0,0.0,0.389897720578,0.406101857522,0.0632660998387,0.469367957361,0.342835757683,nan,nan,0.0,0.0,0.0,nan,nan,1003.34482141,1121.56329667,1121.93438549,1122.0633477,nan,nan
0,104,2402,6,1,366,257,-0.155593376329,0.477302029306,-0.0244766492797,1,1.0,1.0,0.378593433648,0,0.0,0.0,0.381643401769,0.405761925169,0.0630517700706,0.46881369524,0.342710155098,nan,nan,0.0,0.0,0.0,nan,nan,1003.34482141,1122.57176804,1122.95036147,1123.07180197,nan,nan
0,105,2403,6,1,166,116,1.0,-0.20036215083,0.21267421211,1,1.0,1.0,0.386430750601,0,0.0,0.0,0.378704336472,0.405500689674,0.0628038902509,0.468304579925,0.342696799423,nan,nan,0.0,0.0,0.0,nan,nan,1003.34482141,1123.57191201,1123.95834277,1124.07193311,nan,nan
0,106,2404,6,1,55,38,1.0,-0.0599996532909,-1.0,1,1.0,1.0,0.402255630121,0,0.0,0.0,0.389093271457,0.405319071206,0.0625315445508,0.467850615757,0.342787526655,nan,nan,0.0,0.0,0.0,nan,nan,1003.34482141,1124.57205884,1124.97431447,1125.07205428,nan,nan
0,107,2405,6,1,290,203,0.131265381085,0.370776544741,0.578206616232,1,1.0,1.0,0.362151319161,0,0.0,0.0,0.383612566628,0.405290170819,0.0622365900421,0.467526760861,0.343053580777,nan,nan,0.0,0.0,0.0,nan,nan,1003.34482141,1125.57215178,1125.9343031,1126.07219055,nan,nan
0,108,2406,6,1,501,352,0.7564492333,0.256253544744,-1.0,1,1.0,1.0,0.337665762752,0,0.0,0.0,0.367357570678,0.404887003981,0.0620839980599,0.466971002041,0.342803005921,nan,nan,0.0,0.0,0.0,nan,nan,1003.34482141,1126.5806548,1126.91832056,1127.08068131,nan,nan
0,109,2407,6,1,54,37,1.0,-0.0546292063271,-1.0,1,1.0,1.0,0.369490572251,0,0.0,0.0,0.356435884722,0.404264585081,0.0621303957875,0.466394980868,0.342134189293,nan,nan,0.0,0.0,0.0,nan,nan,1003.34482141,1127.58076485,1127.95025542,1128.08078167,nan,nan
0,110,2408,6,1,507,356,0.805995650865,0.232688349973,-1.0,1,1.0,1.0,0.305371684022,0,1.0,0.0,0.337509339675,0.40394555744,0.0619335419796,0.46587909942,0.34201201546,nan,nan,0.0,0.0,0.0,nan,nan,1003.34482141,1128.58087603,1128.88624772,1129.08090512,nan,nan
0,111,2412,6,1,387,272,-0.0787219327085,0.477231755363,-0.256974454483,1,1.0,1.0,0.272856369615,1,0.0,0.0,0.315906208629,0.403049431318,0.06235723394,0.465406665258,0.340692197378,114.775140569,477.0,0.555879874869,0.337784025865,-1.0,63.1154844312,1.28382547759,1003.34482141,1129.58935054,1129.86220691,1130.0893648,1131.41453932,1132.70639256
0,112,2413,6,1,163,114,1.0,-0.214247802105,0.185723682048,1,1.0,1.0,0.410880385898,0,0.0,0.0,0.329702813178,0.401876520852,0.0632828796584,0.465159400511,0.338593641194,nan,nan,0.0,0.0,0.0,nan,nan,1003.34482141,1133.9232402,1134.33412058,1134.42325616,nan,nan
0,113,2414,6,1,19,13,0.99625917486,0.126374530333,-1.0,1,1.0,1.0,0.306715060957,0,0.0,0.0,0.33015060549,0.401956912504,0.0630054265642,0.464962339069,0.33895148594,nan,nan,0.0,0.0,0.0,nan,nan,1003.34482141,1134.92337248,1135.23008754,1135.42339329,nan,nan
0,114,2415,6,1,157,110,1.0,-0.240048375319,0.130425901556,1,1.0,1.0,0.354597103782,0,0.0,0.0,0.357397516879,0.401114064261,0.0633570664233,0.464471130684,0.337756997837,nan,nan,0.0,0.0,0.0,nan,nan,1003.34482141,1135.92349222,1136.27808933,1136.42353527,nan,nan
0,115,2416,6,1,249,175,0.557275547736,0.228026269286,0.654084877906,1,1.0,1.0,0.34611546807,0,1.0,0.0,0.335809210936,0.400706020748,0.0632275315823,0.46393355233,0.337478489165,nan,nan,0.0,0.0,0.0,nan,nan,1003.34482141,1136.93195932,1137.27807479,1137.43198355,nan,nan
0,116,2421,6,1,62,43,1.0,-0.0974372467467,-1.0,1,1.0,1.0,0.353687644005,1,0.0,0.0,0.351466738619,0.400231320289,0.0631557343454,0.463387054635,0.337075585944,79.2737055339,15.0,0.965734432428,0.145352784795,-1.0,-32.8674555339,1.64218443632,1003.34482141,1137.94040817,1138.29409581,1138.44047659,1139.76562289,1141.41583623
0,117,2422,6,1,283,198,0.19826868328,0.351050922538,0.605825948857,1,1.0,1.0,0.54958977364,0,0.0,0.0,0.416464295238,0.399830081701,0.0630299612981,0.462860042999,0.336800120403,nan,nan,0.0,0.0,0.0,nan,nan,1003.34482141,1142.62435732,1143.17394709,1143.12442888,nan,nan
0,118,2423,6,0,163,114,1.0,-0.214247802105,0.185723682048,0,0.0,1.0,0.445407058112,0,0.0,0.0,0.449561491919,0.401110079068,0.0642563171115,0.465366396179,0.336853761956,nan,nan,0.0,0.0,0.0,nan,nan,1003.34482141,1143.62451298,1144.06992004,1144.12454548,nan,nan
0,119,2424,6,1,56,39,1.0,-0.0653675053377,-1.0,1,1.0,1.0,0.348959594965,0,0.0,0.0,0.447985475572,0.401485477195,0.0641121822113,0.465597659407,0.337373294984,nan,nan,0.0,0.0,0.0,nan,nan,1003.34482141,1144.63294815,1144.98190774,1145.13297723,nan,nan
0,120,2425,6,1,217,152,0.891250405156,0.0735373331823,0.568048345461,1,1.0,1.0,0.404458859935,0,0.0,0.0,0.399608504338,0.401044083227,0.064022033289,0.465066116516,0.337022049938,nan,nan,0.0,0.0,0.0,nan,nan,1003.34482141,1145.64142779,1146.04588665,1146.14144432,nan,nan
0,121,2426,6,1,340,239,-0.166837174664,0.460980112934,0.232376404312,1,1.0,1.0,0.442970619537,0,0.0,0.0,0.398796358146,0.4010725397,0.0637554724681,0.464828012168,0.337317067231,nan,nan,0.0,0.0,0.0,nan,nan,1003.34482141,1146.67489618,1147.1178668,1147.17493267,nan,nan
0,122,2427,6,1,205,144,1.0,0.00854800403903,0.505535240796,1,1.0,1.0,0.490485457703,0,0.0,0.0,0.445971645725,0.401418804822,0.0636046787097,0.465023483532,0.337814126112,nan,nan,0.0,0.0,0.0,nan,nan,1003.34482141,1147.68334503,1148.17383049,1148.19171263,nan,nan
0,123,2428,6,1,285,200,0.178734351563,0.356878681702,0.598527012995,1,1.0,1.0,0.521990672685,0,0.0,1.0,0.485148916642,0.402148859354,0.0638504925554,0.465999351909,0.338298366799,nan,nan,0.0,0.0,0.0,nan,nan,1003.34482141,1148.6918184,1149.21380907,1149.19188027,nan,nan
0,124,2432,6,1,417,293,0.0945046041228,0.457053563907,-0.645720198395,1,1.0,1.0,0.473504508846,1,0.0,0.0,0.495326879745,0.40312318304,0.0644946152825,0.467617798322,0.338628567757,158.246099441,415.0,0.0813077335083,0.459153678902,-0.614968023274,-1.449224441,1.06710128672,1003.34482141,1149.7002912,1150.17379571,1150.20030175,1151.52547142,1152.60061672
0,125,2433,6,0,167,117,1.0,-0.195605812978,0.221546716301,0,0.0,1.0,0.500591861084,0,0.0,0.0,0.498695680872,0.403690774377,0.0645417405228,0.4682325149,0.339149033854,nan,nan,0.0,0.0,0.0,nan,nan,1003.34482141,1153.80916861,1154.30976047,1154.30923646,nan,nan
0,126,2434,6,1,26,18,1.0,0.0920921692153,-1.0,1,1.0,1.0,0.356120091863,0,0.0,0.0,0.443405487264,0.40446598307,0.0648600708902,0.469326053961,0.33960591218,nan,nan,0.0,0.0,0.0,nan,nan,1003.34482141,1154.81760463,1155.17372472,1155.31763143,nan,nan
0,127,2435,6,1,468,329,0.481236483515,0.363131620867,-1.0,1,1.0,1.0,0.419945330359,0,0.0,0.0,0.425552427769,0.404082285521,0.064744453368,0.468826738889,0.339337832153,nan,nan,0.0,0.0,0.0,nan,nan,1003.34482141,1155.81774204,1156.23768737,1156.31778224,nan,nan
0,128,2436,6,1,20,14,1.0,0.121558187834,-1.0,1,1.0,1.0,0.371817532927,0,0.0,0.0,0.382627651716,0.404207191386,0.0645042896264,0.468711481012,0.33970290176,nan,nan,0.0,0.0,0.0,nan,nan,1003.34482141,1156.81786121,1157.18967875,1157.31789371,nan,nan
0,129,2437,6,1,242,170,0.632911854383,0.197161183215,0.645921401967,1,1.0,1.0,0.435648187995,0,0.0,0.0,0.409137017094,0.403954147179,0.0643150766761,0.468269223855,0.339639070503,nan,nan,0.0,0.0,0.0,nan,nan,1003.34482141,1157.81799207,1158.25364026,1158.31801973,nan,nan
0,130,2438,6,1,303,213,0.0191349273956,0.402522842081,0.512018356663,1,1.0,1.0,0.475497052073,0,0.0,0.0,0.427654257665,0.404199837418,0.0641255822496,0.468325419668,0.340074255169,nan,nan,0.0,0.0,0.0,nan,nan,1003.34482141,1158.81811723,1159.29361428,1159.31817368,nan,nan
0,131,2439,6,1,175,123,1.0,-0.155629953633,0.290361762956,1,1.0,1.0,0.442644183524,0,0.0,0.0,0.451263141197,0.404748277531,0.064181463842,0.468929741373,0.340566813689,nan,nan,0.0,0.0,0.0,nan,nan,1003.34482141,1159.83494793,1160.27759212,1160.3349485,nan,nan
0,132,2440,6,1,509,357,0.822386376617,0.224555004187,-1.0,1,1.0,1.0,0.586154035293,0,0.0,1.0,0.501431756963,0.405037559256,0.0640210471246,0.469058606381,0.341016512132,nan,nan,0.0,0.0,0.0,nan,nan,1003.34482141,1160.8433945,1161.42954854,1161.34345067,nan,nan
0,133,2444,6,1,98,68,1.0,-0.263822910468,-0.480217789416,1,1.0,1.0,0.418034609407,1,0.0,0.0,0.482277609408,0.406409653771,0.0656831031489,0.47209275692,0.340726550623,8.05910390287,117.0,1.0,-0.307587969795,-0.271886539361,13.0346460971,1.10042656213,1003.34482141,1161.84351196,1162.26154657,1162.34353391,1163.66872298,1164.77718272
0,134,2445,6,1,396,278,-0.0330153705648,0.473684876347,-0.363523780775,1,1.0,1.0,0.171423699707,0,0.0,0.0,0.391870781469,0.406497059453,0.0654434134661,0.471940472919,0.341053645987,nan,nan,0.0,0.0,0.0,nan,nan,1003.34482141,1165.99405658,1166.16548028,1166.49408053,nan,nan
0,135,2446,6,1,175,123,1.0,-0.155629953633,0.290361762956,1,1.0,1.0,0.315277379937,0,0.0,0.0,0.301578563017,0.404742780649,0.0682655519944,0.473008332643,0.336477228654,nan,nan,0.0,0.0,0.0,nan,nan,1003.34482141,1166.99418174,1167.30945912,1167.49421054,nan,nan
0,136,2447,6,1,406,285,0.0244967455079,0.467245700284,-0.489366101921,1,1.0,1.0,0.307100797072,0,1.0,0.0,0.264600625572,0.404080073977,0.0684435229491,0.472523596926,0.335636551028,nan,nan,0.0,0.0,0.0,nan,nan,1003.34482141,1167.99431859,1168.30141938,1168.49436734,nan,nan
0,137,2451,6,1,243,170,0.622151010882,0.20168048164,0.647463484622,1,1.0,1.0,0.298969545402,1,0.0,0.0,0.30711590747,0.403366991059,0.0686929155217,0.47205990658,0.334674075537,-64.1266147737,219.0,0.871627318206,0.0840881726889,0.576959667802,-16.7327602263,1.17554591782,1003.34482141,1168.99444688,1169.29341643,1169.49446456,1170.81963765,1172.00313179
0,138,2452,6,1,110,77,1.0,-0.296722754836,-0.346921960777,1,1.0,1.0,0.473678988405,0,0.0,0.0,0.359916443626,0.402604965908,0.0690162752735,0.471621241181,0.333588690634,nan,nan,0.0,0.0,0.0,nan,nan,1003.34482141,1173.21166657,1173.68534556,1173.71169879,nan,nan
0,139,2453,6,1,511,359,0.838703193994,0.216284169582,-1.0,1,1.0,1.0,0.393147066236,0,0.0,0.0,0.388598533347,0.403119995056,0.0690294858282,0.472149480884,0.334090509228,nan,nan,0.0,0.0,0.0,nan,nan,1003.34482141,1174.2201482,1174.61329527,1174.72016645,nan,nan
0,140,2454,6,1,124,87,1.0,-0.311577186586,-0.198226518473,1,1.0,1.0,0.337061641738,0,0.0,0.0,0.401295898793,0.403048247367,0.068785894063,0.47183414143,0.334262353304,nan,nan,0.0,0.0,0.0,nan,nan,1003.34482141,1175.22024571,1175.55730735,1175.72026937,nan,nan
0,141,2455,6,1,339,238,-0.164955840019,0.45996923152,0.241423096872,1,1.0,1.0,0.400889160112,0,0.0,0.0,0.377032622695,0.40257691447,0.0687646879027,0.471341602372,0.333812226567,nan,nan,0.0,0.0,0.0,nan,nan,1003.34482141,1176.22036973,1176.62125889,1176.72039852,nan,nan
0,142,2456,6,1,217,152,0.891250405156,0.0735373331823,0.568048345461,1,1.0,1.0,0.448741838336,0,0.0,0.0,0.395564213395,0.402564944581,0.0685205539719,0.471085498552,0.334044390609,nan,nan,0.0,0.0,0.0,nan,nan,1003.34482141,1177.22049659,1177.66923843,1177.72052567,nan,nan
0,143,2457,6,1,504,354,0.78128615449,0.244628286196,-1.0,1,1.0,1.0,0.296591551043,0,0.0,0.0,0.382074183164,0.402890133973,0.0683879591537,0.471278093127,0.334502174819,nan,nan,0.0,0.0,0.0,nan,nan,1003.34482141,1178.22063258,1178.51722414,1178.72066708,nan,nan
0,144,2458,6,0,311,218,-0.0397249783266,0.419020224334,0.462250212202,0,0.0,1.0,0.584396127611,0,0.0,0.0,0.44324317233,0.402146787239,0.0687216953534,0.470868482593,0.333425091886,nan,nan,0.0,0.0,0.0,nan,nan,1003.34482141,1179.22078654,1179.80518266,1179.72083614,nan,nan
0,145,2459,6,1,50,35,1.0,-0.033148730948,-1.0,1,1.0,1.0,0.376294411719,0,0.0,0.0,0.419094030124,0.403412407659,0.0701350965959,0.473547504255,0.333277311063,nan,nan,0.0,0.0,0.0,nan,nan,1003.34482141,1180.22088832,1180.59718273,1180.72094363,nan,nan
0,146,2500,6,1,484,340,0.614398947124,0.316112737715,-1.0,1,1.0,1.0,0.46412994992,0,0.0,0.0,0.474940163083,0.403225386997,0.0699288549594,0.473154241956,0.333296532038,nan,nan,0.0,0.0,0.0,nan,nan,1003.34482141,1181.22102516,1181.68515511,1181.72106166,nan,nan
0,147,2501,6,1,326,229,-0.12383419111,0.444071765824,0.352223541474,1,1.0,1.0,0.415620123036,0,0.0,0.0,0.418681494892,0.403642541538,0.0698697638163,0.473512305354,0.333772777721,nan,nan,0.0,0.0,0.0,nan,nan,1003.34482141,1182.22949882,1182.64511894,1182.72953217,nan,nan
0,148,2502,6,0,373,262,-0.135407706169,0.478559568072,-0.0996974893599,0,0.0,1.0,0.48746342957,0,0.0,0.0,0.455737834175,0.403724021684,0.0696386658227,0.473362687507,0.334085355861,nan,nan,0.0,0.0,0.0,nan,nan,1003.34482141,1183.22964079,1183.71710422,1183.73800184,nan,nan
0,149,2503,6,1,237,166,0.686387300223,0.174031846447,0.636349816437,1,1.0,1.0,0.367335238494,0,0.0,0.0,0.423472930367,0.404289828494,0.0697412129217,0.474031041416,0.334548615572,nan,nan,0.0,0.0,0.0,nan,nan,1003.34482141,1184.22975683,1184.59709207,1184.72979503,nan,nan
0,150,2504,6,0,87,61,1.0,-0.220959007447,-0.612675615602,0,1.0,0.0,0.495188417844,0,0.0,0.0,0.449995695303,0.404041811111,0.069572246248,0.473614057359,0.334469564863,nan,nan,0.0,0.0,0.0,nan,nan,1003.34482141,1185.22989368,1185.72508209,1185.73825643,nan,nan
0,151,2505,6,1,422,296,0.128328379107,0.451313674078,-0.730894888444,1,1.0,1.0,0.351068457589,0,0.0,0.0,0.404530704642,0.404649455156,0.0697355308278,0.474384985984,0.334913924328,nan,nan,0.0,0.0,0.0,nan,nan,1003.34482141,1186.22999916,1186.58106762,1186.73002511,nan,nan
0,152,2506,6,1,148,104,1.0,-0.272695592461,0.0444264621409,1,1.0,1.0,0.478901680559,0,0.0,0.0,0.441719518664,0.404294614113,0.0696399705172,0.47393458463,0.334654643595,nan,nan,0.0,0.0,0.0,nan,nan,1003.34482141,1187.23013173,1187.70903341,1187.7301648,nan,nan
0,153,2507,6,1,505,355,0.789537956352,0.240683140511,-1.0,1,1.0,1.0,0.422409138642,0,0.0,0.0,0.41745975893,0.404785450076,0.0696720770199,0.474457527096,0.335113373056,nan,nan,0.0,0.0,0.0,nan,nan,1003.34482141,1188.23860196,1188.6610111,1188.73862591,nan,nan
0,154,2508,6,1,230,161,0.760023132926,0.140224214653,0.61781109556,1,1.0,1.0,0.414277886972,0,0.0,0.0,0.438529568724,0.404900637583,0.0694585364838,0.474359174067,0.335442101099,nan,nan,0.0,0.0,0.0,nan,nan,1003.34482141,1189.23872684,1189.65300472,1189.73874907,nan,nan
0,155,2509,6,1,330,232,-0.139766326074,0.449518327743,0.319540245599,1,1.0,1.0,0.382113526575,0,0.0,0.0,0.40626685073,0.404961528813,0.0692367512881,0.474198280101,0.335724777525,nan,nan,0.0,0.0,0.0,nan,nan,1003.34482141,1190.23887936,1190.62099289,1190.73888307,nan,nan
0,156,2510,6,1,118,82,1.0,-0.308588151016,-0.261285249573,1,1.0,1.0,0.509968702681,0,0.0,0.0,0.435453372076,0.404814122347,0.0690372846212,0.473851406968,0.335776837726,nan,nan,0.0,0.0,0.0,nan,nan,1003.34482141,1191.23898029,1191.74894899,1191.73905783,nan,nan
0,157,2511,6,1,396,278,-0.0330153705648,0.473684876347,-0.363523780775,1,1.0,1.0,0.381832135841,0,0.0,0.0,0.424638121699,0.40548819017,0.0693254743742,0.474813664544,0.336162715795,nan,nan,0.0,0.0,0.0,nan,nan,1003.34482141,1192.23911913,1192.62095127,1192.73913994,nan,nan
0,158,2512,6,1,114,80,1.0,-0.303747463913,-0.303859371662,1,1.0,1.0,0.341681068763,0,0.0,0.0,0.411160635762,0.405337514664,0.0691299608042,0.474467475468,0.33620755386,nan,nan,0.0,0.0,0.0,nan,nan,1003.34482141,1193.23924115,1193.58092222,1193.7392765,nan,nan
0,159,2513,6,1,467,328,0.473005185182,0.365775667588,-1.0,1,1.0,1.0,0.333512469195,0,0.0,0.0,0.352341891266,0.404934625766,0.0690955071499,0.474030132916,0.335839118616,nan,nan,0.0,0.0,0.0,nan,nan,1003.34482141,1194.23937059,1194.57288306,1194.7394105,nan,nan
0,160,2514,6,1,151,106,1.0,-0.262720288689,0.0734626651272,1,1.0,1.0,0.389370100573,0,0.0,0.0,0.354854546177,0.404485429813,0.0691089250996,0.473594354912,0.335376504713,nan,nan,0.0,0.0,0.0,nan,nan,1003.34482141,1195.23949631,1195.62886641,1195.73954364,nan,nan
0,161,2515,6,1,456,320,0.383612429175,0.392633185378,-1.0,1,1.0,1.0,0.397218536586,0,0.0,0.0,0.373367035451,0.404390959005,0.0689029193068,0.473293878312,0.335488039698,nan,nan,0.0,0.0,0.0,nan,nan,1003.34482141,1196.23962632,1196.63684485,1196.73965454,nan,nan
0,162,2516,6,1,335,235,-0.155595990888,0.455627721073,0.276893227044,1,1.0,1.0,0.381057241932,0,0.0,0.0,0.38921529303,0.404346409798,0.068690913191,0.473037322989,0.335655496607,nan,nan,0.0,0.0,0.0,nan,nan,1003.34482141,1197.23975917,1197.62081642,1197.73978426,nan,nan
0,163,2517,6,1,427,300,0.163265173604,0.444863218481,-0.840208708629,1,1.0,1.0,0.356579383835,0,0.0,0.0,0.378285054117,0.404202649502,0.0685028668247,0.472705516327,0.335699782677,nan,nan,0.0,0.0,0.0,nan,nan,1003.34482141,1198.24822712,1198.60480651,1198.74825677,nan,nan
0,164,2518,6,1,3,2,0.871087178923,0.199335109687,-1.0,1,1.0,1.0,0.364423257299,0,0.0,0.0,0.367353294355,0.403910482228,0.0683935826068,0.472304064835,0.335516899621,nan,nan,0.0,0.0,0.0,nan,nan,1003.34482141,1199.24836084,1199.61278409,1199.74838393,nan,nan
0,165,2519,6,1,142,99,1.0,-0.289568116499,-0.0146273521697,1,1.0,1.0,0.42826816719,0,0.0,0.0,0.383090269441,0.403669706466,0.0682540056217,0.471923712088,0.335415700845,nan,nan,0.0,0.0,0.0,nan,nan,1003.34482141,1200.24847544,1200.67674361,1200.74850623,nan,nan
0,166,2520,6,1,78,54,1.0,-0.179467652321,-0.739907630878,1,1.0,1.0,0.403803422116,0,0.0,0.0,0.398831615535,0.403818788046,0.0680736383619,0.471892426408,0.335745149685,nan,nan,0.0,0.0,0.0,nan,nan,1003.34482141,1201.25692857,1201.66073199,1201.75699414,nan,nan
0,167,2521,6,0,189,132,1.0,-0.0802194643608,0.400143472992,0,0.0,1.0,0.43561397586,0,0.0,0.0,0.422561855055,0.403818695481,0.0678682875624,0.471686983043,0.335950407918,nan,nan,0.0,0.0,0.0,nan,nan,1003.34482141,1202.25709649,1202.69271047,1202.75712557,nan,nan
0,168,2522,6,1,142,99,1.0,-0.289568116499,-0.0146273521697,1,1.0,1.0,0.403500364162,0,0.0,0.0,0.414305920713,0.404009086381,0.0677092333158,0.471718319697,0.336299853065,nan,nan,0.0,0.0,0.0,nan,nan,1003.34482141,1203.25720198,1203.66070234,1203.75723619,nan,nan
0,169,2523,6,1,73,51,1.0,-0.1546788618,-0.830916872461,1,1.0,1.0,0.507319580764,0,0.0,0.0,0.448811306929,0.404006058273,0.067507428312,0.471513486585,0.336498629961,nan,nan,0.0,0.0,0.0,nan,nan,1003.34482141,1204.25733312,1204.7646527,1204.75740354,nan,nan
0,170,2524,6,1,118,82,1.0,-0.308588151016,-0.261285249573,1,1.0,1.0,0.44318871852,0,0.0,0.0,0.451336221149,0.404617380891,0.06777219977,0.472389580661,0.336845181121,nan,nan,0.0,0.0,0.0,nan,nan,1003.34482141,1205.25746313,1205.70065185,1205.7574808,nan,nan
0,171,2525,6,1,20,14,1.0,0.121558187834,-1.0,1,1.0,1.0,0.410706476308,0,0.0,0.0,0.453738258531,0.404844271112,0.0676369202193,0.472481191332,0.337207350893,nan,nan,0.0,0.0,0.0,nan,nan,1003.34482141,1206.26592737,1206.67663385,1206.76597128,nan,nan
0,172,2526,6,1,260,182,0.438016636947,0.272781976488,0.654406567654,1,1.0,1.0,0.378142410889,0,0.0,0.0,0.410679201906,0.404878553014,0.0674403427309,0.472318895745,0.337438210283,nan,nan,0.0,0.0,0.0,nan,nan,1003.34482141,1207.27446118,1207.65260359,1207.77441756,nan,nan
0,173,2527,6,1,423,297,0.135229581944,0.450080889006,-0.750039916123,1,1.0,1.0,0.3297739923,0,0.0,0.0,0.372874293166,0.404723110327,0.0672747246799,0.471997835007,0.337448385647,nan,nan,0.0,0.0,0.0,nan,nan,1003.34482141,1208.28284645,1208.61262045,1208.78289064,nan,nan
0,174,2528,6,0,307,215,-0.0113868739462,0.411053355611,0.487957006857,0,0.0,1.0,0.500218383968,0,0.0,0.0,0.402711595719,0.404289878431,0.0673202052412,0.471610083672,0.33696967319,nan,nan,0.0,0.0,0.0,nan,nan,1003.34482141,1209.28302635,1209.78324473,1209.78308736,nan,nan
0,175,2529,6,1,461,324,0.423959648591,0.380927367285,-1.0,1,1.0,1.0,0.361095320433,0,0.0,0.0,0.397029232234,0.404841191681,0.0675170105153,0.472358202197,0.337324181166,nan,nan,0.0,0.0,0.0,nan,nan,1003.34482141,1210.29143956,1210.65253488,1210.79148033,nan,nan
0,176,2530,6,1,396,278,-0.0330153705648,0.473684876347,-0.363523780775,1,1.0,1.0,0.384957084432,0,0.0,0.0,0.415423596278,0.404591215274,0.0674045311392,0.471995746413,0.337186684135,nan,nan,0.0,0.0,0.0,nan,nan,1003.34482141,1211.29158211,1211.6765392,1211.79162858,nan,nan
0,177,2531,6,1,248,174,0.568115903494,0.223728204869,0.653295769881,1,1.0,1.0,0.464810760692,0,0.0,0.0,0.403621055186,0.404479657713,0.0672289677286,0.471708625441,0.337250689984,nan,nan,0.0,0.0,0.0,nan,nan,1003.34482141,1212.2917144,1212.75652516,1212.79173692,nan,nan
0,178,2532,6,1,449,315,0.328095008353,0.407646248688,-1.0,1,1.0,1.0,0.376344589517,0,0.0,0.0,0.40870414488,0.404820511402,0.0671911212789,0.472011632681,0.337629390123,nan,nan,0.0,0.0,0.0,nan,nan,1003.34482141,1213.30014728,1213.67649187,1213.80019888,nan,nan
0,179,2533,6,1,23,16,1.0,0.106943944166,-1.0,1,1.0,1.0,0.375838256441,0,0.0,0.0,0.40566453555,0.404660534312,0.067035911995,0.471696446307,0.337624622318,nan,nan,0.0,0.0,0.0,nan,nan,1003.34482141,1214.30863205,1214.68447031,1214.80868366,nan,nan
0,180,2534,6,1,392,275,-0.0541067903503,0.475522277549,-0.315549842675,1,1.0,1.0,0.375386947766,0,0.0,0.0,0.375856597908,0.404499516,0.0668829079908,0.471382423991,0.33761660801,nan,nan,0.0,0.0,0.0,nan,nan,1003.34482141,1215.31708176,1215.69246871,1215.8171231,nan,nan
0,181,2535,6,1,193,135,1.0,-0.0580453890011,0.428658791268,1,1.0,1.0,0.382894122042,0,0.0,0.0,0.378039775416,0.40433777951,0.0667319562927,0.471069735803,0.337605823217,nan,nan,0.0,0.0,0.0,nan,nan,1003.34482141,1216.32554828,1216.70844241,1216.82560844,nan,nan
0,182,2536,6,1,252,177,0.524721685615,0.240693665738,0.655694012224,1,1.0,1.0,0.43872295972,0,0.0,0.0,0.399001343176,0.404219306264,0.0665663382929,0.470785644557,0.337652967972,nan,nan,0.0,0.0,0.0,nan,nan,1003.34482141,1217.32568855,1217.76441151,1217.82571963,nan,nan
0,183,2537,6,1,427,300,0.163265173604,0.444863218481,-0.840208708629,1,1.0,1.0,0.430562057532,0,0.0,0.0,0.417393046431,0.404408886778,0.066432191701,0.470841078479,0.337976695077,nan,nan,0.0,0.0,0.0,nan,nan,1003.34482141,1218.32581884,1218.7563809,1218.8258465,nan,nan
0,184,2538,6,1,201,141,1.0,-0.0135712615467,0.48142235136,1,1.0,1.0,0.478416731581,0,0.0,0.0,0.449233916278,0.404551800279,0.0662784826841,0.470830282963,0.338273317595,nan,nan,0.0,0.0,0.0,nan,nan,1003.34482141,1219.32594885,1219.80436558,1219.82598676,nan,nan
0,185,2539,6,1,505,355,0.789537956352,0.240683140511,-1.0,1,1.0,1.0,0.397934985347,0,0.0,0.0,0.43563792482,0.404953240123,0.0663208438116,0.471274083935,0.338632396312,nan,nan,0.0,0.0,0.0,nan,nan,1003.34482141,1220.33441623,1220.73235121,1220.83444132,nan,nan
0,186,2540,6,1,149,104,1.0,-0.269478519393,0.0541436597792,1,1.0,1.0,0.429777755402,0,0.0,0.0,0.435376490777,0.404915303611,0.0661433572177,0.471058660829,0.338771946393,nan,nan,0.0,0.0,0.0,nan,nan,1003.34482141,1221.33454053,1221.76431828,1221.83456505,nan,nan
0,187,2541,6,1,269,189,0.34171296506,0.305888347675,0.643262349404,1,1.0,1.0,0.389633530751,0,0.0,0.0,0.4057820905,0.405048972707,0.0659903627459,0.471039335453,0.339058609961,nan,nan,0.0,0.0,0.0,nan,nan,1003.34482141,1222.33466455,1222.72429808,1222.83470874,nan,nan
0,188,2542,6,1,93,65,1.0,-0.245614297951,-0.538619881923,1,1.0,1.0,0.41349586565,0,0.0,0.0,0.410969050601,0.404966537188,0.0658232834512,0.470789820639,0.339143253737,nan,nan,0.0,0.0,0.0,nan,nan,1003.34482141,1223.33479569,1223.74829156,1223.83483247,nan,nan
0,189,2543,6,0,217,152,0.891250405156,0.0735373331823,0.568048345461,0,0.0,1.0,0.493290812708,0,0.0,0.0,0.432140069703,0.405011905957,0.0656509196417,0.470662825598,0.339360986315,nan,nan,0.0,0.0,0.0,nan,nan,1003.34482141,1224.33496903,1224.82825984,1224.84331838,nan,nan
0,190,2544,6,1,384,270,-0.0924750057551,0.477945316949,-0.222479273925,1,1.0,1.0,0.357157560065,0,0.0,0.0,0.421314746141,0.405478990119,0.0657894695205,0.47126845964,0.339689520599,nan,nan,0.0,0.0,0.0,nan,nan,1003.34482141,1225.3350691,1225.69222666,1225.83512498,nan,nan
0,191,2546,6,1,168,118,1.0,-0.190790017254,0.230361799274,1,1.0,1.0,0.508710283786,0,0.0,0.0,0.45305288552,0.405224666803,0.0657091972252,0.470933864029,0.339515469578,nan,nan,0.0,0.0,0.0,nan,nan,1003.34482141,1226.34353306,1226.85224334,1226.84359977,nan,nan
0,192,2547,6,1,428,300,0.170378320166,0.443486568519,-0.86866140055,1,1.0,1.0,0.468228789046,0,0.0,0.0,0.444698877633,0.405766476316,0.0659611156845,0.471727592001,0.339805360632,nan,nan,0.0,0.0,0.0,nan,nan,1003.34482141,1227.35198932,1227.82021811,1227.85201127,nan,nan
0,193,2548,6,0,253,177,0.513865899396,0.244839928328,0.655977188727,0,0.0,1.0,0.428045790642,0,0.0,0.0,0.468328287825,0.406091800862,0.0659425711879,0.47203437205,0.340149229674,nan,nan,0.0,0.0,0.0,nan,nan,1003.34482141,1228.352139,1228.78018479,1228.85217207,nan,nan
0,194,2549,6,1,162,113,1.0,-0.218739557155,0.176632971453,1,1.0,1.0,0.387902991846,0,0.0,0.0,0.428059190512,0.406205552104,0.0657903971838,0.471995949288,0.34041515492,nan,nan,0.0,0.0,0.0,nan,nan,1003.34482141,1229.35225845,1229.74016144,1229.85227014,nan,nan
0,195,2550,6,1,413,290,0.0683106243366,0.461143133648,-0.585495598612,1,1.0,1.0,0.243761650287,0,0.0,0.0,0.353236810925,0.40611120901,0.0656337029489,0.471744911959,0.340477506061,nan,nan,0.0,0.0,0.0,nan,nan,1003.34482141,1230.35239302,1230.59615467,1230.85240471,nan,nan
0,196,2551,6,1,230,161,0.760023132926,0.140224214653,0.61781109556,1,1.0,1.0,0.307305496186,0,1.0,0.0,0.312990046106,0.40527864717,0.0664843188742,0.471762966045,0.338794328296,nan,nan,0.0,0.0,0.0,nan,nan,1003.34482141,1231.36083987,1231.66814537,1231.86086639,nan,nan
0,197,2552,6,0,503,353,0.773020196022,0.248538461814,-1.0,0,1.0,0.0,0.500218668953,0,0.0,0.0,0.350428605142,0.404778784155,0.0666808524788,0.471459636634,0.338097931676,nan,nan,0.0,0.0,0.0,nan,nan,1003.34482141,1232.3609847,1232.86120337,1232.86104229,nan,nan
0,198,2553,6,1,366,257,-0.155593376329,0.477302029306,-0.0244766492797,1,1.0,1.0,0.378986012191,0,0.0,0.0,0.395503392443,0.405263250575,0.0668563277857,0.472119578361,0.33840692279,nan,nan,0.0,0.0,0.0,nan,nan,1003.34482141,1233.36109247,1233.74007848,1233.86112012,nan,nan
0,199,2554,6,1,33,23,1.0,0.0565990290419,-1.0,1,1.0,1.0,0.370846207254,0,0.0,0.0,0.416683629466,0.40513053725,0.0667132948004,0.471843832051,0.33841724245,nan,nan,0.0,0.0,0.0,nan,nan,1003.34482141,1234.36121107,1234.73205728,1234.86125811,nan,nan
0,200,2555,6,1,198,139,1.0,-0.0302354974571,0.462326941081,1,1.0,1.0,0.378681529313,0,0.0,0.0,0.376171249586,0.404958254185,0.0665896049463,0.471547859131,0.338368649239,nan,nan,0.0,0.0,0.0,nan,nan,1003.34482141,1235.36135419,1235.74003572,1235.86141007,nan,nan
0,201,2556,6,1,18,12,0.988682696815,0.131162580546,-1.0,1,1.0,1.0,0.458503845148,0,0.0,0.0,0.402677193905,0.404826870561,0.0664487748507,0.471275645411,0.33837809571,nan,nan,0.0,0.0,0.0,nan,nan,1003.34482141,1236.36150985,1236.8200137,1236.86151185,nan,nan
0,202,2557,6,1,481,338,0.589289488337,0.325611856148,-1.0,1,1.0,1.0,0.362399923615,0,0.0,0.0,0.399861766025,0.405093920185,0.0663907781096,0.471484698295,0.338703142076,nan,nan,0.0,0.0,0.0,nan,nan,1003.34482141,1237.36160365,1237.72400357,1237.86166608,nan,nan
0,203,2558,6,1,435,305,0.221263830514,0.433027056876,-1.0,1,1.0,1.0,0.354232749902,0,0.0,0.0,0.391712172888,0.404882563767,0.0662939961407,0.471176559907,0.338588567626,nan,nan,0.0,0.0,0.0,nan,nan,1003.34482141,1238.36175332,1238.71598607,1238.8617901,nan,nan
0,204,2559,6,1,282,198,0.208142307666,0.34807905204,0.609295500931,1,1.0,1.0,0.362082895823,0,0.0,0.0,0.359571856447,0.404633057295,0.0662255192765,0.470858576571,0.338407538018,nan,nan,0.0,0.0,0.0,nan,nan,1003.34482141,1239.36187278,1239.72395568,1239.86190157,nan,nan
0,205,2600,6,1,507,356,0.805995650865,0.232688349973,-1.0,1,1.0,1.0,0.337916648015,0,0.0,0.0,0.35141076458,0.404424478072,0.0661298106986,0.47055428877,0.338294667373,nan,nan,0.0,0.0,0.0,nan,nan,1003.34482141,1240.36203072,1240.69994737,1240.86202901,nan,nan
0,206,2601,6,1,204,143,1.0,0.00303256528985,0.499654420455,1,1.0,1.0,0.345782188699,0,0.0,0.0,0.348593910846,0.404100049632,0.0661308641454,0.470230913778,0.337969185487,nan,nan,0.0,0.0,0.0,nan,nan,1003.34482141,1241.36213051,1241.7079127,1241.86217327,nan,nan
0,207,2602,6,1,395,277,-0.0383984177995,0.474183508328,-0.351427224487,1,1.0,1.0,0.361625030637,0,0.0,0.0,0.348441289117,0.40381695322,0.0660945614808,0.469911514701,0.337722391739,nan,nan,0.0,0.0,0.0,nan,nan,1003.34482141,1242.36226878,1242.72389381,1242.86228532,nan,nan
0,208,2603,6,1,482,338,0.597655625539,0.322480811492,-1.0,1,1.0,1.0,0.441487544216,0,0.0,0.0,0.382964921184,0.403613127507,0.0659995870411,0.469612714548,0.337613540466,nan,nan,0.0,0.0,0.0,nan,nan,1003.34482141,1243.36239992,1243.80388747,1243.86241332,nan,nan
0,209,2604,6,0,245,172,0.600577697281,0.210610106048,0.650172825369,0,0.0,1.0,0.417325003073,0,0.0,0.0,0.406812525975,0.403795216049,0.0658928432005,0.469688059249,0.337902372848,nan,nan,0.0,0.0,0.0,nan,nan,1003.34482141,1244.36253734,1244.77986234,1244.86257355,nan,nan
0,210,2605,6,1,411,288,0.0555201669072,0.463022710015,-0.557054760163,1,1.0,1.0,0.289203546941,0,0.0,0.0,0.38267203141,0.403859951872,0.0657416456593,0.469601597531,0.338118306213,nan,nan,0.0,0.0,0.0,nan,nan,1003.34482141,1245.3626414,1245.65184495,1245.86267675,nan,nan
0,211,2606,6,1,289,203,0.140592130943,0.368073254824,0.582505265782,1,1.0,1.0,0.225063562393,0,0.0,0.0,0.310530704136,0.403313968991,0.0660581980537,0.469372167045,0.337255770938,nan,nan,0.0,0.0,0.0,nan,nan,1003.34482141,1246.36277198,1246.58783554,1246.8628059,nan,nan
0,212,2607,6,1,230,161,0.760023132926,0.140224214653,0.61781109556,1,1.0,1.0,0.21657137759,0,1.0,0.0,0.243612828975,0.402469180335,0.0670289102532,0.469498090588,0.335440270081,nan,nan,0.0,0.0,0.0,nan,nan,1003.34482141,1247.3712596,1247.58783098,1247.87127157,nan,nan
0,213,2611,6,1,296,208,0.0772713571413,0.386205321608,0.550001308524,1,1.0,1.0,0.239829591475,1,0.0,0.0,0.22715484382,0.401592303907,0.0680729204089,0.469665224315,0.333519383498,-142.477330307,331.0,-0.143297839787,0.450801753776,0.311166711333,24.3523303067,1.29213662539,1003.34482141,1248.37995819,1248.61978779,1248.8797324,1250.20490948,1251.50506931
0,214,2612,6,1,511,359,0.838703193994,0.216284169582,-1.0,1,1.0,1.0,0.506070856005,0,0.0,0.0,0.32082394169,0.400832854552,0.0688072729622,0.469640127515,0.33202558159,nan,nan,0.0,0.0,0.0,nan,nan,1003.34482141,1252.71359611,1253.21966696,1253.21368363,nan,nan
0,215,2613,6,1,153,107,1.0,-0.255547855702,0.0926213922694,1,1.0,1.0,0.433923351578,0,0.0,0.0,0.393274599686,0.401324620914,0.0690204892206,0.470345110135,0.332304131694,nan,nan,0.0,0.0,0.0,nan,nan,1003.34482141,1253.71372411,1254.14764747,1254.21375319,nan,nan
0,216,2614,6,0,105,73,1.0,-0.285049837405,-0.401580786678,0,1.0,0.0,0.321750791743,0,0.0,0.0,0.420581666442,0.401476242917,0.0688955026736,0.470371745591,0.332580740244,nan,nan,0.0,0.0,0.0,nan,nan,1003.34482141,1254.71388348,1255.03563428,1255.21391941,nan,nan
0,217,2615,6,1,168,118,1.0,-0.190790017254,0.230361799274,1,1.0,1.0,0.257615083829,0,0.0,0.0,0.337763075717,0.401107143606,0.0689485729251,0.470055716531,0.332158570681,nan,nan,0.0,0.0,0.0,nan,nan,1003.34482141,1255.71399752,1255.97161261,1256.21401719,nan,nan
0,218,2616,6,1,19,13,0.99625917486,0.126374530333,-1.0,1,1.0,1.0,0.385479097255,0,0.0,0.0,0.321614990942,0.400445889875,0.0694726256329,0.469918515508,0.330973264242,nan,nan,0.0,0.0,0.0,nan,nan,1003.34482141,1256.71411698,1257.09959607,1257.21414435,nan,nan
0,219,2617,6,1,240,168,0.654373017221,0.188015059697,0.642463954019,1,1.0,1.0,0.393280206248,0,0.0,0.0,0.34545812911,0.400377234863,0.069320479549,0.469697714412,0.331056755314,nan,nan,0.0,0.0,0.0,nan,nan,1003.34482141,1257.71428404,1258.10756425,1258.21428034,nan,nan
0,220,2618,6,1,394,277,-0.0437090198531,0.474655926729,-0.339401417396,1,1.0,1.0,0.400846110657,0,0.0,0.0,0.39320180472,0.400344828339,0.0691636876093,0.469508515949,0.33118114073,nan,nan,0.0,0.0,0.0,nan,nan,1003.34482141,1258.7226964,1259.12354251,1259.22275884,nan,nan
0,221,2619,6,1,454,319,0.367627362238,0.397084843583,-1.0,1,1.0,1.0,0.392654133961,0,0.0,0.0,0.395593483622,0.400347106895,0.0690063266163,0.469353433512,0.331340780279,nan,nan,0.0,0.0,0.0,nan,nan,1003.34482141,1259.72286261,1260.11551675,1260.22289198,nan,nan
0,222,2620,6,1,139,97,1.0,-0.296335611021,-0.0445992895203,1,1.0,1.0,0.40825179033,0,0.0,0.0,0.400584011649,0.400312297063,0.0688519626103,0.469164259673,0.331460334453,nan,nan,0.0,0.0,0.0,nan,nan,1003.34482141,1260.7312898,1261.13954159,1261.23132857,nan,nan
0,223,2621,6,1,311,218,-0.0397249783266,0.419020224334,0.462250212202,1,1.0,1.0,0.374055259861,0,0.0,0.0,0.39165372805,0.400348060546,0.0686987729059,0.469046833452,0.33164928764,nan,nan,0.0,0.0,0.0,nan,nan,1003.34482141,1261.78146887,1262.15552413,1262.28146601,nan,nan
0,224,2622,6,1,463,325,0.440238315199,0.376011795327,-1.0,1,1.0,1.0,0.389930601232,0,0.0,0.0,0.390745883808,0.40023015561,0.0685670750075,0.468797230618,0.331663080603,nan,nan,0.0,0.0,0.0,nan,nan,1003.34482141,1262.78157179,1263.17150239,1263.28160286,nan,nan
0,225,2623,6,1,319,224,-0.0891891826932,0.433308674125,0.406137099325,1,1.0,1.0,0.365417391062,0,0.0,0.0,0.376467750718,0.400184175457,0.0684172978692,0.468601473326,0.331766877588,nan,nan,0.0,0.0,0.0,nan,nan,1003.34482141,1263.79002976,1264.15544715,1264.29006768,nan,nan
0,226,2624,6,1,29,20,1.0,0.0770173926463,-1.0,1,1.0,1.0,0.365257736295,0,0.0,0.0,0.373535242863,0.400029656415,0.068304251576,0.468333907991,0.331725404839,nan,nan,0.0,0.0,0.0,nan,nan,1003.34482141,1264.79016432,1265.15542206,1265.29024786,nan,nan
0,227,2625,6,1,164,115,1.0,-0.209685835145,0.194761549991,1,1.0,1.0,0.341136248782,0,0.0,0.0,0.357270458713,0.399875798362,0.0681920330756,0.468067831437,0.331683765286,nan,nan,0.0,0.0,0.0,nan,nan,1003.34482141,1265.79028064,1266.13141689,1266.2903274,nan,nan
0,228,2626,6,1,354,248,-0.174470673547,0.472100788149,0.0988677247603,1,1.0,1.0,0.308975880034,0,0.0,0.0,0.338456621704,0.399617033826,0.0681527759596,0.467769809786,0.331464257866,nan,nan,0.0,0.0,0.0,nan,nan,1003.34482141,1266.79043631,1267.09941219,1267.29044771,nan,nan
0,229,2627,6,1,406,285,0.0244967455079,0.467245700284,-0.489366101921,1,1.0,1.0,0.308842170052,0,1.0,0.0,0.319651432956,0.399219484906,0.0682664279498,0.467485912856,0.330953056956,nan,nan,0.0,0.0,0.0,nan,nan,1003.34482141,1267.79055206,1268.09939423,1268.29057914,nan,nan
0,230,2632,6,1,348,244,-0.175384772129,0.468017843042,0.157582163916,1,1.0,1.0,0.26864577271,1,0.0,0.0,0.295487940932,0.398824824142,0.0683773875659,0.467202211708,0.330447436576,-158.061519532,353.0,-0.175041255135,0.471490071959,0.108799216003,3.37401953229,1.80054527614,1003.34482141,1268.79071086,1269.05935663,1269.29070772,1270.61587654,1272.42445442
0,231,2633,6,1,226,158,0.801265930663,0.120208988367,0.60458276857,1,1.0,1.0,0.378261296079,0,0.0,0.0,0.318583079614,0.398258828266,0.0687640855917,0.467022913858,0.329494742675,nan,nan,0.0,0.0,0.0,nan,nan,1003.34482141,1273.63298778,1274.01124907,1274.13302541,nan,nan
0,232,2634,6,1,471,331,0.506014005179,0.354993781952,-1.0,1,1.0,1.0,0.354117570445,0,0.0,0.0,0.333674879745,0.398172258863,0.068627643503,0.466799902366,0.32954461536,nan,nan,0.0,0.0,0.0,nan,nan,1003.34482141,1274.63311778,1274.98723535,1275.13315199,nan,nan
0,233,2635,6,0,256,180,0.481312611765,0.257047908656,0.656065722404,0,0.0,1.0,0.489953181706,0,0.0,0.0,0.407444016077,0.397982367965,0.0685403699811,0.466522737946,0.329441997984,nan,nan,0.0,0.0,0.0,nan,nan,1003.34482141,1275.63325406,1276.12320724,1276.14162394,nan,nan
0,234,2636,6,1,430,302,0.184725017221,0.440645728776,-0.941904167281,1,1.0,1.0,0.297805208713,0,0.0,0.0,0.380625320288,0.398377092487,0.0686568823161,0.467033974803,0.329720210171,nan,nan,0.0,0.0,0.0,nan,nan,1003.34482141,1276.63337209,1276.9311773,1277.13339518,nan,nan
0,235,2637,6,1,25,17,1.0,0.0970682892709,-1.0,1,1.0,1.0,0.337671464309,0,0.0,0.0,0.375143284909,0.397947298112,0.0688234239964,0.466770722109,0.329123874116,nan,nan,0.0,0.0,0.0,nan,nan,1003.34482141,1277.63350238,1277.97117384,1278.13352148,nan,nan
0,236,2638,6,1,294,206,0.0948761993654,0.381212130724,0.559858230992,1,1.0,1.0,0.345509636216,0,1.0,0.0,0.326995436413,0.397690805202,0.0687888232948,0.466479628497,0.328901981908,nan,nan,0.0,0.0,0.0,nan,nan,1003.34482141,1278.63363865,1278.97914829,1279.13365262,nan,nan
0,237,2642,6,1,129,90,1.0,-0.310070485259,-0.146368003411,1,1.0,1.0,0.401401479729,1,0.0,0.0,0.361527526751,0.397469698554,0.0687265632228,0.466196261777,0.328743135331,-14.7827260426,149.0,1.0,-0.269478519393,0.0541436597792,14.0796010426,1.64216191322,1003.34482141,1279.63373815,1280.03513963,1280.13377693,1281.45895401,1283.10917191
0,238,2643,6,1,55,38,1.0,-0.0599996532909,-1.0,1,1.0,1.0,0.613314942457,0,0.0,0.0,0.453408686134,0.397486288348,0.0685818907432,0.466068179091,0.328904397605,nan,nan,0.0,0.0,0.0,nan,nan,1003.34482141,1284.31769871,1284.93101365,1284.81780647,nan,nan
0,239,2644,6,0,432,303,0.199227897075,0.437687328843,-1.0,0,0.0,1.0,0.437147228047,0,0.0,0.0,0.483954550078,0.398393131433,0.069847072901,0.468240204334,0.328546058531,nan,nan,0.0,0.0,0.0,nan,nan,1003.34482141,1285.31785095,1285.75499818,1285.81793106,nan,nan
0,240,2645,6,1,22,15,1.0,0.111842423158,-1.0,1,1.0,1.0,0.30902064126,0,0.0,0.0,0.453160937255,0.398555282464,0.0697456716038,0.468300954068,0.328809610861,nan,nan,0.0,0.0,0.0,nan,nan,1003.34482141,1286.31796014,1286.62698078,1286.81797896,nan,nan
0,241,2646,6,1,478,336,0.56422249903,0.334793662244,-1.0,1,1.0,1.0,0.300868006423,0,0.0,0.0,0.349011958577,0.398182221459,0.0698387631494,0.468020984609,0.32834345831,nan,nan,0.0,0.0,0.0,nan,nan,1003.34482141,1287.31808473,1287.61895274,1287.81810782,nan,nan
0,242,2647,6,1,369,259,-0.147694689129,0.477999187239,-0.0564338676883,1,1.0,1.0,0.292750153691,0,1.0,0.0,0.300879600458,0.397778428036,0.069973896816,0.467752324852,0.32780453122,nan,nan,0.0,0.0,0.0,nan,nan,1003.34482141,1288.31821445,1288.6109646,1288.81823298,nan,nan
0,243,2652,6,0,257,180,0.470472903111,0.261039853404,0.655841377839,0,0.0,1.0,0.412572721019,1,0.0,0.0,0.335396960378,0.397344426902,0.070153456316,0.467497883218,0.327190970586,-96.8953094143,266.0,0.373577590308,0.295207490188,0.648113769863,6.19218441433,1.94219743647,1003.34482141,1289.31835187,1289.73092459,1289.8183895,1291.14354777,1293.09378808
0,244,2653,6,1,46,32,1.0,-0.0117313672748,-1.0,1,1.0,1.0,0.436516308226,0,0.0,0.0,0.380613060979,0.397407094779,0.0700157461838,0.467422840963,0.327391348596,nan,nan,0.0,0.0,0.0,nan,nan,1003.34482141,1294.30230917,1294.73882548,1294.80233483,nan,nan
0,245,2654,6,1,174,122,1.0,-0.160790688716,0.281981279739,1,1.0,1.0,0.380341079086,0,0.0,0.0,0.40981003611,0.397567378441,0.0699167833058,0.467484161747,0.327650595135,nan,nan,0.0,0.0,0.0,nan,nan,1003.34482141,1295.30244488,1295.68278596,1295.80247025,nan,nan
0,246,2655,6,1,280,196,0.228089347314,0.342018854333,0.61587222022,1,1.0,1.0,0.268222972751,0,0.0,0.0,0.361693453354,0.397497067015,0.0697825936315,0.467279660647,0.327714473384,nan,nan,0.0,0.0,0.0,nan,nan,1003.34482141,1296.30259056,1296.57081354,1296.80260254,nan,nan
0,247,2656,6,0,107,75,1.0,-0.290089771429,-0.379592780214,0,1.0,0.0,0.244075541385,0,0.0,0.0,0.297546531074,0.396971562567,0.0701246972647,0.467096259832,0.326846865302,nan,nan,0.0,0.0,0.0,nan,nan,1003.34482141,1297.30272228,1297.54679782,1297.80275364,nan,nan
0,248,2657,6,1,472,331,0.51429864939,0.352212277195,-1.0,1,1.0,1.0,0.235930889845,0,0.0,0.0,0.249409801327,0.396352550335,0.0706528534409,0.467005403776,0.325699696894,nan,nan,0.0,0.0,0.0,nan,nan,1003.34482141,1298.30282206,1298.53875295,1298.80285371,nan,nan
0,249,2658,6,1,265,186,0.384259149088,0.291568309415,0.649478858709,1,1.0,1.0,0.283764181659,0,0.0,0.0,0.254590204296,0.395705688801,0.0712393819562,0.466945070757,0.324466306845,nan,nan,0.0,0.0,0.0,nan,nan,1003.34482141,1299.30295264,1299.58671682,1299.80298713,nan,nan
0,250,2659,6,1,88,61,1.0,-0.225257592204,-0.599932847766,1,1.0,1.0,0.275616964325,0,1.0,0.0,0.265104011943,0.395256124515,0.071447817406,0.466703941921,0.323808307109,nan,nan,0.0,0.0,0.0,nan,nan,1003.34482141,1300.30308378,1300.57870074,1300.80311486,nan,nan
0,251,2705,6,1,429,301,0.177531820842,0.442080780324,-0.901885199234,1,1.0,1.0,0.371463727206,1,0.0,0.0,0.310281624397,0.394777567875,0.0717035323243,0.466481100199,0.32307403555,168.274887985,401.0,-0.00506340639596,0.470796889516,-0.425203102762,-19.9155129848,2.02561425604,1003.34482141,1301.30320951,1301.67467324,1301.80324001,1303.12844076,1305.1620232
0,252,2706,6,1,338,237,-0.162891363375,0.458928707883,0.250399161362,1,1.0,1.0,0.512015698478,0,0.0,0.0,0.386365463336,0.394684684047,0.0715756225788,0.466260306626,0.323109061468,nan,nan,0.0,0.0,0.0,nan,nan,1003.34482141,1306.37054629,1306.88256198,1306.87060872,nan,nan
0,253,2707,6,1,400,281,-0.0107874812989,0.471427301814,-0.412692688905,1,1.0,1.0,0.351547705941,0,0.0,0.0,0.411675710542,0.395150283311,0.0718133174065,0.466963600717,0.323336965904,nan,nan,0.0,0.0,0.0,nan,nan,1003.34482141,1307.37900768,1307.73055539,1307.87903904,nan,nan
0,254,2708,6,1,116,81,1.0,-0.306446923025,-0.282515442494,1,1.0,1.0,0.343079184182,0,0.0,0.0,0.4022141962,0.394977941108,0.0717234509567,0.466701392065,0.323254490151,nan,nan,0.0,0.0,0.0,nan,nan,1003.34482141,1308.38745482,1308.730534,1308.88749559,nan,nan
0,255,2709,6,1,272,191,0.310166696092,0.316214117232,0.637281430288,1,1.0,1.0,0.318577948026,0,0.0,0.0,0.33773494605,0.394773615293,0.0716558647822,0.466429480075,0.323117750511,nan,nan,0.0,0.0,0.0,nan,nan,1003.34482141,1309.39591393,1309.71449188,1309.89597352,nan,nan
0,256,2710,6,0,413,290,0.0683106243366,0.461143133648,-0.585495598612,0,0.0,1.0,0.414401903749,0,0.0,0.0,0.358686345319,0.394474808755,0.0716736066826,0.466148415437,0.322801202072,nan,nan,0.0,0.0,0.0,nan,nan,1003.34482141,1310.39608642,1310.81048832,1310.8961135,nan,nan
0,257,2711,6,1,5,3,0.88714030954,0.190659852496,-1.0,1,1.0,1.0,0.318255502731,0,0.0,0.0,0.350411784835,0.39455264897,0.07154428101,0.46609692998,0.32300836796,nan,nan,0.0,0.0,0.0,nan,nan,1003.34482141,1311.39618962,1311.71444512,1311.89621557,nan,nan
0,258,2712,6,1,311,218,-0.0397249783266,0.419020224334,0.462250212202,1,1.0,1.0,0.430134125985,0,0.0,0.0,0.387597177488,0.394255772914,0.0715627705992,0.465818543514,0.322693002315,nan,nan,0.0,0.0,0.0,nan,nan,1003.34482141,1312.39631392,1312.82644805,1312.89634528,nan,nan
0,259,2713,6,1,486,341,0.631151757674,0.309603058574,-1.0,1,1.0,1.0,0.453991329297,0,0.0,0.0,0.400793652671,0.394394836298,0.0714587323789,0.465853568677,0.322936103919,nan,nan,0.0,0.0,0.0,nan,nan,1003.34482141,1313.39646075,1313.85045208,1313.89647301,nan,nan
0,260,2714,6,1,238,167,0.675741828754,0.178727669763,0.638511091232,1,1.0,1.0,0.469835881144,0,0.0,0.0,0.451320445475,0.394624938588,0.071416350627,0.466041289215,0.323208587961,nan,nan,0.0,0.0,0.0,nan,nan,1003.34482141,1314.39657536,1314.86641124,1314.89660415,nan,nan
0,261,2715,6,1,65,45,1.0,-0.113312155659,-1.0,1,1.0,1.0,0.365695075132,0,0.0,0.0,0.429840761858,0.394914211444,0.0714307456387,0.466344957083,0.323483465805,nan,nan,0.0,0.0,0.0,nan,nan,1003.34482141,1315.39670764,1315.76240272,1315.89674071,nan,nan
0,262,2716,6,1,111,78,1.0,-0.298677811705,-0.336106236365,1,1.0,1.0,0.405585277826,0,0.0,0.0,0.413705411367,0.39480226073,0.0713166232623,0.466118883992,0.323485637468,nan,nan,0.0,0.0,0.0,nan,nan,1003.34482141,1316.3968385,1316.80242378,1316.8968596,nan,nan
0,263,2717,6,1,292,205,0.112881669716,0.376069582356,0.569261850688,1,1.0,1.0,0.42938517686,0,0.0,0.0,0.400221843272,0.394843417284,0.0711834981289,0.466026915413,0.323659919155,nan,nan,0.0,0.0,0.0,nan,nan,1003.34482141,1317.39696509,1317.82635026,1317.89698846,nan,nan
0,264,2718,6,1,59,41,1.0,-0.0814409933332,-1.0,1,1.0,1.0,0.461215402931,0,0.0,0.0,0.432061952539,0.394974754773,0.0710798373722,0.466054592145,0.3238949174,nan,nan,0.0,0.0,0.0,nan,nan,1003.34482141,1318.39710535,1318.85832076,1318.89711875,nan,nan
0,265,2719,6,0,222,156,0.841778467246,0.0997291618919,0.589484691865,0,0.0,1.0,0.437052575871,0,0.0,0.0,0.442551051887,0.395225666319,0.0710616859056,0.466287352224,0.324163980413,nan,nan,0.0,0.0,0.0,nan,nan,1003.34482141,1319.39725018,1319.83430276,1319.89727841,nan,nan
0,266,2720,6,1,363,255,-0.162287729338,0.476365729747,0.00704812682028,1,1.0,1.0,0.284919395112,0,0.0,0.0,0.394395791305,0.395383503713,0.0709738292001,0.466357332913,0.324409674513,nan,nan,0.0,0.0,0.0,nan,nan,1003.34482141,1320.39736764,1320.68228704,1320.89739102,nan,nan
0,267,2721,6,1,117,82,1.0,-0.307587969795,-0.271886539361,1,1.0,1.0,0.35678465385,0,0.0,0.0,0.359585541611,0.39496822511,0.0711621261366,0.466130351246,0.323806098973,nan,nan,0.0,0.0,0.0,nan,nan,1003.34482141,1321.39747883,1321.75426348,1321.89752017,nan,nan
0,268,2722,6,1,457,321,0.391639248186,0.390358177281,-1.0,1,1.0,1.0,0.364597166888,0,0.0,0.0,0.335433738617,0.394825215479,0.0710670239301,0.465892239409,0.323758191549,nan,nan,0.0,0.0,0.0,nan,nan,1003.34482141,1322.39764618,1322.76224335,1322.89763877,nan,nan
0,269,2723,6,1,62,43,1.0,-0.0974372467467,-1.0,1,1.0,1.0,0.364468872547,0,0.0,0.0,0.361950231095,0.394712424253,0.0709582510788,0.465670675332,0.323754173174,nan,nan,0.0,0.0,0.0,nan,nan,1003.34482141,1323.39775595,1323.76222482,1323.89777248,nan,nan
0,270,2724,6,1,199,139,1.0,-0.0246761787097,0.468786302982,1,1.0,1.0,0.372325576842,0,0.0,0.0,0.367130538759,0.394599994693,0.0708501466477,0.465450141341,0.323749848045,nan,nan,0.0,0.0,0.0,nan,nan,1003.34482141,1324.39788509,1324.77021067,1324.89789621,nan,nan
0,271,2725,6,1,308,216,-0.0186828559465,0.413097475488,0.481682330771,1,1.0,1.0,0.356171409599,0,0.0,0.0,0.364321952996,0.394517496849,0.0707317638955,0.465249260745,0.323785732954,nan,nan,0.0,0.0,0.0,nan,nan,1003.34482141,1325.3980054,1325.75417681,1325.89803819,nan,nan
0,272,2726,6,1,84,59,1.0,-0.20765784414,-0.652191087791,1,1.0,1.0,0.420039126649,0,0.0,0.0,0.38284537103,0.394375998372,0.0706394162288,0.465015414601,0.323736582143,nan,nan,0.0,0.0,0.0,nan,nan,1003.34482141,1326.398128,1326.81816712,1326.89816249,nan,nan
0,273,2727,6,1,13,9,0.950262168777,0.154664060346,-1.0,1,1.0,1.0,0.403882393613,0,0.0,0.0,0.393364309954,0.394470348108,0.0705265496983,0.464996897807,0.32394379841,nan,nan,0.0,0.0,0.0,nan,nan,1003.34482141,1327.39826285,1327.80214524,1327.8982868,nan,nan
0,274,2728,6,1,246,172,0.589768841079,0.215019897151,0.651339528662,1,1.0,1.0,0.539390998892,0,0.0,0.0,0.454437506385,0.394504824466,0.0703995579372,0.464904382403,0.324105266528,nan,nan,0.0,0.0,0.0,nan,nan,1003.34482141,1328.40670942,1328.94610041,1328.90680378,nan,nan
0,275,2729,6,1,433,304,0.206536295144,0.436163724167,-1.0,1,1.0,1.0,0.331216583028,0,0.0,0.0,0.424829991845,0.395033606124,0.0708120282953,0.465845634419,0.324221577829,nan,nan,0.0,0.0,0.0,nan,nan,1003.34482141,1329.40686223,1329.73807881,1329.90690243,nan,nan
0,276,2730,6,1,244,171,0.611372359265,0.206163547436,0.648880721676,1,1.0,1.0,0.299073034897,0,0.0,0.0,0.389893538939,0.394801544222,0.0707874637384,0.46558900796,0.324014080484,nan,nan,0.0,0.0,0.0,nan,nan,1003.34482141,1330.40699337,1330.70606641,1330.90701789,nan,nan
0,277,2731,6,1,347,243,-0.174938837379,0.46723881498,0.167157479366,1,1.0,1.0,0.29896070715,0,1.0,0.0,0.309750108359,0.394454701797,0.0708928213793,0.465347523176,0.323561880418,nan,nan,0.0,0.0,0.0,nan,nan,1003.34482141,1331.40712566,1331.70608637,1331.90714533,nan,nan
0,278,2736,6,1,81,56,1.0,-0.193804253699,-0.694219169772,1,1.0,1.0,0.394799203612,1,0.0,0.0,0.33094431522,0.394109958134,0.0709961306731,0.465106088807,0.323113827461,41.7191192274,69.0,1.0,-0.134207199312,-0.939648005704,-8.67224422739,1.93388172705,1003.34482141,1332.40725908,1332.80205829,1332.90726935,1334.23243674,1336.17436048
0,279,2737,6,1,455,319,0.375608248681,0.394875365091,-1.0,1,1.0,1.0,0.411076246761,0,0.0,0.0,0.368278719174,0.394112437434,0.0708683367668,0.464980774201,0.323244100667,nan,nan,0.0,0.0,0.0,nan,nan,1003.34482141,1337.38286903,1337.79394528,1337.88291665,nan,nan
0,280,2738,6,1,84,59,1.0,-0.20765784414,-0.652191087791,1,1.0,1.0,0.298879739828,0,0.0,0.0,0.368251730067,0.394173239618,0.0707484822788,0.464921721897,0.323424757339,nan,nan,0.0,0.0,0.0,nan,nan,1003.34482141,1338.38302584,1338.68190558,1338.88305093,nan,nan
0,281,2739,6,1,292,205,0.112881669716,0.376069582356,0.569261850688,1,1.0,1.0,0.210789894685,0,1.0,0.0,0.306915293758,0.39383290569,0.0708504572088,0.464683362899,0.322982448482,nan,nan,0.0,0.0,0.0,nan,nan,1003.34482141,1339.383147,1339.5939369,1339.88316725,nan,nan
0,282,2744,6,1,366,257,-0.155593376329,0.477302029306,-0.0244766492797,1,1.0,1.0,0.234585802071,1,0.0,0.0,0.248085145528,0.393181507075,0.0715592965227,0.464740803597,0.321622210552,-157.094230342,351.0,-0.175686286722,0.4701852659,0.128489978773,-10.2495196584,2.65064868145,1003.34482141,1340.38328185,1340.61786766,1340.88330324,1342.20847491,1344.86715249
0,283,2745,6,1,188,132,1.0,-0.0857393506835,0.392804289229,1,1.0,1.0,0.470074222423,0,0.0,0.0,0.30514997306,0.392619110958,0.0720517287144,0.464670839672,0.320567382243,nan,nan,0.0,0.0,0.0,nan,nan,1003.34482141,1346.07567701,1346.54575123,1346.57570637,nan,nan
0,284,2746,6,1,76,53,1.0,-0.169674511773,-0.773365826749,1,1.0,1.0,0.405594116077,0,0.0,0.0,0.370084713524,0.392892803931,0.0720710154685,0.4649638194,0.320821788462,nan,nan,0.0,0.0,0.0,nan,nan,1003.34482141,1347.08414724,1347.48974135,1347.58420255,nan,nan
0,285,2747,6,1,18,12,0.988682696815,0.131162580546,-1.0,1,1.0,1.0,0.301122883335,0,0.0,0.0,0.392263740612,0.392937526861,0.0719479517686,0.46488547863,0.320989575092,nan,nan,0.0,0.0,0.0,nan,nan,1003.34482141,1348.09261747,1348.39374035,1348.5926323,nan,nan
0,286,2748,6,0,256,180,0.481312611765,0.257047908656,0.656065722404,0,1.0,0.0,0.276924419217,0,0.0,0.0,0.327880472876,0.392615370217,0.0720265193597,0.464641889577,0.320588850857,nan,nan,0.0,0.0,0.0,nan,nan,1003.34482141,1349.09276315,1349.36968757,1349.59279223,nan,nan
0,287,2749,6,1,198,139,1.0,-0.0302354974571,0.462326941081,1,1.0,1.0,0.236842915416,0,0.0,0.0,0.271630072656,0.392210856402,0.0722240626009,0.464434919003,0.319986793802,nan,nan,0.0,0.0,0.0,nan,nan,1003.34482141,1350.09288119,1350.3297241,1350.5928886,nan,nan
0,288,2750,6,1,301,211,0.0351599448551,0.39804275895,0.523414514543,1,1.0,1.0,0.284317269921,0,0.0,0.0,0.266028201518,0.391669504692,0.0726770633914,0.464346568083,0.3189924413,nan,nan,0.0,0.0,0.0,nan,nan,1003.34482141,1351.10131977,1351.38563704,1351.60135113,nan,nan
0,289,2751,6,0,221,155,0.851781464038,0.0945411604707,0.585422935822,0,0.0,1.0,0.427839095704,0,0.0,0.0,0.31633309368,0.391296753877,0.0728250788509,0.464121832727,0.318471675026,nan,nan,0.0,0.0,0.0,nan,nan,1003.34482141,1352.10980996,1352.53764906,1352.60984161,nan,nan
0,290,2752,6,1,384,270,-0.0924750057551,0.477945316949,-0.222479273925,1,1.0,1.0,0.331690128893,0,0.0,0.0,0.347948831506,0.391423197966,0.0727306366045,0.46415383457,0.318692561361,nan,nan,0.0,0.0,0.0,nan,nan,1003.34482141,1353.1099183,1353.44160843,1353.60995023,nan,nan
0,291,2753,6,1,200,140,1.0,-0.0191209939188,0.47515178387,1,1.0,1.0,0.283537529409,0,0.0,0.0,0.347688918002,0.391217221866,0.0726895188981,0.463906740764,0.318527702968,nan,nan,0.0,0.0,0.0,nan,nan,1003.34482141,1354.11004117,1354.3935787,1354.61007453,nan,nan
0,292,2754,6,1,127,89,1.0,-0.31111021432,-0.167036648065,1,1.0,1.0,0.37939940393,0,0.0,0.0,0.331542354077,0.390847188558,0.0728376072761,0.463684795834,0.318009581282,nan,nan,0.0,0.0,0.0,nan,nan,1003.34482141,1355.11017916,1355.48957856,1355.61020282,nan,nan
0,293,2755,6,1,74,52,1.0,-0.159715158178,-0.810443278181,1,1.0,1.0,0.339220397174,0,0.0,0.0,0.334052443504,0.390807983816,0.0727158539123,0.463523837729,0.318092129904,nan,nan,0.0,0.0,0.0,nan,nan,1003.34482141,1356.11031401,1356.44953441,1356.61033397,nan,nan
0,294,2756,6,1,406,285,0.0244967455079,0.467245700284,-0.489366101921,1,1.0,1.0,0.283124138601,0,0.0,0.0,0.333914646568,0.390631916968,0.0726539804398,0.463285897408,0.317977936528,nan,nan,0.0,0.0,0.0,nan,nan,1003.34482141,1357.11042862,1357.39355276,1357.61046426,nan,nan
0,295,2757,6,1,35,24,1.0,0.0462653595507,-1.0,1,1.0,1.0,0.283006109297,0,1.0,0.0,0.301783548358,0.390266244252,0.0727998996821,0.463066143934,0.31746634457,nan,nan,0.0,0.0,0.0,nan,nan,1003.34482141,1358.11057202,1358.39357813,1358.61061621,nan,nan
0,296,2802,6,1,241,169,0.64365311028,0.192605941253,0.644254782112,1,1.0,1.0,0.25877257809,1,0.0,0.0,0.274967608663,0.389902650574,0.0729433121712,0.462845962746,0.316959338403,-60.4534876029,214.0,0.920243657418,0.0575410437433,0.553854850604,-18.9996373971,1.98397811875,1003.34482141,1359.11070174,1359.36947432,1359.61072455,1360.93589594,1362.92781486
0,297,2803,6,1,287,201,0.159501648714,0.36255249221,0.590751920292,1,1.0,1.0,0.505025974475,0,0.0,0.0,0.348934887288,0.389459643573,0.0732164370015,0.462676080574,0.316243206571,nan,nan,0.0,0.0,0.0,nan,nan,1003.34482141,1364.1363599,1364.64138588,1364.63642091,nan,nan
0,298,2804,6,1,80,56,1.0,-0.189075709245,-0.708965549488,1,1.0,1.0,0.336913106032,0,0.0,0.0,0.366903886199,0.389848755798,0.0733990067762,0.463247762574,0.316449749022,nan,nan,0.0,0.0,0.0,nan,nan,1003.34482141,1365.13647908,1365.47339218,1365.63650844,nan,nan
0,299,2805,6,1,306,215,-0.00395437407881,0.408974006242,0.494128827808,1,1.0,1.0,0.224799562246,0,0.0,0.0,0.355579547584,0.389671119389,0.0733396711789,0.463010790568,0.31633144821,nan,nan,0.0,0.0,0.0,nan,nan,1003.34482141,1366.13660224,1366.3614018,1366.63663844,nan,nan
0,300,2806,6,1,482,338,0.597655625539,0.322480811492,-1.0,1,1.0,1.0,0.256593581289,0,1.0,0.0,0.272768749855,0.389119709499,0.0738330964752,0.462952805974,0.315286613024,nan,nan,0.0,0.0,0.0,nan,nan,1003.34482141,1367.13673965,1367.39333323,1367.63678413,nan,nan
0,301,2811,6,1,433,304,0.206536295144,0.436163724167,-1.0,1,1.0,1.0,0.256437632255,1,0.0,0.0,0.24594359193,0.388677955739,0.0741046814793,0.462782637218,0.314573274259,139.398705355,442.0,0.273907262724,0.421095538958,-1.0,6.148169645,1.9089613976,1003.34482141,1368.13688962,1368.39332725,1368.63690216,1369.96206471,1371.87897461
0,302,2812,6,1,242,170,0.632911854383,0.197161183215,0.645921401967,1,1.0,1.0,0.481685653329,0,0.0,0.0,0.331572288958,0.388238619116,0.07437179989,0.462610419006,0.313866819226,nan,nan,0.0,0.0,0.0,nan,nan,1003.34482141,1373.08751195,1373.56919761,1373.58755529,nan,nan
0,303,2813,6,1,378,265,-0.117450136118,0.478670924818,-0.154810124165,1,1.0,1.0,0.368686598726,0,0.0,0.0,0.368936628103,0.388548046381,0.0744423859054,0.462990432287,0.314105660476,nan,nan,0.0,0.0,0.0,nan,nan,1003.34482141,1374.12050423,1374.48919083,1374.62102254,nan,nan
0,304,2814,6,1,485,341,0.622774561467,0.312875618285,-1.0,1,1.0,1.0,0.32804373838,0,0.0,0.0,0.392805330145,0.388482497049,0.0743281715849,0.462810668634,0.314154325464,nan,nan,0.0,0.0,0.0,nan,nan,1003.34482141,1375.12110579,1375.44914953,1375.621142,nan,nan
0,305,2815,6,1,119,83,1.0,-0.309446327048,-0.250710895617,1,1.0,1.0,0.247563133948,0,0.0,0.0,0.314764490351,0.388283685343,0.0742864739902,0.462570159333,0.313997211353,nan,nan,0.0,0.0,0.0,nan,nan,1003.34482141,1376.1295572,1376.37712034,1376.62958885,nan,nan
0,306,2816,6,1,481,338,0.589289488337,0.325611856148,-1.0,1,1.0,1.0,0.25545262266,0,1.0,0.0,0.277019831662,0.387822306486,0.0745995942136,0.4624219007,0.313222712272,nan,nan,0.0,0.0,0.0,nan,nan,1003.34482141,1377.12970004,1377.38515266,1377.62971857,nan,nan
0,307,2821,6,1,66,46,1.0,-0.118568705386,-1.0,1,1.0,1.0,0.239303872921,1,0.0,0.0,0.247439876509,0.38738972582,0.0748597775663,0.462249503386,0.312529948254,63.877378481,37.0,1.0,0.0358565504353,-1.0,-20.283628481,1.85052363761,1003.34482141,1378.12982919,1378.36913306,1378.62986682,1379.95504277,1381.81359588
0,308,2822,6,0,379,266,-0.113535935895,0.478614986251,-0.165970515924,0,0.0,1.0,0.514855834655,0,0.0,0.0,0.336537443412,0.386907361478,0.075212571621,0.462119933099,0.311694789857,nan,nan,0.0,0.0,0.0,nan,nan,1003.34482141,1383.02214035,1383.53699618,1383.52219566,nan,nan
0,309,2823,6,1,173,121,1.0,-0.165909522591,0.273535192888,1,1.0,1.0,0.306771510281,0,0.0,0.0,0.353643739286,0.387322778599,0.075442320258,0.462765098857,0.311880458341,nan,nan,0.0,0.0,0.0,nan,nan,1003.34482141,1384.02226408,1384.32903559,1384.52227434,nan,nan
0,310,2824,6,1,277,194,0.258470646878,0.33263615818,0.624824240443,1,1.0,1.0,0.314274122939,0,0.0,0.0,0.378633822625,0.387062094883,0.0754589616855,0.462521056568,0.311603133197,nan,nan,0.0,0.0,0.0,nan,nan,1003.34482141,1385.03071578,1385.34498991,1385.53074315,nan,nan
0,311,2825,6,1,216,151,0.900975005756,0.0682271079607,0.563426584804,1,1.0,1.0,0.36175931152,0,0.0,0.0,0.327601648246,0.386827294973,0.0754501322587,0.462277427232,0.311377162714,nan,nan,0.0,0.0,0.0,nan,nan,1003.34482141,1386.03918145,1386.40094076,1386.53921652,nan,nan
0,312,2826,6,1,72,50,1.0,-0.149607777062,-0.853203742106,1,1.0,1.0,0.337310532108,0,0.0,0.0,0.337781322189,0.386746690525,0.0753420996385,0.462088790163,0.311404590886,nan,nan,0.0,0.0,0.0,nan,nan,1003.34482141,1387.04761719,1387.38492772,1387.54767877,nan,nan
0,313,2827,6,1,1,0,0.854939129564,0.207877072944,-1.0,1,1.0,1.0,0.385144107975,0,0.0,0.0,0.361404650534,0.386588241299,0.0752731446173,0.461861385916,0.311315096682,nan,nan,0.0,0.0,0.0,nan,nan,1003.34482141,1388.0477586,1388.4329027,1388.54781875,nan,nan
0,314,2828,6,1,398,279,-0.0220377755791,0.472608796233,-0.387943383198,1,1.0,1.0,0.360958758742,0,0.0,0.0,0.361137799608,0.386583627455,0.0751528479696,0.461736475424,0.311430779485,nan,nan,0.0,0.0,0.0,nan,nan,1003.34482141,1389.04791084,1389.4088696,1389.54793193,nan,nan
0,315,2829,6,1,245,172,0.600577697281,0.210610106048,0.650172825369,1,1.0,1.0,0.311144898646,0,0.0,0.0,0.352415921787,0.386502019592,0.0750469718587,0.461548991451,0.311455047734,nan,nan,0.0,0.0,0.0,nan,nan,1003.34482141,1390.08972031,1390.40086521,1390.58973286,nan,nan
0,316,2830,6,1,430,302,0.184725017221,0.440645728776,-0.941904167281,1,1.0,1.0,0.294991586357,0,0.0,0.0,0.322365081248,0.386262790637,0.0750475771933,0.46131036783,0.311215213444,nan,nan,0.0,0.0,0.0,nan,nan,1003.34482141,1391.08982865,1391.38482024,1391.58985345,nan,nan
0,317,2831,6,1,345,242,-0.173519535469,0.465595146217,0.186119282857,1,1.0,1.0,0.294506921433,0,1.0,0.0,0.300214468812,0.385973957712,0.0751038901977,0.46107784791,0.310870067514,nan,nan,0.0,0.0,0.0,nan,nan,1003.34482141,1392.09828833,1392.39279526,1392.59831827,nan,nan
0,318,2836,6,1,132,92,1.0,-0.307426825298,-0.115555361894,1,1.0,1.0,0.324333771132,1,0.0,0.0,0.304610759641,0.385685418165,0.0751605564908,0.460845974656,0.310524861675,-158.801193806,354.0,-0.174470673547,0.472100788149,0.0988677247603,155.988693806,1.72552770097,1003.34482141,1393.14843633,1393.4727701,1393.64846484,1394.97362396,1396.70718342
0,319,2837,6,1,446,313,0.304696255059,0.41359904426,-1.0,1,1.0,1.0,0.389000045136,0,0.0,0.0,0.335946912567,0.385492488458,0.0751208632202,0.460613351678,0.310371625238,nan,nan,0.0,0.0,0.0,nan,nan,1003.34482141,1397.91571078,1398.30471083,1398.41574386,nan,nan
0,320,2838,6,1,243,170,0.622151010882,0.20168048164,0.647463484622,1,1.0,1.0,0.284869502299,0,0.0,0.0,0.332734439522,0.385503483933,0.0750032827977,0.460506766731,0.310500201136,nan,nan,0.0,0.0,0.0,nan,nan,1003.34482141,1398.91585248,1399.20072198,1399.41587015,nan,nan
0,321,2839,6,1,446,313,0.304696255059,0.41359904426,-1.0,1,1.0,1.0,0.284693597816,0,0.0,0.0,0.319521048417,0.385189002741,0.0750963471997,0.46028534994,0.310092655541,nan,nan,0.0,0.0,0.0,nan,nan,1003.34482141,1399.91597079,1400.20066439,1400.41600529,nan,nan
0,322,2840,6,1,511,359,0.838703193994,0.216284169582,-1.0,1,1.0,1.0,0.244543100707,0,1.0,0.0,0.271368733607,0.384875932943,0.0751881440828,0.460064077026,0.309687788861,nan,nan,0.0,0.0,0.0,nan,nan,1003.34482141,1400.91611819,1401.16066129,1401.41613273,nan,nan
0,323,2845,6,1,264,185,0.394966959701,0.287889713878,0.650717615019,1,1.0,1.0,0.300409000367,1,0.0,0.0,0.276548566297,0.384440116694,0.0754762857102,0.459916402404,0.308963830984,-82.9716037611,246.0,0.589768841079,0.215019897151,0.651339528662,-12.6533962389,2.00053940434,1003.34482141,1401.91623878,1402.21664778,1402.41625789,1403.74142956,1405.75002038
0,324,2846,6,1,88,61,1.0,-0.225257592204,-0.599932847766,1,1.0,1.0,0.417951646261,0,0.0,0.0,0.320967915778,0.384179958439,0.0755038188608,0.4596837773,0.308676139579,nan,nan,0.0,0.0,0.0,nan,nan,1003.34482141,1406.95855887,1407.37651052,1407.4585985,nan,nan
0,325,2847,6,1,472,331,0.51429864939,0.352212277195,-1.0,1,1.0,1.0,0.361781833693,0,0.0,0.0,0.36004749344,0.384284192044,0.075410482021,0.459694674065,0.308873710023,nan,nan,0.0,0.0,0.0,nan,nan,1003.34482141,1407.95870056,1408.3204824,1408.45870284,nan,nan
0,326,2848,6,1,379,266,-0.113535935895,0.478614986251,-0.165970515924,1,1.0,1.0,0.273362701759,0,0.0,0.0,0.351032060571,0.384214954018,0.0753046901568,0.459519644175,0.308910263861,nan,nan,0.0,0.0,0.0,nan,nan,1003.34482141,1408.96713288,1409.24049558,1409.46716794,nan,nan
0,327,2849,6,1,294,206,0.0948761993654,0.381212130724,0.559858230992,1,1.0,1.0,0.280863604508,0,1.0,0.0,0.305336046653,0.383874916434,0.0754385815428,0.459313497977,0.308436334892,nan,nan,0.0,0.0,0.0,nan,nan,1003.34482141,1409.97559769,1410.2564613,1410.47563304,nan,nan
0,328,2854,6,1,37,26,1.0,0.0358565504353,-1.0,1,1.0,1.0,0.296709866263,1,0.0,0.0,0.283645390843,0.383559897132,0.0755375886057,0.459097485738,0.308022308526,75.9022143651,20.0,1.0,0.121558187834,-1.0,-11.9178393651,1.85053931829,1003.34482141,1410.97573083,1411.2724407,1411.47576333,1412.80093386,1414.65951035
0,329,2855,6,0,80,56,1.0,-0.189075709245,-0.708965549488,0,0.0,1.0,0.636261261068,0,0.0,0.0,0.40461157728,0.383295110452,0.0755741873385,0.458869297791,0.307720923114,nan,nan,0.0,0.0,0.0,nan,nan,1003.34482141,1415.86805482,1416.50431608,1416.368105,nan,nan
0,330,2856,6,1,248,174,0.568115903494,0.223728204869,0.653295769881,1,1.0,1.0,0.436158226803,0,0.0,0.0,0.456376451378,0.384064004527,0.0767333741865,0.460797378714,0.307330630341,nan,nan,0.0,0.0,0.0,nan,nan,1003.34482141,1416.86815147,1417.3043097,1417.36822075,nan,nan
0,331,2857,6,1,321,225,-0.0999433513493,0.43654647086,0.391174984052,1,1.0,1.0,0.379992974922,0,0.0,0.0,0.484137487598,0.384221865807,0.0766705093092,0.460892375116,0.307551356498,nan,nan,0.0,0.0,0.0,nan,nan,1003.34482141,1417.86829259,1418.24828557,1418.36833051,nan,nan
0,332,2858,6,1,114,80,1.0,-0.303747463913,-0.303859371662,1,1.0,1.0,0.347849997692,0,0.0,0.0,0.388000399806,0.384209089701,0.0765549570332,0.460764046735,0.307654132668,nan,nan,0.0,0.0,0.0,nan,nan,1003.34482141,1418.86841348,1419.21626347,1419.36846451,nan,nan
0,333,2859,6,0,397,279,-0.0275613476434,0.473159987783,-0.37569455347,0,1.0,0.0,0.339675411582,0,0.0,0.0,0.355839461399,0.384099574364,0.0764655395342,0.460565113898,0.30763403483,nan,nan,0.0,0.0,0.0,nan,nan,1003.34482141,1419.86860078,1420.2082762,1420.36867633,nan,nan
0,334,2900,6,1,42,29,1.0,0.00954878589686,-1.0,1,1.0,1.0,0.243209701963,0,0.0,0.0,0.310245037079,0.38396616847,0.0763893244477,0.460355492918,0.307576844022,nan,nan,0.0,0.0,0.0,nan,nan,1003.34482141,1420.87702283,1421.12023254,1421.37705591,nan,nan
0,335,2901,6,0,256,180,0.481312611765,0.257047908656,0.656065722404,0,0.0,1.0,0.419047559611,0,0.0,0.0,0.333977557719,0.383544741923,0.076661585923,0.460206327846,0.306883156,nan,nan,0.0,0.0,0.0,nan,nan,1003.34482141,1421.87716681,1422.29621437,1422.37720188,nan,nan
0,336,2902,6,1,57,40,1.0,-0.0707313323512,-1.0,1,1.0,1.0,0.378920724615,0,0.0,0.0,0.34705932873,0.383650720484,0.0765715794692,0.460222299953,0.307079141014,nan,nan,0.0,0.0,0.0,nan,nan,1003.34482141,1422.87728085,1423.25620157,1423.37730109,nan,nan
0,337,2903,6,1,329,231,-0.136053278316,0.448203788942,0.3278337444,1,1.0,1.0,0.418773296289,0,0.0,0.0,0.405580526839,0.383636643115,0.0764579829053,0.46009462602,0.30717866021,nan,nan,0.0,0.0,0.0,nan,nan,1003.34482141,1423.87738804,1424.29616134,1424.37743394,nan,nan
0,338,2904,6,1,171,120,1.0,-0.176011872558,0.256450910142,1,1.0,1.0,0.378570911475,0,0.0,0.0,0.392088310793,0.383740906181,0.0763683774747,0.460109283655,0.307372528706,nan,nan,0.0,0.0,0.0,nan,nan,1003.34482141,1424.87755739,1425.2561283,1425.37756623,nan,nan
0,339,2905,6,1,445,312,0.296953900578,0.415520102116,-1.0,1,1.0,1.0,0.530438382179,0,0.0,0.0,0.442594196647,0.383725610338,0.0762558398014,0.45998145014,0.307469770537,nan,nan,0.0,0.0,0.0,nan,nan,1003.34482141,1425.87766687,1426.40810525,1426.37773501,nan,nan
0,340,2906,6,1,207,145,0.985653507947,0.0195431921708,0.51699622314,1,1.0,1.0,0.338302384131,0,0.0,0.0,0.415770559261,0.384158391376,0.0765578673688,0.460716258745,0.307600524008,nan,nan,0.0,0.0,0.0,nan,nan,1003.34482141,1426.87779573,1427.21609812,1427.37782852,nan,nan
0,341,2907,6,1,256,180,0.481312611765,0.257047908656,0.656065722404,1,1.0,1.0,0.314156092703,0,0.0,0.0,0.394298953004,0.384023520767,0.0764855211361,0.460509041903,0.307537999631,nan,nan,0.0,0.0,0.0,nan,nan,1003.34482141,1427.87791861,1428.1920747,1428.37795795,nan,nan
0,342,2908,6,1,402,282,0.000724920831492,0.470139955471,-0.437811562499,1,1.0,1.0,0.258001389913,0,1.0,0.0,0.303486622249,0.383818630948,0.0764666761444,0.460285307093,0.307351954804,nan,nan,0.0,0.0,0.0,nan,nan,1003.34482141,1428.87805204,1429.13605343,1429.37808881,nan,nan
0,343,2913,6,1,106,74,1.0,-0.287630069369,-0.390564445695,1,1.0,1.0,0.353846157901,1,0.0,0.0,0.308667880173,0.383450744279,0.076656420269,0.460107164548,0.30679432401,1.00508600525,127.0,1.0,-0.31111021432,-0.167036648065,14.4636639947,1.94221026637,1003.34482141,1429.87818404,1430.23203019,1430.37822623,1431.70337851,1433.65363507
0,344,2914,6,1,47,33,1.0,-0.0170755915744,-1.0,1,1.0,1.0,0.505754398182,0,0.0,0.0,0.372533981999,0.383364433531,0.0765612350654,0.459925668597,0.306803198466,nan,nan,0.0,0.0,0.0,nan,nan,1003.34482141,1434.86216272,1435.36791712,1435.36222601,nan,nan
0,345,2915,6,1,314,220,-0.0594438881467,0.42463230952,0.441925406839,1,1.0,1.0,0.385619934648,0,0.0,0.0,0.41507349691,0.383720218312,0.0767333110049,0.460453529317,0.306986907307,nan,nan,0.0,0.0,0.0,nan,nan,1003.34482141,1435.86227363,1436.24789356,1436.36232409,nan,nan
0,346,2916,6,1,444,312,0.289241202529,0.417409780569,-1.0,1,1.0,1.0,0.273486719467,0,0.0,0.0,0.388287017432,0.383725724736,0.0766220906689,0.460347815405,0.307103634067,nan,nan,0.0,0.0,0.0,nan,nan,1003.34482141,1436.86241703,1437.13590375,1437.36244326,nan,nan
0,347,2917,6,1,79,55,1.0,-0.184296021705,-0.724170777997,1,1.0,1.0,0.22531815432,0,0.0,0.0,0.294808269478,0.383407114895,0.0767398100714,0.460146924966,0.306667304823,nan,nan,0.0,0.0,0.0,nan,nan,1003.34482141,1437.8625496,1438.08786775,1438.36259522,nan,nan
0,348,2918,6,1,166,116,1.0,-0.20036215083,0.21267421211,1,1.0,1.0,0.257180025801,0,0.0,0.0,0.251994966529,0.382951527112,0.0770963235925,0.460047850704,0.305855203519,nan,nan,0.0,0.0,0.0,nan,nan,1003.34482141,1438.86265936,1439.11983939,1439.36273092,nan,nan
0,349,2919,6,1,36,25,1.0,0.0410699577143,-1.0,1,1.0,1.0,0.240981383249,0,0.0,0.0,0.241159854457,0.382590114752,0.0772792847972,0.459869399549,0.305310829955,nan,nan,0.0,0.0,0.0,nan,nan,1003.34482141,1439.86283299,1440.10381437,1440.36285437,nan,nan
0,350,2920,6,1,101,71,1.0,-0.273572672894,-0.446152610616,1,1.0,1.0,0.280926611274,0,0.0,0.0,0.259696006775,0.382184359074,0.0775388274886,0.459723186563,0.304645531586,nan,nan,0.0,0.0,0.0,nan,nan,1003.34482141,1440.86292678,1441.14385339,1441.36295871,nan,nan
0,351,2921,6,1,185,130,1.0,-0.102214474652,0.370299946716,1,1.0,1.0,0.320735276677,0,0.0,0.0,0.2808810904,0.381895051223,0.0776163824012,0.459511433625,0.304278668822,nan,nan,0.0,0.0,0.0,nan,nan,1003.34482141,1441.86305821,1442.18379349,1442.363091,nan,nan
0,352,2922,6,1,327,229,-0.128086156831,0.445480682368,0.344176439252,1,1.0,1.0,0.360586992465,0,0.0,0.0,0.320749626805,0.381720806851,0.0775742608509,0.459295067702,0.304146546001,nan,nan,0.0,0.0,0.0,nan,nan,1003.34482141,1442.86318622,1443.22377321,1443.36321331,nan,nan
0,353,2923,6,1,499,350,0.739831889234,0.263827757734,-1.0,1,1.0,1.0,0.328417215496,0,0.0,0.0,0.336579828213,0.381660767606,0.0774721580578,0.459132925664,0.304188609548,nan,nan,0.0,0.0,0.0,nan,nan,1003.34482141,1443.86332022,1444.19173743,1444.36334844,nan,nan
0,354,2924,6,1,302,212,0.027086081288,0.400300843718,0.517770016443,1,1.0,1.0,0.38428397011,0,0.0,0.0,0.357762726024,0.381509936014,0.0774140858256,0.458924021839,0.304095850188,nan,nan,0.0,0.0,0.0,nan,nan,1003.34482141,1444.86344509,1445.24772906,1445.36347303,nan,nan
0,355,2925,6,1,414,291,0.0747837862165,0.460162189034,-0.600089175003,1,1.0,1.0,0.360129126348,0,0.0,0.0,0.357610103985,0.381517772268,0.0773048067708,0.458822579039,0.304212965497,nan,nan,0.0,0.0,0.0,nan,nan,1003.34482141,1445.86357424,1446.22370336,1446.36360874,nan,nan
0,356,2926,6,1,111,78,1.0,-0.298677811705,-0.336106236365,1,1.0,1.0,0.359980304725,0,0.0,0.0,0.368131133728,0.381457522561,0.0772041727065,0.458661695268,0.304253349855,nan,nan,0.0,0.0,0.0,nan,nan,1003.34482141,1446.8637051,1447.2236854,1447.36373703,nan,nan
0,357,2927,6,1,343,241,-0.171388175652,0.463836419185,0.204822810802,1,1.0,1.0,0.375824571587,0,0.0,0.0,0.36531133422,0.381397193298,0.0771040427931,0.458501236091,0.304293150505,nan,nan,0.0,0.0,0.0,nan,nan,1003.34482141,1447.86383425,1448.23965882,1448.36386475,nan,nan
0,358,2928,6,1,150,105,1.0,-0.266152531622,0.0638227105866,1,1.0,1.0,0.407668766566,0,0.0,0.0,0.381157880959,0.381381583713,0.0769965415004,0.458378125214,0.304385042213,nan,nan,0.0,0.0,0.0,nan,nan,1003.34482141,1448.86398164,1449.27165041,1449.36399789,nan,nan
0,359,2929,6,1,398,279,-0.0220377755791,0.472608796233,-0.387943383198,1,1.0,1.0,0.311513814144,0,0.0,0.0,0.365002384099,0.381455011598,0.0769014451021,0.4583564567,0.304553566496,nan,nan,0.0,0.0,0.0,nan,nan,1003.34482141,1449.86411564,1450.17562945,1450.36412647,nan,nan
0,360,2930,6,1,122,85,1.0,-0.311159539646,-0.219144224573,1,1.0,1.0,0.383353698999,0,0.0,0.0,0.367512093236,0.381260189321,0.0768826855414,0.458142874863,0.30437750378,nan,nan,0.0,0.0,0.0,nan,nan,1003.34482141,1450.86423823,1451.24759193,1451.3642924,nan,nan
0,361,2931,6,1,327,229,-0.128086156831,0.445480682368,0.344176439252,1,1.0,1.0,0.375192226842,0,0.0,0.0,0.356686579995,0.381266004626,0.0767759088418,0.458041913468,0.304490095784,nan,nan,0.0,0.0,0.0,nan,nan,1003.34482141,1451.86438876,1452.23958099,1452.36437907,nan,nan
0,362,2932,6,1,396,278,-0.0330153705648,0.473684876347,-0.363523780775,1,1.0,1.0,0.391074125655,0,0.0,0.0,0.383206683832,0.381249179757,0.0766701618609,0.457919341618,0.304579017896,nan,nan,0.0,0.0,0.0,nan,nan,1003.34482141,1452.86447771,1453.25555184,1453.36450879,nan,nan
0,363,2933,6,0,478,336,0.56422249903,0.334793662244,-1.0,0,1.0,0.0,0.302897041664,0,0.0,0.0,0.356387798054,0.381276320491,0.0765659271721,0.457842247663,0.304710393319,nan,nan,0.0,0.0,0.0,nan,nan,1003.34482141,1453.86463936,1454.1675364,1454.364673,nan,nan
0,364,2934,6,1,111,78,1.0,-0.298677811705,-0.336106236365,1,1.0,1.0,0.230753812939,0,0.0,0.0,0.308241660086,0.381060399613,0.0765706771835,0.457631076796,0.304489722429,nan,nan,0.0,0.0,0.0,nan,nan,1003.34482141,1454.86475739,1455.0955112,1455.36477222,nan,nan
0,365,2935,6,1,163,114,1.0,-0.214247802105,0.185723682048,1,1.0,1.0,0.350629978813,0,0.0,0.0,0.294760277805,0.38064746943,0.0768690892884,0.457516558718,0.303778380141,nan,nan,0.0,0.0,0.0,nan,nan,1003.34482141,1455.86486943,1456.21549941,1456.36489908,nan,nan
0,366,2936,6,1,73,51,1.0,-0.1546788618,-0.830916872461,1,1.0,1.0,0.342489318922,0,0.0,0.0,0.307957703558,0.380565229729,0.0767797506188,0.457344980348,0.30378547911,nan,nan,0.0,0.0,0.0,nan,nan,1003.34482141,1456.86499944,1457.20748876,1457.36503422,nan,nan
0,367,2937,6,0,226,158,0.801265930663,0.120208988367,0.60458276857,0,0.0,1.0,0.550313349813,0,0.0,0.0,0.414477549183,0.380461197186,0.0767005443481,0.457161741534,0.303760652838,nan,nan,0.0,0.0,0.0,nan,nan,1003.34482141,1457.86515681,1458.41547016,1458.36520043,nan,nan
0,368,2938,6,1,130,91,1.0,-0.309333154106,-0.136071487739,1,1.0,1.0,0.278197376989,0,0.0,0.0,0.390333348575,0.380924009591,0.0771060249959,0.458030034587,0.303817984595,nan,nan,0.0,0.0,0.0,nan,nan,1003.34482141,1458.86526372,1459.1434611,1459.36528625,nan,nan
0,369,2939,6,0,419,294,0.107894673663,0.454841969249,-0.678098861371,0,0.0,1.0,0.429935699329,0,0.0,0.0,0.419482142044,0.380644861133,0.0771866655269,0.45783152666,0.303458195606,nan,nan,0.0,0.0,0.0,nan,nan,1003.34482141,1459.86549123,1460.29542693,1460.36544276,nan,nan
0,370,2940,6,1,349,245,-0.175656888649,0.468768509344,0.147945183432,1,1.0,1.0,0.349869909696,0,0.0,0.0,0.352667662005,0.38077844064,0.0771245874458,0.457903028086,0.303653853194,nan,nan,0.0,0.0,0.0,nan,nan,1003.34482141,1460.86553514,1461.21540505,1461.36555481,nan,nan
0,371,2941,6,1,474,333,0.530901762182,0.346545376391,-1.0,1,1.0,1.0,0.357722336426,0,0.0,0.0,0.379175981817,0.38069490407,0.077037009167,0.457731913237,0.303657894903,nan,nan,0.0,0.0,0.0,nan,nan,1003.34482141,1461.86564376,1462.22336609,1462.36567768,nan,nan
0,372,2942,6,1,99,69,1.0,-0.267176270739,-0.468793303331,1,1.0,1.0,0.421581501141,0,0.0,0.0,0.376391249088,0.380632983403,0.0769423350691,0.457575318472,0.303690648334,nan,nan,0.0,0.0,0.0,nan,nan,1003.34482141,1462.86577205,1463.28735355,1463.36582166,nan,nan
0,373,2943,6,1,146,102,1.0,-0.278792578557,0.0248813210997,1,1.0,1.0,0.357407304458,0,0.0,0.0,0.378903714009,0.380743060063,0.0768680946568,0.45761115472,0.303874965406,nan,nan,0.0,0.0,0.0,nan,nan,1003.34482141,1463.86592315,1464.22333046,1464.36593513,nan,nan
0,374,2944,6,1,44,30,1.0,-0.00106984144607,-1.0,1,1.0,1.0,0.420945449732,0,0.0,0.0,0.399978085111,0.380680497716,0.0767744682322,0.457454965948,0.303906029484,nan,nan,0.0,0.0,0.0,nan,nan,1003.34482141,1464.87437143,1465.29531688,1465.37441676,nan,nan
0,375,2945,6,0,188,132,1.0,-0.0857393506835,0.392804289229,0,0.0,1.0,0.452766837552,0,0.0,0.0,0.410373197248,0.380788158015,0.0766999485478,0.457488106563,0.304088209467,nan,nan,0.0,0.0,0.0,nan,nan,1003.34482141,1465.87452482,1466.32729165,1466.37455304,nan,nan
0,376,2946,6,1,487,342,0.639529740128,0.306295026098,-1.0,1,1.0,1.0,0.276641887613,0,0.0,0.0,0.383451391632,0.380980101161,0.0766875048075,0.457667605968,0.304292596353,nan,nan,0.0,0.0,0.0,nan,nan,1003.34482141,1466.87464056,1467.15128245,1467.37465567,nan,nan
0,377,2947,6,1,267,187,0.362924526182,0.298807232282,0.646622522267,1,1.0,1.0,0.316483625211,0,0.0,0.0,0.348630783459,0.380702605912,0.0767737511252,0.457476357037,0.303928854787,nan,nan,0.0,0.0,0.0,nan,nan,1003.34482141,1467.87477427,1468.1912579,1468.37478824,nan,nan
0,378,2948,6,1,187,131,1.0,-0.0912463489427,0.385383214542,1,1.0,1.0,0.340337406844,0,0.0,0.0,0.311154306556,0.380532263788,0.0767429771165,0.457275240904,0.303789286672,nan,nan,0.0,0.0,0.0,nan,nan,1003.34482141,1468.87489116,1469.21522857,1469.37493535,nan,nan
0,379,2949,6,1,339,238,-0.164955840019,0.45996923152,0.241423096872,1,1.0,1.0,0.396183634177,0,0.0,0.0,0.351001555411,0.380425928188,0.0766692032485,0.457095131436,0.303756724939,nan,nan,0.0,0.0,0.0,nan,nan,1003.34482141,1469.87503029,1470.27121393,1470.37506222,nan,nan
0,380,2950,6,1,268,188,0.35230222188,0.302367520405,0.645005310408,1,1.0,1.0,0.34803502541,0,0.0,0.0,0.36151868881,0.380467505248,0.0765722566108,0.457039761859,0.303895248638,nan,nan,0.0,0.0,0.0,nan,nan,1003.34482141,1470.8751563,1471.22319133,1471.37517141,nan,nan
0,381,2951,6,1,428,300,0.170378320166,0.443486568519,-0.86866140055,1,1.0,1.0,0.323539490812,0,0.0,0.0,0.355919383466,0.380382156617,0.0764894862148,0.456871642832,0.303892670402,nan,nan,0.0,0.0,0.0,nan,nan,1003.34482141,1471.88362426,1472.20716375,1472.3836388,nan,nan
0,382,2952,6,1,66,46,1.0,-0.118568705386,-1.0,1,1.0,1.0,0.459411594085,0,0.0,0.0,0.376995370102,0.380232963269,0.0764443835476,0.456677346816,0.303788579721,nan,nan,0.0,0.0,0.0,nan,nan,1003.34482141,1472.88374457,1473.34315616,1473.38376253,nan,nan
0,383,2953,6,1,364,255,-0.160194321586,0.476704516321,-0.00341124574885,1,1.0,1.0,0.275265439413,0,0.0,0.0,0.352738841437,0.380440237171,0.0764513879451,0.456891625116,0.303988849226,nan,nan,0.0,0.0,0.0,nan,nan,1003.34482141,1473.88388541,1474.15915084,1474.38390565,nan,nan
0,384,2954,6,0,134,94,1.0,-0.304950998219,-0.095144111098,0,1.0,0.0,0.291070932522,0,0.0,0.0,0.341915988674,0.380165629344,0.0765399276137,0.456705556958,0.303625701731,nan,nan,0.0,0.0,0.0,nan,nan,1003.34482141,1474.88403366,1475.17510459,1475.38405418,nan,nan
0,385,2955,6,1,52,36,1.0,-0.0438860552364,-1.0,1,1.0,1.0,0.250994846225,0,0.0,0.0,0.272443739387,0.379933611905,0.0765749440958,0.456508556,0.303358667809,nan,nan,0.0,0.0,0.0,nan,nan,1003.34482141,1475.88413087,1476.13512572,1476.38416537,nan,nan
