block,trial,freq_trials,correct_response,actual_response,acc,rts,probe_trials,fast_rt_trigger,slow_rt_trigger,rt_triggered,rts_runningavg,rts_runningstd,rts_runningfastthresh,rts_runningslowthresh,rts_runningstd,rts_trailingavg,trials_colorind0,trials_colorind1,trials_colorind2,trials_colorind3,trials_colorind4,trials_colorind5,wholereport_resp0,wholereport_resp1,wholereport_resp2,wholereport_resp3,wholereport_resp4,wholereport_resp5,wholereport_respacc0,wholereport_respacc1,wholereport_respacc2,wholereport_respacc3,wholereport_respacc4,wholereport_respacc5,wholereport_respacc_total,wholereport_respcolorind0,wholereport_respcolorind1,wholereport_respcolorind2,wholereport_respcolorind3,wholereport_respcolorind4,wholereport_respcolorind5,wholereport_resporder0,wholereport_resporder1,wholereport_resporder2,wholereport_resporder3,wholereport_resporder4,wholereport_resporder5,wholereport_rts0,wholereport_rts1,wholereport_rts2,wholereport_rts3,wholereport_rts4,wholereport_rts5,time_blockstart,time_encarray_offset,time_encarray_onset,time_response,time_iti_offset,time_iti_onset,time_memprobe_offset,time_memprobe_onset
1,1,1,1,nan,nan,nan,0,nan,nan,nan,nan,nan,nan,nan,nan,nan,2,7,1,8,6,4,nan,nan,nan,nan,nan,nan,nan,nan,nan,nan,nan,nan,0.0,nan,nan,nan,nan,nan,nan,nan,nan,nan,nan,nan,nan,nan,nan,nan,nan,nan,nan,738.1204973915592,739.1333857721183,nan,nan,nan,nan,nan,nan
1,2,1,1,1.0,1.0,0.5699137696065009,0,nan,nan,nan,nan,nan,nan,nan,nan,nan,8,3,2,0,4,1,nan,nan,nan,nan,nan,nan,nan,nan,nan,nan,nan,nan,0.0,nan,nan,nan,nan,nan,nan,nan,nan,nan,nan,nan,nan,nan,nan,nan,nan,nan,nan,738.1204973915592,740.1585219202098,nan,740.7284356898163,nan,nan,nan,nan
1,3,1,1,1.0,1.0,0.39279497135430574,0,nan,nan,nan,nan,nan,nan,nan,nan,nan,5,2,0,6,1,7,nan,nan,nan,nan,nan,nan,nan,nan,nan,nan,nan,nan,0.0,nan,nan,nan,nan,nan,nan,nan,nan,nan,nan,nan,nan,nan,nan,nan,nan,nan,nan,738.1204973915592,741.1836198652163,nan,741.5764148365706,nan,nan,nan,nan
1,4,1,1,1.0,1.0,0.3836533357389271,0,nan,nan,nan,nan,nan,nan,nan,nan,nan,4,7,2,5,8,3,nan,nan,nan,nan,nan,nan,nan,nan,nan,nan,nan,nan,0.0,nan,nan,nan,nan,nan,nan,nan,nan,nan,nan,nan,nan,nan,nan,nan,nan,nan,nan,738.1204973915592,742.2087486009113,nan,742.5924019366503,nan,nan,nan,nan
1,5,1,1,1.0,1.0,0.34249416552484035,0,nan,nan,nan,nan,nan,nan,nan,nan,nan,1,4,0,3,7,8,nan,nan,nan,nan,nan,nan,nan,nan,nan,nan,nan,nan,0.0,nan,nan,nan,nan,nan,nan,nan,nan,nan,nan,nan,nan,nan,nan,nan,nan,nan,nan,738.1204973915592,743.2339035652112,nan,743.5763977307361,nan,nan,nan,nan
1,6,1,1,1.0,1.0,0.4533239174634218,0,nan,nan,nan,nan,nan,nan,nan,nan,nan,0,1,7,6,8,4,nan,nan,nan,nan,nan,nan,nan,nan,nan,nan,nan,nan,0.0,nan,nan,nan,nan,nan,nan,nan,nan,nan,nan,nan,nan,nan,nan,nan,nan,nan,nan,738.1204973915592,744.2590169056784,nan,744.7123408231419,nan,nan,nan,nan
1,7,1,1,1.0,1.0,0.42819176078774035,0,nan,nan,nan,nan,nan,nan,nan,nan,nan,1,4,5,3,0,8,nan,nan,nan,nan,nan,nan,nan,nan,nan,nan,nan,nan,0.0,nan,nan,nan,nan,nan,nan,nan,nan,nan,nan,nan,nan,nan,nan,nan,nan,nan,nan,738.1204973915592,745.2841493475717,nan,745.7123411083594,nan,nan,nan,nan
1,8,1,1,1.0,1.0,0.4750942103564739,0,nan,nan,nan,nan,nan,nan,nan,nan,nan,8,2,7,1,4,5,nan,nan,nan,nan,nan,nan,nan,nan,nan,nan,nan,nan,0.0,nan,nan,nan,nan,nan,nan,nan,nan,nan,nan,nan,nan,nan,nan,nan,nan,nan,nan,738.1204973915592,746.3092475775629,nan,746.7843417879194,nan,nan,nan,nan
1,9,1,1,1.0,1.0,0.4659175076521933,0,nan,nan,nan,nan,nan,nan,nan,nan,nan,5,1,4,8,7,0,nan,nan,nan,nan,nan,nan,nan,nan,nan,nan,nan,nan,0.0,nan,nan,nan,nan,nan,nan,nan,nan,nan,nan,nan,nan,nan,nan,nan,nan,nan,nan,738.1204973915592,747.3343845810741,nan,747.8003020887263,nan,nan,nan,nan
1,10,1,1,1.0,1.0,0.6008051708340645,0,nan,nan,nan,nan,nan,nan,nan,nan,nan,6,4,7,2,8,5,nan,nan,nan,nan,nan,nan,nan,nan,nan,nan,nan,nan,0.0,nan,nan,nan,nan,nan,nan,nan,nan,nan,nan,nan,nan,nan,nan,nan,nan,nan,nan,738.1204973915592,748.3595113209449,nan,748.9603164917789,nan,nan,nan,nan
1,11,1,1,1.0,1.0,0.3196416443679482,0,nan,nan,nan,nan,nan,nan,nan,nan,nan,2,3,6,1,5,7,nan,nan,nan,nan,nan,nan,nan,nan,nan,nan,nan,nan,0.0,nan,nan,nan,nan,nan,nan,nan,nan,nan,nan,nan,nan,nan,nan,nan,nan,nan,nan,738.1204973915592,749.3846483242232,nan,749.7042899685912,nan,nan,nan,nan
1,12,1,1,1.0,1.0,0.19048728211782873,0,nan,nan,nan,nan,nan,nan,nan,nan,nan,4,1,0,8,2,6,nan,nan,nan,nan,nan,nan,nan,nan,nan,nan,nan,nan,0.0,nan,nan,nan,nan,nan,nan,nan,nan,nan,nan,nan,nan,nan,nan,nan,nan,nan,nan,738.1204973915592,750.4097685068846,nan,750.6002557890024,nan,nan,nan,nan
1,13,1,1,nan,nan,nan,0,nan,nan,nan,nan,nan,nan,nan,nan,nan,8,5,3,6,7,2,nan,nan,nan,nan,nan,nan,nan,nan,nan,nan,nan,nan,0.0,nan,nan,nan,nan,nan,nan,nan,nan,nan,nan,nan,nan,nan,nan,nan,nan,nan,nan,738.1204973915592,751.4349097867962,nan,nan,nan,nan,nan,nan
1,14,1,1,1.0,1.0,0.12417884939350188,0,nan,nan,nan,nan,nan,nan,nan,nan,nan,5,4,6,3,1,8,nan,nan,nan,nan,nan,nan,nan,nan,nan,nan,nan,nan,0.0,nan,nan,nan,nan,nan,nan,nan,nan,nan,nan,nan,nan,nan,nan,nan,nan,nan,nan,738.1204973915592,752.4600265482441,nan,752.5842053976376,nan,nan,nan,nan
1,15,1,1,1.0,1.0,0.2190542877651751,0,nan,nan,nan,nan,nan,nan,nan,nan,nan,8,7,3,5,2,0,nan,nan,nan,nan,nan,nan,nan,nan,nan,nan,nan,nan,0.0,nan,nan,nan,nan,nan,nan,nan,nan,nan,nan,nan,nan,nan,nan,nan,nan,nan,nan,738.1204973915592,753.4851259186398,nan,753.704180206405,nan,nan,nan,nan
1,16,0,0,1.0,0.0,0.19390046363696456,0,nan,nan,nan,nan,nan,nan,nan,nan,nan,4,2,1,6,0,8,nan,nan,nan,nan,nan,nan,nan,nan,nan,nan,nan,nan,0.0,nan,nan,nan,nan,nan,nan,nan,nan,nan,nan,nan,nan,nan,nan,nan,nan,nan,nan,738.1204973915592,754.5102549393196,nan,754.7041554029565,nan,nan,nan,nan
1,17,1,1,1.0,1.0,0.5287035668734461,0,nan,nan,nan,nan,nan,nan,nan,nan,nan,0,3,8,7,4,6,nan,nan,nan,nan,nan,nan,nan,nan,nan,nan,nan,nan,0.0,nan,nan,nan,nan,nan,nan,nan,nan,nan,nan,nan,nan,nan,nan,nan,nan,nan,nan,738.1204973915592,755.5354267247021,nan,756.0641302915756,nan,nan,nan,nan
1,18,1,1,1.0,1.0,0.35955180460587144,0,nan,nan,nan,nan,nan,nan,nan,nan,nan,3,8,6,0,5,1,nan,nan,nan,nan,nan,nan,nan,nan,nan,nan,nan,nan,0.0,nan,nan,nan,nan,nan,nan,nan,nan,nan,nan,nan,nan,nan,nan,nan,nan,nan,nan,738.1204973915592,756.560562587576,nan,756.9201143921819,nan,nan,nan,nan
1,19,1,1,1.0,1.0,0.18240278610028327,0,nan,nan,nan,nan,nan,nan,nan,nan,nan,6,3,8,2,1,0,nan,nan,nan,nan,nan,nan,nan,nan,nan,nan,nan,nan,0.0,nan,nan,nan,nan,nan,nan,nan,nan,nan,nan,nan,nan,nan,nan,nan,nan,nan,nan,738.1204973915592,757.585689042462,nan,757.7680918285623,nan,nan,nan,nan
1,20,0,0,1.0,0.0,0.17329621757380664,0,nan,nan,nan,nan,nan,nan,nan,nan,nan,7,1,5,3,4,6,nan,nan,nan,nan,nan,nan,nan,nan,nan,nan,nan,nan,0.0,nan,nan,nan,nan,nan,nan,nan,nan,nan,nan,nan,nan,nan,nan,nan,nan,nan,nan,738.1204973915592,758.610769881634,nan,758.7840660992078,nan,nan,nan,nan
1,21,1,1,1.0,1.0,0.2201288181822747,0,nan,nan,nan,nan,nan,nan,nan,nan,nan,2,3,7,4,8,0,nan,nan,nan,nan,nan,nan,nan,nan,nan,nan,nan,nan,0.0,nan,nan,nan,nan,nan,nan,nan,nan,nan,nan,nan,nan,nan,nan,nan,nan,nan,nan,738.1204973915592,759.6359171485528,nan,759.8560459667351,nan,nan,nan,nan
1,22,1,1,1.0,1.0,0.3789768894203007,0,nan,nan,nan,nan,nan,nan,nan,nan,nan,7,4,3,5,6,8,nan,nan,nan,nan,nan,nan,nan,nan,nan,nan,nan,nan,0.0,nan,nan,nan,nan,nan,nan,nan,nan,nan,nan,nan,nan,nan,nan,nan,nan,nan,nan,738.1204973915592,760.6610538668465,nan,761.0400307562668,nan,nan,nan,nan
1,23,1,1,1.0,1.0,0.2978089153766632,0,nan,nan,nan,nan,nan,nan,nan,nan,nan,4,0,7,8,3,6,nan,nan,nan,nan,nan,nan,nan,nan,nan,nan,nan,nan,0.0,nan,nan,nan,nan,nan,nan,nan,nan,nan,nan,nan,nan,nan,nan,nan,nan,nan,nan,738.1204973915592,761.6861783259083,nan,761.9839872412849,nan,nan,nan,nan
1,24,1,1,1.0,1.0,0.4006793291773647,0,nan,nan,nan,nan,nan,nan,nan,nan,nan,6,3,0,7,8,2,nan,nan,nan,nan,nan,nan,nan,nan,nan,nan,nan,nan,0.0,nan,nan,nan,nan,nan,nan,nan,nan,nan,nan,nan,nan,nan,nan,nan,nan,nan,nan,738.1204973915592,762.7112987935543,nan,763.1119781227317,nan,nan,nan,nan
1,25,1,1,1.0,1.0,0.39151346031576395,0,nan,nan,nan,nan,nan,nan,nan,nan,nan,4,1,2,0,3,5,nan,nan,nan,nan,nan,nan,nan,nan,nan,nan,nan,nan,0.0,nan,nan,nan,nan,nan,nan,nan,nan,nan,nan,nan,nan,nan,nan,nan,nan,nan,nan,738.1204973915592,763.7364406436682,nan,764.1279541039839,nan,nan,nan,nan
1,26,1,1,1.0,1.0,0.38240347034297884,0,nan,nan,nan,nan,nan,nan,nan,nan,nan,1,5,3,4,6,2,nan,nan,nan,nan,nan,nan,nan,nan,nan,nan,nan,nan,0.0,nan,nan,nan,nan,nan,nan,nan,nan,nan,nan,nan,nan,nan,nan,nan,nan,nan,nan,738.1204973915592,764.7615705195349,nan,765.1439739898778,nan,nan,nan,nan
1,27,1,1,1.0,1.0,0.25325167388655245,0,nan,nan,nan,nan,nan,nan,nan,nan,nan,0,3,2,8,7,4,nan,nan,nan,nan,nan,nan,nan,nan,nan,nan,nan,nan,0.0,nan,nan,nan,nan,nan,nan,nan,nan,nan,nan,nan,nan,nan,nan,nan,nan,nan,nan,738.1204973915592,765.7866946936119,nan,766.0399463674985,nan,nan,nan,nan
1,28,0,0,1.0,0.0,0.14809250156395137,0,nan,nan,nan,nan,nan,nan,nan,nan,nan,4,0,6,3,1,7,nan,nan,nan,nan,nan,nan,nan,nan,nan,nan,nan,nan,0.0,nan,nan,nan,nan,nan,nan,nan,nan,nan,nan,nan,nan,nan,nan,nan,nan,nan,nan,738.1204973915592,766.8118245694786,nan,766.9599170710426,nan,nan,nan,nan
1,29,1,1,1.0,1.0,0.30691919033415616,1,nan,nan,nan,nan,nan,nan,nan,nan,nan,2,4,0,1,7,8,1.0,1.0,1.0,1.0,1.0,1.0,0.0,0.0,0.0,0.0,0.0,0.0,0.0,6.0,3.0,1.0,8.0,2.0,7.0,3.0,2.0,1.0,6.0,5.0,4.0,8.446049952413887,6.926795925945044,4.022974542574957,13.710130466148257,12.518268161220476,9.46300609712489,738.1204973915592,767.8369641387835,768.6454046068247,768.1438833291177,783.4055111531634,784.4056117925793,769.6537952967919,783.3971806187183
1,30,1,1,nan,nan,nan,0,nan,nan,nan,nan,nan,nan,nan,nan,nan,0,3,2,6,1,4,nan,nan,nan,nan,nan,nan,nan,nan,nan,nan,nan,nan,0.0,nan,nan,nan,nan,nan,nan,nan,nan,nan,nan,nan,nan,nan,nan,nan,nan,nan,nan,738.1204973915592,784.6307175492402,nan,nan,nan,nan,nan,nan
1,31,1,1,1.0,1.0,0.48766299709677696,0,nan,nan,nan,nan,nan,nan,nan,nan,nan,5,2,0,4,7,6,nan,nan,nan,nan,nan,nan,nan,nan,nan,nan,nan,nan,0.0,nan,nan,nan,nan,nan,nan,nan,nan,nan,nan,nan,nan,nan,nan,nan,nan,nan,nan,738.1204973915592,785.6558223366737,nan,786.1434853337705,nan,nan,nan,nan
1,32,1,1,1.0,1.0,0.51853928854689,0,nan,nan,nan,nan,nan,nan,nan,nan,nan,2,6,5,3,8,1,nan,nan,nan,nan,nan,nan,nan,nan,nan,nan,nan,nan,0.0,nan,nan,nan,nan,nan,nan,nan,nan,nan,nan,nan,nan,nan,nan,nan,nan,nan,nan,738.1204973915592,786.680962475948,nan,787.1995017644949,nan,nan,nan,nan
1,33,1,1,1.0,1.0,0.5573800497222692,0,nan,nan,nan,nan,nan,nan,nan,nan,nan,6,7,3,5,0,8,nan,nan,nan,nan,nan,nan,nan,nan,nan,nan,nan,nan,0.0,nan,nan,nan,nan,nan,nan,nan,nan,nan,nan,nan,nan,nan,nan,nan,nan,nan,nan,738.1204973915592,787.7060949178413,nan,788.2634749675635,nan,nan,nan,nan
1,34,1,1,1.0,1.0,0.4922313916031271,0,nan,nan,nan,nan,nan,nan,nan,nan,nan,1,5,4,2,7,6,nan,nan,nan,nan,nan,nan,nan,nan,nan,nan,nan,nan,0.0,nan,nan,nan,nan,nan,nan,nan,nan,nan,nan,nan,nan,nan,nan,nan,nan,nan,nan,738.1204973915592,788.7312116792891,nan,789.2234430708922,nan,nan,nan,nan
1,35,1,1,nan,nan,nan,0,nan,nan,nan,nan,nan,nan,nan,nan,nan,0,3,8,5,6,7,nan,nan,nan,nan,nan,nan,nan,nan,nan,nan,nan,nan,0.0,nan,nan,nan,nan,nan,nan,nan,nan,nan,nan,nan,nan,nan,nan,nan,nan,nan,nan,738.1204973915592,789.7563515335787,nan,nan,nan,nan,nan,nan
1,36,1,1,nan,nan,nan,0,nan,nan,nan,nan,nan,nan,nan,nan,nan,4,6,3,0,2,1,nan,nan,nan,nan,nan,nan,nan,nan,nan,nan,nan,nan,0.0,nan,nan,nan,nan,nan,nan,nan,nan,nan,nan,nan,nan,nan,nan,nan,nan,nan,nan,738.1204973915592,790.781495379284,nan,nan,nan,nan,nan,nan
1,37,1,1,1.0,1.0,0.0007843018975108862,0,nan,nan,nan,nan,nan,nan,nan,nan,nan,6,1,5,2,8,7,nan,nan,nan,nan,nan,nan,nan,nan,nan,nan,nan,nan,0.0,nan,nan,nan,nan,nan,nan,nan,nan,nan,nan,nan,nan,nan,nan,nan,nan,nan,nan,738.1204973915592,791.8066161321476,nan,791.8074004340451,nan,nan,nan,nan
1,38,1,1,nan,nan,nan,0,nan,nan,nan,nan,nan,nan,nan,nan,nan,1,6,7,0,2,3,nan,nan,nan,nan,nan,nan,nan,nan,nan,nan,nan,nan,0.0,nan,nan,nan,nan,nan,nan,nan,nan,nan,nan,nan,nan,nan,nan,nan,nan,nan,nan,738.1204973915592,792.83174002124,nan,nan,nan,nan,nan,nan
1,39,1,1,nan,nan,nan,0,nan,nan,nan,nan,nan,nan,nan,nan,nan,8,5,4,1,7,6,nan,nan,nan,nan,nan,nan,nan,nan,nan,nan,nan,nan,0.0,nan,nan,nan,nan,nan,nan,nan,nan,nan,nan,nan,nan,nan,nan,nan,nan,nan,nan,738.1204973915592,793.8568661909085,nan,nan,nan,nan,nan,nan
1,40,1,1,nan,nan,nan,0,nan,nan,nan,nan,nan,nan,nan,nan,nan,0,6,8,7,1,2,nan,nan,nan,nan,nan,nan,nan,nan,nan,nan,nan,nan,0.0,nan,nan,nan,nan,nan,nan,nan,nan,nan,nan,nan,nan,nan,nan,nan,nan,nan,nan,738.1204973915592,794.8820051897783,nan,nan,nan,nan,nan,nan
1,41,1,1,nan,nan,nan,1,nan,nan,nan,nan,nan,nan,nan,nan,nan,3,5,7,0,8,4,1.0,1.0,1.0,1.0,1.0,1.0,0.0,0.0,1.0,0.0,0.0,0.0,1.0,0.0,6.0,7.0,1.0,5.0,3.0,3.0,2.0,1.0,6.0,5.0,4.0,3.689323231112212,2.856583089567721,1.9034119839780033,8.151333769317716,6.8953822266776115,5.895909656072035,738.1204973915592,795.9071427634917,796.7155464538373,nan,805.91668638587,806.9163870338816,797.7240032865666,805.9083518597763
1,42,1,1,nan,nan,nan,0,nan,nan,nan,nan,nan,nan,nan,nan,nan,7,3,4,2,1,5,nan,nan,nan,nan,nan,nan,nan,nan,nan,nan,nan,nan,0.0,nan,nan,nan,nan,nan,nan,nan,nan,nan,nan,nan,nan,nan,nan,nan,nan,nan,nan,738.1204973915592,807.1418580000754,nan,nan,nan,nan,nan,nan
1,43,1,1,1.0,1.0,0.32004192075692117,0,nan,nan,nan,nan,nan,nan,nan,nan,nan,3,2,6,7,5,4,nan,nan,nan,nan,nan,nan,nan,nan,nan,nan,nan,nan,0.0,nan,nan,nan,nan,nan,nan,nan,nan,nan,nan,nan,nan,nan,nan,nan,nan,nan,nan,738.1204973915592,808.1670103985816,nan,808.4870523193385,nan,nan,nan,nan
1,44,0,0,1.0,0.0,0.2788741975091398,0,nan,nan,nan,nan,nan,nan,nan,nan,nan,5,3,2,6,8,1,nan,nan,nan,nan,nan,nan,nan,nan,nan,nan,nan,nan,0.0,nan,nan,nan,nan,nan,nan,nan,nan,nan,nan,nan,nan,nan,nan,nan,nan,nan,nan,738.1204973915592,809.1921559548937,nan,809.4710301524028,nan,nan,nan,nan
1,45,1,1,1.0,1.0,0.38972590188495815,0,nan,nan,nan,nan,nan,nan,nan,nan,nan,4,6,8,5,1,7,nan,nan,nan,nan,nan,nan,nan,nan,nan,nan,nan,nan,0.0,nan,nan,nan,nan,nan,nan,nan,nan,nan,nan,nan,nan,nan,nan,nan,nan,nan,nan,738.1204973915592,810.2172889669891,nan,810.6070148688741,nan,nan,nan,nan
1,46,1,1,1.0,1.0,0.3246137364767492,0,nan,nan,nan,nan,nan,nan,nan,nan,nan,5,3,7,1,2,6,nan,nan,nan,nan,nan,nan,nan,nan,nan,nan,nan,nan,0.0,nan,nan,nan,nan,nan,nan,nan,nan,nan,nan,nan,nan,nan,nan,nan,nan,nan,nan,738.1204973915592,811.242380639771,nan,811.5669943762477,nan,nan,nan,nan
1,47,1,1,1.0,1.0,0.35541447694413364,0,nan,nan,nan,nan,nan,nan,nan,nan,nan,7,0,4,2,6,1,nan,nan,nan,nan,nan,nan,nan,nan,nan,nan,nan,nan,0.0,nan,nan,nan,nan,nan,nan,nan,nan,nan,nan,nan,nan,nan,nan,nan,nan,nan,nan,738.1204973915592,812.2675569865387,nan,812.6229714634828,nan,nan,nan,nan
1,48,1,1,1.0,1.0,0.4662687473464757,0,nan,nan,nan,nan,nan,nan,nan,nan,nan,3,4,7,8,5,0,nan,nan,nan,nan,nan,nan,nan,nan,nan,nan,nan,nan,0.0,nan,nan,nan,nan,nan,nan,nan,nan,nan,nan,nan,nan,nan,nan,nan,nan,nan,nan,738.1204973915592,813.2926711821929,nan,813.7589399295393,nan,nan,nan,nan
1,49,1,1,1.0,1.0,0.6971289019566029,0,nan,nan,nan,nan,nan,nan,nan,nan,nan,4,8,1,0,2,7,nan,nan,nan,nan,nan,nan,nan,nan,nan,nan,nan,nan,0.0,nan,nan,nan,nan,nan,nan,nan,nan,nan,nan,nan,nan,nan,nan,nan,nan,nan,nan,738.1204973915592,814.3177848076448,nan,815.0149137096014,nan,nan,nan,nan
1,50,1,1,1.0,1.0,0.4879478090442717,0,nan,nan,nan,nan,nan,nan,nan,nan,nan,6,7,3,8,0,4,nan,nan,nan,nan,nan,nan,nan,nan,nan,nan,nan,nan,0.0,nan,nan,nan,nan,nan,nan,nan,nan,nan,nan,nan,nan,nan,nan,nan,nan,nan,nan,738.1204973915592,815.3429389167577,nan,815.830886725802,nan,nan,nan,nan
1,51,1,1,1.0,1.0,0.3268577349372208,1,nan,nan,nan,nan,nan,nan,nan,nan,nan,2,3,5,6,4,1,1.0,1.0,1.0,1.0,1.0,1.0,0.0,0.0,1.0,0.0,0.0,0.0,1.0,7.0,4.0,5.0,1.0,0.0,7.0,3.0,2.0,1.0,6.0,5.0,4.0,4.70724556944333,3.2591711431741714,1.7949898762162775,7.113851780304685,6.226854826789349,5.602234362158924,738.1204973915592,816.3680297343526,817.1764468245674,816.6948874692898,825.3358072151896,826.3350944726262,818.1848956744652,825.3274610000663
1,52,0,0,0.0,1.0,0.7417043899185956,0,nan,nan,nan,nan,nan,nan,nan,nan,nan,8,4,2,1,7,6,nan,nan,nan,nan,nan,nan,nan,nan,nan,nan,nan,nan,0.0,nan,nan,nan,nan,nan,nan,nan,nan,nan,nan,nan,nan,nan,nan,nan,nan,nan,nan,738.1204973915592,826.560970561346,nan,827.3026749512646,nan,nan,nan,nan
1,53,1,1,1.0,1.0,0.6844948281068355,0,nan,nan,nan,nan,nan,nan,nan,nan,nan,4,8,5,7,6,1,nan,nan,nan,nan,nan,nan,nan,nan,nan,nan,nan,nan,0.0,nan,nan,nan,nan,nan,nan,nan,nan,nan,nan,nan,nan,nan,nan,nan,nan,nan,nan,738.1204973915592,827.586149759125,nan,828.2706445872318,nan,nan,nan,nan
1,54,1,1,1.0,1.0,0.37941479845903814,0,nan,nan,nan,nan,nan,nan,nan,nan,nan,0,7,6,5,1,2,nan,nan,nan,nan,nan,nan,nan,nan,nan,nan,nan,nan,0.0,nan,nan,nan,nan,nan,nan,nan,nan,nan,nan,nan,nan,nan,nan,nan,nan,nan,nan,738.1204973915592,828.6112194797024,nan,828.9906342781615,nan,nan,nan,nan
1,55,1,1,1.0,1.0,0.13826634804718196,0,nan,nan,nan,nan,nan,nan,nan,nan,nan,3,0,2,7,6,8,nan,nan,nan,nan,nan,nan,nan,nan,nan,nan,nan,nan,0.0,nan,nan,nan,nan,nan,nan,nan,nan,nan,nan,nan,nan,nan,nan,nan,nan,nan,nan,738.1204973915592,829.6363573381677,nan,829.7746236862149,nan,nan,nan,nan
1,56,1,1,1.0,1.0,0.6011162116192281,0,nan,nan,nan,nan,nan,nan,nan,nan,nan,1,7,4,0,2,5,nan,nan,nan,nan,nan,nan,nan,nan,nan,nan,nan,nan,0.0,nan,nan,nan,nan,nan,nan,nan,nan,nan,nan,nan,nan,nan,nan,nan,nan,nan,nan,738.1204973915592,830.6614492964,nan,831.2625655080192,nan,nan,nan,nan
1,57,1,1,1.0,1.0,0.279956140788272,0,nan,nan,nan,nan,nan,nan,nan,nan,nan,6,2,1,7,3,8,nan,nan,nan,nan,nan,nan,nan,nan,nan,nan,nan,nan,0.0,nan,nan,nan,nan,nan,nan,nan,nan,nan,nan,nan,nan,nan,nan,nan,nan,nan,nan,738.1204973915592,831.6866088223178,nan,831.9665649631061,nan,nan,nan,nan
1,58,1,1,1.0,1.0,0.030801310669630766,0,nan,nan,nan,nan,nan,nan,nan,nan,nan,0,8,4,3,5,6,nan,nan,nan,nan,nan,nan,nan,nan,nan,nan,nan,nan,0.0,nan,nan,nan,nan,nan,nan,nan,nan,nan,nan,nan,nan,nan,nan,nan,nan,nan,nan,738.1204973915592,832.7117526680231,nan,832.7425539786927,nan,nan,nan,nan
1,59,1,1,1.0,1.0,0.5335901295766234,0,nan,nan,nan,nan,nan,nan,nan,nan,nan,4,2,7,5,8,0,nan,nan,nan,nan,nan,nan,nan,nan,nan,nan,nan,nan,0.0,nan,nan,nan,nan,nan,nan,nan,nan,nan,nan,nan,nan,nan,nan,nan,nan,nan,nan,738.1204973915592,833.7369076325558,nan,834.2704977621324,nan,nan,nan,nan
1,60,1,1,1.0,1.0,0.26050682249478996,0,nan,nan,nan,nan,nan,nan,nan,nan,nan,1,8,5,0,7,2,nan,nan,nan,nan,nan,nan,nan,nan,nan,nan,nan,nan,0.0,nan,nan,nan,nan,nan,nan,nan,nan,nan,nan,nan,nan,nan,nan,nan,nan,nan,nan,738.1204973915592,834.7620212580077,nan,835.0225280805025,nan,nan,nan,nan
1,61,1,1,1.0,1.0,0.13935228250920773,0,nan,nan,nan,nan,nan,nan,nan,nan,nan,0,3,6,7,8,5,nan,nan,nan,nan,nan,nan,nan,nan,nan,nan,nan,nan,0.0,nan,nan,nan,nan,nan,nan,nan,nan,nan,nan,nan,nan,nan,nan,nan,nan,nan,nan,738.1204973915592,835.7871548400726,nan,835.9265071225818,nan,nan,nan,nan
1,62,1,1,1.0,1.0,0.6182160454336554,0,nan,nan,nan,nan,nan,nan,nan,nan,nan,8,2,1,3,0,4,nan,nan,nan,nan,nan,nan,nan,nan,nan,nan,nan,nan,0.0,nan,nan,nan,nan,nan,nan,nan,nan,nan,nan,nan,nan,nan,nan,nan,nan,nan,nan,738.1204973915592,836.812246798072,nan,837.4304628435057,nan,nan,nan,nan
1,63,0,0,0.0,1.0,0.601067460142076,0,nan,nan,nan,nan,nan,nan,nan,nan,nan,7,1,3,5,8,6,nan,nan,nan,nan,nan,nan,nan,nan,nan,nan,nan,nan,0.0,nan,nan,nan,nan,nan,nan,nan,nan,nan,nan,nan,nan,nan,nan,nan,nan,nan,nan,738.1204973915592,837.837396916002,nan,838.4384643761441,nan,nan,nan,nan
1,64,1,1,1.0,1.0,0.4478212599642575,0,nan,nan,nan,nan,nan,nan,nan,nan,nan,5,3,7,1,4,0,nan,nan,nan,nan,nan,nan,nan,nan,nan,nan,nan,nan,0.0,nan,nan,nan,nan,nan,nan,nan,nan,nan,nan,nan,nan,nan,nan,nan,nan,nan,nan,738.1204973915592,838.8625316387042,nan,839.3103528986685,nan,nan,nan,nan
1,65,1,1,nan,nan,nan,0,nan,nan,nan,nan,nan,nan,nan,nan,nan,7,2,5,8,3,4,nan,nan,nan,nan,nan,nan,nan,nan,nan,nan,nan,nan,0.0,nan,nan,nan,nan,nan,nan,nan,nan,nan,nan,nan,nan,nan,nan,nan,nan,nan,nan,738.1204973915592,839.8876361409202,nan,nan,nan,nan,nan,nan
1,66,1,1,1.0,1.0,0.029624430229887366,0,nan,nan,nan,nan,nan,nan,nan,nan,nan,3,4,7,0,5,8,nan,nan,nan,nan,nan,nan,nan,nan,nan,nan,nan,nan,0.0,nan,nan,nan,nan,nan,nan,nan,nan,nan,nan,nan,nan,nan,nan,nan,nan,nan,nan,738.1204973915592,840.9127634509932,nan,840.9423878812231,nan,nan,nan,nan
1,67,1,1,1.0,1.0,0.03644680161960423,0,nan,nan,nan,nan,nan,nan,nan,nan,nan,7,3,2,1,6,0,nan,nan,nan,nan,nan,nan,nan,nan,nan,nan,nan,nan,0.0,nan,nan,nan,nan,nan,nan,nan,nan,nan,nan,nan,nan,nan,nan,nan,nan,nan,nan,738.1204973915592,841.9378953226842,nan,841.9743421243038,nan,nan,nan,nan
1,68,0,0,nan,nan,nan,0,nan,nan,nan,nan,nan,nan,nan,nan,nan,1,2,0,7,5,8,nan,nan,nan,nan,nan,nan,nan,nan,nan,nan,nan,nan,0.0,nan,nan,nan,nan,nan,nan,nan,nan,nan,nan,nan,nan,nan,nan,nan,nan,nan,nan,738.1204973915592,842.9630320409779,nan,nan,nan,nan,nan,nan
1,69,1,1,nan,nan,nan,1,nan,nan,nan,nan,nan,nan,nan,nan,nan,4,8,2,5,0,1,1.0,1.0,1.0,1.0,1.0,1.0,0.0,0.0,1.0,0.0,0.0,1.0,2.0,3.0,0.0,2.0,4.0,1.0,1.0,3.0,2.0,1.0,6.0,5.0,4.0,3.661924553103745,2.590163639979437,1.4082355403807014,6.725750931305811,5.581725623924285,4.845479131210595,738.1204973915592,843.9881408195943,844.7965775814373,nan,852.5725058715325,853.5720557032619,845.8050195889082,852.5641736262478
1,70,0,0,0.0,1.0,0.6964489456731826,0,nan,nan,nan,nan,nan,nan,nan,nan,nan,2,0,6,8,1,4,nan,nan,nan,nan,nan,nan,nan,nan,nan,nan,nan,nan,0.0,nan,nan,nan,nan,nan,nan,nan,nan,nan,nan,nan,nan,nan,nan,nan,nan,nan,nan,738.1204973915592,853.7976854683366,nan,854.4941344140097,nan,nan,nan,nan
1,71,1,1,1.0,1.0,0.6793026411905885,0,nan,nan,nan,nan,nan,nan,nan,nan,nan,5,8,7,1,2,6,nan,nan,nan,nan,nan,nan,nan,nan,nan,nan,nan,nan,0.0,nan,nan,nan,nan,nan,nan,nan,nan,nan,nan,nan,nan,nan,nan,nan,nan,nan,nan,738.1204973915592,854.8228355862666,nan,855.5021382274572,nan,nan,nan,nan
1,72,1,1,1.0,1.0,0.3101792745292187,0,nan,nan,nan,nan,nan,nan,nan,nan,nan,8,3,6,7,1,4,nan,nan,nan,nan,nan,nan,nan,nan,nan,nan,nan,nan,0.0,nan,nan,nan,nan,nan,nan,nan,nan,nan,nan,nan,nan,nan,nan,nan,nan,nan,nan,738.1204973915592,855.84792440827,nan,856.1581036827993,nan,nan,nan,nan
1,73,0,0,0.0,1.0,0.4769624511245638,0,nan,nan,nan,nan,nan,nan,nan,nan,nan,2,7,5,6,8,0,nan,nan,nan,nan,nan,nan,nan,nan,nan,nan,nan,nan,0.0,nan,nan,nan,nan,nan,nan,nan,nan,nan,nan,nan,nan,nan,nan,nan,nan,nan,nan,738.1204973915592,856.8730788023677,nan,857.3500412534922,nan,nan,nan,nan
1,74,1,1,1.0,1.0,0.6198505065403879,0,nan,nan,nan,nan,nan,nan,nan,nan,nan,5,6,7,4,2,3,nan,nan,nan,nan,nan,nan,nan,nan,nan,nan,nan,nan,0.0,nan,nan,nan,nan,nan,nan,nan,nan,nan,nan,nan,nan,nan,nan,nan,nan,nan,nan,738.1204973915592,857.8981747517828,nan,858.5180252583232,nan,nan,nan,nan
1,75,1,1,nan,nan,nan,0,nan,nan,nan,nan,nan,nan,nan,nan,nan,0,4,2,8,3,5,nan,nan,nan,nan,nan,nan,nan,nan,nan,nan,nan,nan,0.0,nan,nan,nan,nan,nan,nan,nan,nan,nan,nan,nan,nan,nan,nan,nan,nan,nan,nan,738.1204973915592,858.923351383768,nan,nan,nan,nan,nan,nan
1,76,1,1,nan,nan,nan,0,nan,nan,nan,nan,nan,nan,nan,nan,nan,3,5,8,1,4,6,nan,nan,nan,nan,nan,nan,nan,nan,nan,nan,nan,nan,0.0,nan,nan,nan,nan,nan,nan,nan,nan,nan,nan,nan,nan,nan,nan,nan,nan,nan,nan,738.1204973915592,859.9484647240024,nan,nan,nan,nan,nan,nan
1,77,1,1,nan,nan,nan,0,nan,nan,nan,nan,nan,nan,nan,nan,nan,8,1,6,5,0,7,nan,nan,nan,nan,nan,nan,nan,nan,nan,nan,nan,nan,0.0,nan,nan,nan,nan,nan,nan,nan,nan,nan,nan,nan,nan,nan,nan,nan,nan,nan,nan,738.1204973915592,860.9736077145208,nan,nan,nan,nan,nan,nan
1,78,1,1,1.0,1.0,0.7351961953099817,0,nan,nan,nan,nan,nan,nan,nan,nan,nan,5,0,3,7,8,2,nan,nan,nan,nan,nan,nan,nan,nan,nan,nan,nan,nan,0.0,nan,nan,nan,nan,nan,nan,nan,nan,nan,nan,nan,nan,nan,nan,nan,nan,nan,nan,738.1204973915592,861.9987507048063,nan,862.7339469001163,nan,nan,nan,nan
1,79,1,1,1.0,1.0,0.6300196317024529,0,nan,nan,nan,nan,nan,nan,nan,nan,nan,3,7,2,6,1,5,nan,nan,nan,nan,nan,nan,nan,nan,nan,nan,nan,nan,0.0,nan,nan,nan,nan,nan,nan,nan,nan,nan,nan,nan,nan,nan,nan,nan,nan,nan,nan,738.1204973915592,863.023886567913,nan,863.6539061996154,nan,nan,nan,nan
1,80,1,1,1.0,1.0,0.5969033332075924,0,nan,nan,nan,nan,nan,nan,nan,nan,nan,4,2,6,5,3,1,nan,nan,nan,nan,nan,nan,nan,nan,nan,nan,nan,nan,0.0,nan,nan,nan,nan,nan,nan,nan,nan,nan,nan,nan,nan,nan,nan,nan,nan,nan,nan,738.1204973915592,864.0490081759635,nan,864.6459115091711,nan,nan,nan,nan
1,81,1,1,1.0,1.0,0.49173332704231143,0,0.0,0.0,0.0,0.39302958835833124,0.1872148227411456,0.20581476561718565,0.5802444110994769,0.1872148227411456,0.5728854306507856,6,1,3,4,7,5,nan,nan,nan,nan,nan,nan,nan,nan,nan,nan,nan,nan,0.0,nan,nan,nan,nan,nan,nan,nan,nan,nan,nan,nan,nan,nan,nan,nan,nan,nan,nan,738.1204973915592,865.0741178099997,nan,865.565851137042,nan,nan,nan,nan
1,82,1,1,1.0,1.0,0.36264225631020963,0,0.0,0.0,0.0,0.39454810741500784,0.18616591009006112,0.20838219732494673,0.5807140175050689,0.18616591009006112,0.48375963885337114,7,0,1,8,6,2,nan,nan,nan,nan,nan,nan,nan,nan,nan,nan,nan,nan,0.0,nan,nan,nan,nan,nan,nan,nan,nan,nan,nan,nan,nan,nan,nan,nan,nan,nan,nan,738.1204973915592,866.0992148998193,nan,866.4618571561296,nan,nan,nan,nan
1,83,1,1,1.0,1.0,0.39340422372333705,0,0.0,0.0,0.0,0.39406468542857154,0.1847912849890936,0.20927340043947792,0.5788559704176651,0.1847912849890936,0.4159266023586194,0,8,5,7,3,4,nan,nan,nan,nan,nan,nan,nan,nan,nan,nan,nan,nan,0.0,nan,nan,nan,nan,nan,nan,nan,nan,nan,nan,nan,nan,nan,nan,nan,nan,nan,nan,738.1204973915592,867.1244131990243,nan,867.5178174227476,nan,nan,nan,nan
1,84,1,1,1.0,1.0,0.4642881783656776,0,0.0,0.0,0.0,0.39405482779117995,0.18340707860091632,0.21064774919026363,0.5774619063920963,0.18340707860091632,0.4067782194664081,6,1,7,4,8,3,nan,nan,nan,nan,nan,nan,nan,nan,nan,nan,nan,nan,0.0,nan,nan,nan,nan,nan,nan,nan,nan,nan,nan,nan,nan,nan,nan,nan,nan,nan,nan,738.1204973915592,868.149517131038,nan,868.6138053094037,nan,nan,nan,nan
1,85,0,0,0.0,1.0,0.5831183227710426,0,0.0,0.0,0.0,0.3950876711819814,0.18224969408926095,0.21283797709272045,0.5773373652712424,0.18224969408926095,0.4802702416200191,0,2,1,3,6,4,nan,nan,nan,nan,nan,nan,nan,nan,nan,nan,nan,nan,0.0,nan,nan,nan,nan,nan,nan,nan,nan,nan,nan,nan,nan,nan,nan,nan,nan,nan,nan,738.1204973915592,869.1746655383613,nan,869.7577838611323,nan,nan,nan,nan
1,86,1,1,1.0,1.0,0.486047352431342,0,0.0,0.0,0.0,0.3978127530890692,0.18231442002613565,0.21549833306293356,0.5801271731152049,0.18231442002613565,0.5111512845226874,7,5,8,4,3,1,nan,nan,nan,nan,nan,nan,nan,nan,nan,nan,nan,nan,0.0,nan,nan,nan,nan,nan,nan,nan,nan,nan,nan,nan,nan,nan,nan,nan,nan,nan,nan,738.1204973915592,870.1997438117396,nan,870.685791164171,nan,nan,nan,nan
1,87,1,1,1.0,1.0,0.4288491946645081,0,0.0,0.0,0.0,0.3990732473653874,0.18131007063775806,0.21776317672762935,0.5803833180031455,0.18131007063775806,0.4993382899556309,3,6,7,5,2,0,nan,nan,nan,nan,nan,nan,nan,nan,nan,nan,nan,nan,0.0,nan,nan,nan,nan,nan,nan,nan,nan,nan,nan,nan,nan,nan,nan,nan,nan,nan,nan,738.1204973915592,871.2249078992754,nan,871.6537570939399,nan,nan,nan,nan
1,88,1,1,1.0,1.0,0.37969989562407136,0,0.0,0.0,0.0,0.39949262690481163,0.18006290135853162,0.21942972554628,0.5795555282633432,0.18006290135853162,0.43153214757330716,5,0,4,3,1,8,nan,nan,nan,nan,nan,nan,nan,nan,nan,nan,nan,nan,0.0,nan,nan,nan,nan,nan,nan,nan,nan,nan,nan,nan,nan,nan,nan,nan,nan,nan,nan,738.1204973915592,872.2500346391462,nan,872.6297345347703,nan,nan,nan,nan
1,89,1,1,1.0,1.0,0.5225913720205426,0,0.0,0.0,0.0,0.3992177278592458,0.17882309503349975,0.22039463282574606,0.5780408228927456,0.17882309503349975,0.443713487436374,0,1,3,5,6,7,nan,nan,nan,nan,nan,nan,nan,nan,nan,nan,nan,nan,0.0,nan,nan,nan,nan,nan,nan,nan,nan,nan,nan,nan,nan,nan,nan,nan,nan,nan,nan,738.1204973915592,873.275141422404,nan,873.7977327944245,nan,nan,nan,nan
1,90,1,1,1.0,1.0,0.36139182071201503,0,0.0,0.0,0.0,0.40090777777926356,0.17817210777923337,0.2227356700000302,0.5790798855584969,0.17817210777923337,0.42122769611887634,3,8,2,1,5,6,nan,nan,nan,nan,nan,nan,nan,nan,nan,nan,nan,nan,0.0,nan,nan,nan,nan,nan,nan,nan,nan,nan,nan,nan,nan,nan,nan,nan,nan,nan,nan,738.1204973915592,874.3002938209102,nan,874.6616856416222,nan,nan,nan,nan
1,91,1,1,1.0,1.0,0.36029676301404834,0,0.0,0.0,0.0,0.4003737783594359,0.17702295272887675,0.22335082563055914,0.5773967310883126,0.17702295272887675,0.41475998524886865,8,3,7,4,0,2,nan,nan,nan,nan,nan,nan,nan,nan,nan,nan,nan,nan,0.0,nan,nan,nan,nan,nan,nan,nan,nan,nan,nan,nan,nan,nan,nan,nan,nan,nan,nan,738.1204973915592,875.3253800771199,nan,875.685676840134,nan,nan,nan,nan
1,92,1,1,1.0,1.0,0.33511471445672214,0,0.0,0.0,0.0,0.39983941815483076,0.17589891264654572,0.22394050550828504,0.5757383308013765,0.17589891264654572,0.3522677660609285,3,0,5,6,8,1,nan,nan,nan,nan,nan,nan,nan,nan,nan,nan,nan,nan,0.0,nan,nan,nan,nan,nan,nan,nan,nan,nan,nan,nan,nan,nan,nan,nan,nan,nan,nan,738.1204973915592,876.3505301948171,nan,876.6856449092738,nan,nan,nan,nan
1,93,1,1,1.0,1.0,0.40594820701517165,0,0.0,0.0,0.0,0.3989877773166977,0.17489343467168525,0.22409434264501246,0.5738812119883829,0.17489343467168525,0.3671198948286474,6,1,8,0,4,5,nan,nan,nan,nan,nan,nan,nan,nan,nan,nan,nan,nan,0.0,nan,nan,nan,nan,nan,nan,nan,nan,nan,nan,nan,nan,nan,nan,nan,nan,nan,nan,738.1204973915592,877.3756723299157,nan,877.7816205369309,nan,nan,nan,nan
1,94,1,1,1.0,1.0,0.6608044067397714,0,0.0,0.0,0.0,0.399078172507587,0.17375583868459143,0.22532233382299555,0.5728340111921784,0.17375583868459143,0.4672891094038884,7,2,5,8,3,1,nan,nan,nan,nan,nan,nan,nan,nan,nan,nan,nan,nan,0.0,nan,nan,nan,nan,nan,nan,nan,nan,nan,nan,nan,nan,nan,nan,nan,nan,nan,nan,738.1204973915592,878.4007868107874,nan,879.0615912175272,nan,nan,nan,nan
1,95,1,1,nan,nan,nan,0,0.0,0.0,0.0,0.0,0.0,0.0,0.0,0.0,0.0,4,3,2,7,0,5,nan,nan,nan,nan,nan,nan,nan,nan,nan,nan,nan,nan,0.0,nan,nan,nan,nan,nan,nan,nan,nan,nan,nan,nan,nan,nan,nan,nan,nan,nan,nan,738.1204973915592,879.425971710356,nan,nan,nan,nan,nan,nan
1,96,1,1,nan,nan,nan,0,0.0,0.0,0.0,0.0,0.0,0.0,0.0,0.0,0.0,2,7,1,5,3,0,nan,nan,nan,nan,nan,nan,nan,nan,nan,nan,nan,nan,0.0,nan,nan,nan,nan,nan,nan,nan,nan,nan,nan,nan,nan,nan,nan,nan,nan,nan,nan,738.1204973915592,880.4510514091235,nan,nan,nan,nan,nan,nan
1,97,1,1,nan,nan,nan,0,0.0,0.0,0.0,0.0,0.0,0.0,0.0,0.0,0.0,7,4,3,0,8,6,nan,nan,nan,nan,nan,nan,nan,nan,nan,nan,nan,nan,0.0,nan,nan,nan,nan,nan,nan,nan,nan,nan,nan,nan,nan,nan,nan,nan,nan,nan,nan,738.1204973915592,881.4761715917848,nan,nan,nan,nan,nan,nan
1,98,1,1,1.0,1.0,0.0802046312019229,1,1.0,0.0,1.0,0.40243363704902524,0.17513132260644065,0.22730231444258459,0.577564959655466,0.17513132260644065,0.0802046312019229,6,2,0,3,7,5,1.0,1.0,1.0,1.0,1.0,1.0,1.0,1.0,1.0,0.0,0.0,0.0,3.0,6.0,2.0,0.0,7.0,8.0,3.0,3.0,2.0,1.0,6.0,5.0,4.0,4.091956045012921,3.0057050762698054,1.6040407370310277,8.290903865825385,7.492001888575032,5.04309754492715,738.1204973915592,882.5013091654982,883.3097100050654,882.5815137967002,892.660897918744,893.6605284330435,884.3265466939192,892.6525673840661
1,99,1,1,1.0,1.0,0.7831860044971108,0,0.0,0.0,0.0,0.3983547888737455,0.17770882390248052,0.22064596497126496,0.576063612776226,0.17770882390248052,0.43169531784951687,7,8,3,6,2,0,nan,nan,nan,nan,nan,nan,nan,nan,nan,nan,nan,nan,0.0,nan,nan,nan,nan,nan,nan,nan,nan,nan,nan,nan,nan,nan,nan,nan,nan,nan,nan,738.1204973915592,893.8861020340119,nan,894.669288038509,nan,nan,nan,nan
1,100,1,1,1.0,1.0,0.3740860503166914,0,0.0,0.0,0.0,0.40316517906903754,0.18169677823034946,0.22146840083868807,0.584861957299387,0.18169677823034946,0.4124922286719084,2,4,7,0,5,8,nan,nan,nan,nan,nan,nan,nan,nan,nan,nan,nan,nan,0.0,nan,nan,nan,nan,nan,nan,nan,nan,nan,nan,nan,nan,nan,nan,nan,nan,nan,nan,738.1204973915592,894.9111811625771,nan,895.2852672128938,nan,nan,nan,nan
1,101,1,1,1.0,1.0,0.30092474073171616,0,0.0,0.0,0.0,0.4028061774795024,0.18060025750288078,0.22220591997662165,0.5834064349823832,0.18060025750288078,0.4860655985151728,0,7,5,4,3,1,nan,nan,nan,nan,nan,nan,nan,nan,nan,nan,nan,nan,0.0,nan,nan,nan,nan,nan,nan,nan,nan,nan,nan,nan,nan,nan,nan,nan,nan,nan,nan,738.1204973915592,895.9363175956532,nan,896.237242336385,nan,nan,nan,nan
1,102,0,0,0.0,1.0,0.45981158525682986,0,0.0,0.0,0.0,0.4015637209337977,0.1798436291552678,0.22172009177852992,0.5814073500890655,0.1798436291552678,0.37827412543507916,7,8,1,2,4,6,nan,nan,nan,nan,nan,nan,nan,nan,nan,nan,nan,nan,0.0,nan,nan,nan,nan,nan,nan,nan,nan,nan,nan,nan,nan,nan,nan,nan,nan,nan,nan,738.1204973915592,896.9614195320755,nan,897.4212311173324,nan,nan,nan,nan
1,103,1,1,1.0,1.0,0.4266376970335841,0,0.0,0.0,0.0,0.40226550243166553,0.17886987510071267,0.22339562733095286,0.5811353775323782,0.17886987510071267,0.39579134100737673,6,0,8,5,3,7,nan,nan,nan,nan,nan,nan,nan,nan,nan,nan,nan,nan,0.0,nan,nan,nan,nan,nan,nan,nan,nan,nan,nan,nan,nan,nan,nan,nan,nan,nan,nan,738.1204973915592,897.98657079041,nan,898.4132084874436,nan,nan,nan,nan
1,104,1,1,1.0,1.0,0.3694825889542699,0,0.0,0.0,0.0,0.40255564760549795,0.17782163369827161,0.22473401390722633,0.5803772813037695,0.17782163369827161,0.41864395708156127,7,1,5,2,4,6,nan,nan,nan,nan,nan,nan,nan,nan,nan,nan,nan,nan,0.0,nan,nan,nan,nan,nan,nan,nan,nan,nan,nan,nan,nan,nan,nan,nan,nan,nan,nan,738.1204973915592,899.011703517288,nan,899.3811861062422,nan,nan,nan,nan
1,105,1,1,1.0,1.0,0.2883186060935259,0,0.0,0.0,0.0,0.4021665527978364,0.17680849610898972,0.2253580566888467,0.5789750489068262,0.17680849610898972,0.3614796306937933,4,5,7,3,1,8,nan,nan,nan,nan,nan,nan,nan,nan,nan,nan,nan,nan,0.0,nan,nan,nan,nan,nan,nan,nan,nan,nan,nan,nan,nan,nan,nan,nan,nan,nan,nan,738.1204973915592,900.036830827361,nan,900.3251494334545,nan,nan,nan,nan
1,106,1,1,1.0,1.0,0.43118043267168105,0,0.0,0.0,0.0,0.40084273946406535,0.17620074461759427,0.22464199484647107,0.5770434840816596,0.17620074461759427,0.3629938759064923,2,3,8,6,0,7,nan,nan,nan,nan,nan,nan,nan,nan,nan,nan,nan,nan,0.0,nan,nan,nan,nan,nan,nan,nan,nan,nan,nan,nan,nan,nan,nan,nan,nan,nan,nan,738.1204973915592,901.0619578524493,nan,901.493138285121,nan,nan,nan,nan
1,107,0,0,0.0,1.0,0.4140478130429983,0,0.0,0.0,0.0,0.40119144858139427,0.17521501416159208,0.2259764344198022,0.5764064627429863,0.17521501416159208,0.3778489506027351,4,7,0,5,8,1,nan,nan,nan,nan,nan,nan,nan,nan,nan,nan,nan,nan,0.0,nan,nan,nan,nan,nan,nan,nan,nan,nan,nan,nan,nan,nan,nan,nan,nan,nan,nan,738.1204973915592,902.0870825964957,nan,902.5011304095387,nan,nan,nan,nan
1,108,1,1,1.0,1.0,0.46889192471280694,0,0.0,0.0,0.0,0.40133754363209434,0.1742219591100685,0.22711558452202585,0.5755595027421628,0.1742219591100685,0.4380400568091621,3,6,1,7,0,2,nan,nan,nan,nan,nan,nan,nan,nan,nan,nan,nan,nan,0.0,nan,nan,nan,nan,nan,nan,nan,nan,nan,nan,nan,nan,nan,nan,nan,nan,nan,nan,738.1204973915592,903.1122124725953,nan,903.5811043973081,nan,nan,nan,nan
1,109,1,1,1.0,1.0,0.6437128412071615,0,0.0,0.0,0.0,0.40209658162176526,0.17338668641277002,0.22870989520899523,0.5754832680345353,0.17338668641277002,0.5088841929876556,7,2,6,1,5,0,nan,nan,nan,nan,nan,nan,nan,nan,nan,nan,nan,nan,0.0,nan,nan,nan,nan,nan,nan,nan,nan,nan,nan,nan,nan,nan,nan,nan,nan,nan,nan,738.1204973915592,904.1373748495243,nan,904.7810876907315,nan,nan,nan,nan
1,110,1,1,1.0,1.0,0.46660972316749394,0,0.0,0.0,0.0,0.40478120672826967,0.17427091607488732,0.23051029065338235,0.579052122803157,0.17427091607488732,0.5264048296958208,0,8,1,5,3,6,nan,nan,nan,nan,nan,nan,nan,nan,nan,nan,nan,nan,0.0,nan,nan,nan,nan,nan,nan,nan,nan,nan,nan,nan,nan,nan,nan,nan,nan,nan,nan,738.1204973915592,905.1624434296973,nan,905.6290531528648,nan,nan,nan,nan
1,111,0,0,1.0,0.0,0.24152192776091397,0,0.0,0.0,0.0,0.4054606409748545,0.17343055911867983,0.23203008185617469,0.5788912000935343,0.17343055911867983,0.4506148307118565,5,6,4,7,8,0,nan,nan,nan,nan,nan,nan,nan,nan,nan,nan,nan,nan,0.0,nan,nan,nan,nan,nan,nan,nan,nan,nan,nan,nan,nan,nan,nan,nan,nan,nan,nan,738.1204973915592,906.1875467915088,nan,906.4290687192697,nan,nan,nan,nan
1,112,1,1,1.0,1.0,0.48831729451194406,0,0.0,0.0,0.0,0.4036786984399204,0.17332102115476083,0.23035767728515955,0.5769997195946812,0.17332102115476083,0.398816315146784,3,1,7,5,6,2,nan,nan,nan,nan,nan,nan,nan,nan,nan,nan,nan,nan,0.0,nan,nan,nan,nan,nan,nan,nan,nan,nan,nan,nan,nan,nan,nan,nan,nan,nan,nan,738.1204973915592,907.2127217128873,nan,907.7010390073992,nan,nan,nan,nan
1,113,1,1,1.0,1.0,0.407172983745113,0,0.0,0.0,0.0,0.40458879087080235,0.17260754445376292,0.23198124641703943,0.5771963353245653,0.17260754445376292,0.379004068672657,7,6,8,1,2,4,nan,nan,nan,nan,nan,nan,nan,nan,nan,nan,nan,nan,0.0,nan,nan,nan,nan,nan,nan,nan,nan,nan,nan,nan,nan,nan,nan,nan,nan,nan,nan,738.1204973915592,908.2378550099675,nan,908.6450279937126,nan,nan,nan,nan
1,114,1,1,1.0,1.0,0.31805393914692104,0,0.0,0.0,0.0,0.40461628228435886,0.17168716901551925,0.2329291132688396,0.5763034512998781,0.17168716901551925,0.40451473913465935,5,8,2,3,0,6,nan,nan,nan,nan,nan,nan,nan,nan,nan,nan,nan,nan,0.0,nan,nan,nan,nan,nan,nan,nan,nan,nan,nan,nan,nan,nan,nan,nan,nan,nan,nan,738.1204973915592,909.262957516592,nan,909.5810114557389,nan,nan,nan,nan
1,115,1,1,1.0,1.0,0.3488791980780661,0,0.0,0.0,0.0,0.40370509972501745,0.17100949993867062,0.23269559978634682,0.5747145996636881,0.17100949993867062,0.3580353736567001,0,3,8,4,2,1,nan,nan,nan,nan,nan,nan,nan,nan,nan,nan,nan,nan,0.0,nan,nan,nan,nan,nan,nan,nan,nan,nan,nan,nan,nan,nan,nan,nan,nan,nan,nan,738.1204973915592,910.288083401043,nan,910.636962599121,nan,nan,nan,nan
1,116,1,1,1.0,1.0,0.29968856018967927,0,0.0,0.0,0.0,0.4031339965828617,0.1702075396705613,0.2329264569123004,0.573341536253423,0.1702075396705613,0.32220723247155547,3,2,4,8,6,7,nan,nan,nan,nan,nan,nan,nan,nan,nan,nan,nan,nan,0.0,nan,nan,nan,nan,nan,nan,nan,nan,nan,nan,nan,nan,nan,nan,nan,nan,nan,nan,738.1204973915592,911.3132426419761,nan,911.6129312021658,nan,nan,nan,nan
1,117,1,1,1.0,1.0,0.3305528771597892,0,0.0,0.0,0.0,0.40206754878499384,0.16964999958922347,0.23241754919577037,0.5717175483742173,0.16964999958922347,0.32637354514251155,8,1,2,5,7,0,nan,nan,nan,nan,nan,nan,nan,nan,nan,nan,nan,nan,0.0,nan,nan,nan,nan,nan,nan,nan,nan,nan,nan,nan,nan,nan,nan,nan,nan,nan,nan,738.1204973915592,912.3383448636159,nan,912.6688977407757,nan,nan,nan,nan
1,118,1,1,1.0,1.0,0.2654216098599136,0,0.0,0.0,0.0,0.40133780723779783,0.16893517142078385,0.23240263581701398,0.5702729786585816,0.16893517142078385,0.298554349069794,0,7,3,8,4,5,nan,nan,nan,nan,nan,nan,nan,nan,nan,nan,nan,nan,0.0,nan,nan,nan,nan,nan,nan,nan,nan,nan,nan,nan,nan,nan,nan,nan,nan,nan,nan,738.1204973915592,913.3634733140934,nan,913.6288949239533,nan,nan,nan,nan
1,119,1,1,1.0,1.0,0.392195982625708,0,0.0,0.0,0.0,0.399964916355193,0.16862838362435525,0.23133653273083774,0.5685932999795482,0.16862838362435525,0.32939015654847026,1,2,4,7,3,0,nan,nan,nan,nan,nan,nan,nan,nan,nan,nan,nan,nan,0.0,nan,nan,nan,nan,nan,nan,nan,nan,nan,nan,nan,nan,nan,nan,nan,nan,nan,nan,738.1204973915592,914.3886647708714,nan,914.7808607534971,nan,nan,nan,nan
1,120,1,1,1.0,1.0,0.24706649431027472,0,0.0,0.0,0.0,0.39988722701789814,0.16778490389127648,0.23210232312662166,0.5676721309091746,0.16778490389127648,0.3015613622652988,0,3,5,1,6,8,nan,nan,nan,nan,nan,nan,nan,nan,nan,nan,nan,nan,0.0,nan,nan,nan,nan,nan,nan,nan,nan,nan,nan,nan,nan,nan,nan,nan,nan,nan,nan,738.1204973915592,915.413783242926,nan,915.6608497372363,nan,nan,nan,nan
1,121,1,1,1.0,1.0,0.22997264773584902,0,0.0,0.0,0.0,0.3983741504564365,0.16763646264015813,0.23073768781627835,0.5660106130965946,0.16763646264015813,0.28974504155727726,2,0,1,6,3,7,nan,nan,nan,nan,nan,nan,nan,nan,nan,nan,nan,nan,0.0,nan,nan,nan,nan,nan,nan,nan,nan,nan,nan,nan,nan,nan,nan,nan,nan,nan,nan,738.1204973915592,916.4388552443124,nan,916.6688278920483,nan,nan,nan,nan
1,122,1,1,1.0,1.0,0.05278257536701858,1,1.0,0.0,1.0,0.39672315533172486,0.16763585009892154,0.22908730523280332,0.5643590054306464,0.16763585009892154,0.17660723913771412,3,6,4,2,7,8,1.0,1.0,1.0,1.0,1.0,1.0,0.0,0.0,1.0,0.0,0.0,0.0,1.0,6.0,7.0,4.0,8.0,0.0,5.0,3.0,2.0,1.0,6.0,5.0,4.0,9.656286759767681,7.721744748065248,2.91251712734811,12.832094396930188,11.800680412678048,10.641387875191867,738.1204973915592,917.4640053620096,918.2724301498383,917.5167879373766,932.1491593343671,933.148912440287,919.2808764337096,932.1408208170906
1,123,1,1,1.0,1.0,0.6861013497691602,0,0.0,0.0,0.0,0.39338392640002867,0.17019486280584784,0.22318906359418084,0.5635787892058766,0.17019486280584784,0.32295219095734257,8,7,1,0,4,5,nan,nan,nan,nan,nan,nan,nan,nan,nan,nan,nan,nan,0.0,nan,nan,nan,nan,nan,nan,nan,nan,nan,nan,nan,nan,nan,nan,nan,nan,nan,nan,738.1204973915592,933.3743303783704,nan,934.0604317281395,nan,nan,nan,nan
1,124,1,1,1.0,1.0,0.3649247430730611,0,0.0,0.0,0.0,0.3961985170093473,0.1717664899921577,0.22443202701718956,0.567965007001505,0.1717664899921577,0.3679362227364133,2,4,0,1,8,6,nan,nan,nan,nan,nan,nan,nan,nan,nan,nan,nan,nan,0.0,nan,nan,nan,nan,nan,nan,nan,nan,nan,nan,nan,nan,nan,nan,nan,nan,nan,nan,738.1204973915592,934.3995015933178,nan,934.7644263363909,nan,nan,nan,nan
1,125,1,1,1.0,1.0,0.3397900203708559,0,0.0,0.0,0.0,0.3959006715432874,0.17097358055291828,0.22492709099036912,0.5668742520962057,0.17097358055291828,0.46360537107102573,7,1,5,4,2,8,nan,nan,nan,nan,nan,nan,nan,nan,nan,nan,nan,nan,0.0,nan,nan,nan,nan,nan,nan,nan,nan,nan,nan,nan,nan,nan,nan,nan,nan,nan,nan,738.1204973915592,935.4245861389209,nan,935.7643761592917,nan,nan,nan,nan
1,126,1,1,1.0,1.0,0.47463948046788573,0,0.0,0.0,0.0,0.3953713257775097,0.1702516188431425,0.22511970693436723,0.5656229446206522,0.1702516188431425,0.3931180813039343,3,0,6,8,4,2,nan,nan,nan,nan,nan,nan,nan,nan,nan,nan,nan,nan,0.0,nan,nan,nan,nan,nan,nan,nan,nan,nan,nan,nan,nan,nan,nan,nan,nan,nan,nan,738.1204973915592,936.4497425288428,nan,936.9243820093106,nan,nan,nan,nan
1,127,0,0,1.0,0.0,0.2335751336067915,0,0.0,0.0,0.0,0.3961121496531207,0.16962574997361124,0.22648639967950945,0.5657378996267319,0.16962574997361124,0.34933487814851105,2,8,3,4,0,5,nan,nan,nan,nan,nan,nan,nan,nan,nan,nan,nan,nan,0.0,nan,nan,nan,nan,nan,nan,nan,nan,nan,nan,nan,nan,nan,nan,nan,nan,nan,nan,738.1204973915592,937.4748210874386,nan,937.7083962210454,nan,nan,nan,nan
1,128,1,1,1.0,1.0,0.4083903478458524,0,0.0,0.0,0.0,0.39460717728232136,0.16955479390365125,0.22505238337867012,0.5641619711859727,0.16955479390365125,0.37220165397350985,0,5,1,7,4,2,nan,nan,nan,nan,nan,nan,nan,nan,nan,nan,nan,nan,0.0,nan,nan,nan,nan,nan,nan,nan,nan,nan,nan,nan,nan,nan,nan,nan,nan,nan,nan,738.1204973915592,938.4999797581695,nan,938.9083701060154,nan,nan,nan,nan
1,129,1,1,1.0,1.0,0.25524820829741657,0,0.0,0.0,0.0,0.3947336283884088,0.16878034342348397,0.22595328496492484,0.5635139718118928,0.16878034342348397,0.29907122991668683,5,0,2,6,7,3,nan,nan,nan,nan,nan,nan,nan,nan,nan,nan,nan,nan,0.0,nan,nan,nan,nan,nan,nan,nan,nan,nan,nan,nan,nan,nan,nan,nan,nan,nan,nan,738.1204973915592,939.525103647029,nan,939.7803518553264,nan,nan,nan,nan
1,130,0,0,0.0,1.0,0.4380943204741925,0,0.0,0.0,0.0,0.39346557911485436,0.1685321922197279,0.22493338689512646,0.5619977713345823,0.1685321922197279,0.3672442922058205,4,6,8,7,3,5,nan,nan,nan,nan,nan,nan,nan,nan,nan,nan,nan,nan,0.0,nan,nan,nan,nan,nan,nan,nan,nan,nan,nan,nan,nan,nan,nan,nan,nan,nan,nan,738.1204973915592,940.5502329526935,nan,940.9883272731677,nan,nan,nan,nan
1,131,1,1,1.0,1.0,0.3010082740802318,0,0.0,0.0,0.0,0.39386763984782136,0.1678243064752691,0.22604333337255225,0.5616919463230905,0.1678243064752691,0.3314502676172803,6,3,7,1,8,0,nan,nan,nan,nan,nan,nan,nan,nan,nan,nan,nan,nan,0.0,nan,nan,nan,nan,nan,nan,nan,nan,nan,nan,nan,nan,nan,nan,nan,nan,nan,nan,738.1204973915592,941.5753374551423,nan,941.8763457292225,nan,nan,nan,nan
1,132,1,1,1.0,1.0,0.2918352778069675,0,0.0,0.0,0.0,0.3930385383677536,0.16730160512440398,0.22573693324334962,0.5603401434921575,0.16730160512440398,0.3436459574537973,1,2,8,0,6,5,nan,nan,nan,nan,nan,nan,nan,nan,nan,nan,nan,nan,0.0,nan,nan,nan,nan,nan,nan,nan,nan,nan,nan,nan,nan,nan,nan,nan,nan,nan,nan,738.1204973915592,942.600487858057,nan,942.892323135864,nan,nan,nan,nan
1,133,1,1,1.0,1.0,0.18668408785015345,0,0.0,0.0,0.0,0.3921429342919944,0.1668291504456755,0.22531378384631892,0.5589720847376699,0.1668291504456755,0.2598425465791176,2,7,6,1,3,4,nan,nan,nan,nan,nan,nan,nan,nan,nan,nan,nan,nan,0.0,nan,nan,nan,nan,nan,nan,nan,nan,nan,nan,nan,nan,nan,nan,nan,nan,nan,nan,738.1204973915592,943.62561516813,nan,943.8122992559802,nan,nan,nan,nan
1,134,1,1,1.0,1.0,0.23352467152290046,0,0.0,0.0,0.0,0.39034066370917125,0.16719709819966838,0.22314356550950287,0.5575377619088396,0.16719709819966838,0.23734801239334047,8,5,3,6,1,0,nan,nan,nan,nan,nan,nan,nan,nan,nan,nan,nan,nan,0.0,nan,nan,nan,nan,nan,nan,nan,nan,nan,nan,nan,nan,nan,nan,nan,nan,nan,nan,738.1204973915592,944.6507421929855,nan,944.8842668645084,nan,nan,nan,nan
1,135,1,1,1.0,1.0,0.2083471843507141,1,1.0,0.0,1.0,0.3889770463858124,0.16710404356178163,0.22187300282403075,0.556081089947594,0.16710404356178163,0.20951864790792266,1,3,4,2,5,6,1.0,1.0,1.0,1.0,1.0,1.0,0.0,1.0,1.0,0.0,0.0,0.0,2.0,0.0,3.0,4.0,6.0,4.0,2.0,3.0,1.0,2.0,6.0,5.0,4.0,4.900786810787395,1.4206623488571495,2.4518807565327734,9.547250267816707,7.907564136898145,6.227800493594259,738.1204973915592,945.6758677924518,946.4842649258208,945.8842149768025,957.0855841266457,958.0848283343948,947.5010842238553,957.0772607193794
1,136,1,1,nan,nan,nan,0,0.0,0.0,0.0,0.0,0.0,0.0,0.0,0.0,0.0,4,5,8,6,2,1,nan,nan,nan,nan,nan,nan,nan,nan,nan,nan,nan,nan,0.0,nan,nan,nan,nan,nan,nan,nan,nan,nan,nan,nan,nan,nan,nan,nan,nan,nan,nan,738.1204973915592,958.3107913779095,nan,nan,nan,nan,nan,nan
1,137,1,1,nan,nan,nan,0,0.0,0.0,0.0,0.0,0.0,0.0,0.0,0.0,0.0,5,0,3,7,8,6,nan,nan,nan,nan,nan,nan,nan,nan,nan,nan,nan,nan,0.0,nan,nan,nan,nan,nan,nan,nan,nan,nan,nan,nan,nan,nan,nan,nan,nan,nan,nan,738.1204973915592,959.3359135561623,nan,nan,nan,nan,nan,nan
1,138,1,1,1.0,1.0,0.04290139791555703,1,1.0,0.0,1.0,0.38741989240275115,0.16721807041848746,0.2202018219842637,0.5546379628212386,0.16721807041848746,0.04290139791555703,2,1,8,3,4,5,1.0,1.0,1.0,1.0,1.0,1.0,0.0,0.0,0.0,0.0,0.0,0.0,0.0,0.0,4.0,6.0,8.0,5.0,8.0,3.0,1.0,2.0,6.0,5.0,4.0,4.591358481440693,1.7029893561266363,2.6404171197209507,8.142220358364284,7.062779502011836,5.783274384681135,738.1204973915592,960.3610457130708,961.1694616626482,960.4039471109863,970.3622476819437,971.3623009950388,962.1779127933551,970.3539388147183
1,139,1,1,nan,nan,nan,0,0.0,0.0,0.0,0.0,0.0,0.0,0.0,0.0,0.0,1,0,7,6,3,8,nan,nan,nan,nan,nan,nan,nan,nan,nan,nan,nan,nan,0.0,nan,nan,nan,nan,nan,nan,nan,nan,nan,nan,nan,nan,nan,nan,nan,nan,nan,nan,738.1204973915592,971.5874335509725,nan,nan,nan,nan,nan,nan
1,140,1,1,1.0,1.0,0.015105579979717731,0,0.0,0.0,0.0,0.3844752898857666,0.16949540395800078,0.21497988592776585,0.5539706938437674,0.16949540395800078,0.02900348894763738,5,2,8,7,1,0,nan,nan,nan,nan,nan,nan,nan,nan,nan,nan,nan,nan,0.0,nan,nan,nan,nan,nan,nan,nan,nan,nan,nan,nan,nan,nan,nan,nan,nan,nan,nan,738.1204973915592,972.6125503124204,nan,972.6276558924001,nan,nan,nan,nan
1,141,1,1,1.0,1.0,0.26996320532634854,1,1.0,0.0,1.0,0.3813450381069018,0.17213846225340831,0.20920657585349348,0.5534835003603101,0.17213846225340831,0.14253439265303314,7,6,3,4,0,8,1.0,1.0,1.0,1.0,1.0,1.0,1.0,1.0,0.0,0.0,0.0,1.0,3.0,7.0,6.0,4.0,5.0,4.0,8.0,2.0,1.0,6.0,5.0,4.0,3.0,2.507354362634942,1.1239886896219105,9.577407544478774,8.481816227780655,5.913629290647805,3.6828615074045956,738.1204973915592,973.6376773375086,974.4461195161566,973.907640542835,985.0724351673853,986.0717979755718,975.4545783442445,985.0641077689361
1,142,1,1,1.0,1.0,0.5777188704814762,0,0.0,0.0,0.0,0.38040905631882993,0.17171493827943193,0.208694118039398,0.5521239945982619,0.17171493827943193,0.2875958852625142,3,8,7,5,2,4,nan,nan,nan,nan,nan,nan,nan,nan,nan,nan,nan,nan,0.0,nan,nan,nan,nan,nan,nan,nan,nan,nan,nan,nan,nan,nan,nan,nan,nan,nan,nan,738.1204973915592,986.2976504014805,nan,986.875369271962,nan,nan,nan,nan
1,143,1,1,1.0,1.0,0.5286194633226842,0,0.0,0.0,0.0,0.3820533047701853,0.17193611022162922,0.21011719454855607,0.5539894149918145,0.17193611022162922,0.4587671797101696,6,4,5,2,0,7,nan,nan,nan,nan,nan,nan,nan,nan,nan,nan,nan,nan,0.0,nan,nan,nan,nan,nan,nan,nan,nan,nan,nan,nan,nan,nan,nan,nan,nan,nan,nan,738.1204973915592,987.3227295300458,nan,987.8513489933684,nan,nan,nan,nan
1,144,0,0,0.0,1.0,0.5914651076309383,0,0.0,0.0,0.0,0.3832645953367349,0.1717375285547402,0.2115270667819947,0.5550021238914751,0.1717375285547402,0.5659344804783663,0,8,6,7,1,3,nan,nan,nan,nan,nan,nan,nan,nan,nan,nan,nan,nan,0.0,nan,nan,nan,nan,nan,nan,nan,nan,nan,nan,nan,nan,nan,nan,nan,nan,nan,nan,738.1204973915592,988.3478688143659,nan,988.9393339219969,nan,nan,nan,nan
1,145,1,1,nan,nan,nan,0,0.0,0.0,0.0,0.0,0.0,0.0,0.0,0.0,0.0,4,6,8,2,0,7,nan,nan,nan,nan,nan,nan,nan,nan,nan,nan,nan,nan,0.0,nan,nan,nan,nan,nan,nan,nan,nan,nan,nan,nan,nan,nan,nan,nan,nan,nan,nan,738.1204973915592,989.3730388889089,nan,nan,nan,nan,nan,nan
1,146,1,1,1.0,1.0,0.5811659784521908,1,0.0,1.0,1.0,0.3849711569129169,0.17205935333935748,0.2129118035735594,0.5570305102522743,0.17205935333935748,0.5863155430415645,3,2,6,0,1,4,1.0,1.0,1.0,1.0,1.0,1.0,1.0,1.0,0.0,0.0,1.0,1.0,4.0,3.0,2.0,5.0,1.0,1.0,4.0,2.0,1.0,6.0,5.0,4.0,3.0,3.0182878328487277,2.131069644121453,10.896584195783362,6.480521602090448,5.697572513017803,3.792755856178701,738.1204973915592,990.3981202982832,991.2065567751415,990.9792862767354,1003.1496841979679,1004.1494632477406,992.2150013484061,1003.1413818879519
1,147,1,1,1.0,1.0,0.4760991772636771,0,0.0,0.0,0.0,0.3865662367628297,0.1722618264391433,0.21430441032368638,0.558828063201973,0.1722618264391433,0.5286325778579339,4,0,8,2,5,6,nan,nan,nan,nan,nan,nan,nan,nan,nan,nan,nan,nan,0.0,nan,nan,nan,nan,nan,nan,nan,nan,nan,nan,nan,nan,nan,nan,nan,nan,nan,nan,738.1204973915592,1004.3748985766433,nan,1004.850997753907,nan,nan,nan,nan
1,148,1,1,1.0,1.0,0.41894492437131703,0,0.0,0.0,0.0,0.38728827660557846,0.17175259620066322,0.21553568040491525,0.5590408728062417,0.17175259620066322,0.4920700266957283,5,1,3,4,6,2,nan,nan,nan,nan,nan,nan,nan,nan,nan,nan,nan,nan,0.0,nan,nan,nan,nan,nan,nan,nan,nan,nan,nan,nan,nan,nan,nan,nan,nan,nan,nan,738.1204973915592,1005.4000176189002,nan,1005.8189625432715,nan,nan,nan,nan
1,149,1,1,nan,nan,nan,0,0.0,0.0,0.0,0.0,0.0,0.0,0.0,0.0,0.0,7,2,8,3,5,1,nan,nan,nan,nan,nan,nan,nan,nan,nan,nan,nan,nan,0.0,nan,nan,nan,nan,nan,nan,nan,nan,nan,nan,nan,nan,nan,nan,nan,nan,nan,nan,738.1204973915592,1006.4251466395799,nan,nan,nan,nan,nan,nan
1,150,1,1,1.0,1.0,0.7046711435541511,1,0.0,1.0,1.0,0.38754152978770434,0.17108745037805254,0.2164540794096518,0.5586289801657569,0.17108745037805254,0.561808033962734,0,1,7,5,8,4,1.0,1.0,1.0,1.0,1.0,1.0,1.0,1.0,0.0,1.0,0.0,0.0,3.0,0.0,1.0,1.0,5.0,4.0,3.0,3.0,1.0,2.0,6.0,5.0,4.0,3.2757090504746884,1.2036413729656488,2.1580104562453926,7.395756558980793,5.547863796586171,4.1801910034846514,738.1204973915592,1007.4502765154466,1008.2586841974407,1008.1549476590008,1016.709734181175,1017.7089681255165,1009.275467858417,1016.7013985149097
1,151,1,1,1.0,1.0,0.5958136925473809,0,0.0,0.0,0.0,0.39005843148426345,0.17271495618808486,0.2173434752961786,0.5627733876723483,0.17271495618808486,0.650242418050766,4,7,3,8,1,6,nan,nan,nan,nan,nan,nan,nan,nan,nan,nan,nan,nan,0.0,nan,nan,nan,nan,nan,nan,nan,nan,nan,nan,nan,nan,nan,nan,nan,nan,nan,nan,738.1204973915592,1017.9349180546124,nan,1018.5307317471597,nan,nan,nan,nan
1,152,1,1,1.0,1.0,0.45867860969156027,0,0.0,0.0,0.0,0.3916785516501148,0.17299217921150864,0.21868637243860614,0.5646707308616234,0.17299217921150864,0.5863878152643641,8,3,5,0,4,1,nan,nan,nan,nan,nan,nan,nan,nan,nan,nan,nan,nan,0.0,nan,nan,nan,nan,nan,nan,nan,nan,nan,nan,nan,nan,nan,nan,nan,nan,nan,nan,738.1204973915592,1018.9600362414494,nan,1019.418714851141,nan,nan,nan,nan
1,153,1,1,1.0,1.0,0.3294977331534028,0,0.0,0.0,0.0,0.39220198960356356,0.1724160412546026,0.21978594834896095,0.5646180308581662,0.1724160412546026,0.461330011797448,5,2,0,8,1,4,nan,nan,nan,nan,nan,nan,nan,nan,nan,nan,nan,nan,0.0,nan,nan,nan,nan,nan,nan,nan,nan,nan,nan,nan,nan,nan,nan,nan,nan,nan,nan,738.1204973915592,1019.9851917761844,nan,1020.3146895093378,nan,nan,nan,nan
1,154,1,1,1.0,1.0,0.20837084739468992,0,0.0,0.0,0.0,0.391715910096198,0.17183448473528806,0.21988142536090993,0.5635503948314861,0.17183448473528806,0.332182396746551,0,5,7,2,3,1,nan,nan,nan,nan,nan,nan,nan,nan,nan,nan,nan,nan,0.0,nan,nan,nan,nan,nan,nan,nan,nan,nan,nan,nan,nan,nan,nan,nan,nan,nan,nan,738.1204973915592,1021.0103022654075,nan,1021.2186731128022,nan,nan,nan,nan
1,155,1,1,1.0,1.0,0.3512509202118963,0,0.0,0.0,0.0,0.39030556346003253,0.1719201840866814,0.21838537937335115,0.562225747546714,0.1719201840866814,0.2963731669199963,5,6,0,7,4,3,nan,nan,nan,nan,nan,nan,nan,nan,nan,nan,nan,nan,0.0,nan,nan,nan,nan,nan,nan,nan,nan,nan,nan,nan,nan,nan,nan,nan,nan,nan,nan,738.1204973915592,1022.0354050572496,nan,1022.3866559774615,nan,nan,nan,nan
1,156,1,1,1.0,1.0,0.3180582157801837,0,0.0,0.0,0.0,0.3900074364123368,0.17129647265891323,0.21871096375342358,0.56130390907125,0.17129647265891323,0.2925599944622566,3,7,5,2,6,8,nan,nan,nan,nan,nan,nan,nan,nan,nan,nan,nan,nan,0.0,nan,nan,nan,nan,nan,nan,nan,nan,nan,nan,nan,nan,nan,nan,nan,nan,nan,nan,738.1204973915592,1023.0605768423993,nan,1023.3786350581795,nan,nan,nan,nan
1,157,1,1,1.0,1.0,0.31694405642338097,0,0.0,0.0,0.0,0.38946236655906297,0.17076038846440653,0.21870197809465644,0.5602227550234695,0.17076038846440653,0.328751064138487,7,6,8,3,1,5,nan,nan,nan,nan,nan,nan,nan,nan,nan,nan,nan,nan,0.0,nan,nan,nan,nan,nan,nan,nan,nan,nan,nan,nan,nan,nan,nan,nan,nan,nan,nan,738.1204973915592,1024.0856790640391,nan,1024.4026231204625,nan,nan,nan,nan
1,158,1,1,1.0,1.0,0.48384839901700616,0,0.0,0.0,0.0,0.388917116106915,0.17023252386444726,0.21868459224246772,0.5591496399713622,0.17023252386444726,0.37295022374019027,6,7,5,1,2,4,nan,nan,nan,nan,nan,nan,nan,nan,nan,nan,nan,nan,0.0,nan,nan,nan,nan,nan,nan,nan,nan,nan,nan,nan,nan,nan,nan,nan,nan,nan,nan,738.1204973915592,1025.1108112207148,nan,1025.5946596197318,nan,nan,nan,nan
1,159,1,1,1.0,1.0,0.6906315411906689,0,0.0,0.0,0.0,0.3896255585166918,0.16979281965453144,0.21983273886216034,0.5594183781712232,0.16979281965453144,0.497141332210352,8,4,2,7,3,1,nan,nan,nan,nan,nan,nan,nan,nan,nan,nan,nan,nan,0.0,nan,nan,nan,nan,nan,nan,nan,nan,nan,nan,nan,nan,nan,nan,nan,nan,nan,nan,738.1204973915592,1026.1359348245896,nan,1026.8265663657803,nan,nan,nan,nan
1,160,1,1,nan,nan,nan,0,0.0,0.0,0.0,0.0,0.0,0.0,0.0,0.0,0.0,6,2,0,3,8,4,nan,nan,nan,nan,nan,nan,nan,nan,nan,nan,nan,nan,0.0,nan,nan,nan,nan,nan,nan,nan,nan,nan,nan,nan,nan,nan,nan,nan,nan,nan,nan,738.1204973915592,1027.1610729682725,nan,nan,nan,nan,nan,nan
1,161,0,0,nan,nan,nan,0,0.0,0.0,0.0,0.0,0.0,0.0,0.0,0.0,0.0,4,6,3,5,0,8,nan,nan,nan,nan,nan,nan,nan,nan,nan,nan,nan,nan,0.0,nan,nan,nan,nan,nan,nan,nan,nan,nan,nan,nan,nan,nan,nan,nan,nan,nan,nan,738.1204973915592,1028.1862133927643,nan,nan,nan,nan,nan,nan
1,162,1,1,1.0,1.0,0.7751804806757718,1,0.0,1.0,1.0,0.39185523246242493,0.1711204919140875,0.22073474054833742,0.5629757243765124,0.1711204919140875,0.7751804806757718,7,8,1,2,4,0,1.0,1.0,1.0,1.0,1.0,1.0,0.0,1.0,1.0,0.0,0.0,0.0,2.0,3.0,8.0,1.0,7.0,8.0,4.0,3.0,1.0,2.0,6.0,5.0,4.0,3.9463792394381016,1.1976092904806137,2.802931823534891,8.498175093904138,7.538656303426251,6.491735607851297,738.1204973915592,1029.2113235970028,1030.0197307087947,1029.9865040776785,1039.5625990354456,1040.5627492817584,1031.0282137703616,1039.554262798978
1,163,1,1,nan,nan,nan,0,0.0,0.0,0.0,0.0,0.0,0.0,0.0,0.0,0.0,8,7,4,5,2,3,nan,nan,nan,nan,nan,nan,nan,nan,nan,nan,nan,nan,0.0,nan,nan,nan,nan,nan,nan,nan,nan,nan,nan,nan,nan,nan,nan,nan,nan,nan,nan,738.1204973915592,1040.7878014401067,nan,nan,nan,nan,nan,nan
1,164,1,1,1.0,1.0,0.48531835922040045,0,0.0,0.0,0.0,0.39467380046399364,0.1736070166920935,0.22106678377190014,0.5682808171560871,0.1736070166920935,0.6302494199480861,1,6,5,2,8,7,nan,nan,nan,nan,nan,nan,nan,nan,nan,nan,nan,nan,0.0,nan,nan,nan,nan,nan,nan,nan,nan,nan,nan,nan,nan,nan,nan,nan,nan,nan,nan,738.1204973915592,1041.812895678915,nan,1042.2982140381355,nan,nan,nan,nan
1,165,1,1,1.0,1.0,0.3242134600877762,0,0.0,0.0,0.0,0.3953354395790039,0.1731442660645139,0.22219117351449,0.5684797056435178,0.1731442660645139,0.4047659096540883,4,5,6,8,1,2,nan,nan,nan,nan,nan,nan,nan,nan,nan,nan,nan,nan,0.0,nan,nan,nan,nan,nan,nan,nan,nan,nan,nan,nan,nan,nan,nan,nan,nan,nan,nan,738.1204973915592,1042.8380075937603,nan,1043.162221053848,nan,nan,nan,nan
1,166,1,1,1.0,1.0,0.21906740218400955,0,0.0,0.0,0.0,0.394820062916024,0.17262122463182433,0.22219883828419967,0.5674412875478483,0.17262122463182433,0.3428664071640621,5,4,8,6,0,1,nan,nan,nan,nan,nan,nan,nan,nan,nan,nan,nan,nan,0.0,nan,nan,nan,nan,nan,nan,nan,nan,nan,nan,nan,nan,nan,nan,nan,nan,nan,nan,738.1204973915592,1043.863134333631,nan,1044.082201735815,nan,nan,nan,nan
1,167,1,1,1.0,1.0,0.241945011774078,0,0.0,0.0,0.0,0.3935556552848584,0.17263932560152745,0.22091632968333097,0.5661949808863859,0.17263932560152745,0.26174195801528793,7,6,3,4,2,8,nan,nan,nan,nan,nan,nan,nan,nan,nan,nan,nan,nan,0.0,nan,nan,nan,nan,nan,nan,nan,nan,nan,nan,nan,nan,nan,nan,nan,nan,nan,nan,738.1204973915592,1044.8882368402556,nan,1045.1301818520296,nan,nan,nan,nan
1,168,1,1,1.0,1.0,0.23274521622806787,0,0.0,0.0,0.0,0.3924727221169243,0.17249481173291153,0.21997791038401276,0.5649675338498359,0.17249481173291153,0.23125254339538515,3,1,4,7,5,0,nan,nan,nan,nan,nan,nan,nan,nan,nan,nan,nan,nan,0.0,nan,nan,nan,nan,nan,nan,nan,nan,nan,nan,nan,nan,nan,nan,nan,nan,nan,nan,738.1204973915592,1045.9134200294502,nan,1046.1461652456783,nan,nan,nan,nan
1,169,1,1,1.0,1.0,0.24757738807238638,0,0.0,0.0,0.0,0.39133990292622317,0.1724038707218318,0.21893603220439137,0.563743773648055,0.1724038707218318,0.24075587202484408,2,6,8,0,1,7,nan,nan,nan,nan,nan,nan,nan,nan,nan,nan,nan,nan,0.0,nan,nan,nan,nan,nan,nan,nan,nan,nan,nan,nan,nan,nan,nan,nan,nan,nan,nan,738.1204973915592,1046.9385333696846,nan,1047.186110757757,nan,nan,nan,nan
1,170,1,1,1.0,1.0,0.3584712869487703,0,0.0,0.0,0.0,0.3903274908497877,0.17221585002533285,0.21811164082445483,0.5625433408751206,0.17221585002533285,0.2795979637497415,3,4,0,7,5,6,nan,nan,nan,nan,nan,nan,nan,nan,nan,nan,nan,nan,0.0,nan,nan,nan,nan,nan,nan,nan,nan,nan,nan,nan,nan,nan,nan,nan,nan,nan,nan,738.1204973915592,1047.9636735091917,nan,1048.3221447961405,nan,nan,nan,nan
1,171,0,0,0.0,1.0,0.5973332596477121,0,0.0,0.0,0.0,0.39010472019313724,0.17163317076933748,0.21847154942379976,0.5617378909624747,0.17163317076933748,0.4011273115562896,8,3,7,6,4,0,nan,nan,nan,nan,nan,nan,nan,nan,nan,nan,nan,nan,0.0,nan,nan,nan,nan,nan,nan,nan,nan,nan,nan,nan,nan,nan,nan,nan,nan,nan,nan,738.1204973915592,1048.9887774412055,nan,1049.5861107008532,nan,nan,nan,nan
1,172,1,1,1.0,1.0,0.39611236029304564,0,0.0,0.0,0.0,0.3915438072726829,0.1718997533032407,0.2196440539694422,0.5634435605759236,0.1718997533032407,0.450638968963176,6,8,5,0,2,1,nan,nan,nan,nan,nan,nan,nan,nan,nan,nan,nan,nan,0.0,nan,nan,nan,nan,nan,nan,nan,nan,nan,nan,nan,nan,nan,nan,nan,nan,nan,nan,738.1204973915592,1050.0139492263552,nan,1050.4100615866482,nan,nan,nan,nan
1,173,1,1,nan,nan,nan,0,0.0,0.0,0.0,0.0,0.0,0.0,0.0,0.0,0.0,5,4,7,8,3,0,nan,nan,nan,nan,nan,nan,nan,nan,nan,nan,nan,nan,0.0,nan,nan,nan,nan,nan,nan,nan,nan,nan,nan,nan,nan,nan,nan,nan,nan,nan,nan,738.1204973915592,1051.0390577202197,nan,nan,nan,nan,nan,nan
1,174,1,1,nan,nan,nan,0,0.0,0.0,0.0,0.0,0.0,0.0,0.0,0.0,0.0,2,6,4,7,5,3,nan,nan,nan,nan,nan,nan,nan,nan,nan,nan,nan,nan,0.0,nan,nan,nan,nan,nan,nan,nan,nan,nan,nan,nan,nan,nan,nan,nan,nan,nan,nan,738.1204973915592,1052.0641884512734,nan,nan,nan,nan,nan,nan
1,175,1,1,1.0,1.0,0.4087016738485545,0,0.0,0.0,0.0,0.3915753145348923,0.17130638723275432,0.22026892730213798,0.5628817017676466,0.17130638723275432,0.4087016738485545,6,4,5,8,2,7,nan,nan,nan,nan,nan,nan,nan,nan,nan,nan,nan,nan,0.0,nan,nan,nan,nan,nan,nan,nan,nan,nan,nan,nan,nan,nan,nan,nan,nan,nan,nan,738.1204973915592,1053.089313765755,nan,1053.4980154396035,nan,nan,nan,nan
1,176,1,1,1.0,1.0,0.287566235056147,0,0.0,0.0,0.0,0.39169261836580777,0.17072455701398745,0.22096806135182032,0.5624171753797952,0.17072455701398745,0.34813395445235074,5,1,6,7,0,4,nan,nan,nan,nan,nan,nan,nan,nan,nan,nan,nan,nan,0.0,nan,nan,nan,nan,nan,nan,nan,nan,nan,nan,nan,nan,nan,nan,nan,nan,nan,nan,738.1204973915592,1054.1144239699934,nan,1054.4019902050495,nan,nan,nan,nan
1,177,1,1,1.0,1.0,0.2863967672456056,0,0.0,0.0,0.0,0.39098427562220467,0.1703580104641172,0.22062626515808748,0.5613422860863219,0.1703580104641172,0.32755489205010235,8,7,2,6,4,0,nan,nan,nan,nan,nan,nan,nan,nan,nan,nan,nan,nan,0.0,nan,nan,nan,nan,nan,nan,nan,nan,nan,nan,nan,nan,nan,nan,nan,nan,nan,nan,738.1204973915592,1055.1395738027059,nan,1055.4259705699515,nan,nan,nan,nan
1,178,1,1,1.0,1.0,0.2372537401970476,0,0.0,0.0,0.0,0.39027760326830874,0.16999755248662735,0.2202800507816814,0.5602751557549361,0.16999755248662735,0.27040558083293337,3,4,6,1,0,7,nan,nan,nan,nan,nan,nan,nan,nan,nan,nan,nan,nan,0.0,nan,nan,nan,nan,nan,nan,nan,nan,nan,nan,nan,nan,nan,nan,nan,nan,nan,nan,738.1204973915592,1056.1647045339923,nan,1056.4019582741894,nan,nan,nan,nan
1,179,1,1,1.0,1.0,0.3400748323183507,0,0.0,0.0,0.0,0.38925059747588414,0.16988618353958432,0.21936441393629982,0.5591367810154685,0.16988618353958432,0.28790844658700127,4,3,5,2,8,1,nan,nan,nan,nan,nan,nan,nan,nan,nan,nan,nan,nan,0.0,nan,nan,nan,nan,nan,nan,nan,nan,nan,nan,nan,nan,nan,nan,nan,nan,nan,nan,738.1204973915592,1057.18984809448,nan,1057.5299229267985,nan,nan,nan,nan
1,180,0,0,0.0,1.0,0.6749460739083588,0,0.0,0.0,0.0,0.3889227590415006,0.16936623281048133,0.21955652623101926,0.5582889918519819,0.16936623281048133,0.41742488214125234,8,4,0,3,5,6,nan,nan,nan,nan,nan,nan,nan,nan,nan,nan,nan,nan,0.0,nan,nan,nan,nan,nan,nan,nan,nan,nan,nan,nan,nan,nan,nan,nan,nan,nan,nan,738.1204973915592,1058.2149551627226,nan,1058.889901236631,nan,nan,nan,nan
1,181,1,1,1.0,1.0,0.47378846583887935,0,0.0,0.0,0.0,0.39081695317969173,0.17039116810552474,0.220425785074167,0.5612081212852165,0.17039116810552474,0.4962697906885296,4,0,8,2,1,5,nan,nan,nan,nan,nan,nan,nan,nan,nan,nan,nan,nan,0.0,nan,nan,nan,nan,nan,nan,nan,nan,nan,nan,nan,nan,nan,nan,nan,nan,nan,nan,738.1204973915592,1059.2400887450203,nan,1059.7138772108592,nan,nan,nan,nan
1,182,1,1,1.0,1.0,0.5926439838949591,1,0.0,1.0,1.0,0.3913628183945548,0.16996216018637936,0.22140065820817542,0.5613249785809341,0.16996216018637936,0.5804595078807324,2,6,0,1,3,4,1.0,1.0,1.0,1.0,1.0,1.0,1.0,1.0,0.0,0.0,0.0,1.0,3.0,2.0,6.0,6.0,3.0,1.0,4.0,2.0,1.0,6.0,5.0,4.0,3.0,2.0859995130449533,1.284707852639258,7.627883399836719,6.596335990354419,4.373364469734952,3.0127900221850723,738.1204973915592,1060.265209497884,1061.07360663102,1060.8578534817789,1069.7496637280565,1070.748816134641,1062.082087411778,1069.7413286317606
1,183,1,1,1.0,1.0,0.794749254360795,0,0.0,0.0,0.0,0.39267838156776,0.1701804879173205,0.22249789365043954,0.5628588694850805,0.1701804879173205,0.6203939013648778,1,7,6,8,5,2,nan,nan,nan,nan,nan,nan,nan,nan,nan,nan,nan,nan,0.0,nan,nan,nan,nan,nan,nan,nan,nan,nan,nan,nan,nan,nan,nan,nan,nan,nan,nan,738.1204973915592,1070.9748584351037,nan,1071.7696076894645,nan,nan,nan,nan
1,184,1,1,1.0,1.0,0.5376259628683329,0,0.0,0.0,0.0,0.39528923139109146,0.17267387633676418,0.22261535505432728,0.5679631077278556,0.17267387633676418,0.6416730670413623,6,2,7,5,3,8,nan,nan,nan,nan,nan,nan,nan,nan,nan,nan,nan,nan,0.0,nan,nan,nan,nan,nan,nan,nan,nan,nan,nan,nan,nan,nan,nan,nan,nan,nan,nan,738.1204973915592,1071.9999874557834,nan,1072.5376134186517,nan,nan,nan,nan
1,185,1,1,1.0,1.0,0.3044351402204484,0,0.0,0.0,0.0,0.396207532884493,0.17249280943864745,0.22371472344584556,0.5687003423231405,0.17249280943864745,0.5456034524831921,2,3,6,0,7,1,nan,nan,nan,nan,nan,nan,nan,nan,nan,nan,nan,nan,0.0,nan,nan,nan,nan,nan,nan,nan,nan,nan,nan,nan,nan,nan,nan,nan,nan,nan,nan,738.1204973915592,1073.0251595259178,nan,1073.3295946661383,nan,nan,nan,nan
1,186,1,1,1.0,1.0,0.23930358770303428,0,0.0,0.0,0.0,0.3956192483161337,0.17209498023264275,0.22352426808349096,0.5677142285487764,0.17209498023264275,0.3604548969306052,3,5,7,1,6,4,nan,nan,nan,nan,nan,nan,nan,nan,nan,nan,nan,nan,0.0,nan,nan,nan,nan,nan,nan,nan,nan,nan,nan,nan,nan,nan,nan,nan,nan,nan,nan,738.1204973915592,1074.0502722961828,nan,1074.2895758838858,nan,nan,nan,nan
1,187,1,1,1.0,1.0,0.24616672820411623,0,0.0,0.0,0.0,0.3946236071657318,0.17199617419029525,0.22262743297543655,0.5666197813560271,0.17199617419029525,0.2633018187091996,1,0,8,4,5,3,nan,nan,nan,nan,nan,nan,nan,nan,nan,nan,nan,nan,0.0,nan,nan,nan,nan,nan,nan,nan,nan,nan,nan,nan,nan,nan,nan,nan,nan,nan,nan,738.1204973915592,1075.0753870618064,nan,1075.3215537900105,nan,nan,nan,nan
1,188,1,1,1.0,1.0,0.24501750222407281,0,0.0,0.0,0.0,0.39368400666597475,0.17185476155129717,0.22182924511467758,0.5655387682172719,0.17185476155129717,0.24349593937707445,3,8,5,1,7,0,nan,nan,nan,nan,nan,nan,nan,nan,nan,nan,nan,nan,0.0,nan,nan,nan,nan,nan,nan,nan,nan,nan,nan,nan,nan,nan,nan,nan,nan,nan,nan,738.1204973915592,1076.1005189334974,nan,1076.3455364357214,nan,nan,nan,nan
1,189,1,1,1.0,1.0,0.36386076104827225,0,0.0,0.0,0.0,0.392748997204076,0.17171616293846967,0.22103283426560635,0.5644651601425457,0.17171616293846967,0.28501499715882045,6,0,4,3,2,7,nan,nan,nan,nan,nan,nan,nan,nan,nan,nan,nan,nan,0.0,nan,nan,nan,nan,nan,nan,nan,nan,nan,nan,nan,nan,nan,nan,nan,nan,nan,nan,738.1204973915592,1077.1256539411843,nan,1077.4895147022326,nan,nan,nan,nan
1,190,1,1,1.0,1.0,0.3787071877159178,0,0.0,0.0,0.0,0.39256844572810223,0.17119384794820272,0.2213745977798995,0.5637622936763049,0.17119384794820272,0.329195150329421,2,6,8,5,7,3,nan,nan,nan,nan,nan,nan,nan,nan,nan,nan,nan,nan,0.0,nan,nan,nan,nan,nan,nan,nan,nan,nan,nan,nan,nan,nan,nan,nan,nan,nan,nan,738.1204973915592,1078.1507849574555,nan,1078.5294921451714,nan,nan,nan,nan
1,191,1,1,1.0,1.0,0.4575519061181694,0,0.0,0.0,0.0,0.39248235095784023,0.17066483649841294,0.2218175144594273,0.5631471874562531,0.17066483649841294,0.40003995162745315,0,4,1,2,8,5,nan,nan,nan,nan,nan,nan,nan,nan,nan,nan,nan,nan,0.0,nan,nan,nan,nan,nan,nan,nan,nan,nan,nan,nan,nan,nan,nan,nan,nan,nan,nan,738.1204973915592,1079.1759097017348,nan,1079.633461607853,nan,nan,nan,nan
1,192,0,0,nan,nan,nan,0,0.0,0.0,0.0,0.0,0.0,0.0,0.0,0.0,0.0,7,1,5,3,6,2,nan,nan,nan,nan,nan,nan,nan,nan,nan,nan,nan,nan,0.0,nan,nan,nan,nan,nan,nan,nan,nan,nan,nan,nan,nan,nan,nan,nan,nan,nan,nan,738.1204973915592,1080.2010355864186,nan,nan,nan,nan,nan,nan
1,193,1,1,nan,nan,nan,0,0.0,0.0,0.0,0.0,0.0,0.0,0.0,0.0,0.0,0,6,1,2,5,8,nan,nan,nan,nan,nan,nan,nan,nan,nan,nan,nan,nan,0.0,nan,nan,nan,nan,nan,nan,nan,nan,nan,nan,nan,nan,nan,nan,nan,nan,nan,nan,738.1204973915592,1081.2261708790902,nan,nan,nan,nan,nan,nan
1,194,1,1,1.0,1.0,0.7581003189552575,1,0.0,1.0,1.0,0.392884014878583,0.17021359537281514,0.22267041950576785,0.5630976102513982,0.17021359537281514,0.7581003189552575,3,1,7,6,0,5,1.0,1.0,1.0,1.0,1.0,1.0,0.0,0.0,1.0,0.0,0.0,0.0,1.0,1.0,3.0,7.0,8.0,6.0,2.0,3.0,2.0,1.0,6.0,5.0,4.0,3.3710303804837167,2.1783116441220045,1.4733300299849361,7.473471153061837,6.170196927851066,4.746640274301171,738.1204973915592,1082.2512941977475,1083.059697033139,1083.0093945167027,1091.5774155270774,1092.576617255574,1084.068151870044,1091.5691103660502
1,195,1,1,1.0,1.0,0.5265661948360503,0,0.0,0.0,0.0,0.3951246057011393,0.17207033931481458,0.2230542663863247,0.5671949450159539,0.17207033931481458,0.6423332568956539,5,7,0,1,6,2,nan,nan,nan,nan,nan,nan,nan,nan,nan,nan,nan,nan,0.0,nan,nan,nan,nan,nan,nan,nan,nan,nan,nan,nan,nan,nan,nan,nan,nan,nan,nan,738.1204973915592,1092.8026162211318,nan,1093.3291824159678,nan,nan,nan,nan
1,196,1,1,1.0,1.0,0.4693774450570345,0,0.0,0.0,0.0,0.3959260788056204,0.17184984258418,0.2240762362214404,0.5677759213898004,0.17184984258418,0.5846813196161141,4,6,3,5,0,1,nan,nan,nan,nan,nan,nan,nan,nan,nan,nan,nan,nan,0.0,nan,nan,nan,nan,nan,nan,nan,nan,nan,nan,nan,nan,nan,nan,nan,nan,nan,nan,738.1204973915592,1093.827766909264,nan,1094.297144354321,nan,nan,nan,nan
1,197,1,1,1.0,1.0,0.18824841524474323,0,0.0,0.0,0.0,0.39637123860108353,0.171423113299388,0.22494812530169553,0.5677943519004716,0.171423113299388,0.39473068504594266,3,5,8,1,2,7,nan,nan,nan,nan,nan,nan,nan,nan,nan,nan,nan,nan,0.0,nan,nan,nan,nan,nan,nan,nan,nan,nan,nan,nan,nan,nan,nan,nan,nan,nan,nan,738.1204973915592,1094.8529096145649,nan,1095.0411580298096,nan,nan,nan,nan
1,198,1,1,1.0,1.0,0.011066325474530458,1,1.0,0.0,1.0,0.39511748665315377,0.17166310867007828,0.2234543779830755,0.5667805953232321,0.17166310867007828,0.2228973952587694,6,0,2,7,8,3,1.0,1.0,1.0,1.0,1.0,1.0,1.0,1.0,1.0,1.0,0.0,0.0,4.0,6.0,0.0,2.0,7.0,1.0,4.0,3.0,2.0,1.0,6.0,5.0,4.0,3.8706452143378556,2.9765732935629785,1.3524825391359627,6.798545035999268,5.878455447033048,4.982196261873469,738.1204973915592,1095.8780280866195,1096.6864275005646,1095.889094412094,1104.5290533809457,1105.5290716271847,1097.694874354871,1104.520726552466
1,199,1,1,1.0,1.0,0.3426891718991101,0,0.0,0.0,0.0,0.392817779101186,0.17369422314727165,0.21912355595391433,0.5665120022484577,0.17369422314727165,0.1806679708727946,8,5,3,6,0,4,nan,nan,nan,nan,nan,nan,nan,nan,nan,nan,nan,nan,0.0,nan,nan,nan,nan,nan,nan,nan,nan,nan,nan,nan,nan,nan,nan,nan,nan,nan,nan,738.1204973915592,1105.754243526375,nan,1106.096932698274,nan,nan,nan,nan
1,200,1,1,1.0,1.0,0.22952533047646284,0,0.0,0.0,0.0,0.39251939453450696,0.1732194281158242,0.21929996641868277,0.5657388226503312,0.1732194281158242,0.19442694261670113,5,4,0,8,2,7,nan,nan,nan,nan,nan,nan,nan,nan,nan,nan,nan,nan,0.0,nan,nan,nan,nan,nan,nan,nan,nan,nan,nan,nan,nan,nan,nan,nan,nan,nan,nan,738.1204973915592,1106.779369981261,nan,1107.0088953117374,nan,nan,nan,nan
1,201,1,1,nan,nan,nan,0,0.0,0.0,0.0,0.0,0.0,0.0,0.0,0.0,0.0,6,1,4,3,8,0,nan,nan,nan,nan,nan,nan,nan,nan,nan,nan,nan,nan,0.0,nan,nan,nan,nan,nan,nan,nan,nan,nan,nan,nan,nan,nan,nan,nan,nan,nan,nan,738.1204973915592,1107.8045394856017,nan,nan,nan,nan,nan,nan
1,202,1,1,1.0,1.0,0.6831893688067794,0,0.0,0.0,0.0,0.39155493261700375,0.17315801296713007,0.21839691964987368,0.5647129455841338,0.17315801296713007,0.4563573496416211,2,3,1,0,7,5,nan,nan,nan,nan,nan,nan,nan,nan,nan,nan,nan,nan,0.0,nan,nan,nan,nan,nan,nan,nan,nan,nan,nan,nan,nan,nan,nan,nan,nan,nan,nan,738.1204973915592,1108.829669646686,nan,1109.5128590154927,nan,nan,nan,nan
1,203,1,1,1.0,1.0,0.458060234086588,1,0.0,1.0,1.0,0.393270429300473,0.17408238780247887,0.21918804149799415,0.5673528171029518,0.17408238780247887,0.5706248014466837,5,8,3,6,1,2,1.0,1.0,1.0,1.0,1.0,1.0,0.0,1.0,0.0,0.0,0.0,0.0,1.0,2.0,8.0,6.0,5.0,4.0,1.0,3.0,2.0,1.0,6.0,5.0,4.0,3.2303173299878836,2.189469485776499,1.302839452167973,7.805172971216962,5.285203921375796,4.438322397880256,738.1204973915592,1109.8547798509244,1110.6632057789247,1110.312840085011,1119.522613039473,1120.5226113288663,1111.6799201613758,1119.514270245796
1,204,1,1,1.0,1.0,0.5328237889334559,0,0.0,0.0,0.0,0.39364931704776024,0.17364291495074527,0.22000640209701497,0.5672922319985055,0.17364291495074527,0.5580244639422745,4,6,8,3,7,5,nan,nan,nan,nan,nan,nan,nan,nan,nan,nan,nan,nan,0.0,nan,nan,nan,nan,nan,nan,nan,nan,nan,nan,nan,nan,nan,nan,nan,nan,nan,nan,738.1204973915592,1120.7477837982588,nan,1121.2806075871922,nan,nan,nan,nan
1,205,1,1,nan,nan,nan,0,0.0,0.0,0.0,0.0,0.0,0.0,0.0,0.0,0.0,1,7,5,6,4,8,nan,nan,nan,nan,nan,nan,nan,nan,nan,nan,nan,nan,0.0,nan,nan,nan,nan,nan,nan,nan,nan,nan,nan,nan,nan,nan,nan,nan,nan,nan,nan,738.1204973915592,1121.7728968535084,nan,nan,nan,nan,nan,nan
1,206,1,1,nan,nan,nan,0,0.0,0.0,0.0,0.0,0.0,0.0,0.0,0.0,0.0,4,6,0,5,2,3,nan,nan,nan,nan,nan,nan,nan,nan,nan,nan,nan,nan,0.0,nan,nan,nan,nan,nan,nan,nan,nan,nan,nan,nan,nan,nan,nan,nan,nan,nan,nan,738.1204973915592,1122.7980378482025,nan,nan,nan,nan,nan,nan
1,207,1,1,1.0,1.0,0.009364581666886806,1,1.0,0.0,1.0,0.39445847095407244,0.1734604255367352,0.22099804541733722,0.5679188964908076,0.1734604255367352,0.009364581666886806,1,4,7,8,3,5,1.0,1.0,1.0,1.0,1.0,1.0,0.0,1.0,1.0,1.0,0.0,0.0,3.0,0.0,4.0,7.0,8.0,2.0,1.0,3.0,2.0,1.0,6.0,5.0,4.0,4.445787663105875,2.509264797437936,1.4395266477949917,7.964896290330216,7.0286576664075255,5.812398754991591,738.1204973915592,1123.8232053569518,1124.63159393752,1123.8325699386187,1133.6410135426559,1134.6411295770667,1125.6400376555976,1133.632679871982
1,208,1,1,nan,nan,nan,0,0.0,0.0,0.0,0.0,0.0,0.0,0.0,0.0,0.0,7,5,6,0,1,4,nan,nan,nan,nan,nan,nan,nan,nan,nan,nan,nan,nan,0.0,nan,nan,nan,nan,nan,nan,nan,nan,nan,nan,nan,nan,nan,nan,nan,nan,nan,nan,738.1204973915592,1134.8662207939196,nan,nan,nan,nan,nan,nan
1,209,1,1,1.0,1.0,0.6849384389352053,0,0.0,0.0,0.0,0.39223249471541816,0.1754048232743774,0.21682767144104076,0.5676373179897956,0.1754048232743774,0.3471515103010461,8,6,7,4,0,2,nan,nan,nan,nan,nan,nan,nan,nan,nan,nan,nan,nan,0.0,nan,nan,nan,nan,nan,nan,nan,nan,nan,nan,nan,nan,nan,nan,nan,nan,nan,nan,738.1204973915592,1135.891338695772,nan,1136.5762771347072,nan,nan,nan,nan
1,210,1,1,1.0,1.0,0.4838093409780413,1,0.0,1.0,1.0,0.3939147127856468,0.1762940623227097,0.21762065046293713,0.5702087751083565,0.1762940623227097,0.5843738899566233,7,1,0,6,4,3,1.0,1.0,1.0,1.0,1.0,1.0,1.0,1.0,1.0,0.0,0.0,0.0,3.0,7.0,1.0,0.0,8.0,2.0,4.0,3.0,2.0,1.0,6.0,5.0,4.0,6.024025409948081,5.1691956671420485,4.175707567948848,8.783298902912065,7.974795998772606,6.983403647551313,738.1204973915592,1136.9164662908297,1137.724891363643,1137.4002756318077,1147.5594241952058,1148.5586273490917,1138.7333302353509,1147.5511036389507
1,211,1,1,nan,nan,nan,0,0.0,0.0,0.0,0.0,0.0,0.0,0.0,0.0,0.0,1,7,3,8,2,4,nan,nan,nan,nan,nan,nan,nan,nan,nan,nan,nan,nan,0.0,nan,nan,nan,nan,nan,nan,nan,nan,nan,nan,nan,nan,nan,nan,nan,nan,nan,nan,738.1204973915592,1148.7846263146494,nan,nan,nan,nan,nan,nan
1,212,1,1,1.0,1.0,0.006283538183197379,0,0.0,0.0,0.0,0.3944283963753177,0.1759201871330926,0.21850820924222508,0.5703485835084103,0.1759201871330926,0.24504643958061934,5,1,4,2,0,8,nan,nan,nan,nan,nan,nan,nan,nan,nan,nan,nan,nan,0.0,nan,nan,nan,nan,nan,nan,nan,nan,nan,nan,nan,nan,nan,nan,nan,nan,nan,nan,738.1204973915592,1149.809757616138,nan,1149.8160411543213,nan,nan,nan,nan
1,213,1,1,1.0,1.0,0.3491166839376092,1,1.0,0.0,1.0,0.39222302786286245,0.1778291613564406,0.21439386650642184,0.5700521892193031,0.1778291613564406,0.1777001110604033,3,5,6,1,8,4,1.0,1.0,1.0,1.0,1.0,1.0,0.0,0.0,0.0,0.0,0.0,1.0,1.0,1.0,4.0,5.0,2.0,4.0,4.0,3.0,2.0,1.0,6.0,5.0,4.0,3.728235551621765,2.281217694748193,1.4408666035160422,7.328285785624757,5.968499346170574,5.017140602460131,738.1204973915592,1150.83487124159,1151.643322543241,1151.1839879255276,1160.0193153223954,1161.0190826831385,1152.6517656913493,1160.0109796558972
1,214,1,1,1.0,1.0,0.29123058705590665,0,0.0,0.0,0.0,0.39197948919661807,0.1773555388822612,0.21462395031435688,0.5693350280788793,0.1773555388822612,0.2155436030589044,1,6,8,2,4,7,nan,nan,nan,nan,nan,nan,nan,nan,nan,nan,nan,nan,0.0,nan,nan,nan,nan,nan,nan,nan,nan,nan,nan,nan,nan,nan,nan,nan,nan,nan,nan,738.1204973915592,1161.2445225736592,nan,1161.535753160715,nan,nan,nan,nan
1,215,1,1,1.0,1.0,0.4020717430394143,0,0.0,0.0,0.0,0.3914134841284118,0.17701688560311984,0.21439659852529197,0.5684303697315316,0.17701688560311984,0.34747300467764336,3,2,6,8,5,1,nan,nan,nan,nan,nan,nan,nan,nan,nan,nan,nan,nan,0.0,nan,nan,nan,nan,nan,nan,nan,nan,nan,nan,nan,nan,nan,nan,nan,nan,nan,nan,738.1204973915592,1162.2696570111439,nan,1162.6717287541833,nan,nan,nan,nan
1,216,1,1,1.0,1.0,0.32096164347603917,0,0.0,0.0,0.0,0.39147302747428336,0.17652352004698632,0.21494950742729704,0.5679965475212697,0.17652352004698632,0.33808799119045335,1,8,7,0,6,4,nan,nan,nan,nan,nan,nan,nan,nan,nan,nan,nan,nan,0.0,nan,nan,nan,nan,nan,nan,nan,nan,nan,nan,nan,nan,nan,nan,nan,nan,nan,nan,738.1204973915592,1163.2947669303976,nan,1163.6157285738736,nan,nan,nan,nan
1,217,1,1,1.0,1.0,0.32706614094786346,0,0.0,0.0,0.0,0.391081297563182,0.17611049631292985,0.21497080125025214,0.5671917938761118,0.17611049631292985,0.35003317582110566,4,7,5,1,0,3,nan,nan,nan,nan,nan,nan,nan,nan,nan,nan,nan,nan,0.0,nan,nan,nan,nan,nan,nan,nan,nan,nan,nan,nan,nan,nan,nan,nan,nan,nan,nan,738.1204973915592,1164.3366020654794,nan,1164.6636682064272,nan,nan,nan,nan
1,218,0,0,1.0,0.0,0.22996694571338594,0,0.0,0.0,0.0,0.3907276226647548,0.1756874193071514,0.2150402033576034,0.5664150419719062,0.1756874193071514,0.29266491004576284,8,5,2,3,7,6,nan,nan,nan,nan,nan,nan,nan,nan,nan,nan,nan,nan,0.0,nan,nan,nan,nan,nan,nan,nan,nan,nan,nan,nan,nan,nan,nan,nan,nan,nan,nan,738.1204973915592,1165.3617484772112,nan,1165.5917154229246,nan,nan,nan,nan
1,219,1,1,1.0,1.0,0.02079183980822563,1,1.0,0.0,1.0,0.3898443222419451,0.17560664927534536,0.21423767296659973,0.5654509715172904,0.17560664927534536,0.19260830882315835,0,1,4,6,3,5,1.0,1.0,1.0,1.0,1.0,1.0,0.0,0.0,1.0,0.0,0.0,1.0,2.0,3.0,6.0,4.0,7.0,8.0,5.0,3.0,2.0,1.0,6.0,5.0,4.0,3.7206274529453367,1.9765393671113998,1.1524644640740007,6.599661646876484,5.8637701000552624,4.60837535187602,738.1204973915592,1166.3868564006407,1167.1952831840608,1166.407648240449,1174.8545509180985,1175.854607082205,1168.2120748276357,1174.8462195280008
1,220,1,1,1.0,1.0,0.6796858117450029,0,0.0,0.0,0.0,0.38782764201006686,0.17722690856751075,0.21060073344255612,0.5650545505775776,0.17722690856751075,0.3101481990888715,6,7,5,8,4,1,nan,nan,nan,nan,nan,nan,nan,nan,nan,nan,nan,nan,0.0,nan,nan,nan,nan,nan,nan,nan,nan,nan,nan,nan,nan,nan,nan,nan,nan,nan,nan,738.1204973915592,1176.079742488917,nan,1176.759428300662,nan,nan,nan,nan
1,221,1,1,1.0,1.0,0.6305801325943321,0,0.0,0.0,0.0,0.38941382771514804,0.17804240858718642,0.21137141912796162,0.5674562363023344,0.17804240858718642,0.4436859280491869,8,0,7,3,1,2,nan,nan,nan,nan,nan,nan,nan,nan,nan,nan,nan,nan,0.0,nan,nan,nan,nan,nan,nan,nan,nan,nan,nan,nan,nan,nan,nan,nan,nan,nan,nan,738.1204973915592,1177.104839293519,nan,1177.7354194261134,nan,nan,nan,nan
1,222,1,1,1.0,1.0,0.3734628283418715,0,0.0,0.0,0.0,0.39071742936314363,0.17843889202830526,0.21227853733483837,0.5691563213914489,0.17843889202830526,0.5612429242270688,6,2,8,0,5,1,nan,nan,nan,nan,nan,nan,nan,nan,nan,nan,nan,nan,0.0,nan,nan,nan,nan,nan,nan,nan,nan,nan,nan,nan,nan,nan,nan,nan,nan,nan,nan,738.1204973915592,1178.1299737310037,nan,1178.5034365593456,nan,nan,nan,nan
1,223,1,1,1.0,1.0,0.2122883654665202,0,0.0,0.0,0.0,0.3906246626909862,0.17796304414962089,0.21266161854136534,0.5685877068406071,0.17796304414962089,0.4054437754675746,2,8,0,5,1,4,nan,nan,nan,nan,nan,nan,nan,nan,nan,nan,nan,nan,0.0,nan,nan,nan,nan,nan,nan,nan,nan,nan,nan,nan,nan,nan,nan,nan,nan,nan,nan,738.1204973915592,1179.1551292657387,nan,1179.3674176312052,nan,nan,nan,nan
1,224,0,0,1.0,0.0,0.019116609822958708,0,0.0,0.0,0.0,0.3896709926523527,0.17796248697967407,0.21170850567267865,0.5676334796320268,0.17796248697967407,0.20162260121045014,4,7,1,0,3,5,nan,nan,nan,nan,nan,nan,nan,nan,nan,nan,nan,nan,0.0,nan,nan,nan,nan,nan,nan,nan,nan,nan,nan,nan,nan,nan,nan,nan,nan,nan,nan,738.1204973915592,1180.1802605672274,nan,1180.1993771770503,nan,nan,nan,nan
1,225,1,1,0.0,0.0,0.026004553539678454,1,1.0,0.0,1.0,0.38769995870113255,0.17952346971746874,0.2081764889836638,0.5672234284186013,0.17952346971746874,0.08580317627638578,7,0,3,6,2,8,1.0,1.0,1.0,1.0,1.0,1.0,0.0,0.0,0.0,0.0,0.0,0.0,0.0,1.0,5.0,7.0,0.0,4.0,4.0,3.0,2.0,1.0,6.0,5.0,4.0,2.4539380164351314,2.0056583203841,1.1990267930086702,4.181056843372062,3.8207150348462164,3.1262717465870082,738.1204973915592,1181.2053570868447,1182.0137909976766,1181.2313616403844,1187.2477746752556,1188.247075902531,1183.0305666758213,1187.2394261795562
1,226,1,1,nan,nan,nan,0,0.0,0.0,0.0,0.0,0.0,0.0,0.0,0.0,0.0,3,2,5,0,4,1,nan,nan,nan,nan,nan,nan,nan,nan,nan,nan,nan,nan,0.0,nan,nan,nan,nan,nan,nan,nan,nan,nan,nan,nan,nan,nan,nan,nan,nan,nan,nan,738.1204973915592,1188.4729613994714,nan,nan,nan,nan,nan,nan
1,227,1,1,1.0,1.0,0.3892500752117485,0,0.0,0.0,0.0,0.385786226398691,0.18096043736791856,0.20482578903077242,0.5667466637666095,0.18096043736791856,0.20762731437571347,8,4,0,2,3,6,nan,nan,nan,nan,nan,nan,nan,nan,nan,nan,nan,nan,0.0,nan,nan,nan,nan,nan,nan,nan,nan,nan,nan,nan,nan,nan,nan,nan,nan,nan,nan,738.1204973915592,1189.4980456598569,nan,1189.8872957350686,nan,nan,nan,nan
1,228,1,1,1.0,1.0,0.28398085525259376,0,0.0,0.0,0.0,0.3858044571819176,0.18048377146408956,0.20532068571782802,0.5662882286460071,0.18048377146408956,0.3366154652321711,6,0,7,5,1,4,nan,nan,nan,nan,nan,nan,nan,nan,nan,nan,nan,nan,0.0,nan,nan,nan,nan,nan,nan,nan,nan,nan,nan,nan,nan,nan,nan,nan,nan,nan,nan,738.1204973915592,1190.523214879213,nan,1190.8071957344655,nan,nan,nan,nan
1,229,1,1,1.0,1.0,0.0909978337585926,0,0.0,0.0,0.0,0.3852713493184133,0.18016060603544606,0.20511074328296722,0.5654319553538594,0.18016060603544606,0.25474292140764493,7,6,8,1,2,3,nan,nan,nan,nan,nan,nan,nan,nan,nan,nan,nan,nan,0.0,nan,nan,nan,nan,nan,nan,nan,nan,nan,nan,nan,nan,nan,nan,nan,nan,nan,nan,738.1204973915592,1191.548344470095,nan,1191.6393423038535,nan,nan,nan,nan
1,230,1,1,1.0,1.0,0.7057031944859773,0,0.0,0.0,0.0,0.3837386747582059,0.1809349859373009,0.202803688820905,0.5646736606955067,0.1809349859373009,0.36022729449905455,1,0,3,7,8,2,nan,nan,nan,nan,nan,nan,nan,nan,nan,nan,nan,nan,0.0,nan,nan,nan,nan,nan,nan,nan,nan,nan,nan,nan,nan,nan,nan,nan,nan,nan,nan,738.1204973915592,1192.5734153310768,nan,1193.2791185255628,nan,nan,nan,nan
1,231,1,1,1.0,1.0,0.35257405531592667,0,0.0,0.0,0.0,0.3854068847049819,0.18194000778720548,0.20346687691777643,0.5673468924921874,0.18194000778720548,0.3830916945201655,6,8,0,5,4,7,nan,nan,nan,nan,nan,nan,nan,nan,nan,nan,nan,nan,0.0,nan,nan,nan,nan,nan,nan,nan,nan,nan,nan,nan,nan,nan,nan,nan,nan,nan,nan,738.1204973915592,1193.5985437815543,nan,1193.9511178368703,nan,nan,nan,nan
1,232,1,1,1.0,1.0,0.06337963114492595,0,0.0,0.0,0.0,0.38523764331637855,0.18148571497700247,0.20375192833937608,0.566723358293381,0.18148571497700247,0.3738856269822766,0,2,1,6,3,5,nan,nan,nan,nan,nan,nan,nan,nan,nan,nan,nan,nan,0.0,nan,nan,nan,nan,nan,nan,nan,nan,nan,nan,nan,nan,nan,nan,nan,nan,nan,nan,738.1204973915592,1194.6236947546713,nan,1194.6870743858162,nan,nan,nan,nan
1,233,1,1,1.0,1.0,0.5182159882970154,0,0.0,0.0,0.0,0.383587089407807,0.18247376904144877,0.20111332036635823,0.5660608584492558,0.18247376904144877,0.31138989158595604,3,4,7,5,2,6,nan,nan,nan,nan,nan,nan,nan,nan,nan,nan,nan,nan,0.0,nan,nan,nan,nan,nan,nan,nan,nan,nan,nan,nan,nan,nan,nan,nan,nan,nan,nan,738.1204973915592,1195.648832328152,nan,1196.167048316449,nan,nan,nan,nan
1,234,1,1,1.0,1.0,0.25310598919168115,0,0.0,0.0,0.0,0.3842739715449968,0.1822602473523438,0.202013724192653,0.5665342188973406,0.1822602473523438,0.2782338695445408,1,3,6,4,5,8,nan,nan,nan,nan,nan,nan,nan,nan,nan,nan,nan,nan,0.0,nan,nan,nan,nan,nan,nan,nan,nan,nan,nan,nan,nan,nan,nan,nan,nan,nan,nan,738.1204973915592,1196.6739411070012,nan,1196.9270470961928,nan,nan,nan,nan
1,235,0,0,1.0,0.0,0.05193811794742942,0,0.0,0.0,0.0,0.3836081442234064,0.18203589296173375,0.20157225126167264,0.5656440371851401,0.18203589296173375,0.274420031812042,2,7,3,8,4,1,nan,nan,nan,nan,nan,nan,nan,nan,nan,nan,nan,nan,0.0,nan,nan,nan,nan,nan,nan,nan,nan,nan,nan,nan,nan,nan,nan,nan,nan,nan,nan,738.1204973915592,1197.6990821016952,nan,1197.7510202196427,nan,nan,nan,nan
1,236,1,1,1.0,1.0,0.45879236329346895,0,0.0,0.0,0.0,0.38193304308059844,0.18309145878971775,0.1988415842908807,0.5650245018703162,0.18309145878971775,0.25461215681085986,0,8,7,3,5,6,nan,nan,nan,nan,nan,nan,nan,nan,nan,nan,nan,nan,0.0,nan,nan,nan,nan,nan,nan,nan,nan,nan,nan,nan,nan,nan,nan,nan,nan,nan,nan,738.1204973915592,1198.7242071309593,nan,1199.1829994942527,nan,nan,nan,nan
1,237,1,1,1.0,1.0,0.4976576429326087,0,0.0,0.0,0.0,0.3823192708203616,0.18271169537435913,0.19960757544600247,0.5650309661947207,0.18271169537435913,0.3361293747245024,6,1,2,7,8,3,nan,nan,nan,nan,nan,nan,nan,nan,nan,nan,nan,nan,0.0,nan,nan,nan,nan,nan,nan,nan,nan,nan,nan,nan,nan,nan,nan,nan,nan,nan,nan,738.1204973915592,1199.749315624591,nan,1200.2469732675236,nan,nan,nan,nan
1,238,1,1,1.0,1.0,0.4084918424487114,0,0.0,0.0,0.0,0.3828959626809228,0.18243581867425385,0.20046014400666895,0.5653317813551766,0.18243581867425385,0.4549806162249297,7,3,6,4,0,8,nan,nan,nan,nan,nan,nan,nan,nan,nan,nan,nan,nan,0.0,nan,nan,nan,nan,nan,nan,nan,nan,nan,nan,nan,nan,nan,nan,nan,nan,nan,nan,738.1204973915592,1200.7744683083147,nan,1201.1829601507634,nan,nan,nan,nan
1,239,0,0,0.0,1.0,0.615342267556116,0,0.0,0.0,0.0,0.3830233053663347,0.1819903430367041,0.2010329623296306,0.5650136484030388,0.1819903430367041,0.507163917645812,8,4,2,0,7,6,nan,nan,nan,nan,nan,nan,nan,nan,nan,nan,nan,nan,0.0,nan,nan,nan,nan,nan,nan,nan,nan,nan,nan,nan,nan,nan,nan,nan,nan,nan,nan,738.1204973915592,1201.7996047413908,nan,1202.414947008947,nan,nan,nan,nan
1,240,1,1,1.0,1.0,0.3902017290238291,0,0.0,0.0,0.0,0.38417339923856136,0.1822700964521992,0.20190330278636218,0.5664434956907606,0.1822700964521992,0.4713452796762188,7,8,0,1,2,3,nan,nan,nan,nan,nan,nan,nan,nan,nan,nan,nan,nan,0.0,nan,nan,nan,nan,nan,nan,nan,nan,nan,nan,nan,nan,nan,nan,nan,nan,nan,nan,738.1204973915592,1202.8247206476517,nan,1203.2149223766755,nan,nan,nan,nan
1,241,1,1,1.0,1.0,0.4770428482443094,0,0.0,0.0,0.0,0.3842030954444001,0.18182109094741647,0.20238200449698365,0.5660241863918166,0.18182109094741647,0.49419561494141817,6,5,1,8,0,2,nan,nan,nan,nan,nan,nan,nan,nan,nan,nan,nan,nan,0.0,nan,nan,nan,nan,nan,nan,nan,nan,nan,nan,nan,nan,nan,nan,nan,nan,nan,nan,738.1204973915592,1203.8498311371077,nan,1204.326873985352,nan,nan,nan,nan
1,242,1,1,1.0,1.0,0.4279003916308284,0,0.0,0.0,0.0,0.38465819227185066,0.18149077001627723,0.20316742225557344,0.5661489622881279,0.18149077001627723,0.431714989632989,8,7,6,1,2,4,nan,nan,nan,nan,nan,nan,nan,nan,nan,nan,nan,nan,0.0,nan,nan,nan,nan,nan,nan,nan,nan,nan,nan,nan,nan,nan,nan,nan,nan,nan,nan,738.1204973915592,1204.8749809698202,nan,1205.302881361451,nan,nan,nan,nan
1,243,1,1,1.0,1.0,0.29874089756049216,0,0.0,0.0,0.0,0.3848691298296993,0.18107263446293298,0.2037964953667663,0.5659417642926323,0.18107263446293298,0.40122804581187665,7,1,3,5,0,8,nan,nan,nan,nan,nan,nan,nan,nan,nan,nan,nan,nan,0.0,nan,nan,nan,nan,nan,nan,nan,nan,nan,nan,nan,nan,nan,nan,nan,nan,nan,nan,738.1204973915592,1205.9000971610658,nan,1206.1988380586263,nan,nan,nan,nan
1,244,1,1,1.0,1.0,0.30556070315651596,0,0.0,0.0,0.0,0.38445103161480026,0.18073176964772666,0.2037192619670736,0.565182801262527,0.18073176964772666,0.34406733078261215,3,6,2,1,7,0,nan,nan,nan,nan,nan,nan,nan,nan,nan,nan,nan,nan,0.0,nan,nan,nan,nan,nan,nan,nan,nan,nan,nan,nan,nan,nan,nan,nan,nan,nan,nan,738.1204973915592,1206.9252717972267,nan,1207.2308325003833,nan,nan,nan,nan
1,245,1,1,1.0,1.0,0.2644750881008804,0,0.0,0.0,0.0,0.38406991891693415,0.18037764953046662,0.20369226938646753,0.5644475684474007,0.18037764953046662,0.2895922296059628,2,8,4,0,3,7,nan,nan,nan,nan,nan,nan,nan,nan,nan,nan,nan,nan,0.0,nan,nan,nan,nan,nan,nan,nan,nan,nan,nan,nan,nan,nan,nan,nan,nan,nan,nan,738.1204973915592,1207.9503674614243,nan,1208.2148425495252,nan,nan,nan,nan
1,246,1,1,1.0,1.0,0.239317842759192,0,0.0,0.0,0.0,0.38349494376878,0.18013357923678786,0.20336136453199216,0.5636285230055679,0.18013357923678786,0.2697845446721961,5,3,7,8,1,0,nan,nan,nan,nan,nan,nan,nan,nan,nan,nan,nan,nan,0.0,nan,nan,nan,nan,nan,nan,nan,nan,nan,nan,nan,nan,nan,nan,nan,nan,nan,nan,738.1204973915592,1208.9755195749458,nan,1209.214837417705,nan,nan,nan,nan
1,247,1,1,1.0,1.0,0.24613593751564622,0,0.0,0.0,0.0,0.38280510118021743,0.17997732049614848,0.20282778068406895,0.5627824216763659,0.17997732049614848,0.24997628945857286,1,4,3,6,2,7,nan,nan,nan,nan,nan,nan,nan,nan,nan,nan,nan,nan,0.0,nan,nan,nan,nan,nan,nan,nan,nan,nan,nan,nan,nan,nan,nan,nan,nan,nan,nan,738.1204973915592,1210.0006537274458,nan,1210.2467896649614,nan,nan,nan,nan
1,248,1,1,1.0,1.0,0.741018446162343,0,0.0,0.0,0.0,0.38215429563895753,0.1797946343931528,0.20235966124580473,0.5619489300321103,0.1797946343931528,0.4088240754790604,6,0,5,2,7,4,nan,nan,nan,nan,nan,nan,nan,nan,nan,nan,nan,nan,0.0,nan,nan,nan,nan,nan,nan,nan,nan,nan,nan,nan,nan,nan,nan,nan,nan,nan,nan,738.1204973915592,1211.0256952233613,nan,1211.7667136695236,nan,nan,nan,nan
1,249,1,1,1.0,1.0,0.3478602615650743,0,0.0,0.0,0.0,0.38385507360352333,0.1810534778316384,0.20280159577188495,0.5649085514351617,0.1810534778316384,0.4450048817476879,4,2,7,0,3,8,nan,nan,nan,nan,nan,nan,nan,nan,nan,nan,nan,nan,0.0,nan,nan,nan,nan,nan,nan,nan,nan,nan,nan,nan,nan,nan,nan,nan,nan,nan,nan,738.1204973915592,1212.0508772719186,nan,1212.3987375334837,nan,nan,nan,nan
1,250,1,1,1.0,1.0,0.018696376821026206,0,0.0,0.0,0.0,0.38368528675428537,0.1806427969912012,0.20304248976308417,0.5643280837454866,0.1806427969912012,0.36919169484948117,8,3,2,1,4,6,nan,nan,nan,nan,nan,nan,nan,nan,nan,nan,nan,nan,0.0,nan,nan,nan,nan,nan,nan,nan,nan,nan,nan,nan,nan,nan,nan,nan,nan,nan,nan,738.1204973915592,1213.076005722396,nan,1213.094702099217,nan,nan,nan,nan
1,251,1,1,1.0,1.0,0.35320554533973336,0,0.0,0.0,0.0,0.38197172379685224,0.18193711619506037,0.20003460760179187,0.5639088399919125,0.18193711619506037,0.2399207279086113,4,8,7,5,3,2,nan,nan,nan,nan,nan,nan,nan,nan,nan,nan,nan,nan,0.0,nan,nan,nan,nan,nan,nan,nan,nan,nan,nan,nan,nan,nan,nan,nan,nan,nan,nan,738.1204973915592,1214.1094932171982,nan,1214.462698762538,nan,nan,nan,nan
1,252,1,1,1.0,1.0,0.22408254351466894,1,1.0,0.0,1.0,0.3818373024021928,0.1815221332678793,0.20031516913431352,0.5633594356700722,0.1815221332678793,0.19866148855847618,7,1,0,8,5,4,1.0,1.0,1.0,1.0,1.0,1.0,0.0,0.0,0.0,0.0,0.0,0.0,0.0,3.0,6.0,8.0,1.0,1.0,2.0,3.0,2.0,1.0,6.0,5.0,4.0,1.6041929787024856,1.0036546585615724,0.5165393329225481,3.3788468851707876,2.7554734349250793,2.0841748921666294,738.1204973915592,1215.1345960090403,1215.9430122438353,1215.358678552555,1220.376873158617,1221.376257634256,1216.9598033172078,1220.3685332157183
1,253,1,1,1.0,1.0,0.37248665606603026,0,0.0,0.0,0.0,0.3811035593375997,0.18141731121523377,0.19968624812236593,0.5625208705528335,0.18141731121523377,0.31659158164014417,8,7,5,0,3,2,nan,nan,nan,nan,nan,nan,nan,nan,nan,nan,nan,nan,0.0,nan,nan,nan,nan,nan,nan,nan,nan,nan,nan,nan,nan,nan,nan,nan,nan,nan,nan,738.1204973915592,1221.602050474612,nan,1221.974537130678,nan,nan,nan,nan
1,254,0,0,1.0,0.0,0.2752896728925407,0,0.0,0.0,0.0,0.38106366626689797,0.18099782177312107,0.2000658444937769,0.562061488040019,0.18099782177312107,0.2906196241577466,4,6,2,1,0,8,nan,nan,nan,nan,nan,nan,nan,nan,nan,nan,nan,nan,0.0,nan,nan,nan,nan,nan,nan,nan,nan,nan,nan,nan,nan,nan,nan,nan,nan,nan,nan,738.1204973915592,1222.6272031583358,nan,1222.9024928312283,nan,nan,nan,nan
1,255,1,1,1.0,1.0,0.514124846085906,0,0.0,0.0,0.0,0.3805762285094125,0.1807223378906149,0.19985389061879757,0.5612985664000274,0.1807223378906149,0.38730039168149233,2,4,8,0,7,6,nan,nan,nan,nan,nan,nan,nan,nan,nan,nan,nan,nan,0.0,nan,nan,nan,nan,nan,nan,nan,nan,nan,nan,nan,nan,nan,nan,nan,nan,nan,nan,738.1204973915592,1223.6523649652954,nan,1224.1664898113813,nan,nan,nan,nan
1,256,1,1,1.0,1.0,0.6329681049101055,0,0.0,0.0,0.0,0.3811888368469193,0.18053304966692693,0.20065578717999236,0.5617218865138462,0.18053304966692693,0.47412754129618406,4,3,7,2,6,1,nan,nan,nan,nan,nan,nan,nan,nan,nan,nan,nan,nan,0.0,nan,nan,nan,nan,nan,nan,nan,nan,nan,nan,nan,nan,nan,nan,nan,nan,nan,nan,738.1204973915592,1224.677491134964,nan,1225.310459239874,nan,nan,nan,nan
1,257,1,1,1.0,1.0,0.5757987420074642,1,0.0,1.0,1.0,0.38233851387003887,0.18091849644305205,0.2014200174269868,0.5632570103130909,0.18091849644305205,0.5742972310011586,2,5,6,1,0,3,1.0,1.0,1.0,1.0,1.0,1.0,0.0,0.0,0.0,0.0,0.0,0.0,0.0,4.0,2.0,2.0,3.0,7.0,5.0,3.0,2.0,1.0,6.0,5.0,4.0,2.716942574130371,2.1656194103416055,1.1486307645682245,4.867007661843672,4.299459056928754,3.372388012474403,738.1204973915592,1225.7026235766243,1226.511041522026,1226.2784223186318,1232.4284243998118,1233.427666897187,1227.5194863805082,1232.4200912993401
1,258,1,1,1.0,1.0,0.6326376777142286,0,0.0,0.0,0.0,0.3832178785433908,0.18097533425068868,0.2022425442927021,0.5641932127940794,0.18097533425068868,0.6138015082105994,4,6,1,8,5,7,nan,nan,nan,nan,nan,nan,nan,nan,nan,nan,nan,nan,0.0,nan,nan,nan,nan,nan,nan,nan,nan,nan,nan,nan,nan,nan,nan,nan,nan,nan,nan,738.1204973915592,1233.6536433401052,nan,1234.2862810178194,nan,nan,nan,nan
1,259,1,1,1.0,1.0,0.31149528245441616,0,0.0,0.0,0.0,0.38434647491972945,0.18133971638850174,0.2030067585312277,0.5656861913082312,0.18133971638850174,0.5066439007253697,6,4,7,3,0,5,nan,nan,nan,nan,nan,nan,nan,nan,nan,nan,nan,nan,0.0,nan,nan,nan,nan,nan,nan,nan,nan,nan,nan,nan,nan,nan,nan,nan,nan,nan,nan,738.1204973915592,1234.6787709353957,nan,1234.9902662178501,nan,nan,nan,nan
1,260,1,1,1.0,1.0,0.054473770782351494,0,0.0,0.0,0.0,0.3840183163951109,0.18099658905020236,0.20302172734490856,0.5650149054453133,0.18099658905020236,0.3328689103169988,7,3,1,6,8,2,nan,nan,nan,nan,nan,nan,nan,nan,nan,nan,nan,nan,0.0,nan,nan,nan,nan,nan,nan,nan,nan,nan,nan,nan,nan,nan,nan,nan,nan,nan,nan,738.1204973915592,1235.7038725866005,nan,1235.7583463573828,nan,nan,nan,nan
1,261,1,1,1.0,1.0,0.22123984131030738,1,1.0,0.0,1.0,0.38254053816366357,0.1819276515492058,0.20061288661445778,0.5644681897128694,0.1819276515492058,0.19573629818235835,0,5,3,1,7,6,1.0,1.0,1.0,1.0,1.0,1.0,0.0,0.0,1.0,0.0,1.0,0.0,2.0,8.0,4.0,3.0,2.0,7.0,7.0,3.0,2.0,1.0,6.0,5.0,4.0,2.5528096596244723,1.7935455746483058,0.9207863658666611,4.496669496642426,3.601444358471781,3.0723541998304427,738.1204973915592,1236.7289665404242,1237.5373810646124,1236.9502063817345,1243.079714264255,1244.0790710854344,1238.5458547179587,1243.071398269618
1,262,0,0,1.0,0.0,0.2531527450773865,0,0.0,0.0,0.0,0.3818204457669968,0.18183934066476318,0.19998110510223363,0.56365978643176,0.18183934066476318,0.17628878572334847,6,0,8,5,1,3,nan,nan,nan,nan,nan,nan,nan,nan,nan,nan,nan,nan,0.0,nan,nan,nan,nan,nan,nan,nan,nan,nan,nan,nan,nan,nan,nan,nan,nan,nan,nan,738.1204973915592,1244.3049186647404,nan,1244.5580714098178,nan,nan,nan,nan
1,263,1,1,1.0,1.0,0.2760198062751442,0,0.0,0.0,0.0,0.3812485893194874,0.1816365609298743,0.19961202838961312,0.5628851502493617,0.1816365609298743,0.250137464220946,2,4,0,8,3,7,nan,nan,nan,nan,nan,nan,nan,nan,nan,nan,nan,nan,0.0,nan,nan,nan,nan,nan,nan,nan,nan,nan,nan,nan,nan,nan,nan,nan,nan,nan,nan,738.1204973915592,1245.3300647910219,nan,1245.606084597297,nan,nan,nan,nan
1,264,0,0,1.0,0.0,0.2268508356064558,0,0.0,0.0,0.0,0.3807829752352204,0.18136878970570688,0.19941418552951354,0.5621517649409273,0.18136878970570688,0.2520077956529955,0,8,4,5,6,3,nan,nan,nan,nan,nan,nan,nan,nan,nan,nan,nan,nan,0.0,nan,nan,nan,nan,nan,nan,nan,nan,nan,nan,nan,nan,nan,nan,nan,nan,nan,nan,738.1204973915592,1246.35517585068,nan,1246.5820266862866,nan,nan,nan,nan
1,265,1,1,1.0,1.0,0.2817123383283615,0,0.0,0.0,0.0,0.3801048600826708,0.18125576254693712,0.19884909753573368,0.561360622629608,0.18125576254693712,0.2615276600699872,3,1,5,8,2,0,nan,nan,nan,nan,nan,nan,nan,nan,nan,nan,nan,nan,0.0,nan,nan,nan,nan,nan,nan,nan,nan,nan,nan,nan,nan,nan,nan,nan,nan,nan,nan,738.1204973915592,1247.3803014501464,nan,1247.6620137884747,nan,nan,nan,nan
1,266,1,1,1.0,1.0,0.6645480156876147,0,0.0,0.0,0.0,0.37967331393462556,0.18097466998346728,0.19869864395115827,0.5606479839180929,0.18097466998346728,0.39103706320747733,1,5,0,3,6,7,nan,nan,nan,nan,nan,nan,nan,nan,nan,nan,nan,nan,0.0,nan,nan,nan,nan,nan,nan,nan,nan,nan,nan,nan,nan,nan,nan,nan,nan,nan,nan,738.1204973915592,1248.4054316112306,nan,1249.0699796269182,nan,nan,nan,nan
1,267,1,1,1.0,1.0,0.35140886390581727,0,0.0,0.0,0.0,0.38091730826542464,0.18155342208524147,0.19936388618018316,0.5624707303506661,0.18155342208524147,0.43255640597393114,0,7,8,1,4,6,nan,nan,nan,nan,nan,nan,nan,nan,nan,nan,nan,nan,0.0,nan,nan,nan,nan,nan,nan,nan,nan,nan,nan,nan,nan,nan,nan,nan,nan,nan,nan,738.1204973915592,1249.4305552148726,nan,1249.7819640787784,nan,nan,nan,nan
1,268,1,1,1.0,1.0,0.19826216250658035,0,0.0,0.0,0.0,0.3807890106812524,0.1811687141103774,0.19962029657087502,0.5619577247916299,0.1811687141103774,0.4047396807000041,4,1,2,6,3,8,nan,nan,nan,nan,nan,nan,nan,nan,nan,nan,nan,nan,0.0,nan,nan,nan,nan,nan,nan,nan,nan,nan,nan,nan,nan,nan,nan,nan,nan,nan,nan,738.1204973915592,1250.4556879419833,nan,1250.65395010449,nan,nan,nan,nan
1,269,1,1,1.0,1.0,0.5410656582098454,0,0.0,0.0,0.0,0.37999885116534476,0.18117289234454023,0.19882595882080453,0.561171743509885,0.18117289234454023,0.363578894874081,6,5,3,0,7,4,nan,nan,nan,nan,nan,nan,nan,nan,nan,nan,nan,nan,0.0,nan,nan,nan,nan,nan,nan,nan,nan,nan,nan,nan,nan,nan,nan,nan,nan,nan,nan,738.1204973915592,1251.4808081246447,nan,1252.0218737828545,nan,nan,nan,nan
1,270,1,1,1.0,1.0,0.3879545941017568,0,0.0,0.0,0.0,0.38069310464398487,0.181089687768967,0.19960341687501787,0.5617827924129519,0.181089687768967,0.3757608049393942,4,8,5,7,6,3,nan,nan,nan,nan,nan,nan,nan,nan,nan,nan,nan,nan,0.0,nan,nan,nan,nan,nan,nan,nan,nan,nan,nan,nan,nan,nan,nan,nan,nan,nan,nan,738.1204973915592,1252.5059431323316,nan,1252.8938977264334,nan,nan,nan,nan
1,271,1,1,1.0,1.0,0.33881926513276994,0,0.0,0.0,0.0,0.38072426983479074,0.18070128893488985,0.2000229808999009,0.5614255587696806,0.18070128893488985,0.4226131724814574,0,3,6,5,1,2,nan,nan,nan,nan,nan,nan,nan,nan,nan,nan,nan,nan,0.0,nan,nan,nan,nan,nan,nan,nan,nan,nan,nan,nan,nan,nan,nan,nan,nan,nan,nan,738.1204973915592,1253.5310661657713,nan,1253.869885430904,nan,nan,nan,nan
1,272,1,1,1.0,1.0,0.28967139148153365,0,0.0,0.0,0.0,0.3805451886181154,0.18033548071753439,0.20020970790058104,0.5608806693356498,0.18033548071753439,0.3388150835720201,3,1,4,8,5,6,nan,nan,nan,nan,nan,nan,nan,nan,nan,nan,nan,nan,0.0,nan,nan,nan,nan,nan,nan,nan,nan,nan,nan,nan,nan,nan,nan,nan,nan,nan,nan,738.1204973915592,1254.5561991778668,nan,1254.8458705693483,nan,nan,nan,nan
1,273,1,1,1.0,1.0,0.3525144699960947,0,0.0,0.0,0.0,0.3801584916090236,0.1800485766379366,0.200109914971087,0.5602070682469602,0.1800485766379366,0.32700170887013275,6,7,8,5,2,3,nan,nan,nan,nan,nan,nan,nan,nan,nan,nan,nan,nan,0.0,nan,nan,nan,nan,nan,nan,nan,nan,nan,nan,nan,nan,nan,nan,nan,nan,nan,nan,738.1204973915592,1255.581324777333,nan,1255.9338392473292,nan,nan,nan,nan
1,274,1,1,1.0,1.0,0.3673720157239586,0,0.0,0.0,0.0,0.38004135592422306,0.17967568584656207,0.20036567007766098,0.5597170417707851,0.17967568584656207,0.33651929240052897,5,0,1,2,7,4,nan,nan,nan,nan,nan,nan,nan,nan,nan,nan,nan,nan,0.0,nan,nan,nan,nan,nan,nan,nan,nan,nan,nan,nan,nan,nan,nan,nan,nan,nan,nan,738.1204973915592,1256.606452087406,nan,1256.97382410313,nan,nan,nan,nan
1,275,1,1,1.0,1.0,0.3582457753363997,0,0.0,0.0,0.0,0.3799878987925764,0.1792981032188929,0.2006897955736835,0.5592860020114693,0.1792981032188929,0.359377420352151,1,5,2,4,6,0,nan,nan,nan,nan,nan,nan,nan,nan,nan,nan,nan,nan,0.0,nan,nan,nan,nan,nan,nan,nan,nan,nan,nan,nan,nan,nan,nan,nan,nan,nan,nan,738.1204973915592,1257.6315574450418,nan,1257.9898032203782,nan,nan,nan,nan
1,276,1,1,1.0,1.0,0.341092343442142,0,0.0,0.0,0.0,0.37989654533267647,0.17892655716654754,0.20096998816612893,0.5588231024992241,0.17892655716654754,0.35557004483416677,5,2,8,3,1,4,nan,nan,nan,nan,nan,nan,nan,nan,nan,nan,nan,nan,0.0,nan,nan,nan,nan,nan,nan,nan,nan,nan,nan,nan,nan,nan,nan,nan,nan,nan,nan,738.1204973915592,1258.6566878911108,nan,1258.997780234553,nan,nan,nan,nan
1,277,1,1,1.0,1.0,0.5158910222817212,0,0.0,0.0,0.0,0.3797341846553102,0.17856940947854774,0.20116477517676248,0.558303594133858,0.17856940947854774,0.405076380353421,8,6,7,0,4,3,nan,nan,nan,nan,nan,nan,nan,nan,nan,nan,nan,nan,0.0,nan,nan,nan,nan,nan,nan,nan,nan,nan,nan,nan,nan,nan,nan,nan,nan,nan,nan,738.1204973915592,1259.6818334474228,nan,1260.1977244697046,nan,nan,nan,nan
1,278,1,1,1.0,1.0,0.634753382531926,0,0.0,0.0,0.0,0.3803015048120869,0.17841270701985443,0.20188879779223248,0.5587142118319414,0.17841270701985443,0.49724558275192976,3,1,2,5,8,0,nan,nan,nan,nan,nan,nan,nan,nan,nan,nan,nan,nan,0.0,nan,nan,nan,nan,nan,nan,nan,nan,nan,nan,nan,nan,nan,nan,nan,nan,nan,nan,738.1204973915592,1260.7070015263744,nan,1261.3417549089063,nan,nan,nan,nan
