block,trial,freq_trials,correct_response,actual_response,acc,rts,probe_trials,fast_rt_trigger,slow_rt_trigger,rt_triggered,rts_runningavg,rts_runningstd,rts_runningfastthresh,rts_runningslowthresh,rts_runningstd,rts_trailingavg,trials_colorind0,trials_colorind1,trials_colorind2,trials_colorind3,trials_colorind4,trials_colorind5,wholereport_resp0,wholereport_resp1,wholereport_resp2,wholereport_resp3,wholereport_resp4,wholereport_resp5,wholereport_respacc0,wholereport_respacc1,wholereport_respacc2,wholereport_respacc3,wholereport_respacc4,wholereport_respacc5,wholereport_respacc_total,wholereport_respcolorind0,wholereport_respcolorind1,wholereport_respcolorind2,wholereport_respcolorind3,wholereport_respcolorind4,wholereport_respcolorind5,wholereport_resporder0,wholereport_resporder1,wholereport_resporder2,wholereport_resporder3,wholereport_resporder4,wholereport_resporder5,wholereport_rts0,wholereport_rts1,wholereport_rts2,wholereport_rts3,wholereport_rts4,wholereport_rts5,time_blockstart,time_encarray_offset,time_encarray_onset,time_response,time_iti_offset,time_iti_onset,time_memprobe_offset,time_memprobe_onset
1,1,1,1,1.0,1.0,0.7449842299101874,0,nan,nan,nan,nan,nan,nan,nan,nan,nan,6,0,8,2,4,1,nan,nan,nan,nan,nan,nan,nan,nan,nan,nan,nan,nan,0.0,nan,nan,nan,nan,nan,nan,nan,nan,nan,nan,nan,nan,nan,nan,nan,nan,nan,nan,699.6912333179498,700.7142009592499,nan,701.45918518916,nan,nan,nan,nan
1,2,0,0,0.0,1.0,0.5318893016665243,0,nan,nan,nan,nan,nan,nan,nan,nan,nan,3,1,7,4,6,5,nan,nan,nan,nan,nan,nan,nan,nan,nan,nan,nan,nan,0.0,nan,nan,nan,nan,nan,nan,nan,nan,nan,nan,nan,nan,nan,nan,nan,nan,nan,nan,699.6912333179498,701.7352365030674,nan,702.267125804734,nan,nan,nan,nan
1,3,1,1,1.0,1.0,0.3590012164786458,0,nan,nan,nan,nan,nan,nan,nan,nan,nan,4,8,2,3,5,7,nan,nan,nan,nan,nan,nan,nan,nan,nan,nan,nan,nan,0.0,nan,nan,nan,nan,nan,nan,nan,nan,nan,nan,nan,nan,nan,nan,nan,nan,nan,nan,699.6912333179498,702.7561471746885,nan,703.1151483911672,nan,nan,nan,nan
1,4,1,1,1.0,1.0,0.5101569825783372,0,nan,nan,nan,nan,nan,nan,nan,nan,nan,7,5,0,8,4,6,nan,nan,nan,nan,nan,nan,nan,nan,nan,nan,nan,nan,0.0,nan,nan,nan,nan,nan,nan,nan,nan,nan,nan,nan,nan,nan,nan,nan,nan,nan,nan,699.6912333179498,703.772960442584,nan,704.2831174251623,nan,nan,nan,nan
1,5,1,1,1.0,1.0,0.39733640250051394,0,nan,nan,nan,nan,nan,nan,nan,nan,nan,3,2,7,5,1,4,nan,nan,nan,nan,nan,nan,nan,nan,nan,nan,nan,nan,0.0,nan,nan,nan,nan,nan,nan,nan,nan,nan,nan,nan,nan,nan,nan,nan,nan,nan,nan,699.6912333179498,704.7897494773497,nan,705.1870858798502,nan,nan,nan,nan
1,6,1,1,1.0,1.0,0.40452482004184276,0,nan,nan,nan,nan,nan,nan,nan,nan,nan,7,4,0,6,3,5,nan,nan,nan,nan,nan,nan,nan,nan,nan,nan,nan,nan,0.0,nan,nan,nan,nan,nan,nan,nan,nan,nan,nan,nan,nan,nan,nan,nan,nan,nan,nan,699.6912333179498,705.806543358718,nan,706.2110681787599,nan,nan,nan,nan
1,7,1,1,1.0,1.0,0.419697358913254,0,nan,nan,nan,nan,nan,nan,nan,nan,nan,8,2,5,1,7,6,nan,nan,nan,nan,nan,nan,nan,nan,nan,nan,nan,nan,0.0,nan,nan,nan,nan,nan,nan,nan,nan,nan,nan,nan,nan,nan,nan,nan,nan,nan,nan,699.6912333179498,706.823352065112,nan,707.2430494240252,nan,nan,nan,nan
1,8,0,0,1.0,0.0,0.546535552770365,0,nan,nan,nan,nan,nan,nan,nan,nan,nan,3,8,7,5,4,1,nan,nan,nan,nan,nan,nan,nan,nan,nan,nan,nan,nan,0.0,nan,nan,nan,nan,nan,nan,nan,nan,nan,nan,nan,nan,nan,nan,nan,nan,nan,nan,699.6912333179498,707.8484784554457,nan,708.3950140082161,nan,nan,nan,nan
1,9,1,1,1.0,1.0,0.609710322227329,1,nan,nan,nan,nan,nan,nan,nan,nan,nan,6,3,2,4,1,0,1.0,1.0,1.0,1.0,1.0,1.0,0.0,0.0,0.0,0.0,0.0,1.0,1.0,5.0,7.0,4.0,7.0,5.0,0.0,6.0,2.0,4.0,3.0,5.0,1.0,16.84594480477972,10.038211454171687,14.061883283255156,11.886354066198692,15.790468775259797,6.872995309880935,699.6912333179498,708.8652620733483,709.6736964756856,709.4749723955756,727.5676936879754,728.5634517404833,710.6821675414103,727.5593660257291
1,10,1,1,nan,nan,nan,0,nan,nan,nan,nan,nan,nan,nan,nan,nan,7,2,5,0,3,8,nan,nan,nan,nan,nan,nan,nan,nan,nan,nan,nan,nan,0.0,nan,nan,nan,nan,nan,nan,nan,nan,nan,nan,nan,nan,nan,nan,nan,nan,nan,nan,699.6912333179498,728.7845992131042,nan,nan,nan,nan,nan,nan
1,11,1,1,1.0,1.0,0.6891047891112976,0,nan,nan,nan,nan,nan,nan,nan,nan,nan,3,0,1,4,7,5,nan,nan,nan,nan,nan,nan,nan,nan,nan,nan,nan,nan,0.0,nan,nan,nan,nan,nan,nan,nan,nan,nan,nan,nan,nan,nan,nan,nan,nan,nan,nan,699.6912333179498,729.801356317068,nan,730.4904611061793,nan,nan,nan,nan
1,12,1,1,1.0,1.0,0.5119781775865704,0,nan,nan,nan,nan,nan,nan,nan,nan,nan,8,5,6,2,3,1,nan,nan,nan,nan,nan,nan,nan,nan,nan,nan,nan,nan,0.0,nan,nan,nan,nan,nan,nan,nan,nan,nan,nan,nan,nan,nan,nan,nan,nan,nan,nan,699.6912333179498,730.826494396315,nan,731.3384725739015,nan,nan,nan,nan
1,13,1,1,1.0,1.0,0.3341932787443511,0,nan,nan,nan,nan,nan,nan,nan,nan,nan,4,1,7,0,5,6,nan,nan,nan,nan,nan,nan,nan,nan,nan,nan,nan,nan,0.0,nan,nan,nan,nan,nan,nan,nan,nan,nan,nan,nan,nan,nan,nan,nan,nan,nan,nan,699.6912333179498,731.8682689837879,nan,732.2024622625322,nan,nan,nan,nan
1,14,1,1,1.0,1.0,0.4210065209772438,0,nan,nan,nan,nan,nan,nan,nan,nan,nan,5,0,4,7,8,1,nan,nan,nan,nan,nan,nan,nan,nan,nan,nan,nan,nan,0.0,nan,nan,nan,nan,nan,nan,nan,nan,nan,nan,nan,nan,nan,nan,nan,nan,nan,nan,699.6912333179498,732.8934361428837,nan,733.314442663861,nan,nan,nan,nan
1,15,1,1,1.0,1.0,0.5798707202193327,0,nan,nan,nan,nan,nan,nan,nan,nan,nan,1,7,3,6,5,8,nan,nan,nan,nan,nan,nan,nan,nan,nan,nan,nan,nan,0.0,nan,nan,nan,nan,nan,nan,nan,nan,nan,nan,nan,nan,nan,nan,nan,nan,nan,nan,699.6912333179498,733.9185497038416,nan,734.4984204240609,nan,nan,nan,nan
1,16,1,1,1.0,1.0,0.6190190008492209,1,nan,nan,nan,nan,nan,nan,nan,nan,nan,5,0,8,3,2,6,1.0,1.0,1.0,1.0,1.0,1.0,0.0,0.0,0.0,0.0,0.0,0.0,0.0,2.0,3.0,6.0,5.0,0.0,4.0,2.0,6.0,1.0,5.0,4.0,3.0,8.120405851688702,15.798726303852163,5.18369836587226,13.295082060678396,11.695187318255194,9.920073543442413,699.6912333179498,734.9353632568382,735.7437759918976,735.5543822576874,752.6042994799791,753.6008999919286,736.7689132158412,752.5959669710137
1,17,1,1,1.0,1.0,0.6848018310265616,0,nan,nan,nan,nan,nan,nan,nan,nan,nan,6,2,4,0,8,5,nan,nan,nan,nan,nan,nan,nan,nan,nan,nan,nan,nan,0.0,nan,nan,nan,nan,nan,nan,nan,nan,nan,nan,nan,nan,nan,nan,nan,nan,nan,nan,699.6912333179498,753.8211519771139,nan,754.5059538081405,nan,nan,nan,nan
1,18,1,1,1.0,1.0,0.4839842889341526,0,nan,nan,nan,nan,nan,nan,nan,nan,nan,3,4,2,6,5,7,nan,nan,nan,nan,nan,nan,nan,nan,nan,nan,nan,nan,0.0,nan,nan,nan,nan,nan,nan,nan,nan,nan,nan,nan,nan,nan,nan,nan,nan,nan,nan,699.6912333179498,754.8379546965007,nan,755.3219389854348,nan,nan,nan,nan
1,19,1,1,1.0,1.0,0.4341625738888979,0,nan,nan,nan,nan,nan,nan,nan,nan,nan,4,7,5,1,0,2,nan,nan,nan,nan,nan,nan,nan,nan,nan,nan,nan,nan,0.0,nan,nan,nan,nan,nan,nan,nan,nan,nan,nan,nan,nan,nan,nan,nan,nan,nan,nan,699.6912333179498,755.8797364113852,nan,756.3138989852741,nan,nan,nan,nan
1,20,1,1,1.0,1.0,0.5133315296261571,0,nan,nan,nan,nan,nan,nan,nan,nan,nan,6,3,7,0,1,4,nan,nan,nan,nan,nan,nan,nan,nan,nan,nan,nan,nan,0.0,nan,nan,nan,nan,nan,nan,nan,nan,nan,nan,nan,nan,nan,nan,nan,nan,nan,nan,699.6912333179498,756.8965545259416,nan,757.4098860555678,nan,nan,nan,nan
1,21,1,1,1.0,1.0,0.5044713074457832,0,nan,nan,nan,nan,nan,nan,nan,nan,nan,8,4,0,1,6,2,nan,nan,nan,nan,nan,nan,nan,nan,nan,nan,nan,nan,0.0,nan,nan,nan,nan,nan,nan,nan,nan,nan,nan,nan,nan,nan,nan,nan,nan,nan,nan,699.6912333179498,757.9133677938953,nan,758.4178391013411,nan,nan,nan,nan
1,22,1,1,1.0,1.0,0.35168108448851854,0,nan,nan,nan,nan,nan,nan,nan,nan,nan,3,6,1,8,2,7,nan,nan,nan,nan,nan,nan,nan,nan,nan,nan,nan,nan,0.0,nan,nan,nan,nan,nan,nan,nan,nan,nan,nan,nan,nan,nan,nan,nan,nan,nan,nan,699.6912333179498,758.9301542627509,nan,759.2818353472394,nan,nan,nan,nan
1,23,1,1,1.0,1.0,0.3988545401953161,0,nan,nan,nan,nan,nan,nan,nan,nan,nan,6,8,7,5,1,4,nan,nan,nan,nan,nan,nan,nan,nan,nan,nan,nan,nan,0.0,nan,nan,nan,nan,nan,nan,nan,nan,nan,nan,nan,nan,nan,nan,nan,nan,nan,nan,699.6912333179498,759.9469621138414,nan,760.3458166540368,nan,nan,nan,nan
1,24,1,1,1.0,1.0,0.4540280825458467,0,nan,nan,nan,nan,nan,nan,nan,nan,nan,8,1,5,3,4,0,nan,nan,nan,nan,nan,nan,nan,nan,nan,nan,nan,nan,0.0,nan,nan,nan,nan,nan,nan,nan,nan,nan,nan,nan,nan,nan,nan,nan,nan,nan,nan,699.6912333179498,760.9637631226215,nan,761.4177912051673,nan,nan,nan,nan
1,25,1,1,1.0,1.0,0.34919989155605435,0,nan,nan,nan,nan,nan,nan,nan,nan,nan,3,4,8,2,0,5,nan,nan,nan,nan,nan,nan,nan,nan,nan,nan,nan,nan,0.0,nan,nan,nan,nan,nan,nan,nan,nan,nan,nan,nan,nan,nan,nan,nan,nan,nan,nan,699.6912333179498,761.9805635611992,nan,762.3297634527553,nan,nan,nan,nan
1,26,1,1,1.0,1.0,0.3643815534305759,0,nan,nan,nan,nan,nan,nan,nan,nan,nan,2,0,1,3,8,4,nan,nan,nan,nan,nan,nan,nan,nan,nan,nan,nan,nan,0.0,nan,nan,nan,nan,nan,nan,nan,nan,nan,nan,nan,nan,nan,nan,nan,nan,nan,nan,699.6912333179498,762.9973608637811,nan,763.3617424172116,nan,nan,nan,nan
1,27,1,1,1.0,1.0,0.33853814605390653,0,nan,nan,nan,nan,nan,nan,nan,nan,nan,4,3,5,0,6,1,nan,nan,nan,nan,nan,nan,nan,nan,nan,nan,nan,nan,0.0,nan,nan,nan,nan,nan,nan,nan,nan,nan,nan,nan,nan,nan,nan,nan,nan,nan,nan,699.6912333179498,764.0391753647127,nan,764.3777135107666,nan,nan,nan,nan
1,28,1,1,1.0,1.0,0.3697345211985521,0,nan,nan,nan,nan,nan,nan,nan,nan,nan,8,2,0,5,3,6,nan,nan,nan,nan,nan,nan,nan,nan,nan,nan,nan,nan,0.0,nan,nan,nan,nan,nan,nan,nan,nan,nan,nan,nan,nan,nan,nan,nan,nan,nan,nan,699.6912333179498,765.0559632590739,nan,765.4256977802725,nan,nan,nan,nan
1,29,0,0,1.0,0.0,0.3448946526623331,0,nan,nan,nan,nan,nan,nan,nan,nan,nan,6,5,3,4,0,1,nan,nan,nan,nan,nan,nan,nan,nan,nan,nan,nan,nan,0.0,nan,nan,nan,nan,nan,nan,nan,nan,nan,nan,nan,nan,nan,nan,nan,nan,nan,nan,699.6912333179498,766.0727708250633,nan,766.4176654777257,nan,nan,nan,nan
1,30,1,1,1.0,1.0,0.6077440131921321,0,nan,nan,nan,nan,nan,nan,nan,nan,nan,7,2,1,6,5,4,nan,nan,nan,nan,nan,nan,nan,nan,nan,nan,nan,nan,0.0,nan,nan,nan,nan,nan,nan,nan,nan,nan,nan,nan,nan,nan,nan,nan,nan,nan,nan,699.6912333179498,767.0978832456749,nan,767.705627258867,nan,nan,nan,nan
1,31,1,1,1.0,1.0,0.4549272762378678,0,nan,nan,nan,nan,nan,nan,nan,nan,nan,5,0,7,1,8,2,nan,nan,nan,nan,nan,nan,nan,nan,nan,nan,nan,nan,0.0,nan,nan,nan,nan,nan,nan,nan,nan,nan,nan,nan,nan,nan,nan,nan,nan,nan,nan,699.6912333179498,768.1146942328196,nan,768.5696215090575,nan,nan,nan,nan
1,32,1,1,1.0,1.0,0.4620894649415277,0,nan,nan,nan,nan,nan,nan,nan,nan,nan,0,3,8,2,7,4,nan,nan,nan,nan,nan,nan,nan,nan,nan,nan,nan,nan,0.0,nan,nan,nan,nan,nan,nan,nan,nan,nan,nan,nan,nan,nan,nan,nan,nan,nan,nan,699.6912333179498,769.1315089262207,nan,769.5935983911622,nan,nan,nan,nan
1,33,1,1,1.0,1.0,0.42928087030304596,0,nan,nan,nan,nan,nan,nan,nan,nan,nan,4,0,6,8,3,7,nan,nan,nan,nan,nan,nan,nan,nan,nan,nan,nan,nan,0.0,nan,nan,nan,nan,nan,nan,nan,nan,nan,nan,nan,nan,nan,nan,nan,nan,nan,nan,699.6912333179498,770.1483010970405,nan,770.5775819673436,nan,nan,nan,nan
1,34,1,1,1.0,1.0,0.5324475201778114,0,nan,nan,nan,nan,nan,nan,nan,nan,nan,8,7,0,3,1,5,nan,nan,nan,nan,nan,nan,nan,nan,nan,nan,nan,nan,0.0,nan,nan,nan,nan,nan,nan,nan,nan,nan,nan,nan,nan,nan,nan,nan,nan,nan,nan,699.6912333179498,771.16509526351,nan,771.6975427836878,nan,nan,nan,nan
1,35,1,1,1.0,1.0,0.5396804127958603,0,nan,nan,nan,nan,nan,nan,nan,nan,nan,3,1,4,2,5,0,nan,nan,nan,nan,nan,nan,nan,nan,nan,nan,nan,nan,0.0,nan,nan,nan,nan,nan,nan,nan,nan,nan,nan,nan,nan,nan,nan,nan,nan,nan,nan,699.6912333179498,772.1818574991776,nan,772.7215379119734,nan,nan,nan,nan
1,36,1,1,1.0,1.0,0.4667955492041074,0,nan,nan,nan,nan,nan,nan,nan,nan,nan,0,6,5,3,4,8,nan,nan,nan,nan,nan,nan,nan,nan,nan,nan,nan,nan,0.0,nan,nan,nan,nan,nan,nan,nan,nan,nan,nan,nan,nan,nan,nan,nan,nan,nan,nan,699.6912333179498,773.1987041233806,nan,773.6654996725847,nan,nan,nan,nan
1,37,1,1,1.0,1.0,0.5059885898954235,0,nan,nan,nan,nan,nan,nan,nan,nan,nan,2,8,3,5,1,7,nan,nan,nan,nan,nan,nan,nan,nan,nan,nan,nan,nan,0.0,nan,nan,nan,nan,nan,nan,nan,nan,nan,nan,nan,nan,nan,nan,nan,nan,nan,nan,699.6912333179498,774.2154971494456,nan,774.721485739341,nan,nan,nan,nan
1,38,1,1,1.0,1.0,0.5211662604124285,0,nan,nan,nan,nan,nan,nan,nan,nan,nan,7,2,1,3,0,8,nan,nan,nan,nan,nan,nan,nan,nan,nan,nan,nan,nan,0.0,nan,nan,nan,nan,nan,nan,nan,nan,nan,nan,nan,nan,nan,nan,nan,nan,nan,nan,699.6912333179498,775.2322904606699,nan,775.7534567210823,nan,nan,nan,nan
1,39,0,0,0.0,1.0,0.6003275185939856,0,nan,nan,nan,nan,nan,nan,nan,nan,nan,5,8,2,4,3,7,nan,nan,nan,nan,nan,nan,nan,nan,nan,nan,nan,nan,0.0,nan,nan,nan,nan,nan,nan,nan,nan,nan,nan,nan,nan,nan,nan,nan,nan,nan,nan,699.6912333179498,776.2490911843488,nan,776.8494187029428,nan,nan,nan,nan
1,40,1,1,1.0,1.0,0.6231945208855905,0,nan,nan,nan,nan,nan,nan,nan,nan,nan,7,0,4,6,2,5,nan,nan,nan,nan,nan,nan,nan,nan,nan,nan,nan,nan,0.0,nan,nan,nan,nan,nan,nan,nan,nan,nan,nan,nan,nan,nan,nan,nan,nan,nan,nan,699.6912333179498,777.2742121578194,nan,777.897406678705,nan,nan,nan,nan
1,41,1,1,1.0,1.0,0.7183462591492571,0,nan,nan,nan,nan,nan,nan,nan,nan,nan,1,3,5,8,4,7,nan,nan,nan,nan,nan,nan,nan,nan,nan,nan,nan,nan,0.0,nan,nan,nan,nan,nan,nan,nan,nan,nan,nan,nan,nan,nan,nan,nan,nan,nan,nan,699.6912333179498,778.2910231449641,nan,779.0093694041134,nan,nan,nan,nan
1,42,1,1,1.0,1.0,0.7892214790335856,0,nan,nan,nan,nan,nan,nan,nan,nan,nan,5,7,0,2,6,8,nan,nan,nan,nan,nan,nan,nan,nan,nan,nan,nan,nan,0.0,nan,nan,nan,nan,nan,nan,nan,nan,nan,nan,nan,nan,nan,nan,nan,nan,nan,nan,699.6912333179498,779.3161381314276,nan,780.1053596104612,nan,nan,nan,nan
1,43,1,1,nan,nan,nan,0,nan,nan,nan,nan,nan,nan,nan,nan,nan,8,4,7,0,1,6,nan,nan,nan,nan,nan,nan,nan,nan,nan,nan,nan,nan,0.0,nan,nan,nan,nan,nan,nan,nan,nan,nan,nan,nan,nan,nan,nan,nan,nan,nan,nan,699.6912333179498,780.3329622329911,nan,nan,nan,nan,nan,nan
1,44,0,0,0.0,1.0,0.7875488192075863,0,nan,nan,nan,nan,nan,nan,nan,nan,nan,2,0,3,5,7,4,nan,nan,nan,nan,nan,nan,nan,nan,nan,nan,nan,nan,0.0,nan,nan,nan,nan,nan,nan,nan,nan,nan,nan,nan,nan,nan,nan,nan,nan,nan,nan,699.6912333179498,781.349754403811,nan,782.1373032230185,nan,nan,nan,nan
1,45,1,1,1.0,1.0,0.7467173301847652,0,nan,nan,nan,nan,nan,nan,nan,nan,nan,7,4,0,1,8,3,nan,nan,nan,nan,nan,nan,nan,nan,nan,nan,nan,nan,0.0,nan,nan,nan,nan,nan,nan,nan,nan,nan,nan,nan,nan,nan,nan,nan,nan,nan,nan,699.6912333179498,782.366555412591,nan,783.1132727427757,nan,nan,nan,nan
1,46,1,1,1.0,1.0,0.7538769530365244,0,nan,nan,nan,nan,nan,nan,nan,nan,nan,3,2,8,4,0,1,nan,nan,nan,nan,nan,nan,nan,nan,nan,nan,nan,nan,0.0,nan,nan,nan,nan,nan,nan,nan,nan,nan,nan,nan,nan,nan,nan,nan,nan,nan,nan,699.6912333179498,783.3833803694579,nan,784.1372573224944,nan,nan,nan,nan
1,47,1,1,nan,nan,nan,0,nan,nan,nan,nan,nan,nan,nan,nan,nan,2,4,5,1,7,8,nan,nan,nan,nan,nan,nan,nan,nan,nan,nan,nan,nan,0.0,nan,nan,nan,nan,nan,nan,nan,nan,nan,nan,nan,nan,nan,nan,nan,nan,nan,nan,699.6912333179498,784.4001571450499,nan,nan,nan,nan,nan,nan
1,48,1,1,nan,nan,nan,0,nan,nan,nan,nan,nan,nan,nan,nan,nan,5,1,7,3,2,0,nan,nan,nan,nan,nan,nan,nan,nan,nan,nan,nan,nan,0.0,nan,nan,nan,nan,nan,nan,nan,nan,nan,nan,nan,nan,nan,nan,nan,nan,nan,nan,699.6912333179498,785.4169618600863,nan,nan,nan,nan,nan,nan
1,49,1,1,1.0,1.0,0.7114195598987862,0,nan,nan,nan,nan,nan,nan,nan,nan,nan,6,2,3,1,0,7,nan,nan,nan,nan,nan,nan,nan,nan,nan,nan,nan,nan,0.0,nan,nan,nan,nan,nan,nan,nan,nan,nan,nan,nan,nan,nan,nan,nan,nan,nan,nan,699.6912333179498,786.4337591626681,nan,787.1451787225669,nan,nan,nan,nan
1,50,1,1,1.0,1.0,0.6306204236461781,0,nan,nan,nan,nan,nan,nan,nan,nan,nan,2,7,1,3,6,5,nan,nan,nan,nan,nan,nan,nan,nan,nan,nan,nan,nan,0.0,nan,nan,nan,nan,nan,nan,nan,nan,nan,nan,nan,nan,nan,nan,nan,nan,nan,nan,699.6912333179498,787.4505504781846,nan,788.0811709018308,nan,nan,nan,nan
1,51,1,1,1.0,1.0,0.45345988566987216,0,nan,nan,nan,nan,nan,nan,nan,nan,nan,7,0,5,8,4,3,nan,nan,nan,nan,nan,nan,nan,nan,nan,nan,nan,nan,0.0,nan,nan,nan,nan,nan,nan,nan,nan,nan,nan,nan,nan,nan,nan,nan,nan,nan,nan,699.6912333179498,788.4756857064203,nan,788.9291455920902,nan,nan,nan,nan
1,52,1,1,1.0,1.0,0.3486265629180707,0,nan,nan,nan,nan,nan,nan,nan,nan,nan,4,3,7,6,0,5,nan,nan,nan,nan,nan,nan,nan,nan,nan,nan,nan,nan,0.0,nan,nan,nan,nan,nan,nan,nan,nan,nan,nan,nan,nan,nan,nan,nan,nan,nan,nan,699.6912333179498,789.4924912767601,nan,789.8411178396782,nan,nan,nan,nan
1,53,1,1,1.0,1.0,0.523815089953132,0,nan,nan,nan,nan,nan,nan,nan,nan,nan,6,0,5,1,8,7,nan,nan,nan,nan,nan,nan,nan,nan,nan,nan,nan,nan,0.0,nan,nan,nan,nan,nan,nan,nan,nan,nan,nan,nan,nan,nan,nan,nan,nan,nan,nan,699.6912333179498,790.5092845879844,nan,791.0330996779376,nan,nan,nan,nan
1,54,1,1,1.0,1.0,0.49095831403974444,0,nan,nan,nan,nan,nan,nan,nan,nan,nan,0,6,8,3,1,4,nan,nan,nan,nan,nan,nan,nan,nan,nan,nan,nan,nan,0.0,nan,nan,nan,nan,nan,nan,nan,nan,nan,nan,nan,nan,nan,nan,nan,nan,nan,nan,699.6912333179498,791.5261229443713,nan,792.017081258411,nan,nan,nan,nan
1,55,1,1,1.0,1.0,0.49816298217047006,0,nan,nan,nan,nan,nan,nan,nan,nan,nan,5,8,3,4,2,0,nan,nan,nan,nan,nan,nan,nan,nan,nan,nan,nan,nan,0.0,nan,nan,nan,nan,nan,nan,nan,nan,nan,nan,nan,nan,nan,nan,nan,nan,nan,nan,699.6912333179498,792.5428880309919,nan,793.0410510131624,nan,nan,nan,nan
1,56,1,1,1.0,1.0,0.4650148377986625,0,nan,nan,nan,nan,nan,nan,nan,nan,nan,8,4,5,2,6,1,nan,nan,nan,nan,nan,nan,nan,nan,nan,nan,nan,nan,0.0,nan,nan,nan,nan,nan,nan,nan,nan,nan,nan,nan,nan,nan,nan,nan,nan,nan,nan,699.6912333179498,793.5680178424809,nan,794.0330326802796,nan,nan,nan,nan
1,57,0,0,1.0,0.0,0.3918594178976491,0,nan,nan,nan,nan,nan,nan,nan,nan,nan,5,8,7,3,1,6,nan,nan,nan,nan,nan,nan,nan,nan,nan,nan,nan,nan,0.0,nan,nan,nan,nan,nan,nan,nan,nan,nan,nan,nan,nan,nan,nan,nan,nan,nan,nan,699.6912333179498,794.5931530707749,nan,794.9850124886725,nan,nan,nan,nan
1,58,1,1,1.0,1.0,0.35101167840184644,0,nan,nan,nan,nan,nan,nan,nan,nan,nan,1,0,3,6,5,2,nan,nan,nan,nan,nan,nan,nan,nan,nan,nan,nan,nan,0.0,nan,nan,nan,nan,nan,nan,nan,nan,nan,nan,nan,nan,nan,nan,nan,nan,nan,nan,699.6912333179498,795.6099612069665,nan,795.9609728853684,nan,nan,nan,nan
1,59,1,1,1.0,1.0,0.4062288405257277,0,nan,nan,nan,nan,nan,nan,nan,nan,nan,3,8,1,2,4,7,nan,nan,nan,nan,nan,nan,nan,nan,nan,nan,nan,nan,0.0,nan,nan,nan,nan,nan,nan,nan,nan,nan,nan,nan,nan,nan,nan,nan,nan,nan,nan,699.6912333179498,796.6267351316055,nan,797.0329639721313,nan,nan,nan,nan
1,60,1,1,1.0,1.0,0.29338573780842125,0,nan,nan,nan,nan,nan,nan,nan,nan,nan,8,5,0,4,1,2,nan,nan,nan,nan,nan,nan,nan,nan,nan,nan,nan,nan,0.0,nan,nan,nan,nan,nan,nan,nan,nan,nan,nan,nan,nan,nan,nan,nan,nan,nan,nan,699.6912333179498,797.6435575226205,nan,797.936943260429,nan,nan,nan,nan
1,61,1,1,1.0,1.0,0.2525690738693811,0,nan,nan,nan,nan,nan,nan,nan,nan,nan,5,0,8,1,3,6,nan,nan,nan,nan,nan,nan,nan,nan,nan,nan,nan,nan,0.0,nan,nan,nan,nan,nan,nan,nan,nan,nan,nan,nan,nan,nan,nan,nan,nan,nan,nan,699.6912333179498,798.660357105895,nan,798.9129261797643,nan,nan,nan,nan
1,62,1,1,1.0,1.0,0.3077360590104945,0,nan,nan,nan,nan,nan,nan,nan,nan,nan,8,2,1,7,0,3,nan,nan,nan,nan,nan,nan,nan,nan,nan,nan,nan,nan,0.0,nan,nan,nan,nan,nan,nan,nan,nan,nan,nan,nan,nan,nan,nan,nan,nan,nan,nan,699.6912333179498,799.677160965628,nan,799.9848970246385,nan,nan,nan,nan
1,63,1,1,1.0,1.0,0.24291086720768362,0,nan,nan,nan,nan,nan,nan,nan,nan,nan,6,7,0,4,1,8,nan,nan,nan,nan,nan,nan,nan,nan,nan,nan,nan,nan,0.0,nan,nan,nan,nan,nan,nan,nan,nan,nan,nan,nan,nan,nan,nan,nan,nan,nan,nan,699.6912333179498,800.6939522811444,nan,800.9368631483521,nan,nan,nan,nan
1,64,1,1,1.0,1.0,0.26609803264727816,0,nan,nan,nan,nan,nan,nan,nan,nan,nan,5,3,7,2,6,4,nan,nan,nan,nan,nan,nan,nan,nan,nan,nan,nan,nan,0.0,nan,nan,nan,nan,nan,nan,nan,nan,nan,nan,nan,nan,nan,nan,nan,nan,nan,nan,699.6912333179498,801.710746732715,nan,801.9768447653623,nan,nan,nan,nan
1,65,1,1,1.0,1.0,0.28926239034626633,0,nan,nan,nan,nan,nan,nan,nan,nan,nan,3,8,6,0,1,5,nan,nan,nan,nan,nan,nan,nan,nan,nan,nan,nan,nan,0.0,nan,nan,nan,nan,nan,nan,nan,nan,nan,nan,nan,nan,nan,nan,nan,nan,nan,nan,699.6912333179498,802.7275600006687,nan,803.016822391015,nan,nan,nan,nan
1,66,1,1,1.0,1.0,0.4484501738916151,1,nan,nan,nan,nan,nan,nan,nan,nan,nan,0,3,4,7,8,2,1.0,1.0,1.0,1.0,1.0,1.0,0.0,1.0,0.0,1.0,1.0,0.0,3.0,4.0,3.0,1.0,7.0,8.0,0.0,1.0,6.0,5.0,4.0,3.0,2.0,7.04403568606358,15.45961653982522,14.07569648307981,11.908390868164133,10.555849933298305,8.989486504520755,699.6912333179498,803.744345614221,804.5527646213886,804.1927957881126,821.0799159079907,822.083379827789,805.5779508819105,821.0716127639753
1,67,1,1,1.0,1.0,0.3752611125819385,0,nan,nan,nan,nan,nan,nan,nan,nan,nan,4,8,0,2,3,1,nan,nan,nan,nan,nan,nan,nan,nan,nan,nan,nan,nan,0.0,nan,nan,nan,nan,nan,nan,nan,nan,nan,nan,nan,nan,nan,nan,nan,nan,nan,nan,699.6912333179498,822.3051154540153,nan,822.6803765665973,nan,nan,nan,nan
1,68,0,0,0.0,1.0,0.43037506978726014,0,nan,nan,nan,nan,nan,nan,nan,nan,nan,0,4,6,3,7,8,nan,nan,nan,nan,nan,nan,nan,nan,nan,nan,nan,nan,0.0,nan,nan,nan,nan,nan,nan,nan,nan,nan,nan,nan,nan,nan,nan,nan,nan,nan,nan,699.6912333179498,823.3219760479406,nan,823.7523511177278,nan,nan,nan,nan
1,69,1,1,1.0,1.0,0.37358104018494487,0,nan,nan,nan,nan,nan,nan,nan,nan,nan,2,0,3,1,4,5,nan,nan,nan,nan,nan,nan,nan,nan,nan,nan,nan,nan,0.0,nan,nan,nan,nan,nan,nan,nan,nan,nan,nan,nan,nan,nan,nan,nan,nan,nan,nan,699.6912333179498,824.3387320114998,nan,824.7123130516848,nan,nan,nan,nan
1,70,0,0,0.0,1.0,0.572798622015398,0,nan,nan,nan,nan,nan,nan,nan,nan,nan,4,3,0,6,2,8,nan,nan,nan,nan,nan,nan,nan,nan,nan,nan,nan,nan,0.0,nan,nan,nan,nan,nan,nan,nan,nan,nan,nan,nan,nan,nan,nan,nan,nan,nan,nan,699.6912333179498,825.3554939620662,nan,825.9282925840816,nan,nan,nan,nan
1,71,1,1,1.0,1.0,0.34796057804487646,0,nan,nan,nan,nan,nan,nan,nan,nan,nan,6,1,8,2,4,5,nan,nan,nan,nan,nan,nan,nan,nan,nan,nan,nan,nan,0.0,nan,nan,nan,nan,nan,nan,nan,nan,nan,nan,nan,nan,nan,nan,nan,nan,nan,nan,699.6912333179498,826.3723032386624,nan,826.7202638167073,nan,nan,nan,nan
1,72,1,1,1.0,1.0,0.6671378357568756,0,nan,nan,nan,nan,nan,nan,nan,nan,nan,2,3,6,1,0,7,nan,nan,nan,nan,nan,nan,nan,nan,nan,nan,nan,nan,0.0,nan,nan,nan,nan,nan,nan,nan,nan,nan,nan,nan,nan,nan,nan,nan,nan,nan,nan,699.6912333179498,827.3891025368939,nan,828.0562403726508,nan,nan,nan,nan
1,73,1,1,1.0,1.0,0.522317479189951,0,nan,nan,nan,nan,nan,nan,nan,nan,nan,8,6,7,2,3,4,nan,nan,nan,nan,nan,nan,nan,nan,nan,nan,nan,nan,0.0,nan,nan,nan,nan,nan,nan,nan,nan,nan,nan,nan,nan,nan,nan,nan,nan,nan,nan,699.6912333179498,828.4059041158762,nan,828.9282215950661,nan,nan,nan,nan
1,74,1,1,1.0,1.0,0.3135066927643493,0,nan,nan,nan,nan,nan,nan,nan,nan,nan,5,7,2,6,8,1,nan,nan,nan,nan,nan,nan,nan,nan,nan,nan,nan,nan,0.0,nan,nan,nan,nan,nan,nan,nan,nan,nan,nan,nan,nan,nan,nan,nan,nan,nan,nan,699.6912333179498,829.4227082607104,nan,829.7362149534747,nan,nan,nan,nan
1,75,1,1,1.0,1.0,0.30466015526326373,0,nan,nan,nan,nan,nan,nan,nan,nan,nan,2,6,3,7,5,0,nan,nan,nan,nan,nan,nan,nan,nan,nan,nan,nan,nan,0.0,nan,nan,nan,nan,nan,nan,nan,nan,nan,nan,nan,nan,nan,nan,nan,nan,nan,nan,699.6912333179498,830.4395101247937,nan,830.744170280057,nan,nan,nan,nan
1,76,1,1,1.0,1.0,0.3118602617760189,0,nan,nan,nan,nan,nan,nan,nan,nan,nan,8,5,7,3,2,6,nan,nan,nan,nan,nan,nan,nan,nan,nan,nan,nan,nan,0.0,nan,nan,nan,nan,nan,nan,nan,nan,nan,nan,nan,nan,nan,nan,nan,nan,nan,nan,699.6912333179498,831.4562974489527,nan,831.7681577107287,nan,nan,nan,nan
1,77,1,1,1.0,1.0,0.33502433443209156,0,nan,nan,nan,nan,nan,nan,nan,nan,nan,1,4,5,6,0,2,nan,nan,nan,nan,nan,nan,nan,nan,nan,nan,nan,nan,0.0,nan,nan,nan,nan,nan,nan,nan,nan,nan,nan,nan,nan,nan,nan,nan,nan,nan,nan,699.6912333179498,832.4731035894365,nan,832.8081279238686,nan,nan,nan,nan
1,78,1,1,1.0,1.0,0.5422046551830135,1,nan,nan,nan,nan,nan,nan,nan,nan,nan,3,5,8,2,6,0,1.0,1.0,1.0,1.0,1.0,1.0,0.0,1.0,0.0,0.0,0.0,0.0,1.0,4.0,5.0,1.0,8.0,1.0,6.0,4.0,5.0,6.0,1.0,2.0,3.0,9.179660262190737,10.507059411494993,11.99460512312362,3.0906366684939712,4.266374290979002,6.516134311154019,699.6912333179498,833.4898929093033,834.298315337568,834.0320975644863,847.3416773411445,848.3375933369389,835.3067895393469,847.3333525298513
1,79,1,1,1.0,1.0,0.753178752202075,0,nan,nan,nan,nan,nan,nan,nan,nan,nan,2,8,4,7,3,6,nan,nan,nan,nan,nan,nan,nan,nan,nan,nan,nan,nan,0.0,nan,nan,nan,nan,nan,nan,nan,nan,nan,nan,nan,nan,nan,nan,nan,nan,nan,nan,699.6912333179498,848.5585503652692,nan,849.3117291174713,nan,nan,nan,nan
1,80,1,1,1.0,1.0,0.5523791712475941,0,nan,nan,nan,nan,nan,nan,nan,nan,nan,3,7,6,4,0,5,nan,nan,nan,nan,nan,nan,nan,nan,nan,nan,nan,nan,0.0,nan,nan,nan,nan,nan,nan,nan,nan,nan,nan,nan,nan,nan,nan,nan,nan,nan,nan,699.6912333179498,849.5753359788214,nan,850.127715150069,nan,nan,nan,nan
1,81,0,0,0.0,1.0,0.575544954452198,0,0.0,0.0,0.0,0.48137185793434345,0.14016319247998554,0.3412086654543579,0.621535050414329,0.14016319247998554,0.6270342926339557,4,0,5,1,3,7,nan,nan,nan,nan,nan,nan,nan,nan,nan,nan,nan,nan,0.0,nan,nan,nan,nan,nan,nan,nan,nan,nan,nan,nan,nan,nan,nan,nan,nan,nan,nan,699.6912333179498,850.5921441150131,nan,851.1676890694653,nan,nan,nan,nan
1,82,1,1,nan,nan,nan,0,0.0,0.0,0.0,0.0,0.0,0.0,0.0,0.0,0.0,7,4,8,5,1,0,nan,nan,nan,nan,nan,nan,nan,nan,nan,nan,nan,nan,0.0,nan,nan,nan,nan,nan,nan,nan,nan,nan,nan,nan,nan,nan,nan,nan,nan,nan,nan,699.6912333179498,851.6089320093743,nan,nan,nan,nan,nan,nan
1,83,1,1,1.0,1.0,0.781911040248815,1,0.0,1.0,1.0,0.48259488516184806,0.13965765916736994,0.3429372259944781,0.622252544329218,0.13965765916736994,0.6787279973505065,4,5,2,1,0,6,1.0,1.0,1.0,1.0,1.0,1.0,0.0,0.0,0.0,0.0,0.0,0.0,0.0,1.0,7.0,6.0,7.0,5.0,1.0,6.0,5.0,4.0,3.0,2.0,1.0,12.497611605911516,11.45816853584256,8.507020353339612,7.426435609464534,6.041875226481352,4.56442163803149,699.6912333179498,852.625729026855,853.4341471786611,853.4076400671038,866.9859256520285,867.9931593998917,854.450955885055,866.9776128147496
1,84,1,1,1.0,1.0,0.6121766901342198,0,0.0,0.0,0.0,0.4864322717655271,0.1427868109944235,0.3436454607711036,0.6292190827599506,0.1427868109944235,0.6970438651915174,7,0,4,5,2,3,nan,nan,nan,nan,nan,nan,nan,nan,nan,nan,nan,nan,0.0,nan,nan,nan,nan,nan,nan,nan,nan,nan,nan,nan,nan,nan,nan,nan,nan,nan,nan,699.6912333179498,868.2111166451359,nan,868.8232933352701,nan,nan,nan,nan
1,85,1,1,1.0,1.0,0.5073775789933279,0,0.0,0.0,0.0,0.488023973263865,0.14257492970721733,0.34544904355664763,0.6305989029710823,0.14257492970721733,0.6338217697921209,8,4,5,3,6,7,nan,nan,nan,nan,nan,nan,nan,nan,nan,nan,nan,nan,0.0,nan,nan,nan,nan,nan,nan,nan,nan,nan,nan,nan,nan,nan,nan,nan,nan,nan,nan,699.6912333179498,869.2278934207279,nan,869.7352709997213,nan,nan,nan,nan
1,86,1,1,1.0,1.0,0.4665557831758633,0,0.0,0.0,0.0,0.48826589333548326,0.14169734983096308,0.34656854350452015,0.6299632431664464,0.14169734983096308,0.5287033507678037,1,7,3,8,2,0,nan,nan,nan,nan,nan,nan,nan,nan,nan,nan,nan,nan,0.0,nan,nan,nan,nan,nan,nan,nan,nan,nan,nan,nan,nan,nan,nan,nan,nan,nan,nan,699.6912333179498,870.2446904382086,nan,870.7112462213845,nan,nan,nan,nan
1,87,1,1,1.0,1.0,0.5377240821253508,0,0.0,0.0,0.0,0.4879978672841299,0.14084036256564936,0.34715750471848056,0.6288382298497792,0.14084036256564936,0.5038858147648474,0,4,2,7,5,1,nan,nan,nan,nan,nan,nan,nan,nan,nan,nan,nan,nan,0.0,nan,nan,nan,nan,nan,nan,nan,nan,nan,nan,nan,nan,nan,nan,nan,nan,nan,nan,699.6912333179498,871.2614945830428,nan,871.7992186651682,nan,nan,nan,nan
1,88,1,1,1.0,1.0,0.32890559802763164,0,0.0,0.0,0.0,0.4886042845382912,0.14008530360868537,0.3485189809296058,0.6286895881469765,0.14008530360868537,0.4443951544429486,8,6,5,0,1,4,nan,nan,nan,nan,nan,nan,nan,nan,nan,nan,nan,nan,0.0,nan,nan,nan,nan,nan,nan,nan,nan,nan,nan,nan,nan,nan,nan,nan,nan,nan,nan,699.6912333179498,872.278295876924,nan,872.6072014749516,nan,nan,nan,nan
1,89,1,1,1.0,1.0,0.3280799592612311,0,0.0,0.0,0.0,0.4866802039779218,0.14032473375058307,0.3463554702273387,0.6270049377285049,0.14032473375058307,0.39823654647140455,3,4,1,2,5,0,nan,nan,nan,nan,nan,nan,nan,nan,nan,nan,nan,nan,0.0,nan,nan,nan,nan,nan,nan,nan,nan,nan,nan,nan,nan,nan,nan,nan,nan,nan,nan,699.6912333179498,873.2950903284946,nan,873.6231702877558,nan,nan,nan,nan
1,90,1,1,1.0,1.0,0.303258336847648,1,1.0,0.0,1.0,0.4847921058265326,0.1405435938840776,0.344248511942455,0.6253356997106102,0.1405435938840776,0.3200812980455036,6,5,2,3,0,4,1.0,1.0,1.0,1.0,1.0,1.0,0.0,0.0,0.0,0.0,0.0,1.0,1.0,5.0,3.0,8.0,1.0,2.0,4.0,4.0,3.0,2.0,1.0,6.0,5.0,9.211478432349395,7.52432598255109,5.764711181807797,3.685136819141917,13.89089165860787,10.779929906246252,699.6912333179498,874.3118879161193,875.1203143357416,874.615146252967,890.0639308447717,891.0650350226788,876.137108502211,890.0555954848533
1,91,1,1,1.0,1.0,0.5176726906793192,0,0.0,0.0,0.0,0.48265641442678103,0.14107890820163768,0.3415775062251434,0.6237353226284187,0.14107890820163768,0.3830036622627328,3,1,6,4,2,7,nan,nan,nan,nan,nan,nan,nan,nan,nan,nan,nan,nan,0.0,nan,nan,nan,nan,nan,nan,nan,nan,nan,nan,nan,nan,nan,nan,nan,nan,nan,nan,699.6912333179498,891.2891024513519,nan,891.8067751420313,nan,nan,nan,nan
1,92,1,1,1.0,1.0,0.30082589539233595,0,0.0,0.0,0.0,0.48306358042971753,0.14030651002696695,0.3427570704027506,0.6233700904566845,0.14030651002696695,0.3739189743064344,6,0,4,7,5,8,nan,nan,nan,nan,nan,nan,nan,nan,nan,nan,nan,nan,0.0,nan,nan,nan,nan,nan,nan,nan,nan,nan,nan,nan,nan,nan,nan,nan,nan,nan,nan,699.6912333179498,892.3059177149553,nan,892.6067436103476,nan,nan,nan,nan
1,93,1,1,1.0,1.0,0.2760085494373925,0,0.0,0.0,0.0,0.48096889439480506,0.14084383151208402,0.34012506288272104,0.6218127259068891,0.14084383151208402,0.3648357118363492,2,6,3,1,0,5,nan,nan,nan,nan,nan,nan,nan,nan,nan,nan,nan,nan,0.0,nan,nan,nan,nan,nan,nan,nan,nan,nan,nan,nan,nan,nan,nan,nan,nan,nan,nan,699.6912333179498,893.3227221448906,nan,893.598730694328,nan,nan,nan,nan
1,94,0,0,1.0,0.0,0.2591912901843898,0,0.0,0.0,0.0,0.4786397995657436,0.14171630812723715,0.3369234914385064,0.6203561076929808,0.14171630812723715,0.2786752450047061,7,5,1,2,6,4,nan,nan,nan,nan,nan,nan,nan,nan,nan,nan,nan,nan,0.0,nan,nan,nan,nan,nan,nan,nan,nan,nan,nan,nan,nan,nan,nan,nan,nan,nan,nan,699.6912333179498,894.3395128902048,nan,894.5987041803892,nan,nan,nan,nan
1,95,1,1,1.0,1.0,0.386005250911694,1,1.0,0.0,1.0,0.476174085977189,0.14280361332684066,0.33337047265034836,0.6189776993040297,0.14280361332684066,0.3070683635111588,4,8,6,3,5,0,1.0,1.0,1.0,1.0,1.0,1.0,0.0,0.0,0.0,1.0,0.0,0.0,1.0,7.0,7.0,2.0,3.0,8.0,7.0,4.0,3.0,2.0,1.0,6.0,5.0,6.509966538287699,5.151931227941532,3.9924899938632734,2.8947943415259942,8.0941747133038,7.390319898026064,699.6912333179498,895.3646455526468,896.173061138601,895.7506508035585,905.3242482652422,906.321495375596,897.1898282209295,905.31592373905
1,96,1,1,1.0,1.0,0.48136054788483307,0,0.0,0.0,0.0,0.4751722100320169,0.1423222355930831,0.33284997443893377,0.6174944456250999,0.1423222355930831,0.37551902966030565,5,3,2,8,7,4,nan,nan,nan,nan,nan,nan,nan,nan,nan,nan,nan,nan,0.0,nan,nan,nan,nan,nan,nan,nan,nan,nan,nan,nan,nan,nan,nan,nan,nan,nan,nan,699.6912333179498,906.5410756739439,nan,907.0224362218287,nan,nan,nan,nan
1,97,1,1,1.0,1.0,0.44048030744306743,0,0.0,0.0,0.0,0.47524021374468517,0.14153955536417365,0.33370065838051155,0.6167797691088588,0.14153955536417365,0.43594870207986486,8,5,1,4,6,2,nan,nan,nan,nan,nan,nan,nan,nan,nan,nan,nan,nan,0.0,nan,nan,nan,nan,nan,nan,nan,nan,nan,nan,nan,nan,nan,nan,nan,nan,nan,nan,699.6912333179498,907.5579049072694,nan,907.9983852147125,nan,nan,nan,nan
1,98,1,1,1.0,1.0,0.2156944361049682,0,0.0,0.0,0.0,0.47486238867618935,0.14081435047595253,0.3340480382002368,0.6156767391521418,0.14081435047595253,0.3791784304776229,3,4,6,2,7,1,nan,nan,nan,nan,nan,nan,nan,nan,nan,nan,nan,nan,0.0,nan,nan,nan,nan,nan,nan,nan,nan,nan,nan,nan,nan,nan,nan,nan,nan,nan,nan,699.6912333179498,908.5746956525836,nan,908.7903900886886,nan,nan,nan,nan
1,99,1,1,1.0,1.0,0.25484357198001817,1,1.0,0.0,1.0,0.47207563649800416,0.1425831004773149,0.3294925360206893,0.614658736975319,0.1425831004773149,0.3036727718426846,6,3,4,5,1,8,1.0,1.0,1.0,1.0,1.0,1.0,0.0,0.0,0.0,0.0,1.0,0.0,1.0,4.0,2.0,6.0,0.0,1.0,6.0,3.0,2.0,1.0,6.0,5.0,4.0,6.026742316025775,4.884409709600732,1.9481144730234519,10.306880199990701,8.539066030294634,7.338640495610889,699.6912333179498,909.5915046440787,910.3999179492821,909.8463482160587,921.7597296945169,922.763527176925,911.4167366340407,921.7513988961582
1,100,1,1,1.0,1.0,0.38910424744244665,0,0.0,0.0,0.0,0.46976465708823834,0.1435630272072997,0.32620162988093865,0.613327684295538,0.1435630272072997,0.28654741850914434,8,1,7,0,2,6,nan,nan,nan,nan,nan,nan,nan,nan,nan,nan,nan,nan,0.0,nan,nan,nan,nan,nan,nan,nan,nan,nan,nan,nan,nan,nan,nan,nan,nan,nan,nan,699.6912333179498,922.9849571799859,nan,923.3740614274284,nan,nan,nan,nan
1,101,1,1,1.0,1.0,0.2999540709424764,0,0.0,0.0,0.0,0.46891560014459843,0.14304249783709602,0.32587310230750244,0.6119580979816944,0.14304249783709602,0.3146339634549804,6,5,3,2,7,1,nan,nan,nan,nan,nan,nan,nan,nan,nan,nan,nan,nan,0.0,nan,nan,nan,nan,nan,nan,nan,nan,nan,nan,nan,nan,nan,nan,nan,nan,nan,nan,699.6912333179498,924.010055060673,nan,924.3100091316155,nan,nan,nan,nan
1,102,1,1,1.0,1.0,0.3471386454766616,0,0.0,0.0,0.0,0.46715558421540965,0.1433258402054595,0.3238297440099501,0.6104814244208692,0.1433258402054595,0.34539898795386154,7,4,5,8,1,2,nan,nan,nan,nan,nan,nan,nan,nan,nan,nan,nan,nan,0.0,nan,nan,nan,nan,nan,nan,nan,nan,nan,nan,nan,nan,nan,nan,nan,nan,nan,nan,699.6912333179498,925.0268515078933,nan,925.37399015337,nan,nan,nan,nan
1,103,1,1,1.0,1.0,0.30633994250092655,1,1.0,0.0,1.0,0.4659182961871752,0.14309956274618266,0.32281873344099254,0.6090178589333578,0.14309956274618266,0.3178108863066882,8,1,4,0,7,5,1.0,1.0,1.0,1.0,1.0,1.0,0.0,0.0,0.0,0.0,0.0,0.0,0.0,6.0,2.0,3.0,5.0,4.0,1.0,3.0,2.0,1.0,6.0,5.0,4.0,9.175629000819754,6.392828175041359,4.640341921709478,13.502453396038618,12.198154457786586,10.566519091371447,699.6912333179498,926.0436160243698,926.8520589795662,926.3499559668708,941.4039557678625,942.4034941970021,927.8605368876015,941.3956229738542
1,104,1,1,1.0,1.0,0.4807686879648827,0,0.0,0.0,0.0,0.46428994563935627,0.14326803169291868,0.3210219139464376,0.607557977332275,0.14326803169291868,0.378082425314157,2,7,8,5,1,0,nan,nan,nan,nan,nan,nan,nan,nan,nan,nan,nan,nan,0.0,nan,nan,nan,nan,nan,nan,nan,nan,nan,nan,nan,nan,nan,nan,nan,nan,nan,nan,699.6912333179498,942.6208190987236,nan,943.1015877866885,nan,nan,nan,nan
1,105,1,1,1.0,1.0,0.3519487898447551,0,0.0,0.0,0.0,0.4644563975820384,0.1425521431707897,0.3219042544112487,0.6070085407528281,0.1425521431707897,0.3796858067701881,4,0,1,7,6,3,nan,nan,nan,nan,nan,nan,nan,nan,nan,nan,nan,nan,0.0,nan,nan,nan,nan,nan,nan,nan,nan,nan,nan,nan,nan,nan,nan,nan,nan,nan,nan,699.6912333179498,943.6376106993412,nan,943.9895594891859,nan,nan,nan,nan
1,106,1,1,1.0,1.0,0.21514847670914605,0,0.0,0.0,0.0,0.46333132150466555,0.14227865689964628,0.32105266460501924,0.6056099784043119,0.14227865689964628,0.34928865150626126,6,5,3,8,4,0,nan,nan,nan,nan,nan,nan,nan,nan,nan,nan,nan,nan,0.0,nan,nan,nan,nan,nan,nan,nan,nan,nan,nan,nan,nan,nan,nan,nan,nan,nan,nan,699.6912333179498,944.6544048658106,nan,944.8695533425198,nan,nan,nan,nan
1,107,0,0,1.0,0.0,0.15832365670939907,0,0.0,0.0,0.0,0.460874065615601,0.14368924446994083,0.31718482114566016,0.6045633100855419,0.14368924446994083,0.24180697442110008,1,0,7,2,6,3,nan,nan,nan,nan,nan,nan,nan,nan,nan,nan,nan,nan,0.0,nan,nan,nan,nan,nan,nan,nan,nan,nan,nan,nan,nan,nan,nan,nan,nan,nan,nan,699.6912333179498,945.6711913346662,nan,945.8295149913756,nan,nan,nan,nan
1,108,1,1,1.0,1.0,0.15746950823813677,1,1.0,0.0,1.0,0.4579078851361284,0.14605753054750953,0.31185035458861887,0.6039654156836379,0.14605753054750953,0.17698054721889397,4,5,8,6,1,2,1.0,1.0,1.0,1.0,1.0,1.0,0.0,0.0,0.0,0.0,0.0,0.0,0.0,5.0,6.0,1.0,3.0,2.0,0.0,4.0,3.0,2.0,1.0,6.0,5.0,6.809311358490959,5.571347767021507,4.387474637129344,3.483250451099593,9.385412535746582,8.009414164233021,699.6912333179498,946.6880040324177,947.4964284563903,946.8454735406558,957.9394575245096,958.9391222512932,948.5132283247658,957.9311230198946
1,109,1,1,1.0,1.0,0.31287149828858674,0,0.0,0.0,0.0,0.45499100769051687,0.14830212876496449,0.3066888789255524,0.6032931364554813,0.14830212876496449,0.2095548877453742,0,1,7,5,3,8,nan,nan,nan,nan,nan,nan,nan,nan,nan,nan,nan,nan,0.0,nan,nan,nan,nan,nan,nan,nan,nan,nan,nan,nan,nan,nan,nan,nan,nan,nan,nan,699.6912333179498,959.1563071706914,nan,959.46917866898,nan,nan,nan,nan
1,110,1,1,1.0,1.0,0.3520616879686713,0,0.0,0.0,0.0,0.45362447394626754,0.14823760966700886,0.30538686427925865,0.6018620836132764,0.14823760966700886,0.27413423149846494,7,4,6,1,0,5,nan,nan,nan,nan,nan,nan,nan,nan,nan,nan,nan,nan,0.0,nan,nan,nan,nan,nan,nan,nan,nan,nan,nan,nan,nan,nan,nan,nan,nan,nan,nan,699.6912333179498,960.1730976309627,nan,960.5251593189314,nan,nan,nan,nan
1,111,1,1,1.0,1.0,0.4232066090335138,0,0.0,0.0,0.0,0.4526572093179095,0.14785943160612602,0.30479777771178346,0.6005166409240354,0.14785943160612602,0.362713265096924,2,8,3,6,5,7,nan,nan,nan,nan,nan,nan,nan,nan,nan,nan,nan,nan,0.0,nan,nan,nan,nan,nan,nan,nan,nan,nan,nan,nan,nan,nan,nan,nan,nan,nan,nan,699.6912333179498,961.1899305704865,nan,961.61313717952,nan,nan,nan,nan
1,112,1,1,1.0,1.0,0.31044846505392343,0,0.0,0.0,0.0,0.4523793734661699,0.14718786495328212,0.3051915085128878,0.599567238419452,0.14718786495328212,0.3619055873520362,5,6,2,7,1,0,nan,nan,nan,nan,nan,nan,nan,nan,nan,nan,nan,nan,0.0,nan,nan,nan,nan,nan,nan,nan,nan,nan,nan,nan,nan,nan,nan,nan,nan,nan,nan,699.6912333179498,962.2066597350058,nan,962.5171082000597,nan,nan,nan,nan
1,113,1,1,1.0,1.0,0.3496440715389326,0,0.0,0.0,0.0,0.45105291637820494,0.1471336248789107,0.3039192914992942,0.5981865412571157,0.1471336248789107,0.36109971520879,7,8,0,4,3,6,nan,nan,nan,nan,nan,nan,nan,nan,nan,nan,nan,nan,0.0,nan,nan,nan,nan,nan,nan,nan,nan,nan,nan,nan,nan,nan,nan,nan,nan,nan,nan,699.6912333179498,963.2234593183384,nan,963.5731033898774,nan,nan,nan,nan
1,114,1,1,1.0,1.0,0.5244246257934719,0,0.0,0.0,0.0,0.45011394559265616,0.1467725948237421,0.30334135076891405,0.5968865404163983,0.1467725948237421,0.394839054128776,8,4,6,7,2,3,nan,nan,nan,nan,nan,nan,nan,nan,nan,nan,nan,nan,0.0,nan,nan,nan,nan,nan,nan,nan,nan,nan,nan,nan,nan,nan,nan,nan,nan,nan,nan,699.6912333179498,964.2486298985896,nan,964.773054524383,nan,nan,nan,nan
1,115,1,1,1.0,1.0,0.387606066535227,0,0.0,0.0,0.0,0.45079569495229665,0.1462694645337235,0.3045262304185732,0.5970651594860201,0.1462694645337235,0.42055825462254387,5,0,8,2,3,1,nan,nan,nan,nan,nan,nan,nan,nan,nan,nan,nan,nan,0.0,nan,nan,nan,nan,nan,nan,nan,nan,nan,nan,nan,nan,nan,nan,nan,nan,nan,nan,699.6912333179498,965.2654249203042,nan,965.6530309868394,nan,nan,nan,nan
1,116,1,1,1.0,1.0,0.4827868845895864,0,0.0,0.0,0.0,0.4502212437848688,0.14572655157010939,0.3044946922147594,0.5959477953549781,0.14572655157010939,0.4649391923060951,2,8,0,3,7,6,nan,nan,nan,nan,nan,nan,nan,nan,nan,nan,nan,nan,0.0,nan,nan,nan,nan,nan,nan,nan,nan,nan,nan,nan,nan,nan,nan,nan,nan,nan,nan,699.6912333179498,966.2822262141854,nan,966.765013098775,nan,nan,nan,nan
1,117,1,1,1.0,1.0,0.5136305956402794,0,0.0,0.0,0.0,0.4505146279362626,0.14510127026765496,0.30541335766860767,0.5956158982039176,0.14510127026765496,0.4613411822550309,4,1,2,6,0,7,nan,nan,nan,nan,nan,nan,nan,nan,nan,nan,nan,nan,0.0,nan,nan,nan,nan,nan,nan,nan,nan,nan,nan,nan,nan,nan,nan,nan,nan,nan,nan,699.6912333179498,967.3073648636346,nan,967.8209954592749,nan,nan,nan,nan
1,118,1,1,1.0,1.0,0.7288169901585206,0,0.0,0.0,0.0,0.4510781633621913,0.1445740074195298,0.3065041559426615,0.5956521707817211,0.1445740074195298,0.5750781567961288,2,3,1,4,7,5,nan,nan,nan,nan,nan,nan,nan,nan,nan,nan,nan,nan,0.0,nan,nan,nan,nan,nan,nan,nan,nan,nan,nan,nan,nan,nan,nan,nan,nan,nan,nan,699.6912333179498,968.3241462007863,nan,969.0529631909449,nan,nan,nan,nan
1,119,1,1,1.0,1.0,0.4639904868672602,0,0.0,0.0,0.0,0.45353602908605267,0.14626440770898397,0.3072716213770687,0.5998004367950367,0.14626440770898397,0.5688126908886867,8,7,5,6,1,2,nan,nan,nan,nan,nan,nan,nan,nan,nan,nan,nan,nan,0.0,nan,nan,nan,nan,nan,nan,nan,nan,nan,nan,nan,nan,nan,nan,nan,nan,nan,nan,699.6912333179498,969.3409626047942,nan,969.8049530916614,nan,nan,nan,nan
1,120,1,1,1.0,1.0,0.5191574720665812,0,0.0,0.0,0.0,0.4536277348560632,0.14562474708091477,0.30800298777514845,0.599252481936978,0.14562474708091477,0.5706549830307873,7,1,8,4,6,3,nan,nan,nan,nan,nan,nan,nan,nan,nan,nan,nan,nan,0.0,nan,nan,nan,nan,nan,nan,nan,nan,nan,nan,nan,nan,nan,nan,nan,nan,nan,nan,699.6912333179498,970.3577627582708,nan,970.8769202303374,nan,nan,nan,nan
1,121,1,1,1.0,1.0,0.49431760353036225,0,0.0,0.0,0.0,0.45419755865789385,0.145117806409475,0.3090797522484189,0.5993153650673688,0.145117806409475,0.4924885208214012,6,0,3,5,8,1,nan,nan,nan,nan,nan,nan,nan,nan,nan,nan,nan,nan,0.0,nan,nan,nan,nan,nan,nan,nan,nan,nan,nan,nan,nan,nan,nan,nan,nan,nan,nan,699.6912333179498,971.3745688988129,nan,971.8688865023432,nan,nan,nan,nan
1,122,1,1,1.0,1.0,0.6215113124926575,0,0.0,0.0,0.0,0.45454342111369095,0.1445385398357171,0.3100048812779739,0.599081960949408,0.1445385398357171,0.5449954626965337,0,1,2,4,5,7,nan,nan,nan,nan,nan,nan,nan,nan,nan,nan,nan,nan,0.0,nan,nan,nan,nan,nan,nan,nan,nan,nan,nan,nan,nan,nan,nan,nan,nan,nan,nan,699.6912333179498,972.3913662013365,nan,973.0128775138292,nan,nan,nan,nan
1,123,1,1,1.0,1.0,0.7007007951615378,1,0.0,1.0,1.0,0.455970497108383,0.14473793537639293,0.3112325617319901,0.6007084324847759,0.14473793537639293,0.6055099037281858,4,2,5,1,0,3,1.0,1.0,1.0,1.0,1.0,1.0,0.0,0.0,1.0,0.0,0.0,0.0,1.0,1.0,0.0,5.0,5.0,7.0,8.0,4.0,3.0,2.0,1.0,6.0,5.0,5.784243697999045,3.8969194492092356,2.7687313244096003,1.018524985993281,8.416270216519479,7.473090760118794,699.6912333179498,973.4081652144669,974.216577949468,974.1088660096284,983.6928027729737,984.6941509932512,975.2417262921808,983.6844805274741
1,124,1,1,1.0,1.0,0.5106168428319506,0,0.0,0.0,0.0,0.45804448268510467,0.14585883976710418,0.3121856429180005,0.6039033224522088,0.14585883976710418,0.610942983495382,0,1,8,7,3,4,nan,nan,nan,nan,nan,nan,nan,nan,nan,nan,nan,nan,0.0,nan,nan,nan,nan,nan,nan,nan,nan,nan,nan,nan,nan,nan,nan,nan,nan,nan,nan,699.6912333179498,984.9179706732975,nan,985.4285875161295,nan,nan,nan,nan
1,125,1,1,1.0,1.0,0.6297788194497116,0,0.0,0.0,0.0,0.45848626722415375,0.14532395459463487,0.3131623126295189,0.6038102218187886,0.14532395459463487,0.6136988191477334,2,5,6,4,0,1,nan,nan,nan,nan,nan,nan,nan,nan,nan,nan,nan,nan,0.0,nan,nan,nan,nan,nan,nan,nan,nan,nan,nan,nan,nan,nan,nan,nan,nan,nan,nan,699.6912333179498,985.9347973407712,nan,986.5645761602209,nan,nan,nan,nan
1,126,1,1,1.0,1.0,0.37294156925054267,0,0.0,0.0,0.0,0.45991370515936675,0.1455525045778062,0.3143612005815606,0.6054662097371729,0.1455525045778062,0.5044457438440683,7,3,5,0,2,8,nan,nan,nan,nan,nan,nan,nan,nan,nan,nan,nan,nan,0.0,nan,nan,nan,nan,nan,nan,nan,nan,nan,nan,nan,nan,nan,nan,nan,nan,nan,nan,699.6912333179498,986.951600630302,nan,987.3245421995525,nan,nan,nan,nan
1,127,1,1,1.0,1.0,0.5641251378692687,0,0.0,0.0,0.0,0.45919492717664917,0.14516349942585596,0.3140314277507932,0.6043584266025052,0.14516349942585596,0.522281842189841,6,2,4,3,8,1,nan,nan,nan,nan,nan,nan,nan,nan,nan,nan,nan,nan,0.0,nan,nan,nan,nan,nan,nan,nan,nan,nan,nan,nan,nan,nan,nan,nan,nan,nan,nan,699.6912333179498,987.9683925160207,nan,988.53251765389,nan,nan,nan,nan
1,128,1,1,1.0,1.0,0.4113135326770134,0,0.0,0.0,0.0,0.460055010870851,0.1448765876668141,0.3151784232040369,0.6049315985376651,0.1448765876668141,0.44946007993227494,3,0,1,6,4,7,nan,nan,nan,nan,nan,nan,nan,nan,nan,nan,nan,nan,0.0,nan,nan,nan,nan,nan,nan,nan,nan,nan,nan,nan,nan,nan,nan,nan,nan,nan,nan,699.6912333179498,988.9851883930387,nan,989.3965019257157,nan,nan,nan,nan
1,129,1,1,1.0,1.0,0.36951271625002846,0,0.0,0.0,0.0,0.4596587386904133,0.14435282956413686,0.31530590912627643,0.6040115682545502,0.14435282956413686,0.4483171289321035,0,3,6,4,1,8,nan,nan,nan,nan,nan,nan,nan,nan,nan,nan,nan,nan,0.0,nan,nan,nan,nan,nan,nan,nan,nan,nan,nan,nan,nan,nan,nan,nan,nan,nan,nan,699.6912333179498,990.026966116624,nan,990.396478832874,nan,nan,nan,nan
1,130,1,1,1.0,1.0,0.3366590764489956,0,0.0,0.0,0.0,0.4589317546384747,0.14399548372262017,0.3149362709158545,0.6029272383610949,0.14399548372262017,0.37249510845867917,1,5,0,8,6,3,nan,nan,nan,nan,nan,nan,nan,nan,nan,nan,nan,nan,0.0,nan,nan,nan,nan,nan,nan,nan,nan,nan,nan,nan,nan,nan,nan,nan,nan,nan,nan,699.6912333179498,991.0437876523356,nan,991.3804467287846,nan,nan,nan,nan
1,131,1,1,1.0,1.0,0.39182092988630757,0,0.0,0.0,0.0,0.4579535732129589,0.1438313935189501,0.3141221796940088,0.601784966731909,0.1438313935189501,0.36599757419511053,5,6,1,0,3,8,nan,nan,nan,nan,nan,nan,nan,nan,nan,nan,nan,nan,0.0,nan,nan,nan,nan,nan,nan,nan,nan,nan,nan,nan,nan,nan,nan,nan,nan,nan,nan,699.6912333179498,992.060602915939,nan,992.4524238458253,nan,nan,nan,nan
1,132,1,1,1.0,1.0,0.43900322361150756,0,0.0,0.0,0.0,0.45742871096433463,0.14337963084468347,0.31404908011965116,0.6008083418090181,0.14337963084468347,0.3891610766489369,1,2,3,7,4,0,nan,nan,nan,nan,nan,nan,nan,nan,nan,nan,nan,nan,0.0,nan,nan,nan,nan,nan,nan,nan,nan,nan,nan,nan,nan,nan,nan,nan,nan,nan,nan,699.6912333179498,993.0773948015994,nan,993.516398025211,nan,nan,nan,nan
1,133,1,1,1.0,1.0,0.48619578074431047,0,0.0,0.0,0.0,0.45728362838675335,0.1428233136076357,0.3144603147791176,0.6001069419943891,0.1428233136076357,0.4390066447473752,2,4,7,0,8,1,nan,nan,nan,nan,nan,nan,nan,nan,nan,nan,nan,nan,0.0,nan,nan,nan,nan,nan,nan,nan,nan,nan,nan,nan,nan,nan,nan,nan,nan,nan,nan,699.6912333179498,994.0941946700332,nan,994.5803904507775,nan,nan,nan,nan
1,134,1,1,1.0,1.0,0.3813769979169592,0,0.0,0.0,0.0,0.45750950457704676,0.1422870872001606,0.31522241737688617,0.5997965917772073,0.1422870872001606,0.43552533409092575,4,6,0,5,3,8,nan,nan,nan,nan,nan,nan,nan,nan,nan,nan,nan,nan,0.0,nan,nan,nan,nan,nan,nan,nan,nan,nan,nan,nan,nan,nan,nan,nan,nan,nan,nan,699.6912333179498,995.1109914023546,nan,995.4923684002715,nan,nan,nan,nan
1,135,1,1,1.0,1.0,0.34051642910344526,0,0.0,0.0,0.0,0.4569193301068135,0.14189170372654922,0.31502762638026427,0.5988110338333628,0.14189170372654922,0.4026964025882383,6,1,7,8,4,2,nan,nan,nan,nan,nan,nan,nan,nan,nan,nan,nan,nan,0.0,nan,nan,nan,nan,nan,nan,nan,nan,nan,nan,nan,nan,nan,nan,nan,nan,nan,nan,699.6912333179498,996.1278357457486,nan,996.468352174852,nan,nan,nan,nan
1,136,0,0,1.0,0.0,0.33972044032998383,0,0.0,0.0,0.0,0.45602392317601836,0.14171030520168795,0.31431361797433044,0.5977342283777063,0.14171030520168795,0.3538712891167961,1,6,0,4,5,7,nan,nan,nan,nan,nan,nan,nan,nan,nan,nan,nan,nan,0.0,nan,nan,nan,nan,nan,nan,nan,nan,nan,nan,nan,nan,nan,nan,nan,nan,nan,nan,699.6912333179498,997.1445862925029,nan,997.4843067328329,nan,nan,nan,nan
1,137,1,1,1.0,1.0,0.39488343411358073,0,0.0,0.0,0.0,0.45513611032986545,0.14153085123288114,0.31360525909698433,0.5966669615627466,0.14153085123288114,0.35837343451566994,8,5,6,1,3,2,nan,nan,nan,nan,nan,nan,nan,nan,nan,nan,nan,nan,0.0,nan,nan,nan,nan,nan,nan,nan,nan,nan,nan,nan,nan,nan,nan,nan,nan,nan,nan,699.6912333179498,998.1613858758355,nan,998.5562693099491,nan,nan,nan,nan
1,138,1,1,1.0,1.0,0.5140570996445604,0,0.0,0.0,0.0,0.45467965066156024,0.1410904906411839,0.31358916002037635,0.5957701413027441,0.1410904906411839,0.41622032469604164,4,8,2,0,1,3,nan,nan,nan,nan,nan,nan,nan,nan,nan,nan,nan,nan,0.0,nan,nan,nan,nan,nan,nan,nan,nan,nan,nan,nan,nan,nan,nan,nan,nan,nan,nan,699.6912333179498,999.1782199557638,nan,999.6922770554083,nan,nan,nan,nan
1,139,0,0,0.0,1.0,0.4492413160041906,0,0.0,0.0,0.0,0.45512609764639483,0.140652632344991,0.31447346530140385,0.5957787299913858,0.140652632344991,0.45272728325411055,7,5,4,3,2,1,nan,nan,nan,nan,nan,nan,nan,nan,nan,nan,nan,nan,0.0,nan,nan,nan,nan,nan,nan,nan,nan,nan,nan,nan,nan,nan,nan,nan,nan,nan,nan,699.6912333179498,1000.19500243332,nan,1000.6442437493242,nan,nan,nan,nan
1,140,1,1,1.0,1.0,0.4564240316976793,0,0.0,0.0,0.0,0.4550821813654829,0.1401277415431745,0.3149544398223084,0.5952099229086574,0.1401277415431745,0.47324081578214344,2,1,6,8,7,4,nan,nan,nan,nan,nan,nan,nan,nan,nan,nan,nan,nan,0.0,nan,nan,nan,nan,nan,nan,nan,nan,nan,nan,nan,nan,nan,nan,nan,nan,nan,nan,699.6912333179498,1001.2117914680275,nan,1001.6682154997252,nan,nan,nan,nan
1,141,1,1,1.0,1.0,0.4072817010455765,0,0.0,0.0,0.0,0.45509212099757324,0.1396078326499328,0.3154842883476404,0.594699953647506,0.1396078326499328,0.4376490162491488,0,7,5,1,4,3,nan,nan,nan,nan,nan,nan,nan,nan,nan,nan,nan,nan,0.0,nan,nan,nan,nan,nan,nan,nan,nan,nan,nan,nan,nan,nan,nan,nan,nan,nan,nan,699.6912333179498,1002.2369152925094,nan,1002.6441969935549,nan,nan,nan,nan
1,142,1,1,1.0,1.0,0.4624771958915517,0,0.0,0.0,0.0,0.4547405737920438,0.13915358276654222,0.3155869910255016,0.593894156558586,0.13915358276654222,0.4420609762116025,5,8,4,3,1,6,nan,nan,nan,nan,nan,nan,nan,nan,nan,nan,nan,nan,0.0,nan,nan,nan,nan,nan,nan,nan,nan,nan,nan,nan,nan,nan,nan,nan,nan,nan,nan,699.6912333179498,1003.2536937786499,nan,1003.7161709745415,nan,nan,nan,nan
1,143,1,1,1.0,1.0,0.46963054657680914,0,0.0,0.0,0.0,0.4547970454862008,0.13864635692622865,0.3161506885599722,0.5934434024124294,0.13864635692622865,0.4464631478379791,7,1,5,4,8,2,nan,nan,nan,nan,nan,nan,nan,nan,nan,nan,nan,nan,0.0,nan,nan,nan,nan,nan,nan,nan,nan,nan,nan,nan,nan,nan,nan,nan,nan,nan,nan,699.6912333179498,1004.2705158845638,nan,1004.7401464311406,nan,nan,nan,nan
1,144,1,1,1.0,1.0,0.45281528297346085,0,0.0,0.0,0.0,0.45490453462453856,0.138148830737097,0.31675570388744156,0.5930533653616356,0.138148830737097,0.46164100848060724,4,0,7,2,1,8,nan,nan,nan,nan,nan,nan,nan,nan,nan,nan,nan,nan,0.0,nan,nan,nan,nan,nan,nan,nan,nan,nan,nan,nan,nan,nan,nan,nan,nan,nan,nan,699.6912333179498,1005.2873137572897,nan,1005.7401290402631,nan,nan,nan,nan
1,145,1,1,nan,nan,nan,0,0.0,0.0,0.0,0.0,0.0,0.0,0.0,0.0,0.0,7,6,0,5,3,1,nan,nan,nan,nan,nan,nan,nan,nan,nan,nan,nan,nan,0.0,nan,nan,nan,nan,nan,nan,nan,nan,nan,nan,nan,nan,nan,nan,nan,nan,nan,nan,699.6912333179498,1006.3041176170227,nan,nan,nan,nan,nan,nan
1,146,1,1,nan,nan,nan,0,0.0,0.0,0.0,0.0,0.0,0.0,0.0,0.0,0.0,4,8,5,0,1,3,nan,nan,nan,nan,nan,nan,nan,nan,nan,nan,nan,nan,0.0,nan,nan,nan,nan,nan,nan,nan,nan,nan,nan,nan,nan,nan,nan,nan,nan,nan,nan,699.6912333179498,1007.3209251830704,nan,nan,nan,nan,nan,nan
1,147,1,1,nan,nan,nan,0,0.0,0.0,0.0,0.0,0.0,0.0,0.0,0.0,0.0,0,7,4,1,5,2,nan,nan,nan,nan,nan,nan,nan,nan,nan,nan,nan,nan,0.0,nan,nan,nan,nan,nan,nan,nan,nan,nan,nan,nan,nan,nan,nan,nan,nan,nan,nan,699.6912333179498,1008.3377102264203,nan,nan,nan,nan,nan,nan
1,148,1,1,1.0,1.0,0.6014733205665834,1,0.0,1.0,1.0,0.45488950403712075,0.13765110873931238,0.3172383952978084,0.5925406127764331,0.13765110873931238,0.6014733205665834,1,5,8,6,7,3,1.0,1.0,1.0,1.0,1.0,1.0,0.0,0.0,1.0,0.0,0.0,0.0,1.0,0.0,6.0,8.0,4.0,8.0,2.0,4.0,3.0,2.0,1.0,6.0,5.0,14.054021183226723,12.445155031047761,10.958067469182424,9.151501302723773,16.65343097690493,15.205821266863495,699.6912333179498,1009.3545280558756,1010.1629353740718,1009.9560013764421,1027.8735697788652,1028.8723661024123,1011.1797321064514,1027.8652441122686
1,149,1,1,1.0,1.0,0.769143573648762,0,0.0,0.0,0.0,0.45593653129804546,0.13771298811767757,0.3182235431803679,0.593649519415723,0.13771298811767757,0.6853084471076727,4,2,6,0,3,5,nan,nan,nan,nan,nan,nan,nan,nan,nan,nan,nan,nan,0.0,nan,nan,nan,nan,nan,nan,nan,nan,nan,nan,nan,nan,nan,nan,nan,nan,nan,nan,699.6912333179498,1029.0904259823146,nan,1029.8595695559634,nan,nan,nan,nan
1,150,1,1,1.0,1.0,0.7123381401761435,0,0.0,0.0,0.0,0.4581578578395399,0.1397181638776162,0.3184396939619237,0.5978760217171561,0.1397181638776162,0.6943183447971629,7,0,4,2,8,1,nan,nan,nan,nan,nan,nan,nan,nan,nan,nan,nan,nan,0.0,nan,nan,nan,nan,nan,nan,nan,nan,nan,nan,nan,nan,nan,nan,nan,nan,nan,nan,699.6912333179498,1030.107212166069,nan,1030.8195503062452,nan,nan,nan,nan
1,151,1,1,1.0,1.0,0.6314765678253025,1,0.0,1.0,1.0,0.4599478598278259,0.14083845861762148,0.31910940121020437,0.6007863184454474,0.14083845861762148,0.704319427216736,3,6,1,7,0,2,1.0,1.0,1.0,1.0,1.0,1.0,0.0,0.0,1.0,1.0,0.0,1.0,3.0,0.0,5.0,1.0,7.0,4.0,2.0,4.0,3.0,2.0,1.0,6.0,5.0,5.644509173929691,4.4519893590477295,3.212184330681339,1.6363845001906157,7.587503602902871,6.748505168885458,699.6912333179498,1031.1240408291924,1031.9324361733743,1031.7555173970177,1040.56689513335,1041.5704910526983,1032.9409217790235,1040.5585594883305
1,152,0,0,1.0,0.0,0.29913983604637906,0,0.0,0.0,0.0,0.4611473612823537,0.1410711592296391,0.3200762020527146,0.6022185205119928,0.1410711592296391,0.5476515146826083,1,8,5,0,2,3,nan,nan,nan,nan,nan,nan,nan,nan,nan,nan,nan,nan,0.0,nan,nan,nan,nan,nan,nan,nan,nan,nan,nan,nan,nan,nan,nan,nan,nan,nan,nan,699.6912333179498,1041.7921400096384,nan,1042.0912798456848,nan,nan,nan,nan
1,153,1,1,1.0,1.0,0.5863589413347654,0,0.0,0.0,0.0,0.4600223090237705,0.1412227717732814,0.3187995372504891,0.601245080797052,0.1412227717732814,0.505658448402149,3,2,7,6,0,5,nan,nan,nan,nan,nan,nan,nan,nan,nan,nan,nan,nan,0.0,nan,nan,nan,nan,nan,nan,nan,nan,nan,nan,nan,nan,nan,nan,nan,nan,nan,nan,699.6912333179498,1042.8088897010894,nan,1043.3952486424241,nan,nan,nan,nan
1,154,1,1,1.0,1.0,0.39320849342038855,0,0.0,0.0,0.0,0.46089359614315667,0.14112279641060277,0.3197707997325539,0.6020163925537594,0.14112279641060277,0.42623575693384436,1,0,5,4,2,3,nan,nan,nan,nan,nan,nan,nan,nan,nan,nan,nan,nan,0.0,nan,nan,nan,nan,nan,nan,nan,nan,nan,nan,nan,nan,nan,nan,nan,nan,nan,nan,699.6912333179498,1043.834023789037,nan,1044.2272322824574,nan,nan,nan,nan
1,155,1,1,1.0,1.0,0.472403678111732,0,0.0,0.0,0.0,0.46042999954916514,0.14074941850596515,0.31968058104319996,0.6011794180551303,0.14074941850596515,0.48399037095562863,8,4,2,7,1,0,nan,nan,nan,nan,nan,nan,nan,nan,nan,nan,nan,nan,0.0,nan,nan,nan,nan,nan,nan,nan,nan,nan,nan,nan,nan,nan,nan,nan,nan,nan,nan,699.6912333179498,1044.8508094025892,nan,1045.323213080701,nan,nan,nan,nan
1,156,1,1,1.0,1.0,0.5272231308626942,0,0.0,0.0,0.0,0.46051145314482883,0.14027331484105518,0.3202381383037737,0.600784767985884,0.14027331484105518,0.4642784341316049,2,6,0,4,8,1,nan,nan,nan,nan,nan,nan,nan,nan,nan,nan,nan,nan,0.0,nan,nan,nan,nan,nan,nan,nan,nan,nan,nan,nan,nan,nan,nan,nan,nan,nan,nan,699.6912333179498,1045.8759489073418,nan,1046.4031720382045,nan,nan,nan,nan
1,157,1,1,1.0,1.0,0.7104371181922033,0,0.0,0.0,0.0,0.4609622077240036,0.1399053975074666,0.321056810216537,0.6008676052314702,0.1399053975074666,0.5700213090555432,6,0,7,8,4,2,nan,nan,nan,nan,nan,nan,nan,nan,nan,nan,nan,nan,0.0,nan,nan,nan,nan,nan,nan,nan,nan,nan,nan,nan,nan,nan,nan,nan,nan,nan,nan,699.6912333179498,1046.8927171300165,nan,1047.6031542482087,nan,nan,nan,nan
1,158,1,1,1.0,1.0,0.5015755845815875,0,0.0,0.0,0.0,0.46263653598217946,0.14091505902911597,0.3217214769530635,0.6035515950112954,0.14091505902911597,0.5797452778788283,4,5,0,2,7,6,nan,nan,nan,nan,nan,nan,nan,nan,nan,nan,nan,nan,0.0,nan,nan,nan,nan,nan,nan,nan,nan,nan,nan,nan,nan,nan,nan,nan,nan,nan,nan,699.6912333179498,1047.9095409465372,nan,1048.4111165311188,nan,nan,nan,nan
1,159,1,1,1.0,1.0,0.5564246874419041,0,0.0,0.0,0.0,0.4628961296395088,0.14048029912865587,0.322415830510853,0.6033764287681647,0.14048029912865587,0.5894791300718983,2,0,1,4,3,7,nan,nan,nan,nan,nan,nan,nan,nan,nan,nan,nan,nan,0.0,nan,nan,nan,nan,nan,nan,nan,nan,nan,nan,nan,nan,nan,nan,nan,nan,nan,nan,699.6912333179498,1048.9346810214338,nan,1049.4911057088757,nan,nan,nan,nan
1,160,1,1,1.0,1.0,0.5076224766671658,0,0.0,0.0,0.0,0.4635155240620412,0.14021971468998926,0.32329580937205193,0.6037352387520305,0.14021971468998926,0.5218742495635524,6,3,7,2,8,5,nan,nan,nan,nan,nan,nan,nan,nan,nan,nan,nan,nan,0.0,nan,nan,nan,nan,nan,nan,nan,nan,nan,nan,nan,nan,nan,nan,nan,nan,nan,nan,699.6912333179498,1049.9514800345642,nan,1050.4591025112313,nan,nan,nan,nan
1,161,1,1,1.0,1.0,0.4747651305515319,0,0.0,0.0,0.0,0.4638057013818118,0.13980318522319765,0.3240025161586142,0.6036088866050094,0.13980318522319765,0.5129374315535339,1,0,2,5,4,7,nan,nan,nan,nan,nan,nan,nan,nan,nan,nan,nan,nan,0.0,nan,nan,nan,nan,nan,nan,nan,nan,nan,nan,nan,nan,nan,nan,nan,nan,nan,nan,699.6912333179498,1050.9682867453084,nan,1051.44305187586,nan,nan,nan,nan
1,162,1,1,1.0,1.0,0.5139866808895022,0,0.0,0.0,0.0,0.463877331637823,0.13934836148997348,0.32452897014784954,0.6032256931277965,0.13934836148997348,0.49879142936939996,0,3,7,8,5,4,nan,nan,nan,nan,nan,nan,nan,nan,nan,nan,nan,nan,0.0,nan,nan,nan,nan,nan,nan,nan,nan,nan,nan,nan,nan,nan,nan,nan,nan,nan,nan,699.6912333179498,1051.9850715035573,nan,1052.4990581844468,nan,nan,nan,nan
1,163,0,0,0.0,1.0,0.5611501582316123,0,0.0,0.0,0.0,0.4642027170225742,0.13895349631024162,0.3252492207123326,0.6031562133328159,0.13895349631024162,0.5166339898908822,6,2,4,3,8,7,nan,nan,nan,nan,nan,nan,nan,nan,nan,nan,nan,nan,0.0,nan,nan,nan,nan,nan,nan,nan,nan,nan,nan,nan,nan,nan,nan,nan,nan,nan,nan,699.6912333179498,1053.0018710868899,nan,1053.5630212451215,nan,nan,nan,nan
1,164,1,1,1.0,1.0,0.4083203068585135,0,0.0,0.0,0.0,0.4648281843852132,0.1387218518026217,0.3261063325825915,0.6035500361878349,0.1387218518026217,0.4944857153265427,7,3,6,4,0,1,nan,nan,nan,nan,nan,nan,nan,nan,nan,nan,nan,nan,0.0,nan,nan,nan,nan,nan,nan,nan,nan,nan,nan,nan,nan,nan,nan,nan,nan,nan,nan,699.6912333179498,1054.0186738062184,nan,1054.426994113077,nan,nan,nan,nan
1,165,1,1,1.0,1.0,0.48750465776538476,0,0.0,0.0,0.0,0.46446595440106764,0.13835003584704378,0.3261159185540239,0.6028159902481114,0.13835003584704378,0.48565837428517017,3,1,0,8,6,5,nan,nan,nan,nan,nan,nan,nan,nan,nan,nan,nan,nan,0.0,nan,nan,nan,nan,nan,nan,nan,nan,nan,nan,nan,nan,nan,nan,nan,nan,nan,nan,699.6912333179498,1055.035470253497,nan,1055.5229749112623,nan,nan,nan,nan
1,166,1,1,1.0,1.0,0.4706825518514961,0,0.0,0.0,0.0,0.46461269773459835,0.13792090547951893,0.3266917922550794,0.6025336032141173,0.13792090547951893,0.4555025054917981,0,2,3,5,4,6,nan,nan,nan,nan,nan,nan,nan,nan,nan,nan,nan,nan,0.0,nan,nan,nan,nan,nan,nan,nan,nan,nan,nan,nan,nan,nan,nan,nan,nan,nan,nan,699.6912333179498,1056.052268411324,nan,1056.5229509631754,nan,nan,nan,nan
1,167,0,0,0.0,1.0,0.6778546049026772,0,0.0,0.0,0.0,0.46465111453280655,0.1374845967981443,0.32716651773466227,0.6021357113309509,0.1374845967981443,0.5453472715065194,2,6,8,0,5,1,nan,nan,nan,nan,nan,nan,nan,nan,nan,nan,nan,nan,0.0,nan,nan,nan,nan,nan,nan,nan,nan,nan,nan,nan,nan,nan,nan,nan,nan,nan,nan,699.6912333179498,1057.0690648585442,nan,1057.7469194634468,nan,nan,nan,nan
1,168,1,1,1.0,1.0,0.581040755379945,0,0.0,0.0,0.0,0.46599201698796294,0.13808410780245592,0.32790790918550705,0.6040761247904188,0.13808410780245592,0.5765259707113728,4,5,0,1,7,3,nan,nan,nan,nan,nan,nan,nan,nan,nan,nan,nan,nan,0.0,nan,nan,nan,nan,nan,nan,nan,nan,nan,nan,nan,nan,nan,nan,nan,nan,nan,nan,699.6912333179498,1058.0858692884794,nan,1058.6669100438594,nan,nan,nan,nan
1,169,1,1,1.0,1.0,0.7481941288569942,1,0.0,1.0,1.0,0.46671107160291286,0.1379502083513229,0.32876086325158993,0.6046612799542358,0.1379502083513229,0.6690298297132055,3,0,4,8,5,2,1.0,1.0,1.0,1.0,1.0,1.0,0.0,0.0,1.0,0.0,0.0,0.0,1.0,0.0,8.0,4.0,7.0,8.0,5.0,3.0,2.0,1.0,6.0,5.0,4.0,4.505337429989595,3.313206486403942,1.7449417505413294,8.040009556454606,6.6169109989423305,5.648329464136623,699.6912333179498,1059.102665735758,1059.9110844577663,1059.850859864615,1069.003936894529,1070.008646685048,1060.9278965853155,1068.99560809182
1,170,1,1,1.0,1.0,0.733500266680494,0,0.0,0.0,0.0,0.4684594135734351,0.1392879447581277,0.32917146881530746,0.6077473583315628,0.1392879447581277,0.6875783836391444,1,6,2,7,8,4,nan,nan,nan,nan,nan,nan,nan,nan,nan,nan,nan,nan,0.0,nan,nan,nan,nan,nan,nan,nan,nan,nan,nan,nan,nan,nan,nan,nan,nan,nan,nan,699.6912333179498,1070.2291053650551,nan,1070.9626056317356,nan,nan,nan,nan
1,171,1,1,1.0,1.0,0.628623039170634,0,0.0,0.0,0.0,0.47009546822224413,0.14040055601261925,0.3296949122096249,0.6104960242348634,0.14040055601261925,0.7034391449027074,8,4,3,5,1,2,nan,nan,nan,nan,nan,nan,nan,nan,nan,nan,nan,nan,0.0,nan,nan,nan,nan,nan,nan,nan,nan,nan,nan,nan,nan,nan,nan,nan,nan,nan,nan,699.6912333179498,1071.2459688098752,nan,1071.8745918490458,nan,nan,nan,nan
1,172,1,1,1.0,1.0,0.531853094464168,1,0.0,1.0,1.0,0.47106803000720354,0.14051552816260884,0.3305525018445947,0.6115835581698124,0.14051552816260884,0.6313254667717653,0,2,5,3,6,4,1.0,1.0,1.0,1.0,1.0,1.0,0.0,0.0,0.0,0.0,0.0,0.0,0.0,4.0,1.0,6.0,2.0,3.0,8.0,3.0,2.0,1.0,6.0,5.0,4.0,3.6163556313840672,2.3443977298447862,1.2011662148288451,7.887261242547538,6.46412932878593,5.07226734503638,699.6912333179498,1072.2627270542434,1073.0711338022375,1072.7945801487076,1082.0223005160224,1083.0187627562555,1074.0962926935172,1082.0139711431111
1,173,1,1,1.0,1.0,0.46718413539929315,0,0.0,0.0,0.0,0.47143867064413625,0.14016637153626185,0.33127229910787437,0.6116050421803981,0.14016637153626185,0.542553423011365,8,4,3,0,7,1,nan,nan,nan,nan,nan,nan,nan,nan,nan,nan,nan,nan,0.0,nan,nan,nan,nan,nan,nan,nan,nan,nan,nan,nan,nan,nan,nan,nan,nan,nan,nan,699.6912333179498,1083.2391473112511,nan,1083.7063314466504,nan,nan,nan,nan
1,174,1,1,1.0,1.0,0.41034277982544154,0,0.0,0.0,0.0,0.4714128855820463,0.1397413695876407,0.3316715159944056,0.611154255169687,0.1397413695876407,0.46979333656296757,0,7,5,4,8,2,nan,nan,nan,nan,nan,nan,nan,nan,nan,nan,nan,nan,0.0,nan,nan,nan,nan,nan,nan,nan,nan,nan,nan,nan,nan,nan,nan,nan,nan,nan,nan,699.6912333179498,1084.2559571579914,nan,1084.6662999378168,nan,nan,nan,nan
1,175,1,1,1.0,1.0,0.3455107457120903,0,0.0,0.0,0.0,0.47104499337869327,0.13939994905768288,0.3316450443210104,0.6104449424363761,0.13939994905768288,0.407679220312275,6,3,7,8,1,5,nan,nan,nan,nan,nan,nan,nan,nan,nan,nan,nan,nan,0.0,nan,nan,nan,nan,nan,nan,nan,nan,nan,nan,nan,nan,nan,nan,nan,nan,nan,nan,699.6912333179498,1085.272751894663,nan,1085.6182626403752,nan,nan,nan,nan
1,176,1,1,1.0,1.0,0.35268034687032923,0,0.0,0.0,0.0,0.4702932912968573,0.1393189999407758,0.33097429135608153,0.6096122912376332,0.1393189999407758,0.36951129080262035,5,7,6,2,0,1,nan,nan,nan,nan,nan,nan,nan,nan,nan,nan,nan,nan,0.0,nan,nan,nan,nan,nan,nan,nan,nan,nan,nan,nan,nan,nan,nan,nan,nan,nan,nan,699.6912333179498,1086.2895625967649,nan,1086.6422429436352,nan,nan,nan,nan
1,177,1,1,1.0,1.0,0.43153712223283947,0,0.0,0.0,0.0,0.4695932142466994,0.13919805075059657,0.3303951634961029,0.608791264997296,0.13919805075059657,0.3765760716050863,7,8,0,1,6,3,nan,nan,nan,nan,nan,nan,nan,nan,nan,nan,nan,nan,0.0,nan,nan,nan,nan,nan,nan,nan,nan,nan,nan,nan,nan,nan,nan,nan,nan,nan,nan,699.6912333179498,1087.3146758726216,nan,1087.7462129948544,nan,nan,nan,nan
1,178,0,0,0.0,1.0,0.5906884134165011,0,0.0,0.0,0.0,0.46936803027028606,0.13881629869565523,0.3305517315746308,0.6081843289659413,0.13881629869565523,0.45830196083988994,6,1,8,5,3,4,nan,nan,nan,nan,nan,nan,nan,nan,nan,nan,nan,nan,0.0,nan,nan,nan,nan,nan,nan,nan,nan,nan,nan,nan,nan,nan,nan,nan,nan,nan,nan,699.6912333179498,1088.3314959828858,nan,1088.9221843963023,nan,nan,nan,nan
1,179,1,1,1.0,1.0,0.5018914712127298,0,0.0,0.0,0.0,0.4700816795829108,0.1387179979751679,0.3313636816077429,0.6087996775580787,0.1387179979751679,0.5080390022873568,1,6,4,7,0,2,nan,nan,nan,nan,nan,nan,nan,nan,nan,nan,nan,nan,0.0,nan,nan,nan,nan,nan,nan,nan,nan,nan,nan,nan,nan,nan,nan,nan,nan,nan,nan,699.6912333179498,1089.3482830219436,nan,1089.8501744931564,nan,nan,nan,nan
1,180,0,0,0.0,1.0,0.45304877683520317,0,0.0,0.0,0.0,0.47026770175618465,0.13833305958750208,0.33193464216868257,0.6086007613436868,0.13833305958750208,0.515209553821478,0,2,8,1,7,3,nan,nan,nan,nan,nan,nan,nan,nan,nan,nan,nan,nan,0.0,nan,nan,nan,nan,nan,nan,nan,nan,nan,nan,nan,nan,nan,nan,nan,nan,nan,nan,699.6912333179498,1090.365100851399,nan,1090.818149628234,nan,nan,nan,nan
1,181,1,1,1.0,1.0,0.36424784327391535,0,0.0,0.0,0.0,0.4701675917275743,0.13793655469188323,0.332231037035691,0.6081041464194575,0.13793655469188323,0.43972936377394944,1,3,6,0,8,2,nan,nan,nan,nan,nan,nan,nan,nan,nan,nan,nan,nan,0.0,nan,nan,nan,nan,nan,nan,nan,nan,nan,nan,nan,nan,nan,nan,nan,nan,nan,nan,699.6912333179498,1091.3818821885507,nan,1091.7461300318246,nan,nan,nan,nan
1,182,1,1,1.0,1.0,0.34743115422315896,0,0.0,0.0,0.0,0.46955533884633927,0.13777150724597548,0.3317838316003638,0.6073268460923147,0.13777150724597548,0.3882425914440925,3,4,1,2,5,8,nan,nan,nan,nan,nan,nan,nan,nan,nan,nan,nan,nan,0.0,nan,nan,nan,nan,nan,nan,nan,nan,nan,nan,nan,nan,nan,nan,nan,nan,nan,nan,699.6912333179498,1092.398678635771,nan,1092.746109789994,nan,nan,nan,nan
1,183,1,1,1.0,1.0,0.2986642954638228,0,0.0,0.0,0.0,0.46885347571632097,0.13768487179176206,0.33116860392455894,0.606538347508083,0.13768487179176206,0.33678109765363234,8,3,6,7,0,4,nan,nan,nan,nan,nan,nan,nan,nan,nan,nan,nan,nan,0.0,nan,nan,nan,nan,nan,nan,nan,nan,nan,nan,nan,nan,nan,nan,nan,nan,nan,nan,699.6912333179498,1093.4154306079727,nan,1093.7140949034365,nan,nan,nan,nan
1,184,1,1,1.0,1.0,0.4497713100281544,0,0.0,0.0,0.0,0.4678809661148781,0.13788894928472153,0.32999201683015655,0.6057699153995997,0.13788894928472153,0.36528891990504536,7,6,0,4,1,2,nan,nan,nan,nan,nan,nan,nan,nan,nan,nan,nan,nan,0.0,nan,nan,nan,nan,nan,nan,nan,nan,nan,nan,nan,nan,nan,nan,nan,nan,nan,nan,699.6912333179498,1094.4322817937355,nan,1094.8820531037636,nan,nan,nan,nan
1,185,1,1,1.0,1.0,0.6649608406005427,0,0.0,0.0,0.0,0.4677780703416581,0.1375033988182057,0.33027467152345236,0.6052814691598638,0.1375033988182057,0.47113214869750664,8,5,4,0,6,3,nan,nan,nan,nan,nan,nan,nan,nan,nan,nan,nan,nan,0.0,nan,nan,nan,nan,nan,nan,nan,nan,nan,nan,nan,nan,nan,nan,nan,nan,nan,nan,699.6912333179498,1095.4490713986452,nan,1096.1140322392457,nan,nan,nan,nan
1,186,1,1,nan,nan,nan,0,0.0,0.0,0.0,0.0,0.0,0.0,0.0,0.0,0.0,5,6,8,1,3,7,nan,nan,nan,nan,nan,nan,nan,nan,nan,nan,nan,nan,0.0,nan,nan,nan,nan,nan,nan,nan,nan,nan,nan,nan,nan,nan,nan,nan,nan,nan,nan,699.6912333179498,1096.46586898627,nan,nan,nan,nan,nan,nan
1,187,0,0,0.0,1.0,0.6313003782997839,0,0.0,0.0,0.0,0.46889209729227327,0.13790863025318886,0.33098346703908443,0.6068007275454621,0.13790863025318886,0.6481306094501633,6,5,7,3,2,0,nan,nan,nan,nan,nan,nan,nan,nan,nan,nan,nan,nan,0.0,nan,nan,nan,nan,nan,nan,nan,nan,nan,nan,nan,nan,nan,nan,nan,nan,nan,nan,699.6912333179498,1097.482664578245,nan,1098.1139649565448,nan,nan,nan,nan
1,188,1,1,1.0,1.0,0.6144722853205167,1,0.0,1.0,1.0,0.4698045033653492,0.1380553982243008,0.3317491051410484,0.60785990158965,0.1380553982243008,0.6228863318101503,4,1,3,6,8,5,1.0,1.0,1.0,1.0,1.0,1.0,0.0,0.0,0.0,0.0,0.0,0.0,0.0,7.0,8.0,0.0,3.0,2.0,1.0,1.0,6.0,5.0,4.0,3.0,2.0,1.0440861481474712,13.385792283981573,8.561758838768583,6.250010334770195,4.522848328517284,3.0588284767000005,699.6912333179498,1098.4994778461987,1099.3078922917484,1099.1139501315192,1113.7597616253188,1114.7640514689847,1100.3330352176563,1113.7514311120613
1,189,1,1,nan,nan,nan,0,0.0,0.0,0.0,0.0,0.0,0.0,0.0,0.0,0.0,2,6,0,8,7,4,nan,nan,nan,nan,nan,nan,nan,nan,nan,nan,nan,nan,0.0,nan,nan,nan,nan,nan,nan,nan,nan,nan,nan,nan,nan,nan,nan,nan,nan,nan,nan,699.6912333179498,1114.9849614563864,nan,nan,nan,nan,nan,nan
1,190,1,1,1.0,1.0,0.055472893465775996,0,0.0,0.0,0.0,0.4706127032645401,0.1380908533592899,0.3325218499052502,0.6087035566238299,0.1380908533592899,0.33497258939314634,8,0,1,7,3,2,nan,nan,nan,nan,nan,nan,nan,nan,nan,nan,nan,nan,0.0,nan,nan,nan,nan,nan,nan,nan,nan,nan,nan,nan,nan,nan,nan,nan,nan,nan,nan,699.6912333179498,1116.0100941188284,nan,1116.0655670122942,nan,nan,nan,nan
1,191,0,0,1.0,0.0,0.3266487758955918,0,0.0,0.0,0.0,0.46830637098788025,0.14112149234347754,0.3271848786444027,0.6094278633313578,0.14112149234347754,0.1910608346806839,1,4,6,8,5,7,nan,nan,nan,nan,nan,nan,nan,nan,nan,nan,nan,nan,0.0,nan,nan,nan,nan,nan,nan,nan,nan,nan,nan,nan,nan,nan,nan,nan,nan,nan,nan,699.6912333179498,1117.0268862896482,nan,1117.3535350655438,nan,nan,nan,nan
1,192,1,1,1.0,1.0,0.3098383589531295,1,1.0,0.0,1.0,0.4675237323409615,0.1411222896624736,0.3264014426784879,0.6086460220034351,0.1411222896624736,0.2306533427714991,0,7,1,6,8,3,1.0,1.0,1.0,1.0,1.0,1.0,0.0,0.0,0.0,0.0,0.0,0.0,0.0,5.0,5.0,5.0,0.0,7.0,1.0,4.0,3.0,2.0,1.0,6.0,5.0,6.074351113755256,4.73117245559115,3.5147170975687914,1.8194547989987768,9.202281226404011,8.082159615762066,699.6912333179498,1118.043686443125,1118.8521028843825,1118.353524802078,1129.1034315043362,1130.1141097854706,1119.8605742352083,1129.0951024165843
1,193,1,1,1.0,1.0,0.5602552409982309,0,0.0,0.0,0.0,0.4666573291904789,0.14121594549397803,0.3254413836965009,0.607873274684457,0.14121594549397803,0.3989141252823174,7,6,5,4,2,0,nan,nan,nan,nan,nan,nan,nan,nan,nan,nan,nan,nan,0.0,nan,nan,nan,nan,nan,nan,nan,nan,nan,nan,nan,nan,nan,nan,nan,nan,nan,nan,699.6912333179498,1130.336963274167,nan,1130.8972185151652,nan,nan,nan,nan
1,194,1,1,1.0,1.0,0.5674145787488669,0,0.0,0.0,0.0,0.4671687931894284,0.14099851510229416,0.3261702780871342,0.6081673082917225,0.14099851510229416,0.47916939290007576,1,8,4,3,6,7,nan,nan,nan,nan,nan,nan,nan,nan,nan,nan,nan,nan,0.0,nan,nan,nan,nan,nan,nan,nan,nan,nan,nan,nan,nan,nan,nan,nan,nan,nan,nan,699.6912333179498,1131.3537688445067,nan,1131.9211834232556,nan,nan,nan,nan
1,195,1,1,1.0,1.0,0.35064133832929656,0,0.0,0.0,0.0,0.4677136072413819,0.14080785885040026,0.32690574839098163,0.6085214660917821,0.14080785885040026,0.4927703860254648,2,3,0,6,4,1,nan,nan,nan,nan,nan,nan,nan,nan,nan,nan,nan,nan,0.0,nan,nan,nan,nan,nan,nan,nan,nan,nan,nan,nan,nan,nan,nan,nan,nan,nan,nan,699.6912333179498,1132.3705533177126,nan,1132.721194656042,nan,nan,nan,nan
1,196,1,1,1.0,1.0,0.5418308940134011,0,0.0,0.0,0.0,0.46708078416618143,0.14068889971575085,0.32639188445043055,0.6077696838819323,0.14068889971575085,0.4866289370305215,8,0,6,3,1,2,nan,nan,nan,nan,nan,nan,nan,nan,nan,nan,nan,nan,0.0,nan,nan,nan,nan,nan,nan,nan,nan,nan,nan,nan,nan,nan,nan,nan,nan,nan,nan,699.6912333179498,1133.3873158384813,nan,1133.9291467324947,nan,nan,nan,nan
1,197,1,1,1.0,1.0,0.5489708452369086,0,0.0,0.0,0.0,0.46748266647718795,0.1404166293278257,0.3270660371493622,0.6078992958050137,0.1404166293278257,0.4804810258598688,6,8,1,4,2,5,nan,nan,nan,nan,nan,nan,nan,nan,nan,nan,nan,nan,0.0,nan,nan,nan,nan,nan,nan,nan,nan,nan,nan,nan,nan,nan,nan,nan,nan,nan,nan,699.6912333179498,1134.4041550501715,nan,1134.9531258954084,nan,nan,nan,nan
1,198,1,1,1.0,1.0,0.5641932758735493,0,0.0,0.0,0.0,0.46791843213900464,0.14016672949653208,0.32775170264247255,0.6080851616355367,0.14016672949653208,0.5516650050412863,0,7,6,3,1,4,nan,nan,nan,nan,nan,nan,nan,nan,nan,nan,nan,nan,0.0,nan,nan,nan,nan,nan,nan,nan,nan,nan,nan,nan,nan,nan,nan,nan,nan,nan,nan,699.6912333179498,1135.4209232729045,nan,1135.985116548778,nan,nan,nan,nan
1,199,1,1,1.0,1.0,0.5793144974159077,0,0.0,0.0,0.0,0.46843053237163523,0.13996874077249327,0.32846179159914196,0.6083992731441286,0.13996874077249327,0.5641595395087885,1,3,5,0,6,7,nan,nan,nan,nan,nan,nan,nan,nan,nan,nan,nan,nan,0.0,nan,nan,nan,nan,nan,nan,nan,nan,nan,nan,nan,nan,nan,nan,nan,nan,nan,nan,699.6912333179498,1136.4377621994936,nan,1137.0170766969095,nan,nan,nan,nan
1,200,1,1,1.0,1.0,0.38651984970783815,0,0.0,0.0,0.0,0.4690172200173721,0.139829542817455,0.32918767719991715,0.6088467628348271,0.139829542817455,0.5100092076657651,6,2,7,4,3,5,nan,nan,nan,nan,nan,nan,nan,nan,nan,nan,nan,nan,0.0,nan,nan,nan,nan,nan,nan,nan,nan,nan,nan,nan,nan,nan,nan,nan,nan,nan,nan,699.6912333179498,1137.4545463875984,nan,1137.8410662373062,nan,nan,nan,nan
1,201,1,1,1.0,1.0,0.3296918935957365,0,0.0,0.0,0.0,0.46858302333153246,0.13958877374256332,0.32899424958896917,0.6081717970740957,0.13958877374256332,0.43184208023982745,0,5,4,8,1,7,nan,nan,nan,nan,nan,nan,nan,nan,nan,nan,nan,nan,0.0,nan,nan,nan,nan,nan,nan,nan,nan,nan,nan,nan,nan,nan,nan,nan,nan,nan,nan,699.6912333179498,1138.4713456858299,nan,1138.8010375794256,nan,nan,nan,nan
1,202,1,1,1.0,1.0,0.36886127130128443,0,0.0,0.0,0.0,0.46785584464181623,0.13958323607866124,0.328272608563155,0.6074390807204775,0.13958323607866124,0.36169100486828637,5,0,3,1,6,2,nan,nan,nan,nan,nan,nan,nan,nan,nan,nan,nan,nan,0.0,nan,nan,nan,nan,nan,nan,nan,nan,nan,nan,nan,nan,nan,nan,nan,nan,nan,nan,699.6912333179498,1139.4881506859092,nan,1139.8570119572105,nan,nan,nan,nan
1,203,1,1,1.0,1.0,0.3360350007424131,0,0.0,0.0,0.0,0.46734024790566764,0.1394015020573535,0.3279387458483142,0.6067417499630211,0.1394015020573535,0.3448627218798113,0,7,2,3,5,8,nan,nan,nan,nan,nan,nan,nan,nan,nan,nan,nan,nan,0.0,nan,nan,nan,nan,nan,nan,nan,nan,nan,nan,nan,nan,nan,nan,nan,nan,nan,nan,699.6912333179498,1140.5049559711479,nan,1140.8409909718903,nan,nan,nan,nan
1,204,1,1,1.0,1.0,0.42322685080580413,0,0.0,0.0,0.0,0.46665990983746425,0.13935910412035324,0.327300805717111,0.6060190139578174,0.13935910412035324,0.37604104094983387,8,2,6,4,3,0,nan,nan,nan,nan,nan,nan,nan,nan,nan,nan,nan,nan,0.0,nan,nan,nan,nan,nan,nan,nan,nan,nan,nan,nan,nan,nan,nan,nan,nan,nan,nan,699.6912333179498,1141.5217336020432,nan,1141.944960452849,nan,nan,nan,nan
1,205,1,1,1.0,1.0,0.2864182699122466,0,0.0,0.0,0.0,0.4664360280898784,0.13903426054977094,0.3274017675401074,0.6054702886396494,0.13903426054977094,0.34856004048682127,1,5,7,2,6,3,nan,nan,nan,nan,nan,nan,nan,nan,nan,nan,nan,nan,0.0,nan,nan,nan,nan,nan,nan,nan,nan,nan,nan,nan,nan,nan,nan,nan,nan,nan,nan,699.6912333179498,1142.538542023336,nan,1142.8249602932483,nan,nan,nan,nan
1,206,1,1,1.0,1.0,0.20557665429078043,1,1.0,0.0,1.0,0.4655128600992238,0.13927214042670136,0.32624071967252244,0.6047850005259252,0.13927214042670136,0.3050739250029437,6,7,2,8,5,1,1.0,1.0,1.0,1.0,1.0,1.0,0.0,0.0,0.0,0.0,0.0,1.0,1.0,2.0,6.0,8.0,1.0,7.0,1.0,4.0,3.0,2.0,1.0,6.0,5.0,5.714710141182877,4.051275706035085,2.691769013821613,1.3618362139095552,9.737468236708082,7.858225326985121,699.6912333179498,1143.5553493042244,1144.363765175338,1143.7609259585151,1155.156825760845,1156.1655713742948,1145.380563333165,1155.1485012345947
1,207,1,1,1.0,1.0,0.3622601520619355,0,0.0,0.0,0.0,0.46418665496754813,0.14014541057583194,0.3240412443917162,0.60433206554338,0.14014541057583194,0.28475169208832085,4,3,0,5,8,6,nan,nan,nan,nan,nan,nan,nan,nan,nan,nan,nan,nan,0.0,nan,nan,nan,nan,nan,nan,nan,nan,nan,nan,nan,nan,nan,nan,nan,nan,nan,nan,699.6912333179498,1156.3903566754307,nan,1156.7526168274926,nan,nan,nan,nan
1,208,1,1,1.0,1.0,0.3374282662407495,0,0.0,0.0,0.0,0.46366926155178356,0.1399768028745086,0.323692458677275,0.6036460644262922,0.1399768028745086,0.3017550241978218,3,0,6,8,1,5,nan,nan,nan,nan,nan,nan,nan,nan,nan,nan,nan,nan,0.0,nan,nan,nan,nan,nan,nan,nan,nan,nan,nan,nan,nan,nan,nan,nan,nan,nan,nan,699.6912333179498,1157.4071628159145,nan,1157.7445910821552,nan,nan,nan,nan
1,209,1,1,1.0,1.0,0.2886331828776747,0,0.0,0.0,0.0,0.46303168076738443,0.139909365550825,0.32312231521655943,0.6029410463182094,0.139909365550825,0.32944053372678656,1,4,0,3,2,7,nan,nan,nan,nan,nan,nan,nan,nan,nan,nan,nan,nan,0.0,nan,nan,nan,nan,nan,nan,nan,nan,nan,nan,nan,nan,nan,nan,nan,nan,nan,nan,699.6912333179498,1158.4239427275606,nan,1158.7125759104383,nan,nan,nan,nan
1,210,1,1,1.0,1.0,0.27181763417320326,1,1.0,0.0,1.0,0.4621553064061296,0.14010116320456578,0.32205414320156384,0.6022564696106953,0.14010116320456578,0.29929302776387584,4,0,5,2,6,1,1.0,1.0,1.0,1.0,1.0,1.0,0.0,1.0,0.0,0.0,0.0,0.0,1.0,6.0,0.0,7.0,5.0,2.0,8.0,3.0,2.0,1.0,6.0,5.0,4.0,4.971828211215325,2.598008545464836,1.300975856021978,8.915817055967636,7.612548455654178,6.244391372194514,699.6912333179498,1159.4407434512977,1160.2491633137106,1159.712561085471,1170.2171273300191,1171.2191974140587,1161.2659754412598,1170.2087951061549
1,211,1,1,1.0,1.0,0.5419292522128671,0,0.0,0.0,0.0,0.46120361804496496,0.14039384134724173,0.32080977669772326,0.6015974593922067,0.14039384134724173,0.36746002308791503,6,3,2,4,7,5,nan,nan,nan,nan,nan,nan,nan,nan,nan,nan,nan,nan,0.0,nan,nan,nan,nan,nan,nan,nan,nan,nan,nan,nan,nan,nan,nan,nan,nan,nan,nan,699.6912333179498,1171.4423525346792,nan,1171.984281786892,nan,nan,nan,nan
1,212,1,1,1.0,1.0,0.38911821716465056,0,0.0,0.0,0.0,0.46160523811545207,0.14015929715940365,0.3214459409560484,0.6017645352748557,0.14015929715940365,0.400955034516907,3,7,1,6,5,2,nan,nan,nan,nan,nan,nan,nan,nan,nan,nan,nan,nan,0.0,nan,nan,nan,nan,nan,nan,nan,nan,nan,nan,nan,nan,nan,nan,nan,nan,nan,nan,699.6912333179498,1172.459115055448,nan,1172.8482332726126,nan,nan,nan,nan
1,213,1,1,1.0,1.0,0.3163280055159703,0,0.0,0.0,0.0,0.46124639147708174,0.1399044706096488,0.32134192086743296,0.6011508620867305,0.1399044706096488,0.415791824964496,5,3,0,1,4,7,nan,nan,nan,nan,nan,nan,nan,nan,nan,nan,nan,nan,0.0,nan,nan,nan,nan,nan,nan,nan,nan,nan,nan,nan,nan,nan,nan,nan,nan,nan,nan,699.6912333179498,1173.4759072262677,nan,1173.7922352317837,nan,nan,nan,nan
1,214,1,1,1.0,1.0,0.30748716997914016,0,0.0,0.0,0.0,0.46053250780239646,0.13992778899185074,0.32060471881054575,0.6004602967942472,0.13992778899185074,0.33764446421992034,0,7,4,5,2,8,nan,nan,nan,nan,nan,nan,nan,nan,nan,nan,nan,nan,0.0,nan,nan,nan,nan,nan,nan,nan,nan,nan,nan,nan,nan,nan,nan,nan,nan,nan,nan,699.6912333179498,1174.4927099455963,nan,1174.8001971155754,nan,nan,nan,nan
1,215,1,1,1.0,1.0,0.36267952871276066,0,0.0,0.0,0.0,0.4597822855581648,0.13999307829945765,0.3197892072587072,0.5997753638576224,0.13999307829945765,0.32883156806929037,6,2,0,1,8,3,nan,nan,nan,nan,nan,nan,nan,nan,nan,nan,nan,nan,0.0,nan,nan,nan,nan,nan,nan,nan,nan,nan,nan,nan,nan,nan,nan,nan,nan,nan,nan,699.6912333179498,1175.5095092438278,nan,1175.8721887725405,nan,nan,nan,nan
1,216,0,0,1.0,0.0,0.30584473034832627,0,0.0,0.0,0.0,0.45930861357355307,0.13981499261471944,0.3194936209588336,0.5991236061882725,0.13981499261471944,0.32533714301340905,7,8,6,3,2,0,nan,nan,nan,nan,nan,nan,nan,nan,nan,nan,nan,nan,0.0,nan,nan,nan,nan,nan,nan,nan,nan,nan,nan,nan,nan,nan,nan,nan,nan,nan,nan,699.6912333179498,1176.5263019847916,nan,1176.83214671514,nan,nan,nan,nan
1,217,1,1,1.0,1.0,0.489032203622628,0,0.0,0.0,0.0,0.4585636432666345,0.1398824824072335,0.318681160859401,0.598446125673868,0.1398824824072335,0.385852154227905,1,7,2,5,3,8,nan,nan,nan,nan,nan,nan,nan,nan,nan,nan,nan,nan,0.0,nan,nan,nan,nan,nan,nan,nan,nan,nan,nan,nan,nan,nan,nan,nan,nan,nan,nan,699.6912333179498,1177.5430987171712,nan,1178.0321309207939,nan,nan,nan,nan
1,218,1,1,1.0,1.0,0.5761898421915248,0,0.0,0.0,0.0,0.4587108343794654,0.1395601835210584,0.319150650858407,0.5982710179005238,0.1395601835210584,0.45702225872082636,4,6,3,1,0,5,nan,nan,nan,nan,nan,nan,nan,nan,nan,nan,nan,nan,0.0,nan,nan,nan,nan,nan,nan,nan,nan,nan,nan,nan,nan,nan,nan,nan,nan,nan,nan,699.6912333179498,1178.5599057129584,nan,1179.13609555515,nan,nan,nan,nan
1,219,1,1,1.0,1.0,0.5593740084441379,0,0.0,0.0,0.0,0.4592756373016388,0.13946124433124021,0.3198143929703986,0.598736881632879,0.13946124433124021,0.5415320180860969,3,0,2,6,4,8,nan,nan,nan,nan,nan,nan,nan,nan,nan,nan,nan,nan,0.0,nan,nan,nan,nan,nan,nan,nan,nan,nan,nan,nan,nan,nan,nan,nan,nan,nan,nan,699.6912333179498,1179.5766990241245,nan,1180.1360730325687,nan,nan,nan,nan
1,220,1,1,1.0,1.0,0.6305482943425886,0,0.0,0.0,0.0,0.45975457687648325,0.13929856726991013,0.3204560096065731,0.5990531441463933,0.13929856726991013,0.5887040483260838,8,2,1,4,0,7,nan,nan,nan,nan,nan,nan,nan,nan,nan,nan,nan,nan,0.0,nan,nan,nan,nan,nan,nan,nan,nan,nan,nan,nan,nan,nan,nan,nan,nan,nan,nan,699.6912333179498,1180.5935048795654,nan,1181.224053173908,nan,nan,nan,nan
1,221,1,1,1.0,1.0,0.47773925494402647,0,0.0,0.0,0.0,0.4605678802929885,0.1394630275820346,0.3211048527109539,0.6000309078750231,0.1394630275820346,0.555887185910251,6,8,3,5,2,4,nan,nan,nan,nan,nan,nan,nan,nan,nan,nan,nan,nan,0.0,nan,nan,nan,nan,nan,nan,nan,nan,nan,nan,nan,nan,nan,nan,nan,nan,nan,nan,699.6912333179498,1181.610299046035,nan,1182.088038300979,nan,nan,nan,nan
1,222,1,1,1.0,1.0,0.3329166176263243,0,0.0,0.0,0.0,0.46064926121550526,0.13913715201209956,0.32151210920340567,0.5997864132276048,0.13913715201209956,0.4804013889709798,8,0,4,7,5,3,nan,nan,nan,nan,nan,nan,nan,nan,nan,nan,nan,nan,0.0,nan,nan,nan,nan,nan,nan,nan,nan,nan,nan,nan,nan,nan,nan,nan,nan,nan,nan,699.6912333179498,1182.6270969187608,nan,1182.9600135363871,nan,nan,nan,nan
1,223,1,1,1.0,1.0,0.34808915643952787,0,0.0,0.0,0.0,0.46004674874574497,0.13908424723115614,0.3209625015145888,0.5991309959769011,0.13908424723115614,0.38624834300329286,4,5,7,8,3,1,nan,nan,nan,nan,nan,nan,nan,nan,nan,nan,nan,nan,0.0,nan,nan,nan,nan,nan,nan,nan,nan,nan,nan,nan,nan,nan,nan,nan,nan,nan,nan,699.6912333179498,1183.6439056251547,nan,1183.9919947815943,nan,nan,nan,nan
1,224,1,1,1.0,1.0,0.30726023332681507,0,0.0,0.0,0.0,0.45952112624665475,0.13896827000547998,0.3205528562411748,0.5984893962521347,0.13896827000547998,0.32942200246422243,5,8,2,7,1,4,nan,nan,nan,nan,nan,nan,nan,nan,nan,nan,nan,nan,0.0,nan,nan,nan,nan,nan,nan,nan,nan,nan,nan,nan,nan,nan,nan,nan,nan,nan,nan,699.6912333179498,1184.660702072375,nan,1184.9679623057018,nan,nan,nan,nan
1,225,1,1,1.0,1.0,0.3064497046289034,0,0.0,0.0,0.0,0.45880962674702935,0.13903152000107052,0.31977810674595886,0.5978411467480998,0.13903152000107052,0.32059969813174877,8,0,3,1,7,5,nan,nan,nan,nan,nan,nan,nan,nan,nan,nan,nan,nan,0.0,nan,nan,nan,nan,nan,nan,nan,nan,nan,nan,nan,nan,nan,nan,nan,nan,nan,nan,699.6912333179498,1185.6775067874114,nan,1185.9839564920403,nan,nan,nan,nan
1,226,1,1,1.0,1.0,0.28960764192743227,1,1.0,0.0,1.0,0.4581009759464799,0.1390946637065461,0.3190063122399338,0.597195639653026,0.1390946637065461,0.30110585996105027,4,1,7,5,6,8,1.0,1.0,1.0,1.0,1.0,1.0,0.0,1.0,1.0,0.0,0.0,0.0,2.0,3.0,1.0,7.0,7.0,7.0,1.0,5.0,6.0,1.0,2.0,3.0,4.0,7.686172003683168,9.197281778033357,1.4060717524262145,2.526420869922731,3.461395825666841,5.486901108932216,699.6912333179498,1186.6943040899932,1187.5027136889403,1186.9839117319207,1197.7540468703955,1198.7525923092035,1188.5195152679225,1197.7457180677447
1,227,1,1,nan,nan,nan,0,0.0,0.0,0.0,0.0,0.0,0.0,0.0,0.0,0.0,7,5,1,0,8,4,nan,nan,nan,nan,nan,nan,nan,nan,nan,nan,nan,nan,0.0,nan,nan,nan,nan,nan,nan,nan,nan,nan,nan,nan,nan,nan,nan,nan,nan,nan,nan,699.6912333179498,1198.970890244469,nan,nan,nan,nan,nan,nan
1,228,1,1,1.0,1.0,0.09986466477857903,0,0.0,0.0,0.0,0.4573209142149103,0.13924288572838242,0.3180780284865279,0.5965637999432927,0.13924288572838242,0.19473615335300565,4,7,3,6,2,1,nan,nan,nan,nan,nan,nan,nan,nan,nan,nan,nan,nan,0.0,nan,nan,nan,nan,nan,nan,nan,nan,nan,nan,nan,nan,nan,nan,nan,nan,nan,nan,699.6912333179498,1199.9877784927376,nan,1200.0876431575161,nan,nan,nan,nan
1,229,1,1,1.0,1.0,0.09909433464054018,1,1.0,0.0,1.0,0.45567365039262303,0.1410154041054863,0.31465824628713673,0.5966890544981094,0.1410154041054863,0.0994794997095596,3,2,6,4,7,8,1.0,1.0,1.0,1.0,1.0,1.0,0.0,1.0,0.0,0.0,0.0,0.0,1.0,1.0,2.0,8.0,5.0,6.0,4.0,3.0,2.0,1.0,6.0,5.0,4.0,4.280350565793924,3.240285415551625,1.5526705395895988,7.878633658983745,6.798397017642856,5.406946427829098,699.6912333179498,1201.0044877005275,1201.8130119082052,1201.103582035168,1210.7557463293197,1211.7626918448368,1202.8380541951046,1210.7474103992572
1,230,1,1,nan,nan,nan,0,0.0,0.0,0.0,0.0,0.0,0.0,0.0,0.0,0.0,1,4,8,2,5,0,nan,nan,nan,nan,nan,nan,nan,nan,nan,nan,nan,nan,0.0,nan,nan,nan,nan,nan,nan,nan,nan,nan,nan,nan,nan,nan,nan,nan,nan,nan,nan,699.6912333179498,1211.9809458753443,nan,nan,nan,nan,nan,nan
1,231,1,1,1.0,1.0,0.05762166413478553,0,0.0,0.0,0.0,0.4540379654579804,0.14273998377960695,0.31129798167837347,0.5967779492375873,0.14273998377960695,0.07835799938766286,7,1,4,8,3,6,nan,nan,nan,nan,nan,nan,nan,nan,nan,nan,nan,nan,0.0,nan,nan,nan,nan,nan,nan,nan,nan,nan,nan,nan,nan,nan,nan,nan,nan,nan,nan,699.6912333179498,1212.997722080734,nan,1213.0553437448689,nan,nan,nan,nan
1,232,1,1,1.0,1.0,0.3847300152410753,1,1.0,0.0,1.0,0.4522278453606143,0.14489980115655088,0.3073280442040634,0.5971276465171651,0.14489980115655088,0.22117583968793042,8,0,6,7,5,2,1.0,1.0,1.0,1.0,1.0,1.0,0.0,0.0,0.0,0.0,0.0,0.0,0.0,2.0,7.0,1.0,6.0,0.0,4.0,4.0,3.0,2.0,1.0,6.0,5.0,4.5810883664526045,3.6845691924681887,2.6936192887369543,1.7025599079788662,6.980176685552578,5.492921201977879,699.6912333179498,1214.014525370323,1214.8229529303499,1214.3992553855642,1222.8656532254536,1223.8680223755073,1215.8480858778348,1222.8573221419938
1,233,1,1,1.0,1.0,0.348231989715714,0,0.0,0.0,0.0,0.4519210370418891,0.14464138755031383,0.30727964949157527,0.5965624245922029,0.14464138755031383,0.2635278896971916,4,8,2,3,6,1,nan,nan,nan,nan,nan,nan,nan,nan,nan,nan,nan,nan,0.0,nan,nan,nan,nan,nan,nan,nan,nan,nan,nan,nan,nan,nan,nan,nan,nan,nan,nan,699.6912333179498,1224.0908288233331,nan,1224.4390608130489,nan,nan,nan,nan
1,234,1,1,1.0,1.0,0.24341064097825438,0,0.0,0.0,0.0,0.4514518558322684,0.14448146615751217,0.3069703896747562,0.5959333219897806,0.14448146615751217,0.3254575486450146,6,1,0,7,5,4,nan,nan,nan,nan,nan,nan,nan,nan,nan,nan,nan,nan,0.0,nan,nan,nan,nan,nan,nan,nan,nan,nan,nan,nan,nan,nan,nan,nan,nan,nan,nan,699.6912333179498,1225.1076352489763,nan,1225.3510458899545,nan,nan,nan,nan
1,235,1,1,1.0,1.0,0.19458989897975698,1,1.0,0.0,1.0,0.45051473324283586,0.14482729346332288,0.30568743977951296,0.5953420267061588,0.14482729346332288,0.2620775098912418,3,0,5,1,8,2,1.0,1.0,1.0,1.0,1.0,1.0,0.0,0.0,0.0,0.0,0.0,0.0,0.0,5.0,2.0,6.0,3.0,0.0,3.0,3.0,2.0,1.0,6.0,5.0,4.0,5.326577786938287,4.3767396218609065,3.0001807510270737,13.342248103872407,7.150652856216766,6.254860677756369,699.6912333179498,1226.1244345471496,1226.9328566903714,1226.3190244461293,1241.3347298299195,1242.33801071794,1227.9496545630973,1241.3263950402616
1,236,0,0,nan,nan,nan,0,0.0,0.0,0.0,0.0,0.0,0.0,0.0,0.0,0.0,7,6,3,2,0,4,nan,nan,nan,nan,nan,nan,nan,nan,nan,nan,nan,nan,0.0,nan,nan,nan,nan,nan,nan,nan,nan,nan,nan,nan,nan,nan,nan,nan,nan,nan,nan,699.6912333179498,1242.5599159764242,nan,nan,nan,nan,nan,nan
1,237,1,1,1.0,1.0,0.6615165924886242,0,0.0,0.0,0.0,0.44936708824614047,0.14551041423012687,0.3038566740160136,0.5948775024762674,0.14551041423012687,0.42805324573419057,6,1,8,5,3,0,nan,nan,nan,nan,nan,nan,nan,nan,nan,nan,nan,nan,0.0,nan,nan,nan,nan,nan,nan,nan,nan,nan,nan,nan,nan,nan,nan,nan,nan,nan,nan,699.6912333179498,1243.5850366647937,nan,1244.2465532572824,nan,nan,nan,nan
1,238,1,1,1.0,1.0,0.516709350340534,0,0.0,0.0,0.0,0.45031418424722297,0.14587249922915474,0.30444168501806823,0.5961866834763777,0.14587249922915474,0.5891129714145791,0,3,5,6,1,8,nan,nan,nan,nan,nan,nan,nan,nan,nan,nan,nan,nan,0.0,nan,nan,nan,nan,nan,nan,nan,nan,nan,nan,nan,nan,nan,nan,nan,nan,nan,nan,699.6912333179498,1244.6018470817944,nan,1245.118556432135,nan,nan,nan,nan
1,239,1,1,1.0,1.0,0.459885670687072,0,0.0,0.0,0.0,0.4506092738743044,0.14561496865333806,0.3049943052209663,0.5962242425276425,0.14561496865333806,0.54603720450541,4,8,6,7,2,1,nan,nan,nan,nan,nan,nan,nan,nan,nan,nan,nan,nan,0.0,nan,nan,nan,nan,nan,nan,nan,nan,nan,nan,nan,nan,nan,nan,nan,nan,nan,nan,699.6912333179498,1245.6186478054733,nan,1246.0785334761604,nan,nan,nan,nan
1,240,1,1,1.0,1.0,0.45106906828004867,0,0.0,0.0,0.0,0.45065031987790066,0.14529375899963506,0.30535656087826557,0.5959440788775358,0.14529375899963506,0.47588802976921823,0,3,4,1,6,2,nan,nan,nan,nan,nan,nan,nan,nan,nan,nan,nan,nan,0.0,nan,nan,nan,nan,nan,nan,nan,nan,nan,nan,nan,nan,nan,nan,nan,nan,nan,nan,699.6912333179498,1246.6354499546578,nan,1247.0865190229379,nan,nan,nan,nan
1,241,1,1,1.0,1.0,0.30626752809621394,0,0.0,0.0,0.0,0.45065216458451807,0.14497337811113992,0.30567878647337815,0.595625542695658,0.14497337811113992,0.4057407556877782,2,6,1,0,7,4,nan,nan,nan,nan,nan,nan,nan,nan,nan,nan,nan,nan,0.0,nan,nan,nan,nan,nan,nan,nan,nan,nan,nan,nan,nan,nan,nan,nan,nan,nan,nan,699.6912333179498,1247.6522349980078,nan,1247.958502526104,nan,nan,nan,nan
1,242,1,1,1.0,1.0,0.28944000537740067,0,0.0,0.0,0.0,0.450018898635008,0.1449694179987574,0.3050494806362506,0.5949883166337654,0.1449694179987574,0.3489255339178878,8,0,6,7,2,5,nan,nan,nan,nan,nan,nan,nan,nan,nan,nan,nan,nan,0.0,nan,nan,nan,nan,nan,nan,nan,nan,nan,nan,nan,nan,nan,nan,nan,nan,nan,nan,699.6912333179498,1248.669039427943,nan,1248.9584794333205,nan,nan,nan,nan
1,243,1,1,1.0,1.0,0.3126166221918538,1,1.0,0.0,1.0,0.4493176807605206,0.1450395385257026,0.30427814223481797,0.5943572192862232,0.1450395385257026,0.30277471855515614,4,7,0,5,3,6,1.0,1.0,1.0,1.0,1.0,1.0,0.0,0.0,1.0,0.0,0.0,0.0,1.0,0.0,8.0,0.0,4.0,8.0,4.0,4.0,3.0,2.0,1.0,6.0,5.0,5.612705543695483,4.0051573916571215,2.620559946168214,1.487411146168597,7.532503113965504,6.564783140085638,699.6912333179498,1249.68583758577,1250.4942540270858,1249.998454207962,1259.0786965512088,1260.0748223778792,1251.5110615930753,1259.0703694591066
1,244,1,1,0.0,0.0,0.5506474964204244,0,0.0,0.0,0.0,0.44872332833196116,0.14500310404914596,0.3037202242828152,0.5937264323811071,0.14500310404914596,0.3842347079965596,7,6,1,3,8,0,nan,nan,nan,nan,nan,nan,nan,nan,nan,nan,nan,nan,0.0,nan,nan,nan,nan,nan,nan,nan,nan,nan,nan,nan,nan,nan,nan,nan,nan,nan,nan,699.6912333179498,1260.2955593118677,nan,1260.8462068082881,nan,nan,nan,nan
1,245,1,1,1.0,1.0,0.3258641909924336,0,0.0,0.0,0.0,0.4491645584968463,0.14484355803556898,0.3043210004612773,0.5940081165324153,0.14484355803556898,0.39637610320157063,5,8,0,1,3,7,nan,nan,nan,nan,nan,nan,nan,nan,nan,nan,nan,nan,0.0,nan,nan,nan,nan,nan,nan,nan,nan,nan,nan,nan,nan,nan,nan,nan,nan,nan,nan,699.6912333179498,1261.3123212624341,nan,1261.6381854534266,nan,nan,nan,nan
1,246,1,1,1.0,1.0,0.2769992590765469,0,0.0,0.0,0.0,0.4486330913955342,0.14475660393569453,0.30387648745983964,0.5933896953312288,0.14475660393569453,0.38450364882980165,0,1,7,2,8,6,nan,nan,nan,nan,nan,nan,nan,nan,nan,nan,nan,nan,0.0,nan,nan,nan,nan,nan,nan,nan,nan,nan,nan,nan,nan,nan,nan,nan,nan,nan,nan,699.6912333179498,1262.329153916915,nan,1262.6061531759915,nan,nan,nan,nan
1,247,1,1,1.0,1.0,0.2921954608755186,1,1.0,0.0,1.0,0.4478964655057531,0.1448807382756311,0.30301572723012205,0.5927772037813842,0.1448807382756311,0.29835297031483304,6,4,3,1,2,0,1.0,1.0,1.0,1.0,1.0,1.0,0.0,0.0,0.0,1.0,0.0,0.0,1.0,8.0,0.0,5.0,1.0,7.0,1.0,4.0,3.0,2.0,1.0,6.0,5.0,7.2485771557549015,4.032898114819545,3.074250759847928,1.032543169974815,10.896246051765047,8.896462439850438,699.6912333179498,1263.3459432367817,1264.1543665203499,1263.6381386976573,1276.105916973669,1277.1096466032322,1265.171175511845,1276.0975850349641
1,248,1,1,1.0,1.0,0.6187447382253595,0,0.0,0.0,0.0,0.4472310765970769,0.14492717004516634,0.30230390655191053,0.5921582466422433,0.14492717004516634,0.395979819392475,7,3,1,2,5,4,nan,nan,nan,nan,nan,nan,nan,nan,nan,nan,nan,nan,0.0,nan,nan,nan,nan,nan,nan,nan,nan,nan,nan,nan,nan,nan,nan,nan,nan,nan,nan,699.6912333179498,1277.3310751807294,nan,1277.9498199189547,nan,nan,nan,nan
1,249,1,1,1.0,1.0,0.23388899548444897,0,0.0,0.0,0.0,0.44796092196570786,0.1450487923500942,0.30291212961561365,0.5930097143158021,0.1450487923500942,0.38160973152844235,5,4,2,8,3,0,nan,nan,nan,nan,nan,nan,nan,nan,nan,nan,nan,nan,0.0,nan,nan,nan,nan,nan,nan,nan,nan,nan,nan,nan,nan,nan,nan,nan,nan,nan,nan,699.6912333179498,1278.3479169583297,nan,1278.5818059538142,nan,nan,nan,nan
1,250,0,0,1.0,0.0,0.0010750980582088232,0,0.0,0.0,0.0,0.44705383753146527,0.14540757106330282,0.30164626646816245,0.5924614085947681,0.14540757106330282,0.2845696105893391,8,7,5,0,6,2,nan,nan,nan,nan,nan,nan,nan,nan,nan,nan,nan,nan,0.0,nan,nan,nan,nan,nan,nan,nan,nan,nan,nan,nan,nan,nan,nan,nan,nan,nan,nan,699.6912333179498,1279.3647122651455,nan,1279.3657873632037,nan,nan,nan,nan
1,251,1,1,1.0,1.0,0.17623996216570958,1,1.0,0.0,1.0,0.44517207069824477,0.1479521415176461,0.2972199291805987,0.5931242122158908,0.1479521415176461,0.1370680185694558,2,1,0,6,4,3,1.0,1.0,1.0,1.0,1.0,1.0,0.0,0.0,0.0,0.0,0.0,0.0,0.0,1.0,8.0,4.0,4.0,3.0,8.0,4.0,3.0,2.0,1.0,6.0,5.0,4.124068483593874,2.821108927601017,2.0521207314450294,1.190652719407808,6.7804285396123305,5.3082349775359035,699.6912333179498,1280.3814993042033,1281.189921162324,1280.557739266369,1289.0242673952016,1290.0261581537197,1282.2067253071582,1289.0159400180564
1,252,1,1,1.0,1.0,0.436044494388625,0,0.0,0.0,0.0,0.4440421038556711,0.1486622669628788,0.29537983689279235,0.5927043708185499,0.1486622669628788,0.20445318487084782,7,4,6,1,8,5,nan,nan,nan,nan,nan,nan,nan,nan,nan,nan,nan,nan,0.0,nan,nan,nan,nan,nan,nan,nan,nan,nan,nan,nan,nan,nan,nan,nan,nan,nan,nan,699.6912333179498,1290.2494672263274,nan,1290.685511720716,nan,nan,nan,nan
1,253,0,0,1.0,0.0,0.22725651564542204,0,0.0,0.0,0.0,0.44400864105455373,0.1483518302449289,0.2956568108096248,0.5923604712994827,0.1483518302449289,0.2798469907332522,8,2,3,4,1,7,nan,nan,nan,nan,nan,nan,nan,nan,nan,nan,nan,nan,0.0,nan,nan,nan,nan,nan,nan,nan,nan,nan,nan,nan,nan,nan,nan,nan,nan,nan,nan,699.6912333179498,1291.2662488485803,nan,1291.4935053642257,nan,nan,nan,nan
1,254,1,1,1.0,1.0,0.0824236148619093,1,1.0,0.0,1.0,0.44310550719868236,0.14869937781525314,0.29440612938342925,0.5918048850139355,0.14869937781525314,0.2485748749653188,6,4,0,1,7,3,1.0,1.0,1.0,1.0,1.0,1.0,0.0,0.0,0.0,1.0,0.0,0.0,1.0,0.0,3.0,8.0,1.0,8.0,2.0,4.0,3.0,2.0,1.0,6.0,5.0,4.983735827496275,3.7984109873650596,2.704516808851622,1.254672229057178,7.942035079933703,6.031107995309867,699.6912333179498,1292.2830455809017,1293.0914725707262,1292.3654691957636,1302.092635193374,1303.0986589926179,1294.1082787112682,1302.0843063907232
1,255,1,1,1.0,1.0,0.4393781251856126,0,0.0,0.0,0.0,0.4416089018362891,0.15019092717596003,0.29141797466032904,0.5917998290122491,0.15019092717596003,0.24968608523098132,7,6,4,5,0,8,nan,nan,nan,nan,nan,nan,nan,nan,nan,nan,nan,nan,0.0,nan,nan,nan,nan,nan,nan,nan,nan,nan,nan,nan,nan,nan,nan,nan,nan,nan,nan,699.6912333179498,1303.3178341691964,nan,1303.757212294382,nan,nan,nan,nan
1,256,1,1,1.0,1.0,0.3025666933390312,0,0.0,0.0,0.0,0.44159968375095576,0.14988036242505093,0.29171932132590483,0.5914800461760067,0.14988036242505093,0.2747894777955177,2,0,3,6,8,4,nan,nan,nan,nan,nan,nan,nan,nan,nan,nan,nan,nan,0.0,nan,nan,nan,nan,nan,nan,nan,nan,nan,nan,nan,nan,nan,nan,nan,nan,nan,nan,699.6912333179498,1304.334623489005,nan,1304.637190182344,nan,nan,nan,nan
1,257,1,1,1.0,1.0,0.03775073861470446,1,1.0,0.0,1.0,0.44102753152703833,0.14983623982993807,0.29119129169710023,0.5908637713569764,0.14983623982993807,0.2598985190464494,5,4,8,3,7,1,1.0,1.0,1.0,1.0,1.0,1.0,0.0,0.0,0.0,0.0,0.0,0.0,0.0,4.0,2.0,6.0,1.0,5.0,3.0,4.0,3.0,2.0,1.0,6.0,5.0,4.538002621149644,3.4251113372156397,2.361595022433903,1.2026250524795614,7.249388539756183,5.929849494830705,699.6912333179498,1305.3514196511824,1306.1598400837975,1305.389170389797,1314.4692527940497,1315.4691986257094,1307.1849966943264,1314.46092171059
1,258,1,1,1.0,1.0,0.47082966152811423,0,0.0,0.0,0.0,0.43937475778559437,0.15173226591270395,0.2876424918728904,0.5911070236982983,0.15173226591270395,0.27038236449395,7,2,6,0,4,3,nan,nan,nan,nan,nan,nan,nan,nan,nan,nan,nan,nan,0.0,nan,nan,nan,nan,nan,nan,nan,nan,nan,nan,nan,nan,nan,nan,nan,nan,nan,nan,699.6912333179498,1315.686095597921,nan,1316.156925259449,nan,nan,nan,nan
1,259,0,0,1.0,0.0,0.2780150570324622,0,0.0,0.0,0.0,0.43950314514780875,0.15143557152545625,0.28806757362235247,0.590938716673265,0.15143557152545625,0.26219848572509363,6,0,7,1,2,5,nan,nan,nan,nan,nan,nan,nan,nan,nan,nan,nan,nan,0.0,nan,nan,nan,nan,nan,nan,nan,nan,nan,nan,nan,nan,nan,nan,nan,nan,nan,nan,699.6912333179498,1316.7028980322066,nan,1316.980913089239,nan,nan,nan,nan
1,260,1,1,1.0,1.0,0.22118168411543593,0,0.0,0.0,0.0,0.43884668950506345,0.15147636339307624,0.2873703261119872,0.5903230528981397,0.15147636339307624,0.3233421342253375,8,6,1,5,7,4,nan,nan,nan,nan,nan,nan,nan,nan,nan,nan,nan,nan,0.0,nan,nan,nan,nan,nan,nan,nan,nan,nan,nan,nan,nan,nan,nan,nan,nan,nan,nan,699.6912333179498,1317.7196924837772,nan,1317.9408741678926,nan,nan,nan,nan
1,261,1,1,1.0,1.0,0.3643584607052617,0,0.0,0.0,0.0,0.4379654546654293,0.15179997029726397,0.28616548436816536,0.5897654249626932,0.15179997029726397,0.2878517339510533,6,4,5,2,1,3,nan,nan,nan,nan,nan,nan,nan,nan,nan,nan,nan,nan,0.0,nan,nan,nan,nan,nan,nan,nan,nan,nan,nan,nan,nan,nan,nan,nan,nan,nan,nan,699.6912333179498,1318.7364923521527,nan,1319.100850812858,nan,nan,nan,nan
1,262,1,1,1.0,1.0,0.29952614149078727,0,0.0,0.0,0.0,0.4376686522704286,0.1515654095389975,0.2861032427314311,0.5892340618094261,0.1515654095389975,0.2950220954371616,4,2,8,1,5,6,nan,nan,nan,nan,nan,nan,nan,nan,nan,nan,nan,nan,0.0,nan,nan,nan,nan,nan,nan,nan,nan,nan,nan,nan,nan,nan,nan,nan,nan,nan,nan,699.6912333179498,1319.753294216236,nan,1320.052820357727,nan,nan,nan,nan
1,263,1,1,1.0,1.0,0.19475496973609552,0,0.0,0.0,0.0,0.43711386307051037,0.15151286489249638,0.285600998178014,0.5886267279630067,0.15151286489249638,0.28621319064404815,3,8,1,5,0,7,nan,nan,nan,nan,nan,nan,nan,nan,nan,nan,nan,nan,0.0,nan,nan,nan,nan,nan,nan,nan,nan,nan,nan,nan,nan,nan,nan,nan,nan,nan,nan,699.6912333179498,1320.770070991828,nan,1320.9648259615642,nan,nan,nan,nan
1,264,1,1,1.0,1.0,0.209499008837156,1,1.0,0.0,1.0,0.43614442749717275,0.15198136452342575,0.284163062973747,0.5881257920205984,0.15198136452342575,0.23459337335467959,5,0,6,4,7,1,1.0,1.0,1.0,1.0,1.0,1.0,1.0,1.0,0.0,0.0,0.0,1.0,3.0,5.0,0.0,8.0,6.0,8.0,1.0,3.0,2.0,1.0,6.0,5.0,4.0,4.470022553927265,2.4709513976122253,1.053360615100246,8.260909565433394,7.1258982314611785,5.574535713589285,699.6912333179498,1321.795302867773,1322.6036414777627,1322.0048018766101,1331.9298620390473,1332.9408202847117,1323.6287875397247,1331.9215326661943
1,265,1,1,1.0,1.0,0.5131168521475047,0,0.0,0.0,0.0,0.4352414577017145,0.15234877267503352,0.28289268502668097,0.5875902303767481,0.15234877267503352,0.30579027690691873,2,1,8,0,5,6,nan,nan,nan,nan,nan,nan,nan,nan,nan,nan,nan,nan,0.0,nan,nan,nan,nan,nan,nan,nan,nan,nan,nan,nan,nan,nan,nan,nan,nan,nan,nan,699.6912333179498,1333.1634063531528,nan,1333.6765232053003,nan,nan,nan,nan
1,266,0,0,1.0,0.0,0.2883238533977419,0,0.0,0.0,0.0,0.43555048704475335,0.15212499812459668,0.2834254889201567,0.58767548516935,0.15212499812459668,0.3369799047941342,4,0,5,7,6,3,nan,nan,nan,nan,nan,nan,nan,nan,nan,nan,nan,nan,0.0,nan,nan,nan,nan,nan,nan,nan,nan,nan,nan,nan,nan,nan,nan,nan,nan,nan,nan,699.6912333179498,1334.1801745758858,nan,1334.4684984292835,nan,nan,nan,nan
1,267,1,1,1.0,1.0,0.17549044400220737,0,0.0,0.0,0.0,0.4349685635916031,0.15210483435879332,0.2828637292328098,0.5870733979503964,0.15210483435879332,0.32564371651581797,2,6,0,1,8,7,nan,nan,nan,nan,nan,nan,nan,nan,nan,nan,nan,nan,0.0,nan,nan,nan,nan,nan,nan,nan,nan,nan,nan,nan,nan,nan,nan,nan,nan,nan,nan,699.6912333179498,1335.1969667466474,nan,1335.3724571906496,nan,nan,nan,nan
1,268,1,1,1.0,1.0,0.5506674531497993,0,0.0,0.0,0.0,0.43394699619164484,0.15267228065076108,0.2812747155408838,0.5866192768424059,0.15267228065076108,0.33816058351658285,6,4,5,0,3,8,nan,nan,nan,nan,nan,nan,nan,nan,nan,nan,nan,nan,0.0,nan,nan,nan,nan,nan,nan,nan,nan,nan,nan,nan,nan,nan,nan,nan,nan,nan,nan,699.6912333179498,1336.2137677554274,nan,1336.7644352085772,nan,nan,nan,nan
1,269,1,1,1.0,1.0,0.5178608542191796,0,0.0,0.0,0.0,0.4344047234738337,0.15254715580574393,0.2818575676680898,0.5869518792795776,0.15254715580574393,0.4146729171237287,3,6,4,8,1,5,nan,nan,nan,nan,nan,nan,nan,nan,nan,nan,nan,nan,0.0,nan,nan,nan,nan,nan,nan,nan,nan,nan,nan,nan,nan,nan,nan,nan,nan,nan,nan,699.6912333179498,1337.230578742572,nan,1337.7484395967913,nan,nan,nan,nan
1,270,1,1,1.0,1.0,0.6049831408308819,0,0.0,0.0,0.0,0.4347307239845577,0.15233789512909965,0.282392828855458,0.5870686191136574,0.15233789512909965,0.5578371493999535,7,1,0,2,4,3,nan,nan,nan,nan,nan,nan,nan,nan,nan,nan,nan,nan,0.0,nan,nan,nan,nan,nan,nan,nan,nan,nan,nan,nan,nan,nan,nan,nan,nan,nan,nan,699.6912333179498,1338.2473977124318,nan,1338.8523808532627,nan,nan,nan,nan
1,271,1,1,1.0,1.0,0.380212094518356,0,0.0,0.0,0.0,0.4353931847504967,0.15241024249848495,0.28298294225201176,0.5878034272489816,0.15241024249848495,0.5010186965228058,2,7,3,6,5,4,nan,nan,nan,nan,nan,nan,nan,nan,nan,nan,nan,nan,0.0,nan,nan,nan,nan,nan,nan,nan,nan,nan,nan,nan,nan,nan,nan,nan,nan,nan,nan,699.6912333179498,1339.264169071219,nan,1339.6443811657373,nan,nan,nan,nan
