block,trial,freq_trials,correct_response,actual_response,acc,rts,probe_trials,fast_rt_trigger,slow_rt_trigger,rt_triggered,rts_runningavg,rts_runningstd,rts_runningfastthresh,rts_runningslowthresh,rts_runningstd,rts_trailingavg,trials_colorind,trials_colorrgb0,trials_colorrgb1,trials_colorrgb2,wm_respdeg,wm_respdeg_in_colorspace,wm_respcolorminusorigcolor,wm_resptexind,wm_resptexrgb0,wm_resptexrgb1,wm_resptexrgb2,wm_rts,time_blockstart,time_encarray_offset,time_encarray_onset,time_response,time_iti_offset,time_iti_onset,time_memprobe_offset,time_memprobe_onset
1,1,1,1,1.0,1.0,0.543383335695,0,nan,nan,nan,nan,nan,nan,nan,nan,nan,478,0.56422249903,0.334793662244,-1.0,nan,nan,nan,nan,nan,nan,nan,nan,739.948431791,740.965066109,nan,741.508449444,nan,nan,nan,nan
1,2,1,1,1.0,1.0,0.297511552169,0,nan,nan,nan,nan,nan,nan,nan,nan,nan,23,1.0,0.106943944166,-1.0,nan,nan,nan,nan,nan,nan,nan,nan,739.948431791,741.906915561,nan,742.204427113,nan,nan,nan,nan
1,3,1,1,1.0,1.0,0.203761124518,0,nan,nan,nan,nan,nan,nan,nan,nan,nan,140,1.0,-0.294209249228,-0.0345777392028,nan,nan,nan,nan,nan,nan,nan,nan,739.948431791,742.848661808,nan,743.052422932,nan,nan,nan,nan
1,4,1,1,1.0,1.0,0.205958088336,0,nan,nan,nan,nan,nan,nan,nan,nan,nan,300,0.0433537089178,0.395748422077,0.528951029102,nan,nan,nan,nan,nan,nan,nan,nan,739.948431791,743.790451105,nan,743.996409193,nan,nan,nan,nan
1,5,1,1,1.0,1.0,0.296159618301,0,nan,nan,nan,nan,nan,nan,nan,nan,nan,136,1.0,-0.301914900238,-0.074841205769,nan,nan,nan,nan,nan,nan,nan,nan,739.948431791,744.732231563,nan,745.028391182,nan,nan,nan,nan
1,6,0,0,1.0,0.0,0.201480341901,0,0.0,0.0,0.0,nan,nan,nan,nan,nan,nan,387,-0.0787219327085,0.477231755363,-0.256974454483,nan,nan,nan,nan,nan,nan,nan,nan,739.948431791,745.698870271,nan,745.900350613,nan,nan,nan,nan
1,7,1,1,1.0,1.0,0.355513848946,0,nan,nan,nan,nan,nan,nan,nan,nan,nan,317,-0.077772836126,0.429938605076,0.420733606481,nan,nan,nan,nan,nan,nan,nan,nan,739.948431791,746.640822929,nan,746.996336778,nan,nan,nan,nan
1,8,1,1,1.0,1.0,0.277728899324,0,nan,nan,nan,nan,nan,nan,nan,nan,nan,198,1.0,-0.0302354974571,0.462326941081,nan,nan,nan,nan,nan,nan,nan,nan,739.948431791,747.582606524,nan,747.860335423,nan,nan,nan,nan
1,9,1,1,1.0,1.0,0.471906175488,0,nan,nan,nan,nan,nan,nan,nan,nan,nan,75,1.0,-0.164714458691,-0.791355921409,nan,nan,nan,nan,nan,nan,nan,nan,739.948431791,748.524394395,nan,748.996300571,nan,nan,nan,nan
1,10,1,1,1.0,1.0,0.322110077424,0,nan,nan,nan,nan,nan,nan,nan,nan,nan,37,1.0,0.0358565504353,-1.0,nan,nan,nan,nan,nan,nan,nan,nan,739.948431791,749.466190534,nan,749.788300612,nan,nan,nan,nan
1,11,0,0,0.0,1.0,0.372318369919,0,nan,nan,nan,nan,nan,nan,nan,nan,nan,129,1.0,-0.310070485259,-0.146368003411,nan,nan,nan,nan,nan,nan,nan,nan,739.948431791,750.407973559,nan,750.780291929,nan,nan,nan,nan
1,12,1,1,1.0,1.0,0.214519005734,0,nan,nan,nan,nan,nan,nan,nan,nan,nan,33,1.0,0.0565990290419,-1.0,nan,nan,nan,nan,nan,nan,nan,nan,739.948431791,751.349754018,nan,751.564273023,nan,nan,nan,nan
1,13,0,0,0.0,1.0,0.456699912902,0,nan,nan,nan,nan,nan,nan,nan,nan,nan,378,-0.117450136118,0.478670924818,-0.154810124165,nan,nan,nan,nan,nan,nan,nan,nan,739.948431791,752.291541889,nan,752.748241802,nan,nan,nan,nan
1,14,1,1,1.0,1.0,0.402918489417,1,nan,nan,nan,nan,nan,nan,nan,nan,nan,5,0.88714030954,0.190659852496,-1.0,64.0510087313,25.9489912687,22.4333662687,37.0,1.0,0.0358565504353,-1.0,2.72575128981,739.948431791,753.233329475,754.041747159,753.636247964,757.800607429,758.804137226,755.058502358,757.792182219
1,15,1,1,1.0,1.0,0.597821624542,0,nan,nan,nan,nan,nan,nan,nan,nan,nan,234,0.71814774995,0.15974031316,0.62913160129,nan,nan,nan,nan,nan,nan,nan,nan,739.948431791,758.942407389,nan,759.540229013,nan,nan,nan,nan
1,16,1,1,0.0,0.0,0.479928257992,0,0.0,0.0,0.0,nan,nan,nan,nan,nan,nan,140,1.0,-0.294209249228,-0.0345777392028,nan,nan,nan,nan,nan,nan,nan,nan,739.948431791,759.884190699,nan,760.364118956,nan,nan,nan,nan
1,17,1,1,1.0,1.0,0.394135480747,0,nan,nan,nan,nan,nan,nan,nan,nan,nan,510,0.830554458933,0.220436700166,-1.0,nan,nan,nan,nan,nan,nan,nan,nan,739.948431791,760.825975719,nan,761.2201112,nan,nan,nan,nan
1,18,1,1,1.0,1.0,0.372328918544,1,nan,nan,nan,nan,nan,nan,nan,nan,nan,320,-0.0946500390753,0.43494401576,0.398701238857,-105.945395901,195.945395901,-29.0546040991,279.0,0.238157575771,0.338930353633,0.618978422254,2.242285538,739.948431791,761.767762165,762.576175857,762.140091083,765.851581495,766.853597136,763.592932197,765.843244379
1,19,1,1,nan,nan,nan,0,nan,nan,nan,nan,nan,nan,nan,nan,nan,145,1.0,-0.281667413287,0.0150551701241,nan,nan,nan,nan,nan,nan,nan,nan,739.948431791,766.993444746,nan,nan,nan,nan,nan,nan
1,20,1,1,1.0,1.0,0.276745311858,0,nan,nan,nan,nan,nan,nan,nan,nan,nan,200,1.0,-0.0191209939188,0.47515178387,nan,nan,nan,nan,nan,nan,nan,nan,739.948431791,767.935217507,nan,768.211962819,nan,nan,nan,nan
1,21,1,1,1.0,1.0,0.190949113457,0,nan,nan,nan,nan,nan,nan,nan,nan,nan,95,1.0,-0.253175017597,-0.514975443931,nan,nan,nan,nan,nan,nan,nan,nan,739.948431791,768.87701108,nan,769.067960193,nan,nan,nan,nan
1,22,1,1,1.0,1.0,0.281140379899,0,nan,nan,nan,nan,nan,nan,nan,nan,nan,290,0.131265381085,0.370776544741,0.578206616232,nan,nan,nan,nan,nan,nan,nan,nan,739.948431791,769.818800662,nan,770.099941042,nan,nan,nan,nan
1,23,1,1,1.0,1.0,0.34733724338,0,nan,nan,nan,nan,nan,nan,nan,nan,nan,490,0.664660387652,0.296157848571,-1.0,nan,nan,nan,nan,nan,nan,nan,nan,739.948431791,770.76059395,nan,771.107931193,nan,nan,nan,nan
1,24,1,1,1.0,1.0,0.349532781693,0,nan,nan,nan,nan,nan,nan,nan,nan,nan,383,-0.0968787136249,0.478131214543,-0.211081409456,nan,nan,nan,nan,nan,nan,nan,nan,739.948431791,771.702380396,nan,772.051913177,nan,nan,nan,nan
1,25,1,1,1.0,1.0,0.231724944431,0,nan,nan,nan,nan,nan,nan,nan,nan,nan,497,0.723174939644,0.271260599794,-1.0,nan,nan,nan,nan,nan,nan,nan,nan,739.948431791,772.644169693,nan,772.875894637,nan,nan,nan,nan
1,26,1,1,1.0,1.0,0.225916646537,0,nan,nan,nan,nan,nan,nan,nan,nan,nan,302,0.027086081288,0.400300843718,0.517770016443,nan,nan,nan,nan,nan,nan,nan,nan,739.948431791,773.585956138,nan,773.811872785,nan,nan,nan,nan
1,27,1,1,1.0,1.0,0.268102286267,0,nan,nan,nan,nan,nan,nan,nan,nan,nan,194,1.0,-0.0524864644427,0.435571704399,nan,nan,nan,nan,nan,nan,nan,nan,739.948431791,774.52774515,nan,774.795847436,nan,nan,nan,nan
1,28,1,1,1.0,1.0,0.238296449301,0,nan,nan,nan,nan,nan,nan,nan,nan,nan,160,1.0,-0.227501418013,0.158297521075,nan,nan,nan,nan,nan,nan,nan,nan,739.948431791,775.469542144,nan,775.707838594,nan,nan,nan,nan
1,29,1,1,1.0,1.0,0.280502901122,0,nan,nan,nan,nan,nan,nan,nan,nan,nan,393,-0.0489456633786,0.475102171109,-0.327443230616,nan,nan,nan,nan,nan,nan,nan,nan,739.948431791,776.411325739,nan,776.69182864,nan,nan,nan,nan
1,30,1,1,1.0,1.0,0.298689006187,0,nan,nan,nan,nan,nan,nan,nan,nan,nan,14,0.95801504718,0.150023555696,-1.0,nan,nan,nan,nan,nan,nan,nan,nan,739.948431791,777.353110474,nan,777.65179948,nan,nan,nan,nan
1,31,0,0,0.0,1.0,0.764870702464,0,nan,nan,nan,nan,nan,nan,nan,nan,nan,445,0.296953900578,0.415520102116,-1.0,nan,nan,nan,nan,nan,nan,nan,nan,739.948431791,778.294899771,nan,779.059770473,nan,nan,nan,nan
1,32,1,1,1.0,1.0,0.511058374308,0,nan,nan,nan,nan,nan,nan,nan,nan,nan,257,0.470472903111,0.261039853404,0.655841377839,nan,nan,nan,nan,nan,nan,nan,nan,739.948431791,779.236687357,nan,779.747745731,nan,nan,nan,nan
1,33,1,1,1.0,1.0,0.449251732265,0,nan,nan,nan,nan,nan,nan,nan,nan,nan,428,0.170378320166,0.443486568519,-0.86866140055,nan,nan,nan,nan,nan,nan,nan,nan,739.948431791,780.178502598,nan,780.62775433,nan,nan,nan,nan
1,34,1,1,1.0,1.0,0.395484563662,0,nan,nan,nan,nan,nan,nan,nan,nan,nan,33,1.0,0.0565990290419,-1.0,nan,nan,nan,nan,nan,nan,nan,nan,739.948431791,781.120260819,nan,781.515745383,nan,nan,nan,nan
1,35,1,1,1.0,1.0,0.285668303492,0,nan,nan,nan,nan,nan,nan,nan,nan,nan,328,-0.132159558243,0.44685796506,0.336046158271,nan,nan,nan,nan,nan,nan,nan,nan,739.948431791,782.062057243,nan,782.347725547,nan,nan,nan,nan
1,36,0,0,1.0,0.0,0.255864462233,0,0.0,0.0,0.0,nan,nan,nan,nan,nan,nan,145,1.0,-0.281667413287,0.0150551701241,nan,nan,nan,nan,nan,nan,nan,nan,739.948431791,783.003841123,nan,783.259705585,nan,nan,nan,nan
1,37,1,1,1.0,1.0,0.24216009496,0,nan,nan,nan,nan,nan,nan,nan,nan,nan,462,0.432089675478,0.378486360879,-1.0,nan,nan,nan,nan,nan,nan,nan,nan,739.948431791,783.94563213,nan,784.187792225,nan,nan,nan,nan
1,38,1,1,1.0,1.0,0.38824250875,1,nan,nan,nan,nan,nan,nan,nan,nan,nan,362,-0.164239727892,0.476000155386,0.0174578511848,-156.467651439,246.467651439,-8.0635985609,351.0,-0.175686286722,0.4701852659,0.128489978773,1.46715815627,739.948431791,784.887419716,785.695832269,785.275662225,788.196120503,789.192401402,786.71259203,788.18779023
1,39,1,1,1.0,1.0,0.457629046694,0,nan,nan,nan,nan,nan,nan,nan,nan,nan,46,1.0,-0.0117313672748,-1.0,nan,nan,nan,nan,nan,nan,nan,nan,739.948431791,789.33795781,nan,789.795586857,nan,nan,nan,nan
1,40,1,1,1.0,1.0,0.387833393412,0,nan,nan,nan,nan,nan,nan,nan,nan,nan,132,1.0,-0.307426825298,-0.115555361894,nan,nan,nan,nan,nan,nan,nan,nan,739.948431791,790.279745111,nan,790.667578505,nan,nan,nan,nan
1,41,1,1,1.0,1.0,0.341983391321,0,nan,nan,nan,nan,nan,nan,nan,nan,nan,213,0.929785093221,0.0521668813814,0.548906519778,nan,nan,nan,nan,nan,nan,nan,nan,739.948431791,791.221576032,nan,791.563559423,nan,nan,nan,nan
1,42,1,1,1.0,1.0,0.440183055587,0,nan,nan,nan,nan,nan,nan,nan,nan,nan,146,1.0,-0.278792578557,0.0248813210997,nan,nan,nan,nan,nan,nan,nan,nan,739.948431791,792.163360767,nan,792.603543823,nan,nan,nan,nan
1,43,1,1,1.0,1.0,0.466381834936,0,nan,nan,nan,nan,nan,nan,nan,nan,nan,30,1.0,0.071945658744,-1.0,nan,nan,nan,nan,nan,nan,nan,nan,739.948431791,793.10515149,nan,793.571533324,nan,nan,nan,nan
1,44,1,1,1.0,1.0,0.35656643007,0,nan,nan,nan,nan,nan,nan,nan,nan,nan,319,-0.0891891826932,0.433308674125,0.406137099325,nan,nan,nan,nan,nan,nan,nan,nan,739.948431791,794.046943067,nan,794.403509497,nan,nan,nan,nan
1,45,1,1,1.0,1.0,0.246773262857,0,nan,nan,nan,nan,nan,nan,nan,nan,nan,477,0.555879874869,0.337784025865,-1.0,nan,nan,nan,nan,nan,nan,nan,nan,739.948431791,794.988725807,nan,795.235499069,nan,nan,nan,nan
1,46,0,0,0.0,1.0,0.464951784234,0,nan,nan,nan,nan,nan,nan,nan,nan,nan,174,1.0,-0.160790688716,0.281981279739,nan,nan,nan,nan,nan,nan,nan,nan,739.948431791,795.930517384,nan,796.395469168,nan,nan,nan,nan
1,47,1,1,1.0,1.0,0.307156126422,0,nan,nan,nan,nan,nan,nan,nan,nan,nan,492,0.681403316433,0.289222019555,-1.0,nan,nan,nan,nan,nan,nan,nan,nan,739.948431791,796.872303545,nan,797.179459671,nan,nan,nan,nan
1,48,1,1,1.0,1.0,0.301344407257,0,nan,nan,nan,nan,nan,nan,nan,nan,nan,80,1.0,-0.189075709245,-0.708965549488,nan,nan,nan,nan,nan,nan,nan,nan,739.948431791,797.814095407,nan,798.115439815,nan,nan,nan,nan
1,49,1,1,1.0,1.0,0.327542046201,0,nan,nan,nan,nan,nan,nan,nan,nan,nan,234,0.71814774995,0.15974031316,0.62913160129,nan,nan,nan,nan,nan,nan,nan,nan,739.948431791,798.755888125,nan,799.083430172,nan,nan,nan,nan
1,50,1,1,1.0,1.0,0.305741185904,0,nan,nan,nan,nan,nan,nan,nan,nan,nan,93,1.0,-0.245614297951,-0.538619881923,nan,nan,nan,nan,nan,nan,nan,nan,739.948431791,799.69767229,nan,800.003413476,nan,nan,nan,nan
1,51,1,1,1.0,1.0,0.267938069883,0,nan,nan,nan,nan,nan,nan,nan,nan,nan,507,0.805995650865,0.232688349973,-1.0,nan,nan,nan,nan,nan,nan,nan,nan,739.948431791,800.639461302,nan,800.907399372,nan,nan,nan,nan
1,52,1,1,1.0,1.0,0.238120258786,0,nan,nan,nan,nan,nan,nan,nan,nan,nan,267,0.362924526182,0.298807232282,0.646622522267,nan,nan,nan,nan,nan,nan,nan,nan,739.948431791,801.581251739,nan,801.819371998,nan,nan,nan,nan
1,53,1,1,1.0,1.0,0.208320693986,0,nan,nan,nan,nan,nan,nan,nan,nan,nan,342,-0.170052622031,0.462913557708,0.21407524247,nan,nan,nan,nan,nan,nan,nan,nan,739.948431791,802.5230379,nan,802.731358594,nan,nan,nan,nan
1,54,1,1,1.0,1.0,0.258522999415,0,nan,nan,nan,nan,nan,nan,nan,nan,nan,42,1.0,0.00954878589686,-1.0,nan,nan,nan,nan,nan,nan,nan,nan,739.948431791,803.464826626,nan,803.723349626,nan,nan,nan,nan
1,55,1,1,1.0,1.0,0.300718902668,0,nan,nan,nan,nan,nan,nan,nan,nan,nan,220,0.861731547614,0.0893272636146,0.581247684387,nan,nan,nan,nan,nan,nan,nan,nan,739.948431791,804.406613357,nan,804.70733226,nan,nan,nan,nan
1,56,1,1,1.0,1.0,0.294910604716,0,nan,nan,nan,nan,nan,nan,nan,nan,nan,126,1.0,-0.311411754845,-0.177408431044,nan,nan,nan,nan,nan,nan,nan,nan,739.948431791,805.348400088,nan,805.643310693,nan,nan,nan,nan
1,57,1,1,1.0,1.0,0.39309829491,0,nan,nan,nan,nan,nan,nan,nan,nan,nan,290,0.131265381085,0.370776544741,0.578206616232,nan,nan,nan,nan,nan,nan,nan,nan,739.948431791,806.290192806,nan,806.683291101,nan,nan,nan,nan
1,58,1,1,1.0,1.0,0.283290017513,0,nan,nan,nan,nan,nan,nan,nan,nan,nan,61,1.0,-0.0921163965413,-1.0,nan,nan,nan,nan,nan,nan,nan,nan,739.948431791,807.231982673,nan,807.51527269,nan,nan,nan,nan
1,59,1,1,1.0,1.0,0.277486566163,0,nan,nan,nan,nan,nan,nan,nan,nan,nan,132,1.0,-0.307426825298,-0.115555361894,nan,nan,nan,nan,nan,nan,nan,nan,739.948431791,808.173769689,nan,808.451256255,nan,nan,nan,nan
1,60,1,1,1.0,1.0,0.30366880988,0,nan,nan,nan,nan,nan,nan,nan,nan,nan,3,0.871087178923,0.199335109687,-1.0,nan,nan,nan,nan,nan,nan,nan,nan,739.948431791,809.115560981,nan,809.419229791,nan,nan,nan,nan
1,61,1,1,1.0,1.0,0.26586825971,1,nan,nan,nan,nan,nan,nan,nan,nan,nan,366,-0.155593376329,0.477302029306,-0.0244766492797,-144.429487954,234.429487954,-22.914262046,333.0,-0.149813480994,0.453275949072,0.294183738108,1.93389151688,739.948431791,810.057349423,810.865757414,810.323217682,813.841107001,814.838392014,811.890852009,813.832777012
1,62,1,1,1.0,1.0,0.340087775898,0,nan,nan,nan,nan,nan,nan,nan,nan,nan,449,0.328095008353,0.407646248688,-1.0,nan,nan,nan,nan,nan,nan,nan,nan,739.948431791,814.98302214,nan,815.323109915,nan,nan,nan,nan
1,63,1,1,1.0,1.0,0.31834735634,0,nan,nan,nan,nan,nan,nan,nan,nan,nan,232,0.739158239773,0.150046616059,0.623712016981,nan,nan,nan,nan,nan,nan,nan,nan,739.948431791,815.924776939,nan,816.243124296,nan,nan,nan,nan
1,64,1,1,1.0,1.0,0.344537582714,0,nan,nan,nan,nan,nan,nan,nan,nan,nan,445,0.296953900578,0.415520102116,-1.0,nan,nan,nan,nan,nan,nan,nan,nan,739.948431791,816.866563955,nan,817.211101538,nan,nan,nan,nan
1,65,1,1,1.0,1.0,0.314736307308,0,nan,nan,nan,nan,nan,nan,nan,nan,nan,378,-0.117450136118,0.478670924818,-0.154810124165,nan,nan,nan,nan,nan,nan,nan,nan,739.948431791,817.808352397,nan,818.123088704,nan,nan,nan,nan
1,66,1,1,1.0,1.0,0.140948942397,0,nan,nan,nan,nan,nan,nan,nan,nan,nan,4,0.879126049628,0.195014037372,-1.0,nan,nan,nan,nan,nan,nan,nan,nan,739.948431791,818.750140838,nan,818.891089781,nan,nan,nan,nan
1,67,1,1,1.0,1.0,0.599130508606,0,nan,nan,nan,nan,nan,nan,nan,nan,nan,347,-0.174938837379,0.46723881498,0.167157479366,nan,nan,nan,nan,nan,nan,nan,nan,739.948431791,819.691927284,nan,820.291057793,nan,nan,nan,nan
1,68,1,1,1.0,1.0,0.473311707727,0,nan,nan,nan,nan,nan,nan,nan,nan,nan,439,0.251144291643,0.426392204401,-1.0,nan,nan,nan,nan,nan,nan,nan,nan,739.948431791,820.633717151,nan,821.107028859,nan,nan,nan,nan
1,69,1,1,1.0,1.0,0.35552354221,0,nan,nan,nan,nan,nan,nan,nan,nan,nan,245,0.600577697281,0.210610106048,0.650172825369,nan,nan,nan,nan,nan,nan,nan,nan,739.948431791,821.575505307,nan,821.93102885,nan,nan,nan,nan
1,70,1,1,1.0,1.0,0.389703064924,0,nan,nan,nan,nan,nan,nan,nan,nan,nan,319,-0.0891891826932,0.433308674125,0.406137099325,nan,nan,nan,nan,nan,nan,nan,nan,739.948431791,822.517292894,nan,822.906995958,nan,nan,nan,nan
1,71,1,1,1.0,1.0,0.447900368599,0,nan,nan,nan,nan,nan,nan,nan,nan,nan,166,1.0,-0.20036215083,0.21267421211,nan,nan,nan,nan,nan,nan,nan,nan,739.948431791,823.459083616,nan,823.906983984,nan,nan,nan,nan
1,72,1,1,1.0,1.0,0.362186278391,0,nan,nan,nan,nan,nan,nan,nan,nan,nan,84,1.0,-0.20765784414,-0.652191087791,nan,nan,nan,nan,nan,nan,nan,nan,739.948431791,824.400873483,nan,824.763059761,nan,nan,nan,nan
1,73,1,1,1.0,1.0,0.252295892802,0,nan,nan,nan,nan,nan,nan,nan,nan,nan,319,-0.0891891826932,0.433308674125,0.406137099325,nan,nan,nan,nan,nan,nan,nan,nan,739.948431791,825.342658218,nan,825.594954111,nan,nan,nan,nan
1,74,1,1,1.0,1.0,0.278487544681,0,nan,nan,nan,nan,nan,nan,nan,nan,nan,250,0.546428449327,0.232286661223,0.654747725831,nan,nan,nan,nan,nan,nan,nan,nan,739.948431791,826.284451221,nan,826.562938766,nan,nan,nan,nan
1,75,0,0,1.0,0.0,0.240686139208,0,0.0,0.0,0.0,nan,nan,nan,nan,nan,nan,432,0.199227897075,0.437687328843,-1.0,nan,nan,nan,nan,nan,nan,nan,nan,739.948431791,827.226237952,nan,827.466924091,nan,nan,nan,nan
1,76,1,1,1.0,1.0,0.242890230496,0,nan,nan,nan,nan,nan,nan,nan,nan,nan,116,1.0,-0.306446923025,-0.282515442494,nan,nan,nan,nan,nan,nan,nan,nan,739.948431791,828.168025823,nan,828.410916054,nan,nan,nan,nan
1,77,1,1,1.0,1.0,0.349076625193,0,nan,nan,nan,nan,nan,nan,nan,nan,nan,482,0.597655625539,0.322480811492,-1.0,nan,nan,nan,nan,nan,nan,nan,nan,739.948431791,829.109810558,nan,829.458887183,nan,nan,nan,nan
1,78,1,1,1.0,1.0,0.231265081675,0,nan,nan,nan,nan,nan,nan,nan,nan,nan,41,1.0,0.0148395037771,-1.0,nan,nan,nan,nan,nan,nan,nan,nan,739.948431791,830.051604131,nan,830.282869213,nan,nan,nan,nan
1,79,1,1,1.0,1.0,0.273472388857,0,nan,nan,nan,nan,nan,nan,nan,nan,nan,270,0.331159066004,0.309369715406,0.641393874915,nan,nan,nan,nan,nan,nan,nan,nan,739.948431791,830.993381169,nan,831.266853558,nan,nan,nan,nan
1,80,0,0,0.0,1.0,0.483656482247,0,nan,nan,nan,nan,nan,nan,nan,nan,nan,174,1.0,-0.160790688716,0.281981279739,nan,nan,nan,nan,nan,nan,nan,nan,739.948431791,831.935186431,nan,832.418842913,nan,nan,nan,nan
1,81,1,1,1.0,1.0,0.285860174336,0,0.0,0.0,0.0,0.337746761911,0.107175629718,0.230571132193,0.444922391629,0.107175629718,0.347663015147,447,0.312467642152,0.411646472288,-1.0,nan,nan,nan,nan,nan,nan,nan,nan,739.948431791,832.876957482,nan,833.162817656,nan,nan,nan,nan
1,82,1,1,1.0,1.0,0.272047469916,0,0.0,0.0,0.0,0.337098179566,0.106659575173,0.230438604394,0.443757754739,0.106659575173,0.347188042166,283,0.19826868328,0.351050922538,0.605825948857,nan,nan,nan,nan,nan,nan,nan,nan,739.948431791,833.818759608,nan,834.090807078,nan,nan,nan,nan
1,83,1,1,1.0,1.0,0.36223018344,0,0.0,0.0,0.0,0.336295084385,0.106242243057,0.230052841328,0.442537327442,0.106242243057,0.306712609231,135,1.0,-0.303502321856,-0.0849788702499,nan,nan,nan,nan,nan,nan,nan,nan,739.948431791,834.76054976,nan,835.122779943,nan,nan,nan,nan
1,84,0,0,1.0,0.0,0.308431368961,0,0.0,0.0,0.0,0.336611366081,0.105630798444,0.230980567637,0.442242164526,0.105630798444,0.314236340773,345,-0.173519535469,0.465595146217,0.186119282857,nan,nan,nan,nan,nan,nan,nan,nan,739.948431791,835.702337631,nan,836.010769,nan,nan,nan,nan
1,85,1,1,1.0,1.0,0.326628022594,0,0.0,0.0,0.0,0.336271848044,0.105037544761,0.231741352443,0.440572728753,0.105037544761,0.332429858332,469,0.489482198204,0.360453357602,-1.0,nan,nan,nan,nan,nan,nan,nan,nan,739.948431791,836.644122651,nan,836.970750674,nan,nan,nan,nan
1,86,1,1,nan,nan,nan,0,0.0,0.0,0.0,0.336157040598,0.104415688155,0.231741352443,0.440572728753,0.104415688155,0.317529695778,415,0.0813077335083,0.459153678902,-0.614968023274,nan,nan,nan,nan,nan,nan,nan,nan,739.948431791,837.585911378,nan,nan,nan,nan,nan,nan
1,87,1,1,1.0,1.0,0.626980289468,0,0.0,0.0,0.0,0.336157040598,0.104415688155,0.23114555966,0.448011421509,0.104415688155,0.476804156031,155,1.0,-0.2479831371,0.111611878621,nan,nan,nan,nan,nan,nan,nan,nan,739.948431791,838.527703811,nan,839.1546841,nan,nan,nan,nan
1,88,1,1,nan,nan,nan,0,0.0,0.0,0.0,0.339578490584,0.108432930924,0.23114555966,0.448011421509,0.108432930924,0.626980289468,485,0.622774561467,0.312875618285,-1.0,nan,nan,nan,nan,nan,nan,nan,nan,739.948431791,839.469489686,nan,nan,nan,nan,nan,nan
1,89,1,1,1.0,1.0,0.0394107826287,0,0.0,0.0,0.0,0.339578490584,0.108432930924,0.23114555966,0.448011421509,0.108432930924,0.333195536048,218,0.881467392804,0.0788246127756,0.572559633417,nan,nan,nan,nan,nan,nan,nan,nan,739.948431791,840.411280409,nan,840.450691191,nan,nan,nan,nan
1,90,1,1,1.0,1.0,0.79355924105,0,0.0,0.0,0.0,0.336088168399,0.112501034318,0.219326494887,0.463366418294,0.112501034318,0.41648501184,33,1.0,0.0565990290419,-1.0,nan,nan,nan,nan,nan,nan,nan,nan,739.948431791,841.353065429,nan,842.14662467,nan,nan,nan,nan
1,91,1,1,nan,nan,nan,0,0.0,0.0,0.0,0.34134645659,0.122019961704,0.219326494887,0.463366418294,0.122019961704,0.41648501184,260,0.438016636947,0.272781976488,0.654406567654,nan,nan,nan,nan,nan,nan,nan,nan,739.948431791,842.294857862,nan,nan,nan,nan,nan,nan
1,92,1,1,1.0,1.0,0.46996066795,0,0.0,0.0,0.0,0.34134645659,0.122019961704,0.219326494887,0.463366418294,0.122019961704,0.6317599545,169,1.0,-0.185917379452,0.239118302078,nan,nan,nan,nan,nan,nan,nan,nan,739.948431791,843.236648014,nan,843.706608682,nan,nan,nan,nan
1,93,0,0,0.0,1.0,0.440186191699,0,0.0,0.0,0.0,0.342807981719,0.122088149236,0.220719832484,0.464896130955,0.122088149236,0.455073429825,446,0.304696255059,0.41359904426,-1.0,nan,nan,nan,nan,nan,nan,nan,nan,739.948431791,844.178430468,nan,844.61861666,nan,nan,nan,nan
1,94,1,1,1.0,1.0,0.20237697463,0,0.0,0.0,0.0,0.34390211891,0.121833437359,0.222068681551,0.465735556269,0.121833437359,0.370841278093,306,-0.00395437407881,0.408974006242,0.494128827808,nan,nan,nan,nan,nan,nan,nan,nan,739.948431791,845.12022176,nan,845.322598735,nan,nan,nan,nan
1,95,1,1,1.0,1.0,0.268570131797,0,0.0,0.0,0.0,0.342329617307,0.122059557993,0.220270059314,0.4643891753,0.122059557993,0.303711099376,125,1.0,-0.311567427947,-0.187805059354,nan,nan,nan,nan,nan,nan,nan,nan,739.948431791,846.062015619,nan,846.330585751,nan,nan,nan,nan
1,96,1,1,1.0,1.0,0.326762303652,0,0.0,0.0,0.0,0.34151907351,0.121630357383,0.219888716127,0.463149430894,0.121630357383,0.265903136693,318,-0.0835627602325,0.431640264478,0.413481556053,nan,nan,nan,nan,nan,nan,nan,nan,739.948431791,847.003798358,nan,847.330560662,nan,nan,nan,nan
1,97,1,1,1.0,1.0,0.256957812351,0,0.0,0.0,0.0,0.341358673838,0.120977193524,0.220381480314,0.462335867362,0.120977193524,0.284096749267,447,0.312467642152,0.411646472288,-1.0,nan,nan,nan,nan,nan,nan,nan,nan,739.948431791,847.945589936,nan,848.202547748,nan,nan,nan,nan
1,98,1,1,1.0,1.0,0.259140806389,0,0.0,0.0,0.0,0.340451137693,0.120639478597,0.219811659096,0.46109061629,0.120639478597,0.280953640797,223,0.83172397378,0.104890589731,0.593432239612,nan,nan,nan,nan,nan,nan,nan,nan,739.948431791,848.887408313,nan,849.146549119,nan,nan,nan,nan
1,99,1,1,1.0,1.0,0.317349799094,0,0.0,0.0,0.0,0.339586134168,0.120285663058,0.21930047111,0.459871797226,0.120285663058,0.277816139278,44,1.0,-0.00106984144607,-1.0,nan,nan,nan,nan,nan,nan,nan,nan,739.948431791,849.829167674,nan,850.146517473,nan,nan,nan,nan
1,100,1,1,1.0,1.0,0.247554430855,0,0.0,0.0,0.0,0.339352067483,0.119672424785,0.219679642699,0.459024492268,0.119672424785,0.274681678779,217,0.891250405156,0.0735373331823,0.568048345461,nan,nan,nan,nan,nan,nan,nan,nan,739.948431791,850.770958681,nan,851.018513112,nan,nan,nan,nan
1,101,1,1,1.0,1.0,0.2657542206,0,0.0,0.0,0.0,0.338395842102,0.119411774701,0.218984067401,0.457807616803,0.119411774701,0.276886150183,279,0.238157575771,0.338930353633,0.618978422254,nan,nan,nan,nan,nan,nan,nan,nan,739.948431791,851.712743987,nan,851.978498207,nan,nan,nan,nan
1,102,1,1,1.0,1.0,0.163923835498,0,0.0,0.0,0.0,0.337646959406,0.119021046008,0.218625913398,0.456668005414,0.119021046008,0.225744162318,101,1.0,-0.273572672894,-0.446152610616,nan,nan,nan,nan,nan,nan,nan,nan,739.948431791,852.654537845,nan,852.818461681,nan,nan,nan,nan
1,103,1,1,1.0,1.0,0.102146843623,0,1.0,0.0,0.0,0.335874274468,0.119692406734,0.216181867734,0.455566681202,0.119692406734,0.177274966574,150,1.0,-0.266152531622,0.0638227105866,nan,nan,nan,nan,nan,nan,nan,nan,739.948431791,853.596326001,nan,853.698472845,nan,nan,nan,nan
1,104,1,1,1.0,1.0,0.336319067806,1,0.0,0.0,1.0,0.333513391328,0.121358113824,0.212155277505,0.454871505152,0.121358113824,0.200796582309,371,-0.14179360683,0.478331938097,-0.0779732583494,-148.661153707,238.661153707,-22.1982212931,339.0,-0.164955840019,0.45996923152,0.241423096872,2.70065783471,739.948431791,854.538109881,855.346523289,854.874428949,859.080324601,860.077618452,856.363306998,859.071988626
1,105,1,1,1.0,1.0,0.452135781816,0,0.0,0.0,0.0,0.333541448093,0.120750121341,0.212791326752,0.454291569434,0.120750121341,0.296867231082,279,0.238157575771,0.338930353633,0.618978422254,nan,nan,nan,nan,nan,nan,nan,nan,739.948431791,860.222198686,nan,860.674334468,nan,nan,nan,nan
1,106,1,1,1.0,1.0,0.31834479043,0,0.0,0.0,0.0,0.334715649417,0.120723255356,0.213992394061,0.455438904773,0.120723255356,0.368933213351,64,1.0,-0.108036866323,-1.0,nan,nan,nan,nan,nan,nan,nan,nan,739.948431791,861.163969166,nan,861.482313957,nan,nan,nan,nan
1,107,1,1,1.0,1.0,0.23253718816,0,0.0,0.0,0.0,0.334555150799,0.12014084546,0.214414305339,0.45469599626,0.12014084546,0.334339253469,368,-0.150457169737,0.477793263397,-0.0457341785459,nan,nan,nan,nan,nan,nan,nan,nan,739.948431791,862.105767301,nan,862.338304489,nan,nan,nan,nan
1,108,1,1,1.0,1.0,0.122755139717,0,0.0,0.0,0.0,0.333564685143,0.119973967229,0.213590717914,0.453538652372,0.119973967229,0.224545706102,67,1.0,-0.12380466598,-1.0,nan,nan,nan,nan,nan,nan,nan,nan,739.948431791,863.047536356,nan,863.170291495,nan,nan,nan,nan
1,109,1,1,1.0,1.0,0.156951483223,0,1.0,0.0,0.0,0.331537670283,0.121155093311,0.210382576972,0.452692763594,0.121155093311,0.170747937033,10,0.926811495151,0.168400576072,-1.0,nan,nan,nan,nan,nan,nan,nan,nan,739.948431791,863.98933278,nan,864.146284263,nan,nan,nan,nan
1,110,1,1,1.0,1.0,0.0311224187026,1,0.0,0.0,1.0,0.329874944692,0.12176323387,0.208111710822,0.451638178561,0.12176323387,0.103609680547,358,-0.170583909915,0.474268316859,0.0585874414746,-144.916526121,234.916526121,-16.8022238791,334.0,-0.152796554809,0.454467054946,0.285576400052,3.35906588269,739.948431791,864.931119511,865.739546603,864.962241929,870.131734011,871.137828262,866.75629553,870.123400886
1,111,1,1,1.0,1.0,0.432193759305,0,0.0,0.0,0.0,0.327056524635,0.124581223014,0.202475301622,0.451637747649,0.124581223014,0.206755887077,455,0.375608248681,0.394875365091,-1.0,nan,nan,nan,nan,nan,nan,nan,nan,739.948431791,871.281950058,nan,871.714143817,nan,nan,nan,nan
1,112,1,1,1.0,1.0,0.450098757923,0,0.0,0.0,0.0,0.328039115614,0.124409691404,0.203629424209,0.452448807018,0.124409691404,0.30447164531,315,-0.0657111424032,0.426434809442,0.434956515233,nan,nan,nan,nan,nan,nan,nan,nan,739.948431791,872.232027148,nan,872.682125906,nan,nan,nan,nan
1,113,1,1,1.0,1.0,0.30823550676,0,0.0,0.0,0.0,0.329169297487,0.124383000857,0.20478629663,0.453552298343,0.124383000857,0.396842674663,165,1.0,-0.205056383665,0.203745440608,nan,nan,nan,nan,nan,nan,nan,nan,739.948431791,873.173864912,nan,873.482100418,nan,nan,nan,nan
1,114,1,1,1.0,1.0,0.262442239211,0,0.0,0.0,0.0,0.328977244361,0.123827207983,0.205150036378,0.452804452344,0.123827207983,0.340258834631,229,0.770397026975,0.135265939772,0.614681466938,nan,nan,nan,nan,nan,nan,nan,nan,739.948431791,874.115646226,nan,874.378088465,nan,nan,nan,nan
1,115,1,1,1.0,1.0,0.296634876344,0,0.0,0.0,0.0,0.328372380678,0.123424728733,0.204947651944,0.451797109411,0.123424728733,0.289104207438,149,1.0,-0.269478519393,0.0541436597792,nan,nan,nan,nan,nan,nan,nan,nan,739.948431791,875.057436092,nan,875.354070969,nan,nan,nan,nan
1,116,1,1,1.0,1.0,0.0908583953278,0,0.0,0.0,0.0,0.328086457215,0.122904093482,0.205182363733,0.450990550697,0.122904093482,0.216645170294,421,0.121471671064,0.452518040197,-0.712610339232,nan,nan,nan,nan,nan,nan,nan,nan,739.948431791,875.999220257,nan,876.090078653,nan,nan,nan,nan
1,117,0,0,0.0,1.0,0.629030427895,0,0.0,0.0,0.0,0.32596834952,0.124372563737,0.201595785783,0.450340913257,0.124372563737,0.338841233189,187,1.0,-0.0912463489427,0.385383214542,nan,nan,nan,nan,nan,nan,nan,nan,739.948431791,876.94101212,nan,877.570042548,nan,nan,nan,nan
1,118,1,1,1.0,1.0,0.607199347229,0,0.0,0.0,0.0,0.328650314815,0.127032491758,0.201617823057,0.455682806573,0.127032491758,0.442362723484,78,1.0,-0.179467652321,-0.739907630878,nan,nan,nan,nan,nan,nan,nan,nan,739.948431791,877.882804553,nan,878.4900039,nan,nan,nan,nan
1,119,1,1,1.0,1.0,0.633410956012,0,0.0,0.0,0.0,0.33109372738,0.129113667146,0.202142885884,0.46530225981,0.129113667146,0.623213577045,222,0.841778467246,0.0997291618919,0.589484691865,nan,nan,nan,nan,nan,nan,nan,nan,739.948431791,878.824580165,nan,879.457991121,nan,nan,nan,nan
1,120,1,1,nan,nan,nan,0,0.0,0.0,0.0,0.333722572847,0.131579686963,0.202142885884,0.46530225981,0.131579686963,0.62030515162,496,0.714833717156,0.274923884212,-1.0,nan,nan,nan,nan,nan,nan,nan,nan,739.948431791,879.766375449,nan,nan,nan,nan,nan,nan
1,121,1,1,1.0,1.0,0.293832934927,0,0.0,0.0,0.0,0.333722572847,0.131579686963,0.202142885884,0.46530225981,0.131579686963,0.46362194547,451,0.343830962376,0.403518361206,-1.0,nan,nan,nan,nan,nan,nan,nan,nan,739.948431791,880.708135666,nan,881.0019686,nan,nan,nan,nan
1,122,1,1,1.0,1.0,0.336000613519,0,0.0,0.0,0.0,0.333378696658,0.131063194765,0.202315501892,0.464441891423,0.131063194765,0.314916774223,328,-0.132159558243,0.44685796506,0.336046158271,nan,nan,nan,nan,nan,nan,nan,nan,739.948431791,881.649958889,nan,881.985959502,nan,nan,nan,nan
1,123,0,0,1.0,0.0,0.314202889334,0,0.0,0.0,0.0,0.333401106203,0.130502116899,0.202898989305,0.463903223102,0.130502116899,0.314678812594,298,0.0600896634305,0.391050340636,0.53969689008,nan,nan,nan,nan,nan,nan,nan,nan,739.948431791,882.591741913,nan,882.905944803,nan,nan,nan,nan
1,124,1,1,1.0,1.0,0.556388643046,0,0.0,0.0,0.0,0.33323840945,0.129959881107,0.204107594468,0.466119648527,0.129959881107,0.402197381967,236,0.697004556276,0.169301754335,0.634065852989,nan,nan,nan,nan,nan,nan,nan,nan,739.948431791,883.5335295,nan,884.089918143,nan,nan,nan,nan
1,125,1,1,nan,nan,nan,0,0.0,0.0,0.0,0.335113621497,0.131006027029,0.204107594468,0.466119648527,0.131006027029,0.43529576619,77,1.0,-0.174593022316,-0.756267193339,nan,nan,nan,nan,nan,nan,nan,nan,739.948431791,884.475321932,nan,nan,nan,nan,nan,nan
1,126,1,1,1.0,1.0,0.280774029146,0,0.0,0.0,0.0,0.335113621497,0.131006027029,0.204107594468,0.466119648527,0.131006027029,0.418581336096,355,-0.173737462994,0.472683863687,0.0888799762457,nan,nan,nan,nan,nan,nan,nan,nan,739.948431791,885.417113225,nan,885.697887254,nan,nan,nan,nan
1,127,1,1,1.0,1.0,0.226972363773,0,0.0,0.0,0.0,0.334660791561,0.130552514968,0.204108276593,0.465213306529,0.130552514968,0.25387319646,220,0.861731547614,0.0893272636146,0.581247684387,nan,nan,nan,nan,nan,nan,nan,nan,739.948431791,886.358899386,nan,886.585871749,nan,nan,nan,nan
1,128,1,1,1.0,1.0,0.445166565536,0,0.0,0.0,0.0,0.333770804555,0.130376950503,0.203393854051,0.464147755058,0.130376950503,0.317637652818,134,1.0,-0.304950998219,-0.095144111098,nan,nan,nan,nan,nan,nan,nan,nan,739.948431791,887.300688112,nan,887.745854678,nan,nan,nan,nan
1,129,1,1,1.0,1.0,0.343357562844,0,0.0,0.0,0.0,0.334683884563,0.130229411646,0.204454472916,0.464913296209,0.130229411646,0.338498830718,203,1.0,-0.00249325098487,0.493674673203,nan,nan,nan,nan,nan,nan,nan,nan,739.948431791,888.242478264,nan,888.585835827,nan,nan,nan,nan
1,130,1,1,1.0,1.0,0.32955540705,0,0.0,0.0,0.0,0.334754402272,0.129701282168,0.205053120105,0.46445568444,0.129701282168,0.372693178477,273,0.299732959835,0.319577193062,0.635038033336,nan,nan,nan,nan,nan,nan,nan,nan,739.948431791,889.184268701,nan,889.513824108,nan,nan,nan,nan
1,131,1,1,1.0,1.0,0.371738480928,0,0.0,0.0,0.0,0.334712474891,0.129178071358,0.205534403533,0.46389054625,0.129178071358,0.348217150274,476,0.547545041103,0.340739382997,-1.0,nan,nan,nan,nan,nan,nan,nan,nan,739.948431791,890.126054577,nan,890.497793058,nan,nan,nan,nan
1,132,1,1,1.0,1.0,0.285945703683,0,0.0,0.0,0.0,0.33500868294,0.128702595113,0.206306087827,0.463711278052,0.128702595113,0.329079863887,172,1.0,-0.170984061773,0.265024678188,nan,nan,nan,nan,nan,nan,nan,nan,739.948431791,891.067844159,nan,891.353789862,nan,nan,nan,nan
1,133,1,1,1.0,1.0,0.38412712171,0,0.0,0.0,0.0,0.334619294215,0.128264756568,0.206354537648,0.462884050783,0.128264756568,0.34727043544,286,0.169078956243,0.359734776014,0.594698705761,nan,nan,nan,nan,nan,nan,nan,nan,739.948431791,892.009630319,nan,892.393757441,nan,nan,nan,nan
1,134,1,1,1.0,1.0,0.234329313098,0,0.0,0.0,0.0,0.335009119629,0.127833693189,0.20717542644,0.462842812818,0.127833693189,0.301467379497,64,1.0,-0.108036866323,-1.0,nan,nan,nan,nan,nan,nan,nan,nan,739.948431791,892.951422182,nan,893.185751495,nan,nan,nan,nan
1,135,1,1,1.0,1.0,0.292531178333,0,0.0,0.0,0.0,0.33422255864,0.127641520055,0.206581038586,0.461864078695,0.127641520055,0.303662537714,477,0.555879874869,0.337784025865,-1.0,nan,nan,nan,nan,nan,nan,nan,nan,739.948431791,893.893210909,nan,894.185742087,nan,nan,nan,nan
1,136,1,1,1.0,1.0,0.366732733324,0,0.0,0.0,0.0,0.333899369646,0.127198388512,0.206700981134,0.461097758157,0.127198388512,0.297864408252,175,1.0,-0.155629953633,0.290361762956,nan,nan,nan,nan,nan,nan,nan,nan,739.948431791,894.834996784,nan,895.201729517,nan,nan,nan,nan
1,137,1,1,1.0,1.0,0.384923684993,0,0.0,0.0,0.0,0.334151933982,0.126740686576,0.207411247406,0.460892620558,0.126740686576,0.348062532217,475,0.539218753276,0.343659807328,-1.0,nan,nan,nan,nan,nan,nan,nan,nan,739.948431791,895.776786936,nan,896.161710621,nan,nan,nan,nan
1,138,1,1,1.0,1.0,0.427123294503,0,0.0,0.0,0.0,0.3345395046,0.126333325777,0.208206178823,0.460872830377,0.126333325777,0.39292657094,261,0.427225806086,0.276617811781,0.653674462902,nan,nan,nan,nan,nan,nan,nan,nan,739.948431791,896.718570531,nan,897.145693825,nan,nan,nan,nan
1,139,0,0,0.0,1.0,0.445295144629,0,0.0,0.0,0.0,0.335240896948,0.126109654247,0.209131242701,0.461350551195,0.126109654247,0.419114041375,163,1.0,-0.214247802105,0.185723682048,nan,nan,nan,nan,nan,nan,nan,nan,739.948431791,897.660364959,nan,898.105660104,nan,nan,nan,nan
1,140,1,1,1.0,1.0,0.287490363698,0,0.0,0.0,0.0,0.336068372494,0.125993853421,0.210074519073,0.462062225915,0.125993853421,0.38663626761,418,0.101175887384,0.455961754156,-0.661679309199,nan,nan,nan,nan,nan,nan,nan,nan,739.948431791,898.602153401,nan,898.889643765,nan,nan,nan,nan
1,141,1,1,1.0,1.0,0.233708940214,0,0.0,0.0,0.0,0.335705850041,0.125592452971,0.21011339707,0.461298303012,0.125592452971,0.32216481618,505,0.789537956352,0.240683140511,-1.0,nan,nan,nan,nan,nan,nan,nan,nan,739.948431791,899.543940417,nan,899.777649357,nan,nan,nan,nan
1,142,1,1,1.0,1.0,0.355879914539,0,0.0,0.0,0.0,0.334950317375,0.125431714231,0.209518603144,0.460382031606,0.125431714231,0.292359739484,429,0.177531820842,0.442080780324,-0.901885199234,nan,nan,nan,nan,nan,nan,nan,nan,739.948431791,900.48573456,nan,900.841614475,nan,nan,nan,nan
1,143,1,1,1.0,1.0,0.350087867118,0,0.0,0.0,0.0,0.335104211472,0.124982508874,0.210121702598,0.460086720346,0.124982508874,0.313225573957,217,0.891250405156,0.0735373331823,0.568048345461,nan,nan,nan,nan,nan,nan,nan,nan,739.948431791,901.427515304,nan,901.777603171,nan,nan,nan,nan
1,144,1,1,1.0,1.0,0.248272307159,0,0.0,0.0,0.0,0.335213581221,0.124532064715,0.210681516506,0.459745645936,0.124532064715,0.318080029606,113,1.0,-0.302191989669,-0.314576349441,nan,nan,nan,nan,nan,nan,nan,nan,739.948431791,902.369304316,nan,902.617576623,nan,nan,nan,nan
1,145,1,1,1.0,1.0,0.210466340242,0,0.0,0.0,0.0,0.334583571989,0.1242989683,0.210284603689,0.458882540289,0.1242989683,0.269608838173,473,0.522594813828,0.349396171415,-1.0,nan,nan,nan,nan,nan,nan,nan,nan,739.948431791,903.31110074,nan,903.52156708,nan,nan,nan,nan
1,146,1,1,1.0,1.0,0.180684736581,0,0.0,0.0,0.0,0.333690642264,0.124294454435,0.209396187829,0.457985096699,0.124294454435,0.213141127994,182,1.0,-0.118523835432,0.347089474713,nan,nan,nan,nan,nan,nan,nan,nan,739.948431791,904.25288519,nan,904.433569927,nan,nan,nan,nan
1,147,1,1,1.0,1.0,0.286861152796,0,0.0,0.0,0.0,0.332597742938,0.124518216458,0.208079526479,0.457115959396,0.124518216458,0.22600407654,364,-0.160194321586,0.476704516321,-0.00341124574885,nan,nan,nan,nan,nan,nan,nan,nan,739.948431791,905.194671636,nan,905.481532789,nan,nan,nan,nan
1,148,0,0,1.0,0.0,0.265070270922,0,0.0,0.0,0.0,0.332273369958,0.124135223459,0.208138146499,0.456408593417,0.124135223459,0.244205386766,481,0.589289488337,0.325611856148,-1.0,nan,nan,nan,nan,nan,nan,nan,nan,739.948431791,906.136462073,nan,906.401532344,nan,nan,nan,nan
1,149,1,1,1.0,1.0,0.195258652151,0,0.0,0.0,0.0,0.331800108697,0.123824942425,0.207975166272,0.455625051122,0.123824942425,0.249063358623,114,1.0,-0.303747463913,-0.303859371662,nan,nan,nan,nan,nan,nan,nan,nan,739.948431791,907.078252225,nan,907.273510877,nan,nan,nan,nan
1,150,1,1,1.0,1.0,0.165445117571,0,0.0,0.0,0.0,0.330845273337,0.123914721375,0.206930551962,0.454759994712,0.123914721375,0.208591346881,353,-0.175041255135,0.471490071959,0.108799216003,nan,nan,nan,nan,nan,nan,nan,nan,739.948431791,908.020040096,nan,908.185485214,nan,nan,nan,nan
1,151,1,1,1.0,1.0,0.311646987277,0,0.0,0.0,0.0,0.329696661144,0.124245275723,0.205451385421,0.453941936867,0.124245275723,0.224116919,187,1.0,-0.0912463489427,0.385383214542,nan,nan,nan,nan,nan,nan,nan,nan,739.948431791,908.961827397,nan,909.273474385,nan,nan,nan,nan
1,152,1,1,1.0,1.0,0.20183671423,0,0.0,0.0,0.0,0.329572180634,0.123825112867,0.205747067768,0.453397293501,0.123825112867,0.226309606359,133,1.0,-0.306259573676,-0.105336427414,nan,nan,nan,nan,nan,nan,nan,nan,739.948431791,909.903618405,nan,910.105455119,nan,nan,nan,nan
1,153,1,1,1.0,1.0,0.268021888623,0,0.0,0.0,0.0,0.32869728018,0.123849225811,0.204848054369,0.45254650599,0.123849225811,0.260501863377,481,0.589289488337,0.325611856148,-1.0,nan,nan,nan,nan,nan,nan,nan,nan,739.948431791,910.845411122,nan,911.113433011,nan,nan,nan,nan
1,154,0,0,0.0,1.0,0.43821474025,0,0.0,0.0,0.0,0.328284522414,0.123527973258,0.204756549156,0.451812495672,0.123527973258,0.302691114368,281,0.218083397074,0.345068392493,0.612644422055,nan,nan,nan,nan,nan,nan,nan,nan,739.948431791,911.787195858,nan,912.225410598,nan,nan,nan,nan
1,155,1,1,1.0,1.0,0.280408248713,0,0.0,0.0,0.0,0.329027294156,0.123438888091,0.205588406065,0.452466182247,0.123438888091,0.328881625862,226,0.801265930663,0.120208988367,0.60458276857,nan,nan,nan,nan,nan,nan,nan,nan,739.948431791,912.728984869,nan,913.009393118,nan,nan,nan,nan
1,156,0,0,1.0,0.0,0.226615136198,0,0.0,0.0,0.0,0.328700991838,0.123087994193,0.205612997645,0.451788986031,0.123087994193,0.315079375054,368,-0.150457169737,0.477793263397,-0.0457341785459,nan,nan,nan,nan,nan,nan,nan,nan,739.948431791,913.670767324,nan,913.89738246,nan,nan,nan,nan
1,157,1,1,1.0,1.0,0.300801866164,0,0.0,0.0,0.0,0.328020419467,0.122957974879,0.205062444588,0.450978394346,0.122957974879,0.269275083692,477,0.555879874869,0.337784025865,-1.0,nan,nan,nan,nan,nan,nan,nan,nan,739.948431791,914.612559471,nan,914.913361338,nan,nan,nan,nan
1,158,1,1,1.0,1.0,0.2630027415,0,0.0,0.0,0.0,0.327840164147,0.122570036239,0.205270127908,0.450410200386,0.122570036239,0.263473247954,288,0.150005133015,0.365331945294,0.586687239957,nan,nan,nan,nan,nan,nan,nan,nan,739.948431791,915.554351619,nan,915.817354361,nan,nan,nan,nan
1,159,1,1,1.0,1.0,0.281188276305,0,0.0,0.0,0.0,0.327413602156,0.1222785785,0.205135023656,0.449692180656,0.1222785785,0.281664294656,31,1.0,0.0668515730764,-1.0,nan,nan,nan,nan,nan,nan,nan,nan,739.948431791,916.496138635,nan,916.777326911,nan,nan,nan,nan
1,160,1,1,1.0,1.0,0.29138936149,0,0.0,0.0,0.0,0.327111475843,0.121935226842,0.205176249001,0.449046702685,0.121935226842,0.278526793098,126,1.0,-0.311411754845,-0.177408431044,nan,nan,nan,nan,nan,nan,nan,nan,739.948431791,917.437927932,nan,917.729317293,nan,nan,nan,nan
1,161,1,1,1.0,1.0,0.245595523738,0,0.0,0.0,0.0,0.326879514062,0.121572550988,0.205306963074,0.448452065049,0.121572550988,0.272724387178,75,1.0,-0.164714458691,-0.791355921409,nan,nan,nan,nan,nan,nan,nan,nan,739.948431791,918.379717514,nan,918.625313037,nan,nan,nan,nan
1,162,1,1,1.0,1.0,0.463785734144,0,0.0,0.0,0.0,0.326355101221,0.121354367105,0.205000734116,0.447709468325,0.121354367105,0.333590206457,224,0.821619416966,0.11002478857,0.597264883709,nan,nan,nan,nan,nan,nan,nan,nan,739.948431791,919.321507666,nan,919.7852934,nan,nan,nan,nan
1,163,0,0,0.0,1.0,0.449966472515,0,0.0,0.0,0.0,0.327236066816,0.121461001486,0.205775065331,0.448697068302,0.121461001486,0.386449243466,392,-0.0541067903503,0.475522277549,-0.315549842675,nan,nan,nan,nan,nan,nan,nan,nan,739.948431791,920.263293541,nan,920.713260014,nan,nan,nan,nan
1,164,1,1,1.0,1.0,0.300172085059,0,0.0,0.0,0.0,0.328017789146,0.121466613404,0.206551175742,0.449484402549,0.121466613404,0.404641430573,20,1.0,0.121558187834,-1.0,nan,nan,nan,nan,nan,nan,nan,nan,739.948431791,921.205087114,nan,921.5052592,nan,nan,nan,nan
1,165,1,1,1.0,1.0,0.486357498972,0,0.0,0.0,0.0,0.327841550512,0.121101750521,0.206739799991,0.448943301033,0.121101750521,0.412165352182,324,-0.114799643766,0.441158325109,0.368064040095,nan,nan,nan,nan,nan,nan,nan,nan,739.948431791,922.146869569,nan,922.633227068,nan,nan,nan,nan
1,166,1,1,1.0,1.0,0.360567778,0,0.0,0.0,0.0,0.328838506163,0.121369010614,0.207469495549,0.450207516777,0.121369010614,0.382365787344,388,-0.0739633693698,0.476941921698,-0.268577162136,nan,nan,nan,nan,nan,nan,nan,nan,739.948431791,923.088661717,nan,923.449229495,nan,nan,nan,nan
1,167,0,0,0.0,1.0,0.482746449939,0,0.0,0.0,0.0,0.329036814112,0.121014975721,0.208021838391,0.450051789832,0.121014975721,0.44322390897,248,0.568115903494,0.223728204869,0.653295769881,nan,nan,nan,nan,nan,nan,nan,nan,739.948431791,924.030451584,nan,924.513198033,nan,nan,nan,nan
1,168,1,1,1.0,1.0,0.292949701892,0,0.0,0.0,0.0,0.329991532347,0.121241502194,0.208750030153,0.451233034541,0.121241502194,0.378754643277,157,1.0,-0.240048375319,0.130425901556,nan,nan,nan,nan,nan,nan,nan,nan,739.948431791,924.972236319,nan,925.265186021,nan,nan,nan,nan
1,169,1,1,1.0,1.0,0.247267907544,0,0.0,0.0,0.0,0.329762879072,0.120901536971,0.208861342101,0.450664416044,0.120901536971,0.340988019792,85,1.0,-0.212156452387,-0.638781227021,nan,nan,nan,nan,nan,nan,nan,nan,739.948431791,925.914029322,nan,926.161297229,nan,nan,nan,nan
1,170,1,1,1.0,1.0,0.265329139773,0,0.0,0.0,0.0,0.329256774953,0.120702115079,0.208554659873,0.449958890032,0.120702115079,0.26851558307,162,1.0,-0.218739557155,0.176632971453,nan,nan,nan,nan,nan,nan,nan,nan,739.948431791,926.855815197,nan,927.121144337,nan,nan,nan,nan
1,171,1,1,1.0,1.0,0.27553763747,0,0.0,0.0,0.0,0.328866972299,0.120436424851,0.208430547448,0.44930339715,0.120436424851,0.262711561595,454,0.367627362238,0.397084843583,-1.0,nan,nan,nan,nan,nan,nan,nan,nan,739.948431791,927.797602498,nan,928.073140136,nan,nan,nan,nan
1,172,1,1,1.0,1.0,0.24574006832,0,0.0,0.0,0.0,0.328543764209,0.12014223137,0.20840153284,0.448685995579,0.12014223137,0.262202281854,411,0.0555201669072,0.463022710015,-0.557054760163,nan,nan,nan,nan,nan,nan,nan,nan,739.948431791,928.739391795,nan,928.985131863,nan,nan,nan,nan
1,173,1,1,1.0,1.0,0.439920765581,0,0.0,0.0,0.0,0.328044946764,0.119951065531,0.208093881233,0.447996012296,0.119951065531,0.320399490457,503,0.773020196022,0.248538461814,-1.0,nan,nan,nan,nan,nan,nan,nan,nan,739.948431791,929.681180522,nan,930.121101287,nan,nan,nan,nan
1,174,1,1,1.0,1.0,0.322118345241,0,0.0,0.0,0.0,0.328714861847,0.119902457857,0.20881240399,0.448617319703,0.119902457857,0.335926393047,238,0.675741828754,0.178727669763,0.638511091232,nan,nan,nan,nan,nan,nan,nan,nan,739.948431791,930.622972099,nan,930.945090444,nan,nan,nan,nan
1,175,1,1,1.0,1.0,0.452300853445,0,0.0,0.0,0.0,0.328675596867,0.119546149557,0.20912944731,0.448221746424,0.119546149557,0.404779988089,134,1.0,-0.304950998219,-0.095144111098,nan,nan,nan,nan,nan,nan,nan,nan,739.948431791,931.564757975,nan,932.017058828,nan,nan,nan,nan
1,176,1,1,1.0,1.0,0.318519840541,0,0.0,0.0,0.0,0.329407107261,0.119568457917,0.209838649344,0.448975565178,0.119568457917,0.364313013076,331,-0.143297839787,0.450801753776,0.311166711333,nan,nan,nan,nan,nan,nan,nan,nan,739.948431791,932.506532732,nan,932.825052572,nan,nan,nan,nan
1,177,1,1,1.0,1.0,0.272701484326,0,0.0,0.0,0.0,0.329343064516,0.119219174362,0.210123890153,0.448562238878,0.119219174362,0.347840726104,499,0.739831889234,0.263827757734,-1.0,nan,nan,nan,nan,nan,nan,nan,nan,739.948431791,933.448337138,nan,933.721038623,nan,nan,nan,nan
1,178,1,1,1.0,1.0,0.39489982801,0,0.0,0.0,0.0,0.329011827205,0.118948499049,0.210063328155,0.447960326254,0.118948499049,0.328707050959,451,0.343830962376,0.403518361206,-1.0,nan,nan,nan,nan,nan,nan,nan,nan,739.948431791,934.39012615,nan,934.785025978,nan,nan,nan,nan
1,179,1,1,1.0,1.0,0.333094896516,0,0.0,0.0,0.0,0.329394896977,0.118707953555,0.210686943421,0.448102850532,0.118707953555,0.333565402951,223,0.83172397378,0.104890589731,0.593432239612,nan,nan,nan,nan,nan,nan,nan,nan,739.948431791,935.331917157,nan,935.665012054,nan,nan,nan,nan
1,180,1,1,1.0,1.0,0.359297952324,0,0.0,0.0,0.0,0.329416284257,0.1183647021,0.211051582157,0.447780986358,0.1183647021,0.362430892283,17,0.981069150956,0.135921910835,-1.0,nan,nan,nan,nan,nan,nan,nan,nan,739.948431791,936.273682221,nan,936.632980173,nan,nan,nan,nan
1,181,1,1,1.0,1.0,0.697459037125,0,0.0,1.0,0.0,0.329588017982,0.118045696638,0.211542321344,0.447633714619,0.118045696638,0.463283961988,180,1.0,-0.129278616986,0.331238955499,nan,nan,nan,nan,nan,nan,nan,nan,739.948431791,937.215491474,nan,937.912950512,nan,nan,nan,nan
1,182,1,1,1.0,1.0,0.587673852686,1,0.0,0.0,1.0,0.331690138091,0.120929935505,0.210760202586,0.452620073596,0.120929935505,0.548143614045,101,1.0,-0.273572672894,-0.446152610616,-0.279489390545,90.2794893905,19.2638643905,128.0,1.0,-0.310663006781,-0.156689791083,3.4007260871,739.948431791,938.15727849,938.965696745,938.744952343,943.399558041,944.409830686,939.982452799,943.391228908
1,183,1,1,1.0,1.0,0.643111409387,0,0.0,0.0,0.0,0.333144591015,0.122111256406,0.211033334609,0.45525584742,0.122111256406,0.642748099732,274,0.289344050657,0.322900892411,0.632670269059,nan,nan,nan,nan,nan,nan,nan,nan,739.948431791,944.54973389,nan,945.192845299,nan,nan,nan,nan
1,184,0,0,0.0,1.0,0.501248158282,0,0.0,0.0,0.0,0.334895815978,0.123962373106,0.210933442871,0.458858189084,0.123962373106,0.577344473451,334,-0.152796554809,0.454467054946,0.285576400052,nan,nan,nan,nan,nan,nan,nan,nan,739.948431791,945.49156196,nan,945.992810118,nan,nan,nan,nan
1,185,1,1,1.0,1.0,0.343453070673,0,0.0,0.0,0.0,0.335830379698,0.124237408997,0.211592970701,0.460067788696,0.124237408997,0.495937546114,442,0.273907262724,0.421095538958,-1.0,nan,nan,nan,nan,nan,nan,nan,nan,739.948431791,946.433354393,nan,946.776807463,nan,nan,nan,nan
1,186,1,1,1.0,1.0,0.281650134828,0,0.0,0.0,0.0,0.335872964564,0.123891193843,0.211981770722,0.459764158407,0.123891193843,0.375450454594,499,0.739831889234,0.263827757734,-1.0,nan,nan,nan,nan,nan,nan,nan,nan,739.948431791,947.375139698,nan,947.656789833,nan,nan,nan,nan
1,187,1,1,1.0,1.0,0.283843392332,0,0.0,0.0,0.0,0.335571726621,0.123612292123,0.211959434498,0.459184018744,0.123612292123,0.302982199277,257,0.470472903111,0.261039853404,0.655841377839,nan,nan,nan,nan,nan,nan,nan,nan,739.948431791,948.31693042,nan,948.600773813,nan,nan,nan,nan
1,188,1,1,1.0,1.0,0.326031883073,0,0.0,0.0,0.0,0.335285934719,0.123329966931,0.211955967788,0.45861590165,0.123329966931,0.297175136744,22,1.0,0.111842423158,-1.0,nan,nan,nan,nan,nan,nan,nan,nan,739.948431791,949.258720002,nan,949.584751885,nan,nan,nan,nan
1,189,1,1,1.0,1.0,0.376271821384,0,0.0,0.0,0.0,0.335235088281,0.122992584013,0.212242504268,0.458227672295,0.122992584013,0.328715698929,88,1.0,-0.225257592204,-0.599932847766,nan,nan,nan,nan,nan,nan,nan,nan,739.948431791,950.200471096,nan,950.576742917,nan,nan,nan,nan
1,190,1,1,1.0,1.0,0.586413720273,0,0.0,0.0,0.0,0.335459332725,0.122693380154,0.21276595257,0.458152712879,0.122693380154,0.42957247491,193,1.0,-0.0580453890011,0.428658791268,nan,nan,nan,nan,nan,nan,nan,nan,739.948431791,951.142296315,nan,951.728710035,nan,nan,nan,nan
1,191,1,1,1.0,1.0,0.436658676306,0,0.0,1.0,0.0,0.336823215266,0.123742734196,0.21308048107,0.460565949461,0.123742734196,0.466448072655,244,0.611372359265,0.206163547436,0.648880721676,nan,nan,nan,nan,nan,nan,nan,nan,739.948431791,952.084050259,nan,952.520708936,nan,nan,nan,nan
1,192,1,1,1.0,1.0,0.25481387676,1,0.0,0.0,1.0,0.337362866406,0.123624756288,0.213738110118,0.460987622694,0.123624756288,0.425962091113,428,0.170378320166,0.443486568519,-0.86866140055,156.209226134,293.790773866,-7.14672613422,418.0,0.101175887384,0.455961754156,-0.661679309199,2.35070310824,739.948431791,953.025873198,953.83428461,953.280687074,957.209683176,958.215575863,954.842714667,957.201352618
1,193,1,1,1.0,1.0,0.424701103475,0,0.0,0.0,0.0,0.336919054634,0.123439671553,0.213479383081,0.460358726187,0.123439671553,0.372057885514,257,0.470472903111,0.261039853404,0.655841377839,nan,nan,nan,nan,nan,nan,nan,nan,739.948431791,958.359894947,nan,958.784596051,nan,nan,nan,nan
1,194,1,1,1.0,1.0,0.250889505201,0,0.0,0.0,0.0,0.337388477355,0.123275528289,0.214112949066,0.460664005645,0.123275528289,0.310134828479,474,0.530901762182,0.346545376391,-1.0,nan,nan,nan,nan,nan,nan,nan,nan,739.948431791,959.30168852,nan,959.552578026,nan,nan,nan,nan
1,195,0,0,1.0,0.0,0.277084008092,0,0.0,0.0,0.0,0.336928376439,0.123108115487,0.213820260953,0.460036491926,0.123108115487,0.317558205589,302,0.027086081288,0.400300843718,0.517770016443,nan,nan,nan,nan,nan,nan,nan,nan,739.948431791,960.243481808,nan,960.520565817,nan,nan,nan,nan
1,196,1,1,1.0,1.0,0.311270087957,0,0.0,0.0,0.0,0.33661173957,0.122858733392,0.213753006178,0.459470472962,0.122858733392,0.279747867084,94,1.0,-0.249439013202,-0.526745155233,nan,nan,nan,nan,nan,nan,nan,nan,739.948431791,961.185269395,nan,961.496539483,nan,nan,nan,nan
1,197,1,1,1.0,1.0,0.417470452434,0,0.0,0.0,0.0,0.336478362456,0.122548713007,0.213929649449,0.459027075464,0.122548713007,0.335274849494,473,0.522594813828,0.349396171415,-1.0,nan,nan,nan,nan,nan,nan,nan,nan,739.948431791,962.127058121,nan,962.544528574,nan,nan,nan,nan
1,198,1,1,1.0,1.0,0.283683737565,0,0.0,0.0,0.0,0.336902404812,0.122367160925,0.214535243887,0.459269565737,0.122367160925,0.337474759319,338,-0.162891363375,0.458928707883,0.250399161362,nan,nan,nan,nan,nan,nan,nan,nan,739.948431791,963.068839435,nan,963.352523173,nan,nan,nan,nan
1,199,1,1,1.0,1.0,0.349869482219,0,0.0,0.0,0.0,0.336625224253,0.122108182723,0.21451704153,0.458733406977,0.122108182723,0.350341224073,140,1.0,-0.294209249228,-0.0345777392028,nan,nan,nan,nan,nan,nan,nan,nan,739.948431791,964.010632438,nan,964.36050192,nan,nan,nan,nan
1,200,1,1,1.0,1.0,0.31205980893,0,0.0,0.0,0.0,0.336693847352,0.12179514128,0.214898706072,0.458488988631,0.12179514128,0.315204342905,81,1.0,-0.193804253699,-0.694219169772,nan,nan,nan,nan,nan,nan,nan,nan,739.948431791,964.952420309,nan,965.264480118,nan,nan,nan,nan
1,201,1,1,1.0,1.0,0.258257003152,0,0.0,0.0,0.0,0.336566867772,0.121493638216,0.215073229556,0.458060505988,0.121493638216,0.306728764767,487,0.639529740128,0.306295026098,-1.0,nan,nan,nan,nan,nan,nan,nan,nan,739.948431791,965.894207896,nan,966.152464899,nan,nan,nan,nan
1,202,1,1,1.0,1.0,0.212454897526,0,0.0,0.0,0.0,0.336165278723,0.121310738678,0.214854540045,0.457476017401,0.121310738678,0.260923903203,295,0.0860222946478,0.38372732295,0.554986075565,nan,nan,nan,nan,nan,nan,nan,nan,739.948431791,966.835997192,nan,967.04845209,nan,nan,nan,nan
1,203,1,1,1.0,1.0,0.20664089761,0,0.0,0.0,0.0,0.335534103309,0.121321460377,0.214212642932,0.456855563685,0.121321460377,0.225784266096,42,1.0,0.00954878589686,-1.0,nan,nan,nan,nan,nan,nan,nan,nan,739.948431791,967.777781357,nan,967.984422255,nan,nan,nan,nan
1,204,1,1,1.0,1.0,0.224874899082,0,0.0,0.0,0.0,0.334879823077,0.121359324858,0.213520498219,0.456239147934,0.121359324858,0.214656898073,356,-0.17284377641,0.473239407326,0.0788368070227,nan,nan,nan,nan,nan,nan,nan,nan,739.948431791,968.71954414,nan,968.944419039,nan,nan,nan,nan
1,205,1,1,1.0,1.0,0.291037550836,0,0.0,0.0,0.0,0.334324242652,0.121303377411,0.213020865241,0.455627620063,0.121303377411,0.240851115843,226,0.801265930663,0.120208988367,0.60458276857,nan,nan,nan,nan,nan,nan,nan,nan,739.948431791,969.661367648,nan,969.952405199,nan,nan,nan,nan
1,206,1,1,1.0,1.0,0.253233864612,0,0.0,0.0,0.0,0.334106721588,0.12103691819,0.213069803398,0.455143639778,0.12103691819,0.256382104844,458,0.399688045963,0.388050214986,-1.0,nan,nan,nan,nan,nan,nan,nan,nan,739.948431791,970.603152954,nan,970.856386818,nan,nan,nan,nan
1,207,1,1,1.0,1.0,0.359426246316,0,0.0,0.0,0.0,0.333702357303,0.120868624844,0.212833732459,0.454570982147,0.120868624844,0.301232553921,21,1.0,0.116713997928,-1.0,nan,nan,nan,nan,nan,nan,nan,nan,739.948431791,971.544938259,nan,971.904364506,nan,nan,nan,nan
1,208,1,1,1.0,1.0,0.305618878978,0,0.0,0.0,0.0,0.33383033685,0.120581165676,0.213249171174,0.454411502526,0.120581165676,0.306092996635,455,0.375608248681,0.394875365091,-1.0,nan,nan,nan,nan,nan,nan,nan,nan,739.948431791,972.486728981,nan,972.79234786,nan,nan,nan,nan
1,209,1,1,1.0,1.0,0.211813997594,0,0.0,0.0,0.0,0.333690676168,0.120298623215,0.213392052953,0.453989299383,0.120298623215,0.292286374296,365,-0.157962026257,0.477016591838,-0.0139196855225,nan,nan,nan,nan,nan,nan,nan,nan,739.948431791,973.428521984,nan,973.640335982,nan,nan,nan,nan
1,210,1,1,1.0,1.0,0.254009615746,0,0.0,0.0,0.0,0.333090298441,0.120304949546,0.212785348894,0.453395247987,0.120304949546,0.257147497439,216,0.900975005756,0.0682271079607,0.563426584804,nan,nan,nan,nan,nan,nan,nan,nan,739.948431791,974.370300162,nan,974.624309778,nan,nan,nan,nan
1,211,1,1,1.0,1.0,0.216197376663,0,0.0,0.0,0.0,0.332702648036,0.12013675048,0.212565897555,0.452839398516,0.12013675048,0.227340330001,151,1.0,-0.262720288689,0.0734626651272,nan,nan,nan,nan,nan,nan,nan,nan,739.948431791,975.312098297,nan,975.528295674,nan,nan,nan,nan
1,212,1,1,1.0,1.0,0.322397741082,0,0.0,0.0,0.0,0.332134329639,0.120117957972,0.212016371666,0.452252287611,0.120117957972,0.26420157783,90,1.0,-0.233635786423,-0.574971871003,nan,nan,nan,nan,nan,nan,nan,nan,739.948431791,976.253888164,nan,976.576285905,nan,nan,nan,nan
1,213,1,1,1.0,1.0,0.308593304537,0,0.0,0.0,0.0,0.332087064646,0.119827965794,0.212259098852,0.451915030439,0.119827965794,0.282396140761,259,0.44882283482,0.268906983076,0.655011783756,nan,nan,nan,nan,nan,nan,nan,nan,739.948431791,977.195671474,nan,977.504264778,nan,nan,nan,nan
1,214,1,1,1.0,1.0,0.278786327166,0,0.0,0.0,0.0,0.33197356822,0.11954927462,0.2124242936,0.45152284284,0.11954927462,0.303259124261,472,0.51429864939,0.352212277195,-1.0,nan,nan,nan,nan,nan,nan,nan,nan,739.948431791,978.137457349,nan,978.416243677,nan,nan,nan,nan
1,215,1,1,1.0,1.0,0.336975077866,0,0.0,0.0,0.0,0.33171786033,0.119318281896,0.212399578434,0.451036142227,0.119318281896,0.308118236523,187,1.0,-0.0912463489427,0.385383214542,nan,nan,nan,nan,nan,nan,nan,nan,739.948431791,979.079249212,nan,979.41622429,nan,nan,nan,nan
1,216,1,1,1.0,1.0,0.403156546061,0,0.0,0.0,0.0,0.331743014481,0.119033042017,0.212709972464,0.450776056498,0.119033042017,0.339639317031,231,0.749609680972,0.145151270079,0.620821461523,nan,nan,nan,nan,nan,nan,nan,nan,739.948431791,980.021037653,nan,980.424194199,nan,nan,nan,nan
1,217,1,1,1.0,1.0,0.43735545536,0,0.0,0.0,0.0,0.332083078917,0.118851015411,0.213232063506,0.450934094328,0.118851015411,0.392495693096,372,-0.138660017671,0.478458869494,-0.0888123791441,nan,nan,nan,nan,nan,nan,nan,nan,739.948431791,980.962828091,nan,981.400183546,nan,nan,nan,nan
1,218,1,1,1.0,1.0,0.319558166782,0,0.0,0.0,0.0,0.332582000133,0.118789274615,0.213792725518,0.451371274747,0.118789274615,0.386690056068,29,1.0,0.0770173926463,-1.0,nan,nan,nan,nan,nan,nan,nan,nan,739.948431791,981.904621379,nan,982.224179545,nan,nan,nan,nan
1,219,0,0,1.0,0.0,0.281760467682,0,0.0,0.0,0.0,0.332520566956,0.118512139778,0.214008427179,0.451032706734,0.118512139778,0.346224696608,277,0.258470646878,0.33263615818,0.624824240443,nan,nan,nan,nan,nan,nan,nan,nan,739.948431791,982.846408395,nan,983.128168862,nan,nan,nan,nan
1,220,1,1,1.0,1.0,0.315956526028,0,0.0,0.0,0.0,0.332282256631,0.118284519587,0.213997737044,0.450566776219,0.118284519587,0.305758386831,328,-0.132159558243,0.44685796506,0.336046158271,nan,nan,nan,nan,nan,nan,nan,nan,739.948431791,983.788187998,nan,984.104144524,nan,nan,nan,nan
1,221,1,1,1.0,1.0,0.270152994897,0,0.0,0.0,0.0,0.33220596817,0.118013082541,0.214192885629,0.450219050712,0.118013082541,0.289289996203,463,0.440238315199,0.376011795327,-1.0,nan,nan,nan,nan,nan,nan,nan,nan,739.948431791,984.729984137,nan,985.000137132,nan,nan,nan,nan
1,222,0,0,1.0,0.0,0.256343996734,0,0.0,0.0,0.0,0.33191734969,0.117813992519,0.214103357171,0.449731342209,0.117813992519,0.28081783922,406,0.0244967455079,0.467245700284,-0.489366101921,nan,nan,nan,nan,nan,nan,nan,nan,739.948431791,985.671772864,nan,985.92811686,nan,nan,nan,nan
1,223,1,1,1.0,1.0,0.282525099989,0,0.0,0.0,0.0,0.331567473056,0.117652861746,0.21391461131,0.449220334803,0.117652861746,0.26967403054,95,1.0,-0.253175017597,-0.514975443931,nan,nan,nan,nan,nan,nan,nan,nan,739.948431791,986.613562446,nan,986.896087546,nan,nan,nan,nan
1,224,0,0,1.0,0.0,0.276729346369,0,0.0,0.0,0.0,0.331341471337,0.117428444339,0.213913026998,0.448769915676,0.117428444339,0.271866147697,371,-0.14179360683,0.478331938097,-0.0779732583494,nan,nan,nan,nan,nan,nan,nan,nan,739.948431791,987.555350887,nan,987.832080233,nan,nan,nan,nan
1,225,1,1,1.0,1.0,0.478918441513,0,0.0,0.0,0.0,0.331090957002,0.117216908306,0.213874048696,0.448307865308,0.117216908306,0.34605762929,245,0.600577697281,0.210610106048,0.650172825369,nan,nan,nan,nan,nan,nan,nan,nan,739.948431791,988.497138188,nan,988.97605663,nan,nan,nan,nan
1,226,1,1,1.0,1.0,0.425111074117,0,0.0,0.0,0.0,0.331765968347,0.117372885934,0.214393082413,0.449138854281,0.117372885934,0.393586287333,153,1.0,-0.255547855702,0.0926213922694,nan,nan,nan,nan,nan,nan,nan,nan,739.948431791,989.438931761,nan,989.864042835,nan,nan,nan,nan
1,227,1,1,1.0,1.0,0.499302935845,0,0.0,1.0,0.0,0.332190264282,0.117274039327,0.214916224956,0.449464303609,0.117274039327,0.467777483825,410,0.0492046846968,0.463921527344,-0.54316189137,nan,nan,nan,nan,nan,nan,nan,nan,739.948431791,990.380716782,nan,990.880019717,nan,nan,nan,nan
1,228,1,1,1.0,1.0,0.613488890289,1,0.0,0.0,1.0,0.332946430217,0.117544722327,0.21540170789,0.450491152544,0.117544722327,0.512634300084,136,1.0,-0.301914900238,-0.074841205769,14.4524282511,75.5475717489,-20.0774282511,107.0,1.0,-0.290089771429,-0.379592780214,3.20904626796,739.948431791,991.322512636,992.130919486,991.936001526,996.37309184,997.370902004,993.147683523,996.364759571
1,229,1,1,1.0,1.0,0.588920585404,0,0.0,0.0,0.0,0.334210134992,0.118774786795,0.21562842962,0.455076239022,0.118774786795,0.567237470512,408,0.036737934283,0.465637664749,-0.515938449969,nan,nan,nan,nan,nan,nan,nan,nan,739.948431791,997.514975048,nan,998.103895634,nan,nan,nan,nan
1,230,0,0,nan,nan,nan,0,0.0,0.0,0.0,0.335352334321,0.119723904701,0.21562842962,0.455076239022,0.119723904701,0.601204737846,5,0.88714030954,0.190659852496,-1.0,nan,nan,nan,nan,nan,nan,nan,nan,739.948431791,998.456762634,nan,nan,nan,nan,nan,nan
1,231,1,1,1.0,1.0,0.521308781463,0,0.0,0.0,0.0,0.335352334321,0.119723904701,0.21562842962,0.455076239022,0.119723904701,0.555114683433,305,0.00361192545304,0.406859252708,0.500196907155,nan,nan,nan,nan,nan,nan,nan,nan,739.948431791,999.398550221,nan,999.919859002,nan,nan,nan,nan
1,232,1,1,1.0,1.0,0.307505371224,0,0.0,0.0,0.0,0.336182497032,0.120097910293,0.216084586739,0.456280407325,0.120097910293,0.414407076343,49,1.0,-0.027785429985,-1.0,nan,nan,nan,nan,nan,nan,nan,nan,739.948431791,1000.34034037,nan,1000.64784574,nan,nan,nan,nan
1,233,1,1,1.0,1.0,0.181700540066,0,0.0,0.0,0.0,0.336055043139,0.119845910833,0.216209132307,0.455900953972,0.119845910833,0.336838230918,193,1.0,-0.0580453890011,0.428658791268,nan,nan,nan,nan,nan,nan,nan,nan,739.948431791,1001.28213024,nan,1001.46383078,nan,nan,nan,nan
1,234,1,1,1.0,1.0,0.151902685873,0,1.0,0.0,0.0,0.335372058612,0.120018516605,0.215353542008,0.455390575217,0.120018516605,0.213702865721,380,-0.109519508899,0.478533032186,-0.177177385375,nan,nan,nan,nan,nan,nan,nan,nan,739.948431791,1002.22391697,nan,1002.37581966,nan,nan,nan,nan
1,235,1,1,1.0,1.0,0.074074971606,1,0.0,0.0,1.0,0.33456382349,0.120368691,0.21419513249,0.45493251449,0.120368691,0.135892732515,273,0.299732959835,0.319577193062,0.635038033336,-85.4031924703,175.40319247,-16.5499325297,249.0,0.557275547736,0.228026269286,0.654084877906,2.91733075457,739.948431791,1003.16572736,1003.9742015,1003.23980234,1007.93292218,1008.93034461,1004.99921883,1007.92459305
1,236,1,1,1.0,1.0,0.55689754273,0,0.0,0.0,0.0,0.333421328526,0.121331682149,0.212089646377,0.454753010675,0.121331682149,0.26095840007,35,1.0,0.0462653595507,-1.0,nan,nan,nan,nan,nan,nan,nan,nan,739.948431791,1009.07480226,nan,1009.6316998,nan,nan,nan,nan
1,237,1,1,1.0,1.0,0.343080732855,0,0.0,0.0,0.0,0.33439720719,0.121959931674,0.212437275516,0.456357138864,0.121959931674,0.32468441573,234,0.71814774995,0.15974031316,0.62913160129,nan,nan,nan,nan,nan,nan,nan,nan,739.948431791,1010.01659754,nan,1010.35967827,nan,nan,nan,nan
1,238,1,1,1.0,1.0,0.24128484464,0,0.0,0.0,0.0,0.33443496165,0.121695853697,0.212739107952,0.456130815347,0.121695853697,0.380421040075,384,-0.0924750057551,0.477945316949,-0.222479273925,nan,nan,nan,nan,nan,nan,nan,nan,739.948431791,1010.9583837,nan,1011.19966855,nan,nan,nan,nan
1,239,1,1,1.0,1.0,0.211447361798,0,0.0,0.0,0.0,0.33403171439,0.12158605467,0.21244565972,0.45561776906,0.12158605467,0.265270979765,227,0.791019951953,0.125257787881,0.608066708266,nan,nan,nan,nan,nan,nan,nan,nan,739.948431791,1011.90019039,nan,1012.11163775,nan,nan,nan,nan
1,240,1,1,1.0,1.0,0.133666118549,0,1.0,0.0,0.0,0.33350333356,0.1215892272,0.21191410636,0.45509256076,0.1215892272,0.195466108329,111,1.0,-0.298677811705,-0.336106236365,nan,nan,nan,nan,nan,nan,nan,nan,739.948431791,1012.841964,nan,1012.97563012,nan,nan,nan,nan
1,241,1,1,1.0,1.0,0.0878950885963,1,0.0,0.0,1.0,0.332645663109,0.122029294269,0.21061636884,0.454674957378,0.122029294269,0.144336189648,249,0.557275547736,0.228026269286,0.654084877906,-99.239901821,189.239901821,14.161776821,269.0,0.34171296506,0.305888347675,0.643262349404,2.02555673901,739.948431791,1013.78374674,1014.5921516,1013.87164183,1017.65085182,1018.64897701,1015.60892476,1017.64252468
1,242,1,1,1.0,1.0,0.41482559999,0,0.0,0.0,0.0,0.331599720483,0.12281047323,0.208789247253,0.454410193713,0.12281047323,0.212128935712,396,-0.0330153705648,0.473684876347,-0.363523780775,nan,nan,nan,nan,nan,nan,nan,nan,739.948431791,1018.79269796,nan,1019.20752356,nan,nan,nan,nan
1,243,1,1,1.0,1.0,0.280993839609,0,0.0,0.0,0.0,0.331953873162,0.122668582371,0.20928529079,0.454622455533,0.122668582371,0.261238176065,120,1.0,-0.310161497659,-0.240162905937,nan,nan,nan,nan,nan,nan,nan,nan,739.948431791,1019.73450978,nan,1020.01550362,nan,nan,nan,nan
1,244,1,1,1.0,1.0,0.283181395207,0,0.0,0.0,0.0,0.331737940816,0.12245316434,0.209284776476,0.454191105157,0.12245316434,0.326333611602,433,0.206536295144,0.436163724167,-1.0,nan,nan,nan,nan,nan,nan,nan,nan,739.948431791,1020.67631077,nan,1020.95949216,nan,nan,nan,nan
1,245,1,1,1.0,1.0,0.109354401648,0,0.0,0.0,0.0,0.331533060877,0.122235079417,0.20929798146,0.453768140294,0.122235079417,0.224509878821,314,-0.0594438881467,0.42463230952,0.441925406839,nan,nan,nan,nan,nan,nan,nan,nan,739.948431791,1021.61811745,nan,1021.72747186,nan,nan,nan,nan
1,246,1,1,1.0,1.0,0.191577184014,0,1.0,0.0,0.0,0.330599537099,0.12282171299,0.207777824109,0.453421250089,0.12282171299,0.194704326956,444,0.289241202529,0.417409780569,-1.0,nan,nan,nan,nan,nan,nan,nan,nan,739.948431791,1022.55988822,nan,1022.7514654,nan,nan,nan,nan
1,247,1,1,1.0,1.0,0.113787387731,1,0.0,0.0,1.0,0.330017853613,0.122892570783,0.205692180048,0.452541606629,0.122892570783,0.138239657797,485,0.622774561467,0.312875618285,-1.0,125.901770854,324.098229146,-16.9173958545,461.0,0.423959648591,0.380927367285,-1.0,1.56718529761,739.948431791,1023.50167381,1024.3100952,1023.6154612,1026.91040801,1027.91520022,1025.32685182,1026.90207574
1,248,1,1,nan,nan,nan,0,0.0,0.0,0.0,0.329116893339,0.123424713291,0.205692180048,0.452541606629,0.123424713291,0.152682285872,116,1.0,-0.306446923025,-0.282515442494,nan,nan,nan,nan,nan,nan,nan,nan,739.948431791,1028.06062263,nan,nan,nan,nan,nan,nan
1,249,1,1,1.0,1.0,0.476923612005,0,0.0,0.0,0.0,0.329116893339,0.123424713291,0.205692180048,0.452541606629,0.123424713291,0.295355499868,244,0.611372359265,0.206163547436,0.648880721676,nan,nan,nan,nan,nan,nan,nan,nan,739.948431791,1029.00239055,nan,1029.47931416,nan,nan,nan,nan
1,250,1,1,1.0,1.0,0.295160350448,0,0.0,0.0,0.0,0.329730199225,0.123534303862,0.206195895363,0.453264503087,0.123534303862,0.386041981226,472,0.51429864939,0.352212277195,-1.0,nan,nan,nan,nan,nan,nan,nan,nan,739.948431791,1029.94417642,nan,1030.23933677,nan,nan,nan,nan
1,251,0,0,1.0,0.0,0.249348836602,0,0.0,0.0,0.0,0.32958734861,0.123298748187,0.206105190249,0.452409107696,0.123298748187,0.340477599685,305,0.00361192545304,0.406859252708,0.500196907155,nan,nan,nan,nan,nan,nan,nan,nan,739.948431791,1030.88596971,nan,1031.13531855,nan,nan,nan,nan
1,252,1,1,nan,nan,nan,0,0.0,0.0,0.0,0.329257148972,0.123151958723,0.206105190249,0.452409107696,0.123151958723,0.272254593525,457,0.391639248186,0.390358177281,-1.0,nan,nan,nan,nan,nan,nan,nan,nan,739.948431791,1031.82774504,nan,nan,nan,nan,nan,nan
1,253,1,1,1.0,1.0,0.11773969885,0,0.0,0.0,0.0,0.329257148972,0.123151958723,0.206105190249,0.452409107696,0.123151958723,0.183544267726,381,-0.105403061426,0.478425078289,-0.188431136224,nan,nan,nan,nan,nan,nan,nan,nan,739.948431791,1032.76955001,nan,1032.88728971,nan,nan,nan,nan
1,254,1,1,1.0,1.0,0.031957470288,0,0.0,0.0,0.0,0.328390274177,0.123640022705,0.204750251472,0.452030296882,0.123640022705,0.0748485845688,189,1.0,-0.0802194643608,0.400143472992,nan,nan,nan,nan,nan,nan,nan,nan,739.948431791,1033.71133133,nan,1033.7432888,nan,nan,nan,nan
1,255,1,1,1.0,1.0,0.202078477188,0,1.0,0.0,0.0,0.327180344365,0.124826514986,0.202353829379,0.452006859351,0.124826514986,0.117258548775,138,1.0,-0.29832987918,-0.0546508148191,nan,nan,nan,nan,nan,nan,nan,nan,739.948431791,1034.65316624,nan,1034.85524472,nan,nan,nan,nan
1,256,0,0,0.0,1.0,0.484277140116,1,0.0,0.0,1.0,0.32667180019,0.124826599632,0.201845200558,0.451498399821,0.124826599632,0.239437695864,21,1.0,0.116713997928,-1.0,66.1790516948,23.8209483052,9.05532330521,34.0,1.0,0.0514419701458,-1.0,1.72545307747,739.948431791,1035.59492902,1036.40332475,1036.07920616,1039.15365091,1040.16099332,1037.41175053,1039.14531835
1,257,1,1,1.0,1.0,0.471289793961,0,0.0,0.0,0.0,0.327309878489,0.12497501212,0.202334866369,0.452284890609,0.12497501212,0.385881803755,447,0.312467642152,0.411646472288,-1.0,nan,nan,nan,nan,nan,nan,nan,nan,739.948431791,1040.3038527,nan,1040.77514249,nan,nan,nan,nan
1,258,1,1,1.0,1.0,0.401482451649,0,0.0,0.0,0.0,0.327890442664,0.125056096753,0.202834345911,0.452946539417,0.125056096753,0.452349795242,86,1.0,-0.21659106269,-0.625617802914,nan,nan,nan,nan,nan,nan,nan,nan,739.948431791,1041.24564171,nan,1041.64712416,nan,nan,nan,nan
1,259,1,1,1.0,1.0,0.355678920518,0,0.0,0.0,0.0,0.328185992901,0.124891484026,0.203294508875,0.453077476927,0.124891484026,0.409483722042,246,0.589768841079,0.215019897151,0.651339528662,nan,nan,nan,nan,nan,nan,nan,nan,739.948431791,1042.18743186,nan,1042.54311078,nan,nan,nan,nan
1,260,1,1,1.0,1.0,0.277826972946,0,0.0,0.0,0.0,0.328295964611,0.124653530241,0.20364243437,0.452949494853,0.124653530241,0.344996115038,464,0.448404880525,0.373503555275,-1.0,nan,nan,nan,nan,nan,nan,nan,nan,739.948431791,1043.12925537,nan,1043.40708234,nan,nan,nan,nan
1,261,1,1,1.0,1.0,0.176069573034,0,0.0,0.0,0.0,0.328094892932,0.124445585184,0.203649307747,0.452540478116,0.124445585184,0.269858488832,98,1.0,-0.263822910468,-0.480217789416,nan,nan,nan,nan,nan,nan,nan,nan,739.948431791,1044.07101017,nan,1044.24707974,nan,nan,nan,nan
1,262,1,1,1.0,1.0,0.162262855622,0,0.0,0.0,0.0,0.327491617853,0.12456563589,0.202925981963,0.452057253742,0.12456563589,0.2053864672,282,0.208142307666,0.34807905204,0.609295500931,nan,nan,nan,nan,nan,nan,nan,nan,739.948431791,1045.01279719,nan,1045.17506004,nan,nan,nan,nan
1,263,1,1,1.0,1.0,0.236447589879,0,1.0,0.0,0.0,0.326838539741,0.124750743469,0.202087796272,0.45158928321,0.124750743469,0.191593339512,443,0.281558783006,0.419268214519,-1.0,nan,nan,nan,nan,nan,nan,nan,nan,739.948431791,1045.95458677,nan,1046.19103436,nan,nan,nan,nan
1,264,0,0,1.0,0.0,0.198643333511,0,0.0,0.0,0.0,0.32648266986,0.124633535246,0.201849134614,0.451116205106,0.124633535246,0.199117926337,394,-0.0437090198531,0.474655926729,-0.339401417396,nan,nan,nan,nan,nan,nan,nan,nan,739.948431791,1046.89637977,nan,1047.0950231,nan,nan,nan,nan
1,265,1,1,1.0,1.0,0.336841937213,0,0.0,0.0,0.0,0.325981339129,0.124645259862,0.201336079267,0.450626598991,0.124645259862,0.257310953535,168,1.0,-0.190790017254,0.230361799274,nan,nan,nan,nan,nan,nan,nan,nan,739.948431791,1047.8381665,nan,1048.17500844,nan,nan,nan,nan
1,266,1,1,1.0,1.0,0.243033349572,0,0.0,0.0,0.0,0.32602376334,0.124403418509,0.201620344831,0.450427181849,0.124403418509,0.259506206765,434,0.213881816697,0.43461034373,-1.0,nan,nan,nan,nan,nan,nan,nan,nan,739.948431791,1048.77995494,nan,1049.02298829,nan,nan,nan,nan
1,267,1,1,1.0,1.0,0.237231038685,0,0.0,0.0,0.0,0.325700843442,0.124268607449,0.201432235993,0.449969450891,0.124268607449,0.272368775157,192,1.0,-0.0635997558896,0.421658406928,nan,nan,nan,nan,nan,nan,nan,nan,739.948431791,1049.72174196,nan,1049.958973,nan,nan,nan,nan
1,268,1,1,1.0,1.0,0.175428958202,0,0.0,0.0,0.0,0.325357937222,0.124149308028,0.201208629194,0.44950724525,0.124149308028,0.21856444882,387,-0.0787219327085,0.477231755363,-0.256974454483,nan,nan,nan,nan,nan,nan,nan,nan,739.948431791,1050.6635284,nan,1050.83895736,nan,nan,nan,nan
1,269,1,1,1.0,1.0,0.0255983633106,0,1.0,0.0,0.0,0.324779060855,0.124257780764,0.200521280091,0.449036841619,0.124257780764,0.146086120066,180,1.0,-0.129278616986,0.331238955499,nan,nan,nan,nan,nan,nan,nan,nan,739.948431791,1051.60532226,nan,1051.63092063,nan,nan,nan,nan
1,270,1,1,1.0,1.0,0.00380377518013,1,0.0,0.0,1.0,0.323628365865,0.125393592783,0.198234773082,0.449021958648,0.125393592783,0.068277032231,37,1.0,0.0358565504353,-1.0,59.0362434679,30.9637565321,4.94813153207,44.0,1.0,-0.00106984144607,-1.0,3.09236171615,739.948431791,1052.54711384,1053.35553324,1052.55091762,1057.48102702,1058.49067359,1054.37230811,1057.47272925
1,271,1,1,1.0,1.0,0.359586756385,0,0.0,0.0,0.0,0.322402984291,0.12670325652,0.195699727771,0.449106240811,0.12670325652,0.129662964959,133,1.0,-0.306259573676,-0.105336427414,nan,nan,nan,nan,nan,nan,nan,nan,739.948431791,1058.63123081,nan,1058.99081757,nan,nan,nan,nan
1,272,0,0,1.0,0.0,0.2017828307,0,0.0,0.0,0.0,0.322544907086,0.126482008892,0.196062898194,0.449026915977,0.126482008892,0.188391120755,392,-0.0541067903503,0.475522277549,-0.315549842675,nan,nan,nan,nan,nan,nan,nan,nan,739.948431791,1059.57301868,nan,1059.77480151,nan,nan,nan,nan
1,273,1,1,1.0,1.0,0.195979949669,0,0.0,0.0,0.0,0.322085735692,0.126459916474,0.195625819219,0.448545652166,0.126459916474,0.252449845585,209,0.967301840512,0.0304835193525,0.52804999659,nan,nan,nan,nan,nan,nan,nan,nan,739.948431791,1060.51481169,nan,1060.71079164,nan,nan,nan,nan
1,274,1,1,1.0,1.0,0.350161992596,0,0.0,0.0,0.0,0.321608062261,0.126457674778,0.195150387483,0.448065737038,0.126457674778,0.249308257655,370,-0.144805996584,0.478178727438,-0.0671803333712,nan,nan,nan,nan,nan,nan,nan,nan,739.948431791,1061.45659756,nan,1061.80675956,nan,nan,nan,nan
1,275,1,1,1.0,1.0,0.176365504507,0,0.0,0.0,0.0,0.321715812941,0.126230991275,0.195484821666,0.447946804216,0.126230991275,0.24083581559,298,0.0600896634305,0.391050340636,0.53969689008,nan,nan,nan,nan,nan,nan,nan,nan,739.948431791,1062.398386,nan,1062.57475151,nan,nan,nan,nan
1,276,1,1,1.0,1.0,0.482553723792,0,0.0,0.0,0.0,0.32116938321,0.126307106125,0.194862277085,0.447476489335,0.126307106125,0.336360406965,132,1.0,-0.307426825298,-0.115555361894,nan,nan,nan,nan,nan,nan,nan,nan,739.948431791,1063.34017701,nan,1063.82273074,nan,nan,nan,nan
1,277,1,1,1.0,1.0,0.652735456591,0,0.0,0.0,0.0,0.321773818943,0.126455190866,0.195318628077,0.448229009808,0.126455190866,0.437218228297,503,0.773020196022,0.248538461814,-1.0,nan,nan,nan,nan,nan,nan,nan,nan,739.948431791,1064.28196203,nan,1064.93469749,nan,nan,nan,nan
1,278,1,1,1.0,1.0,0.734936001245,0,0.0,1.0,0.0,0.323008750426,0.12782189794,0.195186852486,0.450830648366,0.12782189794,0.623408393876,342,-0.170052622031,0.462913557708,0.21407524247,nan,nan,nan,nan,nan,nan,nan,nan,739.948431791,1065.22375361,nan,1065.95868961,nan,nan,nan,nan
1,279,1,1,1.0,1.0,0.713107771589,1,0.0,0.0,1.0,0.324540078496,0.130023654398,0.194516424098,0.454563732895,0.130023654398,0.700259743142,55,1.0,-0.0599996532909,-1.0,76.6908213046,13.3091786954,-25.3626963046,19.0,0.99625917486,0.126374530333,-1.0,5.3509859253,739.948431791,1066.16553977,1066.97395517,1066.87864754,1073.35807374,1074.35559995,1067.99071779,1073.34974204
1,280,1,1,1.0,1.0,0.442581868672,0,0.0,0.0,0.0,0.3259792181,0.131911589193,0.194067628908,0.457890807293,0.131911589193,0.630208547169,237,0.686387300223,0.174031846447,0.636349816437,nan,nan,nan,nan,nan,nan,nan,nan,739.948431791,1074.49995467,nan,1074.94253654,nan,nan,nan,nan
1,281,1,1,1.0,1.0,0.30076138227,0,0.0,0.0,0.0,0.326409486184,0.131857663892,0.194551822292,0.458267150075,0.131857663892,0.485483674177,333,-0.149813480994,0.453275949072,0.294183738108,nan,nan,nan,nan,nan,nan,nan,nan,739.948431791,1075.44174682,nan,1075.7425082,nan,nan,nan,nan
1,282,1,1,1.0,1.0,0.254974671931,0,0.0,0.0,0.0,0.326315191684,0.131624208877,0.194690982807,0.457939400561,0.131624208877,0.332772640958,450,0.335949728395,0.405598329481,-1.0,nan,nan,nan,nan,nan,nan,nan,nan,739.948431791,1076.38353269,nan,1076.63850736,nan,nan,nan,nan
1,283,1,1,1.0,1.0,0.201158751559,0,0.0,0.0,0.0,0.326053871099,0.131453586979,0.19460028412,0.457507458078,0.131453586979,0.252298268587,88,1.0,-0.225257592204,-0.599932847766,nan,nan,nan,nan,nan,nan,nan,nan,739.948431791,1077.32532855,nan,1077.5264873,nan,nan,nan,nan
1,284,1,1,1.0,1.0,0.0354268256924,0,1.0,0.0,0.0,0.325598049495,0.131429455566,0.194168593928,0.457027505061,0.131429455566,0.163853416394,176,1.0,-0.150429669724,0.298675466069,nan,nan,nan,nan,nan,nan,nan,nan,739.948431791,1078.26710416,nan,1078.30253098,nan,nan,nan,nan
1,285,1,1,1.0,1.0,0.18155257433,1,0.0,0.0,1.0,0.324542881408,0.132347853646,0.192195027762,0.456890735054,0.132347853646,0.13937938386,90,1.0,-0.233635786423,-0.574971871003,22.1663458221,67.8336541779,4.55240417792,96.0,1.0,-0.25681952169,-0.503302481145,1.25053740939,739.948431791,1079.20890429,1080.01731684,1079.39045686,1082.30094556,1083.30984688,1081.03407632,1082.29257223
1,286,1,1,1.0,1.0,0.379298990068,0,0.0,0.0,0.0,0.324024800585,0.132386943805,0.19163785678,0.456411744391,0.132386943805,0.198759463363,11,0.934659501434,0.163852895862,-1.0,nan,nan,nan,nan,nan,nan,nan,nan,739.948431791,1083.45107978,nan,1083.83037877,nan,nan,nan,nan
1,287,1,1,1.0,1.0,0.205448048364,0,0.0,0.0,0.0,0.324224346396,0.132189337516,0.19203500888,0.456413683912,0.132189337516,0.255433204254,395,-0.0383984177995,0.474183508328,-0.351427224487,nan,nan,nan,nan,nan,nan,nan,nan,739.948431791,1084.39290414,nan,1084.59835219,nan,nan,nan,nan
1,288,1,1,1.0,1.0,0.247663623304,0,0.0,0.0,0.0,0.323797093525,0.132142838367,0.191654255158,0.455939931892,0.132142838367,0.277470220579,103,1.0,-0.279537473278,-0.423758835275,nan,nan,nan,nan,nan,nan,nan,nan,739.948431791,1085.33469087,nan,1085.5823545,nan,nan,nan,nan
1,289,1,1,1.0,1.0,0.20983256778,0,0.0,0.0,0.0,0.323524213704,0.131984255543,0.191539958161,0.455508469246,0.131984255543,0.220981413149,328,-0.132159558243,0.44685796506,0.336046158271,nan,nan,nan,nan,nan,nan,nan,nan,739.948431791,1086.27650697,nan,1086.48633954,nan,nan,nan,nan
1,290,1,1,1.0,1.0,0.348044571059,0,0.0,0.0,0.0,0.323118172111,0.131922813231,0.19119535888,0.455040985342,0.131922813231,0.268513587381,87,1.0,-0.220959007447,-0.612675615602,nan,nan,nan,nan,nan,nan,nan,nan,739.948431791,1087.21827232,nan,1087.56631689,nan,nan,nan,nan
1,291,1,1,1.0,1.0,0.342242830375,0,0.0,0.0,0.0,0.323206878157,0.131696231088,0.191510647069,0.454903109245,0.131696231088,0.300039989738,136,1.0,-0.301914900238,-0.074841205769,nan,nan,nan,nan,nan,nan,nan,nan,739.948431791,1088.16005563,nan,1088.50229846,nan,nan,nan,nan
1,292,1,1,1.0,1.0,0.368405117129,0,0.0,0.0,0.0,0.323274381534,0.131467389627,0.191806991907,0.454741771161,0.131467389627,0.352897506188,179,1.0,-0.13461441766,0.323204131591,nan,nan,nan,nan,nan,nan,nan,nan,739.948431791,1089.10186289,nan,1089.470268,nan,nan,nan,nan
1,293,1,1,1.0,1.0,0.402614004968,0,0.0,0.0,0.0,0.323433854098,0.131262230527,0.19217162357,0.454696084625,0.131262230527,0.371087317491,89,1.0,-0.229484098413,-0.587370487375,nan,nan,nan,nan,nan,nan,nan,nan,739.948431791,1090.04363707,nan,1090.44625108,nan,nan,nan,nan
1,294,1,1,1.0,1.0,0.316825219081,0,0.0,0.0,0.0,0.323712657446,0.131114846251,0.192597811194,0.454827503697,0.131114846251,0.362614780393,227,0.791019951953,0.125257787881,0.608066708266,nan,nan,nan,nan,nan,nan,nan,nan,739.948431791,1090.98542608,nan,1091.3022513,nan,nan,nan,nan
1,295,1,1,1.0,1.0,0.26300530741,0,0.0,0.0,0.0,0.323688490995,0.130885251687,0.192803239309,0.454573742682,0.130885251687,0.327481510486,285,0.178734351563,0.356878681702,0.598527012995,nan,nan,nan,nan,nan,nan,nan,nan,739.948431791,1091.92722194,nan,1092.19022725,nan,nan,nan,nan
1,296,0,0,1.0,0.0,0.241206442763,0,0.0,0.0,0.0,0.323476312032,0.130705322618,0.192770989413,0.45418163465,0.130705322618,0.273678989751,77,1.0,-0.174593022316,-0.756267193339,nan,nan,nan,nan,nan,nan,nan,nan,739.948431791,1092.86900154,nan,1093.11020798,nan,nan,nan,nan
1,297,1,1,1.0,1.0,0.419392582029,0,0.0,0.0,0.0,0.323189657435,0.130567440455,0.19262221698,0.45375709789,0.130567440455,0.307868110734,148,1.0,-0.272695592461,0.0444264621409,nan,nan,nan,nan,nan,nan,nan,nan,739.948431791,1093.8107934,nan,1094.23018599,nan,nan,nan,nan
1,298,1,1,1.0,1.0,0.317583579279,0,0.0,0.0,0.0,0.323523695368,0.13046335273,0.193060342638,0.453987048098,0.13046335273,0.326060868024,456,0.383612429175,0.392633185378,-1.0,nan,nan,nan,nan,nan,nan,nan,nan,739.948431791,1094.75257671,nan,1095.07016029,nan,nan,nan,nan
1,299,0,0,0.0,1.0,0.543782757712,0,0.0,0.0,0.0,0.323503141333,0.130237909104,0.193265232229,0.453741050437,0.130237909104,0.426919639673,335,-0.155595990888,0.455627721073,0.276893227044,nan,nan,nan,nan,nan,nan,nan,nan,739.948431791,1095.69437029,nan,1096.23815305,nan,nan,nan,nan
1,300,1,1,1.0,1.0,0.27396874415,0,0.0,0.0,0.0,0.324262726217,0.130652851903,0.193609874314,0.45491557812,0.130652851903,0.378445027047,410,0.0492046846968,0.463921527344,-0.54316189137,nan,nan,nan,nan,nan,nan,nan,nan,739.948431791,1096.63616557,nan,1096.91013432,nan,nan,nan,nan
1,301,1,1,1.0,1.0,0.340178151906,0,0.0,0.0,0.0,0.324089894663,0.130461373044,0.193628521619,0.454551267707,0.130461373044,0.385976551256,27,1.0,0.0870912575778,-1.0,nan,nan,nan,nan,nan,nan,nan,nan,739.948431791,1097.57794888,nan,1097.91812703,nan,nan,nan,nan
1,302,1,1,1.0,1.0,0.286378482182,0,0.0,0.0,0.0,0.324144991435,0.130241180043,0.193903811392,0.454386171478,0.130241180043,0.300175126079,310,-0.032854544558,0.417080732083,0.468828018046,nan,nan,nan,nan,nan,nan,nan,nan,739.948431791,1098.51973789,nan,1098.80611637,nan,nan,nan,nan
1,303,1,1,1.0,1.0,0.336567958177,0,0.0,0.0,0.0,0.324016095499,0.130037390464,0.193978705035,0.454053485962,0.130037390464,0.321041530755,102,1.0,-0.276610342793,-0.434926949461,nan,nan,nan,nan,nan,nan,nan,nan,739.948431791,1099.46153033,nan,1099.79809828,nan,nan,nan,nan
1,304,1,1,1.0,1.0,0.282758024929,0,0.0,0.0,0.0,0.324058788909,0.129818107032,0.194240681877,0.453876895941,0.129818107032,0.301901488429,11,0.934659501434,0.163852895862,-1.0,nan,nan,nan,nan,nan,nan,nan,nan,739.948431791,1100.40331563,nan,1100.68607366,nan,nan,nan,nan
1,305,1,1,1.0,1.0,0.244953198358,0,0.0,0.0,0.0,0.323918786319,0.129620120318,0.194298666001,0.453538906637,0.129620120318,0.288093060488,390,-0.0641960347588,0.476284203309,-0.291947553613,nan,nan,nan,nan,nan,nan,nan,nan,739.948431791,1101.34510635,nan,1101.59005955,nan,nan,nan,nan
1,306,1,1,1.0,1.0,0.311157474353,0,0.0,0.0,0.0,0.323652010684,0.129482080277,0.194169930407,0.453134090961,0.129482080277,0.279622899213,113,1.0,-0.302191989669,-0.314576349441,nan,nan,nan,nan,nan,nan,nan,nan,739.948431791,1102.2868928,nan,1102.59805027,nan,nan,nan,nan
1,307,1,1,1.0,1.0,0.297349901695,0,0.0,0.0,0.0,0.323609941538,0.129265939501,0.194344002037,0.45287588104,0.129265939501,0.284486858135,501,0.7564492333,0.256253544744,-1.0,nan,nan,nan,nan,nan,nan,nan,nan,739.948431791,1103.22868295,nan,1103.52603285,nan,nan,nan,nan
1,308,1,1,1.0,1.0,0.259524262976,0,0.0,0.0,0.0,0.323521820599,0.129057803511,0.194464017088,0.45257962411,0.129057803511,0.289343879675,443,0.281558783006,0.419268214519,-1.0,nan,nan,nan,nan,nan,nan,nan,nan,739.948431791,1104.17047025,nan,1104.42999451,nan,nan,nan,nan
1,309,1,1,1.0,1.0,0.245748906338,0,0.0,0.0,0.0,0.323307781945,0.128894776383,0.194413005562,0.452202558328,0.128894776383,0.26754102367,313,-0.0530221528698,0.42279583272,0.448797959603,nan,nan,nan,nan,nan,nan,nan,nan,739.948431791,1105.11224529,nan,1105.3579942,nan,nan,nan,nan
1,310,0,0,1.0,0.0,0.239936617028,0,0.0,0.0,0.0,0.32304925236,0.128757400799,0.19429185156,0.451806653159,0.128757400799,0.248403262114,135,1.0,-0.303502321856,-0.0849788702499,nan,nan,nan,nan,nan,nan,nan,nan,739.948431791,1106.05404913,nan,1106.29398575,nan,nan,nan,nan
1,311,1,1,1.0,1.0,0.49010225886,0,0.0,0.0,0.0,0.322773130648,0.128632279203,0.194140851445,0.451405409851,0.128632279203,0.325262594076,366,-0.155593376329,0.477302029306,-0.0244766492797,nan,nan,nan,nan,nan,nan,nan,nan,739.948431791,1106.99584384,nan,1107.4859461,nan,nan,nan,nan
1,312,1,1,1.0,1.0,0.372333480045,0,0.0,0.0,0.0,0.323327200609,0.128778411824,0.194548788785,0.452105612432,0.128778411824,0.367457451978,56,1.0,-0.0653675053377,-1.0,nan,nan,nan,nan,nan,nan,nan,nan,739.948431791,1107.93761518,nan,1108.30994866,nan,nan,nan,nan
1,313,1,1,1.0,1.0,0.174522062007,0,0.0,0.0,0.0,0.323488937505,0.128596450345,0.194892487159,0.45208538785,0.128596450345,0.345652600304,409,0.0429436170054,0.464793150178,-0.529461854507,nan,nan,nan,nan,nan,nan,nan,nan,739.948431791,1108.8794156,nan,1109.05393766,nan,nan,nan,nan
1,314,1,1,1.0,1.0,0.38469988323,0,0.0,0.0,0.0,0.322998914888,0.128667812122,0.194331102766,0.45166672701,0.128667812122,0.310518475094,173,1.0,-0.165909522591,0.273535192888,nan,nan,nan,nan,nan,nan,nan,nan,739.948431791,1109.82120632,nan,1110.2059062,nan,nan,nan,nan
1,315,1,1,1.0,1.0,0.306900678785,0,0.0,0.0,0.0,0.323201213145,0.128505124142,0.194696089002,0.451706337287,0.128505124142,0.288707541341,422,0.128328379107,0.451313674078,-0.730894888444,nan,nan,nan,nan,nan,nan,nan,nan,739.948431791,1110.76299561,nan,1111.06989629,nan,nan,nan,nan
1,316,1,1,1.0,1.0,0.261089735082,0,0.0,0.0,0.0,0.323147943424,0.128298349612,0.194849593813,0.451446293036,0.128298349612,0.317563432366,245,0.600577697281,0.210610106048,0.650172825369,nan,nan,nan,nan,nan,nan,nan,nan,739.948431791,1111.7047832,nan,1111.96587294,nan,nan,nan,nan
1,317,1,1,1.0,1.0,0.279283537762,0,0.0,0.0,0.0,0.322945799423,0.128138023984,0.194807775439,0.451083823408,0.128138023984,0.282424650543,89,1.0,-0.229484098413,-0.587370487375,nan,nan,nan,nan,nan,nan,nan,nan,739.948431791,1112.64656765,nan,1112.92585119,nan,nan,nan,nan
1,318,1,1,1.0,1.0,0.537490078597,0,0.0,0.0,0.0,0.322804038834,0.127953949115,0.194850089718,0.450757987949,0.127953949115,0.359287783814,204,1.0,0.00303256528985,0.499654420455,nan,nan,nan,nan,nan,nan,nan,nan,739.948431791,1113.58835552,nan,1114.1258456,nan,nan,nan,nan
1,319,0,0,0.0,1.0,0.379665910965,0,0.0,0.0,0.0,0.323498815661,0.12832733441,0.195171481252,0.451826150071,0.12832733441,0.398813175775,354,-0.174470673547,0.472100788149,0.0988677247603,nan,nan,nan,nan,nan,nan,nan,nan,739.948431791,1114.53014681,nan,1114.90981272,nan,nan,nan,nan
1,320,1,1,1.0,1.0,0.285869867657,0,0.0,0.0,0.0,0.32367999984,0.128159768432,0.195520231408,0.451839768272,0.128159768432,0.401008619073,444,0.289241202529,0.417409780569,-1.0,nan,nan,nan,nan,nan,nan,nan,nan,739.948431791,1115.47193668,nan,1115.75780655,nan,nan,nan,nan
1,321,1,1,1.0,1.0,0.288073388743,0,0.0,0.0,0.0,0.323558423852,0.127971461664,0.195586962188,0.451529885516,0.127971461664,0.317869722455,338,-0.162891363375,0.458928707883,0.250399161362,nan,nan,nan,nan,nan,nan,nan,nan,739.948431791,1116.41373453,nan,1116.70180792,nan,nan,nan,nan
1,322,0,0,0.0,1.0,0.434264424839,0,0.0,0.0,0.0,0.323444689765,0.127781956926,0.195662732839,0.451226646691,0.127781956926,0.33606922708,390,-0.0641960347588,0.476284203309,-0.291947553613,nan,nan,nan,nan,nan,nan,nan,nan,739.948431791,1117.35550872,nan,1117.78977314,nan,nan,nan,nan
1,323,1,1,1.0,1.0,0.308457597974,0,0.0,0.0,0.0,0.323798746427,0.127730860644,0.196067885782,0.451529607071,0.127730860644,0.343598470519,303,0.0191349273956,0.402522842081,0.512018356663,nan,nan,nan,nan,nan,nan,nan,nan,739.948431791,1118.29730486,nan,1118.60576245,nan,nan,nan,nan
1,324,1,1,1.0,1.0,0.350650080072,0,0.0,0.0,0.0,0.323749889266,0.12753023465,0.196219654616,0.451280123916,0.12753023465,0.364457367628,469,0.489482198204,0.360453357602,-1.0,nan,nan,nan,nan,nan,nan,nan,nan,739.948431791,1119.23909273,nan,1119.58974281,nan,nan,nan,nan
1,325,1,1,1.0,1.0,0.328845798562,0,0.0,0.0,0.0,0.323835286697,0.127336636688,0.196498650009,0.451171923385,0.127336636688,0.329317825536,283,0.19826868328,0.351050922538,0.605825948857,nan,nan,nan,nan,nan,nan,nan,nan,739.948431791,1120.18088031,nan,1120.50972611,nan,nan,nan,nan
1,326,1,1,1.0,1.0,0.355061398703,0,0.0,0.0,0.0,0.323851142747,0.127135306477,0.196715836271,0.450986449224,0.127135306477,0.344852425779,336,-0.158211608236,0.456758111158,0.268135266647,nan,nan,nan,nan,nan,nan,nan,nan,739.948431791,1121.12265593,nan,1121.47771732,nan,nan,nan,nan
1,327,1,1,1.0,1.0,0.221248169662,0,0.0,0.0,0.0,0.323949597813,0.12694668435,0.197002913463,0.450896282164,0.12694668435,0.301718455642,235,0.707591924495,0.164537776567,0.631659631194,nan,nan,nan,nan,nan,nan,nan,nan,739.948431791,1122.06445663,nan,1122.2857048,nan,nan,nan,nan
1,328,0,0,0.0,1.0,0.415434853989,0,0.0,0.0,0.0,0.323626637348,0.126877292357,0.19674934499,0.450503929705,0.126877292357,0.330581474118,355,-0.173737462994,0.472683863687,0.0888799762457,nan,nan,nan,nan,nan,nan,nan,nan,739.948431791,1123.00624678,nan,1123.42168163,nan,nan,nan,nan
1,329,1,1,1.0,1.0,0.401620724064,0,0.0,0.0,0.0,0.3239144374,0.126782188912,0.197132248488,0.450696626312,0.126782188912,0.346101249238,79,1.0,-0.184296021705,-0.724170777997,nan,nan,nan,nan,nan,nan,nan,nan,739.948431791,1123.94804149,nan,1124.34966222,nan,nan,nan,nan
1,330,1,1,1.0,1.0,0.403820538893,0,0.0,0.0,0.0,0.324157269546,0.126658215906,0.197499053639,0.450815485452,0.126658215906,0.406958705649,506,0.797774742377,0.236703125255,-1.0,nan,nan,nan,nan,nan,nan,nan,nan,739.948431791,1124.8898268,nan,1125.29364734,nan,nan,nan,nan
1,331,1,1,1.0,1.0,0.398004543327,0,0.0,0.0,0.0,0.324405441724,0.126538674919,0.197866766805,0.450944116643,0.126538674919,0.401148602095,26,1.0,0.0920921692153,-1.0,nan,nan,nan,nan,nan,nan,nan,nan,739.948431791,1125.83161638,nan,1126.22962092,nan,nan,nan,nan
1,332,1,1,1.0,1.0,0.536185470934,0,0.0,0.0,0.0,0.324634010363,0.126408384344,0.198225626019,0.451042394707,0.126408384344,0.446003517718,246,0.589768841079,0.215019897151,0.651339528662,nan,nan,nan,nan,nan,nan,nan,nan,739.948431791,1126.77341851,nan,1127.30960398,nan,nan,nan,nan
1,333,1,1,1.0,1.0,0.378396085289,0,0.0,0.0,0.0,0.325288968445,0.126758578276,0.198530390169,0.452047546721,0.126758578276,0.43752869985,404,0.0124894593597,0.468746268022,-0.463349101315,nan,nan,nan,nan,nan,nan,nan,nan,739.948431791,1127.71518927,nan,1128.09358536,nan,nan,nan,nan
1,334,1,1,1.0,1.0,0.284591489006,0,0.0,0.0,0.0,0.325452879299,0.126597090612,0.198855788688,0.452049969911,0.126597090612,0.399724348409,324,-0.114799643766,0.441158325109,0.368064040095,nan,nan,nan,nan,nan,nan,nan,nan,739.948431791,1128.65697971,nan,1128.9415712,nan,nan,nan,nan
1,335,1,1,0.0,0.0,0.390781019756,0,0.0,0.0,0.0,0.325327151945,0.126422433278,0.198904718667,0.451749585222,0.126422433278,0.351256198017,78,1.0,-0.179467652321,-0.739907630878,nan,nan,nan,nan,nan,nan,nan,nan,739.948431791,1129.598773,nan,1129.98955402,nan,nan,nan,nan
1,336,1,1,1.0,1.0,0.328988347494,0,0.0,0.0,0.0,0.32552793068,0.126280269999,0.199247660681,0.45180820068,0.126280269999,0.334786952085,312,-0.0464483572634,0.420925197877,0.455573212045,nan,nan,nan,nan,nan,nan,nan,nan,739.948431791,1130.54055659,nan,1130.86954494,nan,nan,nan,nan
1,337,1,1,1.0,1.0,0.251173462661,0,0.0,0.0,0.0,0.325538512995,0.126087177824,0.199451335171,0.451625690818,0.126087177824,0.32364760997,371,-0.14179360683,0.478331938097,-0.0779732583494,nan,nan,nan,nan,nan,nan,nan,nan,739.948431791,1131.48234988,nan,1131.73352334,nan,nan,nan,nan
1,338,1,1,1.0,1.0,0.549360126432,0,0.0,0.0,0.0,0.32531179028,0.125961564829,0.199350225451,0.451273355109,0.125961564829,0.376507312195,100,1.0,-0.270427092546,-0.457439896749,nan,nan,nan,nan,nan,nan,nan,nan,739.948431791,1132.42413604,nan,1132.97349617,nan,nan,nan,nan
1,339,1,1,1.0,1.0,0.335574962432,0,0.0,0.0,0.0,0.325992788262,0.126373267097,0.199619521165,0.45236605536,0.126373267097,0.378702850508,484,0.614398947124,0.316112737715,-1.0,nan,nan,nan,nan,nan,nan,nan,nan,739.948431791,1133.36591593,nan,1133.70149089,nan,nan,nan,nan
1,340,0,0,1.0,0.0,0.193764739553,0,0.0,0.0,0.0,0.326021825154,0.126182746351,0.199839078803,0.452204571505,0.126182746351,0.359566609472,258,0.459642287315,0.26499291187,0.655490062901,nan,nan,nan,nan,nan,nan,nan,nan,739.948431791,1134.30771948,nan,1134.50148422,nan,nan,nan,nan
1,341,1,1,1.0,1.0,0.307945277193,0,0.0,0.0,0.0,0.325622256919,0.126200905603,0.199421351317,0.451823162522,0.126200905603,0.279094993059,101,1.0,-0.273572672894,-0.446152610616,nan,nan,nan,nan,nan,nan,nan,nan,739.948431791,1135.24951134,nan,1135.55745662,nan,nan,nan,nan
1,342,1,1,1.0,1.0,0.190155116026,0,0.0,0.0,0.0,0.325569013005,0.12601442393,0.199554589075,0.451583436934,0.12601442393,0.230621710924,396,-0.0330153705648,0.473684876347,-0.363523780775,nan,nan,nan,nan,nan,nan,nan,nan,739.948431791,1136.19128752,nan,1136.38144264,nan,nan,nan,nan
1,343,1,1,1.0,1.0,0.272354805376,0,0.0,0.0,0.0,0.325162364665,0.126043043918,0.199119320748,0.451205408583,0.126043043918,0.256818399532,332,-0.146647089803,0.45205423783,0.302714191958,nan,nan,nan,nan,nan,nan,nan,nan,739.948431791,1137.13307939,nan,1137.40543419,nan,nan,nan,nan
1,344,1,1,1.0,1.0,0.434535552864,0,0.0,0.0,0.0,0.3250042582,0.125887281816,0.199116976385,0.450891540016,0.125887281816,0.299015158089,96,1.0,-0.25681952169,-0.503302481145,nan,nan,nan,nan,nan,nan,nan,nan,739.948431791,1138.07486441,nan,1138.50939996,nan,nan,nan,nan
1,345,1,1,1.0,1.0,0.572723322839,0,0.0,0.0,0.0,0.325331217289,0.125841196678,0.199490020611,0.451172413967,0.125841196678,0.426537893693,249,0.557275547736,0.228026269286,0.654084877906,nan,nan,nan,nan,nan,nan,nan,nan,739.948431791,1139.01665656,nan,1139.58937988,nan,nan,nan,nan
1,346,1,1,1.0,1.0,0.390920432634,0,0.0,1.0,0.0,0.326067503317,0.12637438444,0.199693118878,0.452441887757,0.12637438444,0.466059769446,501,0.7564492333,0.256253544744,-1.0,nan,nan,nan,nan,nan,nan,nan,nan,739.948431791,1139.95844044,nan,1140.34936087,nan,nan,nan,nan
1,347,1,1,1.0,1.0,0.241121768719,1,0.0,0.0,1.0,0.326259945244,0.126236041874,0.20002390337,0.452495987118,0.126236041874,0.401588508064,203,1.0,-0.00249325098487,0.493674673203,-85.1172404362,175.117240436,32.3828654362,249.0,0.557275547736,0.228026269286,0.654084877906,2.00888992031,739.948431791,1140.9002323,1141.70865027,1141.14135407,1144.75899854,1145.75560559,1142.73374344,1144.75066912
1,348,1,1,1.0,1.0,0.488388250757,0,0.0,0.0,0.0,0.326008057148,0.126133950824,0.199874106323,0.452142007972,0.126133950824,0.37347681737,289,0.140592130943,0.368073254824,0.582505265782,nan,nan,nan,nan,nan,nan,nan,nan,739.948431791,1145.90088204,nan,1146.38927029,nan,nan,nan,nan
1,349,1,1,1.0,1.0,0.266558196454,0,0.0,0.0,0.0,0.326487054769,0.126255266634,0.200231788135,0.452742321404,0.126255266634,0.332022738643,227,0.791019951953,0.125257787881,0.608066708266,nan,nan,nan,nan,nan,nan,nan,nan,739.948431791,1146.8426719,nan,1147.1092301,nan,nan,nan,nan
1,350,1,1,1.0,1.0,0.356773981242,0,0.0,0.0,0.0,0.326310793421,0.126111224399,0.200199569023,0.45242201782,0.126111224399,0.370573476151,342,-0.170052622031,0.462913557708,0.21407524247,nan,nan,nan,nan,nan,nan,nan,nan,739.948431791,1147.78445464,nan,1148.14122862,nan,nan,nan,nan
1,351,1,1,1.0,1.0,0.302952929225,0,0.0,0.0,0.0,0.326400128283,0.1259369483,0.200463179983,0.452337076583,0.1259369483,0.308761702307,453,0.359670421306,0.39926174925,-1.0,nan,nan,nan,nan,nan,nan,nan,nan,739.948431791,1148.72626133,nan,1149.02921426,nan,nan,nan,nan
1,352,1,1,1.0,1.0,0.225158286339,0,0.0,0.0,0.0,0.326331569221,0.125759067902,0.200572501319,0.452090637123,0.125759067902,0.294961732269,111,1.0,-0.298677811705,-0.336106236365,nan,nan,nan,nan,nan,nan,nan,nan,739.948431791,1149.66803609,nan,1149.89319437,nan,nan,nan,nan
1,353,1,1,1.0,1.0,0.291334337671,0,0.0,0.0,0.0,0.326036603382,0.125694033052,0.20034257033,0.451730636434,0.125694033052,0.273148517745,351,-0.175686286722,0.4701852659,0.128489978773,nan,nan,nan,nan,nan,nan,nan,nan,739.948431791,1150.60984363,nan,1150.90117797,nan,nan,nan,nan
1,354,1,1,1.0,1.0,0.181544306455,0,0.0,0.0,0.0,0.325935724703,0.125525109802,0.200410614901,0.451460834504,0.125525109802,0.232678976822,408,0.036737934283,0.465637664749,-0.515938449969,nan,nan,nan,nan,nan,nan,nan,nan,739.948431791,1151.55161468,nan,1151.73315899,nan,nan,nan,nan
1,355,1,1,1.0,1.0,0.119764748728,0,1.0,0.0,0.0,0.325517198853,0.12558319314,0.199934005713,0.451100391993,0.12558319314,0.197547797618,468,0.481236483515,0.363131620867,-1.0,nan,nan,nan,nan,nan,nan,nan,nan,739.948431791,1152.49340113,nan,1152.61316587,nan,nan,nan,nan
1,356,1,1,1.0,1.0,0.217938469024,1,0.0,0.0,1.0,0.324922538592,0.125887077411,0.199035461181,0.450809616003,0.125887077411,0.173082508069,249,0.557275547736,0.228026269286,0.654084877906,-87.9649655431,177.964965543,2.88684054314,253.0,0.513865899396,0.244839928328,0.655977188727,2.34226563817,739.948431791,1153.4351927,1154.24360355,1153.65313117,1157.61066557,1158.6097926,1155.25203275,1157.60233672
1,357,1,1,1.0,1.0,0.500484951423,0,0.0,0.0,0.0,0.324614227152,0.125836304081,0.198777923071,0.450450531233,0.125836304081,0.279396056392,112,1.0,-0.300501516081,-0.325324861792,nan,nan,nan,nan,nan,nan,nan,nan,739.948431791,1158.75255334,nan,1159.25303829,nan,nan,nan,nan
1,358,0,0,1.0,0.0,0.342673328123,0,0.0,0.0,0.0,0.325119602797,0.126007533793,0.199112069004,0.45112713659,0.126007533793,0.35369891619,277,0.258470646878,0.33263615818,0.624824240443,nan,nan,nan,nan,nan,nan,nan,nan,739.948431791,1159.69434092,nan,1160.03701425,nan,nan,nan,nan
1,359,1,1,1.0,1.0,0.280868681613,0,0.0,0.0,0.0,0.325169900004,0.125830376042,0.199339523962,0.451000276046,0.125830376042,0.37467565372,487,0.639529740128,0.306295026098,-1.0,nan,nan,nan,nan,nan,nan,nan,nan,739.948431791,1160.63612965,nan,1160.91699833,nan,nan,nan,nan
1,360,1,1,1.0,1.0,0.299051650625,0,0.0,0.0,0.0,0.325043325094,0.12567273763,0.199370587465,0.450716062724,0.12567273763,0.307531220121,15,0.965734432428,0.145352784795,-1.0,nan,nan,nan,nan,nan,nan,nan,nan,739.948431791,1161.57793463,nan,1161.87698628,nan,nan,nan,nan
1,361,0,0,1.0,0.0,0.125269132317,0,0.0,0.0,0.0,0.32496927474,0.125501235356,0.199468039384,0.450470510096,0.125501235356,0.235063154852,388,-0.0739633693698,0.476941921698,-0.268577162136,nan,nan,nan,nan,nan,nan,nan,nan,739.948431791,1162.51970767,nan,1162.6449768,nan,nan,nan,nan
1,362,1,1,1.0,1.0,0.111467546725,0,0.0,0.0,0.0,0.32440194479,0.125772764043,0.198629180747,0.450174708833,0.125772764043,0.178596109889,52,1.0,-0.0438860552364,-1.0,nan,nan,nan,nan,nan,nan,nan,nan,739.948431791,1163.46149611,nan,1163.57296366,nan,nan,nan,nan
1,363,0,0,1.0,0.0,0.257666565536,0,0.0,0.0,0.0,0.323798731197,0.12610335761,0.197695373587,0.449902088807,0.12610335761,0.164801081526,395,-0.0383984177995,0.474183508328,-0.351427224487,nan,nan,nan,nan,nan,nan,nan,nan,739.948431791,1164.40328313,nan,1164.6609497,nan,nan,nan,nan
1,364,1,1,1.0,1.0,0.411839770444,0,0.0,0.0,0.0,0.32361191717,0.125974026104,0.197637891066,0.449585943274,0.125974026104,0.260324627568,190,1.0,-0.0746884387243,0.407399635172,nan,nan,nan,nan,nan,nan,nan,nan,739.948431791,1165.34507442,nan,1165.75691419,nan,nan,nan,nan
1,365,1,1,1.0,1.0,0.486037049035,0,0.0,0.0,0.0,0.323860446334,0.125883350725,0.197977095609,0.44974379706,0.125883350725,0.385181128338,103,1.0,-0.279537473278,-0.423758835275,nan,nan,nan,nan,nan,nan,nan,nan,739.948431791,1166.28685916,nan,1166.77289621,nan,nan,nan,nan
1,366,1,1,1.0,1.0,0.320244112168,0,0.0,0.0,0.0,0.324315998589,0.125999116692,0.198316881897,0.450315115281,0.125999116692,0.406040310549,307,-0.0113868739462,0.411053355611,0.487957006857,nan,nan,nan,nan,nan,nan,nan,nan,739.948431791,1167.22865188,nan,1167.54889599,nan,nan,nan,nan
1,367,1,1,1.0,1.0,0.386444396805,0,0.0,0.0,0.0,0.324304592745,0.125822707631,0.198481885114,0.450127300376,0.125822707631,0.397575186003,173,1.0,-0.165909522591,0.273535192888,nan,nan,nan,nan,nan,nan,nan,nan,739.948431791,1168.17043547,nan,1168.55687987,nan,nan,nan,nan
1,368,1,1,1.0,1.0,0.316658151743,0,0.0,0.0,0.0,0.324478167616,0.125689649046,0.19878851857,0.450167816663,0.125689649046,0.341115553572,464,0.448404880525,0.373503555275,-1.0,nan,nan,nan,nan,nan,nan,nan,nan,739.948431791,1169.11219654,nan,1169.42885469,nan,nan,nan,nan
1,369,1,1,1.0,1.0,0.206837615115,0,0.0,0.0,0.0,0.324456384842,0.125515148432,0.198941236411,0.449971533274,0.125515148432,0.303313387888,250,0.546428449327,0.232286661223,0.654747725831,nan,nan,nan,nan,nan,nan,nan,nan,739.948431791,1170.05401577,nan,1170.26085339,nan,nan,nan,nan
1,370,1,1,1.0,1.0,0.145025271049,0,0.0,0.0,0.0,0.324129666038,0.125493476913,0.198636189125,0.44962314295,0.125493476913,0.222840345969,121,1.0,-0.310732805591,-0.229640808446,nan,nan,nan,nan,nan,nan,nan,nan,739.948431791,1170.99580393,nan,1171.1408292,nan,nan,nan,nan
1,371,1,1,1.0,1.0,0.315205293242,0,0.0,0.0,0.0,0.32363353198,0.125672596149,0.19796093583,0.449306128129,0.125672596149,0.222356059802,461,0.423959648591,0.380927367285,-1.0,nan,nan,nan,nan,nan,nan,nan,nan,739.948431791,1171.93759465,nan,1172.25279995,nan,nan,nan,nan
1,372,0,0,1.0,0.0,0.293416692177,0,0.0,0.0,0.0,0.323610249552,0.12549967481,0.198110574742,0.449109924362,0.12549967481,0.251215752156,8,0.91102658764,0.177400941622,-1.0,nan,nan,nan,nan,nan,nan,nan,nan,739.948431791,1172.87938338,nan,1173.17280007,nan,nan,nan,nan
1,373,1,1,1.0,1.0,0.263600021426,0,0.0,0.0,0.0,0.323527071708,0.12533668258,0.198190389128,0.448863754289,0.12533668258,0.290740668948,218,0.881467392804,0.0788246127756,0.572559633417,nan,nan,nan,nan,nan,nan,nan,nan,739.948431791,1173.82116783,nan,1174.08476785,nan,nan,nan,nan
1,374,1,1,1.0,1.0,0.241790323053,0,0.0,0.0,0.0,0.323362436955,0.12520369642,0.198158740535,0.448566133374,0.12520369642,0.266269012218,170,1.0,-0.180990482069,0.247815061387,nan,nan,nan,nan,nan,nan,nan,nan,739.948431791,1174.76295884,nan,1175.00474916,nan,nan,nan,nan
1,375,1,1,1.0,1.0,0.243989282579,0,0.0,0.0,0.0,0.323138951711,0.125104747969,0.198034203742,0.44824369968,0.125104747969,0.249793209019,4,0.879126049628,0.195014037372,-1.0,nan,nan,nan,nan,nan,nan,nan,nan,739.948431791,1175.70475184,nan,1175.94874112,nan,nan,nan,nan
