block,trial,time,setsize,freqtrials,colorind,colordeg,colorrgb,correctresp,actualresp,acc,rts,probe_trials,fast_rt_trigger,slow_rt_trigger,rt_trailingavg,rt_runningavg,rt_runningstd,rt_runningslowthresh,rt_runningfastthresh,wm_mousepos,wm_respdeg,wm_colorind,wm_colorrgb,wm_colorhsv,wm_degdiff,wm_rts,timeBlockStart,timeEncArrayOnset,timeResponse,timeProbeOnset,timeProbeOffset
0,0,15:16:00:337000,6,1,478,336.09375,[ 0.5642225   0.33479366 -1.        ],1,1,1,0.543383336,0,nan,nan,nan,nan,nan,nan,nan,nan,nan,nan,[ nan  nan  nan],nan,nan,nan,739.9484318,740.9650661,741.5084494,nan,nan
0,1,15:16:01:273000,6,1,23,16.171875,[ 1.          0.10694394 -1.        ],1,1,1,0.297511552,0,nan,nan,nan,nan,nan,nan,nan,nan,nan,nan,[ nan  nan  nan],nan,nan,nan,739.9484318,741.9069156,742.2044271,nan,nan
0,2,15:16:02:209000,6,1,140,98.4375,[ 1.         -0.29420925 -0.03457774],1,1,1,0.203761125,0,nan,nan,nan,nan,nan,nan,nan,nan,nan,nan,[ nan  nan  nan],nan,nan,nan,739.9484318,742.8486618,743.0524229,nan,nan
0,3,15:16:03:160000,6,1,300,210.9375,[ 0.04335371  0.39574842  0.52895103],1,1,1,0.205958088,0,nan,nan,nan,nan,nan,nan,nan,nan,nan,nan,[ nan  nan  nan],nan,nan,nan,739.9484318,743.7904511,743.9964092,nan,nan
0,4,15:16:04:096000,6,1,136,95.625,[ 1.         -0.3019149  -0.07484121],1,1,1,0.296159618,0,nan,nan,nan,nan,nan,nan,nan,nan,nan,nan,[ nan  nan  nan],nan,nan,nan,739.9484318,744.7322316,745.0283912,nan,nan
0,5,15:16:05:063000,6,0,387,272.109375,[-0.07872193  0.47723176 -0.25697445],0,1,0,0.201480342,0,0,0,nan,nan,nan,nan,nan,nan,nan,nan,[ nan  nan  nan],nan,nan,nan,739.9484318,745.6988703,745.9003506,nan,nan
0,6,15:16:05:999000,6,1,317,222.890625,[-0.07777284  0.42993861  0.42073361],1,1,1,0.355513849,0,nan,nan,nan,nan,nan,nan,nan,nan,nan,nan,[ nan  nan  nan],nan,nan,nan,739.9484318,746.6408229,746.9963368,nan,nan
0,7,15:16:06:951000,6,1,198,139.21875,[ 1.         -0.0302355   0.46232694],1,1,1,0.277728899,0,nan,nan,nan,nan,nan,nan,nan,nan,nan,nan,[ nan  nan  nan],nan,nan,nan,739.9484318,747.5826065,747.8603354,nan,nan
0,8,15:16:07:887000,6,1,75,52.734375,[ 1.         -0.16471446 -0.79135592],1,1,1,0.471906175,0,nan,nan,nan,nan,nan,nan,nan,nan,nan,nan,[ nan  nan  nan],nan,nan,nan,739.9484318,748.5243944,748.9963006,nan,nan
0,9,15:16:08:839000,6,1,37,26.015625,[ 1.          0.03585655 -1.        ],1,1,1,0.322110077,0,nan,nan,nan,nan,nan,nan,nan,nan,nan,nan,[ nan  nan  nan],nan,nan,nan,739.9484318,749.4661905,749.7883006,nan,nan
0,10,15:16:09:775000,6,0,129,90.703125,[ 1.         -0.31007049 -0.146368  ],0,0,1,0.37231837,0,nan,nan,nan,nan,nan,nan,nan,nan,nan,nan,[ nan  nan  nan],nan,nan,nan,739.9484318,750.4079736,750.7802919,nan,nan
0,11,15:16:10:711000,6,1,33,23.203125,[ 1.          0.05659903 -1.        ],1,1,1,0.214519006,0,nan,nan,nan,nan,nan,nan,nan,nan,nan,nan,[ nan  nan  nan],nan,nan,nan,739.9484318,751.349754,751.564273,nan,nan
0,12,15:16:11:662000,6,0,378,265.78125,[-0.11745014  0.47867092 -0.15481012],0,0,1,0.456699913,0,nan,nan,nan,nan,nan,nan,nan,nan,nan,nan,[ nan  nan  nan],nan,nan,nan,739.9484318,752.2915419,752.7482418,nan,nan
0,13,15:16:17:372000,6,1,5,3.515625,[ 0.88714031  0.19065985 -1.        ],1,1,1,0.402918489,1,nan,nan,nan,nan,nan,nan,nan,nan,64.05100873,37,[ 1.          0.03585655 -1.        ],nan,22.43336627,2.72575129,739.9484318,753.2333295,753.636248,755.0585024,757.7921822
0,14,15:16:18:308000,6,1,234,164.53125,[ 0.71814775  0.15974031  0.6291316 ],1,1,1,0.597821625,0,nan,nan,nan,nan,nan,nan,nan,nan,nan,nan,[ nan  nan  nan],nan,nan,nan,739.9484318,758.9424074,759.540229,nan,nan
0,15,15:16:19:244000,6,1,140,98.4375,[ 1.         -0.29420925 -0.03457774],1,0,0,0.479928258,0,0,0,nan,nan,nan,nan,nan,nan,nan,nan,[ nan  nan  nan],nan,nan,nan,739.9484318,759.8841907,760.364119,nan,nan
0,16,15:16:20:195000,6,1,510,358.59375,[ 0.83055446  0.2204367  -1.        ],1,1,1,0.394135481,0,nan,nan,nan,nan,nan,nan,nan,nan,nan,nan,[ nan  nan  nan],nan,nan,nan,739.9484318,760.8259757,761.2201112,nan,nan
0,17,15:16:25:421000,6,1,320,225,[-0.09465004  0.43494402  0.39870124],1,1,1,0.372328919,1,nan,nan,nan,nan,nan,nan,nan,nan,-105.9453959,279,[ 0.23815758  0.33893035  0.61897842],nan,-29.0546041,2.242285538,739.9484318,761.7677622,762.1400911,763.5929322,765.8432444
0,18,15:16:26:357000,6,1,145,101.953125,[ 1.         -0.28166741  0.01505517],1,nan,nan,nan,0,nan,nan,nan,nan,nan,nan,nan,nan,nan,nan,[ nan  nan  nan],nan,nan,nan,739.9484318,766.9934447,nan,nan,nan
0,19,15:16:27:293000,6,1,200,140.625,[ 1.         -0.01912099  0.47515178],1,1,1,0.276745312,0,nan,nan,nan,nan,nan,nan,nan,nan,nan,nan,[ nan  nan  nan],nan,nan,nan,739.9484318,767.9352175,768.2119628,nan,nan
0,20,15:16:28:245000,6,1,95,66.796875,[ 1.         -0.25317502 -0.51497544],1,1,1,0.190949113,0,nan,nan,nan,nan,nan,nan,nan,nan,nan,nan,[ nan  nan  nan],nan,nan,nan,739.9484318,768.8770111,769.0679602,nan,nan
0,21,15:16:29:181000,6,1,290,203.90625,[ 0.13126538  0.37077654  0.57820662],1,1,1,0.28114038,0,nan,nan,nan,nan,nan,nan,nan,nan,nan,nan,[ nan  nan  nan],nan,nan,nan,739.9484318,769.8188007,770.099941,nan,nan
0,22,15:16:30:133000,6,1,490,344.53125,[ 0.66466039  0.29615785 -1.        ],1,1,1,0.347337243,0,nan,nan,nan,nan,nan,nan,nan,nan,nan,nan,[ nan  nan  nan],nan,nan,nan,739.9484318,770.760594,771.1079312,nan,nan
0,23,15:16:31:069000,6,1,383,269.296875,[-0.09687871  0.47813121 -0.21108141],1,1,1,0.349532782,0,nan,nan,nan,nan,nan,nan,nan,nan,nan,nan,[ nan  nan  nan],nan,nan,nan,739.9484318,771.7023804,772.0519132,nan,nan
0,24,15:16:32:005000,6,1,497,349.453125,[ 0.72317494  0.2712606  -1.        ],1,1,1,0.231724944,0,nan,nan,nan,nan,nan,nan,nan,nan,nan,nan,[ nan  nan  nan],nan,nan,nan,739.9484318,772.6441697,772.8758946,nan,nan
0,25,15:16:32:956000,6,1,302,212.34375,[ 0.02708608  0.40030084  0.51777002],1,1,1,0.225916647,0,nan,nan,nan,nan,nan,nan,nan,nan,nan,nan,[ nan  nan  nan],nan,nan,nan,739.9484318,773.5859561,773.8118728,nan,nan
0,26,15:16:33:892000,6,1,194,136.40625,[ 1.         -0.05248646  0.4355717 ],1,1,1,0.268102286,0,nan,nan,nan,nan,nan,nan,nan,nan,nan,nan,[ nan  nan  nan],nan,nan,nan,739.9484318,774.5277452,774.7958474,nan,nan
0,27,15:16:34:828000,6,1,160,112.5,[ 1.         -0.22750142  0.15829752],1,1,1,0.238296449,0,nan,nan,nan,nan,nan,nan,nan,nan,nan,nan,[ nan  nan  nan],nan,nan,nan,739.9484318,775.4695421,775.7078386,nan,nan
0,28,15:16:35:780000,6,1,393,276.328125,[-0.04894566  0.47510217 -0.32744323],1,1,1,0.280502901,0,nan,nan,nan,nan,nan,nan,nan,nan,nan,nan,[ nan  nan  nan],nan,nan,nan,739.9484318,776.4113257,776.6918286,nan,nan
0,29,15:16:36:716000,6,1,14,9.84375,[ 0.95801505  0.15002356 -1.        ],1,1,1,0.298689006,0,nan,nan,nan,nan,nan,nan,nan,nan,nan,nan,[ nan  nan  nan],nan,nan,nan,739.9484318,777.3531105,777.6517995,nan,nan
0,30,15:16:37:667000,6,0,445,312.890625,[ 0.2969539  0.4155201 -1.       ],0,0,1,0.764870702,0,nan,nan,nan,nan,nan,nan,nan,nan,nan,nan,[ nan  nan  nan],nan,nan,nan,739.9484318,778.2948998,779.0597705,nan,nan
0,31,15:16:38:604000,6,1,257,180.703125,[ 0.4704729   0.26103985  0.65584138],1,1,1,0.511058374,0,nan,nan,nan,nan,nan,nan,nan,nan,nan,nan,[ nan  nan  nan],nan,nan,nan,739.9484318,779.2366874,779.7477457,nan,nan
0,32,15:16:39:540000,6,1,428,300.9375,[ 0.17037832  0.44348657 -0.8686614 ],1,1,1,0.449251732,0,nan,nan,nan,nan,nan,nan,nan,nan,nan,nan,[ nan  nan  nan],nan,nan,nan,739.9484318,780.1785026,780.6277543,nan,nan
0,33,15:16:40:491000,6,1,33,23.203125,[ 1.          0.05659903 -1.        ],1,1,1,0.395484564,0,nan,nan,nan,nan,nan,nan,nan,nan,nan,nan,[ nan  nan  nan],nan,nan,nan,739.9484318,781.1202608,781.5157454,nan,nan
0,34,15:16:41:427000,6,1,328,230.625,[-0.13215956  0.44685797  0.33604616],1,1,1,0.285668303,0,nan,nan,nan,nan,nan,nan,nan,nan,nan,nan,[ nan  nan  nan],nan,nan,nan,739.9484318,782.0620572,782.3477255,nan,nan
0,35,15:16:42:363000,6,0,145,101.953125,[ 1.         -0.28166741  0.01505517],0,1,0,0.255864462,0,0,0,nan,nan,nan,nan,nan,nan,nan,nan,[ nan  nan  nan],nan,nan,nan,739.9484318,783.0038411,783.2597056,nan,nan
0,36,15:16:43:315000,6,1,462,324.84375,[ 0.43208968  0.37848636 -1.        ],1,1,1,0.242160095,0,nan,nan,nan,nan,nan,nan,nan,nan,nan,nan,[ nan  nan  nan],nan,nan,nan,739.9484318,783.9456321,784.1877922,nan,nan
0,37,15:16:47:761000,6,1,362,254.53125,[-0.16423973  0.47600016  0.01745785],1,1,1,0.388242509,1,nan,nan,nan,nan,nan,nan,nan,nan,-156.4676514,351,[-0.17568629  0.47018527  0.12848998],nan,-8.063598561,1.467158156,739.9484318,784.8874197,785.2756622,786.712592,788.1877902
0,38,15:16:48:697000,6,1,46,32.34375,[ 1.         -0.01173137 -1.        ],1,1,1,0.457629047,0,nan,nan,nan,nan,nan,nan,nan,nan,nan,nan,[ nan  nan  nan],nan,nan,nan,739.9484318,789.3379578,789.7955869,nan,nan
0,39,15:16:49:648000,6,1,132,92.8125,[ 1.         -0.30742683 -0.11555536],1,1,1,0.387833393,0,nan,nan,nan,nan,nan,nan,nan,nan,nan,nan,[ nan  nan  nan],nan,nan,nan,739.9484318,790.2797451,790.6675785,nan,nan
0,40,15:16:50:584000,6,1,213,149.765625,[ 0.92978509  0.05216688  0.54890652],1,1,1,0.341983391,0,nan,nan,nan,nan,nan,nan,nan,nan,nan,nan,[ nan  nan  nan],nan,nan,nan,739.9484318,791.221576,791.5635594,nan,nan
0,41,15:16:51:536000,6,1,146,102.65625,[ 1.         -0.27879258  0.02488132],1,1,1,0.440183056,0,nan,nan,nan,nan,nan,nan,nan,nan,nan,nan,[ nan  nan  nan],nan,nan,nan,739.9484318,792.1633608,792.6035438,nan,nan
0,42,15:16:52:472000,6,1,30,21.09375,[ 1.          0.07194566 -1.        ],1,1,1,0.466381835,0,nan,nan,nan,nan,nan,nan,nan,nan,nan,nan,[ nan  nan  nan],nan,nan,nan,739.9484318,793.1051515,793.5715333,nan,nan
0,43,15:16:53:408000,6,1,319,224.296875,[-0.08918918  0.43330867  0.4061371 ],1,1,1,0.35656643,0,nan,nan,nan,nan,nan,nan,nan,nan,nan,nan,[ nan  nan  nan],nan,nan,nan,739.9484318,794.0469431,794.4035095,nan,nan
0,44,15:16:54:360000,6,1,477,335.390625,[ 0.55587987  0.33778403 -1.        ],1,1,1,0.246773263,0,nan,nan,nan,nan,nan,nan,nan,nan,nan,nan,[ nan  nan  nan],nan,nan,nan,739.9484318,794.9887258,795.2354991,nan,nan
0,45,15:16:55:296000,6,0,174,122.34375,[ 1.         -0.16079069  0.28198128],0,0,1,0.464951784,0,nan,nan,nan,nan,nan,nan,nan,nan,nan,nan,[ nan  nan  nan],nan,nan,nan,739.9484318,795.9305174,796.3954692,nan,nan
0,46,15:16:56:232000,6,1,492,345.9375,[ 0.68140332  0.28922202 -1.        ],1,1,1,0.307156126,0,nan,nan,nan,nan,nan,nan,nan,nan,nan,nan,[ nan  nan  nan],nan,nan,nan,739.9484318,796.8723035,797.1794597,nan,nan
0,47,15:16:57:183000,6,1,80,56.25,[ 1.         -0.18907571 -0.70896555],1,1,1,0.301344407,0,nan,nan,nan,nan,nan,nan,nan,nan,nan,nan,[ nan  nan  nan],nan,nan,nan,739.9484318,797.8140954,798.1154398,nan,nan
0,48,15:16:58:119000,6,1,234,164.53125,[ 0.71814775  0.15974031  0.6291316 ],1,1,1,0.327542046,0,nan,nan,nan,nan,nan,nan,nan,nan,nan,nan,[ nan  nan  nan],nan,nan,nan,739.9484318,798.7558881,799.0834302,nan,nan
0,49,15:16:59:071000,6,1,93,65.390625,[ 1.         -0.2456143  -0.53861988],1,1,1,0.305741186,0,nan,nan,nan,nan,nan,nan,nan,nan,nan,nan,[ nan  nan  nan],nan,nan,nan,739.9484318,799.6976723,800.0034135,nan,nan
0,50,15:17:00:007000,6,1,507,356.484375,[ 0.80599565  0.23268835 -1.        ],1,1,1,0.26793807,0,nan,nan,nan,nan,nan,nan,nan,nan,nan,nan,[ nan  nan  nan],nan,nan,nan,739.9484318,800.6394613,800.9073994,nan,nan
0,51,15:17:00:943000,6,1,267,187.734375,[ 0.36292453  0.29880723  0.64662252],1,1,1,0.238120259,0,nan,nan,nan,nan,nan,nan,nan,nan,nan,nan,[ nan  nan  nan],nan,nan,nan,739.9484318,801.5812517,801.819372,nan,nan
0,52,15:17:01:894000,6,1,342,240.46875,[-0.17005262  0.46291356  0.21407524],1,1,1,0.208320694,0,nan,nan,nan,nan,nan,nan,nan,nan,nan,nan,[ nan  nan  nan],nan,nan,nan,739.9484318,802.5230379,802.7313586,nan,nan
0,53,15:17:02:830000,6,1,42,29.53125,[ 1.          0.00954879 -1.        ],1,1,1,0.258522999,0,nan,nan,nan,nan,nan,nan,nan,nan,nan,nan,[ nan  nan  nan],nan,nan,nan,739.9484318,803.4648266,803.7233496,nan,nan
0,54,15:17:03:766000,6,1,220,154.6875,[ 0.86173155  0.08932726  0.58124768],1,1,1,0.300718903,0,nan,nan,nan,nan,nan,nan,nan,nan,nan,nan,[ nan  nan  nan],nan,nan,nan,739.9484318,804.4066134,804.7073323,nan,nan
0,55,15:17:04:718000,6,1,126,88.59375,[ 1.         -0.31141175 -0.17740843],1,1,1,0.294910605,0,nan,nan,nan,nan,nan,nan,nan,nan,nan,nan,[ nan  nan  nan],nan,nan,nan,739.9484318,805.3484001,805.6433107,nan,nan
0,56,15:17:05:654000,6,1,290,203.90625,[ 0.13126538  0.37077654  0.57820662],1,1,1,0.393098295,0,nan,nan,nan,nan,nan,nan,nan,nan,nan,nan,[ nan  nan  nan],nan,nan,nan,739.9484318,806.2901928,806.6832911,nan,nan
0,57,15:17:06:606000,6,1,61,42.890625,[ 1.        -0.0921164 -1.       ],1,1,1,0.283290018,0,nan,nan,nan,nan,nan,nan,nan,nan,nan,nan,[ nan  nan  nan],nan,nan,nan,739.9484318,807.2319827,807.5152727,nan,nan
0,58,15:17:07:542000,6,1,132,92.8125,[ 1.         -0.30742683 -0.11555536],1,1,1,0.277486566,0,nan,nan,nan,nan,nan,nan,nan,nan,nan,nan,[ nan  nan  nan],nan,nan,nan,739.9484318,808.1737697,808.4512563,nan,nan
0,59,15:17:08:478000,6,1,3,2.109375,[ 0.87108718  0.19933511 -1.        ],1,1,1,0.30366881,0,nan,nan,nan,nan,nan,nan,nan,nan,nan,nan,[ nan  nan  nan],nan,nan,nan,739.9484318,809.115561,809.4192298,nan,nan
0,60,15:17:13:407000,6,1,366,257.34375,[-0.15559338  0.47730203 -0.02447665],1,1,1,0.26586826,1,nan,nan,nan,nan,nan,nan,nan,nan,-144.429488,333,[-0.14981348  0.45327595  0.29418374],nan,-22.91426205,1.933891517,739.9484318,810.0573494,810.3232177,811.890852,813.832777
0,61,15:17:14:343000,6,1,449,315.703125,[ 0.32809501  0.40764625 -1.        ],1,1,1,0.340087776,0,nan,nan,nan,nan,nan,nan,nan,nan,nan,nan,[ nan  nan  nan],nan,nan,nan,739.9484318,814.9830221,815.3231099,nan,nan
0,62,15:17:15:295000,6,1,232,163.125,[ 0.73915824  0.15004662  0.62371202],1,1,1,0.318347356,0,nan,nan,nan,nan,nan,nan,nan,nan,nan,nan,[ nan  nan  nan],nan,nan,nan,739.9484318,815.9247769,816.2431243,nan,nan
0,63,15:17:16:231000,6,1,445,312.890625,[ 0.2969539  0.4155201 -1.       ],1,1,1,0.344537583,0,nan,nan,nan,nan,nan,nan,nan,nan,nan,nan,[ nan  nan  nan],nan,nan,nan,739.9484318,816.866564,817.2111015,nan,nan
0,64,15:17:17:182000,6,1,378,265.78125,[-0.11745014  0.47867092 -0.15481012],1,1,1,0.314736307,0,nan,nan,nan,nan,nan,nan,nan,nan,nan,nan,[ nan  nan  nan],nan,nan,nan,739.9484318,817.8083524,818.1230887,nan,nan
0,65,15:17:18:118000,6,1,4,2.8125,[ 0.87912605  0.19501404 -1.        ],1,1,1,0.140948942,0,nan,nan,nan,nan,nan,nan,nan,nan,nan,nan,[ nan  nan  nan],nan,nan,nan,739.9484318,818.7501408,818.8910898,nan,nan
0,66,15:17:19:054000,6,1,347,243.984375,[-0.17493884  0.46723881  0.16715748],1,1,1,0.599130509,0,nan,nan,nan,nan,nan,nan,nan,nan,nan,nan,[ nan  nan  nan],nan,nan,nan,739.9484318,819.6919273,820.2910578,nan,nan
0,67,15:17:20:006000,6,1,439,308.671875,[ 0.25114429  0.4263922  -1.        ],1,1,1,0.473311708,0,nan,nan,nan,nan,nan,nan,nan,nan,nan,nan,[ nan  nan  nan],nan,nan,nan,739.9484318,820.6337172,821.1070289,nan,nan
0,68,15:17:20:942000,6,1,245,172.265625,[ 0.6005777   0.21061011  0.65017283],1,1,1,0.355523542,0,nan,nan,nan,nan,nan,nan,nan,nan,nan,nan,[ nan  nan  nan],nan,nan,nan,739.9484318,821.5755053,821.9310289,nan,nan
0,69,15:17:21:878000,6,1,319,224.296875,[-0.08918918  0.43330867  0.4061371 ],1,1,1,0.389703065,0,nan,nan,nan,nan,nan,nan,nan,nan,nan,nan,[ nan  nan  nan],nan,nan,nan,739.9484318,822.5172929,822.906996,nan,nan
0,70,15:17:22:830000,6,1,166,116.71875,[ 1.         -0.20036215  0.21267421],1,1,1,0.447900369,0,nan,nan,nan,nan,nan,nan,nan,nan,nan,nan,[ nan  nan  nan],nan,nan,nan,739.9484318,823.4590836,823.906984,nan,nan
0,71,15:17:23:766000,6,1,84,59.0625,[ 1.         -0.20765784 -0.65219109],1,1,1,0.362186278,0,nan,nan,nan,nan,nan,nan,nan,nan,nan,nan,[ nan  nan  nan],nan,nan,nan,739.9484318,824.4008735,824.7630598,nan,nan
0,72,15:17:24:717000,6,1,319,224.296875,[-0.08918918  0.43330867  0.4061371 ],1,1,1,0.252295893,0,nan,nan,nan,nan,nan,nan,nan,nan,nan,nan,[ nan  nan  nan],nan,nan,nan,739.9484318,825.3426582,825.5949541,nan,nan
0,73,15:17:25:653000,6,1,250,175.78125,[ 0.54642845  0.23228666  0.65474773],1,1,1,0.278487545,0,nan,nan,nan,nan,nan,nan,nan,nan,nan,nan,[ nan  nan  nan],nan,nan,nan,739.9484318,826.2844512,826.5629388,nan,nan
0,74,15:17:26:589000,6,0,432,303.75,[ 0.1992279   0.43768733 -1.        ],0,1,0,0.240686139,0,0,0,nan,nan,nan,nan,nan,nan,nan,nan,[ nan  nan  nan],nan,nan,nan,739.9484318,827.226238,827.4669241,nan,nan
0,75,15:17:27:541000,6,1,116,81.5625,[ 1.         -0.30644692 -0.28251544],1,1,1,0.24289023,0,nan,nan,nan,nan,nan,nan,nan,nan,nan,nan,[ nan  nan  nan],nan,nan,nan,739.9484318,828.1680258,828.4109161,nan,nan
0,76,15:17:28:477000,6,1,482,338.90625,[ 0.59765563  0.32248081 -1.        ],1,1,1,0.349076625,0,nan,nan,nan,nan,nan,nan,nan,nan,nan,nan,[ nan  nan  nan],nan,nan,nan,739.9484318,829.1098106,829.4588872,nan,nan
0,77,15:17:29:413000,6,1,41,28.828125,[ 1.         0.0148395 -1.       ],1,1,1,0.231265082,0,nan,nan,nan,nan,nan,nan,nan,nan,nan,nan,[ nan  nan  nan],nan,nan,nan,739.9484318,830.0516041,830.2828692,nan,nan
0,78,15:17:30:364000,6,1,270,189.84375,[ 0.33115907  0.30936972  0.64139387],1,1,1,0.273472389,0,nan,nan,nan,nan,nan,nan,nan,nan,nan,nan,[ nan  nan  nan],nan,nan,nan,739.9484318,830.9933812,831.2668536,nan,nan
0,79,15:17:31:300000,6,0,174,122.34375,[ 1.         -0.16079069  0.28198128],0,0,1,0.483656482,0,nan,nan,nan,nan,nan,nan,nan,nan,nan,nan,[ nan  nan  nan],nan,nan,nan,739.9484318,831.9351864,832.4188429,nan,nan
0,80,15:17:32:236000,6,1,447,314.296875,[ 0.31246764  0.41164647 -1.        ],1,1,1,0.285860174,0,0,0,0.347663015,0.337746762,0.10717563,0.444922392,0.230571132,nan,nan,nan,[ nan  nan  nan],nan,nan,nan,739.9484318,832.8769575,833.1628177,nan,nan
0,81,15:17:33:188000,6,1,283,198.984375,[ 0.19826868  0.35105092  0.60582595],1,1,1,0.27204747,0,0,0,0.347188042,0.33709818,0.106659575,0.443757755,0.230438604,nan,nan,nan,[ nan  nan  nan],nan,nan,nan,739.9484318,833.8187596,834.0908071,nan,nan
0,82,15:17:34:124000,6,1,135,94.921875,[ 1.         -0.30350232 -0.08497887],1,1,1,0.362230183,0,0,0,0.306712609,0.336295084,0.106242243,0.442537327,0.230052841,nan,nan,nan,[ nan  nan  nan],nan,nan,nan,739.9484318,834.7605498,835.1227799,nan,nan
0,83,15:17:35:076000,6,0,345,242.578125,[-0.17351954  0.46559515  0.18611928],0,1,0,0.308431369,0,0,0,0.314236341,0.336611366,0.105630798,0.442242165,0.230980568,nan,nan,nan,[ nan  nan  nan],nan,nan,nan,739.9484318,835.7023376,836.010769,nan,nan
0,84,15:17:36:012000,6,1,469,329.765625,[ 0.4894822   0.36045336 -1.        ],1,1,1,0.326628023,0,0,0,0.332429858,0.336271848,0.105037545,0.441309393,0.231234303,nan,nan,nan,[ nan  nan  nan],nan,nan,nan,739.9484318,836.6441227,836.9707507,nan,nan
0,85,15:17:36:948000,6,1,415,291.796875,[ 0.08130773  0.45915368 -0.61496802],1,nan,nan,nan,0,0,0,0.317529696,0.336157041,0.104415688,0.440572729,0.231741352,nan,nan,nan,[ nan  nan  nan],nan,nan,nan,739.9484318,837.5859114,nan,nan,nan
0,86,15:17:37:899000,6,1,155,108.984375,[ 1.         -0.24798314  0.11161188],1,1,1,0.626980289,0,0,0,0.476804156,0.336157041,0.104415688,0.440572729,0.231741352,nan,nan,nan,[ nan  nan  nan],nan,nan,nan,739.9484318,838.5277038,839.1546841,nan,nan
0,87,15:17:38:835000,6,1,485,341.015625,[ 0.62277456  0.31287562 -1.        ],1,nan,nan,nan,0,0,0,0.626980289,0.339578491,0.108432931,0.448011422,0.23114556,nan,nan,nan,[ nan  nan  nan],nan,nan,nan,739.9484318,839.4694897,nan,nan,nan
0,88,15:17:39:771000,6,1,218,153.28125,[ 0.88146739  0.07882461  0.57255963],1,1,1,0.039410783,0,0,0,0.333195536,0.339578491,0.108432931,0.448011422,0.23114556,nan,nan,nan,[ nan  nan  nan],nan,nan,nan,739.9484318,840.4112804,840.4506912,nan,nan
0,89,15:17:40:723000,6,1,33,23.203125,[ 1.          0.05659903 -1.        ],1,1,1,0.793559241,0,0,0,0.416485012,0.336088168,0.112501034,0.448589203,0.223587134,nan,nan,nan,[ nan  nan  nan],nan,nan,nan,739.9484318,841.3530654,842.1466247,nan,nan
0,90,15:17:41:659000,6,1,260,182.8125,[ 0.43801664  0.27278198  0.65440657],1,nan,nan,nan,0,0,0,0.416485012,0.341346457,0.122019962,0.463366418,0.219326495,nan,nan,nan,[ nan  nan  nan],nan,nan,nan,739.9484318,842.2948579,nan,nan,nan
0,91,15:17:42:610000,6,1,169,118.828125,[ 1.         -0.18591738  0.2391183 ],1,1,1,0.469960668,0,0,0,0.631759955,0.341346457,0.122019962,0.463366418,0.219326495,nan,nan,nan,[ nan  nan  nan],nan,nan,nan,739.9484318,843.236648,843.7066087,nan,nan
0,92,15:17:43:546000,6,0,446,313.59375,[ 0.30469626  0.41359904 -1.        ],0,0,1,0.440186192,0,0,0,0.45507343,0.342807982,0.122088149,0.464896131,0.220719832,nan,nan,nan,[ nan  nan  nan],nan,nan,nan,739.9484318,844.1784305,844.6186167,nan,nan
0,93,15:17:44:482000,6,1,306,215.15625,[-0.00395437  0.40897401  0.49412883],1,1,1,0.202376975,0,0,0,0.370841278,0.343902119,0.121833437,0.465735556,0.222068682,nan,nan,nan,[ nan  nan  nan],nan,nan,nan,739.9484318,845.1202218,845.3225987,nan,nan
0,94,15:17:45:434000,6,1,125,87.890625,[ 1.         -0.31156743 -0.18780506],1,1,1,0.268570132,0,0,0,0.303711099,0.342329617,0.122059558,0.464389175,0.220270059,nan,nan,nan,[ nan  nan  nan],nan,nan,nan,739.9484318,846.0620156,846.3305858,nan,nan
0,95,15:17:46:370000,6,1,318,223.59375,[-0.08356276  0.43164026  0.41348156],1,1,1,0.326762304,0,0,0,0.265903137,0.341519074,0.121630357,0.463149431,0.219888716,nan,nan,nan,[ nan  nan  nan],nan,nan,nan,739.9484318,847.0037984,847.3305607,nan,nan
0,96,15:17:47:306000,6,1,447,314.296875,[ 0.31246764  0.41164647 -1.        ],1,1,1,0.256957812,0,0,0,0.284096749,0.341358674,0.120977194,0.462335867,0.22038148,nan,nan,nan,[ nan  nan  nan],nan,nan,nan,739.9484318,847.9455899,848.2025477,nan,nan
0,97,15:17:48:258000,6,1,223,156.796875,[ 0.83172397  0.10489059  0.59343224],1,1,1,0.259140806,0,0,0,0.280953641,0.340451138,0.120639479,0.461090616,0.219811659,nan,nan,nan,[ nan  nan  nan],nan,nan,nan,739.9484318,848.8874083,849.1465491,nan,nan
0,98,15:17:49:194000,6,1,44,30.9375,[ 1.         -0.00106984 -1.        ],1,1,1,0.317349799,0,0,0,0.277816139,0.339586134,0.120285663,0.459871797,0.219300471,nan,nan,nan,[ nan  nan  nan],nan,nan,nan,739.9484318,849.8291677,850.1465175,nan,nan
0,99,15:17:50:145000,6,1,217,152.578125,[ 0.89125041  0.07353733  0.56804835],1,1,1,0.247554431,0,0,0,0.274681679,0.339352067,0.119672425,0.459024492,0.219679643,nan,nan,nan,[ nan  nan  nan],nan,nan,nan,739.9484318,850.7709587,851.0185131,nan,nan
0,100,15:17:51:081000,6,1,279,196.171875,[ 0.23815758  0.33893035  0.61897842],1,1,1,0.265754221,0,0,0,0.27688615,0.338395842,0.119411775,0.457807617,0.218984067,nan,nan,nan,[ nan  nan  nan],nan,nan,nan,739.9484318,851.712744,851.9784982,nan,nan
0,101,15:17:52:017000,6,1,101,71.015625,[ 1.         -0.27357267 -0.44615261],1,1,1,0.163923835,0,0,0,0.225744162,0.337646959,0.119021046,0.456668005,0.218625913,nan,nan,nan,[ nan  nan  nan],nan,nan,nan,739.9484318,852.6545378,852.8184617,nan,nan
0,102,15:17:52:969000,6,1,150,105.46875,[ 1.         -0.26615253  0.06382271],1,1,1,0.102146844,0,1,0,0.177274967,0.335874274,0.119692407,0.455566681,0.216181868,nan,nan,nan,[ nan  nan  nan],nan,nan,nan,739.9484318,853.596326,853.6984728,nan,nan
0,103,15:17:58:647000,6,1,371,260.859375,[-0.14179361  0.47833194 -0.07797326],1,1,1,0.336319068,1,0,0,0.200796582,0.333513391,0.121358114,0.454871505,0.212155278,nan,-148.6611537,339,[-0.16495584  0.45996923  0.2414231 ],nan,-22.19822129,2.700657835,739.9484318,854.5381099,854.8744289,856.363307,859.0719886
0,104,15:17:59:583000,6,1,279,196.171875,[ 0.23815758  0.33893035  0.61897842],1,1,1,0.452135782,0,0,0,0.296867231,0.333541448,0.120750121,0.454291569,0.212791327,nan,nan,nan,[ nan  nan  nan],nan,nan,nan,739.9484318,860.2221987,860.6743345,nan,nan
0,105,15:18:00:535000,6,1,64,45,[ 1.         -0.10803687 -1.        ],1,1,1,0.31834479,0,0,0,0.368933213,0.334715649,0.120723255,0.455438905,0.213992394,nan,nan,nan,[ nan  nan  nan],nan,nan,nan,739.9484318,861.1639692,861.482314,nan,nan
0,106,15:18:01:471000,6,1,368,258.75,[-0.15045717  0.47779326 -0.04573418],1,1,1,0.232537188,0,0,0,0.334339253,0.334555151,0.120140845,0.454695996,0.214414305,nan,nan,nan,[ nan  nan  nan],nan,nan,nan,739.9484318,862.1057673,862.3383045,nan,nan
0,107,15:18:02:422000,6,1,67,47.109375,[ 1.         -0.12380467 -1.        ],1,1,1,0.12275514,0,0,0,0.224545706,0.333564685,0.119973967,0.453538652,0.213590718,nan,nan,nan,[ nan  nan  nan],nan,nan,nan,739.9484318,863.0475364,863.1702915,nan,nan
0,108,15:18:03:358000,6,1,10,7.03125,[ 0.9268115   0.16840058 -1.        ],1,1,1,0.156951483,0,1,0,0.170747937,0.33153767,0.121155093,0.452692764,0.210382577,nan,nan,nan,[ nan  nan  nan],nan,nan,nan,739.9484318,863.9893328,864.1462843,nan,nan
0,109,15:18:09:708000,6,1,358,251.71875,[-0.17058391  0.47426832  0.05858744],1,1,1,0.031122419,1,0,0,0.103609681,0.329874945,0.121763234,0.451638179,0.208111711,nan,-144.9165261,334,[-0.15279655  0.45446705  0.2855764 ],nan,-16.80222388,3.359065883,739.9484318,864.9311195,864.9622419,866.7562955,870.1234009
0,110,15:18:10:659000,6,1,455,319.921875,[ 0.37560825  0.39487537 -1.        ],1,1,1,0.432193759,0,0,0,0.206755887,0.327056525,0.124581223,0.451637748,0.202475302,nan,nan,nan,[ nan  nan  nan],nan,nan,nan,739.9484318,871.2819501,871.7141438,nan,nan
0,111,15:18:11:595000,6,1,315,221.484375,[-0.06571114  0.42643481  0.43495652],1,1,1,0.450098758,0,0,0,0.304471645,0.328039116,0.124409691,0.452448807,0.203629424,nan,nan,nan,[ nan  nan  nan],nan,nan,nan,739.9484318,872.2320271,872.6821259,nan,nan
0,112,15:18:12:547000,6,1,165,116.015625,[ 1.         -0.20505638  0.20374544],1,1,1,0.308235507,0,0,0,0.396842675,0.329169297,0.124383001,0.453552298,0.204786297,nan,nan,nan,[ nan  nan  nan],nan,nan,nan,739.9484318,873.1738649,873.4821004,nan,nan
0,113,15:18:13:483000,6,1,229,161.015625,[ 0.77039703  0.13526594  0.61468147],1,1,1,0.262442239,0,0,0,0.340258835,0.328977244,0.123827208,0.452804452,0.205150036,nan,nan,nan,[ nan  nan  nan],nan,nan,nan,739.9484318,874.1156462,874.3780885,nan,nan
0,114,15:18:14:419000,6,1,149,104.765625,[ 1.         -0.26947852  0.05414366],1,1,1,0.296634876,0,0,0,0.289104207,0.328372381,0.123424729,0.451797109,0.204947652,nan,nan,nan,[ nan  nan  nan],nan,nan,nan,739.9484318,875.0574361,875.354071,nan,nan
0,115,15:18:15:370000,6,1,421,296.015625,[ 0.12147167  0.45251804 -0.71261034],1,1,1,0.090858395,0,0,0,0.21664517,0.328086457,0.122904093,0.450990551,0.205182364,nan,nan,nan,[ nan  nan  nan],nan,nan,nan,739.9484318,875.9992203,876.0900787,nan,nan
0,116,15:18:16:306000,6,0,187,131.484375,[ 1.         -0.09124635  0.38538321],0,0,1,0.629030428,0,0,0,0.338841233,0.32596835,0.124372564,0.450340913,0.201595786,nan,nan,nan,[ nan  nan  nan],nan,nan,nan,739.9484318,876.9410121,877.5700425,nan,nan
0,117,15:18:17:258000,6,1,78,54.84375,[ 1.         -0.17946765 -0.73990763],1,1,1,0.607199347,0,0,0,0.442362723,0.328650315,0.127032492,0.455682807,0.201617823,nan,nan,nan,[ nan  nan  nan],nan,nan,nan,739.9484318,877.8828046,878.4900039,nan,nan
0,118,15:18:18:194000,6,1,222,156.09375,[ 0.84177847  0.09972916  0.58948469],1,1,1,0.633410956,0,0,0,0.623213577,0.331093727,0.129113667,0.460207395,0.20198006,nan,nan,nan,[ nan  nan  nan],nan,nan,nan,739.9484318,878.8245802,879.4579911,nan,nan
0,119,15:18:19:130000,6,1,496,348.75,[ 0.71483372  0.27492388 -1.        ],1,nan,nan,nan,0,0,0,0.620305152,0.333722573,0.131579687,0.46530226,0.202142886,nan,nan,nan,[ nan  nan  nan],nan,nan,nan,739.9484318,879.7663754,nan,nan,nan
0,120,15:18:20:082000,6,1,451,317.109375,[ 0.34383096  0.40351836 -1.        ],1,1,1,0.293832935,0,0,0,0.463621945,0.333722573,0.131579687,0.46530226,0.202142886,nan,nan,nan,[ nan  nan  nan],nan,nan,nan,739.9484318,880.7081357,881.0019686,nan,nan
0,121,15:18:21:018000,6,1,328,230.625,[-0.13215956  0.44685797  0.33604616],1,1,1,0.336000614,0,0,0,0.314916774,0.333378697,0.131063195,0.464441891,0.202315502,nan,nan,nan,[ nan  nan  nan],nan,nan,nan,739.9484318,881.6499589,881.9859595,nan,nan
0,122,15:18:21:954000,6,0,298,209.53125,[ 0.06008966  0.39105034  0.53969689],0,1,0,0.314202889,0,0,0,0.314678813,0.333401106,0.130502117,0.463903223,0.202898989,nan,nan,nan,[ nan  nan  nan],nan,nan,nan,739.9484318,882.5917419,882.9059448,nan,nan
0,123,15:18:22:905000,6,1,236,165.9375,[ 0.69700456  0.16930175  0.63406585],1,1,1,0.556388643,0,0,0,0.402197382,0.333238409,0.129959881,0.463198291,0.203278528,nan,nan,nan,[ nan  nan  nan],nan,nan,nan,739.9484318,883.5335295,884.0899181,nan,nan
0,124,15:18:23:841000,6,1,77,54.140625,[ 1.         -0.17459302 -0.75626719],1,nan,nan,nan,0,0,0,0.435295766,0.335113621,0.131006027,0.466119649,0.204107594,nan,nan,nan,[ nan  nan  nan],nan,nan,nan,739.9484318,884.4753219,nan,nan,nan
0,125,15:18:24:777000,6,1,355,249.609375,[-0.17373746  0.47268386  0.08887998],1,1,1,0.280774029,0,0,0,0.418581336,0.335113621,0.131006027,0.466119649,0.204107594,nan,nan,nan,[ nan  nan  nan],nan,nan,nan,739.9484318,885.4171132,885.6978873,nan,nan
0,126,15:18:25:729000,6,1,220,154.6875,[ 0.86173155  0.08932726  0.58124768],1,1,1,0.226972364,0,0,0,0.253873196,0.334660792,0.130552515,0.465213307,0.204108277,nan,nan,nan,[ nan  nan  nan],nan,nan,nan,739.9484318,886.3588994,886.5858717,nan,nan
0,127,15:18:26:665000,6,1,134,94.21875,[ 1.         -0.304951   -0.09514411],1,1,1,0.445166566,0,0,0,0.317637653,0.333770805,0.130376951,0.464147755,0.203393854,nan,nan,nan,[ nan  nan  nan],nan,nan,nan,739.9484318,887.3006881,887.7458547,nan,nan
0,128,15:18:27:616000,6,1,203,142.734375,[ 1.         -0.00249325  0.49367467],1,1,1,0.343357563,0,0,0,0.338498831,0.334683885,0.130229412,0.464913296,0.204454473,nan,nan,nan,[ nan  nan  nan],nan,nan,nan,739.9484318,888.2424783,888.5858358,nan,nan
0,129,15:18:28:552000,6,1,273,191.953125,[ 0.29973296  0.31957719  0.63503803],1,1,1,0.329555407,0,0,0,0.372693178,0.334754402,0.129701282,0.464455684,0.20505312,nan,nan,nan,[ nan  nan  nan],nan,nan,nan,739.9484318,889.1842687,889.5138241,nan,nan
0,130,15:18:29:488000,6,1,476,334.6875,[ 0.54754504  0.34073938 -1.        ],1,1,1,0.371738481,0,0,0,0.34821715,0.334712475,0.129178071,0.463890546,0.205534404,nan,nan,nan,[ nan  nan  nan],nan,nan,nan,739.9484318,890.1260546,890.4977931,nan,nan
0,131,15:18:30:440000,6,1,172,120.9375,[ 1.         -0.17098406  0.26502468],1,1,1,0.285945704,0,0,0,0.329079864,0.335008683,0.128702595,0.463711278,0.206306088,nan,nan,nan,[ nan  nan  nan],nan,nan,nan,739.9484318,891.0678442,891.3537899,nan,nan
0,132,15:18:31:376000,6,1,286,201.09375,[ 0.16907896  0.35973478  0.59469871],1,1,1,0.384127122,0,0,0,0.347270435,0.334619294,0.128264757,0.462884051,0.206354538,nan,nan,nan,[ nan  nan  nan],nan,nan,nan,739.9484318,892.0096303,892.3937574,nan,nan
0,133,15:18:32:312000,6,1,64,45,[ 1.         -0.10803687 -1.        ],1,1,1,0.234329313,0,0,0,0.301467379,0.33500912,0.127833693,0.462842813,0.207175426,nan,nan,nan,[ nan  nan  nan],nan,nan,nan,739.9484318,892.9514222,893.1857515,nan,nan
0,134,15:18:33:264000,6,1,477,335.390625,[ 0.55587987  0.33778403 -1.        ],1,1,1,0.292531178,0,0,0,0.303662538,0.334222559,0.12764152,0.461864079,0.206581039,nan,nan,nan,[ nan  nan  nan],nan,nan,nan,739.9484318,893.8932109,894.1857421,nan,nan
0,135,15:18:34:200000,6,1,175,123.046875,[ 1.         -0.15562995  0.29036176],1,1,1,0.366732733,0,0,0,0.297864408,0.33389937,0.127198389,0.461097758,0.206700981,nan,nan,nan,[ nan  nan  nan],nan,nan,nan,739.9484318,894.8349968,895.2017295,nan,nan
0,136,15:18:35:151000,6,1,475,333.984375,[ 0.53921875  0.34365981 -1.        ],1,1,1,0.384923685,0,0,0,0.348062532,0.334151934,0.126740687,0.460892621,0.207411247,nan,nan,nan,[ nan  nan  nan],nan,nan,nan,739.9484318,895.7767869,896.1617106,nan,nan
0,137,15:18:36:087000,6,1,261,183.515625,[ 0.42722581  0.27661781  0.65367446],1,1,1,0.427123295,0,0,0,0.392926571,0.334539505,0.126333326,0.46087283,0.208206179,nan,nan,nan,[ nan  nan  nan],nan,nan,nan,739.9484318,896.7185705,897.1456938,nan,nan
0,138,15:18:37:023000,6,0,163,114.609375,[ 1.         -0.2142478   0.18572368],0,0,1,0.445295145,0,0,0,0.419114041,0.335240897,0.126109654,0.461350551,0.209131243,nan,nan,nan,[ nan  nan  nan],nan,nan,nan,739.9484318,897.660365,898.1056601,nan,nan
0,139,15:18:37:975000,6,1,418,293.90625,[ 0.10117589  0.45596175 -0.66167931],1,1,1,0.287490364,0,0,0,0.386636268,0.336068372,0.125993853,0.462062226,0.210074519,nan,nan,nan,[ nan  nan  nan],nan,nan,nan,739.9484318,898.6021534,898.8896438,nan,nan
0,140,15:18:38:911000,6,1,505,355.078125,[ 0.78953796  0.24068314 -1.        ],1,1,1,0.23370894,0,0,0,0.322164816,0.33570585,0.125592453,0.461298303,0.210113397,nan,nan,nan,[ nan  nan  nan],nan,nan,nan,739.9484318,899.5439404,899.7776494,nan,nan
0,141,15:18:39:847000,6,1,429,301.640625,[ 0.17753182  0.44208078 -0.9018852 ],1,1,1,0.355879915,0,0,0,0.292359739,0.334950317,0.125431714,0.460382032,0.209518603,nan,nan,nan,[ nan  nan  nan],nan,nan,nan,739.9484318,900.4857346,900.8416145,nan,nan
0,142,15:18:40:799000,6,1,217,152.578125,[ 0.89125041  0.07353733  0.56804835],1,1,1,0.350087867,0,0,0,0.313225574,0.335104211,0.124982509,0.46008672,0.210121703,nan,nan,nan,[ nan  nan  nan],nan,nan,nan,739.9484318,901.4275153,901.7776032,nan,nan
0,143,15:18:41:735000,6,1,113,79.453125,[ 1.         -0.30219199 -0.31457635],1,1,1,0.248272307,0,0,0,0.31808003,0.335213581,0.124532065,0.459745646,0.210681517,nan,nan,nan,[ nan  nan  nan],nan,nan,nan,739.9484318,902.3693043,902.6175766,nan,nan
0,144,15:18:42:686000,6,1,473,332.578125,[ 0.52259481  0.34939617 -1.        ],1,1,1,0.21046634,0,0,0,0.269608838,0.334583572,0.124298968,0.45888254,0.210284604,nan,nan,nan,[ nan  nan  nan],nan,nan,nan,739.9484318,903.3111007,903.5215671,nan,nan
0,145,15:18:43:622000,6,1,182,127.96875,[ 1.         -0.11852384  0.34708947],1,1,1,0.180684737,0,0,0,0.213141128,0.333690642,0.124294454,0.457985097,0.209396188,nan,nan,nan,[ nan  nan  nan],nan,nan,nan,739.9484318,904.2528852,904.4335699,nan,nan
0,146,15:18:44:558000,6,1,364,255.9375,[-0.16019432  0.47670452 -0.00341125],1,1,1,0.286861153,0,0,0,0.226004077,0.332597743,0.124518216,0.457115959,0.208079526,nan,nan,nan,[ nan  nan  nan],nan,nan,nan,739.9484318,905.1946716,905.4815328,nan,nan
0,147,15:18:45:510000,6,0,481,338.203125,[ 0.58928949  0.32561186 -1.        ],0,1,0,0.265070271,0,0,0,0.244205387,0.33227337,0.124135223,0.456408593,0.208138146,nan,nan,nan,[ nan  nan  nan],nan,nan,nan,739.9484318,906.1364621,906.4015323,nan,nan
0,148,15:18:46:446000,6,1,114,80.15625,[ 1.         -0.30374746 -0.30385937],1,1,1,0.195258652,0,0,0,0.249063359,0.331800109,0.123824942,0.455625051,0.207975166,nan,nan,nan,[ nan  nan  nan],nan,nan,nan,739.9484318,907.0782522,907.2735109,nan,nan
0,149,15:18:47:382000,6,1,353,248.203125,[-0.17504126  0.47149007  0.10879922],1,1,1,0.165445118,0,0,0,0.208591347,0.330845273,0.123914721,0.454759995,0.206930552,nan,nan,nan,[ nan  nan  nan],nan,nan,nan,739.9484318,908.0200401,908.1854852,nan,nan
0,150,15:18:48:333000,6,1,187,131.484375,[ 1.         -0.09124635  0.38538321],1,1,1,0.311646987,0,0,0,0.224116919,0.329696661,0.124245276,0.453941937,0.205451385,nan,nan,nan,[ nan  nan  nan],nan,nan,nan,739.9484318,908.9618274,909.2734744,nan,nan
0,151,15:18:49:269000,6,1,133,93.515625,[ 1.         -0.30625957 -0.10533643],1,1,1,0.201836714,0,0,0,0.226309606,0.329572181,0.123825113,0.453397294,0.205747068,nan,nan,nan,[ nan  nan  nan],nan,nan,nan,739.9484318,909.9036184,910.1054551,nan,nan
0,152,15:18:50:221000,6,1,481,338.203125,[ 0.58928949  0.32561186 -1.        ],1,1,1,0.268021889,0,0,0,0.260501863,0.32869728,0.123849226,0.452546506,0.204848054,nan,nan,nan,[ nan  nan  nan],nan,nan,nan,739.9484318,910.8454111,911.113433,nan,nan
0,153,15:18:51:157000,6,0,281,197.578125,[ 0.2180834   0.34506839  0.61264442],0,0,1,0.43821474,0,0,0,0.302691114,0.328284522,0.123527973,0.451812496,0.204756549,nan,nan,nan,[ nan  nan  nan],nan,nan,nan,739.9484318,911.7871959,912.2254106,nan,nan
0,154,15:18:52:093000,6,1,226,158.90625,[ 0.80126593  0.12020899  0.60458277],1,1,1,0.280408249,0,0,0,0.328881626,0.329027294,0.123438888,0.452466182,0.205588406,nan,nan,nan,[ nan  nan  nan],nan,nan,nan,739.9484318,912.7289849,913.0093931,nan,nan
0,155,15:18:53:045000,6,0,368,258.75,[-0.15045717  0.47779326 -0.04573418],0,1,0,0.226615136,0,0,0,0.315079375,0.328700992,0.123087994,0.451788986,0.205612998,nan,nan,nan,[ nan  nan  nan],nan,nan,nan,739.9484318,913.6707673,913.8973825,nan,nan
0,156,15:18:53:981000,6,1,477,335.390625,[ 0.55587987  0.33778403 -1.        ],1,1,1,0.300801866,0,0,0,0.269275084,0.328020419,0.122957975,0.450978394,0.205062445,nan,nan,nan,[ nan  nan  nan],nan,nan,nan,739.9484318,914.6125595,914.9133613,nan,nan
0,157,15:18:54:917000,6,1,288,202.5,[ 0.15000513  0.36533195  0.58668724],1,1,1,0.263002742,0,0,0,0.263473248,0.327840164,0.122570036,0.4504102,0.205270128,nan,nan,nan,[ nan  nan  nan],nan,nan,nan,739.9484318,915.5543516,915.8173544,nan,nan
0,158,15:18:55:868000,6,1,31,21.796875,[ 1.          0.06685157 -1.        ],1,1,1,0.281188276,0,0,0,0.281664295,0.327413602,0.122278579,0.449692181,0.205135024,nan,nan,nan,[ nan  nan  nan],nan,nan,nan,739.9484318,916.4961386,916.7773269,nan,nan
0,159,15:18:56:804000,6,1,126,88.59375,[ 1.         -0.31141175 -0.17740843],1,1,1,0.291389361,0,0,0,0.278526793,0.327111476,0.121935227,0.449046703,0.205176249,nan,nan,nan,[ nan  nan  nan],nan,nan,nan,739.9484318,917.4379279,917.7293173,nan,nan
0,160,15:18:57:756000,6,1,75,52.734375,[ 1.         -0.16471446 -0.79135592],1,1,1,0.245595524,0,0,0,0.272724387,0.326879514,0.121572551,0.448452065,0.205306963,nan,nan,nan,[ nan  nan  nan],nan,nan,nan,739.9484318,918.3797175,918.625313,nan,nan
0,161,15:18:58:692000,6,1,224,157.5,[ 0.82161942  0.11002479  0.59726488],1,1,1,0.463785734,0,0,0,0.333590206,0.326355101,0.121354367,0.447709468,0.205000734,nan,nan,nan,[ nan  nan  nan],nan,nan,nan,739.9484318,919.3215077,919.7852934,nan,nan
0,162,15:18:59:628000,6,0,392,275.625,[-0.05410679  0.47552228 -0.31554984],0,0,1,0.449966473,0,0,0,0.386449243,0.327236067,0.121461001,0.448697068,0.205775065,nan,nan,nan,[ nan  nan  nan],nan,nan,nan,739.9484318,920.2632935,920.71326,nan,nan
0,163,15:19:00:579000,6,1,20,14.0625,[ 1.          0.12155819 -1.        ],1,1,1,0.300172085,0,0,0,0.404641431,0.328017789,0.121466613,0.449484403,0.206551176,nan,nan,nan,[ nan  nan  nan],nan,nan,nan,739.9484318,921.2050871,921.5052592,nan,nan
0,164,15:19:01:515000,6,1,324,227.8125,[-0.11479964  0.44115833  0.36806404],1,1,1,0.486357499,0,0,0,0.412165352,0.327841551,0.121101751,0.448943301,0.2067398,nan,nan,nan,[ nan  nan  nan],nan,nan,nan,739.9484318,922.1468696,922.6332271,nan,nan
0,165,15:19:02:451000,6,1,388,272.8125,[-0.07396337  0.47694192 -0.26857716],1,1,1,0.360567778,0,0,0,0.382365787,0.328838506,0.121369011,0.450207517,0.207469496,nan,nan,nan,[ nan  nan  nan],nan,nan,nan,739.9484318,923.0886617,923.4492295,nan,nan
0,166,15:19:03:403000,6,0,248,174.375,[ 0.5681159   0.2237282   0.65329577],0,0,1,0.48274645,0,0,0,0.443223909,0.329036814,0.121014976,0.45005179,0.208021838,nan,nan,nan,[ nan  nan  nan],nan,nan,nan,739.9484318,924.0304516,924.513198,nan,nan
0,167,15:19:04:339000,6,1,157,110.390625,[ 1.         -0.24004838  0.1304259 ],1,1,1,0.292949702,0,0,0,0.378754643,0.329991532,0.121241502,0.451233035,0.20875003,nan,nan,nan,[ nan  nan  nan],nan,nan,nan,739.9484318,924.9722363,925.265186,nan,nan
0,168,15:19:05:291000,6,1,85,59.765625,[ 1.         -0.21215645 -0.63878123],1,1,1,0.247267908,0,0,0,0.34098802,0.329762879,0.120901537,0.450664416,0.208861342,nan,nan,nan,[ nan  nan  nan],nan,nan,nan,739.9484318,925.9140293,926.1612972,nan,nan
0,169,15:19:06:227000,6,1,162,113.90625,[ 1.         -0.21873956  0.17663297],1,1,1,0.26532914,0,0,0,0.268515583,0.329256775,0.120702115,0.44995889,0.20855466,nan,nan,nan,[ nan  nan  nan],nan,nan,nan,739.9484318,926.8558152,927.1211443,nan,nan
0,170,15:19:07:163000,6,1,454,319.21875,[ 0.36762736  0.39708484 -1.        ],1,1,1,0.275537637,0,0,0,0.262711562,0.328866972,0.120436425,0.449303397,0.208430547,nan,nan,nan,[ nan  nan  nan],nan,nan,nan,739.9484318,927.7976025,928.0731401,nan,nan
0,171,15:19:08:114000,6,1,411,288.984375,[ 0.05552017  0.46302271 -0.55705476],1,1,1,0.245740068,0,0,0,0.262202282,0.328543764,0.120142231,0.448685996,0.208401533,nan,nan,nan,[ nan  nan  nan],nan,nan,nan,739.9484318,928.7393918,928.9851319,nan,nan
0,172,15:19:09:050000,6,1,503,353.671875,[ 0.7730202   0.24853846 -1.        ],1,1,1,0.439920766,0,0,0,0.32039949,0.328044947,0.119951066,0.447996012,0.208093881,nan,nan,nan,[ nan  nan  nan],nan,nan,nan,739.9484318,929.6811805,930.1211013,nan,nan
0,173,15:19:09:986000,6,1,238,167.34375,[ 0.67574183  0.17872767  0.63851109],1,1,1,0.322118345,0,0,0,0.335926393,0.328714862,0.119902458,0.44861732,0.208812404,nan,nan,nan,[ nan  nan  nan],nan,nan,nan,739.9484318,930.6229721,930.9450904,nan,nan
0,174,15:19:10:938000,6,1,134,94.21875,[ 1.         -0.304951   -0.09514411],1,1,1,0.452300853,0,0,0,0.404779988,0.328675597,0.11954615,0.448221746,0.209129447,nan,nan,nan,[ nan  nan  nan],nan,nan,nan,739.9484318,931.564758,932.0170588,nan,nan
0,175,15:19:11:874000,6,1,331,232.734375,[-0.14329784  0.45080175  0.31116671],1,1,1,0.318519841,0,0,0,0.364313013,0.329407107,0.119568458,0.448975565,0.209838649,nan,nan,nan,[ nan  nan  nan],nan,nan,nan,739.9484318,932.5065327,932.8250526,nan,nan
0,176,15:19:12:810000,6,1,499,350.859375,[ 0.73983189  0.26382776 -1.        ],1,1,1,0.272701484,0,0,0,0.347840726,0.329343065,0.119219174,0.448562239,0.21012389,nan,nan,nan,[ nan  nan  nan],nan,nan,nan,739.9484318,933.4483371,933.7210386,nan,nan
0,177,15:19:13:761000,6,1,451,317.109375,[ 0.34383096  0.40351836 -1.        ],1,1,1,0.394899828,0,0,0,0.328707051,0.329011827,0.118948499,0.447960326,0.210063328,nan,nan,nan,[ nan  nan  nan],nan,nan,nan,739.9484318,934.3901262,934.785026,nan,nan
0,178,15:19:14:697000,6,1,223,156.796875,[ 0.83172397  0.10489059  0.59343224],1,1,1,0.333094897,0,0,0,0.333565403,0.329394897,0.118707954,0.448102851,0.210686943,nan,nan,nan,[ nan  nan  nan],nan,nan,nan,739.9484318,935.3319172,935.6650121,nan,nan
0,179,15:19:15:649000,6,1,17,11.953125,[ 0.98106915  0.13592191 -1.        ],1,1,1,0.359297952,0,0,0,0.362430892,0.329416284,0.118364702,0.447780986,0.211051582,nan,nan,nan,[ nan  nan  nan],nan,nan,nan,739.9484318,936.2736822,936.6329802,nan,nan
0,180,15:19:16:585000,6,1,180,126.5625,[ 1.         -0.12927862  0.33123896],1,1,1,0.697459037,0,0,1,0.463283962,0.329588018,0.118045697,0.447633715,0.211542321,nan,nan,nan,[ nan  nan  nan],nan,nan,nan,739.9484318,937.2154915,937.9129505,nan,nan
0,181,15:19:22:981000,6,1,101,71.015625,[ 1.         -0.27357267 -0.44615261],1,1,1,0.587673853,1,0,0,0.548143614,0.331690138,0.120929936,0.452620074,0.210760203,nan,-0.279489391,128,[ 1.         -0.31066301 -0.15668979],nan,19.26386439,3.400726087,739.9484318,938.1572785,938.7449523,939.9824528,943.3912289
0,182,15:19:23:917000,6,1,274,192.65625,[ 0.28934405  0.32290089  0.63267027],1,1,1,0.643111409,0,0,0,0.6427481,0.333144591,0.122111256,0.455255847,0.211033335,nan,nan,nan,[ nan  nan  nan],nan,nan,nan,739.9484318,944.5497339,945.1928453,nan,nan
0,183,15:19:24:853000,6,0,334,234.84375,[-0.15279655  0.45446705  0.2855764 ],0,0,1,0.501248158,0,0,0,0.577344473,0.334895816,0.123962373,0.458858189,0.210933443,nan,nan,nan,[ nan  nan  nan],nan,nan,nan,739.9484318,945.491562,945.9928101,nan,nan
0,184,15:19:25:805000,6,1,442,310.78125,[ 0.27390726  0.42109554 -1.        ],1,1,1,0.343453071,0,0,0,0.495937546,0.33583038,0.124237409,0.460067789,0.211592971,nan,nan,nan,[ nan  nan  nan],nan,nan,nan,739.9484318,946.4333544,946.7768075,nan,nan
0,185,15:19:26:741000,6,1,499,350.859375,[ 0.73983189  0.26382776 -1.        ],1,1,1,0.281650135,0,0,0,0.375450455,0.335872965,0.123891194,0.459764158,0.211981771,nan,nan,nan,[ nan  nan  nan],nan,nan,nan,739.9484318,947.3751397,947.6567898,nan,nan
0,186,15:19:27:692000,6,1,257,180.703125,[ 0.4704729   0.26103985  0.65584138],1,1,1,0.283843392,0,0,0,0.302982199,0.335571727,0.123612292,0.459184019,0.211959434,nan,nan,nan,[ nan  nan  nan],nan,nan,nan,739.9484318,948.3169304,948.6007738,nan,nan
0,187,15:19:28:628000,6,1,22,15.46875,[ 1.          0.11184242 -1.        ],1,1,1,0.326031883,0,0,0,0.297175137,0.335285935,0.123329967,0.458615902,0.211955968,nan,nan,nan,[ nan  nan  nan],nan,nan,nan,739.9484318,949.25872,949.5847519,nan,nan
0,188,15:19:29:564000,6,1,88,61.875,[ 1.         -0.22525759 -0.59993285],1,1,1,0.376271821,0,0,0,0.328715699,0.335235088,0.122992584,0.458227672,0.212242504,nan,nan,nan,[ nan  nan  nan],nan,nan,nan,739.9484318,950.2004711,950.5767429,nan,nan
0,189,15:19:30:516000,6,1,193,135.703125,[ 1.         -0.05804539  0.42865879],1,1,1,0.58641372,0,0,0,0.429572475,0.335459333,0.12269338,0.458152713,0.212765953,nan,nan,nan,[ nan  nan  nan],nan,nan,nan,739.9484318,951.1422963,951.72871,nan,nan
0,190,15:19:31:452000,6,1,244,171.5625,[ 0.61137236  0.20616355  0.64888072],1,1,1,0.436658676,0,0,1,0.466448073,0.336823215,0.123742734,0.460565949,0.213080481,nan,nan,nan,[ nan  nan  nan],nan,nan,nan,739.9484318,952.0840503,952.5207089,nan,nan
0,191,15:19:36:787000,6,1,428,300.9375,[ 0.17037832  0.44348657 -0.8686614 ],1,1,1,0.254813877,1,0,0,0.425962091,0.337362866,0.123624756,0.460987623,0.21373811,nan,156.2092261,418,[ 0.10117589  0.45596175 -0.66167931],nan,-7.146726134,2.350703108,739.9484318,953.0258732,953.2806871,954.8427147,957.2013526
0,192,15:19:37:723000,6,1,257,180.703125,[ 0.4704729   0.26103985  0.65584138],1,1,1,0.424701103,0,0,0,0.372057886,0.336919055,0.123439672,0.460358726,0.213479383,nan,nan,nan,[ nan  nan  nan],nan,nan,nan,739.9484318,958.3598949,958.7845961,nan,nan
0,193,15:19:38:675000,6,1,474,333.28125,[ 0.53090176  0.34654538 -1.        ],1,1,1,0.250889505,0,0,0,0.310134828,0.337388477,0.123275528,0.460664006,0.214112949,nan,nan,nan,[ nan  nan  nan],nan,nan,nan,739.9484318,959.3016885,959.552578,nan,nan
0,194,15:19:39:611000,6,0,302,212.34375,[ 0.02708608  0.40030084  0.51777002],0,1,0,0.277084008,0,0,0,0.317558206,0.336928376,0.123108115,0.460036492,0.213820261,nan,nan,nan,[ nan  nan  nan],nan,nan,nan,739.9484318,960.2434818,960.5205658,nan,nan
0,195,15:19:40:562000,6,1,94,66.09375,[ 1.         -0.24943901 -0.52674516],1,1,1,0.311270088,0,0,0,0.279747867,0.33661174,0.122858733,0.459470473,0.213753006,nan,nan,nan,[ nan  nan  nan],nan,nan,nan,739.9484318,961.1852694,961.4965395,nan,nan
0,196,15:19:41:498000,6,1,473,332.578125,[ 0.52259481  0.34939617 -1.        ],1,1,1,0.417470452,0,0,0,0.335274849,0.336478362,0.122548713,0.459027075,0.213929649,nan,nan,nan,[ nan  nan  nan],nan,nan,nan,739.9484318,962.1270581,962.5445286,nan,nan
0,197,15:19:42:434000,6,1,338,237.65625,[-0.16289136  0.45892871  0.25039916],1,1,1,0.283683738,0,0,0,0.337474759,0.336902405,0.122367161,0.459269566,0.214535244,nan,nan,nan,[ nan  nan  nan],nan,nan,nan,739.9484318,963.0688394,963.3525232,nan,nan
0,198,15:19:43:386000,6,1,140,98.4375,[ 1.         -0.29420925 -0.03457774],1,1,1,0.349869482,0,0,0,0.350341224,0.336625224,0.122108183,0.458733407,0.214517042,nan,nan,nan,[ nan  nan  nan],nan,nan,nan,739.9484318,964.0106324,964.3605019,nan,nan
0,199,15:19:44:322000,6,1,81,56.953125,[ 1.         -0.19380425 -0.69421917],1,1,1,0.312059809,0,0,0,0.315204343,0.336693847,0.121795141,0.458488989,0.214898706,nan,nan,nan,[ nan  nan  nan],nan,nan,nan,739.9484318,964.9524203,965.2644801,nan,nan
0,200,15:19:45:258000,6,1,487,342.421875,[ 0.63952974  0.30629503 -1.        ],1,1,1,0.258257003,0,0,0,0.306728765,0.336566868,0.121493638,0.458060506,0.21507323,nan,nan,nan,[ nan  nan  nan],nan,nan,nan,739.9484318,965.8942079,966.1524649,nan,nan
0,201,15:19:46:209000,6,1,295,207.421875,[ 0.08602229  0.38372732  0.55498608],1,1,1,0.212454898,0,0,0,0.260923903,0.336165279,0.121310739,0.457476017,0.21485454,nan,nan,nan,[ nan  nan  nan],nan,nan,nan,739.9484318,966.8359972,967.0484521,nan,nan
0,202,15:19:47:145000,6,1,42,29.53125,[ 1.          0.00954879 -1.        ],1,1,1,0.206640898,0,0,0,0.225784266,0.335534103,0.12132146,0.456855564,0.214212643,nan,nan,nan,[ nan  nan  nan],nan,nan,nan,739.9484318,967.7777814,967.9844223,nan,nan
0,203,15:19:48:081000,6,1,356,250.3125,[-0.17284378  0.47323941  0.07883681],1,1,1,0.224874899,0,0,0,0.214656898,0.334879823,0.121359325,0.456239148,0.213520498,nan,nan,nan,[ nan  nan  nan],nan,nan,nan,739.9484318,968.7195441,968.944419,nan,nan
0,204,15:19:49:033000,6,1,226,158.90625,[ 0.80126593  0.12020899  0.60458277],1,1,1,0.291037551,0,0,0,0.240851116,0.334324243,0.121303377,0.45562762,0.213020865,nan,nan,nan,[ nan  nan  nan],nan,nan,nan,739.9484318,969.6613676,969.9524052,nan,nan
0,205,15:19:49:969000,6,1,458,322.03125,[ 0.39968805  0.38805021 -1.        ],1,1,1,0.253233865,0,0,0,0.256382105,0.334106722,0.121036918,0.45514364,0.213069803,nan,nan,nan,[ nan  nan  nan],nan,nan,nan,739.9484318,970.603153,970.8563868,nan,nan
0,206,15:19:50:921000,6,1,21,14.765625,[ 1.        0.116714 -1.      ],1,1,1,0.359426246,0,0,0,0.301232554,0.333702357,0.120868625,0.454570982,0.212833732,nan,nan,nan,[ nan  nan  nan],nan,nan,nan,739.9484318,971.5449383,971.9043645,nan,nan
0,207,15:19:51:857000,6,1,455,319.921875,[ 0.37560825  0.39487537 -1.        ],1,1,1,0.305618879,0,0,0,0.306092997,0.333830337,0.120581166,0.454411503,0.213249171,nan,nan,nan,[ nan  nan  nan],nan,nan,nan,739.9484318,972.486729,972.7923479,nan,nan
0,208,15:19:52:793000,6,1,365,256.640625,[-0.15796203  0.47701659 -0.01391969],1,1,1,0.211813998,0,0,0,0.292286374,0.333690676,0.120298623,0.453989299,0.213392053,nan,nan,nan,[ nan  nan  nan],nan,nan,nan,739.9484318,973.428522,973.640336,nan,nan
0,209,15:19:53:744000,6,1,216,151.875,[ 0.90097501  0.06822711  0.56342658],1,1,1,0.254009616,0,0,0,0.257147497,0.333090298,0.12030495,0.453395248,0.212785349,nan,nan,nan,[ nan  nan  nan],nan,nan,nan,739.9484318,974.3703002,974.6243098,nan,nan
0,210,15:19:54:680000,6,1,151,106.171875,[ 1.         -0.26272029  0.07346267],1,1,1,0.216197377,0,0,0,0.22734033,0.332702648,0.12013675,0.452839399,0.212565898,nan,nan,nan,[ nan  nan  nan],nan,nan,nan,739.9484318,975.3120983,975.5282957,nan,nan
0,211,15:19:55:616000,6,1,90,63.28125,[ 1.         -0.23363579 -0.57497187],1,1,1,0.322397741,0,0,0,0.264201578,0.33213433,0.120117958,0.452252288,0.212016372,nan,nan,nan,[ nan  nan  nan],nan,nan,nan,739.9484318,976.2538882,976.5762859,nan,nan
0,212,15:19:56:568000,6,1,259,182.109375,[ 0.44882283  0.26890698  0.65501178],1,1,1,0.308593305,0,0,0,0.282396141,0.332087065,0.119827966,0.45191503,0.212259099,nan,nan,nan,[ nan  nan  nan],nan,nan,nan,739.9484318,977.1956715,977.5042648,nan,nan
0,213,15:19:57:504000,6,1,472,331.875,[ 0.51429865  0.35221228 -1.        ],1,1,1,0.278786327,0,0,0,0.303259124,0.331973568,0.119549275,0.451522843,0.212424294,nan,nan,nan,[ nan  nan  nan],nan,nan,nan,739.9484318,978.1374573,978.4162437,nan,nan
0,214,15:19:58:455000,6,1,187,131.484375,[ 1.         -0.09124635  0.38538321],1,1,1,0.336975078,0,0,0,0.308118237,0.33171786,0.119318282,0.451036142,0.212399578,nan,nan,nan,[ nan  nan  nan],nan,nan,nan,739.9484318,979.0792492,979.4162243,nan,nan
0,215,15:19:59:391000,6,1,231,162.421875,[ 0.74960968  0.14515127  0.62082146],1,1,1,0.403156546,0,0,0,0.339639317,0.331743014,0.119033042,0.450776056,0.212709972,nan,nan,nan,[ nan  nan  nan],nan,nan,nan,739.9484318,980.0210377,980.4241942,nan,nan
0,216,15:20:00:327000,6,1,372,261.5625,[-0.13866002  0.47845887 -0.08881238],1,1,1,0.437355455,0,0,0,0.392495693,0.332083079,0.118851015,0.450934094,0.213232064,nan,nan,nan,[ nan  nan  nan],nan,nan,nan,739.9484318,980.9628281,981.4001835,nan,nan
0,217,15:20:01:279000,6,1,29,20.390625,[ 1.          0.07701739 -1.        ],1,1,1,0.319558167,0,0,0,0.386690056,0.332582,0.118789275,0.451371275,0.213792726,nan,nan,nan,[ nan  nan  nan],nan,nan,nan,739.9484318,981.9046214,982.2241795,nan,nan
0,218,15:20:02:215000,6,0,277,194.765625,[ 0.25847065  0.33263616  0.62482424],0,1,0,0.281760468,0,0,0,0.346224697,0.332520567,0.11851214,0.451032707,0.214008427,nan,nan,nan,[ nan  nan  nan],nan,nan,nan,739.9484318,982.8464084,983.1281689,nan,nan
0,219,15:20:03:151000,6,1,328,230.625,[-0.13215956  0.44685797  0.33604616],1,1,1,0.315956526,0,0,0,0.305758387,0.332282257,0.11828452,0.450566776,0.213997737,nan,nan,nan,[ nan  nan  nan],nan,nan,nan,739.9484318,983.788188,984.1041445,nan,nan
0,220,15:20:04:103000,6,1,463,325.546875,[ 0.44023832  0.3760118  -1.        ],1,1,1,0.270152995,0,0,0,0.289289996,0.332205968,0.118013083,0.450219051,0.214192886,nan,nan,nan,[ nan  nan  nan],nan,nan,nan,739.9484318,984.7299841,985.0001371,nan,nan
0,221,15:20:05:039000,6,0,406,285.46875,[ 0.02449675  0.4672457  -0.4893661 ],0,1,0,0.256343997,0,0,0,0.280817839,0.33191735,0.117813993,0.449731342,0.214103357,nan,nan,nan,[ nan  nan  nan],nan,nan,nan,739.9484318,985.6717729,985.9281169,nan,nan
0,222,15:20:05:990000,6,1,95,66.796875,[ 1.         -0.25317502 -0.51497544],1,1,1,0.2825251,0,0,0,0.269674031,0.331567473,0.117652862,0.449220335,0.213914611,nan,nan,nan,[ nan  nan  nan],nan,nan,nan,739.9484318,986.6135624,986.8960875,nan,nan
0,223,15:20:06:926000,6,0,371,260.859375,[-0.14179361  0.47833194 -0.07797326],0,1,0,0.276729346,0,0,0,0.271866148,0.331341471,0.117428444,0.448769916,0.213913027,nan,nan,nan,[ nan  nan  nan],nan,nan,nan,739.9484318,987.5553509,987.8320802,nan,nan
0,224,15:20:07:862000,6,1,245,172.265625,[ 0.6005777   0.21061011  0.65017283],1,1,1,0.478918442,0,0,0,0.346057629,0.331090957,0.117216908,0.448307865,0.213874049,nan,nan,nan,[ nan  nan  nan],nan,nan,nan,739.9484318,988.4971382,988.9760566,nan,nan
0,225,15:20:08:814000,6,1,153,107.578125,[ 1.         -0.25554786  0.09262139],1,1,1,0.425111074,0,0,0,0.393586287,0.331765968,0.117372886,0.449138854,0.214393082,nan,nan,nan,[ nan  nan  nan],nan,nan,nan,739.9484318,989.4389318,989.8640428,nan,nan
0,226,15:20:09:750000,6,1,410,288.28125,[ 0.04920468  0.46392153 -0.54316189],1,1,1,0.499302936,0,0,1,0.467777484,0.332190264,0.117274039,0.449464304,0.214916225,nan,nan,nan,[ nan  nan  nan],nan,nan,nan,739.9484318,990.3807168,990.8800197,nan,nan
0,227,15:20:15:943000,6,1,136,95.625,[ 1.         -0.3019149  -0.07484121],1,1,1,0.61348889,1,0,0,0.5126343,0.33294643,0.117544722,0.450491153,0.215401708,nan,14.45242825,107,[ 1.         -0.29008977 -0.37959278],nan,-20.07742825,3.209046268,739.9484318,991.3225126,991.9360015,993.1476835,996.3647596
0,228,15:20:16:879000,6,1,408,286.875,[ 0.03673793  0.46563766 -0.51593845],1,1,1,0.588920585,0,0,0,0.567237471,0.334210135,0.118774787,0.452984922,0.215435348,nan,nan,nan,[ nan  nan  nan],nan,nan,nan,739.9484318,997.514975,998.1038956,nan,nan
0,229,15:20:17:831000,6,0,5,3.515625,[ 0.88714031  0.19065985 -1.        ],0,nan,nan,nan,0,0,0,0.601204738,0.335352334,0.119723905,0.455076239,0.21562843,nan,nan,nan,[ nan  nan  nan],nan,nan,nan,739.9484318,998.4567626,nan,nan,nan
0,230,15:20:18:767000,6,1,305,214.453125,[ 0.00361193  0.40685925  0.50019691],1,1,1,0.521308781,0,0,0,0.555114683,0.335352334,0.119723905,0.455076239,0.21562843,nan,nan,nan,[ nan  nan  nan],nan,nan,nan,739.9484318,999.3985502,999.919859,nan,nan
0,231,15:20:19:703000,6,1,49,34.453125,[ 1.         -0.02778543 -1.        ],1,1,1,0.307505371,0,0,0,0.414407076,0.336182497,0.12009791,0.456280407,0.216084587,nan,nan,nan,[ nan  nan  nan],nan,nan,nan,739.9484318,1000.34034,1000.647846,nan,nan
0,232,15:20:20:654000,6,1,193,135.703125,[ 1.         -0.05804539  0.42865879],1,1,1,0.18170054,0,0,0,0.336838231,0.336055043,0.119845911,0.455900954,0.216209132,nan,nan,nan,[ nan  nan  nan],nan,nan,nan,739.9484318,1001.28213,1001.463831,nan,nan
0,233,15:20:21:590000,6,1,380,267.1875,[-0.10951951  0.47853303 -0.17717739],1,1,1,0.151902686,0,1,0,0.213702866,0.335372059,0.120018517,0.455390575,0.215353542,nan,nan,nan,[ nan  nan  nan],nan,nan,nan,739.9484318,1002.223917,1002.37582,nan,nan
0,234,15:20:27:503000,6,1,273,191.953125,[ 0.29973296  0.31957719  0.63503803],1,1,1,0.074074972,1,0,0,0.135892733,0.334563823,0.120368691,0.454932514,0.214195132,nan,-85.40319247,249,[ 0.55727555  0.22802627  0.65408488],nan,-16.54993253,2.917330755,739.9484318,1003.165727,1003.239802,1004.999219,1007.924593
0,235,15:20:28:439000,6,1,35,24.609375,[ 1.          0.04626536 -1.        ],1,1,1,0.556897543,0,0,0,0.2609584,0.333421329,0.121331682,0.454753011,0.212089646,nan,nan,nan,[ nan  nan  nan],nan,nan,nan,739.9484318,1009.074802,1009.6317,nan,nan
0,236,15:20:29:390000,6,1,234,164.53125,[ 0.71814775  0.15974031  0.6291316 ],1,1,1,0.343080733,0,0,0,0.324684416,0.334397207,0.121959932,0.456357139,0.212437276,nan,nan,nan,[ nan  nan  nan],nan,nan,nan,739.9484318,1010.016598,1010.359678,nan,nan
0,237,15:20:30:326000,6,1,384,270,[-0.09247501  0.47794532 -0.22247927],1,1,1,0.241284845,0,0,0,0.38042104,0.334434962,0.121695854,0.456130815,0.212739108,nan,nan,nan,[ nan  nan  nan],nan,nan,nan,739.9484318,1010.958384,1011.199669,nan,nan
0,238,15:20:31:278000,6,1,227,159.609375,[ 0.79101995  0.12525779  0.60806671],1,1,1,0.211447362,0,0,0,0.26527098,0.334031714,0.121586055,0.455617769,0.21244566,nan,nan,nan,[ nan  nan  nan],nan,nan,nan,739.9484318,1011.90019,1012.111638,nan,nan
0,239,15:20:32:214000,6,1,111,78.046875,[ 1.         -0.29867781 -0.33610624],1,1,1,0.133666119,0,1,0,0.195466108,0.333503334,0.121589227,0.455092561,0.211914106,nan,nan,nan,[ nan  nan  nan],nan,nan,nan,739.9484318,1012.841964,1012.97563,nan,nan
0,240,15:20:37:222000,6,1,249,175.078125,[ 0.55727555  0.22802627  0.65408488],1,1,1,0.087895089,1,0,0,0.14433619,0.332645663,0.122029294,0.454674957,0.210616369,nan,-99.23990182,269,[ 0.34171297  0.30588835  0.64326235],nan,14.16177682,2.025556739,739.9484318,1013.783747,1013.871642,1015.608925,1017.642525
0,241,15:20:38:158000,6,1,396,278.4375,[-0.03301537  0.47368488 -0.36352378],1,1,1,0.4148256,0,0,0,0.212128936,0.33159972,0.122810473,0.454410194,0.208789247,nan,nan,nan,[ nan  nan  nan],nan,nan,nan,739.9484318,1018.792698,1019.207524,nan,nan
0,242,15:20:39:109000,6,1,120,84.375,[ 1.         -0.3101615  -0.24016291],1,1,1,0.28099384,0,0,0,0.261238176,0.331953873,0.122668582,0.454622456,0.209285291,nan,nan,nan,[ nan  nan  nan],nan,nan,nan,739.9484318,1019.73451,1020.015504,nan,nan
0,243,15:20:40:045000,6,1,433,304.453125,[ 0.2065363   0.43616372 -1.        ],1,1,1,0.283181395,0,0,0,0.326333612,0.331737941,0.122453164,0.454191105,0.209284776,nan,nan,nan,[ nan  nan  nan],nan,nan,nan,739.9484318,1020.676311,1020.959492,nan,nan
0,244,15:20:40:981000,6,1,314,220.78125,[-0.05944389  0.42463231  0.44192541],1,1,1,0.109354402,0,0,0,0.224509879,0.331533061,0.122235079,0.45376814,0.209297981,nan,nan,nan,[ nan  nan  nan],nan,nan,nan,739.9484318,1021.618117,1021.727472,nan,nan
0,245,15:20:41:933000,6,1,444,312.1875,[ 0.2892412   0.41740978 -1.        ],1,1,1,0.191577184,0,1,0,0.194704327,0.330599537,0.122821713,0.45342125,0.207777824,nan,nan,nan,[ nan  nan  nan],nan,nan,nan,739.9484318,1022.559888,1022.751465,nan,nan
0,246,15:20:46:488000,6,1,485,341.015625,[ 0.62277456  0.31287562 -1.        ],1,1,1,0.113787388,1,0,0,0.138239658,0.330017854,0.122892571,0.452910424,0.207125283,nan,125.9017709,461,[ 0.42395965  0.38092737 -1.        ],nan,-16.91739585,1.567185298,739.9484318,1023.501674,1023.615461,1025.326852,1026.902076
0,247,15:20:47:424000,6,1,116,81.5625,[ 1.         -0.30644692 -0.28251544],1,nan,nan,nan,0,0,0,0.152682286,0.329116893,0.123424713,0.452541607,0.20569218,nan,nan,nan,[ nan  nan  nan],nan,nan,nan,739.9484318,1028.060623,nan,nan,nan
0,248,15:20:48:376000,6,1,244,171.5625,[ 0.61137236  0.20616355  0.64888072],1,1,1,0.476923612,0,0,0,0.2953555,0.329116893,0.123424713,0.452541607,0.20569218,nan,nan,nan,[ nan  nan  nan],nan,nan,nan,739.9484318,1029.002391,1029.479314,nan,nan
0,249,15:20:49:312000,6,1,472,331.875,[ 0.51429865  0.35221228 -1.        ],1,1,1,0.29516035,0,0,0,0.386041981,0.329730199,0.123534304,0.453264503,0.206195895,nan,nan,nan,[ nan  nan  nan],nan,nan,nan,739.9484318,1029.944176,1030.239337,nan,nan
0,250,15:20:50:263000,6,0,305,214.453125,[ 0.00361193  0.40685925  0.50019691],0,1,0,0.249348837,0,0,0,0.3404776,0.329587349,0.123298748,0.452886097,0.2062886,nan,nan,nan,[ nan  nan  nan],nan,nan,nan,739.9484318,1030.88597,1031.135319,nan,nan
0,251,15:20:51:199000,6,1,457,321.328125,[ 0.39163925  0.39035818 -1.        ],1,nan,nan,nan,0,0,0,0.272254594,0.329257149,0.123151959,0.452409108,0.20610519,nan,nan,nan,[ nan  nan  nan],nan,nan,nan,739.9484318,1031.827745,nan,nan,nan
0,252,15:20:52:135000,6,1,381,267.890625,[-0.10540306  0.47842508 -0.18843114],1,1,1,0.117739699,0,0,0,0.183544268,0.329257149,0.123151959,0.452409108,0.20610519,nan,nan,nan,[ nan  nan  nan],nan,nan,nan,739.9484318,1032.76955,1032.88729,nan,nan
0,253,15:20:53:087000,6,1,189,132.890625,[ 1.         -0.08021946  0.40014347],1,1,1,0.03195747,0,0,0,0.074848585,0.328390274,0.123640023,0.452030297,0.204750251,nan,nan,nan,[ nan  nan  nan],nan,nan,nan,739.9484318,1033.711331,1033.743289,nan,nan
0,254,15:20:54:023000,6,1,138,97.03125,[ 1.         -0.29832988 -0.05465081],1,1,1,0.202078477,0,1,0,0.117258549,0.327180344,0.124826515,0.452006859,0.202353829,nan,nan,nan,[ nan  nan  nan],nan,nan,nan,739.9484318,1034.653166,1034.855245,nan,nan
0,255,15:20:58:734000,6,0,21,14.765625,[ 1.        0.116714 -1.      ],0,0,1,0.48427714,1,0,0,0.239437696,0.3266718,0.1248266,0.4514984,0.201845201,nan,66.17905169,34,[ 1.          0.05144197 -1.        ],nan,9.055323305,1.725453077,739.9484318,1035.594929,1036.079206,1037.411751,1039.145318
0,256,15:20:59:670000,6,1,447,314.296875,[ 0.31246764  0.41164647 -1.        ],1,1,1,0.471289794,0,0,0,0.385881804,0.327309878,0.124975012,0.452284891,0.202334866,nan,nan,nan,[ nan  nan  nan],nan,nan,nan,739.9484318,1040.303853,1040.775142,nan,nan
0,257,15:21:00:622000,6,1,86,60.46875,[ 1.         -0.21659106 -0.6256178 ],1,1,1,0.401482452,0,0,0,0.452349795,0.327890443,0.125056097,0.452946539,0.202834346,nan,nan,nan,[ nan  nan  nan],nan,nan,nan,739.9484318,1041.245642,1041.647124,nan,nan
0,258,15:21:01:558000,6,1,246,172.96875,[ 0.58976884  0.2150199   0.65133953],1,1,1,0.355678921,0,0,0,0.409483722,0.328185993,0.124891484,0.453077477,0.203294509,nan,nan,nan,[ nan  nan  nan],nan,nan,nan,739.9484318,1042.187432,1042.543111,nan,nan
0,259,15:21:02:494000,6,1,464,326.25,[ 0.44840488  0.37350356 -1.        ],1,1,1,0.277826973,0,0,0,0.344996115,0.328295965,0.12465353,0.452949495,0.203642434,nan,nan,nan,[ nan  nan  nan],nan,nan,nan,739.9484318,1043.129255,1043.407082,nan,nan
0,260,15:21:03:445000,6,1,98,68.90625,[ 1.         -0.26382291 -0.48021779],1,1,1,0.176069573,0,0,0,0.269858489,0.328094893,0.124445585,0.452540478,0.203649308,nan,nan,nan,[ nan  nan  nan],nan,nan,nan,739.9484318,1044.07101,1044.24708,nan,nan
0,261,15:21:04:381000,6,1,282,198.28125,[ 0.20814231  0.34807905  0.6092955 ],1,1,1,0.162262856,0,0,0,0.205386467,0.327491618,0.124565636,0.452057254,0.202925982,nan,nan,nan,[ nan  nan  nan],nan,nan,nan,739.9484318,1045.012797,1045.17506,nan,nan
0,262,15:21:05:333000,6,1,443,311.484375,[ 0.28155878  0.41926821 -1.        ],1,1,1,0.23644759,0,1,0,0.19159334,0.32683854,0.124750743,0.451589283,0.202087796,nan,nan,nan,[ nan  nan  nan],nan,nan,nan,739.9484318,1045.954587,1046.191034,nan,nan
0,263,15:21:06:269000,6,0,394,277.03125,[-0.04370902  0.47465593 -0.33940142],0,1,0,0.198643334,0,0,0,0.199117926,0.32648267,0.124633535,0.451116205,0.201849135,nan,nan,nan,[ nan  nan  nan],nan,nan,nan,739.9484318,1046.89638,1047.095023,nan,nan
0,264,15:21:07:205000,6,1,168,118.125,[ 1.         -0.19079002  0.2303618 ],1,1,1,0.336841937,0,0,0,0.257310954,0.325981339,0.12464526,0.450626599,0.201336079,nan,nan,nan,[ nan  nan  nan],nan,nan,nan,739.9484318,1047.838167,1048.175008,nan,nan
0,265,15:21:08:156000,6,1,434,305.15625,[ 0.21388182  0.43461034 -1.        ],1,1,1,0.24303335,0,0,0,0.259506207,0.326023763,0.124403419,0.450427182,0.201620345,nan,nan,nan,[ nan  nan  nan],nan,nan,nan,739.9484318,1048.779955,1049.022988,nan,nan
0,266,15:21:09:092000,6,1,192,135,[ 1.         -0.06359976  0.42165841],1,1,1,0.237231039,0,0,0,0.272368775,0.325700843,0.124268607,0.449969451,0.201432236,nan,nan,nan,[ nan  nan  nan],nan,nan,nan,739.9484318,1049.721742,1049.958973,nan,nan
0,267,15:21:10:028000,6,1,387,272.109375,[-0.07872193  0.47723176 -0.25697445],1,1,1,0.175428958,0,0,0,0.218564449,0.325357937,0.124149308,0.449507245,0.201208629,nan,nan,nan,[ nan  nan  nan],nan,nan,nan,739.9484318,1050.663528,1050.838957,nan,nan
0,268,15:21:10:980000,6,1,180,126.5625,[ 1.         -0.12927862  0.33123896],1,1,1,0.025598363,0,1,0,0.14608612,0.324779061,0.124257781,0.449036842,0.20052128,nan,nan,nan,[ nan  nan  nan],nan,nan,nan,739.9484318,1051.605322,1051.630921,nan,nan
0,269,15:21:17:064000,6,1,37,26.015625,[ 1.          0.03585655 -1.        ],1,1,1,0.003803775,1,0,0,0.068277032,0.323628366,0.125393593,0.449021959,0.198234773,nan,59.03624347,44,[ 1.         -0.00106984 -1.        ],nan,4.948131532,3.092361716,739.9484318,1052.547114,1052.550918,1054.372308,1057.472729
0,270,15:21:18:000000,6,1,133,93.515625,[ 1.         -0.30625957 -0.10533643],1,1,1,0.359586756,0,0,0,0.129662965,0.322402984,0.126703257,0.449106241,0.195699728,nan,nan,nan,[ nan  nan  nan],nan,nan,nan,739.9484318,1058.631231,1058.990818,nan,nan
0,271,15:21:18:952000,6,0,392,275.625,[-0.05410679  0.47552228 -0.31554984],0,1,0,0.201782831,0,0,0,0.188391121,0.322544907,0.126482009,0.449026916,0.196062898,nan,nan,nan,[ nan  nan  nan],nan,nan,nan,739.9484318,1059.573019,1059.774802,nan,nan
0,272,15:21:19:888000,6,1,209,146.953125,[ 0.96730184  0.03048352  0.52805   ],1,1,1,0.19597995,0,0,0,0.252449846,0.322085736,0.126459916,0.448545652,0.195625819,nan,nan,nan,[ nan  nan  nan],nan,nan,nan,739.9484318,1060.514812,1060.710792,nan,nan
0,273,15:21:20:824000,6,1,370,260.15625,[-0.144806    0.47817873 -0.06718033],1,1,1,0.350161993,0,0,0,0.249308258,0.321608062,0.126457675,0.448065737,0.195150387,nan,nan,nan,[ nan  nan  nan],nan,nan,nan,739.9484318,1061.456598,1061.80676,nan,nan
0,274,15:21:21:775000,6,1,298,209.53125,[ 0.06008966  0.39105034  0.53969689],1,1,1,0.176365505,0,0,0,0.240835816,0.321715813,0.126230991,0.447946804,0.195484822,nan,nan,nan,[ nan  nan  nan],nan,nan,nan,739.9484318,1062.398386,1062.574752,nan,nan
0,275,15:21:22:711000,6,1,132,92.8125,[ 1.         -0.30742683 -0.11555536],1,1,1,0.482553724,0,0,0,0.336360407,0.321169383,0.126307106,0.447476489,0.194862277,nan,nan,nan,[ nan  nan  nan],nan,nan,nan,739.9484318,1063.340177,1063.822731,nan,nan
0,276,15:21:23:647000,6,1,503,353.671875,[ 0.7730202   0.24853846 -1.        ],1,1,1,0.652735457,0,0,0,0.437218228,0.321773819,0.126455191,0.44822901,0.195318628,nan,nan,nan,[ nan  nan  nan],nan,nan,nan,739.9484318,1064.281962,1064.934697,nan,nan
0,277,15:21:24:599000,6,1,342,240.46875,[-0.17005262  0.46291356  0.21407524],1,1,1,0.734936001,0,0,1,0.623408394,0.32300875,0.127821898,0.450830648,0.195186852,nan,nan,nan,[ nan  nan  nan],nan,nan,nan,739.9484318,1065.223754,1065.95869,nan,nan
0,278,15:21:32:929000,6,1,55,38.671875,[ 1.         -0.05999965 -1.        ],1,1,1,0.713107772,1,0,0,0.700259743,0.324540078,0.130023654,0.454563733,0.194516424,nan,76.6908213,19,[ 0.99625917  0.12637453 -1.        ],nan,-25.3626963,5.350985925,739.9484318,1066.16554,1066.878648,1067.990718,1073.349742
0,279,15:21:33:865000,6,1,237,166.640625,[ 0.6863873   0.17403185  0.63634982],1,1,1,0.442581869,0,0,0,0.630208547,0.325979218,0.131911589,0.457890807,0.194067629,nan,nan,nan,[ nan  nan  nan],nan,nan,nan,739.9484318,1074.499955,1074.942537,nan,nan
0,280,15:21:34:817000,6,1,333,234.140625,[-0.14981348  0.45327595  0.29418374],1,1,1,0.300761382,0,0,0,0.485483674,0.326409486,0.131857664,0.45826715,0.194551822,nan,nan,nan,[ nan  nan  nan],nan,nan,nan,739.9484318,1075.441747,1075.742508,nan,nan
0,281,15:21:35:753000,6,1,450,316.40625,[ 0.33594973  0.40559833 -1.        ],1,1,1,0.254974672,0,0,0,0.332772641,0.326315192,0.131624209,0.457939401,0.194690983,nan,nan,nan,[ nan  nan  nan],nan,nan,nan,739.9484318,1076.383533,1076.638507,nan,nan
0,282,15:21:36:704000,6,1,88,61.875,[ 1.         -0.22525759 -0.59993285],1,1,1,0.201158752,0,0,0,0.252298269,0.326053871,0.131453587,0.457507458,0.194600284,nan,nan,nan,[ nan  nan  nan],nan,nan,nan,739.9484318,1077.325329,1077.526487,nan,nan
0,283,15:21:37:640000,6,1,176,123.75,[ 1.         -0.15042967  0.29867547],1,1,1,0.035426826,0,1,0,0.163853416,0.325598049,0.131429456,0.457027505,0.194168594,nan,nan,nan,[ nan  nan  nan],nan,nan,nan,739.9484318,1078.267104,1078.302531,nan,nan
0,284,15:21:41:884000,6,1,90,63.28125,[ 1.         -0.23363579 -0.57497187],1,1,1,0.181552574,1,0,0,0.139379384,0.324542881,0.132347854,0.456890735,0.192195028,nan,22.16634582,96,[ 1.         -0.25681952 -0.50330248],nan,4.552404178,1.250537409,739.9484318,1079.208904,1079.390457,1081.034076,1082.292572
0,285,15:21:42:820000,6,1,11,7.734375,[ 0.9346595  0.1638529 -1.       ],1,1,1,0.37929899,0,0,0,0.198759463,0.324024801,0.132386944,0.456411744,0.191637857,nan,nan,nan,[ nan  nan  nan],nan,nan,nan,739.9484318,1083.45108,1083.830379,nan,nan
0,286,15:21:43:771000,6,1,395,277.734375,[-0.03839842  0.47418351 -0.35142722],1,1,1,0.205448048,0,0,0,0.255433204,0.324224346,0.132189338,0.456413684,0.192035009,nan,nan,nan,[ nan  nan  nan],nan,nan,nan,739.9484318,1084.392904,1084.598352,nan,nan
0,287,15:21:44:707000,6,1,103,72.421875,[ 1.         -0.27953747 -0.42375884],1,1,1,0.247663623,0,0,0,0.277470221,0.323797094,0.132142838,0.455939932,0.191654255,nan,nan,nan,[ nan  nan  nan],nan,nan,nan,739.9484318,1085.334691,1085.582355,nan,nan
0,288,15:21:45:643000,6,1,328,230.625,[-0.13215956  0.44685797  0.33604616],1,1,1,0.209832568,0,0,0,0.220981413,0.323524214,0.131984256,0.455508469,0.191539958,nan,nan,nan,[ nan  nan  nan],nan,nan,nan,739.9484318,1086.276507,1086.48634,nan,nan
0,289,15:21:46:595000,6,1,87,61.171875,[ 1.         -0.22095901 -0.61267562],1,1,1,0.348044571,0,0,0,0.268513587,0.323118172,0.131922813,0.455040985,0.191195359,nan,nan,nan,[ nan  nan  nan],nan,nan,nan,739.9484318,1087.218272,1087.566317,nan,nan
0,290,15:21:47:531000,6,1,136,95.625,[ 1.         -0.3019149  -0.07484121],1,1,1,0.34224283,0,0,0,0.30003999,0.323206878,0.131696231,0.454903109,0.191510647,nan,nan,nan,[ nan  nan  nan],nan,nan,nan,739.9484318,1088.160056,1088.502298,nan,nan
0,291,15:21:48:467000,6,1,179,125.859375,[ 1.         -0.13461442  0.32320413],1,1,1,0.368405117,0,0,0,0.352897506,0.323274382,0.13146739,0.454741771,0.191806992,nan,nan,nan,[ nan  nan  nan],nan,nan,nan,739.9484318,1089.101863,1089.470268,nan,nan
0,292,15:21:49:418000,6,1,89,62.578125,[ 1.         -0.2294841  -0.58737049],1,1,1,0.402614005,0,0,0,0.371087317,0.323433854,0.131262231,0.454696085,0.192171624,nan,nan,nan,[ nan  nan  nan],nan,nan,nan,739.9484318,1090.043637,1090.446251,nan,nan
0,293,15:21:50:354000,6,1,227,159.609375,[ 0.79101995  0.12525779  0.60806671],1,1,1,0.316825219,0,0,0,0.36261478,0.323712657,0.131114846,0.454827504,0.192597811,nan,nan,nan,[ nan  nan  nan],nan,nan,nan,739.9484318,1090.985426,1091.302251,nan,nan
0,294,15:21:51:306000,6,1,285,200.390625,[ 0.17873435  0.35687868  0.59852701],1,1,1,0.263005307,0,0,0,0.32748151,0.323688491,0.130885252,0.454573743,0.192803239,nan,nan,nan,[ nan  nan  nan],nan,nan,nan,739.9484318,1091.927222,1092.190227,nan,nan
0,295,15:21:52:242000,6,0,77,54.140625,[ 1.         -0.17459302 -0.75626719],0,1,0,0.241206443,0,0,0,0.27367899,0.323476312,0.130705323,0.454181635,0.192770989,nan,nan,nan,[ nan  nan  nan],nan,nan,nan,739.9484318,1092.869002,1093.110208,nan,nan
0,296,15:21:53:178000,6,1,148,104.0625,[ 1.         -0.27269559  0.04442646],1,1,1,0.419392582,0,0,0,0.307868111,0.323189657,0.13056744,0.453757098,0.192622217,nan,nan,nan,[ nan  nan  nan],nan,nan,nan,739.9484318,1093.810793,1094.230186,nan,nan
0,297,15:21:54:130000,6,1,456,320.625,[ 0.38361243  0.39263319 -1.        ],1,1,1,0.317583579,0,0,0,0.326060868,0.323523695,0.130463353,0.453987048,0.193060343,nan,nan,nan,[ nan  nan  nan],nan,nan,nan,739.9484318,1094.752577,1095.07016,nan,nan
0,298,15:21:55:066000,6,0,335,235.546875,[-0.15559599  0.45562772  0.27689323],0,0,1,0.543782758,0,0,0,0.42691964,0.323503141,0.130237909,0.45374105,0.193265232,nan,nan,nan,[ nan  nan  nan],nan,nan,nan,739.9484318,1095.69437,1096.238153,nan,nan
0,299,15:21:56:002000,6,1,410,288.28125,[ 0.04920468  0.46392153 -0.54316189],1,1,1,0.273968744,0,0,0,0.378445027,0.324262726,0.130652852,0.454915578,0.193609874,nan,nan,nan,[ nan  nan  nan],nan,nan,nan,739.9484318,1096.636166,1096.910134,nan,nan
0,300,15:21:56:953000,6,1,27,18.984375,[ 1.          0.08709126 -1.        ],1,1,1,0.340178152,0,0,0,0.385976551,0.324089895,0.130461373,0.454551268,0.193628522,nan,nan,nan,[ nan  nan  nan],nan,nan,nan,739.9484318,1097.577949,1097.918127,nan,nan
0,301,15:21:57:889000,6,1,310,217.96875,[-0.03285454  0.41708073  0.46882802],1,1,1,0.286378482,0,0,0,0.300175126,0.324144991,0.13024118,0.454386171,0.193903811,nan,nan,nan,[ nan  nan  nan],nan,nan,nan,739.9484318,1098.519738,1098.806116,nan,nan
0,302,15:21:58:841000,6,1,102,71.71875,[ 1.         -0.27661034 -0.43492695],1,1,1,0.336567958,0,0,0,0.321041531,0.324016095,0.13003739,0.454053486,0.193978705,nan,nan,nan,[ nan  nan  nan],nan,nan,nan,739.9484318,1099.46153,1099.798098,nan,nan
0,303,15:21:59:777000,6,1,11,7.734375,[ 0.9346595  0.1638529 -1.       ],1,1,1,0.282758025,0,0,0,0.301901488,0.324058789,0.129818107,0.453876896,0.194240682,nan,nan,nan,[ nan  nan  nan],nan,nan,nan,739.9484318,1100.403316,1100.686074,nan,nan
0,304,15:22:00:713000,6,1,390,274.21875,[-0.06419603  0.4762842  -0.29194755],1,1,1,0.244953198,0,0,0,0.28809306,0.323918786,0.12962012,0.453538907,0.194298666,nan,nan,nan,[ nan  nan  nan],nan,nan,nan,739.9484318,1101.345106,1101.59006,nan,nan
0,305,15:22:01:664000,6,1,113,79.453125,[ 1.         -0.30219199 -0.31457635],1,1,1,0.311157474,0,0,0,0.279622899,0.323652011,0.12948208,0.453134091,0.19416993,nan,nan,nan,[ nan  nan  nan],nan,nan,nan,739.9484318,1102.286893,1102.59805,nan,nan
0,306,15:22:02:600000,6,1,501,352.265625,[ 0.75644923  0.25625354 -1.        ],1,1,1,0.297349902,0,0,0,0.284486858,0.323609942,0.12926594,0.452875881,0.194344002,nan,nan,nan,[ nan  nan  nan],nan,nan,nan,739.9484318,1103.228683,1103.526033,nan,nan
0,307,15:22:03:536000,6,1,443,311.484375,[ 0.28155878  0.41926821 -1.        ],1,1,1,0.259524263,0,0,0,0.28934388,0.323521821,0.129057804,0.452579624,0.194464017,nan,nan,nan,[ nan  nan  nan],nan,nan,nan,739.9484318,1104.17047,1104.429995,nan,nan
0,308,15:22:04:488000,6,1,313,220.078125,[-0.05302215  0.42279583  0.44879796],1,1,1,0.245748906,0,0,0,0.267541024,0.323307782,0.128894776,0.452202558,0.194413006,nan,nan,nan,[ nan  nan  nan],nan,nan,nan,739.9484318,1105.112245,1105.357994,nan,nan
0,309,15:22:05:424000,6,0,135,94.921875,[ 1.         -0.30350232 -0.08497887],0,1,0,0.239936617,0,0,0,0.248403262,0.323049252,0.128757401,0.451806653,0.194291852,nan,nan,nan,[ nan  nan  nan],nan,nan,nan,739.9484318,1106.054049,1106.293986,nan,nan
0,310,15:22:06:360000,6,1,366,257.34375,[-0.15559338  0.47730203 -0.02447665],1,1,1,0.490102259,0,0,0,0.325262594,0.322773131,0.128632279,0.45140541,0.194140851,nan,nan,nan,[ nan  nan  nan],nan,nan,nan,739.9484318,1106.995844,1107.485946,nan,nan
0,311,15:22:07:312000,6,1,56,39.375,[ 1.         -0.06536751 -1.        ],1,1,1,0.37233348,0,0,0,0.367457452,0.323327201,0.128778412,0.452105612,0.194548789,nan,nan,nan,[ nan  nan  nan],nan,nan,nan,739.9484318,1107.937615,1108.309949,nan,nan
0,312,15:22:08:248000,6,1,409,287.578125,[ 0.04294362  0.46479315 -0.52946185],1,1,1,0.174522062,0,0,0,0.3456526,0.323488938,0.12859645,0.452085388,0.194892487,nan,nan,nan,[ nan  nan  nan],nan,nan,nan,739.9484318,1108.879416,1109.053938,nan,nan
0,313,15:22:09:199000,6,1,173,121.640625,[ 1.         -0.16590952  0.27353519],1,1,1,0.384699883,0,0,0,0.310518475,0.322998915,0.128667812,0.451666727,0.194331103,nan,nan,nan,[ nan  nan  nan],nan,nan,nan,739.9484318,1109.821206,1110.205906,nan,nan
0,314,15:22:10:135000,6,1,422,296.71875,[ 0.12832838  0.45131367 -0.73089489],1,1,1,0.306900679,0,0,0,0.288707541,0.323201213,0.128505124,0.451706337,0.194696089,nan,nan,nan,[ nan  nan  nan],nan,nan,nan,739.9484318,1110.762996,1111.069896,nan,nan
0,315,15:22:11:071000,6,1,245,172.265625,[ 0.6005777   0.21061011  0.65017283],1,1,1,0.261089735,0,0,0,0.317563432,0.323147943,0.12829835,0.451446293,0.194849594,nan,nan,nan,[ nan  nan  nan],nan,nan,nan,739.9484318,1111.704783,1111.965873,nan,nan
0,316,15:22:12:023000,6,1,89,62.578125,[ 1.         -0.2294841  -0.58737049],1,1,1,0.279283538,0,0,0,0.282424651,0.322945799,0.128138024,0.451083823,0.194807775,nan,nan,nan,[ nan  nan  nan],nan,nan,nan,739.9484318,1112.646568,1112.925851,nan,nan
0,317,15:22:12:959000,6,1,204,143.4375,[ 1.          0.00303257  0.49965442],1,1,1,0.537490079,0,0,0,0.359287784,0.322804039,0.127953949,0.450757988,0.19485009,nan,nan,nan,[ nan  nan  nan],nan,nan,nan,739.9484318,1113.588356,1114.125846,nan,nan
0,318,15:22:13:895000,6,0,354,248.90625,[-0.17447067  0.47210079  0.09886772],0,0,1,0.379665911,0,0,0,0.398813176,0.323498816,0.128327334,0.45182615,0.195171481,nan,nan,nan,[ nan  nan  nan],nan,nan,nan,739.9484318,1114.530147,1114.909813,nan,nan
0,319,15:22:14:846000,6,1,444,312.1875,[ 0.2892412   0.41740978 -1.        ],1,1,1,0.285869868,0,0,0,0.401008619,0.32368,0.128159768,0.451839768,0.195520231,nan,nan,nan,[ nan  nan  nan],nan,nan,nan,739.9484318,1115.471937,1115.757807,nan,nan
0,320,15:22:15:782000,6,1,338,237.65625,[-0.16289136  0.45892871  0.25039916],1,1,1,0.288073389,0,0,0,0.317869722,0.323558424,0.127971462,0.451529886,0.195586962,nan,nan,nan,[ nan  nan  nan],nan,nan,nan,739.9484318,1116.413735,1116.701808,nan,nan
0,321,15:22:16:734000,6,0,390,274.21875,[-0.06419603  0.4762842  -0.29194755],0,0,1,0.434264425,0,0,0,0.336069227,0.32344469,0.127781957,0.451226647,0.195662733,nan,nan,nan,[ nan  nan  nan],nan,nan,nan,739.9484318,1117.355509,1117.789773,nan,nan
0,322,15:22:17:670000,6,1,303,213.046875,[ 0.01913493  0.40252284  0.51201836],1,1,1,0.308457598,0,0,0,0.343598471,0.323798746,0.127730861,0.451529607,0.196067886,nan,nan,nan,[ nan  nan  nan],nan,nan,nan,739.9484318,1118.297305,1118.605762,nan,nan
0,323,15:22:18:606000,6,1,469,329.765625,[ 0.4894822   0.36045336 -1.        ],1,1,1,0.35065008,0,0,0,0.364457368,0.323749889,0.127530235,0.451280124,0.196219655,nan,nan,nan,[ nan  nan  nan],nan,nan,nan,739.9484318,1119.239093,1119.589743,nan,nan
0,324,15:22:19:558000,6,1,283,198.984375,[ 0.19826868  0.35105092  0.60582595],1,1,1,0.328845799,0,0,0,0.329317826,0.323835287,0.127336637,0.451171923,0.19649865,nan,nan,nan,[ nan  nan  nan],nan,nan,nan,739.9484318,1120.18088,1120.509726,nan,nan
0,325,15:22:20:494000,6,1,336,236.25,[-0.15821161  0.45675811  0.26813527],1,1,1,0.355061399,0,0,0,0.344852426,0.323851143,0.127135306,0.450986449,0.196715836,nan,nan,nan,[ nan  nan  nan],nan,nan,nan,739.9484318,1121.122656,1121.477717,nan,nan
0,326,15:22:21:430000,6,1,235,165.234375,[ 0.70759192  0.16453778  0.63165963],1,1,1,0.22124817,0,0,0,0.301718456,0.323949598,0.126946684,0.450896282,0.197002913,nan,nan,nan,[ nan  nan  nan],nan,nan,nan,739.9484318,1122.064457,1122.285705,nan,nan
0,327,15:22:22:381000,6,0,355,249.609375,[-0.17373746  0.47268386  0.08887998],0,0,1,0.415434854,0,0,0,0.330581474,0.323626637,0.126877292,0.45050393,0.196749345,nan,nan,nan,[ nan  nan  nan],nan,nan,nan,739.9484318,1123.006247,1123.421682,nan,nan
0,328,15:22:23:317000,6,1,79,55.546875,[ 1.         -0.18429602 -0.72417078],1,1,1,0.401620724,0,0,0,0.346101249,0.323914437,0.126782189,0.450696626,0.197132248,nan,nan,nan,[ nan  nan  nan],nan,nan,nan,739.9484318,1123.948041,1124.349662,nan,nan
0,329,15:22:24:269000,6,1,506,355.78125,[ 0.79777474  0.23670313 -1.        ],1,1,1,0.403820539,0,0,0,0.406958706,0.32415727,0.126658216,0.450815485,0.197499054,nan,nan,nan,[ nan  nan  nan],nan,nan,nan,739.9484318,1124.889827,1125.293647,nan,nan
0,330,15:22:25:205000,6,1,26,18.28125,[ 1.          0.09209217 -1.        ],1,1,1,0.398004543,0,0,0,0.401148602,0.324405442,0.126538675,0.450944117,0.197866767,nan,nan,nan,[ nan  nan  nan],nan,nan,nan,739.9484318,1125.831616,1126.229621,nan,nan
0,331,15:22:26:141000,6,1,246,172.96875,[ 0.58976884  0.2150199   0.65133953],1,1,1,0.536185471,0,0,0,0.446003518,0.32463401,0.126408384,0.451042395,0.198225626,nan,nan,nan,[ nan  nan  nan],nan,nan,nan,739.9484318,1126.773419,1127.309604,nan,nan
0,332,15:22:27:093000,6,1,404,284.0625,[ 0.01248946  0.46874627 -0.4633491 ],1,1,1,0.378396085,0,0,0,0.4375287,0.325288968,0.126758578,0.452047547,0.19853039,nan,nan,nan,[ nan  nan  nan],nan,nan,nan,739.9484318,1127.715189,1128.093585,nan,nan
0,333,15:22:28:029000,6,1,324,227.8125,[-0.11479964  0.44115833  0.36806404],1,1,1,0.284591489,0,0,0,0.399724348,0.325452879,0.126597091,0.45204997,0.198855789,nan,nan,nan,[ nan  nan  nan],nan,nan,nan,739.9484318,1128.65698,1128.941571,nan,nan
0,334,15:22:28:965000,6,1,78,54.84375,[ 1.         -0.17946765 -0.73990763],1,0,0,0.39078102,0,0,0,0.351256198,0.325327152,0.126422433,0.451749585,0.198904719,nan,nan,nan,[ nan  nan  nan],nan,nan,nan,739.9484318,1129.598773,1129.989554,nan,nan
0,335,15:22:29:916000,6,1,312,219.375,[-0.04644836  0.4209252   0.45557321],1,1,1,0.328988347,0,0,0,0.334786952,0.325527931,0.12628027,0.451808201,0.199247661,nan,nan,nan,[ nan  nan  nan],nan,nan,nan,739.9484318,1130.540557,1130.869545,nan,nan
0,336,15:22:30:852000,6,1,371,260.859375,[-0.14179361  0.47833194 -0.07797326],1,1,1,0.251173463,0,0,0,0.32364761,0.325538513,0.126087178,0.451625691,0.199451335,nan,nan,nan,[ nan  nan  nan],nan,nan,nan,739.9484318,1131.48235,1131.733523,nan,nan
0,337,15:22:31:804000,6,1,100,70.3125,[ 1.         -0.27042709 -0.4574399 ],1,1,1,0.549360126,0,0,0,0.376507312,0.32531179,0.125961565,0.451273355,0.199350225,nan,nan,nan,[ nan  nan  nan],nan,nan,nan,739.9484318,1132.424136,1132.973496,nan,nan
0,338,15:22:32:740000,6,1,484,340.3125,[ 0.61439895  0.31611274 -1.        ],1,1,1,0.335574962,0,0,0,0.378702851,0.325992788,0.126373267,0.452366055,0.199619521,nan,nan,nan,[ nan  nan  nan],nan,nan,nan,739.9484318,1133.365916,1133.701491,nan,nan
0,339,15:22:33:676000,6,0,258,181.40625,[ 0.45964229  0.26499291  0.65549006],0,1,0,0.19376474,0,0,0,0.359566609,0.326021825,0.126182746,0.452204572,0.199839079,nan,nan,nan,[ nan  nan  nan],nan,nan,nan,739.9484318,1134.307719,1134.501484,nan,nan
0,340,15:22:34:627000,6,1,101,71.015625,[ 1.         -0.27357267 -0.44615261],1,1,1,0.307945277,0,0,0,0.279094993,0.325622257,0.126200906,0.451823163,0.199421351,nan,nan,nan,[ nan  nan  nan],nan,nan,nan,739.9484318,1135.249511,1135.557457,nan,nan
0,341,15:22:35:563000,6,1,396,278.4375,[-0.03301537  0.47368488 -0.36352378],1,1,1,0.190155116,0,0,0,0.230621711,0.325569013,0.126014424,0.451583437,0.199554589,nan,nan,nan,[ nan  nan  nan],nan,nan,nan,739.9484318,1136.191288,1136.381443,nan,nan
0,342,15:22:36:499000,6,1,332,233.4375,[-0.14664709  0.45205424  0.30271419],1,1,1,0.272354805,0,0,0,0.2568184,0.325162365,0.126043044,0.451205409,0.199119321,nan,nan,nan,[ nan  nan  nan],nan,nan,nan,739.9484318,1137.133079,1137.405434,nan,nan
0,343,15:22:37:451000,6,1,96,67.5,[ 1.         -0.25681952 -0.50330248],1,1,1,0.434535553,0,0,0,0.299015158,0.325004258,0.125887282,0.45089154,0.199116976,nan,nan,nan,[ nan  nan  nan],nan,nan,nan,739.9484318,1138.074864,1138.5094,nan,nan
0,344,15:22:38:387000,6,1,249,175.078125,[ 0.55727555  0.22802627  0.65408488],1,1,1,0.572723323,0,0,0,0.426537894,0.325331217,0.125841197,0.451172414,0.199490021,nan,nan,nan,[ nan  nan  nan],nan,nan,nan,739.9484318,1139.016657,1139.58938,nan,nan
0,345,15:22:39:339000,6,1,501,352.265625,[ 0.75644923  0.25625354 -1.        ],1,1,1,0.390920433,0,0,1,0.466059769,0.326067503,0.126374384,0.452441888,0.199693119,nan,nan,nan,[ nan  nan  nan],nan,nan,nan,739.9484318,1139.95844,1140.349361,nan,nan
0,346,15:22:44:331000,6,1,203,142.734375,[ 1.         -0.00249325  0.49367467],1,1,1,0.241121769,1,0,0,0.401588508,0.326259945,0.126236042,0.452495987,0.200023903,nan,-85.11724044,249,[ 0.55727555  0.22802627  0.65408488],nan,32.38286544,2.00888992,739.9484318,1140.900232,1141.141354,1142.733743,1144.750669
0,347,15:22:45:267000,6,1,289,203.203125,[ 0.14059213  0.36807325  0.58250527],1,1,1,0.488388251,0,0,0,0.373476817,0.326008057,0.126133951,0.452142008,0.199874106,nan,nan,nan,[ nan  nan  nan],nan,nan,nan,739.9484318,1145.900882,1146.38927,nan,nan
0,348,15:22:46:218000,6,1,227,159.609375,[ 0.79101995  0.12525779  0.60806671],1,1,1,0.266558196,0,0,0,0.332022739,0.326487055,0.126255267,0.452742321,0.200231788,nan,nan,nan,[ nan  nan  nan],nan,nan,nan,739.9484318,1146.842672,1147.10923,nan,nan
0,349,15:22:47:154000,6,1,342,240.46875,[-0.17005262  0.46291356  0.21407524],1,1,1,0.356773981,0,0,0,0.370573476,0.326310793,0.126111224,0.452422018,0.200199569,nan,nan,nan,[ nan  nan  nan],nan,nan,nan,739.9484318,1147.784455,1148.141229,nan,nan
0,350,15:22:48:106000,6,1,453,318.515625,[ 0.35967042  0.39926175 -1.        ],1,1,1,0.302952929,0,0,0,0.308761702,0.326400128,0.125936948,0.452337077,0.20046318,nan,nan,nan,[ nan  nan  nan],nan,nan,nan,739.9484318,1148.726261,1149.029214,nan,nan
0,351,15:22:49:042000,6,1,111,78.046875,[ 1.         -0.29867781 -0.33610624],1,1,1,0.225158286,0,0,0,0.294961732,0.326331569,0.125759068,0.452090637,0.200572501,nan,nan,nan,[ nan  nan  nan],nan,nan,nan,739.9484318,1149.668036,1149.893194,nan,nan
0,352,15:22:49:978000,6,1,351,246.796875,[-0.17568629  0.47018527  0.12848998],1,1,1,0.291334338,0,0,0,0.273148518,0.326036603,0.125694033,0.451730636,0.20034257,nan,nan,nan,[ nan  nan  nan],nan,nan,nan,739.9484318,1150.609844,1150.901178,nan,nan
0,353,15:22:50:929000,6,1,408,286.875,[ 0.03673793  0.46563766 -0.51593845],1,1,1,0.181544306,0,0,0,0.232678977,0.325935725,0.12552511,0.451460835,0.200410615,nan,nan,nan,[ nan  nan  nan],nan,nan,nan,739.9484318,1151.551615,1151.733159,nan,nan
0,354,15:22:51:865000,6,1,468,329.0625,[ 0.48123648  0.36313162 -1.        ],1,1,1,0.119764749,0,1,0,0.197547798,0.325517199,0.125583193,0.451100392,0.199934006,nan,nan,nan,[ nan  nan  nan],nan,nan,nan,739.9484318,1152.493401,1152.613166,nan,nan
0,355,15:22:57:185000,6,1,249,175.078125,[ 0.55727555  0.22802627  0.65408488],1,1,1,0.217938469,1,0,0,0.173082508,0.324922539,0.125887077,0.450809616,0.199035461,nan,-87.96496554,253,[ 0.5138659   0.24483993  0.65597719],nan,2.886840543,2.342265638,739.9484318,1153.435193,1153.653131,1155.252033,1157.602337
0,356,15:22:58:121000,6,1,112,78.75,[ 1.         -0.30050152 -0.32532486],1,1,1,0.500484951,0,0,0,0.279396056,0.324614227,0.125836304,0.450450531,0.198777923,nan,nan,nan,[ nan  nan  nan],nan,nan,nan,739.9484318,1158.752553,1159.253038,nan,nan
0,357,15:22:59:073000,6,0,277,194.765625,[ 0.25847065  0.33263616  0.62482424],0,1,0,0.342673328,0,0,0,0.353698916,0.325119603,0.126007534,0.451127137,0.199112069,nan,nan,nan,[ nan  nan  nan],nan,nan,nan,739.9484318,1159.694341,1160.037014,nan,nan
0,358,15:23:00:009000,6,1,487,342.421875,[ 0.63952974  0.30629503 -1.        ],1,1,1,0.280868682,0,0,0,0.374675654,0.3251699,0.125830376,0.451000276,0.199339524,nan,nan,nan,[ nan  nan  nan],nan,nan,nan,739.9484318,1160.63613,1160.916998,nan,nan
0,359,15:23:00:945000,6,1,15,10.546875,[ 0.96573443  0.14535278 -1.        ],1,1,1,0.299051651,0,0,0,0.30753122,0.325043325,0.125672738,0.450716063,0.199370587,nan,nan,nan,[ nan  nan  nan],nan,nan,nan,739.9484318,1161.577935,1161.876986,nan,nan
0,360,15:23:01:896000,6,0,388,272.8125,[-0.07396337  0.47694192 -0.26857716],0,1,0,0.125269132,0,0,0,0.235063155,0.324969275,0.125501235,0.45047051,0.199468039,nan,nan,nan,[ nan  nan  nan],nan,nan,nan,739.9484318,1162.519708,1162.644977,nan,nan
0,361,15:23:02:832000,6,1,52,36.5625,[ 1.         -0.04388606 -1.        ],1,1,1,0.111467547,0,0,0,0.17859611,0.324401945,0.125772764,0.450174709,0.198629181,nan,nan,nan,[ nan  nan  nan],nan,nan,nan,739.9484318,1163.461496,1163.572964,nan,nan
0,362,15:23:03:784000,6,0,395,277.734375,[-0.03839842  0.47418351 -0.35142722],0,1,0,0.257666566,0,0,0,0.164801082,0.323798731,0.126103358,0.449902089,0.197695374,nan,nan,nan,[ nan  nan  nan],nan,nan,nan,739.9484318,1164.403283,1164.66095,nan,nan
0,363,15:23:04:720000,6,1,190,133.59375,[ 1.         -0.07468844  0.40739964],1,1,1,0.41183977,0,0,0,0.260324628,0.323611917,0.125974026,0.449585943,0.197637891,nan,nan,nan,[ nan  nan  nan],nan,nan,nan,739.9484318,1165.345074,1165.756914,nan,nan
0,364,15:23:05:656000,6,1,103,72.421875,[ 1.         -0.27953747 -0.42375884],1,1,1,0.486037049,0,0,0,0.385181128,0.323860446,0.125883351,0.449743797,0.197977096,nan,nan,nan,[ nan  nan  nan],nan,nan,nan,739.9484318,1166.286859,1166.772896,nan,nan
0,365,15:23:06:607000,6,1,307,215.859375,[-0.01138687  0.41105336  0.48795701],1,1,1,0.320244112,0,0,0,0.406040311,0.324315999,0.125999117,0.450315115,0.198316882,nan,nan,nan,[ nan  nan  nan],nan,nan,nan,739.9484318,1167.228652,1167.548896,nan,nan
0,366,15:23:07:543000,6,1,173,121.640625,[ 1.         -0.16590952  0.27353519],1,1,1,0.386444397,0,0,0,0.397575186,0.324304593,0.125822708,0.4501273,0.198481885,nan,nan,nan,[ nan  nan  nan],nan,nan,nan,739.9484318,1168.170435,1168.55688,nan,nan
0,367,15:23:08:479000,6,1,464,326.25,[ 0.44840488  0.37350356 -1.        ],1,1,1,0.316658152,0,0,0,0.341115554,0.324478168,0.125689649,0.450167817,0.198788519,nan,nan,nan,[ nan  nan  nan],nan,nan,nan,739.9484318,1169.112197,1169.428855,nan,nan
0,368,15:23:09:431000,6,1,250,175.78125,[ 0.54642845  0.23228666  0.65474773],1,1,1,0.206837615,0,0,0,0.303313388,0.324456385,0.125515148,0.449971533,0.198941236,nan,nan,nan,[ nan  nan  nan],nan,nan,nan,739.9484318,1170.054016,1170.260853,nan,nan
0,369,15:23:10:367000,6,1,121,85.078125,[ 1.         -0.31073281 -0.22964081],1,1,1,0.145025271,0,0,0,0.222840346,0.324129666,0.125493477,0.449623143,0.198636189,nan,nan,nan,[ nan  nan  nan],nan,nan,nan,739.9484318,1170.995804,1171.140829,nan,nan
0,370,15:23:11:303000,6,1,461,324.140625,[ 0.42395965  0.38092737 -1.        ],1,1,1,0.315205293,0,0,0,0.22235606,0.323633532,0.125672596,0.449306128,0.197960936,nan,nan,nan,[ nan  nan  nan],nan,nan,nan,739.9484318,1171.937595,1172.2528,nan,nan
0,371,15:23:12:255000,6,0,8,5.625,[ 0.91102659  0.17740094 -1.        ],0,1,0,0.293416692,0,0,0,0.251215752,0.32361025,0.125499675,0.449109924,0.198110575,nan,nan,nan,[ nan  nan  nan],nan,nan,nan,739.9484318,1172.879383,1173.1728,nan,nan
0,372,15:23:13:191000,6,1,218,153.28125,[ 0.88146739  0.07882461  0.57255963],1,1,1,0.263600021,0,0,0,0.290740669,0.323527072,0.125336683,0.448863754,0.198190389,nan,nan,nan,[ nan  nan  nan],nan,nan,nan,739.9484318,1173.821168,1174.084768,nan,nan
0,373,15:23:14:142000,6,1,170,119.53125,[ 1.         -0.18099048  0.24781506],1,1,1,0.241790323,0,0,0,0.266269012,0.323362437,0.125203696,0.448566133,0.198158741,nan,nan,nan,[ nan  nan  nan],nan,nan,nan,739.9484318,1174.762959,1175.004749,nan,nan
0,374,15:23:15:078000,6,1,4,2.8125,[ 0.87912605  0.19501404 -1.        ],1,1,1,0.243989283,0,0,0,0.249793209,0.323138952,0.125104748,0.4482437,0.198034204,nan,nan,nan,[ nan  nan  nan],nan,nan,nan,739.9484318,1175.704752,1175.948741,nan,nan
0,375,15:23:16:014000,6,1,137,96.328125,[ 1.         -0.30019022 -0.06473166],1,1,1,0.246177123,0,0,0,0.243985576,0.322922696,0.12500202,0.447924716,0.197920676,nan,nan,nan,[ nan  nan  nan],nan,nan,nan,739.9484318,1176.646538,1176.892715,nan,nan
0,376,15:23:16:966000,6,1,375,263.671875,[-0.1285567   0.47868243 -0.12160516],1,1,1,0.27238417,0,0,0,0.254183525,0.32271358,0.124895691,0.447609271,0.197817889,nan,nan,nan,[ nan  nan  nan],nan,nan,nan,739.9484318,1177.588326,1177.860711,nan,nan
0,377,15:23:17:902000,6,1,461,324.140625,[ 0.42395965  0.38092737 -1.        ],1,1,1,0.218575378,0,0,0,0.245712224,0.322576815,0.124753396,0.447330211,0.197823419,nan,nan,nan,[ nan  nan  nan],nan,nan,nan,739.9484318,1178.530115,1178.74869,nan,nan
0,378,15:23:18:838000,6,1,59,41.484375,[ 1.         -0.08144099 -1.        ],1,1,1,0.052812091,0,1,0,0.181257213,0.322294968,0.124701506,0.446996474,0.197593462,nan,nan,nan,[ nan  nan  nan],nan,nan,nan,739.9484318,1179.471898,1179.524711,nan,nan
0,379,15:23:19:789000,6,0,117,82.265625,[ 1.         -0.30758797 -0.27188654],0,1,0,0.126978579,0,0,0,0.132788682,0.321566636,0.125316319,0.446882955,0.196250317,nan,nan,nan,[ nan  nan  nan],nan,nan,nan,739.9484318,1180.413692,1180.54067,nan,nan
0,380,15:23:20:725000,6,1,191,134.296875,[ 1.         -0.06914798  0.41457165],1,1,1,0.097158487,0,0,0,0.092316386,0.32104214,0.12555332,0.44659546,0.19548882,nan,nan,nan,[ nan  nan  nan],nan,nan,nan,739.9484318,1181.355482,1181.452641,nan,nan
0,381,15:23:21:677000,6,1,267,187.734375,[ 0.36292453  0.29880723  0.64662252],1,1,1,0.26731285,0,0,0,0.163816639,0.320440302,0.125919181,0.446359484,0.194521121,nan,nan,nan,[ nan  nan  nan],nan,nan,nan,739.9484318,1182.297279,1182.564591,nan,nan
0,382,15:23:22:613000,6,1,461,324.140625,[ 0.42395965  0.38092737 -1.        ],1,1,1,0.293550688,0,0,0,0.219340675,0.32029787,0.125780279,0.446078148,0.194517591,nan,nan,nan,[ nan  nan  nan],nan,nan,nan,739.9484318,1183.23906,1183.532611,nan,nan
0,383,15:23:23:549000,6,1,134,94.21875,[ 1.         -0.304951   -0.09514411],1,1,1,0.71973373,0,0,0,0.426865756,0.320226353,0.125619605,0.445845958,0.194606748,nan,nan,nan,[ nan  nan  nan],nan,nan,nan,739.9484318,1184.180846,1184.90058,nan,nan
0,384,15:23:24:501000,6,1,299,210.234375,[ 0.05166456  0.39341767  0.53437875],1,1,1,0.393933631,0,0,1,0.469072683,0.321291706,0.127132552,0.448424258,0.194159154,nan,nan,nan,[ nan  nan  nan],nan,nan,nan,739.9484318,1185.122643,1185.516577,nan,nan
0,385,15:23:30:413000,6,1,219,153.984375,[ 0.87162732  0.08408817  0.57695967],1,1,1,0.244134397,1,0,0,0.452600586,0.321484903,0.127018489,0.448503392,0.194466413,nan,-74.20759647,234,[ 0.71814775  0.15974031  0.6291316 ],nan,10.22322147,2.934136416,739.9484318,1186.064419,1186.308554,1187.8896,1190.831665
0,386,15:23:31:349000,6,1,424,298.125,[ 0.14217456  0.44881957 -0.77022942],1,1,1,0.358566391,0,0,0,0.332211473,0.321279729,0.126912292,0.448192021,0.194367437,nan,nan,nan,[ nan  nan  nan],nan,nan,nan,739.9484318,1191.98188,1192.340447,nan,nan
0,387,15:23:32:301000,6,1,310,217.96875,[-0.03285454  0.41708073  0.46882802],1,1,1,0.264786599,0,0,0,0.289162462,0.321378371,0.126758778,0.448137149,0.194619593,nan,nan,nan,[ nan  nan  nan],nan,nan,nan,739.9484318,1192.923646,1193.188433,nan,nan
0,388,15:23:33:237000,6,1,79,55.546875,[ 1.         -0.18429602 -0.72417078],1,1,1,0.314980921,0,0,0,0.31277797,0.321229052,0.126624723,0.447853775,0.194604329,nan,nan,nan,[ nan  nan  nan],nan,nan,nan,739.9484318,1193.865433,1194.180414,nan,nan
0,389,15:23:34:173000,6,1,510,358.59375,[ 0.83055446  0.2204367  -1.        ],1,1,1,0.245152197,0,0,0,0.274973239,0.32121261,0.126458407,0.447671017,0.194754203,nan,nan,nan,[ nan  nan  nan],nan,nan,nan,739.9484318,1194.807245,1195.052397,nan,nan
0,390,15:23:35:124000,6,1,303,213.046875,[ 0.01913493  0.40252284  0.51201836],1,1,1,0.199364346,0,0,0,0.253165821,0.321012976,0.126352285,0.447365262,0.194660691,nan,nan,nan,[ nan  nan  nan],nan,nan,nan,739.9484318,1195.749014,1195.948379,nan,nan
0,391,15:23:36:060000,6,1,227,159.609375,[ 0.79101995  0.12525779  0.60806671],1,1,1,0.273570748,0,0,0,0.23936243,0.320694524,0.126339799,0.447034324,0.194354725,nan,nan,nan,[ nan  nan  nan],nan,nan,nan,739.9484318,1196.690802,1196.964373,nan,nan
0,392,15:23:37:012000,6,1,487,342.421875,[ 0.63952974  0.30629503 -1.        ],1,1,1,0.139752387,0,0,0,0.20422916,0.320571486,0.126197671,0.446769157,0.194373814,nan,nan,nan,[ nan  nan  nan],nan,nan,nan,739.9484318,1197.632595,1197.772347,nan,nan
0,393,15:23:37:948000,6,1,112,78.75,[ 1.         -0.30050152 -0.32532486],1,1,1,0.157968427,0,1,0,0.190430521,0.320100603,0.126369702,0.446470305,0.1937309,nan,nan,nan,[ nan  nan  nan],nan,nan,nan,739.9484318,1198.574377,1198.732346,nan,nan
0,394,15:23:42:207000,6,1,332,233.4375,[-0.14664709  0.45205424  0.30271419],1,1,1,0.376134689,1,0,0,0.224618501,0.31967948,0.12647499,0.44615447,0.19320449,nan,-139.0282637,326,[-0.12383419  0.44407177  0.35222354],nan,-4.409236334,1.275453534,739.9484318,1199.516177,1199.892312,1201.341345,1202.62484
0,395,15:23:43:143000,6,1,97,68.203125,[ 1.         -0.26036974 -0.49171883],1,1,1,0.36520746,0,0,0,0.299770192,0.319825737,0.126343652,0.446169389,0.193482085,nan,nan,nan,[ nan  nan  nan],nan,nan,nan,739.9484318,1203.775048,1204.140255,nan,nan
0,396,15:23:44:094000,6,1,431,303.046875,[ 0.19195726  0.43918129 -0.98229877],1,1,1,0.327374694,0,0,0,0.356238948,0.319943002,0.126201343,0.446144346,0.193741659,nan,nan,nan,[ nan  nan  nan],nan,nan,nan,739.9484318,1204.716846,1205.04422,nan,nan
0,397,15:23:45:030000,6,1,259,182.109375,[ 0.44882283  0.26890698  0.65501178],1,1,1,0.21757782,0,0,0,0.303386658,0.319962156,0.126039171,0.446001327,0.193922985,nan,nan,nan,[ nan  nan  nan],nan,nan,nan,739.9484318,1205.658636,1205.876214,nan,nan
0,398,15:23:45:966000,6,1,196,137.8125,[ 1.         -0.04136108  0.44913076],1,1,1,0.163758764,0,0,0,0.236237093,0.319698957,0.125983781,0.445682738,0.193715176,nan,nan,nan,[ nan  nan  nan],nan,nan,nan,739.9484318,1206.600435,1206.764194,nan,nan
0,399,15:23:46:918000,6,1,498,350.15625,[ 0.73150794  0.26756188 -1.        ],1,1,1,0.133964331,0,1,0,0.171766972,0.319299111,0.126069061,0.445368172,0.19323005,nan,nan,nan,[ nan  nan  nan],nan,nan,nan,739.9484318,1207.54221,1207.676174,nan,nan
0,400,15:23:47:854000,6,1,50,35.15625,[ 1.         -0.03314873 -1.        ],1,nan,nan,nan,0,0,0,0.148861547,0.318825109,0.126255235,0.445080344,0.192569874,nan,nan,nan,[ nan  nan  nan],nan,nan,nan,739.9484318,1208.483997,nan,nan,nan
0,401,15:23:48:805000,6,1,218,153.28125,[ 0.88146739  0.07882461  0.57255963],1,nan,nan,nan,0,0,0,0.133964331,0.318825109,0.126255235,0.445080344,0.192569874,nan,nan,nan,[ nan  nan  nan],nan,nan,nan,739.9484318,1209.425786,nan,nan,nan
0,402,15:23:49:741000,6,1,384,270,[-0.09247501  0.47794532 -0.22247927],1,1,1,0.268558443,0,0,0,0.268558443,0.318825109,0.126255235,0.445080344,0.192569874,nan,nan,nan,[ nan  nan  nan],nan,nan,nan,739.9484318,1210.367575,1210.636133,nan,nan
0,403,15:23:50:677000,6,1,124,87.1875,[ 1.         -0.31157719 -0.19822652],1,1,1,0.198750815,0,0,0,0.233654629,0.318696878,0.126119584,0.444816462,0.192577293,nan,nan,nan,[ nan  nan  nan],nan,nan,nan,739.9484318,1211.309365,1211.508116,nan,nan
0,404,15:23:51:629000,6,1,351,246.796875,[-0.17568629  0.47018527  0.12848998],1,1,1,0.336945713,0,0,0,0.26808499,0.318391671,0.12610389,0.444495561,0.192287782,nan,nan,nan,[ nan  nan  nan],nan,nan,nan,739.9484318,1212.25115,1212.588095,nan,nan
0,405,15:23:52:565000,6,1,9,6.328125,[ 0.91893356  0.17291669 -1.        ],1,1,1,0.259144513,0,0,0,0.264947014,0.318438763,0.125947218,0.44438598,0.192491545,nan,nan,nan,[ nan  nan  nan],nan,nan,nan,739.9484318,1213.192944,1213.452089,nan,nan
0,406,15:23:53:501000,6,1,297,208.828125,[ 0.06862621  0.38864628  0.54490466],1,1,1,0.165309696,0,0,0,0.253799974,0.318288651,0.125822975,0.444111626,0.192465675,nan,nan,nan,[ nan  nan  nan],nan,nan,nan,739.9484318,1214.134746,1214.300056,nan,nan
0,407,15:23:54:453000,6,0,106,74.53125,[ 1.         -0.28763007 -0.39056445],0,1,0,0.255518639,0,0,0,0.226657616,0.31790234,0.125898336,0.443800676,0.192004005,nan,nan,nan,[ nan  nan  nan],nan,nan,nan,739.9484318,1215.076515,1215.332034,nan,nan
0,408,15:23:55:389000,6,1,185,130.078125,[ 1.         -0.10221447  0.37029995],1,1,1,0.153660599,0,0,0,0.191496311,0.317745202,0.12577855,0.443523752,0.191966652,nan,nan,nan,[ nan  nan  nan],nan,nan,nan,739.9484318,1216.01831,1216.17197,nan,nan
0,409,15:23:56:340000,6,1,413,290.390625,[ 0.06831062  0.46114313 -0.5854956 ],1,1,1,0.019944303,0,0,0,0.14304118,0.31733293,0.125888728,0.443221658,0.191444201,nan,nan,nan,[ nan  nan  nan],nan,nan,nan,739.9484318,1216.960101,1216.980045,nan,nan
0,410,15:23:57:276000,6,1,110,77.34375,[ 1.         -0.29672275 -0.34692196],1,1,1,0.526060222,0,0,0,0.233221708,0.316587595,0.126607074,0.443194669,0.18998052,nan,nan,nan,[ nan  nan  nan],nan,nan,nan,739.9484318,1217.901892,1218.427953,nan,nan
0,411,15:23:58:212000,6,1,268,188.4375,[ 0.35230222  0.30236752  0.64500531],1,1,1,0.30429688,0,0,0,0.283433802,0.317111276,0.126880655,0.443991931,0.190230621,nan,nan,nan,[ nan  nan  nan],nan,nan,nan,739.9484318,1218.843675,1219.147971,nan,nan
0,412,15:23:59:164000,6,1,80,56.25,[ 1.         -0.18907571 -0.70896555],1,1,1,0.258500192,0,0,0,0.362952431,0.31707932,0.126723963,0.443803283,0.190355357,nan,nan,nan,[ nan  nan  nan],nan,nan,nan,739.9484318,1219.78546,1220.04396,nan,nan
