block,trial,freq_trials,correct_response,actual_response,acc,rts,probe_trials,trials_colorind0,trials_colorind1,trials_colorind2,trials_colorind3,trials_colorind4,trials_colorind5,wholereport_resp0,wholereport_resp1,wholereport_resp2,wholereport_resp3,wholereport_resp4,wholereport_resp5,wholereport_respacc0,wholereport_respacc1,wholereport_respacc2,wholereport_respacc3,wholereport_respacc4,wholereport_respacc5,wholereport_respacc_total,wholereport_respcolorind0,wholereport_respcolorind1,wholereport_respcolorind2,wholereport_respcolorind3,wholereport_respcolorind4,wholereport_respcolorind5,wholereport_resporder0,wholereport_resporder1,wholereport_resporder2,wholereport_resporder3,wholereport_resporder4,wholereport_resporder5,wholereport_rts0,wholereport_rts1,wholereport_rts2,wholereport_rts3,wholereport_rts4,wholereport_rts5,time_blockstart,time_encarray_offset,time_encarray_onset,time_response,time_iti_offset,time_iti_onset,time_memprobe_offset,time_memprobe_onset
1,1,1,1,1.0,1.0,0.43699783738702536,0,1,3,7,0,6,8,nan,nan,nan,nan,nan,nan,nan,nan,nan,nan,nan,nan,0.0,nan,nan,nan,nan,nan,nan,nan,nan,nan,nan,nan,nan,nan,nan,nan,nan,nan,nan,709.2778717963956,710.2968589721713,nan,710.7338568095583,nan,nan,nan,nan
1,2,1,1,1.0,1.0,0.32451053126715124,0,5,6,8,1,4,7,nan,nan,nan,nan,nan,nan,nan,nan,nan,nan,nan,nan,0.0,nan,nan,nan,nan,nan,nan,nan,nan,nan,nan,nan,nan,nan,nan,nan,nan,nan,nan,709.2778717963956,711.3053078220692,nan,711.6298183533363,nan,nan,nan,nan
1,3,1,1,1.0,1.0,0.3160251888912171,0,6,4,0,7,8,2,nan,nan,nan,nan,nan,nan,nan,nan,nan,nan,nan,nan,0.0,nan,nan,nan,nan,nan,nan,nan,nan,nan,nan,nan,nan,nan,nan,nan,nan,nan,nan,709.2778717963956,712.3137734928168,nan,712.629798681708,nan,nan,nan,nan
1,4,1,1,0.0,0.0,0.34754066774621606,0,3,6,7,4,1,5,nan,nan,nan,nan,nan,nan,nan,nan,nan,nan,nan,nan,0.0,nan,nan,nan,nan,nan,nan,nan,nan,nan,nan,nan,nan,nan,nan,nan,nan,nan,nan,709.2778717963956,713.3222303253133,nan,713.6697709930595,nan,nan,nan,nan
1,5,1,1,1.0,1.0,0.5630608927458525,0,7,3,8,0,2,4,nan,nan,nan,nan,nan,nan,nan,nan,nan,nan,nan,nan,0.0,nan,nan,nan,nan,nan,nan,nan,nan,nan,nan,nan,nan,nan,nan,nan,nan,nan,nan,709.2778717963956,714.330684592016,nan,714.8937454847619,nan,nan,nan,nan
1,6,1,1,1.0,1.0,0.4905675654299557,0,0,6,1,2,5,8,nan,nan,nan,nan,nan,nan,nan,nan,nan,nan,nan,nan,0.0,nan,nan,nan,nan,nan,nan,nan,nan,nan,nan,nan,nan,nan,nan,nan,nan,nan,nan,709.2778717963956,715.3391528285574,nan,715.8297203939874,nan,nan,nan,nan
1,7,0,0,0.0,1.0,0.5061096288263798,0,8,7,0,4,6,2,nan,nan,nan,nan,nan,nan,nan,nan,nan,nan,nan,nan,0.0,nan,nan,nan,nan,nan,nan,nan,nan,nan,nan,nan,nan,nan,nan,nan,nan,nan,nan,709.2778717963956,716.3476173589006,nan,716.853726987727,nan,nan,nan,nan
1,8,1,1,1.0,1.0,0.42559880344197154,0,3,2,4,8,5,0,nan,nan,nan,nan,nan,nan,nan,nan,nan,nan,nan,nan,0.0,nan,nan,nan,nan,nan,nan,nan,nan,nan,nan,nan,nan,nan,nan,nan,nan,nan,nan,709.2778717963956,717.3560798934195,nan,717.7816786968615,nan,nan,nan,nan
1,9,1,1,1.0,1.0,0.6891196717042476,0,0,1,2,6,7,5,nan,nan,nan,nan,nan,nan,nan,nan,nan,nan,nan,nan,0.0,nan,nan,nan,nan,nan,nan,nan,nan,nan,nan,nan,nan,nan,nan,nan,nan,nan,nan,709.2778717963956,718.3645566827618,nan,719.053676354466,nan,nan,nan,nan
1,10,1,1,1.0,1.0,0.6726399243343621,0,7,4,0,3,1,6,nan,nan,nan,nan,nan,nan,nan,nan,nan,nan,nan,nan,0.0,nan,nan,nan,nan,nan,nan,nan,nan,nan,nan,nan,nan,nan,nan,nan,nan,nan,nan,709.2778717963956,719.3729821546003,nan,720.0456220789347,nan,nan,nan,nan
1,11,1,1,1.0,1.0,0.6721541187725961,0,2,8,6,1,3,7,nan,nan,nan,nan,nan,nan,nan,nan,nan,nan,nan,nan,0.0,nan,nan,nan,nan,nan,nan,nan,nan,nan,nan,nan,nan,nan,nan,nan,nan,nan,nan,709.2778717963956,720.3814632205758,nan,721.0536173393484,nan,nan,nan,nan
1,12,1,1,nan,nan,nan,0,5,1,3,8,6,0,nan,nan,nan,nan,nan,nan,nan,nan,nan,nan,nan,nan,0.0,nan,nan,nan,nan,nan,nan,nan,nan,nan,nan,nan,nan,nan,nan,nan,nan,nan,nan,709.2778717963956,721.3899391547311,nan,nan,nan,nan,nan,nan
1,13,1,1,nan,nan,nan,0,1,0,5,6,7,3,nan,nan,nan,nan,nan,nan,nan,nan,nan,nan,nan,nan,0.0,nan,nan,nan,nan,nan,nan,nan,nan,nan,nan,nan,nan,nan,nan,nan,nan,nan,nan,709.2778717963956,722.3983515121508,nan,nan,nan,nan,nan,nan
1,14,1,1,nan,nan,nan,0,2,7,0,4,3,8,nan,nan,nan,nan,nan,nan,nan,nan,nan,nan,nan,nan,0.0,nan,nan,nan,nan,nan,nan,nan,nan,nan,nan,nan,nan,nan,nan,nan,nan,nan,nan,709.2778717963956,723.4068659343757,nan,nan,nan,nan,nan,nan
1,15,1,1,nan,nan,nan,0,1,2,6,7,4,0,nan,nan,nan,nan,nan,nan,nan,nan,nan,nan,nan,nan,0.0,nan,nan,nan,nan,nan,nan,nan,nan,nan,nan,nan,nan,nan,nan,nan,nan,nan,nan,709.2778717963956,724.4153107928578,nan,nan,nan,nan,nan,nan
1,16,1,1,1.0,1.0,0.021762880263850093,0,0,3,7,8,2,4,nan,nan,nan,nan,nan,nan,nan,nan,nan,nan,nan,nan,0.0,nan,nan,nan,nan,nan,nan,nan,nan,nan,nan,nan,nan,nan,nan,nan,nan,nan,nan,709.2778717963956,725.4237761783879,nan,725.4455390586518,nan,nan,nan,nan
1,17,1,1,1.0,1.0,0.7412419624160975,0,7,6,8,5,1,0,nan,nan,nan,nan,nan,nan,nan,nan,nan,nan,nan,nan,0.0,nan,nan,nan,nan,nan,nan,nan,nan,nan,nan,nan,nan,nan,nan,nan,nan,nan,nan,709.2778717963956,726.4322258834727,nan,727.1734678458888,nan,nan,nan,nan
1,18,1,1,1.0,1.0,0.6528214055579156,0,6,4,5,8,2,7,nan,nan,nan,nan,nan,nan,nan,nan,nan,nan,nan,nan,0.0,nan,nan,nan,nan,nan,nan,nan,nan,nan,nan,nan,nan,nan,nan,nan,nan,nan,nan,709.2778717963956,727.4406952604186,nan,728.0935166659765,nan,nan,nan,nan
1,19,1,1,1.0,1.0,0.6522939761634916,0,1,5,2,0,6,4,nan,nan,nan,nan,nan,nan,nan,nan,nan,nan,nan,nan,0.0,nan,nan,nan,nan,nan,nan,nan,nan,nan,nan,nan,nan,nan,nan,nan,nan,nan,nan,709.2778717963956,728.4491583651397,nan,729.1014523413032,nan,nan,nan,nan
1,20,1,1,1.0,1.0,0.6197977636475116,0,5,1,3,4,2,6,nan,nan,nan,nan,nan,nan,nan,nan,nan,nan,nan,nan,0.0,nan,nan,nan,nan,nan,nan,nan,nan,nan,nan,nan,nan,nan,nan,nan,nan,nan,nan,709.2778717963956,729.4576171934605,nan,730.077414957108,nan,nan,nan,nan
1,21,1,1,nan,nan,nan,0,2,6,7,0,8,4,nan,nan,nan,nan,nan,nan,nan,nan,nan,nan,nan,nan,0.0,nan,nan,nan,nan,nan,nan,nan,nan,nan,nan,nan,nan,nan,nan,nan,nan,nan,nan,709.2778717963956,730.4661025358364,nan,nan,nan,nan,nan,nan
1,22,1,1,nan,nan,nan,0,6,3,1,4,5,0,nan,nan,nan,nan,nan,nan,nan,nan,nan,nan,nan,nan,0.0,nan,nan,nan,nan,nan,nan,nan,nan,nan,nan,nan,nan,nan,nan,nan,nan,nan,nan,709.2778717963956,731.4745185994543,nan,nan,nan,nan,nan,nan
1,23,1,1,nan,nan,nan,0,2,4,8,5,0,7,nan,nan,nan,nan,nan,nan,nan,nan,nan,nan,nan,nan,0.0,nan,nan,nan,nan,nan,nan,nan,nan,nan,nan,nan,nan,nan,nan,nan,nan,nan,nan,709.2778717963956,732.48295604554,nan,nan,nan,nan,nan,nan
1,24,1,1,nan,nan,nan,0,7,3,0,1,6,4,nan,nan,nan,nan,nan,nan,nan,nan,nan,nan,nan,nan,0.0,nan,nan,nan,nan,nan,nan,nan,nan,nan,nan,nan,nan,nan,nan,nan,nan,nan,nan,709.2778717963956,733.4914254224859,nan,nan,nan,nan,nan,nan
1,25,1,1,1.0,1.0,0.04143942054361105,0,4,2,3,6,0,1,nan,nan,nan,nan,nan,nan,nan,nan,nan,nan,nan,nan,0.0,nan,nan,nan,nan,nan,nan,nan,nan,nan,nan,nan,nan,nan,nan,nan,nan,nan,nan,709.2778717963956,734.4999207430519,nan,734.5413601635955,nan,nan,nan,nan
1,26,1,1,1.0,1.0,0.5049336038064212,0,8,1,7,2,4,5,nan,nan,nan,nan,nan,nan,nan,nan,nan,nan,nan,nan,0.0,nan,nan,nan,nan,nan,nan,nan,nan,nan,nan,nan,nan,nan,nan,nan,nan,nan,nan,709.2778717963956,735.5083445045166,nan,736.013278108323,nan,nan,nan,nan
1,27,1,1,1.0,1.0,0.31245149788446724,0,5,4,3,6,0,7,nan,nan,nan,nan,nan,nan,nan,nan,nan,nan,nan,nan,0.0,nan,nan,nan,nan,nan,nan,nan,nan,nan,nan,nan,nan,nan,nan,nan,nan,nan,nan,709.2778717963956,736.5168392548803,nan,736.8292907527648,nan,nan,nan,nan
1,28,0,0,1.0,0.0,0.27198939002119005,0,3,2,0,7,5,4,nan,nan,nan,nan,nan,nan,nan,nan,nan,nan,nan,nan,0.0,nan,nan,nan,nan,nan,nan,nan,nan,nan,nan,nan,nan,nan,nan,nan,nan,nan,nan,709.2778717963956,737.525279836962,nan,737.7972692269832,nan,nan,nan,nan
1,29,1,1,1.0,1.0,0.4154892635997385,0,2,1,3,5,4,0,nan,nan,nan,nan,nan,nan,nan,nan,nan,nan,nan,nan,0.0,nan,nan,nan,nan,nan,nan,nan,nan,nan,nan,nan,nan,nan,nan,nan,nan,nan,nan,709.2778717963956,738.5337486437056,nan,738.9492379073054,nan,nan,nan,nan
1,30,1,1,1.0,1.0,0.41501657268963754,0,8,5,4,6,2,3,nan,nan,nan,nan,nan,nan,nan,nan,nan,nan,nan,nan,0.0,nan,nan,nan,nan,nan,nan,nan,nan,nan,nan,nan,nan,nan,nan,nan,nan,nan,nan,709.2778717963956,739.5422108932398,nan,739.9572274659295,nan,nan,nan,nan
1,31,1,1,1.0,1.0,0.43853736110031605,1,0,2,7,5,6,4,1.0,1.0,1.0,1.0,1.0,1.0,0.0,0.0,0.0,0.0,0.0,0.0,0.0,3.0,7.0,1.0,8.0,0.0,5.0,5.0,6.0,1.0,2.0,3.0,4.0,5.417497772024944,6.12146358541213,1.7296972442418337,2.874372857855633,3.665430105989799,4.489332810277119,709.2778717963956,740.5506771339569,741.3590751225129,740.9892144950572,748.5349682886153,749.5342683754861,742.375866481103,748.5266366137657
1,32,1,1,1.0,1.0,0.6615268427412957,0,3,8,5,4,2,6,nan,nan,nan,nan,nan,nan,nan,nan,nan,nan,nan,nan,0.0,nan,nan,nan,nan,nan,nan,nan,nan,nan,nan,nan,nan,nan,nan,nan,nan,nan,nan,709.2778717963956,749.7434885269031,nan,750.4050153696444,nan,nan,nan,nan
1,33,1,1,1.0,1.0,0.501083938870579,0,4,6,0,7,1,5,nan,nan,nan,nan,nan,nan,nan,nan,nan,nan,nan,nan,0.0,nan,nan,nan,nan,nan,nan,nan,nan,nan,nan,nan,nan,nan,nan,nan,nan,nan,nan,709.2778717963956,750.7518994589336,nan,751.2529833978042,nan,nan,nan,nan
1,34,1,1,1.0,1.0,0.4045563633553684,0,5,0,6,8,7,2,nan,nan,nan,nan,nan,nan,nan,nan,nan,nan,nan,nan,0.0,nan,nan,nan,nan,nan,nan,nan,nan,nan,nan,nan,nan,nan,nan,nan,nan,nan,nan,709.2778717963956,751.7604039027356,nan,752.1649602660909,nan,nan,nan,nan
1,35,1,1,1.0,1.0,0.3800710919313133,0,2,8,4,1,0,5,nan,nan,nan,nan,nan,nan,nan,nan,nan,nan,nan,nan,0.0,nan,nan,nan,nan,nan,nan,nan,nan,nan,nan,nan,nan,nan,nan,nan,nan,nan,nan,709.2778717963956,752.768884398276,nan,753.1489554902073,nan,nan,nan,nan
1,36,1,1,1.0,1.0,0.3396437654737383,0,6,5,2,8,7,3,nan,nan,nan,nan,nan,nan,nan,nan,nan,nan,nan,nan,0.0,nan,nan,nan,nan,nan,nan,nan,nan,nan,nan,nan,nan,nan,nan,nan,nan,nan,nan,709.2778717963956,753.7772967559285,nan,754.1169405214023,nan,nan,nan,nan
1,37,1,1,1.0,1.0,0.4111609205137938,0,0,6,4,7,2,8,nan,nan,nan,nan,nan,nan,nan,nan,nan,nan,nan,nan,0.0,nan,nan,nan,nan,nan,nan,nan,nan,nan,nan,nan,nan,nan,nan,nan,nan,nan,nan,709.2778717963956,754.7857621414587,nan,755.1969230619725,nan,nan,nan,nan
1,38,1,1,1.0,1.0,0.6346339269075543,0,6,7,1,4,0,2,nan,nan,nan,nan,nan,nan,nan,nan,nan,nan,nan,nan,0.0,nan,nan,nan,nan,nan,nan,nan,nan,nan,nan,nan,nan,nan,nan,nan,nan,nan,nan,709.2778717963956,755.7942531856243,nan,756.4288871125318,nan,nan,nan,nan
1,39,1,1,1.0,1.0,0.6421545010525733,0,8,2,6,5,7,0,nan,nan,nan,nan,nan,nan,nan,nan,nan,nan,nan,nan,0.0,nan,nan,nan,nan,nan,nan,nan,nan,nan,nan,nan,nan,nan,nan,nan,nan,nan,nan,709.2778717963956,756.8027128691319,nan,757.4448673701845,nan,nan,nan,nan
1,40,1,1,1.0,1.0,0.617664952762425,0,2,8,0,6,4,3,nan,nan,nan,nan,nan,nan,nan,nan,nan,nan,nan,nan,0.0,nan,nan,nan,nan,nan,nan,nan,nan,nan,nan,nan,nan,nan,nan,nan,nan,nan,nan,709.2778717963956,757.8111796802841,nan,758.4288446330465,nan,nan,nan,nan
1,41,1,1,1.0,1.0,0.6571942234877497,0,3,0,4,7,5,8,nan,nan,nan,nan,nan,nan,nan,nan,nan,nan,nan,nan,0.0,nan,nan,nan,nan,nan,nan,nan,nan,nan,nan,nan,nan,nan,nan,nan,nan,nan,nan,709.2778717963956,758.8196219727397,nan,759.4768161962274,nan,nan,nan,nan
1,42,1,1,1.0,1.0,0.6487165789585561,0,0,6,1,8,2,7,nan,nan,nan,nan,nan,nan,nan,nan,nan,nan,nan,nan,0.0,nan,nan,nan,nan,nan,nan,nan,nan,nan,nan,nan,nan,nan,nan,nan,nan,nan,nan,709.2778717963956,759.8280856476631,nan,760.4768022266217,nan,nan,nan,nan
1,43,1,1,1.0,1.0,0.6962413950823247,0,5,2,8,3,0,6,nan,nan,nan,nan,nan,nan,nan,nan,nan,nan,nan,nan,0.0,nan,nan,nan,nan,nan,nan,nan,nan,nan,nan,nan,nan,nan,nan,nan,nan,nan,nan,709.2778717963956,760.836538203992,nan,761.5327795990743,nan,nan,nan,nan
1,44,1,1,1.0,1.0,0.7197784339077771,0,4,0,5,6,3,2,nan,nan,nan,nan,nan,nan,nan,nan,nan,nan,nan,nan,0.0,nan,nan,nan,nan,nan,nan,nan,nan,nan,nan,nan,nan,nan,nan,nan,nan,nan,nan,709.2778717963956,761.8450053001288,nan,762.5647837340366,nan,nan,nan,nan
1,45,1,1,nan,nan,nan,0,8,3,0,5,2,7,nan,nan,nan,nan,nan,nan,nan,nan,nan,nan,nan,nan,0.0,nan,nan,nan,nan,nan,nan,nan,nan,nan,nan,nan,nan,nan,nan,nan,nan,nan,nan,709.2778717963956,762.8534678346477,nan,nan,nan,nan,nan,nan
1,46,0,0,1.0,0.0,0.12685106345452368,0,2,5,7,0,6,4,nan,nan,nan,nan,nan,nan,nan,nan,nan,nan,nan,nan,0.0,nan,nan,nan,nan,nan,nan,nan,nan,nan,nan,nan,nan,nan,nan,nan,nan,nan,nan,709.2778717963956,763.8619024297222,nan,763.9887534931768,nan,nan,nan,nan
1,47,1,1,1.0,1.0,0.4703088568057865,0,0,2,5,8,1,6,nan,nan,nan,nan,nan,nan,nan,nan,nan,nan,nan,nan,0.0,nan,nan,nan,nan,nan,nan,nan,nan,nan,nan,nan,nan,nan,nan,nan,nan,nan,nan,709.2778717963956,764.8703814998735,nan,765.3406903566793,nan,nan,nan,nan
1,48,1,1,1.0,1.0,0.533843866083771,0,2,0,1,6,3,7,nan,nan,nan,nan,nan,nan,nan,nan,nan,nan,nan,nan,0.0,nan,nan,nan,nan,nan,nan,nan,nan,nan,nan,nan,nan,nan,nan,nan,nan,nan,nan,709.2778717963956,765.8788460299838,nan,766.4126898960676,nan,nan,nan,nan
1,49,1,1,nan,nan,nan,0,0,8,5,2,1,6,nan,nan,nan,nan,nan,nan,nan,nan,nan,nan,nan,nan,0.0,nan,nan,nan,nan,nan,nan,nan,nan,nan,nan,nan,nan,nan,nan,nan,nan,nan,nan,709.2778717963956,766.8873097049072,nan,nan,nan,nan,nan,nan
1,50,1,1,1.0,1.0,0.004933888791128993,0,8,1,4,0,5,7,nan,nan,nan,nan,nan,nan,nan,nan,nan,nan,nan,nan,0.0,nan,nan,nan,nan,nan,nan,nan,nan,nan,nan,nan,nan,nan,nan,nan,nan,nan,nan,709.2778717963956,767.895742589375,nan,767.9006764781661,nan,nan,nan,nan
1,51,1,1,1.0,1.0,0.2284479490481317,0,0,7,6,3,2,8,nan,nan,nan,nan,nan,nan,nan,nan,nan,nan,nan,nan,0.0,nan,nan,nan,nan,nan,nan,nan,nan,nan,nan,nan,nan,nan,nan,nan,nan,nan,nan,709.2778717963956,768.9041979964823,nan,769.1326459455304,nan,nan,nan,nan
1,52,1,1,1.0,1.0,0.3079355612862855,0,8,4,0,6,1,2,nan,nan,nan,nan,nan,nan,nan,nan,nan,nan,nan,nan,0.0,nan,nan,nan,nan,nan,nan,nan,nan,nan,nan,nan,nan,nan,nan,nan,nan,nan,nan,709.2778717963956,769.9126687988173,nan,770.2206043601036,nan,nan,nan,nan
1,53,1,1,1.0,1.0,0.37118632858619094,1,3,7,4,5,2,8,1.0,1.0,1.0,1.0,1.0,1.0,1.0,1.0,1.0,0.0,0.0,0.0,3.0,3.0,7.0,4.0,2.0,3.0,7.0,6.0,1.0,2.0,3.0,4.0,5.0,6.8625307832844555,1.6062932882923633,2.918246436631307,3.9103424071799964,4.974935411242768,6.1032250742428005,709.2778717963956,770.929411690915,771.7378592863679,771.3005980195012,779.6471662214026,780.6463836301118,772.7463095618878,779.6388305549044
1,54,1,1,nan,nan,nan,0,2,6,1,4,3,5,nan,nan,nan,nan,nan,nan,nan,nan,nan,nan,nan,nan,0.0,nan,nan,nan,nan,nan,nan,nan,nan,nan,nan,nan,nan,nan,nan,nan,nan,nan,nan,709.2778717963956,780.8556739152409,nan,nan,nan,nan,nan,nan
1,55,0,0,0.0,1.0,0.5881260517053306,0,5,1,3,7,0,8,nan,nan,nan,nan,nan,nan,nan,nan,nan,nan,nan,nan,0.0,nan,nan,nan,nan,nan,nan,nan,nan,nan,nan,nan,nan,nan,nan,nan,nan,nan,nan,709.2778717963956,781.8641772186384,nan,782.4523032703437,nan,nan,nan,nan
1,56,1,1,1.0,1.0,0.3157175693195313,0,0,7,8,4,2,6,nan,nan,nan,nan,nan,nan,nan,nan,nan,nan,nan,nan,0.0,nan,nan,nan,nan,nan,nan,nan,nan,nan,nan,nan,nan,nan,nan,nan,nan,nan,nan,709.2778717963956,782.8726309151389,nan,783.1883484844584,nan,nan,nan,nan
1,57,1,1,1.0,1.0,0.35522232158109546,0,1,4,3,2,6,0,nan,nan,nan,nan,nan,nan,nan,nan,nan,nan,nan,nan,0.0,nan,nan,nan,nan,nan,nan,nan,nan,nan,nan,nan,nan,nan,nan,nan,nan,nan,nan,709.2778717963956,783.8810903136618,nan,784.2363126352429,nan,nan,nan,nan
1,58,1,1,1.0,1.0,0.32276260131038725,0,4,1,0,8,5,3,nan,nan,nan,nan,nan,nan,nan,nan,nan,nan,nan,nan,0.0,nan,nan,nan,nan,nan,nan,nan,nan,nan,nan,nan,nan,nan,nan,nan,nan,nan,nan,709.2778717963956,784.889552563196,nan,785.2123151645064,nan,nan,nan,nan
1,59,1,1,1.0,1.0,0.3302546658087522,0,0,2,3,4,1,5,nan,nan,nan,nan,nan,nan,nan,nan,nan,nan,nan,nan,0.0,nan,nan,nan,nan,nan,nan,nan,nan,nan,nan,nan,nan,nan,nan,nan,nan,nan,nan,709.2778717963956,785.8980188039131,nan,786.2282734697219,nan,nan,nan,nan
1,60,1,1,1.0,1.0,0.3697827961295843,0,4,3,6,2,0,8,nan,nan,nan,nan,nan,nan,nan,nan,nan,nan,nan,nan,0.0,nan,nan,nan,nan,nan,nan,nan,nan,nan,nan,nan,nan,nan,nan,nan,nan,nan,nan,709.2778717963956,786.9064796278253,nan,787.2762624239549,nan,nan,nan,nan
1,61,1,1,1.0,1.0,0.4732946779113263,0,6,0,5,4,2,7,nan,nan,nan,nan,nan,nan,nan,nan,nan,nan,nan,nan,0.0,nan,nan,nan,nan,nan,nan,nan,nan,nan,nan,nan,nan,nan,nan,nan,nan,nan,nan,709.2778717963956,787.9149413071573,nan,788.3882359850686,nan,nan,nan,nan
1,62,0,0,0.0,1.0,0.6168076661415398,0,7,5,8,3,6,1,nan,nan,nan,nan,nan,nan,nan,nan,nan,nan,nan,nan,0.0,nan,nan,nan,nan,nan,nan,nan,nan,nan,nan,nan,nan,nan,nan,nan,nan,nan,nan,709.2778717963956,788.9233944334555,nan,789.5402020995971,nan,nan,nan,nan
1,63,1,1,1.0,1.0,0.6563577488996089,0,8,6,0,4,1,2,nan,nan,nan,nan,nan,nan,nan,nan,nan,nan,nan,nan,0.0,nan,nan,nan,nan,nan,nan,nan,nan,nan,nan,nan,nan,nan,nan,nan,nan,nan,nan,709.2778717963956,789.9318258925341,nan,790.5881836414337,nan,nan,nan,nan
1,64,1,1,1.0,1.0,0.6718667410314083,0,3,1,7,5,0,6,nan,nan,nan,nan,nan,nan,nan,nan,nan,nan,nan,nan,0.0,nan,nan,nan,nan,nan,nan,nan,nan,nan,nan,nan,nan,nan,nan,nan,nan,nan,nan,709.2778717963956,790.9402895674575,nan,791.6121563084889,nan,nan,nan,nan
1,65,1,1,1.0,1.0,0.6873911283910275,0,7,4,5,3,8,0,nan,nan,nan,nan,nan,nan,nan,nan,nan,nan,nan,nan,0.0,nan,nan,nan,nan,nan,nan,nan,nan,nan,nan,nan,nan,nan,nan,nan,nan,nan,nan,709.2778717963956,791.9487560933921,nan,792.6361472217832,nan,nan,nan,nan
1,66,0,0,0.0,1.0,0.6709207892417908,0,5,8,1,2,7,6,nan,nan,nan,nan,nan,nan,nan,nan,nan,nan,nan,nan,0.0,nan,nan,nan,nan,nan,nan,nan,nan,nan,nan,nan,nan,nan,nan,nan,nan,nan,nan,709.2778717963956,792.9572097898927,nan,793.6281305791344,nan,nan,nan,nan
1,67,1,1,1.0,1.0,0.6063987743109465,0,3,5,7,6,8,2,nan,nan,nan,nan,nan,nan,nan,nan,nan,nan,nan,nan,0.0,nan,nan,nan,nan,nan,nan,nan,nan,nan,nan,nan,nan,nan,nan,nan,nan,nan,nan,709.2778717963956,793.9656988384668,nan,794.5720976127777,nan,nan,nan,nan
1,68,1,1,1.0,1.0,0.7260431556496769,0,8,7,4,3,6,5,nan,nan,nan,nan,nan,nan,nan,nan,nan,nan,nan,nan,0.0,nan,nan,nan,nan,nan,nan,nan,nan,nan,nan,nan,nan,nan,nan,nan,nan,nan,nan,709.2778717963956,794.9741277315188,nan,795.7001708871685,nan,nan,nan,nan
1,69,1,1,nan,nan,nan,0,2,6,5,7,0,3,nan,nan,nan,nan,nan,nan,nan,nan,nan,nan,nan,nan,0.0,nan,nan,nan,nan,nan,nan,nan,nan,nan,nan,nan,nan,nan,nan,nan,nan,nan,nan,709.2778717963956,795.9825888406485,nan,nan,nan,nan,nan,nan
1,70,1,1,1.0,1.0,0.7489960310049355,1,8,5,1,6,2,7,1.0,1.0,1.0,1.0,1.0,1.0,1.0,0.0,1.0,1.0,0.0,0.0,3.0,8.0,7.0,1.0,6.0,1.0,0.0,4.0,3.0,1.0,2.0,6.0,5.0,5.744858703110367,4.650141778867692,1.3226066534407437,2.3464712689165026,9.904154661810026,9.352494798367843,709.2778717963956,796.9910473837517,797.799496974796,797.7400434147567,808.7508303450886,809.750425792532,798.8079178852495,808.7424895470031
1,71,1,1,1.0,1.0,0.7244078391231596,0,3,0,2,4,6,5,nan,nan,nan,nan,nan,nan,nan,nan,nan,nan,nan,nan,0.0,nan,nan,nan,nan,nan,nan,nan,nan,nan,nan,nan,nan,nan,nan,nan,nan,nan,nan,709.2778717963956,809.9593825142365,nan,810.6837903533597,nan,nan,nan,nan
1,72,1,1,1.0,1.0,0.39593959134072065,0,5,6,7,2,3,0,nan,nan,nan,nan,nan,nan,nan,nan,nan,nan,nan,nan,0.0,nan,nan,nan,nan,nan,nan,nan,nan,nan,nan,nan,nan,nan,nan,nan,nan,nan,nan,709.2778717963956,810.9678208155092,nan,811.3637604068499,nan,nan,nan,nan
1,73,1,1,1.0,1.0,0.31546326261013746,0,7,3,1,5,4,6,nan,nan,nan,nan,nan,nan,nan,nan,nan,nan,nan,nan,0.0,nan,nan,nan,nan,nan,nan,nan,nan,nan,nan,nan,nan,nan,nan,nan,nan,nan,nan,709.2778717963956,811.9762785034254,nan,812.2917417660356,nan,nan,nan,nan
1,74,1,1,1.0,1.0,0.4030122780241072,0,0,7,2,6,8,3,nan,nan,nan,nan,nan,nan,nan,nan,nan,nan,nan,nan,0.0,nan,nan,nan,nan,nan,nan,nan,nan,nan,nan,nan,nan,nan,nan,nan,nan,nan,nan,709.2778717963956,812.984700839268,nan,813.3877131172922,nan,nan,nan,nan
1,75,1,1,1.0,1.0,0.5225677092093974,0,3,6,8,5,2,1,nan,nan,nan,nan,nan,nan,nan,nan,nan,nan,nan,nan,0.0,nan,nan,nan,nan,nan,nan,nan,nan,nan,nan,nan,nan,nan,nan,nan,nan,nan,nan,709.2778717963956,813.9931796242017,nan,814.5157473334111,nan,nan,nan,nan
1,76,1,1,1.0,1.0,0.6500248888041824,0,6,1,7,2,0,5,nan,nan,nan,nan,nan,nan,nan,nan,nan,nan,nan,nan,0.0,nan,nan,nan,nan,nan,nan,nan,nan,nan,nan,nan,nan,nan,nan,nan,nan,nan,nan,709.2778717963956,815.0016706686001,nan,815.6516955574043,nan,nan,nan,nan
1,77,1,1,1.0,1.0,0.6415691967122257,0,2,8,0,7,4,1,nan,nan,nan,nan,nan,nan,nan,nan,nan,nan,nan,nan,0.0,nan,nan,nan,nan,nan,nan,nan,nan,nan,nan,nan,nan,nan,nan,nan,nan,nan,nan,709.2778717963956,816.0100964256562,nan,816.6516656223685,nan,nan,nan,nan
1,78,1,1,1.0,1.0,0.7369931617286056,0,3,4,5,1,2,7,nan,nan,nan,nan,nan,nan,nan,nan,nan,nan,nan,nan,0.0,nan,nan,nan,nan,nan,nan,nan,nan,nan,nan,nan,nan,nan,nan,nan,nan,nan,nan,709.2778717963956,817.0186176900752,nan,817.7556108518038,nan,nan,nan,nan
1,79,1,1,1.0,1.0,0.7606103126890957,0,2,8,4,6,0,1,nan,nan,nan,nan,nan,nan,nan,nan,nan,nan,nan,nan,0.0,nan,nan,nan,nan,nan,nan,nan,nan,nan,nan,nan,nan,nan,nan,nan,nan,nan,nan,709.2778717963956,818.0269764494151,nan,818.7875867621042,nan,nan,nan,nan
1,80,1,1,nan,nan,nan,0,0,6,5,4,1,2,nan,nan,nan,nan,nan,nan,nan,nan,nan,nan,nan,nan,0.0,nan,nan,nan,nan,nan,nan,nan,nan,nan,nan,nan,nan,nan,nan,nan,nan,nan,nan,709.2778717963956,819.0354549493641,nan,nan,nan,nan,nan,nan
1,81,1,1,nan,nan,nan,0,8,5,2,6,7,0,nan,nan,nan,nan,nan,nan,nan,nan,nan,nan,nan,nan,0.0,nan,nan,nan,nan,nan,nan,nan,nan,nan,nan,nan,nan,nan,nan,nan,nan,nan,nan,709.2778717963956,820.0439303133171,nan,nan,nan,nan,nan,nan
1,82,1,1,nan,nan,nan,0,2,6,7,4,0,3,nan,nan,nan,nan,nan,nan,nan,nan,nan,nan,nan,nan,0.0,nan,nan,nan,nan,nan,nan,nan,nan,nan,nan,nan,nan,nan,nan,nan,nan,nan,nan,709.2778717963956,821.052393703023,nan,nan,nan,nan,nan,nan
1,83,1,1,nan,nan,nan,0,1,2,3,6,7,8,nan,nan,nan,nan,nan,nan,nan,nan,nan,nan,nan,nan,0.0,nan,nan,nan,nan,nan,nan,nan,nan,nan,nan,nan,nan,nan,nan,nan,nan,nan,nan,709.2778717963956,822.0608311491087,nan,nan,nan,nan,nan,nan
1,84,1,1,nan,nan,nan,0,4,0,8,1,6,3,nan,nan,nan,nan,nan,nan,nan,nan,nan,nan,nan,nan,0.0,nan,nan,nan,nan,nan,nan,nan,nan,nan,nan,nan,nan,nan,nan,nan,nan,nan,nan,709.2778717963956,823.069297960028,nan,nan,nan,nan,nan,nan
1,85,1,1,nan,nan,nan,0,6,2,1,0,7,5,nan,nan,nan,nan,nan,nan,nan,nan,nan,nan,nan,nan,0.0,nan,nan,nan,nan,nan,nan,nan,nan,nan,nan,nan,nan,nan,nan,nan,nan,nan,nan,709.2778717963956,824.0777659115847,nan,nan,nan,nan,nan,nan
1,86,0,0,0.0,1.0,0.6771755325607955,0,5,6,3,2,8,0,nan,nan,nan,nan,nan,nan,nan,nan,nan,nan,nan,nan,0.0,nan,nan,nan,nan,nan,nan,nan,nan,nan,nan,nan,nan,nan,nan,nan,nan,nan,nan,709.2778717963956,825.0862364287023,nan,825.763411961263,nan,nan,nan,nan
1,87,1,1,1.0,1.0,0.5004356284625828,0,7,4,0,6,5,2,nan,nan,nan,nan,nan,nan,nan,nan,nan,nan,nan,nan,0.0,nan,nan,nan,nan,nan,nan,nan,nan,nan,nan,nan,nan,nan,nan,nan,nan,nan,nan,709.2778717963956,826.1030066900421,nan,826.6034423185047,nan,nan,nan,nan
1,88,1,1,1.0,1.0,0.5719242736231536,0,8,6,1,3,7,0,nan,nan,nan,nan,nan,nan,nan,nan,nan,nan,nan,nan,0.0,nan,nan,nan,nan,nan,nan,nan,nan,nan,nan,nan,nan,nan,nan,nan,nan,nan,nan,709.2778717963956,827.1114860454109,nan,827.683410319034,nan,nan,nan,nan
1,89,0,0,1.0,0.0,0.6194636297877878,0,6,2,0,1,4,5,nan,nan,nan,nan,nan,nan,nan,nan,nan,nan,nan,nan,0.0,nan,nan,nan,nan,nan,nan,nan,nan,nan,nan,nan,nan,nan,nan,nan,nan,nan,nan,709.2778717963956,828.1199591285549,nan,828.7394227583427,nan,nan,nan,nan
1,90,1,1,1.0,1.0,0.6989555186592042,0,0,1,3,7,6,8,nan,nan,nan,nan,nan,nan,nan,nan,nan,nan,nan,nan,0.0,nan,nan,nan,nan,nan,nan,nan,nan,nan,nan,nan,nan,nan,nan,nan,nan,nan,nan,709.2778717963956,829.1284310712945,nan,829.8273865899537,nan,nan,nan,nan
1,91,1,1,1.0,1.0,0.7624714262783527,0,3,8,6,5,4,1,nan,nan,nan,nan,nan,nan,nan,nan,nan,nan,nan,nan,0.0,nan,nan,nan,nan,nan,nan,nan,nan,nan,nan,nan,nan,nan,nan,nan,nan,nan,nan,709.2778717963956,830.1368896143977,nan,830.899361040676,nan,nan,nan,nan
1,92,1,1,1.0,1.0,0.7700213652569801,0,7,3,0,2,6,4,nan,nan,nan,nan,nan,nan,nan,nan,nan,nan,nan,nan,0.0,nan,nan,nan,nan,nan,nan,nan,nan,nan,nan,nan,nan,nan,nan,nan,nan,nan,nan,709.2778717963956,831.1453358985018,nan,831.9153572637588,nan,nan,nan,nan
1,93,1,1,1.0,1.0,0.7535744037013501,0,0,8,6,4,5,3,nan,nan,nan,nan,nan,nan,nan,nan,nan,nan,nan,nan,0.0,nan,nan,nan,nan,nan,nan,nan,nan,nan,nan,nan,nan,nan,nan,nan,nan,nan,nan,709.2778717963956,832.1537596599665,nan,832.9073340636678,nan,nan,nan,nan
1,94,0,0,0.0,1.0,0.673070705961436,0,7,6,4,8,1,0,nan,nan,nan,nan,nan,nan,nan,nan,nan,nan,nan,nan,0.0,nan,nan,nan,nan,nan,nan,nan,nan,nan,nan,nan,nan,nan,nan,nan,nan,nan,nan,709.2778717963956,833.1622444319073,nan,833.8353151378687,nan,nan,nan,nan
1,95,1,1,1.0,1.0,0.7045858995988965,0,0,7,2,5,4,8,nan,nan,nan,nan,nan,nan,nan,nan,nan,nan,nan,nan,0.0,nan,nan,nan,nan,nan,nan,nan,nan,nan,nan,nan,nan,nan,nan,nan,nan,nan,nan,709.2778717963956,834.1707026900258,nan,834.8752885896247,nan,nan,nan,nan
1,96,0,0,nan,nan,nan,0,2,1,5,7,8,4,nan,nan,nan,nan,nan,nan,nan,nan,nan,nan,nan,nan,0.0,nan,nan,nan,nan,nan,nan,nan,nan,nan,nan,nan,nan,nan,nan,nan,nan,nan,nan,709.2778717963956,835.1791940194089,nan,nan,nan,nan,nan,nan
1,97,1,1,1.0,1.0,0.49558812379837036,0,1,6,8,4,7,5,nan,nan,nan,nan,nan,nan,nan,nan,nan,nan,nan,nan,0.0,nan,nan,nan,nan,nan,nan,nan,nan,nan,nan,nan,nan,nan,nan,nan,nan,nan,nan,709.2778717963956,836.1876234826632,nan,836.6832116064616,nan,nan,nan,nan
1,98,1,1,1.0,1.0,0.6151372827589512,0,4,8,0,3,1,6,nan,nan,nan,nan,nan,nan,nan,nan,nan,nan,nan,nan,0.0,nan,nan,nan,nan,nan,nan,nan,nan,nan,nan,nan,nan,nan,nan,nan,nan,nan,nan,709.2778717963956,837.1960774643812,nan,837.8112147471402,nan,nan,nan,nan
1,99,1,1,1.0,1.0,0.7540490902028978,0,6,2,8,5,7,0,nan,nan,nan,nan,nan,nan,nan,nan,nan,nan,nan,nan,0.0,nan,nan,nan,nan,nan,nan,nan,nan,nan,nan,nan,nan,nan,nan,nan,nan,nan,nan,709.2778717963956,838.2091562896967,nan,838.9632053798996,nan,nan,nan,nan
1,100,1,1,1.0,1.0,0.6058225932065398,0,4,0,6,2,3,5,nan,nan,nan,nan,nan,nan,nan,nan,nan,nan,nan,nan,0.0,nan,nan,nan,nan,nan,nan,nan,nan,nan,nan,nan,nan,nan,nan,nan,nan,nan,nan,709.2778717963956,839.2213379146997,nan,839.8271605079062,nan,nan,nan,nan
1,101,1,1,1.0,1.0,0.5813561379909515,0,2,3,7,5,6,4,nan,nan,nan,nan,nan,nan,nan,nan,nan,nan,nan,nan,0.0,nan,nan,nan,nan,nan,nan,nan,nan,nan,nan,nan,nan,nan,nan,nan,nan,nan,nan,709.2778717963956,840.2297913262155,nan,840.8111474642064,nan,nan,nan,nan
1,102,1,1,1.0,1.0,0.5808677668683231,0,7,8,2,0,3,6,nan,nan,nan,nan,nan,nan,nan,nan,nan,nan,nan,nan,0.0,nan,nan,nan,nan,nan,nan,nan,nan,nan,nan,nan,nan,nan,nan,nan,nan,nan,nan,709.2778717963956,841.2382567117456,nan,841.819124478614,nan,nan,nan,nan
1,103,1,1,1.0,1.0,0.6523806455079466,0,8,6,3,1,0,4,nan,nan,nan,nan,nan,nan,nan,nan,nan,nan,nan,nan,0.0,nan,nan,nan,nan,nan,nan,nan,nan,nan,nan,nan,nan,nan,nan,nan,nan,nan,nan,709.2778717963956,842.2467312202789,nan,842.8991118657868,nan,nan,nan,nan
1,104,1,1,1.0,1.0,0.7398888920433819,0,0,1,7,5,2,8,nan,nan,nan,nan,nan,nan,nan,nan,nan,nan,nan,nan,0.0,nan,nan,nan,nan,nan,nan,nan,nan,nan,nan,nan,nan,nan,nan,nan,nan,nan,nan,709.2778717963956,843.2552003120072,nan,843.9950892040506,nan,nan,nan,nan
1,105,1,1,1.0,1.0,0.6834054724313319,0,5,7,0,4,6,3,nan,nan,nan,nan,nan,nan,nan,nan,nan,nan,nan,nan,0.0,nan,nan,nan,nan,nan,nan,nan,nan,nan,nan,nan,nan,nan,nan,nan,nan,nan,nan,709.2778717963956,844.2636614211369,nan,844.9470668935683,nan,nan,nan,nan
1,106,1,1,1.0,1.0,0.594923619646579,0,2,6,8,1,7,0,nan,nan,nan,nan,nan,nan,nan,nan,nan,nan,nan,nan,0.0,nan,nan,nan,nan,nan,nan,nan,nan,nan,nan,nan,nan,nan,nan,nan,nan,nan,nan,709.2778717963956,845.2721239556558,nan,845.8670475753024,nan,nan,nan,nan
1,107,1,1,1.0,1.0,0.47445331211201847,0,6,2,4,3,5,1,nan,nan,nan,nan,nan,nan,nan,nan,nan,nan,nan,nan,0.0,nan,nan,nan,nan,nan,nan,nan,nan,nan,nan,nan,nan,nan,nan,nan,nan,nan,nan,709.2778717963956,846.2805762267672,nan,846.7550295388792,nan,nan,nan,nan
1,108,1,1,1.0,1.0,0.4899734230712056,0,3,7,0,1,8,6,nan,nan,nan,nan,nan,nan,nan,nan,nan,nan,nan,nan,0.0,nan,nan,nan,nan,nan,nan,nan,nan,nan,nan,nan,nan,nan,nan,nan,nan,nan,nan,709.2778717963956,847.2890444633085,nan,847.7790178863797,nan,nan,nan,nan
1,109,1,1,1.0,1.0,0.48883788171224296,0,8,6,3,4,1,7,nan,nan,nan,nan,nan,nan,nan,nan,nan,nan,nan,nan,0.0,nan,nan,nan,nan,nan,nan,nan,nan,nan,nan,nan,nan,nan,nan,nan,nan,nan,nan,709.2778717963956,848.3141540973447,nan,848.802991979057,nan,nan,nan,nan
1,110,1,1,1.0,1.0,0.43234077747911215,0,2,7,4,5,8,1,nan,nan,nan,nan,nan,nan,nan,nan,nan,nan,nan,nan,0.0,nan,nan,nan,nan,nan,nan,nan,nan,nan,nan,nan,nan,nan,nan,nan,nan,nan,nan,709.2778717963956,849.322627750691,nan,849.7549685281701,nan,nan,nan,nan
1,111,1,1,1.0,1.0,0.4398613516241312,1,6,0,7,4,1,8,1.0,1.0,1.0,1.0,1.0,1.0,0.0,0.0,1.0,1.0,0.0,0.0,2.0,3.0,5.0,7.0,4.0,6.0,7.0,5.0,4.0,3.0,2.0,1.0,6.0,5.578984986292198,4.715567551087588,3.331933317007497,2.3235203893855214,1.5566618903540075,6.443013954441994,709.2778717963956,850.3310874341987,851.1394802909344,850.7709487858228,858.6320589308161,859.6322094618808,852.1479419702664,858.6237241197377
1,112,1,1,1.0,1.0,0.4981882085558027,0,5,1,2,7,6,3,nan,nan,nan,nan,nan,nan,nan,nan,nan,nan,nan,nan,0.0,nan,nan,nan,nan,nan,nan,nan,nan,nan,nan,nan,nan,nan,nan,nan,nan,nan,nan,709.2778717963956,859.8405783136841,nan,860.3387665222399,nan,nan,nan,nan
1,113,1,1,1.0,1.0,0.4257139826659113,0,6,8,4,5,7,0,nan,nan,nan,nan,nan,nan,nan,nan,nan,nan,nan,nan,0.0,nan,nan,nan,nan,nan,nan,nan,nan,nan,nan,nan,nan,nan,nan,nan,nan,nan,nan,709.2778717963956,860.849022601964,nan,861.2747365846299,nan,nan,nan,nan
1,114,0,0,1.0,0.0,0.41721410024911165,0,4,5,6,2,3,1,nan,nan,nan,nan,nan,nan,nan,nan,nan,nan,nan,nan,0.0,nan,nan,nan,nan,nan,nan,nan,nan,nan,nan,nan,nan,nan,nan,nan,nan,nan,nan,709.2778717963956,861.857518492965,nan,862.2747325932141,nan,nan,nan,nan
1,115,1,1,1.0,1.0,0.36076888372190297,0,3,4,5,0,8,7,nan,nan,nan,nan,nan,nan,nan,nan,nan,nan,nan,nan,0.0,nan,nan,nan,nan,nan,nan,nan,nan,nan,nan,nan,nan,nan,nan,nan,nan,nan,nan,709.2778717963956,862.8659853038844,nan,863.2267541876063,nan,nan,nan,nan
1,116,0,0,1.0,0.0,0.3682213197462261,0,6,3,1,7,4,0,nan,nan,nan,nan,nan,nan,nan,nan,nan,nan,nan,nan,0.0,nan,nan,nan,nan,nan,nan,nan,nan,nan,nan,nan,nan,nan,nan,nan,nan,nan,nan,709.2778717963956,863.8744412811939,nan,864.2426626009401,nan,nan,nan,nan
1,117,1,1,1.0,1.0,0.4317480609752238,0,0,6,3,2,7,8,nan,nan,nan,nan,nan,nan,nan,nan,nan,nan,nan,nan,0.0,nan,nan,nan,nan,nan,nan,nan,nan,nan,nan,nan,nan,nan,nan,nan,nan,nan,nan,709.2778717963956,864.8829072369263,nan,865.3146552979015,nan,nan,nan,nan
1,118,1,1,1.0,1.0,0.5112077335361391,0,8,0,4,7,5,6,nan,nan,nan,nan,nan,nan,nan,nan,nan,nan,nan,nan,0.0,nan,nan,nan,nan,nan,nan,nan,nan,nan,nan,nan,nan,nan,nan,nan,nan,nan,nan,709.2778717963956,865.8914179529529,nan,866.402625686489,nan,nan,nan,nan
1,119,1,1,1.0,1.0,0.4467900642193854,0,0,6,3,5,4,7,nan,nan,nan,nan,nan,nan,nan,nan,nan,nan,nan,nan,0.0,nan,nan,nan,nan,nan,nan,nan,nan,nan,nan,nan,nan,nan,nan,nan,nan,nan,nan,709.2778717963956,866.8998220425565,nan,867.3466121067759,nan,nan,nan,nan
1,120,1,1,1.0,1.0,0.4543351565953344,0,6,2,0,7,8,1,nan,nan,nan,nan,nan,nan,nan,nan,nan,nan,nan,nan,0.0,nan,nan,nan,nan,nan,nan,nan,nan,nan,nan,nan,nan,nan,nan,nan,nan,nan,nan,709.2778717963956,867.9082794452552,nan,868.3626146018505,nan,nan,nan,nan
1,121,1,1,1.0,1.0,0.5018462880980223,0,7,0,4,2,3,6,nan,nan,nan,nan,nan,nan,nan,nan,nan,nan,nan,nan,0.0,nan,nan,nan,nan,nan,nan,nan,nan,nan,nan,nan,nan,nan,nan,nan,nan,nan,nan,709.2778717963956,868.9167468266096,nan,869.4185931147076,nan,nan,nan,nan
1,122,1,1,1.0,1.0,0.4773601614870131,0,5,2,7,3,6,8,nan,nan,nan,nan,nan,nan,nan,nan,nan,nan,nan,nan,0.0,nan,nan,nan,nan,nan,nan,nan,nan,nan,nan,nan,nan,nan,nan,nan,nan,nan,nan,709.2778717963956,869.9252062248997,nan,870.4025663863868,nan,nan,nan,nan
1,123,1,1,1.0,1.0,0.5168788833543658,0,7,8,2,0,5,4,nan,nan,nan,nan,nan,nan,nan,nan,nan,nan,nan,nan,0.0,nan,nan,nan,nan,nan,nan,nan,nan,nan,nan,nan,nan,nan,nan,nan,nan,nan,nan,709.2778717963956,870.9336365435738,nan,871.4505154269282,nan,nan,nan,nan
1,124,1,1,1.0,1.0,0.6523726626764983,0,8,0,5,6,3,2,nan,nan,nan,nan,nan,nan,nan,nan,nan,nan,nan,nan,0.0,nan,nan,nan,nan,nan,nan,nan,nan,nan,nan,nan,nan,nan,nan,nan,nan,nan,nan,709.2778717963956,871.9421218859497,nan,872.5944945486262,nan,nan,nan,nan
1,125,1,1,1.0,1.0,0.7719121286645532,0,6,2,3,5,0,7,nan,nan,nan,nan,nan,nan,nan,nan,nan,nan,nan,nan,0.0,nan,nan,nan,nan,nan,nan,nan,nan,nan,nan,nan,nan,nan,nan,nan,nan,nan,nan,709.2778717963956,872.9505556256045,nan,873.722467754269,nan,nan,nan,nan
1,126,1,1,nan,nan,nan,0,8,0,1,7,3,5,nan,nan,nan,nan,nan,nan,nan,nan,nan,nan,nan,nan,0.0,nan,nan,nan,nan,nan,nan,nan,nan,nan,nan,nan,nan,nan,nan,nan,nan,nan,nan,709.2778717963956,873.9590472399723,nan,nan,nan,nan,nan,nan
1,127,1,1,nan,nan,nan,0,7,6,4,2,5,8,nan,nan,nan,nan,nan,nan,nan,nan,nan,nan,nan,nan,0.0,nan,nan,nan,nan,nan,nan,nan,nan,nan,nan,nan,nan,nan,nan,nan,nan,nan,nan,709.2778717963956,874.9674690058455,nan,nan,nan,nan,nan,nan
1,128,1,1,nan,nan,nan,0,8,4,6,7,1,5,nan,nan,nan,nan,nan,nan,nan,nan,nan,nan,nan,nan,0.0,nan,nan,nan,nan,nan,nan,nan,nan,nan,nan,nan,nan,nan,nan,nan,nan,nan,nan,709.2778717963956,875.9759298297577,nan,nan,nan,nan,nan,nan
1,129,1,1,1.0,1.0,0.7139730036724359,0,4,1,2,3,6,7,nan,nan,nan,nan,nan,nan,nan,nan,nan,nan,nan,nan,0.0,nan,nan,nan,nan,nan,nan,nan,nan,nan,nan,nan,nan,nan,nan,nan,nan,nan,nan,709.2778717963956,876.9843872324564,nan,877.6983602361288,nan,nan,nan,nan
1,130,0,0,1.0,0.0,0.7534974275622517,0,6,8,7,5,3,4,nan,nan,nan,nan,nan,nan,nan,nan,nan,nan,nan,nan,0.0,nan,nan,nan,nan,nan,nan,nan,nan,nan,nan,nan,nan,nan,nan,nan,nan,nan,nan,709.2778717963956,877.9928677282296,nan,878.7463651557919,nan,nan,nan,nan
1,131,1,1,nan,nan,nan,0,5,0,1,2,6,7,nan,nan,nan,nan,nan,nan,nan,nan,nan,nan,nan,nan,0.0,nan,nan,nan,nan,nan,nan,nan,nan,nan,nan,nan,nan,nan,nan,nan,nan,nan,nan,709.2778717963956,879.0013125867117,nan,nan,nan,nan,nan,nan
1,132,0,0,0.0,1.0,0.6164815151132643,0,3,1,5,7,0,2,nan,nan,nan,nan,nan,nan,nan,nan,nan,nan,nan,nan,0.0,nan,nan,nan,nan,nan,nan,nan,nan,nan,nan,nan,nan,nan,nan,nan,nan,nan,nan,709.2778717963956,880.0097965034656,nan,880.6262780185789,nan,nan,nan,nan
1,133,1,1,1.0,1.0,0.5679942113347352,0,2,8,7,5,4,1,nan,nan,nan,nan,nan,nan,nan,nan,nan,nan,nan,nan,0.0,nan,nan,nan,nan,nan,nan,nan,nan,nan,nan,nan,nan,nan,nan,nan,nan,nan,nan,709.2778717963956,881.0183186233044,nan,881.5863128346391,nan,nan,nan,nan
1,134,0,0,1.0,0.0,0.5515808914788067,0,5,4,1,7,3,0,nan,nan,nan,nan,nan,nan,nan,nan,nan,nan,nan,nan,0.0,nan,nan,nan,nan,nan,nan,nan,nan,nan,nan,nan,nan,nan,nan,nan,nan,nan,nan,709.2778717963956,882.0267041816842,nan,882.578285073163,nan,nan,nan,nan
1,135,1,1,1.0,1.0,0.503109838347882,0,7,2,8,0,4,6,nan,nan,nan,nan,nan,nan,nan,nan,nan,nan,nan,nan,0.0,nan,nan,nan,nan,nan,nan,nan,nan,nan,nan,nan,nan,nan,nan,nan,nan,nan,nan,709.2778717963956,883.0351402021479,nan,883.5382500404958,nan,nan,nan,nan
1,136,1,1,1.0,1.0,0.4866203973069787,0,0,4,5,8,3,7,nan,nan,nan,nan,nan,nan,nan,nan,nan,nan,nan,nan,0.0,nan,nan,nan,nan,nan,nan,nan,nan,nan,nan,nan,nan,nan,nan,nan,nan,nan,nan,709.2778717963956,884.0436038770713,nan,884.5302242743783,nan,nan,nan,nan
1,137,1,1,0.0,0.0,0.4381462081801146,0,7,3,0,6,2,5,nan,nan,nan,nan,nan,nan,nan,nan,nan,nan,nan,nan,0.0,nan,nan,nan,nan,nan,nan,nan,nan,nan,nan,nan,nan,nan,nan,nan,nan,nan,nan,709.2778717963956,885.0520994828548,nan,885.4902456910349,nan,nan,nan,nan
1,138,1,1,1.0,1.0,0.37367294472642243,0,1,6,4,2,5,7,nan,nan,nan,nan,nan,nan,nan,nan,nan,nan,nan,nan,0.0,nan,nan,nan,nan,nan,nan,nan,nan,nan,nan,nan,nan,nan,nan,nan,nan,nan,nan,709.2778717963956,886.0605574559886,nan,886.434230400715,nan,nan,nan,nan
1,139,1,1,1.0,1.0,0.38920417451299727,0,2,3,5,8,7,0,nan,nan,nan,nan,nan,nan,nan,nan,nan,nan,nan,nan,0.0,nan,nan,nan,nan,nan,nan,nan,nan,nan,nan,nan,nan,nan,nan,nan,nan,nan,nan,709.2778717963956,887.0690045952797,nan,887.4582087697927,nan,nan,nan,nan
1,140,1,1,1.0,1.0,0.4686761063057929,0,4,8,7,1,5,3,nan,nan,nan,nan,nan,nan,nan,nan,nan,nan,nan,nan,0.0,nan,nan,nan,nan,nan,nan,nan,nan,nan,nan,nan,nan,nan,nan,nan,nan,nan,nan,709.2778717963956,888.077480529435,nan,888.5461566357408,nan,nan,nan,nan
1,141,1,1,1.0,1.0,0.492257620440796,0,3,2,4,5,7,0,nan,nan,nan,nan,nan,nan,nan,nan,nan,nan,nan,nan,0.0,nan,nan,nan,nan,nan,nan,nan,nan,nan,nan,nan,nan,nan,nan,nan,nan,nan,nan,709.2778717963956,889.0858951676637,nan,889.5781527881045,nan,nan,nan,nan
1,142,1,1,1.0,1.0,0.4917464414611459,0,7,4,5,1,2,8,nan,nan,nan,nan,nan,nan,nan,nan,nan,nan,nan,nan,0.0,nan,nan,nan,nan,nan,nan,nan,nan,nan,nan,nan,nan,nan,nan,nan,nan,nan,nan,709.2778717963956,890.0943622638006,nan,890.5861087052617,nan,nan,nan,nan
1,143,1,1,1.0,1.0,0.48322517704218626,1,4,7,6,0,5,2,1.0,1.0,1.0,1.0,1.0,1.0,0.0,0.0,0.0,1.0,0.0,0.0,1.0,7.0,6.0,0.0,0.0,1.0,1.0,4.0,3.0,2.0,1.0,6.0,5.0,3.7260280456393957,2.912163892062381,1.9687519422732294,1.3199156227055937,5.334335544379428,4.454598871292546,709.2778717963956,891.1028498867527,891.9112912102137,891.5860750637949,898.3036921774037,899.3036305964924,892.9280714499764,898.2953587917145
1,144,1,1,1.0,1.0,0.5697027978021652,0,7,3,8,6,4,5,nan,nan,nan,nan,nan,nan,nan,nan,nan,nan,nan,nan,0.0,nan,nan,nan,nan,nan,nan,nan,nan,nan,nan,nan,nan,nan,nan,nan,nan,nan,nan,709.2778717963956,899.5122452017386,nan,900.0819479995407,nan,nan,nan,nan
1,145,1,1,1.0,1.0,0.3772001648321748,0,2,6,4,0,5,3,nan,nan,nan,nan,nan,nan,nan,nan,nan,nan,nan,nan,0.0,nan,nan,nan,nan,nan,nan,nan,nan,nan,nan,nan,nan,nan,nan,nan,nan,nan,nan,709.2778717963956,900.5207008940633,nan,900.8979010588955,nan,nan,nan,nan
1,146,1,1,1.0,1.0,0.3207235876470804,0,0,7,5,2,1,8,nan,nan,nan,nan,nan,nan,nan,nan,nan,nan,nan,nan,0.0,nan,nan,nan,nan,nan,nan,nan,nan,nan,nan,nan,nan,nan,nan,nan,nan,nan,nan,709.2778717963956,901.5291611477733,nan,901.8498847354203,nan,nan,nan,nan
1,147,1,1,1.0,1.0,0.28827013983391225,0,6,3,1,5,8,7,nan,nan,nan,nan,nan,nan,nan,nan,nan,nan,nan,nan,0.0,nan,nan,nan,nan,nan,nan,nan,nan,nan,nan,nan,nan,nan,nan,nan,nan,nan,nan,709.2778717963956,902.5376233970746,nan,902.8258935369086,nan,nan,nan,nan
1,148,1,1,1.0,1.0,0.22379060415551066,0,1,0,8,2,6,5,nan,nan,nan,nan,nan,nan,nan,nan,nan,nan,nan,nan,0.0,nan,nan,nan,nan,nan,nan,nan,nan,nan,nan,nan,nan,nan,nan,nan,nan,nan,nan,709.2778717963956,903.5460836510174,nan,903.7698742551729,nan,nan,nan,nan
1,149,1,1,1.0,1.0,0.255312355235219,0,4,7,1,5,3,6,nan,nan,nan,nan,nan,nan,nan,nan,nan,nan,nan,nan,0.0,nan,nan,nan,nan,nan,nan,nan,nan,nan,nan,nan,nan,nan,nan,nan,nan,nan,nan,709.2778717963956,904.5545433345251,nan,904.8098556897603,nan,nan,nan,nan
1,150,1,1,1.0,1.0,0.2868489308748394,0,5,4,3,0,6,7,nan,nan,nan,nan,nan,nan,nan,nan,nan,nan,nan,nan,0.0,nan,nan,nan,nan,nan,nan,nan,nan,nan,nan,nan,nan,nan,nan,nan,nan,nan,nan,709.2778717963956,905.562991329236,nan,905.8498402601108,nan,nan,nan,nan
1,151,1,1,1.0,1.0,0.31833162368275225,0,6,1,7,3,4,2,nan,nan,nan,nan,nan,nan,nan,nan,nan,nan,nan,nan,0.0,nan,nan,nan,nan,nan,nan,nan,nan,nan,nan,nan,nan,nan,nan,nan,nan,nan,nan,709.2778717963956,906.5714427449275,nan,906.8897743686102,nan,nan,nan,nan
1,152,1,1,1.0,1.0,0.3338745424989611,0,2,7,4,0,5,3,nan,nan,nan,nan,nan,nan,nan,nan,nan,nan,nan,nan,0.0,nan,nan,nan,nan,nan,nan,nan,nan,nan,nan,nan,nan,nan,nan,nan,nan,nan,nan,709.2778717963956,907.5798830417916,nan,907.9137575842906,nan,nan,nan,nan
1,153,0,0,1.0,0.0,0.3414056650362909,0,5,3,0,6,8,7,nan,nan,nan,nan,nan,nan,nan,nan,nan,nan,nan,nan,0.0,nan,nan,nan,nan,nan,nan,nan,nan,nan,nan,nan,nan,nan,nan,nan,nan,nan,nan,709.2778717963956,908.5883518485352,nan,908.9297575135715,nan,nan,nan,nan
1,154,1,1,1.0,1.0,0.3729151568841189,0,1,7,2,0,3,4,nan,nan,nan,nan,nan,nan,nan,nan,nan,nan,nan,nan,0.0,nan,nan,nan,nan,nan,nan,nan,nan,nan,nan,nan,nan,nan,nan,nan,nan,nan,nan,709.2778717963956,909.5968078258447,nan,909.9697229827289,nan,nan,nan,nan
1,155,1,1,1.0,1.0,0.5484214464668185,0,7,5,1,4,6,8,nan,nan,nan,nan,nan,nan,nan,nan,nan,nan,nan,nan,0.0,nan,nan,nan,nan,nan,nan,nan,nan,nan,nan,nan,nan,nan,nan,nan,nan,nan,nan,709.2778717963956,910.605298299808,nan,911.1537197462749,nan,nan,nan,nan
1,156,1,1,1.0,1.0,0.6359453729819506,0,5,6,8,2,0,4,nan,nan,nan,nan,nan,nan,nan,nan,nan,nan,nan,nan,0.0,nan,nan,nan,nan,nan,nan,nan,nan,nan,nan,nan,nan,nan,nan,nan,nan,nan,nan,709.2778717963956,911.6137294739019,nan,912.2496748468839,nan,nan,nan,nan
1,157,1,1,1.0,1.0,0.5954812695272267,0,8,2,3,4,5,1,nan,nan,nan,nan,nan,nan,nan,nan,nan,nan,nan,nan,0.0,nan,nan,nan,nan,nan,nan,nan,nan,nan,nan,nan,nan,nan,nan,nan,nan,nan,nan,709.2778717963956,912.6221894423943,nan,913.2176707119215,nan,nan,nan,nan
1,158,1,1,1.0,1.0,0.5709569393657148,0,3,5,0,2,7,8,nan,nan,nan,nan,nan,nan,nan,nan,nan,nan,nan,nan,0.0,nan,nan,nan,nan,nan,nan,nan,nan,nan,nan,nan,nan,nan,nan,nan,nan,nan,nan,709.2778717963956,913.6306904652156,nan,914.2016474045813,nan,nan,nan,nan
1,159,1,1,1.0,1.0,0.5624581975862384,0,1,4,5,7,8,3,nan,nan,nan,nan,nan,nan,nan,nan,nan,nan,nan,nan,0.0,nan,nan,nan,nan,nan,nan,nan,nan,nan,nan,nan,nan,nan,nan,nan,nan,nan,nan,709.2778717963956,914.6391435915139,nan,915.2016017891001,nan,nan,nan,nan
1,160,1,1,1.0,1.0,0.6020316584035754,0,0,7,4,2,5,6,nan,nan,nan,nan,nan,nan,nan,nan,nan,nan,nan,nan,0.0,nan,nan,nan,nan,nan,nan,nan,nan,nan,nan,nan,nan,nan,nan,nan,nan,nan,nan,709.2778717963956,915.647557944525,nan,916.2495896029286,nan,nan,nan,nan
1,161,0,0,0.0,1.0,0.6575363399460912,0,8,2,0,7,6,3,nan,nan,nan,nan,nan,nan,nan,nan,nan,nan,nan,nan,0.0,nan,nan,nan,nan,nan,nan,nan,nan,nan,nan,nan,nan,nan,nan,nan,nan,nan,nan,709.2778717963956,916.656059252331,nan,917.3135955922771,nan,nan,nan,nan
1,162,1,1,nan,nan,nan,0,0,1,8,6,5,4,nan,nan,nan,nan,nan,nan,nan,nan,nan,nan,nan,nan,0.0,nan,nan,nan,nan,nan,nan,nan,nan,nan,nan,nan,nan,nan,nan,nan,nan,nan,nan,709.2778717963956,917.6645109532401,nan,nan,nan,nan,nan,nan
1,163,0,0,nan,nan,nan,0,6,8,2,4,0,7,nan,nan,nan,nan,nan,nan,nan,nan,nan,nan,nan,nan,0.0,nan,nan,nan,nan,nan,nan,nan,nan,nan,nan,nan,nan,nan,nan,nan,nan,nan,nan,709.2778717963956,918.67297120695,nan,nan,nan,nan,nan,nan
1,164,1,1,nan,nan,nan,0,0,1,6,2,7,3,nan,nan,nan,nan,nan,nan,nan,nan,nan,nan,nan,nan,0.0,nan,nan,nan,nan,nan,nan,nan,nan,nan,nan,nan,nan,nan,nan,nan,nan,nan,nan,709.2778717963956,919.6814320308622,nan,nan,nan,nan,nan,nan
1,165,1,1,nan,nan,nan,0,7,3,4,5,8,0,nan,nan,nan,nan,nan,nan,nan,nan,nan,nan,nan,nan,0.0,nan,nan,nan,nan,nan,nan,nan,nan,nan,nan,nan,nan,nan,nan,nan,nan,nan,nan,709.2778717963956,920.689911386231,nan,nan,nan,nan,nan,nan
1,166,1,1,nan,nan,nan,0,8,5,1,3,6,4,nan,nan,nan,nan,nan,nan,nan,nan,nan,nan,nan,nan,0.0,nan,nan,nan,nan,nan,nan,nan,nan,nan,nan,nan,nan,nan,nan,nan,nan,nan,nan,709.2778717963956,921.6983636573423,nan,nan,nan,nan,nan,nan
1,167,1,1,1.0,1.0,0.02268431382253766,0,5,1,3,6,2,7,nan,nan,nan,nan,nan,nan,nan,nan,nan,nan,nan,nan,0.0,nan,nan,nan,nan,nan,nan,nan,nan,nan,nan,nan,nan,nan,nan,nan,nan,nan,nan,709.2778717963956,922.7068113668356,nan,922.7294956806581,nan,nan,nan,nan
1,168,1,1,nan,nan,nan,0,0,4,8,2,1,6,nan,nan,nan,nan,nan,nan,nan,nan,nan,nan,nan,nan,0.0,nan,nan,nan,nan,nan,nan,nan,nan,nan,nan,nan,nan,nan,nan,nan,nan,nan,nan,709.2778717963956,923.7152339876629,nan,nan,nan,nan,nan,nan
1,169,1,1,nan,nan,nan,0,7,0,3,6,5,1,nan,nan,nan,nan,nan,nan,nan,nan,nan,nan,nan,nan,0.0,nan,nan,nan,nan,nan,nan,nan,nan,nan,nan,nan,nan,nan,nan,nan,nan,nan,nan,709.2778717963956,924.7237412824761,nan,nan,nan,nan,nan,nan
1,170,1,1,1.0,1.0,0.3171638664789498,0,4,2,7,3,8,0,nan,nan,nan,nan,nan,nan,nan,nan,nan,nan,nan,nan,0.0,nan,nan,nan,nan,nan,nan,nan,nan,nan,nan,nan,nan,nan,nan,nan,nan,nan,nan,709.2778717963956,925.7321867111605,nan,926.0493505776394,nan,nan,nan,nan
1,171,1,1,1.0,1.0,0.23678418551571667,0,5,4,0,2,1,3,nan,nan,nan,nan,nan,nan,nan,nan,nan,nan,nan,nan,0.0,nan,nan,nan,nan,nan,nan,nan,nan,nan,nan,nan,nan,nan,nan,nan,nan,nan,nan,709.2778717963956,926.7406067664269,nan,926.9773909519427,nan,nan,nan,nan
1,172,1,1,1.0,1.0,0.228244389872998,0,1,2,7,8,0,4,nan,nan,nan,nan,nan,nan,nan,nan,nan,nan,nan,nan,0.0,nan,nan,nan,nan,nan,nan,nan,nan,nan,nan,nan,nan,nan,nan,nan,nan,nan,nan,709.2778717963956,927.7491140610073,nan,927.9773584508803,nan,nan,nan,nan
1,173,1,1,1.0,1.0,0.2198020969517529,0,8,4,3,1,7,5,nan,nan,nan,nan,nan,nan,nan,nan,nan,nan,nan,nan,0.0,nan,nan,nan,nan,nan,nan,nan,nan,nan,nan,nan,nan,nan,nan,nan,nan,nan,nan,709.2778717963956,928.7575412436854,nan,928.9773433406372,nan,nan,nan,nan
1,174,1,1,1.0,1.0,0.21927352715283632,0,3,5,8,4,6,1,nan,nan,nan,nan,nan,nan,nan,nan,nan,nan,nan,nan,0.0,nan,nan,nan,nan,nan,nan,nan,nan,nan,nan,nan,nan,nan,nan,nan,nan,nan,nan,709.2778717963956,929.766030007042,nan,929.9853035341948,nan,nan,nan,nan
1,175,1,1,1.0,1.0,0.2908454209100455,0,7,3,1,5,2,6,nan,nan,nan,nan,nan,nan,nan,nan,nan,nan,nan,nan,0.0,nan,nan,nan,nan,nan,nan,nan,nan,nan,nan,nan,nan,nan,nan,nan,nan,nan,nan,709.2778717963956,930.774464887334,nan,931.0653103082441,nan,nan,nan,nan
1,176,0,0,0.0,1.0,0.3703130765352398,0,4,6,0,8,7,5,nan,nan,nan,nan,nan,nan,nan,nan,nan,nan,nan,nan,0.0,nan,nan,nan,nan,nan,nan,nan,nan,nan,nan,nan,nan,nan,nan,nan,nan,nan,nan,709.2778717963956,931.7829530804884,nan,932.1532661570236,nan,nan,nan,nan
1,177,1,1,1.0,1.0,0.26583243487402797,0,0,5,2,7,6,1,nan,nan,nan,nan,nan,nan,nan,nan,nan,nan,nan,nan,0.0,nan,nan,nan,nan,nan,nan,nan,nan,nan,nan,nan,nan,nan,nan,nan,nan,nan,nan,709.2778717963956,932.7914136194158,nan,933.0572460542899,nan,nan,nan,nan
1,178,1,1,1.0,1.0,0.23338810983113945,0,3,8,4,1,0,2,nan,nan,nan,nan,nan,nan,nan,nan,nan,nan,nan,nan,0.0,nan,nan,nan,nan,nan,nan,nan,nan,nan,nan,nan,nan,nan,nan,nan,nan,nan,nan,709.2778717963956,933.7998453634791,nan,934.0332334733102,nan,nan,nan,nan
1,179,1,1,1.0,1.0,0.20891082123853266,0,6,0,7,8,2,4,nan,nan,nan,nan,nan,nan,nan,nan,nan,nan,nan,nan,0.0,nan,nan,nan,nan,nan,nan,nan,nan,nan,nan,nan,nan,nan,nan,nan,nan,nan,nan,709.2778717963956,934.808308753185,nan,935.0172195744235,nan,nan,nan,nan
1,180,1,1,1.0,1.0,0.200418351450935,0,1,8,3,4,5,7,nan,nan,nan,nan,nan,nan,nan,nan,nan,nan,nan,nan,0.0,nan,nan,nan,nan,nan,nan,nan,nan,nan,nan,nan,nan,nan,nan,nan,nan,nan,nan,709.2778717963956,935.8167715729214,nan,936.0171899243724,nan,nan,nan,nan
1,181,1,1,1.0,1.0,0.2799421709496528,0,7,2,6,0,3,5,nan,nan,nan,nan,nan,nan,nan,nan,nan,nan,nan,nan,0.0,nan,nan,nan,nan,nan,nan,nan,nan,nan,nan,nan,nan,nan,nan,nan,nan,nan,nan,709.2778717963956,936.8252115848009,nan,937.1051537557505,nan,nan,nan,nan
1,182,1,1,1.0,1.0,0.3354551203083247,0,3,1,5,7,4,0,nan,nan,nan,nan,nan,nan,nan,nan,nan,nan,nan,nan,0.0,nan,nan,nan,nan,nan,nan,nan,nan,nan,nan,nan,nan,nan,nan,nan,nan,nan,nan,709.2778717963956,937.8337128926069,nan,938.1691680129152,nan,nan,nan,nan
1,183,1,1,1.0,1.0,0.29497505095787346,0,2,6,1,5,8,3,nan,nan,nan,nan,nan,nan,nan,nan,nan,nan,nan,nan,0.0,nan,nan,nan,nan,nan,nan,nan,nan,nan,nan,nan,nan,nan,nan,nan,nan,nan,nan,709.2778717963956,938.8421640233137,nan,939.1371390742715,nan,nan,nan,nan
1,184,1,1,1.0,1.0,0.3024816552642733,0,8,1,6,4,5,7,nan,nan,nan,nan,nan,nan,nan,nan,nan,nan,nan,nan,0.0,nan,nan,nan,nan,nan,nan,nan,nan,nan,nan,nan,nan,nan,nan,nan,nan,nan,nan,709.2778717963956,939.8506382468622,nan,940.1531199021265,nan,nan,nan,nan
1,185,1,1,1.0,1.0,0.2940353713929653,0,7,0,8,5,2,1,nan,nan,nan,nan,nan,nan,nan,nan,nan,nan,nan,nan,0.0,nan,nan,nan,nan,nan,nan,nan,nan,nan,nan,nan,nan,nan,nan,nan,nan,nan,nan,709.2778717963956,940.8591002111789,nan,941.1531355825718,nan,nan,nan,nan
1,186,1,1,1.0,1.0,0.29353987285867333,0,4,5,3,6,1,0,nan,nan,nan,nan,nan,nan,nan,nan,nan,nan,nan,nan,0.0,nan,nan,nan,nan,nan,nan,nan,nan,nan,nan,nan,nan,nan,nan,nan,nan,nan,nan,709.2778717963956,941.8675345210359,nan,942.1610743938945,nan,nan,nan,nan
1,187,1,1,1.0,1.0,0.41303771431557834,0,6,8,7,4,5,1,nan,nan,nan,nan,nan,nan,nan,nan,nan,nan,nan,nan,0.0,nan,nan,nan,nan,nan,nan,nan,nan,nan,nan,nan,nan,nan,nan,nan,nan,nan,nan,709.2778717963956,942.8760141613893,nan,943.2890518757049,nan,nan,nan,nan
1,188,1,1,1.0,1.0,0.5565669529605657,0,3,6,8,1,0,4,nan,nan,nan,nan,nan,nan,nan,nan,nan,nan,nan,nan,0.0,nan,nan,nan,nan,nan,nan,nan,nan,nan,nan,nan,nan,nan,nan,nan,nan,nan,nan,709.2778717963956,943.8844698537141,nan,944.4410368066747,nan,nan,nan,nan
1,189,0,0,0.0,1.0,0.5800885965581983,0,7,0,6,5,3,8,nan,nan,nan,nan,nan,nan,nan,nan,nan,nan,nan,nan,0.0,nan,nan,nan,nan,nan,nan,nan,nan,nan,nan,nan,nan,nan,nan,nan,nan,nan,nan,709.2778717963956,944.8928933299612,nan,945.4729819265194,nan,nan,nan,nan
1,190,1,1,1.0,1.0,0.5876222853548825,0,3,1,8,7,4,0,nan,nan,nan,nan,nan,nan,nan,nan,nan,nan,nan,nan,0.0,nan,nan,nan,nan,nan,nan,nan,nan,nan,nan,nan,nan,nan,nan,nan,nan,nan,nan,709.2778717963956,945.9013501624577,nan,946.4889724478126,nan,nan,nan,nan
1,191,1,1,1.0,1.0,0.6591132113244385,0,6,7,0,4,3,2,nan,nan,nan,nan,nan,nan,nan,nan,nan,nan,nan,nan,0.0,nan,nan,nan,nan,nan,nan,nan,nan,nan,nan,nan,nan,nan,nan,nan,nan,nan,nan,709.2778717963956,946.9098537510727,nan,947.5689669623971,nan,nan,nan,nan
1,192,1,1,1.0,1.0,0.7226485055871308,0,2,3,8,6,7,0,nan,nan,nan,nan,nan,nan,nan,nan,nan,nan,nan,nan,0.0,nan,nan,nan,nan,nan,nan,nan,nan,nan,nan,nan,nan,nan,nan,nan,nan,nan,nan,709.2778717963956,947.9182957585435,nan,948.6409442641307,nan,nan,nan,nan
1,193,1,1,nan,nan,nan,0,0,6,4,1,3,5,nan,nan,nan,nan,nan,nan,nan,nan,nan,nan,nan,nan,0.0,nan,nan,nan,nan,nan,nan,nan,nan,nan,nan,nan,nan,nan,nan,nan,nan,nan,nan,709.2778717963956,948.9434447360691,nan,nan,nan,nan,nan,nan
1,194,1,1,1.0,1.0,0.7850046386010945,0,4,3,7,5,8,6,nan,nan,nan,nan,nan,nan,nan,nan,nan,nan,nan,nan,0.0,nan,nan,nan,nan,nan,nan,nan,nan,nan,nan,nan,nan,nan,nan,nan,nan,nan,nan,709.2778717963956,949.9518596592825,nan,950.7368642978836,nan,nan,nan,nan
1,195,1,1,1.0,1.0,0.7125198640860617,0,7,1,6,3,0,4,nan,nan,nan,nan,nan,nan,nan,nan,nan,nan,nan,nan,0.0,nan,nan,nan,nan,nan,nan,nan,nan,nan,nan,nan,nan,nan,nan,nan,nan,nan,nan,709.2778717963956,950.9603173471987,nan,951.6728372112848,nan,nan,nan,nan
1,196,1,1,nan,nan,nan,0,6,4,8,2,3,7,nan,nan,nan,nan,nan,nan,nan,nan,nan,nan,nan,nan,0.0,nan,nan,nan,nan,nan,nan,nan,nan,nan,nan,nan,nan,nan,nan,nan,nan,nan,nan,709.2778717963956,951.9687881495338,nan,nan,nan,nan,nan,nan
1,197,1,1,1.0,1.0,0.4955399422906339,0,4,6,0,1,7,8,nan,nan,nan,nan,nan,nan,nan,nan,nan,nan,nan,nan,0.0,nan,nan,nan,nan,nan,nan,nan,nan,nan,nan,nan,nan,nan,nan,nan,nan,nan,nan,709.2778717963956,952.9772372846492,nan,953.4727772269398,nan,nan,nan,nan
1,198,1,1,1.0,1.0,0.44706546794623137,0,7,1,5,8,4,3,nan,nan,nan,nan,nan,nan,nan,nan,nan,nan,nan,nan,0.0,nan,nan,nan,nan,nan,nan,nan,nan,nan,nan,nan,nan,nan,nan,nan,nan,nan,nan,709.2778717963956,953.9857579788659,nan,954.4328234468121,nan,nan,nan,nan
1,199,1,1,1.0,1.0,0.43859609100036323,0,1,2,0,6,3,4,nan,nan,nan,nan,nan,nan,nan,nan,nan,nan,nan,nan,0.0,nan,nan,nan,nan,nan,nan,nan,nan,nan,nan,nan,nan,nan,nan,nan,nan,nan,nan,709.2778717963956,954.9942159519996,nan,955.432812043,nan,nan,nan,nan
1,200,1,1,1.0,1.0,0.36618515686132014,0,3,7,8,1,4,6,nan,nan,nan,nan,nan,nan,nan,nan,nan,nan,nan,nan,0.0,nan,nan,nan,nan,nan,nan,nan,nan,nan,nan,nan,nan,nan,nan,nan,nan,nan,nan,709.2778717963956,956.0026325858198,nan,956.3688177426811,nan,nan,nan,nan
1,201,1,1,1.0,1.0,0.3096623937599361,0,6,0,7,2,3,5,nan,nan,nan,nan,nan,nan,nan,nan,nan,nan,nan,nan,0.0,nan,nan,nan,nan,nan,nan,nan,nan,nan,nan,nan,nan,nan,nan,nan,nan,nan,nan,709.2778717963956,957.011074308306,nan,957.3207367020659,nan,nan,nan,nan
1,202,1,1,1.0,1.0,0.2211785453837365,0,0,6,4,3,5,8,nan,nan,nan,nan,nan,nan,nan,nan,nan,nan,nan,nan,0.0,nan,nan,nan,nan,nan,nan,nan,nan,nan,nan,nan,nan,nan,nan,nan,nan,nan,nan,709.2778717963956,958.0195368428249,nan,958.2407153882086,nan,nan,nan,nan
1,203,1,1,1.0,1.0,0.18069591047242284,0,3,4,5,8,1,2,nan,nan,nan,nan,nan,nan,nan,nan,nan,nan,nan,nan,0.0,nan,nan,nan,nan,nan,nan,nan,nan,nan,nan,nan,nan,nan,nan,nan,nan,nan,nan,709.2778717963956,959.0280318784062,nan,959.2087277888786,nan,nan,nan,nan
1,204,1,1,1.0,1.0,0.14820397435687482,0,1,7,3,6,2,4,nan,nan,nan,nan,nan,nan,nan,nan,nan,nan,nan,nan,0.0,nan,nan,nan,nan,nan,nan,nan,nan,nan,nan,nan,nan,nan,nan,nan,nan,nan,nan,709.2778717963956,960.0364912769292,nan,960.184695251286,nan,nan,nan,nan
1,205,1,1,1.0,1.0,0.17173502617515624,0,7,6,0,4,1,8,nan,nan,nan,nan,nan,nan,nan,nan,nan,nan,nan,nan,0.0,nan,nan,nan,nan,nan,nan,nan,nan,nan,nan,nan,nan,nan,nan,nan,nan,nan,nan,709.2778717963956,961.0449418374337,nan,961.2166768636089,nan,nan,nan,nan
1,206,1,1,nan,nan,nan,0,0,4,5,3,6,2,nan,nan,nan,nan,nan,nan,nan,nan,nan,nan,nan,nan,0.0,nan,nan,nan,nan,nan,nan,nan,nan,nan,nan,nan,nan,nan,nan,nan,nan,nan,nan,709.2778717963956,962.0534077931661,nan,nan,nan,nan,nan,nan
1,207,1,1,1.0,1.0,0.4187809934373945,0,5,7,1,2,8,6,nan,nan,nan,nan,nan,nan,nan,nan,nan,nan,nan,nan,0.0,nan,nan,nan,nan,nan,nan,nan,nan,nan,nan,nan,nan,nan,nan,nan,nan,nan,nan,709.2778717963956,963.0618523666635,nan,963.4806333601009,nan,nan,nan,nan
1,208,1,1,1.0,1.0,0.3543074452318251,0,6,8,0,3,7,1,nan,nan,nan,nan,nan,nan,nan,nan,nan,nan,nan,nan,0.0,nan,nan,nan,nan,nan,nan,nan,nan,nan,nan,nan,nan,nan,nan,nan,nan,nan,nan,709.2778717963956,964.0702986505348,nan,964.4246060957666,nan,nan,nan,nan
1,209,1,1,1.0,1.0,0.2978280170354992,0,2,0,1,8,4,5,nan,nan,nan,nan,nan,nan,nan,nan,nan,nan,nan,nan,0.0,nan,nan,nan,nan,nan,nan,nan,nan,nan,nan,nan,nan,nan,nan,nan,nan,nan,nan,709.2778717963956,965.0787580490578,nan,965.3765860660933,nan,nan,nan,nan
1,210,1,1,1.0,1.0,0.25734082027338445,1,4,6,2,1,8,0,1.0,1.0,1.0,1.0,1.0,1.0,1.0,1.0,1.0,0.0,0.0,0.0,3.0,4.0,6.0,2.0,5.0,7.0,7.0,4.0,3.0,2.0,1.0,6.0,5.0,7.029115247074515,3.99661048152484,3.3489159755408764,2.269120743731037,8.700649565085769,8.012871844926849,709.2778717963956,966.0872214389965,966.8956567752175,966.3445622592699,976.6468854008708,977.6464380836114,967.9040819620714,976.6385300627444
1,211,1,1,1.0,1.0,0.5769548104144633,0,6,7,8,0,2,3,nan,nan,nan,nan,nan,nan,nan,nan,nan,nan,nan,nan,0.0,nan,nan,nan,nan,nan,nan,nan,nan,nan,nan,nan,nan,nan,nan,nan,nan,nan,nan,709.2778717963956,977.8553794100881,nan,978.4323342205025,nan,nan,nan,nan
1,212,1,1,1.0,1.0,0.3924673949368298,0,2,0,3,5,6,4,nan,nan,nan,nan,nan,nan,nan,nan,nan,nan,nan,nan,0.0,nan,nan,nan,nan,nan,nan,nan,nan,nan,nan,nan,nan,nan,nan,nan,nan,nan,nan,709.2778717963956,978.8638493570033,nan,979.2563167519402,nan,nan,nan,nan
1,213,1,1,1.0,1.0,0.26398643176071346,0,1,6,4,0,2,7,nan,nan,nan,nan,nan,nan,nan,nan,nan,nan,nan,nan,0.0,nan,nan,nan,nan,nan,nan,nan,nan,nan,nan,nan,nan,nan,nan,nan,nan,nan,nan,709.2778717963956,979.8723041939083,nan,980.1362906256691,nan,nan,nan,nan
1,214,1,1,1.0,1.0,0.1994983432814479,0,3,8,1,7,4,6,nan,nan,nan,nan,nan,nan,nan,nan,nan,nan,nan,nan,0.0,nan,nan,nan,nan,nan,nan,nan,nan,nan,nan,nan,nan,nan,nan,nan,nan,nan,nan,709.2778717963956,980.8807681540493,nan,981.0802664973307,nan,nan,nan,nan
1,215,1,1,1.0,1.0,0.07102308189496398,0,0,3,4,2,5,8,nan,nan,nan,nan,nan,nan,nan,nan,nan,nan,nan,nan,0.0,nan,nan,nan,nan,nan,nan,nan,nan,nan,nan,nan,nan,nan,nan,nan,nan,nan,nan,709.2778717963956,981.8891990429256,nan,981.9602221248206,nan,nan,nan,nan
1,216,1,1,1.0,1.0,0.1505346423946321,0,8,1,6,5,3,4,nan,nan,nan,nan,nan,nan,nan,nan,nan,nan,nan,nan,0.0,nan,nan,nan,nan,nan,nan,nan,nan,nan,nan,nan,nan,nan,nan,nan,nan,nan,nan,709.2778717963956,982.897688661702,nan,983.0482233040966,nan,nan,nan,nan
1,217,1,1,1.0,1.0,0.24607122060842812,0,3,5,4,2,6,8,nan,nan,nan,nan,nan,nan,nan,nan,nan,nan,nan,nan,0.0,nan,nan,nan,nan,nan,nan,nan,nan,nan,nan,nan,nan,nan,nan,nan,nan,nan,nan,709.2778717963956,983.9061329499818,nan,984.1522041705903,nan,nan,nan,nan
1,218,1,1,1.0,1.0,0.23756706179119647,0,2,0,7,5,8,1,nan,nan,nan,nan,nan,nan,nan,nan,nan,nan,nan,nan,0.0,nan,nan,nan,nan,nan,nan,nan,nan,nan,nan,nan,nan,nan,nan,nan,nan,nan,nan,709.2778717963956,984.9146160115488,nan,985.15218307334,nan,nan,nan,nan
1,219,1,1,1.0,1.0,0.2451249836012721,0,3,1,6,8,7,0,nan,nan,nan,nan,nan,nan,nan,nan,nan,nan,nan,nan,0.0,nan,nan,nan,nan,nan,nan,nan,nan,nan,nan,nan,nan,nan,nan,nan,nan,nan,nan,709.2778717963956,985.9230332155712,nan,986.1681581991725,nan,nan,nan,nan
1,220,1,1,1.0,1.0,0.2606419585645199,0,6,7,4,0,1,8,nan,nan,nan,nan,nan,nan,nan,nan,nan,nan,nan,nan,0.0,nan,nan,nan,nan,nan,nan,nan,nan,nan,nan,nan,nan,nan,nan,nan,nan,nan,nan,709.2778717963956,986.9314943247009,nan,987.1921362832654,nan,nan,nan,nan
1,221,1,1,1.0,1.0,0.26821014378219843,0,4,8,0,5,6,3,nan,nan,nan,nan,nan,nan,nan,nan,nan,nan,nan,nan,0.0,nan,nan,nan,nan,nan,nan,nan,nan,nan,nan,nan,nan,nan,nan,nan,nan,nan,nan,709.2778717963956,987.9399525828194,nan,988.2081627266016,nan,nan,nan,nan
1,222,0,0,1.0,0.0,0.25167879392392933,0,8,0,2,6,3,7,nan,nan,nan,nan,nan,nan,nan,nan,nan,nan,nan,nan,0.0,nan,nan,nan,nan,nan,nan,nan,nan,nan,nan,nan,nan,nan,nan,nan,nan,nan,nan,709.2778717963956,988.9484119811095,nan,989.2000907750335,nan,nan,nan,nan
1,223,1,1,1.0,1.0,0.23516198340803385,0,2,1,6,0,4,5,nan,nan,nan,nan,nan,nan,nan,nan,nan,nan,nan,nan,0.0,nan,nan,nan,nan,nan,nan,nan,nan,nan,nan,nan,nan,nan,nan,nan,nan,nan,nan,709.2778717963956,989.9569058765192,nan,990.1920678599272,nan,nan,nan,nan
1,224,1,1,1.0,1.0,0.24271847982890904,0,7,8,1,3,5,4,nan,nan,nan,nan,nan,nan,nan,nan,nan,nan,nan,nan,0.0,nan,nan,nan,nan,nan,nan,nan,nan,nan,nan,nan,nan,nan,nan,nan,nan,nan,nan,709.2778717963956,990.9653527305927,nan,991.2080712104216,nan,nan,nan,nan
1,225,1,1,1.0,1.0,0.2262757949065417,1,1,2,3,7,6,5,1.0,1.0,1.0,1.0,1.0,1.0,0.0,0.0,0.0,0.0,0.0,0.0,0.0,2.0,8.0,0.0,8.0,8.0,6.0,4.0,3.0,2.0,1.0,6.0,5.0,6.581599040655419,5.301778321154416,2.934358409140259,2.0640892377123237,8.549714646302164,8.029231281485409,709.2778717963956,991.9737762068398,992.7822169600986,992.2000520017464,1002.3834187008906,1003.3833548391704,993.7907014470547,1002.3750807538163
1,226,1,1,1.0,1.0,0.4078791690990329,0,3,1,6,5,8,0,nan,nan,nan,nan,nan,nan,nan,nan,nan,nan,nan,nan,0.0,nan,nan,nan,nan,nan,nan,nan,nan,nan,nan,nan,nan,nan,nan,nan,nan,nan,nan,709.2778717963956,1003.5919281053357,nan,1003.9998072744347,nan,nan,nan,nan
1,227,1,1,1.0,1.0,0.31937222788110375,0,6,5,4,7,3,2,nan,nan,nan,nan,nan,nan,nan,nan,nan,nan,nan,nan,0.0,nan,nan,nan,nan,nan,nan,nan,nan,nan,nan,nan,nan,nan,nan,nan,nan,nan,nan,709.2778717963956,1004.6004097415134,nan,1004.9197819693945,nan,nan,nan,nan
1,228,1,1,1.0,1.0,0.2948735565878451,0,4,6,8,1,0,7,nan,nan,nan,nan,nan,nan,nan,nan,nan,nan,nan,nan,0.0,nan,nan,nan,nan,nan,nan,nan,nan,nan,nan,nan,nan,nan,nan,nan,nan,nan,nan,709.2778717963956,1005.6088608722202,nan,1005.9037344288081,nan,nan,nan,nan
1,229,1,1,1.0,1.0,0.30241095134988427,0,7,2,0,6,4,5,nan,nan,nan,nan,nan,nan,nan,nan,nan,nan,nan,nan,0.0,nan,nan,nan,nan,nan,nan,nan,nan,nan,nan,nan,nan,nan,nan,nan,nan,nan,nan,709.2778717963956,1006.6173236917239,nan,1006.9197346430738,nan,nan,nan,nan
1,230,1,1,1.0,1.0,0.22993415966629982,0,4,7,5,0,1,6,nan,nan,nan,nan,nan,nan,nan,nan,nan,nan,nan,nan,0.0,nan,nan,nan,nan,nan,nan,nan,nan,nan,nan,nan,nan,nan,nan,nan,nan,nan,nan,709.2778717963956,1007.625751729589,nan,1007.8556858892553,nan,nan,nan,nan
1,231,1,1,1.0,1.0,0.23747383523732424,0,6,1,4,2,8,3,nan,nan,nan,nan,nan,nan,nan,nan,nan,nan,nan,nan,0.0,nan,nan,nan,nan,nan,nan,nan,nan,nan,nan,nan,nan,nan,nan,nan,nan,nan,nan,709.2778717963956,1008.6342108428944,nan,1008.8716846781317,nan,nan,nan,nan
1,232,1,1,1.0,1.0,0.24500068137422204,0,8,7,3,1,2,0,nan,nan,nan,nan,nan,nan,nan,nan,nan,nan,nan,nan,0.0,nan,nan,nan,nan,nan,nan,nan,nan,nan,nan,nan,nan,nan,nan,nan,nan,nan,nan,709.2778717963956,1009.6426705266349,nan,1009.8876712080091,nan,nan,nan,nan
1,233,1,1,1.0,1.0,0.22850610874593258,0,6,0,7,8,3,5,nan,nan,nan,nan,nan,nan,nan,nan,nan,nan,nan,nan,0.0,nan,nan,nan,nan,nan,nan,nan,nan,nan,nan,nan,nan,nan,nan,nan,nan,nan,nan,709.2778717963956,1010.6511370525695,nan,1010.8796431613155,nan,nan,nan,nan
1,234,1,1,1.0,1.0,0.1960672007407993,1,3,2,4,5,6,7,1.0,1.0,1.0,1.0,1.0,1.0,1.0,1.0,1.0,0.0,0.0,0.0,3.0,3.0,2.0,4.0,6.0,1.0,3.0,1.0,2.0,3.0,4.0,5.0,6.0,1.6473227394744754,2.520696617430076,3.632342887343839,4.624483332969248,7.103273255750537,7.943480373127386,709.2778717963956,1011.6595921744592,1012.4680106900632,1011.8556593752,1021.4607803449035,1022.4600442242809,1013.4764755053911,1021.4524729030672
1,235,1,1,1.0,1.0,0.29005057038739324,0,6,3,8,4,1,5,nan,nan,nan,nan,nan,nan,nan,nan,nan,nan,nan,nan,0.0,nan,nan,nan,nan,nan,nan,nan,nan,nan,nan,nan,nan,nan,nan,nan,nan,nan,nan,709.2778717963956,1022.6693581726868,nan,1022.9594087430742,nan,nan,nan,nan
1,236,1,1,1.0,1.0,0.38560881605371833,0,4,1,7,5,0,6,nan,nan,nan,nan,nan,nan,nan,nan,nan,nan,nan,nan,0.0,nan,nan,nan,nan,nan,nan,nan,nan,nan,nan,nan,nan,nan,nan,nan,nan,nan,nan,709.2778717963956,1023.6777545646764,nan,1024.0633633807302,nan,nan,nan,nan
1,237,1,1,1.0,1.0,0.5211316754575819,0,7,0,1,2,5,8,nan,nan,nan,nan,nan,nan,nan,nan,nan,nan,nan,nan,0.0,nan,nan,nan,nan,nan,nan,nan,nan,nan,nan,nan,nan,nan,nan,nan,nan,nan,nan,709.2778717963956,1024.6862111121882,nan,1025.2073427876458,nan,nan,nan,nan
1,238,1,1,1.0,1.0,0.4966238811612129,0,4,6,7,1,3,0,nan,nan,nan,nan,nan,nan,nan,nan,nan,nan,nan,nan,0.0,nan,nan,nan,nan,nan,nan,nan,nan,nan,nan,nan,nan,nan,nan,nan,nan,nan,nan,709.2778717963956,1025.6947169813793,nan,1026.1913408625405,nan,nan,nan,nan
1,239,1,1,1.0,1.0,0.4561509396880865,0,1,0,5,3,6,7,nan,nan,nan,nan,nan,nan,nan,nan,nan,nan,nan,nan,0.0,nan,nan,nan,nan,nan,nan,nan,nan,nan,nan,nan,nan,nan,nan,nan,nan,nan,nan,709.2778717963956,1026.703176664887,nan,1027.159327604575,nan,nan,nan,nan
1,240,1,1,1.0,1.0,0.5356910096015781,0,5,4,2,1,7,0,nan,nan,nan,nan,nan,nan,nan,nan,nan,nan,nan,nan,0.0,nan,nan,nan,nan,nan,nan,nan,nan,nan,nan,nan,nan,nan,nan,nan,nan,nan,nan,709.2778717963956,1027.7116126855835,nan,1028.247303695185,nan,nan,nan,nan
1,241,1,1,1.0,1.0,0.5112368136178702,0,8,7,0,6,3,1,nan,nan,nan,nan,nan,nan,nan,nan,nan,nan,nan,nan,0.0,nan,nan,nan,nan,nan,nan,nan,nan,nan,nan,nan,nan,nan,nan,nan,nan,nan,nan,709.2778717963956,1028.7200834879186,nan,1029.2313203015365,nan,nan,nan,nan
1,242,1,1,1.0,1.0,0.48675980954431,0,5,2,1,7,6,8,nan,nan,nan,nan,nan,nan,nan,nan,nan,nan,nan,nan,0.0,nan,nan,nan,nan,nan,nan,nan,nan,nan,nan,nan,nan,nan,nan,nan,nan,nan,nan,709.2778717963956,1029.7285209340043,nan,1030.2152807435486,nan,nan,nan,nan
1,243,1,1,1.0,1.0,0.5342606778722256,0,3,8,2,6,0,4,nan,nan,nan,nan,nan,nan,nan,nan,nan,nan,nan,nan,0.0,nan,nan,nan,nan,nan,nan,nan,nan,nan,nan,nan,nan,nan,nan,nan,nan,nan,nan,709.2778717963956,1030.7370085569564,nan,1031.2712692348287,nan,nan,nan,nan
1,244,1,1,1.0,1.0,0.5493976187426597,0,0,1,7,3,8,6,nan,nan,nan,nan,nan,nan,nan,nan,nan,nan,nan,nan,0.0,nan,nan,nan,nan,nan,nan,nan,nan,nan,nan,nan,nan,nan,nan,nan,nan,nan,nan,709.2778717963956,1031.753809608752,nan,1032.3032072274946,nan,nan,nan,nan
1,245,1,1,1.0,1.0,0.5329415339510888,0,6,4,1,7,3,0,nan,nan,nan,nan,nan,nan,nan,nan,nan,nan,nan,nan,0.0,nan,nan,nan,nan,nan,nan,nan,nan,nan,nan,nan,nan,nan,nan,nan,nan,nan,nan,709.2778717963956,1032.762262735283,nan,1033.295204269234,nan,nan,nan,nan
1,246,1,1,1.0,1.0,0.49246374564245343,0,5,2,0,3,7,6,nan,nan,nan,nan,nan,nan,nan,nan,nan,nan,nan,nan,0.0,nan,nan,nan,nan,nan,nan,nan,nan,nan,nan,nan,nan,nan,nan,nan,nan,nan,nan,709.2778717963956,1033.7706976153422,nan,1034.2631613609847,nan,nan,nan,nan
1,247,1,1,1.0,1.0,0.46799101820215583,0,4,8,6,7,5,1,nan,nan,nan,nan,nan,nan,nan,nan,nan,nan,nan,nan,0.0,nan,nan,nan,nan,nan,nan,nan,nan,nan,nan,nan,nan,nan,nan,nan,nan,nan,nan,709.2778717963956,1034.779154162854,nan,1035.247145181056,nan,nan,nan,nan
1,248,1,1,1.0,1.0,0.4355050693266094,0,3,1,5,8,7,6,nan,nan,nan,nan,nan,nan,nan,nan,nan,nan,nan,nan,0.0,nan,nan,nan,nan,nan,nan,nan,nan,nan,nan,nan,nan,nan,nan,nan,nan,nan,nan,709.2778717963956,1035.7876124209724,nan,1036.223117490299,nan,nan,nan,nan
1,249,1,1,1.0,1.0,0.44299969961866736,0,8,5,7,6,1,2,nan,nan,nan,nan,nan,nan,nan,nan,nan,nan,nan,nan,0.0,nan,nan,nan,nan,nan,nan,nan,nan,nan,nan,nan,nan,nan,nan,nan,nan,nan,nan,709.2778717963956,1036.7961117329542,nan,1037.2391114325728,nan,nan,nan,nan
1,250,1,1,1.0,1.0,0.5065218792296946,0,4,7,1,5,0,3,nan,nan,nan,nan,nan,nan,nan,nan,nan,nan,nan,nan,0.0,nan,nan,nan,nan,nan,nan,nan,nan,nan,nan,nan,nan,nan,nan,nan,nan,nan,nan,709.2778717963956,1037.8045671400614,nan,1038.311089019291,nan,nan,nan,nan
1,251,1,1,1.0,1.0,0.49007919430732727,0,0,2,7,1,8,6,nan,nan,nan,nan,nan,nan,nan,nan,nan,nan,nan,nan,0.0,nan,nan,nan,nan,nan,nan,nan,nan,nan,nan,nan,nan,nan,nan,nan,nan,nan,nan,709.2778717963956,1038.8130219769664,nan,1039.3031011712737,nan,nan,nan,nan
1,252,0,0,1.0,0.0,0.5855559019837528,0,6,1,2,4,3,7,nan,nan,nan,nan,nan,nan,nan,nan,nan,nan,nan,nan,0.0,nan,nan,nan,nan,nan,nan,nan,nan,nan,nan,nan,nan,nan,nan,nan,nan,nan,nan,709.2778717963956,1039.8214782394934,nan,1040.4070341414772,nan,nan,nan,nan
1,253,1,1,1.0,1.0,0.5611119694076478,0,2,6,7,5,8,1,nan,nan,nan,nan,nan,nan,nan,nan,nan,nan,nan,nan,0.0,nan,nan,nan,nan,nan,nan,nan,nan,nan,nan,nan,nan,nan,nan,nan,nan,nan,nan,709.2778717963956,1040.8299079879653,nan,1041.391019957373,nan,nan,nan,nan
1,254,1,1,1.0,1.0,0.5126269466709346,0,5,7,3,2,6,4,nan,nan,nan,nan,nan,nan,nan,nan,nan,nan,nan,nan,0.0,nan,nan,nan,nan,nan,nan,nan,nan,nan,nan,nan,nan,nan,nan,nan,nan,nan,nan,709.2778717963956,1041.8383916195016,nan,1042.3510185661726,nan,nan,nan,nan
1,255,1,1,1.0,1.0,0.5041205070447177,0,2,1,0,8,5,7,nan,nan,nan,nan,nan,nan,nan,nan,nan,nan,nan,nan,0.0,nan,nan,nan,nan,nan,nan,nan,nan,nan,nan,nan,nan,nan,nan,nan,nan,nan,nan,709.2778717963956,1042.8468664132524,nan,1043.3509869202971,nan,nan,nan,nan
1,256,0,0,0.0,1.0,0.47168131405487657,0,8,5,3,6,7,1,nan,nan,nan,nan,nan,nan,nan,nan,nan,nan,nan,nan,0.0,nan,nan,nan,nan,nan,nan,nan,nan,nan,nan,nan,nan,nan,nan,nan,nan,nan,nan,709.2778717963956,1043.8552898894995,nan,1044.3269712035544,nan,nan,nan,nan
1,257,1,1,1.0,1.0,0.35916663869284093,0,2,1,6,0,8,7,nan,nan,nan,nan,nan,nan,nan,nan,nan,nan,nan,nan,0.0,nan,nan,nan,nan,nan,nan,nan,nan,nan,nan,nan,nan,nan,nan,nan,nan,nan,nan,709.2778717963956,1044.8637669640593,nan,1045.2229336027522,nan,nan,nan,nan
1,258,1,1,1.0,1.0,0.29475866234861314,0,3,7,4,5,1,2,nan,nan,nan,nan,nan,nan,nan,nan,nan,nan,nan,nan,0.0,nan,nan,nan,nan,nan,nan,nan,nan,nan,nan,nan,nan,nan,nan,nan,nan,nan,nan,709.2778717963956,1045.872198423138,nan,1046.1669570854865,nan,nan,nan,nan
1,259,1,1,1.0,1.0,0.2702497278805822,0,6,1,8,2,5,3,nan,nan,nan,nan,nan,nan,nan,nan,nan,nan,nan,nan,0.0,nan,nan,nan,nan,nan,nan,nan,nan,nan,nan,nan,nan,nan,nan,nan,nan,nan,nan,709.2778717963956,1046.8806689402554,nan,1047.150918668136,nan,nan,nan,nan
1,260,1,1,1.0,1.0,0.25374973844736814,0,7,6,3,4,2,0,nan,nan,nan,nan,nan,nan,nan,nan,nan,nan,nan,nan,0.0,nan,nan,nan,nan,nan,nan,nan,nan,nan,nan,nan,nan,nan,nan,nan,nan,nan,nan,709.2778717963956,1047.8891280535609,nan,1048.1428777920082,nan,nan,nan,nan
1,261,1,1,1.0,1.0,0.23725402541458607,0,4,8,0,7,3,2,nan,nan,nan,nan,nan,nan,nan,nan,nan,nan,nan,nan,0.0,nan,nan,nan,nan,nan,nan,nan,nan,nan,nan,nan,nan,nan,nan,nan,nan,nan,nan,709.2778717963956,1048.8975954349153,nan,1049.1348494603299,nan,nan,nan,nan
1,262,1,1,1.0,1.0,0.23675310984253883,0,0,6,3,1,5,8,nan,nan,nan,nan,nan,nan,nan,nan,nan,nan,nan,nan,0.0,nan,nan,nan,nan,nan,nan,nan,nan,nan,nan,nan,nan,nan,nan,nan,nan,nan,nan,709.2778717963956,1049.9060696584638,nan,1050.1428227683064,nan,nan,nan,nan
1,263,1,1,1.0,1.0,0.2759736205916852,0,5,1,4,8,0,6,nan,nan,nan,nan,nan,nan,nan,nan,nan,nan,nan,nan,0.0,nan,nan,nan,nan,nan,nan,nan,nan,nan,nan,nan,nan,nan,nan,nan,nan,nan,nan,709.2778717963956,1050.9228410602082,nan,1051.1988146807998,nan,nan,nan,nan
1,264,1,1,1.0,1.0,0.22750313743017614,0,0,8,1,4,3,2,nan,nan,nan,nan,nan,nan,nan,nan,nan,nan,nan,nan,0.0,nan,nan,nan,nan,nan,nan,nan,nan,nan,nan,nan,nan,nan,nan,nan,nan,nan,nan,709.2778717963956,1051.9313021693379,nan,1052.158805306768,nan,nan,nan,nan
1,265,1,1,1.0,1.0,0.3469984133262187,0,7,4,8,6,5,1,nan,nan,nan,nan,nan,nan,nan,nan,nan,nan,nan,nan,0.0,nan,nan,nan,nan,nan,nan,nan,nan,nan,nan,nan,nan,nan,nan,nan,nan,nan,nan,709.2778717963956,1052.939756150823,nan,1053.2867545641493,nan,nan,nan,nan
1,266,1,1,1.0,1.0,0.28255280409939587,0,1,7,0,5,8,6,nan,nan,nan,nan,nan,nan,nan,nan,nan,nan,nan,nan,0.0,nan,nan,nan,nan,nan,nan,nan,nan,nan,nan,nan,nan,nan,nan,nan,nan,nan,nan,709.2778717963956,1053.9482141239569,nan,1054.2307669280563,nan,nan,nan,nan
1,267,1,1,1.0,1.0,0.25803588703274727,0,5,3,8,6,0,7,nan,nan,nan,nan,nan,nan,nan,nan,nan,nan,nan,nan,0.0,nan,nan,nan,nan,nan,nan,nan,nan,nan,nan,nan,nan,nan,nan,nan,nan,nan,nan,709.2778717963956,1054.9567094445229,nan,1055.2147453315556,nan,nan,nan,nan
1,268,1,1,1.0,1.0,0.1535466923378408,0,8,7,4,1,2,5,nan,nan,nan,nan,nan,nan,nan,nan,nan,nan,nan,nan,0.0,nan,nan,nan,nan,nan,nan,nan,nan,nan,nan,nan,nan,nan,nan,nan,nan,nan,nan,709.2778717963956,1055.965177110862,nan,1056.1187238031998,nan,nan,nan,nan
1,269,1,1,1.0,1.0,0.1530782780610025,0,3,4,1,5,8,0,nan,nan,nan,nan,nan,nan,nan,nan,nan,nan,nan,nan,0.0,nan,nan,nan,nan,nan,nan,nan,nan,nan,nan,nan,nan,nan,nan,nan,nan,nan,nan,709.2778717963956,1056.9736259607598,nan,1057.1267042388208,nan,nan,nan,nan
1,270,1,1,1.0,1.0,0.13658456061966717,0,5,1,4,2,7,6,nan,nan,nan,nan,nan,nan,nan,nan,nan,nan,nan,nan,0.0,nan,nan,nan,nan,nan,nan,nan,nan,nan,nan,nan,nan,nan,nan,nan,nan,nan,nan,709.2778717963956,1057.98209134629,nan,1058.1186759069096,nan,nan,nan,nan
1,271,0,0,1.0,0.0,0.2001027490478009,0,1,5,2,3,0,8,nan,nan,nan,nan,nan,nan,nan,nan,nan,nan,nan,nan,0.0,nan,nan,nan,nan,nan,nan,nan,nan,nan,nan,nan,nan,nan,nan,nan,nan,nan,nan,709.2778717963956,1058.9905478938017,nan,1059.1906506428495,nan,nan,nan,nan
1,272,1,1,1.0,1.0,0.1836432432755828,0,5,8,3,7,6,4,nan,nan,nan,nan,nan,nan,nan,nan,nan,nan,nan,nan,0.0,nan,nan,nan,nan,nan,nan,nan,nan,nan,nan,nan,nan,nan,nan,nan,nan,nan,nan,709.2778717963956,1059.99898505467,nan,1060.1826282979455,nan,nan,nan,nan
1,273,1,1,1.0,1.0,0.23115266440436244,0,8,0,4,1,7,3,nan,nan,nan,nan,nan,nan,nan,nan,nan,nan,nan,nan,0.0,nan,nan,nan,nan,nan,nan,nan,nan,nan,nan,nan,nan,nan,nan,nan,nan,nan,nan,709.2778717963956,1061.007462699432,nan,1061.2386153638363,nan,nan,nan,nan
1,274,0,0,1.0,0.0,0.2546435175463557,0,4,1,3,5,2,6,nan,nan,nan,nan,nan,nan,nan,nan,nan,nan,nan,nan,0.0,nan,nan,nan,nan,nan,nan,nan,nan,nan,nan,nan,nan,nan,nan,nan,nan,nan,nan,709.2778717963956,1062.0159463312011,nan,1062.2705898487475,nan,nan,nan,nan
1,275,1,1,1.0,1.0,0.23823732510209084,0,3,4,6,1,0,8,nan,nan,nan,nan,nan,nan,nan,nan,nan,nan,nan,nan,0.0,nan,nan,nan,nan,nan,nan,nan,nan,nan,nan,nan,nan,nan,nan,nan,nan,nan,nan,709.2778717963956,1063.0243612544145,nan,1063.2625985795166,nan,nan,nan,nan
1,276,1,1,1.0,1.0,0.22174332267604768,1,8,3,7,6,1,0,1.0,1.0,1.0,1.0,1.0,1.0,0.0,0.0,1.0,0.0,0.0,0.0,1.0,4.0,4.0,7.0,1.0,7.0,7.0,3.0,2.0,1.0,4.0,5.0,6.0,4.033955909078941,3.1470171154942364,2.4017752420622855,6.28092347481288,8.041579688200727,8.937102182768285,709.2778717963956,1064.0328158063348,1064.841254848754,1064.2545591290109,1074.8258319559973,1075.825961104827,1065.8496803208254,1074.8174917278811
1,277,1,1,1.0,1.0,0.6439412038307637,0,4,5,1,8,0,2,nan,nan,nan,nan,nan,nan,nan,nan,nan,nan,nan,nan,0.0,nan,nan,nan,nan,nan,nan,nan,nan,nan,nan,nan,nan,nan,nan,nan,nan,nan,nan,709.2778717963956,1076.034359891666,nan,1076.6783010954969,nan,nan,nan,nan
1,278,1,1,1.0,1.0,0.5394836550112814,0,5,3,8,1,2,0,nan,nan,nan,nan,nan,nan,nan,nan,nan,nan,nan,nan,0.0,nan,nan,nan,nan,nan,nan,nan,nan,nan,nan,nan,nan,nan,nan,nan,nan,nan,nan,709.2778717963956,1077.042805605568,nan,1077.5822892605793,nan,nan,nan,nan
1,279,0,0,1.0,0.0,0.6830054812598974,0,8,1,6,3,4,5,nan,nan,nan,nan,nan,nan,nan,nan,nan,nan,nan,nan,0.0,nan,nan,nan,nan,nan,nan,nan,nan,nan,nan,nan,nan,nan,nan,nan,nan,nan,nan,709.2778717963956,1078.0512638636865,nan,1078.7342693449464,nan,nan,nan,nan
1,280,1,1,1.0,1.0,0.49051738856360316,0,5,2,8,1,6,4,nan,nan,nan,nan,nan,nan,nan,nan,nan,nan,nan,nan,0.0,nan,nan,nan,nan,nan,nan,nan,nan,nan,nan,nan,nan,nan,nan,nan,nan,nan,nan,709.2778717963956,1079.059724402381,nan,1079.5502417909447,nan,nan,nan,nan
1,281,0,0,1.0,0.0,0.5860571025405079,0,1,5,0,8,3,2,nan,nan,nan,nan,nan,nan,nan,nan,nan,nan,nan,nan,0.0,nan,nan,nan,nan,nan,nan,nan,nan,nan,nan,nan,nan,nan,nan,nan,nan,nan,nan,709.2778717963956,1080.0681438874453,nan,1080.6542009899858,nan,nan,nan,nan
1,282,1,1,1.0,1.0,0.3135496915783733,0,6,3,8,0,1,4,nan,nan,nan,nan,nan,nan,nan,nan,nan,nan,nan,nan,0.0,nan,nan,nan,nan,nan,nan,nan,nan,nan,nan,nan,nan,nan,nan,nan,nan,nan,nan,709.2778717963956,1081.076627233997,nan,1081.3901769255754,nan,nan,nan,nan
1,283,1,1,1.0,1.0,0.329097171779722,0,8,4,5,6,7,3,nan,nan,nan,nan,nan,nan,nan,nan,nan,nan,nan,nan,0.0,nan,nan,nan,nan,nan,nan,nan,nan,nan,nan,nan,nan,nan,nan,nan,nan,nan,nan,709.2778717963956,1082.08507579891,nan,1082.4141729706898,nan,nan,nan,nan
1,284,1,1,1.0,1.0,0.3286575523670763,0,1,8,7,5,6,0,nan,nan,nan,nan,nan,nan,nan,nan,nan,nan,nan,nan,0.0,nan,nan,nan,nan,nan,nan,nan,nan,nan,nan,nan,nan,nan,nan,nan,nan,nan,nan,709.2778717963956,1083.0935237933882,nan,1083.4221813457552,nan,nan,nan,nan
1,285,1,1,1.0,1.0,0.30410670838318765,0,2,4,5,1,3,6,nan,nan,nan,nan,nan,nan,nan,nan,nan,nan,nan,nan,0.0,nan,nan,nan,nan,nan,nan,nan,nan,nan,nan,nan,nan,nan,nan,nan,nan,nan,nan,709.2778717963956,1084.102025956381,nan,1084.4061326647643,nan,nan,nan,nan
1,286,1,1,1.0,1.0,0.23162364470772445,0,7,0,3,6,1,2,nan,nan,nan,nan,nan,nan,nan,nan,nan,nan,nan,nan,0.0,nan,nan,nan,nan,nan,nan,nan,nan,nan,nan,nan,nan,nan,nan,nan,nan,nan,nan,709.2778717963956,1085.1104847847018,nan,1085.3421084294096,nan,nan,nan,nan
1,287,1,1,1.0,1.0,0.21517012594267726,0,8,6,5,0,4,1,nan,nan,nan,nan,nan,nan,nan,nan,nan,nan,nan,nan,0.0,nan,nan,nan,nan,nan,nan,nan,nan,nan,nan,nan,nan,nan,nan,nan,nan,nan,nan,709.2778717963956,1086.1189122523647,nan,1086.3340823783074,nan,nan,nan,nan
1,288,1,1,1.0,1.0,0.27870827121660113,1,3,1,8,4,2,5,1.0,1.0,1.0,1.0,1.0,1.0,0.0,1.0,1.0,0.0,0.0,0.0,2.0,6.0,1.0,8.0,3.0,4.0,4.0,3.0,2.0,1.0,4.0,5.0,6.0,3.859743674984202,2.835996519541368,1.6600104116369039,4.747233561007306,6.354281786363572,7.249745550798252,709.2778717963956,1087.1273713656701,1087.9358183909208,1087.4060796368867,1096.2368058529682,1097.2367208939977,1088.9442509904038,1096.2284756035078
1,289,0,0,0.0,1.0,0.6804578544106334,0,7,6,4,5,8,0,nan,nan,nan,nan,nan,nan,nan,nan,nan,nan,nan,nan,0.0,nan,nan,nan,nan,nan,nan,nan,nan,nan,nan,nan,nan,nan,nan,nan,nan,nan,nan,709.2778717963956,1097.445405348204,nan,1098.1258632026147,nan,nan,nan,nan
1,290,1,1,1.0,1.0,0.5440298120956868,0,5,7,0,3,2,6,nan,nan,nan,nan,nan,nan,nan,nan,nan,nan,nan,nan,0.0,nan,nan,nan,nan,nan,nan,nan,nan,nan,nan,nan,nan,nan,nan,nan,nan,nan,nan,709.2778717963956,1098.4538208416197,nan,1098.9978506537154,nan,nan,nan,nan
1,291,0,0,0.0,1.0,0.5755849191918969,0,4,3,7,1,5,0,nan,nan,nan,nan,nan,nan,nan,nan,nan,nan,nan,nan,0.0,nan,nan,nan,nan,nan,nan,nan,nan,nan,nan,nan,nan,nan,nan,nan,nan,nan,nan,709.2778717963956,1099.4622651301324,nan,1100.0378500493243,nan,nan,nan,nan
1,292,1,1,1.0,1.0,0.4550744129810482,0,1,4,0,7,8,5,nan,nan,nan,nan,nan,nan,nan,nan,nan,nan,nan,nan,0.0,nan,nan,nan,nan,nan,nan,nan,nan,nan,nan,nan,nan,nan,nan,nan,nan,nan,nan,709.2778717963956,1100.4707382132765,nan,1100.9258126262575,nan,nan,nan,nan
1,293,1,1,1.0,1.0,0.4385858275927603,0,0,5,3,8,4,1,nan,nan,nan,nan,nan,nan,nan,nan,nan,nan,nan,nan,0.0,nan,nan,nan,nan,nan,nan,nan,nan,nan,nan,nan,nan,nan,nan,nan,nan,nan,nan,709.2778717963956,1101.4791998923756,nan,1101.9177857199684,nan,nan,nan,nan
1,294,1,1,1.0,1.0,0.35013619088567793,0,8,3,7,2,0,5,nan,nan,nan,nan,nan,nan,nan,nan,nan,nan,nan,nan,0.0,nan,nan,nan,nan,nan,nan,nan,nan,nan,nan,nan,nan,nan,nan,nan,nan,nan,nan,709.2778717963956,1102.4876173816156,nan,1102.8377535725012,nan,nan,nan,nan
1,295,1,1,1.0,1.0,0.40560808638110757,0,0,7,6,8,3,2,nan,nan,nan,nan,nan,nan,nan,nan,nan,nan,nan,nan,0.0,nan,nan,nan,nan,nan,nan,nan,nan,nan,nan,nan,nan,nan,nan,nan,nan,nan,nan,709.2778717963956,1103.4961178340018,nan,1103.901725920383,nan,nan,nan,nan
1,296,0,0,1.0,0.0,0.35717666149139404,0,1,5,2,4,0,7,nan,nan,nan,nan,nan,nan,nan,nan,nan,nan,nan,nan,0.0,nan,nan,nan,nan,nan,nan,nan,nan,nan,nan,nan,nan,nan,nan,nan,nan,nan,nan,709.2778717963956,1104.504542735871,nan,1104.8617193973623,nan,nan,nan,nan
1,297,1,1,1.0,1.0,0.46059560193680227,0,4,1,6,2,7,8,nan,nan,nan,nan,nan,nan,nan,nan,nan,nan,nan,nan,0.0,nan,nan,nan,nan,nan,nan,nan,nan,nan,nan,nan,nan,nan,nan,nan,nan,nan,nan,709.2778717963956,1105.5130859527271,nan,1105.973681554664,nan,nan,nan,nan
1,298,1,1,1.0,1.0,0.468209687853232,0,5,8,1,6,0,3,nan,nan,nan,nan,nan,nan,nan,nan,nan,nan,nan,nan,0.0,nan,nan,nan,nan,nan,nan,nan,nan,nan,nan,nan,nan,nan,nan,nan,nan,nan,nan,709.2778717963956,1106.5214709409047,nan,1106.989680628758,nan,nan,nan,nan
1,299,1,1,1.0,1.0,0.45170028996653855,0,3,7,2,8,5,1,nan,nan,nan,nan,nan,nan,nan,nan,nan,nan,nan,nan,0.0,nan,nan,nan,nan,nan,nan,nan,nan,nan,nan,nan,nan,nan,nan,nan,nan,nan,nan,709.2778717963956,1107.5299574236851,nan,1107.9816577136517,nan,nan,nan,nan
1,300,1,1,0.0,0.0,0.4672554680146277,0,7,2,0,6,4,3,nan,nan,nan,nan,nan,nan,nan,nan,nan,nan,nan,nan,0.0,nan,nan,nan,nan,nan,nan,nan,nan,nan,nan,nan,nan,nan,nan,nan,nan,nan,nan,709.2778717963956,1108.5383883125614,nan,1109.005643780576,nan,nan,nan,nan
1,301,1,1,1.0,1.0,0.33075643656775355,0,2,7,1,3,6,4,nan,nan,nan,nan,nan,nan,nan,nan,nan,nan,nan,nan,0.0,nan,nan,nan,nan,nan,nan,nan,nan,nan,nan,nan,nan,nan,nan,nan,nan,nan,nan,709.2778717963956,1109.546846570447,nan,1109.8776030070148,nan,nan,nan,nan
1,302,1,1,1.0,1.0,0.29827618948183954,0,4,5,2,1,7,6,nan,nan,nan,nan,nan,nan,nan,nan,nan,nan,nan,nan,0.0,nan,nan,nan,nan,nan,nan,nan,nan,nan,nan,nan,nan,nan,nan,nan,nan,nan,nan,709.2778717963956,1110.5553045435809,nan,1110.8535807330627,nan,nan,nan,nan
1,303,1,1,1.0,1.0,0.29779066937044263,0,7,1,0,2,3,8,nan,nan,nan,nan,nan,nan,nan,nan,nan,nan,nan,nan,0.0,nan,nan,nan,nan,nan,nan,nan,nan,nan,nan,nan,nan,nan,nan,nan,nan,nan,nan,709.2778717963956,1111.5637696438935,nan,1111.861560313264,nan,nan,nan,nan
1,304,1,1,1.0,1.0,0.2972629547584802,0,1,3,8,0,7,4,nan,nan,nan,nan,nan,nan,nan,nan,nan,nan,nan,nan,0.0,nan,nan,nan,nan,nan,nan,nan,nan,nan,nan,nan,nan,nan,nan,nan,nan,nan,nan,709.2778717963956,1112.5722663900815,nan,1112.86952934484,nan,nan,nan,nan
1,305,1,1,1.0,1.0,0.4168146795127541,0,4,6,1,5,2,3,nan,nan,nan,nan,nan,nan,nan,nan,nan,nan,nan,nan,0.0,nan,nan,nan,nan,nan,nan,nan,nan,nan,nan,nan,nan,nan,nan,nan,nan,nan,nan,709.2778717963956,1113.5807095381897,nan,1113.9975242177024,nan,nan,nan,nan
1,306,1,1,1.0,1.0,0.44832759257405996,0,2,3,0,1,8,6,nan,nan,nan,nan,nan,nan,nan,nan,nan,nan,nan,nan,0.0,nan,nan,nan,nan,nan,nan,nan,nan,nan,nan,nan,nan,nan,nan,nan,nan,nan,nan,709.2778717963956,1114.589171787491,nan,1115.0374993800651,nan,nan,nan,nan
1,307,1,1,1.0,1.0,0.34386804793030024,0,3,5,4,7,2,8,nan,nan,nan,nan,nan,nan,nan,nan,nan,nan,nan,nan,0.0,nan,nan,nan,nan,nan,nan,nan,nan,nan,nan,nan,nan,nan,nan,nan,nan,nan,nan,709.2778717963956,1115.5976291904226,nan,1115.941497238353,nan,nan,nan,nan
1,308,1,1,1.0,1.0,0.3273922917433083,0,5,7,8,0,6,1,nan,nan,nan,nan,nan,nan,nan,nan,nan,nan,nan,nan,0.0,nan,nan,nan,nan,nan,nan,nan,nan,nan,nan,nan,nan,nan,nan,nan,nan,nan,nan,709.2778717963956,1116.6060900143348,nan,1116.933482306078,nan,nan,nan,nan
1,309,1,1,1.0,1.0,0.35092020756565034,0,3,0,1,4,7,2,nan,nan,nan,nan,nan,nan,nan,nan,nan,nan,nan,nan,0.0,nan,nan,nan,nan,nan,nan,nan,nan,nan,nan,nan,nan,nan,nan,nan,nan,nan,nan,709.2778717963956,1117.6145548296627,nan,1117.9654750372283,nan,nan,nan,nan
1,310,1,1,1.0,1.0,0.33442477975040674,0,2,1,7,8,6,4,nan,nan,nan,nan,nan,nan,nan,nan,nan,nan,nan,nan,0.0,nan,nan,nan,nan,nan,nan,nan,nan,nan,nan,nan,nan,nan,nan,nan,nan,nan,nan,709.2778717963956,1118.6230290532112,nan,1118.9574538329616,nan,nan,nan,nan
1,311,1,1,1.0,1.0,0.2939410044346005,0,4,3,6,1,0,7,nan,nan,nan,nan,nan,nan,nan,nan,nan,nan,nan,nan,0.0,nan,nan,nan,nan,nan,nan,nan,nan,nan,nan,nan,nan,nan,nan,nan,nan,nan,nan,709.2778717963956,1119.6314556654543,nan,1119.9253966698889,nan,nan,nan,nan
1,312,1,1,1.0,1.0,0.2934677433222532,0,6,5,8,0,1,3,nan,nan,nan,nan,nan,nan,nan,nan,nan,nan,nan,nan,0.0,nan,nan,nan,nan,nan,nan,nan,nan,nan,nan,nan,nan,nan,nan,nan,nan,nan,nan,709.2778717963956,1120.639928178396,nan,1120.9333959217183,nan,nan,nan,nan
1,313,1,1,1.0,1.0,0.4209802318364382,0,1,3,0,7,4,6,nan,nan,nan,nan,nan,nan,nan,nan,nan,nan,nan,nan,0.0,nan,nan,nan,nan,nan,nan,nan,nan,nan,nan,nan,nan,nan,nan,nan,nan,nan,nan,709.2778717963956,1121.6483870067168,nan,1122.0693672385532,nan,nan,nan,nan
1,314,1,1,1.0,1.0,0.49252960295416415,0,4,1,2,8,7,5,nan,nan,nan,nan,nan,nan,nan,nan,nan,nan,nan,nan,0.0,nan,nan,nan,nan,nan,nan,nan,nan,nan,nan,nan,nan,nan,nan,nan,nan,nan,nan,709.2778717963956,1122.656825593207,nan,1123.1493551961612,nan,nan,nan,nan
1,315,1,1,1.0,1.0,0.5080343186855316,0,7,0,1,2,5,8,nan,nan,nan,nan,nan,nan,nan,nan,nan,nan,nan,nan,0.0,nan,nan,nan,nan,nan,nan,nan,nan,nan,nan,nan,nan,nan,nan,nan,nan,nan,nan,709.2778717963956,1123.6652892681304,nan,1124.173323586816,nan,nan,nan,nan
1,316,1,1,1.0,1.0,0.5875410325825214,0,8,1,3,5,6,0,nan,nan,nan,nan,nan,nan,nan,nan,nan,nan,nan,nan,0.0,nan,nan,nan,nan,nan,nan,nan,nan,nan,nan,nan,nan,nan,nan,nan,nan,nan,nan,709.2778717963956,1124.673742964631,nan,1125.2612839972135,nan,nan,nan,nan
1,317,1,1,1.0,1.0,0.6190322779584676,0,6,2,1,3,5,8,nan,nan,nan,nan,nan,nan,nan,nan,nan,nan,nan,nan,0.0,nan,nan,nan,nan,nan,nan,nan,nan,nan,nan,nan,nan,nan,nan,nan,nan,nan,nan,709.2778717963956,1125.6822283070069,nan,1126.3012605849653,nan,nan,nan,nan
1,318,1,1,1.0,1.0,0.7065878505818546,0,7,5,2,6,1,3,nan,nan,nan,nan,nan,nan,nan,nan,nan,nan,nan,nan,0.0,nan,nan,nan,nan,nan,nan,nan,nan,nan,nan,nan,nan,nan,nan,nan,nan,nan,nan,709.2778717963956,1126.690674020676,nan,1127.3972618712578,nan,nan,nan,nan
1,319,1,1,1.0,1.0,0.698108495445922,0,3,0,6,7,8,1,nan,nan,nan,nan,nan,nan,nan,nan,nan,nan,nan,nan,0.0,nan,nan,nan,nan,nan,nan,nan,nan,nan,nan,nan,nan,nan,nan,nan,nan,nan,nan,709.2778717963956,1127.6991217301693,nan,1128.3972302256152,nan,nan,nan,nan
1,320,1,1,1.0,1.0,0.6816341646481305,0,6,1,3,8,2,4,nan,nan,nan,nan,nan,nan,nan,nan,nan,nan,nan,nan,0.0,nan,nan,nan,nan,nan,nan,nan,nan,nan,nan,nan,nan,nan,nan,nan,nan,nan,nan,709.2778717963956,1128.7075879711192,nan,1129.3892221357673,nan,nan,nan,nan
1,321,1,1,1.0,1.0,0.7611628307495266,0,7,4,0,3,5,1,nan,nan,nan,nan,nan,nan,nan,nan,nan,nan,nan,nan,0.0,nan,nan,nan,nan,nan,nan,nan,nan,nan,nan,nan,nan,nan,nan,nan,nan,nan,nan,709.2778717963956,1129.716039957013,nan,1130.4772027877625,nan,nan,nan,nan
1,322,1,1,1.0,1.0,0.7686551802325994,0,5,1,3,7,8,4,nan,nan,nan,nan,nan,nan,nan,nan,nan,nan,nan,nan,0.0,nan,nan,nan,nan,nan,nan,nan,nan,nan,nan,nan,nan,nan,nan,nan,nan,nan,nan,709.2778717963956,1130.7245195973665,nan,1131.493174777599,nan,nan,nan,nan
1,323,1,1,1.0,1.0,0.7361495594959706,0,2,8,1,0,4,6,nan,nan,nan,nan,nan,nan,nan,nan,nan,nan,nan,nan,0.0,nan,nan,nan,nan,nan,nan,nan,nan,nan,nan,nan,nan,nan,nan,nan,nan,nan,nan,709.2778717963956,1131.7329855530988,nan,1132.4691351125948,nan,nan,nan,nan
1,324,1,1,1.0,1.0,0.7996956873685122,0,0,4,8,3,2,7,nan,nan,nan,nan,nan,nan,nan,nan,nan,nan,nan,nan,0.0,nan,nan,nan,nan,nan,nan,nan,nan,nan,nan,nan,nan,nan,nan,nan,nan,nan,nan,709.2778717963956,1132.741445521824,nan,1133.5411412091926,nan,nan,nan,nan
1,325,1,1,1.0,1.0,0.7988959902431816,0,7,1,3,5,4,8,nan,nan,nan,nan,nan,nan,nan,nan,nan,nan,nan,nan,0.0,nan,nan,nan,nan,nan,nan,nan,nan,nan,nan,nan,nan,nan,nan,nan,nan,nan,nan,709.2778717963956,1133.7582274721935,nan,1134.5571234624367,nan,nan,nan,nan
1,326,1,1,1.0,1.0,0.7500506048090756,0,8,7,0,2,5,3,nan,nan,nan,nan,nan,nan,nan,nan,nan,nan,nan,nan,0.0,nan,nan,nan,nan,nan,nan,nan,nan,nan,nan,nan,nan,nan,nan,nan,nan,nan,nan,709.2778717963956,1134.7750456298236,nan,1135.5250962346327,nan,nan,nan,nan
1,327,1,1,1.0,1.0,0.7815848998725414,0,3,6,8,7,1,4,nan,nan,nan,nan,nan,nan,nan,nan,nan,nan,nan,nan,0.0,nan,nan,nan,nan,nan,nan,nan,nan,nan,nan,nan,nan,nan,nan,nan,nan,nan,nan,709.2778717963956,1135.7834936245345,nan,1136.565078524407,nan,nan,nan,nan
1,328,0,0,0.0,1.0,0.6770959906280041,0,4,1,3,5,0,8,nan,nan,nan,nan,nan,nan,nan,nan,nan,nan,nan,nan,0.0,nan,nan,nan,nan,nan,nan,nan,nan,nan,nan,nan,nan,nan,nan,nan,nan,nan,nan,709.2778717963956,1136.791954163229,nan,1137.469050153857,nan,nan,nan,nan
1,329,1,1,1.0,1.0,0.6366182020865381,0,2,5,6,0,4,1,nan,nan,nan,nan,nan,nan,nan,nan,nan,nan,nan,nan,0.0,nan,nan,nan,nan,nan,nan,nan,nan,nan,nan,nan,nan,nan,nan,nan,nan,nan,nan,709.2778717963956,1137.800404438749,nan,1138.4370226408355,nan,nan,nan,nan
1,330,1,1,1.0,1.0,0.6681727392133325,0,5,8,7,2,3,0,nan,nan,nan,nan,nan,nan,nan,nan,nan,nan,nan,nan,0.0,nan,nan,nan,nan,nan,nan,nan,nan,nan,nan,nan,nan,nan,nan,nan,nan,nan,nan,709.2778717963956,1138.8088415996172,nan,1139.4770143388305,nan,nan,nan,nan
1,331,1,1,nan,nan,nan,0,8,0,2,7,1,4,nan,nan,nan,nan,nan,nan,nan,nan,nan,nan,nan,nan,0.0,nan,nan,nan,nan,nan,nan,nan,nan,nan,nan,nan,nan,nan,nan,nan,nan,nan,nan,709.2778717963956,1139.8173047043383,nan,nan,nan,nan,nan,nan
1,332,0,0,0.0,1.0,0.4991372963413596,0,1,6,3,0,5,7,nan,nan,nan,nan,nan,nan,nan,nan,nan,nan,nan,nan,0.0,nan,nan,nan,nan,nan,nan,nan,nan,nan,nan,nan,nan,nan,nan,nan,nan,nan,nan,709.2778717963956,1140.825803161133,nan,1141.3249404574744,nan,nan,nan,nan
1,333,1,1,1.0,1.0,0.466702664969489,0,7,8,5,1,4,3,nan,nan,nan,nan,nan,nan,nan,nan,nan,nan,nan,nan,0.0,nan,nan,nan,nan,nan,nan,nan,nan,nan,nan,nan,nan,nan,nan,nan,nan,nan,nan,709.2778717963956,1141.8342377562076,nan,1142.300940421177,nan,nan,nan,nan
1,334,1,1,1.0,1.0,0.522251536604017,0,6,1,3,4,2,7,nan,nan,nan,nan,nan,nan,nan,nan,nan,nan,nan,nan,0.0,nan,nan,nan,nan,nan,nan,nan,nan,nan,nan,nan,nan,nan,nan,nan,nan,nan,nan,709.2778717963956,1142.8426834698766,nan,1143.3649350064807,nan,nan,nan,nan
1,335,1,1,1.0,1.0,0.5217625952791423,0,1,3,0,6,5,8,nan,nan,nan,nan,nan,nan,nan,nan,nan,nan,nan,nan,0.0,nan,nan,nan,nan,nan,nan,nan,nan,nan,nan,nan,nan,nan,nan,nan,nan,nan,nan,709.2778717963956,1143.8511428683996,nan,1144.3729054636788,nan,nan,nan,nan
1,336,1,1,1.0,1.0,0.4892991688102484,0,2,7,6,5,4,3,nan,nan,nan,nan,nan,nan,nan,nan,nan,nan,nan,nan,0.0,nan,nan,nan,nan,nan,nan,nan,nan,nan,nan,nan,nan,nan,nan,nan,nan,nan,nan,709.2778717963956,1144.8595994159114,nan,1145.3488985847216,nan,nan,nan,nan
1,337,1,1,1.0,1.0,0.608801286900416,0,1,3,7,6,8,4,nan,nan,nan,nan,nan,nan,nan,nan,nan,nan,nan,nan,0.0,nan,nan,nan,nan,nan,nan,nan,nan,nan,nan,nan,nan,nan,nan,nan,nan,nan,nan,709.2778717963956,1145.868061380228,nan,1146.4768626671284,nan,nan,nan,nan
1,338,1,1,1.0,1.0,0.6963172308169305,0,4,8,6,2,5,3,nan,nan,nan,nan,nan,nan,nan,nan,nan,nan,nan,nan,0.0,nan,nan,nan,nan,nan,nan,nan,nan,nan,nan,nan,nan,nan,nan,nan,nan,nan,nan,709.2778717963956,1146.8765236297622,nan,1147.5728408605792,nan,nan,nan,nan
1,339,1,1,nan,nan,nan,0,5,6,1,3,4,0,nan,nan,nan,nan,nan,nan,nan,nan,nan,nan,nan,nan,0.0,nan,nan,nan,nan,nan,nan,nan,nan,nan,nan,nan,nan,nan,nan,nan,nan,nan,nan,709.2778717963956,1147.885006121127,nan,nan,nan,nan,nan,nan
1,340,1,1,1.0,1.0,0.5913128659594804,0,8,2,3,6,0,7,nan,nan,nan,nan,nan,nan,nan,nan,nan,nan,nan,nan,0.0,nan,nan,nan,nan,nan,nan,nan,nan,nan,nan,nan,nan,nan,nan,nan,nan,nan,nan,709.2778717963956,1148.8934603878297,nan,1149.4847732537892,nan,nan,nan,nan
1,341,1,1,1.0,1.0,0.5348499733954668,0,6,3,8,5,7,2,nan,nan,nan,nan,nan,nan,nan,nan,nan,nan,nan,nan,0.0,nan,nan,nan,nan,nan,nan,nan,nan,nan,nan,nan,nan,nan,nan,nan,nan,nan,nan,709.2778717963956,1149.9019289093558,nan,1150.4367788827512,nan,nan,nan,nan
1,342,0,0,0.0,1.0,0.5343952435068786,0,2,7,6,3,1,4,nan,nan,nan,nan,nan,nan,nan,nan,nan,nan,nan,nan,0.0,nan,nan,nan,nan,nan,nan,nan,nan,nan,nan,nan,nan,nan,nan,nan,nan,nan,nan,709.2778717963956,1150.9103868824895,nan,1151.4447821259964,nan,nan,nan,nan
1,343,1,1,1.0,1.0,0.38205194589681923,0,3,4,7,1,0,6,nan,nan,nan,nan,nan,nan,nan,nan,nan,nan,nan,nan,0.0,nan,nan,nan,nan,nan,nan,nan,nan,nan,nan,nan,nan,nan,nan,nan,nan,nan,nan,709.2778717963956,1151.918849131791,nan,1152.3009010776877,nan,nan,nan,nan
1,344,0,0,1.0,0.0,0.5574422008357942,0,6,0,4,2,8,7,nan,nan,nan,nan,nan,nan,nan,nan,nan,nan,nan,nan,0.0,nan,nan,nan,nan,nan,nan,nan,nan,nan,nan,nan,nan,nan,nan,nan,nan,nan,nan,709.2778717963956,1152.9273065347224,nan,1153.4847487355582,nan,nan,nan,nan
1,345,1,1,1.0,1.0,0.4769373624585569,0,7,3,1,8,2,5,nan,nan,nan,nan,nan,nan,nan,nan,nan,nan,nan,nan,0.0,nan,nan,nan,nan,nan,nan,nan,nan,nan,nan,nan,nan,nan,nan,nan,nan,nan,nan,709.2778717963956,1153.935741129797,nan,1154.4126784922555,nan,nan,nan,nan
1,346,1,1,1.0,1.0,0.7564607257954776,0,3,4,6,7,5,2,nan,nan,nan,nan,nan,nan,nan,nan,nan,nan,nan,nan,0.0,nan,nan,nan,nan,nan,nan,nan,nan,nan,nan,nan,nan,nan,nan,nan,nan,nan,nan,709.2778717963956,1154.9441911200993,nan,1155.7006518458948,nan,nan,nan,nan
1,347,1,1,nan,nan,nan,0,6,5,1,3,0,7,nan,nan,nan,nan,nan,nan,nan,nan,nan,nan,nan,nan,0.0,nan,nan,nan,nan,nan,nan,nan,nan,nan,nan,nan,nan,nan,nan,nan,nan,nan,nan,709.2778717963956,1155.9526884362567,nan,nan,nan,nan,nan,nan
1,348,1,1,1.0,1.0,0.659452477004379,0,5,2,6,4,1,8,nan,nan,nan,nan,nan,nan,nan,nan,nan,nan,nan,nan,0.0,nan,nan,nan,nan,nan,nan,nan,nan,nan,nan,nan,nan,nan,nan,nan,nan,nan,nan,709.2778717963956,1156.9611389967613,nan,1157.6205914737657,nan,nan,nan,nan
1,349,1,1,1.0,1.0,0.4670128505676985,0,2,7,0,8,3,6,nan,nan,nan,nan,nan,nan,nan,nan,nan,nan,nan,nan,0.0,nan,nan,nan,nan,nan,nan,nan,nan,nan,nan,nan,nan,nan,nan,nan,nan,nan,nan,709.2778717963956,1157.9696049524937,nan,1158.4366178030614,nan,nan,nan,nan
1,350,1,1,1.0,1.0,0.49055929761379957,0,6,1,5,2,8,0,nan,nan,nan,nan,nan,nan,nan,nan,nan,nan,nan,nan,0.0,nan,nan,nan,nan,nan,nan,nan,nan,nan,nan,nan,nan,nan,nan,nan,nan,nan,nan,709.2778717963956,1158.978036696557,nan,1159.4685959941708,nan,nan,nan,nan
1,351,0,0,1.0,0.0,0.28206728398799896,0,1,7,3,0,6,4,nan,nan,nan,nan,nan,nan,nan,nan,nan,nan,nan,nan,0.0,nan,nan,nan,nan,nan,nan,nan,nan,nan,nan,nan,nan,nan,nan,nan,nan,nan,nan,709.2778717963956,1159.9865052183159,nan,1160.2685725023039,nan,nan,nan,nan
1,352,1,1,1.0,1.0,0.24958817730657756,0,3,4,6,5,8,7,nan,nan,nan,nan,nan,nan,nan,nan,nan,nan,nan,nan,0.0,nan,nan,nan,nan,nan,nan,nan,nan,nan,nan,nan,nan,nan,nan,nan,nan,nan,nan,709.2778717963956,1160.994966897415,nan,1161.2445550747216,nan,nan,nan,nan
1,353,1,1,1.0,1.0,0.28910861001349986,1,2,0,8,1,7,3,1.0,1.0,1.0,1.0,1.0,1.0,0.0,1.0,1.0,0.0,0.0,0.0,2.0,3.0,0.0,8.0,3.0,4.0,7.0,4.0,2.0,1.0,3.0,5.0,6.0,4.357617706526071,2.262159815058112,1.4043451063334942,3.3730961934197694,5.637262236094102,6.644400495104492,709.2778717963956,1162.0034191685263,1162.8118476625532,1162.2925277785398,1170.5044677553233,1171.5043979065958,1163.8202794066165,1170.4961226808373
1,354,1,1,nan,nan,nan,0,8,7,5,6,2,1,nan,nan,nan,nan,nan,nan,nan,nan,nan,nan,nan,nan,0.0,nan,nan,nan,nan,nan,nan,nan,nan,nan,nan,nan,nan,nan,nan,nan,nan,nan,nan,709.2778717963956,1171.7129914145917,nan,nan,nan,nan,nan,nan
1,355,1,1,1.0,1.0,0.06689003086648881,0,2,4,1,5,3,8,nan,nan,nan,nan,nan,nan,nan,nan,nan,nan,nan,nan,0.0,nan,nan,nan,nan,nan,nan,nan,nan,nan,nan,nan,nan,nan,nan,nan,nan,nan,nan,709.2778717963956,1172.721446821699,nan,1172.7883368525654,nan,nan,nan,nan
1,356,1,1,1.0,1.0,0.45035349181853235,0,7,5,6,2,8,3,nan,nan,nan,nan,nan,nan,nan,nan,nan,nan,nan,nan,0.0,nan,nan,nan,nan,nan,nan,nan,nan,nan,nan,nan,nan,nan,nan,nan,nan,nan,nan,709.2778717963956,1173.7298782807775,nan,1174.180231772596,nan,nan,nan,nan
1,357,1,1,1.0,1.0,0.385927269468084,0,8,3,0,4,1,2,nan,nan,nan,nan,nan,nan,nan,nan,nan,nan,nan,nan,0.0,nan,nan,nan,nan,nan,nan,nan,nan,nan,nan,nan,nan,nan,nan,nan,nan,nan,nan,709.2778717963956,1174.738329696469,nan,1175.124256965937,nan,nan,nan,nan
1,358,1,1,1.0,1.0,0.33742086426354945,0,0,6,8,5,7,1,nan,nan,nan,nan,nan,nan,nan,nan,nan,nan,nan,nan,0.0,nan,nan,nan,nan,nan,nan,nan,nan,nan,nan,nan,nan,nan,nan,nan,nan,nan,nan,709.2778717963956,1175.7467919460032,nan,1176.0842128102668,nan,nan,nan,nan
1,359,1,1,1.0,1.0,0.28095882688649,0,1,3,5,0,6,7,nan,nan,nan,nan,nan,nan,nan,nan,nan,nan,nan,nan,0.0,nan,nan,nan,nan,nan,nan,nan,nan,nan,nan,nan,nan,nan,nan,nan,nan,nan,nan,709.2778717963956,1176.7552513445262,nan,1177.0362101714127,nan,nan,nan,nan
1,360,1,1,1.0,1.0,0.20845865714363754,0,0,2,1,8,7,4,nan,nan,nan,nan,nan,nan,nan,nan,nan,nan,nan,nan,0.0,nan,nan,nan,nan,nan,nan,nan,nan,nan,nan,nan,nan,nan,nan,nan,nan,nan,nan,709.2778717963956,1177.763750656508,nan,1177.9722093136515,nan,nan,nan,nan
1,361,1,1,1.0,1.0,0.20802188874222338,0,3,4,0,2,8,6,nan,nan,nan,nan,nan,nan,nan,nan,nan,nan,nan,nan,0.0,nan,nan,nan,nan,nan,nan,nan,nan,nan,nan,nan,nan,nan,nan,nan,nan,nan,nan,709.2778717963956,1178.77217954956,nan,1178.9802014383022,nan,nan,nan,nan
1,362,1,1,1.0,1.0,0.19952628295868635,0,7,6,4,0,2,1,nan,nan,nan,nan,nan,nan,nan,nan,nan,nan,nan,nan,0.0,nan,nan,nan,nan,nan,nan,nan,nan,nan,nan,nan,nan,nan,nan,nan,nan,nan,nan,709.2778717963956,1179.7806475008838,nan,1179.9801737838425,nan,nan,nan,nan
1,363,0,0,1.0,0.0,0.26306300261057913,0,6,8,2,5,3,0,nan,nan,nan,nan,nan,nan,nan,nan,nan,nan,nan,nan,0.0,nan,nan,nan,nan,nan,nan,nan,nan,nan,nan,nan,nan,nan,nan,nan,nan,nan,nan,709.2778717963956,1180.7890992017929,nan,1181.0521622044034,nan,nan,nan,nan
1,364,1,1,1.0,1.0,0.28652420546859503,0,8,3,0,1,2,4,nan,nan,nan,nan,nan,nan,nan,nan,nan,nan,nan,nan,0.0,nan,nan,nan,nan,nan,nan,nan,nan,nan,nan,nan,nan,nan,nan,nan,nan,nan,nan,709.2778717963956,1181.7975891057868,nan,1182.0841133112554,nan,nan,nan,nan
1,365,0,0,1.0,0.0,0.3261005172971636,0,7,8,4,6,0,3,nan,nan,nan,nan,nan,nan,nan,nan,nan,nan,nan,nan,0.0,nan,nan,nan,nan,nan,nan,nan,nan,nan,nan,nan,nan,nan,nan,nan,nan,nan,nan,709.2778717963956,1182.8060074502137,nan,1183.1321079675108,nan,nan,nan,nan
1,366,1,1,1.0,1.0,0.3015394099056721,1,2,0,1,4,8,5,1.0,1.0,1.0,1.0,1.0,1.0,0.0,1.0,0.0,0.0,0.0,0.0,1.0,6.0,0.0,4.0,8.0,1.0,0.0,4.0,2.0,1.0,3.0,6.0,5.0,4.95385533827357,3.0743273564148694,2.3373598533216864,4.0411309455521405,6.56050841906108,5.809188277460635,709.2778717963956,1183.8145227276254,1184.6228796623182,1184.1160621375311,1192.2404972889926,1193.2401272330899,1185.6397163514048,1192.2321887069847
1,367,1,1,1.0,1.0,0.5148335974663496,0,5,2,6,7,1,3,nan,nan,nan,nan,nan,nan,nan,nan,nan,nan,nan,nan,0.0,nan,nan,nan,nan,nan,nan,nan,nan,nan,nan,nan,nan,nan,nan,nan,nan,nan,nan,709.2778717963956,1193.449058296159,nan,1193.9638918936253,nan,nan,nan,nan
1,368,1,1,1.0,1.0,0.5943719570059329,0,1,4,7,5,3,8,nan,nan,nan,nan,nan,nan,nan,nan,nan,nan,nan,nan,0.0,nan,nan,nan,nan,nan,nan,nan,nan,nan,nan,nan,nan,nan,nan,nan,nan,nan,nan,709.2778717963956,1194.4575014440343,nan,1195.0518734010402,nan,nan,nan,nan
1,369,1,1,1.0,1.0,0.5538702204357833,0,7,6,3,8,2,5,nan,nan,nan,nan,nan,nan,nan,nan,nan,nan,nan,nan,0.0,nan,nan,nan,nan,nan,nan,nan,nan,nan,nan,nan,nan,nan,nan,nan,nan,nan,nan,709.2778717963956,1195.46596568916,nan,1196.0198359095957,nan,nan,nan,nan
1,370,1,1,1.0,1.0,0.5054062947165221,0,6,4,2,0,8,1,nan,nan,nan,nan,nan,nan,nan,nan,nan,nan,nan,nan,0.0,nan,nan,nan,nan,nan,nan,nan,nan,nan,nan,nan,nan,nan,nan,nan,nan,nan,nan,709.2778717963956,1196.4744245174807,nan,1196.9798308121972,nan,nan,nan,nan
1,371,1,1,1.0,1.0,0.39290017215535045,0,4,1,8,2,0,3,nan,nan,nan,nan,nan,nan,nan,nan,nan,nan,nan,nan,0.0,nan,nan,nan,nan,nan,nan,nan,nan,nan,nan,nan,nan,nan,nan,nan,nan,nan,nan,709.2778717963956,1197.482901306823,nan,1197.8758014789782,nan,nan,nan,nan
1,372,1,1,1.0,1.0,0.31240075058303773,0,1,3,7,6,4,8,nan,nan,nan,nan,nan,nan,nan,nan,nan,nan,nan,nan,0.0,nan,nan,nan,nan,nan,nan,nan,nan,nan,nan,nan,nan,nan,nan,nan,nan,nan,nan,709.2778717963956,1198.4913829430006,nan,1198.8037836935837,nan,nan,nan,nan
1,373,1,1,1.0,1.0,0.2399644427932799,0,0,5,1,7,2,4,nan,nan,nan,nan,nan,nan,nan,nan,nan,nan,nan,nan,0.0,nan,nan,nan,nan,nan,nan,nan,nan,nan,nan,nan,nan,nan,nan,nan,nan,nan,nan,709.2778717963956,1199.4997724925634,nan,1199.7397369353566,nan,nan,nan,nan
1,374,0,0,1.0,0.0,0.26351060485467315,0,3,1,8,4,6,5,nan,nan,nan,nan,nan,nan,nan,nan,nan,nan,nan,nan,0.0,nan,nan,nan,nan,nan,nan,nan,nan,nan,nan,nan,nan,nan,nan,nan,nan,nan,nan,709.2778717963956,1200.508223053068,nan,1200.7717336579226,nan,nan,nan,nan
1,375,1,1,1.0,1.0,0.2629806094337255,0,8,0,6,1,4,3,nan,nan,nan,nan,nan,nan,nan,nan,nan,nan,nan,nan,0.0,nan,nan,nan,nan,nan,nan,nan,nan,nan,nan,nan,nan,nan,nan,nan,nan,nan,nan,709.2778717963956,1201.5167408965062,nan,1201.77972150594,nan,nan,nan,nan
1,376,1,1,1.0,1.0,0.2945340059231967,0,0,8,4,2,7,6,nan,nan,nan,nan,nan,nan,nan,nan,nan,nan,nan,nan,0.0,nan,nan,nan,nan,nan,nan,nan,nan,nan,nan,nan,nan,nan,nan,nan,nan,nan,nan,709.2778717963956,1202.525152398739,nan,1202.8196864046622,nan,nan,nan,nan
1,377,1,1,1.0,1.0,0.2140565370209515,0,8,4,2,0,6,1,nan,nan,nan,nan,nan,nan,nan,nan,nan,nan,nan,nan,0.0,nan,nan,nan,nan,nan,nan,nan,nan,nan,nan,nan,nan,nan,nan,nan,nan,nan,nan,709.2778717963956,1203.5336115120444,nan,1203.7476680490654,nan,nan,nan,nan
1,378,1,1,1.0,1.0,0.22160818660631776,0,4,7,5,1,0,6,nan,nan,nan,nan,nan,nan,nan,nan,nan,nan,nan,nan,0.0,nan,nan,nan,nan,nan,nan,nan,nan,nan,nan,nan,nan,nan,nan,nan,nan,nan,nan,709.2778717963956,1204.5420726211742,nan,1204.7636808077805,nan,nan,nan,nan
1,379,1,1,1.0,1.0,0.34907876583747566,0,3,6,4,0,1,7,nan,nan,nan,nan,nan,nan,nan,nan,nan,nan,nan,nan,0.0,nan,nan,nan,nan,nan,nan,nan,nan,nan,nan,nan,nan,nan,nan,nan,nan,nan,nan,709.2778717963956,1205.5505727885757,nan,1205.8996515544131,nan,nan,nan,nan
1,380,1,1,1.0,1.0,0.3646194040775299,0,5,8,1,7,6,2,nan,nan,nan,nan,nan,nan,nan,nan,nan,nan,nan,nan,0.0,nan,nan,nan,nan,nan,nan,nan,nan,nan,nan,nan,nan,nan,nan,nan,nan,nan,nan,709.2778717963956,1206.5589820097666,nan,1206.9236014138442,nan,nan,nan,nan
1,381,1,1,1.0,1.0,0.3721556584350765,0,3,2,5,0,1,8,nan,nan,nan,nan,nan,nan,nan,nan,nan,nan,nan,nan,0.0,nan,nan,nan,nan,nan,nan,nan,nan,nan,nan,nan,nan,nan,nan,nan,nan,nan,nan,709.2778717963956,1207.5674798963591,nan,1207.9396355547942,nan,nan,nan,nan
1,382,1,1,1.0,1.0,0.2116203831974417,0,1,5,2,6,4,0,nan,nan,nan,nan,nan,nan,nan,nan,nan,nan,nan,nan,0.0,nan,nan,nan,nan,nan,nan,nan,nan,nan,nan,nan,nan,nan,nan,nan,nan,nan,nan,709.2778717963956,1208.5759398650844,nan,1208.7875602482818,nan,nan,nan,nan
1,383,1,1,1.0,1.0,0.2511496536899358,0,6,7,0,1,2,4,nan,nan,nan,nan,nan,nan,nan,nan,nan,nan,nan,nan,0.0,nan,nan,nan,nan,nan,nan,nan,nan,nan,nan,nan,nan,nan,nan,nan,nan,nan,nan,709.2778717963956,1209.584397268016,nan,1209.8355469217058,nan,nan,nan,nan
1,384,0,0,1.0,0.0,0.2266549738124013,0,0,3,1,2,8,5,nan,nan,nan,nan,nan,nan,nan,nan,nan,nan,nan,nan,0.0,nan,nan,nan,nan,nan,nan,nan,nan,nan,nan,nan,nan,nan,nan,nan,nan,nan,nan,709.2778717963956,1210.5928575217258,nan,1210.8195124955382,nan,nan,nan,nan
1,385,1,1,1.0,1.0,0.28218018263578415,0,2,0,4,7,5,6,nan,nan,nan,nan,nan,nan,nan,nan,nan,nan,nan,nan,0.0,nan,nan,nan,nan,nan,nan,nan,nan,nan,nan,nan,nan,nan,nan,nan,nan,nan,nan,709.2778717963956,1211.6013368768618,nan,1211.8835170594975,nan,nan,nan,nan
1,386,1,1,1.0,1.0,0.2816712842322886,0,5,8,6,0,7,2,nan,nan,nan,nan,nan,nan,nan,nan,nan,nan,nan,nan,0.0,nan,nan,nan,nan,nan,nan,nan,nan,nan,nan,nan,nan,nan,nan,nan,nan,nan,nan,709.2778717963956,1212.6097885777708,nan,1212.891459862003,nan,nan,nan,nan
1,387,1,1,1.0,1.0,0.27320903493091464,0,7,6,5,8,1,0,nan,nan,nan,nan,nan,nan,nan,nan,nan,nan,nan,nan,0.0,nan,nan,nan,nan,nan,nan,nan,nan,nan,nan,nan,nan,nan,nan,nan,nan,nan,nan,709.2778717963956,1213.6182345766574,nan,1213.8914436115883,nan,nan,nan,nan
1,388,1,1,1.0,1.0,0.3047584400046617,0,6,0,8,4,7,3,nan,nan,nan,nan,nan,nan,nan,nan,nan,nan,nan,nan,0.0,nan,nan,nan,nan,nan,nan,nan,nan,nan,nan,nan,nan,nan,nan,nan,nan,nan,nan,709.2778717963956,1214.626694260398,nan,1214.9314527004026,nan,nan,nan,nan
1,389,1,1,1.0,1.0,0.31231122999452055,1,1,6,5,3,8,4,1.0,1.0,1.0,1.0,1.0,1.0,0.0,1.0,1.0,1.0,0.0,1.0,4.0,0.0,6.0,5.0,3.0,1.0,4.0,4.0,3.0,2.0,1.0,6.0,5.0,7.052369184559211,5.708321810467169,3.595533157000318,2.4835755610838532,8.827540542231873,8.011444934178144,709.2778717963956,1215.635127715068,1216.443573599914,1215.9474389450625,1226.319767372217,1227.3193785001058,1217.4519916593563,1226.3114265741315
1,390,1,1,nan,nan,nan,1,2,3,0,8,4,5,1.0,1.0,1.0,1.0,1.0,1.0,0.0,1.0,1.0,0.0,0.0,0.0,2.0,5.0,3.0,0.0,4.0,7.0,2.0,4.0,2.0,1.0,3.0,6.0,5.0,7.367290762951598,3.3980858016293496,2.5835208795033395,5.854413501219824,9.61440657894127,8.710918474243954,709.2778717963956,1227.5282585306559,1228.336698998697,nan,1238.9963607366662,1239.9957999510225,1229.3451655246317,1238.988031057408
