block,trial,freq_trials,correct_response,actual_response,acc,rts,probe_trials,fast_rt_trigger,slow_rt_trigger,rt_triggered,rts_runningavg,rts_runningstd,rts_runningfastthresh,rts_runningslowthresh,rts_runningstd,rts_trailingavg,trials_colorind0,trials_colorind1,trials_colorind2,trials_colorind3,trials_colorind4,trials_colorind5,wholereport_resp0,wholereport_resp1,wholereport_resp2,wholereport_resp3,wholereport_resp4,wholereport_resp5,wholereport_respacc0,wholereport_respacc1,wholereport_respacc2,wholereport_respacc3,wholereport_respacc4,wholereport_respacc5,wholereport_respacc_total,wholereport_respcolorind0,wholereport_respcolorind1,wholereport_respcolorind2,wholereport_respcolorind3,wholereport_respcolorind4,wholereport_respcolorind5,wholereport_resporder0,wholereport_resporder1,wholereport_resporder2,wholereport_resporder3,wholereport_resporder4,wholereport_resporder5,wholereport_rts0,wholereport_rts1,wholereport_rts2,wholereport_rts3,wholereport_rts4,wholereport_rts5,time_blockstart,time_encarray_offset,time_encarray_onset,time_response,time_iti_offset,time_iti_onset,time_memprobe_offset,time_memprobe_onset
1,1,1,1,1.0,1.0,0.31061664153821766,0,nan,nan,nan,nan,nan,nan,nan,nan,nan,2,0,4,8,1,6,nan,nan,nan,nan,nan,nan,nan,nan,nan,nan,nan,nan,0.0,nan,nan,nan,nan,nan,nan,nan,nan,nan,nan,nan,nan,nan,nan,nan,nan,nan,nan,5418.970691330847,5419.99602919037,nan,5420.306645831908,nan,nan,nan,nan
1,2,1,1,1.0,1.0,0.3814463291782886,0,nan,nan,nan,nan,nan,nan,nan,nan,nan,4,2,7,1,0,6,nan,nan,nan,nan,nan,nan,nan,nan,nan,nan,nan,nan,0.0,nan,nan,nan,nan,nan,nan,nan,nan,nan,nan,nan,nan,nan,nan,nan,nan,nan,nan,5418.970691330847,5421.0212148089195,nan,5421.402661138098,nan,nan,nan,nan
1,3,1,1,1.0,1.0,0.48464832187164575,0,nan,nan,nan,nan,nan,nan,nan,nan,nan,2,3,8,5,1,4,nan,nan,nan,nan,nan,nan,nan,nan,nan,nan,nan,nan,0.0,nan,nan,nan,nan,nan,nan,nan,nan,nan,nan,nan,nan,nan,nan,nan,nan,nan,nan,5418.970691330847,5422.037958180532,nan,5422.5226065024035,nan,nan,nan,nan
1,4,0,0,0.0,1.0,0.5478097968734801,0,nan,nan,nan,nan,nan,nan,nan,nan,nan,0,4,2,6,8,1,nan,nan,nan,nan,nan,nan,nan,nan,nan,nan,nan,nan,0.0,nan,nan,nan,nan,nan,nan,nan,nan,nan,nan,nan,nan,nan,nan,nan,nan,nan,nan,5418.970691330847,5423.0547580010025,nan,5423.602567797876,nan,nan,nan,nan
1,5,1,1,1.0,1.0,0.6830511030857451,0,nan,nan,nan,nan,nan,nan,nan,nan,nan,8,6,1,5,7,4,nan,nan,nan,nan,nan,nan,nan,nan,nan,nan,nan,nan,0.0,nan,nan,nan,nan,nan,nan,nan,nan,nan,nan,nan,nan,nan,nan,nan,nan,nan,nan,5418.970691330847,5424.071500802413,nan,5424.754551905498,nan,nan,nan,nan
1,6,1,1,nan,nan,nan,0,nan,nan,nan,nan,nan,nan,nan,nan,nan,6,7,3,4,5,0,nan,nan,nan,nan,nan,nan,nan,nan,nan,nan,nan,nan,0.0,nan,nan,nan,nan,nan,nan,nan,nan,nan,nan,nan,nan,nan,nan,nan,nan,nan,nan,5418.970691330847,5425.0966428013635,nan,nan,nan,nan,nan,nan
1,7,1,1,nan,nan,nan,0,nan,nan,nan,nan,nan,nan,nan,nan,nan,1,5,4,3,6,7,nan,nan,nan,nan,nan,nan,nan,nan,nan,nan,nan,nan,0.0,nan,nan,nan,nan,nan,nan,nan,nan,nan,nan,nan,nan,nan,nan,nan,nan,nan,nan,5418.970691330847,5426.121769690188,nan,nan,nan,nan,nan,nan
1,8,1,1,0.0,0.0,0.015579611936118454,0,0.0,0.0,0.0,nan,nan,nan,nan,nan,nan,2,4,8,0,3,5,nan,nan,nan,nan,nan,nan,nan,nan,nan,nan,nan,nan,0.0,nan,nan,nan,nan,nan,nan,nan,nan,nan,nan,nan,nan,nan,nan,nan,nan,nan,nan,5418.970691330847,5427.1469059872325,nan,5427.162485599169,nan,nan,nan,nan
1,9,1,1,1.0,1.0,0.4063844849006273,0,nan,nan,nan,nan,nan,nan,nan,nan,nan,7,2,1,5,4,6,nan,nan,nan,nan,nan,nan,nan,nan,nan,nan,nan,nan,0.0,nan,nan,nan,nan,nan,nan,nan,nan,nan,nan,nan,nan,nan,nan,nan,nan,nan,nan,5418.970691330847,5428.17205140728,nan,5428.578435892181,nan,nan,nan,nan
1,10,1,1,1.0,1.0,0.613591869303491,0,nan,nan,nan,nan,nan,nan,nan,nan,nan,4,5,3,2,8,0,nan,nan,nan,nan,nan,nan,nan,nan,nan,nan,nan,nan,0.0,nan,nan,nan,nan,nan,nan,nan,nan,nan,nan,nan,nan,nan,nan,nan,nan,nan,nan,5418.970691330847,5429.188834122091,nan,5429.802425991395,nan,nan,nan,nan
1,11,1,1,1.0,1.0,0.6207945211790502,0,nan,nan,nan,nan,nan,nan,nan,nan,nan,5,2,6,3,4,7,nan,nan,nan,nan,nan,nan,nan,nan,nan,nan,nan,nan,0.0,nan,nan,nan,nan,nan,nan,nan,nan,nan,nan,nan,nan,nan,nan,nan,nan,nan,nan,5418.970691330847,5430.205599446024,nan,5430.826393967203,nan,nan,nan,nan
1,12,1,1,nan,nan,nan,0,nan,nan,nan,nan,nan,nan,nan,nan,nan,3,0,5,7,1,4,nan,nan,nan,nan,nan,nan,nan,nan,nan,nan,nan,nan,0.0,nan,nan,nan,nan,nan,nan,nan,nan,nan,nan,nan,nan,nan,nan,nan,nan,nan,nan,5418.970691330847,5431.222412666015,nan,nan,nan,nan,nan,nan
1,13,1,1,nan,nan,nan,0,nan,nan,nan,nan,nan,nan,nan,nan,nan,6,4,8,0,5,7,nan,nan,nan,nan,nan,nan,nan,nan,nan,nan,nan,nan,0.0,nan,nan,nan,nan,nan,nan,nan,nan,nan,nan,nan,nan,nan,nan,nan,nan,nan,nan,5418.970691330847,5432.247547822655,nan,nan,nan,nan,nan,nan
1,14,1,1,nan,nan,nan,0,nan,nan,nan,nan,nan,nan,nan,nan,nan,1,3,6,2,7,8,nan,nan,nan,nan,nan,nan,nan,nan,nan,nan,nan,nan,0.0,nan,nan,nan,nan,nan,nan,nan,nan,nan,nan,nan,nan,nan,nan,nan,nan,nan,nan,5418.970691330847,5433.264303738426,nan,nan,nan,nan,nan,nan
1,15,1,1,nan,nan,nan,0,nan,nan,nan,nan,nan,nan,nan,nan,nan,0,6,1,3,2,5,nan,nan,nan,nan,nan,nan,nan,nan,nan,nan,nan,nan,0.0,nan,nan,nan,nan,nan,nan,nan,nan,nan,nan,nan,nan,nan,nan,nan,nan,nan,nan,5418.970691330847,5434.281105554604,nan,nan,nan,nan,nan,nan
1,16,1,1,nan,nan,nan,0,nan,nan,nan,nan,nan,nan,nan,nan,nan,6,5,7,0,1,3,nan,nan,nan,nan,nan,nan,nan,nan,nan,nan,nan,nan,0.0,nan,nan,nan,nan,nan,nan,nan,nan,nan,nan,nan,nan,nan,nan,nan,nan,nan,nan,5418.970691330847,5435.306244702602,nan,nan,nan,nan,nan,nan
1,17,1,1,nan,nan,nan,0,nan,nan,nan,nan,nan,nan,nan,nan,nan,7,0,1,4,5,2,nan,nan,nan,nan,nan,nan,nan,nan,nan,nan,nan,nan,0.0,nan,nan,nan,nan,nan,nan,nan,nan,nan,nan,nan,nan,nan,nan,nan,nan,nan,nan,5418.970691330847,5436.323007460684,nan,nan,nan,nan,nan,nan
1,18,1,1,1.0,1.0,0.7903852694435045,0,nan,nan,nan,nan,nan,nan,nan,nan,nan,3,8,0,6,4,7,nan,nan,nan,nan,nan,nan,nan,nan,nan,nan,nan,nan,0.0,nan,nan,nan,nan,nan,nan,nan,nan,nan,nan,nan,nan,nan,nan,nan,nan,nan,nan,5418.970691330847,5437.339795022097,nan,5438.1301802915405,nan,nan,nan,nan
1,19,1,1,1.0,1.0,0.749234304879792,0,nan,nan,nan,nan,nan,nan,nan,nan,nan,4,1,7,3,5,2,nan,nan,nan,nan,nan,nan,nan,nan,nan,nan,nan,nan,0.0,nan,nan,nan,nan,nan,nan,nan,nan,nan,nan,nan,nan,nan,nan,nan,nan,nan,nan,5418.970691330847,5438.364910507109,nan,5439.114144811989,nan,nan,nan,nan
1,20,1,1,nan,nan,nan,0,nan,nan,nan,nan,nan,nan,nan,nan,nan,3,2,5,8,0,6,nan,nan,nan,nan,nan,nan,nan,nan,nan,nan,nan,nan,0.0,nan,nan,nan,nan,nan,nan,nan,nan,nan,nan,nan,nan,nan,nan,nan,nan,nan,nan,5418.970691330847,5439.381675260898,nan,nan,nan,nan,nan,nan
1,21,1,1,1.0,1.0,0.5795671509695239,0,nan,nan,nan,nan,nan,nan,nan,nan,nan,0,4,6,2,3,1,nan,nan,nan,nan,nan,nan,nan,nan,nan,nan,nan,nan,0.0,nan,nan,nan,nan,nan,nan,nan,nan,nan,nan,nan,nan,nan,nan,nan,nan,nan,nan,5418.970691330847,5440.3985018803505,nan,5440.97806903132,nan,nan,nan,nan
1,22,1,1,1.0,1.0,0.7308496386394836,0,nan,nan,nan,nan,nan,nan,nan,nan,nan,4,2,3,7,5,8,nan,nan,nan,nan,nan,nan,nan,nan,nan,nan,nan,nan,0.0,nan,nan,nan,nan,nan,nan,nan,nan,nan,nan,nan,nan,nan,nan,nan,nan,nan,nan,5418.970691330847,5441.4152520942735,nan,5442.146101732913,nan,nan,nan,nan
1,23,0,0,0.0,1.0,0.5936357569298707,0,nan,nan,nan,nan,nan,nan,nan,nan,nan,6,7,8,0,1,4,nan,nan,nan,nan,nan,nan,nan,nan,nan,nan,nan,nan,0.0,nan,nan,nan,nan,nan,nan,nan,nan,nan,nan,nan,nan,nan,nan,nan,nan,nan,nan,5418.970691330847,5442.440441704122,nan,5443.034077461052,nan,nan,nan,nan
1,24,1,1,1.0,1.0,0.6008489572559483,1,nan,nan,nan,nan,nan,nan,nan,nan,nan,0,2,6,8,5,3,1.0,1.0,1.0,1.0,1.0,1.0,0.0,0.0,0.0,1.0,0.0,0.0,1.0,4.0,0.0,5.0,8.0,2.0,6.0,1.0,2.0,3.0,4.0,5.0,6.0,2.6679188059060834,3.986216204415541,5.170937254151795,6.585541326436214,8.857416915299837,9.961362151894718,5418.970691330847,5443.457195054099,5444.265628862195,5444.058044011355,5455.2835776174325,5456.282897094556,5445.282404449594,5455.275247983169
1,25,0,0,0.0,1.0,0.7569455670309253,0,nan,nan,nan,nan,nan,nan,nan,nan,nan,4,0,1,7,8,5,nan,nan,nan,nan,nan,nan,nan,nan,nan,nan,nan,nan,0.0,nan,nan,nan,nan,nan,nan,nan,nan,nan,nan,nan,nan,nan,nan,nan,nan,nan,nan,5418.970691330847,5456.508758560347,nan,5457.265704127378,nan,nan,nan,nan
1,26,1,1,1.0,1.0,0.6281126366811804,0,nan,nan,nan,nan,nan,nan,nan,nan,nan,6,3,8,4,5,7,nan,nan,nan,nan,nan,nan,nan,nan,nan,nan,nan,nan,0.0,nan,nan,nan,nan,nan,nan,nan,nan,nan,nan,nan,nan,nan,nan,nan,nan,nan,nan,5418.970691330847,5457.5255689293845,nan,5458.153681566066,nan,nan,nan,nan
1,27,1,1,1.0,1.0,0.5473114499473013,0,nan,nan,nan,nan,nan,nan,nan,nan,nan,2,4,6,8,1,3,nan,nan,nan,nan,nan,nan,nan,nan,nan,nan,nan,nan,0.0,nan,nan,nan,nan,nan,nan,nan,nan,nan,nan,nan,nan,nan,nan,nan,nan,nan,nan,5418.970691330847,5458.542349363444,nan,5459.089660813392,nan,nan,nan,nan
1,28,1,1,1.0,1.0,0.5541240912280045,0,nan,nan,nan,nan,nan,nan,nan,nan,nan,0,2,8,7,4,1,nan,nan,nan,nan,nan,nan,nan,nan,nan,nan,nan,nan,0.0,nan,nan,nan,nan,nan,nan,nan,nan,nan,nan,nan,nan,nan,nan,nan,nan,nan,nan,5418.970691330847,5459.56748337968,nan,5460.121607470908,nan,nan,nan,nan
1,29,1,1,1.0,1.0,0.6013162287417799,0,nan,nan,nan,nan,nan,nan,nan,nan,nan,3,8,6,1,2,5,nan,nan,nan,nan,nan,nan,nan,nan,nan,nan,nan,nan,0.0,nan,nan,nan,nan,nan,nan,nan,nan,nan,nan,nan,nan,nan,nan,nan,nan,nan,nan,5418.970691330847,5460.5842792088515,nan,5461.185595437593,nan,nan,nan,nan
1,30,0,0,0.0,1.0,0.6321832297253422,0,nan,nan,nan,nan,nan,nan,nan,nan,nan,7,6,1,4,8,2,nan,nan,nan,nan,nan,nan,nan,nan,nan,nan,nan,nan,0.0,nan,nan,nan,nan,nan,nan,nan,nan,nan,nan,nan,nan,nan,nan,nan,nan,nan,nan,5418.970691330847,5461.609392983315,nan,5462.24157621304,nan,nan,nan,nan
1,31,1,1,1.0,1.0,0.5833688990096562,1,nan,nan,nan,nan,nan,nan,nan,nan,nan,2,4,5,8,3,0,1.0,1.0,1.0,1.0,1.0,1.0,1.0,1.0,0.0,0.0,0.0,0.0,2.0,2.0,4.0,6.0,4.0,0.0,5.0,1.0,4.0,3.0,2.0,6.0,5.0,1.721881105506327,5.313648631796241,4.2801202646805905,2.9781080893590115,7.6962031270959415,6.336966019764077,5418.970691330847,5462.6261890975875,5463.434548210644,5463.209557996597,5472.185629078827,5473.192884188262,5464.451351737429,5472.177283194207
1,32,1,1,1.0,1.0,0.5581604728358798,0,nan,nan,nan,nan,nan,nan,nan,nan,nan,3,0,2,1,8,7,nan,nan,nan,nan,nan,nan,nan,nan,nan,nan,nan,nan,0.0,nan,nan,nan,nan,nan,nan,nan,nan,nan,nan,nan,nan,nan,nan,nan,nan,nan,nan,5418.970691330847,5473.419149349269,nan,5473.977309822105,nan,nan,nan,nan
1,33,1,1,1.0,1.0,0.4373201938578859,0,nan,nan,nan,nan,nan,nan,nan,nan,nan,4,7,1,3,2,0,nan,nan,nan,nan,nan,nan,nan,nan,nan,nan,nan,nan,0.0,nan,nan,nan,nan,nan,nan,nan,nan,nan,nan,nan,nan,nan,nan,nan,nan,nan,nan,5418.970691330847,5474.435910681903,nan,5474.873230875761,nan,nan,nan,nan
1,34,0,0,0.0,1.0,0.7084975839825347,0,nan,nan,nan,nan,nan,nan,nan,nan,nan,7,5,0,6,8,2,nan,nan,nan,nan,nan,nan,nan,nan,nan,nan,nan,nan,0.0,nan,nan,nan,nan,nan,nan,nan,nan,nan,nan,nan,nan,nan,nan,nan,nan,nan,nan,5418.970691330847,5475.452702519717,nan,5476.161200103699,nan,nan,nan,nan
1,35,1,1,1.0,1.0,0.5633483550045639,0,nan,nan,nan,nan,nan,nan,nan,nan,nan,5,3,7,8,6,1,nan,nan,nan,nan,nan,nan,nan,nan,nan,nan,nan,nan,0.0,nan,nan,nan,nan,nan,nan,nan,nan,nan,nan,nan,nan,nan,nan,nan,nan,nan,nan,5418.970691330847,5476.477829408599,nan,5477.041177763604,nan,nan,nan,nan
1,36,1,1,1.0,1.0,0.3941761268652044,0,nan,nan,nan,nan,nan,nan,nan,nan,nan,1,4,3,2,0,6,nan,nan,nan,nan,nan,nan,nan,nan,nan,nan,nan,nan,0.0,nan,nan,nan,nan,nan,nan,nan,nan,nan,nan,nan,nan,nan,nan,nan,nan,nan,nan,5418.970691330847,5477.502960858983,nan,5477.897136985848,nan,nan,nan,nan
1,37,1,1,1.0,1.0,0.49706850590882823,0,nan,nan,nan,nan,nan,nan,nan,nan,nan,0,8,1,3,7,4,nan,nan,nan,nan,nan,nan,nan,nan,nan,nan,nan,nan,0.0,nan,nan,nan,nan,nan,nan,nan,nan,nan,nan,nan,nan,nan,nan,nan,nan,nan,nan,5418.970691330847,5478.52805125562,nan,5479.025119761529,nan,nan,nan,nan
1,38,1,1,1.0,1.0,0.39990882645361125,0,nan,nan,nan,nan,nan,nan,nan,nan,nan,1,2,5,6,8,7,nan,nan,nan,nan,nan,nan,nan,nan,nan,nan,nan,nan,0.0,nan,nan,nan,nan,nan,nan,nan,nan,nan,nan,nan,nan,nan,nan,nan,nan,nan,nan,5418.970691330847,5479.553175863752,nan,5479.953084690205,nan,nan,nan,nan
1,39,1,1,1.0,1.0,0.4627746574115008,0,nan,nan,nan,nan,nan,nan,nan,nan,nan,5,7,4,8,2,3,nan,nan,nan,nan,nan,nan,nan,nan,nan,nan,nan,nan,0.0,nan,nan,nan,nan,nan,nan,nan,nan,nan,nan,nan,nan,nan,nan,nan,nan,nan,nan,5418.970691330847,5480.57830588863,nan,5481.0410805460415,nan,nan,nan,nan
1,40,1,1,1.0,1.0,0.7896063886582851,0,nan,nan,nan,nan,nan,nan,nan,nan,nan,7,3,0,6,8,1,nan,nan,nan,nan,nan,nan,nan,nan,nan,nan,nan,nan,0.0,nan,nan,nan,nan,nan,nan,nan,nan,nan,nan,nan,nan,nan,nan,nan,nan,nan,nan,5418.970691330847,5481.603430496762,nan,5482.39303688542,nan,nan,nan,nan
1,41,1,1,nan,nan,nan,0,nan,nan,nan,nan,nan,nan,nan,nan,nan,2,6,5,8,3,4,nan,nan,nan,nan,nan,nan,nan,nan,nan,nan,nan,nan,0.0,nan,nan,nan,nan,nan,nan,nan,nan,nan,nan,nan,nan,nan,nan,nan,nan,nan,nan,5418.970691330847,5482.628554534633,nan,nan,nan,nan,nan,nan
1,42,1,1,nan,nan,nan,0,nan,nan,nan,nan,nan,nan,nan,nan,nan,5,3,0,2,8,7,nan,nan,nan,nan,nan,nan,nan,nan,nan,nan,nan,nan,0.0,nan,nan,nan,nan,nan,nan,nan,nan,nan,nan,nan,nan,nan,nan,nan,nan,nan,nan,5418.970691330847,5483.653670875006,nan,nan,nan,nan,nan,nan
1,43,0,0,0.0,1.0,0.6021093643503264,0,nan,nan,nan,nan,nan,nan,nan,nan,nan,0,7,3,1,6,5,nan,nan,nan,nan,nan,nan,nan,nan,nan,nan,nan,nan,0.0,nan,nan,nan,nan,nan,nan,nan,nan,nan,nan,nan,nan,nan,nan,nan,nan,nan,nan,5418.970691330847,5484.678799189336,nan,5485.2809085536865,nan,nan,nan,nan
1,44,1,1,1.0,1.0,0.5769893177202903,0,nan,nan,nan,nan,nan,nan,nan,nan,nan,7,4,1,2,3,0,nan,nan,nan,nan,nan,nan,nan,nan,nan,nan,nan,nan,0.0,nan,nan,nan,nan,nan,nan,nan,nan,nan,nan,nan,nan,nan,nan,nan,nan,nan,nan,5418.970691330847,5485.7039371969295,nan,5486.28092651465,nan,nan,nan,nan
1,45,1,1,1.0,1.0,0.5438461145968176,0,nan,nan,nan,nan,nan,nan,nan,nan,nan,4,8,0,5,2,1,nan,nan,nan,nan,nan,nan,nan,nan,nan,nan,nan,nan,0.0,nan,nan,nan,nan,nan,nan,nan,nan,nan,nan,nan,nan,nan,nan,nan,nan,nan,nan,5418.970691330847,5486.7290569584,nan,5487.272903072997,nan,nan,nan,nan
1,46,1,1,nan,nan,nan,0,nan,nan,nan,nan,nan,nan,nan,nan,nan,7,5,3,1,6,2,nan,nan,nan,nan,nan,nan,nan,nan,nan,nan,nan,nan,0.0,nan,nan,nan,nan,nan,nan,nan,nan,nan,nan,nan,nan,nan,nan,nan,nan,nan,nan,5418.970691330847,5487.754172158369,nan,nan,nan,nan,nan,nan
1,47,1,1,nan,nan,nan,0,nan,nan,nan,nan,nan,nan,nan,nan,nan,6,8,2,5,0,7,nan,nan,nan,nan,nan,nan,nan,nan,nan,nan,nan,nan,0.0,nan,nan,nan,nan,nan,nan,nan,nan,nan,nan,nan,nan,nan,nan,nan,nan,nan,nan,5418.970691330847,5488.779295340995,nan,nan,nan,nan,nan,nan
1,48,1,1,nan,nan,nan,1,nan,nan,nan,nan,nan,nan,nan,nan,nan,8,6,7,3,1,2,1.0,1.0,1.0,1.0,1.0,1.0,1.0,0.0,0.0,1.0,0.0,0.0,2.0,8.0,2.0,3.0,3.0,5.0,7.0,2.0,6.0,5.0,1.0,4.0,3.0,2.6547234474564902,7.4213206363492645,6.213380841654725,1.4307758274371736,5.0861110897385515,3.846234900993295,5418.970691330847,5489.804390014033,5490.612832945189,nan,5499.088833466347,5500.086591190542,5491.629631340213,5499.08050554269
1,49,1,1,1.0,1.0,0.35854118928546086,0,nan,nan,nan,nan,nan,nan,nan,nan,nan,0,2,5,8,4,1,nan,nan,nan,nan,nan,nan,nan,nan,nan,nan,nan,nan,0.0,nan,nan,nan,nan,nan,nan,nan,nan,nan,nan,nan,nan,nan,nan,nan,nan,nan,nan,5418.970691330847,5500.314023532381,nan,5500.672564721666,nan,nan,nan,nan
1,50,1,1,1.0,1.0,0.5334158969344571,0,nan,nan,nan,nan,nan,nan,nan,nan,nan,1,8,0,5,6,4,nan,nan,nan,nan,nan,nan,nan,nan,nan,nan,nan,nan,0.0,nan,nan,nan,nan,nan,nan,nan,nan,nan,nan,nan,nan,nan,nan,nan,nan,nan,nan,5418.970691330847,5501.339135881397,nan,5501.872551778331,nan,nan,nan,nan
1,51,1,1,1.0,1.0,0.5882294915500097,0,nan,nan,nan,nan,nan,nan,nan,nan,nan,3,6,5,7,8,2,nan,nan,nan,nan,nan,nan,nan,nan,nan,nan,nan,nan,0.0,nan,nan,nan,nan,nan,nan,nan,nan,nan,nan,nan,nan,nan,nan,nan,nan,nan,nan,5418.970691330847,5502.364285007701,nan,5502.952514499251,nan,nan,nan,nan
1,52,1,1,1.0,1.0,0.6350826505804434,0,nan,nan,nan,nan,nan,nan,nan,nan,nan,8,5,4,1,6,0,nan,nan,nan,nan,nan,nan,nan,nan,nan,nan,nan,nan,0.0,nan,nan,nan,nan,nan,nan,nan,nan,nan,nan,nan,nan,nan,nan,nan,nan,nan,nan,5418.970691330847,5503.389410756179,nan,5504.02449340676,nan,nan,nan,nan
1,53,0,0,0.0,1.0,0.7299162361305207,0,nan,nan,nan,nan,nan,nan,nan,nan,nan,0,1,8,2,3,6,nan,nan,nan,nan,nan,nan,nan,nan,nan,nan,nan,nan,0.0,nan,nan,nan,nan,nan,nan,nan,nan,nan,nan,nan,nan,nan,nan,nan,nan,nan,nan,5418.970691330847,5504.414537930104,nan,5505.144454166235,nan,nan,nan,nan
1,54,1,1,1.0,1.0,0.6088008399819955,0,nan,nan,nan,nan,nan,nan,nan,nan,nan,1,7,0,6,2,8,nan,nan,nan,nan,nan,nan,nan,nan,nan,nan,nan,nan,0.0,nan,nan,nan,nan,nan,nan,nan,nan,nan,nan,nan,nan,nan,nan,nan,nan,nan,nan,5418.970691330847,5505.439654555579,nan,5506.048455395561,nan,nan,nan,nan
1,55,1,1,nan,nan,nan,0,nan,nan,nan,nan,nan,nan,nan,nan,nan,6,3,1,0,4,7,nan,nan,nan,nan,nan,nan,nan,nan,nan,nan,nan,nan,0.0,nan,nan,nan,nan,nan,nan,nan,nan,nan,nan,nan,nan,nan,nan,nan,nan,nan,nan,5418.970691330847,5506.464778878551,nan,nan,nan,nan,nan,nan
1,56,1,1,nan,nan,nan,0,nan,nan,nan,nan,nan,nan,nan,nan,nan,4,0,8,3,5,1,nan,nan,nan,nan,nan,nan,nan,nan,nan,nan,nan,nan,0.0,nan,nan,nan,nan,nan,nan,nan,nan,nan,nan,nan,nan,nan,nan,nan,nan,nan,nan,5418.970691330847,5507.489899210224,nan,nan,nan,nan,nan,nan
1,57,1,1,nan,nan,nan,0,nan,nan,nan,nan,nan,nan,nan,nan,nan,1,3,7,5,0,2,nan,nan,nan,nan,nan,nan,nan,nan,nan,nan,nan,nan,0.0,nan,nan,nan,nan,nan,nan,nan,nan,nan,nan,nan,nan,nan,nan,nan,nan,nan,nan,5418.970691330847,5508.515025243803,nan,nan,nan,nan,nan,nan
1,58,1,1,1.0,1.0,0.7802005190169439,0,nan,nan,nan,nan,nan,nan,nan,nan,nan,5,8,0,2,3,6,nan,nan,nan,nan,nan,nan,nan,nan,nan,nan,nan,nan,0.0,nan,nan,nan,nan,nan,nan,nan,nan,nan,nan,nan,nan,nan,nan,nan,nan,nan,nan,5418.970691330847,5509.540119916899,nan,5510.320320435916,nan,nan,nan,nan
1,59,1,1,1.0,1.0,0.7470718557597138,0,nan,nan,nan,nan,nan,nan,nan,nan,nan,7,5,6,1,0,2,nan,nan,nan,nan,nan,nan,nan,nan,nan,nan,nan,nan,0.0,nan,nan,nan,nan,nan,nan,nan,nan,nan,nan,nan,nan,nan,nan,nan,nan,nan,nan,5418.970691330847,5510.565235401911,nan,5511.312307257671,nan,nan,nan,nan
1,60,1,1,1.0,1.0,0.7058767013950273,0,nan,nan,nan,nan,nan,nan,nan,nan,nan,3,0,5,6,7,1,nan,nan,nan,nan,nan,nan,nan,nan,nan,nan,nan,nan,0.0,nan,nan,nan,nan,nan,nan,nan,nan,nan,nan,nan,nan,nan,nan,nan,nan,nan,nan,5418.970691330847,5511.590393081075,nan,5512.29626978247,nan,nan,nan,nan
1,61,1,1,nan,nan,nan,0,nan,nan,nan,nan,nan,nan,nan,nan,nan,1,7,2,5,0,4,nan,nan,nan,nan,nan,nan,nan,nan,nan,nan,nan,nan,0.0,nan,nan,nan,nan,nan,nan,nan,nan,nan,nan,nan,nan,nan,nan,nan,nan,nan,nan,5418.970691330847,5512.607157834864,nan,nan,nan,nan,nan,nan
1,62,1,1,1.0,1.0,0.6158549571409822,0,nan,nan,nan,nan,nan,nan,nan,nan,nan,2,3,4,6,8,7,nan,nan,nan,nan,nan,nan,nan,nan,nan,nan,nan,nan,0.0,nan,nan,nan,nan,nan,nan,nan,nan,nan,nan,nan,nan,nan,nan,nan,nan,nan,nan,5418.970691330847,5513.632326917839,nan,5514.24818187498,nan,nan,nan,nan
1,63,0,0,nan,nan,nan,0,nan,nan,nan,nan,nan,nan,nan,nan,nan,8,6,2,7,5,1,nan,nan,nan,nan,nan,nan,nan,nan,nan,nan,nan,nan,0.0,nan,nan,nan,nan,nan,nan,nan,nan,nan,nan,nan,nan,nan,nan,nan,nan,nan,nan,5418.970691330847,5514.657379681885,nan,nan,nan,nan,nan,nan
1,64,1,1,1.0,1.0,0.5979355666786432,0,nan,nan,nan,nan,nan,nan,nan,nan,nan,1,4,5,3,2,6,nan,nan,nan,nan,nan,nan,nan,nan,nan,nan,nan,nan,0.0,nan,nan,nan,nan,nan,nan,nan,nan,nan,nan,nan,nan,nan,nan,nan,nan,nan,nan,5418.970691330847,5515.674191191327,nan,5516.2721267580055,nan,nan,nan,nan
1,65,1,1,1.0,1.0,0.677195527299773,0,nan,nan,nan,nan,nan,nan,nan,nan,nan,7,3,6,0,8,4,nan,nan,nan,nan,nan,nan,nan,nan,nan,nan,nan,nan,0.0,nan,nan,nan,nan,nan,nan,nan,nan,nan,nan,nan,nan,nan,nan,nan,nan,nan,nan,5418.970691330847,5516.690940264845,nan,5517.368135792145,nan,nan,nan,nan
1,66,1,1,1.0,1.0,0.651997079490684,0,nan,nan,nan,nan,nan,nan,nan,nan,nan,0,1,4,8,5,6,nan,nan,nan,nan,nan,nan,nan,nan,nan,nan,nan,nan,0.0,nan,nan,nan,nan,nan,nan,nan,nan,nan,nan,nan,nan,nan,nan,nan,nan,nan,nan,5418.970691330847,5517.716086255095,nan,5518.368083334586,nan,nan,nan,nan
1,67,1,1,1.0,1.0,0.5231721317977645,0,nan,nan,nan,nan,nan,nan,nan,nan,nan,5,3,8,0,4,1,nan,nan,nan,nan,nan,nan,nan,nan,nan,nan,nan,nan,0.0,nan,nan,nan,nan,nan,nan,nan,nan,nan,nan,nan,nan,nan,nan,nan,nan,nan,nan,5418.970691330847,5518.732897194335,nan,5519.256069326133,nan,nan,nan,nan
1,68,1,1,1.0,1.0,0.49001666955882683,0,nan,nan,nan,nan,nan,nan,nan,nan,nan,8,5,6,4,0,2,nan,nan,nan,nan,nan,nan,nan,nan,nan,nan,nan,nan,0.0,nan,nan,nan,nan,nan,nan,nan,nan,nan,nan,nan,nan,nan,nan,nan,nan,nan,nan,5418.970691330847,5519.758006122138,nan,5520.248022791697,nan,nan,nan,nan
1,69,1,1,1.0,1.0,0.5451780806179158,0,nan,nan,nan,nan,nan,nan,nan,nan,nan,6,1,7,2,5,0,nan,nan,nan,nan,nan,nan,nan,nan,nan,nan,nan,nan,0.0,nan,nan,nan,nan,nan,nan,nan,nan,nan,nan,nan,nan,nan,nan,nan,nan,nan,nan,5418.970691330847,5520.774821337836,nan,5521.319999418454,nan,nan,nan,nan
1,70,1,1,1.0,1.0,0.5364113950636238,0,nan,nan,nan,nan,nan,nan,nan,nan,nan,1,4,2,5,8,3,nan,nan,nan,nan,nan,nan,nan,nan,nan,nan,nan,nan,0.0,nan,nan,nan,nan,nan,nan,nan,nan,nan,nan,nan,nan,nan,nan,nan,nan,nan,nan,5418.970691330847,5521.791591508372,nan,5522.328002903436,nan,nan,nan,nan
1,71,1,1,1.0,1.0,0.5195930433110334,0,nan,nan,nan,nan,nan,nan,nan,nan,nan,4,7,3,1,0,2,nan,nan,nan,nan,nan,nan,nan,nan,nan,nan,nan,nan,0.0,nan,nan,nan,nan,nan,nan,nan,nan,nan,nan,nan,nan,nan,nan,nan,nan,nan,nan,5418.970691330847,5522.80840444332,nan,5523.327997486631,nan,nan,nan,nan
1,72,1,1,1.0,1.0,0.5107841636636294,1,nan,nan,nan,nan,nan,nan,nan,nan,nan,3,4,0,8,7,5,1.0,1.0,1.0,1.0,1.0,1.0,0.0,1.0,0.0,1.0,0.0,0.0,2.0,2.0,4.0,3.0,8.0,8.0,8.0,4.0,3.0,2.0,1.0,6.0,5.0,8.135777570772916,7.031668689392973,5.930064371728804,4.95232006412698,9.927588317601476,9.336597961490043,5418.970691330847,5523.825186017668,5524.633591601334,5524.3359701813315,5535.618208990374,5536.620886036835,5525.6503877156065,5535.609877075418
1,73,1,1,1.0,1.0,0.5402122878003865,0,nan,nan,nan,nan,nan,nan,nan,nan,nan,5,6,3,1,8,7,nan,nan,nan,nan,nan,nan,nan,nan,nan,nan,nan,nan,0.0,nan,nan,nan,nan,nan,nan,nan,nan,nan,nan,nan,nan,nan,nan,nan,nan,nan,nan,5418.970691330847,5536.843395920354,nan,5537.383608208154,nan,nan,nan,nan
1,74,1,1,1.0,1.0,0.47504146001301706,0,nan,nan,nan,nan,nan,nan,nan,nan,nan,8,7,4,2,3,0,nan,nan,nan,nan,nan,nan,nan,nan,nan,nan,nan,nan,0.0,nan,nan,nan,nan,nan,nan,nan,nan,nan,nan,nan,nan,nan,nan,nan,nan,nan,nan,5418.970691330847,5537.868545046658,nan,5538.343586506671,nan,nan,nan,nan
1,75,0,0,0.0,1.0,0.6578954195720144,0,nan,nan,nan,nan,nan,nan,nan,nan,nan,6,1,8,3,2,4,nan,nan,nan,nan,nan,nan,nan,nan,nan,nan,nan,nan,0.0,nan,nan,nan,nan,nan,nan,nan,nan,nan,nan,nan,nan,nan,nan,nan,nan,nan,nan,5418.970691330847,5538.893670224992,nan,5539.551565644564,nan,nan,nan,nan
1,76,1,1,1.0,1.0,0.5931131769320928,0,nan,nan,nan,nan,nan,nan,nan,nan,nan,4,8,0,1,7,3,nan,nan,nan,nan,nan,nan,nan,nan,nan,nan,nan,nan,0.0,nan,nan,nan,nan,nan,nan,nan,nan,nan,nan,nan,nan,nan,nan,nan,nan,nan,nan,5418.970691330847,5539.9104281364125,nan,5540.503541313345,nan,nan,nan,nan
1,77,1,1,1.0,1.0,0.44831062405137345,0,nan,nan,nan,nan,nan,nan,nan,nan,nan,1,2,8,6,0,4,nan,nan,nan,nan,nan,nan,nan,nan,nan,nan,nan,nan,0.0,nan,nan,nan,nan,nan,nan,nan,nan,nan,nan,nan,nan,nan,nan,nan,nan,nan,nan,5418.970691330847,5540.9272060046205,nan,5541.375516628672,nan,nan,nan,nan
1,78,1,1,1.0,1.0,0.37552061991300434,0,nan,nan,nan,nan,nan,nan,nan,nan,nan,2,8,7,1,3,5,nan,nan,nan,nan,nan,nan,nan,nan,nan,nan,nan,nan,0.0,nan,nan,nan,nan,nan,nan,nan,nan,nan,nan,nan,nan,nan,nan,nan,nan,nan,nan,5418.970691330847,5541.943986723723,nan,5542.319507343636,nan,nan,nan,nan
1,79,0,0,0.0,1.0,0.49472445098217577,0,nan,nan,nan,nan,nan,nan,nan,nan,nan,6,5,4,2,0,8,nan,nan,nan,nan,nan,nan,nan,nan,nan,nan,nan,nan,0.0,nan,nan,nan,nan,nan,nan,nan,nan,nan,nan,nan,nan,nan,nan,nan,nan,nan,nan,5418.970691330847,5542.9607603154145,nan,5543.455484766397,nan,nan,nan,nan
1,80,1,1,1.0,1.0,0.36582566355355084,0,nan,nan,nan,nan,nan,nan,nan,nan,nan,7,6,2,0,1,4,nan,nan,nan,nan,nan,nan,nan,nan,nan,nan,nan,nan,0.0,nan,nan,nan,nan,nan,nan,nan,nan,nan,nan,nan,nan,nan,nan,nan,nan,nan,nan,5418.970691330847,5543.977608317044,nan,5544.343433980597,nan,nan,nan,nan
1,81,1,1,1.0,1.0,0.4200134736020118,0,0.0,0.0,0.0,0.5615004830503241,0.13433835641064415,0.4271621266396799,0.6958388394609683,0.13433835641064415,0.4268545293792461,1,3,8,2,0,6,nan,nan,nan,nan,nan,nan,nan,nan,nan,nan,nan,nan,0.0,nan,nan,nan,nan,nan,nan,nan,nan,nan,nan,nan,nan,nan,nan,nan,nan,nan,nan,5418.970691330847,5545.019398465694,nan,5545.439411939296,nan,nan,nan,nan
1,82,1,1,1.0,1.0,0.4191681655938737,0,1.0,0.0,0.0,0.5592184345108352,0.13443730567894457,0.4247811288318906,0.6936557401897798,0.13443730567894457,0.4016691009164788,6,5,2,7,8,1,nan,nan,nan,nan,nan,nan,nan,nan,nan,nan,nan,nan,0.0,nan,nan,nan,nan,nan,nan,nan,nan,nan,nan,nan,nan,nan,nan,nan,nan,nan,nan,5418.970691330847,5546.036193154461,nan,5546.455361320055,nan,nan,nan,nan
1,83,1,1,1.0,1.0,0.4420513531076722,1,0.0,0.0,1.0,0.5569954143692961,0.1345098610337069,0.42248555333558924,0.691505275403003,0.1345098610337069,0.4270776641011859,2,4,6,5,7,3,1.0,1.0,1.0,1.0,1.0,1.0,1.0,0.0,1.0,0.0,0.0,0.0,2.0,2.0,5.0,6.0,3.0,5.0,4.0,2.0,1.0,6.0,5.0,4.0,3.0,3.6523443257901818,2.083836027944926,9.651073370187078,8.619712298794184,5.795539225277025,4.732227790169418,5418.970691330847,5547.061282695853,5547.869687424216,5547.503334048961,5558.570947289583,5559.567909027217,5548.87814848742,5558.562608817418
1,84,1,1,1.0,1.0,0.5391959224361926,0,0.0,0.0,0.0,0.5551994134120832,0.13421406459456464,0.4209853488175186,0.6894134780066479,0.13421406459456464,0.46680514704591286,3,1,2,4,6,0,nan,nan,nan,nan,nan,nan,nan,nan,nan,nan,nan,nan,0.0,nan,nan,nan,nan,nan,nan,nan,nan,nan,nan,nan,nan,nan,nan,nan,nan,nan,nan,5418.970691330847,5559.787815133866,nan,5560.327011056303,nan,nan,nan,nan
1,85,1,1,1.0,1.0,0.7224073917604983,0,0.0,0.0,0.0,0.554953205858608,0.13319221161006198,0.42176099424854596,0.68814541746867,0.13319221161006198,0.5678848891014544,6,3,8,0,5,7,nan,nan,nan,nan,nan,nan,nan,nan,nan,nan,nan,nan,0.0,nan,nan,nan,nan,nan,nan,nan,nan,nan,nan,nan,nan,nan,nan,nan,nan,nan,nan,5418.970691330847,5560.804591576511,nan,5561.526998968271,nan,nan,nan,nan
1,86,1,1,1.0,1.0,0.6972257645102218,0,0.0,0.0,0.0,0.5574903904934851,0.13375275598243666,0.4237376345110485,0.6912431464759218,0.13375275598243666,0.6529430262356376,5,6,3,4,8,1,nan,nan,nan,nan,nan,nan,nan,nan,nan,nan,nan,nan,0.0,nan,nan,nan,nan,nan,nan,nan,nan,nan,nan,nan,nan,nan,nan,nan,nan,nan,nan,5418.970691330847,5561.829743553826,nan,5562.526969318336,nan,nan,nan,nan
1,87,1,1,1.0,1.0,0.5124405683018267,0,0.0,0.0,0.0,0.5595759930907498,0.13382776437410396,0.42574822871664586,0.6934037574648537,0.13382776437410396,0.6440245748575156,0,3,6,2,4,8,nan,nan,nan,nan,nan,nan,nan,nan,nan,nan,nan,nan,0.0,nan,nan,nan,nan,nan,nan,nan,nan,nan,nan,nan,nan,nan,nan,nan,nan,nan,nan,5418.970691330847,5562.8465148647665,nan,5563.358955433068,nan,nan,nan,nan
1,88,1,1,1.0,1.0,0.3756263903924264,0,0.0,0.0,0.0,0.558882825079148,0.132961206204556,0.425921618874592,0.691844031283704,0.132961206204556,0.5284309077348249,8,5,1,7,2,3,nan,nan,nan,nan,nan,nan,nan,nan,nan,nan,nan,nan,0.0,nan,nan,nan,nan,nan,nan,nan,nan,nan,nan,nan,nan,nan,nan,nan,nan,nan,nan,5418.970691330847,5563.863292162714,nan,5564.2389185531065,nan,nan,nan,nan
1,89,1,1,1.0,1.0,0.37480816640891135,0,1.0,0.0,0.0,0.5562269347213694,0.13379882216187208,0.4224281125594973,0.6900257568832415,0.13379882216187208,0.42095837503438815,1,6,0,4,5,2,nan,nan,nan,nan,nan,nan,nan,nan,nan,nan,nan,nan,0.0,nan,nan,nan,nan,nan,nan,nan,nan,nan,nan,nan,nan,nan,nan,nan,nan,nan,nan,5418.970691330847,5564.880090842838,nan,5565.254899009247,nan,nan,nan,nan
1,90,1,1,1.0,1.0,0.3899917807430029,1,0.0,0.0,1.0,0.5536352380311915,0.13457282675700874,0.41906241127418276,0.6882080647882003,0.13457282675700874,0.3801421125147802,6,5,2,1,3,8,1.0,1.0,1.0,1.0,1.0,1.0,1.0,0.0,0.0,0.0,0.0,1.0,2.0,6.0,6.0,3.0,0.0,5.0,8.0,1.0,6.0,5.0,4.0,3.0,2.0,1.8640861535677686,9.430515535292216,8.207073674653657,6.646948894078378,4.23129709600471,3.2471418466884643,5418.970691330847,5565.896879544598,5566.705285983568,5566.286871325341,5577.189889830595,5578.193840683554,5567.722113458323,5577.18155763048
1,91,1,1,1.0,1.0,0.5434504020959139,0,0.0,0.0,0.0,0.5513304006045973,0.13500606186934294,0.4163243387352543,0.6863364624739402,0.13500606186934294,0.43608344974927604,8,6,4,2,5,3,nan,nan,nan,nan,nan,nan,nan,nan,nan,nan,nan,nan,0.0,nan,nan,nan,nan,nan,nan,nan,nan,nan,nan,nan,nan,nan,nan,nan,nan,nan,nan,5418.970691330847,5578.415037132276,nan,5578.958487534372,nan,nan,nan,nan
1,92,1,1,1.0,1.0,0.39067829062696546,0,0.0,0.0,0.0,0.5512209561808655,0.13406841332977112,0.4171525428510944,0.6852893695106367,0.13406841332977112,0.44137349115529406,1,8,6,4,2,7,nan,nan,nan,nan,nan,nan,nan,nan,nan,nan,nan,nan,0.0,nan,nan,nan,nan,nan,nan,nan,nan,nan,nan,nan,nan,nan,nan,nan,nan,nan,nan,5418.970691330847,5579.4318261191365,nan,5579.8225044097635,nan,nan,nan,nan
1,93,1,1,1.0,1.0,0.3418397267232649,0,0.0,0.0,0.0,0.5490217415842368,0.1344483055053805,0.41457343607885627,0.6834700470896173,0.1344483055053805,0.42532280648204807,7,0,4,2,8,1,nan,nan,nan,nan,nan,nan,nan,nan,nan,nan,nan,nan,0.0,nan,nan,nan,nan,nan,nan,nan,nan,nan,nan,nan,nan,nan,nan,nan,nan,nan,nan,5418.970691330847,5580.4486151060555,nan,5580.790454832779,nan,nan,nan,nan
1,94,1,1,1.0,1.0,0.34103860845789313,0,1.0,0.0,0.0,0.546221984626656,0.13566242126824438,0.4105595633584117,0.6818844058949004,0.13566242126824438,0.35785220860270783,6,1,7,3,2,0,nan,nan,nan,nan,nan,nan,nan,nan,nan,nan,nan,nan,0.0,nan,nan,nan,nan,nan,nan,nan,nan,nan,nan,nan,nan,nan,nan,nan,nan,nan,nan,5418.970691330847,5581.465403807815,nan,5581.806442416273,nan,nan,nan,nan
1,95,1,1,1.0,1.0,0.3322154739871621,1,0.0,0.0,1.0,0.5434862062777392,0.13679456762609468,0.4066916386516446,0.6802807739038339,0.13679456762609468,0.3383646030561067,0,6,8,5,4,7,1.0,1.0,1.0,1.0,1.0,1.0,1.0,1.0,0.0,0.0,0.0,0.0,2.0,0.0,6.0,3.0,1.0,5.0,8.0,1.0,2.0,6.0,5.0,4.0,3.0,1.2857280924799852,2.4690239499905147,7.533426160400268,6.237174053909257,4.852930938184727,3.7742001147707924,5418.970691330847,5582.482205623994,5583.290610067255,5582.814421097981,5591.883291894745,5592.888675922586,5584.307397343568,5591.874958839384
1,96,1,1,1.0,1.0,0.521679942146875,0,0.0,0.0,0.0,0.5407063282212843,0.1380076535516235,0.4026986746696608,0.6787139817729078,0.1380076535516235,0.3983113415306434,8,7,2,4,3,6,nan,nan,nan,nan,nan,nan,nan,nan,nan,nan,nan,nan,0.0,nan,nan,nan,nan,nan,nan,nan,nan,nan,nan,nan,nan,nan,nan,nan,nan,nan,nan,5418.970691330847,5593.1084711271105,nan,5593.630151069257,nan,nan,nan,nan
1,97,1,1,1.0,1.0,0.616836825851351,0,0.0,0.0,0.0,0.54045923229824,0.13712549221521098,0.403333740083029,0.677584724513451,0.13712549221521098,0.49024408066179603,7,1,4,2,6,0,nan,nan,nan,nan,nan,nan,nan,nan,nan,nan,nan,nan,0.0,nan,nan,nan,nan,nan,nan,nan,nan,nan,nan,nan,nan,nan,nan,nan,nan,nan,nan,5418.970691330847,5594.125268666889,nan,5594.74210549274,nan,nan,nan,nan
1,98,1,1,1.0,1.0,0.63972457498312,0,0.0,0.0,0.0,0.5414384322155876,0.13651432700424865,0.404924105211339,0.6779527592198362,0.13651432700424865,0.5927471143271154,1,0,2,7,8,5,nan,nan,nan,nan,nan,nan,nan,nan,nan,nan,nan,nan,0.0,nan,nan,nan,nan,nan,nan,nan,nan,nan,nan,nan,nan,nan,nan,nan,nan,nan,nan,5418.970691330847,5595.150366761081,nan,5595.7900913360645,nan,nan,nan,nan
1,99,1,1,1.0,1.0,0.5988843644154258,0,0.0,0.0,0.0,0.54268256060505,0.1360918565685915,0.4065907040364586,0.6787744171736415,0.1360918565685915,0.6184819217499656,2,5,3,0,6,4,nan,nan,nan,nan,nan,nan,nan,nan,nan,nan,nan,nan,0.0,nan,nan,nan,nan,nan,nan,nan,nan,nan,nan,nan,nan,nan,nan,nan,nan,nan,nan,5418.970691330847,5596.16716658161,nan,5596.766050946026,nan,nan,nan,nan
1,100,1,1,1.0,1.0,0.709742595849093,0,0.0,0.0,0.0,0.5433850831526797,0.13538268169506332,0.40800240145761646,0.678767764847743,0.13538268169506332,0.649450511749213,7,2,8,5,4,1,nan,nan,nan,nan,nan,nan,nan,nan,nan,nan,nan,nan,0.0,nan,nan,nan,nan,nan,nan,nan,nan,nan,nan,nan,nan,nan,nan,nan,nan,nan,nan,5418.970691330847,5597.192280926276,nan,5597.902023522125,nan,nan,nan,nan
1,101,1,1,1.0,1.0,0.5649143843911588,0,0.0,0.0,0.0,0.5454388796057219,0.13579263411162065,0.4096462454941012,0.6812315137173426,0.13579263411162065,0.6245137815518925,1,6,4,0,3,5,nan,nan,nan,nan,nan,nan,nan,nan,nan,nan,nan,nan,0.0,nan,nan,nan,nan,nan,nan,nan,nan,nan,nan,nan,nan,nan,nan,nan,nan,nan,nan,5418.970691330847,5598.209091580415,nan,5598.774005964806,nan,nan,nan,nan
1,102,1,1,1.0,1.0,0.611804605810903,0,0.0,0.0,0.0,0.5456763857616418,0.13497901677628257,0.41069736898535925,0.6806554025379243,0.13497901677628257,0.6288205286837183,2,7,5,1,4,8,nan,nan,nan,nan,nan,nan,nan,nan,nan,nan,nan,nan,0.0,nan,nan,nan,nan,nan,nan,nan,nan,nan,nan,nan,nan,nan,nan,nan,nan,nan,nan,5418.970691330847,5599.23420107842,nan,5599.8460056842305,nan,nan,nan,nan
1,103,1,1,1.0,1.0,0.54660754930228,0,0.0,0.0,0.0,0.546473111304404,0.13435727066457517,0.41211584063982887,0.6808303819689792,0.13435727066457517,0.5744421798347806,3,1,2,8,0,4,nan,nan,nan,nan,nan,nan,nan,nan,nan,nan,nan,nan,0.0,nan,nan,nan,nan,nan,nan,nan,nan,nan,nan,nan,nan,nan,nan,nan,nan,nan,nan,5418.970691330847,5600.259364174388,nan,5600.80597172369,nan,nan,nan,nan
1,104,1,1,1.0,1.0,0.7938012832892127,0,0.0,0.0,0.0,0.5464747117567597,0.13355513133223962,0.41291958042452004,0.6800298430889993,0.13355513133223962,0.6507378128007986,2,6,0,3,1,7,nan,nan,nan,nan,nan,nan,nan,nan,nan,nan,nan,nan,0.0,nan,nan,nan,nan,nan,nan,nan,nan,nan,nan,nan,nan,nan,nan,nan,nan,nan,nan,5418.970691330847,5601.276138621441,nan,5602.06993990473,nan,nan,nan,nan
1,105,1,1,1.0,1.0,0.6329746547271498,0,0.0,0.0,0.0,0.5493844361277297,0.13541902384679713,0.41396541228093253,0.6848034599745269,0.13541902384679713,0.6577944957728808,3,1,2,8,7,0,nan,nan,nan,nan,nan,nan,nan,nan,nan,nan,nan,nan,0.0,nan,nan,nan,nan,nan,nan,nan,nan,nan,nan,nan,nan,nan,nan,nan,nan,nan,nan,5418.970691330847,5602.292943573673,nan,5602.9259182284,nan,nan,nan,nan
1,106,1,1,nan,nan,nan,0,0.0,0.0,0.0,0.5503564154137695,0.13492731024743082,0.41542910516633863,0.6852837256612003,0.13492731024743082,0.7133879690081812,6,2,8,7,4,1,nan,nan,nan,nan,nan,nan,nan,nan,nan,nan,nan,nan,0.0,nan,nan,nan,nan,nan,nan,nan,nan,nan,nan,nan,nan,nan,nan,nan,nan,nan,nan,5418.970691330847,5603.309700344747,nan,nan,nan,nan,nan,nan
1,107,1,1,1.0,1.0,0.799335841613356,0,0.0,0.0,0.0,0.5503564154137695,0.13492731024743082,0.41542910516633863,0.6852837256612003,0.13492731024743082,0.7161552481702529,0,4,2,1,8,5,nan,nan,nan,nan,nan,nan,nan,nan,nan,nan,nan,nan,0.0,nan,nan,nan,nan,nan,nan,nan,nan,nan,nan,nan,nan,nan,nan,nan,nan,nan,nan,5418.970691330847,5604.326516415691,nan,5605.125852257304,nan,nan,nan,nan
1,108,1,1,nan,nan,nan,0,0.0,0.0,0.0,0.5532182478988222,0.13674965866493038,0.41646858923389185,0.6899679065637526,0.13674965866493038,0.799335841613356,7,5,3,8,4,0,nan,nan,nan,nan,nan,nan,nan,nan,nan,nan,nan,nan,0.0,nan,nan,nan,nan,nan,nan,nan,nan,nan,nan,nan,nan,nan,nan,nan,nan,nan,nan,5418.970691330847,5605.35160937818,nan,nan,nan,nan,nan,nan
1,109,1,1,nan,nan,nan,0,0.0,0.0,0.0,0.5532182478988222,0.13674965866493038,0.41646858923389185,0.6899679065637526,0.13674965866493038,0.799335841613356,1,3,6,7,0,5,nan,nan,nan,nan,nan,nan,nan,nan,nan,nan,nan,nan,0.0,nan,nan,nan,nan,nan,nan,nan,nan,nan,nan,nan,nan,nan,nan,nan,nan,nan,nan,5418.970691330847,5606.368405492452,nan,nan,nan,nan,nan,nan
1,110,1,1,nan,nan,nan,0,0.0,0.0,0.0,0.5532182478988222,0.13674965866493038,0.41646858923389185,0.6899679065637526,0.13674965866493038,nan,0,1,3,5,8,2,nan,nan,nan,nan,nan,nan,nan,nan,nan,nan,nan,nan,0.0,nan,nan,nan,nan,nan,nan,nan,nan,nan,nan,nan,nan,nan,nan,nan,nan,nan,nan,5418.970691330847,5607.385224129248,nan,nan,nan,nan,nan,nan
1,111,1,1,1.0,1.0,0.7154496369184926,0,0.0,0.0,0.0,0.5532182478988222,0.13674965866493038,0.41646858923389185,0.6899679065637526,0.13674965866493038,0.7154496369184926,6,8,2,1,5,7,nan,nan,nan,nan,nan,nan,nan,nan,nan,nan,nan,nan,0.0,nan,nan,nan,nan,nan,nan,nan,nan,nan,nan,nan,nan,nan,nan,nan,nan,nan,nan,5418.970691330847,5608.410305973026,nan,5609.1257556099445,nan,nan,nan,nan
1,112,1,1,1.0,1.0,0.7466436423710547,0,0.0,0.0,0.0,0.5550617864104094,0.1370534384573565,0.41800834795305286,0.6921152248677659,0.1370534384573565,0.7310466396447737,5,3,6,4,2,0,nan,nan,nan,nan,nan,nan,nan,nan,nan,nan,nan,nan,0.0,nan,nan,nan,nan,nan,nan,nan,nan,nan,nan,nan,nan,nan,nan,nan,nan,nan,nan,5418.970691330847,5609.427092394035,nan,5610.173736036406,nan,nan,nan,nan
1,113,1,1,1.0,1.0,0.6498046953347512,0,0.0,1.0,0.0,0.5572143915335627,0.13776922434956176,0.41944516718400093,0.6949836158831244,0.13776922434956176,0.7039659915414328,0,2,1,6,8,7,nan,nan,nan,nan,nan,nan,nan,nan,nan,nan,nan,nan,0.0,nan,nan,nan,nan,nan,nan,nan,nan,nan,nan,nan,nan,nan,nan,nan,nan,nan,nan,5418.970691330847,5610.443892784766,nan,5611.093697480101,nan,nan,nan,nan
1,114,1,1,1.0,1.0,0.7770020330208354,1,0.0,0.0,1.0,0.5582431726869093,0.13734505111942502,0.42089812156748424,0.6955882238063342,0.13734505111942502,0.7244834569088804,6,4,0,2,7,5,1.0,1.0,1.0,1.0,1.0,1.0,0.0,0.0,0.0,1.0,0.0,1.0,2.0,0.0,6.0,4.0,2.0,8.0,5.0,3.0,4.0,2.0,1.0,6.0,5.0,3.9391409560339525,5.131082618667278,2.4354197474895045,1.225853483134415,8.386040357523598,6.561892372439615,5418.970691330847,5611.460667516862,5612.2690696793725,5612.237669549882,5621.711898487818,5622.715121206944,5613.285885750316,5621.703564292053
1,115,1,1,1.0,1.0,0.5003240109654143,0,0.0,0.0,0.0,0.5606471162070622,0.13847915029559124,0.422167965911471,0.6991262665026534,0.13847915029559124,0.6423769131070003,5,3,6,4,0,1,nan,nan,nan,nan,nan,nan,nan,nan,nan,nan,nan,nan,0.0,nan,nan,nan,nan,nan,nan,nan,nan,nan,nan,nan,nan,nan,nan,nan,nan,nan,nan,5418.970691330847,5622.937075439433,nan,5623.4373994503985,nan,nan,nan,nan
1,116,1,1,1.0,1.0,0.5875027832807973,0,0.0,0.0,0.0,0.5599914302805226,0.13786645062280686,0.42212497965771567,0.6978578809033295,0.13786645062280686,0.6216096090890156,4,8,1,0,6,5,nan,nan,nan,nan,nan,nan,nan,nan,nan,nan,nan,nan,0.0,nan,nan,nan,nan,nan,nan,nan,nan,nan,nan,nan,nan,nan,nan,nan,nan,nan,nan,5418.970691330847,5623.953869843099,nan,5624.54137262638,nan,nan,nan,nan
1,117,1,1,1.0,1.0,0.7623926009400748,0,0.0,0.0,0.0,0.5602872512805256,0.13715258323481427,0.4231346680457113,0.6974398345153399,0.13715258323481427,0.6167397983954288,8,6,2,1,0,4,nan,nan,nan,nan,nan,nan,nan,nan,nan,nan,nan,nan,0.0,nan,nan,nan,nan,nan,nan,nan,nan,nan,nan,nan,nan,nan,nan,nan,nan,nan,nan,5418.970691330847,5624.978947980679,nan,5625.741340581619,nan,nan,nan,nan
1,118,1,1,1.0,1.0,0.761552139534615,0,0.0,1.0,0.0,0.5624373081917974,0.13798779338318745,0.42444951480860993,0.7004251015749848,0.13798779338318745,0.703815841251829,1,7,8,3,4,5,nan,nan,nan,nan,nan,nan,nan,nan,nan,nan,nan,nan,0.0,nan,nan,nan,nan,nan,nan,nan,nan,nan,nan,nan,nan,nan,nan,nan,nan,nan,nan,5418.970691330847,5625.99573924829,nan,5626.757291387825,nan,nan,nan,nan
1,119,1,1,1.0,1.0,0.7607079718727618,1,0.0,0.0,1.0,0.5645332537848796,0.138755700034533,0.42577755375034665,0.7032889538194126,0.138755700034533,0.7615509041158172,8,3,2,7,6,1,1.0,1.0,1.0,1.0,1.0,1.0,0.0,0.0,0.0,0.0,0.0,0.0,0.0,3.0,8.0,5.0,2.0,7.0,2.0,4.0,2.0,3.0,1.0,6.0,5.0,5.682177285489161,2.747063873044681,3.7132752137840725,1.7774350930121727,8.39296162017854,7.122068185126409,5418.970691330847,5627.012550472631,5627.820942086575,5627.773258444504,5637.280400798656,5638.283529436274,5628.84609805519,5637.2720819980605
1,120,1,1,1.0,1.0,0.5633571929647587,0,0.0,0.0,0.0,0.5665767404316284,0.13946073026075975,0.42711601017086864,0.7060374706923882,0.13946073026075975,0.6952057681240452,0,2,4,3,1,6,nan,nan,nan,nan,nan,nan,nan,nan,nan,nan,nan,nan,0.0,nan,nan,nan,nan,nan,nan,nan,nan,nan,nan,nan,nan,nan,nan,nan,nan,nan,nan,5418.970691330847,5638.505594855989,nan,5639.068952048954,nan,nan,nan,nan
1,121,1,1,1.0,1.0,0.6585539901279844,0,0.0,0.0,0.0,0.5665435492206298,0.1387403792883462,0.42780316993228357,0.705283928508976,0.1387403792883462,0.6608730516551683,6,7,5,8,3,4,nan,nan,nan,nan,nan,nan,nan,nan,nan,nan,nan,nan,0.0,nan,nan,nan,nan,nan,nan,nan,nan,nan,nan,nan,nan,nan,nan,nan,nan,nan,nan,5418.970691330847,5639.522369302984,nan,5640.180923293112,nan,nan,nan,nan
1,122,1,1,1.0,1.0,0.793675841356162,0,0.0,0.0,0.0,0.5674824312707049,0.13834009188600493,0.4291423393846999,0.7058225231567098,0.13834009188600493,0.6718623414829684,5,3,4,6,2,0,nan,nan,nan,nan,nan,nan,nan,nan,nan,nan,nan,nan,0.0,nan,nan,nan,nan,nan,nan,nan,nan,nan,nan,nan,nan,nan,nan,nan,nan,nan,nan,5418.970691330847,5640.539262064616,nan,5641.332937905972,nan,nan,nan,nan
1,123,0,0,0.0,1.0,0.6329053764929995,0,0.0,0.0,0.0,0.56976721319076,0.13948566402601523,0.4302815491647447,0.7092528772167752,0.13948566402601523,0.6950450693257153,2,8,5,7,0,6,nan,nan,nan,nan,nan,nan,nan,nan,nan,nan,nan,nan,0.0,nan,nan,nan,nan,nan,nan,nan,nan,nan,nan,nan,nan,nan,nan,nan,nan,nan,nan,5418.970691330847,5641.555985194456,nan,5642.188890570949,nan,nan,nan,nan
1,124,1,1,1.0,1.0,0.5197789255762473,0,0.0,0.0,0.0,0.5703985948237823,0.1389285917224237,0.43147000310135863,0.709327186546206,0.1389285917224237,0.6487867144751363,6,7,0,2,8,3,nan,nan,nan,nan,nan,nan,nan,nan,nan,nan,nan,nan,0.0,nan,nan,nan,nan,nan,nan,nan,nan,nan,nan,nan,nan,nan,nan,nan,nan,nan,nan,5418.970691330847,5642.581071599736,nan,5643.100850525312,nan,nan,nan,nan
1,125,0,0,0.0,1.0,0.6066523605841212,0,0.0,0.0,0.0,0.5698974099797474,0.13832993780122907,0.4315674721785183,0.7082273477809764,0.13832993780122907,0.5864455542177893,7,4,5,6,3,2,nan,nan,nan,nan,nan,nan,nan,nan,nan,nan,nan,nan,0.0,nan,nan,nan,nan,nan,nan,nan,nan,nan,nan,nan,nan,nan,nan,nan,nan,nan,nan,5418.970691330847,5643.606185944402,nan,5644.212838304986,nan,nan,nan,nan
1,126,1,1,1.0,1.0,0.48580238834256306,0,0.0,0.0,0.0,0.5702577526327314,0.13769780862164777,0.4325599440110836,0.7079555612543791,0.13769780862164777,0.5374112248343105,4,7,2,0,6,1,nan,nan,nan,nan,nan,nan,nan,nan,nan,nan,nan,nan,0.0,nan,nan,nan,nan,nan,nan,nan,nan,nan,nan,nan,nan,nan,nan,nan,nan,nan,nan,5418.970691330847,5644.623000019696,nan,5645.108802408038,nan,nan,nan,nan
1,127,0,0,0.0,1.0,0.6209906667936593,0,0.0,0.0,0.0,0.569437797639623,0.13727774559524933,0.4321600520443737,0.7067155432348723,0.13727774559524933,0.5711484719067812,1,5,4,2,0,7,nan,nan,nan,nan,nan,nan,nan,nan,nan,nan,nan,nan,0.0,nan,nan,nan,nan,nan,nan,nan,nan,nan,nan,nan,nan,nan,nan,nan,nan,nan,nan,5418.970691330847,5645.639770475391,nan,5646.2607611421845,nan,nan,nan,nan
1,128,1,1,1.0,1.0,0.4601671742857434,0,0.0,0.0,0.0,0.5699334983045656,0.13670875926459067,0.43322473903997494,0.7066422575691563,0.13670875926459067,0.5223200764739886,6,8,0,5,2,3,nan,nan,nan,nan,nan,nan,nan,nan,nan,nan,nan,nan,0.0,nan,nan,nan,nan,nan,nan,nan,nan,nan,nan,nan,nan,nan,nan,nan,nan,nan,nan,5418.970691330847,5646.656567159807,nan,5647.116734334093,nan,nan,nan,nan
1,129,1,1,1.0,1.0,0.5313683413551189,0,0.0,0.0,0.0,0.5688881047424816,0.13647324950805342,0.43241485523442824,0.705361354250535,0.13647324950805342,0.5375087274781739,2,5,7,3,8,4,nan,nan,nan,nan,nan,nan,nan,nan,nan,nan,nan,nan,0.0,nan,nan,nan,nan,nan,nan,nan,nan,nan,nan,nan,nan,nan,nan,nan,nan,nan,nan,5418.970691330847,5647.673346738564,nan,5648.204715079919,nan,nan,nan,nan
1,130,0,0,0.0,1.0,0.458541274885647,0,0.0,0.0,0.0,0.5685341447105253,0.1358763996624087,0.4326577450481166,0.704410544372934,0.1358763996624087,0.4833589301755031,1,7,6,4,2,8,nan,nan,nan,nan,nan,nan,nan,nan,nan,nan,nan,nan,0.0,nan,nan,nan,nan,nan,nan,nan,nan,nan,nan,nan,nan,nan,nan,nan,nan,nan,nan,5418.970691330847,5648.690137435973,nan,5649.148678710859,nan,nan,nan,nan
1,131,1,1,1.0,1.0,0.3857324544223957,0,0.0,0.0,0.0,0.5675061739644984,0.1356534664391008,0.4318527075253976,0.7031596404035992,0.1356534664391008,0.4585473568877205,8,5,4,7,0,6,nan,nan,nan,nan,nan,nan,nan,nan,nan,nan,nan,nan,0.0,nan,nan,nan,nan,nan,nan,nan,nan,nan,nan,nan,nan,nan,nan,nan,nan,nan,nan,5418.970691330847,5649.706929558946,nan,5650.092662013369,nan,nan,nan,nan
1,132,1,1,1.0,1.0,0.40093231917126104,0,0.0,0.0,0.0,0.5658230839687383,0.13614177931073235,0.4296813046580059,0.7019648632794706,0.13614177931073235,0.41506868282643455,6,0,7,3,2,8,nan,nan,nan,nan,nan,nan,nan,nan,nan,nan,nan,nan,0.0,nan,nan,nan,nan,nan,nan,nan,nan,nan,nan,nan,nan,nan,nan,nan,nan,nan,nan,5418.970691330847,5650.723715979955,nan,5651.124648299126,nan,nan,nan,nan
1,133,1,1,1.0,1.0,0.39210918470053,0,1.0,0.0,0.0,0.5643103246586696,0.13642468111390213,0.42788564354476744,0.7007350057725718,0.13642468111390213,0.39292465276472893,4,1,6,8,5,7,nan,nan,nan,nan,nan,nan,nan,nan,nan,nan,nan,nan,0.0,nan,nan,nan,nan,nan,nan,nan,nan,nan,nan,nan,nan,nan,nan,nan,nan,nan,nan,5418.970691330847,5651.740528059541,nan,5652.132637244242,nan,nan,nan,nan
1,134,0,0,0.0,1.0,0.4233046156587079,1,0.0,0.0,1.0,0.5627448597499592,0.13678311505369953,0.4259617446962597,0.6995279748036588,0.13678311505369953,0.40544870651016635,0,7,5,2,6,8,1.0,1.0,1.0,1.0,1.0,1.0,0.0,0.0,0.0,1.0,0.0,0.0,1.0,8.0,0.0,6.0,2.0,2.0,5.0,2.0,3.0,4.0,1.0,6.0,5.0,3.6800211084773764,5.2001227621221915,6.1135053428588435,2.4496117997914553,9.64799376897281,7.744625451567117,5418.970691330847,5652.757303361839,5653.565725481021,5653.180607977498,5664.266977648833,5665.270854662056,5654.58250306407,5664.258644878573
1,135,1,1,1.0,1.0,0.33608022809494287,0,0.0,0.0,0.0,0.5614886413347228,0.13680151585901731,0.4246871254757054,0.6982901571937401,0.13680151585901731,0.38383134281806025,3,4,1,7,2,6,nan,nan,nan,nan,nan,nan,nan,nan,nan,nan,nan,nan,0.0,nan,nan,nan,nan,nan,nan,nan,nan,nan,nan,nan,nan,nan,nan,nan,nan,nan,nan,5418.970691330847,5665.492188526841,nan,5665.828268754936,nan,nan,nan,nan
1,136,1,1,1.0,1.0,0.43126818735618144,0,0.0,0.0,0.0,0.5594760662165105,0.13783018724148077,0.4216458789750297,0.6973062534579912,0.13783018724148077,0.3968843437032774,6,1,3,2,5,7,nan,nan,nan,nan,nan,nan,nan,nan,nan,nan,nan,nan,0.0,nan,nan,nan,nan,nan,nan,nan,nan,nan,nan,nan,nan,nan,nan,nan,nan,nan,nan,5418.970691330847,5666.508975517994,nan,5666.94024370535,nan,nan,nan,nan
1,137,1,1,1.0,1.0,0.5501136532984674,0,0.0,0.0,0.0,0.5583414832177465,0.1377433092798644,0.42059817393788207,0.6960847924976108,0.1377433092798644,0.43915402291653055,2,8,7,3,6,0,nan,nan,nan,nan,nan,nan,nan,nan,nan,nan,nan,nan,0.0,nan,nan,nan,nan,nan,nan,nan,nan,nan,nan,nan,nan,nan,nan,nan,nan,nan,nan,5418.970691330847,5667.534093283815,nan,5668.084206937114,nan,nan,nan,nan
1,138,1,1,1.0,1.0,0.6293083270429634,0,0.0,0.0,0.0,0.5582693092710861,0.13713998734661056,0.4211293219244755,0.6954092966176967,0.13713998734661056,0.5368967225658707,8,3,2,5,0,1,nan,nan,nan,nan,nan,nan,nan,nan,nan,nan,nan,nan,0.0,nan,nan,nan,nan,nan,nan,nan,nan,nan,nan,nan,nan,nan,nan,nan,nan,nan,nan,5418.970691330847,5668.550875713525,nan,5669.180184040568,nan,nan,nan,nan
1,139,1,1,1.0,1.0,0.5644770479993895,0,0.0,0.0,0.0,0.5588870398604068,0.136701628050053,0.42218541181035374,0.6955886679104598,0.136701628050053,0.5812996761136068,2,8,5,1,6,3,nan,nan,nan,nan,nan,nan,nan,nan,nan,nan,nan,nan,0.0,nan,nan,nan,nan,nan,nan,nan,nan,nan,nan,nan,nan,nan,nan,nan,nan,nan,nan,5418.970691330847,5669.567676104198,nan,5670.132153152197,nan,nan,nan,nan
1,140,1,1,1.0,1.0,0.6196561349206604,0,0.0,0.0,0.0,0.5589352295857428,0.1361121025249537,0.4228231270607891,0.6950473321106965,0.1361121025249537,0.6044805033210044,3,1,0,6,5,8,nan,nan,nan,nan,nan,nan,nan,nan,nan,nan,nan,nan,0.0,nan,nan,nan,nan,nan,nan,nan,nan,nan,nan,nan,nan,nan,nan,nan,nan,nan,nan,5418.970691330847,5670.5844645209145,nan,5671.204120655835,nan,nan,nan,nan
1,141,1,1,1.0,1.0,0.5868598929373547,0,0.0,0.0,0.0,0.5594542116826225,0.1356443953217724,0.42380981636085013,0.695098607004395,0.1356443953217724,0.5903310252858015,8,2,7,5,3,4,nan,nan,nan,nan,nan,nan,nan,nan,nan,nan,nan,nan,0.0,nan,nan,nan,nan,nan,nan,nan,nan,nan,nan,nan,nan,nan,nan,nan,nan,nan,nan,5418.970691330847,5671.6012181559345,nan,5672.188078048872,nan,nan,nan,nan
1,142,1,1,1.0,1.0,0.6097077286685817,0,0.0,0.0,0.0,0.5596864632186795,0.1350917685040762,0.4245946947146033,0.6947782317227558,0.1350917685040762,0.6054079188421989,1,7,8,0,5,6,nan,nan,nan,nan,nan,nan,nan,nan,nan,nan,nan,nan,0.0,nan,nan,nan,nan,nan,nan,nan,nan,nan,nan,nan,nan,nan,nan,nan,nan,nan,nan,5418.970691330847,5672.626355878427,nan,5673.236063607095,nan,nan,nan,nan
1,143,1,1,1.0,1.0,0.6888989812578075,0,0.0,0.0,0.0,0.5601068099871661,0.13460043074936612,0.4255063792378,0.6947072407365322,0.13460043074936612,0.628488867621248,2,1,6,5,7,3,nan,nan,nan,nan,nan,nan,nan,nan,nan,nan,nan,nan,0.0,nan,nan,nan,nan,nan,nan,nan,nan,nan,nan,nan,nan,nan,nan,nan,nan,nan,nan,5418.970691330847,5673.643131750927,nan,5674.332030732185,nan,nan,nan,nan
1,144,1,1,1.0,1.0,0.6400906375492923,0,0.0,0.0,0.0,0.5611800780810882,0.1345487840228811,0.4266312940582071,0.6957288621039692,0.1345487840228811,0.6462324491585605,4,2,0,8,1,6,nan,nan,nan,nan,nan,nan,nan,nan,nan,nan,nan,nan,0.0,nan,nan,nan,nan,nan,nan,nan,nan,nan,nan,nan,nan,nan,nan,nan,nan,nan,nan,5418.970691330847,5674.659918742138,nan,5675.300009379687,nan,nan,nan,nan
1,145,1,1,1.0,1.0,0.5989197163144127,0,0.0,0.0,0.0,0.5618322314651228,0.13418195517520415,0.4276502762899187,0.696014186640327,0.13418195517520415,0.6426364450405041,7,3,6,2,4,8,nan,nan,nan,nan,nan,nan,nan,nan,nan,nan,nan,nan,0.0,nan,nan,nan,nan,nan,nan,nan,nan,nan,nan,nan,nan,nan,nan,nan,nan,nan,nan,5418.970691330847,5675.685045345861,nan,5676.283965062175,nan,nan,nan,nan
1,146,1,1,1.0,1.0,0.6218037591315806,0,0.0,0.0,0.0,0.5621362272425761,0.13367273026292198,0.4284634969796541,0.695808957505498,0.13367273026292198,0.6202713709984286,4,6,7,0,5,1,nan,nan,nan,nan,nan,nan,nan,nan,nan,nan,nan,nan,0.0,nan,nan,nan,nan,nan,nan,nan,nan,nan,nan,nan,nan,nan,nan,nan,nan,nan,nan,5418.970691330847,5676.71016254148,nan,5677.331966300611,nan,nan,nan,nan
1,147,1,1,1.0,1.0,0.6209687144728377,0,0.0,0.0,0.0,0.5626213291278526,0.13323601911354518,0.42938531001430735,0.6958573482413978,0.13323601911354518,0.6138973966396103,6,0,5,4,3,2,nan,nan,nan,nan,nan,nan,nan,nan,nan,nan,nan,nan,0.0,nan,nan,nan,nan,nan,nan,nan,nan,nan,nan,nan,nan,nan,nan,nan,nan,nan,nan,5418.970691330847,5677.7269620769075,nan,5678.34793079138,nan,nan,nan,nan
1,148,1,1,1.0,1.0,0.5321606216602959,0,0.0,0.0,0.0,0.563091872558054,0.13280026499537617,0.43029160756267787,0.6958921375534302,0.13280026499537617,0.591644365088238,3,2,1,7,6,0,nan,nan,nan,nan,nan,nan,nan,nan,nan,nan,nan,nan,0.0,nan,nan,nan,nan,nan,nan,nan,nan,nan,nan,nan,nan,nan,nan,nan,nan,nan,nan,5418.970691330847,5678.743740800361,nan,5679.275901422021,nan,nan,nan,nan
1,149,1,1,1.0,1.0,0.3873808764619753,0,0.0,0.0,0.0,0.562844422550872,0.13229669612855094,0.43054772642232103,0.695141118679423,0.13229669612855094,0.5135034041983696,7,8,4,3,5,6,nan,nan,nan,nan,nan,nan,nan,nan,nan,nan,nan,nan,0.0,nan,nan,nan,nan,nan,nan,nan,nan,nan,nan,nan,nan,nan,nan,nan,nan,nan,nan,5418.970691330847,5679.760528931918,nan,5680.14790980838,nan,nan,nan,nan
1,150,1,1,1.0,1.0,0.3545127903926186,0,1.0,0.0,0.0,0.5614518547247697,0.13268727666344082,0.42876457806132884,0.6941391313882105,0.13268727666344082,0.4246847628382966,1,5,0,6,7,2,nan,nan,nan,nan,nan,nan,nan,nan,nan,nan,nan,nan,0.0,nan,nan,nan,nan,nan,nan,nan,nan,nan,nan,nan,nan,nan,nan,nan,nan,nan,nan,5418.970691330847,5680.777362963883,nan,5681.131875754276,nan,nan,nan,nan
1,151,1,1,1.0,1.0,0.28025739558506757,1,0.0,0.0,1.0,0.5598224132733354,0.13342347679093897,0.4263989364823964,0.6932458900642744,0.13342347679093897,0.3407170208132205,2,6,3,4,0,1,1.0,1.0,1.0,1.0,1.0,1.0,1.0,1.0,0.0,0.0,0.0,0.0,2.0,2.0,6.0,8.0,3.0,5.0,6.0,1.0,6.0,5.0,4.0,3.0,2.0,1.074858371692244,6.307237119879574,5.459550227678847,4.684371665294748,3.627912214549724,2.5153744857525453,5418.970691330847,5681.795595104049,5682.602545560396,5682.0758524996345,5689.953384895751,5690.963410847937,5683.611014606315,5689.945092323935
1,152,0,0,nan,nan,nan,0,0.0,0.0,0.0,0.5576383115726458,0.1351612945265304,0.4224770170461154,0.6927996060991761,0.1351612945265304,0.3173850929888431,5,7,0,2,4,6,nan,nan,nan,nan,nan,nan,nan,nan,nan,nan,nan,nan,0.0,nan,nan,nan,nan,nan,nan,nan,nan,nan,nan,nan,nan,nan,nan,nan,nan,nan,nan,5418.970691330847,5691.186914859398,nan,nan,nan,nan,nan,nan
1,153,1,1,1.0,1.0,0.4874975659768097,0,0.0,0.0,0.0,0.5576383115726458,0.13516129452653036,0.4224770170461154,0.6927996060991761,0.13516129452653036,0.38387748078093864,6,8,1,0,7,5,nan,nan,nan,nan,nan,nan,nan,nan,nan,nan,nan,nan,0.0,nan,nan,nan,nan,nan,nan,nan,nan,nan,nan,nan,nan,nan,nan,nan,nan,nan,nan,5418.970691330847,5692.212047735287,nan,5692.699545301264,nan,nan,nan,nan
1,154,1,1,1.0,1.0,0.3503991478937678,0,0.0,0.0,0.0,0.5570945848626006,0.13477685421302457,0.422317730649576,0.6918714390756251,0.13477685421302457,0.41894835693528876,8,4,5,6,3,2,nan,nan,nan,nan,nan,nan,nan,nan,nan,nan,nan,nan,0.0,nan,nan,nan,nan,nan,nan,nan,nan,nan,nan,nan,nan,nan,nan,nan,nan,nan,nan,5418.970691330847,5693.23715466744,nan,5693.587553815334,nan,nan,nan,nan
1,155,1,1,1.0,1.0,0.2615970420301892,0,1.0,0.0,0.0,0.5555046199628403,0.1354665335011144,0.4200380864617259,0.6909711534639547,0.1354665335011144,0.3664979186335889,1,3,6,4,7,5,nan,nan,nan,nan,nan,nan,nan,nan,nan,nan,nan,nan,0.0,nan,nan,nan,nan,nan,nan,nan,nan,nan,nan,nan,nan,nan,nan,nan,nan,nan,nan,5418.970691330847,5694.253943369258,nan,5694.515540411288,nan,nan,nan,nan
1,156,1,1,1.0,1.0,0.34040911769261584,1,0.0,0.0,1.0,0.5532610506656445,0.1373516099548915,0.415909440710753,0.690612660620536,0.1373516099548915,0.3174684358721909,4,6,5,3,2,8,1.0,1.0,1.0,1.0,1.0,1.0,1.0,1.0,0.0,1.0,1.0,0.0,4.0,4.0,6.0,8.0,3.0,2.0,4.0,2.0,3.0,4.0,1.0,5.0,6.0,2.287832382135093,4.2466988083324395,5.053172870189883,1.1274219928891398,7.109874366957229,9.869302830426022,5418.970691330847,5695.279091070057,5696.087490381615,5695.6195001877495,5707.013754715852,5708.013780089386,5697.1042568459525,5707.005479534855
1,157,1,1,1.0,1.0,0.4042020790511742,0,0.0,0.0,0.0,0.5516485360219094,0.13806944348781944,0.41357909253409,0.6897179795097289,0.13806944348781944,0.3354027462579931,2,1,8,6,0,5,nan,nan,nan,nan,nan,nan,nan,nan,nan,nan,nan,nan,0.0,nan,nan,nan,nan,nan,nan,nan,nan,nan,nan,nan,nan,nan,nan,nan,nan,nan,nan,5418.970691330847,5708.238959891954,nan,5708.643161971006,nan,nan,nan,nan
1,158,1,1,1.0,1.0,0.5550532173947431,0,0.0,0.0,0.0,0.5505399160446858,0.13813787373518135,0.4124020423095044,0.6886777897798672,0.13813787373518135,0.43322147137951106,6,2,7,1,5,0,nan,nan,nan,nan,nan,nan,nan,nan,nan,nan,nan,nan,0.0,nan,nan,nan,nan,nan,nan,nan,nan,nan,nan,nan,nan,nan,nan,nan,nan,nan,nan,5418.970691330847,5709.264066253905,nan,5709.8191194713,nan,nan,nan,nan
1,159,1,1,1.0,1.0,0.6738932665321045,0,0.0,0.0,0.0,0.5505735973980445,0.1376220168292787,0.4129515805687658,0.6881956142273231,0.1376220168292787,0.5443828543260073,2,0,6,5,1,7,nan,nan,nan,nan,nan,nan,nan,nan,nan,nan,nan,nan,0.0,nan,nan,nan,nan,nan,nan,nan,nan,nan,nan,nan,nan,nan,nan,nan,nan,nan,nan,5418.970691330847,5710.289192287484,nan,5710.963085554016,nan,nan,nan,nan
1,160,1,1,1.0,1.0,0.6247442337335087,0,0.0,0.0,0.0,0.5514870764286671,0.13751850800767587,0.4139685684209913,0.689005584436343,0.13751850800767587,0.6178969058867855,4,3,8,6,5,1,nan,nan,nan,nan,nan,nan,nan,nan,nan,nan,nan,nan,0.0,nan,nan,nan,nan,nan,nan,nan,nan,nan,nan,nan,nan,nan,nan,nan,nan,nan,nan,5418.970691330847,5711.314315755211,nan,5711.939059988945,nan,nan,nan,nan
1,161,1,1,1.0,1.0,0.767583619162906,0,0.0,0.0,0.0,0.552025731997085,0.13715486247168912,0.4148708695253959,0.6891805944687741,0.13715486247168912,0.6887403731428398,8,0,5,2,3,6,nan,nan,nan,nan,nan,nan,nan,nan,nan,nan,nan,nan,0.0,nan,nan,nan,nan,nan,nan,nan,nan,nan,nan,nan,nan,nan,nan,nan,nan,nan,nan,5418.970691330847,5712.339440933545,nan,5713.107024552708,nan,nan,nan,nan
1,162,1,1,1.0,1.0,0.7104413648485206,0,0.0,1.0,0.0,0.5535991472318721,0.1378797767178886,0.4157193705139835,0.6914789239497607,0.1378797767178886,0.7009230725816451,4,6,2,3,0,1,nan,nan,nan,nan,nan,nan,nan,nan,nan,nan,nan,nan,0.0,nan,nan,nan,nan,nan,nan,nan,nan,nan,nan,nan,nan,nan,nan,nan,nan,nan,nan,5418.970691330847,5713.364592055499,nan,5714.075033420348,nan,nan,nan,nan
1,163,1,1,1.0,1.0,0.6452813706710003,1,0.0,0.0,1.0,0.5547356850406884,0.1380218771128388,0.41671380792784957,0.6927575621535271,0.1380218771128388,0.7077687848941423,5,1,3,8,7,4,1.0,1.0,1.0,1.0,1.0,1.0,1.0,0.0,1.0,1.0,0.0,0.0,3.0,5.0,0.0,3.0,8.0,1.0,7.0,2.0,3.0,4.0,1.0,5.0,6.0,2.3121313537703827,3.5121671617380343,5.335533700126689,1.2167107567074709,7.630877777584828,11.630365746095777,5418.970691330847,5714.389695281454,5715.198089176149,5715.034976652125,5727.882942937897,5728.886053899594,5716.214903821645,5727.874609882536
1,164,1,1,1.0,1.0,0.3904909828561358,0,0.0,0.0,0.0,0.5553870928509784,0.13773723446943825,0.4176498583815402,0.6931243273204166,0.13773723446943825,0.5820712394585522,4,5,0,6,8,2,nan,nan,nan,nan,nan,nan,nan,nan,nan,nan,nan,nan,0.0,nan,nan,nan,nan,nan,nan,nan,nan,nan,nan,nan,nan,nan,nan,nan,nan,nan,nan,5418.970691330847,5729.108119034208,nan,5729.4986100170645,nan,nan,nan,nan
1,165,1,1,1.0,1.0,0.4533320105401799,0,0.0,0.0,0.0,0.5542092634938723,0.1379451590864329,0.41626410440743944,0.6921544225803052,0.1379451590864329,0.496368121355772,0,3,2,4,7,5,nan,nan,nan,nan,nan,nan,nan,nan,nan,nan,nan,nan,0.0,nan,nan,nan,nan,nan,nan,nan,nan,nan,nan,nan,nan,nan,nan,nan,nan,nan,nan,5418.970691330847,5730.133250484592,nan,5730.5865824951325,nan,nan,nan,nan
1,166,1,1,1.0,1.0,0.6761669028783217,0,0.0,0.0,0.0,0.5534938219835625,0.13771554135278177,0.4157782806307807,0.6912093633363442,0.13771554135278177,0.5066632987582125,6,7,4,2,8,3,nan,nan,nan,nan,nan,nan,nan,nan,nan,nan,nan,nan,0.0,nan,nan,nan,nan,nan,nan,nan,nan,nan,nan,nan,nan,nan,nan,nan,nan,nan,nan,5418.970691330847,5731.158363974013,nan,5731.834530876891,nan,nan,nan,nan
1,167,1,1,1.0,1.0,0.7709913653088734,0,0.0,0.0,0.0,0.5543577169194411,0.13761264591070788,0.41674507100873326,0.691970362830149,0.13761264591070788,0.6334967595757917,4,5,8,1,7,0,nan,nan,nan,nan,nan,nan,nan,nan,nan,nan,nan,nan,0.0,nan,nan,nan,nan,nan,nan,nan,nan,nan,nan,nan,nan,nan,nan,nan,nan,nan,nan,5418.970691330847,5732.18350255175,nan,5732.954493917059,nan,nan,nan,nan
1,168,1,1,1.0,1.0,0.44921010022517294,0,0.0,0.0,0.0,0.555872637537549,0.13831377319934524,0.4175588643382038,0.6941864107368942,0.13831377319934524,0.6321227894707894,3,8,7,4,1,5,nan,nan,nan,nan,nan,nan,nan,nan,nan,nan,nan,nan,0.0,nan,nan,nan,nan,nan,nan,nan,nan,nan,nan,nan,nan,nan,nan,nan,nan,nan,nan,5418.970691330847,5733.225290704751,nan,5733.674500804977,nan,nan,nan,nan
1,169,1,1,1.0,1.0,0.34406660741660744,0,0.0,0.0,0.0,0.5551319254728797,0.1381169987661725,0.4170149267067072,0.6932489242390523,0.1381169987661725,0.5214226909835512,0,3,1,2,6,7,nan,nan,nan,nan,nan,nan,nan,nan,nan,nan,nan,nan,0.0,nan,nan,nan,nan,nan,nan,nan,nan,nan,nan,nan,nan,nan,nan,nan,nan,nan,nan,5418.970691330847,5734.250396211457,nan,5734.594462818874,nan,nan,nan,nan
1,170,1,1,1.0,1.0,0.3029276168672368,0,1.0,0.0,0.0,0.553676302589733,0.13874385496467642,0.41493244762505654,0.6924201575544094,0.13874385496467642,0.36540144150300574,6,5,8,4,2,1,nan,nan,nan,nan,nan,nan,nan,nan,nan,nan,nan,nan,0.0,nan,nan,nan,nan,nan,nan,nan,nan,nan,nan,nan,nan,nan,nan,nan,nan,nan,nan,5418.970691330847,5735.2755211046315,nan,5735.578448721499,nan,nan,nan,nan
1,171,1,1,1.0,1.0,0.3977697551599704,1,0.0,0.0,1.0,0.5519588458382091,0.13980597025302527,0.4121528755851838,0.6917648160912344,0.13980597025302527,0.34825465981460485,3,7,2,0,1,8,1.0,1.0,1.0,1.0,1.0,1.0,0.0,0.0,0.0,1.0,1.0,0.0,2.0,8.0,3.0,5.0,0.0,1.0,3.0,2.0,3.0,4.0,1.0,5.0,6.0,2.2729164724587463,3.224962844979018,4.088365054514725,1.0644612251780927,5.1276959696551785,7.103100498730782,5418.970691330847,5736.300654550723,5737.109056998335,5736.698424305883,5745.260050684272,5746.264026910765,5738.117552272975,5745.251721620269
1,172,0,0,0.0,1.0,0.4769285069196485,0,0.0,0.0,0.0,0.5509099404594455,0.13990487794743472,0.4110050625120108,0.6908148184068803,0.13990487794743472,0.3925419596489519,7,0,3,8,5,1,nan,nan,nan,nan,nan,nan,nan,nan,nan,nan,nan,nan,0.0,nan,nan,nan,nan,nan,nan,nan,nan,nan,nan,nan,nan,nan,nan,nan,nan,nan,nan,5418.970691330847,5746.485200266761,nan,5746.962128773681,nan,nan,nan,nan
1,173,1,1,1.0,1.0,0.531736969773192,0,0.0,0.0,0.0,0.550410065908501,0.13956308215950203,0.4108469837489989,0.6899731480680029,0.13956308215950203,0.46881174395093694,1,4,6,2,8,3,nan,nan,nan,nan,nan,nan,nan,nan,nan,nan,nan,nan,0.0,nan,nan,nan,nan,nan,nan,nan,nan,nan,nan,nan,nan,nan,nan,nan,nan,nan,nan,5418.970691330847,5747.5103605117765,nan,5748.04209748155,nan,nan,nan,nan
1,174,1,1,1.0,1.0,0.4986436582985334,0,0.0,0.0,0.0,0.5502847431156466,0.1391023166914415,0.4111824264242051,0.689387059807088,0.1391023166914415,0.502436378330458,4,6,1,0,3,7,nan,nan,nan,nan,nan,nan,nan,nan,nan,nan,nan,nan,0.0,nan,nan,nan,nan,nan,nan,nan,nan,nan,nan,nan,nan,nan,nan,nan,nan,nan,nan,5418.970691330847,5748.535460886778,nan,5749.034104545077,nan,nan,nan,nan
1,175,1,1,1.0,1.0,0.5215311222709715,0,0.0,0.0,0.0,0.5499404692168658,0.13870154396625553,0.41123892525061023,0.6886420131831213,0.13870154396625553,0.5173039167808989,2,1,0,3,6,4,nan,nan,nan,nan,nan,nan,nan,nan,nan,nan,nan,nan,0.0,nan,nan,nan,nan,nan,nan,nan,nan,nan,nan,nan,nan,nan,nan,nan,nan,nan,nan,5418.970691330847,5749.560567533888,nan,5750.082098656159,nan,nan,nan,nan
1,176,1,1,1.0,1.0,0.5843550442368723,0,0.0,0.0,0.0,0.5497523278463632,0.13826070706449023,0.41149162078187296,0.6880130349108534,0.13826070706449023,0.5348432749354591,4,7,3,2,5,8,nan,nan,nan,nan,nan,nan,nan,nan,nan,nan,nan,nan,0.0,nan,nan,nan,nan,nan,nan,nan,nan,nan,nan,nan,nan,nan,nan,nan,nan,nan,nan,5418.970691330847,5750.585702975572,nan,5751.1700580198085,nan,nan,nan,nan
1,177,1,1,1.0,1.0,0.6231613837298937,0,0.0,0.0,0.0,0.5499799772963008,0.13783354190133368,0.4121464353949671,0.6878135191976344,0.13783354190133368,0.5763491834125792,8,4,5,0,3,2,nan,nan,nan,nan,nan,nan,nan,nan,nan,nan,nan,nan,0.0,nan,nan,nan,nan,nan,nan,nan,nan,nan,nan,nan,nan,nan,nan,nan,nan,nan,nan,5418.970691330847,5751.6108589441865,nan,5752.234020327916,nan,nan,nan,nan
1,178,0,0,0.0,1.0,0.7740207897149958,0,0.0,0.0,0.0,0.550458287142272,0.13750887021576583,0.4129494169265061,0.6879671573580378,0.13750887021576583,0.6605124058939206,3,0,4,6,7,1,nan,nan,nan,nan,nan,nan,nan,nan,nan,nan,nan,nan,0.0,nan,nan,nan,nan,nan,nan,nan,nan,nan,nan,nan,nan,nan,nan,nan,nan,nan,nan,5418.970691330847,5752.635983267217,nan,5753.410004056932,nan,nan,nan,nan
1,179,1,1,1.0,1.0,0.49291038850788027,0,0.0,0.0,0.0,0.5519099917044324,0.13823293728149094,0.4136770544229415,0.6901429289859233,0.13823293728149094,0.6300308539842566,0,3,2,4,1,5,nan,nan,nan,nan,nan,nan,nan,nan,nan,nan,nan,nan,0.0,nan,nan,nan,nan,nan,nan,nan,nan,nan,nan,nan,nan,nan,nan,nan,nan,nan,nan,5418.970691330847,5753.661074519157,nan,5754.153984907665,nan,nan,nan,nan
1,180,1,1,1.0,1.0,0.4837277486221865,0,0.0,0.0,0.0,0.5515293491031644,0.13786724838872336,0.4136621007144411,0.6893965974918878,0.13786724838872336,0.5835529756150208,7,4,1,8,6,0,nan,nan,nan,nan,nan,nan,nan,nan,nan,nan,nan,nan,0.0,nan,nan,nan,nan,nan,nan,nan,nan,nan,nan,nan,nan,nan,nan,nan,nan,nan,nan,5418.970691330847,5754.686223645462,nan,5755.169951394084,nan,nan,nan,nan
1,181,0,0,0.0,1.0,0.4825799543177709,0,0.0,0.0,0.0,0.5510947234590555,0.13753114347411866,0.41356357998493687,0.6886258669331742,0.13753114347411866,0.48640603048261255,8,6,3,2,1,4,nan,nan,nan,nan,nan,nan,nan,nan,nan,nan,nan,nan,0.0,nan,nan,nan,nan,nan,nan,nan,nan,nan,nan,nan,nan,nan,nan,nan,nan,nan,nan,5418.970691330847,5755.711339415575,nan,5756.193919369893,nan,nan,nan,nan
1,182,1,1,1.0,1.0,0.40943557652644813,0,0.0,0.0,0.0,0.5506583236556079,0.1372007590391735,0.41345756461643435,0.6878590826947814,0.1372007590391735,0.4585810931554685,3,4,1,8,7,5,nan,nan,nan,nan,nan,nan,nan,nan,nan,nan,nan,nan,0.0,nan,nan,nan,nan,nan,nan,nan,nan,nan,nan,nan,nan,nan,nan,nan,nan,nan,nan,5418.970691330847,5756.736470010714,nan,5757.14590558724,nan,nan,nan,nan
1,183,1,1,1.0,1.0,0.46428651869064197,0,0.0,0.0,0.0,0.5497645088003601,0.13722367441200164,0.4125408343883584,0.6869881832123618,0.13722367441200164,0.452100683178287,5,6,4,3,0,2,nan,nan,nan,nan,nan,nan,nan,nan,nan,nan,nan,nan,0.0,nan,nan,nan,nan,nan,nan,nan,nan,nan,nan,nan,nan,nan,nan,nan,nan,nan,nan,5418.970691330847,5757.761596614437,nan,5758.225883133127,nan,nan,nan,nan
1,184,1,1,1.0,1.0,0.5511351503082551,0,0.0,0.0,0.0,0.5492269113782864,0.13695828110762254,0.41226863027066385,0.6861851924859089,0.13695828110762254,0.47495241517511505,0,8,6,1,2,3,nan,nan,nan,nan,nan,nan,nan,nan,nan,nan,nan,nan,0.0,nan,nan,nan,nan,nan,nan,nan,nan,nan,nan,nan,nan,nan,nan,nan,nan,nan,nan,5418.970691330847,5758.786716375966,nan,5759.337851526274,nan,nan,nan,nan
1,185,1,1,1.0,1.0,0.5499907771591097,0,0.0,0.0,0.0,0.5492388378715987,0.1365296984653428,0.41270913940625586,0.6857685363369415,0.1365296984653428,0.5218041487193356,2,3,4,7,5,6,nan,nan,nan,nan,nan,nan,nan,nan,nan,nan,nan,nan,0.0,nan,nan,nan,nan,nan,nan,nan,nan,nan,nan,nan,nan,nan,nan,nan,nan,nan,nan,5418.970691330847,5759.811835852335,nan,5760.361826629494,nan,nan,nan,nan
1,186,1,1,1.0,1.0,0.4288557094987482,0,0.0,0.0,0.0,0.5492435083019559,0.13610504556587696,0.4131384627360789,0.6853485538678329,0.13610504556587696,0.5099938789887043,8,6,2,0,3,1,nan,nan,nan,nan,nan,nan,nan,nan,nan,nan,nan,nan,0.0,nan,nan,nan,nan,nan,nan,nan,nan,nan,nan,nan,nan,nan,nan,nan,nan,nan,nan,5418.970691330847,5760.836948486394,nan,5761.265804195893,nan,nan,nan,nan
1,187,1,1,1.0,1.0,0.4436863756272942,0,0.0,0.0,0.0,0.5485003737414422,0.1360115665414029,0.41248880720003933,0.6845119402828451,0.1360115665414029,0.4741776207617174,1,4,3,5,8,6,nan,nan,nan,nan,nan,nan,nan,nan,nan,nan,nan,nan,0.0,nan,nan,nan,nan,nan,nan,nan,nan,nan,nan,nan,nan,nan,nan,nan,nan,nan,nan,5418.970691330847,5761.862089630042,nan,5762.305776005669,nan,nan,nan,nan
1,188,1,1,1.0,1.0,0.4025391172035597,0,0.0,0.0,0.0,0.5478573430781652,0.1358404934644281,0.41201684961373714,0.6836978365425934,0.1358404934644281,0.4250270674432007,6,7,1,8,0,3,nan,nan,nan,nan,nan,nan,nan,nan,nan,nan,nan,nan,0.0,nan,nan,nan,nan,nan,nan,nan,nan,nan,nan,nan,nan,nan,nan,nan,nan,nan,nan,5418.970691330847,5762.887205685314,nan,5763.289744802518,nan,nan,nan,nan
1,189,0,0,0.0,1.0,0.5373778686625883,0,0.0,0.0,0.0,0.5469712563350274,0.13589739869810075,0.41107385763692667,0.6828686550331282,0.13589739869810075,0.4612011204978141,5,0,6,2,8,4,nan,nan,nan,nan,nan,nan,nan,nan,nan,nan,nan,nan,0.0,nan,nan,nan,nan,nan,nan,nan,nan,nan,nan,nan,nan,nan,nan,nan,nan,nan,nan,5418.970691330847,5763.912330578489,nan,5764.449708447151,nan,nan,nan,nan
1,190,1,1,1.0,1.0,0.6642339470563456,0,0.0,0.0,0.0,0.5469131145915581,0.13548700849870352,0.41142610609285457,0.6824001230902617,0.13548700849870352,0.5347169776408313,6,7,8,3,0,5,nan,nan,nan,nan,nan,nan,nan,nan,nan,nan,nan,nan,0.0,nan,nan,nan,nan,nan,nan,nan,nan,nan,nan,nan,nan,nan,nan,nan,nan,nan,nan,5418.970691330847,5764.937430098187,nan,5765.6016640452435,nan,nan,nan,nan
1,191,1,1,1.0,1.0,0.743084795656614,0,0.0,0.0,0.0,0.547619866594358,0.13538302699816812,0.4122368395961899,0.6830028935925261,0.13538302699816812,0.6482322037918493,3,0,6,4,8,2,nan,nan,nan,nan,nan,nan,nan,nan,nan,nan,nan,nan,0.0,nan,nan,nan,nan,nan,nan,nan,nan,nan,nan,nan,nan,nan,nan,nan,nan,nan,nan,5418.970691330847,5765.962552140409,nan,5766.705636936065,nan,nan,nan,nan
1,192,1,1,1.0,1.0,0.669929584255442,0,0.0,1.0,0.0,0.5487903152713776,0.1358168761107071,0.4129734391606704,0.6846071913820847,0.1358168761107071,0.6924161089894673,5,8,7,2,1,6,nan,nan,nan,nan,nan,nan,nan,nan,nan,nan,nan,nan,0.0,nan,nan,nan,nan,nan,nan,nan,nan,nan,nan,nan,nan,nan,nan,nan,nan,nan,nan,5418.970691330847,5766.987675608136,nan,5767.657605192391,nan,nan,nan,nan
1,193,1,1,nan,nan,nan,0,0.0,0.0,0.0,0.5495113823486636,0.13573228976910603,0.4137790925795576,0.6852436721177696,0.13573228976910603,0.706507189956028,6,2,8,1,3,4,nan,nan,nan,nan,nan,nan,nan,nan,nan,nan,nan,nan,0.0,nan,nan,nan,nan,nan,nan,nan,nan,nan,nan,nan,nan,nan,nan,nan,nan,nan,nan,5418.970691330847,5768.012806488317,nan,nan,nan,nan,nan,nan
1,194,1,1,1.0,1.0,0.5796216041781008,0,0.0,0.0,0.0,0.5495113823486636,0.13573228976910603,0.4137790925795576,0.6852436721177696,0.13573228976910603,0.6247755942167714,5,0,6,4,7,1,nan,nan,nan,nan,nan,nan,nan,nan,nan,nan,nan,nan,0.0,nan,nan,nan,nan,nan,nan,nan,nan,nan,nan,nan,nan,nan,nan,nan,nan,nan,nan,5418.970691330847,5769.037919407536,nan,5769.617541011714,nan,nan,nan,nan
1,195,1,1,nan,nan,nan,0,0.0,0.0,0.0,0.5496895493417372,0.1353498210195257,0.4143397283222115,0.685039370361263,0.1353498210195257,0.5796216041781008,3,1,4,0,6,2,nan,nan,nan,nan,nan,nan,nan,nan,nan,nan,nan,nan,0.0,nan,nan,nan,nan,nan,nan,nan,nan,nan,nan,nan,nan,nan,nan,nan,nan,nan,nan,5418.970691330847,5770.063030331046,nan,nan,nan,nan,nan,nan
1,196,1,1,1.0,1.0,0.7533254247973673,0,0.0,0.0,0.0,0.5496895493417372,0.1353498210195257,0.4143397283222115,0.685039370361263,0.1353498210195257,0.6664735144877341,5,4,2,1,8,3,nan,nan,nan,nan,nan,nan,nan,nan,nan,nan,nan,nan,0.0,nan,nan,nan,nan,nan,nan,nan,nan,nan,nan,nan,nan,nan,nan,nan,nan,nan,nan,5418.970691330847,5771.088159215578,nan,5771.841484640376,nan,nan,nan,nan
1,197,1,1,nan,nan,nan,0,0.0,0.0,0.0,0.5508874074326526,0.1358466189006286,0.41504078853202403,0.6867340263332813,0.1358466189006286,0.7533254247973673,7,8,4,3,5,6,nan,nan,nan,nan,nan,nan,nan,nan,nan,nan,nan,nan,0.0,nan,nan,nan,nan,nan,nan,nan,nan,nan,nan,nan,nan,nan,nan,nan,nan,nan,nan,5418.970691330847,5772.11329009576,nan,nan,nan,nan,nan,nan
1,198,1,1,1.0,1.0,0.7910441251005977,0,0.0,0.0,0.0,0.5508874074326526,0.1358466189006286,0.41504078853202403,0.6867340263332813,0.1358466189006286,0.7721847749489825,6,1,8,0,2,4,nan,nan,nan,nan,nan,nan,nan,nan,nan,nan,nan,nan,0.0,nan,nan,nan,nan,nan,nan,nan,nan,nan,nan,nan,nan,nan,nan,nan,nan,nan,nan,5418.970691330847,5773.138396457769,nan,5773.92944058287,nan,nan,nan,nan
1,199,1,1,1.0,1.0,0.7099105170927942,0,0.0,0.0,0.0,0.5522918326821729,0.13668099249322296,0.4156108401889499,0.6889728251753958,0.13668099249322296,0.750477321096696,5,4,2,3,0,8,nan,nan,nan,nan,nan,nan,nan,nan,nan,nan,nan,nan,0.0,nan,nan,nan,nan,nan,nan,nan,nan,nan,nan,nan,nan,nan,nan,nan,nan,nan,nan,5418.970691330847,5774.163515934139,nan,5774.873426451231,nan,nan,nan,nan
1,200,1,1,1.0,1.0,0.7890980634838343,0,0.0,1.0,0.0,0.5532082203822346,0.1368089151623596,0.416399305219875,0.6900171355445942,0.1368089151623596,0.7633509018924087,7,8,4,6,5,2,nan,nan,nan,nan,nan,nan,nan,nan,nan,nan,nan,nan,0.0,nan,nan,nan,nan,nan,nan,nan,nan,nan,nan,nan,nan,nan,nan,nan,nan,nan,nan,5418.970691330847,5775.180325732974,nan,5775.969423796458,nan,nan,nan,nan
1,201,1,1,1.0,1.0,0.7879474181099795,1,0.0,0.0,1.0,0.554571745486868,0.1375800599385155,0.41699168554835253,0.6921518054253836,0.1375800599385155,0.7623186662288693,6,3,8,2,0,1,1.0,1.0,1.0,1.0,1.0,1.0,1.0,1.0,0.0,1.0,1.0,0.0,4.0,6.0,3.0,5.0,2.0,0.0,5.0,3.0,5.0,6.0,2.0,1.0,4.0,4.2615602648002096,6.253069836704526,7.060606164333876,3.1747367214993574,2.309672975563444,5.213840130483732,5418.970691330847,5776.20542724838,5777.013842240151,5776.99337466649,5785.139838185569,5786.136617176991,5778.038967703527,5785.13150513015
1,202,1,1,nan,nan,nan,0,0.0,0.0,0.0,0.5559129849847021,0.13831378623154847,0.41759919875315366,0.6942267712162505,0.13831378623154847,0.7885227407969069,4,8,2,6,1,0,nan,nan,nan,nan,nan,nan,nan,nan,nan,nan,nan,nan,0.0,nan,nan,nan,nan,nan,nan,nan,nan,nan,nan,nan,nan,nan,nan,nan,nan,nan,nan,5418.970691330847,5786.356662980397,nan,nan,nan,nan,nan,nan
1,203,1,1,1.0,1.0,0.659586320805829,0,0.0,0.0,0.0,0.5559129849847021,0.13831378623154847,0.41759919875315366,0.6942267712162505,0.13831378623154847,0.7237668694579042,7,3,0,8,4,5,nan,nan,nan,nan,nan,nan,nan,nan,nan,nan,nan,nan,0.0,nan,nan,nan,nan,nan,nan,nan,nan,nan,nan,nan,nan,nan,nan,nan,nan,nan,nan,5418.970691330847,5787.373491310456,nan,5788.033077631262,nan,nan,nan,nan
1,204,1,1,1.0,1.0,0.5148433528956957,0,0.0,0.0,0.0,0.556505404046537,0.13813924951370862,0.41836615453282844,0.6946446535602456,0.13813924951370862,0.5872148368507624,5,8,3,6,2,0,nan,nan,nan,nan,nan,nan,nan,nan,nan,nan,nan,nan,0.0,nan,nan,nan,nan,nan,nan,nan,nan,nan,nan,nan,nan,nan,nan,nan,nan,nan,nan,5418.970691330847,5788.390236677718,nan,5788.905080030614,nan,nan,nan,nan
1,205,1,1,1.0,1.0,0.4340213542454876,0,0.0,0.0,0.0,0.5562686878468164,0.13778183944152225,0.41848684840529415,0.6940505272883386,0.13778183944152225,0.5361503426490041,7,5,4,1,3,6,nan,nan,nan,nan,nan,nan,nan,nan,nan,nan,nan,nan,0.0,nan,nan,nan,nan,nan,nan,nan,nan,nan,nan,nan,nan,nan,nan,nan,nan,nan,nan,5418.970691330847,5789.407020817976,nan,5789.841042172222,nan,nan,nan,nan
1,206,1,1,1.0,1.0,0.3212067977292463,0,0.0,0.0,0.0,0.555578024945114,0.13769726451941616,0.41788076042569783,0.6932752894645302,0.13769726451941616,0.4233571682901432,5,0,7,3,8,1,nan,nan,nan,nan,nan,nan,nan,nan,nan,nan,nan,nan,0.0,nan,nan,nan,nan,nan,nan,nan,nan,nan,nan,nan,nan,nan,nan,nan,nan,nan,nan,5418.970691330847,5790.423807238985,nan,5790.745014036715,nan,nan,nan,nan
1,207,1,1,1.0,1.0,0.3283803698141128,0,1.0,0.0,0.0,0.5542613326573844,0.13842282288710808,0.41583850977027637,0.6926841555444925,0.13842282288710808,0.3612028405962822,2,5,1,8,7,3,nan,nan,nan,nan,nan,nan,nan,nan,nan,nan,nan,nan,0.0,nan,nan,nan,nan,nan,nan,nan,nan,nan,nan,nan,nan,nan,nan,nan,nan,nan,nan,5418.970691330847,5791.440600787406,nan,5791.76898115722,nan,nan,nan,nan
1,208,1,1,1.0,1.0,0.4075556570314802,1,0.0,0.0,1.0,0.5529994278370309,0.13905855513957308,0.41394087269745783,0.692057982976604,0.13905855513957308,0.3523809415249464,5,6,7,2,0,8,1.0,1.0,1.0,1.0,1.0,1.0,1.0,0.0,0.0,1.0,0.0,1.0,3.0,5.0,1.0,8.0,2.0,3.0,8.0,4.0,5.0,6.0,2.0,3.0,1.0,4.249184840766247,5.865244496439118,6.4969265282852575,2.097718181379605,3.160905885102693,1.2103522724937648,5418.970691330847,5792.4573946209275,5793.2657919367775,5792.864950277959,5800.808390758699,5801.814224382106,5794.274273526913,5800.800053712039
1,209,1,1,1.0,1.0,0.4791722081718035,0,0.0,0.0,0.0,0.5521914068881112,0.13909249127920353,0.41309891560890766,0.6912838981673147,0.13909249127920353,0.4050360783391322,7,8,4,6,1,0,nan,nan,nan,nan,nan,nan,nan,nan,nan,nan,nan,nan,0.0,nan,nan,nan,nan,nan,nan,nan,nan,nan,nan,nan,nan,nan,nan,nan,nan,nan,nan,5418.970691330847,5802.03356714017,nan,5802.512739348342,nan,nan,nan,nan
1,210,1,1,1.0,1.0,0.48601164837600663,0,0.0,0.0,0.0,0.5517879859007283,0.13881328429570666,0.41297470160502164,0.690601270196435,0.13881328429570666,0.45757983785976347,4,0,2,5,8,1,nan,nan,nan,nan,nan,nan,nan,nan,nan,nan,nan,nan,0.0,nan,nan,nan,nan,nan,nan,nan,nan,nan,nan,nan,nan,nan,nan,nan,nan,nan,nan,5418.970691330847,5803.05869345885,nan,5803.544705107226,nan,nan,nan,nan
1,211,1,1,1.0,1.0,0.4292123639024794,0,0.0,0.0,0.0,0.5514265774527902,0.13851676821181655,0.41290980924097365,0.6899433456646068,0.13851676821181655,0.46479874015009653,0,6,4,1,7,5,nan,nan,nan,nan,nan,nan,nan,nan,nan,nan,nan,nan,0.0,nan,nan,nan,nan,nan,nan,nan,nan,nan,nan,nan,nan,nan,nan,nan,nan,nan,nan,5418.970691330847,5804.075472467346,nan,5804.504684831249,nan,nan,nan,nan
1,212,0,0,0.0,1.0,0.6280499156564474,0,0.0,0.0,0.0,0.5507587402202748,0.13843128927467582,0.412327450945599,0.6891900294949507,0.13843128927467582,0.5144246426449778,6,8,3,5,1,7,nan,nan,nan,nan,nan,nan,nan,nan,nan,nan,nan,nan,0.0,nan,nan,nan,nan,nan,nan,nan,nan,nan,nan,nan,nan,nan,nan,nan,nan,nan,nan,5418.970691330847,5805.1005662851385,nan,5805.728616200795,nan,nan,nan,nan
1,213,1,1,1.0,1.0,0.43523586087394506,0,0.0,0.0,0.0,0.5511788009563411,0.13817150372791714,0.41300729722842394,0.6893503046842582,0.13817150372791714,0.4974993801442906,5,3,0,1,4,6,nan,nan,nan,nan,nan,nan,nan,nan,nan,nan,nan,nan,0.0,nan,nan,nan,nan,nan,nan,nan,nan,nan,nan,nan,nan,nan,nan,nan,nan,nan,nan,5418.970691330847,5806.117360403761,nan,5806.552596264635,nan,nan,nan,nan
1,214,1,1,1.0,1.0,0.37009553832467645,0,0.0,0.0,0.0,0.550552082361301,0.13805954765316303,0.412492534708138,0.688611630014464,0.13805954765316303,0.4777937716183563,6,8,4,2,7,1,nan,nan,nan,nan,nan,nan,nan,nan,nan,nan,nan,nan,0.0,nan,nan,nan,nan,nan,nan,nan,nan,nan,nan,nan,nan,nan,nan,nan,nan,nan,nan,5418.970691330847,5807.142483871488,nan,5807.512579409813,nan,nan,nan,nan
1,215,1,1,1.0,1.0,0.3692750335903838,0,1.0,0.0,0.0,0.5495818858879858,0.13831883545901522,0.4112630504289706,0.6879007213470011,0.13831883545901522,0.3915354775963351,7,0,5,1,8,2,nan,nan,nan,nan,nan,nan,nan,nan,nan,nan,nan,nan,0.0,nan,nan,nan,nan,nan,nan,nan,nan,nan,nan,nan,nan,nan,nan,nan,nan,nan,nan,5418.970691330847,5808.159269437194,nan,5808.528544470784,nan,nan,nan,nan
1,216,1,1,1.0,1.0,0.32846817921381444,1,0.0,0.0,1.0,0.5486176781216885,0.1385738543771453,0.4100438237445432,0.6871915324988338,0.1385738543771453,0.3559462503762916,3,5,0,6,7,8,1.0,1.0,1.0,1.0,1.0,1.0,0.0,0.0,0.0,0.0,0.0,0.0,0.0,4.0,0.0,5.0,5.0,8.0,2.0,4.0,2.0,3.0,1.0,6.0,5.0,4.713743625616189,2.5294524998171255,3.402293650084175,1.1962617142125964,6.521184446231928,5.786001641594339,5418.970691330847,5809.176058709156,5809.984462582215,5809.50452688837,5817.560401038092,5818.568200964946,5811.001270385401,5817.5520682678325
1,217,0,0,1.0,0.0,0.5827177409082651,0,0.0,0.0,0.0,0.5474466701487744,0.13912942386379776,0.40831724628497656,0.6865760940125721,0.13912942386379776,0.4268203179041545,2,0,6,3,5,7,nan,nan,nan,nan,nan,nan,nan,nan,nan,nan,nan,nan,0.0,nan,nan,nan,nan,nan,nan,nan,nan,nan,nan,nan,nan,nan,nan,nan,nan,nan,nan,5418.970691330847,5818.785557462892,nan,5819.3682752038,nan,nan,nan,nan
1,218,1,1,1.0,1.0,0.5019020144245587,0,0.0,0.0,0.0,0.5476332895707822,0.13878445897633815,0.408848830594444,0.6864177485471203,0.13878445897633815,0.4710293115155461,8,4,0,2,6,5,nan,nan,nan,nan,nan,nan,nan,nan,nan,nan,nan,nan,0.0,nan,nan,nan,nan,nan,nan,nan,nan,nan,nan,nan,nan,nan,nan,nan,nan,nan,nan,5418.970691330847,5819.802349015605,nan,5820.304251030029,nan,nan,nan,nan
1,219,1,1,1.0,1.0,0.33308244933141395,0,0.0,0.0,0.0,0.54739259864896,0.13845830013530014,0.4089342985136598,0.6858508987842601,0.13845830013530014,0.4725674015547459,6,0,7,5,2,1,nan,nan,nan,nan,nan,nan,nan,nan,nan,nan,nan,nan,0.0,nan,nan,nan,nan,nan,nan,nan,nan,nan,nan,nan,nan,nan,nan,nan,nan,nan,nan,5418.970691330847,5820.819148265931,nan,5821.152230715263,nan,nan,nan,nan
1,220,1,1,1.0,1.0,0.41229593934258446,0,0.0,0.0,0.0,0.546270555982376,0.1389587595884879,0.40731179639388804,0.6852293155708639,0.1389587595884879,0.4157601343661857,0,8,4,1,7,6,nan,nan,nan,nan,nan,nan,nan,nan,nan,nan,nan,nan,0.0,nan,nan,nan,nan,nan,nan,nan,nan,nan,nan,nan,nan,nan,nan,nan,nan,nan,nan,5418.970691330847,5821.835911879316,nan,5822.248207818659,nan,nan,nan,nan
1,221,1,1,1.0,1.0,0.37111760559491813,0,1.0,0.0,0.0,0.5455727715207104,0.13893151141642682,0.4066412601042836,0.6845042829371372,0.13893151141642682,0.3721653314229722,4,7,5,2,0,1,nan,nan,nan,nan,nan,nan,nan,nan,nan,nan,nan,nan,0.0,nan,nan,nan,nan,nan,nan,nan,nan,nan,nan,nan,nan,nan,nan,nan,nan,nan,nan,5418.970691330847,5822.861068418075,nan,5823.23218602367,nan,nan,nan,nan
1,222,1,1,1.0,1.0,0.41831744072260335,1,0.0,0.0,1.0,0.5446688587438928,0.13913601215703275,0.40553284658686006,0.6838048709009256,0.13913601215703275,0.4005769952200353,6,3,0,8,5,7,1.0,1.0,1.0,1.0,1.0,1.0,0.0,0.0,0.0,1.0,0.0,0.0,1.0,2.0,5.0,3.0,8.0,1.0,5.0,4.0,3.0,2.0,1.0,6.0,5.0,8.059061802108772,6.70811926224269,5.4679266175371595,4.691278102924116,10.690658020263072,9.299148676451296,5418.970691330847,5823.877846571326,5824.686258141999,5824.296164012048,5836.437638930627,5837.443722582771,5825.7114018514985,5836.429304734862
1,223,1,1,1.0,1.0,0.6249341073562391,0,0.0,0.0,0.0,0.5440175627747109,0.13907160054769963,0.4049459622270113,0.6830891633224105,0.13907160054769963,0.4714563845579202,7,8,2,1,3,0,nan,nan,nan,nan,nan,nan,nan,nan,nan,nan,nan,nan,0.0,nan,nan,nan,nan,nan,nan,nan,nan,nan,nan,nan,nan,nan,nan,nan,nan,nan,nan,5418.970691330847,5837.662820158643,nan,5838.287754265999,nan,nan,nan,nan
1,224,1,1,1.0,1.0,0.6401619113748893,0,0.0,0.0,0.0,0.5444325194135905,0.138834904087572,0.4055976153260185,0.6832674235011624,0.138834904087572,0.5611378198179106,4,6,7,8,0,5,nan,nan,nan,nan,nan,nan,nan,nan,nan,nan,nan,nan,0.0,nan,nan,nan,nan,nan,nan,nan,nan,nan,nan,nan,nan,nan,nan,nan,nan,nan,nan,5418.970691330847,5838.6795974566485,nan,5839.319759368023,nan,nan,nan,nan
1,225,1,1,1.0,1.0,0.5670061298296787,0,0.0,0.0,0.0,0.5449209346786992,0.13864813463174347,0.4062728000469557,0.6835690693104426,0.13864813463174347,0.6107007161869357,5,3,0,7,1,8,nan,nan,nan,nan,nan,nan,nan,nan,nan,nan,nan,nan,0.0,nan,nan,nan,nan,nan,nan,nan,nan,nan,nan,nan,nan,nan,nan,nan,nan,nan,nan,5418.970691330847,5839.704724630574,nan,5840.271730760403,nan,nan,nan,nan
1,226,1,1,1.0,1.0,0.5262266446370631,0,0.0,0.0,0.0,0.5450330422682981,0.13830469390847105,0.406728348359827,0.6833377361767692,0.13830469390847105,0.5777982286138771,0,4,5,1,8,6,nan,nan,nan,nan,nan,nan,nan,nan,nan,nan,nan,nan,0.0,nan,nan,nan,nan,nan,nan,nan,nan,nan,nan,nan,nan,nan,nan,nan,nan,nan,nan,5418.970691330847,5840.721502213622,nan,5841.2477288582595,nan,nan,nan,nan
1,227,1,1,1.0,1.0,0.41338842519326136,0,0.0,0.0,0.0,0.5449380604620797,0.13796143877650452,0.4069766216855752,0.6828994992385842,0.13796143877650452,0.5022070665533344,1,8,3,6,7,4,nan,nan,nan,nan,nan,nan,nan,nan,nan,nan,nan,nan,0.0,nan,nan,nan,nan,nan,nan,nan,nan,nan,nan,nan,nan,nan,nan,nan,nan,nan,nan,5418.970691330847,5841.73829291109,nan,5842.151681336283,nan,nan,nan,nan
1,228,1,1,1.0,1.0,0.42823477159254253,0,0.0,0.0,0.0,0.5442770070185178,0.13792837967215132,0.40634862734636645,0.6822053866906691,0.13792837967215132,0.45594994714095566,0,5,6,7,1,3,nan,nan,nan,nan,nan,nan,nan,nan,nan,nan,nan,nan,0.0,nan,nan,nan,nan,nan,nan,nan,nan,nan,nan,nan,nan,nan,nan,nan,nan,nan,nan,5418.970691330847,5842.763432629232,nan,5843.191667400824,nan,nan,nan,nan
1,229,0,0,0.0,1.0,0.47539754427270964,0,0.0,0.0,0.0,0.543696795841388,0.13782637297118944,0.40587042287019853,0.6815231688125774,0.13782637297118944,0.4390069136861712,6,8,3,1,2,7,nan,nan,nan,nan,nan,nan,nan,nan,nan,nan,nan,nan,0.0,nan,nan,nan,nan,nan,nan,nan,nan,nan,nan,nan,nan,nan,nan,nan,nan,nan,nan,5418.970691330847,5843.780238436768,nan,5844.2556359810405,nan,nan,nan,nan
1,230,1,1,1.0,1.0,0.4026944942306727,0,0.0,0.0,0.0,0.5433569985699019,0.13756705099016384,0.4057899475797381,0.6809240495600658,0.13756705099016384,0.43544227003197494,1,6,7,4,8,3,nan,nan,nan,nan,nan,nan,nan,nan,nan,nan,nan,nan,0.0,nan,nan,nan,nan,nan,nan,nan,nan,nan,nan,nan,nan,nan,nan,nan,nan,nan,nan,5418.970691330847,5844.797019726073,nan,5845.199714220304,nan,nan,nan,nan
1,231,1,1,1.0,1.0,0.4014238237286918,0,0.0,0.0,0.0,0.5426606495385197,0.13758078431681642,0.40507986522170325,0.6802414338553361,0.13758078431681642,0.4265052874106914,8,3,0,2,1,5,nan,nan,nan,nan,nan,nan,nan,nan,nan,nan,nan,nan,0.0,nan,nan,nan,nan,nan,nan,nan,nan,nan,nan,nan,nan,nan,nan,nan,nan,nan,nan,5418.970691330847,5845.822134640941,nan,5846.22355846467,nan,nan,nan,nan
1,232,1,1,1.0,1.0,0.40060588490450755,0,1.0,0.0,0.0,0.5419649016281264,0.1375972734795985,0.4043676281485279,0.6795621751077249,0.1375972734795985,0.40157473428795737,3,7,8,0,2,4,nan,nan,nan,nan,nan,nan,nan,nan,nan,nan,nan,nan,0.0,nan,nan,nan,nan,nan,nan,nan,nan,nan,nan,nan,nan,nan,nan,nan,nan,nan,nan,5418.970691330847,5846.83892533835,nan,5847.239531223255,nan,nan,nan,nan
1,233,1,1,1.0,1.0,0.4237949798698537,1,0.0,0.0,1.0,0.5412719652716381,0.13761421961157919,0.40365774566005896,0.6788861848832173,0.13761421961157919,0.40860822950101766,1,4,2,5,6,8,1.0,1.0,1.0,1.0,1.0,1.0,1.0,0.0,0.0,1.0,0.0,1.0,3.0,1.0,2.0,5.0,5.0,3.0,8.0,2.0,5.0,6.0,1.0,4.0,3.0,2.377378302044235,9.552252154389862,10.392031353665516,1.2905755707179196,6.273638904385734,3.6009336306597106,5418.970691330847,5847.855710619013,5848.6640982416575,5848.279505598883,5860.123806982418,5861.123940407066,5849.689313795185,5860.1154759227065
1,234,1,1,1.0,1.0,0.3945615759002976,0,0.0,0.0,0.0,0.5406989068062635,0.13752195217289676,0.4031769546333668,0.6782208589791603,0.13752195217289676,0.40632081355821964,3,7,1,2,8,4,nan,nan,nan,nan,nan,nan,nan,nan,nan,nan,nan,nan,0.0,nan,nan,nan,nan,nan,nan,nan,nan,nan,nan,nan,nan,nan,nan,nan,nan,nan,nan,5418.970691330847,5861.340658291185,nan,5861.735219867085,nan,nan,nan,nan
1,235,1,1,1.0,1.0,0.3613479541381821,0,0.0,0.0,0.0,0.5399895022873026,0.1375632484988659,0.40242625378843666,0.6775527507861685,0.1375632484988659,0.39323483663611114,2,6,7,0,4,8,nan,nan,nan,nan,nan,nan,nan,nan,nan,nan,nan,nan,0.0,nan,nan,nan,nan,nan,nan,nan,nan,nan,nan,nan,nan,nan,nan,nan,nan,nan,nan,5418.970691330847,5862.365810268442,nan,5862.72715822258,nan,nan,nan,nan
1,236,1,1,1.0,1.0,0.344522760133259,0,1.0,0.0,0.0,0.5391264996392392,0.1377884324133387,0.4013380672259005,0.6769149320525779,0.1377884324133387,0.36681076339057955,1,0,8,3,7,6,nan,nan,nan,nan,nan,nan,nan,nan,nan,nan,nan,nan,0.0,nan,nan,nan,nan,nan,nan,nan,nan,nan,nan,nan,nan,nan,nan,nan,nan,nan,nan,5418.970691330847,5863.382602391357,nan,5863.72712515149,nan,nan,nan,nan
1,237,1,1,1.0,1.0,0.31975851272,1,0.0,0.0,1.0,0.5381909047377681,0.13811433619289332,0.4000765685448748,0.6763052409306614,0.13811433619289332,0.34187640899714705,3,8,6,1,2,0,1.0,1.0,1.0,1.0,1.0,1.0,0.0,0.0,0.0,1.0,0.0,0.0,1.0,8.0,3.0,2.0,1.0,0.0,6.0,2.0,3.0,4.0,1.0,5.0,6.0,2.211210694978945,3.393113290949259,4.505712315323763,1.1076209724415094,6.89637036412023,19.99240192072466,5418.970691330847,5864.399347758619,5865.2077901195735,5864.719106271339,5886.251948841382,5887.253269688634,5866.224580246839,5886.243619492219
1,238,1,1,1.0,1.0,0.46540751407155767,0,0.0,0.0,0.0,0.5371457736754821,0.13860554596327382,0.3985402277122083,0.6757513196387559,0.13860554596327382,0.37656292897493887,8,5,3,4,6,2,nan,nan,nan,nan,nan,nan,nan,nan,nan,nan,nan,nan,0.0,nan,nan,nan,nan,nan,nan,nan,nan,nan,nan,nan,nan,nan,nan,nan,nan,nan,nan,5418.970691330847,5887.477118095383,nan,5887.942525609455,nan,nan,nan,nan
1,239,0,0,0.0,1.0,0.6725621558143757,0,0.0,0.0,0.0,0.5368041629154634,0.13836330407457603,0.39844085884088737,0.6751674669900394,0.13836330407457603,0.4859093942019778,3,7,4,5,1,0,nan,nan,nan,nan,nan,nan,nan,nan,nan,nan,nan,nan,0.0,nan,nan,nan,nan,nan,nan,nan,nan,nan,nan,nan,nan,nan,nan,nan,nan,nan,nan,5418.970691330847,5888.4939113587025,nan,5889.166473514517,nan,nan,nan,nan
1,240,1,1,1.0,1.0,0.5437249490059912,0,0.0,0.0,0.0,0.5374475657254109,0.13834957625253283,0.399097989472878,0.6757971419779437,0.13834957625253283,0.5605648729639748,1,6,8,7,5,4,nan,nan,nan,nan,nan,nan,nan,nan,nan,nan,nan,nan,0.0,nan,nan,nan,nan,nan,nan,nan,nan,nan,nan,nan,nan,nan,nan,nan,nan,nan,nan,5418.970691330847,5889.510699775419,nan,5890.054424724425,nan,nan,nan,nan
1,241,1,1,1.0,1.0,0.7108869690564461,0,0.0,0.0,0.0,0.5374771760239042,0.13802356456004558,0.3994536114638586,0.6755007405839498,0.13802356456004558,0.6423913579589376,4,7,5,8,3,2,nan,nan,nan,nan,nan,nan,nan,nan,nan,nan,nan,nan,0.0,nan,nan,nan,nan,nan,nan,nan,nan,nan,nan,nan,nan,nan,nan,nan,nan,nan,nan,5418.970691330847,5890.527510429558,nan,5891.238397398614,nan,nan,nan,nan
1,242,1,1,1.0,1.0,0.5981114705791697,0,0.0,0.0,0.0,0.538291306507625,0.13820846854093044,0.4000828379666946,0.6764997750485555,0.13820846854093044,0.6175744628805356,5,1,3,6,0,7,nan,nan,nan,nan,nan,nan,nan,nan,nan,nan,nan,nan,0.0,nan,nan,nan,nan,nan,nan,nan,nan,nan,nan,nan,nan,nan,nan,nan,nan,nan,nan,5418.970691330847,5891.544270621787,nan,5892.1423820923665,nan,nan,nan,nan
1,243,1,1,1.0,1.0,0.5812737324158661,0,0.0,0.0,0.0,0.5385708399845949,0.13794551334735788,0.400625326637237,0.6765163533319527,0.13794551334735788,0.6300907240171606,2,8,7,1,3,0,nan,nan,nan,nan,nan,nan,nan,nan,nan,nan,nan,nan,0.0,nan,nan,nan,nan,nan,nan,nan,nan,nan,nan,nan,nan,nan,nan,nan,nan,nan,nan,5418.970691330847,5892.561067021103,nan,5893.1423407535185,nan,nan,nan,nan
1,244,1,1,1.0,1.0,0.5244641844183207,0,0.0,0.0,0.0,0.5387694580889264,0.13765500339152556,0.4011144546974008,0.676424461480452,0.13765500339152556,0.5679497958044522,5,6,1,2,0,4,nan,nan,nan,nan,nan,nan,nan,nan,nan,nan,nan,nan,0.0,nan,nan,nan,nan,nan,nan,nan,nan,nan,nan,nan,nan,nan,nan,nan,nan,nan,nan,5418.970691330847,5893.577849450812,nan,5894.1023136352305,nan,nan,nan,nan
1,245,1,1,1.0,1.0,0.43565267050871626,0,0.0,0.0,0.0,0.538703229970081,0.13733942112599784,0.4013638088440832,0.6760426510960789,0.13733942112599784,0.5137968624476343,3,7,4,8,6,1,nan,nan,nan,nan,nan,nan,nan,nan,nan,nan,nan,nan,0.0,nan,nan,nan,nan,nan,nan,nan,nan,nan,nan,nan,nan,nan,nan,nan,nan,nan,nan,5418.970691330847,5894.594644139579,nan,5895.030296810088,nan,nan,nan,nan
1,246,1,1,1.0,1.0,0.5228340085595846,0,0.0,0.0,0.0,0.5382283425992913,0.13720024158199906,0.40102810101729225,0.6754285841812904,0.13720024158199906,0.49431695449554053,0,6,3,7,8,2,nan,nan,nan,nan,nan,nan,nan,nan,nan,nan,nan,nan,0.0,nan,nan,nan,nan,nan,nan,nan,nan,nan,nan,nan,nan,nan,nan,nan,nan,nan,nan,5418.970691330847,5895.611429990444,nan,5896.134263999003,nan,nan,nan,nan
1,247,0,0,nan,nan,nan,0,0.0,0.0,0.0,0.5381577263881,0.13688915296348997,0.40126857342461003,0.67504687935159,0.13688915296348997,0.47924333953415044,7,4,2,1,0,8,nan,nan,nan,nan,nan,nan,nan,nan,nan,nan,nan,nan,0.0,nan,nan,nan,nan,nan,nan,nan,nan,nan,nan,nan,nan,nan,nan,nan,nan,nan,nan,5418.970691330847,5896.628217266698,nan,nan,nan,nan,nan,nan
1,248,1,1,1.0,1.0,0.6171692472416908,0,0.0,0.0,0.0,0.5381577263881,0.13688915296348997,0.40126857342461003,0.67504687935159,0.13688915296348997,0.5700016279006377,2,1,7,6,8,3,nan,nan,nan,nan,nan,nan,nan,nan,nan,nan,nan,nan,0.0,nan,nan,nan,nan,nan,nan,nan,nan,nan,nan,nan,nan,nan,nan,nan,nan,nan,nan,5418.970691330847,5897.645012525667,nan,5898.262181772909,nan,nan,nan,nan
1,249,1,1,1.0,1.0,0.5203881745692343,0,0.0,0.0,0.0,0.5385185095883447,0.13668010644118966,0.401838403147155,0.6751986160295343,0.13668010644118966,0.5687787109054625,5,7,2,4,1,8,nan,nan,nan,nan,nan,nan,nan,nan,nan,nan,nan,nan,0.0,nan,nan,nan,nan,nan,nan,nan,nan,nan,nan,nan,nan,nan,nan,nan,nan,nan,nan,5418.970691330847,5898.661813201499,nan,5899.182201376068,nan,nan,nan,nan
1,250,1,1,1.0,1.0,0.49557660130085424,0,0.0,0.0,0.0,0.5384360989746214,0.13637456928870542,0.402061529685916,0.6748106682633268,0.13637456928870542,0.5443780077039264,3,0,5,2,8,1,nan,nan,nan,nan,nan,nan,nan,nan,nan,nan,nan,nan,0.0,nan,nan,nan,nan,nan,nan,nan,nan,nan,nan,nan,nan,nan,nan,nan,nan,nan,nan,5418.970691330847,5899.678607605165,nan,5900.174184206466,nan,nan,nan,nan
1,251,1,1,1.0,1.0,0.3827814312535338,0,0.0,0.0,0.0,0.5382421645960072,0.1360960819321658,0.40214608266384133,0.674338246528173,0.1360960819321658,0.4662487357078741,6,3,7,0,1,8,nan,nan,nan,nan,nan,nan,nan,nan,nan,nan,nan,nan,0.0,nan,nan,nan,nan,nan,nan,nan,nan,nan,nan,nan,nan,nan,nan,nan,nan,nan,nan,5418.970691330847,5900.6953683675965,nan,5901.07814979885,nan,nan,nan,nan
1,252,1,1,1.0,1.0,0.3659576627542265,0,0.0,0.0,0.0,0.5375418910223924,0.13618768335865283,0.4013542076637395,0.6737295743810452,0.13618768335865283,0.4147718984362048,2,5,3,8,7,6,nan,nan,nan,nan,nan,nan,nan,nan,nan,nan,nan,nan,0.0,nan,nan,nan,nan,nan,nan,nan,nan,nan,nan,nan,nan,nan,nan,nan,nan,nan,nan,5418.970691330847,5901.712183298136,nan,5902.07814096089,nan,nan,nan,nan
1,253,0,0,0.0,1.0,0.4128284977050498,0,0.0,0.0,0.0,0.5367724550211899,0.13636475117899538,0.4004077038421945,0.6731372062001852,0.13636475117899538,0.38718919723760337,7,4,1,3,2,5,nan,nan,nan,nan,nan,nan,nan,nan,nan,nan,nan,nan,0.0,nan,nan,nan,nan,nan,nan,nan,nan,nan,nan,nan,nan,nan,nan,nan,nan,nan,nan,5418.970691330847,5902.7372893750435,nan,5903.1501178727485,nan,nan,nan,nan
1,254,1,1,1.0,1.0,0.3799849298084155,0,0.0,0.0,0.0,0.5362191337831713,0.13631069323043865,0.39990844055273267,0.67252982701361,0.13631069323043865,0.38625703008923057,8,2,0,1,6,3,nan,nan,nan,nan,nan,nan,nan,nan,nan,nan,nan,nan,0.0,nan,nan,nan,nan,nan,nan,nan,nan,nan,nan,nan,nan,nan,nan,nan,nan,nan,nan,5418.970691330847,5903.754098603735,nan,5904.134083533543,nan,nan,nan,nan
1,255,1,1,1.0,1.0,0.6111460353131406,0,0.0,0.0,0.0,0.5355247595432835,0.13640391296786586,0.39912084657541763,0.6719286725111493,0.13640391296786586,0.46798648760886863,4,1,8,6,0,2,nan,nan,nan,nan,nan,nan,nan,nan,nan,nan,nan,nan,0.0,nan,nan,nan,nan,nan,nan,nan,nan,nan,nan,nan,nan,nan,nan,nan,nan,nan,nan,5418.970691330847,5904.770906977064,nan,5905.382053012378,nan,nan,nan,nan
1,256,1,1,1.0,1.0,0.5623930001165718,0,0.0,0.0,0.0,0.5358593669581944,0.136194314841812,0.39966505211638237,0.6720536818000064,0.136194314841812,0.5178413217460426,7,4,3,0,2,5,nan,nan,nan,nan,nan,nan,nan,nan,nan,nan,nan,nan,0.0,nan,nan,nan,nan,nan,nan,nan,nan,nan,nan,nan,nan,nan,nan,nan,nan,nan,nan,5418.970691330847,5905.787640655413,nan,5906.35003365553,nan,nan,nan,nan
1,257,1,1,1.0,1.0,0.585544177389238,0,0.0,0.0,0.0,0.5359762552099934,0.13590535686428404,0.4000708983457093,0.6718816120742774,0.13590535686428404,0.5863610709396502,6,0,1,5,4,3,nan,nan,nan,nan,nan,nan,nan,nan,nan,nan,nan,nan,0.0,nan,nan,nan,nan,nan,nan,nan,nan,nan,nan,nan,nan,nan,nan,nan,nan,nan,nan,5418.970691330847,5906.8044638537685,nan,5907.390008031158,nan,nan,nan,nan
1,258,1,1,1.0,1.0,0.5367173025151715,0,0.0,0.0,0.0,0.5361936583774463,0.13564654453709263,0.40054711384035363,0.6718402029145389,0.13564654453709263,0.5615514933403271,5,2,7,8,0,6,nan,nan,nan,nan,nan,nan,nan,nan,nan,nan,nan,nan,0.0,nan,nan,nan,nan,nan,nan,nan,nan,nan,nan,nan,nan,nan,nan,nan,nan,nan,nan,5418.970691330847,5907.821249989676,nan,5908.3579672921915,nan,nan,nan,nan
1,259,0,0,nan,nan,nan,0,0.0,0.0,0.0,0.5361959450330696,0.13535005340725442,0.40084589162581513,0.671545998440324,0.13535005340725442,0.5611307399522047,4,1,5,7,2,8,nan,nan,nan,nan,nan,nan,nan,nan,nan,nan,nan,nan,0.0,nan,nan,nan,nan,nan,nan,nan,nan,nan,nan,nan,nan,nan,nan,nan,nan,nan,nan,5418.970691330847,5908.838050950551,nan,nan,nan,nan,nan,nan
1,260,1,1,1.0,1.0,0.5430273204110563,0,0.0,0.0,0.0,0.5361959450330696,0.13535005340725442,0.40084589162581513,0.671545998440324,0.13535005340725442,0.5398723114631139,0,3,8,6,5,2,nan,nan,nan,nan,nan,nan,nan,nan,nan,nan,nan,nan,0.0,nan,nan,nan,nan,nan,nan,nan,nan,nan,nan,nan,nan,nan,nan,nan,nan,nan,nan,5418.970691330847,5909.854845069174,nan,5910.397872389585,nan,nan,nan,nan
1,261,1,1,1.0,1.0,0.43831489188596606,0,0.0,0.0,0.0,0.5362256466651477,0.1350562415539949,0.40116940511115284,0.6712818882191426,0.1350562415539949,0.49067110614851117,1,8,4,2,7,3,nan,nan,nan,nan,nan,nan,nan,nan,nan,nan,nan,nan,0.0,nan,nan,nan,nan,nan,nan,nan,nan,nan,nan,nan,nan,nan,nan,nan,nan,nan,nan,5418.970691330847,5910.871588725888,nan,5911.309903617774,nan,nan,nan,nan
1,262,1,1,1.0,1.0,0.5814852732582949,0,0.0,0.0,0.0,0.5358017905838526,0.13491681490118343,0.4008849756826691,0.670718605485036,0.13491681490118343,0.5209424951851057,8,3,1,5,0,6,nan,nan,nan,nan,nan,nan,nan,nan,nan,nan,nan,nan,0.0,nan,nan,nan,nan,nan,nan,nan,nan,nan,nan,nan,nan,nan,nan,nan,nan,nan,nan,5418.970691330847,5911.888378282951,nan,5912.469863556209,nan,nan,nan,nan
1,263,1,1,1.0,1.0,0.46061733999522403,0,0.0,0.0,0.0,0.5359987021471044,0.134658993464379,0.4013397086827254,0.6706576956114835,0.134658993464379,0.49347250171316165,4,5,7,0,1,3,nan,nan,nan,nan,nan,nan,nan,nan,nan,nan,nan,nan,0.0,nan,nan,nan,nan,nan,nan,nan,nan,nan,nan,nan,nan,nan,nan,nan,nan,nan,nan,5418.970691330847,5912.9052003409015,nan,5913.365817680897,nan,nan,nan,nan
1,264,1,1,1.0,1.0,0.403494757192675,0,0.0,0.0,0.0,0.5356751769876543,0.1344600438573084,0.40121513313034596,0.6701352208449627,0.1344600438573084,0.4818657901487313,5,3,6,1,2,0,nan,nan,nan,nan,nan,nan,nan,nan,nan,nan,nan,nan,0.0,nan,nan,nan,nan,nan,nan,nan,nan,nan,nan,nan,nan,nan,nan,nan,nan,nan,nan,5418.970691330847,5913.930291592842,nan,5914.333786350035,nan,nan,nan,nan
1,265,1,1,1.0,1.0,0.44268911168910563,0,0.0,0.0,0.0,0.5351103033987868,0.134449197487482,0.4006611059113049,0.6695595008862688,0.134449197487482,0.43560040295900154,4,1,2,0,3,7,nan,nan,nan,nan,nan,nan,nan,nan,nan,nan,nan,nan,0.0,nan,nan,nan,nan,nan,nan,nan,nan,nan,nan,nan,nan,nan,nan,nan,nan,nan,nan,5418.970691330847,5914.9470857114065,nan,5915.389774823096,nan,nan,nan,nan
1,266,1,1,1.0,1.0,0.4498769385390915,0,0.0,0.0,0.0,0.5347170217319371,0.13429764684957424,0.4004193748823629,0.6690146685815114,0.13429764684957424,0.43202026914029074,2,7,8,5,1,3,nan,nan,nan,nan,nan,nan,nan,nan,nan,nan,nan,nan,0.0,nan,nan,nan,nan,nan,nan,nan,nan,nan,nan,nan,nan,nan,nan,nan,nan,nan,nan,5418.970691330847,5915.963867000712,nan,5916.413743939251,nan,nan,nan,nan
1,267,1,1,1.0,1.0,0.33517219906207174,0,0.0,0.0,0.0,0.5343575298540014,0.13412607840703436,0.40023145144696703,0.6684836082610358,0.13412607840703436,0.4092460830967563,3,4,0,7,8,5,nan,nan,nan,nan,nan,nan,nan,nan,nan,nan,nan,nan,0.0,nan,nan,nan,nan,nan,nan,nan,nan,nan,nan,nan,nan,nan,nan,nan,nan,nan,nan,5418.970691330847,5917.006552634237,nan,5917.341724833299,nan,nan,nan,nan
1,268,1,1,1.0,1.0,0.646917533595115,0,0.0,0.0,0.0,0.5335170854202802,0.13446410827696878,0.39905297714331145,0.667981193697249,0.13446410827696878,0.4773222237320927,5,1,7,3,4,2,nan,nan,nan,nan,nan,nan,nan,nan,nan,nan,nan,nan,0.0,nan,nan,nan,nan,nan,nan,nan,nan,nan,nan,nan,nan,nan,nan,nan,nan,nan,nan,5418.970691330847,5918.030784608389,nan,5918.677702141984,nan,nan,nan,nan
1,269,1,1,nan,nan,nan,0,0.0,0.0,0.0,0.533993557891603,0.1343816679759431,0.3996118899156599,0.668375225867546,0.1343816679759431,0.49104486632859334,7,6,3,5,2,8,nan,nan,nan,nan,nan,nan,nan,nan,nan,nan,nan,nan,0.0,nan,nan,nan,nan,nan,nan,nan,nan,nan,nan,nan,nan,nan,nan,nan,nan,nan,nan,5418.970691330847,5919.047603245184,nan,nan,nan,nan,nan,nan
1,270,1,1,1.0,1.0,0.6932444063713774,0,0.0,0.0,0.0,0.533993557891603,0.1343816679759431,0.3996118899156599,0.668375225867546,0.1343816679759431,0.6700809699832462,8,5,6,4,3,7,nan,nan,nan,nan,nan,nan,nan,nan,nan,nan,nan,nan,0.0,nan,nan,nan,nan,nan,nan,nan,nan,nan,nan,nan,nan,nan,nan,nan,nan,nan,nan,5418.970691330847,5920.064364292717,nan,5920.757608699088,nan,nan,nan,nan
1,271,1,1,1.0,1.0,0.7320980716613121,0,0.0,0.0,0.0,0.5346598794333594,0.13449365293098028,0.4001662265023791,0.6691535323643396,0.13449365293098028,0.7126712390163448,3,7,1,2,4,8,nan,nan,nan,nan,nan,nan,nan,nan,nan,nan,nan,nan,0.0,nan,nan,nan,nan,nan,nan,nan,nan,nan,nan,nan,nan,nan,nan,nan,nan,nan,nan,5418.970691330847,5921.0895216868375,nan,5921.821619758499,nan,nan,nan,nan
1,272,1,1,1.0,1.0,0.6829481836175546,0,0.0,1.0,0.0,0.5354825385676425,0.13481439580079138,0.40066814276685114,0.6702969343684338,0.13481439580079138,0.7027635538834147,0,2,4,6,1,7,nan,nan,nan,nan,nan,nan,nan,nan,nan,nan,nan,nan,0.0,nan,nan,nan,nan,nan,nan,nan,nan,nan,nan,nan,nan,nan,nan,nan,nan,nan,nan,5418.970691330847,5922.114642303553,nan,5922.797590487171,nan,nan,nan,nan
1,273,1,1,1.0,1.0,0.6738168609444983,1,0.0,0.0,1.0,0.5360944292110031,0.13486795446706412,0.401226474743939,0.6709623836780673,0.13486795446706412,0.6962877054077884,2,8,6,4,3,1,1.0,1.0,1.0,1.0,1.0,1.0,1.0,0.0,0.0,1.0,0.0,0.0,2.0,2.0,6.0,8.0,4.0,1.0,3.0,2.0,3.0,4.0,1.0,5.0,6.0,4.058634158922359,5.818766237935051,6.426557840022724,2.6126496287761256,7.754149920889176,8.78629243891919,5418.970691330847,5923.13976349053,5923.948171069846,5923.813580351474,5933.799316740246,5934.800875357119,5924.973297673627,5933.79098710604
1,274,1,1,1.0,1.0,0.396740845637396,0,0.0,0.0,0.0,0.5366635301685796,0.13487867351117033,0.40178485665740926,0.6715422036797499,0.13487867351117033,0.5845019633998163,8,5,4,2,1,7,nan,nan,nan,nan,nan,nan,nan,nan,nan,nan,nan,nan,0.0,nan,nan,nan,nan,nan,nan,nan,nan,nan,nan,nan,nan,nan,nan,nan,nan,nan,nan,5418.970691330847,5935.024510797579,nan,5935.421251643216,nan,nan,nan,nan
1,275,1,1,1.0,1.0,0.4599676074576564,0,0.0,0.0,0.0,0.5360877166519904,0.13489858830466203,0.40118912834732834,0.6709863049566525,0.13489858830466203,0.5101751046798503,6,4,5,0,7,1,nan,nan,nan,nan,nan,nan,nan,nan,nan,nan,nan,nan,0.0,nan,nan,nan,nan,nan,nan,nan,nan,nan,nan,nan,nan,nan,nan,nan,nan,nan,nan,5418.970691330847,5936.041284674429,nan,5936.501252281887,nan,nan,nan,nan
