block,trial,freq_trials,correct_response,actual_response,acc,rts,probe_trials,fast_rt_trigger,slow_rt_trigger,rt_triggered,rts_runningavg,rts_runningstd,rts_runningfastthresh,rts_runningslowthresh,rts_runningstd,rts_trailingavg,trials_colorind0,trials_colorind1,trials_colorind2,trials_colorind3,trials_colorind4,trials_colorind5,wholereport_resp0,wholereport_resp1,wholereport_resp2,wholereport_resp3,wholereport_resp4,wholereport_resp5,wholereport_respacc0,wholereport_respacc1,wholereport_respacc2,wholereport_respacc3,wholereport_respacc4,wholereport_respacc5,wholereport_respacc_total,wholereport_respcolorind0,wholereport_respcolorind1,wholereport_respcolorind2,wholereport_respcolorind3,wholereport_respcolorind4,wholereport_respcolorind5,wholereport_resporder0,wholereport_resporder1,wholereport_resporder2,wholereport_resporder3,wholereport_resporder4,wholereport_resporder5,wholereport_rts0,wholereport_rts1,wholereport_rts2,wholereport_rts3,wholereport_rts4,wholereport_rts5,time_blockstart,time_encarray_offset,time_encarray_onset,time_response,time_iti_offset,time_iti_onset,time_memprobe_offset,time_memprobe_onset
1,1,1,1,1.0,1.0,0.5174859525868669,0,nan,nan,nan,nan,nan,nan,nan,nan,nan,1,6,4,0,5,2,nan,nan,nan,nan,nan,nan,nan,nan,nan,nan,nan,nan,0.0,nan,nan,nan,nan,nan,nan,nan,nan,nan,nan,nan,nan,nan,nan,nan,nan,nan,nan,659.8098336548719,660.8283498028759,nan,661.3458357554628,nan,nan,nan,nan
1,2,1,1,1.0,1.0,0.5082608072261792,0,nan,nan,nan,nan,nan,nan,nan,nan,nan,4,2,8,1,6,3,nan,nan,nan,nan,nan,nan,nan,nan,nan,nan,nan,nan,0.0,nan,nan,nan,nan,nan,nan,nan,nan,nan,nan,nan,nan,nan,nan,nan,nan,nan,nan,659.8098336548719,661.8535580158059,nan,662.3618188230321,nan,nan,nan,nan
1,3,1,1,1.0,1.0,0.4594896719499957,0,nan,nan,nan,nan,nan,nan,nan,nan,nan,5,6,7,4,0,1,nan,nan,nan,nan,nan,nan,nan,nan,nan,nan,nan,nan,0.0,nan,nan,nan,nan,nan,nan,nan,nan,nan,nan,nan,nan,nan,nan,nan,nan,nan,nan,659.8098336548719,662.8702880356286,nan,663.3297777075786,nan,nan,nan,nan
1,4,1,1,1.0,1.0,0.41868811805034056,0,nan,nan,nan,nan,nan,nan,nan,nan,nan,4,7,0,5,3,8,nan,nan,nan,nan,nan,nan,nan,nan,nan,nan,nan,nan,0.0,nan,nan,nan,nan,nan,nan,nan,nan,nan,nan,nan,nan,nan,nan,nan,nan,nan,nan,659.8098336548719,663.8870807766216,nan,664.3057688946719,nan,nan,nan,nan
1,5,0,0,0.0,1.0,0.46587354780058376,0,nan,nan,nan,nan,nan,nan,nan,nan,nan,8,3,7,2,4,1,nan,nan,nan,nan,nan,nan,nan,nan,nan,nan,nan,nan,0.0,nan,nan,nan,nan,nan,nan,nan,nan,nan,nan,nan,nan,nan,nan,nan,nan,nan,nan,659.8098336548719,664.9038532757841,nan,665.3697268235846,nan,nan,nan,nan
1,6,1,1,1.0,1.0,0.40905300425947644,0,nan,nan,nan,nan,nan,nan,nan,nan,nan,5,0,8,1,6,7,nan,nan,nan,nan,nan,nan,nan,nan,nan,nan,nan,nan,0.0,nan,nan,nan,nan,nan,nan,nan,nan,nan,nan,nan,nan,nan,nan,nan,nan,nan,nan,659.8098336548719,665.9206582758925,nan,666.329711280152,nan,nan,nan,nan
1,7,1,1,1.0,1.0,0.36823120852932334,0,nan,nan,nan,nan,nan,nan,nan,nan,nan,0,4,2,3,1,6,nan,nan,nan,nan,nan,nan,nan,nan,nan,nan,nan,nan,0.0,nan,nan,nan,nan,nan,nan,nan,nan,nan,nan,nan,nan,nan,nan,nan,nan,nan,nan,659.8098336548719,666.9374587144994,nan,667.3056899230287,nan,nan,nan,nan
1,8,1,1,1.0,1.0,0.34342412604019046,0,nan,nan,nan,nan,nan,nan,nan,nan,nan,5,3,8,1,6,4,nan,nan,nan,nan,nan,nan,nan,nan,nan,nan,nan,nan,0.0,nan,nan,nan,nan,nan,nan,nan,nan,nan,nan,nan,nan,nan,nan,nan,nan,nan,nan,659.8098336548719,667.9542414771277,nan,668.2976656031678,nan,nan,nan,nan
1,9,1,1,1.0,1.0,0.3346160765213426,0,nan,nan,nan,nan,nan,nan,nan,nan,nan,2,4,0,6,5,7,nan,nan,nan,nan,nan,nan,nan,nan,nan,nan,nan,nan,0.0,nan,nan,nan,nan,nan,nan,nan,nan,nan,nan,nan,nan,nan,nan,nan,nan,nan,nan,659.8098336548719,668.9710319373407,nan,669.3056480138621,nan,nan,nan,nan
1,10,1,1,1.0,1.0,0.46178840324864723,0,nan,nan,nan,nan,nan,nan,nan,nan,nan,8,0,3,7,4,1,nan,nan,nan,nan,nan,nan,nan,nan,nan,nan,nan,nan,0.0,nan,nan,nan,nan,nan,nan,nan,nan,nan,nan,nan,nan,nan,nan,nan,nan,nan,nan,659.8098336548719,669.98783066537,nan,670.4496190686186,nan,nan,nan,nan
1,11,0,0,0.0,1.0,0.5169881744950544,0,nan,nan,nan,nan,nan,nan,nan,nan,nan,4,7,5,3,6,8,nan,nan,nan,nan,nan,nan,nan,nan,nan,nan,nan,nan,0.0,nan,nan,nan,nan,nan,nan,nan,nan,nan,nan,nan,nan,nan,nan,nan,nan,nan,nan,659.8098336548719,671.0046122875938,nan,671.5216004620888,nan,nan,nan,nan
1,12,1,1,1.0,1.0,0.46783272945322096,0,nan,nan,nan,nan,nan,nan,nan,nan,nan,0,4,6,7,3,2,nan,nan,nan,nan,nan,nan,nan,nan,nan,nan,nan,nan,0.0,nan,nan,nan,nan,nan,nan,nan,nan,nan,nan,nan,nan,nan,nan,nan,nan,nan,nan,659.8098336548719,672.0297312653856,nan,672.4975639948389,nan,nan,nan,nan
1,13,1,1,1.0,1.0,0.4030500169901643,1,nan,nan,nan,nan,nan,nan,nan,nan,nan,6,1,7,5,8,0,1.0,1.0,1.0,1.0,1.0,1.0,0.0,1.0,1.0,0.0,0.0,0.0,2.0,0.0,1.0,7.0,8.0,6.0,4.0,3.0,2.0,1.0,6.0,5.0,4.0,4.8385685087996535,3.6942849885090254,2.5907747976016253,9.446114380058134,7.966698188829469,6.766758743266109,659.8098336548719,673.0465066155302,673.8549418731418,673.4495566325204,684.3562249489478,685.3569835901435,674.8717394607665,684.3478932953149
1,14,1,1,1.0,1.0,0.651874636329012,0,nan,nan,nan,nan,nan,nan,nan,nan,nan,0,6,8,2,7,4,nan,nan,nan,nan,nan,nan,nan,nan,nan,nan,nan,nan,0.0,nan,nan,nan,nan,nan,nan,nan,nan,nan,nan,nan,nan,nan,nan,nan,nan,nan,nan,659.8098336548719,685.5814079593692,nan,686.2332825956983,nan,nan,nan,nan
1,15,1,1,1.0,1.0,0.4270708039402962,0,nan,nan,nan,nan,nan,nan,nan,nan,nan,5,7,4,1,2,0,nan,nan,nan,nan,nan,nan,nan,nan,nan,nan,nan,nan,0.0,nan,nan,nan,nan,nan,nan,nan,nan,nan,nan,nan,nan,nan,nan,nan,nan,nan,nan,659.8098336548719,686.5981701950659,nan,687.0252409990062,nan,nan,nan,nan
1,16,1,1,1.0,1.0,0.40222209741477855,0,nan,nan,nan,nan,nan,nan,nan,nan,nan,2,0,6,7,8,1,nan,nan,nan,nan,nan,nan,nan,nan,nan,nan,nan,nan,0.0,nan,nan,nan,nan,nan,nan,nan,nan,nan,nan,nan,nan,nan,nan,nan,nan,nan,nan,659.8098336548719,687.6149977178138,nan,688.0172198152286,nan,nan,nan,nan
1,17,1,1,1.0,1.0,0.353408767899964,0,nan,nan,nan,nan,nan,nan,nan,nan,nan,1,4,2,5,0,3,nan,nan,nan,nan,nan,nan,nan,nan,nan,nan,nan,nan,0.0,nan,nan,nan,nan,nan,nan,nan,nan,nan,nan,nan,nan,nan,nan,nan,nan,nan,nan,659.8098336548719,688.6317819059186,nan,688.9851906738186,nan,nan,nan,nan
1,18,1,1,1.0,1.0,0.2562382629548665,0,nan,nan,nan,nan,nan,nan,nan,nan,nan,2,1,3,7,5,6,nan,nan,nan,nan,nan,nan,nan,nan,nan,nan,nan,nan,0.0,nan,nan,nan,nan,nan,nan,nan,nan,nan,nan,nan,nan,nan,nan,nan,nan,nan,nan,659.8098336548719,689.6569177043857,nan,689.9131559673406,nan,nan,nan,nan
1,19,1,1,1.0,1.0,0.3354134908004198,0,nan,nan,nan,nan,nan,nan,nan,nan,nan,6,3,7,8,4,1,nan,nan,nan,nan,nan,nan,nan,nan,nan,nan,nan,nan,0.0,nan,nan,nan,nan,nan,nan,nan,nan,nan,nan,nan,nan,nan,nan,nan,nan,nan,nan,659.8098336548719,690.673721849249,nan,691.0091353400494,nan,nan,nan,nan
1,20,1,1,1.0,1.0,0.2946318936883472,0,nan,nan,nan,nan,nan,nan,nan,nan,nan,1,2,0,4,6,8,nan,nan,nan,nan,nan,nan,nan,nan,nan,nan,nan,nan,0.0,nan,nan,nan,nan,nan,nan,nan,nan,nan,nan,nan,nan,nan,nan,nan,nan,nan,nan,659.8098336548719,691.6904994801152,nan,691.9851313738036,nan,nan,nan,nan
1,21,1,1,1.0,1.0,0.3017866698501166,0,nan,nan,nan,nan,nan,nan,nan,nan,nan,4,7,2,1,3,6,nan,nan,nan,nan,nan,nan,nan,nan,nan,nan,nan,nan,0.0,nan,nan,nan,nan,nan,nan,nan,nan,nan,nan,nan,nan,nan,nan,nan,nan,nan,nan,659.8098336548719,692.7073039100796,nan,693.0090905799298,nan,nan,nan,nan
1,22,1,1,1.0,1.0,0.34099425046588294,0,nan,nan,nan,nan,nan,nan,nan,nan,nan,8,3,1,4,5,0,nan,nan,nan,nan,nan,nan,nan,nan,nan,nan,nan,nan,0.0,nan,nan,nan,nan,nan,nan,nan,nan,nan,nan,nan,nan,nan,nan,nan,nan,nan,nan,659.8098336548719,693.7240918044117,nan,694.0650860548776,nan,nan,nan,nan
1,23,1,1,1.0,1.0,0.27617818175349385,0,nan,nan,nan,nan,nan,nan,nan,nan,nan,5,8,7,3,1,2,nan,nan,nan,nan,nan,nan,nan,nan,nan,nan,nan,nan,0.0,nan,nan,nan,nan,nan,nan,nan,nan,nan,nan,nan,nan,nan,nan,nan,nan,nan,nan,659.8098336548719,694.7408671545563,nan,695.0170453363098,nan,nan,nan,nan
1,24,1,1,1.0,1.0,0.339317029051017,0,nan,nan,nan,nan,nan,nan,nan,nan,nan,2,6,5,7,3,4,nan,nan,nan,nan,nan,nan,nan,nan,nan,nan,nan,nan,0.0,nan,nan,nan,nan,nan,nan,nan,nan,nan,nan,nan,nan,nan,nan,nan,nan,nan,nan,659.8098336548719,695.7576966729539,nan,696.0970137020049,nan,nan,nan,nan
1,25,0,0,1.0,0.0,0.3145484345732257,0,nan,nan,0.0,nan,nan,nan,nan,nan,nan,5,7,4,0,6,2,nan,nan,nan,nan,nan,nan,nan,nan,nan,nan,nan,nan,0.0,nan,nan,nan,nan,nan,nan,nan,nan,nan,nan,nan,nan,nan,nan,nan,nan,nan,nan,659.8098336548719,696.7744534918165,nan,697.0890019263898,nan,nan,nan,nan
1,26,1,1,1.0,1.0,0.32171546990866773,0,nan,nan,nan,nan,nan,nan,nan,nan,nan,3,1,0,6,8,5,nan,nan,nan,nan,nan,nan,nan,nan,nan,nan,nan,nan,0.0,nan,nan,nan,nan,nan,nan,nan,nan,nan,nan,nan,nan,nan,nan,nan,nan,nan,nan,659.8098336548719,697.7912602025317,nan,698.1129756724404,nan,nan,nan,nan
1,27,1,1,1.0,1.0,0.3208958181203343,0,nan,nan,nan,nan,nan,nan,nan,nan,nan,8,0,3,5,1,2,nan,nan,nan,nan,nan,nan,nan,nan,nan,nan,nan,nan,0.0,nan,nan,nan,nan,nan,nan,nan,nan,nan,nan,nan,nan,nan,nan,nan,nan,nan,nan,659.8098336548719,698.8080532286258,nan,699.1289490467461,nan,nan,nan,nan
1,28,1,1,1.0,1.0,0.3197471652238164,0,nan,nan,nan,nan,nan,nan,nan,nan,nan,5,6,1,4,2,0,nan,nan,nan,nan,nan,nan,nan,nan,nan,nan,nan,nan,0.0,nan,nan,nan,nan,nan,nan,nan,nan,nan,nan,nan,nan,nan,nan,nan,nan,nan,nan,659.8098336548719,699.8331818996812,nan,700.152929064905,nan,nan,nan,nan
1,29,1,1,1.0,1.0,0.3269481270108372,0,nan,nan,nan,nan,nan,nan,nan,nan,nan,0,3,8,2,7,6,nan,nan,nan,nan,nan,nan,nan,nan,nan,nan,nan,nan,0.0,nan,nan,nan,nan,nan,nan,nan,nan,nan,nan,nan,nan,nan,nan,nan,nan,nan,nan,659.8098336548719,700.8499595305766,nan,701.1769076575874,nan,nan,nan,nan
1,30,1,1,1.0,1.0,0.35012902034213766,0,nan,nan,nan,nan,nan,nan,nan,nan,nan,6,8,0,3,4,1,nan,nan,nan,nan,nan,nan,nan,nan,nan,nan,nan,nan,0.0,nan,nan,nan,nan,nan,nan,nan,nan,nan,nan,nan,nan,nan,nan,nan,nan,nan,nan,659.8098336548719,701.8667608244577,nan,702.2168898447999,nan,nan,nan,nan
1,31,1,1,1.0,1.0,0.34928998196846806,0,nan,nan,nan,nan,nan,nan,nan,nan,nan,1,2,7,4,5,3,nan,nan,nan,nan,nan,nan,nan,nan,nan,nan,nan,nan,0.0,nan,nan,nan,nan,nan,nan,nan,nan,nan,nan,nan,nan,nan,nan,nan,nan,nan,nan,659.8098336548719,702.8835800794186,nan,703.2328700613871,nan,nan,nan,nan
1,32,1,1,1.0,1.0,0.34017744960146956,0,nan,nan,nan,nan,nan,nan,nan,nan,nan,8,5,6,0,1,2,nan,nan,nan,nan,nan,nan,nan,nan,nan,nan,nan,nan,0.0,nan,nan,nan,nan,nan,nan,nan,nan,nan,nan,nan,nan,nan,nan,nan,nan,nan,nan,659.8098336548719,703.9086711177952,nan,704.2488485673966,nan,nan,nan,nan
1,33,0,0,0.0,1.0,0.5393471352290362,0,nan,nan,nan,nan,nan,nan,nan,nan,nan,4,6,2,3,7,8,nan,nan,nan,nan,nan,nan,nan,nan,nan,nan,nan,nan,0.0,nan,nan,nan,nan,nan,nan,nan,nan,nan,nan,nan,nan,nan,nan,nan,nan,nan,nan,659.8098336548719,704.9254675650154,nan,705.4648147002445,nan,nan,nan,nan
1,34,1,1,1.0,1.0,0.4905269634036813,0,nan,nan,nan,nan,nan,nan,nan,nan,nan,7,3,5,6,1,0,nan,nan,nan,nan,nan,nan,nan,nan,nan,nan,nan,nan,0.0,nan,nan,nan,nan,nan,nan,nan,nan,nan,nan,nan,nan,nan,nan,nan,nan,nan,nan,659.8098336548719,705.9422554593766,nan,706.4327824227803,nan,nan,nan,nan
1,35,0,0,0.0,1.0,0.6017073845723644,0,nan,nan,nan,nan,nan,nan,nan,nan,nan,5,8,2,4,3,7,nan,nan,nan,nan,nan,nan,nan,nan,nan,nan,nan,nan,0.0,nan,nan,nan,nan,nan,nan,nan,nan,nan,nan,nan,nan,nan,nan,nan,nan,nan,nan,659.8098336548719,706.9590524768282,nan,707.5607598614006,nan,nan,nan,nan
1,36,1,1,1.0,1.0,0.5448808539949823,1,nan,nan,nan,nan,nan,nan,nan,nan,nan,8,7,3,5,2,4,1.0,1.0,1.0,1.0,1.0,1.0,0.0,1.0,0.0,0.0,1.0,1.0,3.0,1.0,7.0,8.0,3.0,2.0,4.0,3.0,2.0,1.0,6.0,5.0,4.0,4.803895954682957,3.491683599015232,2.4146254961087834,10.548046848154627,7.49951519377646,6.292281559930416,659.8098336548719,707.9758492091496,708.7842542465951,708.5207300631446,720.3856751094281,721.3921884190058,709.8010412856529,720.3773520086543
1,37,1,1,1.0,1.0,0.4695242056623101,0,nan,nan,nan,nan,nan,nan,nan,nan,nan,6,3,8,4,5,7,nan,nan,nan,nan,nan,nan,nan,nan,nan,nan,nan,nan,0.0,nan,nan,nan,nan,nan,nan,nan,nan,nan,nan,nan,nan,nan,nan,nan,nan,nan,nan,659.8098336548719,721.610899458814,nan,722.0804236644763,nan,nan,nan,nan
1,38,1,1,1.0,1.0,0.5567354423401412,0,nan,nan,nan,nan,nan,nan,nan,nan,nan,8,1,7,5,2,4,nan,nan,nan,nan,nan,nan,nan,nan,nan,nan,nan,nan,0.0,nan,nan,nan,nan,nan,nan,nan,nan,nan,nan,nan,nan,nan,nan,nan,nan,nan,nan,659.8098336548719,722.6276571329508,nan,723.184392575291,nan,nan,nan,nan
1,39,1,1,1.0,1.0,0.4919686953071505,0,nan,nan,nan,nan,nan,nan,nan,nan,nan,7,8,5,2,4,6,nan,nan,nan,nan,nan,nan,nan,nan,nan,nan,nan,nan,0.0,nan,nan,nan,nan,nan,nan,nan,nan,nan,nan,nan,nan,nan,nan,nan,nan,nan,nan,659.8098336548719,723.6444116710336,nan,724.1363803663407,nan,nan,nan,nan
1,40,1,1,1.0,1.0,0.555126644030679,0,nan,nan,nan,nan,nan,nan,nan,nan,nan,2,4,6,5,1,8,nan,nan,nan,nan,nan,nan,nan,nan,nan,nan,nan,nan,0.0,nan,nan,nan,nan,nan,nan,nan,nan,nan,nan,nan,nan,nan,nan,nan,nan,nan,nan,659.8098336548719,724.6612380534061,nan,725.2163646974368,nan,nan,nan,nan
1,41,1,1,1.0,1.0,0.522305220074486,0,nan,nan,nan,nan,nan,nan,nan,nan,nan,8,7,3,4,2,1,nan,nan,nan,nan,nan,nan,nan,nan,nan,nan,nan,nan,0.0,nan,nan,nan,nan,nan,nan,nan,nan,nan,nan,nan,nan,nan,nan,nan,nan,nan,nan,659.8098336548719,725.6780319347745,nan,726.200337154849,nan,nan,nan,nan
1,42,1,1,1.0,1.0,0.4254711287212558,0,nan,nan,nan,nan,nan,nan,nan,nan,nan,2,8,1,0,3,6,nan,nan,nan,nan,nan,nan,nan,nan,nan,nan,nan,nan,0.0,nan,nan,nan,nan,nan,nan,nan,nan,nan,nan,nan,nan,nan,nan,nan,nan,nan,nan,659.8098336548719,726.6948366498109,nan,727.1203077785322,nan,nan,nan,nan
1,43,1,1,1.0,1.0,0.40066233565448783,0,nan,nan,nan,nan,nan,nan,nan,nan,nan,3,5,4,7,1,8,nan,nan,nan,nan,nan,nan,nan,nan,nan,nan,nan,nan,0.0,nan,nan,nan,nan,nan,nan,nan,nan,nan,nan,nan,nan,nan,nan,nan,nan,nan,nan,659.8098336548719,727.7116265398508,nan,728.1122888755053,nan,nan,nan,nan
1,44,0,0,0.0,1.0,0.679528120032046,0,nan,nan,nan,nan,nan,nan,nan,nan,nan,5,8,6,0,3,4,nan,nan,nan,nan,nan,nan,nan,nan,nan,nan,nan,nan,0.0,nan,nan,nan,nan,nan,nan,nan,nan,nan,nan,nan,nan,nan,nan,nan,nan,nan,nan,659.8098336548719,728.7367361094803,nan,729.4162642295123,nan,nan,nan,nan
1,45,1,1,1.0,1.0,0.5663540205860045,0,nan,nan,nan,nan,nan,nan,nan,nan,nan,2,6,0,1,4,3,nan,nan,nan,nan,nan,nan,nan,nan,nan,nan,nan,nan,0.0,nan,nan,nan,nan,nan,nan,nan,nan,nan,nan,nan,nan,nan,nan,nan,nan,nan,nan,659.8098336548719,729.7618881584494,nan,730.3282421790354,nan,nan,nan,nan
1,46,1,1,1.0,1.0,0.5172250895120669,0,nan,nan,nan,nan,nan,nan,nan,nan,nan,4,3,1,0,8,2,nan,nan,nan,nan,nan,nan,nan,nan,nan,nan,nan,nan,0.0,nan,nan,nan,nan,nan,nan,nan,nan,nan,nan,nan,nan,nan,nan,nan,nan,nan,nan,659.8098336548719,730.7869917410426,nan,731.3042168305547,nan,nan,nan,nan
1,47,1,1,1.0,1.0,0.596398321678862,0,nan,nan,nan,nan,nan,nan,nan,nan,nan,2,8,0,7,4,6,nan,nan,nan,nan,nan,nan,nan,nan,nan,nan,nan,nan,0.0,nan,nan,nan,nan,nan,nan,nan,nan,nan,nan,nan,nan,nan,nan,nan,nan,nan,nan,659.8098336548719,731.8037938902271,nan,732.400192211906,nan,nan,nan,nan
1,48,1,1,1.0,1.0,0.48327325881109573,0,nan,nan,nan,nan,nan,nan,nan,nan,nan,0,3,2,8,5,7,nan,nan,nan,nan,nan,nan,nan,nan,nan,nan,nan,nan,0.0,nan,nan,nan,nan,nan,nan,nan,nan,nan,nan,nan,nan,nan,nan,nan,nan,nan,nan,659.8098336548719,732.8288986131956,nan,733.3121718720067,nan,nan,nan,nan
1,49,1,1,1.0,1.0,0.5224343687004875,0,nan,nan,nan,nan,nan,nan,nan,nan,nan,5,4,0,6,2,3,nan,nan,nan,nan,nan,nan,nan,nan,nan,nan,nan,nan,0.0,nan,nan,nan,nan,nan,nan,nan,nan,nan,nan,nan,nan,nan,nan,nan,nan,nan,nan,659.8098336548719,733.8457073195896,nan,734.36814168829,nan,nan,nan,nan
1,50,1,1,1.0,1.0,0.5613012592366431,1,nan,nan,nan,nan,nan,nan,nan,nan,nan,7,1,4,3,0,8,1.0,1.0,1.0,1.0,1.0,1.0,1.0,1.0,0.0,0.0,0.0,0.0,2.0,7.0,1.0,1.0,4.0,2.0,3.0,3.0,2.0,1.0,6.0,5.0,4.0,5.645328825776232,3.90840882921475,2.613179088628385,9.964139449701179,8.34869327544584,7.044449360779254,659.8098336548719,734.870822306053,735.6792401728162,735.4321235652897,746.697255121544,747.6932110308262,736.6960374753398,746.6889240380842
1,51,1,1,1.0,1.0,0.7017017681791913,0,nan,nan,nan,nan,nan,nan,nan,nan,nan,4,6,1,8,3,5,nan,nan,nan,nan,nan,nan,nan,nan,nan,nan,nan,nan,0.0,nan,nan,nan,nan,nan,nan,nan,nan,nan,nan,nan,nan,nan,nan,nan,nan,nan,nan,659.8098336548719,747.914105052856,nan,748.6158068210352,nan,nan,nan,nan
1,52,1,1,1.0,1.0,0.6208943641395308,0,nan,nan,nan,nan,nan,nan,nan,nan,nan,3,5,4,6,7,2,nan,nan,nan,nan,nan,nan,nan,nan,nan,nan,nan,nan,0.0,nan,nan,nan,nan,nan,nan,nan,nan,nan,nan,nan,nan,nan,nan,nan,nan,nan,nan,659.8098336548719,748.9309017851774,nan,749.5517961493169,nan,nan,nan,nan
1,53,1,1,1.0,1.0,0.5800332251237705,0,nan,nan,nan,nan,nan,nan,nan,nan,nan,8,4,3,5,2,1,nan,nan,nan,nan,nan,nan,nan,nan,nan,nan,nan,nan,0.0,nan,nan,nan,nan,nan,nan,nan,nan,nan,nan,nan,nan,nan,nan,nan,nan,nan,nan,659.8098336548719,749.9477261718712,nan,750.527759396995,nan,nan,nan,nan
1,54,1,1,1.0,1.0,0.38730985147412866,0,nan,nan,nan,nan,nan,nan,nan,nan,nan,2,6,5,8,1,3,nan,nan,nan,nan,nan,nan,nan,nan,nan,nan,nan,nan,0.0,nan,nan,nan,nan,nan,nan,nan,nan,nan,nan,nan,nan,nan,nan,nan,nan,nan,nan,659.8098336548719,750.9644368051377,nan,751.3517466566118,nan,nan,nan,nan
1,55,1,1,1.0,1.0,0.38644344388740137,0,nan,nan,nan,nan,nan,nan,nan,nan,nan,4,8,7,0,6,1,nan,nan,nan,nan,nan,nan,nan,nan,nan,nan,nan,nan,0.0,nan,nan,nan,nan,nan,nan,nan,nan,nan,nan,nan,nan,nan,nan,nan,nan,nan,nan,659.8098336548719,751.9812686043151,nan,752.3677120482025,nan,nan,nan,nan
1,56,1,1,1.0,1.0,0.43320008885348216,0,nan,nan,nan,nan,nan,nan,nan,nan,nan,6,0,2,4,5,8,nan,nan,nan,nan,nan,nan,nan,nan,nan,nan,nan,nan,0.0,nan,nan,nan,nan,nan,nan,nan,nan,nan,nan,nan,nan,nan,nan,nan,nan,nan,nan,659.8098336548719,753.006492497545,nan,753.4396925863985,nan,nan,nan,nan
1,57,1,1,1.0,1.0,0.44013990243547596,0,nan,nan,nan,nan,nan,nan,nan,nan,nan,0,1,8,5,6,7,nan,nan,nan,nan,nan,nan,nan,nan,nan,nan,nan,nan,0.0,nan,nan,nan,nan,nan,nan,nan,nan,nan,nan,nan,nan,nan,nan,nan,nan,nan,nan,659.8098336548719,754.0315290825383,nan,754.4716689849738,nan,nan,nan,nan
1,58,1,1,1.0,1.0,0.47933807485969737,0,nan,nan,nan,nan,nan,nan,nan,nan,nan,1,2,6,4,0,3,nan,nan,nan,nan,nan,nan,nan,nan,nan,nan,nan,nan,0.0,nan,nan,nan,nan,nan,nan,nan,nan,nan,nan,nan,nan,nan,nan,nan,nan,nan,nan,659.8098336548719,755.0483118451666,nan,755.5276499200263,nan,nan,nan,nan
1,59,1,1,1.0,1.0,0.4225064125203062,0,nan,nan,nan,nan,nan,nan,nan,nan,nan,2,4,5,7,3,8,nan,nan,nan,nan,nan,nan,nan,nan,nan,nan,nan,nan,0.0,nan,nan,nan,nan,nan,nan,nan,nan,nan,nan,nan,nan,nan,nan,nan,nan,nan,nan,659.8098336548719,756.0651293895207,nan,756.487635802041,nan,nan,nan,nan
1,60,1,1,1.0,1.0,0.4216910371615086,0,nan,nan,nan,nan,nan,nan,nan,nan,nan,6,0,7,1,8,4,nan,nan,nan,nan,nan,nan,nan,nan,nan,nan,nan,nan,0.0,nan,nan,nan,nan,nan,nan,nan,nan,nan,nan,nan,nan,nan,nan,nan,nan,nan,nan,659.8098336548719,757.0819050247374,nan,757.5035960618989,nan,nan,nan,nan
1,61,1,1,1.0,1.0,0.4208762320049573,0,nan,nan,nan,nan,nan,nan,nan,nan,nan,1,5,2,4,7,3,nan,nan,nan,nan,nan,nan,nan,nan,nan,nan,nan,nan,0.0,nan,nan,nan,nan,nan,nan,nan,nan,nan,nan,nan,nan,nan,nan,nan,nan,nan,nan,659.8098336548719,758.0986926339974,nan,758.5195688660024,nan,nan,nan,nan
1,62,1,1,1.0,1.0,0.39026088305399753,0,nan,nan,nan,nan,nan,nan,nan,nan,nan,8,6,5,7,3,1,nan,nan,nan,nan,nan,nan,nan,nan,nan,nan,nan,nan,0.0,nan,nan,nan,nan,nan,nan,nan,nan,nan,nan,nan,nan,nan,nan,nan,nan,nan,nan,659.8098336548719,759.1212899352249,nan,759.5115508182789,nan,nan,nan,nan
1,63,1,1,1.0,1.0,0.3469117087952327,1,nan,nan,nan,nan,nan,nan,nan,nan,nan,0,7,3,8,5,6,1.0,1.0,1.0,1.0,1.0,1.0,1.0,1.0,1.0,1.0,0.0,0.0,4.0,0.0,7.0,3.0,8.0,4.0,1.0,3.0,2.0,1.0,6.0,5.0,4.0,5.927797086740611,4.135174979281146,2.75245574809378,11.494085250073113,9.38957921785186,7.31045188618009,659.8098336548719,760.1406126205984,760.9490284916537,760.4875243293936,773.500561497116,774.509022584476,761.965824653802,773.4922298434831
1,64,1,1,1.0,1.0,0.6174221765541006,0,nan,nan,nan,nan,nan,nan,nan,nan,nan,6,8,7,1,4,3,nan,nan,nan,nan,nan,nan,nan,nan,nan,nan,nan,nan,0.0,nan,nan,nan,nan,nan,nan,nan,nan,nan,nan,nan,nan,nan,nan,nan,nan,nan,nan,659.8098336548719,774.7257733022852,nan,775.3431954788393,nan,nan,nan,nan
1,65,1,1,1.0,1.0,0.5683154829894193,0,nan,nan,nan,nan,nan,nan,nan,nan,nan,0,6,4,8,5,7,nan,nan,nan,nan,nan,nan,nan,nan,nan,nan,nan,nan,0.0,nan,nan,nan,nan,nan,nan,nan,nan,nan,nan,nan,nan,nan,nan,nan,nan,nan,nan,659.8098336548719,775.7508649108349,nan,776.3191803938244,nan,nan,nan,nan
1,66,1,1,1.0,1.0,0.5354778085311409,0,nan,nan,nan,nan,nan,nan,nan,nan,nan,6,7,5,2,1,4,nan,nan,nan,nan,nan,nan,nan,nan,nan,nan,nan,nan,0.0,nan,nan,nan,nan,nan,nan,nan,nan,nan,nan,nan,nan,nan,nan,nan,nan,nan,nan,659.8098336548719,776.7676696258713,nan,777.3031474344025,nan,nan,nan,nan
1,67,0,0,0.0,1.0,0.630646937614074,0,nan,nan,nan,nan,nan,nan,nan,nan,nan,1,4,7,6,2,0,nan,nan,nan,nan,nan,nan,nan,nan,nan,nan,nan,nan,0.0,nan,nan,nan,nan,nan,nan,nan,nan,nan,nan,nan,nan,nan,nan,nan,nan,nan,nan,659.8098336548719,777.7844780471642,nan,778.4151249847782,nan,nan,nan,nan
1,68,1,1,1.0,1.0,0.5098325430008117,0,nan,nan,nan,nan,nan,nan,nan,nan,nan,8,7,3,1,6,5,nan,nan,nan,nan,nan,nan,nan,nan,nan,nan,nan,nan,0.0,nan,nan,nan,nan,nan,nan,nan,nan,nan,nan,nan,nan,nan,nan,nan,nan,nan,nan,659.8098336548719,778.8012690775795,nan,779.3111016205803,nan,nan,nan,nan
1,69,1,1,1.0,1.0,0.444726246263599,0,nan,nan,nan,nan,nan,nan,nan,nan,nan,0,5,7,6,3,4,nan,nan,nan,nan,nan,nan,nan,nan,nan,nan,nan,nan,0.0,nan,nan,nan,nan,nan,nan,nan,nan,nan,nan,nan,nan,nan,nan,nan,nan,nan,nan,659.8098336548719,779.8263669582666,nan,780.2710932045302,nan,nan,nan,nan
1,70,1,1,1.0,1.0,0.3958658758783713,0,nan,nan,nan,nan,nan,nan,nan,nan,nan,2,0,6,7,4,3,nan,nan,nan,nan,nan,nan,nan,nan,nan,nan,nan,nan,0.0,nan,nan,nan,nan,nan,nan,nan,nan,nan,nan,nan,nan,nan,nan,nan,nan,nan,nan,659.8098336548719,780.8431882088771,nan,781.2390540847555,nan,nan,nan,nan
1,71,1,1,1.0,1.0,0.3950619043898769,0,nan,nan,nan,nan,nan,nan,nan,nan,nan,5,1,3,8,2,0,nan,nan,nan,nan,nan,nan,nan,nan,nan,nan,nan,nan,0.0,nan,nan,nan,nan,nan,nan,nan,nan,nan,nan,nan,nan,nan,nan,nan,nan,nan,nan,659.8098336548719,781.8599803796678,nan,782.2550422840577,nan,nan,nan,nan
1,72,1,1,1.0,1.0,0.37828341822023503,0,nan,nan,nan,nan,nan,nan,nan,nan,nan,6,2,7,3,0,4,nan,nan,nan,nan,nan,nan,nan,nan,nan,nan,nan,nan,0.0,nan,nan,nan,nan,nan,nan,nan,nan,nan,nan,nan,nan,nan,nan,nan,nan,nan,nan,659.8098336548719,782.8767286456423,nan,783.2550120638625,nan,nan,nan,nan
1,73,1,1,1.0,1.0,0.3694574076216668,0,nan,nan,nan,nan,nan,nan,nan,nan,nan,1,8,3,6,4,5,nan,nan,nan,nan,nan,nan,nan,nan,nan,nan,nan,nan,0.0,nan,nan,nan,nan,nan,nan,nan,nan,nan,nan,nan,nan,nan,nan,nan,nan,nan,nan,659.8098336548719,783.8935419135669,nan,784.2629993211885,nan,nan,nan,nan
1,74,1,1,1.0,1.0,0.36862492648651823,0,nan,nan,nan,nan,nan,nan,nan,nan,nan,3,1,2,8,7,4,nan,nan,nan,nan,nan,nan,nan,nan,nan,nan,nan,nan,0.0,nan,nan,nan,nan,nan,nan,nan,nan,nan,nan,nan,nan,nan,nan,nan,nan,nan,nan,659.8098336548719,784.9103483391809,nan,785.2789732656674,nan,nan,nan,nan
1,75,1,1,1.0,1.0,0.39116463824757375,0,nan,nan,nan,nan,nan,nan,nan,nan,nan,8,3,0,1,2,5,nan,nan,nan,nan,nan,nan,nan,nan,nan,nan,nan,nan,0.0,nan,nan,nan,nan,nan,nan,nan,nan,nan,nan,nan,nan,nan,nan,nan,nan,nan,nan,659.8098336548719,785.9437901326455,nan,786.3349547708931,nan,nan,nan,nan
1,76,1,1,1.0,1.0,0.3743240010808222,0,nan,nan,nan,nan,nan,nan,nan,nan,nan,6,8,7,5,1,0,nan,nan,nan,nan,nan,nan,nan,nan,nan,nan,nan,nan,0.0,nan,nan,nan,nan,nan,nan,nan,nan,nan,nan,nan,nan,nan,nan,nan,nan,nan,nan,659.8098336548719,786.9605871500971,nan,787.334911151178,nan,nan,nan,nan
1,77,1,1,1.0,1.0,0.30149644185439683,0,nan,nan,nan,nan,nan,nan,nan,nan,nan,8,1,0,4,7,6,nan,nan,nan,nan,nan,nan,nan,nan,nan,nan,nan,nan,0.0,nan,nan,nan,nan,nan,nan,nan,nan,nan,nan,nan,nan,nan,nan,nan,nan,nan,nan,659.8098336548719,787.9773924353067,nan,788.2788888771611,nan,nan,nan,nan
1,78,1,1,1.0,1.0,0.3087239176093135,0,nan,nan,nan,nan,nan,nan,nan,nan,nan,5,2,6,0,4,1,nan,nan,nan,nan,nan,nan,nan,nan,nan,nan,nan,nan,0.0,nan,nan,nan,nan,nan,nan,nan,nan,nan,nan,nan,nan,nan,nan,nan,nan,nan,nan,659.8098336548719,788.9941464032163,nan,789.3028703208256,nan,nan,nan,nan
1,79,1,1,1.0,1.0,0.3718727432715241,0,nan,nan,nan,nan,nan,nan,nan,nan,nan,7,6,8,5,1,3,nan,nan,nan,nan,nan,nan,nan,nan,nan,nan,nan,nan,0.0,nan,nan,nan,nan,nan,nan,nan,nan,nan,nan,nan,nan,nan,nan,nan,nan,nan,nan,659.8098336548719,790.010959956242,nan,790.3828326995135,nan,nan,nan,nan
1,80,1,1,1.0,1.0,0.3390695654961746,0,nan,nan,nan,nan,nan,nan,nan,nan,nan,6,7,5,1,3,0,nan,nan,nan,nan,nan,nan,nan,nan,nan,nan,nan,nan,0.0,nan,nan,nan,nan,nan,nan,nan,nan,nan,nan,nan,nan,nan,nan,nan,nan,nan,nan,659.8098336548719,791.0277524121339,nan,791.36682197763,nan,nan,nan,nan
1,81,1,1,1.0,1.0,0.32225515716709197,0,0.0,0.0,0.0,0.4394226607899327,0.10370355637512686,0.33571910441480585,0.5431262171650596,0.10370355637512686,0.34439915531159687,4,3,7,8,0,6,nan,nan,nan,nan,nan,nan,nan,nan,nan,nan,nan,nan,0.0,nan,nan,nan,nan,nan,nan,nan,nan,nan,nan,nan,nan,nan,nan,nan,nan,nan,nan,659.8098336548719,792.0445454382279,nan,792.366800595395,nan,nan,nan,nan
1,82,1,1,1.0,1.0,0.3694109369243961,0,0.0,0.0,0.0,0.43797614839952725,0.10387034582269308,0.3341058025768342,0.5418464942222203,0.10387034582269308,0.34357855319588754,3,8,4,0,2,1,nan,nan,nan,nan,nan,nan,nan,nan,nan,nan,nan,nan,0.0,nan,nan,nan,nan,nan,nan,nan,nan,nan,nan,nan,nan,nan,nan,nan,nan,nan,nan,659.8098336548719,793.0613604167302,nan,793.4307713536546,nan,nan,nan,nan
1,83,0,0,1.0,0.0,0.39261691868887283,0,0.0,0.0,0.0,0.4371399872839769,0.10350897243471974,0.33363101484925717,0.5406489597186966,0.10350897243471974,0.36142767092678696,1,0,2,5,4,6,nan,nan,nan,nan,nan,nan,nan,nan,nan,nan,nan,nan,0.0,nan,nan,nan,nan,nan,nan,nan,nan,nan,nan,nan,nan,nan,nan,nan,nan,nan,nan,659.8098336548719,794.0781389028998,nan,794.4707558215887,nan,nan,nan,nan
1,84,1,1,1.0,1.0,0.43179655986023135,0,0.0,0.0,0.0,0.4366035647707829,0.10299814158863176,0.33360542318215114,0.5396017063594146,0.10299814158863176,0.39794147182450007,3,8,0,7,5,1,nan,nan,nan,nan,nan,nan,nan,nan,nan,nan,nan,nan,0.0,nan,nan,nan,nan,nan,nan,nan,nan,nan,nan,nan,nan,nan,nan,nan,nan,nan,nan,659.8098336548719,795.0949342097447,nan,795.5267307696049,nan,nan,nan,nan
1,85,1,1,1.0,1.0,0.47096394185791723,0,0.0,0.0,0.0,0.4365463385218477,0.10238454923069114,0.3341617892911566,0.5389308877525388,0.10238454923069114,0.4317924734690071,0,5,6,2,1,8,nan,nan,nan,nan,nan,nan,nan,nan,nan,nan,nan,nan,0.0,nan,nan,nan,nan,nan,nan,nan,nan,nan,nan,nan,nan,nan,nan,nan,nan,nan,nan,659.8098336548719,796.1117232445104,nan,796.5826871863683,nan,nan,nan,nan
1,86,1,1,1.0,1.0,0.4781563507858664,0,0.0,0.0,0.0,0.4369512515022721,0.10184813912438377,0.3351031123778883,0.5387993906266558,0.10184813912438377,0.4603056175013383,3,2,8,0,6,1,nan,nan,nan,nan,nan,nan,nan,nan,nan,nan,nan,nan,0.0,nan,nan,nan,nan,nan,nan,nan,nan,nan,nan,nan,nan,nan,nan,nan,nan,nan,nan,659.8098336548719,797.1285125643481,nan,797.6066689151339,nan,nan,nan,nan
1,87,1,1,1.0,1.0,0.43733883151435293,0,0.0,0.0,0.0,0.4374303805637092,0.10135057796957253,0.33607980259413667,0.5387809585332817,0.10135057796957253,0.4621530413860455,2,7,5,1,0,8,nan,nan,nan,nan,nan,nan,nan,nan,nan,nan,nan,nan,0.0,nan,nan,nan,nan,nan,nan,nan,nan,nan,nan,nan,nan,nan,nan,nan,nan,nan,nan,659.8098336548719,798.145310722146,nan,798.5826495536603,nan,nan,nan,nan
1,88,0,0,0.0,1.0,0.5565196244569961,0,0.0,0.0,0.0,0.43742932827578557,0.10076642038943918,0.3366629078863464,0.5381957486652248,0.10076642038943918,0.49067160225240514,5,3,4,6,7,1,nan,nan,nan,nan,nan,nan,nan,nan,nan,nan,nan,nan,0.0,nan,nan,nan,nan,nan,nan,nan,nan,nan,nan,nan,nan,nan,nan,nan,nan,nan,nan,659.8098336548719,799.1621028929658,nan,799.7186225174228,nan,nan,nan,nan
1,89,1,1,1.0,1.0,0.5073199894977733,0,0.0,0.0,0.0,0.4387826270960266,0.1009842557756815,0.3377983713203451,0.5397668828717082,0.1009842557756815,0.5003928151563741,0,2,7,8,1,4,nan,nan,nan,nan,nan,nan,nan,nan,nan,nan,nan,nan,0.0,nan,nan,nan,nan,nan,nan,nan,nan,nan,nan,nan,nan,nan,nan,nan,nan,nan,nan,659.8098336548719,800.1872674861806,nan,800.6945874756784,nan,nan,nan,nan
1,90,1,1,1.0,1.0,0.5385357512277551,0,0.0,0.0,0.0,0.43955270981964173,0.10067484333061405,0.3388778664890277,0.5402275531502558,0.10067484333061405,0.5341251217275081,2,1,8,7,6,5,nan,nan,nan,nan,nan,nan,nan,nan,nan,nan,nan,nan,0.0,nan,nan,nan,nan,nan,nan,nan,nan,nan,nan,nan,nan,nan,nan,nan,nan,nan,nan,659.8098336548719,801.2040337132057,nan,801.7425694644335,nan,nan,nan,nan
1,91,1,1,1.0,1.0,0.6017515745188575,0,0.0,1.0,0.0,0.440652521390843,0.10065019307153723,0.34000232831930577,0.5413027144623802,0.10065019307153723,0.5492024384147953,8,3,7,4,5,1,nan,nan,nan,nan,nan,nan,nan,nan,nan,nan,nan,nan,0.0,nan,nan,nan,nan,nan,nan,nan,nan,nan,nan,nan,nan,nan,nan,nan,nan,nan,nan,659.8098336548719,802.220789676765,nan,802.8225412512838,nan,nan,nan,nan
1,92,1,1,1.0,1.0,0.6089417026669253,1,0.0,0.0,1.0,0.442422840655986,0.10149482913488035,0.3409280115211057,0.5439176697908664,0.10149482913488035,0.5830763428045126,3,0,8,1,4,2,1.0,1.0,1.0,1.0,1.0,1.0,0.0,1.0,0.0,0.0,1.0,0.0,2.0,1.0,0.0,6.0,2.0,4.0,1.0,3.0,1.0,2.0,6.0,5.0,4.0,4.989564050745685,1.9579902080877218,3.7664790638082195,8.620107498398283,7.6603274559020065,6.1081347376457416,659.8098336548719,803.237593251426,804.0460096927127,803.8465349540929,813.7222004757205,814.7249054691929,805.0627998678247,813.7138708177372
1,93,0,0,0.0,1.0,0.770881805656245,0,0.0,0.0,0.0,0.4442328282865397,0.10240777215360305,0.3418250561329367,0.5466406004401427,0.10240777215360305,0.6605250276140092,0,4,6,5,3,7,nan,nan,nan,nan,nan,nan,nan,nan,nan,nan,nan,nan,0.0,nan,nan,nan,nan,nan,nan,nan,nan,nan,nan,nan,nan,nan,nan,nan,nan,nan,nan,659.8098336548719,814.9473794947844,nan,815.7182613004406,nan,nan,nan,nan
1,94,1,1,1.0,1.0,0.6740648200502619,0,0.0,0.0,0.0,0.4477451828819129,0.10728259400187164,0.3404625888800413,0.5550277768837846,0.10728259400187164,0.684629442791144,6,1,7,8,5,3,nan,nan,nan,nan,nan,nan,nan,nan,nan,nan,nan,nan,0.0,nan,nan,nan,nan,nan,nan,nan,nan,nan,nan,nan,nan,nan,nan,nan,nan,nan,nan,659.8098336548719,815.9641679593478,nan,816.6382327793981,nan,nan,nan,nan
1,95,1,1,1.0,1.0,0.577260948921321,0,0.0,0.0,0.0,0.45015283859646976,0.10920721525277109,0.34094562334369866,0.5593600538492408,0.10920721525277109,0.6740691915426092,2,7,5,6,1,4,nan,nan,nan,nan,nan,nan,nan,nan,nan,nan,nan,nan,0.0,nan,nan,nan,nan,nan,nan,nan,nan,nan,nan,nan,nan,nan,nan,nan,nan,nan,nan,659.8098336548719,816.9809444498387,nan,817.55820539876,nan,nan,nan,nan
1,96,1,1,1.0,1.0,0.4084500256285537,0,0.0,0.0,0.0,0.45149081870515245,0.10940271788859077,0.3420881008165617,0.5608935365937432,0.10940271788859077,0.5532585982000455,3,0,1,8,5,7,nan,nan,nan,nan,nan,nan,nan,nan,nan,nan,nan,nan,0.0,nan,nan,nan,nan,nan,nan,nan,nan,nan,nan,nan,nan,nan,nan,nan,nan,nan,nan,659.8098336548719,817.9977545817092,nan,818.4062046073377,nan,nan,nan,nan
1,97,1,1,1.0,1.0,0.3756251805170905,0,0.0,0.0,0.0,0.4510424771106045,0.1089191169527143,0.34212336015789024,0.5599615940633188,0.1089191169527143,0.45377871835565503,1,6,2,0,3,4,nan,nan,nan,nan,nan,nan,nan,nan,nan,nan,nan,nan,0.0,nan,nan,nan,nan,nan,nan,nan,nan,nan,nan,nan,nan,nan,nan,nan,nan,nan,nan,659.8098336548719,819.0145538799115,nan,819.3901790604286,nan,nan,nan,nan
1,98,1,1,1.0,1.0,0.3347993934294209,0,0.0,0.0,0.0,0.45026497920757863,0.10862367835601798,0.34164130085156064,0.5588886575635966,0.10862367835601798,0.37295819985835504,8,2,6,1,5,3,nan,nan,nan,nan,nan,nan,nan,nan,nan,nan,nan,nan,0.0,nan,nan,nan,nan,nan,nan,nan,nan,nan,nan,nan,nan,nan,nan,nan,nan,nan,nan,659.8098336548719,820.0313463358034,nan,820.3661457292328,nan,nan,nan,nan
1,99,1,1,1.0,1.0,0.35801392811117694,0,0.0,0.0,0.0,0.4490867589445362,0.10868928270142066,0.34039747624311556,0.5577760416459568,0.10868928270142066,0.35614616735256277,5,0,3,2,6,1,nan,nan,nan,nan,nan,nan,nan,nan,nan,nan,nan,nan,0.0,nan,nan,nan,nan,nan,nan,nan,nan,nan,nan,nan,nan,nan,nan,nan,nan,nan,nan,659.8098336548719,821.0481325195869,nan,821.4061464476981,nan,nan,nan,nan
1,100,1,1,1.0,1.0,0.3331943013763521,0,0.0,0.0,0.0,0.44816683136036084,0.10852173720594321,0.3396450941544176,0.5566885685663041,0.10852173720594321,0.34200254097231664,6,3,0,1,7,2,nan,nan,nan,nan,nan,nan,nan,nan,nan,nan,nan,nan,0.0,nan,nan,nan,nan,nan,nan,nan,nan,nan,nan,nan,nan,nan,nan,nan,nan,nan,nan,659.8098336548719,822.06491186106,nan,822.3981061624363,nan,nan,nan,nan
1,101,1,1,1.0,1.0,0.4043663065240253,0,0.0,0.0,0.0,0.44701710606052075,0.108582055285291,0.33843505077522973,0.5555991613458118,0.108582055285291,0.3651915120038514,7,4,8,6,5,1,nan,nan,nan,nan,nan,nan,nan,nan,nan,nan,nan,nan,0.0,nan,nan,nan,nan,nan,nan,nan,nan,nan,nan,nan,nan,nan,nan,nan,nan,nan,nan,659.8098336548719,823.0817145804176,nan,823.4860808869416,nan,nan,nan,nan
1,102,1,1,1.0,1.0,0.3075413382612169,0,0.0,0.0,0.0,0.446594820916595,0.10812567645984836,0.3384691444567467,0.5547204973764434,0.10812567645984836,0.34836731538719806,5,1,6,8,2,4,nan,nan,nan,nan,nan,nan,nan,nan,nan,nan,nan,nan,0.0,nan,nan,nan,nan,nan,nan,nan,nan,nan,nan,nan,nan,nan,nan,nan,nan,nan,nan,659.8098336548719,824.0985158742988,nan,824.40605721256,nan,nan,nan,nan
1,103,1,1,1.0,1.0,0.3787404275499284,0,0.0,0.0,0.0,0.4452315514787972,0.10846313445153803,0.3367684170272592,0.5536946859303352,0.10846313445153803,0.36354935744505684,6,8,3,4,0,1,nan,nan,nan,nan,nan,nan,nan,nan,nan,nan,nan,nan,0.0,nan,nan,nan,nan,nan,nan,nan,nan,nan,nan,nan,nan,nan,nan,nan,nan,nan,nan,659.8098336548719,825.1153031984577,nan,825.4940436260076,nan,nan,nan,nan
1,104,1,1,1.0,1.0,0.36958684131968766,0,0.0,0.0,0.0,0.44458600658628394,0.10813205712448562,0.3364539494617983,0.5527180637107696,0.10813205712448562,0.3519562023769443,1,0,5,8,7,4,nan,nan,nan,nan,nan,nan,nan,nan,nan,nan,nan,nan,0.0,nan,nan,nan,nan,nan,nan,nan,nan,nan,nan,nan,nan,nan,nan,nan,nan,nan,nan,659.8098336548719,826.1404184700223,nan,826.510005311342,nan,nan,nan,nan
1,105,1,1,1.0,1.0,0.584731326700421,0,0.0,0.0,0.0,0.4438648607664128,0.10785953261014376,0.33600532815626905,0.5517243933765565,0.10785953261014376,0.4443528651900124,4,6,2,5,8,7,nan,nan,nan,nan,nan,nan,nan,nan,nan,nan,nan,nan,0.0,nan,nan,nan,nan,nan,nan,nan,nan,nan,nan,nan,nan,nan,nan,nan,nan,nan,nan,659.8098336548719,827.1572368696798,nan,827.7419681963802,nan,nan,nan,nan
1,106,1,1,nan,nan,nan,0,0.0,0.0,0.0,0.44520644615626054,0.10821306009638498,0.33699338605987555,0.5534195062526455,0.10821306009638498,0.47715908401005436,1,2,0,7,4,3,nan,nan,nan,nan,nan,nan,nan,nan,nan,nan,nan,nan,0.0,nan,nan,nan,nan,nan,nan,nan,nan,nan,nan,nan,nan,nan,nan,nan,nan,nan,nan,659.8098336548719,828.1823492902622,nan,nan,nan,nan,nan,nan
1,107,1,1,nan,nan,nan,0,0.0,0.0,0.0,0.44520644615626054,0.10821306009638498,0.33699338605987555,0.5534195062526455,0.10821306009638498,0.584731326700421,2,0,7,1,8,6,nan,nan,nan,nan,nan,nan,nan,nan,nan,nan,nan,nan,0.0,nan,nan,nan,nan,nan,nan,nan,nan,nan,nan,nan,nan,nan,nan,nan,nan,nan,nan,659.8098336548719,829.1991331932659,nan,nan,nan,nan,nan,nan
1,108,0,0,0.0,1.0,0.6376363580056932,0,0.0,0.0,0.0,0.44520644615626054,0.10821306009638498,0.33699338605987555,0.5534195062526455,0.10821306009638498,0.6376363580056932,7,8,4,5,1,0,nan,nan,nan,nan,nan,nan,nan,nan,nan,nan,nan,nan,0.0,nan,nan,nan,nan,nan,nan,nan,nan,nan,nan,nan,nan,nan,nan,nan,nan,nan,nan,659.8098336548719,830.2242561624153,nan,830.861892520421,nan,nan,nan,nan
1,109,1,1,1.0,1.0,0.5008366150432266,0,0.0,0.0,0.0,0.44702182268314195,0.10929607131198425,0.3377257513711577,0.5563178939951262,0.10929607131198425,0.5692364865244599,5,0,7,1,6,8,nan,nan,nan,nan,nan,nan,nan,nan,nan,nan,nan,nan,0.0,nan,nan,nan,nan,nan,nan,nan,nan,nan,nan,nan,nan,nan,nan,nan,nan,nan,nan,659.8098336548719,831.2410523245635,nan,831.7418889396067,nan,nan,nan,nan
1,110,1,1,1.0,1.0,0.42801019619219005,0,0.0,0.0,0.0,0.44752476466781566,0.10890731177907707,0.33861745288873857,0.5564320764468927,0.10890731177907707,0.5221610564137033,3,8,1,5,4,0,nan,nan,nan,nan,nan,nan,nan,nan,nan,nan,nan,nan,0.0,nan,nan,nan,nan,nan,nan,nan,nan,nan,nan,nan,nan,nan,nan,nan,nan,nan,nan,659.8098336548719,832.2578470612352,nan,832.6858572574274,nan,nan,nan,nan
1,111,1,1,1.0,1.0,0.49119922041427344,0,0.0,0.0,0.0,0.44734407421896727,0.10841805089618414,0.3389260233227831,0.5557621251151514,0.10841805089618414,0.4733486772165634,2,7,0,6,1,8,nan,nan,nan,nan,nan,nan,nan,nan,nan,nan,nan,nan,0.0,nan,nan,nan,nan,nan,nan,nan,nan,nan,nan,nan,nan,nan,nan,nan,nan,nan,nan,659.8098336548719,833.2746426532103,nan,833.7658418736246,nan,nan,nan,nan
1,112,1,1,1.0,1.0,0.426375169045059,0,0.0,0.0,0.0,0.4477464150097499,0.10800054345885139,0.33974587155089847,0.5557469584686012,0.10800054345885139,0.4485281952171742,0,4,8,2,5,3,nan,nan,nan,nan,nan,nan,nan,nan,nan,nan,nan,nan,0.0,nan,nan,nan,nan,nan,nan,nan,nan,nan,nan,nan,nan,nan,nan,nan,nan,nan,nan,659.8098336548719,834.2914476533188,nan,834.7178228223638,nan,nan,nan,nan
1,113,1,1,1.0,1.0,0.3695665994891897,0,0.0,0.0,0.0,0.44755213095552543,0.10752764436473422,0.3400244865907912,0.5550797753202596,0.10752764436473422,0.42904699631617405,7,6,3,8,0,5,nan,nan,nan,nan,nan,nan,nan,nan,nan,nan,nan,nan,0.0,nan,nan,nan,nan,nan,nan,nan,nan,nan,nan,nan,nan,nan,nan,nan,nan,nan,nan,659.8098336548719,835.3082289904705,nan,835.6777955899597,nan,nan,nan,nan
1,114,0,0,1.0,0.0,0.3764285818033386,0,0.0,0.0,0.0,0.44684955859997283,0.10729551370220006,0.33955404489777274,0.5541450723021729,0.10729551370220006,0.3907901167791958,5,4,2,7,3,0,nan,nan,nan,nan,nan,nan,nan,nan,nan,nan,nan,nan,0.0,nan,nan,nan,nan,nan,nan,nan,nan,nan,nan,nan,nan,nan,nan,nan,nan,nan,nan,659.8098336548719,836.3333391303022,nan,836.7097677121055,nan,nan,nan,nan
1,115,1,1,1.0,1.0,0.3836055955325719,0,0.0,0.0,0.0,0.4462207998785743,0.10702065730579319,0.33920014257278114,0.5532414571843676,0.10702065730579319,0.3765335922750334,7,3,8,5,6,1,nan,nan,nan,nan,nan,nan,nan,nan,nan,nan,nan,nan,0.0,nan,nan,nan,nan,nan,nan,nan,nan,nan,nan,nan,nan,nan,nan,nan,nan,nan,nan,659.8098336548719,837.3501466962916,nan,837.7337522918242,nan,nan,nan,nan
1,116,1,1,1.0,1.0,0.30244324658997357,0,0.0,0.0,0.0,0.44566668302595486,0.10670732156639247,0.3389593614595624,0.5523740045923473,0.10670732156639247,0.354159141308628,8,7,3,2,0,4,nan,nan,nan,nan,nan,nan,nan,nan,nan,nan,nan,nan,0.0,nan,nan,nan,nan,nan,nan,nan,nan,nan,nan,nan,nan,nan,nan,nan,nan,nan,nan,659.8098336548719,838.3752813543833,nan,838.6777246009733,nan,nan,nan,nan
1,117,1,1,1.0,1.0,0.34958363114856184,0,0.0,0.0,0.0,0.4444103370923059,0.10707441846990813,0.33733591862239776,0.551484755562214,0.10707441846990813,0.34521082442370243,3,8,7,0,5,1,nan,nan,nan,nan,nan,nan,nan,nan,nan,nan,nan,nan,0.0,nan,nan,nan,nan,nan,nan,nan,nan,nan,nan,nan,nan,nan,nan,nan,nan,nan,nan,659.8098336548719,839.3921103026078,nan,839.7416939337563,nan,nan,nan,nan
1,118,1,1,1.0,1.0,0.6368232633976731,0,0.0,0.0,0.0,0.44358575704062114,0.10697078253211581,0.3366149745085053,0.550556539572737,0.10697078253211581,0.4296167137120695,1,3,8,5,0,2,nan,nan,nan,nan,nan,nan,nan,nan,nan,nan,nan,nan,0.0,nan,nan,nan,nan,nan,nan,nan,nan,nan,nan,nan,nan,nan,nan,nan,nan,nan,nan,659.8098336548719,840.408852581575,nan,841.0456758449727,nan,nan,nan,nan
1,119,1,1,1.0,1.0,0.5079922465083655,0,0.0,0.0,0.0,0.4452515976126647,0.10799644339894432,0.3372551542137204,0.553248041011609,0.10799644339894432,0.49813304701820016,5,2,1,7,8,3,nan,nan,nan,nan,nan,nan,nan,nan,nan,nan,nan,nan,0.0,nan,nan,nan,nan,nan,nan,nan,nan,nan,nan,nan,nan,nan,nan,nan,nan,nan,nan,659.8098336548719,841.4256638538209,nan,841.9336561003292,nan,nan,nan,nan
1,120,1,1,1.0,1.0,0.4111977835709695,0,0.0,0.0,0.0,0.4457878424750211,0.1076889169651757,0.33809892550984544,0.5534767594401968,0.1076889169651757,0.5186710978256693,7,0,3,8,1,2,nan,nan,nan,nan,nan,nan,nan,nan,nan,nan,nan,nan,0.0,nan,nan,nan,nan,nan,nan,nan,nan,nan,nan,nan,nan,nan,nan,nan,nan,nan,nan,659.8098336548719,842.4424349274777,nan,842.8536327110487,nan,nan,nan,nan
1,121,1,1,1.0,1.0,0.4100485604722053,0,0.0,0.0,0.0,0.4454947063826139,0.10727850514182366,0.3382162012407902,0.5527732115244376,0.10727850514182366,0.44307953018384677,5,8,1,0,7,3,nan,nan,nan,nan,nan,nan,nan,nan,nan,nan,nan,nan,0.0,nan,nan,nan,nan,nan,nan,nan,nan,nan,nan,nan,nan,nan,nan,nan,nan,nan,nan,659.8098336548719,843.467554760573,nan,843.8776033210452,nan,nan,nan,nan
1,122,1,1,1.0,1.0,0.385226652957499,0,0.0,0.0,0.0,0.4451968396102575,0.10687579516852405,0.3383210444417335,0.5520726347787815,0.10687579516852405,0.40215766566689126,4,5,2,7,3,6,nan,nan,nan,nan,nan,nan,nan,nan,nan,nan,nan,nan,0.0,nan,nan,nan,nan,nan,nan,nan,nan,nan,nan,nan,nan,nan,nan,nan,nan,nan,nan,659.8098336548719,844.4843529184,nan,844.8695795713575,nan,nan,nan,nan
1,123,0,0,0.0,1.0,0.5840619206428528,0,0.0,0.0,0.0,0.4446970880548179,0.10656908121998926,0.33812800683482863,0.5512661692748071,0.10656908121998926,0.45977904469085235,5,7,0,1,4,8,nan,nan,nan,nan,nan,nan,nan,nan,nan,nan,nan,nan,0.0,nan,nan,nan,nan,nan,nan,nan,nan,nan,nan,nan,nan,nan,nan,nan,nan,nan,nan,659.8098336548719,845.5094824447588,nan,846.0935443654016,nan,nan,nan,nan
1,124,1,1,1.0,1.0,0.5032553718483541,0,0.0,0.0,0.0,0.44584886353075204,0.10687516190948552,0.3389737016212665,0.5527240254402376,0.10687516190948552,0.4908479818162353,6,2,4,8,7,3,nan,nan,nan,nan,nan,nan,nan,nan,nan,nan,nan,nan,0.0,nan,nan,nan,nan,nan,nan,nan,nan,nan,nan,nan,nan,nan,nan,nan,nan,nan,nan,659.8098336548719,846.5262851641455,nan,847.0295405359939,nan,nan,nan,nan
1,125,1,1,1.0,1.0,0.4144350517890416,0,0.0,0.0,0.0,0.4463194086808963,0.10656202777147505,0.33975738090942126,0.5528814364523713,0.10656202777147505,0.5005841147600828,4,3,6,2,5,1,nan,nan,nan,nan,nan,nan,nan,nan,nan,nan,nan,nan,0.0,nan,nan,nan,nan,nan,nan,nan,nan,nan,nan,nan,nan,nan,nan,nan,nan,nan,nan,659.8098336548719,847.5430622248386,nan,847.9574972766277,nan,nan,nan,nan
1,126,1,1,1.0,1.0,0.39763033675262704,0,0.0,0.0,0.0,0.4460601862671414,0.10616658064854237,0.33989360561859905,0.5522267669156837,0.10616658064854237,0.4384402534633409,8,0,2,1,3,4,nan,nan,nan,nan,nan,nan,nan,nan,nan,nan,nan,nan,0.0,nan,nan,nan,nan,nan,nan,nan,nan,nan,nan,nan,nan,nan,nan,nan,nan,nan,nan,659.8098336548719,848.5598546807305,nan,848.9574850174831,nan,nan,nan,nan
1,127,1,1,1.0,1.0,0.38079540149192326,0,0.0,0.0,0.0,0.445669622964605,0.10582630723357782,0.33984331573102716,0.5514959301981828,0.10582630723357782,0.39762026334453066,2,8,4,7,5,6,nan,nan,nan,nan,nan,nan,nan,nan,nan,nan,nan,nan,0.0,nan,nan,nan,nan,nan,nan,nan,nan,nan,nan,nan,nan,nan,nan,nan,nan,nan,nan,659.8098336548719,849.5766613914457,nan,849.9574567929376,nan,nan,nan,nan
1,128,0,0,0.0,1.0,0.4920202977373265,0,0.0,0.0,0.0,0.44515062919282355,0.10556047369461917,0.33959015549820437,0.5507111028874427,0.10556047369461917,0.4234820119939589,7,2,5,3,0,1,nan,nan,nan,nan,nan,nan,nan,nan,nan,nan,nan,nan,0.0,nan,nan,nan,nan,nan,nan,nan,nan,nan,nan,nan,nan,nan,nan,nan,nan,nan,nan,659.8098336548719,850.5934253376909,nan,851.0854456354282,nan,nan,nan,nan
1,129,1,1,1.0,1.0,0.427130103984382,0,0.0,0.0,0.0,0.4455226106892085,0.1052229693076247,0.3402996413815838,0.5507455799968333,0.1052229693076247,0.43331526773787726,0,7,3,1,8,4,nan,nan,nan,nan,nan,nan,nan,nan,nan,nan,nan,nan,0.0,nan,nan,nan,nan,nan,nan,nan,nan,nan,nan,nan,nan,nan,nan,nan,nan,nan,nan,659.8098336548719,851.6102765234245,nan,852.0374066274089,nan,nan,nan,nan
1,130,1,1,1.0,1.0,0.33036586121306755,0,0.0,0.0,0.0,0.4453777878017689,0.10482049345278499,0.3405572943489839,0.5501982812545538,0.10482049345278499,0.41650542097825866,3,2,4,5,7,0,nan,nan,nan,nan,nan,nan,nan,nan,nan,nan,nan,nan,0.0,nan,nan,nan,nan,nan,nan,nan,nan,nan,nan,nan,nan,nan,nan,nan,nan,nan,nan,659.8098336548719,852.627033057186,nan,852.9573989183991,nan,nan,nan,nan
1,131,1,1,1.0,1.0,0.35355872855870984,0,0.0,0.0,0.0,0.4444792571252947,0.10490010330404391,0.33957915382125076,0.5493793604293385,0.10490010330404391,0.3703515645853865,4,1,3,7,5,8,nan,nan,nan,nan,nan,nan,nan,nan,nan,nan,nan,nan,0.0,nan,nan,nan,nan,nan,nan,nan,nan,nan,nan,nan,nan,nan,nan,nan,nan,nan,nan,659.8098336548719,853.6438123986591,nan,853.9973711272178,nan,nan,nan,nan
1,132,1,1,1.0,1.0,0.4087339815159794,0,0.0,0.0,0.0,0.4437744468263289,0.10479653653366901,0.3389779102926599,0.5485709833599979,0.10479653653366901,0.3642195237625856,8,5,1,3,4,2,nan,nan,nan,nan,nan,nan,nan,nan,nan,nan,nan,nan,0.0,nan,nan,nan,nan,nan,nan,nan,nan,nan,nan,nan,nan,nan,nan,nan,nan,nan,nan,659.8098336548719,854.6606191093742,nan,855.0693530908902,nan,nan,nan,nan
1,133,0,0,0.0,1.0,0.519921530096326,0,0.0,0.0,0.0,0.44350490478548005,0.10443757444558494,0.3390673303398951,0.547942479231065,0.10443757444558494,0.42740474672367174,1,7,6,4,5,3,nan,nan,nan,nan,nan,nan,nan,nan,nan,nan,nan,nan,0.0,nan,nan,nan,nan,nan,nan,nan,nan,nan,nan,nan,nan,nan,nan,nan,nan,nan,nan,659.8098336548719,855.6774047229555,nan,856.1973262530519,nan,nan,nan,nan
1,134,1,1,1.0,1.0,0.47914449448580854,0,0.0,0.0,0.0,0.4440882378031201,0.10425057264833587,0.33983766515478425,0.5483388104514559,0.10425057264833587,0.46926666869937134,8,5,0,6,7,2,nan,nan,nan,nan,nan,nan,nan,nan,nan,nan,nan,nan,0.0,nan,nan,nan,nan,nan,nan,nan,nan,nan,nan,nan,nan,nan,nan,nan,nan,nan,nan,659.8098336548719,856.6941641076992,nan,857.173308602185,nan,nan,nan,nan
1,135,1,1,1.0,1.0,0.3982766499975696,0,0.0,0.0,0.0,0.4443538155052617,0.10389940719147926,0.34045440831378243,0.5482532226967409,0.10389940719147926,0.46578089152656804,6,3,1,5,4,7,nan,nan,nan,nan,nan,nan,nan,nan,nan,nan,nan,nan,0.0,nan,nan,nan,nan,nan,nan,nan,nan,nan,nan,nan,nan,nan,nan,nan,nan,nan,nan,659.8098336548719,857.7109910602449,nan,858.1092677102424,nan,nan,nan,nan
1,136,1,1,1.0,1.0,0.4295023900922388,0,0.0,0.0,0.0,0.4440073706518204,0.10358457376115131,0.34042279689066907,0.5475919444129717,0.10358457376115131,0.4356411781918723,4,0,2,7,3,8,nan,nan,nan,nan,nan,nan,nan,nan,nan,nan,nan,nan,0.0,nan,nan,nan,nan,nan,nan,nan,nan,nan,nan,nan,nan,nan,nan,nan,nan,nan,nan,659.8098336548719,858.7277584276744,nan,859.1572608177667,nan,nan,nan,nan
1,137,0,0,0.0,1.0,0.5006484514742624,0,0.0,0.0,0.0,0.44389912452824143,0.10320489061517439,0.340694233913067,0.5471040151434158,0.10320489061517439,0.44280916385469027,6,8,5,2,1,7,nan,nan,nan,nan,nan,nan,nan,nan,nan,nan,nan,nan,0.0,nan,nan,nan,nan,nan,nan,nan,nan,nan,nan,nan,nan,nan,nan,nan,nan,nan,nan,659.8098336548719,859.7445811037614,nan,860.2452295552357,nan,nan,nan,nan
1,138,1,1,1.0,1.0,0.547854978358373,0,0.0,0.0,0.0,0.4443194899130268,0.10293701981522645,0.3413824700978003,0.5472565097282532,0.10293701981522645,0.49266860664162476,8,1,4,0,7,3,nan,nan,nan,nan,nan,nan,nan,nan,nan,nan,nan,nan,0.0,nan,nan,nan,nan,nan,nan,nan,nan,nan,nan,nan,nan,nan,nan,nan,nan,nan,nan,659.8098336548719,860.7613604452345,nan,861.3092154235928,nan,nan,nan,nan
1,139,1,1,1.0,1.0,0.603019967849832,0,0.0,0.0,0.0,0.4450807802692425,0.10293861796557738,0.3421421623036651,0.5480193982348199,0.10293861796557738,0.5505077992274892,3,4,7,6,5,0,nan,nan,nan,nan,nan,nan,nan,nan,nan,nan,nan,nan,0.0,nan,nan,nan,nan,nan,nan,nan,nan,nan,nan,nan,nan,nan,nan,nan,nan,nan,nan,659.8098336548719,861.7781554670073,nan,862.3811754348571,nan,nan,nan,nan
1,140,1,1,1.0,1.0,0.42621751080150716,0,0.0,0.0,0.0,0.4462336210545023,0.10343965911190955,0.34279396194259276,0.5496732801664119,0.10343965911190955,0.525697485669904,4,7,2,8,1,3,nan,nan,nan,nan,nan,nan,nan,nan,nan,nan,nan,nan,0.0,nan,nan,nan,nan,nan,nan,nan,nan,nan,nan,nan,nan,nan,nan,nan,nan,nan,nan,659.8098336548719,862.7949470675958,nan,863.2211645783973,nan,nan,nan,nan
1,141,1,1,1.0,1.0,0.569384308939334,0,0.0,0.0,0.0,0.44608857677730673,0.10307817783865571,0.34301039893865104,0.5491667546159624,0.10307817783865571,0.532873929196891,5,0,3,4,7,2,nan,nan,nan,nan,nan,nan,nan,nan,nan,nan,nan,nan,0.0,nan,nan,nan,nan,nan,nan,nan,nan,nan,nan,nan,nan,nan,nan,nan,nan,nan,nan,659.8098336548719,863.8117412340653,nan,864.3811255430046,nan,nan,nan,nan
1,142,1,1,1.0,1.0,0.5525733217655215,0,0.0,0.0,0.0,0.44697559643314866,0.10323395776060453,0.34374163867254415,0.5502095541937532,0.10323395776060453,0.5160583805021209,2,3,5,0,4,6,nan,nan,nan,nan,nan,nan,nan,nan,nan,nan,nan,nan,0.0,nan,nan,nan,nan,nan,nan,nan,nan,nan,nan,nan,nan,nan,nan,nan,nan,nan,nan,659.8098336548719,864.828533119784,nan,865.3811064415495,nan,nan,nan,nan
1,143,1,1,1.0,1.0,0.6157603503670543,0,0.0,1.0,0.0,0.44772986589980845,0.10324827861965424,0.3444815872801542,0.5509781445194627,0.10324827861965424,0.57923932702397,0,8,1,6,7,5,nan,nan,nan,nan,nan,nan,nan,nan,nan,nan,nan,nan,0.0,nan,nan,nan,nan,nan,nan,nan,nan,nan,nan,nan,nan,nan,nan,nan,nan,nan,nan,659.8098336548719,865.8453421112499,nan,866.461102461617,nan,nan,nan,nan
1,144,1,1,1.0,1.0,0.6229393597459421,1,0.0,0.0,1.0,0.44892157146340594,0.10384327341591054,0.3450782980474954,0.5527648448793165,0.10384327341591054,0.5970910106261726,8,7,4,0,5,3,1.0,1.0,1.0,1.0,1.0,1.0,0.0,1.0,0.0,0.0,1.0,0.0,2.0,4.0,7.0,0.0,3.0,5.0,8.0,5.0,1.0,3.0,4.0,2.0,6.0,8.64193218870787,2.47694440651685,6.251313794928137,7.562968502286822,3.8685537949495483,9.850396583176916,659.8098336548719,866.8621160358889,867.6705316218722,867.4850553956348,878.571874339832,879.5726560738112,868.6789927092323,878.5635432563722
1,145,1,1,1.0,1.0,0.6157210070814472,0,0.0,0.0,0.0,0.4501470488456773,0.10449516202599872,0.34565188681967857,0.554642210871676,0.10449516202599872,0.6181402390648145,5,0,2,8,7,4,nan,nan,nan,nan,nan,nan,nan,nan,nan,nan,nan,nan,0.0,nan,nan,nan,nan,nan,nan,nan,nan,nan,nan,nan,nan,nan,nan,nan,nan,nan,nan,659.8098336548719,879.797048227163,nan,880.4127692342445,nan,nan,nan,nan
1,146,1,1,1.0,1.0,0.51086459151702,0,0.0,0.0,0.0,0.4513049086934799,0.10503928489665916,0.34626562379682074,0.5563441935901391,0.10503928489665916,0.5831749861148031,0,5,7,3,1,6,nan,nan,nan,nan,nan,nan,nan,nan,nan,nan,nan,nan,0.0,nan,nan,nan,nan,nan,nan,nan,nan,nan,nan,nan,nan,nan,nan,nan,nan,nan,nan,659.8098336548719,880.8138766052143,nan,881.3247411967313,nan,nan,nan,nan
1,147,1,1,1.0,1.0,0.47007786264293827,0,0.0,0.0,0.0,0.4517185176019767,0.10479071959617284,0.34692779800580387,0.5565092371981495,0.10479071959617284,0.5322211537471352,1,6,8,5,3,2,nan,nan,nan,nan,nan,nan,nan,nan,nan,nan,nan,nan,0.0,nan,nan,nan,nan,nan,nan,nan,nan,nan,nan,nan,nan,nan,nan,nan,nan,nan,nan,659.8098336548719,881.8306271519396,nan,882.3007050145825,nan,nan,nan,nan
1,148,1,1,1.0,1.0,0.49325476461672224,0,0.0,0.0,0.0,0.451845133774673,0.1044397998024332,0.3474053339722398,0.5562849335771062,0.1044397998024332,0.4913990729255602,4,5,1,2,8,0,nan,nan,nan,nan,nan,nan,nan,nan,nan,nan,nan,nan,0.0,nan,nan,nan,nan,nan,nan,nan,nan,nan,nan,nan,nan,nan,nan,nan,nan,nan,nan,659.8098336548719,882.8474298712972,nan,883.3406846359139,nan,nan,nan,nan
1,149,1,1,1.0,1.0,0.48410459954175167,0,0.0,0.0,0.0,0.4521287613831802,0.10413753488542443,0.34799122649775577,0.5562662962686047,0.10413753488542443,0.4824790756004707,6,7,0,4,1,2,nan,nan,nan,nan,nan,nan,nan,nan,nan,nan,nan,nan,0.0,nan,nan,nan,nan,nan,nan,nan,nan,nan,nan,nan,nan,nan,nan,nan,nan,nan,nan,659.8098336548719,883.8725534106488,nan,884.3566580101906,nan,nan,nan,nan
1,150,1,1,1.0,1.0,0.4993027970485855,0,0.0,0.0,0.0,0.4523462840917419,0.10381599760948447,0.3485302864822574,0.5561622817012264,0.10381599760948447,0.49222072040235315,8,6,4,0,5,7,nan,nan,nan,nan,nan,nan,nan,nan,nan,nan,nan,nan,0.0,nan,nan,nan,nan,nan,nan,nan,nan,nan,nan,nan,nan,nan,nan,nan,nan,nan,nan,659.8098336548719,884.8893373136525,nan,885.3886401107011,nan,nan,nan,nan
1,151,1,1,1.0,1.0,0.46614866572781466,0,0.0,0.0,0.0,0.45266355782793677,0.10353615819337592,0.34912739963456085,0.5561997160213127,0.10353615819337592,0.4831853541060506,4,7,6,8,3,1,nan,nan,nan,nan,nan,nan,nan,nan,nan,nan,nan,nan,0.0,nan,nan,nan,nan,nan,nan,nan,nan,nan,nan,nan,nan,nan,nan,nan,nan,nan,nan,659.8098336548719,885.9144714015711,nan,886.3806200672989,nan,nan,nan,nan
1,152,1,1,1.0,1.0,0.46532217162894085,0,0.0,0.0,0.0,0.4527540619078017,0.10319401040014975,0.34956005150765196,0.5559480723079515,0.10319401040014975,0.4769245448017803,7,2,5,3,4,0,nan,nan,nan,nan,nan,nan,nan,nan,nan,nan,nan,nan,0.0,nan,nan,nan,nan,nan,nan,nan,nan,nan,nan,nan,nan,nan,nan,nan,nan,nan,nan,659.8098336548719,886.9312624319864,nan,887.3965846036153,nan,nan,nan,nan
1,153,1,1,1.0,1.0,0.4085284270986449,0,0.0,0.0,0.0,0.4528378493059427,0.10285454026342948,0.3499833090425132,0.5556923895693722,0.10285454026342948,0.44666642148513347,5,8,3,0,7,4,nan,nan,nan,nan,nan,nan,nan,nan,nan,nan,nan,nan,0.0,nan,nan,nan,nan,nan,nan,nan,nan,nan,nan,nan,nan,nan,nan,nan,nan,nan,nan,659.8098336548719,887.9480471902643,nan,888.356575617363,nan,nan,nan,nan
1,154,1,1,1.0,1.0,0.41571941052097827,0,0.0,0.0,0.0,0.4525444094237751,0.1025763740876026,0.3499680353361725,0.5551207835113777,0.1025763740876026,0.42985666974952136,1,7,6,4,8,3,nan,nan,nan,nan,nan,nan,nan,nan,nan,nan,nan,nan,0.0,nan,nan,nan,nan,nan,nan,nan,nan,nan,nan,nan,nan,nan,nan,nan,nan,nan,nan,659.8098336548719,888.9648427822394,nan,889.3805621927604,nan,nan,nan,nan
1,155,1,1,1.0,1.0,0.5748883776832372,0,0.0,0.0,0.0,0.45230213969415145,0.1022817300409753,0.35002040965317616,0.5545838697351267,0.1022817300409753,0.4663787384342868,2,8,4,1,0,6,nan,nan,nan,nan,nan,nan,nan,nan,nan,nan,nan,nan,0.0,nan,nan,nan,nan,nan,nan,nan,nan,nan,nan,nan,nan,nan,nan,nan,nan,nan,nan,659.8098336548719,889.9816415102396,nan,890.5565298879228,nan,nan,nan,nan
1,156,1,1,1.0,1.0,0.4700653183972463,0,0.0,0.0,0.0,0.4531033569359102,0.1024243740511065,0.3506789828848037,0.5555277309870167,0.1024243740511065,0.48689103553382057,8,6,0,2,7,5,nan,nan,nan,nan,nan,nan,nan,nan,nan,nan,nan,nan,0.0,nan,nan,nan,nan,nan,nan,nan,nan,nan,nan,nan,nan,nan,nan,nan,nan,nan,nan,659.8098336548719,890.9984294046008,nan,891.468494722998,nan,nan,nan,nan
1,157,1,1,1.0,1.0,0.4612615453079343,0,0.0,0.0,0.0,0.453213499542802,0.10210037577889151,0.35111312376391046,0.5553138753216935,0.10210037577889151,0.5020717471294726,4,2,1,8,3,7,nan,nan,nan,nan,nan,nan,nan,nan,nan,nan,nan,nan,0.0,nan,nan,nan,nan,nan,nan,nan,nan,nan,nan,nan,nan,nan,nan,nan,nan,nan,nan,659.8098336548719,892.0152503701393,nan,892.4765119154472,nan,nan,nan,nan
1,158,1,1,1.0,1.0,0.43643022965989076,0,0.0,0.0,0.0,0.45326542241870604,0.10177252656175702,0.35149289585694904,0.5550379489804631,0.10177252656175702,0.45591903112169047,2,7,8,4,6,5,nan,nan,nan,nan,nan,nan,nan,nan,nan,nan,nan,nan,0.0,nan,nan,nan,nan,nan,nan,nan,nan,nan,nan,nan,nan,nan,nan,nan,nan,nan,nan,659.8098336548719,893.0320257202548,nan,893.4684559499146,nan,nan,nan,nan
1,159,1,1,1.0,1.0,0.47562184487469494,0,0.0,0.0,0.0,0.45315750451640596,0.10145470497249978,0.35170279954390615,0.5546122094889058,0.10145470497249978,0.4577712066141733,7,5,3,6,8,4,nan,nan,nan,nan,nan,nan,nan,nan,nan,nan,nan,nan,0.0,nan,nan,nan,nan,nan,nan,nan,nan,nan,nan,nan,nan,nan,nan,nan,nan,nan,nan,659.8098336548719,894.0488176059444,nan,894.524439450819,nan,nan,nan,nan
1,160,1,1,1.0,1.0,0.5068247772578616,0,0.0,0.0,0.0,0.45330058948684093,0.10114687401787022,0.35215371546897073,0.5544474635047112,0.10114687401787022,0.47295895059748244,1,8,4,0,2,3,nan,nan,nan,nan,nan,nan,nan,nan,nan,nan,nan,nan,0.0,nan,nan,nan,nan,nan,nan,nan,nan,nan,nan,nan,nan,nan,nan,nan,nan,nan,nan,659.8098336548719,895.0655855435762,nan,895.572410320834,nan,nan,nan,nan
1,161,1,1,1.0,1.0,0.5139812640263699,0,0.0,0.0,0.0,0.453639350168936,0.1009155887454026,0.35272376142353334,0.5545549389143386,0.1009155887454026,0.4988092953863088,2,5,3,4,8,1,nan,nan,nan,nan,nan,nan,nan,nan,nan,nan,nan,nan,0.0,nan,nan,nan,nan,nan,nan,nan,nan,nan,nan,nan,nan,nan,nan,nan,nan,nan,nan,659.8098336548719,896.082402232656,nan,896.5963834966824,nan,nan,nan,nan
1,162,1,1,1.0,1.0,0.5131638930179179,0,0.0,0.0,0.0,0.4540188590611211,0.1007107853194012,0.3533080737417199,0.5547296443805223,0.1007107853194012,0.5113233114340497,3,7,1,8,4,6,nan,nan,nan,nan,nan,nan,nan,nan,nan,nan,nan,nan,0.0,nan,nan,nan,nan,nan,nan,nan,nan,nan,nan,nan,nan,nan,nan,nan,nan,nan,nan,659.8098336548719,897.0991855654574,nan,897.6123494584754,nan,nan,nan,nan
1,163,1,1,1.0,1.0,0.4803313502925448,0,0.0,0.0,0.0,0.4543885155233511,0.10050371803328259,0.3538847974900685,0.5548922335566336,0.10050371803328259,0.5024921691122776,5,3,0,4,8,7,nan,nan,nan,nan,nan,nan,nan,nan,nan,nan,nan,nan,0.0,nan,nan,nan,nan,nan,nan,nan,nan,nan,nan,nan,nan,nan,nan,nan,nan,nan,nan,659.8098336548719,898.1160005439597,nan,898.5963318942522,nan,nan,nan,nan
1,164,1,1,1.0,1.0,0.43154339437023737,0,0.0,0.0,0.0,0.4545496511430355,0.10021183849565246,0.35433781264738307,0.554761489638688,0.10021183849565246,0.4750128792269,8,0,6,2,7,5,nan,nan,nan,nan,nan,nan,nan,nan,nan,nan,nan,nan,0.0,nan,nan,nan,nan,nan,nan,nan,nan,nan,nan,nan,nan,nan,nan,nan,nan,nan,nan,659.8098336548719,899.1327664859127,nan,899.564309880283,nan,nan,nan,nan
1,165,1,1,1.0,1.0,0.5024060700379778,0,0.0,0.0,0.0,0.45440763721233923,0.09991831370974427,0.354489323502595,0.5543259509220835,0.09991831370974427,0.47142693823358667,0,2,8,1,5,3,nan,nan,nan,nan,nan,nan,nan,nan,nan,nan,nan,nan,0.0,nan,nan,nan,nan,nan,nan,nan,nan,nan,nan,nan,nan,nan,nan,nan,nan,nan,nan,659.8098336548719,900.1578854637046,nan,900.6602915337426,nan,nan,nan,nan
1,166,1,1,1.0,1.0,0.46957352734170854,0,0.0,0.0,0.0,0.45470210612538,0.09968183005637944,0.35502027606900055,0.5543839361817594,0.09968183005637944,0.4678409972499746,4,3,1,2,8,0,nan,nan,nan,nan,nan,nan,nan,nan,nan,nan,nan,nan,0.0,nan,nan,nan,nan,nan,nan,nan,nan,nan,nan,nan,nan,nan,nan,nan,nan,nan,nan,659.8098336548719,901.1746850470081,nan,901.6442585743498,nan,nan,nan,nan
1,167,1,1,1.0,1.0,0.5167541104310658,0,0.0,0.0,0.0,0.4547927855230405,0.09938420064203009,0.3554085848810104,0.5541769861650706,0.09938420064203009,0.4962445692702507,7,4,0,1,5,3,nan,nan,nan,nan,nan,nan,nan,nan,nan,nan,nan,nan,0.0,nan,nan,nan,nan,nan,nan,nan,nan,nan,nan,nan,nan,nan,nan,nan,nan,nan,nan,659.8098336548719,902.1914786433044,nan,902.7082327537355,nan,nan,nan,nan
1,168,1,1,1.0,1.0,0.547922261088388,0,0.0,0.0,0.0,0.45516830870430125,0.09919921520890634,0.3559690934953949,0.5543675239132075,0.09919921520890634,0.5114166329537208,6,2,4,3,7,5,nan,nan,nan,nan,nan,nan,nan,nan,nan,nan,nan,nan,0.0,nan,nan,nan,nan,nan,nan,nan,nan,nan,nan,nan,nan,nan,nan,nan,nan,nan,nan,659.8098336548719,903.2083047405467,nan,903.7562270016351,nan,nan,nan,nan
1,169,1,1,1.0,1.0,0.547098332841415,0,0.0,0.0,0.0,0.455727067453603,0.09916006828990173,0.35656699916370127,0.5548871357435047,0.09916006828990173,0.5372582347869562,8,3,7,2,5,1,nan,nan,nan,nan,nan,nan,nan,nan,nan,nan,nan,nan,0.0,nan,nan,nan,nan,nan,nan,nan,nan,nan,nan,nan,nan,nan,nan,nan,nan,nan,nan,659.8098336548719,904.2250943454856,nan,904.772192678327,nan,nan,nan,nan
1,170,1,1,1.0,1.0,0.6102836508653127,0,0.0,1.0,0.0,0.4562742007792785,0.09911374019247113,0.3571604605868074,0.5553879409717496,0.09911374019247113,0.5684347482650386,2,4,8,0,1,7,nan,nan,nan,nan,nan,nan,nan,nan,nan,nan,nan,nan,0.0,nan,nan,nan,nan,nan,nan,nan,nan,nan,nan,nan,nan,nan,nan,nan,nan,nan,nan,659.8098336548719,905.241883095121,nan,905.8521667459863,nan,nan,nan,nan
1,171,1,1,1.0,1.0,0.6331449511926621,1,0.0,0.0,1.0,0.4571909236964573,0.09952589458391917,0.35766502911253817,0.5567168182803764,0.09952589458391917,0.59684231163313,8,6,5,1,7,3,1.0,1.0,1.0,1.0,1.0,1.0,0.0,0.0,0.0,0.0,0.0,0.0,0.0,3.0,5.0,0.0,5.0,4.0,2.0,2.0,1.0,6.0,5.0,4.0,3.0,4.596181933622574,2.772990377736278,8.612110547808697,7.500391294655856,6.612407047941815,5.500572330784053,659.8098336548719,906.2669903839997,907.0753985574702,906.9001353351923,916.7348690139479,917.7450364025135,908.083853657794,916.7265379304881
1,172,1,1,1.0,1.0,0.7634464947041124,0,0.0,0.0,0.0,0.4582320717881508,0.10014440597039867,0.3580876658177521,0.5583764777585495,0.10014440597039867,0.6689583655873624,4,8,3,0,2,6,nan,nan,nan,nan,nan,nan,nan,nan,nan,nan,nan,nan,0.0,nan,nan,nan,nan,nan,nan,nan,nan,nan,nan,nan,nan,nan,nan,nan,nan,nan,nan,659.8098336548719,917.9684315741761,nan,918.7318780688802,nan,nan,nan,nan
1,173,1,1,1.0,1.0,0.7542655392317101,0,0.0,0.0,0.0,0.46002745074648,0.10254101946434903,0.357486431282131,0.562568470210829,0.10254101946434903,0.7169523283761615,0,4,5,2,1,3,nan,nan,nan,nan,nan,nan,nan,nan,nan,nan,nan,nan,0.0,nan,nan,nan,nan,nan,nan,nan,nan,nan,nan,nan,nan,nan,nan,nan,nan,nan,nan,659.8098336548719,918.9935628111416,nan,919.7478283503733,nan,nan,nan,nan
1,174,1,1,1.0,1.0,0.6814821699226741,0,0.0,1.0,0.0,0.461748141322417,0.10467331732092774,0.35707482400148927,0.5664214586433447,0.10467331732092774,0.7330647346194988,6,7,4,3,0,8,nan,nan,nan,nan,nan,nan,nan,nan,nan,nan,nan,nan,0.0,nan,nan,nan,nan,nan,nan,nan,nan,nan,nan,nan,nan,nan,nan,nan,nan,nan,nan,659.8098336548719,920.010351560777,nan,920.6918337306997,nan,nan,nan,nan
1,175,1,1,1.0,1.0,0.6806590969790705,1,0.0,0.0,1.0,0.4630256647445115,0.1056971431029118,0.35732852164159973,0.5687228078474234,0.1056971431029118,0.7054689353778182,7,6,0,1,8,2,1.0,1.0,1.0,1.0,1.0,1.0,1.0,1.0,1.0,0.0,0.0,0.0,3.0,7.0,6.0,0.0,8.0,1.0,4.0,3.0,2.0,1.0,6.0,5.0,4.0,5.469060924224323,3.9569610105245374,2.9324008214171045,10.003242685081204,8.090926041186322,6.964140019903425,659.8098336548719,921.0271474378242,921.8355507646629,921.7078065348032,932.9035741665284,933.9062529311341,922.8606845674803,932.895238521538
1,176,0,0,0.0,1.0,0.770734695950523,0,0.0,0.0,0.0,0.4642836614626304,0.10667477804902425,0.35760888341360614,0.5709584395116547,0.10667477804902425,0.7109586542840892,8,3,2,0,5,4,nan,nan,nan,nan,nan,nan,nan,nan,nan,nan,nan,nan,0.0,nan,nan,nan,nan,nan,nan,nan,nan,nan,nan,nan,nan,nan,nan,nan,nan,nan,nan,659.8098336548719,934.1287571769499,nan,934.8994918729004,nan,nan,nan,nan
1,177,1,1,1.0,1.0,0.625888965849299,0,0.0,0.0,0.0,0.4660448743045148,0.10886106937586333,0.3571838049286515,0.5749059436803782,0.10886106937586333,0.6924275862596309,7,2,8,1,0,6,nan,nan,nan,nan,nan,nan,nan,nan,nan,nan,nan,nan,0.0,nan,nan,nan,nan,nan,nan,nan,nan,nan,nan,nan,nan,nan,nan,nan,nan,nan,nan,659.8098336548719,935.1455918270804,nan,935.7714807929297,nan,nan,nan,nan
1,178,1,1,1.0,1.0,0.6248007533431519,0,0.0,0.0,0.0,0.46695826911334215,0.1092162095479179,0.35774205956542426,0.57617447866126,0.1092162095479179,0.6738081383809913,1,0,6,2,3,5,nan,nan,nan,nan,nan,nan,nan,nan,nan,nan,nan,nan,0.0,nan,nan,nan,nan,nan,nan,nan,nan,nan,nan,nan,nan,nan,nan,nan,nan,nan,nan,659.8098336548719,936.1706438072724,nan,936.7954445606156,nan,nan,nan,nan
1,179,1,1,1.0,1.0,0.6639553060231265,0,0.0,1.0,0.0,0.46785510141010245,0.10954980878610637,0.3583052926239961,0.5774049101962089,0.10954980878610637,0.6382150084051924,3,1,2,5,4,6,nan,nan,nan,nan,nan,nan,nan,nan,nan,nan,nan,nan,0.0,nan,nan,nan,nan,nan,nan,nan,nan,nan,nan,nan,nan,nan,nan,nan,nan,nan,nan,659.8098336548719,937.1874716150924,nan,937.8514269211155,nan,nan,nan,nan
1,180,1,1,1.0,1.0,0.6308231271395925,1,0.0,0.0,1.0,0.46896301217062797,0.11022427817133083,0.3587387339992971,0.5791872903419588,0.11022427817133083,0.6398597288352903,7,0,5,8,1,3,1.0,1.0,1.0,1.0,1.0,1.0,0.0,0.0,1.0,0.0,0.0,1.0,2.0,1.0,4.0,5.0,7.0,3.0,3.0,4.0,3.0,2.0,6.0,5.0,1.0,6.602574362361338,5.450359178532381,3.7483794414729346,10.721566136489855,7.850427088473225,2.145726107439259,659.8098336548719,938.2125503943244,939.0210021875391,938.843373521464,950.7974579105212,951.7990584410436,940.0378060473013,950.7891117169638
1,181,0,0,0.0,1.0,0.7244399070041254,0,0.0,0.0,0.0,0.4698723386592177,0.11057799647894509,0.35929434218027256,0.5804503351381628,0.11057799647894509,0.6730727800556148,1,6,0,7,4,2,nan,nan,nan,nan,nan,nan,nan,nan,nan,nan,nan,nan,0.0,nan,nan,nan,nan,nan,nan,nan,nan,nan,nan,nan,nan,nan,nan,nan,nan,nan,nan,659.8098336548719,952.0226374997874,nan,952.7470774067915,nan,nan,nan,nan
1,182,1,1,1.0,1.0,0.6276480098604225,0,0.0,0.0,0.0,0.4712945038455021,0.11188922140345944,0.3594052824420426,0.5831837252489616,0.11188922140345944,0.6609703480013801,6,3,8,0,2,7,nan,nan,nan,nan,nan,nan,nan,nan,nan,nan,nan,nan,0.0,nan,nan,nan,nan,nan,nan,nan,nan,nan,nan,nan,nan,nan,nan,nan,nan,nan,nan,659.8098336548719,953.0394205475168,nan,953.6670685573772,nan,nan,nan,nan
1,183,1,1,1.0,1.0,0.6108367376145907,0,0.0,0.0,0.0,0.47216313443447383,0.11218157462762209,0.35998155980685176,0.5843447090620959,0.11218157462762209,0.6543082181597129,5,0,6,8,7,1,nan,nan,nan,nan,nan,nan,nan,nan,nan,nan,nan,nan,0.0,nan,nan,nan,nan,nan,nan,nan,nan,nan,nan,nan,nan,nan,nan,nan,nan,nan,nan,659.8098336548719,954.0562124332355,nan,954.6670491708501,nan,nan,nan,nan
1,184,1,1,1.0,1.0,0.642014296434354,0,0.0,1.0,0.0,0.4729292869382314,0.11234249001984732,0.3605867969183841,0.5852717769580787,0.11234249001984732,0.6268330146364557,4,6,5,3,1,0,nan,nan,nan,nan,nan,nan,nan,nan,nan,nan,nan,nan,0.0,nan,nan,nan,nan,nan,nan,nan,nan,nan,nan,nan,nan,nan,nan,nan,nan,nan,nan,659.8098336548719,955.0730054593005,nan,955.7150197557348,nan,nan,nan,nan
1,185,1,1,1.0,1.0,0.6651869219494984,1,0.0,0.0,1.0,0.4738583254519464,0.11272849324642667,0.36112983220551975,0.586586818698373,0.11272849324642667,0.6393459853328144,6,8,2,1,0,4,1.0,1.0,1.0,1.0,1.0,1.0,0.0,0.0,0.0,0.0,1.0,0.0,1.0,1.0,4.0,3.0,5.0,0.0,2.0,5.0,1.0,4.0,3.0,2.0,6.0,7.556257050804561,2.150923697685357,6.0605992096534465,4.708358481206233,3.3020589368243236,10.204074196895817,659.8098336548719,956.0898027618532,956.8982140713779,956.7549896838027,968.1579364959325,969.161460000847,957.9149860003381,968.1495999956678
1,186,1,1,nan,nan,nan,0,0.0,0.0,0.0,0.47490383690821714,0.11330143546872626,0.36160240143949085,0.5882052723769434,0.11330143546872626,0.6536006091919262,8,7,0,4,2,6,nan,nan,nan,nan,nan,nan,nan,nan,nan,nan,nan,nan,0.0,nan,nan,nan,nan,nan,nan,nan,nan,nan,nan,nan,nan,nan,nan,nan,nan,nan,nan,659.8098336548719,969.3831280592713,nan,nan,nan,nan,nan,nan
1,187,0,0,nan,nan,nan,0,0.0,0.0,0.0,0.47490383690821714,0.11330143546872626,0.36160240143949085,0.5882052723769434,0.11330143546872626,0.6651869219494984,0,6,7,2,3,1,nan,nan,nan,nan,nan,nan,nan,nan,nan,nan,nan,nan,0.0,nan,nan,nan,nan,nan,nan,nan,nan,nan,nan,nan,nan,nan,nan,nan,nan,nan,nan,659.8098336548719,970.4082350630197,nan,nan,nan,nan,nan,nan
1,188,1,1,1.0,1.0,0.737267814023653,0,0.0,0.0,0.0,0.47490383690821714,0.11330143546872626,0.36160240143949085,0.5882052723769434,0.11330143546872626,0.737267814023653,7,3,4,5,1,8,nan,nan,nan,nan,nan,nan,nan,nan,nan,nan,nan,nan,0.0,nan,nan,nan,nan,nan,nan,nan,nan,nan,nan,nan,nan,nan,nan,nan,nan,nan,nan,659.8098336548719,971.4333608831512,nan,972.1706286971748,nan,nan,nan,nan
1,189,0,0,0.0,1.0,0.680452117085224,0,0.0,0.0,0.0,0.47632972808819235,0.11462773277084845,0.3617019953173439,0.5909574608590408,0.11462773277084845,0.7088599655544385,3,4,2,7,8,6,nan,nan,nan,nan,nan,nan,nan,nan,nan,nan,nan,nan,0.0,nan,nan,nan,nan,nan,nan,nan,nan,nan,nan,nan,nan,nan,nan,nan,nan,nan,nan,659.8098336548719,972.4501693044149,nan,973.1306214215001,nan,nan,nan,nan
1,190,1,1,nan,nan,nan,0,0.0,0.0,0.0,0.47743309235304116,0.11529309016716105,0.3621400021858801,0.5927261825202021,0.11529309016716105,0.7088599655544385,5,2,8,1,6,0,nan,nan,nan,nan,nan,nan,nan,nan,nan,nan,nan,nan,0.0,nan,nan,nan,nan,nan,nan,nan,nan,nan,nan,nan,nan,nan,nan,nan,nan,nan,nan,659.8098336548719,973.4669455098337,nan,nan,nan,nan,nan,nan
1,191,1,1,1.0,1.0,0.7508135935058817,0,0.0,0.0,0.0,0.47743309235304116,0.11529309016716105,0.3621400021858801,0.5927261825202021,0.11529309016716105,0.7156328552955529,3,1,7,4,5,2,nan,nan,nan,nan,nan,nan,nan,nan,nan,nan,nan,nan,0.0,nan,nan,nan,nan,nan,nan,nan,nan,nan,nan,nan,nan,nan,nan,nan,nan,nan,nan,659.8098336548719,974.4837376806245,nan,975.2345512741304,nan,nan,nan,nan
1,192,1,1,1.0,1.0,0.7979987381550018,0,0.0,0.0,0.0,0.47890287999364783,0.11670768016999332,0.3621951998236545,0.5956105601636411,0.11670768016999332,0.7744061658304418,6,7,0,2,4,5,nan,nan,nan,nan,nan,nan,nan,nan,nan,nan,nan,nan,0.0,nan,nan,nan,nan,nan,nan,nan,nan,nan,nan,nan,nan,nan,nan,nan,nan,nan,nan,659.8098336548719,975.5005375490291,nan,976.2985362871841,nan,nan,nan,nan
1,193,1,1,nan,nan,nan,0,0.0,0.0,0.0,0.4806092749570775,0.11869893224955615,0.36191034270752137,0.5993082072066337,0.11869893224955615,0.7744061658304418,2,3,1,5,0,4,nan,nan,nan,nan,nan,nan,nan,nan,nan,nan,nan,nan,0.0,nan,nan,nan,nan,nan,nan,nan,nan,nan,nan,nan,nan,nan,nan,nan,nan,nan,nan,659.8098336548719,976.5256659350125,nan,nan,nan,nan,nan,nan
1,194,1,1,1.0,1.0,0.772018199408194,0,0.0,0.0,0.0,0.4806092749570775,0.11869893224955615,0.36191034270752137,0.5993082072066337,0.11869893224955615,0.7850084687815979,1,5,7,2,6,8,nan,nan,nan,nan,nan,nan,nan,nan,nan,nan,nan,nan,0.0,nan,nan,nan,nan,nan,nan,nan,nan,nan,nan,nan,nan,nan,nan,nan,nan,nan,nan,659.8098336548719,977.5424672288937,nan,978.3144854283019,nan,nan,nan,nan
1,195,1,1,1.0,1.0,0.6992134478641674,0,0.0,0.0,0.0,0.4821593224275622,0.1202654885034957,0.3618938339240665,0.6024248109310579,0.1202654885034957,0.7356158236361807,3,8,2,6,7,5,nan,nan,nan,nan,nan,nan,nan,nan,nan,nan,nan,nan,0.0,nan,nan,nan,nan,nan,nan,nan,nan,nan,nan,nan,nan,nan,nan,nan,nan,nan,nan,659.8098336548719,978.5592571189336,nan,979.2584705667978,nan,nan,nan,nan
1,196,1,1,1.0,1.0,0.626073423132766,0,0.0,1.0,0.0,0.4833077569536818,0.12097608564270416,0.3623316713109776,0.6042838425963859,0.12097608564270416,0.6991016901350425,0,3,4,1,2,6,nan,nan,nan,nan,nan,nan,nan,nan,nan,nan,nan,nan,0.0,nan,nan,nan,nan,nan,nan,nan,nan,nan,nan,nan,nan,nan,nan,nan,nan,nan,nan,659.8098336548719,979.5843644077831,nan,980.2104378309159,nan,nan,nan,nan
1,197,1,1,1.0,1.0,0.6252301083586644,1,0.0,0.0,1.0,0.4840591551967296,0.12109869995354294,0.36296045524318665,0.6051578551502725,0.12109869995354294,0.650172326451866,6,5,8,2,0,3,1.0,1.0,1.0,1.0,1.0,1.0,0.0,1.0,0.0,0.0,0.0,0.0,1.0,3.0,5.0,0.0,1.0,4.0,8.0,6.0,1.0,5.0,3.0,4.0,2.0,10.020286310784286,3.255382403905969,8.844883391342591,6.197670079156524,7.556223409425002,4.66027186208521,659.8098336548719,980.6011856583937,981.4095735900628,981.2264157667523,992.4776044043829,993.4813414464006,982.4180392389535,992.4692724656488
1,198,1,1,nan,nan,nan,0,0.0,0.0,0.0,0.4847982701347502,0.1212101928229902,0.36358807731176,0.6060084629577404,0.1212101928229902,0.6256517657457152,7,8,5,0,6,1,nan,nan,nan,nan,nan,nan,nan,nan,nan,nan,nan,nan,0.0,nan,nan,nan,nan,nan,nan,nan,nan,nan,nan,nan,nan,nan,nan,nan,nan,nan,nan,659.8098336548719,993.7027791470464,nan,nan,nan,nan,nan,nan
1,199,1,1,1.0,1.0,0.5305037337529939,0,0.0,0.0,0.0,0.4847982701347502,0.1212101928229902,0.36358807731176,0.6060084629577404,0.1212101928229902,0.5778669210558292,3,2,1,7,4,6,nan,nan,nan,nan,nan,nan,nan,nan,nan,nan,nan,nan,0.0,nan,nan,nan,nan,nan,nan,nan,nan,nan,nan,nan,nan,nan,nan,nan,nan,nan,nan,659.8098336548719,994.7195835769817,nan,995.2500873107347,nan,nan,nan,nan
1,200,1,1,1.0,1.0,0.45769271010067314,0,0.0,0.0,0.0,0.48503631942442854,0.12093888523089152,0.364097434193537,0.6059752046553201,0.12093888523089152,0.4940982219268335,2,0,5,4,3,1,nan,nan,nan,nan,nan,nan,nan,nan,nan,nan,nan,nan,0.0,nan,nan,nan,nan,nan,nan,nan,nan,nan,nan,nan,nan,nan,nan,nan,nan,nan,nan,659.8098336548719,995.7363726117183,nan,996.1940653218189,nan,nan,nan,nan
1,201,1,1,1.0,1.0,0.3688980487349909,0,0.0,0.0,0.0,0.48489464269218113,0.1206411387122394,0.3642535039799417,0.6055357814044205,0.1206411387122394,0.452364830862886,1,8,2,6,0,4,nan,nan,nan,nan,nan,nan,nan,nan,nan,nan,nan,nan,0.0,nan,nan,nan,nan,nan,nan,nan,nan,nan,nan,nan,nan,nan,nan,nan,nan,nan,nan,659.8098336548719,996.7531559445197,nan,997.1220539932547,nan,nan,nan,nan
1,202,1,1,1.0,1.0,0.303744425997138,0,0.0,0.0,0.0,0.4842967221047729,0.1206161743220035,0.3636805477827694,0.6049128964267765,0.1206161743220035,0.37677839494426735,6,0,8,2,7,5,nan,nan,nan,nan,nan,nan,nan,nan,nan,nan,nan,nan,0.0,nan,nan,nan,nan,nan,nan,nan,nan,nan,nan,nan,nan,nan,nan,nan,nan,nan,nan,659.8098336548719,997.7782766329183,nan,998.0820210589154,nan,nan,nan,nan
1,203,1,1,1.0,1.0,0.3429357561399229,0,1.0,0.0,0.0,0.48337081289396455,0.12099575515254966,0.3623750577414149,0.6043665680465142,0.12099575515254966,0.3385260769573506,8,6,7,3,1,4,nan,nan,nan,nan,nan,nan,nan,nan,nan,nan,nan,nan,0.0,nan,nan,nan,nan,nan,nan,nan,nan,nan,nan,nan,nan,nan,nan,nan,nan,nan,nan,659.8098336548719,998.7950736503408,nan,999.1380094064807,nan,nan,nan,nan
1,204,1,1,1.0,1.0,0.34177940560039133,1,0.0,0.0,1.0,0.48265430750236227,0.12110073543004263,0.36155357207231964,0.6037550429324049,0.12110073543004263,0.3294865292458174,7,2,1,8,4,5,1.0,1.0,1.0,1.0,1.0,1.0,1.0,1.0,1.0,0.0,0.0,0.0,3.0,7.0,2.0,1.0,6.0,8.0,4.0,3.0,2.0,1.0,6.0,5.0,4.0,5.002984387829201,4.027151429181686,2.7295733505743556,11.336699845211115,8.78469243957079,7.32139730246854,659.8098336548719,999.8201994704723,1000.6286184776109,1000.1619788760727,1013.0134650972323,1014.0104684502585,1001.6370735779346,1013.0051345839747
1,205,1,1,1.0,1.0,0.5872809427091852,0,0.0,0.0,0.0,0.4819392064774792,0.12120714889982942,0.36073205757764976,0.6031463553773087,0.12120714889982942,0.4239987014831665,8,4,5,0,1,7,nan,nan,nan,nan,nan,nan,nan,nan,nan,nan,nan,nan,0.0,nan,nan,nan,nan,nan,nan,nan,nan,nan,nan,nan,nan,nan,nan,nan,nan,nan,nan,659.8098336548719,1014.2303629247181,nan,1014.8176438674273,nan,nan,nan,nan
1,206,0,0,0.0,1.0,0.722508664795896,0,0.0,0.0,0.0,0.4824712354483464,0.12113107323045823,0.3613401622178882,0.6036023086788046,0.12113107323045823,0.5505230043684909,7,6,0,5,8,2,nan,nan,nan,nan,nan,nan,nan,nan,nan,nan,nan,nan,0.0,nan,nan,nan,nan,nan,nan,nan,nan,nan,nan,nan,nan,nan,nan,nan,nan,nan,nan,659.8098336548719,1015.2471054887574,nan,1015.9696141535533,nan,nan,nan,nan
1,207,1,1,1.0,1.0,0.7456593378738035,0,0.0,0.0,0.0,0.4836774536862738,0.12201265146839621,0.36166480221787756,0.60569010515467,0.12201265146839621,0.6851496484596282,3,1,8,4,7,6,nan,nan,nan,nan,nan,nan,nan,nan,nan,nan,nan,nan,0.0,nan,nan,nan,nan,nan,nan,nan,nan,nan,nan,nan,nan,nan,nan,nan,nan,nan,nan,659.8098336548719,1016.2639313009277,nan,1017.0095906388015,nan,nan,nan,nan
1,208,1,1,1.0,1.0,0.6968710968503729,0,0.0,0.0,0.0,0.4849873631072114,0.12310202418432349,0.36188533892288793,0.6080893872915349,0.12310202418432349,0.7216796998400241,0,6,4,1,3,8,nan,nan,nan,nan,nan,nan,nan,nan,nan,nan,nan,nan,0.0,nan,nan,nan,nan,nan,nan,nan,nan,nan,nan,nan,nan,nan,nan,nan,nan,nan,nan,659.8098336548719,1017.2806995236315,nan,1017.9775706204819,nan,nan,nan,nan
1,209,1,1,1.0,1.0,0.720070236333413,0,0.0,1.0,0.0,0.4860415110362819,0.1236970507151593,0.3623444603211226,0.6097385617514413,0.1236970507151593,0.7208668903525298,5,1,8,7,2,6,nan,nan,nan,nan,nan,nan,nan,nan,nan,nan,nan,nan,0.0,nan,nan,nan,nan,nan,nan,nan,nan,nan,nan,nan,nan,nan,nan,nan,nan,nan,nan,659.8098336548719,1018.2974765843246,nan,1019.017546820658,nan,nan,nan,nan
1,210,0,0,0.0,1.0,0.7589354162919335,1,0.0,0.0,1.0,0.4872000690823073,0.12447894052040902,0.36272112856189825,0.6116790096027163,0.12447894052040902,0.7252922498252398,3,8,7,5,4,1,1.0,1.0,1.0,1.0,1.0,1.0,0.0,1.0,0.0,1.0,0.0,1.0,3.0,6.0,8.0,3.0,5.0,2.0,1.0,2.0,1.0,6.0,5.0,4.0,3.0,6.577672342828009,2.0434292862773873,10.889715921512106,9.409757762245135,8.586092376324814,7.61921457684366,659.8098336548719,1019.3226035448315,1020.1310234072735,1020.0815389611234,1032.0824843403825,1033.0888388513122,1021.156146661524,1032.0741658011684
1,211,1,1,1.0,1.0,0.6855390899872873,0,0.0,0.0,0.0,0.48853866685181285,0.12562097371390357,0.3629176931379093,0.6141596405657164,0.12562097371390357,0.7215149142042113,2,3,6,4,7,0,nan,nan,nan,nan,nan,nan,nan,nan,nan,nan,nan,nan,0.0,nan,nan,nan,nan,nan,nan,nan,nan,nan,nan,nan,nan,nan,nan,nan,nan,nan,nan,659.8098336548719,1033.3076516705041,nan,1033.9931907604914,nan,nan,nan,nan
1,212,1,1,1.0,1.0,0.6527145299769472,0,0.0,0.0,0.0,0.4895043552005161,0.12606578231805665,0.36343857288245945,0.6155701375185727,0.12606578231805665,0.6990630120853893,7,0,5,1,2,3,nan,nan,nan,nan,nan,nan,nan,nan,nan,nan,nan,nan,0.0,nan,nan,nan,nan,nan,nan,nan,nan,nan,nan,nan,nan,nan,nan,nan,nan,nan,nan,659.8098336548719,1034.324466078804,nan,1034.977180608781,nan,nan,nan,nan
1,213,1,1,1.0,1.0,0.5479014490556438,0,0.0,1.0,0.0,0.4903005023945475,0.12627098699277292,0.36402951540177453,0.6165714893873204,0.12627098699277292,0.6287183563399594,6,2,3,8,7,1,nan,nan,nan,nan,nan,nan,nan,nan,nan,nan,nan,nan,0.0,nan,nan,nan,nan,nan,nan,nan,nan,nan,nan,nan,nan,nan,nan,nan,nan,nan,nan,659.8098336548719,1035.3412525476888,nan,1035.8891539967444,nan,nan,nan,nan
1,214,1,1,1.0,1.0,0.5071244134451263,1,0.0,0.0,1.0,0.4905801186404752,0.12602773629268837,0.3645523823477868,0.6166078549331635,0.12602773629268837,0.5692467974925725,4,0,2,6,1,3,1.0,1.0,1.0,1.0,1.0,1.0,0.0,1.0,1.0,0.0,0.0,0.0,2.0,3.0,0.0,2.0,3.0,7.0,1.0,4.0,1.0,3.0,6.0,5.0,2.0,7.767269065603614,2.742460557667073,5.064037470787298,17.829528390895575,15.990385698212776,3.78250831697369,659.8098336548719,1036.3580113622302,1037.1664489006216,1036.8651357756753,1056.0521215867193,1057.0499063886527,1038.1832635940227,1056.0437924989383
1,215,0,0,0.0,1.0,0.6676883566833567,0,0.0,0.0,0.0,0.4906600427699662,0.12572818615466205,0.36493185661530414,0.6163882289246283,0.12572818615466205,0.5742380730613755,1,7,3,8,0,5,nan,nan,nan,nan,nan,nan,nan,nan,nan,nan,nan,nan,0.0,nan,nan,nan,nan,nan,nan,nan,nan,nan,nan,nan,nan,nan,nan,nan,nan,nan,nan,659.8098336548719,1057.2689661011973,nan,1057.9366544578806,nan,nan,nan,nan
1,216,1,1,1.0,1.0,0.7228790048393421,0,0.0,0.0,0.0,0.49151114043301136,0.1260219141475771,0.36548922628543423,0.6175330545805885,0.1260219141475771,0.632563924989275,3,8,1,2,7,4,nan,nan,nan,nan,nan,nan,nan,nan,nan,nan,nan,nan,0.0,nan,nan,nan,nan,nan,nan,nan,nan,nan,nan,nan,nan,nan,nan,nan,nan,nan,nan,659.8098336548719,1058.2857457277714,nan,1059.0086247326108,nan,nan,nan,nan
1,217,1,1,1.0,1.0,0.6577059956034645,0,0.0,0.0,0.0,0.4926181637076828,0.12672978658631018,0.3658883771213726,0.6193479502939929,0.12672978658631018,0.6827577857087211,4,6,3,8,2,1,nan,nan,nan,nan,nan,nan,nan,nan,nan,nan,nan,nan,0.0,nan,nan,nan,nan,nan,nan,nan,nan,nan,nan,nan,nan,nan,nan,nan,nan,nan,nan,659.8098336548719,1059.310882381542,nan,1059.9685883771454,nan,nan,nan,nan
1,218,1,1,1.0,1.0,0.6568906202446669,0,0.0,1.0,0.0,0.49340429624051985,0.12693747846574804,0.3664668177747718,0.6203417747062678,0.12693747846574804,0.6791585402291579,0,3,7,2,5,6,nan,nan,nan,nan,nan,nan,nan,nan,nan,nan,nan,nan,0.0,nan,nan,nan,nan,nan,nan,nan,nan,nan,nan,nan,nan,nan,nan,nan,nan,nan,nan,659.8098336548719,1060.3276779734879,nan,1060.9845685937325,nan,nan,nan,nan
1,219,1,1,1.0,1.0,0.6641186662018299,1,0.0,0.0,1.0,0.4941791129419613,0.12713311731679924,0.36704599562516205,0.6213122302587606,0.12713311731679924,0.6595717606833205,1,6,3,4,8,0,1.0,1.0,1.0,1.0,1.0,1.0,1.0,1.0,0.0,0.0,0.0,0.0,2.0,1.0,6.0,8.0,3.0,7.0,5.0,4.0,1.0,2.0,3.0,6.0,5.0,7.251814423972974,2.3563655013858806,3.797882133774692,5.89335517550353,11.635275760781951,8.755288749787724,659.8098336548719,1061.3444299457187,1062.152877747576,1062.0085486119206,1074.8377733752714,1075.8474866054603,1063.1613342734054,1074.8294337389234
1,220,1,1,1.0,1.0,0.7369211369659752,0,0.0,0.0,0.0,0.49498071460828147,0.12736628682913625,0.3676144277791452,0.6223470014374177,0.12736628682913625,0.6859768078041574,3,0,6,1,2,7,nan,nan,nan,nan,nan,nan,nan,nan,nan,nan,nan,nan,0.0,nan,nan,nan,nan,nan,nan,nan,nan,nan,nan,nan,nan,nan,nan,nan,nan,nan,nan,659.8098336548719,1076.0712908902788,nan,1076.8082120272447,nan,nan,nan,nan
1,221,1,1,1.0,1.0,0.7281039643567055,0,0.0,0.0,0.0,0.4961165851357824,0.1281387271149001,0.3679778580208823,0.6242553122506824,0.1281387271149001,0.7097145891748369,4,2,7,6,1,0,nan,nan,nan,nan,nan,nan,nan,nan,nan,nan,nan,nan,0.0,nan,nan,nan,nan,nan,nan,nan,nan,nan,nan,nan,nan,nan,nan,nan,nan,nan,nan,659.8098336548719,1077.088073652907,nan,1077.8161776172637,nan,nan,nan,nan
1,222,1,1,1.0,1.0,0.5912925324519165,0,0.0,1.0,0.0,0.4972006383097119,0.12881427746400112,0.36838636084571075,0.626014915773713,0.12881427746400112,0.6854392112581991,1,0,3,4,5,8,nan,nan,nan,nan,nan,nan,nan,nan,nan,nan,nan,nan,0.0,nan,nan,nan,nan,nan,nan,nan,nan,nan,nan,nan,nan,nan,nan,nan,nan,nan,nan,659.8098336548719,1078.1048629727447,nan,1078.6961555051967,nan,nan,nan,nan
1,223,1,1,1.0,1.0,0.62246239365777,1,0.0,0.0,1.0,0.4976382750266524,0.12867372430660057,0.36896455072005185,0.626311999333253,0.12867372430660057,0.6472862968221307,4,2,7,1,3,6,1.0,1.0,1.0,1.0,1.0,1.0,0.0,0.0,1.0,0.0,0.0,0.0,1.0,1.0,5.0,7.0,3.0,1.0,3.0,3.0,2.0,1.0,6.0,5.0,4.0,5.87363905730308,3.882432281796355,2.7865472759585828,13.505245343898423,8.969743017078144,7.018491344642825,659.8098336548719,1079.121675100294,1079.9300727251975,1079.7441374939517,1094.4901934007648,1095.4874490639777,1080.9468688873458,1094.481867449038
1,224,1,1,nan,nan,nan,0,0.0,0.0,0.0,0.4982161644647594,0.12865486958983685,0.36956129487492256,0.6268710340545962,0.12865486958983685,0.6068774630548432,8,4,3,6,0,5,nan,nan,nan,nan,nan,nan,nan,nan,nan,nan,nan,nan,0.0,nan,nan,nan,nan,nan,nan,nan,nan,nan,nan,nan,nan,nan,nan,nan,nan,nan,nan,659.8098336548719,1095.7070379152428,nan,nan,nan,nan,nan,nan
1,225,1,1,nan,nan,nan,0,0.0,0.0,0.0,0.4982161644647594,0.12865486958983688,0.3695612948749225,0.6268710340545963,0.12865486958983688,0.62246239365777,5,7,6,3,4,1,nan,nan,nan,nan,nan,nan,nan,nan,nan,nan,nan,nan,0.0,nan,nan,nan,nan,nan,nan,nan,nan,nan,nan,nan,nan,nan,nan,nan,nan,nan,nan,659.8098336548719,1096.7238397793262,nan,nan,nan,nan,nan,nan
1,226,1,1,nan,nan,nan,0,0.0,0.0,0.0,0.4982161644647594,0.12865486958983688,0.3695612948749225,0.6268710340545963,0.12865486958983688,nan,3,1,0,2,6,7,nan,nan,nan,nan,nan,nan,nan,nan,nan,nan,nan,nan,0.0,nan,nan,nan,nan,nan,nan,nan,nan,nan,nan,nan,nan,nan,nan,nan,nan,nan,nan,659.8098336548719,1097.7489521999087,nan,nan,nan,nan,nan,nan
1,227,1,1,nan,nan,nan,0,0.0,0.0,0.0,0.4982161644647594,0.12865486958983688,0.3695612948749225,0.6268710340545963,0.12865486958983688,nan,4,2,3,5,7,6,nan,nan,nan,nan,nan,nan,nan,nan,nan,nan,nan,nan,0.0,nan,nan,nan,nan,nan,nan,nan,nan,nan,nan,nan,nan,nan,nan,nan,nan,nan,nan,659.8098336548719,1098.7740580632817,nan,nan,nan,nan,nan,nan
1,228,1,1,1.0,1.0,0.07278393951128237,0,0.0,0.0,0.0,0.4982161644647594,0.12865486958983688,0.3695612948749225,0.6268710340545963,0.12865486958983688,0.07278393951128237,6,4,0,3,5,7,nan,nan,nan,nan,nan,nan,nan,nan,nan,nan,nan,nan,0.0,nan,nan,nan,nan,nan,nan,nan,nan,nan,nan,nan,nan,nan,nan,nan,nan,nan,nan,659.8098336548719,1099.7908935687155,nan,1099.8636775082268,nan,nan,nan,nan
1,229,1,1,1.0,1.0,0.023958635953022167,0,0.0,0.0,0.0,0.4962556472990752,0.13155235526586906,0.3647032920332061,0.6278080025649442,0.13155235526586906,0.04837128773215227,7,5,3,2,4,8,nan,nan,nan,nan,nan,nan,nan,nan,nan,nan,nan,nan,0.0,nan,nan,nan,nan,nan,nan,nan,nan,nan,nan,nan,nan,nan,nan,nan,nan,nan,nan,659.8098336548719,1100.8076723399863,nan,1100.8316309759393,nan,nan,nan,nan
1,230,1,1,1.0,1.0,0.44716410455293953,0,1.0,0.0,0.0,0.49408914724702907,0.1350746998159118,0.35901444743111727,0.6291638470629408,0.1350746998159118,0.1813022266724147,6,8,0,1,5,4,nan,nan,nan,nan,nan,nan,nan,nan,nan,nan,nan,nan,0.0,nan,nan,nan,nan,nan,nan,nan,nan,nan,nan,nan,nan,nan,nan,nan,nan,nan,nan,659.8098336548719,1101.8244596641453,nan,1102.2716237686982,nan,nan,nan,nan
1,231,1,1,1.0,1.0,0.3820364256098401,1,0.0,0.0,1.0,0.4938748776456862,0.13480308575793917,0.35907179188774707,0.6286779634036254,0.13480308575793917,0.2843863887052673,0,4,5,6,3,7,1.0,1.0,1.0,1.0,1.0,1.0,1.0,0.0,0.0,0.0,0.0,1.0,2.0,0.0,1.0,8.0,3.0,1.0,7.0,2.0,1.0,6.0,5.0,4.0,3.0,3.9628043438424356,2.6100892151589505,13.512934675585711,8.736667401244631,7.2420008398767095,5.586637195316143,659.8098336548719,1102.849575220811,1103.658006201993,1103.2316116464208,1118.2264639479981,1119.230123158748,1104.6747921006754,1118.2181277328345
1,232,1,1,1.0,1.0,0.4596022850018926,0,0.0,0.0,0.0,0.49336652104552325,0.13470659932167686,0.3586599217238464,0.6280731203672001,0.13470659932167686,0.42960093838822405,7,1,8,4,2,5,nan,nan,nan,nan,nan,nan,nan,nan,nan,nan,nan,nan,0.0,nan,nan,nan,nan,nan,nan,nan,nan,nan,nan,nan,nan,nan,nan,nan,nan,nan,nan,659.8098336548719,1119.4516173084266,nan,1119.9112195934285,nan,nan,nan,nan
1,233,1,1,1.0,1.0,0.5707530561776366,0,0.0,0.0,0.0,0.49321374169690957,0.13442059008098214,0.3587931516159274,0.6276343317778917,0.13442059008098214,0.4707972555964564,0,3,4,5,6,8,nan,nan,nan,nan,nan,nan,nan,nan,nan,nan,nan,nan,0.0,nan,nan,nan,nan,nan,nan,nan,nan,nan,nan,nan,nan,nan,nan,nan,nan,nan,nan,659.8098336548719,1120.4684285806725,nan,1121.0391816368501,nan,nan,nan,nan
1,234,1,1,1.0,1.0,0.7379372200812213,0,0.0,0.0,0.0,0.4935630178882642,0.134217972944069,0.35934504494419517,0.6277809908323332,0.134217972944069,0.5894308537535835,6,7,3,4,1,2,nan,nan,nan,nan,nan,nan,nan,nan,nan,nan,nan,nan,0.0,nan,nan,nan,nan,nan,nan,nan,nan,nan,nan,nan,nan,nan,nan,nan,nan,nan,nan,659.8098336548719,1121.4852179005102,nan,1122.2231551205914,nan,nan,nan,nan
1,235,1,1,1.0,1.0,0.7051098091178574,0,0.0,1.0,0.0,0.49465886632859135,0.13490840639038348,0.35975045993820787,0.6295672727189748,0.13490840639038348,0.6712666951255718,7,8,0,6,3,4,nan,nan,nan,nan,nan,nan,nan,nan,nan,nan,nan,nan,0.0,nan,nan,nan,nan,nan,nan,nan,nan,nan,nan,nan,nan,nan,nan,nan,nan,nan,nan,659.8098336548719,1122.502023755922,nan,1123.2071335650398,nan,nan,nan,nan
1,236,1,1,1.0,1.0,0.6643165230052546,1,0.0,0.0,1.0,0.4955983794660434,0.1353361208761845,0.36026225858985894,0.6309345003422279,0.1353361208761845,0.7024545174014444,2,0,7,5,1,8,1.0,1.0,1.0,1.0,1.0,1.0,0.0,1.0,0.0,0.0,0.0,0.0,1.0,7.0,0.0,2.0,4.0,6.0,1.0,3.0,2.0,1.0,6.0,5.0,4.0,4.532763977040304,3.155948804691434,2.09149708901532,9.747198857774492,7.451792927720817,5.763045934407273,659.8098336548719,1123.5188053781749,1124.327215262223,1124.1831219011801,1135.1285413590667,1136.124570252985,1125.3440108541981,1135.120210275607
1,237,1,1,1.0,1.0,0.7094210350187495,0,0.0,0.0,0.0,0.49634823788177324,0.13550060589833635,0.3608476319834369,0.6318488437801095,0.13550060589833635,0.6929491223806205,8,2,6,4,0,5,nan,nan,nan,nan,nan,nan,nan,nan,nan,nan,nan,nan,0.0,nan,nan,nan,nan,nan,nan,nan,nan,nan,nan,nan,nan,nan,nan,nan,nan,nan,nan,659.8098336548719,1136.3453964221117,nan,1137.0548174571304,nan,nan,nan,nan
1,238,1,1,1.0,1.0,0.4526105838594958,0,0.0,0.0,0.0,0.497291037869105,0.135938109397808,0.36135292847129696,0.633229147266913,0.135938109397808,0.6087827139611667,4,5,3,1,7,0,nan,nan,nan,nan,nan,nan,nan,nan,nan,nan,nan,nan,0.0,nan,nan,nan,nan,nan,nan,nan,nan,nan,nan,nan,nan,nan,nan,nan,nan,nan,nan,659.8098336548719,1137.36219258426,nan,1137.8148031681194,nan,nan,nan,nan
1,239,1,1,1.0,1.0,0.38779651079676114,0,0.0,0.0,0.0,0.4970942076752301,0.13567062789538845,0.36142357977984163,0.6327648355706186,0.13567062789538845,0.5166093765583355,2,6,0,4,1,3,nan,nan,nan,nan,nan,nan,nan,nan,nan,nan,nan,nan,0.0,nan,nan,nan,nan,nan,nan,nan,nan,nan,nan,nan,nan,nan,nan,nan,nan,nan,nan,659.8098336548719,1138.3789887464081,nan,1138.766785257205,nan,nan,nan,nan
1,240,1,1,1.0,1.0,0.37098780446103774,0,0.0,0.0,0.0,0.496614831811728,0.1355653119438724,0.3610495198678556,0.6321801437556004,0.1355653119438724,0.4037982997057649,0,2,8,1,3,4,nan,nan,nan,nan,nan,nan,nan,nan,nan,nan,nan,nan,0.0,nan,nan,nan,nan,nan,nan,nan,nan,nan,nan,nan,nan,nan,nan,nan,nan,nan,nan,659.8098336548719,1139.3957646666968,nan,1139.7667524711578,nan,nan,nan,nan
1,241,1,1,1.0,1.0,0.3461636161664501,0,0.0,0.0,0.0,0.49606624217264206,0.13552238731688568,0.36054385485575635,0.6315886294895278,0.13552238731688568,0.36831597714141634,6,8,2,3,4,0,nan,nan,nan,nan,nan,nan,nan,nan,nan,nan,nan,nan,0.0,nan,nan,nan,nan,nan,nan,nan,nan,nan,nan,nan,nan,nan,nan,nan,nan,nan,nan,659.8098336548719,1140.4125690966612,nan,1140.7587327128276,nan,nan,nan,nan
1,242,1,1,1.0,1.0,0.33736212385701947,0,1.0,0.0,0.0,0.495414491624789,0.1355866448059096,0.3598278468188794,0.6310011364306987,0.1355866448059096,0.3515045148281691,4,5,3,7,6,8,nan,nan,nan,nan,nan,nan,nan,nan,nan,nan,nan,nan,0.0,nan,nan,nan,nan,nan,nan,nan,nan,nan,nan,nan,nan,nan,nan,nan,nan,nan,nan,659.8098336548719,1141.4293461573543,nan,1141.7667082812113,nan,nan,nan,nan
1,243,1,1,1.0,1.0,0.34454597989679314,1,0.0,0.0,1.0,0.49473028224051296,0.13569019027921578,0.35904009196129716,0.6304204725197288,0.13569019027921578,0.34269057330675423,3,8,1,6,2,7,1.0,1.0,1.0,1.0,1.0,1.0,0.0,0.0,1.0,1.0,0.0,0.0,2.0,2.0,4.0,1.0,6.0,0.0,8.0,5.0,6.0,1.0,2.0,4.0,3.0,10.003736186714377,13.987717197014717,2.3428180113551207,3.9253287231258582,7.789041868381901,6.444505296647549,659.8098336548719,1142.446138328145,1143.2545567650814,1142.7906843080418,1158.289743347792,1159.2900284440548,1144.2630204183224,1158.2814074177004
1,244,1,1,1.0,1.0,0.5153577088494785,0,0.0,0.0,0.0,0.4940829361097211,0.13575444221670127,0.3583284938930198,0.6298373783264224,0.13575444221670127,0.39908860420109704,8,4,0,2,5,6,nan,nan,nan,nan,nan,nan,nan,nan,nan,nan,nan,nan,0.0,nan,nan,nan,nan,nan,nan,nan,nan,nan,nan,nan,nan,nan,nan,nan,nan,nan,nan,659.8098336548719,1159.514919801004,nan,1160.0302775098535,nan,nan,nan,nan
1,245,1,1,1.0,1.0,0.45856139846728183,0,0.0,0.0,0.0,0.49417424414723077,0.13546994954175576,0.35870429460547504,0.6296441936889865,0.13546994954175576,0.43948836240451783,3,5,6,4,7,0,nan,nan,nan,nan,nan,nan,nan,nan,nan,nan,nan,nan,0.0,nan,nan,nan,nan,nan,nan,nan,nan,nan,nan,nan,nan,nan,nan,nan,nan,nan,nan,659.8098336548719,1160.5317037040077,nan,1160.990265102475,nan,nan,nan,nan
1,246,1,1,1.0,1.0,0.40972554637119174,0,0.0,0.0,0.0,0.49402205249902587,0.13520013400717873,0.35882191849184714,0.6292221865062047,0.13520013400717873,0.4612148845626507,5,1,0,6,8,3,nan,nan,nan,nan,nan,nan,nan,nan,nan,nan,nan,nan,0.0,nan,nan,nan,nan,nan,nan,nan,nan,nan,nan,nan,nan,nan,nan,nan,nan,nan,nan,659.8098336548719,1161.5485024320078,nan,1161.958227978379,nan,nan,nan,nan
1,247,1,1,1.0,1.0,0.3928948875691276,0,0.0,0.0,0.0,0.49366334396231165,0.13502370953642906,0.3586396344258826,0.6286870534987408,0.13502370953642906,0.42039394413586706,6,4,7,3,0,2,nan,nan,nan,nan,nan,nan,nan,nan,nan,nan,nan,nan,0.0,nan,nan,nan,nan,nan,nan,nan,nan,nan,nan,nan,nan,nan,nan,nan,nan,nan,nan,659.8098336548719,1162.5653060066688,nan,1162.958200894238,nan,nan,nan,nan
1,248,1,1,1.0,1.0,0.41608461886062287,0,0.0,0.0,0.0,0.49323635897759477,0.13489623691802355,0.3583401220595712,0.6281325958956183,0.13489623691802355,0.40623501760031405,0,6,4,1,2,7,nan,nan,nan,nan,nan,nan,nan,nan,nan,nan,nan,nan,0.0,nan,nan,nan,nan,nan,nan,nan,nan,nan,nan,nan,nan,nan,nan,nan,nan,nan,nan,659.8098336548719,1163.5820950414054,nan,1163.998179660266,nan,nan,nan,nan
1,249,1,1,1.0,1.0,0.39127782147261314,0,0.0,0.0,0.0,0.49291082420916876,0.13470420842390232,0.35820661578526647,0.6276150326330711,0.13470420842390232,0.40008577596745454,5,8,7,2,4,0,nan,nan,nan,nan,nan,nan,nan,nan,nan,nan,nan,nan,0.0,nan,nan,nan,nan,nan,nan,nan,nan,nan,nan,nan,nan,nan,nan,nan,nan,nan,nan,659.8098336548719,1164.5988860718207,nan,1164.9901638932934,nan,nan,nan,nan
1,250,1,1,1.0,1.0,0.38247233780566603,0,0.0,0.0,0.0,0.4924837947859059,0.13458157845533164,0.3579022163305743,0.6270653732412376,0.13458157845533164,0.39661159271296736,8,5,4,6,2,1,nan,nan,nan,nan,nan,nan,nan,nan,nan,nan,nan,nan,0.0,nan,nan,nan,nan,nan,nan,nan,nan,nan,nan,nan,nan,nan,nan,nan,nan,nan,nan,659.8098336548719,1165.6156722556043,nan,1165.99814459341,nan,nan,nan,nan
1,251,1,1,1.0,1.0,0.41367412981344387,0,0.0,0.0,0.0,0.492023495802725,0.13448733872485027,0.3575361570778747,0.6265108345275753,0.13448733872485027,0.3958080963639077,6,3,0,5,8,2,nan,nan,nan,nan,nan,nan,nan,nan,nan,nan,nan,nan,0.0,nan,nan,nan,nan,nan,nan,nan,nan,nan,nan,nan,nan,nan,nan,nan,nan,nan,nan,659.8098336548719,1166.6324464653444,nan,1167.0461205951578,nan,nan,nan,nan
1,252,1,1,1.0,1.0,0.3888396781112533,0,0.0,0.0,0.0,0.491697040111103,0.1343017254143848,0.3573953146967182,0.6259987655254877,0.1343017254143848,0.39499538191012107,1,8,5,4,7,6,nan,nan,nan,nan,nan,nan,nan,nan,nan,nan,nan,nan,0.0,nan,nan,nan,nan,nan,nan,nan,nan,nan,nan,nan,nan,nan,nan,nan,nan,nan,nan,659.8098336548719,1167.6492506101786,nan,1168.0380902882898,nan,nan,nan,nan
1,253,0,0,1.0,0.0,0.6120210275694262,0,0.0,0.0,0.0,0.4912702460779086,0.13418579684158358,0.357084449236325,0.6254560429194922,0.13418579684158358,0.47151161183137447,2,0,1,7,3,5,nan,nan,nan,nan,nan,nan,nan,nan,nan,nan,nan,nan,0.0,nan,nan,nan,nan,nan,nan,nan,nan,nan,nan,nan,nan,nan,nan,nan,nan,nan,nan,659.8098336548719,1168.6660410703917,nan,1169.278062097961,nan,nan,nan,nan
1,254,1,1,1.0,1.0,0.5711624544346705,0,0.0,0.0,0.0,0.49176921624936115,0.1341321210325211,0.35763709521684006,0.6259013372818822,0.1341321210325211,0.52400772003845,6,3,7,8,0,2,nan,nan,nan,nan,nan,nan,nan,nan,nan,nan,nan,nan,0.0,nan,nan,nan,nan,nan,nan,nan,nan,nan,nan,nan,nan,nan,nan,nan,nan,nan,nan,659.8098336548719,1169.6828819926595,nan,1170.2540444470942,nan,nan,nan,nan
1,255,1,1,1.0,1.0,0.4420645874342881,0,0.0,0.0,0.0,0.49209593739415664,0.1339523042204334,0.3581436331737232,0.62604824161459,0.1339523042204334,0.5417493564794617,5,2,8,4,6,1,nan,nan,nan,nan,nan,nan,nan,nan,nan,nan,nan,nan,0.0,nan,nan,nan,nan,nan,nan,nan,nan,nan,nan,nan,nan,nan,nan,nan,nan,nan,nan,659.8098336548719,1170.7079636228445,nan,1171.1500282102788,nan,nan,nan,nan
1,256,1,1,1.0,1.0,0.39327834206051193,0,0.0,0.0,0.0,0.4918908908779277,0.13371573852696325,0.3581751523509644,0.625606629404891,0.13371573852696325,0.4688351279764902,4,7,5,6,8,2,nan,nan,nan,nan,nan,nan,nan,nan,nan,nan,nan,nan,0.0,nan,nan,nan,nan,nan,nan,nan,nan,nan,nan,nan,nan,nan,nan,nan,nan,nan,nan,659.8098336548719,1171.7247238628624,nan,1172.118002204923,nan,nan,nan,nan
1,257,1,1,1.0,1.0,0.45641006194637157,0,0.0,0.0,0.0,0.4914883906786729,0.1335906026465178,0.3578977880321551,0.6250789933251907,0.1335906026465178,0.4305843304803905,2,1,0,7,6,3,nan,nan,nan,nan,nan,nan,nan,nan,nan,nan,nan,nan,0.0,nan,nan,nan,nan,nan,nan,nan,nan,nan,nan,nan,nan,nan,nan,nan,nan,nan,nan,659.8098336548719,1172.7415622192784,nan,1173.1979722812248,nan,nan,nan,nan
1,258,1,1,1.0,1.0,0.39159570381161757,0,0.0,0.0,0.0,0.4913457958464278,0.13333748246256524,0.3580083133838625,0.6246832783089931,0.13333748246256524,0.4137613692728337,5,6,8,1,2,4,nan,nan,nan,nan,nan,nan,nan,nan,nan,nan,nan,nan,0.0,nan,nan,nan,nan,nan,nan,nan,nan,nan,nan,nan,nan,nan,nan,nan,nan,nan,nan,659.8098336548719,1173.7583632280584,nan,1174.14995893187,nan,nan,nan,nan
1,259,1,1,1.0,1.0,0.38279079034691676,0,0.0,0.0,0.0,0.4909419493199711,0.13321796266735803,0.35772398665261307,0.6241599119873291,0.13321796266735803,0.4102655187016353,8,0,1,3,4,7,nan,nan,nan,nan,nan,nan,nan,nan,nan,nan,nan,nan,0.0,nan,nan,nan,nan,nan,nan,nan,nan,nan,nan,nan,nan,nan,nan,nan,nan,nan,nan,659.8098336548719,1174.7751308805891,nan,1175.157921670936,nan,nan,nan,nan
1,260,1,1,1.0,1.0,0.3020652089326177,0,0.0,0.0,0.0,0.4905058559370152,0.13312565048699326,0.3573802054500219,0.6236315064240084,0.13312565048699326,0.3588172343637173,4,3,6,0,8,2,nan,nan,nan,nan,nan,nan,nan,nan,nan,nan,nan,nan,0.0,nan,nan,nan,nan,nan,nan,nan,nan,nan,nan,nan,nan,nan,nan,nan,nan,nan,nan,659.8098336548719,1175.7919230513799,nan,1176.0939882603125,nan,nan,nan,nan
1,261,1,1,1.0,1.0,0.30116430469206534,0,1.0,0.0,0.0,0.4897490661900096,0.13339153490140698,0.3563575312886026,0.6231406010914166,0.13339153490140698,0.32867343465719995,7,8,0,1,5,6,nan,nan,nan,nan,nan,nan,nan,nan,nan,nan,nan,nan,0.0,nan,nan,nan,nan,nan,nan,nan,nan,nan,nan,nan,nan,nan,nan,nan,nan,nan,nan,659.8098336548719,1176.8087172178493,nan,1177.1098815225414,nan,nan,nan,nan
1,262,0,0,1.0,0.0,0.3083532924647443,0,0.0,0.0,0.0,0.4889947271440178,0.1336555879815749,0.3553391391624429,0.6226503151255927,0.1336555879815749,0.30386093536314246,8,7,1,2,3,0,nan,nan,nan,nan,nan,nan,nan,nan,nan,nan,nan,nan,0.0,nan,nan,nan,nan,nan,nan,nan,nan,nan,nan,nan,nan,nan,nan,nan,nan,nan,nan,659.8098336548719,1177.8255113843188,nan,1178.1338646767836,nan,nan,nan,nan
1,263,1,1,1.0,1.0,0.34753036775509827,0,0.0,0.0,0.0,0.48827504015326373,0.13387357079498824,0.3544014693582755,0.6221486109482519,0.13387357079498824,0.3190159883039693,3,2,7,0,6,8,nan,nan,nan,nan,nan,nan,nan,nan,nan,nan,nan,nan,0.0,nan,nan,nan,nan,nan,nan,nan,nan,nan,nan,nan,nan,nan,nan,nan,nan,nan,nan,659.8098336548719,1178.8423086868424,nan,1179.1898390545975,nan,nan,nan,nan
1,264,1,1,1.0,1.0,0.37068132593412884,0,0.0,0.0,0.0,0.48771652954850914,0.13390036908154665,0.3538161604669625,0.6216168986300558,0.13390036908154665,0.3421883287179905,1,0,4,2,5,3,nan,nan,nan,nan,nan,nan,nan,nan,nan,nan,nan,nan,0.0,nan,nan,nan,nan,nan,nan,nan,nan,nan,nan,nan,nan,nan,nan,nan,nan,nan,nan,659.8098336548719,1179.8591285120056,nan,1180.2298098379397,nan,nan,nan,nan
1,265,1,1,1.0,1.0,0.5139031476865057,0,0.0,0.0,0.0,0.48725393981090287,0.13383709239848038,0.3534168474124225,0.6210910322093832,0.13383709239848038,0.41070494712524425,6,4,5,7,2,0,nan,nan,nan,nan,nan,nan,nan,nan,nan,nan,nan,nan,0.0,nan,nan,nan,nan,nan,nan,nan,nan,nan,nan,nan,nan,nan,nan,nan,nan,nan,nan,659.8098336548719,1180.875890747673,nan,1181.3897938953596,nan,nan,nan,nan
1,266,1,1,1.0,1.0,0.48108942128601484,0,0.0,0.0,0.0,0.4873588579521454,0.13358379822459732,0.3537750597275481,0.6209426561767427,0.13358379822459732,0.45522463163554977,5,8,2,3,7,1,nan,nan,nan,nan,nan,nan,nan,nan,nan,nan,nan,nan,0.0,nan,nan,nan,nan,nan,nan,nan,nan,nan,nan,nan,nan,nan,nan,nan,nan,nan,nan,659.8098336548719,1181.892682918493,nan,1182.373772339779,nan,nan,nan,nan
1,267,1,1,1.0,1.0,0.36027531177387573,0,0.0,0.0,0.0,0.4873342719260037,0.13332218772016963,0.3540120842058341,0.6206564596461733,0.13332218772016963,0.45175596024879877,4,3,8,6,5,2,nan,nan,nan,nan,nan,nan,nan,nan,nan,nan,nan,nan,0.0,nan,nan,nan,nan,nan,nan,nan,nan,nan,nan,nan,nan,nan,nan,nan,nan,nan,nan,659.8098336548719,1182.9094725234318,nan,1183.2697478352056,nan,nan,nan,nan
1,268,1,1,1.0,1.0,0.4074598862498533,0,0.0,0.0,0.0,0.48683794786290946,0.1332973705117839,0.35354057735112554,0.6201353183746934,0.1332973705117839,0.41627487310324796,1,6,7,8,0,3,nan,nan,nan,nan,nan,nan,nan,nan,nan,nan,nan,nan,0.0,nan,nan,nan,nan,nan,nan,nan,nan,nan,nan,nan,nan,nan,nan,nan,nan,nan,nan,659.8098336548719,1183.9262624134426,nan,1184.3337222996925,nan,nan,nan,nan
1,269,1,1,1.0,1.0,0.38263341720448807,0,0.0,0.0,0.0,0.48652908380994037,0.13312953727876173,0.35339954653117867,0.6196586210887021,0.13312953727876173,0.38345620507607237,3,5,1,2,6,7,nan,nan,nan,nan,nan,nan,nan,nan,nan,nan,nan,nan,0.0,nan,nan,nan,nan,nan,nan,nan,nan,nan,nan,nan,nan,nan,nan,nan,nan,nan,nan,659.8098336548719,1184.9430540140602,nan,1185.3256874312647,nan,nan,nan,nan
1,270,1,1,1.0,1.0,0.38981955402414314,0,0.0,0.0,0.0,0.4861263874277487,0.13302802075603298,0.35309836667171574,0.6191544081837816,0.13302802075603298,0.3933042858261615,8,0,6,5,2,4,nan,nan,nan,nan,nan,nan,nan,nan,nan,nan,nan,nan,0.0,nan,nan,nan,nan,nan,nan,nan,nan,nan,nan,nan,nan,nan,nan,nan,nan,nan,nan,659.8098336548719,1185.959846184851,nan,1186.349665738875,nan,nan,nan,nan
1,271,1,1,1.0,1.0,0.3730000139621552,0,0.0,0.0,0.0,0.48575454637213633,0.13290523239018776,0.3528493139819486,0.618659778762324,0.13290523239018776,0.38181766173026216,2,6,5,8,0,3,nan,nan,nan,nan,nan,nan,nan,nan,nan,nan,nan,nan,0.0,nan,nan,nan,nan,nan,nan,nan,nan,nan,nan,nan,nan,nan,nan,nan,nan,nan,nan,659.8098336548719,1186.9766372152662,nan,1187.3496372292284,nan,nan,nan,nan
1,272,1,1,1.0,1.0,0.30819677459658124,0,0.0,0.0,0.0,0.4853208750936364,0.13283287783062983,0.3524879972630066,0.6181537529242662,0.13283287783062983,0.35700544752762653,7,5,1,2,4,0,nan,nan,nan,nan,nan,nan,nan,nan,nan,nan,nan,nan,0.0,nan,nan,nan,nan,nan,nan,nan,nan,nan,nan,nan,nan,nan,nan,nan,nan,nan,nan,659.8098336548719,1187.993423969252,nan,1188.3016207438486,nan,nan,nan,nan
1,273,1,1,1.0,1.0,0.29136297974037006,0,1.0,0.0,0.0,0.4846422386932645,0.1330289893886144,0.3516132493046501,0.6176712280818789,0.1330289893886144,0.3241865894330355,4,6,2,7,3,8,nan,nan,nan,nan,nan,nan,nan,nan,nan,nan,nan,nan,0.0,nan,nan,nan,nan,nan,nan,nan,nan,nan,nan,nan,nan,nan,nan,nan,nan,nan,nan,659.8098336548719,1189.010243794386,nan,1189.3016067741264,nan,nan,nan,nan
